distractor,target,set,ans1,ans2,rep_loop4.thisRepN,rep_loop4.thisTrialN,rep_loop4.thisN,rep_loop4.thisIndex,st2_prac_loop.thisRepN,st2_prac_loop.thisTrialN,st2_prac_loop.thisN,st2_prac_loop.thisIndex,st2_main_loop.thisRepN,st2_main_loop.thisTrialN,st2_main_loop.thisN,st2_main_loop.thisIndex,image_4.started,image_4.stopped,mouse_7.x,mouse_7.y,mouse_7.leftButton,mouse_7.midButton,mouse_7.rightButton,sound_2.started,sound_2.stopped,key_resp_3.keys,mouse_5.x,mouse_5.y,mouse_5.leftButton,mouse_5.midButton,mouse_5.rightButton,mouse_5.started,mouse_5.stopped,yes_text2.started,yes_text2.stopped,no_text2.started,no_text2.stopped,mouse_3.x,mouse_3.y,mouse_3.leftButton,mouse_3.midButton,mouse_3.rightButton,mouse_3.started,mouse_3.stopped,st_prac_back.started,st_prac_back.stopped,st_prac_text.started,st_prac_text.stopped,st_fix_back.started,st_fix_back.stopped,st_fix_2.started,st_fix_2.stopped,main_prac,st_ans,st_res,st_corr,st_rt,st_back.started,st_back.stopped,st2_resp.keys,st2_resp.corr,st_main_back.started,st_main_back.stopped,st_main_text.started,st_main_text.stopped,mouse_4.x,mouse_4.y,mouse_4.leftButton,mouse_4.midButton,mouse_4.rightButton,mouse_4.clicked_name,mouse_4.started,mouse_4.stopped,text_2.started,text_2.stopped,id*,age*,gender*,date,expName,psychopyVersion,frameRate,
,,,,,,,,,,,,,,,,,33.58012830000371,None,-0.28796297,0.14074074,0,0,0,,,,,,,,,,,,,,,,,,,,,,,,,,,,,,,,,,,,,,,,,,,,,,,,,,,,,110,21,Female,2022-05-03_17h08.24.299,Parachute,2022.1.1,59.997504107524186,
negative,yellow,1,k,None,,,,,0,0,0,0,,,,,,,,,,,,41.65153614999872,None,None,0.34537038,-0.4138889,0,0,0,1.0101934499980416,None,97.85283220000565,None,97.85283220000565,None,-0.09351852,-0.1,0,0,0,0.013823250017594546,None,99.25355179999315,None,99.25355179999315,None,101.26854979999189,None,101.26854979999189,None,prac,k,k,1,1.5988642000011168,103.28305820000242,None,None,0,,,,,,,,,,,,,,,110,21,Female,2022-05-03_17h08.24.299,Parachute,2022.1.1,59.997504107524186,
positive,red,2,None,None,,,,,0,1,1,1,,,,,,,,,,,,,,,,,,,,,,,,,,,,,,,,,,,,,,,,,prac,None,None,1,1.5031818999996176,106.88627590000397,None,None,1,,,,,,,,,,,,,,,110,21,Female,2022-05-03_17h08.24.299,Parachute,2022.1.1,59.997504107524186,
negative,blue,2,None,k,,,,,0,2,2,2,,,,,,,,,,,,,,,,,,,,,,,,,,,,,,,,,,,,,,,,,prac,None,None,1,1.4989308999938658,109.39046840000083,None,None,1,,,,,,,,,,,,,,,110,21,Female,2022-05-03_17h08.24.299,Parachute,2022.1.1,59.997504107524186,
positive,yellow,1,None,k,,,,,0,3,3,3,,,,,,,,,,,,,,,,,,,,,,,,,,,,,,,,,,,,,,,,,prac,None,None,1,1.4952537000062875,111.8998081000027,None,None,1,,,,,,,,,,,,,,,110,21,Female,2022-05-03_17h08.24.299,Parachute,2022.1.1,59.997504107524186,
negative,blue,2,None,k,,,,,0,4,4,4,,,,,,,,,,,,,,,,,,,,,,,,,,,,,,,,,,,,,,,,,prac,None,None,1,1.4989329999953043,114.39357359999849,None,None,1,,,,,,,,,,,,,,,110,21,Female,2022-05-03_17h08.24.299,Parachute,2022.1.1,59.997504107524186,
negative,blue,1,None,k,,,,,0,5,5,5,,,,,,,,,,,,,,,,,,,,,,,,,,,,,,,,,,,,,,,,,prac,None,None,1,1.4988318999967305,116.88644899999781,None,None,1,,,,,,,,,,,,,,,110,21,Female,2022-05-03_17h08.24.299,Parachute,2022.1.1,59.997504107524186,
negative,yellow,2,k,None,,,,,0,6,6,6,,,,,,,,,,,,,,,,,,,,,,,,,,,,,,,,,,,,,,,,,prac,k,k,1,0.9844832000089809,119.38680290000048,None,None,0,,,,,,,,,,,,,,,110,21,Female,2022-05-03_17h08.24.299,Parachute,2022.1.1,59.997504107524186,
negative,red,1,None,None,,,,,0,7,7,7,,,,,,,,,,,,,,,,,,,,,,,,,,,,,,,,,,,,,,,,,prac,None,None,1,1.4965385999967111,121.37907959999575,None,None,1,,,,,,,,,,,,,,,110,21,Female,2022-05-03_17h08.24.299,Parachute,2022.1.1,59.997504107524186,
positive,yellow,2,None,k,,,,,0,8,8,8,,,,,,,,,,,,,,,,,,,,,,,,,,,,,,,,,,,,,,,,,prac,None,None,1,1.498616700002458,123.87867619999452,None,None,1,,,,,,,,,,,,,,,110,21,Female,2022-05-03_17h08.24.299,Parachute,2022.1.1,59.997504107524186,
negative,yellow,1,k,None,,,,,0,9,9,9,,,,,,,,,,,,,,,,,,,,,,,,,,,,,,,,,,,,,,,,,prac,k,k,1,1.0375088999862783,126.37060480000218,None,None,0,,,,,,,,,,,,,,,110,21,Female,2022-05-03_17h08.24.299,Parachute,2022.1.1,59.997504107524186,
positive,yellow,2,None,k,,,,,0,10,10,10,,,,,,,,,,,,,,,,,,,,,,,,,,,,,,,,,,,,,,,,,prac,None,None,1,1.4935978000139585,128.40820979999262,None,None,1,,,,,,,,,,,,,,,110,21,Female,2022-05-03_17h08.24.299,Parachute,2022.1.1,59.997504107524186,
negative,yellow,2,k,None,,,,,0,11,11,11,,,,,,,,,,,,,,,,,,,,,,,,,,,,,,,,,,,,,,,,,prac,k,k,1,1.0035759000020334,130.90543400000024,None,None,0,,,,,,,,,,,,,,,110,21,Female,2022-05-03_17h08.24.299,Parachute,2022.1.1,59.997504107524186,
negative,red,2,None,None,,,,,0,12,12,12,,,,,,,,,,,,,,,,,,,,,,,,,,,,,,,,,,,,,,,,,prac,None,None,1,1.4934214999957476,132.90829759999178,None,None,1,,,,,,,,,,,,,,,110,21,Female,2022-05-03_17h08.24.299,Parachute,2022.1.1,59.997504107524186,
positive,red,1,None,None,,,,,0,13,13,13,,,,,,,,,,,,,,,,,,,,,,,,,,,,,,,,,,,,,,,,,prac,None,None,1,1.4987082000006922,135.41080359999614,None,None,1,,,,,,,,,,,,,,,110,21,Female,2022-05-03_17h08.24.299,Parachute,2022.1.1,59.997504107524186,
positive,blue,2,k,None,,,,,0,14,14,14,,,,,,,,,,,,,,,,,,,,,,,,,,,,,,,,,,,,,,,,,prac,k,k,1,0.8365311000088695,137.90416960000584,None,None,0,,,,,,,,,,,,,,,110,21,Female,2022-05-03_17h08.24.299,Parachute,2022.1.1,59.997504107524186,
positive,blue,1,k,None,,,,,0,15,15,15,,,,,,,,,,,,,,,,,,,,,,,,,,,,,,,,,,,,,,,,,prac,k,k,1,1.0497730000060983,139.74213040000177,None,None,0,,,,,,,,,,,,,,,110,21,Female,2022-05-03_17h08.24.299,Parachute,2022.1.1,59.997504107524186,
negative,blue,1,None,k,,,,,0,16,16,16,,,,,,,,,,,,,,,,,,,,,,,,,,,,,,,,,,,,,,,,,prac,None,None,1,1.4932992000103695,141.79236029999447,None,None,1,,,,,,,,,,,,,,,110,21,Female,2022-05-03_17h08.24.299,Parachute,2022.1.1,59.997504107524186,
positive,blue,2,k,None,,,,,0,17,17,17,,,,,,,,,,,,,,,,,,,,,,,,,,,,,,,,,,,,,,,,,prac,k,k,1,0.9345367999922018,144.2876569999935,None,None,0,,,,,,,,,,,,,,,110,21,Female,2022-05-03_17h08.24.299,Parachute,2022.1.1,59.997504107524186,
positive,blue,1,k,None,,,,,0,18,18,18,,,,,,,,,,,,,,,,,,,,,,,,,,,,,,,,,,,,,,,,,prac,k,k,1,0.817809699990903,146.22398120000435,None,None,0,,,,,,,,,,,,,,,110,21,Female,2022-05-03_17h08.24.299,Parachute,2022.1.1,59.997504107524186,
positive,yellow,1,None,k,,,,,0,19,19,19,,,,,,,,,,,,,,,,,,,,,,,,,,,,,,,,,,,,,,,,,prac,None,None,1,1.4939370000065537,148.04183560000092,None,None,1,,,,,,,,,,,,,,,110,21,Female,2022-05-03_17h08.24.299,Parachute,2022.1.1,59.997504107524186,
negative,yellow,1,k,None,,,,,1,0,20,0,,,,,,,,,,,,,,,,,,,,,,,,,,,,,,,,,,,,,,,,,prac,k,k,1,0.8202249000023585,150.53780320000078,None,None,0,,,,,,,,,,,,,,,110,21,Female,2022-05-03_17h08.24.299,Parachute,2022.1.1,59.997504107524186,
positive,red,2,None,None,,,,,1,1,21,1,,,,,,,,,,,,,,,,,,,,,,,,,,,,,,,,,,,,,,,,,prac,None,None,1,1.4936533000000054,152.359020399992,None,None,1,,,,,,,,,,,,,,,110,21,Female,2022-05-03_17h08.24.299,Parachute,2022.1.1,59.997504107524186,
negative,blue,2,None,k,,,,,1,2,22,2,,,,,,,,,,,,,,,,,,,,,,,,,,,,,,,,,,,,,,,,,prac,None,None,1,1.498963999998523,154.8541722999944,None,None,1,,,,,,,,,,,,,,,110,21,Female,2022-05-03_17h08.24.299,Parachute,2022.1.1,59.997504107524186,
positive,yellow,1,None,k,,,,,1,3,23,3,,,,,,,,,,,,,,,,,,,,,,,,,,,,,,,,,,,,,,,,,prac,None,None,1,1.4987349000002723,157.3547036999953,None,None,1,,,,,,,,,,,,,,,110,21,Female,2022-05-03_17h08.24.299,Parachute,2022.1.1,59.997504107524186,
negative,blue,2,None,k,,,,,1,4,24,4,,,,,,,,,,,,,,,,,,,,,,,,,,,,,,,,,,,,,,,,,prac,None,None,1,1.4983847000112291,159.85442419999163,None,None,1,,,,,,,,,,,,,,,110,21,Female,2022-05-03_17h08.24.299,Parachute,2022.1.1,59.997504107524186,
negative,blue,1,None,k,,,,,1,5,25,5,,,,,,,,,,,,,,,,,,,,,,,,,,,,,,,,,,,,,,,,,prac,None,None,1,1.4988808000052813,162.35449549999612,None,None,1,,,,,,,,,,,,,,,110,21,Female,2022-05-03_17h08.24.299,Parachute,2022.1.1,59.997504107524186,
negative,yellow,2,k,None,,,,,1,6,26,6,,,,,,,,,,,,,,,,,,,,,,,,,,,,,,,,,,,,,,,,,prac,k,k,1,1.030666000006022,164.8542895999999,None,None,0,,,,,,,,,,,,,,,110,21,Female,2022-05-03_17h08.24.299,Parachute,2022.1.1,59.997504107524186,
negative,red,1,None,None,,,,,1,7,27,7,,,,,,,,,,,,,,,,,,,,,,,,,,,,,,,,,,,,,,,,,prac,None,None,1,1.4997851000080118,166.88744079999742,None,None,1,,,,,,,,,,,,,,,110,21,Female,2022-05-03_17h08.24.299,Parachute,2022.1.1,59.997504107524186,
positive,yellow,2,None,k,,,,,1,8,28,8,,,,,,,,,,,,,,,,,,,,,,,,,,,,,,,,,,,,,,,,,prac,None,None,1,1.499066300006234,169.38775290000194,None,None,1,,,,,,,,,,,,,,,110,21,Female,2022-05-03_17h08.24.299,Parachute,2022.1.1,59.997504107524186,
negative,yellow,1,k,None,,,,,1,9,29,9,,,,,,,,,,,,,,,,,,,,,,,,,,,,,,,,,,,,,,,,,prac,k,k,1,0.9195858000020962,171.88797690000501,None,None,0,,,,,,,,,,,,,,,110,21,Female,2022-05-03_17h08.24.299,Parachute,2022.1.1,59.997504107524186,
positive,yellow,2,None,k,,,,,1,10,30,10,,,,,,,,,,,,,,,,,,,,,,,,,,,,,,,,,,,,,,,,,prac,None,None,1,1.4946010999992723,173.80957620000117,None,None,1,,,,,,,,,,,,,,,110,21,Female,2022-05-03_17h08.24.299,Parachute,2022.1.1,59.997504107524186,
negative,yellow,2,k,None,,,,,1,11,31,11,,,,,,,,,,,,,,,,,,,,,,,,,,,,,,,,,,,,,,,,,prac,k,k,1,0.8037438000028487,176.30480840000382,None,None,0,,,,,,,,,,,,,,,110,21,Female,2022-05-03_17h08.24.299,Parachute,2022.1.1,59.997504107524186,
negative,red,2,None,None,,,,,1,12,32,12,,,,,,,,,,,,,,,,,,,,,,,,,,,,,,,,,,,,,,,,,prac,None,None,1,1.4934573999926215,178.10941459999594,None,None,1,,,,,,,,,,,,,,,110,21,Female,2022-05-03_17h08.24.299,Parachute,2022.1.1,59.997504107524186,
positive,red,1,None,None,,,,,1,13,33,13,,,,,,,,,,,,,,,,,,,,,,,,,,,,,,,,,,,,,,,,,prac,None,None,1,1.4986171999917133,180.60422819999803,None,None,1,,,,,,,,,,,,,,,110,21,Female,2022-05-03_17h08.24.299,Parachute,2022.1.1,59.997504107524186,
positive,blue,2,k,None,,,,,1,14,34,14,,,,,,,,,,,,,,,,,,,,,,,,,,,,,,,,,,,,,,,,,prac,k,k,1,0.9537789000023622,183.10439300000144,None,None,0,,,,,,,,,,,,,,,110,21,Female,2022-05-03_17h08.24.299,Parachute,2022.1.1,59.997504107524186,
positive,blue,1,k,None,,,,,1,15,35,15,,,,,,,,,,,,,,,,,,,,,,,,,,,,,,,,,,,,,,,,,prac,k,k,1,0.8287431000062497,185.05939330000547,None,None,0,,,,,,,,,,,,,,,110,21,Female,2022-05-03_17h08.24.299,Parachute,2022.1.1,59.997504107524186,
negative,blue,1,None,k,,,,,1,16,36,16,,,,,,,,,,,,,,,,,,,,,,,,,,,,,,,,,,,,,,,,,prac,None,None,1,1.4968490000028396,186.8902689999959,None,None,1,,,,,,,,,,,,,,,110,21,Female,2022-05-03_17h08.24.299,Parachute,2022.1.1,59.997504107524186,
positive,blue,2,k,None,,,,,1,17,37,17,,,,,,,,,,,,,,,,,,,,,,,,,,,,,,,,,,,,,,,,,prac,k,k,1,0.8859558999974979,189.38854739999806,None,None,0,,,,,,,,,,,,,,,110,21,Female,2022-05-03_17h08.24.299,Parachute,2022.1.1,59.997504107524186,
positive,blue,1,k,None,,,,,1,18,38,18,,,,,,,,,,,,,,,,,,,,,,,,,,,,,,,,,,,,,,,,,prac,k,k,1,0.8956570000009378,191.2762892000028,None,None,0,,,,,,,,,,,,,,,110,21,Female,2022-05-03_17h08.24.299,Parachute,2022.1.1,59.997504107524186,
positive,yellow,1,None,k,,,,,1,19,39,19,,,,,,,,,,,,,,,,,,,,,,,,,,,,,,,,,,,,,,,,,prac,None,None,1,1.497302200004924,193.173887500001,None,None,1,,,,,,,,,,,,,,,110,21,Female,2022-05-03_17h08.24.299,Parachute,2022.1.1,59.997504107524186,
,,,,,,,,,,,,,,,,,,,,,,,,,,,,,,,,,,,,,,,,,,,,,,,,,,,,,,,,,,,,,,195.68615639999916,None,195.68615639999916,None,-0.042592593,-0.17407407,1,0,0,st_main_back,0.012549050006782636,None,,,110,21,Female,2022-05-03_17h08.24.299,Parachute,2022.1.1,59.997504107524186,
negative,yellow,2,k,None,,,,,,,,,0,0,0,0,,,,,,,,,,,,,,,,,,,,,,,,,,,,,,,,,205.89415150000423,None,205.89415150000423,None,main,k,k,1,0.7063736999989487,207.9533245000057,None,None,0,,,,,,,,,,,,,,,110,21,Female,2022-05-03_17h08.24.299,Parachute,2022.1.1,59.997504107524186,
positive,red,1,None,None,,,,,,,,,0,1,1,1,,,,,,,,,,,,,,,,,,,,,,,,,,,,,,,,,,,,,main,None,None,1,1.492864499989082,209.66150089999428,None,None,1,,,,,,,,,,,,,,,110,21,Female,2022-05-03_17h08.24.299,Parachute,2022.1.1,59.997504107524186,
positive,blue,2,k,None,,,,,,,,,0,2,2,2,,,,,,,,,,,,,,,,,,,,,,,,,,,,,,,,,,,,,main,k,k,1,0.6374503999977605,212.1552659000008,None,None,0,,,,,,,,,,,,,,,110,21,Female,2022-05-03_17h08.24.299,Parachute,2022.1.1,59.997504107524186,
positive,blue,1,k,None,,,,,,,,,0,3,3,3,,,,,,,,,,,,,,,,,,,,,,,,,,,,,,,,,,,,,main,k,k,1,0.6949947999964934,213.79393770000024,None,None,0,,,,,,,,,,,,,,,110,21,Female,2022-05-03_17h08.24.299,Parachute,2022.1.1,59.997504107524186,
negative,yellow,2,k,None,,,,,,,,,0,4,4,4,,,,,,,,,,,,,,,,,,,,,,,,,,,,,,,,,,,,,main,k,k,1,0.6525912999932189,215.49046149999776,None,None,0,,,,,,,,,,,,,,,110,21,Female,2022-05-03_17h08.24.299,Parachute,2022.1.1,59.997504107524186,
positive,yellow,2,None,k,,,,,,,,,0,5,5,5,,,,,,,,,,,,,,,,,,,,,,,,,,,,,,,,,,,,,main,None,None,1,1.493150100010098,217.14356250000128,None,None,1,,,,,,,,,,,,,,,110,21,Female,2022-05-03_17h08.24.299,Parachute,2022.1.1,59.997504107524186,
negative,blue,2,None,k,,,,,,,,,0,6,6,6,,,,,,,,,,,,,,,,,,,,,,,,,,,,,,,,,,,,,main,None,None,1,1.4990944000019226,219.63864089999697,None,None,1,,,,,,,,,,,,,,,110,21,Female,2022-05-03_17h08.24.299,Parachute,2022.1.1,59.997504107524186,
positive,red,2,None,None,,,,,,,,,0,7,7,7,,,,,,,,,,,,,,,,,,,,,,,,,,,,,,,,,,,,,main,None,None,1,1.4983234999963315,222.13934939999308,None,None,1,,,,,,,,,,,,,,,110,21,Female,2022-05-03_17h08.24.299,Parachute,2022.1.1,59.997504107524186,
positive,yellow,1,None,k,,,,,,,,,0,8,8,8,,,,,,,,,,,,,,,,,,,,,,,,,,,,,,,,,,,,,main,None,None,1,1.4995154999924125,224.63905810000142,None,None,1,,,,,,,,,,,,,,,110,21,Female,2022-05-03_17h08.24.299,Parachute,2022.1.1,59.997504107524186,
negative,red,1,None,None,,,,,,,,,0,9,9,9,,,,,,,,,,,,,,,,,,,,,,,,,,,,,,,,,,,,,main,None,None,1,1.4984437999955844,227.14000759999908,None,None,1,,,,,,,,,,,,,,,110,21,Female,2022-05-03_17h08.24.299,Parachute,2022.1.1,59.997504107524186,
positive,yellow,1,None,k,,,,,,,,,0,10,10,10,,,,,,,,,,,,,,,,,,,,,,,,,,,,,,,,,,,,,main,None,None,1,1.4987611999968067,229.6392724000034,None,None,1,,,,,,,,,,,,,,,110,21,Female,2022-05-03_17h08.24.299,Parachute,2022.1.1,59.997504107524186,
negative,yellow,1,k,None,,,,,,,,,0,11,11,11,,,,,,,,,,,,,,,,,,,,,,,,,,,,,,,,,,,,,main,k,k,1,0.6523562999936985,232.13992339999822,None,None,0,,,,,,,,,,,,,,,110,21,Female,2022-05-03_17h08.24.299,Parachute,2022.1.1,59.997504107524186,
negative,yellow,1,k,None,,,,,,,,,0,12,12,12,,,,,,,,,,,,,,,,,,,,,,,,,,,,,,,,,,,,,main,k,k,1,0.7649658000009367,233.79436260000512,None,None,0,,,,,,,,,,,,,,,110,21,Female,2022-05-03_17h08.24.299,Parachute,2022.1.1,59.997504107524186,
negative,red,2,None,None,,,,,,,,,0,13,13,13,,,,,,,,,,,,,,,,,,,,,,,,,,,,,,,,,,,,,main,None,None,1,1.4955464999948163,235.56003160000546,None,None,1,,,,,,,,,,,,,,,110,21,Female,2022-05-03_17h08.24.299,Parachute,2022.1.1,59.997504107524186,
positive,yellow,2,None,k,,,,,,,,,0,14,14,14,,,,,,,,,,,,,,,,,,,,,,,,,,,,,,,,,,,,,main,None,None,1,1.4988291999907233,238.0559981999977,None,None,1,,,,,,,,,,,,,,,110,21,Female,2022-05-03_17h08.24.299,Parachute,2022.1.1,59.997504107524186,
positive,blue,1,k,None,,,,,,,,,0,15,15,15,,,,,,,,,,,,,,,,,,,,,,,,,,,,,,,,,,,,,main,k,k,1,0.7704257000004873,240.55629839999892,None,None,0,,,,,,,,,,,,,,,110,21,Female,2022-05-03_17h08.24.299,Parachute,2022.1.1,59.997504107524186,
negative,blue,1,None,k,,,,,,,,,0,16,16,16,,,,,,,,,,,,,,,,,,,,,,,,,,,,,,,,,,,,,main,None,None,1,1.4932525000040187,242.32738149999932,None,None,1,,,,,,,,,,,,,,,110,21,Female,2022-05-03_17h08.24.299,Parachute,2022.1.1,59.997504107524186,
positive,blue,2,k,None,,,,,,,,,0,17,17,17,,,,,,,,,,,,,,,,,,,,,,,,,,,,,,,,,,,,,main,k,k,1,0.9191279000078794,244.82250249999925,None,None,0,,,,,,,,,,,,,,,110,21,Female,2022-05-03_17h08.24.299,Parachute,2022.1.1,59.997504107524186,
negative,blue,2,None,k,,,,,,,,,0,18,18,18,,,,,,,,,,,,,,,,,,,,,,,,,,,,,,,,,,,,,main,None,None,1,1.4949535999912769,246.7431471000018,None,None,1,,,,,,,,,,,,,,,110,21,Female,2022-05-03_17h08.24.299,Parachute,2022.1.1,59.997504107524186,
negative,blue,1,None,k,,,,,,,,,0,19,19,19,,,,,,,,,,,,,,,,,,,,,,,,,,,,,,,,,,,,,main,None,None,1,1.4988834000105271,249.24057229999744,None,None,1,,,,,,,,,,,,,,,110,21,Female,2022-05-03_17h08.24.299,Parachute,2022.1.1,59.997504107524186,
negative,blue,1,None,k,,,,,,,,,0,20,20,20,,,,,,,,,,,,,,,,,,,,,,,,,,,,,,,,,,,,,main,None,None,1,1.4989150000037625,251.74000940000406,None,None,1,,,,,,,,,,,,,,,110,21,Female,2022-05-03_17h08.24.299,Parachute,2022.1.1,59.997504107524186,
negative,blue,2,None,k,,,,,,,,,0,21,21,21,,,,,,,,,,,,,,,,,,,,,,,,,,,,,,,,,,,,,main,None,None,1,1.4984125000046333,254.24045810000098,None,None,1,,,,,,,,,,,,,,,110,21,Female,2022-05-03_17h08.24.299,Parachute,2022.1.1,59.997504107524186,
negative,red,1,None,None,,,,,,,,,0,22,22,22,,,,,,,,,,,,,,,,,,,,,,,,,,,,,,,,,,,,,main,None,None,1,1.4980841000069631,256.7405393999943,None,None,1,,,,,,,,,,,,,,,110,21,Female,2022-05-03_17h08.24.299,Parachute,2022.1.1,59.997504107524186,
positive,red,2,None,None,,,,,,,,,0,23,23,23,,,,,,,,,,,,,,,,,,,,,,,,,,,,,,,,,,,,,main,None,None,1,1.4987274000013713,259.24018789999536,None,None,1,,,,,,,,,,,,,,,110,21,Female,2022-05-03_17h08.24.299,Parachute,2022.1.1,59.997504107524186,
negative,red,2,None,None,,,,,,,,,0,24,24,24,,,,,,,,,,,,,,,,,,,,,,,,,,,,,,,,,,,,,main,None,None,1,1.498402500001248,261.7401663000055,None,None,1,,,,,,,,,,,,,,,110,21,Female,2022-05-03_17h08.24.299,Parachute,2022.1.1,59.997504107524186,
positive,blue,2,k,None,,,,,,,,,0,25,25,25,,,,,,,,,,,,,,,,,,,,,,,,,,,,,,,,,,,,,main,k,k,1,0.7526654999965103,264.24034380000376,None,None,0,,,,,,,,,,,,,,,110,21,Female,2022-05-03_17h08.24.299,Parachute,2022.1.1,59.997504107524186,
negative,yellow,1,k,None,,,,,,,,,0,26,26,26,,,,,,,,,,,,,,,,,,,,,,,,,,,,,,,,,,,,,main,k,k,1,0.9000480999966385,265.99484879999363,None,None,0,,,,,,,,,,,,,,,110,21,Female,2022-05-03_17h08.24.299,Parachute,2022.1.1,59.997504107524186,
positive,blue,2,k,None,,,,,,,,,0,27,27,27,,,,,,,,,,,,,,,,,,,,,,,,,,,,,,,,,,,,,main,k,k,1,0.7315826999983983,267.8946833999944,None,None,0,,,,,,,,,,,,,,,110,21,Female,2022-05-03_17h08.24.299,Parachute,2022.1.1,59.997504107524186,
negative,blue,2,None,k,,,,,,,,,0,28,28,28,,,,,,,,,,,,,,,,,,,,,,,,,,,,,,,,,,,,,main,None,None,1,1.4934082999970997,269.62827560000005,None,None,1,,,,,,,,,,,,,,,110,21,Female,2022-05-03_17h08.24.299,Parachute,2022.1.1,59.997504107524186,
positive,red,1,None,None,,,,,,,,,0,29,29,29,,,,,,,,,,,,,,,,,,,,,,,,,,,,,,,,,,,,,main,None,None,1,1.4991568999976153,272.12337699999625,None,None,1,,,,,,,,,,,,,,,110,21,Female,2022-05-03_17h08.24.299,Parachute,2022.1.1,59.997504107524186,
positive,blue,1,k,None,,,,,,,,,0,30,30,30,,,,,,,,,,,,,,,,,,,,,,,,,,,,,,,,,,,,,main,k,k,1,0.7675661999965087,274.6235366000037,None,None,0,,,,,,,,,,,,,,,110,21,Female,2022-05-03_17h08.24.299,Parachute,2022.1.1,59.997504107524186,
positive,yellow,1,None,k,,,,,,,,,0,31,31,31,,,,,,,,,,,,,,,,,,,,,,,,,,,,,,,,,,,,,main,None,None,1,1.4958954000030644,276.39328409999143,None,None,1,,,,,,,,,,,,,,,110,21,Female,2022-05-03_17h08.24.299,Parachute,2022.1.1,59.997504107524186,
negative,yellow,2,k,None,,,,,,,,,0,32,32,32,,,,,,,,,,,,,,,,,,,,,,,,,,,,,,,,,,,,,main,k,k,1,0.7369886000087718,278.8910604999983,None,None,0,,,,,,,,,,,,,,,110,21,Female,2022-05-03_17h08.24.299,Parachute,2022.1.1,59.997504107524186,
negative,blue,1,None,k,,,,,,,,,0,33,33,33,,,,,,,,,,,,,,,,,,,,,,,,,,,,,,,,,,,,,main,None,None,1,1.4939941000047838,280.6281566999969,None,None,1,,,,,,,,,,,,,,,110,21,Female,2022-05-03_17h08.24.299,Parachute,2022.1.1,59.997504107524186,
positive,blue,1,k,None,,,,,,,,,0,34,34,34,,,,,,,,,,,,,,,,,,,,,,,,,,,,,,,,,,,,,main,k,k,1,0.6532451999955811,283.1237136999989,None,None,0,,,,,,,,,,,,,,,110,21,Female,2022-05-03_17h08.24.299,Parachute,2022.1.1,59.997504107524186,
negative,yellow,1,k,None,,,,,,,,,0,35,35,35,,,,,,,,,,,,,,,,,,,,,,,,,,,,,,,,,,,,,main,k,k,1,0.7323565999977291,284.7788373999938,None,None,0,,,,,,,,,,,,,,,110,21,Female,2022-05-03_17h08.24.299,Parachute,2022.1.1,59.997504107524186,
positive,yellow,2,None,k,,,,,,,,,0,36,36,36,,,,,,,,,,,,,,,,,,,,,,,,,,,,,,,,,,,,,main,None,None,1,1.4940016000036849,286.51165679999394,None,None,1,,,,,,,,,,,,,,,110,21,Female,2022-05-03_17h08.24.299,Parachute,2022.1.1,59.997504107524186,
positive,yellow,2,None,k,,,,,,,,,0,37,37,37,,,,,,,,,,,,,,,,,,,,,,,,,,,,,,,,,,,,,main,None,None,1,1.4989838000037707,289.00722210000094,None,None,1,,,,,,,,,,,,,,,110,21,Female,2022-05-03_17h08.24.299,Parachute,2022.1.1,59.997504107524186,
negative,yellow,2,k,None,,,,,,,,,0,38,38,38,,,,,,,,,,,,,,,,,,,,,,,,,,,,,,,,,,,,,main,k,k,1,0.6703994999988936,291.5076765999984,None,None,0,,,,,,,,,,,,,,,110,21,Female,2022-05-03_17h08.24.299,Parachute,2022.1.1,59.997504107524186,
positive,yellow,1,None,k,,,,,,,,,0,39,39,39,,,,,,,,,,,,,,,,,,,,,,,,,,,,,,,,,,,,,main,None,None,1,1.4934711000096286,293.18847860000096,None,None,1,,,,,,,,,,,,,,,110,21,Female,2022-05-03_17h08.24.299,Parachute,2022.1.1,59.997504107524186,
negative,yellow,2,k,None,,,,,,,,,0,40,40,40,,,,,,,,,,,,,,,,,,,,,,,,,,,,,,,,,,,,,main,k,k,1,0.8373799999972107,295.67447019999963,None,None,0,,,,,,,,,,,,,,,110,21,Female,2022-05-03_17h08.24.299,Parachute,2022.1.1,59.997504107524186,
positive,blue,2,k,None,,,,,,,,,0,41,41,41,,,,,,,,,,,,,,,,,,,,,,,,,,,,,,,,,,,,,main,k,k,1,0.83144120000361,297.5118918999942,None,None,0,,,,,,,,,,,,,,,110,21,Female,2022-05-03_17h08.24.299,Parachute,2022.1.1,59.997504107524186,
positive,blue,2,k,None,,,,,,,,,0,42,42,42,,,,,,,,,,,,,,,,,,,,,,,,,,,,,,,,,,,,,main,k,k,1,0.7157810000062454,299.34600160000264,None,None,0,,,,,,,,,,,,,,,110,21,Female,2022-05-03_17h08.24.299,Parachute,2022.1.1,59.997504107524186,
negative,blue,2,None,k,,,,,,,,,0,43,43,43,,,,,,,,,,,,,,,,,,,,,,,,,,,,,,,,,,,,,main,None,None,1,1.4933094999869354,301.0622754999931,None,None,1,,,,,,,,,,,,,,,110,21,Female,2022-05-03_17h08.24.299,Parachute,2022.1.1,59.997504107524186,
negative,red,1,None,None,,,,,,,,,0,44,44,44,,,,,,,,,,,,,,,,,,,,,,,,,,,,,,,,,,,,,main,None,None,1,1.4986202000000048,303.5576299999957,None,None,1,,,,,,,,,,,,,,,110,21,Female,2022-05-03_17h08.24.299,Parachute,2022.1.1,59.997504107524186,
negative,yellow,1,k,None,,,,,,,,,0,45,45,45,,,,,,,,,,,,,,,,,,,,,,,,,,,,,,,,,,,,,main,k,k,1,1.187362700002268,306.0570657999924,None,None,0,,,,,,,,,,,,,,,110,21,Female,2022-05-03_17h08.24.299,Parachute,2022.1.1,59.997504107524186,
negative,yellow,1,k,None,,,,,,,,,0,46,46,46,,,,,,,,,,,,,,,,,,,,,,,,,,,,,,,,,,,,,main,k,k,1,0.8491427999979351,308.2459649999946,None,None,0,,,,,,,,,,,,,,,110,21,Female,2022-05-03_17h08.24.299,Parachute,2022.1.1,59.997504107524186,
positive,red,1,None,None,,,,,,,,,0,47,47,47,,,,,,,,,,,,,,,,,,,,,,,,,,,,,,,,,,,,,main,None,None,1,1.4932052999938605,310.09608649999427,None,None,1,,,,,,,,,,,,,,,110,21,Female,2022-05-03_17h08.24.299,Parachute,2022.1.1,59.997504107524186,
positive,yellow,1,None,k,,,,,,,,,0,48,48,48,,,,,,,,,,,,,,,,,,,,,,,,,,,,,,,,,,,,,main,None,None,1,1.4998020000057295,312.5910107999953,None,None,1,,,,,,,,,,,,,,,110,21,Female,2022-05-03_17h08.24.299,Parachute,2022.1.1,59.997504107524186,
negative,blue,1,None,k,,,,,,,,,0,49,49,49,,,,,,,,,,,,,,,,,,,,,,,,,,,,,,,,,,,,,main,None,None,1,1.4965835000039078,315.0953671000025,None,None,1,,,,,,,,,,,,,,,110,21,Female,2022-05-03_17h08.24.299,Parachute,2022.1.1,59.997504107524186,
positive,yellow,2,None,k,,,,,,,,,0,50,50,50,,,,,,,,,,,,,,,,,,,,,,,,,,,,,,,,,,,,,main,None,None,1,1.4991387000045506,317.5910214000032,None,None,1,,,,,,,,,,,,,,,110,21,Female,2022-05-03_17h08.24.299,Parachute,2022.1.1,59.997504107524186,
negative,blue,1,None,k,,,,,,,,,0,51,51,51,,,,,,,,,,,,,,,,,,,,,,,,,,,,,,,,,,,,,main,None,None,1,1.4982501000049524,320.09140969999135,None,None,1,,,,,,,,,,,,,,,110,21,Female,2022-05-03_17h08.24.299,Parachute,2022.1.1,59.997504107524186,
positive,red,2,None,None,,,,,,,,,0,52,52,52,,,,,,,,,,,,,,,,,,,,,,,,,,,,,,,,,,,,,main,None,None,1,1.4990779999934603,322.59088849999534,None,None,1,,,,,,,,,,,,,,,110,21,Female,2022-05-03_17h08.24.299,Parachute,2022.1.1,59.997504107524186,
positive,yellow,2,None,k,,,,,,,,,0,53,53,53,,,,,,,,,,,,,,,,,,,,,,,,,,,,,,,,,,,,,main,None,None,1,1.4986634000088088,325.09176349999325,None,None,1,,,,,,,,,,,,,,,110,21,Female,2022-05-03_17h08.24.299,Parachute,2022.1.1,59.997504107524186,
negative,red,2,None,None,,,,,,,,,0,54,54,54,,,,,,,,,,,,,,,,,,,,,,,,,,,,,,,,,,,,,main,None,None,1,1.4989075000048615,327.5917441999918,None,None,1,,,,,,,,,,,,,,,110,21,Female,2022-05-03_17h08.24.299,Parachute,2022.1.1,59.997504107524186,
positive,yellow,1,None,k,,,,,,,,,0,55,55,55,,,,,,,,,,,,,,,,,,,,,,,,,,,,,,,,,,,,,main,None,None,1,1.4985687000007601,330.0918368999992,None,None,1,,,,,,,,,,,,,,,110,21,Female,2022-05-03_17h08.24.299,Parachute,2022.1.1,59.997504107524186,
negative,blue,2,None,k,,,,,,,,,0,56,56,56,,,,,,,,,,,,,,,,,,,,,,,,,,,,,,,,,,,,,main,None,None,1,1.4988324000005377,332.5917689999915,None,None,1,,,,,,,,,,,,,,,110,21,Female,2022-05-03_17h08.24.299,Parachute,2022.1.1,59.997504107524186,
positive,blue,1,k,None,,,,,,,,,0,57,57,57,,,,,,,,,,,,,,,,,,,,,,,,,,,,,,,,,,,,,main,k,k,1,0.9031839000090258,335.0921253999986,None,None,0,,,,,,,,,,,,,,,110,21,Female,2022-05-03_17h08.24.299,Parachute,2022.1.1,59.997504107524186,
positive,blue,1,k,None,,,,,,,,,0,58,58,58,,,,,,,,,,,,,,,,,,,,,,,,,,,,,,,,,,,,,main,k,k,1,0.725820499996189,336.9964082999941,None,None,0,,,,,,,,,,,,,,,110,21,Female,2022-05-03_17h08.24.299,Parachute,2022.1.1,59.997504107524186,
negative,yellow,2,k,None,,,,,,,,,0,59,59,59,,,,,,,,,,,,,,,,,,,,,,,,,,,,,,,,,,,,,main,k,k,1,0.7048140999977477,338.7243237999937,None,None,0,,,,,,,,,,,,,,,110,21,Female,2022-05-03_17h08.24.299,Parachute,2022.1.1,59.997504107524186,
positive,red,2,None,None,,,,,,,,,0,60,60,60,,,,,,,,,,,,,,,,,,,,,,,,,,,,,,,,,,,,,main,None,None,1,1.4938752000016393,340.430028200004,None,None,1,,,,,,,,,,,,,,,110,21,Female,2022-05-03_17h08.24.299,Parachute,2022.1.1,59.997504107524186,
negative,yellow,1,k,None,,,,,,,,,0,61,61,61,,,,,,,,,,,,,,,,,,,,,,,,,,,,,,,,,,,,,main,k,k,1,0.7538348000089172,342.9252847000025,None,None,0,,,,,,,,,,,,,,,110,21,Female,2022-05-03_17h08.24.299,Parachute,2022.1.1,59.997504107524186,
negative,red,1,None,None,,,,,,,,,0,62,62,62,,,,,,,,,,,,,,,,,,,,,,,,,,,,,,,,,,,,,main,None,None,1,1.4929725999973016,344.67975429999933,None,None,1,,,,,,,,,,,,,,,110,21,Female,2022-05-03_17h08.24.299,Parachute,2022.1.1,59.997504107524186,
negative,blue,1,None,k,,,,,,,,,0,63,63,63,,,,,,,,,,,,,,,,,,,,,,,,,,,,,,,,,,,,,main,None,None,1,1.4996305999957258,347.1750150000007,None,None,1,,,,,,,,,,,,,,,110,21,Female,2022-05-03_17h08.24.299,Parachute,2022.1.1,59.997504107524186,
positive,blue,2,k,None,,,,,,,,,0,64,64,64,,,,,,,,,,,,,,,,,,,,,,,,,,,,,,,,,,,,,main,k,k,1,0.6871762999944622,349.67538489999424,None,None,0,,,,,,,,,,,,,,,110,21,Female,2022-05-03_17h08.24.299,Parachute,2022.1.1,59.997504107524186,
negative,yellow,2,k,None,,,,,,,,,0,65,65,65,,,,,,,,,,,,,,,,,,,,,,,,,,,,,,,,,,,,,main,k,k,1,0.8651303999940865,351.37516419999884,None,None,0,,,,,,,,,,,,,,,110,21,Female,2022-05-03_17h08.24.299,Parachute,2022.1.1,59.997504107524186,
positive,yellow,2,None,k,,,,,,,,,0,66,66,66,,,,,,,,,,,,,,,,,,,,,,,,,,,,,,,,,,,,,main,None,None,1,1.4932643999927677,353.2300654999999,None,None,1,,,,,,,,,,,,,,,110,21,Female,2022-05-03_17h08.24.299,Parachute,2022.1.1,59.997504107524186,
positive,yellow,2,None,k,,,,,,,,,0,67,67,67,,,,,,,,,,,,,,,,,,,,,,,,,,,,,,,,,,,,,main,None,None,1,1.4986302999895997,355.7251219000027,None,None,1,,,,,,,,,,,,,,,110,21,Female,2022-05-03_17h08.24.299,Parachute,2022.1.1,59.997504107524186,
positive,red,1,None,None,,,,,,,,,0,68,68,68,,,,,,,,,,,,,,,,,,,,,,,,,,,,,,,,,,,,,main,None,None,1,1.4988063999917358,358.2252961000049,None,None,1,,,,,,,,,,,,,,,110,21,Female,2022-05-03_17h08.24.299,Parachute,2022.1.1,59.997504107524186,
positive,yellow,1,None,k,,,,,,,,,0,69,69,69,,,,,,,,,,,,,,,,,,,,,,,,,,,,,,,,,,,,,main,None,None,1,1.4987799000082305,360.72528329999477,None,None,1,,,,,,,,,,,,,,,110,21,Female,2022-05-03_17h08.24.299,Parachute,2022.1.1,59.997504107524186,
negative,yellow,2,k,None,,,,,,,,,0,70,70,70,,,,,,,,,,,,,,,,,,,,,,,,,,,,,,,,,,,,,main,k,k,1,0.9033112000033725,363.22536870000476,None,None,0,,,,,,,,,,,,,,,110,21,Female,2022-05-03_17h08.24.299,Parachute,2022.1.1,59.997504107524186,
positive,yellow,1,None,k,,,,,,,,,0,71,71,71,,,,,,,,,,,,,,,,,,,,,,,,,,,,,,,,,,,,,main,None,None,1,1.4946206999884453,365.13044520000403,None,None,1,,,,,,,,,,,,,,,110,21,Female,2022-05-03_17h08.24.299,Parachute,2022.1.1,59.997504107524186,
negative,blue,1,None,k,,,,,,,,,0,72,72,72,,,,,,,,,,,,,,,,,,,,,,,,,,,,,,,,,,,,,main,None,None,1,1.4983403000078397,367.625778799993,None,None,1,,,,,,,,,,,,,,,110,21,Female,2022-05-03_17h08.24.299,Parachute,2022.1.1,59.997504107524186,
negative,red,2,None,None,,,,,,,,,0,73,73,73,,,,,,,,,,,,,,,,,,,,,,,,,,,,,,,,,,,,,main,None,None,1,1.4986567000014475,370.12537650000013,None,None,1,,,,,,,,,,,,,,,110,21,Female,2022-05-03_17h08.24.299,Parachute,2022.1.1,59.997504107524186,
positive,blue,2,k,None,,,,,,,,,0,74,74,74,,,,,,,,,,,,,,,,,,,,,,,,,,,,,,,,,,,,,main,k,k,1,0.8361617000045953,372.6254237999965,None,None,0,,,,,,,,,,,,,,,110,21,Female,2022-05-03_17h08.24.299,Parachute,2022.1.1,59.997504107524186,
negative,blue,2,None,k,,,,,,,,,0,75,75,75,,,,,,,,,,,,,,,,,,,,,,,,,,,,,,,,,,,,,main,None,None,1,1.4946302000025753,374.46344029999455,None,None,1,,,,,,,,,,,,,,,110,21,Female,2022-05-03_17h08.24.299,Parachute,2022.1.1,59.997504107524186,
negative,blue,2,None,k,,,,,,,,,0,76,76,76,,,,,,,,,,,,,,,,,,,,,,,,,,,,,,,,,,,,,main,None,None,1,1.4982220999954734,376.95928569999523,None,None,1,,,,,,,,,,,,,,,110,21,Female,2022-05-03_17h08.24.299,Parachute,2022.1.1,59.997504107524186,
negative,yellow,1,k,None,,,,,,,,,0,77,77,77,,,,,,,,,,,,,,,,,,,,,,,,,,,,,,,,,,,,,main,k,k,1,1.0711547000100836,379.45905449999555,None,None,0,,,,,,,,,,,,,,,110,21,Female,2022-05-03_17h08.24.299,Parachute,2022.1.1,59.997504107524186,
positive,blue,1,k,None,,,,,,,,,0,78,78,78,,,,,,,,,,,,,,,,,,,,,,,,,,,,,,,,,,,,,main,k,k,1,0.7814747999946121,381.53062439999485,None,None,0,,,,,,,,,,,,,,,110,21,Female,2022-05-03_17h08.24.299,Parachute,2022.1.1,59.997504107524186,
positive,blue,1,k,None,,,,,,,,,0,79,79,79,,,,,,,,,,,,,,,,,,,,,,,,,,,,,,,,,,,,,main,k,k,1,0.6650612999947043,383.3140812000056,None,None,0,,,,,,,,,,,,,,,110,21,Female,2022-05-03_17h08.24.299,Parachute,2022.1.1,59.997504107524186,
positive,red,2,None,None,,,,,,,,,0,80,80,80,,,,,,,,,,,,,,,,,,,,,,,,,,,,,,,,,,,,,main,None,None,1,1.494034700008342,384.98088790000475,None,None,1,,,,,,,,,,,,,,,110,21,Female,2022-05-03_17h08.24.299,Parachute,2022.1.1,59.997504107524186,
positive,yellow,2,None,k,,,,,,,,,0,81,81,81,,,,,,,,,,,,,,,,,,,,,,,,,,,,,,,,,,,,,main,None,None,1,1.4990509000053862,387.47575149999466,None,None,1,,,,,,,,,,,,,,,110,21,Female,2022-05-03_17h08.24.299,Parachute,2022.1.1,59.997504107524186,
positive,blue,1,k,None,,,,,,,,,0,82,82,82,,,,,,,,,,,,,,,,,,,,,,,,,,,,,,,,,,,,,main,k,k,1,0.8205098000034923,389.9766404999973,None,None,0,,,,,,,,,,,,,,,110,21,Female,2022-05-03_17h08.24.299,Parachute,2022.1.1,59.997504107524186,
negative,yellow,2,k,None,,,,,,,,,0,83,83,83,,,,,,,,,,,,,,,,,,,,,,,,,,,,,,,,,,,,,main,k,k,1,0.8146180000039749,391.7975632000016,None,None,0,,,,,,,,,,,,,,,110,21,Female,2022-05-03_17h08.24.299,Parachute,2022.1.1,59.997504107524186,
positive,blue,2,k,None,,,,,,,,,0,84,84,84,,,,,,,,,,,,,,,,,,,,,,,,,,,,,,,,,,,,,main,k,k,1,0.7474858999921707,393.614697099998,None,None,0,,,,,,,,,,,,,,,110,21,Female,2022-05-03_17h08.24.299,Parachute,2022.1.1,59.997504107524186,
positive,yellow,1,None,k,,,,,,,,,0,85,85,85,,,,,,,,,,,,,,,,,,,,,,,,,,,,,,,,,,,,,main,None,None,1,1.4953742000070633,395.36286320000363,None,None,1,,,,,,,,,,,,,,,110,21,Female,2022-05-03_17h08.24.299,Parachute,2022.1.1,59.997504107524186,
positive,blue,2,k,None,,,,,,,,,0,86,86,86,,,,,,,,,,,,,,,,,,,,,,,,,,,,,,,,,,,,,main,k,k,1,0.7995643999893218,397.8598740000016,None,None,0,,,,,,,,,,,,,,,110,21,Female,2022-05-03_17h08.24.299,Parachute,2022.1.1,59.997504107524186,
positive,blue,1,k,None,,,,,,,,,0,87,87,87,,,,,,,,,,,,,,,,,,,,,,,,,,,,,,,,,,,,,main,k,k,1,0.7349652999982936,399.66097609999997,None,None,0,,,,,,,,,,,,,,,110,21,Female,2022-05-03_17h08.24.299,Parachute,2022.1.1,59.997504107524186,
negative,yellow,2,k,None,,,,,,,,,0,88,88,88,,,,,,,,,,,,,,,,,,,,,,,,,,,,,,,,,,,,,main,k,k,1,0.7652791000000434,401.3975233999954,None,None,0,,,,,,,,,,,,,,,110,21,Female,2022-05-03_17h08.24.299,Parachute,2022.1.1,59.997504107524186,
negative,blue,2,None,k,,,,,,,,,0,89,89,89,,,,,,,,,,,,,,,,,,,,,,,,,,,,,,,,,,,,,main,None,None,1,1.494699800008675,403.16394139999466,None,None,1,,,,,,,,,,,,,,,110,21,Female,2022-05-03_17h08.24.299,Parachute,2022.1.1,59.997504107524186,
positive,yellow,2,None,k,,,,,,,,,0,90,90,90,,,,,,,,,,,,,,,,,,,,,,,,,,,,,,,,,,,,,main,None,None,1,1.498949700006051,405.66004849999445,None,None,1,,,,,,,,,,,,,,,110,21,Female,2022-05-03_17h08.24.299,Parachute,2022.1.1,59.997504107524186,
negative,yellow,1,k,None,,,,,,,,,0,91,91,91,,,,,,,,,,,,,,,,,,,,,,,,,,,,,,,,,,,,,main,k,k,1,0.7524771999887889,408.1603568999999,None,None,0,,,,,,,,,,,,,,,110,21,Female,2022-05-03_17h08.24.299,Parachute,2022.1.1,59.997504107524186,
negative,red,2,None,None,,,,,,,,,0,92,92,92,,,,,,,,,,,,,,,,,,,,,,,,,,,,,,,,,,,,,main,None,None,1,1.4950031000043964,409.9141738000035,None,None,1,,,,,,,,,,,,,,,110,21,Female,2022-05-03_17h08.24.299,Parachute,2022.1.1,59.997504107524186,
negative,blue,2,None,k,,,,,,,,,0,93,93,93,,,,,,,,,,,,,,,,,,,,,,,,,,,,,,,,,,,,,main,None,None,1,1.498746500001289,412.41039479999745,None,None,1,,,,,,,,,,,,,,,110,21,Female,2022-05-03_17h08.24.299,Parachute,2022.1.1,59.997504107524186,
negative,blue,1,None,k,,,,,,,,,0,94,94,94,,,,,,,,,,,,,,,,,,,,,,,,,,,,,,,,,,,,,main,None,None,1,1.4982292000058806,414.91035959999135,None,None,1,,,,,,,,,,,,,,,110,21,Female,2022-05-03_17h08.24.299,Parachute,2022.1.1,59.997504107524186,
negative,blue,1,None,k,,,,,,,,,0,95,95,95,,,,,,,,,,,,,,,,,,,,,,,,,,,,,,,,,,,,,main,None,None,1,1.4991534000000684,417.4102467000048,None,None,1,,,,,,,,,,,,,,,110,21,Female,2022-05-03_17h08.24.299,Parachute,2022.1.1,59.997504107524186,
negative,red,1,None,None,,,,,,,,,0,96,96,96,,,,,,,,,,,,,,,,,,,,,,,,,,,,,,,,,,,,,main,None,None,1,1.498400500000571,419.91053320000356,None,None,1,,,,,,,,,,,,,,,110,21,Female,2022-05-03_17h08.24.299,Parachute,2022.1.1,59.997504107524186,
positive,yellow,1,None,k,,,,,,,,,0,97,97,97,,,,,,,,,,,,,,,,,,,,,,,,,,,,,,,,,,,,,main,None,None,1,1.4987218000023859,422.4102817999956,None,None,1,,,,,,,,,,,,,,,110,21,Female,2022-05-03_17h08.24.299,Parachute,2022.1.1,59.997504107524186,
negative,yellow,1,k,None,,,,,,,,,0,98,98,98,,,,,,,,,,,,,,,,,,,,,,,,,,,,,,,,,,,,,main,k,k,1,0.8529875999956857,424.9108095999982,None,None,0,,,,,,,,,,,,,,,110,21,Female,2022-05-03_17h08.24.299,Parachute,2022.1.1,59.997504107524186,
positive,red,1,None,None,,,,,,,,,0,99,99,99,,,,,,,,,,,,,,,,,,,,,,,,,,,,,,,,,,,,,main,None,None,1,1.4944745999964653,426.76475459999347,None,None,1,,,,,,,,,,,,,,,110,21,Female,2022-05-03_17h08.24.299,Parachute,2022.1.1,59.997504107524186,
positive,blue,1,k,None,,,,,,,,,0,100,100,100,,,,,,,,,,,,,,,,,,,,,,,,,,,,,,,,,,,,,main,k,k,1,1.1701028000097722,429.26080390000425,None,None,0,,,,,,,,,,,,,,,110,21,Female,2022-05-03_17h08.24.299,Parachute,2022.1.1,59.997504107524186,
negative,yellow,1,k,None,,,,,,,,,0,101,101,101,,,,,,,,,,,,,,,,,,,,,,,,,,,,,,,,,,,,,main,k,k,1,0.7977501999994274,431.4318840000051,None,None,0,,,,,,,,,,,,,,,110,21,Female,2022-05-03_17h08.24.299,Parachute,2022.1.1,59.997504107524186,
negative,blue,2,None,k,,,,,,,,,0,102,102,102,,,,,,,,,,,,,,,,,,,,,,,,,,,,,,,,,,,,,main,None,None,1,1.4945133000001078,433.23179730000265,None,None,1,,,,,,,,,,,,,,,110,21,Female,2022-05-03_17h08.24.299,Parachute,2022.1.1,59.997504107524186,
negative,yellow,2,k,None,,,,,,,,,0,103,103,103,,,,,,,,,,,,,,,,,,,,,,,,,,,,,,,,,,,,,main,k,k,1,1.053936900003464,435.7273451999936,None,None,0,,,,,,,,,,,,,,,110,21,Female,2022-05-03_17h08.24.299,Parachute,2022.1.1,59.997504107524186,
positive,yellow,2,None,k,,,,,,,,,0,104,104,104,,,,,,,,,,,,,,,,,,,,,,,,,,,,,,,,,,,,,main,None,None,1,1.4932477999973344,437.7817053000035,None,None,1,,,,,,,,,,,,,,,110,21,Female,2022-05-03_17h08.24.299,Parachute,2022.1.1,59.997504107524186,
positive,blue,1,k,None,,,,,,,,,0,105,105,105,,,,,,,,,,,,,,,,,,,,,,,,,,,,,,,,,,,,,main,k,k,1,0.8873601999948733,440.2772219000035,None,None,0,,,,,,,,,,,,,,,110,21,Female,2022-05-03_17h08.24.299,Parachute,2022.1.1,59.997504107524186,
positive,blue,2,k,None,,,,,,,,,0,106,106,106,,,,,,,,,,,,,,,,,,,,,,,,,,,,,,,,,,,,,main,k,k,1,0.7454445000039414,442.1654828000028,None,None,0,,,,,,,,,,,,,,,110,21,Female,2022-05-03_17h08.24.299,Parachute,2022.1.1,59.997504107524186,
negative,blue,1,None,k,,,,,,,,,0,107,107,107,,,,,,,,,,,,,,,,,,,,,,,,,,,,,,,,,,,,,main,None,None,1,1.4962309000111418,443.9126563000027,None,None,1,,,,,,,,,,,,,,,110,21,Female,2022-05-03_17h08.24.299,Parachute,2022.1.1,59.997504107524186,
positive,yellow,2,None,k,,,,,,,,,0,108,108,108,,,,,,,,,,,,,,,,,,,,,,,,,,,,,,,,,,,,,main,None,None,1,1.4988714999926742,446.41039059999457,None,None,1,,,,,,,,,,,,,,,110,21,Female,2022-05-03_17h08.24.299,Parachute,2022.1.1,59.997504107524186,
negative,yellow,1,k,None,,,,,,,,,0,109,109,109,,,,,,,,,,,,,,,,,,,,,,,,,,,,,,,,,,,,,main,k,k,1,0.7368792000052053,448.91065479999816,None,None,0,,,,,,,,,,,,,,,110,21,Female,2022-05-03_17h08.24.299,Parachute,2022.1.1,59.997504107524186,
negative,blue,2,None,k,,,,,,,,,0,110,110,110,,,,,,,,,,,,,,,,,,,,,,,,,,,,,,,,,,,,,main,None,None,1,1.494258799997624,450.6489319999964,None,None,1,,,,,,,,,,,,,,,110,21,Female,2022-05-03_17h08.24.299,Parachute,2022.1.1,59.997504107524186,
positive,blue,2,k,None,,,,,,,,,0,111,111,111,,,,,,,,,,,,,,,,,,,,,,,,,,,,,,,,,,,,,main,k,k,1,0.6532234999904176,453.14435859999503,None,None,0,,,,,,,,,,,,,,,110,21,Female,2022-05-03_17h08.24.299,Parachute,2022.1.1,59.997504107524186,
negative,blue,1,None,k,,,,,,,,,0,112,112,112,,,,,,,,,,,,,,,,,,,,,,,,,,,,,,,,,,,,,main,None,None,1,1.4941708999976981,454.7992385999969,None,None,1,,,,,,,,,,,,,,,110,21,Female,2022-05-03_17h08.24.299,Parachute,2022.1.1,59.997504107524186,
positive,yellow,1,None,k,,,,,,,,,0,113,113,113,,,,,,,,,,,,,,,,,,,,,,,,,,,,,,,,,,,,,main,None,None,1,1.4985993999871425,457.2943309999973,None,None,1,,,,,,,,,,,,,,,110,21,Female,2022-05-03_17h08.24.299,Parachute,2022.1.1,59.997504107524186,
negative,red,1,None,None,,,,,,,,,0,114,114,114,,,,,,,,,,,,,,,,,,,,,,,,,,,,,,,,,,,,,main,None,None,1,1.4989709000074072,459.79464619999635,None,None,1,,,,,,,,,,,,,,,110,21,Female,2022-05-03_17h08.24.299,Parachute,2022.1.1,59.997504107524186,
positive,red,1,None,None,,,,,,,,,0,115,115,115,,,,,,,,,,,,,,,,,,,,,,,,,,,,,,,,,,,,,main,None,None,1,1.4983972999907564,462.2945736999973,None,None,1,,,,,,,,,,,,,,,110,21,Female,2022-05-03_17h08.24.299,Parachute,2022.1.1,59.997504107524186,
negative,red,2,None,None,,,,,,,,,0,116,116,116,,,,,,,,,,,,,,,,,,,,,,,,,,,,,,,,,,,,,main,None,None,1,1.4988051000109408,464.79437039999175,None,None,1,,,,,,,,,,,,,,,110,21,Female,2022-05-03_17h08.24.299,Parachute,2022.1.1,59.997504107524186,
negative,yellow,2,k,None,,,,,,,,,0,117,117,117,,,,,,,,,,,,,,,,,,,,,,,,,,,,,,,,,,,,,main,k,k,1,1.247505599996657,467.29501240000536,None,None,0,,,,,,,,,,,,,,,110,21,Female,2022-05-03_17h08.24.299,Parachute,2022.1.1,59.997504107524186,
positive,yellow,1,None,k,,,,,,,,,0,118,118,118,,,,,,,,,,,,,,,,,,,,,,,,,,,,,,,,,,,,,main,None,None,1,1.4986039000068558,469.54469589999644,None,None,1,,,,,,,,,,,,,,,110,21,Female,2022-05-03_17h08.24.299,Parachute,2022.1.1,59.997504107524186,
positive,red,2,None,None,,,,,,,,,0,119,119,119,,,,,,,,,,,,,,,,,,,,,,,,,,,,,,,,,,,,,main,None,None,1,1.4974751999980072,472.045964799996,None,None,1,,,,,,,,,,,,,,,110,21,Female,2022-05-03_17h08.24.299,Parachute,2022.1.1,59.997504107524186,
positive,blue,2,k,None,,,,,,,,,0,120,120,120,,,,,,,,,,,,,,,,,,,,,,,,,,,,,,,,,,,,,main,k,k,1,0.8362498999922536,474.54534880000574,None,None,0,,,,,,,,,,,,,,,110,21,Female,2022-05-03_17h08.24.299,Parachute,2022.1.1,59.997504107524186,
negative,red,1,None,None,,,,,,,,,0,121,121,121,,,,,,,,,,,,,,,,,,,,,,,,,,,,,,,,,,,,,main,None,None,1,1.4938603999908082,476.38260709999304,None,None,1,,,,,,,,,,,,,,,110,21,Female,2022-05-03_17h08.24.299,Parachute,2022.1.1,59.997504107524186,
positive,yellow,2,None,k,,,,,,,,,0,122,122,122,,,,,,,,,,,,,,,,,,,,,,,,,,,,,,,,,,,,,main,None,None,1,1.498553700002958,478.8797729999933,None,None,1,,,,,,,,,,,,,,,110,21,Female,2022-05-03_17h08.24.299,Parachute,2022.1.1,59.997504107524186,
negative,red,2,None,None,,,,,,,,,0,123,123,123,,,,,,,,,,,,,,,,,,,,,,,,,,,,,,,,,,,,,main,None,None,1,1.498853400000371,481.3794792999979,None,None,1,,,,,,,,,,,,,,,110,21,Female,2022-05-03_17h08.24.299,Parachute,2022.1.1,59.997504107524186,
negative,yellow,2,k,None,,,,,,,,,0,124,124,124,,,,,,,,,,,,,,,,,,,,,,,,,,,,,,,,,,,,,main,k,k,1,0.9211864999961108,483.87995049999154,None,None,0,,,,,,,,,,,,,,,110,21,Female,2022-05-03_17h08.24.299,Parachute,2022.1.1,59.997504107524186,
positive,red,1,None,None,,,,,,,,,0,125,125,125,,,,,,,,,,,,,,,,,,,,,,,,,,,,,,,,,,,,,main,None,None,1,1.4940128000016557,485.80966119999357,None,None,1,,,,,,,,,,,,,,,110,21,Female,2022-05-03_17h08.24.299,Parachute,2022.1.1,59.997504107524186,
negative,blue,2,None,k,,,,,,,,,0,126,126,126,,,,,,,,,,,,,,,,,,,,,,,,,,,,,,,,,,,,,main,None,None,1,1.498407999999472,488.2967546,None,None,1,,,,,,,,,,,,,,,110,21,Female,2022-05-03_17h08.24.299,Parachute,2022.1.1,59.997504107524186,
negative,blue,1,None,k,,,,,,,,,0,127,127,127,,,,,,,,,,,,,,,,,,,,,,,,,,,,,,,,,,,,,main,None,None,1,1.498979900003178,490.796654699996,None,None,1,,,,,,,,,,,,,,,110,21,Female,2022-05-03_17h08.24.299,Parachute,2022.1.1,59.997504107524186,
negative,yellow,1,k,None,,,,,,,,,0,128,128,128,,,,,,,,,,,,,,,,,,,,,,,,,,,,,,,,,,,,,main,k,k,1,0.9194202000071527,493.2967742000037,None,None,0,,,,,,,,,,,,,,,110,21,Female,2022-05-03_17h08.24.299,Parachute,2022.1.1,59.997504107524186,
negative,yellow,1,k,None,,,,,,,,,0,129,129,129,,,,,,,,,,,,,,,,,,,,,,,,,,,,,,,,,,,,,main,k,k,1,0.7652029000018956,495.2165653999982,None,None,0,,,,,,,,,,,,,,,110,21,Female,2022-05-03_17h08.24.299,Parachute,2022.1.1,59.997504107524186,
positive,blue,1,k,None,,,,,,,,,0,130,130,130,,,,,,,,,,,,,,,,,,,,,,,,,,,,,,,,,,,,,main,k,k,1,0.7315617999993265,496.9834669999982,None,None,0,,,,,,,,,,,,,,,110,21,Female,2022-05-03_17h08.24.299,Parachute,2022.1.1,59.997504107524186,
negative,blue,1,None,k,,,,,,,,,0,131,131,131,,,,,,,,,,,,,,,,,,,,,,,,,,,,,,,,,,,,,main,None,None,1,1.4945174000022234,498.71668070000305,None,None,1,,,,,,,,,,,,,,,110,21,Female,2022-05-03_17h08.24.299,Parachute,2022.1.1,59.997504107524186,
negative,blue,2,None,k,,,,,,,,,0,132,132,132,,,,,,,,,,,,,,,,,,,,,,,,,,,,,,,,,,,,,main,None,None,1,1.4985711999906925,501.21260359999724,None,None,1,,,,,,,,,,,,,,,110,21,Female,2022-05-03_17h08.24.299,Parachute,2022.1.1,59.997504107524186,
positive,blue,2,k,None,,,,,,,,,0,133,133,133,,,,,,,,,,,,,,,,,,,,,,,,,,,,,,,,,,,,,main,k,k,1,0.6706021999998484,503.7119357000047,None,None,0,,,,,,,,,,,,,,,110,21,Female,2022-05-03_17h08.24.299,Parachute,2022.1.1,59.997504107524186,
positive,red,2,None,None,,,,,,,,,0,134,134,134,,,,,,,,,,,,,,,,,,,,,,,,,,,,,,,,,,,,,main,None,None,1,1.4934823000075994,505.3832761999947,None,None,1,,,,,,,,,,,,,,,110,21,Female,2022-05-03_17h08.24.299,Parachute,2022.1.1,59.997504107524186,
negative,yellow,2,k,None,,,,,,,,,0,135,135,135,,,,,,,,,,,,,,,,,,,,,,,,,,,,,,,,,,,,,main,k,k,1,0.7369640000106301,507.8791502999957,None,None,0,,,,,,,,,,,,,,,110,21,Female,2022-05-03_17h08.24.299,Parachute,2022.1.1,59.997504107524186,
positive,yellow,2,None,k,,,,,,,,,0,136,136,136,,,,,,,,,,,,,,,,,,,,,,,,,,,,,,,,,,,,,main,None,None,1,1.494224199996097,509.6166585000028,None,None,1,,,,,,,,,,,,,,,110,21,Female,2022-05-03_17h08.24.299,Parachute,2022.1.1,59.997504107524186,
positive,blue,1,k,None,,,,,,,,,0,137,137,137,,,,,,,,,,,,,,,,,,,,,,,,,,,,,,,,,,,,,main,k,k,1,0.9529469999979483,512.1131883000053,None,None,0,,,,,,,,,,,,,,,110,21,Female,2022-05-03_17h08.24.299,Parachute,2022.1.1,59.997504107524186,
positive,yellow,1,None,k,,,,,,,,,0,138,138,138,,,,,,,,,,,,,,,,,,,,,,,,,,,,,,,,,,,,,main,None,None,1,1.4941378000075929,514.0668892999965,None,None,1,,,,,,,,,,,,,,,110,21,Female,2022-05-03_17h08.24.299,Parachute,2022.1.1,59.997504107524186,
positive,yellow,1,None,k,,,,,,,,,0,139,139,139,,,,,,,,,,,,,,,,,,,,,,,,,,,,,,,,,,,,,main,None,None,1,1.498796300002141,516.5626983999973,None,None,1,,,,,,,,,,,,,,,110,21,Female,2022-05-03_17h08.24.299,Parachute,2022.1.1,59.997504107524186,
positive,yellow,1,None,k,,,,,,,,,0,140,140,140,,,,,,,,,,,,,,,,,,,,,,,,,,,,,,,,,,,,,main,None,None,1,1.4982564999954775,519.0639628999925,None,None,1,,,,,,,,,,,,,,,110,21,Female,2022-05-03_17h08.24.299,Parachute,2022.1.1,59.997504107524186,
positive,blue,1,k,None,,,,,,,,,0,141,141,141,,,,,,,,,,,,,,,,,,,,,,,,,,,,,,,,,,,,,main,k,k,1,0.7042253999970853,521.5621984000027,None,None,0,,,,,,,,,,,,,,,110,21,Female,2022-05-03_17h08.24.299,Parachute,2022.1.1,59.997504107524186,
positive,blue,2,k,None,,,,,,,,,0,142,142,142,,,,,,,,,,,,,,,,,,,,,,,,,,,,,,,,,,,,,main,k,k,1,0.74808540000231,523.2671950999938,None,None,0,,,,,,,,,,,,,,,110,21,Female,2022-05-03_17h08.24.299,Parachute,2022.1.1,59.997504107524186,
positive,yellow,2,None,k,,,,,,,,,0,143,143,143,,,,,,,,,,,,,,,,,,,,,,,,,,,,,,,,,,,,,main,None,None,1,1.4947405999992043,525.0172743000003,None,None,1,,,,,,,,,,,,,,,110,21,Female,2022-05-03_17h08.24.299,Parachute,2022.1.1,59.997504107524186,
negative,yellow,2,k,None,,,,,,,,,0,144,144,144,,,,,,,,,,,,,,,,,,,,,,,,,,,,,,,,,,,,,main,k,k,1,0.7001088999968488,527.5130322000041,None,None,0,,,,,,,,,,,,,,,110,21,Female,2022-05-03_17h08.24.299,Parachute,2022.1.1,59.997504107524186,
negative,blue,2,None,k,,,,,,,,,0,145,145,145,,,,,,,,,,,,,,,,,,,,,,,,,,,,,,,,,,,,,main,None,None,1,1.497285000004922,529.2150619000022,None,None,1,,,,,,,,,,,,,,,110,21,Female,2022-05-03_17h08.24.299,Parachute,2022.1.1,59.997504107524186,
negative,red,1,None,None,,,,,,,,,0,146,146,146,,,,,,,,,,,,,,,,,,,,,,,,,,,,,,,,,,,,,main,None,None,1,1.4984698999905959,531.7138505000039,None,None,1,,,,,,,,,,,,,,,110,21,Female,2022-05-03_17h08.24.299,Parachute,2022.1.1,59.997504107524186,
positive,blue,1,k,None,,,,,,,,,0,147,147,147,,,,,,,,,,,,,,,,,,,,,,,,,,,,,,,,,,,,,main,k,k,1,0.7152244999888353,534.2130196999933,None,None,0,,,,,,,,,,,,,,,110,21,Female,2022-05-03_17h08.24.299,Parachute,2022.1.1,59.997504107524186,
positive,yellow,1,None,k,,,,,,,,,0,148,148,148,,,,,,,,,,,,,,,,,,,,,,,,,,,,,,,,,,,,,main,None,None,1,1.4983734999987064,535.9299629000016,None,None,1,,,,,,,,,,,,,,,110,21,Female,2022-05-03_17h08.24.299,Parachute,2022.1.1,59.997504107524186,
negative,red,2,None,None,,,,,,,,,0,149,149,149,,,,,,,,,,,,,,,,,,,,,,,,,,,,,,,,,,,,,main,None,None,1,1.4987988000066252,538.4295026000036,None,None,1,,,,,,,,,,,,,,,110,21,Female,2022-05-03_17h08.24.299,Parachute,2022.1.1,59.997504107524186,
negative,blue,1,None,k,,,,,,,,,0,150,150,150,,,,,,,,,,,,,,,,,,,,,,,,,,,,,,,,,,,,,main,None,None,1,1.4985899999883259,540.9295706999983,None,None,1,,,,,,,,,,,,,,,110,21,Female,2022-05-03_17h08.24.299,Parachute,2022.1.1,59.997504107524186,
negative,yellow,2,k,None,,,,,,,,,0,151,151,151,,,,,,,,,,,,,,,,,,,,,,,,,,,,,,,,,,,,,main,k,k,1,0.7806148999952711,543.430108600005,None,None,0,,,,,,,,,,,,,,,110,21,Female,2022-05-03_17h08.24.299,Parachute,2022.1.1,59.997504107524186,
negative,blue,2,None,k,,,,,,,,,0,152,152,152,,,,,,,,,,,,,,,,,,,,,,,,,,,,,,,,,,,,,main,None,None,1,1.4997398999985307,545.2124658999965,None,None,1,,,,,,,,,,,,,,,110,21,Female,2022-05-03_17h08.24.299,Parachute,2022.1.1,59.997504107524186,
negative,yellow,1,k,None,,,,,,,,,0,153,153,153,,,,,,,,,,,,,,,,,,,,,,,,,,,,,,,,,,,,,main,k,k,1,0.7706576999917161,547.7125024999987,None,None,0,,,,,,,,,,,,,,,110,21,Female,2022-05-03_17h08.24.299,Parachute,2022.1.1,59.997504107524186,
negative,blue,1,None,k,,,,,,,,,0,154,154,154,,,,,,,,,,,,,,,,,,,,,,,,,,,,,,,,,,,,,main,None,None,1,1.4936602999950992,549.4845955999917,None,None,1,,,,,,,,,,,,,,,110,21,Female,2022-05-03_17h08.24.299,Parachute,2022.1.1,59.997504107524186,
positive,yellow,2,None,k,,,,,,,,,0,155,155,155,,,,,,,,,,,,,,,,,,,,,,,,,,,,,,,,,,,,,main,None,None,1,1.4987295000028098,551.979760400005,None,None,1,,,,,,,,,,,,,,,110,21,Female,2022-05-03_17h08.24.299,Parachute,2022.1.1,59.997504107524186,
positive,red,2,None,None,,,,,,,,,0,156,156,156,,,,,,,,,,,,,,,,,,,,,,,,,,,,,,,,,,,,,main,None,None,1,1.499034299995401,554.4799256999977,None,None,1,,,,,,,,,,,,,,,110,21,Female,2022-05-03_17h08.24.299,Parachute,2022.1.1,59.997504107524186,
positive,red,1,None,None,,,,,,,,,0,157,157,157,,,,,,,,,,,,,,,,,,,,,,,,,,,,,,,,,,,,,main,None,None,1,1.4988043000048492,556.9803828000004,None,None,1,,,,,,,,,,,,,,,110,21,Female,2022-05-03_17h08.24.299,Parachute,2022.1.1,59.997504107524186,
positive,blue,2,k,None,,,,,,,,,0,158,158,158,,,,,,,,,,,,,,,,,,,,,,,,,,,,,,,,,,,,,main,k,k,1,0.9364097000070615,559.4810331000044,None,None,0,,,,,,,,,,,,,,,110,21,Female,2022-05-03_17h08.24.299,Parachute,2022.1.1,59.997504107524186,
negative,yellow,1,k,None,,,,,,,,,0,159,159,159,,,,,,,,,,,,,,,,,,,,,,,,,,,,,,,,,,,,,main,k,k,1,0.7922323999955552,561.417738499993,None,None,0,,,,,,,,,,,,,,,110,21,Female,2022-05-03_17h08.24.299,Parachute,2022.1.1,59.997504107524186,
negative,red,2,None,None,,,,,,,,,0,160,160,160,,,,,,,,,,,,,,,,,,,,,,,,,,,,,,,,,,,,,main,None,None,1,1.5003052999963984,563.2124930999998,None,None,1,,,,,,,,,,,,,,,110,21,Female,2022-05-03_17h08.24.299,Parachute,2022.1.1,59.997504107524186,
negative,blue,1,None,k,,,,,,,,,0,161,161,161,,,,,,,,,,,,,,,,,,,,,,,,,,,,,,,,,,,,,main,None,None,1,1.4990052999928594,565.7134963999997,None,None,1,,,,,,,,,,,,,,,110,21,Female,2022-05-03_17h08.24.299,Parachute,2022.1.1,59.997504107524186,
negative,blue,1,None,k,,,,,,,,,0,162,162,162,,,,,,,,,,,,,,,,,,,,,,,,,,,,,,,,,,,,,main,None,None,1,1.498231699995813,568.2138619000034,None,None,1,,,,,,,,,,,,,,,110,21,Female,2022-05-03_17h08.24.299,Parachute,2022.1.1,59.997504107524186,
negative,yellow,1,k,None,,,,,,,,,0,163,163,163,,,,,,,,,,,,,,,,,,,,,,,,,,,,,,,,,,,,,main,k,k,1,1.0211628999968525,570.7136307000037,None,None,0,,,,,,,,,,,,,,,110,21,Female,2022-05-03_17h08.24.299,Parachute,2022.1.1,59.997504107524186,
negative,yellow,1,k,None,,,,,,,,,0,164,164,164,,,,,,,,,,,,,,,,,,,,,,,,,,,,,,,,,,,,,main,k,k,1,0.7815323000104399,572.7349461999984,None,None,0,,,,,,,,,,,,,,,110,21,Female,2022-05-03_17h08.24.299,Parachute,2022.1.1,59.997504107524186,
positive,yellow,1,None,k,,,,,,,,,0,165,165,165,,,,,,,,,,,,,,,,,,,,,,,,,,,,,,,,,,,,,main,None,None,1,1.4937080000090646,574.5182915000041,None,None,1,,,,,,,,,,,,,,,110,21,Female,2022-05-03_17h08.24.299,Parachute,2022.1.1,59.997504107524186,
negative,red,1,None,None,,,,,,,,,0,166,166,166,,,,,,,,,,,,,,,,,,,,,,,,,,,,,,,,,,,,,main,None,None,1,1.4989403000072343,577.0138325000007,None,None,1,,,,,,,,,,,,,,,110,21,Female,2022-05-03_17h08.24.299,Parachute,2022.1.1,59.997504107524186,
negative,yellow,2,k,None,,,,,,,,,0,167,167,167,,,,,,,,,,,,,,,,,,,,,,,,,,,,,,,,,,,,,main,k,k,1,0.9200998000014806,579.5135847000056,None,None,0,,,,,,,,,,,,,,,110,21,Female,2022-05-03_17h08.24.299,Parachute,2022.1.1,59.997504107524186,
positive,blue,2,k,None,,,,,,,,,0,168,168,168,,,,,,,,,,,,,,,,,,,,,,,,,,,,,,,,,,,,,main,k,k,1,0.7814055999915581,581.4349106000009,None,None,0,,,,,,,,,,,,,,,110,21,Female,2022-05-03_17h08.24.299,Parachute,2022.1.1,59.997504107524186,
positive,red,2,None,None,,,,,,,,,0,169,169,169,,,,,,,,,,,,,,,,,,,,,,,,,,,,,,,,,,,,,main,None,None,1,1.4945358999975724,583.2184112999967,None,None,1,,,,,,,,,,,,,,,110,21,Female,2022-05-03_17h08.24.299,Parachute,2022.1.1,59.997504107524186,
positive,red,1,None,None,,,,,,,,,0,170,170,170,,,,,,,,,,,,,,,,,,,,,,,,,,,,,,,,,,,,,main,None,None,1,1.4987350000010338,585.7136151000013,None,None,1,,,,,,,,,,,,,,,110,21,Female,2022-05-03_17h08.24.299,Parachute,2022.1.1,59.997504107524186,
negative,blue,2,None,k,,,,,,,,,0,171,171,171,,,,,,,,,,,,,,,,,,,,,,,,,,,,,,,,,,,,,main,None,None,1,1.4992232999939006,588.2136969999992,None,None,1,,,,,,,,,,,,,,,110,21,Female,2022-05-03_17h08.24.299,Parachute,2022.1.1,59.997504107524186,
positive,blue,2,k,None,,,,,,,,,0,172,172,172,,,,,,,,,,,,,,,,,,,,,,,,,,,,,,,,,,,,,main,k,k,1,0.6806002999946941,590.7142222999973,None,None,0,,,,,,,,,,,,,,,110,21,Female,2022-05-03_17h08.24.299,Parachute,2022.1.1,59.997504107524186,
negative,yellow,2,k,None,,,,,,,,,0,173,173,173,,,,,,,,,,,,,,,,,,,,,,,,,,,,,,,,,,,,,main,k,k,1,0.7552345000003697,592.3965615999914,None,None,0,,,,,,,,,,,,,,,110,21,Female,2022-05-03_17h08.24.299,Parachute,2022.1.1,59.997504107524186,
positive,yellow,2,None,k,,,,,,,,,0,174,174,174,,,,,,,,,,,,,,,,,,,,,,,,,,,,,,,,,,,,,main,None,None,1,1.4936060000036377,594.1519115999981,None,None,1,,,,,,,,,,,,,,,110,21,Female,2022-05-03_17h08.24.299,Parachute,2022.1.1,59.997504107524186,
negative,blue,2,None,k,,,,,,,,,0,175,175,175,,,,,,,,,,,,,,,,,,,,,,,,,,,,,,,,,,,,,main,None,k,0,0.6865151000092737,596.6476174999989,None,None,1,,,,,,,,,,,,,,,110,21,Female,2022-05-03_17h08.24.299,Parachute,2022.1.1,59.997504107524186,
positive,blue,1,k,None,,,,,,,,,0,176,176,176,,,,,,,,,,,,,,,,,,,,,,,,,,,,,,,,,,,,,main,k,k,1,0.9503241000056732,599.3474940000015,None,None,0,,,,,,,,,,,,,,,110,21,Female,2022-05-03_17h08.24.299,Parachute,2022.1.1,59.997504107524186,
positive,yellow,1,None,k,,,,,,,,,0,177,177,177,,,,,,,,,,,,,,,,,,,,,,,,,,,,,,,,,,,,,main,None,None,1,1.4999301000061678,601.2971562000021,None,None,1,,,,,,,,,,,,,,,110,21,Female,2022-05-03_17h08.24.299,Parachute,2022.1.1,59.997504107524186,
positive,blue,1,k,None,,,,,,,,,0,178,178,178,,,,,,,,,,,,,,,,,,,,,,,,,,,,,,,,,,,,,main,k,k,1,0.8867838000005577,603.7973244000023,None,None,0,,,,,,,,,,,,,,,110,21,Female,2022-05-03_17h08.24.299,Parachute,2022.1.1,59.997504107524186,
positive,yellow,2,None,k,,,,,,,,,0,179,179,179,,,,,,,,,,,,,,,,,,,,,,,,,,,,,,,,,,,,,main,None,None,1,1.4945770999911474,605.6857246,None,None,1,,,,,,,,,,,,,,,110,21,Female,2022-05-03_17h08.24.299,Parachute,2022.1.1,59.997504107524186,
positive,blue,1,k,None,,,,,,,,,0,180,180,180,,,,,,,,,,,,,,,,,,,,,,,,,,,,,,,,,,,,,main,k,k,1,0.8701310000033118,608.1816075999959,None,None,0,,,,,,,,,,,,,,,110,21,Female,2022-05-03_17h08.24.299,Parachute,2022.1.1,59.997504107524186,
negative,red,1,None,None,,,,,,,,,0,181,181,181,,,,,,,,,,,,,,,,,,,,,,,,,,,,,,,,,,,,,main,None,None,1,1.493166200001724,610.0622666999989,None,None,1,,,,,,,,,,,,,,,110,21,Female,2022-05-03_17h08.24.299,Parachute,2022.1.1,59.997504107524186,
negative,blue,1,None,k,,,,,,,,,0,182,182,182,,,,,,,,,,,,,,,,,,,,,,,,,,,,,,,,,,,,,main,None,None,1,1.4988057000009576,612.5474022999988,None,None,1,,,,,,,,,,,,,,,110,21,Female,2022-05-03_17h08.24.299,Parachute,2022.1.1,59.997504107524186,
negative,yellow,2,k,None,,,,,,,,,0,183,183,183,,,,,,,,,,,,,,,,,,,,,,,,,,,,,,,,,,,,,main,k,k,1,0.8541013000067323,615.0476092000026,None,None,0,,,,,,,,,,,,,,,110,21,Female,2022-05-03_17h08.24.299,Parachute,2022.1.1,59.997504107524186,
positive,yellow,2,None,k,,,,,,,,,0,184,184,184,,,,,,,,,,,,,,,,,,,,,,,,,,,,,,,,,,,,,main,None,None,1,1.4932199000031687,616.9023713999923,None,None,1,,,,,,,,,,,,,,,110,21,Female,2022-05-03_17h08.24.299,Parachute,2022.1.1,59.997504107524186,
positive,yellow,1,None,k,,,,,,,,,0,185,185,185,,,,,,,,,,,,,,,,,,,,,,,,,,,,,,,,,,,,,main,None,None,1,1.4985807000048226,619.3980145999958,None,None,1,,,,,,,,,,,,,,,110,21,Female,2022-05-03_17h08.24.299,Parachute,2022.1.1,59.997504107524186,
positive,red,2,None,None,,,,,,,,,0,186,186,186,,,,,,,,,,,,,,,,,,,,,,,,,,,,,,,,,,,,,main,None,None,1,1.499048400000902,621.8978315999993,None,None,1,,,,,,,,,,,,,,,110,21,Female,2022-05-03_17h08.24.299,Parachute,2022.1.1,59.997504107524186,
positive,blue,1,k,None,,,,,,,,,0,187,187,187,,,,,,,,,,,,,,,,,,,,,,,,,,,,,,,,,,,,,main,k,k,1,0.7041961999930209,624.398231500003,None,None,0,,,,,,,,,,,,,,,110,21,Female,2022-05-03_17h08.24.299,Parachute,2022.1.1,59.997504107524186,
negative,yellow,1,k,None,,,,,,,,,0,188,188,188,,,,,,,,,,,,,,,,,,,,,,,,,,,,,,,,,,,,,main,k,k,1,0.7968303000088781,626.1027440000034,None,None,0,,,,,,,,,,,,,,,110,21,Female,2022-05-03_17h08.24.299,Parachute,2022.1.1,59.997504107524186,
positive,yellow,2,None,k,,,,,,,,,0,189,189,189,,,,,,,,,,,,,,,,,,,,,,,,,,,,,,,,,,,,,main,None,None,1,1.49517160000687,627.9022816999932,None,None,1,,,,,,,,,,,,,,,110,21,Female,2022-05-03_17h08.24.299,Parachute,2022.1.1,59.997504107524186,
negative,yellow,2,k,None,,,,,,,,,0,190,190,190,,,,,,,,,,,,,,,,,,,,,,,,,,,,,,,,,,,,,main,k,k,1,0.8036779999965802,630.3982355000044,None,None,0,,,,,,,,,,,,,,,110,21,Female,2022-05-03_17h08.24.299,Parachute,2022.1.1,59.997504107524186,
negative,yellow,1,k,None,,,,,,,,,0,191,191,191,,,,,,,,,,,,,,,,,,,,,,,,,,,,,,,,,,,,,main,k,k,1,0.815638800006127,632.203131599992,None,None,0,,,,,,,,,,,,,,,110,21,Female,2022-05-03_17h08.24.299,Parachute,2022.1.1,59.997504107524186,
positive,blue,2,k,None,,,,,,,,,0,192,192,192,,,,,,,,,,,,,,,,,,,,,,,,,,,,,,,,,,,,,main,k,k,1,0.779481500008842,634.0193546999944,None,None,0,,,,,,,,,,,,,,,110,21,Female,2022-05-03_17h08.24.299,Parachute,2022.1.1,59.997504107524186,
positive,yellow,1,None,k,,,,,,,,,0,193,193,193,,,,,,,,,,,,,,,,,,,,,,,,,,,,,,,,,,,,,main,None,None,1,1.4943082999961916,635.8027536000009,None,None,1,,,,,,,,,,,,,,,110,21,Female,2022-05-03_17h08.24.299,Parachute,2022.1.1,59.997504107524186,
negative,red,2,None,None,,,,,,,,,0,194,194,194,,,,,,,,,,,,,,,,,,,,,,,,,,,,,,,,,,,,,main,None,None,1,1.4976201000099536,638.3000099000055,None,None,1,,,,,,,,,,,,,,,110,21,Female,2022-05-03_17h08.24.299,Parachute,2022.1.1,59.997504107524186,
positive,red,1,None,None,,,,,,,,,0,195,195,195,,,,,,,,,,,,,,,,,,,,,,,,,,,,,,,,,,,,,main,None,None,1,1.4978790000022855,640.799738200003,None,None,1,,,,,,,,,,,,,,,110,21,Female,2022-05-03_17h08.24.299,Parachute,2022.1.1,59.997504107524186,
negative,blue,1,None,k,,,,,,,,,0,196,196,196,,,,,,,,,,,,,,,,,,,,,,,,,,,,,,,,,,,,,main,None,None,1,1.4977462999959243,643.2998992999928,None,None,1,,,,,,,,,,,,,,,110,21,Female,2022-05-03_17h08.24.299,Parachute,2022.1.1,59.997504107524186,
positive,blue,2,k,None,,,,,,,,,0,197,197,197,,,,,,,,,,,,,,,,,,,,,,,,,,,,,,,,,,,,,main,k,k,1,0.8690391999989515,645.8000860000029,None,None,0,,,,,,,,,,,,,,,110,21,Female,2022-05-03_17h08.24.299,Parachute,2022.1.1,59.997504107524186,
negative,blue,2,None,k,,,,,,,,,0,198,198,198,,,,,,,,,,,,,,,,,,,,,,,,,,,,,,,,,,,,,main,None,None,1,1.5107281999953557,647.6701447999949,None,None,1,,,,,,,,,,,,,,,110,21,Female,2022-05-03_17h08.24.299,Parachute,2022.1.1,59.997504107524186,
negative,blue,2,None,k,,,,,,,,,0,199,199,199,,,,,,,,,,,,,,,,,,,,,,,,,,,,,,,,,,,,,main,None,None,1,1.4991331000055652,650.1833211000048,None,None,1,,,,,,,,,,,,,,,110,21,Female,2022-05-03_17h08.24.299,Parachute,2022.1.1,59.997504107524186,
positive,blue,2,k,None,,,,,,,,,0,200,200,200,,,,,,,,,,,,,,,,,,,,,,,,,,,,,,,,,,,,,main,k,k,1,0.6689836000005016,652.6840926000004,None,None,0,,,,,,,,,,,,,,,110,21,Female,2022-05-03_17h08.24.299,Parachute,2022.1.1,59.997504107524186,
positive,blue,2,k,None,,,,,,,,,0,201,201,201,,,,,,,,,,,,,,,,,,,,,,,,,,,,,,,,,,,,,main,k,k,1,0.6653869000001578,654.363317299998,None,None,0,,,,,,,,,,,,,,,110,21,Female,2022-05-03_17h08.24.299,Parachute,2022.1.1,59.997504107524186,
negative,yellow,2,k,None,,,,,,,,,0,202,202,202,,,,,,,,,,,,,,,,,,,,,,,,,,,,,,,,,,,,,main,k,k,1,0.6642824000009568,656.0201826999983,None,None,0,,,,,,,,,,,,,,,110,21,Female,2022-05-03_17h08.24.299,Parachute,2022.1.1,59.997504107524186,
positive,red,1,None,None,,,,,,,,,0,203,203,203,,,,,,,,,,,,,,,,,,,,,,,,,,,,,,,,,,,,,main,None,None,1,1.4944053000072017,657.6869326000015,None,None,1,,,,,,,,,,,,,,,110,21,Female,2022-05-03_17h08.24.299,Parachute,2022.1.1,59.997504107524186,
negative,blue,2,None,k,,,,,,,,,0,204,204,204,,,,,,,,,,,,,,,,,,,,,,,,,,,,,,,,,,,,,main,None,None,1,1.4988532999996096,660.1823038000002,None,None,1,,,,,,,,,,,,,,,110,21,Female,2022-05-03_17h08.24.299,Parachute,2022.1.1,59.997504107524186,
negative,red,1,None,None,,,,,,,,,0,205,205,205,,,,,,,,,,,,,,,,,,,,,,,,,,,,,,,,,,,,,main,None,None,1,1.4985207999998238,662.6821750999952,None,None,1,,,,,,,,,,,,,,,110,21,Female,2022-05-03_17h08.24.299,Parachute,2022.1.1,59.997504107524186,
negative,blue,2,None,k,,,,,,,,,0,206,206,206,,,,,,,,,,,,,,,,,,,,,,,,,,,,,,,,,,,,,main,None,None,1,1.4990459000109695,665.1825088000041,None,None,1,,,,,,,,,,,,,,,110,21,Female,2022-05-03_17h08.24.299,Parachute,2022.1.1,59.997504107524186,
negative,yellow,2,k,None,,,,,,,,,0,207,207,207,,,,,,,,,,,,,,,,,,,,,,,,,,,,,,,,,,,,,main,k,k,1,0.8027475999988383,667.6825997999986,None,None,0,,,,,,,,,,,,,,,110,21,Female,2022-05-03_17h08.24.299,Parachute,2022.1.1,59.997504107524186,
positive,yellow,2,None,k,,,,,,,,,0,208,208,208,,,,,,,,,,,,,,,,,,,,,,,,,,,,,,,,,,,,,main,None,None,1,1.4934109000023454,669.4870487000007,None,None,1,,,,,,,,,,,,,,,110,21,Female,2022-05-03_17h08.24.299,Parachute,2022.1.1,59.997504107524186,
negative,yellow,1,k,None,,,,,,,,,0,209,209,209,,,,,,,,,,,,,,,,,,,,,,,,,,,,,,,,,,,,,main,k,k,1,0.8350081999960821,671.9842399000045,None,None,0,,,,,,,,,,,,,,,110,21,Female,2022-05-03_17h08.24.299,Parachute,2022.1.1,59.997504107524186,
negative,red,2,None,None,,,,,,,,,0,210,210,210,,,,,,,,,,,,,,,,,,,,,,,,,,,,,,,,,,,,,main,None,None,1,1.49431480000203,673.8204029000044,None,None,1,,,,,,,,,,,,,,,110,21,Female,2022-05-03_17h08.24.299,Parachute,2022.1.1,59.997504107524186,
negative,blue,1,None,k,,,,,,,,,0,211,211,211,,,,,,,,,,,,,,,,,,,,,,,,,,,,,,,,,,,,,main,None,None,1,1.4989795000001322,676.3160990000033,None,None,1,,,,,,,,,,,,,,,110,21,Female,2022-05-03_17h08.24.299,Parachute,2022.1.1,59.997504107524186,
negative,yellow,1,k,None,,,,,,,,,0,212,212,212,,,,,,,,,,,,,,,,,,,,,,,,,,,,,,,,,,,,,main,k,k,1,0.7520374000014272,678.8164911000058,None,None,0,,,,,,,,,,,,,,,110,21,Female,2022-05-03_17h08.24.299,Parachute,2022.1.1,59.997504107524186,
positive,blue,1,k,None,,,,,,,,,0,213,213,213,,,,,,,,,,,,,,,,,,,,,,,,,,,,,,,,,,,,,main,k,k,1,0.884228399998392,680.5693532000005,None,None,0,,,,,,,,,,,,,,,110,21,Female,2022-05-03_17h08.24.299,Parachute,2022.1.1,59.997504107524186,
positive,blue,1,k,None,,,,,,,,,0,214,214,214,,,,,,,,,,,,,,,,,,,,,,,,,,,,,,,,,,,,,main,k,k,1,0.7311273999948753,682.4637934000057,None,None,0,,,,,,,,,,,,,,,110,21,Female,2022-05-03_17h08.24.299,Parachute,2022.1.1,59.997504107524186,
positive,yellow,1,None,k,,,,,,,,,0,215,215,215,,,,,,,,,,,,,,,,,,,,,,,,,,,,,,,,,,,,,main,None,None,1,1.4942929999961052,684.1874663999915,None,None,1,,,,,,,,,,,,,,,110,21,Female,2022-05-03_17h08.24.299,Parachute,2022.1.1,59.997504107524186,
positive,yellow,1,None,k,,,,,,,,,0,216,216,216,,,,,,,,,,,,,,,,,,,,,,,,,,,,,,,,,,,,,main,None,None,1,1.4986130000033882,686.6830462999933,None,None,1,,,,,,,,,,,,,,,110,21,Female,2022-05-03_17h08.24.299,Parachute,2022.1.1,59.997504107524186,
positive,yellow,2,None,k,,,,,,,,,0,217,217,217,,,,,,,,,,,,,,,,,,,,,,,,,,,,,,,,,,,,,main,None,None,1,1.4988796999969054,689.1825110999926,None,None,1,,,,,,,,,,,,,,,110,21,Female,2022-05-03_17h08.24.299,Parachute,2022.1.1,59.997504107524186,
negative,blue,1,None,k,,,,,,,,,0,218,218,218,,,,,,,,,,,,,,,,,,,,,,,,,,,,,,,,,,,,,main,None,None,1,1.4987607999937609,691.6827170000033,None,None,1,,,,,,,,,,,,,,,110,21,Female,2022-05-03_17h08.24.299,Parachute,2022.1.1,59.997504107524186,
positive,red,2,None,None,,,,,,,,,0,219,219,219,,,,,,,,,,,,,,,,,,,,,,,,,,,,,,,,,,,,,main,None,None,1,1.4986688000062713,694.1827469999989,None,None,1,,,,,,,,,,,,,,,110,21,Female,2022-05-03_17h08.24.299,Parachute,2022.1.1,59.997504107524186,
positive,yellow,1,None,k,,,,,,,,,0,220,220,220,,,,,,,,,,,,,,,,,,,,,,,,,,,,,,,,,,,,,main,None,None,1,1.4991422000020975,696.682770600004,None,None,1,,,,,,,,,,,,,,,110,21,Female,2022-05-03_17h08.24.299,Parachute,2022.1.1,59.997504107524186,
positive,blue,1,k,None,,,,,,,,,0,221,221,221,,,,,,,,,,,,,,,,,,,,,,,,,,,,,,,,,,,,,main,k,k,1,0.9697182999952929,699.183288500004,None,None,0,,,,,,,,,,,,,,,110,21,Female,2022-05-03_17h08.24.299,Parachute,2022.1.1,59.997504107524186,
positive,yellow,2,None,k,,,,,,,,,0,222,222,222,,,,,,,,,,,,,,,,,,,,,,,,,,,,,,,,,,,,,main,None,None,1,1.4941789000004064,701.1544767000014,None,None,1,,,,,,,,,,,,,,,110,21,Female,2022-05-03_17h08.24.299,Parachute,2022.1.1,59.997504107524186,
negative,yellow,1,k,None,,,,,,,,,0,223,223,223,,,,,,,,,,,,,,,,,,,,,,,,,,,,,,,,,,,,,main,k,k,1,0.7858654000010574,703.6502257999964,None,None,0,,,,,,,,,,,,,,,110,21,Female,2022-05-03_17h08.24.299,Parachute,2022.1.1,59.997504107524186,
positive,yellow,2,None,k,,,,,,,,,0,224,224,224,,,,,,,,,,,,,,,,,,,,,,,,,,,,,,,,,,,,,main,None,None,1,1.494551900002989,705.4375431999943,None,None,1,,,,,,,,,,,,,,,110,21,Female,2022-05-03_17h08.24.299,Parachute,2022.1.1,59.997504107524186,
negative,yellow,2,k,None,,,,,,,,,0,225,225,225,,,,,,,,,,,,,,,,,,,,,,,,,,,,,,,,,,,,,main,k,k,1,0.8702019000047585,707.9329218000057,None,None,0,,,,,,,,,,,,,,,110,21,Female,2022-05-03_17h08.24.299,Parachute,2022.1.1,59.997504107524186,
negative,blue,2,None,k,,,,,,,,,0,226,226,226,,,,,,,,,,,,,,,,,,,,,,,,,,,,,,,,,,,,,main,None,None,1,1.4942322999995667,709.8048024000018,None,None,1,,,,,,,,,,,,,,,110,21,Female,2022-05-03_17h08.24.299,Parachute,2022.1.1,59.997504107524186,
positive,red,2,None,None,,,,,,,,,0,227,227,227,,,,,,,,,,,,,,,,,,,,,,,,,,,,,,,,,,,,,main,None,None,1,1.4983618999976898,712.300762999992,None,None,1,,,,,,,,,,,,,,,110,21,Female,2022-05-03_17h08.24.299,Parachute,2022.1.1,59.997504107524186,
positive,blue,2,k,None,,,,,,,,,0,228,228,228,,,,,,,,,,,,,,,,,,,,,,,,,,,,,,,,,,,,,main,k,k,1,0.7353508999949554,714.8007938999945,None,None,0,,,,,,,,,,,,,,,110,21,Female,2022-05-03_17h08.24.299,Parachute,2022.1.1,59.997504107524186,
negative,blue,1,None,k,,,,,,,,,0,229,229,229,,,,,,,,,,,,,,,,,,,,,,,,,,,,,,,,,,,,,main,None,None,1,1.4949758000002475,716.5375354999996,None,None,1,,,,,,,,,,,,,,,110,21,Female,2022-05-03_17h08.24.299,Parachute,2022.1.1,59.997504107524186,
positive,yellow,1,None,k,,,,,,,,,0,230,230,230,,,,,,,,,,,,,,,,,,,,,,,,,,,,,,,,,,,,,main,None,None,1,1.4988741999986814,719.0332619999972,None,None,1,,,,,,,,,,,,,,,110,21,Female,2022-05-03_17h08.24.299,Parachute,2022.1.1,59.997504107524186,
negative,blue,2,None,k,,,,,,,,,0,231,231,231,,,,,,,,,,,,,,,,,,,,,,,,,,,,,,,,,,,,,main,None,None,1,1.4989859000052093,721.5339134999958,None,None,1,,,,,,,,,,,,,,,110,21,Female,2022-05-03_17h08.24.299,Parachute,2022.1.1,59.997504107524186,
negative,red,1,None,None,,,,,,,,,0,232,232,232,,,,,,,,,,,,,,,,,,,,,,,,,,,,,,,,,,,,,main,None,None,1,1.4981677000032505,724.0338938999921,None,None,1,,,,,,,,,,,,,,,110,21,Female,2022-05-03_17h08.24.299,Parachute,2022.1.1,59.997504107524186,
positive,blue,2,k,None,,,,,,,,,0,233,233,233,,,,,,,,,,,,,,,,,,,,,,,,,,,,,,,,,,,,,main,k,k,1,0.9368375000049127,726.5334588999976,None,None,0,,,,,,,,,,,,,,,110,21,Female,2022-05-03_17h08.24.299,Parachute,2022.1.1,59.997504107524186,
negative,yellow,1,k,None,,,,,,,,,0,234,234,234,,,,,,,,,,,,,,,,,,,,,,,,,,,,,,,,,,,,,main,k,k,1,0.8656970000010915,728.4719117000059,None,None,0,,,,,,,,,,,,,,,110,21,Female,2022-05-03_17h08.24.299,Parachute,2022.1.1,59.997504107524186,
negative,yellow,2,k,None,,,,,,,,,0,235,235,235,,,,,,,,,,,,,,,,,,,,,,,,,,,,,,,,,,,,,main,k,k,1,1.03189330000896,730.3384102999989,None,None,0,,,,,,,,,,,,,,,110,21,Female,2022-05-03_17h08.24.299,Parachute,2022.1.1,59.997504107524186,
positive,red,1,None,None,,,,,,,,,0,236,236,236,,,,,,,,,,,,,,,,,,,,,,,,,,,,,,,,,,,,,main,None,None,1,1.4931385999952909,732.3715099999972,None,None,1,,,,,,,,,,,,,,,110,21,Female,2022-05-03_17h08.24.299,Parachute,2022.1.1,59.997504107524186,
negative,red,2,None,None,,,,,,,,,0,237,237,237,,,,,,,,,,,,,,,,,,,,,,,,,,,,,,,,,,,,,main,None,None,1,1.4994946999941021,734.8668854999996,None,None,1,,,,,,,,,,,,,,,110,21,Female,2022-05-03_17h08.24.299,Parachute,2022.1.1,59.997504107524186,
negative,blue,1,None,k,,,,,,,,,0,238,238,238,,,,,,,,,,,,,,,,,,,,,,,,,,,,,,,,,,,,,main,None,None,1,1.4989407999964897,737.3672252999968,None,None,1,,,,,,,,,,,,,,,110,21,Female,2022-05-03_17h08.24.299,Parachute,2022.1.1,59.997504107524186,
positive,blue,1,k,None,,,,,,,,,0,239,239,239,,,,,,,,,,,,,,,,,,,,,,,,,,,,,,,,,,,,,main,k,k,1,0.7301822000008542,739.8673798999953,None,None,0,,,,,,,,,,,,,,,110,21,Female,2022-05-03_17h08.24.299,Parachute,2022.1.1,59.997504107524186,
,,,,,,,,,,,,,,,,,,,,,,,,,,,,,,,,,,,,,,,,,,,,,,,,,,,,,,,,,,,,,,,,,,,,,,,,,,741.6004244999931,None,,,,,,,,
