distractor,target,set,ans1,ans2,rep_loop4.thisRepN,rep_loop4.thisTrialN,rep_loop4.thisN,rep_loop4.thisIndex,st2_prac_loop.thisRepN,st2_prac_loop.thisTrialN,st2_prac_loop.thisN,st2_prac_loop.thisIndex,st2_main_loop.thisRepN,st2_main_loop.thisTrialN,st2_main_loop.thisN,st2_main_loop.thisIndex,image_4.started,image_4.stopped,mouse_7.x,mouse_7.y,mouse_7.leftButton,mouse_7.midButton,mouse_7.rightButton,mouse_7.clicked_name,sound_2.started,sound_2.stopped,key_resp_3.keys,mouse_5.x,mouse_5.y,mouse_5.leftButton,mouse_5.midButton,mouse_5.rightButton,mouse_5.started,mouse_5.stopped,yes_text2.started,yes_text2.stopped,no_text2.started,no_text2.stopped,mouse_3.x,mouse_3.y,mouse_3.leftButton,mouse_3.midButton,mouse_3.rightButton,mouse_3.started,mouse_3.stopped,mouse_3.clicked_name,st_prac_back.started,st_prac_back.stopped,st_prac_text.started,st_prac_text.stopped,st_fix_back.started,st_fix_back.stopped,st_fix_2.started,st_fix_2.stopped,main_prac,st_ans,st_res,st_corr,st_rt,st_back.started,st_back.stopped,st2_resp.keys,st2_resp.corr,st_main_back.started,st_main_back.stopped,st_main_text.started,st_main_text.stopped,mouse_4.x,mouse_4.y,mouse_4.leftButton,mouse_4.midButton,mouse_4.rightButton,mouse_4.started,mouse_4.stopped,text_2.started,text_2.stopped,id*,age*,gender*,date,expName,psychopyVersion,frameRate,
,,,,,,,,,,,,,,,,,33.51541019999422,None,-0.5083333,0.17777778,1,0,0,image_4,,,,,,,,,,,,,,,,,,,,,,,,,,,,,,,,,,,,,,,,,,,,,,,,,,,,,111,23,Female,2022-05-03_20h16.53.923,Parachute,2022.1.1,59.922077330245166,
negative,yellow,1,k,None,,,,,0,0,0,0,,,,,,,,,,,,,47.99399478999694,None,None,0.10925926,-0.34814814,0,0,0,1.0075411500001792,None,103.37951780000003,None,103.37951780000003,None,-0.0712963,-0.108333334,0,0,0,0.013886389991967008,None,no_area2,105.1569967999967,None,105.1569967999967,None,107.16409349998867,None,107.16409349998867,None,prac,None,None,1,1.5100777999905404,109.17877379999845,None,None,1,,,,,,,,,,,,,,111,23,Female,2022-05-03_20h16.53.923,Parachute,2022.1.1,59.922077330245166,
positive,red,2,None,None,,,,,0,1,1,1,,,,,,,,,,,,,,,,,,,,,,,,,,,,,,,,,,,,,,,,,,,prac,None,None,1,1.4983437999908347,111.66301099999691,None,None,1,,,,,,,,,,,,,,111,23,Female,2022-05-03_20h16.53.923,Parachute,2022.1.1,59.922077330245166,
negative,blue,2,None,k,,,,,0,2,2,2,,,,,,,,,,,,,,,,,,,,,,,,,,,,,,,,,,,,,,,,,,,prac,k,k,1,2.963804999992135,114.16240969998762,None,None,0,,,,,,,,,,,,,,111,23,Female,2022-05-03_20h16.53.923,Parachute,2022.1.1,59.922077330245166,
positive,yellow,1,None,k,,,,,0,3,3,3,,,,,,,,,,,,,,,,,,,,,,,,,,,,,,,,,,,,,,,,,,,prac,k,k,1,1.0424540999956662,119.16254059999483,None,None,0,,,,,,,,,,,,,,111,23,Female,2022-05-03_20h16.53.923,Parachute,2022.1.1,59.922077330245166,
negative,blue,2,None,k,,,,,0,4,4,4,,,,,,,,,,,,,,,,,,,,,,,,,,,,,,,,,,,,,,,,,,,prac,k,k,1,0.8613460000051418,121.20420169999124,None,None,0,,,,,,,,,,,,,,111,23,Female,2022-05-03_20h16.53.923,Parachute,2022.1.1,59.922077330245166,
negative,blue,1,None,k,,,,,0,5,5,5,,,,,,,,,,,,,,,,,,,,,,,,,,,,,,,,,,,,,,,,,,,prac,k,k,1,1.51058020000346,123.06715329999861,None,None,0,,,,,,,,,,,,,,111,23,Female,2022-05-03_20h16.53.923,Parachute,2022.1.1,59.922077330245166,
negative,yellow,2,k,None,,,,,0,6,6,6,,,,,,,,,,,,,,,,,,,,,,,,,,,,,,,,,,,,,,,,,,,prac,None,None,1,1.5036669000110123,126.57975009999063,None,None,1,,,,,,,,,,,,,,111,23,Female,2022-05-03_20h16.53.923,Parachute,2022.1.1,59.922077330245166,
negative,red,1,None,None,,,,,0,7,7,7,,,,,,,,,,,,,,,,,,,,,,,,,,,,,,,,,,,,,,,,,,,prac,None,None,1,1.4972934999968857,129.0838298999879,None,None,1,,,,,,,,,,,,,,111,23,Female,2022-05-03_20h16.53.923,Parachute,2022.1.1,59.922077330245166,
positive,yellow,2,None,k,,,,,0,8,8,8,,,,,,,,,,,,,,,,,,,,,,,,,,,,,,,,,,,,,,,,,,,prac,k,k,1,0.9675511999957962,131.58183219999773,None,None,0,,,,,,,,,,,,,,111,23,Female,2022-05-03_20h16.53.923,Parachute,2022.1.1,59.922077330245166,
negative,yellow,1,k,None,,,,,0,9,9,9,,,,,,,,,,,,,,,,,,,,,,,,,,,,,,,,,,,,,,,,,,,prac,None,None,1,1.4954384000011487,133.54972029999772,None,None,1,,,,,,,,,,,,,,111,23,Female,2022-05-03_20h16.53.923,Parachute,2022.1.1,59.922077330245166,
positive,yellow,2,None,k,,,,,0,10,10,10,,,,,,,,,,,,,,,,,,,,,,,,,,,,,,,,,,,,,,,,,,,prac,k,k,1,1.567160899998271,136.0471988999925,None,None,0,,,,,,,,,,,,,,111,23,Female,2022-05-03_20h16.53.923,Parachute,2022.1.1,59.922077330245166,
negative,yellow,2,k,None,,,,,0,11,11,11,,,,,,,,,,,,,,,,,,,,,,,,,,,,,,,,,,,,,,,,,,,prac,None,None,1,1.501230800000485,139.61309859999164,None,None,1,,,,,,,,,,,,,,111,23,Female,2022-05-03_20h16.53.923,Parachute,2022.1.1,59.922077330245166,
negative,red,2,None,None,,,,,0,12,12,12,,,,,,,,,,,,,,,,,,,,,,,,,,,,,,,,,,,,,,,,,,,prac,None,None,1,1.4986580000113463,142.11280139999872,None,None,1,,,,,,,,,,,,,,111,23,Female,2022-05-03_20h16.53.923,Parachute,2022.1.1,59.922077330245166,
positive,red,1,None,None,,,,,0,13,13,13,,,,,,,,,,,,,,,,,,,,,,,,,,,,,,,,,,,,,,,,,,,prac,None,None,1,1.4987481000134721,144.61319569998886,None,None,1,,,,,,,,,,,,,,111,23,Female,2022-05-03_20h16.53.923,Parachute,2022.1.1,59.922077330245166,
positive,blue,2,k,None,,,,,0,14,14,14,,,,,,,,,,,,,,,,,,,,,,,,,,,,,,,,,,,,,,,,,,,prac,None,None,1,1.499092500002007,147.1135832999862,None,None,1,,,,,,,,,,,,,,111,23,Female,2022-05-03_20h16.53.923,Parachute,2022.1.1,59.922077330245166,
positive,blue,1,k,None,,,,,0,15,15,15,,,,,,,,,,,,,,,,,,,,,,,,,,,,,,,,,,,,,,,,,,,prac,None,None,1,1.4985273000056623,149.6135656999977,None,None,1,,,,,,,,,,,,,,111,23,Female,2022-05-03_20h16.53.923,Parachute,2022.1.1,59.922077330245166,
negative,blue,1,None,k,,,,,0,16,16,16,,,,,,,,,,,,,,,,,,,,,,,,,,,,,,,,,,,,,,,,,,,prac,k,k,1,0.7369424000062281,152.11358569998993,None,None,0,,,,,,,,,,,,,,111,23,Female,2022-05-03_20h16.53.923,Parachute,2022.1.1,59.922077330245166,
positive,blue,2,k,None,,,,,0,17,17,17,,,,,,,,,,,,,,,,,,,,,,,,,,,,,,,,,,,,,,,,,,,prac,None,None,1,1.4938357999926666,153.85137889999896,None,None,1,,,,,,,,,,,,,,111,23,Female,2022-05-03_20h16.53.923,Parachute,2022.1.1,59.922077330245166,
positive,blue,1,k,None,,,,,0,18,18,18,,,,,,,,,,,,,,,,,,,,,,,,,,,,,,,,,,,,,,,,,,,prac,None,None,1,1.498556100006681,156.34715489999508,None,None,1,,,,,,,,,,,,,,111,23,Female,2022-05-03_20h16.53.923,Parachute,2022.1.1,59.922077330245166,
positive,yellow,1,None,k,,,,,0,19,19,19,,,,,,,,,,,,,,,,,,,,,,,,,,,,,,,,,,,,,,,,,,,prac,k,k,1,0.9870889000012539,158.84704219999549,None,None,0,,,,,,,,,,,,,,111,23,Female,2022-05-03_20h16.53.923,Parachute,2022.1.1,59.922077330245166,
negative,yellow,1,k,None,,,,,1,0,20,0,,,,,,,,,,,,,,,,,,,,,,,,,,,,,,,,,,,,,,,,,,,prac,None,None,1,1.4939814999961527,160.83521449999535,None,None,1,,,,,,,,,,,,,,111,23,Female,2022-05-03_20h16.53.923,Parachute,2022.1.1,59.922077330245166,
positive,red,2,None,None,,,,,1,1,21,1,,,,,,,,,,,,,,,,,,,,,,,,,,,,,,,,,,,,,,,,,,,prac,None,None,1,1.4982673000049544,163.33082039999135,None,None,1,,,,,,,,,,,,,,111,23,Female,2022-05-03_20h16.53.923,Parachute,2022.1.1,59.922077330245166,
negative,blue,2,None,k,,,,,1,2,22,2,,,,,,,,,,,,,,,,,,,,,,,,,,,,,,,,,,,,,,,,,,,prac,k,k,1,0.8704661000083433,165.83101499998884,None,None,0,,,,,,,,,,,,,,111,23,Female,2022-05-03_20h16.53.923,Parachute,2022.1.1,59.922077330245166,
positive,yellow,1,None,k,,,,,1,3,23,3,,,,,,,,,,,,,,,,,,,,,,,,,,,,,,,,,,,,,,,,,,,prac,k,k,1,0.8818817999999737,167.702443999995,None,None,0,,,,,,,,,,,,,,111,23,Female,2022-05-03_20h16.53.923,Parachute,2022.1.1,59.922077330245166,
negative,blue,2,None,k,,,,,1,4,24,4,,,,,,,,,,,,,,,,,,,,,,,,,,,,,,,,,,,,,,,,,,,prac,k,k,1,0.815702500010957,169.5853611999919,None,None,0,,,,,,,,,,,,,,111,23,Female,2022-05-03_20h16.53.923,Parachute,2022.1.1,59.922077330245166,
negative,blue,1,None,k,,,,,1,5,25,5,,,,,,,,,,,,,,,,,,,,,,,,,,,,,,,,,,,,,,,,,,,prac,k,k,1,0.7637715000018943,171.4019372999901,None,None,0,,,,,,,,,,,,,,111,23,Female,2022-05-03_20h16.53.923,Parachute,2022.1.1,59.922077330245166,
negative,yellow,2,k,None,,,,,1,6,26,6,,,,,,,,,,,,,,,,,,,,,,,,,,,,,,,,,,,,,,,,,,,prac,None,k,0,0.8834618999972008,173.1683675999957,None,None,1,,,,,,,,,,,,,,111,23,Female,2022-05-03_20h16.53.923,Parachute,2022.1.1,59.922077330245166,
negative,red,1,None,None,,,,,1,7,27,7,,,,,,,,,,,,,,,,,,,,,,,,,,,,,,,,,,,,,,,,,,,prac,None,None,1,1.5016574000037508,176.06388419998984,None,None,1,,,,,,,,,,,,,,111,23,Female,2022-05-03_20h16.53.923,Parachute,2022.1.1,59.922077330245166,
positive,yellow,2,None,k,,,,,1,8,28,8,,,,,,,,,,,,,,,,,,,,,,,,,,,,,,,,,,,,,,,,,,,prac,k,k,1,1.0702339999988908,178.5641559999931,None,None,0,,,,,,,,,,,,,,111,23,Female,2022-05-03_20h16.53.923,Parachute,2022.1.1,59.922077330245166,
negative,yellow,1,k,None,,,,,1,9,29,9,,,,,,,,,,,,,,,,,,,,,,,,,,,,,,,,,,,,,,,,,,,prac,None,None,1,1.493609800003469,180.6357033999957,None,None,1,,,,,,,,,,,,,,111,23,Female,2022-05-03_20h16.53.923,Parachute,2022.1.1,59.922077330245166,
positive,yellow,2,None,k,,,,,1,10,30,10,,,,,,,,,,,,,,,,,,,,,,,,,,,,,,,,,,,,,,,,,,,prac,k,k,1,1.0874158999940846,183.13105669998913,None,None,0,,,,,,,,,,,,,,111,23,Female,2022-05-03_20h16.53.923,Parachute,2022.1.1,59.922077330245166,
negative,yellow,2,k,None,,,,,1,11,31,11,,,,,,,,,,,,,,,,,,,,,,,,,,,,,,,,,,,,,,,,,,,prac,None,None,1,1.493385699999635,185.2199208999955,None,None,1,,,,,,,,,,,,,,111,23,Female,2022-05-03_20h16.53.923,Parachute,2022.1.1,59.922077330245166,
negative,red,2,None,None,,,,,1,12,32,12,,,,,,,,,,,,,,,,,,,,,,,,,,,,,,,,,,,,,,,,,,,prac,None,None,1,1.498444600001676,187.71506679999584,None,None,1,,,,,,,,,,,,,,111,23,Female,2022-05-03_20h16.53.923,Parachute,2022.1.1,59.922077330245166,
positive,red,1,None,None,,,,,1,13,33,13,,,,,,,,,,,,,,,,,,,,,,,,,,,,,,,,,,,,,,,,,,,prac,None,None,1,1.4987190000101691,190.21580729998823,None,None,1,,,,,,,,,,,,,,111,23,Female,2022-05-03_20h16.53.923,Parachute,2022.1.1,59.922077330245166,
positive,blue,2,k,None,,,,,1,14,34,14,,,,,,,,,,,,,,,,,,,,,,,,,,,,,,,,,,,,,,,,,,,prac,None,None,1,1.4985091999988072,192.71546869998565,None,None,1,,,,,,,,,,,,,,111,23,Female,2022-05-03_20h16.53.923,Parachute,2022.1.1,59.922077330245166,
positive,blue,1,k,None,,,,,1,15,35,15,,,,,,,,,,,,,,,,,,,,,,,,,,,,,,,,,,,,,,,,,,,prac,None,None,1,1.4989891000004718,195.2152619999979,None,None,1,,,,,,,,,,,,,,111,23,Female,2022-05-03_20h16.53.923,Parachute,2022.1.1,59.922077330245166,
negative,blue,1,None,k,,,,,1,16,36,16,,,,,,,,,,,,,,,,,,,,,,,,,,,,,,,,,,,,,,,,,,,prac,k,k,1,1.1376992000004975,197.71544109999377,None,None,0,,,,,,,,,,,,,,111,23,Female,2022-05-03_20h16.53.923,Parachute,2022.1.1,59.922077330245166,
positive,blue,2,k,None,,,,,1,17,37,17,,,,,,,,,,,,,,,,,,,,,,,,,,,,,,,,,,,,,,,,,,,prac,None,None,1,1.4930046000081347,199.8528343999933,None,None,1,,,,,,,,,,,,,,111,23,Female,2022-05-03_20h16.53.923,Parachute,2022.1.1,59.922077330245166,
positive,blue,1,k,None,,,,,1,18,38,18,,,,,,,,,,,,,,,,,,,,,,,,,,,,,,,,,,,,,,,,,,,prac,None,None,1,1.498742099996889,202.3478432999982,None,None,1,,,,,,,,,,,,,,111,23,Female,2022-05-03_20h16.53.923,Parachute,2022.1.1,59.922077330245166,
positive,yellow,1,None,k,,,,,1,19,39,19,,,,,,,,,,,,,,,,,,,,,,,,,,,,,,,,,,,,,,,,,,,prac,k,k,1,1.0541539999976521,204.84833889998845,None,None,0,,,,,,,,,,,,,,111,23,Female,2022-05-03_20h16.53.923,Parachute,2022.1.1,59.922077330245166,
,,,,,,,,,,,,,,,,,,,,,,,,,,,,,,,,,,,,,,,,,,,,,,,,,,,,,,,,,,,,,,,,206.92689329999848,None,206.92689329999848,None,0.06388889,-0.13055556,0,0,0,0.012345289986114949,None,,,111,23,Female,2022-05-03_20h16.53.923,Parachute,2022.1.1,59.922077330245166,
negative,yellow,2,k,None,,,,,,,,,0,0,0,0,,,,,,,,,,,,,,,,,,,,,,,,,,,,,,,,,,,216.36432599999534,None,216.36432599999534,None,main,None,None,1,1.511155600004713,218.4013380999968,None,None,1,,,,,,,,,,,,,,111,23,Female,2022-05-03_20h16.53.923,Parachute,2022.1.1,59.922077330245166,
positive,red,1,None,None,,,,,,,,,0,1,1,1,,,,,,,,,,,,,,,,,,,,,,,,,,,,,,,,,,,,,,,main,None,None,1,1.4985621000087122,220.91547459999856,None,None,1,,,,,,,,,,,,,,111,23,Female,2022-05-03_20h16.53.923,Parachute,2022.1.1,59.922077330245166,
positive,blue,2,k,None,,,,,,,,,0,2,2,2,,,,,,,,,,,,,,,,,,,,,,,,,,,,,,,,,,,,,,,main,None,None,1,1.4985091999988072,223.4151864999876,None,None,1,,,,,,,,,,,,,,111,23,Female,2022-05-03_20h16.53.923,Parachute,2022.1.1,59.922077330245166,
positive,blue,1,k,None,,,,,,,,,0,3,3,3,,,,,,,,,,,,,,,,,,,,,,,,,,,,,,,,,,,,,,,main,None,None,1,1.4985641999955988,225.91509629999928,None,None,1,,,,,,,,,,,,,,111,23,Female,2022-05-03_20h16.53.923,Parachute,2022.1.1,59.922077330245166,
negative,yellow,2,k,None,,,,,,,,,0,4,4,4,,,,,,,,,,,,,,,,,,,,,,,,,,,,,,,,,,,,,,,main,None,None,1,1.49885250000807,228.41504539999005,None,None,1,,,,,,,,,,,,,,111,23,Female,2022-05-03_20h16.53.923,Parachute,2022.1.1,59.922077330245166,
positive,yellow,2,None,k,,,,,,,,,0,5,5,5,,,,,,,,,,,,,,,,,,,,,,,,,,,,,,,,,,,,,,,main,k,k,1,1.1695820999884745,230.9156035999913,None,None,0,,,,,,,,,,,,,,111,23,Female,2022-05-03_20h16.53.923,Parachute,2022.1.1,59.922077330245166,
negative,blue,2,None,k,,,,,,,,,0,6,6,6,,,,,,,,,,,,,,,,,,,,,,,,,,,,,,,,,,,,,,,main,k,k,1,0.8788026000111131,233.09643189999042,None,None,0,,,,,,,,,,,,,,111,23,Female,2022-05-03_20h16.53.923,Parachute,2022.1.1,59.922077330245166,
positive,red,2,None,None,,,,,,,,,0,7,7,7,,,,,,,,,,,,,,,,,,,,,,,,,,,,,,,,,,,,,,,main,None,None,1,1.4978224000078626,234.96806719999586,None,None,1,,,,,,,,,,,,,,111,23,Female,2022-05-03_20h16.53.923,Parachute,2022.1.1,59.922077330245166,
positive,yellow,1,None,k,,,,,,,,,0,8,8,8,,,,,,,,,,,,,,,,,,,,,,,,,,,,,,,,,,,,,,,main,k,k,1,0.9468732999957865,237.46709619999456,None,None,0,,,,,,,,,,,,,,111,23,Female,2022-05-03_20h16.53.923,Parachute,2022.1.1,59.922077330245166,
negative,red,1,None,None,,,,,,,,,0,9,9,9,,,,,,,,,,,,,,,,,,,,,,,,,,,,,,,,,,,,,,,main,None,None,1,1.5004958999925293,239.41488769999705,None,None,1,,,,,,,,,,,,,,111,23,Female,2022-05-03_20h16.53.923,Parachute,2022.1.1,59.922077330245166,
positive,yellow,1,None,k,,,,,,,,,0,10,10,10,,,,,,,,,,,,,,,,,,,,,,,,,,,,,,,,,,,,,,,main,k,k,1,0.9337137999973493,241.91544649998832,None,None,0,,,,,,,,,,,,,,111,23,Female,2022-05-03_20h16.53.923,Parachute,2022.1.1,59.922077330245166,
negative,yellow,1,k,None,,,,,,,,,0,11,11,11,,,,,,,,,,,,,,,,,,,,,,,,,,,,,,,,,,,,,,,main,None,None,1,1.496634199997061,243.8513280999905,None,None,1,,,,,,,,,,,,,,111,23,Female,2022-05-03_20h16.53.923,Parachute,2022.1.1,59.922077330245166,
negative,yellow,1,k,None,,,,,,,,,0,12,12,12,,,,,,,,,,,,,,,,,,,,,,,,,,,,,,,,,,,,,,,main,None,None,1,1.498717000009492,246.34942769999907,None,None,1,,,,,,,,,,,,,,111,23,Female,2022-05-03_20h16.53.923,Parachute,2022.1.1,59.922077330245166,
negative,red,2,None,None,,,,,,,,,0,13,13,13,,,,,,,,,,,,,,,,,,,,,,,,,,,,,,,,,,,,,,,main,None,None,1,1.4988883000041824,248.84920329999295,None,None,1,,,,,,,,,,,,,,111,23,Female,2022-05-03_20h16.53.923,Parachute,2022.1.1,59.922077330245166,
positive,yellow,2,None,k,,,,,,,,,0,14,14,14,,,,,,,,,,,,,,,,,,,,,,,,,,,,,,,,,,,,,,,main,k,k,1,0.9367582999984734,251.34951629998977,None,None,0,,,,,,,,,,,,,,111,23,Female,2022-05-03_20h16.53.923,Parachute,2022.1.1,59.922077330245166,
positive,blue,1,k,None,,,,,,,,,0,15,15,15,,,,,,,,,,,,,,,,,,,,,,,,,,,,,,,,,,,,,,,main,None,None,1,1.4935149000084493,253.28705339999578,None,None,1,,,,,,,,,,,,,,111,23,Female,2022-05-03_20h16.53.923,Parachute,2022.1.1,59.922077330245166,
negative,blue,1,None,k,,,,,,,,,0,16,16,16,,,,,,,,,,,,,,,,,,,,,,,,,,,,,,,,,,,,,,,main,k,k,1,0.7535640999994939,255.78232789998583,None,None,0,,,,,,,,,,,,,,111,23,Female,2022-05-03_20h16.53.923,Parachute,2022.1.1,59.922077330245166,
positive,blue,2,k,None,,,,,,,,,0,17,17,17,,,,,,,,,,,,,,,,,,,,,,,,,,,,,,,,,,,,,,,main,None,None,1,1.4936813000094844,257.5372636999964,None,None,1,,,,,,,,,,,,,,111,23,Female,2022-05-03_20h16.53.923,Parachute,2022.1.1,59.922077330245166,
negative,blue,2,None,k,,,,,,,,,0,18,18,18,,,,,,,,,,,,,,,,,,,,,,,,,,,,,,,,,,,,,,,main,k,k,1,0.6704978999914601,260.0329464999959,None,None,0,,,,,,,,,,,,,,111,23,Female,2022-05-03_20h16.53.923,Parachute,2022.1.1,59.922077330245166,
negative,blue,1,None,k,,,,,,,,,0,19,19,19,,,,,,,,,,,,,,,,,,,,,,,,,,,,,,,,,,,,,,,main,k,k,1,0.7990676000044914,261.70432239999354,None,None,0,,,,,,,,,,,,,,111,23,Female,2022-05-03_20h16.53.923,Parachute,2022.1.1,59.922077330245166,
negative,blue,1,None,k,,,,,,,,,0,20,20,20,,,,,,,,,,,,,,,,,,,,,,,,,,,,,,,,,,,,,,,main,k,k,1,0.648544600000605,263.50419369999145,None,None,0,,,,,,,,,,,,,,111,23,Female,2022-05-03_20h16.53.923,Parachute,2022.1.1,59.922077330245166,
negative,blue,2,None,k,,,,,,,,,0,21,21,21,,,,,,,,,,,,,,,,,,,,,,,,,,,,,,,,,,,,,,,main,k,k,1,1.2835275000106776,265.15414109999256,None,None,0,,,,,,,,,,,,,,111,23,Female,2022-05-03_20h16.53.923,Parachute,2022.1.1,59.922077330245166,
negative,red,1,None,None,,,,,,,,,0,22,22,22,,,,,,,,,,,,,,,,,,,,,,,,,,,,,,,,,,,,,,,main,None,None,1,1.5084283999894978,267.438533499997,None,None,1,,,,,,,,,,,,,,111,23,Female,2022-05-03_20h16.53.923,Parachute,2022.1.1,59.922077330245166,
positive,red,2,None,None,,,,,,,,,0,23,23,23,,,,,,,,,,,,,,,,,,,,,,,,,,,,,,,,,,,,,,,main,None,None,1,1.498849200012046,269.9494275999896,None,None,1,,,,,,,,,,,,,,111,23,Female,2022-05-03_20h16.53.923,Parachute,2022.1.1,59.922077330245166,
negative,red,2,None,None,,,,,,,,,0,24,24,24,,,,,,,,,,,,,,,,,,,,,,,,,,,,,,,,,,,,,,,main,None,None,1,1.4988125000090804,272.44955109999864,None,None,1,,,,,,,,,,,,,,111,23,Female,2022-05-03_20h16.53.923,Parachute,2022.1.1,59.922077330245166,
positive,blue,2,k,None,,,,,,,,,0,25,25,25,,,,,,,,,,,,,,,,,,,,,,,,,,,,,,,,,,,,,,,main,None,None,1,1.4989005999959772,274.9502363999927,None,None,1,,,,,,,,,,,,,,111,23,Female,2022-05-03_20h16.53.923,Parachute,2022.1.1,59.922077330245166,
negative,yellow,1,k,None,,,,,,,,,0,26,26,26,,,,,,,,,,,,,,,,,,,,,,,,,,,,,,,,,,,,,,,main,None,None,1,1.4980507000000216,277.4496422999946,None,None,1,,,,,,,,,,,,,,111,23,Female,2022-05-03_20h16.53.923,Parachute,2022.1.1,59.922077330245166,
positive,blue,2,k,None,,,,,,,,,0,27,27,27,,,,,,,,,,,,,,,,,,,,,,,,,,,,,,,,,,,,,,,main,None,None,1,1.4991008999932092,279.9499439999927,None,None,1,,,,,,,,,,,,,,111,23,Female,2022-05-03_20h16.53.923,Parachute,2022.1.1,59.922077330245166,
negative,blue,2,None,k,,,,,,,,,0,28,28,28,,,,,,,,,,,,,,,,,,,,,,,,,,,,,,,,,,,,,,,main,k,k,1,0.9030978000082541,282.45036589998927,None,None,0,,,,,,,,,,,,,,111,23,Female,2022-05-03_20h16.53.923,Parachute,2022.1.1,59.922077330245166,
positive,red,1,None,None,,,,,,,,,0,29,29,29,,,,,,,,,,,,,,,,,,,,,,,,,,,,,,,,,,,,,,,main,None,None,1,1.4938048000039998,284.3548951999983,None,None,1,,,,,,,,,,,,,,111,23,Female,2022-05-03_20h16.53.923,Parachute,2022.1.1,59.922077330245166,
positive,blue,1,k,None,,,,,,,,,0,30,30,30,,,,,,,,,,,,,,,,,,,,,,,,,,,,,,,,,,,,,,,main,None,None,1,1.498591600000509,286.8502082999912,None,None,1,,,,,,,,,,,,,,111,23,Female,2022-05-03_20h16.53.923,Parachute,2022.1.1,59.922077330245166,
positive,yellow,1,None,k,,,,,,,,,0,31,31,31,,,,,,,,,,,,,,,,,,,,,,,,,,,,,,,,,,,,,,,main,k,k,1,0.9204911999986507,289.3502113999857,None,None,0,,,,,,,,,,,,,,111,23,Female,2022-05-03_20h16.53.923,Parachute,2022.1.1,59.922077330245166,
negative,yellow,2,k,None,,,,,,,,,0,32,32,32,,,,,,,,,,,,,,,,,,,,,,,,,,,,,,,,,,,,,,,main,None,None,1,1.4939760999986902,291.27154169999994,None,None,1,,,,,,,,,,,,,,111,23,Female,2022-05-03_20h16.53.923,Parachute,2022.1.1,59.922077330245166,
negative,blue,1,None,k,,,,,,,,,0,33,33,33,,,,,,,,,,,,,,,,,,,,,,,,,,,,,,,,,,,,,,,main,k,k,1,0.8203458999923896,293.76759559998754,None,None,0,,,,,,,,,,,,,,111,23,Female,2022-05-03_20h16.53.923,Parachute,2022.1.1,59.922077330245166,
positive,blue,1,k,None,,,,,,,,,0,34,34,34,,,,,,,,,,,,,,,,,,,,,,,,,,,,,,,,,,,,,,,main,None,None,1,1.4933747000031872,295.58822609999334,None,None,1,,,,,,,,,,,,,,111,23,Female,2022-05-03_20h16.53.923,Parachute,2022.1.1,59.922077330245166,
negative,yellow,1,k,None,,,,,,,,,0,35,35,35,,,,,,,,,,,,,,,,,,,,,,,,,,,,,,,,,,,,,,,main,None,None,1,1.4987077000114368,298.08318919999874,None,None,1,,,,,,,,,,,,,,111,23,Female,2022-05-03_20h16.53.923,Parachute,2022.1.1,59.922077330245166,
positive,yellow,2,None,k,,,,,,,,,0,36,36,36,,,,,,,,,,,,,,,,,,,,,,,,,,,,,,,,,,,,,,,main,k,k,1,0.7860701000026893,300.58365539999795,None,None,0,,,,,,,,,,,,,,111,23,Female,2022-05-03_20h16.53.923,Parachute,2022.1.1,59.922077330245166,
positive,yellow,2,None,k,,,,,,,,,0,37,37,37,,,,,,,,,,,,,,,,,,,,,,,,,,,,,,,,,,,,,,,main,k,k,1,0.5999231000023428,302.3814813999925,None,None,0,,,,,,,,,,,,,,111,23,Female,2022-05-03_20h16.53.923,Parachute,2022.1.1,59.922077330245166,
negative,yellow,2,k,None,,,,,,,,,0,38,38,38,,,,,,,,,,,,,,,,,,,,,,,,,,,,,,,,,,,,,,,main,None,None,1,1.4933101999922656,303.9712683999969,None,None,1,,,,,,,,,,,,,,111,23,Female,2022-05-03_20h16.53.923,Parachute,2022.1.1,59.922077330245166,
positive,yellow,1,None,k,,,,,,,,,0,39,39,39,,,,,,,,,,,,,,,,,,,,,,,,,,,,,,,,,,,,,,,main,k,k,1,0.7699167000100715,306.46701599999506,None,None,0,,,,,,,,,,,,,,111,23,Female,2022-05-03_20h16.53.923,Parachute,2022.1.1,59.922077330245166,
negative,yellow,2,k,None,,,,,,,,,0,40,40,40,,,,,,,,,,,,,,,,,,,,,,,,,,,,,,,,,,,,,,,main,None,None,1,1.493964799999958,308.2387936999876,None,None,1,,,,,,,,,,,,,,111,23,Female,2022-05-03_20h16.53.923,Parachute,2022.1.1,59.922077330245166,
positive,blue,2,k,None,,,,,,,,,0,41,41,41,,,,,,,,,,,,,,,,,,,,,,,,,,,,,,,,,,,,,,,main,None,None,1,1.4990047000028426,310.7356959999888,None,None,1,,,,,,,,,,,,,,111,23,Female,2022-05-03_20h16.53.923,Parachute,2022.1.1,59.922077330245166,
positive,blue,2,k,None,,,,,,,,,0,42,42,42,,,,,,,,,,,,,,,,,,,,,,,,,,,,,,,,,,,,,,,main,None,None,1,1.4985114000010071,313.23345059998974,None,None,1,,,,,,,,,,,,,,111,23,Female,2022-05-03_20h16.53.923,Parachute,2022.1.1,59.922077330245166,
negative,blue,2,None,k,,,,,,,,,0,43,43,43,,,,,,,,,,,,,,,,,,,,,,,,,,,,,,,,,,,,,,,main,k,k,1,0.6387231999979122,315.73360739999043,None,None,0,,,,,,,,,,,,,,111,23,Female,2022-05-03_20h16.53.923,Parachute,2022.1.1,59.922077330245166,
negative,red,1,None,None,,,,,,,,,0,44,44,44,,,,,,,,,,,,,,,,,,,,,,,,,,,,,,,,,,,,,,,main,None,None,1,1.4933439000014914,317.38167819999217,None,None,1,,,,,,,,,,,,,,111,23,Female,2022-05-03_20h16.53.923,Parachute,2022.1.1,59.922077330245166,
negative,yellow,1,k,None,,,,,,,,,0,45,45,45,,,,,,,,,,,,,,,,,,,,,,,,,,,,,,,,,,,,,,,main,None,None,1,1.4989470999862533,319.8693685999897,None,None,1,,,,,,,,,,,,,,111,23,Female,2022-05-03_20h16.53.923,Parachute,2022.1.1,59.922077330245166,
negative,yellow,1,k,None,,,,,,,,,0,46,46,46,,,,,,,,,,,,,,,,,,,,,,,,,,,,,,,,,,,,,,,main,None,None,1,1.4988149999990128,322.36959379998734,None,None,1,,,,,,,,,,,,,,111,23,Female,2022-05-03_20h16.53.923,Parachute,2022.1.1,59.922077330245166,
positive,red,1,None,None,,,,,,,,,0,47,47,47,,,,,,,,,,,,,,,,,,,,,,,,,,,,,,,,,,,,,,,main,None,None,1,1.4983250999939628,324.8697772999876,None,None,1,,,,,,,,,,,,,,111,23,Female,2022-05-03_20h16.53.923,Parachute,2022.1.1,59.922077330245166,
positive,yellow,1,None,k,,,,,,,,,0,48,48,48,,,,,,,,,,,,,,,,,,,,,,,,,,,,,,,,,,,,,,,main,k,k,1,0.9023576000035973,327.3693776999862,None,None,0,,,,,,,,,,,,,,111,23,Female,2022-05-03_20h16.53.923,Parachute,2022.1.1,59.922077330245166,
negative,blue,1,None,k,,,,,,,,,0,49,49,49,,,,,,,,,,,,,,,,,,,,,,,,,,,,,,,,,,,,,,,main,k,k,1,1.1152150999987498,329.2725006999972,None,None,0,,,,,,,,,,,,,,111,23,Female,2022-05-03_20h16.53.923,Parachute,2022.1.1,59.922077330245166,
positive,yellow,2,None,k,,,,,,,,,0,50,50,50,,,,,,,,,,,,,,,,,,,,,,,,,,,,,,,,,,,,,,,main,k,k,1,1.014438699989114,331.3888794999948,None,None,0,,,,,,,,,,,,,,111,23,Female,2022-05-03_20h16.53.923,Parachute,2022.1.1,59.922077330245166,
negative,blue,1,None,k,,,,,,,,,0,51,51,51,,,,,,,,,,,,,,,,,,,,,,,,,,,,,,,,,,,,,,,main,k,k,1,0.6998544000089169,333.40560909999476,None,None,0,,,,,,,,,,,,,,111,23,Female,2022-05-03_20h16.53.923,Parachute,2022.1.1,59.922077330245166,
positive,red,2,None,None,,,,,,,,,0,52,52,52,,,,,,,,,,,,,,,,,,,,,,,,,,,,,,,,,,,,,,,main,None,None,1,1.4934193000080995,335.105765299988,None,None,1,,,,,,,,,,,,,,111,23,Female,2022-05-03_20h16.53.923,Parachute,2022.1.1,59.922077330245166,
positive,yellow,2,None,k,,,,,,,,,0,53,53,53,,,,,,,,,,,,,,,,,,,,,,,,,,,,,,,,,,,,,,,main,k,k,1,0.7368833000073209,337.6013569999923,None,None,0,,,,,,,,,,,,,,111,23,Female,2022-05-03_20h16.53.923,Parachute,2022.1.1,59.922077330245166,
negative,red,2,None,None,,,,,,,,,0,54,54,54,,,,,,,,,,,,,,,,,,,,,,,,,,,,,,,,,,,,,,,main,None,None,1,1.493349099997431,339.33887179999147,None,None,1,,,,,,,,,,,,,,111,23,Female,2022-05-03_20h16.53.923,Parachute,2022.1.1,59.922077330245166,
positive,yellow,1,None,k,,,,,,,,,0,55,55,55,,,,,,,,,,,,,,,,,,,,,,,,,,,,,,,,,,,,,,,main,k,k,1,0.7703135999909136,341.8348990999948,None,None,0,,,,,,,,,,,,,,111,23,Female,2022-05-03_20h16.53.923,Parachute,2022.1.1,59.922077330245166,
negative,blue,2,None,k,,,,,,,,,0,56,56,56,,,,,,,,,,,,,,,,,,,,,,,,,,,,,,,,,,,,,,,main,k,k,1,0.7990232000011019,343.60607649998565,None,None,0,,,,,,,,,,,,,,111,23,Female,2022-05-03_20h16.53.923,Parachute,2022.1.1,59.922077330245166,
positive,blue,1,k,None,,,,,,,,,0,57,57,57,,,,,,,,,,,,,,,,,,,,,,,,,,,,,,,,,,,,,,,main,None,None,1,1.493610000004992,345.40677369998593,None,None,1,,,,,,,,,,,,,,111,23,Female,2022-05-03_20h16.53.923,Parachute,2022.1.1,59.922077330245166,
positive,blue,1,k,None,,,,,,,,,0,58,58,58,,,,,,,,,,,,,,,,,,,,,,,,,,,,,,,,,,,,,,,main,None,None,1,1.4983593999932054,347.90262119998806,None,None,1,,,,,,,,,,,,,,111,23,Female,2022-05-03_20h16.53.923,Parachute,2022.1.1,59.922077330245166,
negative,yellow,2,k,None,,,,,,,,,0,59,59,59,,,,,,,,,,,,,,,,,,,,,,,,,,,,,,,,,,,,,,,main,None,None,1,1.5003311000036774,350.4022097999987,None,None,1,,,,,,,,,,,,,,111,23,Female,2022-05-03_20h16.53.923,Parachute,2022.1.1,59.922077330245166,
positive,red,2,None,None,,,,,,,,,0,60,60,60,,,,,,,,,,,,,,,,,,,,,,,,,,,,,,,,,,,,,,,main,None,None,1,1.497216199990362,352.90413839998655,None,None,1,,,,,,,,,,,,,,111,23,Female,2022-05-03_20h16.53.923,Parachute,2022.1.1,59.922077330245166,
negative,yellow,1,k,None,,,,,,,,,0,61,61,61,,,,,,,,,,,,,,,,,,,,,,,,,,,,,,,,,,,,,,,main,None,None,1,1.499018900009105,355.4029354999948,None,None,1,,,,,,,,,,,,,,111,23,Female,2022-05-03_20h16.53.923,Parachute,2022.1.1,59.922077330245166,
negative,red,1,None,None,,,,,,,,,0,62,62,62,,,,,,,,,,,,,,,,,,,,,,,,,,,,,,,,,,,,,,,main,None,None,1,1.4992577999946661,357.9039350999956,None,None,1,,,,,,,,,,,,,,111,23,Female,2022-05-03_20h16.53.923,Parachute,2022.1.1,59.922077330245166,
negative,blue,1,None,k,,,,,,,,,0,63,63,63,,,,,,,,,,,,,,,,,,,,,,,,,,,,,,,,,,,,,,,main,k,k,1,0.9529916000028607,360.40362159999495,None,None,0,,,,,,,,,,,,,,111,23,Female,2022-05-03_20h16.53.923,Parachute,2022.1.1,59.922077330245166,
positive,blue,2,k,None,,,,,,,,,0,64,64,64,,,,,,,,,,,,,,,,,,,,,,,,,,,,,,,,,,,,,,,main,None,None,1,1.4941611999965971,362.3563599999907,None,None,1,,,,,,,,,,,,,,111,23,Female,2022-05-03_20h16.53.923,Parachute,2022.1.1,59.922077330245166,
negative,yellow,2,k,None,,,,,,,,,0,65,65,65,,,,,,,,,,,,,,,,,,,,,,,,,,,,,,,,,,,,,,,main,None,None,1,1.4989079999941168,364.85142829999677,None,None,1,,,,,,,,,,,,,,111,23,Female,2022-05-03_20h16.53.923,Parachute,2022.1.1,59.922077330245166,
positive,yellow,2,None,k,,,,,,,,,0,66,66,66,,,,,,,,,,,,,,,,,,,,,,,,,,,,,,,,,,,,,,,main,k,k,1,0.8854600000049686,367.35193979999167,None,None,0,,,,,,,,,,,,,,111,23,Female,2022-05-03_20h16.53.923,Parachute,2022.1.1,59.922077330245166,
positive,yellow,2,None,k,,,,,,,,,0,67,67,67,,,,,,,,,,,,,,,,,,,,,,,,,,,,,,,,,,,,,,,main,k,k,1,0.8965649000019766,369.23987239999406,None,None,0,,,,,,,,,,,,,,111,23,Female,2022-05-03_20h16.53.923,Parachute,2022.1.1,59.922077330245166,
positive,red,1,None,None,,,,,,,,,0,68,68,68,,,,,,,,,,,,,,,,,,,,,,,,,,,,,,,,,,,,,,,main,None,None,1,1.4969198999897344,371.137275999994,None,None,1,,,,,,,,,,,,,,111,23,Female,2022-05-03_20h16.53.923,Parachute,2022.1.1,59.922077330245166,
positive,yellow,1,None,k,,,,,,,,,0,69,69,69,,,,,,,,,,,,,,,,,,,,,,,,,,,,,,,,,,,,,,,main,k,k,1,1.0021241000067675,373.6347863999981,None,None,0,,,,,,,,,,,,,,111,23,Female,2022-05-03_20h16.53.923,Parachute,2022.1.1,59.922077330245166,
negative,yellow,2,k,None,,,,,,,,,0,70,70,70,,,,,,,,,,,,,,,,,,,,,,,,,,,,,,,,,,,,,,,main,None,None,1,1.4951501000032295,375.63971409999067,None,None,1,,,,,,,,,,,,,,111,23,Female,2022-05-03_20h16.53.923,Parachute,2022.1.1,59.922077330245166,
positive,yellow,1,None,k,,,,,,,,,0,71,71,71,,,,,,,,,,,,,,,,,,,,,,,,,,,,,,,,,,,,,,,main,k,k,1,0.8208867999928771,378.1346414999862,None,None,0,,,,,,,,,,,,,,111,23,Female,2022-05-03_20h16.53.923,Parachute,2022.1.1,59.922077330245166,
negative,blue,1,None,k,,,,,,,,,0,72,72,72,,,,,,,,,,,,,,,,,,,,,,,,,,,,,,,,,,,,,,,main,k,k,1,0.746903499995824,379.9566302999883,None,None,0,,,,,,,,,,,,,,111,23,Female,2022-05-03_20h16.53.923,Parachute,2022.1.1,59.922077330245166,
negative,red,2,None,None,,,,,,,,,0,73,73,73,,,,,,,,,,,,,,,,,,,,,,,,,,,,,,,,,,,,,,,main,None,None,1,1.495060100001865,381.7057328999945,None,None,1,,,,,,,,,,,,,,111,23,Female,2022-05-03_20h16.53.923,Parachute,2022.1.1,59.922077330245166,
positive,blue,2,k,None,,,,,,,,,0,74,74,74,,,,,,,,,,,,,,,,,,,,,,,,,,,,,,,,,,,,,,,main,None,None,1,1.4995784000057029,384.201476199989,None,None,1,,,,,,,,,,,,,,111,23,Female,2022-05-03_20h16.53.923,Parachute,2022.1.1,59.922077330245166,
negative,blue,2,None,k,,,,,,,,,0,75,75,75,,,,,,,,,,,,,,,,,,,,,,,,,,,,,,,,,,,,,,,main,k,k,1,0.6866743999999017,386.70203629999014,None,None,0,,,,,,,,,,,,,,111,23,Female,2022-05-03_20h16.53.923,Parachute,2022.1.1,59.922077330245166,
negative,blue,2,None,k,,,,,,,,,0,76,76,76,,,,,,,,,,,,,,,,,,,,,,,,,,,,,,,,,,,,,,,main,k,k,1,0.6454258000012487,388.3900192000001,None,None,0,,,,,,,,,,,,,,111,23,Female,2022-05-03_20h16.53.923,Parachute,2022.1.1,59.922077330245166,
negative,yellow,1,k,None,,,,,,,,,0,77,77,77,,,,,,,,,,,,,,,,,,,,,,,,,,,,,,,,,,,,,,,main,None,None,1,1.4963548999949126,390.03776609999477,None,None,1,,,,,,,,,,,,,,111,23,Female,2022-05-03_20h16.53.923,Parachute,2022.1.1,59.922077330245166,
positive,blue,1,k,None,,,,,,,,,0,78,78,78,,,,,,,,,,,,,,,,,,,,,,,,,,,,,,,,,,,,,,,main,None,None,1,1.4991772000066703,392.5352719999937,None,None,1,,,,,,,,,,,,,,111,23,Female,2022-05-03_20h16.53.923,Parachute,2022.1.1,59.922077330245166,
positive,blue,1,k,None,,,,,,,,,0,79,79,79,,,,,,,,,,,,,,,,,,,,,,,,,,,,,,,,,,,,,,,main,None,None,1,1.4991071999975247,395.0355372999911,None,None,1,,,,,,,,,,,,,,111,23,Female,2022-05-03_20h16.53.923,Parachute,2022.1.1,59.922077330245166,
positive,red,2,None,None,,,,,,,,,0,80,80,80,,,,,,,,,,,,,,,,,,,,,,,,,,,,,,,,,,,,,,,main,None,None,1,1.4984763999964343,397.5363201,None,None,1,,,,,,,,,,,,,,111,23,Female,2022-05-03_20h16.53.923,Parachute,2022.1.1,59.922077330245166,
positive,yellow,2,None,k,,,,,,,,,0,81,81,81,,,,,,,,,,,,,,,,,,,,,,,,,,,,,,,,,,,,,,,main,k,k,1,0.8345875999948476,400.03618689998984,None,None,0,,,,,,,,,,,,,,111,23,Female,2022-05-03_20h16.53.923,Parachute,2022.1.1,59.922077330245166,
positive,blue,1,k,None,,,,,,,,,0,82,82,82,,,,,,,,,,,,,,,,,,,,,,,,,,,,,,,,,,,,,,,main,None,None,1,1.4954582000063965,401.87254419999954,None,None,1,,,,,,,,,,,,,,111,23,Female,2022-05-03_20h16.53.923,Parachute,2022.1.1,59.922077330245166,
negative,yellow,2,k,None,,,,,,,,,0,83,83,83,,,,,,,,,,,,,,,,,,,,,,,,,,,,,,,,,,,,,,,main,None,None,1,1.498353600007249,404.36940119999053,None,None,1,,,,,,,,,,,,,,111,23,Female,2022-05-03_20h16.53.923,Parachute,2022.1.1,59.922077330245166,
positive,blue,2,k,None,,,,,,,,,0,84,84,84,,,,,,,,,,,,,,,,,,,,,,,,,,,,,,,,,,,,,,,main,None,None,1,1.4986203999869758,406.8697902999993,None,None,1,,,,,,,,,,,,,,111,23,Female,2022-05-03_20h16.53.923,Parachute,2022.1.1,59.922077330245166,
positive,yellow,1,None,k,,,,,,,,,0,85,85,85,,,,,,,,,,,,,,,,,,,,,,,,,,,,,,,,,,,,,,,main,k,k,1,0.8535102000023471,409.36957739999343,None,None,0,,,,,,,,,,,,,,111,23,Female,2022-05-03_20h16.53.923,Parachute,2022.1.1,59.922077330245166,
positive,blue,2,k,None,,,,,,,,,0,86,86,86,,,,,,,,,,,,,,,,,,,,,,,,,,,,,,,,,,,,,,,main,None,None,1,1.4938583000039216,411.2238776999875,None,None,1,,,,,,,,,,,,,,111,23,Female,2022-05-03_20h16.53.923,Parachute,2022.1.1,59.922077330245166,
positive,blue,1,k,None,,,,,,,,,0,87,87,87,,,,,,,,,,,,,,,,,,,,,,,,,,,,,,,,,,,,,,,main,None,None,1,1.4982724000001326,413.71990519999235,None,None,1,,,,,,,,,,,,,,111,23,Female,2022-05-03_20h16.53.923,Parachute,2022.1.1,59.922077330245166,
negative,yellow,2,k,None,,,,,,,,,0,88,88,88,,,,,,,,,,,,,,,,,,,,,,,,,,,,,,,,,,,,,,,main,None,None,1,1.4985119000048144,416.2195015999896,None,None,1,,,,,,,,,,,,,,111,23,Female,2022-05-03_20h16.53.923,Parachute,2022.1.1,59.922077330245166,
negative,blue,2,None,k,,,,,,,,,0,89,89,89,,,,,,,,,,,,,,,,,,,,,,,,,,,,,,,,,,,,,,,main,k,k,1,1.8720136000047205,418.71939819998806,None,None,0,,,,,,,,,,,,,,111,23,Female,2022-05-03_20h16.53.923,Parachute,2022.1.1,59.922077330245166,
positive,yellow,2,None,k,,,,,,,,,0,90,90,90,,,,,,,,,,,,,,,,,,,,,,,,,,,,,,,,,,,,,,,main,k,k,1,0.8240608000050997,422.60285009999643,None,None,0,,,,,,,,,,,,,,111,23,Female,2022-05-03_20h16.53.923,Parachute,2022.1.1,59.922077330245166,
negative,yellow,1,k,None,,,,,,,,,0,91,91,91,,,,,,,,,,,,,,,,,,,,,,,,,,,,,,,,,,,,,,,main,None,None,1,1.4932366000139154,424.4250146999984,None,None,1,,,,,,,,,,,,,,111,23,Female,2022-05-03_20h16.53.923,Parachute,2022.1.1,59.922077330245166,
negative,red,2,None,None,,,,,,,,,0,92,92,92,,,,,,,,,,,,,,,,,,,,,,,,,,,,,,,,,,,,,,,main,None,None,1,1.499393299993244,426.92083119999734,None,None,1,,,,,,,,,,,,,,111,23,Female,2022-05-03_20h16.53.923,Parachute,2022.1.1,59.922077330245166,
negative,blue,2,None,k,,,,,,,,,0,93,93,93,,,,,,,,,,,,,,,,,,,,,,,,,,,,,,,,,,,,,,,main,k,k,1,0.7998637999990024,429.42101189999084,None,None,0,,,,,,,,,,,,,,111,23,Female,2022-05-03_20h16.53.923,Parachute,2022.1.1,59.922077330245166,
negative,blue,1,None,k,,,,,,,,,0,94,94,94,,,,,,,,,,,,,,,,,,,,,,,,,,,,,,,,,,,,,,,main,k,k,1,0.6850258000049507,431.2223901999969,None,None,0,,,,,,,,,,,,,,111,23,Female,2022-05-03_20h16.53.923,Parachute,2022.1.1,59.922077330245166,
negative,blue,1,None,k,,,,,,,,,0,95,95,95,,,,,,,,,,,,,,,,,,,,,,,,,,,,,,,,,,,,,,,main,k,k,1,0.5985261999885552,432.9085284999892,None,None,0,,,,,,,,,,,,,,111,23,Female,2022-05-03_20h16.53.923,Parachute,2022.1.1,59.922077330245166,
negative,red,1,None,None,,,,,,,,,0,96,96,96,,,,,,,,,,,,,,,,,,,,,,,,,,,,,,,,,,,,,,,main,None,None,1,1.492958400005591,434.50789009999426,None,None,1,,,,,,,,,,,,,,111,23,Female,2022-05-03_20h16.53.923,Parachute,2022.1.1,59.922077330245166,
positive,yellow,1,None,k,,,,,,,,,0,97,97,97,,,,,,,,,,,,,,,,,,,,,,,,,,,,,,,,,,,,,,,main,k,k,1,0.7638573000003817,437.00261269998737,None,None,0,,,,,,,,,,,,,,111,23,Female,2022-05-03_20h16.53.923,Parachute,2022.1.1,59.922077330245166,
negative,yellow,1,k,None,,,,,,,,,0,98,98,98,,,,,,,,,,,,,,,,,,,,,,,,,,,,,,,,,,,,,,,main,None,None,1,1.5010082999942824,438.76964639998914,None,None,1,,,,,,,,,,,,,,111,23,Female,2022-05-03_20h16.53.923,Parachute,2022.1.1,59.922077330245166,
positive,red,1,None,None,,,,,,,,,0,99,99,99,,,,,,,,,,,,,,,,,,,,,,,,,,,,,,,,,,,,,,,main,None,None,1,1.4990380999952322,441.2698929999897,None,None,1,,,,,,,,,,,,,,111,23,Female,2022-05-03_20h16.53.923,Parachute,2022.1.1,59.922077330245166,
positive,blue,1,k,None,,,,,,,,,0,100,100,100,,,,,,,,,,,,,,,,,,,,,,,,,,,,,,,,,,,,,,,main,None,None,1,1.4974881999951322,443.77085609998903,None,None,1,,,,,,,,,,,,,,111,23,Female,2022-05-03_20h16.53.923,Parachute,2022.1.1,59.922077330245166,
negative,yellow,1,k,None,,,,,,,,,0,101,101,101,,,,,,,,,,,,,,,,,,,,,,,,,,,,,,,,,,,,,,,main,None,None,1,1.4984414000064135,446.26969389998703,None,None,1,,,,,,,,,,,,,,111,23,Female,2022-05-03_20h16.53.923,Parachute,2022.1.1,59.922077330245166,
negative,blue,2,None,k,,,,,,,,,0,102,102,102,,,,,,,,,,,,,,,,,,,,,,,,,,,,,,,,,,,,,,,main,k,k,1,0.8373592999996617,448.76984249999805,None,None,0,,,,,,,,,,,,,,111,23,Female,2022-05-03_20h16.53.923,Parachute,2022.1.1,59.922077330245166,
negative,yellow,2,k,None,,,,,,,,,0,103,103,103,,,,,,,,,,,,,,,,,,,,,,,,,,,,,,,,,,,,,,,main,None,None,1,1.4950391000020318,450.6081540999876,None,None,1,,,,,,,,,,,,,,111,23,Female,2022-05-03_20h16.53.923,Parachute,2022.1.1,59.922077330245166,
positive,yellow,2,None,k,,,,,,,,,0,104,104,104,,,,,,,,,,,,,,,,,,,,,,,,,,,,,,,,,,,,,,,main,k,k,1,1.0366504000121495,453.1046187999891,None,None,0,,,,,,,,,,,,,,111,23,Female,2022-05-03_20h16.53.923,Parachute,2022.1.1,59.922077330245166,
positive,blue,1,k,None,,,,,,,,,0,105,105,105,,,,,,,,,,,,,,,,,,,,,,,,,,,,,,,,,,,,,,,main,None,None,1,1.4928177999972831,455.1420649999927,None,None,1,,,,,,,,,,,,,,111,23,Female,2022-05-03_20h16.53.923,Parachute,2022.1.1,59.922077330245166,
positive,blue,2,k,None,,,,,,,,,0,106,106,106,,,,,,,,,,,,,,,,,,,,,,,,,,,,,,,,,,,,,,,main,None,None,1,1.4992270000075223,457.63685159999295,None,None,1,,,,,,,,,,,,,,111,23,Female,2022-05-03_20h16.53.923,Parachute,2022.1.1,59.922077330245166,
negative,blue,1,None,k,,,,,,,,,0,107,107,107,,,,,,,,,,,,,,,,,,,,,,,,,,,,,,,,,,,,,,,main,k,k,1,0.7053624999971362,460.13737719999335,None,None,0,,,,,,,,,,,,,,111,23,Female,2022-05-03_20h16.53.923,Parachute,2022.1.1,59.922077330245166,
positive,yellow,2,None,k,,,,,,,,,0,108,108,108,,,,,,,,,,,,,,,,,,,,,,,,,,,,,,,,,,,,,,,main,k,k,1,0.9463895000080811,461.84312489999866,None,None,0,,,,,,,,,,,,,,111,23,Female,2022-05-03_20h16.53.923,Parachute,2022.1.1,59.922077330245166,
negative,yellow,1,k,None,,,,,,,,,0,109,109,109,,,,,,,,,,,,,,,,,,,,,,,,,,,,,,,,,,,,,,,main,None,None,1,1.4942133000004105,463.7919278999907,None,None,1,,,,,,,,,,,,,,111,23,Female,2022-05-03_20h16.53.923,Parachute,2022.1.1,59.922077330245166,
negative,blue,2,None,k,,,,,,,,,0,110,110,110,,,,,,,,,,,,,,,,,,,,,,,,,,,,,,,,,,,,,,,main,k,k,1,0.819713300006697,466.28735219998634,None,None,0,,,,,,,,,,,,,,111,23,Female,2022-05-03_20h16.53.923,Parachute,2022.1.1,59.922077330245166,
positive,blue,2,k,None,,,,,,,,,0,111,111,111,,,,,,,,,,,,,,,,,,,,,,,,,,,,,,,,,,,,,,,main,None,None,1,1.49461139999039,468.1083726999932,None,None,1,,,,,,,,,,,,,,111,23,Female,2022-05-03_20h16.53.923,Parachute,2022.1.1,59.922077330245166,
negative,blue,1,None,k,,,,,,,,,0,112,112,112,,,,,,,,,,,,,,,,,,,,,,,,,,,,,,,,,,,,,,,main,k,k,1,0.8703517000103602,470.6044477999967,None,None,0,,,,,,,,,,,,,,111,23,Female,2022-05-03_20h16.53.923,Parachute,2022.1.1,59.922077330245166,
positive,yellow,1,None,k,,,,,,,,,0,113,113,113,,,,,,,,,,,,,,,,,,,,,,,,,,,,,,,,,,,,,,,main,k,k,1,0.8985805999982404,472.4752957999881,None,None,0,,,,,,,,,,,,,,111,23,Female,2022-05-03_20h16.53.923,Parachute,2022.1.1,59.922077330245166,
negative,red,1,None,None,,,,,,,,,0,114,114,114,,,,,,,,,,,,,,,,,,,,,,,,,,,,,,,,,,,,,,,main,None,None,1,1.493648999996367,474.37539019998803,None,None,1,,,,,,,,,,,,,,111,23,Female,2022-05-03_20h16.53.923,Parachute,2022.1.1,59.922077330245166,
positive,red,1,None,None,,,,,,,,,0,115,115,115,,,,,,,,,,,,,,,,,,,,,,,,,,,,,,,,,,,,,,,main,None,None,1,1.498203499999363,476.87083959998563,None,None,1,,,,,,,,,,,,,,111,23,Female,2022-05-03_20h16.53.923,Parachute,2022.1.1,59.922077330245166,
negative,red,2,None,None,,,,,,,,,0,116,116,116,,,,,,,,,,,,,,,,,,,,,,,,,,,,,,,,,,,,,,,main,None,None,1,1.499655999999959,479.3709932999918,None,None,1,,,,,,,,,,,,,,111,23,Female,2022-05-03_20h16.53.923,Parachute,2022.1.1,59.922077330245166,
negative,yellow,2,k,None,,,,,,,,,0,117,117,117,,,,,,,,,,,,,,,,,,,,,,,,,,,,,,,,,,,,,,,main,None,None,1,1.4981368000007933,481.87170559998776,None,None,1,,,,,,,,,,,,,,111,23,Female,2022-05-03_20h16.53.923,Parachute,2022.1.1,59.922077330245166,
positive,yellow,1,None,k,,,,,,,,,0,118,118,118,,,,,,,,,,,,,,,,,,,,,,,,,,,,,,,,,,,,,,,main,k,k,1,0.8216298000043025,484.37135229998967,None,None,0,,,,,,,,,,,,,,111,23,Female,2022-05-03_20h16.53.923,Parachute,2022.1.1,59.922077330245166,
positive,red,2,None,None,,,,,,,,,0,119,119,119,,,,,,,,,,,,,,,,,,,,,,,,,,,,,,,,,,,,,,,main,None,None,1,1.4932185000070604,486.20408869998937,None,None,1,,,,,,,,,,,,,,111,23,Female,2022-05-03_20h16.53.923,Parachute,2022.1.1,59.922077330245166,
positive,blue,2,k,None,,,,,,,,,0,120,120,120,,,,,,,,,,,,,,,,,,,,,,,,,,,,,,,,,,,,,,,main,None,None,1,1.4988988999975845,488.68968359999417,None,None,1,,,,,,,,,,,,,,111,23,Female,2022-05-03_20h16.53.923,Parachute,2022.1.1,59.922077330245166,
negative,red,1,None,None,,,,,,,,,0,121,121,121,,,,,,,,,,,,,,,,,,,,,,,,,,,,,,,,,,,,,,,main,None,None,1,1.4987221999908797,491.18962739998824,None,None,1,,,,,,,,,,,,,,111,23,Female,2022-05-03_20h16.53.923,Parachute,2022.1.1,59.922077330245166,
positive,yellow,2,None,k,,,,,,,,,0,122,122,122,,,,,,,,,,,,,,,,,,,,,,,,,,,,,,,,,,,,,,,main,k,k,1,0.9623193999868818,493.6898885999981,None,None,0,,,,,,,,,,,,,,111,23,Female,2022-05-03_20h16.53.923,Parachute,2022.1.1,59.922077330245166,
negative,red,2,None,None,,,,,,,,,0,123,123,123,,,,,,,,,,,,,,,,,,,,,,,,,,,,,,,,,,,,,,,main,None,None,1,1.5009035999974003,495.6540601999877,None,None,1,,,,,,,,,,,,,,111,23,Female,2022-05-03_20h16.53.923,Parachute,2022.1.1,59.922077330245166,
negative,yellow,2,k,None,,,,,,,,,0,124,124,124,,,,,,,,,,,,,,,,,,,,,,,,,,,,,,,,,,,,,,,main,None,None,1,1.497857299997122,498.15469749999465,None,None,1,,,,,,,,,,,,,,111,23,Female,2022-05-03_20h16.53.923,Parachute,2022.1.1,59.922077330245166,
positive,red,1,None,None,,,,,,,,,0,125,125,125,,,,,,,,,,,,,,,,,,,,,,,,,,,,,,,,,,,,,,,main,None,None,1,1.4989382999920053,500.65448519999336,None,None,1,,,,,,,,,,,,,,111,23,Female,2022-05-03_20h16.53.923,Parachute,2022.1.1,59.922077330245166,
negative,blue,2,None,k,,,,,,,,,0,126,126,126,,,,,,,,,,,,,,,,,,,,,,,,,,,,,,,,,,,,,,,main,k,k,1,0.8531541999982437,503.15467419999186,None,None,0,,,,,,,,,,,,,,111,23,Female,2022-05-03_20h16.53.923,Parachute,2022.1.1,59.922077330245166,
negative,blue,1,None,k,,,,,,,,,0,127,127,127,,,,,,,,,,,,,,,,,,,,,,,,,,,,,,,,,,,,,,,main,k,k,1,0.7626814999966882,505.00931929999206,None,None,0,,,,,,,,,,,,,,111,23,Female,2022-05-03_20h16.53.923,Parachute,2022.1.1,59.922077330245166,
negative,yellow,1,k,None,,,,,,,,,0,128,128,128,,,,,,,,,,,,,,,,,,,,,,,,,,,,,,,,,,,,,,,main,None,None,1,1.4971603999874787,506.77458399999887,None,None,1,,,,,,,,,,,,,,111,23,Female,2022-05-03_20h16.53.923,Parachute,2022.1.1,59.922077330245166,
negative,yellow,1,k,None,,,,,,,,,0,129,129,129,,,,,,,,,,,,,,,,,,,,,,,,,,,,,,,,,,,,,,,main,None,None,1,1.498478099994827,509.2729618999874,None,None,1,,,,,,,,,,,,,,111,23,Female,2022-05-03_20h16.53.923,Parachute,2022.1.1,59.922077330245166,
positive,blue,1,k,None,,,,,,,,,0,130,130,130,,,,,,,,,,,,,,,,,,,,,,,,,,,,,,,,,,,,,,,main,None,None,1,1.4989296999992803,511.7721606999985,None,None,1,,,,,,,,,,,,,,111,23,Female,2022-05-03_20h16.53.923,Parachute,2022.1.1,59.922077330245166,
negative,blue,1,None,k,,,,,,,,,0,131,131,131,,,,,,,,,,,,,,,,,,,,,,,,,,,,,,,,,,,,,,,main,k,k,1,0.7637433999916539,514.2721740999987,None,None,0,,,,,,,,,,,,,,111,23,Female,2022-05-03_20h16.53.923,Parachute,2022.1.1,59.922077330245166,
negative,blue,2,None,k,,,,,,,,,0,132,132,132,,,,,,,,,,,,,,,,,,,,,,,,,,,,,,,,,,,,,,,main,k,k,1,0.6885788999934448,516.0383013999963,None,None,0,,,,,,,,,,,,,,111,23,Female,2022-05-03_20h16.53.923,Parachute,2022.1.1,59.922077330245166,
positive,blue,2,k,None,,,,,,,,,0,133,133,133,,,,,,,,,,,,,,,,,,,,,,,,,,,,,,,,,,,,,,,main,None,None,1,1.4939343000005465,517.7264970999968,None,None,1,,,,,,,,,,,,,,111,23,Female,2022-05-03_20h16.53.923,Parachute,2022.1.1,59.922077330245166,
positive,red,2,None,None,,,,,,,,,0,134,134,134,,,,,,,,,,,,,,,,,,,,,,,,,,,,,,,,,,,,,,,main,None,None,1,1.498831999997492,520.2213304999896,None,None,1,,,,,,,,,,,,,,111,23,Female,2022-05-03_20h16.53.923,Parachute,2022.1.1,59.922077330245166,
negative,yellow,2,k,None,,,,,,,,,0,135,135,135,,,,,,,,,,,,,,,,,,,,,,,,,,,,,,,,,,,,,,,main,None,None,1,1.4991104999935487,522.7220287999953,None,None,1,,,,,,,,,,,,,,111,23,Female,2022-05-03_20h16.53.923,Parachute,2022.1.1,59.922077330245166,
positive,yellow,2,None,k,,,,,,,,,0,136,136,136,,,,,,,,,,,,,,,,,,,,,,,,,,,,,,,,,,,,,,,main,k,k,1,0.7201826000091387,525.2220703999919,None,None,0,,,,,,,,,,,,,,111,23,Female,2022-05-03_20h16.53.923,Parachute,2022.1.1,59.922077330245166,
positive,blue,1,k,None,,,,,,,,,0,137,137,137,,,,,,,,,,,,,,,,,,,,,,,,,,,,,,,,,,,,,,,main,None,None,1,1.4935659000038868,526.9430438999989,None,None,1,,,,,,,,,,,,,,111,23,Female,2022-05-03_20h16.53.923,Parachute,2022.1.1,59.922077330245166,
positive,yellow,1,None,k,,,,,,,,,0,138,138,138,,,,,,,,,,,,,,,,,,,,,,,,,,,,,,,,,,,,,,,main,k,k,1,1.3031497000047239,529.4388216999942,None,None,0,,,,,,,,,,,,,,111,23,Female,2022-05-03_20h16.53.923,Parachute,2022.1.1,59.922077330245166,
positive,yellow,1,None,k,,,,,,,,,0,139,139,139,,,,,,,,,,,,,,,,,,,,,,,,,,,,,,,,,,,,,,,main,k,k,1,0.7296717999997782,531.7434521999967,None,None,0,,,,,,,,,,,,,,111,23,Female,2022-05-03_20h16.53.923,Parachute,2022.1.1,59.922077330245166,
positive,yellow,1,None,k,,,,,,,,,0,140,140,140,,,,,,,,,,,,,,,,,,,,,,,,,,,,,,,,,,,,,,,main,k,k,1,1.3011637999879895,533.4741067999857,None,None,0,,,,,,,,,,,,,,111,23,Female,2022-05-03_20h16.53.923,Parachute,2022.1.1,59.922077330245166,
positive,blue,1,k,None,,,,,,,,,0,141,141,141,,,,,,,,,,,,,,,,,,,,,,,,,,,,,,,,,,,,,,,main,None,None,1,1.4948388000047999,535.7770314999943,None,None,1,,,,,,,,,,,,,,111,23,Female,2022-05-03_20h16.53.923,Parachute,2022.1.1,59.922077330245166,
positive,blue,2,k,None,,,,,,,,,0,142,142,142,,,,,,,,,,,,,,,,,,,,,,,,,,,,,,,,,,,,,,,main,None,None,1,1.4979891999973916,538.2737067999988,None,None,1,,,,,,,,,,,,,,111,23,Female,2022-05-03_20h16.53.923,Parachute,2022.1.1,59.922077330245166,
positive,yellow,2,None,k,,,,,,,,,0,143,143,143,,,,,,,,,,,,,,,,,,,,,,,,,,,,,,,,,,,,,,,main,k,k,1,1.0878213999967556,540.7714652999857,None,None,0,,,,,,,,,,,,,,111,23,Female,2022-05-03_20h16.53.923,Parachute,2022.1.1,59.922077330245166,
negative,yellow,2,k,None,,,,,,,,,0,144,144,144,,,,,,,,,,,,,,,,,,,,,,,,,,,,,,,,,,,,,,,main,None,None,1,1.4931978000095114,542.8603116999875,None,None,1,,,,,,,,,,,,,,111,23,Female,2022-05-03_20h16.53.923,Parachute,2022.1.1,59.922077330245166,
negative,blue,2,None,k,,,,,,,,,0,145,145,145,,,,,,,,,,,,,,,,,,,,,,,,,,,,,,,,,,,,,,,main,k,k,1,0.7876149000076111,545.3549299999868,None,None,0,,,,,,,,,,,,,,111,23,Female,2022-05-03_20h16.53.923,Parachute,2022.1.1,59.922077330245166,
negative,red,1,None,None,,,,,,,,,0,146,146,146,,,,,,,,,,,,,,,,,,,,,,,,,,,,,,,,,,,,,,,main,None,None,1,1.4933048999955645,547.1436156999989,None,None,1,,,,,,,,,,,,,,111,23,Female,2022-05-03_20h16.53.923,Parachute,2022.1.1,59.922077330245166,
positive,blue,1,k,None,,,,,,,,,0,147,147,147,,,,,,,,,,,,,,,,,,,,,,,,,,,,,,,,,,,,,,,main,None,None,1,1.498328199988464,549.639033799991,None,None,1,,,,,,,,,,,,,,111,23,Female,2022-05-03_20h16.53.923,Parachute,2022.1.1,59.922077330245166,
positive,yellow,1,None,k,,,,,,,,,0,148,148,148,,,,,,,,,,,,,,,,,,,,,,,,,,,,,,,,,,,,,,,main,k,k,1,2.002110699992045,552.1389734999975,None,None,0,,,,,,,,,,,,,,111,23,Female,2022-05-03_20h16.53.923,Parachute,2022.1.1,59.922077330245166,
negative,red,2,None,None,,,,,,,,,0,149,149,149,,,,,,,,,,,,,,,,,,,,,,,,,,,,,,,,,,,,,,,main,None,None,1,1.5021145999926375,556.1557751999935,None,None,1,,,,,,,,,,,,,,111,23,Female,2022-05-03_20h16.53.923,Parachute,2022.1.1,59.922077330245166,
negative,blue,1,None,k,,,,,,,,,0,150,150,150,,,,,,,,,,,,,,,,,,,,,,,,,,,,,,,,,,,,,,,main,k,k,1,0.8364201999938814,558.6563331999932,None,None,0,,,,,,,,,,,,,,111,23,Female,2022-05-03_20h16.53.923,Parachute,2022.1.1,59.922077330245166,
negative,yellow,2,k,None,,,,,,,,,0,151,151,151,,,,,,,,,,,,,,,,,,,,,,,,,,,,,,,,,,,,,,,main,None,None,1,1.4935215000004973,560.4943568999879,None,None,1,,,,,,,,,,,,,,111,23,Female,2022-05-03_20h16.53.923,Parachute,2022.1.1,59.922077330245166,
negative,blue,2,None,k,,,,,,,,,0,152,152,152,,,,,,,,,,,,,,,,,,,,,,,,,,,,,,,,,,,,,,,main,k,k,1,0.8041990000056103,562.9889037999965,None,None,0,,,,,,,,,,,,,,111,23,Female,2022-05-03_20h16.53.923,Parachute,2022.1.1,59.922077330245166,
negative,yellow,1,k,None,,,,,,,,,0,153,153,153,,,,,,,,,,,,,,,,,,,,,,,,,,,,,,,,,,,,,,,main,None,None,1,1.4934759000025224,564.7940846999991,None,None,1,,,,,,,,,,,,,,111,23,Female,2022-05-03_20h16.53.923,Parachute,2022.1.1,59.922077330245166,
negative,blue,1,None,k,,,,,,,,,0,154,154,154,,,,,,,,,,,,,,,,,,,,,,,,,,,,,,,,,,,,,,,main,k,k,1,1.0504435999901034,567.2898404999869,None,None,0,,,,,,,,,,,,,,111,23,Female,2022-05-03_20h16.53.923,Parachute,2022.1.1,59.922077330245166,
positive,yellow,2,None,k,,,,,,,,,0,155,155,155,,,,,,,,,,,,,,,,,,,,,,,,,,,,,,,,,,,,,,,main,k,k,1,0.7120592999999644,569.3417788999941,None,None,0,,,,,,,,,,,,,,111,23,Female,2022-05-03_20h16.53.923,Parachute,2022.1.1,59.922077330245166,
positive,red,2,None,None,,,,,,,,,0,156,156,156,,,,,,,,,,,,,,,,,,,,,,,,,,,,,,,,,,,,,,,main,None,None,1,1.4996175999986008,571.0558200999949,None,None,1,,,,,,,,,,,,,,111,23,Female,2022-05-03_20h16.53.923,Parachute,2022.1.1,59.922077330245166,
positive,red,1,None,None,,,,,,,,,0,157,157,157,,,,,,,,,,,,,,,,,,,,,,,,,,,,,,,,,,,,,,,main,None,None,1,1.4992630999913672,573.5558344999881,None,None,1,,,,,,,,,,,,,,111,23,Female,2022-05-03_20h16.53.923,Parachute,2022.1.1,59.922077330245166,
positive,blue,2,k,None,,,,,,,,,0,158,158,158,,,,,,,,,,,,,,,,,,,,,,,,,,,,,,,,,,,,,,,main,None,None,1,1.4987407000007806,576.0564095999871,None,None,1,,,,,,,,,,,,,,111,23,Female,2022-05-03_20h16.53.923,Parachute,2022.1.1,59.922077330245166,
negative,yellow,1,k,None,,,,,,,,,0,159,159,159,,,,,,,,,,,,,,,,,,,,,,,,,,,,,,,,,,,,,,,main,None,None,1,1.4985178000060841,578.5564642999962,None,None,1,,,,,,,,,,,,,,111,23,Female,2022-05-03_20h16.53.923,Parachute,2022.1.1,59.922077330245166,
negative,red,2,None,None,,,,,,,,,0,160,160,160,,,,,,,,,,,,,,,,,,,,,,,,,,,,,,,,,,,,,,,main,None,None,1,1.4988767999893753,581.0565492999885,None,None,1,,,,,,,,,,,,,,111,23,Female,2022-05-03_20h16.53.923,Parachute,2022.1.1,59.922077330245166,
negative,blue,1,None,k,,,,,,,,,0,161,161,161,,,,,,,,,,,,,,,,,,,,,,,,,,,,,,,,,,,,,,,main,k,k,1,0.8198930999933509,583.5567212999886,None,None,0,,,,,,,,,,,,,,111,23,Female,2022-05-03_20h16.53.923,Parachute,2022.1.1,59.922077330245166,
negative,blue,1,None,k,,,,,,,,,0,162,162,162,,,,,,,,,,,,,,,,,,,,,,,,,,,,,,,,,,,,,,,main,k,k,1,0.5825782000028994,585.3780083999882,None,None,0,,,,,,,,,,,,,,111,23,Female,2022-05-03_20h16.53.923,Parachute,2022.1.1,59.922077330245166,
negative,yellow,1,k,None,,,,,,,,,0,163,163,163,,,,,,,,,,,,,,,,,,,,,,,,,,,,,,,,,,,,,,,main,None,None,1,1.4937043000099948,586.9710346999927,None,None,1,,,,,,,,,,,,,,111,23,Female,2022-05-03_20h16.53.923,Parachute,2022.1.1,59.922077330245166,
negative,yellow,1,k,None,,,,,,,,,0,164,164,164,,,,,,,,,,,,,,,,,,,,,,,,,,,,,,,,,,,,,,,main,None,None,1,1.4983188999904087,589.4573164999892,None,None,1,,,,,,,,,,,,,,111,23,Female,2022-05-03_20h16.53.923,Parachute,2022.1.1,59.922077330245166,
positive,yellow,1,None,k,,,,,,,,,0,165,165,165,,,,,,,,,,,,,,,,,,,,,,,,,,,,,,,,,,,,,,,main,k,k,1,0.7517557000101078,591.9563284999895,None,None,0,,,,,,,,,,,,,,111,23,Female,2022-05-03_20h16.53.923,Parachute,2022.1.1,59.922077330245166,
negative,red,1,None,None,,,,,,,,,0,166,166,166,,,,,,,,,,,,,,,,,,,,,,,,,,,,,,,,,,,,,,,main,None,None,1,1.495838199989521,593.7104890999908,None,None,1,,,,,,,,,,,,,,111,23,Female,2022-05-03_20h16.53.923,Parachute,2022.1.1,59.922077330245166,
negative,yellow,2,k,None,,,,,,,,,0,167,167,167,,,,,,,,,,,,,,,,,,,,,,,,,,,,,,,,,,,,,,,main,None,None,1,1.4986348999955226,596.2067293,None,None,1,,,,,,,,,,,,,,111,23,Female,2022-05-03_20h16.53.923,Parachute,2022.1.1,59.922077330245166,
positive,blue,2,k,None,,,,,,,,,0,168,168,168,,,,,,,,,,,,,,,,,,,,,,,,,,,,,,,,,,,,,,,main,None,None,1,1.4991233000037028,598.7068434999965,None,None,1,,,,,,,,,,,,,,111,23,Female,2022-05-03_20h16.53.923,Parachute,2022.1.1,59.922077330245166,
positive,red,2,None,None,,,,,,,,,0,169,169,169,,,,,,,,,,,,,,,,,,,,,,,,,,,,,,,,,,,,,,,main,None,None,1,1.498260599997593,601.2070057999954,None,None,1,,,,,,,,,,,,,,111,23,Female,2022-05-03_20h16.53.923,Parachute,2022.1.1,59.922077330245166,
positive,red,1,None,None,,,,,,,,,0,170,170,170,,,,,,,,,,,,,,,,,,,,,,,,,,,,,,,,,,,,,,,main,None,None,1,1.499258900003042,603.7063922999951,None,None,1,,,,,,,,,,,,,,111,23,Female,2022-05-03_20h16.53.923,Parachute,2022.1.1,59.922077330245166,
negative,blue,2,None,k,,,,,,,,,0,171,171,171,,,,,,,,,,,,,,,,,,,,,,,,,,,,,,,,,,,,,,,main,k,k,1,1.4702879000105895,606.2067056999949,None,None,0,,,,,,,,,,,,,,111,23,Female,2022-05-03_20h16.53.923,Parachute,2022.1.1,59.922077330245166,
positive,blue,2,k,None,,,,,,,,,0,172,172,172,,,,,,,,,,,,,,,,,,,,,,,,,,,,,,,,,,,,,,,main,None,None,1,1.4940605000010692,608.6784213999927,None,None,1,,,,,,,,,,,,,,111,23,Female,2022-05-03_20h16.53.923,Parachute,2022.1.1,59.922077330245166,
negative,yellow,2,k,None,,,,,,,,,0,173,173,173,,,,,,,,,,,,,,,,,,,,,,,,,,,,,,,,,,,,,,,main,None,None,1,1.4981501000002027,611.1737248999998,None,None,1,,,,,,,,,,,,,,111,23,Female,2022-05-03_20h16.53.923,Parachute,2022.1.1,59.922077330245166,
positive,yellow,2,None,k,,,,,,,,,0,174,174,174,,,,,,,,,,,,,,,,,,,,,,,,,,,,,,,,,,,,,,,main,k,k,1,0.8545358999981545,613.6731557999883,None,None,0,,,,,,,,,,,,,,111,23,Female,2022-05-03_20h16.53.923,Parachute,2022.1.1,59.922077330245166,
negative,blue,2,None,k,,,,,,,,,0,175,175,175,,,,,,,,,,,,,,,,,,,,,,,,,,,,,,,,,,,,,,,main,k,k,1,1.3316645000013523,615.5284009999887,None,None,0,,,,,,,,,,,,,,111,23,Female,2022-05-03_20h16.53.923,Parachute,2022.1.1,59.922077330245166,
positive,blue,1,k,None,,,,,,,,,0,176,176,176,,,,,,,,,,,,,,,,,,,,,,,,,,,,,,,,,,,,,,,main,None,None,1,1.4936844000039855,617.8619164999982,None,None,1,,,,,,,,,,,,,,111,23,Female,2022-05-03_20h16.53.923,Parachute,2022.1.1,59.922077330245166,
positive,yellow,1,None,k,,,,,,,,,0,177,177,177,,,,,,,,,,,,,,,,,,,,,,,,,,,,,,,,,,,,,,,main,k,k,1,1.0515453000116395,620.3575395999942,None,None,0,,,,,,,,,,,,,,111,23,Female,2022-05-03_20h16.53.923,Parachute,2022.1.1,59.922077330245166,
positive,blue,1,k,None,,,,,,,,,0,178,178,178,,,,,,,,,,,,,,,,,,,,,,,,,,,,,,,,,,,,,,,main,None,None,1,1.4957368999894243,622.4113687999925,None,None,1,,,,,,,,,,,,,,111,23,Female,2022-05-03_20h16.53.923,Parachute,2022.1.1,59.922077330245166,
positive,yellow,2,None,k,,,,,,,,,0,179,179,179,,,,,,,,,,,,,,,,,,,,,,,,,,,,,,,,,,,,,,,main,k,k,1,1.0870054999977583,624.9071512999944,None,None,0,,,,,,,,,,,,,,111,23,Female,2022-05-03_20h16.53.923,Parachute,2022.1.1,59.922077330245166,
positive,blue,1,k,None,,,,,,,,,0,180,180,180,,,,,,,,,,,,,,,,,,,,,,,,,,,,,,,,,,,,,,,main,None,None,1,1.4945254000049317,627.0051939999976,None,None,1,,,,,,,,,,,,,,111,23,Female,2022-05-03_20h16.53.923,Parachute,2022.1.1,59.922077330245166,
negative,red,1,None,None,,,,,,,,,0,181,181,181,,,,,,,,,,,,,,,,,,,,,,,,,,,,,,,,,,,,,,,main,None,None,1,1.4978611999977147,629.4924302,None,None,1,,,,,,,,,,,,,,111,23,Female,2022-05-03_20h16.53.923,Parachute,2022.1.1,59.922077330245166,
negative,blue,1,None,k,,,,,,,,,0,182,182,182,,,,,,,,,,,,,,,,,,,,,,,,,,,,,,,,,,,,,,,main,k,k,1,0.9136202000081539,631.9913772999862,None,None,0,,,,,,,,,,,,,,111,23,Female,2022-05-03_20h16.53.923,Parachute,2022.1.1,59.922077330245166,
negative,yellow,2,k,None,,,,,,,,,0,183,183,183,,,,,,,,,,,,,,,,,,,,,,,,,,,,,,,,,,,,,,,main,None,None,1,1.500501600006828,633.906828399995,None,None,1,,,,,,,,,,,,,,111,23,Female,2022-05-03_20h16.53.923,Parachute,2022.1.1,59.922077330245166,
positive,yellow,2,None,k,,,,,,,,,0,184,184,184,,,,,,,,,,,,,,,,,,,,,,,,,,,,,,,,,,,,,,,main,k,k,1,0.7870311000006041,636.4079529999872,None,None,0,,,,,,,,,,,,,,111,23,Female,2022-05-03_20h16.53.923,Parachute,2022.1.1,59.922077330245166,
positive,yellow,1,None,k,,,,,,,,,0,185,185,185,,,,,,,,,,,,,,,,,,,,,,,,,,,,,,,,,,,,,,,main,k,k,1,0.8290473999950336,638.1956461999944,None,None,0,,,,,,,,,,,,,,111,23,Female,2022-05-03_20h16.53.923,Parachute,2022.1.1,59.922077330245166,
positive,red,2,None,None,,,,,,,,,0,186,186,186,,,,,,,,,,,,,,,,,,,,,,,,,,,,,,,,,,,,,,,main,None,None,1,1.4966207999968901,640.026773199992,None,None,1,,,,,,,,,,,,,,111,23,Female,2022-05-03_20h16.53.923,Parachute,2022.1.1,59.922077330245166,
positive,blue,1,k,None,,,,,,,,,0,187,187,187,,,,,,,,,,,,,,,,,,,,,,,,,,,,,,,,,,,,,,,main,None,None,1,1.4992619000113336,642.5242813999939,None,None,1,,,,,,,,,,,,,,111,23,Female,2022-05-03_20h16.53.923,Parachute,2022.1.1,59.922077330245166,
negative,yellow,1,k,None,,,,,,,,,0,188,188,188,,,,,,,,,,,,,,,,,,,,,,,,,,,,,,,,,,,,,,,main,None,None,1,1.4986264999897685,645.0250042999978,None,None,1,,,,,,,,,,,,,,111,23,Female,2022-05-03_20h16.53.923,Parachute,2022.1.1,59.922077330245166,
positive,yellow,2,None,k,,,,,,,,,0,189,189,189,,,,,,,,,,,,,,,,,,,,,,,,,,,,,,,,,,,,,,,main,k,k,1,0.8694257000024663,647.5246589999879,None,None,0,,,,,,,,,,,,,,111,23,Female,2022-05-03_20h16.53.923,Parachute,2022.1.1,59.922077330245166,
negative,yellow,2,k,None,,,,,,,,,0,190,190,190,,,,,,,,,,,,,,,,,,,,,,,,,,,,,,,,,,,,,,,main,None,None,1,1.4938461999990977,649.3964515999978,None,None,1,,,,,,,,,,,,,,111,23,Female,2022-05-03_20h16.53.923,Parachute,2022.1.1,59.922077330245166,
negative,yellow,1,k,None,,,,,,,,,0,191,191,191,,,,,,,,,,,,,,,,,,,,,,,,,,,,,,,,,,,,,,,main,None,None,1,1.4986873999878298,651.890435999987,None,None,1,,,,,,,,,,,,,,111,23,Female,2022-05-03_20h16.53.923,Parachute,2022.1.1,59.922077330245166,
positive,blue,2,k,None,,,,,,,,,0,192,192,192,,,,,,,,,,,,,,,,,,,,,,,,,,,,,,,,,,,,,,,main,None,None,1,1.4984908000042196,654.3914858999924,None,None,1,,,,,,,,,,,,,,111,23,Female,2022-05-03_20h16.53.923,Parachute,2022.1.1,59.922077330245166,
positive,yellow,1,None,k,,,,,,,,,0,193,193,193,,,,,,,,,,,,,,,,,,,,,,,,,,,,,,,,,,,,,,,main,k,k,1,0.8491923999972641,656.890897099991,None,None,0,,,,,,,,,,,,,,111,23,Female,2022-05-03_20h16.53.923,Parachute,2022.1.1,59.922077330245166,
negative,red,2,None,None,,,,,,,,,0,194,194,194,,,,,,,,,,,,,,,,,,,,,,,,,,,,,,,,,,,,,,,main,None,None,1,1.4998858999897493,658.7413414999901,None,None,1,,,,,,,,,,,,,,111,23,Female,2022-05-03_20h16.53.923,Parachute,2022.1.1,59.922077330245166,
positive,red,1,None,None,,,,,,,,,0,195,195,195,,,,,,,,,,,,,,,,,,,,,,,,,,,,,,,,,,,,,,,main,None,None,1,1.4983175000088522,661.2434399999911,None,None,1,,,,,,,,,,,,,,111,23,Female,2022-05-03_20h16.53.923,Parachute,2022.1.1,59.922077330245166,
negative,blue,1,None,k,,,,,,,,,0,196,196,196,,,,,,,,,,,,,,,,,,,,,,,,,,,,,,,,,,,,,,,main,k,k,1,1.00313460000325,663.7423682999943,None,None,0,,,,,,,,,,,,,,111,23,Female,2022-05-03_20h16.53.923,Parachute,2022.1.1,59.922077330245166,
positive,blue,2,k,None,,,,,,,,,0,197,197,197,,,,,,,,,,,,,,,,,,,,,,,,,,,,,,,,,,,,,,,main,None,None,1,1.4941129999933764,665.7564046999905,None,None,1,,,,,,,,,,,,,,111,23,Female,2022-05-03_20h16.53.923,Parachute,2022.1.1,59.922077330245166,
negative,blue,2,None,k,,,,,,,,,0,198,198,198,,,,,,,,,,,,,,,,,,,,,,,,,,,,,,,,,,,,,,,main,k,k,1,0.865652599997702,668.2421204999991,None,None,0,,,,,,,,,,,,,,111,23,Female,2022-05-03_20h16.53.923,Parachute,2022.1.1,59.922077330245166,
negative,blue,2,None,k,,,,,,,,,0,199,199,199,,,,,,,,,,,,,,,,,,,,,,,,,,,,,,,,,,,,,,,main,k,k,1,0.6652681999985361,670.1093654999859,None,None,0,,,,,,,,,,,,,,111,23,Female,2022-05-03_20h16.53.923,Parachute,2022.1.1,59.922077330245166,
positive,blue,2,k,None,,,,,,,,,0,200,200,200,,,,,,,,,,,,,,,,,,,,,,,,,,,,,,,,,,,,,,,main,None,None,1,1.4973549999995157,671.7762156999961,None,None,1,,,,,,,,,,,,,,111,23,Female,2022-05-03_20h16.53.923,Parachute,2022.1.1,59.922077330245166,
positive,blue,2,k,None,,,,,,,,,0,201,201,201,,,,,,,,,,,,,,,,,,,,,,,,,,,,,,,,,,,,,,,main,None,None,1,1.499192299990682,674.2746132999891,None,None,1,,,,,,,,,,,,,,111,23,Female,2022-05-03_20h16.53.923,Parachute,2022.1.1,59.922077330245166,
negative,yellow,2,k,None,,,,,,,,,0,202,202,202,,,,,,,,,,,,,,,,,,,,,,,,,,,,,,,,,,,,,,,main,None,None,1,1.4991392999945674,676.7750088999892,None,None,1,,,,,,,,,,,,,,111,23,Female,2022-05-03_20h16.53.923,Parachute,2022.1.1,59.922077330245166,
positive,red,1,None,None,,,,,,,,,0,203,203,203,,,,,,,,,,,,,,,,,,,,,,,,,,,,,,,,,,,,,,,main,None,k,0,0.28589719999581575,679.2755297999975,None,None,1,,,,,,,,,,,,,,111,23,Female,2022-05-03_20h16.53.923,Parachute,2022.1.1,59.922077330245166,
negative,blue,2,None,k,,,,,,,,,0,204,204,204,,,,,,,,,,,,,,,,,,,,,,,,,,,,,,,,,,,,,,,main,k,k,1,2.2394627000030596,681.5750859999971,None,None,0,,,,,,,,,,,,,,111,23,Female,2022-05-03_20h16.53.923,Parachute,2022.1.1,59.922077330245166,
negative,red,1,None,None,,,,,,,,,0,205,205,205,,,,,,,,,,,,,,,,,,,,,,,,,,,,,,,,,,,,,,,main,None,None,1,1.5020167000038782,685.8253291000001,None,None,1,,,,,,,,,,,,,,111,23,Female,2022-05-03_20h16.53.923,Parachute,2022.1.1,59.922077330245166,
negative,blue,2,None,k,,,,,,,,,0,206,206,206,,,,,,,,,,,,,,,,,,,,,,,,,,,,,,,,,,,,,,,main,k,k,1,0.9796628999902168,688.3256403999985,None,None,0,,,,,,,,,,,,,,111,23,Female,2022-05-03_20h16.53.923,Parachute,2022.1.1,59.922077330245166,
negative,yellow,2,k,None,,,,,,,,,0,207,207,207,,,,,,,,,,,,,,,,,,,,,,,,,,,,,,,,,,,,,,,main,None,None,1,1.500350399990566,690.3079568999965,None,None,1,,,,,,,,,,,,,,111,23,Female,2022-05-03_20h16.53.923,Parachute,2022.1.1,59.922077330245166,
positive,yellow,2,None,k,,,,,,,,,0,208,208,208,,,,,,,,,,,,,,,,,,,,,,,,,,,,,,,,,,,,,,,main,k,k,1,0.8678349999972852,692.8091114999988,None,None,0,,,,,,,,,,,,,,111,23,Female,2022-05-03_20h16.53.923,Parachute,2022.1.1,59.922077330245166,
negative,yellow,1,k,None,,,,,,,,,0,209,209,209,,,,,,,,,,,,,,,,,,,,,,,,,,,,,,,,,,,,,,,main,None,None,1,1.496501299989177,694.678493799991,None,None,1,,,,,,,,,,,,,,111,23,Female,2022-05-03_20h16.53.923,Parachute,2022.1.1,59.922077330245166,
negative,red,2,None,None,,,,,,,,,0,210,210,210,,,,,,,,,,,,,,,,,,,,,,,,,,,,,,,,,,,,,,,main,None,None,1,1.4982507999957306,697.1759868999943,None,None,1,,,,,,,,,,,,,,111,23,Female,2022-05-03_20h16.53.923,Parachute,2022.1.1,59.922077330245166,
negative,blue,1,None,k,,,,,,,,,0,211,211,211,,,,,,,,,,,,,,,,,,,,,,,,,,,,,,,,,,,,,,,main,k,k,1,0.7637296000029892,699.6753684999858,None,None,0,,,,,,,,,,,,,,111,23,Female,2022-05-03_20h16.53.923,Parachute,2022.1.1,59.922077330245166,
negative,yellow,1,k,None,,,,,,,,,0,212,212,212,,,,,,,,,,,,,,,,,,,,,,,,,,,,,,,,,,,,,,,main,None,None,1,1.5011251999967499,701.4420307999972,None,None,1,,,,,,,,,,,,,,111,23,Female,2022-05-03_20h16.53.923,Parachute,2022.1.1,59.922077330245166,
positive,blue,1,k,None,,,,,,,,,0,213,213,213,,,,,,,,,,,,,,,,,,,,,,,,,,,,,,,,,,,,,,,main,None,None,1,1.4986537999939173,703.9427474999975,None,None,1,,,,,,,,,,,,,,111,23,Female,2022-05-03_20h16.53.923,Parachute,2022.1.1,59.922077330245166,
positive,blue,1,k,None,,,,,,,,,0,214,214,214,,,,,,,,,,,,,,,,,,,,,,,,,,,,,,,,,,,,,,,main,None,None,1,1.4981082000012975,706.4435075999936,None,None,1,,,,,,,,,,,,,,111,23,Female,2022-05-03_20h16.53.923,Parachute,2022.1.1,59.922077330245166,
positive,yellow,1,None,k,,,,,,,,,0,215,215,215,,,,,,,,,,,,,,,,,,,,,,,,,,,,,,,,,,,,,,,main,k,k,1,0.8702296999981627,708.9424895999982,None,None,0,,,,,,,,,,,,,,111,23,Female,2022-05-03_20h16.53.923,Parachute,2022.1.1,59.922077330245166,
positive,yellow,1,None,k,,,,,,,,,0,216,216,216,,,,,,,,,,,,,,,,,,,,,,,,,,,,,,,,,,,,,,,main,k,k,1,0.7332650000025751,710.8142566999886,None,None,0,,,,,,,,,,,,,,111,23,Female,2022-05-03_20h16.53.923,Parachute,2022.1.1,59.922077330245166,
positive,yellow,2,None,k,,,,,,,,,0,217,217,217,,,,,,,,,,,,,,,,,,,,,,,,,,,,,,,,,,,,,,,main,k,k,1,0.91439679999894,712.5478191999864,None,None,0,,,,,,,,,,,,,,111,23,Female,2022-05-03_20h16.53.923,Parachute,2022.1.1,59.922077330245166,
negative,blue,1,None,k,,,,,,,,,0,218,218,218,,,,,,,,,,,,,,,,,,,,,,,,,,,,,,,,,,,,,,,main,k,k,1,0.731531500001438,714.4638897999976,None,None,0,,,,,,,,,,,,,,111,23,Female,2022-05-03_20h16.53.923,Parachute,2022.1.1,59.922077330245166,
positive,red,2,None,None,,,,,,,,,0,219,219,219,,,,,,,,,,,,,,,,,,,,,,,,,,,,,,,,,,,,,,,main,None,None,1,1.4938404999993509,716.1975634999981,None,None,1,,,,,,,,,,,,,,111,23,Female,2022-05-03_20h16.53.923,Parachute,2022.1.1,59.922077330245166,
positive,yellow,1,None,k,,,,,,,,,0,220,220,220,,,,,,,,,,,,,,,,,,,,,,,,,,,,,,,,,,,,,,,main,k,k,1,1.1367546999972546,718.6926486999873,None,None,0,,,,,,,,,,,,,,111,23,Female,2022-05-03_20h16.53.923,Parachute,2022.1.1,59.922077330245166,
positive,blue,1,k,None,,,,,,,,,0,221,221,221,,,,,,,,,,,,,,,,,,,,,,,,,,,,,,,,,,,,,,,main,None,None,1,1.4942068999953335,720.8305257999891,None,None,1,,,,,,,,,,,,,,111,23,Female,2022-05-03_20h16.53.923,Parachute,2022.1.1,59.922077330245166,
positive,yellow,2,None,k,,,,,,,,,0,222,222,222,,,,,,,,,,,,,,,,,,,,,,,,,,,,,,,,,,,,,,,main,k,k,1,0.8704311000037706,723.3263609999995,None,None,0,,,,,,,,,,,,,,111,23,Female,2022-05-03_20h16.53.923,Parachute,2022.1.1,59.922077330245166,
negative,yellow,1,k,None,,,,,,,,,0,223,223,223,,,,,,,,,,,,,,,,,,,,,,,,,,,,,,,,,,,,,,,main,None,None,1,1.4938307999982499,725.1973030999943,None,None,1,,,,,,,,,,,,,,111,23,Female,2022-05-03_20h16.53.923,Parachute,2022.1.1,59.922077330245166,
positive,yellow,2,None,k,,,,,,,,,0,224,224,224,,,,,,,,,,,,,,,,,,,,,,,,,,,,,,,,,,,,,,,main,k,k,1,0.9011210999888135,727.6931786999921,None,None,0,,,,,,,,,,,,,,111,23,Female,2022-05-03_20h16.53.923,Parachute,2022.1.1,59.922077330245166,
negative,yellow,2,k,None,,,,,,,,,0,225,225,225,,,,,,,,,,,,,,,,,,,,,,,,,,,,,,,,,,,,,,,main,None,None,1,1.4961007999954745,729.5963717999985,None,None,1,,,,,,,,,,,,,,111,23,Female,2022-05-03_20h16.53.923,Parachute,2022.1.1,59.922077330245166,
negative,blue,2,None,k,,,,,,,,,0,226,226,226,,,,,,,,,,,,,,,,,,,,,,,,,,,,,,,,,,,,,,,main,k,k,1,0.8540923000109615,732.0928948999936,None,None,0,,,,,,,,,,,,,,111,23,Female,2022-05-03_20h16.53.923,Parachute,2022.1.1,59.922077330245166,
positive,red,2,None,None,,,,,,,,,0,227,227,227,,,,,,,,,,,,,,,,,,,,,,,,,,,,,,,,,,,,,,,main,None,None,1,1.4934254999971017,733.9480691999925,None,None,1,,,,,,,,,,,,,,111,23,Female,2022-05-03_20h16.53.923,Parachute,2022.1.1,59.922077330245166,
positive,blue,2,k,None,,,,,,,,,0,228,228,228,,,,,,,,,,,,,,,,,,,,,,,,,,,,,,,,,,,,,,,main,None,None,1,1.4985741999989841,736.4431691999926,None,None,1,,,,,,,,,,,,,,111,23,Female,2022-05-03_20h16.53.923,Parachute,2022.1.1,59.922077330245166,
negative,blue,1,None,k,,,,,,,,,0,229,229,229,,,,,,,,,,,,,,,,,,,,,,,,,,,,,,,,,,,,,,,main,k,k,1,0.7344530999980634,738.9427380999987,None,None,0,,,,,,,,,,,,,,111,23,Female,2022-05-03_20h16.53.923,Parachute,2022.1.1,59.922077330245166,
positive,yellow,1,None,k,,,,,,,,,0,230,230,230,,,,,,,,,,,,,,,,,,,,,,,,,,,,,,,,,,,,,,,main,k,k,1,1.1279103999986546,740.6792060999869,None,None,0,,,,,,,,,,,,,,111,23,Female,2022-05-03_20h16.53.923,Parachute,2022.1.1,59.922077330245166,
negative,blue,2,None,k,,,,,,,,,0,231,231,231,,,,,,,,,,,,,,,,,,,,,,,,,,,,,,,,,,,,,,,main,k,k,1,0.7990450999932364,742.8099136999954,None,None,0,,,,,,,,,,,,,,111,23,Female,2022-05-03_20h16.53.923,Parachute,2022.1.1,59.922077330245166,
negative,red,1,None,None,,,,,,,,,0,232,232,232,,,,,,,,,,,,,,,,,,,,,,,,,,,,,,,,,,,,,,,main,None,None,1,1.5004869999975199,744.6096651999978,None,None,1,,,,,,,,,,,,,,111,23,Female,2022-05-03_20h16.53.923,Parachute,2022.1.1,59.922077330245166,
positive,blue,2,k,None,,,,,,,,,0,233,233,233,,,,,,,,,,,,,,,,,,,,,,,,,,,,,,,,,,,,,,,main,None,None,1,1.497753499992541,747.1105312,None,None,1,,,,,,,,,,,,,,111,23,Female,2022-05-03_20h16.53.923,Parachute,2022.1.1,59.922077330245166,
negative,yellow,1,k,None,,,,,,,,,0,234,234,234,,,,,,,,,,,,,,,,,,,,,,,,,,,,,,,,,,,,,,,main,None,None,1,1.4987846000003628,749.6098582999985,None,None,1,,,,,,,,,,,,,,111,23,Female,2022-05-03_20h16.53.923,Parachute,2022.1.1,59.922077330245166,
negative,yellow,2,k,None,,,,,,,,,0,235,235,235,,,,,,,,,,,,,,,,,,,,,,,,,,,,,,,,,,,,,,,main,None,None,1,1.4988412999955472,752.110045399997,None,None,1,,,,,,,,,,,,,,111,23,Female,2022-05-03_20h16.53.923,Parachute,2022.1.1,59.922077330245166,
positive,red,1,None,None,,,,,,,,,0,236,236,236,,,,,,,,,,,,,,,,,,,,,,,,,,,,,,,,,,,,,,,main,None,None,1,1.4982090999983484,754.6104483999952,None,None,1,,,,,,,,,,,,,,111,23,Female,2022-05-03_20h16.53.923,Parachute,2022.1.1,59.922077330245166,
negative,red,2,None,None,,,,,,,,,0,237,237,237,,,,,,,,,,,,,,,,,,,,,,,,,,,,,,,,,,,,,,,main,None,None,1,1.4991936000005808,757.109725199989,None,None,1,,,,,,,,,,,,,,111,23,Female,2022-05-03_20h16.53.923,Parachute,2022.1.1,59.922077330245166,
negative,blue,1,None,k,,,,,,,,,0,238,238,238,,,,,,,,,,,,,,,,,,,,,,,,,,,,,,,,,,,,,,,main,k,k,1,0.8203007999982219,759.6105448999879,None,None,0,,,,,,,,,,,,,,111,23,Female,2022-05-03_20h16.53.923,Parachute,2022.1.1,59.922077330245166,
positive,blue,1,k,None,,,,,,,,,0,239,239,239,,,,,,,,,,,,,,,,,,,,,,,,,,,,,,,,,,,,,,,main,None,None,1,1.4938070999924093,761.4318913999887,None,None,1,,,,,,,,,,,,,,111,23,Female,2022-05-03_20h16.53.923,Parachute,2022.1.1,59.922077330245166,
,,,,,,,,,,,,,,,,,,,,,,,,,,,,,,,,,,,,,,,,,,,,,,,,,,,,,,,,,,,,,,,,,,,,,,,,,,,763.9262368999916,None,,,,,,,,
