distractor,target,set,ans1,ans2,rep_loop4.thisRepN,rep_loop4.thisTrialN,rep_loop4.thisN,rep_loop4.thisIndex,st2_prac_loop.thisRepN,st2_prac_loop.thisTrialN,st2_prac_loop.thisN,st2_prac_loop.thisIndex,st2_main_loop.thisRepN,st2_main_loop.thisTrialN,st2_main_loop.thisN,st2_main_loop.thisIndex,image_4.started,image_4.stopped,mouse_7.x,mouse_7.y,mouse_7.leftButton,mouse_7.midButton,mouse_7.rightButton,sound_2.started,sound_2.stopped,key_resp_3.keys,mouse_5.x,mouse_5.y,mouse_5.leftButton,mouse_5.midButton,mouse_5.rightButton,mouse_5.started,mouse_5.stopped,yes_text2.started,yes_text2.stopped,no_text2.started,no_text2.stopped,mouse_3.x,mouse_3.y,mouse_3.leftButton,mouse_3.midButton,mouse_3.rightButton,mouse_3.started,mouse_3.stopped,st_prac_back.started,st_prac_back.stopped,st_prac_text.started,st_prac_text.stopped,st_fix_back.started,st_fix_back.stopped,st_fix_2.started,st_fix_2.stopped,main_prac,st_ans,st_res,st_corr,st_rt,st_back.started,st_back.stopped,st2_resp.keys,st2_resp.corr,st_main_back.started,st_main_back.stopped,st_main_text.started,st_main_text.stopped,mouse_4.x,mouse_4.y,mouse_4.leftButton,mouse_4.midButton,mouse_4.rightButton,mouse_4.started,mouse_4.stopped,text_2.started,text_2.stopped,id*,age*,gender*,date,expName,psychopyVersion,frameRate,
,,,,,,,,,,,,,,,,,49.25062470001285,None,-0.24814814,0.08055556,0,0,0,,,,,,,,,,,,,,,,,,,,,,,,,,,,,,,,,,,,,,,,,,,,,,,,,,,,112,20,Female,2022-05-04_10h02.18.916,Parachute,2022.1.1,60.25577371629488,
negative,yellow,1,k,None,,,,,0,0,0,0,,,,,,,,,,,,50.40625213999592,None,None,0.26759258,-0.37962964,0,0,0,1.0127031600277405,None,106.06360700001824,None,106.06360700001824,None,-0.08611111,-0.10555556,0,0,0,0.006820540031185374,None,107.72520710001118,None,107.72520710001118,None,109.74868330001482,None,109.74868330001482,None,prac,k,k,1,1.404647199989995,111.8033248000138,None,None,0,,,,,,,,,,,,,,112,20,Female,2022-05-04_10h02.18.916,Parachute,2022.1.1,60.25577371629488,
positive,red,2,None,None,,,,,0,1,1,1,,,,,,,,,,,,,,,,,,,,,,,,,,,,,,,,,,,,,,,,,prac,None,None,1,1.526874899980612,114.18472469999688,None,None,1,,,,,,,,,,,,,,112,20,Female,2022-05-04_10h02.18.916,Parachute,2022.1.1,60.25577371629488,
negative,blue,2,None,k,,,,,0,2,2,2,,,,,,,,,,,,,,,,,,,,,,,,,,,,,,,,,,,,,,,,,prac,None,None,1,1.5179583999852184,116.71713740000268,None,None,1,,,,,,,,,,,,,,112,20,Female,2022-05-04_10h02.18.916,Parachute,2022.1.1,60.25577371629488,
positive,yellow,1,None,k,,,,,0,3,3,3,,,,,,,,,,,,,,,,,,,,,,,,,,,,,,,,,,,,,,,,,prac,None,None,1,1.5113689999852795,119.24125240001013,None,None,1,,,,,,,,,,,,,,112,20,Female,2022-05-04_10h02.18.916,Parachute,2022.1.1,60.25577371629488,
negative,blue,2,None,k,,,,,0,4,4,4,,,,,,,,,,,,,,,,,,,,,,,,,,,,,,,,,,,,,,,,,prac,None,None,1,1.516494799987413,121.7594166000199,None,None,1,,,,,,,,,,,,,,112,20,Female,2022-05-04_10h02.18.916,Parachute,2022.1.1,60.25577371629488,
negative,blue,1,None,k,,,,,0,5,5,5,,,,,,,,,,,,,,,,,,,,,,,,,,,,,,,,,,,,,,,,,prac,None,None,1,1.5274108999874443,124.28170370002044,None,None,1,,,,,,,,,,,,,,112,20,Female,2022-05-04_10h02.18.916,Parachute,2022.1.1,60.25577371629488,
negative,yellow,2,k,None,,,,,0,6,6,6,,,,,,,,,,,,,,,,,,,,,,,,,,,,,,,,,,,,,,,,,prac,k,k,1,0.9166878999967594,126.80658830000903,None,None,0,,,,,,,,,,,,,,112,20,Female,2022-05-04_10h02.18.916,Parachute,2022.1.1,60.25577371629488,
negative,red,1,None,None,,,,,0,7,7,7,,,,,,,,,,,,,,,,,,,,,,,,,,,,,,,,,,,,,,,,,prac,None,None,1,1.5261184000119101,128.73164860001998,None,None,1,,,,,,,,,,,,,,112,20,Female,2022-05-04_10h02.18.916,Parachute,2022.1.1,60.25577371629488,
positive,yellow,2,None,k,,,,,0,8,8,8,,,,,,,,,,,,,,,,,,,,,,,,,,,,,,,,,,,,,,,,,prac,None,None,1,1.5023611999931745,131.2644002000161,None,None,1,,,,,,,,,,,,,,112,20,Female,2022-05-04_10h02.18.916,Parachute,2022.1.1,60.25577371629488,
negative,yellow,1,k,None,,,,,0,9,9,9,,,,,,,,,,,,,,,,,,,,,,,,,,,,,,,,,,,,,,,,,prac,k,k,1,0.9637885999982245,133.77254600002198,None,None,0,,,,,,,,,,,,,,112,20,Female,2022-05-04_10h02.18.916,Parachute,2022.1.1,60.25577371629488,
positive,yellow,2,None,k,,,,,0,10,10,10,,,,,,,,,,,,,,,,,,,,,,,,,,,,,,,,,,,,,,,,,prac,None,None,1,1.508414299983997,135.743274700013,None,None,1,,,,,,,,,,,,,,112,20,Female,2022-05-04_10h02.18.916,Parachute,2022.1.1,60.25577371629488,
negative,yellow,2,k,None,,,,,0,11,11,11,,,,,,,,,,,,,,,,,,,,,,,,,,,,,,,,,,,,,,,,,prac,k,k,1,0.9217643000010867,138.25636250001844,None,None,0,,,,,,,,,,,,,,112,20,Female,2022-05-04_10h02.18.916,Parachute,2022.1.1,60.25577371629488,
negative,red,2,None,None,,,,,0,12,12,12,,,,,,,,,,,,,,,,,,,,,,,,,,,,,,,,,,,,,,,,,prac,None,None,1,1.5229338000062853,140.18260870000813,None,None,1,,,,,,,,,,,,,,112,20,Female,2022-05-04_10h02.18.916,Parachute,2022.1.1,60.25577371629488,
positive,red,1,None,None,,,,,0,13,13,13,,,,,,,,,,,,,,,,,,,,,,,,,,,,,,,,,,,,,,,,,prac,None,None,1,1.5089926999935415,142.7141962000169,None,None,1,,,,,,,,,,,,,,112,20,Female,2022-05-04_10h02.18.916,Parachute,2022.1.1,60.25577371629488,
positive,blue,2,k,None,,,,,0,14,14,14,,,,,,,,,,,,,,,,,,,,,,,,,,,,,,,,,,,,,,,,,prac,k,k,1,0.8663096000091173,145.2305937000201,None,None,0,,,,,,,,,,,,,,112,20,Female,2022-05-04_10h02.18.916,Parachute,2022.1.1,60.25577371629488,
positive,blue,1,k,None,,,,,0,15,15,15,,,,,,,,,,,,,,,,,,,,,,,,,,,,,,,,,,,,,,,,,prac,k,k,1,0.8894239999935962,147.1037653000094,None,None,0,,,,,,,,,,,,,,112,20,Female,2022-05-04_10h02.18.916,Parachute,2022.1.1,60.25577371629488,
negative,blue,1,None,k,,,,,0,16,16,16,,,,,,,,,,,,,,,,,,,,,,,,,,,,,,,,,,,,,,,,,prac,None,None,1,1.5089887000212912,148.99710160001996,None,None,1,,,,,,,,,,,,,,112,20,Female,2022-05-04_10h02.18.916,Parachute,2022.1.1,60.25577371629488,
positive,blue,2,k,None,,,,,0,17,17,17,,,,,,,,,,,,,,,,,,,,,,,,,,,,,,,,,,,,,,,,,prac,k,k,1,0.9850280999962706,151.51504680002108,None,None,0,,,,,,,,,,,,,,112,20,Female,2022-05-04_10h02.18.916,Parachute,2022.1.1,60.25577371629488,
positive,blue,1,k,None,,,,,0,18,18,18,,,,,,,,,,,,,,,,,,,,,,,,,,,,,,,,,,,,,,,,,prac,k,k,1,0.9296166000131052,153.50892700001714,None,None,0,,,,,,,,,,,,,,112,20,Female,2022-05-04_10h02.18.916,Parachute,2022.1.1,60.25577371629488,
positive,yellow,1,None,k,,,,,0,19,19,19,,,,,,,,,,,,,,,,,,,,,,,,,,,,,,,,,,,,,,,,,prac,None,None,1,1.50838990000193,155.44553920000908,None,None,1,,,,,,,,,,,,,,112,20,Female,2022-05-04_10h02.18.916,Parachute,2022.1.1,60.25577371629488,
negative,yellow,1,k,None,,,,,1,0,20,0,,,,,,,,,,,,,,,,,,,,,,,,,,,,,,,,,,,,,,,,,prac,k,k,1,0.8981809999968391,157.9569684000162,None,None,0,,,,,,,,,,,,,,112,20,Female,2022-05-04_10h02.18.916,Parachute,2022.1.1,60.25577371629488,
positive,red,2,None,None,,,,,1,1,21,1,,,,,,,,,,,,,,,,,,,,,,,,,,,,,,,,,,,,,,,,,prac,None,None,1,1.5244173999817576,159.8678748999955,None,None,1,,,,,,,,,,,,,,112,20,Female,2022-05-04_10h02.18.916,Parachute,2022.1.1,60.25577371629488,
negative,blue,2,None,k,,,,,1,2,22,2,,,,,,,,,,,,,,,,,,,,,,,,,,,,,,,,,,,,,,,,,prac,None,None,1,1.521177600021474,162.39098369999556,None,None,1,,,,,,,,,,,,,,112,20,Female,2022-05-04_10h02.18.916,Parachute,2022.1.1,60.25577371629488,
positive,yellow,1,None,k,,,,,1,3,23,3,,,,,,,,,,,,,,,,,,,,,,,,,,,,,,,,,,,,,,,,,prac,None,None,1,1.5158447999856435,164.9208494000195,None,None,1,,,,,,,,,,,,,,112,20,Female,2022-05-04_10h02.18.916,Parachute,2022.1.1,60.25577371629488,
negative,blue,2,None,k,,,,,1,4,24,4,,,,,,,,,,,,,,,,,,,,,,,,,,,,,,,,,,,,,,,,,prac,None,None,1,1.4954601000063121,167.4411092000082,None,None,1,,,,,,,,,,,,,,112,20,Female,2022-05-04_10h02.18.916,Parachute,2022.1.1,60.25577371629488,
negative,blue,1,None,k,,,,,1,5,25,5,,,,,,,,,,,,,,,,,,,,,,,,,,,,,,,,,,,,,,,,,prac,None,None,1,1.510328100004699,169.93351170001552,None,None,1,,,,,,,,,,,,,,112,20,Female,2022-05-04_10h02.18.916,Parachute,2022.1.1,60.25577371629488,
negative,yellow,2,k,None,,,,,1,6,26,6,,,,,,,,,,,,,,,,,,,,,,,,,,,,,,,,,,,,,,,,,prac,k,k,1,1.135257800022373,172.454833900003,None,None,0,,,,,,,,,,,,,,112,20,Female,2022-05-04_10h02.18.916,Parachute,2022.1.1,60.25577371629488,
negative,red,1,None,None,,,,,1,7,27,7,,,,,,,,,,,,,,,,,,,,,,,,,,,,,,,,,,,,,,,,,prac,None,None,1,1.5184122999780811,174.5975233000063,None,None,1,,,,,,,,,,,,,,112,20,Female,2022-05-04_10h02.18.916,Parachute,2022.1.1,60.25577371629488,
positive,yellow,2,None,k,,,,,1,8,28,8,,,,,,,,,,,,,,,,,,,,,,,,,,,,,,,,,,,,,,,,,prac,None,None,1,1.5146123000013176,177.12352429999737,None,None,1,,,,,,,,,,,,,,112,20,Female,2022-05-04_10h02.18.916,Parachute,2022.1.1,60.25577371629488,
negative,yellow,1,k,None,,,,,1,9,29,9,,,,,,,,,,,,,,,,,,,,,,,,,,,,,,,,,,,,,,,,,prac,k,k,1,0.8992255000048317,179.6351082000183,None,None,0,,,,,,,,,,,,,,112,20,Female,2022-05-04_10h02.18.916,Parachute,2022.1.1,60.25577371629488,
positive,yellow,2,None,k,,,,,1,10,30,10,,,,,,,,,,,,,,,,,,,,,,,,,,,,,,,,,,,,,,,,,prac,None,None,1,1.5104351000045426,181.54749280001852,None,None,1,,,,,,,,,,,,,,112,20,Female,2022-05-04_10h02.18.916,Parachute,2022.1.1,60.25577371629488,
negative,yellow,2,k,None,,,,,1,11,31,11,,,,,,,,,,,,,,,,,,,,,,,,,,,,,,,,,,,,,,,,,prac,k,k,1,0.874271900014719,184.0609466000169,None,None,0,,,,,,,,,,,,,,112,20,Female,2022-05-04_10h02.18.916,Parachute,2022.1.1,60.25577371629488,
negative,red,2,None,None,,,,,1,12,32,12,,,,,,,,,,,,,,,,,,,,,,,,,,,,,,,,,,,,,,,,,prac,None,None,1,1.5092235000047367,185.92976240001735,None,None,1,,,,,,,,,,,,,,112,20,Female,2022-05-04_10h02.18.916,Parachute,2022.1.1,60.25577371629488,
positive,red,1,None,None,,,,,1,13,33,13,,,,,,,,,,,,,,,,,,,,,,,,,,,,,,,,,,,,,,,,,prac,None,None,1,1.5119428999896627,188.45245730000897,None,None,1,,,,,,,,,,,,,,112,20,Female,2022-05-04_10h02.18.916,Parachute,2022.1.1,60.25577371629488,
positive,blue,2,k,None,,,,,1,14,34,14,,,,,,,,,,,,,,,,,,,,,,,,,,,,,,,,,,,,,,,,,prac,k,k,1,0.910563599987654,190.970074700017,None,None,0,,,,,,,,,,,,,,112,20,Female,2022-05-04_10h02.18.916,Parachute,2022.1.1,60.25577371629488,
positive,blue,1,k,None,,,,,1,15,35,15,,,,,,,,,,,,,,,,,,,,,,,,,,,,,,,,,,,,,,,,,prac,k,k,1,0.9183939000067767,192.88086460001068,None,None,0,,,,,,,,,,,,,,112,20,Female,2022-05-04_10h02.18.916,Parachute,2022.1.1,60.25577371629488,
negative,blue,1,None,k,,,,,1,16,36,16,,,,,,,,,,,,,,,,,,,,,,,,,,,,,,,,,,,,,,,,,prac,None,None,1,1.5145588000013959,194.81492850001086,None,None,1,,,,,,,,,,,,,,112,20,Female,2022-05-04_10h02.18.916,Parachute,2022.1.1,60.25577371629488,
positive,blue,2,k,None,,,,,1,17,37,17,,,,,,,,,,,,,,,,,,,,,,,,,,,,,,,,,,,,,,,,,prac,k,k,1,0.7843264000257477,197.3325976000051,None,None,0,,,,,,,,,,,,,,112,20,Female,2022-05-04_10h02.18.916,Parachute,2022.1.1,60.25577371629488,
positive,blue,1,k,None,,,,,1,18,38,18,,,,,,,,,,,,,,,,,,,,,,,,,,,,,,,,,,,,,,,,,prac,k,k,1,0.7258102000050712,199.12746820002212,None,None,0,,,,,,,,,,,,,,112,20,Female,2022-05-04_10h02.18.916,Parachute,2022.1.1,60.25577371629488,
positive,yellow,1,None,k,,,,,1,19,39,19,,,,,,,,,,,,,,,,,,,,,,,,,,,,,,,,,,,,,,,,,prac,None,None,1,1.5225009999994654,200.86510160000762,None,None,1,,,,,,,,,,,,,,112,20,Female,2022-05-04_10h02.18.916,Parachute,2022.1.1,60.25577371629488,
,,,,,,,,,,,,,,,,,,,,,,,,,,,,,,,,,,,,,,,,,,,,,,,,,,,,,,,,,,,,,,203.41839999999502,None,203.41839999999502,None,0.18703704,-0.050925925,0,0,0,0.016191479982808232,None,,,112,20,Female,2022-05-04_10h02.18.916,Parachute,2022.1.1,60.25577371629488,
negative,yellow,2,k,None,,,,,,,,,0,0,0,0,,,,,,,,,,,,,,,,,,,,,,,,,,,,,,,,,205.04274900001474,None,205.04274900001474,None,main,k,k,1,2.925688599993009,207.1688350000186,None,None,0,,,,,,,,,,,,,,112,20,Female,2022-05-04_10h02.18.916,Parachute,2022.1.1,60.25577371629488,
positive,red,1,None,None,,,,,,,,,0,1,1,1,,,,,,,,,,,,,,,,,,,,,,,,,,,,,,,,,,,,,main,None,None,1,1.5047778000007384,212.2057568000164,None,None,1,,,,,,,,,,,,,,112,20,Female,2022-05-04_10h02.18.916,Parachute,2022.1.1,60.25577371629488,
positive,blue,2,k,None,,,,,,,,,0,2,2,2,,,,,,,,,,,,,,,,,,,,,,,,,,,,,,,,,,,,,main,k,k,1,0.7591647000226658,214.71921609999845,None,None,0,,,,,,,,,,,,,,112,20,Female,2022-05-04_10h02.18.916,Parachute,2022.1.1,60.25577371629488,
positive,blue,1,k,None,,,,,,,,,0,3,3,3,,,,,,,,,,,,,,,,,,,,,,,,,,,,,,,,,,,,,main,k,k,1,0.7156453999923542,216.48502380002174,None,None,0,,,,,,,,,,,,,,112,20,Female,2022-05-04_10h02.18.916,Parachute,2022.1.1,60.25577371629488,
negative,yellow,2,k,None,,,,,,,,,0,4,4,4,,,,,,,,,,,,,,,,,,,,,,,,,,,,,,,,,,,,,main,k,k,1,1.292656400008127,218.19577990000835,None,None,0,,,,,,,,,,,,,,112,20,Female,2022-05-04_10h02.18.916,Parachute,2022.1.1,60.25577371629488,
positive,yellow,2,None,k,,,,,,,,,0,5,5,5,,,,,,,,,,,,,,,,,,,,,,,,,,,,,,,,,,,,,main,None,k,0,0.7851015999913216,220.5030408000166,None,None,1,,,,,,,,,,,,,,112,20,Female,2022-05-04_10h02.18.916,Parachute,2022.1.1,60.25577371629488,
negative,blue,2,None,k,,,,,,,,,0,6,6,6,,,,,,,,,,,,,,,,,,,,,,,,,,,,,,,,,,,,,main,None,None,1,1.5261549999995623,223.3211733000062,None,None,1,,,,,,,,,,,,,,112,20,Female,2022-05-04_10h02.18.916,Parachute,2022.1.1,60.25577371629488,
positive,red,2,None,None,,,,,,,,,0,7,7,7,,,,,,,,,,,,,,,,,,,,,,,,,,,,,,,,,,,,,main,None,None,1,1.5130002000078093,225.85790460000862,None,None,1,,,,,,,,,,,,,,112,20,Female,2022-05-04_10h02.18.916,Parachute,2022.1.1,60.25577371629488,
positive,yellow,1,None,k,,,,,,,,,0,8,8,8,,,,,,,,,,,,,,,,,,,,,,,,,,,,,,,,,,,,,main,None,None,1,1.5097583000024315,228.37573910001083,None,None,1,,,,,,,,,,,,,,112,20,Female,2022-05-04_10h02.18.916,Parachute,2022.1.1,60.25577371629488,
negative,red,1,None,None,,,,,,,,,0,9,9,9,,,,,,,,,,,,,,,,,,,,,,,,,,,,,,,,,,,,,main,None,None,1,1.5183826000138652,230.89231130000553,None,None,1,,,,,,,,,,,,,,112,20,Female,2022-05-04_10h02.18.916,Parachute,2022.1.1,60.25577371629488,
positive,yellow,1,None,k,,,,,,,,,0,10,10,10,,,,,,,,,,,,,,,,,,,,,,,,,,,,,,,,,,,,,main,None,None,1,1.526243100001011,233.41787000000477,None,None,1,,,,,,,,,,,,,,112,20,Female,2022-05-04_10h02.18.916,Parachute,2022.1.1,60.25577371629488,
negative,yellow,1,k,None,,,,,,,,,0,11,11,11,,,,,,,,,,,,,,,,,,,,,,,,,,,,,,,,,,,,,main,k,k,1,0.955653600016376,235.95174040002166,None,None,0,,,,,,,,,,,,,,112,20,Female,2022-05-04_10h02.18.916,Parachute,2022.1.1,60.25577371629488,
negative,yellow,1,k,None,,,,,,,,,0,12,12,12,,,,,,,,,,,,,,,,,,,,,,,,,,,,,,,,,,,,,main,k,k,1,0.5897776999918278,237.91307969999616,None,None,0,,,,,,,,,,,,,,112,20,Female,2022-05-04_10h02.18.916,Parachute,2022.1.1,60.25577371629488,
negative,red,2,None,None,,,,,,,,,0,13,13,13,,,,,,,,,,,,,,,,,,,,,,,,,,,,,,,,,,,,,main,None,None,1,1.5294781000120565,239.5036570999946,None,None,1,,,,,,,,,,,,,,112,20,Female,2022-05-04_10h02.18.916,Parachute,2022.1.1,60.25577371629488,
positive,yellow,2,None,k,,,,,,,,,0,14,14,14,,,,,,,,,,,,,,,,,,,,,,,,,,,,,,,,,,,,,main,None,None,1,1.5167936000216287,242.04227440000977,None,None,1,,,,,,,,,,,,,,112,20,Female,2022-05-04_10h02.18.916,Parachute,2022.1.1,60.25577371629488,
positive,blue,1,k,None,,,,,,,,,0,15,15,15,,,,,,,,,,,,,,,,,,,,,,,,,,,,,,,,,,,,,main,k,k,1,0.8228670999815222,244.5657765000069,None,None,0,,,,,,,,,,,,,,112,20,Female,2022-05-04_10h02.18.916,Parachute,2022.1.1,60.25577371629488,
negative,blue,1,None,k,,,,,,,,,0,16,16,16,,,,,,,,,,,,,,,,,,,,,,,,,,,,,,,,,,,,,main,None,None,1,1.513759299996309,246.38392360002035,None,None,1,,,,,,,,,,,,,,112,20,Female,2022-05-04_10h02.18.916,Parachute,2022.1.1,60.25577371629488,
positive,blue,2,k,None,,,,,,,,,0,17,17,17,,,,,,,,,,,,,,,,,,,,,,,,,,,,,,,,,,,,,main,k,k,1,1.0056822999904398,248.91182599999593,None,None,0,,,,,,,,,,,,,,112,20,Female,2022-05-04_10h02.18.916,Parachute,2022.1.1,60.25577371629488,
negative,blue,2,None,k,,,,,,,,,0,18,18,18,,,,,,,,,,,,,,,,,,,,,,,,,,,,,,,,,,,,,main,None,None,1,1.5148494000022765,250.9128980000096,None,None,1,,,,,,,,,,,,,,112,20,Female,2022-05-04_10h02.18.916,Parachute,2022.1.1,60.25577371629488,
negative,blue,1,None,k,,,,,,,,,0,19,19,19,,,,,,,,,,,,,,,,,,,,,,,,,,,,,,,,,,,,,main,None,None,1,1.5184720999968704,253.4441655999981,None,None,1,,,,,,,,,,,,,,112,20,Female,2022-05-04_10h02.18.916,Parachute,2022.1.1,60.25577371629488,
negative,blue,1,None,k,,,,,,,,,0,20,20,20,,,,,,,,,,,,,,,,,,,,,,,,,,,,,,,,,,,,,main,None,None,1,1.525896399980411,255.97083540001768,None,None,1,,,,,,,,,,,,,,112,20,Female,2022-05-04_10h02.18.916,Parachute,2022.1.1,60.25577371629488,
negative,blue,2,None,k,,,,,,,,,0,21,21,21,,,,,,,,,,,,,,,,,,,,,,,,,,,,,,,,,,,,,main,None,None,1,1.510239499999443,258.5029926999996,None,None,1,,,,,,,,,,,,,,112,20,Female,2022-05-04_10h02.18.916,Parachute,2022.1.1,60.25577371629488,
negative,red,1,None,None,,,,,,,,,0,22,22,22,,,,,,,,,,,,,,,,,,,,,,,,,,,,,,,,,,,,,main,None,None,1,1.5207558999827597,261.0185686000041,None,None,1,,,,,,,,,,,,,,112,20,Female,2022-05-04_10h02.18.916,Parachute,2022.1.1,60.25577371629488,
positive,red,2,None,None,,,,,,,,,0,23,23,23,,,,,,,,,,,,,,,,,,,,,,,,,,,,,,,,,,,,,main,None,None,1,1.5145213000068907,263.54510800002026,None,None,1,,,,,,,,,,,,,,112,20,Female,2022-05-04_10h02.18.916,Parachute,2022.1.1,60.25577371629488,
negative,red,2,None,None,,,,,,,,,0,24,24,24,,,,,,,,,,,,,,,,,,,,,,,,,,,,,,,,,,,,,main,None,None,1,1.5196695000049658,266.06634039999335,None,None,1,,,,,,,,,,,,,,112,20,Female,2022-05-04_10h02.18.916,Parachute,2022.1.1,60.25577371629488,
positive,blue,2,k,None,,,,,,,,,0,25,25,25,,,,,,,,,,,,,,,,,,,,,,,,,,,,,,,,,,,,,main,k,k,1,0.8638695999979973,268.59304150001844,None,None,0,,,,,,,,,,,,,,112,20,Female,2022-05-04_10h02.18.916,Parachute,2022.1.1,60.25577371629488,
negative,yellow,1,k,None,,,,,,,,,0,26,26,26,,,,,,,,,,,,,,,,,,,,,,,,,,,,,,,,,,,,,main,k,k,1,0.9657109999970999,270.4549035000091,None,None,0,,,,,,,,,,,,,,112,20,Female,2022-05-04_10h02.18.916,Parachute,2022.1.1,60.25577371629488,
positive,blue,2,k,None,,,,,,,,,0,27,27,27,,,,,,,,,,,,,,,,,,,,,,,,,,,,,,,,,,,,,main,k,k,1,0.7360865999944508,272.4269697999989,None,None,0,,,,,,,,,,,,,,112,20,Female,2022-05-04_10h02.18.916,Parachute,2022.1.1,60.25577371629488,
negative,blue,2,None,k,,,,,,,,,0,28,28,28,,,,,,,,,,,,,,,,,,,,,,,,,,,,,,,,,,,,,main,None,None,1,1.5320118000090588,274.1690688999952,None,None,1,,,,,,,,,,,,,,112,20,Female,2022-05-04_10h02.18.916,Parachute,2022.1.1,60.25577371629488,
positive,red,1,None,None,,,,,,,,,0,29,29,29,,,,,,,,,,,,,,,,,,,,,,,,,,,,,,,,,,,,,main,None,None,1,1.5290485000004992,276.7108547000098,None,None,1,,,,,,,,,,,,,,112,20,Female,2022-05-04_10h02.18.916,Parachute,2022.1.1,60.25577371629488,
positive,blue,1,k,None,,,,,,,,,0,30,30,30,,,,,,,,,,,,,,,,,,,,,,,,,,,,,,,,,,,,,main,k,k,1,0.8088151999982074,279.2446283000172,None,None,0,,,,,,,,,,,,,,112,20,Female,2022-05-04_10h02.18.916,Parachute,2022.1.1,60.25577371629488,
positive,yellow,1,None,k,,,,,,,,,0,31,31,31,,,,,,,,,,,,,,,,,,,,,,,,,,,,,,,,,,,,,main,None,None,1,1.5236205999972299,281.051552799996,None,None,1,,,,,,,,,,,,,,112,20,Female,2022-05-04_10h02.18.916,Parachute,2022.1.1,60.25577371629488,
negative,yellow,2,k,None,,,,,,,,,0,32,32,32,,,,,,,,,,,,,,,,,,,,,,,,,,,,,,,,,,,,,main,k,k,1,0.6465693000063766,283.5875883999979,None,None,0,,,,,,,,,,,,,,112,20,Female,2022-05-04_10h02.18.916,Parachute,2022.1.1,60.25577371629488,
negative,blue,1,None,k,,,,,,,,,0,33,33,33,,,,,,,,,,,,,,,,,,,,,,,,,,,,,,,,,,,,,main,None,None,1,1.5228289999940898,285.22984529999667,None,None,1,,,,,,,,,,,,,,112,20,Female,2022-05-04_10h02.18.916,Parachute,2022.1.1,60.25577371629488,
positive,blue,1,k,None,,,,,,,,,0,34,34,34,,,,,,,,,,,,,,,,,,,,,,,,,,,,,,,,,,,,,main,k,k,1,0.578326199989533,287.7666373999964,None,None,0,,,,,,,,,,,,,,112,20,Female,2022-05-04_10h02.18.916,Parachute,2022.1.1,60.25577371629488,
negative,yellow,1,k,None,,,,,,,,,0,35,35,35,,,,,,,,,,,,,,,,,,,,,,,,,,,,,,,,,,,,,main,k,k,1,0.7700260000128765,289.3404872000101,None,None,0,,,,,,,,,,,,,,112,20,Female,2022-05-04_10h02.18.916,Parachute,2022.1.1,60.25577371629488,
positive,yellow,2,None,k,,,,,,,,,0,36,36,36,,,,,,,,,,,,,,,,,,,,,,,,,,,,,,,,,,,,,main,None,None,1,1.5113796000077855,291.1286018000101,None,None,1,,,,,,,,,,,,,,112,20,Female,2022-05-04_10h02.18.916,Parachute,2022.1.1,60.25577371629488,
positive,yellow,2,None,k,,,,,,,,,0,37,37,37,,,,,,,,,,,,,,,,,,,,,,,,,,,,,,,,,,,,,main,None,None,1,1.5278652999841142,293.64258630000404,None,None,1,,,,,,,,,,,,,,112,20,Female,2022-05-04_10h02.18.916,Parachute,2022.1.1,60.25577371629488,
negative,yellow,2,k,None,,,,,,,,,0,38,38,38,,,,,,,,,,,,,,,,,,,,,,,,,,,,,,,,,,,,,main,k,k,1,0.7665456999966409,296.17633820002084,None,None,0,,,,,,,,,,,,,,112,20,Female,2022-05-04_10h02.18.916,Parachute,2022.1.1,60.25577371629488,
positive,yellow,1,None,k,,,,,,,,,0,39,39,39,,,,,,,,,,,,,,,,,,,,,,,,,,,,,,,,,,,,,main,None,None,1,1.5142895999888424,297.9354532000143,None,None,1,,,,,,,,,,,,,,112,20,Female,2022-05-04_10h02.18.916,Parachute,2022.1.1,60.25577371629488,
negative,yellow,2,k,None,,,,,,,,,0,40,40,40,,,,,,,,,,,,,,,,,,,,,,,,,,,,,,,,,,,,,main,k,k,1,0.7132735000050161,300.46732820000034,None,None,0,,,,,,,,,,,,,,112,20,Female,2022-05-04_10h02.18.916,Parachute,2022.1.1,60.25577371629488,
positive,blue,2,k,None,,,,,,,,,0,41,41,41,,,,,,,,,,,,,,,,,,,,,,,,,,,,,,,,,,,,,main,k,k,1,0.5398025999893434,302.1886521000124,None,None,0,,,,,,,,,,,,,,112,20,Female,2022-05-04_10h02.18.916,Parachute,2022.1.1,60.25577371629488,
positive,blue,2,k,None,,,,,,,,,0,42,42,42,,,,,,,,,,,,,,,,,,,,,,,,,,,,,,,,,,,,,main,k,k,1,0.6374259000003804,303.7344051999971,None,None,0,,,,,,,,,,,,,,112,20,Female,2022-05-04_10h02.18.916,Parachute,2022.1.1,60.25577371629488,
negative,blue,2,None,k,,,,,,,,,0,43,43,43,,,,,,,,,,,,,,,,,,,,,,,,,,,,,,,,,,,,,main,None,None,1,1.5261115999892354,305.38174440001603,None,None,1,,,,,,,,,,,,,,112,20,Female,2022-05-04_10h02.18.916,Parachute,2022.1.1,60.25577371629488,
negative,red,1,None,None,,,,,,,,,0,44,44,44,,,,,,,,,,,,,,,,,,,,,,,,,,,,,,,,,,,,,main,None,None,1,1.517936299991561,307.91109450001386,None,None,1,,,,,,,,,,,,,,112,20,Female,2022-05-04_10h02.18.916,Parachute,2022.1.1,60.25577371629488,
negative,yellow,1,k,None,,,,,,,,,0,45,45,45,,,,,,,,,,,,,,,,,,,,,,,,,,,,,,,,,,,,,main,k,k,1,1.246787799987942,310.4355421999935,None,None,0,,,,,,,,,,,,,,112,20,Female,2022-05-04_10h02.18.916,Parachute,2022.1.1,60.25577371629488,
negative,yellow,1,k,None,,,,,,,,,0,46,46,46,,,,,,,,,,,,,,,,,,,,,,,,,,,,,,,,,,,,,main,k,k,1,0.7410459000093397,312.6873442000069,None,None,0,,,,,,,,,,,,,,112,20,Female,2022-05-04_10h02.18.916,Parachute,2022.1.1,60.25577371629488,
positive,red,1,None,None,,,,,,,,,0,47,47,47,,,,,,,,,,,,,,,,,,,,,,,,,,,,,,,,,,,,,main,None,None,1,1.5165491999941878,314.4372965999937,None,None,1,,,,,,,,,,,,,,112,20,Female,2022-05-04_10h02.18.916,Parachute,2022.1.1,60.25577371629488,
positive,yellow,1,None,k,,,,,,,,,0,48,48,48,,,,,,,,,,,,,,,,,,,,,,,,,,,,,,,,,,,,,main,None,None,1,1.527033400023356,316.96439340000506,None,None,1,,,,,,,,,,,,,,112,20,Female,2022-05-04_10h02.18.916,Parachute,2022.1.1,60.25577371629488,
negative,blue,1,None,k,,,,,,,,,0,49,49,49,,,,,,,,,,,,,,,,,,,,,,,,,,,,,,,,,,,,,main,None,None,1,1.508341399981873,319.49347220000345,None,None,1,,,,,,,,,,,,,,112,20,Female,2022-05-04_10h02.18.916,Parachute,2022.1.1,60.25577371629488,
positive,yellow,2,None,k,,,,,,,,,0,50,50,50,,,,,,,,,,,,,,,,,,,,,,,,,,,,,,,,,,,,,main,None,None,1,1.5304063000075985,322.00876890000654,None,None,1,,,,,,,,,,,,,,112,20,Female,2022-05-04_10h02.18.916,Parachute,2022.1.1,60.25577371629488,
negative,blue,1,None,k,,,,,,,,,0,51,51,51,,,,,,,,,,,,,,,,,,,,,,,,,,,,,,,,,,,,,main,None,None,1,1.5066821000073105,324.5463444000052,None,None,1,,,,,,,,,,,,,,112,20,Female,2022-05-04_10h02.18.916,Parachute,2022.1.1,60.25577371629488,
positive,red,2,None,None,,,,,,,,,0,52,52,52,,,,,,,,,,,,,,,,,,,,,,,,,,,,,,,,,,,,,main,None,None,1,1.5138059000018984,327.05827619999764,None,None,1,,,,,,,,,,,,,,112,20,Female,2022-05-04_10h02.18.916,Parachute,2022.1.1,60.25577371629488,
positive,yellow,2,None,k,,,,,,,,,0,53,53,53,,,,,,,,,,,,,,,,,,,,,,,,,,,,,,,,,,,,,main,None,None,1,1.516449399990961,329.57699790000333,None,None,1,,,,,,,,,,,,,,112,20,Female,2022-05-04_10h02.18.916,Parachute,2022.1.1,60.25577371629488,
negative,red,2,None,None,,,,,,,,,0,54,54,54,,,,,,,,,,,,,,,,,,,,,,,,,,,,,,,,,,,,,main,None,None,1,1.5035131000040565,332.10085240000626,None,None,1,,,,,,,,,,,,,,112,20,Female,2022-05-04_10h02.18.916,Parachute,2022.1.1,60.25577371629488,
positive,yellow,1,None,k,,,,,,,,,0,55,55,55,,,,,,,,,,,,,,,,,,,,,,,,,,,,,,,,,,,,,main,None,None,1,1.5089344999869354,334.6114063000132,None,None,1,,,,,,,,,,,,,,112,20,Female,2022-05-04_10h02.18.916,Parachute,2022.1.1,60.25577371629488,
negative,blue,2,None,k,,,,,,,,,0,56,56,56,,,,,,,,,,,,,,,,,,,,,,,,,,,,,,,,,,,,,main,None,None,1,1.5286783000046853,337.12586510000983,None,None,1,,,,,,,,,,,,,,112,20,Female,2022-05-04_10h02.18.916,Parachute,2022.1.1,60.25577371629488,
positive,blue,1,k,None,,,,,,,,,0,57,57,57,,,,,,,,,,,,,,,,,,,,,,,,,,,,,,,,,,,,,main,k,k,1,0.7169379999977536,339.66183940001065,None,None,0,,,,,,,,,,,,,,112,20,Female,2022-05-04_10h02.18.916,Parachute,2022.1.1,60.25577371629488,
positive,blue,1,k,None,,,,,,,,,0,58,58,58,,,,,,,,,,,,,,,,,,,,,,,,,,,,,,,,,,,,,main,k,k,1,0.7369419999886304,341.37704819999635,None,None,0,,,,,,,,,,,,,,112,20,Female,2022-05-04_10h02.18.916,Parachute,2022.1.1,60.25577371629488,
negative,yellow,2,k,None,,,,,,,,,0,59,59,59,,,,,,,,,,,,,,,,,,,,,,,,,,,,,,,,,,,,,main,k,k,1,0.8667752000037581,343.12957520000055,None,None,0,,,,,,,,,,,,,,112,20,Female,2022-05-04_10h02.18.916,Parachute,2022.1.1,60.25577371629488,
positive,red,2,None,None,,,,,,,,,0,60,60,60,,,,,,,,,,,,,,,,,,,,,,,,,,,,,,,,,,,,,main,None,None,1,1.5223194000136573,344.99998849999974,None,None,1,,,,,,,,,,,,,,112,20,Female,2022-05-04_10h02.18.916,Parachute,2022.1.1,60.25577371629488,
negative,yellow,1,k,None,,,,,,,,,0,61,61,61,,,,,,,,,,,,,,,,,,,,,,,,,,,,,,,,,,,,,main,k,k,1,0.7079392999876291,347.52635110000847,None,None,0,,,,,,,,,,,,,,112,20,Female,2022-05-04_10h02.18.916,Parachute,2022.1.1,60.25577371629488,
negative,red,1,None,None,,,,,,,,,0,62,62,62,,,,,,,,,,,,,,,,,,,,,,,,,,,,,,,,,,,,,main,None,None,1,1.5142574000055902,349.2407017000078,None,None,1,,,,,,,,,,,,,,112,20,Female,2022-05-04_10h02.18.916,Parachute,2022.1.1,60.25577371629488,
negative,blue,1,None,k,,,,,,,,,0,63,63,63,,,,,,,,,,,,,,,,,,,,,,,,,,,,,,,,,,,,,main,None,None,1,1.5281460999976844,351.7605540000077,None,None,1,,,,,,,,,,,,,,112,20,Female,2022-05-04_10h02.18.916,Parachute,2022.1.1,60.25577371629488,
positive,blue,2,k,None,,,,,,,,,0,64,64,64,,,,,,,,,,,,,,,,,,,,,,,,,,,,,,,,,,,,,main,k,k,1,0.6956093000189867,354.29439389999607,None,None,0,,,,,,,,,,,,,,112,20,Female,2022-05-04_10h02.18.916,Parachute,2022.1.1,60.25577371629488,
negative,yellow,2,k,None,,,,,,,,,0,65,65,65,,,,,,,,,,,,,,,,,,,,,,,,,,,,,,,,,,,,,main,k,k,1,0.6900471999833826,355.9964096000185,None,None,0,,,,,,,,,,,,,,112,20,Female,2022-05-04_10h02.18.916,Parachute,2022.1.1,60.25577371629488,
positive,yellow,2,None,k,,,,,,,,,0,66,66,66,,,,,,,,,,,,,,,,,,,,,,,,,,,,,,,,,,,,,main,None,None,1,1.5058661999937613,357.6802877000009,None,None,1,,,,,,,,,,,,,,112,20,Female,2022-05-04_10h02.18.916,Parachute,2022.1.1,60.25577371629488,
positive,yellow,2,None,k,,,,,,,,,0,67,67,67,,,,,,,,,,,,,,,,,,,,,,,,,,,,,,,,,,,,,main,None,None,1,1.5153576000011526,360.19085919999634,None,None,1,,,,,,,,,,,,,,112,20,Female,2022-05-04_10h02.18.916,Parachute,2022.1.1,60.25577371629488,
positive,red,1,None,None,,,,,,,,,0,68,68,68,,,,,,,,,,,,,,,,,,,,,,,,,,,,,,,,,,,,,main,None,None,1,1.5255280999990646,362.70905590002076,None,None,1,,,,,,,,,,,,,,112,20,Female,2022-05-04_10h02.18.916,Parachute,2022.1.1,60.25577371629488,
positive,yellow,1,None,k,,,,,,,,,0,69,69,69,,,,,,,,,,,,,,,,,,,,,,,,,,,,,,,,,,,,,main,None,None,1,1.5231851999997161,365.24828560001333,None,None,1,,,,,,,,,,,,,,112,20,Female,2022-05-04_10h02.18.916,Parachute,2022.1.1,60.25577371629488,
negative,yellow,2,k,None,,,,,,,,,0,70,70,70,,,,,,,,,,,,,,,,,,,,,,,,,,,,,,,,,,,,,main,k,k,1,1.433178000006592,367.7775903000147,None,None,0,,,,,,,,,,,,,,112,20,Female,2022-05-04_10h02.18.916,Parachute,2022.1.1,60.25577371629488,
positive,yellow,1,None,k,,,,,,,,,0,71,71,71,,,,,,,,,,,,,,,,,,,,,,,,,,,,,,,,,,,,,main,None,None,1,1.5159996000002138,370.2228883000207,None,None,1,,,,,,,,,,,,,,112,20,Female,2022-05-04_10h02.18.916,Parachute,2022.1.1,60.25577371629488,
negative,blue,1,None,k,,,,,,,,,0,72,72,72,,,,,,,,,,,,,,,,,,,,,,,,,,,,,,,,,,,,,main,None,None,1,1.5195238000014797,372.74318220000714,None,None,1,,,,,,,,,,,,,,112,20,Female,2022-05-04_10h02.18.916,Parachute,2022.1.1,60.25577371629488,
negative,red,2,None,None,,,,,,,,,0,73,73,73,,,,,,,,,,,,,,,,,,,,,,,,,,,,,,,,,,,,,main,None,None,1,1.5086906000215095,375.270050799998,None,None,1,,,,,,,,,,,,,,112,20,Female,2022-05-04_10h02.18.916,Parachute,2022.1.1,60.25577371629488,
positive,blue,2,k,None,,,,,,,,,0,74,74,74,,,,,,,,,,,,,,,,,,,,,,,,,,,,,,,,,,,,,main,k,k,1,0.8030564999789931,377.78592379999463,None,None,0,,,,,,,,,,,,,,112,20,Female,2022-05-04_10h02.18.916,Parachute,2022.1.1,60.25577371629488,
negative,blue,2,None,k,,,,,,,,,0,75,75,75,,,,,,,,,,,,,,,,,,,,,,,,,,,,,,,,,,,,,main,None,None,1,1.519288499985123,379.5870855000103,None,None,1,,,,,,,,,,,,,,112,20,Female,2022-05-04_10h02.18.916,Parachute,2022.1.1,60.25577371629488,
negative,blue,2,None,k,,,,,,,,,0,76,76,76,,,,,,,,,,,,,,,,,,,,,,,,,,,,,,,,,,,,,main,None,None,1,1.51018149999436,382.11920670000836,None,None,1,,,,,,,,,,,,,,112,20,Female,2022-05-04_10h02.18.916,Parachute,2022.1.1,60.25577371629488,
negative,yellow,1,k,None,,,,,,,,,0,77,77,77,,,,,,,,,,,,,,,,,,,,,,,,,,,,,,,,,,,,,main,k,k,1,0.8725156000000425,384.6373074000003,None,None,0,,,,,,,,,,,,,,112,20,Female,2022-05-04_10h02.18.916,Parachute,2022.1.1,60.25577371629488,
positive,blue,1,k,None,,,,,,,,,0,78,78,78,,,,,,,,,,,,,,,,,,,,,,,,,,,,,,,,,,,,,main,k,k,1,0.9114859999972396,386.51854620000813,None,None,0,,,,,,,,,,,,,,112,20,Female,2022-05-04_10h02.18.916,Parachute,2022.1.1,60.25577371629488,
positive,blue,1,k,None,,,,,,,,,0,79,79,79,,,,,,,,,,,,,,,,,,,,,,,,,,,,,,,,,,,,,main,k,k,1,0.6963401000248268,388.4359525000036,None,None,0,,,,,,,,,,,,,,112,20,Female,2022-05-04_10h02.18.916,Parachute,2022.1.1,60.25577371629488,
positive,red,2,None,None,,,,,,,,,0,80,80,80,,,,,,,,,,,,,,,,,,,,,,,,,,,,,,,,,,,,,main,None,None,1,1.5277902000234462,390.13631030000397,None,None,1,,,,,,,,,,,,,,112,20,Female,2022-05-04_10h02.18.916,Parachute,2022.1.1,60.25577371629488,
positive,yellow,2,None,k,,,,,,,,,0,81,81,81,,,,,,,,,,,,,,,,,,,,,,,,,,,,,,,,,,,,,main,None,None,1,1.5183987999917008,392.6718596999999,None,None,1,,,,,,,,,,,,,,112,20,Female,2022-05-04_10h02.18.916,Parachute,2022.1.1,60.25577371629488,
positive,blue,1,k,None,,,,,,,,,0,82,82,82,,,,,,,,,,,,,,,,,,,,,,,,,,,,,,,,,,,,,main,k,k,1,1.4606638999830466,395.196133200021,None,None,0,,,,,,,,,,,,,,112,20,Female,2022-05-04_10h02.18.916,Parachute,2022.1.1,60.25577371629488,
negative,yellow,2,k,None,,,,,,,,,0,83,83,83,,,,,,,,,,,,,,,,,,,,,,,,,,,,,,,,,,,,,main,k,k,1,0.8218781999894418,397.6591904000088,None,None,0,,,,,,,,,,,,,,112,20,Female,2022-05-04_10h02.18.916,Parachute,2022.1.1,60.25577371629488,
positive,blue,2,k,None,,,,,,,,,0,84,84,84,,,,,,,,,,,,,,,,,,,,,,,,,,,,,,,,,,,,,main,k,k,1,1.102651599998353,399.4912101000082,None,None,0,,,,,,,,,,,,,,112,20,Female,2022-05-04_10h02.18.916,Parachute,2022.1.1,60.25577371629488,
positive,yellow,1,None,k,,,,,,,,,0,85,85,85,,,,,,,,,,,,,,,,,,,,,,,,,,,,,,,,,,,,,main,None,None,1,1.5164973999781068,401.5918952000211,None,None,1,,,,,,,,,,,,,,112,20,Female,2022-05-04_10h02.18.916,Parachute,2022.1.1,60.25577371629488,
positive,blue,2,k,None,,,,,,,,,0,86,86,86,,,,,,,,,,,,,,,,,,,,,,,,,,,,,,,,,,,,,main,k,k,1,0.8120295000262558,404.12047630001325,None,None,0,,,,,,,,,,,,,,112,20,Female,2022-05-04_10h02.18.916,Parachute,2022.1.1,60.25577371629488,
positive,blue,1,k,None,,,,,,,,,0,87,87,87,,,,,,,,,,,,,,,,,,,,,,,,,,,,,,,,,,,,,main,k,k,1,0.6079659000097308,405.9396885000169,None,None,0,,,,,,,,,,,,,,112,20,Female,2022-05-04_10h02.18.916,Parachute,2022.1.1,60.25577371629488,
negative,yellow,2,k,None,,,,,,,,,0,88,88,88,,,,,,,,,,,,,,,,,,,,,,,,,,,,,,,,,,,,,main,k,k,1,0.7364205999765545,407.5475060000026,None,None,0,,,,,,,,,,,,,,112,20,Female,2022-05-04_10h02.18.916,Parachute,2022.1.1,60.25577371629488,
negative,blue,2,None,k,,,,,,,,,0,89,89,89,,,,,,,,,,,,,,,,,,,,,,,,,,,,,,,,,,,,,main,None,None,1,1.5175174000032712,409.2990921000019,None,None,1,,,,,,,,,,,,,,112,20,Female,2022-05-04_10h02.18.916,Parachute,2022.1.1,60.25577371629488,
positive,yellow,2,None,k,,,,,,,,,0,90,90,90,,,,,,,,,,,,,,,,,,,,,,,,,,,,,,,,,,,,,main,None,None,1,1.5030535999976564,411.8195157000155,None,None,1,,,,,,,,,,,,,,112,20,Female,2022-05-04_10h02.18.916,Parachute,2022.1.1,60.25577371629488,
negative,yellow,1,k,None,,,,,,,,,0,91,91,91,,,,,,,,,,,,,,,,,,,,,,,,,,,,,,,,,,,,,main,k,k,1,0.7229621000005864,414.3290115999989,None,None,0,,,,,,,,,,,,,,112,20,Female,2022-05-04_10h02.18.916,Parachute,2022.1.1,60.25577371629488,
negative,red,2,None,None,,,,,,,,,0,92,92,92,,,,,,,,,,,,,,,,,,,,,,,,,,,,,,,,,,,,,main,None,None,1,1.514817999996012,416.05799160001334,None,None,1,,,,,,,,,,,,,,112,20,Female,2022-05-04_10h02.18.916,Parachute,2022.1.1,60.25577371629488,
negative,blue,2,None,k,,,,,,,,,0,93,93,93,,,,,,,,,,,,,,,,,,,,,,,,,,,,,,,,,,,,,main,None,None,1,1.5268082999973558,418.5798008000129,None,None,1,,,,,,,,,,,,,,112,20,Female,2022-05-04_10h02.18.916,Parachute,2022.1.1,60.25577371629488,
negative,blue,1,None,k,,,,,,,,,0,94,94,94,,,,,,,,,,,,,,,,,,,,,,,,,,,,,,,,,,,,,main,None,None,1,1.5100698999885935,421.1121703000099,None,None,1,,,,,,,,,,,,,,112,20,Female,2022-05-04_10h02.18.916,Parachute,2022.1.1,60.25577371629488,
negative,blue,1,None,k,,,,,,,,,0,95,95,95,,,,,,,,,,,,,,,,,,,,,,,,,,,,,,,,,,,,,main,None,None,1,1.5278897000243887,423.6294643000001,None,None,1,,,,,,,,,,,,,,112,20,Female,2022-05-04_10h02.18.916,Parachute,2022.1.1,60.25577371629488,
negative,red,1,None,None,,,,,,,,,0,96,96,96,,,,,,,,,,,,,,,,,,,,,,,,,,,,,,,,,,,,,main,None,None,1,1.5211345000134315,426.16296539999894,None,None,1,,,,,,,,,,,,,,112,20,Female,2022-05-04_10h02.18.916,Parachute,2022.1.1,60.25577371629488,
positive,yellow,1,None,k,,,,,,,,,0,97,97,97,,,,,,,,,,,,,,,,,,,,,,,,,,,,,,,,,,,,,main,None,None,1,1.5153787999879569,428.691722699994,None,None,1,,,,,,,,,,,,,,112,20,Female,2022-05-04_10h02.18.916,Parachute,2022.1.1,60.25577371629488,
negative,yellow,1,k,None,,,,,,,,,0,98,98,98,,,,,,,,,,,,,,,,,,,,,,,,,,,,,,,,,,,,,main,k,k,1,0.9265850999800023,431.21177540000645,None,None,0,,,,,,,,,,,,,,112,20,Female,2022-05-04_10h02.18.916,Parachute,2022.1.1,60.25577371629488,
positive,red,1,None,None,,,,,,,,,0,99,99,99,,,,,,,,,,,,,,,,,,,,,,,,,,,,,,,,,,,,,main,None,None,1,1.516279100003885,433.13554220000515,None,None,1,,,,,,,,,,,,,,112,20,Female,2022-05-04_10h02.18.916,Parachute,2022.1.1,60.25577371629488,
positive,blue,1,k,None,,,,,,,,,0,100,100,100,,,,,,,,,,,,,,,,,,,,,,,,,,,,,,,,,,,,,main,k,k,1,0.7648892999859527,435.66393999999855,None,None,0,,,,,,,,,,,,,,112,20,Female,2022-05-04_10h02.18.916,Parachute,2022.1.1,60.25577371629488,
negative,yellow,1,k,None,,,,,,,,,0,101,101,101,,,,,,,,,,,,,,,,,,,,,,,,,,,,,,,,,,,,,main,k,k,1,0.8717121999943629,437.4268157000188,None,None,0,,,,,,,,,,,,,,112,20,Female,2022-05-04_10h02.18.916,Parachute,2022.1.1,60.25577371629488,
negative,blue,2,None,k,,,,,,,,,0,102,102,102,,,,,,,,,,,,,,,,,,,,,,,,,,,,,,,,,,,,,main,None,None,1,1.5162213000003248,439.30089320000843,None,None,1,,,,,,,,,,,,,,112,20,Female,2022-05-04_10h02.18.916,Parachute,2022.1.1,60.25577371629488,
negative,yellow,2,k,None,,,,,,,,,0,103,103,103,,,,,,,,,,,,,,,,,,,,,,,,,,,,,,,,,,,,,main,k,k,1,0.8329643000033684,441.8299496000109,None,None,0,,,,,,,,,,,,,,112,20,Female,2022-05-04_10h02.18.916,Parachute,2022.1.1,60.25577371629488,
positive,yellow,2,None,k,,,,,,,,,0,104,104,104,,,,,,,,,,,,,,,,,,,,,,,,,,,,,,,,,,,,,main,None,None,1,1.514718599995831,443.67002650001086,None,None,1,,,,,,,,,,,,,,112,20,Female,2022-05-04_10h02.18.916,Parachute,2022.1.1,60.25577371629488,
positive,blue,1,k,None,,,,,,,,,0,105,105,105,,,,,,,,,,,,,,,,,,,,,,,,,,,,,,,,,,,,,main,k,k,1,0.8545328000036534,446.1919256999972,None,None,0,,,,,,,,,,,,,,112,20,Female,2022-05-04_10h02.18.916,Parachute,2022.1.1,60.25577371629488,
positive,blue,2,k,None,,,,,,,,,0,106,106,106,,,,,,,,,,,,,,,,,,,,,,,,,,,,,,,,,,,,,main,k,k,1,0.80735379998805,448.0535256000003,None,None,0,,,,,,,,,,,,,,112,20,Female,2022-05-04_10h02.18.916,Parachute,2022.1.1,60.25577371629488,
negative,blue,1,None,k,,,,,,,,,0,107,107,107,,,,,,,,,,,,,,,,,,,,,,,,,,,,,,,,,,,,,main,None,None,1,1.5087728000071365,449.86967889999505,None,None,1,,,,,,,,,,,,,,112,20,Female,2022-05-04_10h02.18.916,Parachute,2022.1.1,60.25577371629488,
positive,yellow,2,None,k,,,,,,,,,0,108,108,108,,,,,,,,,,,,,,,,,,,,,,,,,,,,,,,,,,,,,main,None,None,1,1.5148128000146244,452.38579880000907,None,None,1,,,,,,,,,,,,,,112,20,Female,2022-05-04_10h02.18.916,Parachute,2022.1.1,60.25577371629488,
negative,yellow,1,k,None,,,,,,,,,0,109,109,109,,,,,,,,,,,,,,,,,,,,,,,,,,,,,,,,,,,,,main,k,k,1,1.4517344000050798,454.90175370001816,None,None,0,,,,,,,,,,,,,,112,20,Female,2022-05-04_10h02.18.916,Parachute,2022.1.1,60.25577371629488,
negative,blue,2,None,k,,,,,,,,,0,110,110,110,,,,,,,,,,,,,,,,,,,,,,,,,,,,,,,,,,,,,main,None,None,1,1.5038942999963183,457.35942690001684,None,None,1,,,,,,,,,,,,,,112,20,Female,2022-05-04_10h02.18.916,Parachute,2022.1.1,60.25577371629488,
positive,blue,2,k,None,,,,,,,,,0,111,111,111,,,,,,,,,,,,,,,,,,,,,,,,,,,,,,,,,,,,,main,k,k,1,0.6376165999972727,459.87042250001105,None,None,0,,,,,,,,,,,,,,112,20,Female,2022-05-04_10h02.18.916,Parachute,2022.1.1,60.25577371629488,
negative,blue,1,None,k,,,,,,,,,0,112,112,112,,,,,,,,,,,,,,,,,,,,,,,,,,,,,,,,,,,,,main,None,None,1,1.5171983999898657,461.50562949999585,None,None,1,,,,,,,,,,,,,,112,20,Female,2022-05-04_10h02.18.916,Parachute,2022.1.1,60.25577371629488,
positive,yellow,1,None,k,,,,,,,,,0,113,113,113,,,,,,,,,,,,,,,,,,,,,,,,,,,,,,,,,,,,,main,None,None,1,1.5087813999853097,464.03533260000404,None,None,1,,,,,,,,,,,,,,112,20,Female,2022-05-04_10h02.18.916,Parachute,2022.1.1,60.25577371629488,
negative,red,1,None,None,,,,,,,,,0,114,114,114,,,,,,,,,,,,,,,,,,,,,,,,,,,,,,,,,,,,,main,None,k,0,-0.7927791000111029,466.5519892000011,None,None,1,,,,,,,,,,,,,,112,20,Female,2022-05-04_10h02.18.916,Parachute,2022.1.1,60.25577371629488,
positive,red,1,None,None,,,,,,,,,0,115,115,115,,,,,,,,,,,,,,,,,,,,,,,,,,,,,,,,,,,,,main,None,None,1,1.521193000022322,469.8142912000185,None,None,1,,,,,,,,,,,,,,112,20,Female,2022-05-04_10h02.18.916,Parachute,2022.1.1,60.25577371629488,
negative,red,2,None,None,,,,,,,,,0,116,116,116,,,,,,,,,,,,,,,,,,,,,,,,,,,,,,,,,,,,,main,None,None,1,1.5055217999906745,472.3428468000202,None,None,1,,,,,,,,,,,,,,112,20,Female,2022-05-04_10h02.18.916,Parachute,2022.1.1,60.25577371629488,
negative,yellow,2,k,None,,,,,,,,,0,117,117,117,,,,,,,,,,,,,,,,,,,,,,,,,,,,,,,,,,,,,main,k,k,1,1.083300300000701,474.85417320000124,None,None,0,,,,,,,,,,,,,,112,20,Female,2022-05-04_10h02.18.916,Parachute,2022.1.1,60.25577371629488,
positive,yellow,1,None,k,,,,,,,,,0,118,118,118,,,,,,,,,,,,,,,,,,,,,,,,,,,,,,,,,,,,,main,None,None,1,1.5080423999752384,476.93104210001184,None,None,1,,,,,,,,,,,,,,112,20,Female,2022-05-04_10h02.18.916,Parachute,2022.1.1,60.25577371629488,
positive,red,2,None,None,,,,,,,,,0,119,119,119,,,,,,,,,,,,,,,,,,,,,,,,,,,,,,,,,,,,,main,None,None,1,1.5186443999991752,479.4548804000078,None,None,1,,,,,,,,,,,,,,112,20,Female,2022-05-04_10h02.18.916,Parachute,2022.1.1,60.25577371629488,
positive,blue,2,k,None,,,,,,,,,0,120,120,120,,,,,,,,,,,,,,,,,,,,,,,,,,,,,,,,,,,,,main,k,k,1,1.0757491000113077,481.98121369999717,None,None,0,,,,,,,,,,,,,,112,20,Female,2022-05-04_10h02.18.916,Parachute,2022.1.1,60.25577371629488,
negative,red,1,None,None,,,,,,,,,0,121,121,121,,,,,,,,,,,,,,,,,,,,,,,,,,,,,,,,,,,,,main,None,None,1,1.5356528999982402,484.0543996000197,None,None,1,,,,,,,,,,,,,,112,20,Female,2022-05-04_10h02.18.916,Parachute,2022.1.1,60.25577371629488,
positive,yellow,2,None,k,,,,,,,,,0,122,122,122,,,,,,,,,,,,,,,,,,,,,,,,,,,,,,,,,,,,,main,None,None,1,1.5172692999767605,486.6018349000078,None,None,1,,,,,,,,,,,,,,112,20,Female,2022-05-04_10h02.18.916,Parachute,2022.1.1,60.25577371629488,
negative,red,2,None,None,,,,,,,,,0,123,123,123,,,,,,,,,,,,,,,,,,,,,,,,,,,,,,,,,,,,,main,None,None,1,1.5064090999949258,489.12571839999873,None,None,1,,,,,,,,,,,,,,112,20,Female,2022-05-04_10h02.18.916,Parachute,2022.1.1,60.25577371629488,
negative,yellow,2,k,None,,,,,,,,,0,124,124,124,,,,,,,,,,,,,,,,,,,,,,,,,,,,,,,,,,,,,main,k,k,1,1.1931317000126,491.6391530999972,None,None,0,,,,,,,,,,,,,,112,20,Female,2022-05-04_10h02.18.916,Parachute,2022.1.1,60.25577371629488,
positive,red,1,None,None,,,,,,,,,0,125,125,125,,,,,,,,,,,,,,,,,,,,,,,,,,,,,,,,,,,,,main,None,None,1,1.5190417999983765,493.8415689000103,None,None,1,,,,,,,,,,,,,,112,20,Female,2022-05-04_10h02.18.916,Parachute,2022.1.1,60.25577371629488,
negative,blue,2,None,k,,,,,,,,,0,126,126,126,,,,,,,,,,,,,,,,,,,,,,,,,,,,,,,,,,,,,main,None,None,1,1.5098774999787565,496.36800440002116,None,None,1,,,,,,,,,,,,,,112,20,Female,2022-05-04_10h02.18.916,Parachute,2022.1.1,60.25577371629488,
negative,blue,1,None,k,,,,,,,,,0,127,127,127,,,,,,,,,,,,,,,,,,,,,,,,,,,,,,,,,,,,,main,None,None,1,1.5175925999938045,498.8810490000178,None,None,1,,,,,,,,,,,,,,112,20,Female,2022-05-04_10h02.18.916,Parachute,2022.1.1,60.25577371629488,
negative,yellow,1,k,None,,,,,,,,,0,128,128,128,,,,,,,,,,,,,,,,,,,,,,,,,,,,,,,,,,,,,main,k,k,1,0.9090566000086255,501.4072051999974,None,None,0,,,,,,,,,,,,,,112,20,Female,2022-05-04_10h02.18.916,Parachute,2022.1.1,60.25577371629488,
negative,yellow,1,k,None,,,,,,,,,0,129,129,129,,,,,,,,,,,,,,,,,,,,,,,,,,,,,,,,,,,,,main,k,k,1,0.7994286000030115,503.32353510000394,None,None,0,,,,,,,,,,,,,,112,20,Female,2022-05-04_10h02.18.916,Parachute,2022.1.1,60.25577371629488,
positive,blue,1,k,None,,,,,,,,,0,130,130,130,,,,,,,,,,,,,,,,,,,,,,,,,,,,,,,,,,,,,main,k,k,1,0.7349143000028562,505.12469980001333,None,None,0,,,,,,,,,,,,,,112,20,Female,2022-05-04_10h02.18.916,Parachute,2022.1.1,60.25577371629488,
negative,blue,1,None,k,,,,,,,,,0,131,131,131,,,,,,,,,,,,,,,,,,,,,,,,,,,,,,,,,,,,,main,None,None,1,1.517307299975073,506.8602009000024,None,None,1,,,,,,,,,,,,,,112,20,Female,2022-05-04_10h02.18.916,Parachute,2022.1.1,60.25577371629488,
negative,blue,2,None,k,,,,,,,,,0,132,132,132,,,,,,,,,,,,,,,,,,,,,,,,,,,,,,,,,,,,,main,None,None,1,1.5265656000119634,509.3890473000065,None,None,1,,,,,,,,,,,,,,112,20,Female,2022-05-04_10h02.18.916,Parachute,2022.1.1,60.25577371629488,
positive,blue,2,k,None,,,,,,,,,0,133,133,133,,,,,,,,,,,,,,,,,,,,,,,,,,,,,,,,,,,,,main,k,k,1,0.7702643000229727,511.92288699999335,None,None,0,,,,,,,,,,,,,,112,20,Female,2022-05-04_10h02.18.916,Parachute,2022.1.1,60.25577371629488,
positive,red,2,None,None,,,,,,,,,0,134,134,134,,,,,,,,,,,,,,,,,,,,,,,,,,,,,,,,,,,,,main,None,None,1,1.5180707999970764,513.6986550000147,None,None,1,,,,,,,,,,,,,,112,20,Female,2022-05-04_10h02.18.916,Parachute,2022.1.1,60.25577371629488,
negative,yellow,2,k,None,,,,,,,,,0,135,135,135,,,,,,,,,,,,,,,,,,,,,,,,,,,,,,,,,,,,,main,k,k,1,0.7927037999907043,516.2219068999984,None,None,0,,,,,,,,,,,,,,112,20,Female,2022-05-04_10h02.18.916,Parachute,2022.1.1,60.25577371629488,
positive,yellow,2,None,k,,,,,,,,,0,136,136,136,,,,,,,,,,,,,,,,,,,,,,,,,,,,,,,,,,,,,main,None,None,1,1.503862499987008,518.0218909000105,None,None,1,,,,,,,,,,,,,,112,20,Female,2022-05-04_10h02.18.916,Parachute,2022.1.1,60.25577371629488,
positive,blue,1,k,None,,,,,,,,,0,137,137,137,,,,,,,,,,,,,,,,,,,,,,,,,,,,,,,,,,,,,main,k,k,1,0.9613415999920107,520.5195030000177,None,None,0,,,,,,,,,,,,,,112,20,Female,2022-05-04_10h02.18.916,Parachute,2022.1.1,60.25577371629488,
positive,yellow,1,None,k,,,,,,,,,0,138,138,138,,,,,,,,,,,,,,,,,,,,,,,,,,,,,,,,,,,,,main,None,None,1,1.526391599996714,522.4831696000183,None,None,1,,,,,,,,,,,,,,112,20,Female,2022-05-04_10h02.18.916,Parachute,2022.1.1,60.25577371629488,
positive,yellow,1,None,k,,,,,,,,,0,139,139,139,,,,,,,,,,,,,,,,,,,,,,,,,,,,,,,,,,,,,main,None,None,1,1.5088793000031728,525.0244074999937,None,None,1,,,,,,,,,,,,,,112,20,Female,2022-05-04_10h02.18.916,Parachute,2022.1.1,60.25577371629488,
positive,yellow,1,None,k,,,,,,,,,0,140,140,140,,,,,,,,,,,,,,,,,,,,,,,,,,,,,,,,,,,,,main,None,None,1,1.508014799997909,527.5401119000162,None,None,1,,,,,,,,,,,,,,112,20,Female,2022-05-04_10h02.18.916,Parachute,2022.1.1,60.25577371629488,
positive,blue,1,k,None,,,,,,,,,0,141,141,141,,,,,,,,,,,,,,,,,,,,,,,,,,,,,,,,,,,,,main,k,k,1,0.840094000013778,530.055921799998,None,None,0,,,,,,,,,,,,,,112,20,Female,2022-05-04_10h02.18.916,Parachute,2022.1.1,60.25577371629488,
positive,blue,2,k,None,,,,,,,,,0,142,142,142,,,,,,,,,,,,,,,,,,,,,,,,,,,,,,,,,,,,,main,k,k,1,0.7060980999958701,531.8954238000151,None,None,0,,,,,,,,,,,,,,112,20,Female,2022-05-04_10h02.18.916,Parachute,2022.1.1,60.25577371629488,
positive,yellow,2,None,k,,,,,,,,,0,143,143,143,,,,,,,,,,,,,,,,,,,,,,,,,,,,,,,,,,,,,main,None,None,1,1.518155800004024,533.6113414000138,None,None,1,,,,,,,,,,,,,,112,20,Female,2022-05-04_10h02.18.916,Parachute,2022.1.1,60.25577371629488,
negative,yellow,2,k,None,,,,,,,,,0,144,144,144,,,,,,,,,,,,,,,,,,,,,,,,,,,,,,,,,,,,,main,k,k,1,0.7614832999825012,536.1355368000222,None,None,0,,,,,,,,,,,,,,112,20,Female,2022-05-04_10h02.18.916,Parachute,2022.1.1,60.25577371629488,
negative,blue,2,None,k,,,,,,,,,0,145,145,145,,,,,,,,,,,,,,,,,,,,,,,,,,,,,,,,,,,,,main,None,None,1,1.5319580000068527,537.9042142000108,None,None,1,,,,,,,,,,,,,,112,20,Female,2022-05-04_10h02.18.916,Parachute,2022.1.1,60.25577371629488,
negative,red,1,None,None,,,,,,,,,0,146,146,146,,,,,,,,,,,,,,,,,,,,,,,,,,,,,,,,,,,,,main,None,None,1,1.508473199995933,540.4417720000201,None,None,1,,,,,,,,,,,,,,112,20,Female,2022-05-04_10h02.18.916,Parachute,2022.1.1,60.25577371629488,
positive,blue,1,k,None,,,,,,,,,0,147,147,147,,,,,,,,,,,,,,,,,,,,,,,,,,,,,,,,,,,,,main,k,k,1,0.7735049000184517,542.9561134999967,None,None,0,,,,,,,,,,,,,,112,20,Female,2022-05-04_10h02.18.916,Parachute,2022.1.1,60.25577371629488,
positive,yellow,1,None,k,,,,,,,,,0,148,148,148,,,,,,,,,,,,,,,,,,,,,,,,,,,,,,,,,,,,,main,None,None,1,1.523907099995995,544.7395949000202,None,None,1,,,,,,,,,,,,,,112,20,Female,2022-05-04_10h02.18.916,Parachute,2022.1.1,60.25577371629488,
negative,red,2,None,None,,,,,,,,,0,149,149,149,,,,,,,,,,,,,,,,,,,,,,,,,,,,,,,,,,,,,main,None,None,1,1.5255138000065926,547.266744499997,None,None,1,,,,,,,,,,,,,,112,20,Female,2022-05-04_10h02.18.916,Parachute,2022.1.1,60.25577371629488,
negative,blue,1,None,k,,,,,,,,,0,150,150,150,,,,,,,,,,,,,,,,,,,,,,,,,,,,,,,,,,,,,main,None,None,1,1.501826699997764,549.7981547999952,None,None,1,,,,,,,,,,,,,,112,20,Female,2022-05-04_10h02.18.916,Parachute,2022.1.1,60.25577371629488,
negative,yellow,2,k,None,,,,,,,,,0,151,151,151,,,,,,,,,,,,,,,,,,,,,,,,,,,,,,,,,,,,,main,k,k,1,0.9863011999987066,552.3071225000022,None,None,0,,,,,,,,,,,,,,112,20,Female,2022-05-04_10h02.18.916,Parachute,2022.1.1,60.25577371629488,
negative,blue,2,None,k,,,,,,,,,0,152,152,152,,,,,,,,,,,,,,,,,,,,,,,,,,,,,,,,,,,,,main,None,None,1,1.5215829000226222,554.2963477000012,None,None,1,,,,,,,,,,,,,,112,20,Female,2022-05-04_10h02.18.916,Parachute,2022.1.1,60.25577371629488,
negative,yellow,1,k,None,,,,,,,,,0,153,153,153,,,,,,,,,,,,,,,,,,,,,,,,,,,,,,,,,,,,,main,k,k,1,1.0194501999940258,556.8297908999957,None,None,0,,,,,,,,,,,,,,112,20,Female,2022-05-04_10h02.18.916,Parachute,2022.1.1,60.25577371629488,
negative,blue,1,None,k,,,,,,,,,0,154,154,154,,,,,,,,,,,,,,,,,,,,,,,,,,,,,,,,,,,,,main,None,None,1,1.5232865999860223,558.8563349000178,None,None,1,,,,,,,,,,,,,,112,20,Female,2022-05-04_10h02.18.916,Parachute,2022.1.1,60.25577371629488,
positive,yellow,2,None,k,,,,,,,,,0,155,155,155,,,,,,,,,,,,,,,,,,,,,,,,,,,,,,,,,,,,,main,None,None,1,1.5270563999947626,561.3822914000193,None,None,1,,,,,,,,,,,,,,112,20,Female,2022-05-04_10h02.18.916,Parachute,2022.1.1,60.25577371629488,
positive,red,2,None,None,,,,,,,,,0,156,156,156,,,,,,,,,,,,,,,,,,,,,,,,,,,,,,,,,,,,,main,None,None,1,1.523425599996699,563.9178585000045,None,None,1,,,,,,,,,,,,,,112,20,Female,2022-05-04_10h02.18.916,Parachute,2022.1.1,60.25577371629488,
positive,red,1,None,None,,,,,,,,,0,157,157,157,,,,,,,,,,,,,,,,,,,,,,,,,,,,,,,,,,,,,main,None,None,1,1.5064094999979716,566.4469466000155,None,None,1,,,,,,,,,,,,,,112,20,Female,2022-05-04_10h02.18.916,Parachute,2022.1.1,60.25577371629488,
positive,blue,2,k,None,,,,,,,,,0,158,158,158,,,,,,,,,,,,,,,,,,,,,,,,,,,,,,,,,,,,,main,k,k,1,0.7482669999881182,568.9605074000137,None,None,0,,,,,,,,,,,,,,112,20,Female,2022-05-04_10h02.18.916,Parachute,2022.1.1,60.25577371629488,
negative,yellow,1,k,None,,,,,,,,,0,159,159,159,,,,,,,,,,,,,,,,,,,,,,,,,,,,,,,,,,,,,main,k,k,1,0.6886334999871906,570.7030387000123,None,None,0,,,,,,,,,,,,,,112,20,Female,2022-05-04_10h02.18.916,Parachute,2022.1.1,60.25577371629488,
negative,red,2,None,None,,,,,,,,,0,160,160,160,,,,,,,,,,,,,,,,,,,,,,,,,,,,,,,,,,,,,main,None,None,1,1.5251849000051152,572.393320800009,None,None,1,,,,,,,,,,,,,,112,20,Female,2022-05-04_10h02.18.916,Parachute,2022.1.1,60.25577371629488,
negative,blue,1,None,k,,,,,,,,,0,161,161,161,,,,,,,,,,,,,,,,,,,,,,,,,,,,,,,,,,,,,main,None,None,1,1.5168317000207026,574.9335999000177,None,None,1,,,,,,,,,,,,,,112,20,Female,2022-05-04_10h02.18.916,Parachute,2022.1.1,60.25577371629488,
negative,blue,1,None,k,,,,,,,,,0,162,162,162,,,,,,,,,,,,,,,,,,,,,,,,,,,,,,,,,,,,,main,None,k,0,0.7726656000013463,577.4570971000066,None,None,1,,,,,,,,,,,,,,112,20,Female,2022-05-04_10h02.18.916,Parachute,2022.1.1,60.25577371629488,
negative,yellow,1,k,None,,,,,,,,,0,163,163,163,,,,,,,,,,,,,,,,,,,,,,,,,,,,,,,,,,,,,main,k,k,1,1.065578000008827,580.2461910000129,None,None,0,,,,,,,,,,,,,,112,20,Female,2022-05-04_10h02.18.916,Parachute,2022.1.1,60.25577371629488,
negative,yellow,1,k,None,,,,,,,,,0,164,164,164,,,,,,,,,,,,,,,,,,,,,,,,,,,,,,,,,,,,,main,k,k,1,1.2006641999760177,582.3221255000099,None,None,0,,,,,,,,,,,,,,112,20,Female,2022-05-04_10h02.18.916,Parachute,2022.1.1,60.25577371629488,
positive,yellow,1,None,k,,,,,,,,,0,165,165,165,,,,,,,,,,,,,,,,,,,,,,,,,,,,,,,,,,,,,main,None,None,1,1.5203280999849085,584.5151672000065,None,None,1,,,,,,,,,,,,,,112,20,Female,2022-05-04_10h02.18.916,Parachute,2022.1.1,60.25577371629488,
negative,red,1,None,None,,,,,,,,,0,166,166,166,,,,,,,,,,,,,,,,,,,,,,,,,,,,,,,,,,,,,main,None,None,1,1.5182230999926105,587.0544172000082,None,None,1,,,,,,,,,,,,,,112,20,Female,2022-05-04_10h02.18.916,Parachute,2022.1.1,60.25577371629488,
negative,yellow,2,k,None,,,,,,,,,0,167,167,167,,,,,,,,,,,,,,,,,,,,,,,,,,,,,,,,,,,,,main,k,k,1,0.8928665000130422,589.5753607999941,None,None,0,,,,,,,,,,,,,,112,20,Female,2022-05-04_10h02.18.916,Parachute,2022.1.1,60.25577371629488,
positive,blue,2,k,None,,,,,,,,,0,168,168,168,,,,,,,,,,,,,,,,,,,,,,,,,,,,,,,,,,,,,main,k,k,1,0.7168337999901269,591.4753033000161,None,None,0,,,,,,,,,,,,,,112,20,Female,2022-05-04_10h02.18.916,Parachute,2022.1.1,60.25577371629488,
positive,red,2,None,None,,,,,,,,,0,169,169,169,,,,,,,,,,,,,,,,,,,,,,,,,,,,,,,,,,,,,main,None,None,1,1.5090028999838978,593.2016434000107,None,None,1,,,,,,,,,,,,,,112,20,Female,2022-05-04_10h02.18.916,Parachute,2022.1.1,60.25577371629488,
positive,red,1,None,None,,,,,,,,,0,170,170,170,,,,,,,,,,,,,,,,,,,,,,,,,,,,,,,,,,,,,main,None,None,1,1.5029119999962859,595.7146154000075,None,None,1,,,,,,,,,,,,,,112,20,Female,2022-05-04_10h02.18.916,Parachute,2022.1.1,60.25577371629488,
negative,blue,2,None,k,,,,,,,,,0,171,171,171,,,,,,,,,,,,,,,,,,,,,,,,,,,,,,,,,,,,,main,None,None,1,1.5195602000167128,598.2243241000106,None,None,1,,,,,,,,,,,,,,112,20,Female,2022-05-04_10h02.18.916,Parachute,2022.1.1,60.25577371629488,
positive,blue,2,k,None,,,,,,,,,0,172,172,172,,,,,,,,,,,,,,,,,,,,,,,,,,,,,,,,,,,,,main,k,k,1,0.7458436999877449,600.7498194000218,None,None,0,,,,,,,,,,,,,,112,20,Female,2022-05-04_10h02.18.916,Parachute,2022.1.1,60.25577371629488,
negative,yellow,2,k,None,,,,,,,,,0,173,173,173,,,,,,,,,,,,,,,,,,,,,,,,,,,,,,,,,,,,,main,k,k,1,0.8029937000246719,602.4995167000161,None,None,0,,,,,,,,,,,,,,112,20,Female,2022-05-04_10h02.18.916,Parachute,2022.1.1,60.25577371629488,
positive,yellow,2,None,k,,,,,,,,,0,174,174,174,,,,,,,,,,,,,,,,,,,,,,,,,,,,,,,,,,,,,main,None,None,1,1.5316119999915827,604.3029304000083,None,None,1,,,,,,,,,,,,,,112,20,Female,2022-05-04_10h02.18.916,Parachute,2022.1.1,60.25577371629488,
negative,blue,2,None,k,,,,,,,,,0,175,175,175,,,,,,,,,,,,,,,,,,,,,,,,,,,,,,,,,,,,,main,None,None,1,1.513682599994354,606.8466972000024,None,None,1,,,,,,,,,,,,,,112,20,Female,2022-05-04_10h02.18.916,Parachute,2022.1.1,60.25577371629488,
positive,blue,1,k,None,,,,,,,,,0,176,176,176,,,,,,,,,,,,,,,,,,,,,,,,,,,,,,,,,,,,,main,k,k,1,0.7839040999824647,609.3672666000202,None,None,0,,,,,,,,,,,,,,112,20,Female,2022-05-04_10h02.18.916,Parachute,2022.1.1,60.25577371629488,
positive,yellow,1,None,k,,,,,,,,,0,177,177,177,,,,,,,,,,,,,,,,,,,,,,,,,,,,,,,,,,,,,main,None,None,1,1.5046989000111353,611.1560824000044,None,None,1,,,,,,,,,,,,,,112,20,Female,2022-05-04_10h02.18.916,Parachute,2022.1.1,60.25577371629488,
positive,blue,1,k,None,,,,,,,,,0,178,178,178,,,,,,,,,,,,,,,,,,,,,,,,,,,,,,,,,,,,,main,k,k,1,0.9075439999869559,613.6673333000217,None,None,0,,,,,,,,,,,,,,112,20,Female,2022-05-04_10h02.18.916,Parachute,2022.1.1,60.25577371629488,
positive,yellow,2,None,k,,,,,,,,,0,179,179,179,,,,,,,,,,,,,,,,,,,,,,,,,,,,,,,,,,,,,main,None,None,1,1.5224656999926083,615.5814776000043,None,None,1,,,,,,,,,,,,,,112,20,Female,2022-05-04_10h02.18.916,Parachute,2022.1.1,60.25577371629488,
positive,blue,1,k,None,,,,,,,,,0,180,180,180,,,,,,,,,,,,,,,,,,,,,,,,,,,,,,,,,,,,,main,k,k,1,0.8494124000135344,618.1099182000034,None,None,0,,,,,,,,,,,,,,112,20,Female,2022-05-04_10h02.18.916,Parachute,2022.1.1,60.25577371629488,
negative,red,1,None,None,,,,,,,,,0,181,181,181,,,,,,,,,,,,,,,,,,,,,,,,,,,,,,,,,,,,,main,None,None,1,1.5203585999843199,619.9689086000144,None,None,1,,,,,,,,,,,,,,112,20,Female,2022-05-04_10h02.18.916,Parachute,2022.1.1,60.25577371629488,
negative,blue,1,None,k,,,,,,,,,0,182,182,182,,,,,,,,,,,,,,,,,,,,,,,,,,,,,,,,,,,,,main,None,None,1,1.5095226999837905,622.4928683000035,None,None,1,,,,,,,,,,,,,,112,20,Female,2022-05-04_10h02.18.916,Parachute,2022.1.1,60.25577371629488,
negative,yellow,2,k,None,,,,,,,,,0,183,183,183,,,,,,,,,,,,,,,,,,,,,,,,,,,,,,,,,,,,,main,k,k,1,0.7776194000034593,625.0101280999952,None,None,0,,,,,,,,,,,,,,112,20,Female,2022-05-04_10h02.18.916,Parachute,2022.1.1,60.25577371629488,
positive,yellow,2,None,k,,,,,,,,,0,184,184,184,,,,,,,,,,,,,,,,,,,,,,,,,,,,,,,,,,,,,main,None,None,1,1.5084086999995634,626.7812408000173,None,None,1,,,,,,,,,,,,,,112,20,Female,2022-05-04_10h02.18.916,Parachute,2022.1.1,60.25577371629488,
positive,yellow,1,None,k,,,,,,,,,0,185,185,185,,,,,,,,,,,,,,,,,,,,,,,,,,,,,,,,,,,,,main,None,None,1,1.5159697000053711,629.2946959999972,None,None,1,,,,,,,,,,,,,,112,20,Female,2022-05-04_10h02.18.916,Parachute,2022.1.1,60.25577371629488,
positive,red,2,None,None,,,,,,,,,0,186,186,186,,,,,,,,,,,,,,,,,,,,,,,,,,,,,,,,,,,,,main,None,None,1,1.5128372000181116,631.8141954000166,None,None,1,,,,,,,,,,,,,,112,20,Female,2022-05-04_10h02.18.916,Parachute,2022.1.1,60.25577371629488,
positive,blue,1,k,None,,,,,,,,,0,187,187,187,,,,,,,,,,,,,,,,,,,,,,,,,,,,,,,,,,,,,main,k,k,1,0.8140732999891043,634.331542400003,None,None,0,,,,,,,,,,,,,,112,20,Female,2022-05-04_10h02.18.916,Parachute,2022.1.1,60.25577371629488,
negative,yellow,1,k,None,,,,,,,,,0,188,188,188,,,,,,,,,,,,,,,,,,,,,,,,,,,,,,,,,,,,,main,k,k,1,0.7871271000185516,636.1505906000093,None,None,0,,,,,,,,,,,,,,112,20,Female,2022-05-04_10h02.18.916,Parachute,2022.1.1,60.25577371629488,
positive,yellow,2,None,k,,,,,,,,,0,189,189,189,,,,,,,,,,,,,,,,,,,,,,,,,,,,,,,,,,,,,main,None,None,1,1.5179637999972329,637.9483300000138,None,None,1,,,,,,,,,,,,,,112,20,Female,2022-05-04_10h02.18.916,Parachute,2022.1.1,60.25577371629488,
negative,yellow,2,k,None,,,,,,,,,0,190,190,190,,,,,,,,,,,,,,,,,,,,,,,,,,,,,,,,,,,,,main,k,k,1,0.7543844000028912,640.4740189000149,None,None,0,,,,,,,,,,,,,,112,20,Female,2022-05-04_10h02.18.916,Parachute,2022.1.1,60.25577371629488,
negative,yellow,1,k,None,,,,,,,,,0,191,191,191,,,,,,,,,,,,,,,,,,,,,,,,,,,,,,,,,,,,,main,k,k,1,0.7191408000071533,642.2328617000021,None,None,0,,,,,,,,,,,,,,112,20,Female,2022-05-04_10h02.18.916,Parachute,2022.1.1,60.25577371629488,
positive,blue,2,k,None,,,,,,,,,0,192,192,192,,,,,,,,,,,,,,,,,,,,,,,,,,,,,,,,,,,,,main,k,k,1,0.8052700000116602,643.950582599995,None,None,0,,,,,,,,,,,,,,112,20,Female,2022-05-04_10h02.18.916,Parachute,2022.1.1,60.25577371629488,
positive,yellow,1,None,k,,,,,,,,,0,193,193,193,,,,,,,,,,,,,,,,,,,,,,,,,,,,,,,,,,,,,main,None,None,1,1.5073551000095904,645.7732495999953,None,None,1,,,,,,,,,,,,,,112,20,Female,2022-05-04_10h02.18.916,Parachute,2022.1.1,60.25577371629488,
negative,red,2,None,None,,,,,,,,,0,194,194,194,,,,,,,,,,,,,,,,,,,,,,,,,,,,,,,,,,,,,main,None,None,1,1.519131999986712,648.2836308999977,None,None,1,,,,,,,,,,,,,,112,20,Female,2022-05-04_10h02.18.916,Parachute,2022.1.1,60.25577371629488,
positive,red,1,None,None,,,,,,,,,0,195,195,195,,,,,,,,,,,,,,,,,,,,,,,,,,,,,,,,,,,,,main,None,None,1,1.5189328000124078,650.8101944999944,None,None,1,,,,,,,,,,,,,,112,20,Female,2022-05-04_10h02.18.916,Parachute,2022.1.1,60.25577371629488,
negative,blue,1,None,k,,,,,,,,,0,196,196,196,,,,,,,,,,,,,,,,,,,,,,,,,,,,,,,,,,,,,main,None,None,1,1.525644800014561,653.3360206000216,None,None,1,,,,,,,,,,,,,,112,20,Female,2022-05-04_10h02.18.916,Parachute,2022.1.1,60.25577371629488,
positive,blue,2,k,None,,,,,,,,,0,197,197,197,,,,,,,,,,,,,,,,,,,,,,,,,,,,,,,,,,,,,main,k,k,1,0.7543471999815665,655.8672229000076,None,None,0,,,,,,,,,,,,,,112,20,Female,2022-05-04_10h02.18.916,Parachute,2022.1.1,60.25577371629488,
negative,blue,2,None,k,,,,,,,,,0,198,198,198,,,,,,,,,,,,,,,,,,,,,,,,,,,,,,,,,,,,,main,None,None,1,1.5252636999939568,657.6260790000088,None,None,1,,,,,,,,,,,,,,112,20,Female,2022-05-04_10h02.18.916,Parachute,2022.1.1,60.25577371629488,
negative,blue,2,None,k,,,,,,,,,0,199,199,199,,,,,,,,,,,,,,,,,,,,,,,,,,,,,,,,,,,,,main,None,None,1,1.5220130999805406,660.1588533000031,None,None,1,,,,,,,,,,,,,,112,20,Female,2022-05-04_10h02.18.916,Parachute,2022.1.1,60.25577371629488,
positive,blue,2,k,None,,,,,,,,,0,200,200,200,,,,,,,,,,,,,,,,,,,,,,,,,,,,,,,,,,,,,main,k,k,1,1.0608939999947324,662.6871658000164,None,None,0,,,,,,,,,,,,,,112,20,Female,2022-05-04_10h02.18.916,Parachute,2022.1.1,60.25577371629488,
positive,blue,2,k,None,,,,,,,,,0,201,201,201,,,,,,,,,,,,,,,,,,,,,,,,,,,,,,,,,,,,,main,k,k,1,0.6033660999964923,664.757644199999,None,None,0,,,,,,,,,,,,,,112,20,Female,2022-05-04_10h02.18.916,Parachute,2022.1.1,60.25577371629488,
negative,yellow,2,k,None,,,,,,,,,0,202,202,202,,,,,,,,,,,,,,,,,,,,,,,,,,,,,,,,,,,,,main,k,k,1,0.7839719000039622,666.352760800015,None,None,0,,,,,,,,,,,,,,112,20,Female,2022-05-04_10h02.18.916,Parachute,2022.1.1,60.25577371629488,
positive,red,1,None,None,,,,,,,,,0,203,203,203,,,,,,,,,,,,,,,,,,,,,,,,,,,,,,,,,,,,,main,None,None,1,1.532236600003671,668.1400749000022,None,None,1,,,,,,,,,,,,,,112,20,Female,2022-05-04_10h02.18.916,Parachute,2022.1.1,60.25577371629488,
negative,blue,2,None,k,,,,,,,,,0,204,204,204,,,,,,,,,,,,,,,,,,,,,,,,,,,,,,,,,,,,,main,None,None,1,1.5111467000097036,670.6863963000069,None,None,1,,,,,,,,,,,,,,112,20,Female,2022-05-04_10h02.18.916,Parachute,2022.1.1,60.25577371629488,
negative,red,1,None,None,,,,,,,,,0,205,205,205,,,,,,,,,,,,,,,,,,,,,,,,,,,,,,,,,,,,,main,None,None,1,1.5268462000240106,673.2024789999996,None,None,1,,,,,,,,,,,,,,112,20,Female,2022-05-04_10h02.18.916,Parachute,2022.1.1,60.25577371629488,
negative,blue,2,None,k,,,,,,,,,0,206,206,206,,,,,,,,,,,,,,,,,,,,,,,,,,,,,,,,,,,,,main,None,None,1,1.5184017000137828,675.7350666999992,None,None,1,,,,,,,,,,,,,,112,20,Female,2022-05-04_10h02.18.916,Parachute,2022.1.1,60.25577371629488,
negative,yellow,2,k,None,,,,,,,,,0,207,207,207,,,,,,,,,,,,,,,,,,,,,,,,,,,,,,,,,,,,,main,k,k,1,0.8075139000138734,678.2619285999972,None,None,0,,,,,,,,,,,,,,112,20,Female,2022-05-04_10h02.18.916,Parachute,2022.1.1,60.25577371629488,
positive,yellow,2,None,k,,,,,,,,,0,208,208,208,,,,,,,,,,,,,,,,,,,,,,,,,,,,,,,,,,,,,main,None,None,1,1.515658499993151,680.0661184000201,None,None,1,,,,,,,,,,,,,,112,20,Female,2022-05-04_10h02.18.916,Parachute,2022.1.1,60.25577371629488,
negative,yellow,1,k,None,,,,,,,,,0,209,209,209,,,,,,,,,,,,,,,,,,,,,,,,,,,,,,,,,,,,,main,k,k,1,0.8660224000050221,682.5924459999951,None,None,0,,,,,,,,,,,,,,112,20,Female,2022-05-04_10h02.18.916,Parachute,2022.1.1,60.25577371629488,
negative,red,2,None,None,,,,,,,,,0,210,210,210,,,,,,,,,,,,,,,,,,,,,,,,,,,,,,,,,,,,,main,None,None,1,1.532476200023666,684.4581610000168,None,None,1,,,,,,,,,,,,,,112,20,Female,2022-05-04_10h02.18.916,Parachute,2022.1.1,60.25577371629488,
negative,blue,1,None,k,,,,,,,,,0,211,211,211,,,,,,,,,,,,,,,,,,,,,,,,,,,,,,,,,,,,,main,None,None,1,1.511230500007514,687.0029001000221,None,None,1,,,,,,,,,,,,,,112,20,Female,2022-05-04_10h02.18.916,Parachute,2022.1.1,60.25577371629488,
negative,yellow,1,k,None,,,,,,,,,0,212,212,212,,,,,,,,,,,,,,,,,,,,,,,,,,,,,,,,,,,,,main,k,k,1,0.8323948000033852,689.521249900019,None,None,0,,,,,,,,,,,,,,112,20,Female,2022-05-04_10h02.18.916,Parachute,2022.1.1,60.25577371629488,
positive,blue,1,k,None,,,,,,,,,0,213,213,213,,,,,,,,,,,,,,,,,,,,,,,,,,,,,,,,,,,,,main,k,k,1,0.6664998999913223,691.3491997999954,None,None,0,,,,,,,,,,,,,,112,20,Female,2022-05-04_10h02.18.916,Parachute,2022.1.1,60.25577371629488,
positive,blue,1,k,None,,,,,,,,,0,214,214,214,,,,,,,,,,,,,,,,,,,,,,,,,,,,,,,,,,,,,main,k,k,1,0.6474368000053801,693.0222960000101,None,None,0,,,,,,,,,,,,,,112,20,Female,2022-05-04_10h02.18.916,Parachute,2022.1.1,60.25577371629488,
positive,yellow,1,None,k,,,,,,,,,0,215,215,215,,,,,,,,,,,,,,,,,,,,,,,,,,,,,,,,,,,,,main,None,None,1,1.506329800002277,694.6789569999964,None,None,1,,,,,,,,,,,,,,112,20,Female,2022-05-04_10h02.18.916,Parachute,2022.1.1,60.25577371629488,
positive,yellow,1,None,k,,,,,,,,,0,216,216,216,,,,,,,,,,,,,,,,,,,,,,,,,,,,,,,,,,,,,main,None,None,1,1.5069426000118256,697.1976483000035,None,None,1,,,,,,,,,,,,,,112,20,Female,2022-05-04_10h02.18.916,Parachute,2022.1.1,60.25577371629488,
positive,yellow,2,None,k,,,,,,,,,0,217,217,217,,,,,,,,,,,,,,,,,,,,,,,,,,,,,,,,,,,,,main,None,None,1,1.5102021000056993,699.7088824000093,None,None,1,,,,,,,,,,,,,,112,20,Female,2022-05-04_10h02.18.916,Parachute,2022.1.1,60.25577371629488,
negative,blue,1,None,k,,,,,,,,,0,218,218,218,,,,,,,,,,,,,,,,,,,,,,,,,,,,,,,,,,,,,main,None,None,1,1.504115699994145,702.2259048999986,None,None,1,,,,,,,,,,,,,,112,20,Female,2022-05-04_10h02.18.916,Parachute,2022.1.1,60.25577371629488,
positive,red,2,None,None,,,,,,,,,0,219,219,219,,,,,,,,,,,,,,,,,,,,,,,,,,,,,,,,,,,,,main,None,None,1,1.5183277999749407,704.7351330000092,None,None,1,,,,,,,,,,,,,,112,20,Female,2022-05-04_10h02.18.916,Parachute,2022.1.1,60.25577371629488,
positive,yellow,1,None,k,,,,,,,,,0,220,220,220,,,,,,,,,,,,,,,,,,,,,,,,,,,,,,,,,,,,,main,None,None,1,1.525993599992944,707.2605562999961,None,None,1,,,,,,,,,,,,,,112,20,Female,2022-05-04_10h02.18.916,Parachute,2022.1.1,60.25577371629488,
positive,blue,1,k,None,,,,,,,,,0,221,221,221,,,,,,,,,,,,,,,,,,,,,,,,,,,,,,,,,,,,,main,k,k,1,1.0035819000040647,709.7937852000177,None,None,0,,,,,,,,,,,,,,112,20,Female,2022-05-04_10h02.18.916,Parachute,2022.1.1,60.25577371629488,
positive,yellow,2,None,k,,,,,,,,,0,222,222,222,,,,,,,,,,,,,,,,,,,,,,,,,,,,,,,,,,,,,main,None,None,1,1.51267860000371,711.7971184000198,None,None,1,,,,,,,,,,,,,,112,20,Female,2022-05-04_10h02.18.916,Parachute,2022.1.1,60.25577371629488,
negative,yellow,1,k,None,,,,,,,,,0,223,223,223,,,,,,,,,,,,,,,,,,,,,,,,,,,,,,,,,,,,,main,k,k,1,0.7255965000076685,714.3190760000143,None,None,0,,,,,,,,,,,,,,112,20,Female,2022-05-04_10h02.18.916,Parachute,2022.1.1,60.25577371629488,
positive,yellow,2,None,k,,,,,,,,,0,224,224,224,,,,,,,,,,,,,,,,,,,,,,,,,,,,,,,,,,,,,main,None,None,1,1.531577899993863,716.0420811000222,None,None,1,,,,,,,,,,,,,,112,20,Female,2022-05-04_10h02.18.916,Parachute,2022.1.1,60.25577371629488,
negative,yellow,2,k,None,,,,,,,,,0,225,225,225,,,,,,,,,,,,,,,,,,,,,,,,,,,,,,,,,,,,,main,k,k,1,0.7357642999850214,718.5862965999986,None,None,0,,,,,,,,,,,,,,112,20,Female,2022-05-04_10h02.18.916,Parachute,2022.1.1,60.25577371629488,
negative,blue,2,None,k,,,,,,,,,0,226,226,226,,,,,,,,,,,,,,,,,,,,,,,,,,,,,,,,,,,,,main,None,None,1,1.5221159999782685,720.3211996000027,None,None,1,,,,,,,,,,,,,,112,20,Female,2022-05-04_10h02.18.916,Parachute,2022.1.1,60.25577371629488,
positive,red,2,None,None,,,,,,,,,0,227,227,227,,,,,,,,,,,,,,,,,,,,,,,,,,,,,,,,,,,,,main,None,None,1,1.5076781999960076,722.8578695000033,None,None,1,,,,,,,,,,,,,,112,20,Female,2022-05-04_10h02.18.916,Parachute,2022.1.1,60.25577371629488,
positive,blue,2,k,None,,,,,,,,,0,228,228,228,,,,,,,,,,,,,,,,,,,,,,,,,,,,,,,,,,,,,main,k,k,1,1.1221882000099868,725.3699747000064,None,None,0,,,,,,,,,,,,,,112,20,Female,2022-05-04_10h02.18.916,Parachute,2022.1.1,60.25577371629488,
negative,blue,1,None,k,,,,,,,,,0,229,229,229,,,,,,,,,,,,,,,,,,,,,,,,,,,,,,,,,,,,,main,None,None,1,1.515932399983285,727.4988133000152,None,None,1,,,,,,,,,,,,,,112,20,Female,2022-05-04_10h02.18.916,Parachute,2022.1.1,60.25577371629488,
positive,yellow,1,None,k,,,,,,,,,0,230,230,230,,,,,,,,,,,,,,,,,,,,,,,,,,,,,,,,,,,,,main,None,None,1,1.5169605999835767,730.0198519999976,None,None,1,,,,,,,,,,,,,,112,20,Female,2022-05-04_10h02.18.916,Parachute,2022.1.1,60.25577371629488,
negative,blue,2,None,k,,,,,,,,,0,231,231,231,,,,,,,,,,,,,,,,,,,,,,,,,,,,,,,,,,,,,main,None,None,1,1.5081013000162784,732.5435466000054,None,None,1,,,,,,,,,,,,,,112,20,Female,2022-05-04_10h02.18.916,Parachute,2022.1.1,60.25577371629488,
negative,red,1,None,None,,,,,,,,,0,232,232,232,,,,,,,,,,,,,,,,,,,,,,,,,,,,,,,,,,,,,main,None,None,1,1.5059579000226222,735.0582208000124,None,None,1,,,,,,,,,,,,,,112,20,Female,2022-05-04_10h02.18.916,Parachute,2022.1.1,60.25577371629488,
positive,blue,2,k,None,,,,,,,,,0,233,233,233,,,,,,,,,,,,,,,,,,,,,,,,,,,,,,,,,,,,,main,k,k,1,1.3959350000077393,737.5700376000023,None,None,0,,,,,,,,,,,,,,112,20,Female,2022-05-04_10h02.18.916,Parachute,2022.1.1,60.25577371629488,
negative,yellow,1,k,None,,,,,,,,,0,234,234,234,,,,,,,,,,,,,,,,,,,,,,,,,,,,,,,,,,,,,main,k,k,1,0.6827978999936022,739.9746183000098,None,None,0,,,,,,,,,,,,,,112,20,Female,2022-05-04_10h02.18.916,Parachute,2022.1.1,60.25577371629488,
negative,yellow,2,k,None,,,,,,,,,0,235,235,235,,,,,,,,,,,,,,,,,,,,,,,,,,,,,,,,,,,,,main,k,k,1,0.7831281000107992,741.661499800015,None,None,0,,,,,,,,,,,,,,112,20,Female,2022-05-04_10h02.18.916,Parachute,2022.1.1,60.25577371629488,
positive,red,1,None,None,,,,,,,,,0,236,236,236,,,,,,,,,,,,,,,,,,,,,,,,,,,,,,,,,,,,,main,None,None,1,1.5259188000054564,743.4512279000191,None,None,1,,,,,,,,,,,,,,112,20,Female,2022-05-04_10h02.18.916,Parachute,2022.1.1,60.25577371629488,
negative,red,2,None,None,,,,,,,,,0,237,237,237,,,,,,,,,,,,,,,,,,,,,,,,,,,,,,,,,,,,,main,None,None,1,1.5221137000189628,745.983260500012,None,None,1,,,,,,,,,,,,,,112,20,Female,2022-05-04_10h02.18.916,Parachute,2022.1.1,60.25577371629488,
negative,blue,1,None,k,,,,,,,,,0,238,238,238,,,,,,,,,,,,,,,,,,,,,,,,,,,,,,,,,,,,,main,None,None,1,1.5185060999938287,748.5148307000054,None,None,1,,,,,,,,,,,,,,112,20,Female,2022-05-04_10h02.18.916,Parachute,2022.1.1,60.25577371629488,
positive,blue,1,k,None,,,,,,,,,0,239,239,239,,,,,,,,,,,,,,,,,,,,,,,,,,,,,,,,,,,,,main,k,k,1,0.7198564999853261,751.0366901000089,None,None,0,,,,,,,,,,,,,,112,20,Female,2022-05-04_10h02.18.916,Parachute,2022.1.1,60.25577371629488,
,,,,,,,,,,,,,,,,,,,,,,,,,,,,,,,,,,,,,,,,,,,,,,,,,,,,,,,,,,,,,,,,,,,,,,,,,752.7529536999937,None,,,,,,,,
