distractor,target,set,ans1,ans2,rep_loop4.thisRepN,rep_loop4.thisTrialN,rep_loop4.thisN,rep_loop4.thisIndex,st2_prac_loop.thisRepN,st2_prac_loop.thisTrialN,st2_prac_loop.thisN,st2_prac_loop.thisIndex,st2_main_loop.thisRepN,st2_main_loop.thisTrialN,st2_main_loop.thisN,st2_main_loop.thisIndex,image_4.started,image_4.stopped,mouse_7.x,mouse_7.y,mouse_7.leftButton,mouse_7.midButton,mouse_7.rightButton,sound_2.started,sound_2.stopped,key_resp_3.keys,mouse_5.x,mouse_5.y,mouse_5.leftButton,mouse_5.midButton,mouse_5.rightButton,mouse_5.started,mouse_5.stopped,yes_text2.started,yes_text2.stopped,no_text2.started,no_text2.stopped,mouse_3.x,mouse_3.y,mouse_3.leftButton,mouse_3.midButton,mouse_3.rightButton,mouse_3.started,mouse_3.stopped,mouse_3.clicked_name,st_prac_back.started,st_prac_back.stopped,st_prac_text.started,st_prac_text.stopped,st_fix_back.started,st_fix_back.stopped,st_fix_2.started,st_fix_2.stopped,main_prac,st_ans,st_res,st_corr,st_rt,st_back.started,st_back.stopped,st2_resp.keys,st2_resp.corr,st_main_back.started,st_main_back.stopped,st_main_text.started,st_main_text.stopped,mouse_4.x,mouse_4.y,mouse_4.leftButton,mouse_4.midButton,mouse_4.rightButton,mouse_4.started,mouse_4.stopped,text_2.started,text_2.stopped,id*,age*,gender*,date,expName,psychopyVersion,frameRate,
,,,,,,,,,,,,,,,,,32.40771240001777,None,-0.3351852,0.25,0,0,0,,,,,,,,,,,,,,,,,,,,,,,,,,,,,,,,,,,,,,,,,,,,,,,,,,,,,113,26,Male,2022-05-04_12h33.39.371,Parachute,2022.1.1,59.89311474584101,
negative,yellow,1,k,None,,,,,0,0,0,0,,,,,,,,,,,,39.78088658000634,None,None,0.044444446,-0.07777778,0,0,0,1.0057018999941647,None,101.96550120000029,None,101.96550120000029,None,-0.10925926,-0.119444445,0,0,0,0.01124337999499403,None,no_area2,102.18374740000581,None,102.18374740000581,None,104.19393950002268,None,104.19393950002268,None,prac,None,None,1,1.5099922000081278,106.21188400001847,None,None,1,,,,,,,,,,,,,,113,26,Male,2022-05-04_12h33.39.371,Parachute,2022.1.1,59.89311474584101,
positive,red,2,None,None,,,,,0,1,1,1,,,,,,,,,,,,,,,,,,,,,,,,,,,,,,,,,,,,,,,,,,prac,None,None,1,1.4983728000079282,108.69945650000591,None,None,1,,,,,,,,,,,,,,113,26,Male,2022-05-04_12h33.39.371,Parachute,2022.1.1,59.89311474584101,
negative,blue,2,None,k,,,,,0,2,2,2,,,,,,,,,,,,,,,,,,,,,,,,,,,,,,,,,,,,,,,,,,prac,k,k,1,0.7510029999830294,111.199463500001,None,None,0,,,,,,,,,,,,,,113,26,Male,2022-05-04_12h33.39.371,Parachute,2022.1.1,59.89311474584101,
positive,yellow,1,None,k,,,,,0,3,3,3,,,,,,,,,,,,,,,,,,,,,,,,,,,,,,,,,,,,,,,,,,prac,k,k,1,0.8661288000002969,112.95332830000552,None,None,0,,,,,,,,,,,,,,113,26,Male,2022-05-04_12h33.39.371,Parachute,2022.1.1,59.89311474584101,
negative,blue,2,None,k,,,,,0,4,4,4,,,,,,,,,,,,,,,,,,,,,,,,,,,,,,,,,,,,,,,,,,prac,k,k,1,0.8468747999868356,114.82029890001286,None,None,0,,,,,,,,,,,,,,113,26,Male,2022-05-04_12h33.39.371,Parachute,2022.1.1,59.89311474584101,
negative,blue,1,None,k,,,,,0,5,5,5,,,,,,,,,,,,,,,,,,,,,,,,,,,,,,,,,,,,,,,,,,prac,k,k,1,0.9685257000091951,116.66836250000051,None,None,0,,,,,,,,,,,,,,113,26,Male,2022-05-04_12h33.39.371,Parachute,2022.1.1,59.89311474584101,
negative,yellow,2,k,None,,,,,0,6,6,6,,,,,,,,,,,,,,,,,,,,,,,,,,,,,,,,,,,,,,,,,,prac,None,None,1,1.4932897000107914,118.63759759999812,None,None,1,,,,,,,,,,,,,,113,26,Male,2022-05-04_12h33.39.371,Parachute,2022.1.1,59.89311474584101,
negative,red,1,None,None,,,,,0,7,7,7,,,,,,,,,,,,,,,,,,,,,,,,,,,,,,,,,,,,,,,,,,prac,None,None,1,1.4990029000036884,121.13312000001315,None,None,1,,,,,,,,,,,,,,113,26,Male,2022-05-04_12h33.39.371,Parachute,2022.1.1,59.89311474584101,
positive,yellow,2,None,k,,,,,0,8,8,8,,,,,,,,,,,,,,,,,,,,,,,,,,,,,,,,,,,,,,,,,,prac,k,k,1,0.8361820999998599,123.63397320001968,None,None,0,,,,,,,,,,,,,,113,26,Male,2022-05-04_12h33.39.371,Parachute,2022.1.1,59.89311474584101,
negative,yellow,1,k,None,,,,,0,9,9,9,,,,,,,,,,,,,,,,,,,,,,,,,,,,,,,,,,,,,,,,,,prac,None,None,1,1.5101444000029005,125.47171070001787,None,None,1,,,,,,,,,,,,,,113,26,Male,2022-05-04_12h33.39.371,Parachute,2022.1.1,59.89311474584101,
positive,yellow,2,None,k,,,,,0,10,10,10,,,,,,,,,,,,,,,,,,,,,,,,,,,,,,,,,,,,,,,,,,prac,k,k,1,0.7681316000234801,127.9842829000263,None,None,0,,,,,,,,,,,,,,113,26,Male,2022-05-04_12h33.39.371,Parachute,2022.1.1,59.89311474584101,
negative,yellow,2,k,None,,,,,0,11,11,11,,,,,,,,,,,,,,,,,,,,,,,,,,,,,,,,,,,,,,,,,,prac,None,None,1,1.4946738999860827,129.7538092000177,None,None,1,,,,,,,,,,,,,,113,26,Male,2022-05-04_12h33.39.371,Parachute,2022.1.1,59.89311474584101,
negative,red,2,None,None,,,,,0,12,12,12,,,,,,,,,,,,,,,,,,,,,,,,,,,,,,,,,,,,,,,,,,prac,None,None,1,1.4986016000038944,132.24951770002372,None,None,1,,,,,,,,,,,,,,113,26,Male,2022-05-04_12h33.39.371,Parachute,2022.1.1,59.89311474584101,
positive,red,1,None,None,,,,,0,13,13,13,,,,,,,,,,,,,,,,,,,,,,,,,,,,,,,,,,,,,,,,,,prac,None,None,1,1.499539000011282,134.74934870001744,None,None,1,,,,,,,,,,,,,,113,26,Male,2022-05-04_12h33.39.371,Parachute,2022.1.1,59.89311474584101,
positive,blue,2,k,None,,,,,0,14,14,14,,,,,,,,,,,,,,,,,,,,,,,,,,,,,,,,,,,,,,,,,,prac,None,None,1,1.4979348999913782,137.25011860000086,None,None,1,,,,,,,,,,,,,,113,26,Male,2022-05-04_12h33.39.371,Parachute,2022.1.1,59.89311474584101,
positive,blue,1,k,None,,,,,0,15,15,15,,,,,,,,,,,,,,,,,,,,,,,,,,,,,,,,,,,,,,,,,,prac,None,None,1,1.4988883000041824,139.74977740002214,None,None,1,,,,,,,,,,,,,,113,26,Male,2022-05-04_12h33.39.371,Parachute,2022.1.1,59.89311474584101,
negative,blue,1,None,k,,,,,0,16,16,16,,,,,,,,,,,,,,,,,,,,,,,,,,,,,,,,,,,,,,,,,,prac,k,k,1,0.7366502999793738,142.25013080000645,None,None,0,,,,,,,,,,,,,,113,26,Male,2022-05-04_12h33.39.371,Parachute,2022.1.1,59.89311474584101,
positive,blue,2,k,None,,,,,0,17,17,17,,,,,,,,,,,,,,,,,,,,,,,,,,,,,,,,,,,,,,,,,,prac,None,None,1,1.4940736999851651,143.98848480000743,None,None,1,,,,,,,,,,,,,,113,26,Male,2022-05-04_12h33.39.371,Parachute,2022.1.1,59.89311474584101,
positive,blue,1,k,None,,,,,0,18,18,18,,,,,,,,,,,,,,,,,,,,,,,,,,,,,,,,,,,,,,,,,,prac,None,None,1,1.497737400000915,146.48549740001909,None,None,1,,,,,,,,,,,,,,113,26,Male,2022-05-04_12h33.39.371,Parachute,2022.1.1,59.89311474584101,
positive,yellow,1,None,k,,,,,0,19,19,19,,,,,,,,,,,,,,,,,,,,,,,,,,,,,,,,,,,,,,,,,,prac,k,k,1,0.7839154000103008,148.98302189999959,None,None,0,,,,,,,,,,,,,,113,26,Male,2022-05-04_12h33.39.371,Parachute,2022.1.1,59.89311474584101,
negative,yellow,1,k,None,,,,,1,0,20,0,,,,,,,,,,,,,,,,,,,,,,,,,,,,,,,,,,,,,,,,,,prac,None,None,1,1.4971240000159014,150.76901780001936,None,None,1,,,,,,,,,,,,,,113,26,Male,2022-05-04_12h33.39.371,Parachute,2022.1.1,59.89311474584101,
positive,red,2,None,None,,,,,1,1,21,1,,,,,,,,,,,,,,,,,,,,,,,,,,,,,,,,,,,,,,,,,,prac,None,None,1,1.4982452999975067,153.26756550002028,None,None,1,,,,,,,,,,,,,,113,26,Male,2022-05-04_12h33.39.371,Parachute,2022.1.1,59.89311474584101,
negative,blue,2,None,k,,,,,1,2,22,2,,,,,,,,,,,,,,,,,,,,,,,,,,,,,,,,,,,,,,,,,,prac,k,k,1,0.8034365000203252,155.76741480000783,None,None,0,,,,,,,,,,,,,,113,26,Male,2022-05-04_12h33.39.371,Parachute,2022.1.1,59.89311474584101,
positive,yellow,1,None,k,,,,,1,3,23,3,,,,,,,,,,,,,,,,,,,,,,,,,,,,,,,,,,,,,,,,,,prac,k,k,1,0.7415715999959502,157.57132650000858,None,None,0,,,,,,,,,,,,,,113,26,Male,2022-05-04_12h33.39.371,Parachute,2022.1.1,59.89311474584101,
negative,blue,2,None,k,,,,,1,4,24,4,,,,,,,,,,,,,,,,,,,,,,,,,,,,,,,,,,,,,,,,,,prac,k,k,1,0.9043454000202473,159.31648940002196,None,None,0,,,,,,,,,,,,,,113,26,Male,2022-05-04_12h33.39.371,Parachute,2022.1.1,59.89311474584101,
negative,blue,1,None,k,,,,,1,5,25,5,,,,,,,,,,,,,,,,,,,,,,,,,,,,,,,,,,,,,,,,,,prac,k,k,1,0.9826337000122294,161.2214084000152,None,None,0,,,,,,,,,,,,,,113,26,Male,2022-05-04_12h33.39.371,Parachute,2022.1.1,59.89311474584101,
negative,yellow,2,k,None,,,,,1,6,26,6,,,,,,,,,,,,,,,,,,,,,,,,,,,,,,,,,,,,,,,,,,prac,None,None,1,1.4935380999813788,163.2048259000003,None,None,1,,,,,,,,,,,,,,113,26,Male,2022-05-04_12h33.39.371,Parachute,2022.1.1,59.89311474584101,
negative,red,1,None,None,,,,,1,7,27,7,,,,,,,,,,,,,,,,,,,,,,,,,,,,,,,,,,,,,,,,,,prac,None,None,1,1.4986321000033058,165.700123800023,None,None,1,,,,,,,,,,,,,,113,26,Male,2022-05-04_12h33.39.371,Parachute,2022.1.1,59.89311474584101,
positive,yellow,2,None,k,,,,,1,8,28,8,,,,,,,,,,,,,,,,,,,,,,,,,,,,,,,,,,,,,,,,,,prac,k,k,1,1.1519867999886628,168.20072049999726,None,None,0,,,,,,,,,,,,,,113,26,Male,2022-05-04_12h33.39.371,Parachute,2022.1.1,59.89311474584101,
negative,yellow,1,k,None,,,,,1,9,29,9,,,,,,,,,,,,,,,,,,,,,,,,,,,,,,,,,,,,,,,,,,prac,None,None,1,1.495754700008547,170.35461790001136,None,None,1,,,,,,,,,,,,,,113,26,Male,2022-05-04_12h33.39.371,Parachute,2022.1.1,59.89311474584101,
positive,yellow,2,None,k,,,,,1,10,30,10,,,,,,,,,,,,,,,,,,,,,,,,,,,,,,,,,,,,,,,,,,prac,k,k,1,1.15032169999904,172.85026510001626,None,None,0,,,,,,,,,,,,,,113,26,Male,2022-05-04_12h33.39.371,Parachute,2022.1.1,59.89311474584101,
negative,yellow,2,k,None,,,,,1,11,31,11,,,,,,,,,,,,,,,,,,,,,,,,,,,,,,,,,,,,,,,,,,prac,None,None,1,1.4970596999919508,175.00296569999773,None,None,1,,,,,,,,,,,,,,113,26,Male,2022-05-04_12h33.39.371,Parachute,2022.1.1,59.89311474584101,
negative,red,2,None,None,,,,,1,12,32,12,,,,,,,,,,,,,,,,,,,,,,,,,,,,,,,,,,,,,,,,,,prac,None,None,1,1.4983966999861877,177.5006432000082,None,None,1,,,,,,,,,,,,,,113,26,Male,2022-05-04_12h33.39.371,Parachute,2022.1.1,59.89311474584101,
positive,red,1,None,None,,,,,1,13,33,13,,,,,,,,,,,,,,,,,,,,,,,,,,,,,,,,,,,,,,,,,,prac,None,None,1,1.4986178999824915,180.00042860000394,None,None,1,,,,,,,,,,,,,,113,26,Male,2022-05-04_12h33.39.371,Parachute,2022.1.1,59.89311474584101,
positive,blue,2,k,None,,,,,1,14,34,14,,,,,,,,,,,,,,,,,,,,,,,,,,,,,,,,,,,,,,,,,,prac,None,None,1,1.4985152000153903,182.50093010001,None,None,1,,,,,,,,,,,,,,113,26,Male,2022-05-04_12h33.39.371,Parachute,2022.1.1,59.89311474584101,
positive,blue,1,k,None,,,,,1,15,35,15,,,,,,,,,,,,,,,,,,,,,,,,,,,,,,,,,,,,,,,,,,prac,None,None,1,1.4989632999931928,185.00073850000626,None,None,1,,,,,,,,,,,,,,113,26,Male,2022-05-04_12h33.39.371,Parachute,2022.1.1,59.89311474584101,
negative,blue,1,None,k,,,,,1,16,36,16,,,,,,,,,,,,,,,,,,,,,,,,,,,,,,,,,,,,,,,,,,prac,k,k,1,1.086926299991319,187.5009511000244,None,None,0,,,,,,,,,,,,,,113,26,Male,2022-05-04_12h33.39.371,Parachute,2022.1.1,59.89311474584101,
positive,blue,2,k,None,,,,,1,17,37,17,,,,,,,,,,,,,,,,,,,,,,,,,,,,,,,,,,,,,,,,,,prac,None,None,1,1.4940430000133347,189.5886715000088,None,None,1,,,,,,,,,,,,,,113,26,Male,2022-05-04_12h33.39.371,Parachute,2022.1.1,59.89311474584101,
positive,blue,1,k,None,,,,,1,18,38,18,,,,,,,,,,,,,,,,,,,,,,,,,,,,,,,,,,,,,,,,,,prac,None,None,1,1.4985481999756303,192.0848369000014,None,None,1,,,,,,,,,,,,,,113,26,Male,2022-05-04_12h33.39.371,Parachute,2022.1.1,59.89311474584101,
positive,yellow,1,None,k,,,,,1,19,39,19,,,,,,,,,,,,,,,,,,,,,,,,,,,,,,,,,,,,,,,,,,prac,k,k,1,0.8684010999859311,194.58554200001527,None,None,0,,,,,,,,,,,,,,113,26,Male,2022-05-04_12h33.39.371,Parachute,2022.1.1,59.89311474584101,
,,,,,,,,,,,,,,,,,,,,,,,,,,,,,,,,,,,,,,,,,,,,,,,,,,,,,,,,,,,,,,,196.46959200000856,None,196.46959200000856,None,0.15833333,-0.06574074,0,0,0,0.012411479983711615,None,,,113,26,Male,2022-05-04_12h33.39.371,Parachute,2022.1.1,59.89311474584101,
negative,yellow,2,k,None,,,,,,,,,0,0,0,0,,,,,,,,,,,,,,,,,,,,,,,,,,,,,,,,,,201.61802150000585,None,201.61802150000585,None,main,None,None,1,1.4965482999978121,203.65171510001528,None,None,1,,,,,,,,,,,,,,113,26,Male,2022-05-04_12h33.39.371,Parachute,2022.1.1,59.89311474584101,
positive,red,1,None,None,,,,,,,,,0,1,1,1,,,,,,,,,,,,,,,,,,,,,,,,,,,,,,,,,,,,,,main,None,None,1,1.4984952000086196,206.15135320002446,None,None,1,,,,,,,,,,,,,,113,26,Male,2022-05-04_12h33.39.371,Parachute,2022.1.1,59.89311474584101,
positive,blue,2,k,None,,,,,,,,,0,2,2,2,,,,,,,,,,,,,,,,,,,,,,,,,,,,,,,,,,,,,,main,None,None,1,1.4990110000071581,208.6510571000108,None,None,1,,,,,,,,,,,,,,113,26,Male,2022-05-04_12h33.39.371,Parachute,2022.1.1,59.89311474584101,
positive,blue,1,k,None,,,,,,,,,0,3,3,3,,,,,,,,,,,,,,,,,,,,,,,,,,,,,,,,,,,,,,main,None,None,1,1.4991353999939747,211.1514488000248,None,None,1,,,,,,,,,,,,,,113,26,Male,2022-05-04_12h33.39.371,Parachute,2022.1.1,59.89311474584101,
negative,yellow,2,k,None,,,,,,,,,0,4,4,4,,,,,,,,,,,,,,,,,,,,,,,,,,,,,,,,,,,,,,main,None,None,1,1.4987025000154972,213.6516385000141,None,None,1,,,,,,,,,,,,,,113,26,Male,2022-05-04_12h33.39.371,Parachute,2022.1.1,59.89311474584101,
positive,yellow,2,None,k,,,,,,,,,0,5,5,5,,,,,,,,,,,,,,,,,,,,,,,,,,,,,,,,,,,,,,main,k,k,1,0.9535156000056304,216.15135460000602,None,None,0,,,,,,,,,,,,,,113,26,Male,2022-05-04_12h33.39.371,Parachute,2022.1.1,59.89311474584101,
negative,blue,2,None,k,,,,,,,,,0,6,6,6,,,,,,,,,,,,,,,,,,,,,,,,,,,,,,,,,,,,,,main,k,k,1,1.0984004999918398,218.10611910000443,None,None,0,,,,,,,,,,,,,,113,26,Male,2022-05-04_12h33.39.371,Parachute,2022.1.1,59.89311474584101,
positive,red,2,None,None,,,,,,,,,0,7,7,7,,,,,,,,,,,,,,,,,,,,,,,,,,,,,,,,,,,,,,main,None,None,1,1.4929756000055932,220.20682800002396,None,None,1,,,,,,,,,,,,,,113,26,Male,2022-05-04_12h33.39.371,Parachute,2022.1.1,59.89311474584101,
positive,yellow,1,None,k,,,,,,,,,0,8,8,8,,,,,,,,,,,,,,,,,,,,,,,,,,,,,,,,,,,,,,main,k,k,1,1.119089099986013,222.70356090000132,None,None,0,,,,,,,,,,,,,,113,26,Male,2022-05-04_12h33.39.371,Parachute,2022.1.1,59.89311474584101,
negative,red,1,None,None,,,,,,,,,0,9,9,9,,,,,,,,,,,,,,,,,,,,,,,,,,,,,,,,,,,,,,main,None,None,1,1.4938298999913968,224.82309710001573,None,None,1,,,,,,,,,,,,,,113,26,Male,2022-05-04_12h33.39.371,Parachute,2022.1.1,59.89311474584101,
positive,yellow,1,None,k,,,,,,,,,0,10,10,10,,,,,,,,,,,,,,,,,,,,,,,,,,,,,,,,,,,,,,main,k,k,1,0.9707633999933023,227.31882320001023,None,None,0,,,,,,,,,,,,,,113,26,Male,2022-05-04_12h33.39.371,Parachute,2022.1.1,59.89311474584101,
negative,yellow,1,k,None,,,,,,,,,0,11,11,11,,,,,,,,,,,,,,,,,,,,,,,,,,,,,,,,,,,,,,main,None,None,1,1.4936004000192042,229.2895344000135,None,None,1,,,,,,,,,,,,,,113,26,Male,2022-05-04_12h33.39.371,Parachute,2022.1.1,59.89311474584101,
negative,yellow,1,k,None,,,,,,,,,0,12,12,12,,,,,,,,,,,,,,,,,,,,,,,,,,,,,,,,,,,,,,main,None,None,1,1.4981072999944445,231.7861146000214,None,None,1,,,,,,,,,,,,,,113,26,Male,2022-05-04_12h33.39.371,Parachute,2022.1.1,59.89311474584101,
negative,red,2,None,None,,,,,,,,,0,13,13,13,,,,,,,,,,,,,,,,,,,,,,,,,,,,,,,,,,,,,,main,None,None,1,1.4991565000091214,234.28537320002215,None,None,1,,,,,,,,,,,,,,113,26,Male,2022-05-04_12h33.39.371,Parachute,2022.1.1,59.89311474584101,
positive,yellow,2,None,k,,,,,,,,,0,14,14,14,,,,,,,,,,,,,,,,,,,,,,,,,,,,,,,,,,,,,,main,k,k,1,1.0466454999987036,236.78576720002457,None,None,0,,,,,,,,,,,,,,113,26,Male,2022-05-04_12h33.39.371,Parachute,2022.1.1,59.89311474584101,
positive,blue,1,k,None,,,,,,,,,0,15,15,15,,,,,,,,,,,,,,,,,,,,,,,,,,,,,,,,,,,,,,main,None,None,1,1.5003885999904014,238.83556150001823,None,None,1,,,,,,,,,,,,,,113,26,Male,2022-05-04_12h33.39.371,Parachute,2022.1.1,59.89311474584101,
negative,blue,1,None,k,,,,,,,,,0,16,16,16,,,,,,,,,,,,,,,,,,,,,,,,,,,,,,,,,,,,,,main,k,k,1,0.5861516000004485,241.33526500000153,None,None,0,,,,,,,,,,,,,,113,26,Male,2022-05-04_12h33.39.371,Parachute,2022.1.1,59.89311474584101,
positive,blue,2,k,None,,,,,,,,,0,17,17,17,,,,,,,,,,,,,,,,,,,,,,,,,,,,,,,,,,,,,,main,None,None,1,1.4949268999916967,242.92317829999956,None,None,1,,,,,,,,,,,,,,113,26,Male,2022-05-04_12h33.39.371,Parachute,2022.1.1,59.89311474584101,
negative,blue,2,None,k,,,,,,,,,0,18,18,18,,,,,,,,,,,,,,,,,,,,,,,,,,,,,,,,,,,,,,main,k,k,1,0.7867079999996349,245.41926010002499,None,None,0,,,,,,,,,,,,,,113,26,Male,2022-05-04_12h33.39.371,Parachute,2022.1.1,59.89311474584101,
negative,blue,1,None,k,,,,,,,,,0,19,19,19,,,,,,,,,,,,,,,,,,,,,,,,,,,,,,,,,,,,,,main,k,k,1,0.9157198999891989,247.21660200000042,None,None,0,,,,,,,,,,,,,,113,26,Male,2022-05-04_12h33.39.371,Parachute,2022.1.1,59.89311474584101,
negative,blue,1,None,k,,,,,,,,,0,20,20,20,,,,,,,,,,,,,,,,,,,,,,,,,,,,,,,,,,,,,,main,k,k,1,0.631062500004191,249.12366930002463,None,None,0,,,,,,,,,,,,,,113,26,Male,2022-05-04_12h33.39.371,Parachute,2022.1.1,59.89311474584101,
negative,blue,2,None,k,,,,,,,,,0,21,21,21,,,,,,,,,,,,,,,,,,,,,,,,,,,,,,,,,,,,,,main,k,k,1,0.765395800000988,250.75663620000705,None,None,0,,,,,,,,,,,,,,113,26,Male,2022-05-04_12h33.39.371,Parachute,2022.1.1,59.89311474584101,
negative,red,1,None,None,,,,,,,,,0,22,22,22,,,,,,,,,,,,,,,,,,,,,,,,,,,,,,,,,,,,,,main,None,None,1,1.493682300002547,252.52340990002267,None,None,1,,,,,,,,,,,,,,113,26,Male,2022-05-04_12h33.39.371,Parachute,2022.1.1,59.89311474584101,
positive,red,2,None,None,,,,,,,,,0,23,23,23,,,,,,,,,,,,,,,,,,,,,,,,,,,,,,,,,,,,,,main,None,None,1,1.4990780999942217,255.01916830000118,None,None,1,,,,,,,,,,,,,,113,26,Male,2022-05-04_12h33.39.371,Parachute,2022.1.1,59.89311474584101,
negative,red,2,None,None,,,,,,,,,0,24,24,24,,,,,,,,,,,,,,,,,,,,,,,,,,,,,,,,,,,,,,main,None,None,1,1.4985670000023674,257.5189155000262,None,None,1,,,,,,,,,,,,,,113,26,Male,2022-05-04_12h33.39.371,Parachute,2022.1.1,59.89311474584101,
positive,blue,2,k,None,,,,,,,,,0,25,25,25,,,,,,,,,,,,,,,,,,,,,,,,,,,,,,,,,,,,,,main,None,None,1,1.4992250000068452,260.0187996000168,None,None,1,,,,,,,,,,,,,,113,26,Male,2022-05-04_12h33.39.371,Parachute,2022.1.1,59.89311474584101,
negative,yellow,1,k,None,,,,,,,,,0,26,26,26,,,,,,,,,,,,,,,,,,,,,,,,,,,,,,,,,,,,,,main,None,None,1,1.4984254000009969,262.51900700002443,None,None,1,,,,,,,,,,,,,,113,26,Male,2022-05-04_12h33.39.371,Parachute,2022.1.1,59.89311474584101,
positive,blue,2,k,None,,,,,,,,,0,27,27,27,,,,,,,,,,,,,,,,,,,,,,,,,,,,,,,,,,,,,,main,None,None,1,1.4987232999992557,265.01928150001913,None,None,1,,,,,,,,,,,,,,113,26,Male,2022-05-04_12h33.39.371,Parachute,2022.1.1,59.89311474584101,
negative,blue,2,None,k,,,,,,,,,0,28,28,28,,,,,,,,,,,,,,,,,,,,,,,,,,,,,,,,,,,,,,main,k,k,1,0.7039498999947682,267.5190083000052,None,None,0,,,,,,,,,,,,,,113,26,Male,2022-05-04_12h33.39.371,Parachute,2022.1.1,59.89311474584101,
positive,red,1,None,None,,,,,,,,,0,29,29,29,,,,,,,,,,,,,,,,,,,,,,,,,,,,,,,,,,,,,,main,None,None,1,1.49394429998938,269.22372100001667,None,None,1,,,,,,,,,,,,,,113,26,Male,2022-05-04_12h33.39.371,Parachute,2022.1.1,59.89311474584101,
positive,blue,1,k,None,,,,,,,,,0,30,30,30,,,,,,,,,,,,,,,,,,,,,,,,,,,,,,,,,,,,,,main,None,None,1,1.499352800019551,271.7196912000072,None,None,1,,,,,,,,,,,,,,113,26,Male,2022-05-04_12h33.39.371,Parachute,2022.1.1,59.89311474584101,
positive,yellow,1,None,k,,,,,,,,,0,31,31,31,,,,,,,,,,,,,,,,,,,,,,,,,,,,,,,,,,,,,,main,k,k,1,0.9339000000036322,274.2206126000092,None,None,0,,,,,,,,,,,,,,113,26,Male,2022-05-04_12h33.39.371,Parachute,2022.1.1,59.89311474584101,
negative,yellow,2,k,None,,,,,,,,,0,32,32,32,,,,,,,,,,,,,,,,,,,,,,,,,,,,,,,,,,,,,,main,None,None,1,1.4962167000048794,276.1564073000045,None,None,1,,,,,,,,,,,,,,113,26,Male,2022-05-04_12h33.39.371,Parachute,2022.1.1,59.89311474584101,
negative,blue,1,None,k,,,,,,,,,0,33,33,33,,,,,,,,,,,,,,,,,,,,,,,,,,,,,,,,,,,,,,main,k,k,1,0.8037923999945633,278.65400160002173,None,None,0,,,,,,,,,,,,,,113,26,Male,2022-05-04_12h33.39.371,Parachute,2022.1.1,59.89311474584101,
positive,blue,1,k,None,,,,,,,,,0,34,34,34,,,,,,,,,,,,,,,,,,,,,,,,,,,,,,,,,,,,,,main,None,None,1,1.4935540999867953,280.4573520999984,None,None,1,,,,,,,,,,,,,,113,26,Male,2022-05-04_12h33.39.371,Parachute,2022.1.1,59.89311474584101,
negative,yellow,1,k,None,,,,,,,,,0,35,35,35,,,,,,,,,,,,,,,,,,,,,,,,,,,,,,,,,,,,,,main,None,None,1,1.498085600003833,282.9539954000211,None,None,1,,,,,,,,,,,,,,113,26,Male,2022-05-04_12h33.39.371,Parachute,2022.1.1,59.89311474584101,
positive,yellow,2,None,k,,,,,,,,,0,36,36,36,,,,,,,,,,,,,,,,,,,,,,,,,,,,,,,,,,,,,,main,k,k,1,1.1039934000000358,285.45308920001844,None,None,0,,,,,,,,,,,,,,113,26,Male,2022-05-04_12h33.39.371,Parachute,2022.1.1,59.89311474584101,
positive,yellow,2,None,k,,,,,,,,,0,37,37,37,,,,,,,,,,,,,,,,,,,,,,,,,,,,,,,,,,,,,,main,k,k,1,0.949023599998327,287.5575333000161,None,None,0,,,,,,,,,,,,,,113,26,Male,2022-05-04_12h33.39.371,Parachute,2022.1.1,59.89311474584101,
negative,yellow,2,k,None,,,,,,,,,0,38,38,38,,,,,,,,,,,,,,,,,,,,,,,,,,,,,,,,,,,,,,main,None,None,1,1.4933086000091862,289.5077246000001,None,None,1,,,,,,,,,,,,,,113,26,Male,2022-05-04_12h33.39.371,Parachute,2022.1.1,59.89311474584101,
positive,yellow,1,None,k,,,,,,,,,0,39,39,39,,,,,,,,,,,,,,,,,,,,,,,,,,,,,,,,,,,,,,main,k,k,1,0.7702031999942847,292.0034729000181,None,None,0,,,,,,,,,,,,,,113,26,Male,2022-05-04_12h33.39.371,Parachute,2022.1.1,59.89311474584101,
negative,yellow,2,k,None,,,,,,,,,0,40,40,40,,,,,,,,,,,,,,,,,,,,,,,,,,,,,,,,,,,,,,main,None,None,1,1.4937273999967147,293.77434630002244,None,None,1,,,,,,,,,,,,,,113,26,Male,2022-05-04_12h33.39.371,Parachute,2022.1.1,59.89311474584101,
positive,blue,2,k,None,,,,,,,,,0,41,41,41,,,,,,,,,,,,,,,,,,,,,,,,,,,,,,,,,,,,,,main,None,None,1,1.4981089999782853,296.27196209999966,None,None,1,,,,,,,,,,,,,,113,26,Male,2022-05-04_12h33.39.371,Parachute,2022.1.1,59.89311474584101,
positive,blue,2,k,None,,,,,,,,,0,42,42,42,,,,,,,,,,,,,,,,,,,,,,,,,,,,,,,,,,,,,,main,None,None,1,1.4987048999755643,298.7706665000005,None,None,1,,,,,,,,,,,,,,113,26,Male,2022-05-04_12h33.39.371,Parachute,2022.1.1,59.89311474584101,
negative,blue,2,None,k,,,,,,,,,0,43,43,43,,,,,,,,,,,,,,,,,,,,,,,,,,,,,,,,,,,,,,main,k,k,1,0.9380111999926157,301.27072260002024,None,None,0,,,,,,,,,,,,,,113,26,Male,2022-05-04_12h33.39.371,Parachute,2022.1.1,59.89311474584101,
negative,red,1,None,None,,,,,,,,,0,44,44,44,,,,,,,,,,,,,,,,,,,,,,,,,,,,,,,,,,,,,,main,None,None,1,1.4929807000153232,303.20815320001566,None,None,1,,,,,,,,,,,,,,113,26,Male,2022-05-04_12h33.39.371,Parachute,2022.1.1,59.89311474584101,
negative,yellow,1,k,None,,,,,,,,,0,45,45,45,,,,,,,,,,,,,,,,,,,,,,,,,,,,,,,,,,,,,,main,None,None,1,1.4988637000205927,305.7031913000101,None,None,1,,,,,,,,,,,,,,113,26,Male,2022-05-04_12h33.39.371,Parachute,2022.1.1,59.89311474584101,
negative,yellow,1,k,None,,,,,,,,,0,46,46,46,,,,,,,,,,,,,,,,,,,,,,,,,,,,,,,,,,,,,,main,None,None,1,1.4990245999943,308.20400070000323,None,None,1,,,,,,,,,,,,,,113,26,Male,2022-05-04_12h33.39.371,Parachute,2022.1.1,59.89311474584101,
positive,red,1,None,None,,,,,,,,,0,47,47,47,,,,,,,,,,,,,,,,,,,,,,,,,,,,,,,,,,,,,,main,None,None,1,1.4981854000070598,310.70472070001415,None,None,1,,,,,,,,,,,,,,113,26,Male,2022-05-04_12h33.39.371,Parachute,2022.1.1,59.89311474584101,
positive,yellow,1,None,k,,,,,,,,,0,48,48,48,,,,,,,,,,,,,,,,,,,,,,,,,,,,,,,,,,,,,,main,k,k,1,0.9200768999871798,313.2037835000083,None,None,0,,,,,,,,,,,,,,113,26,Male,2022-05-04_12h33.39.371,Parachute,2022.1.1,59.89311474584101,
negative,blue,1,None,k,,,,,,,,,0,49,49,49,,,,,,,,,,,,,,,,,,,,,,,,,,,,,,,,,,,,,,main,k,k,1,0.8823929000063799,315.1247434000252,None,None,0,,,,,,,,,,,,,,113,26,Male,2022-05-04_12h33.39.371,Parachute,2022.1.1,59.89311474584101,
positive,yellow,2,None,k,,,,,,,,,0,50,50,50,,,,,,,,,,,,,,,,,,,,,,,,,,,,,,,,,,,,,,main,k,k,1,0.7986542000144254,317.00817510002526,None,None,0,,,,,,,,,,,,,,113,26,Male,2022-05-04_12h33.39.371,Parachute,2022.1.1,59.89311474584101,
negative,blue,1,None,k,,,,,,,,,0,51,51,51,,,,,,,,,,,,,,,,,,,,,,,,,,,,,,,,,,,,,,main,k,k,1,0.5986731000011787,318.8080605000141,None,None,0,,,,,,,,,,,,,,113,26,Male,2022-05-04_12h33.39.371,Parachute,2022.1.1,59.89311474584101,
positive,red,2,None,None,,,,,,,,,0,52,52,52,,,,,,,,,,,,,,,,,,,,,,,,,,,,,,,,,,,,,,main,None,None,1,1.4929836000083014,320.41837790000136,None,None,1,,,,,,,,,,,,,,113,26,Male,2022-05-04_12h33.39.371,Parachute,2022.1.1,59.89311474584101,
positive,yellow,2,None,k,,,,,,,,,0,53,53,53,,,,,,,,,,,,,,,,,,,,,,,,,,,,,,,,,,,,,,main,k,k,1,0.8697613999829628,322.9036418000178,None,None,0,,,,,,,,,,,,,,113,26,Male,2022-05-04_12h33.39.371,Parachute,2022.1.1,59.89311474584101,
negative,red,2,None,None,,,,,,,,,0,54,54,54,,,,,,,,,,,,,,,,,,,,,,,,,,,,,,,,,,,,,,main,None,None,1,1.4941004999855068,324.7752064000233,None,None,1,,,,,,,,,,,,,,113,26,Male,2022-05-04_12h33.39.371,Parachute,2022.1.1,59.89311474584101,
positive,yellow,1,None,k,,,,,,,,,0,55,55,55,,,,,,,,,,,,,,,,,,,,,,,,,,,,,,,,,,,,,,main,k,k,1,0.6713686999864876,327.27041779999854,None,None,0,,,,,,,,,,,,,,113,26,Male,2022-05-04_12h33.39.371,Parachute,2022.1.1,59.89311474584101,
negative,blue,2,None,k,,,,,,,,,0,56,56,56,,,,,,,,,,,,,,,,,,,,,,,,,,,,,,,,,,,,,,main,k,k,1,0.7973226000030991,328.94227230001707,None,None,0,,,,,,,,,,,,,,113,26,Male,2022-05-04_12h33.39.371,Parachute,2022.1.1,59.89311474584101,
positive,blue,1,k,None,,,,,,,,,0,57,57,57,,,,,,,,,,,,,,,,,,,,,,,,,,,,,,,,,,,,,,main,None,None,1,1.4938372000178788,330.7420393000066,None,None,1,,,,,,,,,,,,,,113,26,Male,2022-05-04_12h33.39.371,Parachute,2022.1.1,59.89311474584101,
positive,blue,1,k,None,,,,,,,,,0,58,58,58,,,,,,,,,,,,,,,,,,,,,,,,,,,,,,,,,,,,,,main,None,None,1,1.4990684000076726,333.23722270000144,None,None,1,,,,,,,,,,,,,,113,26,Male,2022-05-04_12h33.39.371,Parachute,2022.1.1,59.89311474584101,
negative,yellow,2,k,None,,,,,,,,,0,59,59,59,,,,,,,,,,,,,,,,,,,,,,,,,,,,,,,,,,,,,,main,None,None,1,1.4989456000039354,335.7377121000027,None,None,1,,,,,,,,,,,,,,113,26,Male,2022-05-04_12h33.39.371,Parachute,2022.1.1,59.89311474584101,
positive,red,2,None,None,,,,,,,,,0,60,60,60,,,,,,,,,,,,,,,,,,,,,,,,,,,,,,,,,,,,,,main,None,None,1,1.498613400006434,338.23799630001304,None,None,1,,,,,,,,,,,,,,113,26,Male,2022-05-04_12h33.39.371,Parachute,2022.1.1,59.89311474584101,
negative,yellow,1,k,None,,,,,,,,,0,61,61,61,,,,,,,,,,,,,,,,,,,,,,,,,,,,,,,,,,,,,,main,None,None,1,1.4988337999966461,340.73771500002476,None,None,1,,,,,,,,,,,,,,113,26,Male,2022-05-04_12h33.39.371,Parachute,2022.1.1,59.89311474584101,
negative,red,1,None,None,,,,,,,,,0,62,62,62,,,,,,,,,,,,,,,,,,,,,,,,,,,,,,,,,,,,,,main,None,None,1,1.498905400017975,343.23796860000584,None,None,1,,,,,,,,,,,,,,113,26,Male,2022-05-04_12h33.39.371,Parachute,2022.1.1,59.89311474584101,
negative,blue,1,None,k,,,,,,,,,0,63,63,63,,,,,,,,,,,,,,,,,,,,,,,,,,,,,,,,,,,,,,main,k,k,1,0.8378641000017524,345.73837350000395,None,None,0,,,,,,,,,,,,,,113,26,Male,2022-05-04_12h33.39.371,Parachute,2022.1.1,59.89311474584101,
positive,blue,2,k,None,,,,,,,,,0,64,64,64,,,,,,,,,,,,,,,,,,,,,,,,,,,,,,,,,,,,,,main,None,None,1,1.4923050999932457,347.5857789000147,None,None,1,,,,,,,,,,,,,,113,26,Male,2022-05-04_12h33.39.371,Parachute,2022.1.1,59.89311474584101,
negative,yellow,2,k,None,,,,,,,,,0,65,65,65,,,,,,,,,,,,,,,,,,,,,,,,,,,,,,,,,,,,,,main,None,None,1,1.4985095000010915,350.071314300003,None,None,1,,,,,,,,,,,,,,113,26,Male,2022-05-04_12h33.39.371,Parachute,2022.1.1,59.89311474584101,
positive,yellow,2,None,k,,,,,,,,,0,66,66,66,,,,,,,,,,,,,,,,,,,,,,,,,,,,,,,,,,,,,,main,k,k,1,0.8802640999783762,352.5712732000102,None,None,0,,,,,,,,,,,,,,113,26,Male,2022-05-04_12h33.39.371,Parachute,2022.1.1,59.89311474584101,
positive,yellow,2,None,k,,,,,,,,,0,67,67,67,,,,,,,,,,,,,,,,,,,,,,,,,,,,,,,,,,,,,,main,k,k,1,0.70438050001394,354.4542513000197,None,None,0,,,,,,,,,,,,,,113,26,Male,2022-05-04_12h33.39.371,Parachute,2022.1.1,59.89311474584101,
positive,red,1,None,None,,,,,,,,,0,68,68,68,,,,,,,,,,,,,,,,,,,,,,,,,,,,,,,,,,,,,,main,None,None,1,1.494784599984996,356.158746400004,None,None,1,,,,,,,,,,,,,,113,26,Male,2022-05-04_12h33.39.371,Parachute,2022.1.1,59.89311474584101,
positive,yellow,1,None,k,,,,,,,,,0,69,69,69,,,,,,,,,,,,,,,,,,,,,,,,,,,,,,,,,,,,,,main,k,k,1,0.7134075000067241,358.65422070000204,None,None,0,,,,,,,,,,,,,,113,26,Male,2022-05-04_12h33.39.371,Parachute,2022.1.1,59.89311474584101,
negative,yellow,2,k,None,,,,,,,,,0,70,70,70,,,,,,,,,,,,,,,,,,,,,,,,,,,,,,,,,,,,,,main,None,None,1,1.5003906000056304,360.3709776000178,None,None,1,,,,,,,,,,,,,,113,26,Male,2022-05-04_12h33.39.371,Parachute,2022.1.1,59.89311474584101,
positive,yellow,1,None,k,,,,,,,,,0,71,71,71,,,,,,,,,,,,,,,,,,,,,,,,,,,,,,,,,,,,,,main,k,k,1,0.786327000008896,362.8717660000257,None,None,0,,,,,,,,,,,,,,113,26,Male,2022-05-04_12h33.39.371,Parachute,2022.1.1,59.89311474584101,
negative,blue,1,None,k,,,,,,,,,0,72,72,72,,,,,,,,,,,,,,,,,,,,,,,,,,,,,,,,,,,,,,main,k,k,1,0.882885900005931,364.65899000002537,None,None,0,,,,,,,,,,,,,,113,26,Male,2022-05-04_12h33.39.371,Parachute,2022.1.1,59.89311474584101,
negative,red,2,None,None,,,,,,,,,0,73,73,73,,,,,,,,,,,,,,,,,,,,,,,,,,,,,,,,,,,,,,main,None,None,1,1.49428590000025,366.54342790000373,None,None,1,,,,,,,,,,,,,,113,26,Male,2022-05-04_12h33.39.371,Parachute,2022.1.1,59.89311474584101,
positive,blue,2,k,None,,,,,,,,,0,74,74,74,,,,,,,,,,,,,,,,,,,,,,,,,,,,,,,,,,,,,,main,None,None,1,1.4986819999758154,369.0384428000252,None,None,1,,,,,,,,,,,,,,113,26,Male,2022-05-04_12h33.39.371,Parachute,2022.1.1,59.89311474584101,
negative,blue,2,None,k,,,,,,,,,0,75,75,75,,,,,,,,,,,,,,,,,,,,,,,,,,,,,,,,,,,,,,main,k,k,1,0.7528960999916308,371.5390340000158,None,None,0,,,,,,,,,,,,,,113,26,Male,2022-05-04_12h33.39.371,Parachute,2022.1.1,59.89311474584101,
negative,blue,2,None,k,,,,,,,,,0,76,76,76,,,,,,,,,,,,,,,,,,,,,,,,,,,,,,,,,,,,,,main,k,k,1,0.713050899998052,373.29317660001107,None,None,0,,,,,,,,,,,,,,113,26,Male,2022-05-04_12h33.39.371,Parachute,2022.1.1,59.89311474584101,
negative,yellow,1,k,None,,,,,,,,,0,77,77,77,,,,,,,,,,,,,,,,,,,,,,,,,,,,,,,,,,,,,,main,None,None,1,1.496603999985382,375.0073261000216,None,None,1,,,,,,,,,,,,,,113,26,Male,2022-05-04_12h33.39.371,Parachute,2022.1.1,59.89311474584101,
positive,blue,1,k,None,,,,,,,,,0,78,78,78,,,,,,,,,,,,,,,,,,,,,,,,,,,,,,,,,,,,,,main,None,None,1,1.4982878000009805,377.5056418000022,None,None,1,,,,,,,,,,,,,,113,26,Male,2022-05-04_12h33.39.371,Parachute,2022.1.1,59.89311474584101,
positive,blue,1,k,None,,,,,,,,,0,79,79,79,,,,,,,,,,,,,,,,,,,,,,,,,,,,,,,,,,,,,,main,None,None,1,1.4988387000048533,380.0050296000263,None,None,1,,,,,,,,,,,,,,113,26,Male,2022-05-04_12h33.39.371,Parachute,2022.1.1,59.89311474584101,
positive,red,2,None,None,,,,,,,,,0,80,80,80,,,,,,,,,,,,,,,,,,,,,,,,,,,,,,,,,,,,,,main,None,None,1,1.498625100008212,382.505301600002,None,None,1,,,,,,,,,,,,,,113,26,Male,2022-05-04_12h33.39.371,Parachute,2022.1.1,59.89311474584101,
positive,yellow,2,None,k,,,,,,,,,0,81,81,81,,,,,,,,,,,,,,,,,,,,,,,,,,,,,,,,,,,,,,main,k,k,1,0.9040162999881431,385.00542020000285,None,None,0,,,,,,,,,,,,,,113,26,Male,2022-05-04_12h33.39.371,Parachute,2022.1.1,59.89311474584101,
positive,blue,1,k,None,,,,,,,,,0,82,82,82,,,,,,,,,,,,,,,,,,,,,,,,,,,,,,,,,,,,,,main,None,None,1,1.493973000004189,386.91040600000997,None,None,1,,,,,,,,,,,,,,113,26,Male,2022-05-04_12h33.39.371,Parachute,2022.1.1,59.89311474584101,
negative,yellow,2,k,None,,,,,,,,,0,83,83,83,,,,,,,,,,,,,,,,,,,,,,,,,,,,,,,,,,,,,,main,None,None,1,1.497998800012283,389.40557690002606,None,None,1,,,,,,,,,,,,,,113,26,Male,2022-05-04_12h33.39.371,Parachute,2022.1.1,59.89311474584101,
positive,blue,2,k,None,,,,,,,,,0,84,84,84,,,,,,,,,,,,,,,,,,,,,,,,,,,,,,,,,,,,,,main,None,None,1,1.4988242000108585,391.9051460000046,None,None,1,,,,,,,,,,,,,,113,26,Male,2022-05-04_12h33.39.371,Parachute,2022.1.1,59.89311474584101,
positive,yellow,1,None,k,,,,,,,,,0,85,85,85,,,,,,,,,,,,,,,,,,,,,,,,,,,,,,,,,,,,,,main,k,k,1,0.780881100014085,394.4049766000244,None,None,0,,,,,,,,,,,,,,113,26,Male,2022-05-04_12h33.39.371,Parachute,2022.1.1,59.89311474584101,
positive,blue,2,k,None,,,,,,,,,0,86,86,86,,,,,,,,,,,,,,,,,,,,,,,,,,,,,,,,,,,,,,main,None,None,1,1.500258300016867,396.1882607000007,None,None,1,,,,,,,,,,,,,,113,26,Male,2022-05-04_12h33.39.371,Parachute,2022.1.1,59.89311474584101,
positive,blue,1,k,None,,,,,,,,,0,87,87,87,,,,,,,,,,,,,,,,,,,,,,,,,,,,,,,,,,,,,,main,None,None,1,1.498728900012793,398.68888090000837,None,None,1,,,,,,,,,,,,,,113,26,Male,2022-05-04_12h33.39.371,Parachute,2022.1.1,59.89311474584101,
negative,yellow,2,k,None,,,,,,,,,0,88,88,88,,,,,,,,,,,,,,,,,,,,,,,,,,,,,,,,,,,,,,main,None,None,1,1.49849730002461,401.18883310002275,None,None,1,,,,,,,,,,,,,,113,26,Male,2022-05-04_12h33.39.371,Parachute,2022.1.1,59.89311474584101,
negative,blue,2,None,k,,,,,,,,,0,89,89,89,,,,,,,,,,,,,,,,,,,,,,,,,,,,,,,,,,,,,,main,k,k,1,0.8872475000098348,403.68868430002476,None,None,0,,,,,,,,,,,,,,113,26,Male,2022-05-04_12h33.39.371,Parachute,2022.1.1,59.89311474584101,
positive,yellow,2,None,k,,,,,,,,,0,90,90,90,,,,,,,,,,,,,,,,,,,,,,,,,,,,,,,,,,,,,,main,k,k,1,0.9988196999765933,405.57705500000156,None,None,0,,,,,,,,,,,,,,113,26,Male,2022-05-04_12h33.39.371,Parachute,2022.1.1,59.89311474584101,
negative,yellow,1,k,None,,,,,,,,,0,91,91,91,,,,,,,,,,,,,,,,,,,,,,,,,,,,,,,,,,,,,,main,None,None,1,1.493083499983186,407.5767615000077,None,None,1,,,,,,,,,,,,,,113,26,Male,2022-05-04_12h33.39.371,Parachute,2022.1.1,59.89311474584101,
negative,red,2,None,None,,,,,,,,,0,92,92,92,,,,,,,,,,,,,,,,,,,,,,,,,,,,,,,,,,,,,,main,None,None,1,1.4989650000061374,410.0723241000087,None,None,1,,,,,,,,,,,,,,113,26,Male,2022-05-04_12h33.39.371,Parachute,2022.1.1,59.89311474584101,
negative,blue,2,None,k,,,,,,,,,0,93,93,93,,,,,,,,,,,,,,,,,,,,,,,,,,,,,,,,,,,,,,main,k,k,1,0.780108199978713,412.5718965000124,None,None,0,,,,,,,,,,,,,,113,26,Male,2022-05-04_12h33.39.371,Parachute,2022.1.1,59.89311474584101,
negative,blue,1,None,k,,,,,,,,,0,94,94,94,,,,,,,,,,,,,,,,,,,,,,,,,,,,,,,,,,,,,,main,k,k,1,1.4381715999916196,414.35520210000686,None,None,0,,,,,,,,,,,,,,113,26,Male,2022-05-04_12h33.39.371,Parachute,2022.1.1,59.89311474584101,
negative,blue,1,None,k,,,,,,,,,0,95,95,95,,,,,,,,,,,,,,,,,,,,,,,,,,,,,,,,,,,,,,main,k,k,1,0.6329813000047579,416.79382940000505,None,None,0,,,,,,,,,,,,,,113,26,Male,2022-05-04_12h33.39.371,Parachute,2022.1.1,59.89311474584101,
negative,red,1,None,None,,,,,,,,,0,96,96,96,,,,,,,,,,,,,,,,,,,,,,,,,,,,,,,,,,,,,,main,None,None,1,1.4934675999975298,418.4391597000067,None,None,1,,,,,,,,,,,,,,113,26,Male,2022-05-04_12h33.39.371,Parachute,2022.1.1,59.89311474584101,
positive,yellow,1,None,k,,,,,,,,,0,97,97,97,,,,,,,,,,,,,,,,,,,,,,,,,,,,,,,,,,,,,,main,k,k,1,0.787091899983352,420.9227211000107,None,None,0,,,,,,,,,,,,,,113,26,Male,2022-05-04_12h33.39.371,Parachute,2022.1.1,59.89311474584101,
negative,yellow,1,k,None,,,,,,,,,0,98,98,98,,,,,,,,,,,,,,,,,,,,,,,,,,,,,,,,,,,,,,main,None,None,1,1.4936295000079554,422.72066110000014,None,None,1,,,,,,,,,,,,,,113,26,Male,2022-05-04_12h33.39.371,Parachute,2022.1.1,59.89311474584101,
positive,red,1,None,None,,,,,,,,,0,99,99,99,,,,,,,,,,,,,,,,,,,,,,,,,,,,,,,,,,,,,,main,None,None,1,1.4987567999924067,425.2066182999988,None,None,1,,,,,,,,,,,,,,113,26,Male,2022-05-04_12h33.39.371,Parachute,2022.1.1,59.89311474584101,
positive,blue,1,k,None,,,,,,,,,0,100,100,100,,,,,,,,,,,,,,,,,,,,,,,,,,,,,,,,,,,,,,main,None,None,1,1.4985373999807052,427.7068092000263,None,None,1,,,,,,,,,,,,,,113,26,Male,2022-05-04_12h33.39.371,Parachute,2022.1.1,59.89311474584101,
negative,yellow,1,k,None,,,,,,,,,0,101,101,101,,,,,,,,,,,,,,,,,,,,,,,,,,,,,,,,,,,,,,main,None,None,1,1.4984254000009969,430.2064434000058,None,None,1,,,,,,,,,,,,,,113,26,Male,2022-05-04_12h33.39.371,Parachute,2022.1.1,59.89311474584101,
negative,blue,2,None,k,,,,,,,,,0,102,102,102,,,,,,,,,,,,,,,,,,,,,,,,,,,,,,,,,,,,,,main,k,k,1,0.7634245000081137,432.70636960002594,None,None,0,,,,,,,,,,,,,,113,26,Male,2022-05-04_12h33.39.371,Parachute,2022.1.1,59.89311474584101,
negative,yellow,2,k,None,,,,,,,,,0,103,103,103,,,,,,,,,,,,,,,,,,,,,,,,,,,,,,,,,,,,,,main,None,None,1,1.500322400010191,434.4728506000247,None,None,1,,,,,,,,,,,,,,113,26,Male,2022-05-04_12h33.39.371,Parachute,2022.1.1,59.89311474584101,
positive,yellow,2,None,k,,,,,,,,,0,104,104,104,,,,,,,,,,,,,,,,,,,,,,,,,,,,,,,,,,,,,,main,k,k,1,0.8707012999802828,436.9735678000143,None,None,0,,,,,,,,,,,,,,113,26,Male,2022-05-04_12h33.39.371,Parachute,2022.1.1,59.89311474584101,
positive,blue,1,k,None,,,,,,,,,0,105,105,105,,,,,,,,,,,,,,,,,,,,,,,,,,,,,,,,,,,,,,main,None,None,1,1.493684699991718,438.8443191999977,None,None,1,,,,,,,,,,,,,,113,26,Male,2022-05-04_12h33.39.371,Parachute,2022.1.1,59.89311474584101,
positive,blue,2,k,None,,,,,,,,,0,106,106,106,,,,,,,,,,,,,,,,,,,,,,,,,,,,,,,,,,,,,,main,None,None,1,1.499253799993312,441.3399918000214,None,None,1,,,,,,,,,,,,,,113,26,Male,2022-05-04_12h33.39.371,Parachute,2022.1.1,59.89311474584101,
negative,blue,1,None,k,,,,,,,,,0,107,107,107,,,,,,,,,,,,,,,,,,,,,,,,,,,,,,,,,,,,,,main,k,k,1,0.7194087000098079,443.8400665000081,None,None,0,,,,,,,,,,,,,,113,26,Male,2022-05-04_12h33.39.371,Parachute,2022.1.1,59.89311474584101,
positive,yellow,2,None,k,,,,,,,,,0,108,108,108,,,,,,,,,,,,,,,,,,,,,,,,,,,,,,,,,,,,,,main,k,k,1,0.932302700006403,445.56193170000915,None,None,0,,,,,,,,,,,,,,113,26,Male,2022-05-04_12h33.39.371,Parachute,2022.1.1,59.89311474584101,
negative,yellow,1,k,None,,,,,,,,,0,109,109,109,,,,,,,,,,,,,,,,,,,,,,,,,,,,,,,,,,,,,,main,None,None,1,1.493521599972155,447.4943205000018,None,None,1,,,,,,,,,,,,,,113,26,Male,2022-05-04_12h33.39.371,Parachute,2022.1.1,59.89311474584101,
negative,blue,2,None,k,,,,,,,,,0,110,110,110,,,,,,,,,,,,,,,,,,,,,,,,,,,,,,,,,,,,,,main,k,k,1,1.0204353999870364,449.98965699999826,None,None,0,,,,,,,,,,,,,,113,26,Male,2022-05-04_12h33.39.371,Parachute,2022.1.1,59.89311474584101,
positive,blue,2,k,None,,,,,,,,,0,111,111,111,,,,,,,,,,,,,,,,,,,,,,,,,,,,,,,,,,,,,,main,None,None,1,1.4941468999895733,452.0112773000146,None,None,1,,,,,,,,,,,,,,113,26,Male,2022-05-04_12h33.39.371,Parachute,2022.1.1,59.89311474584101,
negative,blue,1,None,k,,,,,,,,,0,112,112,112,,,,,,,,,,,,,,,,,,,,,,,,,,,,,,,,,,,,,,main,k,k,1,0.6538102999911644,454.50690370000666,None,None,0,,,,,,,,,,,,,,113,26,Male,2022-05-04_12h33.39.371,Parachute,2022.1.1,59.89311474584101,
positive,yellow,1,None,k,,,,,,,,,0,113,113,113,,,,,,,,,,,,,,,,,,,,,,,,,,,,,,,,,,,,,,main,k,k,1,0.8980955999868456,456.16127490001963,None,None,0,,,,,,,,,,,,,,113,26,Male,2022-05-04_12h33.39.371,Parachute,2022.1.1,59.89311474584101,
negative,red,1,None,None,,,,,,,,,0,114,114,114,,,,,,,,,,,,,,,,,,,,,,,,,,,,,,,,,,,,,,main,None,None,1,1.4939488999953028,458.0612796000205,None,None,1,,,,,,,,,,,,,,113,26,Male,2022-05-04_12h33.39.371,Parachute,2022.1.1,59.89311474584101,
positive,red,1,None,None,,,,,,,,,0,115,115,115,,,,,,,,,,,,,,,,,,,,,,,,,,,,,,,,,,,,,,main,None,None,1,1.4985901000036392,460.5569964000024,None,None,1,,,,,,,,,,,,,,113,26,Male,2022-05-04_12h33.39.371,Parachute,2022.1.1,59.89311474584101,
negative,red,2,None,None,,,,,,,,,0,116,116,116,,,,,,,,,,,,,,,,,,,,,,,,,,,,,,,,,,,,,,main,None,None,1,1.498743000003742,463.0570059000165,None,None,1,,,,,,,,,,,,,,113,26,Male,2022-05-04_12h33.39.371,Parachute,2022.1.1,59.89311474584101,
negative,yellow,2,k,None,,,,,,,,,0,117,117,117,,,,,,,,,,,,,,,,,,,,,,,,,,,,,,,,,,,,,,main,None,None,1,1.4985089999972843,465.5571868000261,None,None,1,,,,,,,,,,,,,,113,26,Male,2022-05-04_12h33.39.371,Parachute,2022.1.1,59.89311474584101,
positive,yellow,1,None,k,,,,,,,,,0,118,118,118,,,,,,,,,,,,,,,,,,,,,,,,,,,,,,,,,,,,,,main,k,k,1,0.6868748000124469,468.05711710001924,None,None,0,,,,,,,,,,,,,,113,26,Male,2022-05-04_12h33.39.371,Parachute,2022.1.1,59.89311474584101,
positive,red,2,None,None,,,,,,,,,0,119,119,119,,,,,,,,,,,,,,,,,,,,,,,,,,,,,,,,,,,,,,main,None,None,1,1.4938396000070497,469.7454725000134,None,None,1,,,,,,,,,,,,,,113,26,Male,2022-05-04_12h33.39.371,Parachute,2022.1.1,59.89311474584101,
positive,blue,2,k,None,,,,,,,,,0,120,120,120,,,,,,,,,,,,,,,,,,,,,,,,,,,,,,,,,,,,,,main,None,None,1,1.4986519999802113,472.2403123000113,None,None,1,,,,,,,,,,,,,,113,26,Male,2022-05-04_12h33.39.371,Parachute,2022.1.1,59.89311474584101,
negative,red,1,None,None,,,,,,,,,0,121,121,121,,,,,,,,,,,,,,,,,,,,,,,,,,,,,,,,,,,,,,main,None,None,1,1.4986422000220045,474.74022180002066,None,None,1,,,,,,,,,,,,,,113,26,Male,2022-05-04_12h33.39.371,Parachute,2022.1.1,59.89311474584101,
positive,yellow,2,None,k,,,,,,,,,0,122,122,122,,,,,,,,,,,,,,,,,,,,,,,,,,,,,,,,,,,,,,main,k,k,1,1.0698071000224445,477.24039099999936,None,None,0,,,,,,,,,,,,,,113,26,Male,2022-05-04_12h33.39.371,Parachute,2022.1.1,59.89311474584101,
negative,red,2,None,None,,,,,,,,,0,123,123,123,,,,,,,,,,,,,,,,,,,,,,,,,,,,,,,,,,,,,,main,None,None,1,1.4938124000036623,479.3118291000137,None,None,1,,,,,,,,,,,,,,113,26,Male,2022-05-04_12h33.39.371,Parachute,2022.1.1,59.89311474584101,
negative,yellow,2,k,None,,,,,,,,,0,124,124,124,,,,,,,,,,,,,,,,,,,,,,,,,,,,,,,,,,,,,,main,None,k,0,1.0533193000010215,481.80765910001355,None,None,1,,,,,,,,,,,,,,113,26,Male,2022-05-04_12h33.39.371,Parachute,2022.1.1,59.89311474584101,
positive,red,1,None,None,,,,,,,,,0,125,125,125,,,,,,,,,,,,,,,,,,,,,,,,,,,,,,,,,,,,,,main,None,None,1,1.5019322000152897,484.8903627000109,None,None,1,,,,,,,,,,,,,,113,26,Male,2022-05-04_12h33.39.371,Parachute,2022.1.1,59.89311474584101,
negative,blue,2,None,k,,,,,,,,,0,126,126,126,,,,,,,,,,,,,,,,,,,,,,,,,,,,,,,,,,,,,,main,k,k,1,1.0032152999774553,487.39143160000094,None,None,0,,,,,,,,,,,,,,113,26,Male,2022-05-04_12h33.39.371,Parachute,2022.1.1,59.89311474584101,
negative,blue,1,None,k,,,,,,,,,0,127,127,127,,,,,,,,,,,,,,,,,,,,,,,,,,,,,,,,,,,,,,main,k,k,1,0.8974971999996342,489.3970292000158,None,None,0,,,,,,,,,,,,,,113,26,Male,2022-05-04_12h33.39.371,Parachute,2022.1.1,59.89311474584101,
negative,yellow,1,k,None,,,,,,,,,0,128,128,128,,,,,,,,,,,,,,,,,,,,,,,,,,,,,,,,,,,,,,main,None,None,1,1.4946146000002045,491.3049920000194,None,None,1,,,,,,,,,,,,,,113,26,Male,2022-05-04_12h33.39.371,Parachute,2022.1.1,59.89311474584101,
negative,yellow,1,k,None,,,,,,,,,0,129,129,129,,,,,,,,,,,,,,,,,,,,,,,,,,,,,,,,,,,,,,main,None,None,1,1.4982328999903984,493.7926273000194,None,None,1,,,,,,,,,,,,,,113,26,Male,2022-05-04_12h33.39.371,Parachute,2022.1.1,59.89311474584101,
positive,blue,1,k,None,,,,,,,,,0,130,130,130,,,,,,,,,,,,,,,,,,,,,,,,,,,,,,,,,,,,,,main,None,None,1,1.4994504999776836,496.2924256999977,None,None,1,,,,,,,,,,,,,,113,26,Male,2022-05-04_12h33.39.371,Parachute,2022.1.1,59.89311474584101,
negative,blue,1,None,k,,,,,,,,,0,131,131,131,,,,,,,,,,,,,,,,,,,,,,,,,,,,,,,,,,,,,,main,k,k,1,0.8361522999766748,498.79328010001336,None,None,0,,,,,,,,,,,,,,113,26,Male,2022-05-04_12h33.39.371,Parachute,2022.1.1,59.89311474584101,
negative,blue,2,None,k,,,,,,,,,0,132,132,132,,,,,,,,,,,,,,,,,,,,,,,,,,,,,,,,,,,,,,main,k,k,1,0.8644872000149917,500.6302848000196,None,None,0,,,,,,,,,,,,,,113,26,Male,2022-05-04_12h33.39.371,Parachute,2022.1.1,59.89311474584101,
positive,blue,2,k,None,,,,,,,,,0,133,133,133,,,,,,,,,,,,,,,,,,,,,,,,,,,,,,,,,,,,,,main,None,None,1,1.4938889000040945,502.49653210002,None,None,1,,,,,,,,,,,,,,113,26,Male,2022-05-04_12h33.39.371,Parachute,2022.1.1,59.89311474584101,
positive,red,2,None,None,,,,,,,,,0,134,134,134,,,,,,,,,,,,,,,,,,,,,,,,,,,,,,,,,,,,,,main,None,None,1,1.4985237999935634,504.99236430000747,None,None,1,,,,,,,,,,,,,,113,26,Male,2022-05-04_12h33.39.371,Parachute,2022.1.1,59.89311474584101,
negative,yellow,2,k,None,,,,,,,,,0,135,135,135,,,,,,,,,,,,,,,,,,,,,,,,,,,,,,,,,,,,,,main,None,None,1,1.4986621999996714,507.4918333000096,None,None,1,,,,,,,,,,,,,,113,26,Male,2022-05-04_12h33.39.371,Parachute,2022.1.1,59.89311474584101,
positive,yellow,2,None,k,,,,,,,,,0,136,136,136,,,,,,,,,,,,,,,,,,,,,,,,,,,,,,,,,,,,,,main,k,k,1,0.7372690000047442,509.9924535000173,None,None,0,,,,,,,,,,,,,,113,26,Male,2022-05-04_12h33.39.371,Parachute,2022.1.1,59.89311474584101,
positive,blue,1,k,None,,,,,,,,,0,137,137,137,,,,,,,,,,,,,,,,,,,,,,,,,,,,,,,,,,,,,,main,None,None,1,1.4935624000208918,511.72904610002297,None,None,1,,,,,,,,,,,,,,113,26,Male,2022-05-04_12h33.39.371,Parachute,2022.1.1,59.89311474584101,
positive,yellow,1,None,k,,,,,,,,,0,138,138,138,,,,,,,,,,,,,,,,,,,,,,,,,,,,,,,,,,,,,,main,k,k,1,0.8044555999804288,514.2252203000244,None,None,0,,,,,,,,,,,,,,113,26,Male,2022-05-04_12h33.39.371,Parachute,2022.1.1,59.89311474584101,
positive,yellow,1,None,k,,,,,,,,,0,139,139,139,,,,,,,,,,,,,,,,,,,,,,,,,,,,,,,,,,,,,,main,k,k,1,0.8137639999913517,516.0295350000088,None,None,0,,,,,,,,,,,,,,113,26,Male,2022-05-04_12h33.39.371,Parachute,2022.1.1,59.89311474584101,
positive,yellow,1,None,k,,,,,,,,,0,140,140,140,,,,,,,,,,,,,,,,,,,,,,,,,,,,,,,,,,,,,,main,k,k,1,0.6655676000227686,517.8464012000186,None,None,0,,,,,,,,,,,,,,113,26,Male,2022-05-04_12h33.39.371,Parachute,2022.1.1,59.89311474584101,
positive,blue,1,k,None,,,,,,,,,0,141,141,141,,,,,,,,,,,,,,,,,,,,,,,,,,,,,,,,,,,,,,main,None,None,1,1.4938220999902114,519.5129661000101,None,None,1,,,,,,,,,,,,,,113,26,Male,2022-05-04_12h33.39.371,Parachute,2022.1.1,59.89311474584101,
positive,blue,2,k,None,,,,,,,,,0,142,142,142,,,,,,,,,,,,,,,,,,,,,,,,,,,,,,,,,,,,,,main,None,None,1,1.4987956999975722,522.0081493000034,None,None,1,,,,,,,,,,,,,,113,26,Male,2022-05-04_12h33.39.371,Parachute,2022.1.1,59.89311474584101,
positive,yellow,2,None,k,,,,,,,,,0,143,143,143,,,,,,,,,,,,,,,,,,,,,,,,,,,,,,,,,,,,,,main,k,k,1,0.7875257999985479,524.5084211000067,None,None,0,,,,,,,,,,,,,,113,26,Male,2022-05-04_12h33.39.371,Parachute,2022.1.1,59.89311474584101,
negative,yellow,2,k,None,,,,,,,,,0,144,144,144,,,,,,,,,,,,,,,,,,,,,,,,,,,,,,,,,,,,,,main,None,None,1,1.4929361999966204,526.2964691000234,None,None,1,,,,,,,,,,,,,,113,26,Male,2022-05-04_12h33.39.371,Parachute,2022.1.1,59.89311474584101,
negative,blue,2,None,k,,,,,,,,,0,145,145,145,,,,,,,,,,,,,,,,,,,,,,,,,,,,,,,,,,,,,,main,k,k,1,0.8525632999953814,528.79214830001,None,None,0,,,,,,,,,,,,,,113,26,Male,2022-05-04_12h33.39.371,Parachute,2022.1.1,59.89311474584101,
negative,red,1,None,None,,,,,,,,,0,146,146,146,,,,,,,,,,,,,,,,,,,,,,,,,,,,,,,,,,,,,,main,None,None,1,1.4951450000226032,530.6459841000033,None,None,1,,,,,,,,,,,,,,113,26,Male,2022-05-04_12h33.39.371,Parachute,2022.1.1,59.89311474584101,
positive,blue,1,k,None,,,,,,,,,0,147,147,147,,,,,,,,,,,,,,,,,,,,,,,,,,,,,,,,,,,,,,main,None,None,1,1.498103899997659,533.1419871000107,None,None,1,,,,,,,,,,,,,,113,26,Male,2022-05-04_12h33.39.371,Parachute,2022.1.1,59.89311474584101,
positive,yellow,1,None,k,,,,,,,,,0,148,148,148,,,,,,,,,,,,,,,,,,,,,,,,,,,,,,,,,,,,,,main,k,k,1,0.9203498999995645,535.6412797000085,None,None,0,,,,,,,,,,,,,,113,26,Male,2022-05-04_12h33.39.371,Parachute,2022.1.1,59.89311474584101,
negative,red,2,None,None,,,,,,,,,0,149,149,149,,,,,,,,,,,,,,,,,,,,,,,,,,,,,,,,,,,,,,main,None,None,1,1.494280200015055,537.5637795000221,None,None,1,,,,,,,,,,,,,,113,26,Male,2022-05-04_12h33.39.371,Parachute,2022.1.1,59.89311474584101,
negative,blue,1,None,k,,,,,,,,,0,150,150,150,,,,,,,,,,,,,,,,,,,,,,,,,,,,,,,,,,,,,,main,k,k,1,0.8704223000095226,540.0591431000212,None,None,0,,,,,,,,,,,,,,113,26,Male,2022-05-04_12h33.39.371,Parachute,2022.1.1,59.89311474584101,
negative,yellow,2,k,None,,,,,,,,,0,151,151,151,,,,,,,,,,,,,,,,,,,,,,,,,,,,,,,,,,,,,,main,None,None,1,1.4931365999800619,541.929916699999,None,None,1,,,,,,,,,,,,,,113,26,Male,2022-05-04_12h33.39.371,Parachute,2022.1.1,59.89311474584101,
negative,blue,2,None,k,,,,,,,,,0,152,152,152,,,,,,,,,,,,,,,,,,,,,,,,,,,,,,,,,,,,,,main,k,k,1,0.8200559999968391,544.4252681000216,None,None,0,,,,,,,,,,,,,,113,26,Male,2022-05-04_12h33.39.371,Parachute,2022.1.1,59.89311474584101,
negative,yellow,1,k,None,,,,,,,,,0,153,153,153,,,,,,,,,,,,,,,,,,,,,,,,,,,,,,,,,,,,,,main,None,None,1,1.4944992999953683,546.2467680000118,None,None,1,,,,,,,,,,,,,,113,26,Male,2022-05-04_12h33.39.371,Parachute,2022.1.1,59.89311474584101,
negative,blue,1,None,k,,,,,,,,,0,154,154,154,,,,,,,,,,,,,,,,,,,,,,,,,,,,,,,,,,,,,,main,k,k,1,0.8050498999946285,548.7423752000032,None,None,0,,,,,,,,,,,,,,113,26,Male,2022-05-04_12h33.39.371,Parachute,2022.1.1,59.89311474584101,
positive,yellow,2,None,k,,,,,,,,,0,155,155,155,,,,,,,,,,,,,,,,,,,,,,,,,,,,,,,,,,,,,,main,k,k,1,5.564421499992022,550.5476901000075,None,None,0,,,,,,,,,,,,,,113,26,Male,2022-05-04_12h33.39.371,Parachute,2022.1.1,59.89311474584101,
positive,red,2,None,None,,,,,,,,,0,156,156,156,,,,,,,,,,,,,,,,,,,,,,,,,,,,,,,,,,,,,,main,None,None,1,1.5022897999733686,558.1249637000146,None,None,1,,,,,,,,,,,,,,113,26,Male,2022-05-04_12h33.39.371,Parachute,2022.1.1,59.89311474584101,
positive,red,1,None,None,,,,,,,,,0,157,157,157,,,,,,,,,,,,,,,,,,,,,,,,,,,,,,,,,,,,,,main,None,None,1,1.4973151999874972,560.6266750000068,None,None,1,,,,,,,,,,,,,,113,26,Male,2022-05-04_12h33.39.371,Parachute,2022.1.1,59.89311474584101,
positive,blue,2,k,None,,,,,,,,,0,158,158,158,,,,,,,,,,,,,,,,,,,,,,,,,,,,,,,,,,,,,,main,None,None,1,1.4994711999897845,563.1264781000209,None,None,1,,,,,,,,,,,,,,113,26,Male,2022-05-04_12h33.39.371,Parachute,2022.1.1,59.89311474584101,
negative,yellow,1,k,None,,,,,,,,,0,159,159,159,,,,,,,,,,,,,,,,,,,,,,,,,,,,,,,,,,,,,,main,None,None,1,1.4981358000077307,565.6264514000213,None,None,1,,,,,,,,,,,,,,113,26,Male,2022-05-04_12h33.39.371,Parachute,2022.1.1,59.89311474584101,
negative,red,2,None,None,,,,,,,,,0,160,160,160,,,,,,,,,,,,,,,,,,,,,,,,,,,,,,,,,,,,,,main,None,None,1,1.4991984000080265,568.1267834000173,None,None,1,,,,,,,,,,,,,,113,26,Male,2022-05-04_12h33.39.371,Parachute,2022.1.1,59.89311474584101,
negative,blue,1,None,k,,,,,,,,,0,161,161,161,,,,,,,,,,,,,,,,,,,,,,,,,,,,,,,,,,,,,,main,k,k,1,1.4802716999838594,570.6268938000139,None,None,0,,,,,,,,,,,,,,113,26,Male,2022-05-04_12h33.39.371,Parachute,2022.1.1,59.89311474584101,
negative,blue,1,None,k,,,,,,,,,0,162,162,162,,,,,,,,,,,,,,,,,,,,,,,,,,,,,,,,,,,,,,main,k,k,1,0.7539484000008088,573.1092343000055,None,None,0,,,,,,,,,,,,,,113,26,Male,2022-05-04_12h33.39.371,Parachute,2022.1.1,59.89311474584101,
negative,yellow,1,k,None,,,,,,,,,0,163,163,163,,,,,,,,,,,,,,,,,,,,,,,,,,,,,,,,,,,,,,main,None,None,1,1.5104452000232413,574.8633005000011,None,None,1,,,,,,,,,,,,,,113,26,Male,2022-05-04_12h33.39.371,Parachute,2022.1.1,59.89311474584101,
negative,yellow,1,k,None,,,,,,,,,0,164,164,164,,,,,,,,,,,,,,,,,,,,,,,,,,,,,,,,,,,,,,main,None,None,1,1.4984133999969345,577.3766572000168,None,None,1,,,,,,,,,,,,,,113,26,Male,2022-05-04_12h33.39.371,Parachute,2022.1.1,59.89311474584101,
positive,yellow,1,None,k,,,,,,,,,0,165,165,165,,,,,,,,,,,,,,,,,,,,,,,,,,,,,,,,,,,,,,main,k,k,1,0.7370648999931291,579.8766332000087,None,None,0,,,,,,,,,,,,,,113,26,Male,2022-05-04_12h33.39.371,Parachute,2022.1.1,59.89311474584101,
negative,red,1,None,None,,,,,,,,,0,166,166,166,,,,,,,,,,,,,,,,,,,,,,,,,,,,,,,,,,,,,,main,None,None,1,1.493086200003745,581.613963700016,None,None,1,,,,,,,,,,,,,,113,26,Male,2022-05-04_12h33.39.371,Parachute,2022.1.1,59.89311474584101,
negative,yellow,2,k,None,,,,,,,,,0,167,167,167,,,,,,,,,,,,,,,,,,,,,,,,,,,,,,,,,,,,,,main,None,None,1,1.49871849999181,584.1093830000027,None,None,1,,,,,,,,,,,,,,113,26,Male,2022-05-04_12h33.39.371,Parachute,2022.1.1,59.89311474584101,
positive,blue,2,k,None,,,,,,,,,0,168,168,168,,,,,,,,,,,,,,,,,,,,,,,,,,,,,,,,,,,,,,main,None,None,1,1.4985711999761406,586.6104773000116,None,None,1,,,,,,,,,,,,,,113,26,Male,2022-05-04_12h33.39.371,Parachute,2022.1.1,59.89311474584101,
positive,red,2,None,None,,,,,,,,,0,169,169,169,,,,,,,,,,,,,,,,,,,,,,,,,,,,,,,,,,,,,,main,None,None,1,1.4983806999807712,589.1099208000232,None,None,1,,,,,,,,,,,,,,113,26,Male,2022-05-04_12h33.39.371,Parachute,2022.1.1,59.89311474584101,
positive,red,1,None,None,,,,,,,,,0,170,170,170,,,,,,,,,,,,,,,,,,,,,,,,,,,,,,,,,,,,,,main,None,None,1,1.4986298000148963,591.60978660002,None,None,1,,,,,,,,,,,,,,113,26,Male,2022-05-04_12h33.39.371,Parachute,2022.1.1,59.89311474584101,
negative,blue,2,None,k,,,,,,,,,0,171,171,171,,,,,,,,,,,,,,,,,,,,,,,,,,,,,,,,,,,,,,main,k,k,1,0.7704051999899093,594.1095406000095,None,None,0,,,,,,,,,,,,,,113,26,Male,2022-05-04_12h33.39.371,Parachute,2022.1.1,59.89311474584101,
positive,blue,2,k,None,,,,,,,,,0,172,172,172,,,,,,,,,,,,,,,,,,,,,,,,,,,,,,,,,,,,,,main,None,None,1,1.4935194000136107,595.8912025000027,None,None,1,,,,,,,,,,,,,,113,26,Male,2022-05-04_12h33.39.371,Parachute,2022.1.1,59.89311474584101,
negative,yellow,2,k,None,,,,,,,,,0,173,173,173,,,,,,,,,,,,,,,,,,,,,,,,,,,,,,,,,,,,,,main,None,None,1,1.4993413999909535,598.3766283000004,None,None,1,,,,,,,,,,,,,,113,26,Male,2022-05-04_12h33.39.371,Parachute,2022.1.1,59.89311474584101,
positive,yellow,2,None,k,,,,,,,,,0,174,174,174,,,,,,,,,,,,,,,,,,,,,,,,,,,,,,,,,,,,,,main,k,k,1,0.7695397999777924,600.877782000025,None,None,0,,,,,,,,,,,,,,113,26,Male,2022-05-04_12h33.39.371,Parachute,2022.1.1,59.89311474584101,
negative,blue,2,None,k,,,,,,,,,0,175,175,175,,,,,,,,,,,,,,,,,,,,,,,,,,,,,,,,,,,,,,main,k,k,1,0.8149780000094324,602.6480225000123,None,None,0,,,,,,,,,,,,,,113,26,Male,2022-05-04_12h33.39.371,Parachute,2022.1.1,59.89311474584101,
positive,blue,1,k,None,,,,,,,,,0,176,176,176,,,,,,,,,,,,,,,,,,,,,,,,,,,,,,,,,,,,,,main,None,None,1,1.4939392999804113,604.4646376000019,None,None,1,,,,,,,,,,,,,,113,26,Male,2022-05-04_12h33.39.371,Parachute,2022.1.1,59.89311474584101,
positive,yellow,1,None,k,,,,,,,,,0,177,177,177,,,,,,,,,,,,,,,,,,,,,,,,,,,,,,,,,,,,,,main,k,k,1,0.7688642000139225,606.9601771000016,None,None,0,,,,,,,,,,,,,,113,26,Male,2022-05-04_12h33.39.371,Parachute,2022.1.1,59.89311474584101,
positive,blue,1,k,None,,,,,,,,,0,178,178,178,,,,,,,,,,,,,,,,,,,,,,,,,,,,,,,,,,,,,,main,None,None,1,1.4949615999939851,608.7311694000091,None,None,1,,,,,,,,,,,,,,113,26,Male,2022-05-04_12h33.39.371,Parachute,2022.1.1,59.89311474584101,
positive,yellow,2,None,k,,,,,,,,,0,179,179,179,,,,,,,,,,,,,,,,,,,,,,,,,,,,,,,,,,,,,,main,k,k,1,0.7201083000109065,611.2272061000112,None,None,0,,,,,,,,,,,,,,113,26,Male,2022-05-04_12h33.39.371,Parachute,2022.1.1,59.89311474584101,
positive,blue,1,k,None,,,,,,,,,0,180,180,180,,,,,,,,,,,,,,,,,,,,,,,,,,,,,,,,,,,,,,main,None,None,1,1.4940664999885485,612.9582307000237,None,None,1,,,,,,,,,,,,,,113,26,Male,2022-05-04_12h33.39.371,Parachute,2022.1.1,59.89311474584101,
negative,red,1,None,None,,,,,,,,,0,181,181,181,,,,,,,,,,,,,,,,,,,,,,,,,,,,,,,,,,,,,,main,None,None,1,1.498358199984068,615.4440630000026,None,None,1,,,,,,,,,,,,,,113,26,Male,2022-05-04_12h33.39.371,Parachute,2022.1.1,59.89311474584101,
negative,blue,1,None,k,,,,,,,,,0,182,182,182,,,,,,,,,,,,,,,,,,,,,,,,,,,,,,,,,,,,,,main,k,k,1,1.0199767999874894,617.9438593000232,None,None,0,,,,,,,,,,,,,,113,26,Male,2022-05-04_12h33.39.371,Parachute,2022.1.1,59.89311474584101,
negative,yellow,2,k,None,,,,,,,,,0,183,183,183,,,,,,,,,,,,,,,,,,,,,,,,,,,,,,,,,,,,,,main,None,None,1,1.4973133000021335,619.9649548000016,None,None,1,,,,,,,,,,,,,,113,26,Male,2022-05-04_12h33.39.371,Parachute,2022.1.1,59.89311474584101,
positive,yellow,2,None,k,,,,,,,,,0,184,184,184,,,,,,,,,,,,,,,,,,,,,,,,,,,,,,,,,,,,,,main,k,k,1,0.7647443000169005,622.4687921000004,None,None,0,,,,,,,,,,,,,,113,26,Male,2022-05-04_12h33.39.371,Parachute,2022.1.1,59.89311474584101,
positive,yellow,1,None,k,,,,,,,,,0,185,185,185,,,,,,,,,,,,,,,,,,,,,,,,,,,,,,,,,,,,,,main,k,k,1,0.8979047999891918,624.2342583000136,None,None,0,,,,,,,,,,,,,,113,26,Male,2022-05-04_12h33.39.371,Parachute,2022.1.1,59.89311474584101,
positive,red,2,None,None,,,,,,,,,0,186,186,186,,,,,,,,,,,,,,,,,,,,,,,,,,,,,,,,,,,,,,main,None,None,1,1.4943489000143018,626.1320059999998,None,None,1,,,,,,,,,,,,,,113,26,Male,2022-05-04_12h33.39.371,Parachute,2022.1.1,59.89311474584101,
positive,blue,1,k,None,,,,,,,,,0,187,187,187,,,,,,,,,,,,,,,,,,,,,,,,,,,,,,,,,,,,,,main,None,None,1,1.4986656999972183,628.6275541000068,None,None,1,,,,,,,,,,,,,,113,26,Male,2022-05-04_12h33.39.371,Parachute,2022.1.1,59.89311474584101,
negative,yellow,1,k,None,,,,,,,,,0,188,188,188,,,,,,,,,,,,,,,,,,,,,,,,,,,,,,,,,,,,,,main,None,None,1,1.4986673999810591,631.1277113000106,None,None,1,,,,,,,,,,,,,,113,26,Male,2022-05-04_12h33.39.371,Parachute,2022.1.1,59.89311474584101,
positive,yellow,2,None,k,,,,,,,,,0,189,189,189,,,,,,,,,,,,,,,,,,,,,,,,,,,,,,,,,,,,,,main,k,k,1,0.7361188000068069,633.6277577000146,None,None,0,,,,,,,,,,,,,,113,26,Male,2022-05-04_12h33.39.371,Parachute,2022.1.1,59.89311474584101,
negative,yellow,2,k,None,,,,,,,,,0,190,190,190,,,,,,,,,,,,,,,,,,,,,,,,,,,,,,,,,,,,,,main,None,None,1,1.494354199996451,635.3653001000057,None,None,1,,,,,,,,,,,,,,113,26,Male,2022-05-04_12h33.39.371,Parachute,2022.1.1,59.89311474584101,
negative,yellow,1,k,None,,,,,,,,,0,191,191,191,,,,,,,,,,,,,,,,,,,,,,,,,,,,,,,,,,,,,,main,None,None,1,1.4981755999906454,637.8607704000024,None,None,1,,,,,,,,,,,,,,113,26,Male,2022-05-04_12h33.39.371,Parachute,2022.1.1,59.89311474584101,
positive,blue,2,k,None,,,,,,,,,0,192,192,192,,,,,,,,,,,,,,,,,,,,,,,,,,,,,,,,,,,,,,main,None,None,1,1.4988486999936868,640.3603607999976,None,None,1,,,,,,,,,,,,,,113,26,Male,2022-05-04_12h33.39.371,Parachute,2022.1.1,59.89311474584101,
positive,yellow,1,None,k,,,,,,,,,0,193,193,193,,,,,,,,,,,,,,,,,,,,,,,,,,,,,,,,,,,,,,main,k,k,1,1.0540195000066888,642.8609962000046,None,None,0,,,,,,,,,,,,,,113,26,Male,2022-05-04_12h33.39.371,Parachute,2022.1.1,59.89311474584101,
negative,red,2,None,None,,,,,,,,,0,194,194,194,,,,,,,,,,,,,,,,,,,,,,,,,,,,,,,,,,,,,,main,None,None,1,1.4927904999931343,644.9162215000251,None,None,1,,,,,,,,,,,,,,113,26,Male,2022-05-04_12h33.39.371,Parachute,2022.1.1,59.89311474584101,
positive,red,1,None,None,,,,,,,,,0,195,195,195,,,,,,,,,,,,,,,,,,,,,,,,,,,,,,,,,,,,,,main,None,None,1,1.4990225000074133,647.4106703000143,None,None,1,,,,,,,,,,,,,,113,26,Male,2022-05-04_12h33.39.371,Parachute,2022.1.1,59.89311474584101,
negative,blue,1,None,k,,,,,,,,,0,196,196,196,,,,,,,,,,,,,,,,,,,,,,,,,,,,,,,,,,,,,,main,k,k,1,0.747274399996968,649.9111728999997,None,None,0,,,,,,,,,,,,,,113,26,Male,2022-05-04_12h33.39.371,Parachute,2022.1.1,59.89311474584101,
positive,blue,2,k,None,,,,,,,,,0,197,197,197,,,,,,,,,,,,,,,,,,,,,,,,,,,,,,,,,,,,,,main,None,None,1,1.5009445000032429,651.66073220002,None,None,1,,,,,,,,,,,,,,113,26,Male,2022-05-04_12h33.39.371,Parachute,2022.1.1,59.89311474584101,
negative,blue,2,None,k,,,,,,,,,0,198,198,198,,,,,,,,,,,,,,,,,,,,,,,,,,,,,,,,,,,,,,main,k,k,1,0.8004288999945857,654.162189900002,None,None,0,,,,,,,,,,,,,,113,26,Male,2022-05-04_12h33.39.371,Parachute,2022.1.1,59.89311474584101,
negative,blue,2,None,k,,,,,,,,,0,199,199,199,,,,,,,,,,,,,,,,,,,,,,,,,,,,,,,,,,,,,,main,k,k,1,0.7847865999792702,655.9637464999978,None,None,0,,,,,,,,,,,,,,113,26,Male,2022-05-04_12h33.39.371,Parachute,2022.1.1,59.89311474584101,
positive,blue,2,k,None,,,,,,,,,0,200,200,200,,,,,,,,,,,,,,,,,,,,,,,,,,,,,,,,,,,,,,main,None,None,1,1.4937666000041645,657.7592361000134,None,None,1,,,,,,,,,,,,,,113,26,Male,2022-05-04_12h33.39.371,Parachute,2022.1.1,59.89311474584101,
positive,blue,2,k,None,,,,,,,,,0,201,201,201,,,,,,,,,,,,,,,,,,,,,,,,,,,,,,,,,,,,,,main,None,None,1,1.498523899994325,660.2447754000023,None,None,1,,,,,,,,,,,,,,113,26,Male,2022-05-04_12h33.39.371,Parachute,2022.1.1,59.89311474584101,
negative,yellow,2,k,None,,,,,,,,,0,202,202,202,,,,,,,,,,,,,,,,,,,,,,,,,,,,,,,,,,,,,,main,None,None,1,1.4987855000072159,662.744989800005,None,None,1,,,,,,,,,,,,,,113,26,Male,2022-05-04_12h33.39.371,Parachute,2022.1.1,59.89311474584101,
positive,red,1,None,None,,,,,,,,,0,203,203,203,,,,,,,,,,,,,,,,,,,,,,,,,,,,,,,,,,,,,,main,None,None,1,1.498573499993654,665.2446849000116,None,None,1,,,,,,,,,,,,,,113,26,Male,2022-05-04_12h33.39.371,Parachute,2022.1.1,59.89311474584101,
negative,blue,2,None,k,,,,,,,,,0,204,204,204,,,,,,,,,,,,,,,,,,,,,,,,,,,,,,,,,,,,,,main,k,k,1,1.003544500010321,667.744555000012,None,None,0,,,,,,,,,,,,,,113,26,Male,2022-05-04_12h33.39.371,Parachute,2022.1.1,59.89311474584101,
negative,red,1,None,None,,,,,,,,,0,205,205,205,,,,,,,,,,,,,,,,,,,,,,,,,,,,,,,,,,,,,,main,None,None,1,1.494170399993891,669.7496604000044,None,None,1,,,,,,,,,,,,,,113,26,Male,2022-05-04_12h33.39.371,Parachute,2022.1.1,59.89311474584101,
negative,blue,2,None,k,,,,,,,,,0,206,206,206,,,,,,,,,,,,,,,,,,,,,,,,,,,,,,,,,,,,,,main,k,k,1,0.9705114999960642,672.2444590000086,None,None,0,,,,,,,,,,,,,,113,26,Male,2022-05-04_12h33.39.371,Parachute,2022.1.1,59.89311474584101,
negative,yellow,2,k,None,,,,,,,,,0,207,207,207,,,,,,,,,,,,,,,,,,,,,,,,,,,,,,,,,,,,,,main,None,None,1,1.4937526999856345,674.2167428000248,None,None,1,,,,,,,,,,,,,,113,26,Male,2022-05-04_12h33.39.371,Parachute,2022.1.1,59.89311474584101,
positive,yellow,2,None,k,,,,,,,,,0,208,208,208,,,,,,,,,,,,,,,,,,,,,,,,,,,,,,,,,,,,,,main,k,k,1,1.0205908000061754,676.7133004000061,None,None,0,,,,,,,,,,,,,,113,26,Male,2022-05-04_12h33.39.371,Parachute,2022.1.1,59.89311474584101,
negative,yellow,1,k,None,,,,,,,,,0,209,209,209,,,,,,,,,,,,,,,,,,,,,,,,,,,,,,,,,,,,,,main,None,None,1,1.4931683000177145,678.7331531000091,None,None,1,,,,,,,,,,,,,,113,26,Male,2022-05-04_12h33.39.371,Parachute,2022.1.1,59.89311474584101,
negative,red,2,None,None,,,,,,,,,0,210,210,210,,,,,,,,,,,,,,,,,,,,,,,,,,,,,,,,,,,,,,main,None,None,1,1.4992596999800298,681.2288101000013,None,None,1,,,,,,,,,,,,,,113,26,Male,2022-05-04_12h33.39.371,Parachute,2022.1.1,59.89311474584101,
negative,blue,1,None,k,,,,,,,,,0,211,211,211,,,,,,,,,,,,,,,,,,,,,,,,,,,,,,,,,,,,,,main,k,k,1,1.0359315999958199,683.7288957000128,None,None,0,,,,,,,,,,,,,,113,26,Male,2022-05-04_12h33.39.371,Parachute,2022.1.1,59.89311474584101,
negative,yellow,1,k,None,,,,,,,,,0,212,212,212,,,,,,,,,,,,,,,,,,,,,,,,,,,,,,,,,,,,,,main,None,None,1,1.494370100001106,685.768265700026,None,None,1,,,,,,,,,,,,,,113,26,Male,2022-05-04_12h33.39.371,Parachute,2022.1.1,59.89311474584101,
positive,blue,1,k,None,,,,,,,,,0,213,213,213,,,,,,,,,,,,,,,,,,,,,,,,,,,,,,,,,,,,,,main,None,None,1,1.4984791000024416,688.2632898000011,None,None,1,,,,,,,,,,,,,,113,26,Male,2022-05-04_12h33.39.371,Parachute,2022.1.1,59.89311474584101,
positive,blue,1,k,None,,,,,,,,,0,214,214,214,,,,,,,,,,,,,,,,,,,,,,,,,,,,,,,,,,,,,,main,None,None,1,1.4989365999936126,690.7625720000069,None,None,1,,,,,,,,,,,,,,113,26,Male,2022-05-04_12h33.39.371,Parachute,2022.1.1,59.89311474584101,
positive,yellow,1,None,k,,,,,,,,,0,215,215,215,,,,,,,,,,,,,,,,,,,,,,,,,,,,,,,,,,,,,,main,k,k,1,0.8708884000079706,693.2626467000227,None,None,0,,,,,,,,,,,,,,113,26,Male,2022-05-04_12h33.39.371,Parachute,2022.1.1,59.89311474584101,
positive,yellow,1,None,k,,,,,,,,,0,216,216,216,,,,,,,,,,,,,,,,,,,,,,,,,,,,,,,,,,,,,,main,k,k,1,0.8915172000124585,695.1344076000096,None,None,0,,,,,,,,,,,,,,113,26,Male,2022-05-04_12h33.39.371,Parachute,2022.1.1,59.89311474584101,
positive,yellow,2,None,k,,,,,,,,,0,217,217,217,,,,,,,,,,,,,,,,,,,,,,,,,,,,,,,,,,,,,,main,k,k,1,0.8711264999874402,697.0285914000124,None,None,0,,,,,,,,,,,,,,113,26,Male,2022-05-04_12h33.39.371,Parachute,2022.1.1,59.89311474584101,
negative,blue,1,None,k,,,,,,,,,0,218,218,218,,,,,,,,,,,,,,,,,,,,,,,,,,,,,,,,,,,,,,main,k,k,1,1.0977613999857567,698.9011396999995,None,None,0,,,,,,,,,,,,,,113,26,Male,2022-05-04_12h33.39.371,Parachute,2022.1.1,59.89311474584101,
positive,red,2,None,None,,,,,,,,,0,219,219,219,,,,,,,,,,,,,,,,,,,,,,,,,,,,,,,,,,,,,,main,None,None,1,1.4941116999834776,701.0003361999989,None,None,1,,,,,,,,,,,,,,113,26,Male,2022-05-04_12h33.39.371,Parachute,2022.1.1,59.89311474584101,
positive,yellow,1,None,k,,,,,,,,,0,220,220,220,,,,,,,,,,,,,,,,,,,,,,,,,,,,,,,,,,,,,,main,k,k,1,0.9798889000085182,703.4960586000234,None,None,0,,,,,,,,,,,,,,113,26,Male,2022-05-04_12h33.39.371,Parachute,2022.1.1,59.89311474584101,
positive,blue,1,k,None,,,,,,,,,0,221,221,221,,,,,,,,,,,,,,,,,,,,,,,,,,,,,,,,,,,,,,main,None,None,1,1.4998285000037868,705.4786504000076,None,None,1,,,,,,,,,,,,,,113,26,Male,2022-05-04_12h33.39.371,Parachute,2022.1.1,59.89311474584101,
positive,yellow,2,None,k,,,,,,,,,0,222,222,222,,,,,,,,,,,,,,,,,,,,,,,,,,,,,,,,,,,,,,main,k,k,1,0.7839687999803573,707.9785625000077,None,None,0,,,,,,,,,,,,,,113,26,Male,2022-05-04_12h33.39.371,Parachute,2022.1.1,59.89311474584101,
negative,yellow,1,k,None,,,,,,,,,0,223,223,223,,,,,,,,,,,,,,,,,,,,,,,,,,,,,,,,,,,,,,main,None,None,1,1.4966469000210054,709.7652518000104,None,None,1,,,,,,,,,,,,,,113,26,Male,2022-05-04_12h33.39.371,Parachute,2022.1.1,59.89311474584101,
positive,yellow,2,None,k,,,,,,,,,0,224,224,224,,,,,,,,,,,,,,,,,,,,,,,,,,,,,,,,,,,,,,main,k,k,1,0.9370962999819312,712.2623065000225,None,None,0,,,,,,,,,,,,,,113,26,Male,2022-05-04_12h33.39.371,Parachute,2022.1.1,59.89311474584101,
negative,yellow,2,k,None,,,,,,,,,0,225,225,225,,,,,,,,,,,,,,,,,,,,,,,,,,,,,,,,,,,,,,main,None,None,1,1.4938165999774355,714.2100879000209,None,None,1,,,,,,,,,,,,,,113,26,Male,2022-05-04_12h33.39.371,Parachute,2022.1.1,59.89311474584101,
negative,blue,2,None,k,,,,,,,,,0,226,226,226,,,,,,,,,,,,,,,,,,,,,,,,,,,,,,,,,,,,,,main,k,k,1,0.9689737999869976,716.6964160000207,None,None,0,,,,,,,,,,,,,,113,26,Male,2022-05-04_12h33.39.371,Parachute,2022.1.1,59.89311474584101,
positive,red,2,None,None,,,,,,,,,0,227,227,227,,,,,,,,,,,,,,,,,,,,,,,,,,,,,,,,,,,,,,main,None,None,1,1.4947697999887168,718.667111000017,None,None,1,,,,,,,,,,,,,,113,26,Male,2022-05-04_12h33.39.371,Parachute,2022.1.1,59.89311474584101,
positive,blue,2,k,None,,,,,,,,,0,228,228,228,,,,,,,,,,,,,,,,,,,,,,,,,,,,,,,,,,,,,,main,None,None,1,1.4983467999845743,721.1631789000239,None,None,1,,,,,,,,,,,,,,113,26,Male,2022-05-04_12h33.39.371,Parachute,2022.1.1,59.89311474584101,
negative,blue,1,None,k,,,,,,,,,0,229,229,229,,,,,,,,,,,,,,,,,,,,,,,,,,,,,,,,,,,,,,main,k,k,1,0.936936300015077,723.6625953000039,None,None,0,,,,,,,,,,,,,,113,26,Male,2022-05-04_12h33.39.371,Parachute,2022.1.1,59.89311474584101,
positive,yellow,1,None,k,,,,,,,,,0,230,230,230,,,,,,,,,,,,,,,,,,,,,,,,,,,,,,,,,,,,,,main,k,k,1,0.9654871000093408,725.6010597000131,None,None,0,,,,,,,,,,,,,,113,26,Male,2022-05-04_12h33.39.371,Parachute,2022.1.1,59.89311474584101,
negative,blue,2,None,k,,,,,,,,,0,231,231,231,,,,,,,,,,,,,,,,,,,,,,,,,,,,,,,,,,,,,,main,k,k,1,0.9652323000191245,727.5672990000166,None,None,0,,,,,,,,,,,,,,113,26,Male,2022-05-04_12h33.39.371,Parachute,2022.1.1,59.89311474584101,
negative,red,1,None,None,,,,,,,,,0,232,232,232,,,,,,,,,,,,,,,,,,,,,,,,,,,,,,,,,,,,,,main,None,None,1,1.4938520999858156,729.5339387000131,None,None,1,,,,,,,,,,,,,,113,26,Male,2022-05-04_12h33.39.371,Parachute,2022.1.1,59.89311474584101,
positive,blue,2,k,None,,,,,,,,,0,233,233,233,,,,,,,,,,,,,,,,,,,,,,,,,,,,,,,,,,,,,,main,None,None,1,1.4987024000147358,732.0299595000106,None,None,1,,,,,,,,,,,,,,113,26,Male,2022-05-04_12h33.39.371,Parachute,2022.1.1,59.89311474584101,
negative,yellow,1,k,None,,,,,,,,,0,234,234,234,,,,,,,,,,,,,,,,,,,,,,,,,,,,,,,,,,,,,,main,None,None,1,1.4981467000034172,734.529923300026,None,None,1,,,,,,,,,,,,,,113,26,Male,2022-05-04_12h33.39.371,Parachute,2022.1.1,59.89311474584101,
negative,yellow,2,k,None,,,,,,,,,0,235,235,235,,,,,,,,,,,,,,,,,,,,,,,,,,,,,,,,,,,,,,main,None,None,1,1.4989830999984406,737.0293690000253,None,None,1,,,,,,,,,,,,,,113,26,Male,2022-05-04_12h33.39.371,Parachute,2022.1.1,59.89311474584101,
positive,red,1,None,None,,,,,,,,,0,236,236,236,,,,,,,,,,,,,,,,,,,,,,,,,,,,,,,,,,,,,,main,None,None,1,1.499212599999737,739.5299826000119,None,None,1,,,,,,,,,,,,,,113,26,Male,2022-05-04_12h33.39.371,Parachute,2022.1.1,59.89311474584101,
negative,red,2,None,None,,,,,,,,,0,237,237,237,,,,,,,,,,,,,,,,,,,,,,,,,,,,,,,,,,,,,,main,None,None,1,1.498079700017115,742.0303913000098,None,None,1,,,,,,,,,,,,,,113,26,Male,2022-05-04_12h33.39.371,Parachute,2022.1.1,59.89311474584101,
negative,blue,1,None,k,,,,,,,,,0,238,238,238,,,,,,,,,,,,,,,,,,,,,,,,,,,,,,,,,,,,,,main,k,k,1,0.770284600002924,744.5294883000024,None,None,0,,,,,,,,,,,,,,113,26,Male,2022-05-04_12h33.39.371,Parachute,2022.1.1,59.89311474584101,
positive,blue,1,k,None,,,,,,,,,0,239,239,239,,,,,,,,,,,,,,,,,,,,,,,,,,,,,,,,,,,,,,main,None,None,1,1.4936481000040658,746.3013003000233,None,None,1,,,,,,,,,,,,,,113,26,Male,2022-05-04_12h33.39.371,Parachute,2022.1.1,59.89311474584101,
,,,,,,,,,,,,,,,,,,,,,,,,,,,,,,,,,,,,,,,,,,,,,,,,,,,,,,,,,,,,,,,,,,,,,,,,,,748.7965678000182,None,,,,,,,,
