distractor,target,set,ans1,ans2,rep_loop4.thisRepN,rep_loop4.thisTrialN,rep_loop4.thisN,rep_loop4.thisIndex,st2_prac_loop.thisRepN,st2_prac_loop.thisTrialN,st2_prac_loop.thisN,st2_prac_loop.thisIndex,st2_main_loop.thisRepN,st2_main_loop.thisTrialN,st2_main_loop.thisN,st2_main_loop.thisIndex,image_4.started,image_4.stopped,mouse_7.x,mouse_7.y,mouse_7.leftButton,mouse_7.midButton,mouse_7.rightButton,sound_2.started,sound_2.stopped,key_resp_3.keys,mouse_5.x,mouse_5.y,mouse_5.leftButton,mouse_5.midButton,mouse_5.rightButton,mouse_5.started,mouse_5.stopped,yes_text2.started,yes_text2.stopped,no_text2.started,no_text2.stopped,mouse_3.x,mouse_3.y,mouse_3.leftButton,mouse_3.midButton,mouse_3.rightButton,mouse_3.started,mouse_3.stopped,st_prac_back.started,st_prac_back.stopped,st_prac_text.started,st_prac_text.stopped,st_fix_back.started,st_fix_back.stopped,st_fix_2.started,st_fix_2.stopped,main_prac,st_ans,st_res,st_corr,st_rt,st_back.started,st_back.stopped,st2_resp.keys,st2_resp.corr,st_main_back.started,st_main_back.stopped,st_main_text.started,st_main_text.stopped,mouse_4.x,mouse_4.y,mouse_4.leftButton,mouse_4.midButton,mouse_4.rightButton,mouse_4.started,mouse_4.stopped,text_2.started,text_2.stopped,id*,age*,gender*,date,expName,psychopyVersion,frameRate,
,,,,,,,,,,,,,,,,,34.60199029999785,None,-0.08148148,-0.1287037,0,0,0,,,,,,,,,,,,,,,,,,,,,,,,,,,,,,,,,,,,,,,,,,,,,,,,,,,,114,20,Female,2022-05-04_14h27.02.684,Parachute,2022.1.1,60.128675365093144,
negative,yellow,1,k,None,,,,,0,0,0,0,,,,,,,,,,,,38.728886880000935,None,None,0.55,-0.43333334,0,0,0,1.002988779975567,None,95.78005689999554,None,95.78005689999554,None,-0.13333334,-0.12592593,0,0,0,0.0133324800117407,None,104.83376710000448,None,104.83376710000448,None,106.84557229999336,None,106.84557229999336,None,prac,k,k,1,1.8648614000121597,108.85461900001974,None,None,0,,,,,,,,,,,,,,114,20,Female,2022-05-04_14h27.02.684,Parachute,2022.1.1,60.128675365093144,
positive,red,2,None,None,,,,,0,1,1,1,,,,,,,,,,,,,,,,,,,,,,,,,,,,,,,,,,,,,,,,,prac,None,None,1,1.5021976999996696,112.74707780001336,None,None,1,,,,,,,,,,,,,,114,20,Female,2022-05-04_14h27.02.684,Parachute,2022.1.1,60.128675365093144,
negative,blue,2,None,k,,,,,0,2,2,2,,,,,,,,,,,,,,,,,,,,,,,,,,,,,,,,,,,,,,,,,prac,None,None,1,1.502077899989672,115.24747349999961,None,None,1,,,,,,,,,,,,,,114,20,Female,2022-05-04_14h27.02.684,Parachute,2022.1.1,60.128675365093144,
positive,yellow,1,None,k,,,,,0,3,3,3,,,,,,,,,,,,,,,,,,,,,,,,,,,,,,,,,,,,,,,,,prac,None,None,1,1.5113435000239406,117.75161170001957,None,None,1,,,,,,,,,,,,,,114,20,Female,2022-05-04_14h27.02.684,Parachute,2022.1.1,60.128675365093144,
negative,blue,2,None,k,,,,,0,4,4,4,,,,,,,,,,,,,,,,,,,,,,,,,,,,,,,,,,,,,,,,,prac,None,None,1,1.4992878999910317,120.26358810000238,None,None,1,,,,,,,,,,,,,,114,20,Female,2022-05-04_14h27.02.684,Parachute,2022.1.1,60.128675365093144,
negative,blue,1,None,k,,,,,0,5,5,5,,,,,,,,,,,,,,,,,,,,,,,,,,,,,,,,,,,,,,,,,prac,None,None,1,1.4985395999974571,122.76460620001308,None,None,1,,,,,,,,,,,,,,114,20,Female,2022-05-04_14h27.02.684,Parachute,2022.1.1,60.128675365093144,
negative,yellow,2,k,None,,,,,0,6,6,6,,,,,,,,,,,,,,,,,,,,,,,,,,,,,,,,,,,,,,,,,prac,k,k,1,2.5684695999952964,125.26449550001416,None,None,0,,,,,,,,,,,,,,114,20,Female,2022-05-04_14h27.02.684,Parachute,2022.1.1,60.128675365093144,
negative,red,1,None,None,,,,,0,7,7,7,,,,,,,,,,,,,,,,,,,,,,,,,,,,,,,,,,,,,,,,,prac,None,None,1,1.5024245000095107,129.84730160000618,None,None,1,,,,,,,,,,,,,,114,20,Female,2022-05-04_14h27.02.684,Parachute,2022.1.1,60.128675365093144,
positive,yellow,2,None,k,,,,,0,8,8,8,,,,,,,,,,,,,,,,,,,,,,,,,,,,,,,,,,,,,,,,,prac,None,None,1,1.4985823000024538,132.34799860001658,None,None,1,,,,,,,,,,,,,,114,20,Female,2022-05-04_14h27.02.684,Parachute,2022.1.1,60.128675365093144,
negative,yellow,1,k,None,,,,,0,9,9,9,,,,,,,,,,,,,,,,,,,,,,,,,,,,,,,,,,,,,,,,,prac,k,k,1,1.0369650999782607,134.8481657000084,None,None,0,,,,,,,,,,,,,,114,20,Female,2022-05-04_14h27.02.684,Parachute,2022.1.1,60.128675365093144,
positive,yellow,2,None,k,,,,,0,10,10,10,,,,,,,,,,,,,,,,,,,,,,,,,,,,,,,,,,,,,,,,,prac,None,None,1,1.4927032999985386,136.88610520001384,None,None,1,,,,,,,,,,,,,,114,20,Female,2022-05-04_14h27.02.684,Parachute,2022.1.1,60.128675365093144,
negative,yellow,2,k,None,,,,,0,11,11,11,,,,,,,,,,,,,,,,,,,,,,,,,,,,,,,,,,,,,,,,,prac,k,k,1,1.4040062999993097,139.38225120000425,None,None,0,,,,,,,,,,,,,,114,20,Female,2022-05-04_14h27.02.684,Parachute,2022.1.1,60.128675365093144,
negative,red,2,None,None,,,,,0,12,12,12,,,,,,,,,,,,,,,,,,,,,,,,,,,,,,,,,,,,,,,,,prac,None,None,1,1.493378200015286,141.78640650000307,None,None,1,,,,,,,,,,,,,,114,20,Female,2022-05-04_14h27.02.684,Parachute,2022.1.1,60.128675365093144,
positive,red,1,None,None,,,,,0,13,13,13,,,,,,,,,,,,,,,,,,,,,,,,,,,,,,,,,,,,,,,,,prac,None,None,1,1.4986348999955226,144.28112650002004,None,None,1,,,,,,,,,,,,,,114,20,Female,2022-05-04_14h27.02.684,Parachute,2022.1.1,60.128675365093144,
positive,blue,2,k,None,,,,,0,14,14,14,,,,,,,,,,,,,,,,,,,,,,,,,,,,,,,,,,,,,,,,,prac,k,k,1,0.9195034999866039,146.78120620001573,None,None,0,,,,,,,,,,,,,,114,20,Female,2022-05-04_14h27.02.684,Parachute,2022.1.1,60.128675365093144,
positive,blue,1,k,None,,,,,0,15,15,15,,,,,,,,,,,,,,,,,,,,,,,,,,,,,,,,,,,,,,,,,prac,k,k,1,1.1333668000006583,148.70277940001688,None,None,0,,,,,,,,,,,,,,114,20,Female,2022-05-04_14h27.02.684,Parachute,2022.1.1,60.128675365093144,
negative,blue,1,None,k,,,,,0,16,16,16,,,,,,,,,,,,,,,,,,,,,,,,,,,,,,,,,,,,,,,,,prac,None,None,1,1.4930304999870714,150.8457554000197,None,None,1,,,,,,,,,,,,,,114,20,Female,2022-05-04_14h27.02.684,Parachute,2022.1.1,60.128675365093144,
positive,blue,2,k,None,,,,,0,17,17,17,,,,,,,,,,,,,,,,,,,,,,,,,,,,,,,,,,,,,,,,,prac,k,k,1,1.1470224999939092,153.33093620001455,None,None,0,,,,,,,,,,,,,,114,20,Female,2022-05-04_14h27.02.684,Parachute,2022.1.1,60.128675365093144,
positive,blue,1,k,None,,,,,0,18,18,18,,,,,,,,,,,,,,,,,,,,,,,,,,,,,,,,,,,,,,,,,prac,k,k,1,0.7889655999897514,155.4810972000123,None,None,0,,,,,,,,,,,,,,114,20,Female,2022-05-04_14h27.02.684,Parachute,2022.1.1,60.128675365093144,
positive,yellow,1,None,k,,,,,0,19,19,19,,,,,,,,,,,,,,,,,,,,,,,,,,,,,,,,,,,,,,,,,prac,None,None,1,1.4938174999842886,157.2695569000207,None,None,1,,,,,,,,,,,,,,114,20,Female,2022-05-04_14h27.02.684,Parachute,2022.1.1,60.128675365093144,
negative,yellow,1,k,None,,,,,1,0,20,0,,,,,,,,,,,,,,,,,,,,,,,,,,,,,,,,,,,,,,,,,prac,k,k,1,1.3531034000043292,159.76511800001026,None,None,0,,,,,,,,,,,,,,114,20,Female,2022-05-04_14h27.02.684,Parachute,2022.1.1,60.128675365093144,
positive,red,2,None,None,,,,,1,1,21,1,,,,,,,,,,,,,,,,,,,,,,,,,,,,,,,,,,,,,,,,,prac,None,None,1,1.4936845999909565,162.11943290001363,None,None,1,,,,,,,,,,,,,,114,20,Female,2022-05-04_14h27.02.684,Parachute,2022.1.1,60.128675365093144,
negative,blue,2,None,k,,,,,1,2,22,2,,,,,,,,,,,,,,,,,,,,,,,,,,,,,,,,,,,,,,,,,prac,None,k,0,1.1830631000048015,164.61474419999286,None,None,1,,,,,,,,,,,,,,114,20,Female,2022-05-04_14h27.02.684,Parachute,2022.1.1,60.128675365093144,
positive,yellow,1,None,k,,,,,1,3,23,3,,,,,,,,,,,,,,,,,,,,,,,,,,,,,,,,,,,,,,,,,prac,None,None,1,1.5024449999909848,167.8142882999964,None,None,1,,,,,,,,,,,,,,114,20,Female,2022-05-04_14h27.02.684,Parachute,2022.1.1,60.128675365093144,
negative,blue,2,None,k,,,,,1,4,24,4,,,,,,,,,,,,,,,,,,,,,,,,,,,,,,,,,,,,,,,,,prac,None,None,1,1.4984820999961812,170.315923200018,None,None,1,,,,,,,,,,,,,,114,20,Female,2022-05-04_14h27.02.684,Parachute,2022.1.1,60.128675365093144,
negative,blue,1,None,k,,,,,1,5,25,5,,,,,,,,,,,,,,,,,,,,,,,,,,,,,,,,,,,,,,,,,prac,None,None,1,1.4986398000037298,172.8162094000145,None,None,1,,,,,,,,,,,,,,114,20,Female,2022-05-04_14h27.02.684,Parachute,2022.1.1,60.128675365093144,
negative,yellow,2,k,None,,,,,1,6,26,6,,,,,,,,,,,,,,,,,,,,,,,,,,,,,,,,,,,,,,,,,prac,k,k,1,1.1197597999998834,175.31563930000993,None,None,0,,,,,,,,,,,,,,114,20,Female,2022-05-04_14h27.02.684,Parachute,2022.1.1,60.128675365093144,
negative,red,1,None,None,,,,,1,7,27,7,,,,,,,,,,,,,,,,,,,,,,,,,,,,,,,,,,,,,,,,,prac,None,None,1,1.4935885000159033,177.44633920001797,None,None,1,,,,,,,,,,,,,,114,20,Female,2022-05-04_14h27.02.684,Parachute,2022.1.1,60.128675365093144,
positive,yellow,2,None,k,,,,,1,8,28,8,,,,,,,,,,,,,,,,,,,,,,,,,,,,,,,,,,,,,,,,,prac,None,None,1,1.498609399975976,179.93209099999513,None,None,1,,,,,,,,,,,,,,114,20,Female,2022-05-04_14h27.02.684,Parachute,2022.1.1,60.128675365093144,
negative,yellow,1,k,None,,,,,1,9,29,9,,,,,,,,,,,,,,,,,,,,,,,,,,,,,,,,,,,,,,,,,prac,k,k,1,0.870179299992742,182.4326449999935,None,None,0,,,,,,,,,,,,,,114,20,Female,2022-05-04_14h27.02.684,Parachute,2022.1.1,60.128675365093144,
positive,yellow,2,None,k,,,,,1,10,30,10,,,,,,,,,,,,,,,,,,,,,,,,,,,,,,,,,,,,,,,,,prac,None,None,1,1.4935684999800287,184.31594550001319,None,None,1,,,,,,,,,,,,,,114,20,Female,2022-05-04_14h27.02.684,Parachute,2022.1.1,60.128675365093144,
negative,yellow,2,k,None,,,,,1,11,31,11,,,,,,,,,,,,,,,,,,,,,,,,,,,,,,,,,,,,,,,,,prac,k,k,1,0.9302164000109769,186.79932610000833,None,None,0,,,,,,,,,,,,,,114,20,Female,2022-05-04_14h27.02.684,Parachute,2022.1.1,60.128675365093144,
negative,red,2,None,None,,,,,1,12,32,12,,,,,,,,,,,,,,,,,,,,,,,,,,,,,,,,,,,,,,,,,prac,None,None,1,1.5005637000140268,188.7320977000054,None,None,1,,,,,,,,,,,,,,114,20,Female,2022-05-04_14h27.02.684,Parachute,2022.1.1,60.128675365093144,
positive,red,1,None,None,,,,,1,13,33,13,,,,,,,,,,,,,,,,,,,,,,,,,,,,,,,,,,,,,,,,,prac,None,None,1,1.4980836000177078,191.23311870000907,None,None,1,,,,,,,,,,,,,,114,20,Female,2022-05-04_14h27.02.684,Parachute,2022.1.1,60.128675365093144,
positive,blue,2,k,None,,,,,1,14,34,14,,,,,,,,,,,,,,,,,,,,,,,,,,,,,,,,,,,,,,,,,prac,k,k,1,1.0537111000157893,193.73240290000103,None,None,0,,,,,,,,,,,,,,114,20,Female,2022-05-04_14h27.02.684,Parachute,2022.1.1,60.128675365093144,
positive,blue,1,k,None,,,,,1,15,35,15,,,,,,,,,,,,,,,,,,,,,,,,,,,,,,,,,,,,,,,,,prac,k,k,1,0.998099699994782,195.78669010000885,None,None,0,,,,,,,,,,,,,,114,20,Female,2022-05-04_14h27.02.684,Parachute,2022.1.1,60.128675365093144,
negative,blue,1,None,k,,,,,1,16,36,16,,,,,,,,,,,,,,,,,,,,,,,,,,,,,,,,,,,,,,,,,prac,None,None,1,1.510136800003238,197.78776830001152,None,None,1,,,,,,,,,,,,,,114,20,Female,2022-05-04_14h27.02.684,Parachute,2022.1.1,60.128675365093144,
positive,blue,2,k,None,,,,,1,17,37,17,,,,,,,,,,,,,,,,,,,,,,,,,,,,,,,,,,,,,,,,,prac,k,k,1,1.3190933000005316,200.30058559999452,None,None,0,,,,,,,,,,,,,,114,20,Female,2022-05-04_14h27.02.684,Parachute,2022.1.1,60.128675365093144,
positive,blue,1,k,None,,,,,1,18,38,18,,,,,,,,,,,,,,,,,,,,,,,,,,,,,,,,,,,,,,,,,prac,k,k,1,1.0159481999871787,202.621017700003,None,None,0,,,,,,,,,,,,,,114,20,Female,2022-05-04_14h27.02.684,Parachute,2022.1.1,60.128675365093144,
positive,yellow,1,None,k,,,,,1,19,39,19,,,,,,,,,,,,,,,,,,,,,,,,,,,,,,,,,,,,,,,,,prac,None,None,1,1.4930347999907099,204.63793980001356,None,None,1,,,,,,,,,,,,,,114,20,Female,2022-05-04_14h27.02.684,Parachute,2022.1.1,60.128675365093144,
,,,,,,,,,,,,,,,,,,,,,,,,,,,,,,,,,,,,,,,,,,,,,,,,,,,,,,,,,,,,,,207.14773570001125,None,207.14773570001125,None,0.22592592,-0.22777778,0,0,0,0.01244628001586534,None,,,114,20,Female,2022-05-04_14h27.02.684,Parachute,2022.1.1,60.128675365093144,
negative,yellow,2,k,None,,,,,,,,,0,0,0,0,,,,,,,,,,,,,,,,,,,,,,,,,,,,,,,,,208.69910319999326,None,208.69910319999326,None,main,k,k,1,1.189969300001394,210.74612230001367,None,None,0,,,,,,,,,,,,,,114,20,Female,2022-05-04_14h27.02.684,Parachute,2022.1.1,60.128675365093144,
positive,red,1,None,None,,,,,,,,,0,1,1,1,,,,,,,,,,,,,,,,,,,,,,,,,,,,,,,,,,,,,main,None,None,1,1.4929283000237774,212.93746060002013,None,None,1,,,,,,,,,,,,,,114,20,Female,2022-05-04_14h27.02.684,Parachute,2022.1.1,60.128675365093144,
positive,blue,2,k,None,,,,,,,,,0,2,2,2,,,,,,,,,,,,,,,,,,,,,,,,,,,,,,,,,,,,,main,k,k,1,0.9540171999833547,215.43290470002103,None,None,0,,,,,,,,,,,,,,114,20,Female,2022-05-04_14h27.02.684,Parachute,2022.1.1,60.128675365093144,
positive,blue,1,k,None,,,,,,,,,0,3,3,3,,,,,,,,,,,,,,,,,,,,,,,,,,,,,,,,,,,,,main,k,k,1,0.7818787000142038,217.38713200000348,None,None,0,,,,,,,,,,,,,,114,20,Female,2022-05-04_14h27.02.684,Parachute,2022.1.1,60.128675365093144,
negative,yellow,2,k,None,,,,,,,,,0,4,4,4,,,,,,,,,,,,,,,,,,,,,,,,,,,,,,,,,,,,,main,k,k,1,0.9787802999780979,219.17082160001155,None,None,0,,,,,,,,,,,,,,114,20,Female,2022-05-04_14h27.02.684,Parachute,2022.1.1,60.128675365093144,
positive,yellow,2,None,k,,,,,,,,,0,5,5,5,,,,,,,,,,,,,,,,,,,,,,,,,,,,,,,,,,,,,main,None,None,1,1.4960887000197545,221.15224470000248,None,None,1,,,,,,,,,,,,,,114,20,Female,2022-05-04_14h27.02.684,Parachute,2022.1.1,60.128675365093144,
negative,blue,2,None,k,,,,,,,,,0,6,6,6,,,,,,,,,,,,,,,,,,,,,,,,,,,,,,,,,,,,,main,None,k,0,1.2037961999885738,223.64922540000407,None,None,1,,,,,,,,,,,,,,114,20,Female,2022-05-04_14h27.02.684,Parachute,2022.1.1,60.128675365093144,
positive,red,2,None,None,,,,,,,,,0,7,7,7,,,,,,,,,,,,,,,,,,,,,,,,,,,,,,,,,,,,,main,None,None,1,1.5023948000161909,226.86593719999655,None,None,1,,,,,,,,,,,,,,114,20,Female,2022-05-04_14h27.02.684,Parachute,2022.1.1,60.128675365093144,
positive,yellow,1,None,k,,,,,,,,,0,8,8,8,,,,,,,,,,,,,,,,,,,,,,,,,,,,,,,,,,,,,main,None,None,1,1.497926300013205,229.3674915000156,None,None,1,,,,,,,,,,,,,,114,20,Female,2022-05-04_14h27.02.684,Parachute,2022.1.1,60.128675365093144,
negative,red,1,None,None,,,,,,,,,0,9,9,9,,,,,,,,,,,,,,,,,,,,,,,,,,,,,,,,,,,,,main,None,None,1,1.498726899997564,231.86634080001386,None,None,1,,,,,,,,,,,,,,114,20,Female,2022-05-04_14h27.02.684,Parachute,2022.1.1,60.128675365093144,
positive,yellow,1,None,k,,,,,,,,,0,10,10,10,,,,,,,,,,,,,,,,,,,,,,,,,,,,,,,,,,,,,main,None,None,1,1.4991529999824706,234.36654540000018,None,None,1,,,,,,,,,,,,,,114,20,Female,2022-05-04_14h27.02.684,Parachute,2022.1.1,60.128675365093144,
negative,yellow,1,k,None,,,,,,,,,0,11,11,11,,,,,,,,,,,,,,,,,,,,,,,,,,,,,,,,,,,,,main,k,k,1,0.9373238999978639,236.86750670001493,None,None,0,,,,,,,,,,,,,,114,20,Female,2022-05-04_14h27.02.684,Parachute,2022.1.1,60.128675365093144,
negative,yellow,1,k,None,,,,,,,,,0,12,12,12,,,,,,,,,,,,,,,,,,,,,,,,,,,,,,,,,,,,,main,k,k,1,0.8978721000021324,238.8043663999997,None,None,0,,,,,,,,,,,,,,114,20,Female,2022-05-04_14h27.02.684,Parachute,2022.1.1,60.128675365093144,
negative,red,2,None,None,,,,,,,,,0,13,13,13,,,,,,,,,,,,,,,,,,,,,,,,,,,,,,,,,,,,,main,None,None,1,1.4933667999866884,240.7045524000132,None,None,1,,,,,,,,,,,,,,114,20,Female,2022-05-04_14h27.02.684,Parachute,2022.1.1,60.128675365093144,
positive,yellow,2,None,k,,,,,,,,,0,14,14,14,,,,,,,,,,,,,,,,,,,,,,,,,,,,,,,,,,,,,main,None,None,1,1.4985106000094675,243.19971410001745,None,None,1,,,,,,,,,,,,,,114,20,Female,2022-05-04_14h27.02.684,Parachute,2022.1.1,60.128675365093144,
positive,blue,1,k,None,,,,,,,,,0,15,15,15,,,,,,,,,,,,,,,,,,,,,,,,,,,,,,,,,,,,,main,k,k,1,1.2710660999873653,245.69975709999562,None,None,0,,,,,,,,,,,,,,114,20,Female,2022-05-04_14h27.02.684,Parachute,2022.1.1,60.128675365093144,
negative,blue,1,None,k,,,,,,,,,0,16,16,16,,,,,,,,,,,,,,,,,,,,,,,,,,,,,,,,,,,,,main,None,None,1,1.493562000017846,247.9714709999971,None,None,1,,,,,,,,,,,,,,114,20,Female,2022-05-04_14h27.02.684,Parachute,2022.1.1,60.128675365093144,
positive,blue,2,k,None,,,,,,,,,0,17,17,17,,,,,,,,,,,,,,,,,,,,,,,,,,,,,,,,,,,,,main,k,k,1,0.9370724000036716,250.46718880001572,None,None,0,,,,,,,,,,,,,,114,20,Female,2022-05-04_14h27.02.684,Parachute,2022.1.1,60.128675365093144,
negative,blue,2,None,k,,,,,,,,,0,18,18,18,,,,,,,,,,,,,,,,,,,,,,,,,,,,,,,,,,,,,main,None,None,1,1.4933294999937061,252.4049090000044,None,None,1,,,,,,,,,,,,,,114,20,Female,2022-05-04_14h27.02.684,Parachute,2022.1.1,60.128675365093144,
negative,blue,1,None,k,,,,,,,,,0,19,19,19,,,,,,,,,,,,,,,,,,,,,,,,,,,,,,,,,,,,,main,None,None,1,1.498758200003067,254.90028830000665,None,None,1,,,,,,,,,,,,,,114,20,Female,2022-05-04_14h27.02.684,Parachute,2022.1.1,60.128675365093144,
negative,blue,1,None,k,,,,,,,,,0,20,20,20,,,,,,,,,,,,,,,,,,,,,,,,,,,,,,,,,,,,,main,None,None,1,1.498927000007825,257.40028520001215,None,None,1,,,,,,,,,,,,,,114,20,Female,2022-05-04_14h27.02.684,Parachute,2022.1.1,60.128675365093144,
negative,blue,2,None,k,,,,,,,,,0,21,21,21,,,,,,,,,,,,,,,,,,,,,,,,,,,,,,,,,,,,,main,None,None,1,1.4981464000011329,259.90088130001095,None,None,1,,,,,,,,,,,,,,114,20,Female,2022-05-04_14h27.02.684,Parachute,2022.1.1,60.128675365093144,
negative,red,1,None,None,,,,,,,,,0,22,22,22,,,,,,,,,,,,,,,,,,,,,,,,,,,,,,,,,,,,,main,None,None,1,1.4989344000059646,262.4009095999936,None,None,1,,,,,,,,,,,,,,114,20,Female,2022-05-04_14h27.02.684,Parachute,2022.1.1,60.128675365093144,
positive,red,2,None,None,,,,,,,,,0,23,23,23,,,,,,,,,,,,,,,,,,,,,,,,,,,,,,,,,,,,,main,None,None,1,1.4988593999878503,264.9013651999994,None,None,1,,,,,,,,,,,,,,114,20,Female,2022-05-04_14h27.02.684,Parachute,2022.1.1,60.128675365093144,
negative,red,2,None,None,,,,,,,,,0,24,24,24,,,,,,,,,,,,,,,,,,,,,,,,,,,,,,,,,,,,,main,None,None,1,1.4980988999886904,267.4013302999956,None,None,1,,,,,,,,,,,,,,114,20,Female,2022-05-04_14h27.02.684,Parachute,2022.1.1,60.128675365093144,
positive,blue,2,k,None,,,,,,,,,0,25,25,25,,,,,,,,,,,,,,,,,,,,,,,,,,,,,,,,,,,,,main,k,k,1,1.701945299981162,269.9004752000037,None,None,0,,,,,,,,,,,,,,114,20,Female,2022-05-04_14h27.02.684,Parachute,2022.1.1,60.128675365093144,
negative,yellow,1,k,None,,,,,,,,,0,26,26,26,,,,,,,,,,,,,,,,,,,,,,,,,,,,,,,,,,,,,main,k,k,1,0.9236171999946237,273.61676930001704,None,None,0,,,,,,,,,,,,,,114,20,Female,2022-05-04_14h27.02.684,Parachute,2022.1.1,60.128675365093144,
positive,blue,2,k,None,,,,,,,,,0,27,27,27,,,,,,,,,,,,,,,,,,,,,,,,,,,,,,,,,,,,,main,k,k,1,1.1123684000049252,275.53887509999913,None,None,0,,,,,,,,,,,,,,114,20,Female,2022-05-04_14h27.02.684,Parachute,2022.1.1,60.128675365093144,
negative,blue,2,None,k,,,,,,,,,0,28,28,28,,,,,,,,,,,,,,,,,,,,,,,,,,,,,,,,,,,,,main,None,None,1,1.49641100000008,277.6539510000148,None,None,1,,,,,,,,,,,,,,114,20,Female,2022-05-04_14h27.02.684,Parachute,2022.1.1,60.128675365093144,
positive,red,1,None,None,,,,,,,,,0,29,29,29,,,,,,,,,,,,,,,,,,,,,,,,,,,,,,,,,,,,,main,None,None,1,1.4981085000035819,280.1512705000059,None,None,1,,,,,,,,,,,,,,114,20,Female,2022-05-04_14h27.02.684,Parachute,2022.1.1,60.128675365093144,
positive,blue,1,k,None,,,,,,,,,0,30,30,30,,,,,,,,,,,,,,,,,,,,,,,,,,,,,,,,,,,,,main,k,k,1,1.0874466000241227,282.65065910000703,None,None,0,,,,,,,,,,,,,,114,20,Female,2022-05-04_14h27.02.684,Parachute,2022.1.1,60.128675365093144,
positive,yellow,1,None,k,,,,,,,,,0,31,31,31,,,,,,,,,,,,,,,,,,,,,,,,,,,,,,,,,,,,,main,None,None,1,1.4936342999862973,284.7387765000167,None,None,1,,,,,,,,,,,,,,114,20,Female,2022-05-04_14h27.02.684,Parachute,2022.1.1,60.128675365093144,
negative,yellow,2,k,None,,,,,,,,,0,32,32,32,,,,,,,,,,,,,,,,,,,,,,,,,,,,,,,,,,,,,main,k,k,1,0.9699412000190932,287.23470550001366,None,None,0,,,,,,,,,,,,,,114,20,Female,2022-05-04_14h27.02.684,Parachute,2022.1.1,60.128675365093144,
negative,blue,1,None,k,,,,,,,,,0,33,33,33,,,,,,,,,,,,,,,,,,,,,,,,,,,,,,,,,,,,,main,None,None,1,1.4936289999750443,289.20646220000344,None,None,1,,,,,,,,,,,,,,114,20,Female,2022-05-04_14h27.02.684,Parachute,2022.1.1,60.128675365093144,
positive,blue,1,k,None,,,,,,,,,0,34,34,34,,,,,,,,,,,,,,,,,,,,,,,,,,,,,,,,,,,,,main,k,k,1,1.068638299999293,291.70112159999553,None,None,0,,,,,,,,,,,,,,114,20,Female,2022-05-04_14h27.02.684,Parachute,2022.1.1,60.128675365093144,
negative,yellow,1,k,None,,,,,,,,,0,35,35,35,,,,,,,,,,,,,,,,,,,,,,,,,,,,,,,,,,,,,main,k,k,1,0.9327249999914784,293.7822665999993,None,None,0,,,,,,,,,,,,,,114,20,Female,2022-05-04_14h27.02.684,Parachute,2022.1.1,60.128675365093144,
positive,yellow,2,None,k,,,,,,,,,0,36,36,36,,,,,,,,,,,,,,,,,,,,,,,,,,,,,,,,,,,,,main,None,None,1,1.4932847000018228,295.70570980000775,None,None,1,,,,,,,,,,,,,,114,20,Female,2022-05-04_14h27.02.684,Parachute,2022.1.1,60.128675365093144,
positive,yellow,2,None,k,,,,,,,,,0,37,37,37,,,,,,,,,,,,,,,,,,,,,,,,,,,,,,,,,,,,,main,None,None,1,1.498552799981553,298.20124759999453,None,None,1,,,,,,,,,,,,,,114,20,Female,2022-05-04_14h27.02.684,Parachute,2022.1.1,60.128675365093144,
negative,yellow,2,k,None,,,,,,,,,0,38,38,38,,,,,,,,,,,,,,,,,,,,,,,,,,,,,,,,,,,,,main,k,k,1,0.9705125000036787,300.70089979999466,None,None,0,,,,,,,,,,,,,,114,20,Female,2022-05-04_14h27.02.684,Parachute,2022.1.1,60.128675365093144,
positive,yellow,1,None,k,,,,,,,,,0,39,39,39,,,,,,,,,,,,,,,,,,,,,,,,,,,,,,,,,,,,,main,None,None,1,1.4937169999757316,302.6723392000131,None,None,1,,,,,,,,,,,,,,114,20,Female,2022-05-04_14h27.02.684,Parachute,2022.1.1,60.128675365093144,
negative,yellow,2,k,None,,,,,,,,,0,40,40,40,,,,,,,,,,,,,,,,,,,,,,,,,,,,,,,,,,,,,main,k,k,1,1.0304850999964401,305.16816910001216,None,None,0,,,,,,,,,,,,,,114,20,Female,2022-05-04_14h27.02.684,Parachute,2022.1.1,60.128675365093144,
positive,blue,2,k,None,,,,,,,,,0,41,41,41,,,,,,,,,,,,,,,,,,,,,,,,,,,,,,,,,,,,,main,k,k,1,0.867478400003165,307.20101059999433,None,None,0,,,,,,,,,,,,,,114,20,Female,2022-05-04_14h27.02.684,Parachute,2022.1.1,60.128675365093144,
positive,blue,2,k,None,,,,,,,,,0,42,42,42,,,,,,,,,,,,,,,,,,,,,,,,,,,,,,,,,,,,,main,k,k,1,0.701470200001495,309.0696461000189,None,None,0,,,,,,,,,,,,,,114,20,Female,2022-05-04_14h27.02.684,Parachute,2022.1.1,60.128675365093144,
negative,blue,2,None,k,,,,,,,,,0,43,43,43,,,,,,,,,,,,,,,,,,,,,,,,,,,,,,,,,,,,,main,None,None,1,1.494470999983605,310.7727118000039,None,None,1,,,,,,,,,,,,,,114,20,Female,2022-05-04_14h27.02.684,Parachute,2022.1.1,60.128675365093144,
negative,red,1,None,None,,,,,,,,,0,44,44,44,,,,,,,,,,,,,,,,,,,,,,,,,,,,,,,,,,,,,main,None,None,1,1.4987139999866486,313.26808490001713,None,None,1,,,,,,,,,,,,,,114,20,Female,2022-05-04_14h27.02.684,Parachute,2022.1.1,60.128675365093144,
negative,yellow,1,k,None,,,,,,,,,0,45,45,45,,,,,,,,,,,,,,,,,,,,,,,,,,,,,,,,,,,,,main,k,k,1,0.737433999980567,315.76796070000273,None,None,0,,,,,,,,,,,,,,114,20,Female,2022-05-04_14h27.02.684,Parachute,2022.1.1,60.128675365093144,
negative,yellow,1,k,None,,,,,,,,,0,46,46,46,,,,,,,,,,,,,,,,,,,,,,,,,,,,,,,,,,,,,main,k,k,1,0.7648940000217408,317.50774120001006,None,None,0,,,,,,,,,,,,,,114,20,Female,2022-05-04_14h27.02.684,Parachute,2022.1.1,60.128675365093144,
positive,red,1,None,None,,,,,,,,,0,47,47,47,,,,,,,,,,,,,,,,,,,,,,,,,,,,,,,,,,,,,main,None,None,1,1.4935423999850173,319.27325309999287,None,None,1,,,,,,,,,,,,,,114,20,Female,2022-05-04_14h27.02.684,Parachute,2022.1.1,60.128675365093144,
positive,yellow,1,None,k,,,,,,,,,0,48,48,48,,,,,,,,,,,,,,,,,,,,,,,,,,,,,,,,,,,,,main,None,None,1,1.4988137999898754,321.76847959999577,None,None,1,,,,,,,,,,,,,,114,20,Female,2022-05-04_14h27.02.684,Parachute,2022.1.1,60.128675365093144,
negative,blue,1,None,k,,,,,,,,,0,49,49,49,,,,,,,,,,,,,,,,,,,,,,,,,,,,,,,,,,,,,main,None,None,1,1.498439299990423,324.2686257000023,None,None,1,,,,,,,,,,,,,,114,20,Female,2022-05-04_14h27.02.684,Parachute,2022.1.1,60.128675365093144,
positive,yellow,2,None,k,,,,,,,,,0,50,50,50,,,,,,,,,,,,,,,,,,,,,,,,,,,,,,,,,,,,,main,None,None,1,1.498344299994642,326.7688523000106,None,None,1,,,,,,,,,,,,,,114,20,Female,2022-05-04_14h27.02.684,Parachute,2022.1.1,60.128675365093144,
negative,blue,1,None,k,,,,,,,,,0,51,51,51,,,,,,,,,,,,,,,,,,,,,,,,,,,,,,,,,,,,,main,None,k,0,1.3039094000123441,329.26796349999495,None,None,1,,,,,,,,,,,,,,114,20,Female,2022-05-04_14h27.02.684,Parachute,2022.1.1,60.128675365093144,
positive,red,2,None,None,,,,,,,,,0,52,52,52,,,,,,,,,,,,,,,,,,,,,,,,,,,,,,,,,,,,,main,None,None,1,1.5020648000063375,332.58516610000515,None,None,1,,,,,,,,,,,,,,114,20,Female,2022-05-04_14h27.02.684,Parachute,2022.1.1,60.128675365093144,
positive,yellow,2,None,k,,,,,,,,,0,53,53,53,,,,,,,,,,,,,,,,,,,,,,,,,,,,,,,,,,,,,main,None,None,1,1.4985698999953456,335.0852860000159,None,None,1,,,,,,,,,,,,,,114,20,Female,2022-05-04_14h27.02.684,Parachute,2022.1.1,60.128675365093144,
negative,red,2,None,None,,,,,,,,,0,54,54,54,,,,,,,,,,,,,,,,,,,,,,,,,,,,,,,,,,,,,main,None,None,1,1.4987522999872454,337.5853264000034,None,None,1,,,,,,,,,,,,,,114,20,Female,2022-05-04_14h27.02.684,Parachute,2022.1.1,60.128675365093144,
positive,yellow,1,None,k,,,,,,,,,0,55,55,55,,,,,,,,,,,,,,,,,,,,,,,,,,,,,,,,,,,,,main,None,None,1,1.4983238000131678,340.0866376000049,None,None,1,,,,,,,,,,,,,,114,20,Female,2022-05-04_14h27.02.684,Parachute,2022.1.1,60.128675365093144,
negative,blue,2,None,k,,,,,,,,,0,56,56,56,,,,,,,,,,,,,,,,,,,,,,,,,,,,,,,,,,,,,main,None,None,1,1.4990328999992926,342.5851610999962,None,None,1,,,,,,,,,,,,,,114,20,Female,2022-05-04_14h27.02.684,Parachute,2022.1.1,60.128675365093144,
positive,blue,1,k,None,,,,,,,,,0,57,57,57,,,,,,,,,,,,,,,,,,,,,,,,,,,,,,,,,,,,,main,k,k,1,-0.7850688000035007,345.08620930000325,None,None,0,,,,,,,,,,,,,,114,20,Female,2022-05-04_14h27.02.684,Parachute,2022.1.1,60.128675365093144,
positive,blue,1,k,None,,,,,,,,,0,58,58,58,,,,,,,,,,,,,,,,,,,,,,,,,,,,,,,,,,,,,main,k,k,1,2.5074473999848124,348.31857740000123,None,None,0,,,,,,,,,,,,,,114,20,Female,2022-05-04_14h27.02.684,Parachute,2022.1.1,60.128675365093144,
negative,yellow,2,k,None,,,,,,,,,0,59,59,59,,,,,,,,,,,,,,,,,,,,,,,,,,,,,,,,,,,,,main,k,k,1,0.8409387999854516,352.83533480000915,None,None,0,,,,,,,,,,,,,,114,20,Female,2022-05-04_14h27.02.684,Parachute,2022.1.1,60.128675365093144,
positive,red,2,None,None,,,,,,,,,0,60,60,60,,,,,,,,,,,,,,,,,,,,,,,,,,,,,,,,,,,,,main,None,None,1,1.492942699987907,354.67370850002044,None,None,1,,,,,,,,,,,,,,114,20,Female,2022-05-04_14h27.02.684,Parachute,2022.1.1,60.128675365093144,
negative,yellow,1,k,None,,,,,,,,,0,61,61,61,,,,,,,,,,,,,,,,,,,,,,,,,,,,,,,,,,,,,main,k,k,1,0.9507757000101265,357.1694805000152,None,None,0,,,,,,,,,,,,,,114,20,Female,2022-05-04_14h27.02.684,Parachute,2022.1.1,60.128675365093144,
negative,red,1,None,None,,,,,,,,,0,62,62,62,,,,,,,,,,,,,,,,,,,,,,,,,,,,,,,,,,,,,main,None,None,1,1.4958779999869876,359.1219845000014,None,None,1,,,,,,,,,,,,,,114,20,Female,2022-05-04_14h27.02.684,Parachute,2022.1.1,60.128675365093144,
negative,blue,1,None,k,,,,,,,,,0,63,63,63,,,,,,,,,,,,,,,,,,,,,,,,,,,,,,,,,,,,,main,None,None,1,1.4993224999925587,361.6192221000092,None,None,1,,,,,,,,,,,,,,114,20,Female,2022-05-04_14h27.02.684,Parachute,2022.1.1,60.128675365093144,
positive,blue,2,k,None,,,,,,,,,0,64,64,64,,,,,,,,,,,,,,,,,,,,,,,,,,,,,,,,,,,,,main,k,k,1,0.6862405000138097,364.11979640001664,None,None,0,,,,,,,,,,,,,,114,20,Female,2022-05-04_14h27.02.684,Parachute,2022.1.1,60.128675365093144,
negative,yellow,2,k,None,,,,,,,,,0,65,65,65,,,,,,,,,,,,,,,,,,,,,,,,,,,,,,,,,,,,,main,k,k,1,1.015746000019135,365.8073531000118,None,None,0,,,,,,,,,,,,,,114,20,Female,2022-05-04_14h27.02.684,Parachute,2022.1.1,60.128675365093144,
positive,yellow,2,None,k,,,,,,,,,0,66,66,66,,,,,,,,,,,,,,,,,,,,,,,,,,,,,,,,,,,,,main,None,None,1,1.4937182000139728,367.8242379000003,None,None,1,,,,,,,,,,,,,,114,20,Female,2022-05-04_14h27.02.684,Parachute,2022.1.1,60.128675365093144,
positive,yellow,2,None,k,,,,,,,,,0,67,67,67,,,,,,,,,,,,,,,,,,,,,,,,,,,,,,,,,,,,,main,None,None,1,1.4977853000164032,370.31988310001907,None,None,1,,,,,,,,,,,,,,114,20,Female,2022-05-04_14h27.02.684,Parachute,2022.1.1,60.128675365093144,
positive,red,1,None,None,,,,,,,,,0,68,68,68,,,,,,,,,,,,,,,,,,,,,,,,,,,,,,,,,,,,,main,None,None,1,1.4988723999995273,372.81875690000015,None,None,1,,,,,,,,,,,,,,114,20,Female,2022-05-04_14h27.02.684,Parachute,2022.1.1,60.128675365093144,
positive,yellow,1,None,k,,,,,,,,,0,69,69,69,,,,,,,,,,,,,,,,,,,,,,,,,,,,,,,,,,,,,main,None,None,1,1.4990499000123236,375.319971799996,None,None,1,,,,,,,,,,,,,,114,20,Female,2022-05-04_14h27.02.684,Parachute,2022.1.1,60.128675365093144,
negative,yellow,2,k,None,,,,,,,,,0,70,70,70,,,,,,,,,,,,,,,,,,,,,,,,,,,,,,,,,,,,,main,k,k,1,0.9703352999931667,377.8205761999998,None,None,0,,,,,,,,,,,,,,114,20,Female,2022-05-04_14h27.02.684,Parachute,2022.1.1,60.128675365093144,
positive,yellow,1,None,k,,,,,,,,,0,71,71,71,,,,,,,,,,,,,,,,,,,,,,,,,,,,,,,,,,,,,main,None,None,1,1.4932251000136603,379.79078159999335,None,None,1,,,,,,,,,,,,,,114,20,Female,2022-05-04_14h27.02.684,Parachute,2022.1.1,60.128675365093144,
negative,blue,1,None,k,,,,,,,,,0,72,72,72,,,,,,,,,,,,,,,,,,,,,,,,,,,,,,,,,,,,,main,None,None,1,1.4987707999825943,382.2865306000167,None,None,1,,,,,,,,,,,,,,114,20,Female,2022-05-04_14h27.02.684,Parachute,2022.1.1,60.128675365093144,
negative,red,2,None,None,,,,,,,,,0,73,73,73,,,,,,,,,,,,,,,,,,,,,,,,,,,,,,,,,,,,,main,None,None,1,1.4979509999975562,384.78690870001446,None,None,1,,,,,,,,,,,,,,114,20,Female,2022-05-04_14h27.02.684,Parachute,2022.1.1,60.128675365093144,
positive,blue,2,k,None,,,,,,,,,0,74,74,74,,,,,,,,,,,,,,,,,,,,,,,,,,,,,,,,,,,,,main,k,k,1,0.9045343000034336,387.28616280001006,None,None,0,,,,,,,,,,,,,,114,20,Female,2022-05-04_14h27.02.684,Parachute,2022.1.1,60.128675365093144,
negative,blue,2,None,k,,,,,,,,,0,75,75,75,,,,,,,,,,,,,,,,,,,,,,,,,,,,,,,,,,,,,main,None,None,1,1.4932303999958094,389.1910390999983,None,None,1,,,,,,,,,,,,,,114,20,Female,2022-05-04_14h27.02.684,Parachute,2022.1.1,60.128675365093144,
negative,blue,2,None,k,,,,,,,,,0,76,76,76,,,,,,,,,,,,,,,,,,,,,,,,,,,,,,,,,,,,,main,None,None,1,1.4985485000070184,391.6867138000089,None,None,1,,,,,,,,,,,,,,114,20,Female,2022-05-04_14h27.02.684,Parachute,2022.1.1,60.128675365093144,
negative,yellow,1,k,None,,,,,,,,,0,77,77,77,,,,,,,,,,,,,,,,,,,,,,,,,,,,,,,,,,,,,main,k,k,1,0.953987299988512,394.18652909999946,None,None,0,,,,,,,,,,,,,,114,20,Female,2022-05-04_14h27.02.684,Parachute,2022.1.1,60.128675365093144,
positive,blue,1,k,None,,,,,,,,,0,78,78,78,,,,,,,,,,,,,,,,,,,,,,,,,,,,,,,,,,,,,main,k,k,1,0.8985146000050008,396.14120490002097,None,None,0,,,,,,,,,,,,,,114,20,Female,2022-05-04_14h27.02.684,Parachute,2022.1.1,60.128675365093144,
positive,blue,1,k,None,,,,,,,,,0,79,79,79,,,,,,,,,,,,,,,,,,,,,,,,,,,,,,,,,,,,,main,k,k,1,1.9149264000006951,398.0413636000012,None,None,0,,,,,,,,,,,,,,114,20,Female,2022-05-04_14h27.02.684,Parachute,2022.1.1,60.128675365093144,
positive,red,2,None,None,,,,,,,,,0,80,80,80,,,,,,,,,,,,,,,,,,,,,,,,,,,,,,,,,,,,,main,None,None,1,1.5021538000146393,401.9698583999998,None,None,1,,,,,,,,,,,,,,114,20,Female,2022-05-04_14h27.02.684,Parachute,2022.1.1,60.128675365093144,
positive,yellow,2,None,k,,,,,,,,,0,81,81,81,,,,,,,,,,,,,,,,,,,,,,,,,,,,,,,,,,,,,main,None,None,1,1.4987452999921516,404.47073269999237,None,None,1,,,,,,,,,,,,,,114,20,Female,2022-05-04_14h27.02.684,Parachute,2022.1.1,60.128675365093144,
positive,blue,1,k,None,,,,,,,,,0,82,82,82,,,,,,,,,,,,,,,,,,,,,,,,,,,,,,,,,,,,,main,k,k,1,1.0360794000152964,406.97068820000277,None,None,0,,,,,,,,,,,,,,114,20,Female,2022-05-04_14h27.02.684,Parachute,2022.1.1,60.128675365093144,
negative,yellow,2,k,None,,,,,,,,,0,83,83,83,,,,,,,,,,,,,,,,,,,,,,,,,,,,,,,,,,,,,main,k,k,1,0.9656323000090197,409.0086646999989,None,None,0,,,,,,,,,,,,,,114,20,Female,2022-05-04_14h27.02.684,Parachute,2022.1.1,60.128675365093144,
positive,blue,2,k,None,,,,,,,,,0,84,84,84,,,,,,,,,,,,,,,,,,,,,,,,,,,,,,,,,,,,,main,k,k,1,0.8654267000092659,410.9756802000047,None,None,0,,,,,,,,,,,,,,114,20,Female,2022-05-04_14h27.02.684,Parachute,2022.1.1,60.128675365093144,
positive,yellow,1,None,k,,,,,,,,,0,85,85,85,,,,,,,,,,,,,,,,,,,,,,,,,,,,,,,,,,,,,main,None,None,1,1.4936405000044033,412.8416966999939,None,None,1,,,,,,,,,,,,,,114,20,Female,2022-05-04_14h27.02.684,Parachute,2022.1.1,60.128675365093144,
positive,blue,2,k,None,,,,,,,,,0,86,86,86,,,,,,,,,,,,,,,,,,,,,,,,,,,,,,,,,,,,,main,k,k,1,2.403362000011839,415.33737200000905,None,None,0,,,,,,,,,,,,,,114,20,Female,2022-05-04_14h27.02.684,Parachute,2022.1.1,60.128675365093144,
positive,blue,1,k,None,,,,,,,,,0,87,87,87,,,,,,,,,,,,,,,,,,,,,,,,,,,,,,,,,,,,,main,k,k,1,1.006538299989188,419.7532770000107,None,None,0,,,,,,,,,,,,,,114,20,Female,2022-05-04_14h27.02.684,Parachute,2022.1.1,60.128675365093144,
negative,yellow,2,k,None,,,,,,,,,0,88,88,88,,,,,,,,,,,,,,,,,,,,,,,,,,,,,,,,,,,,,main,k,k,1,1.1584508999949321,421.7587123000121,None,None,0,,,,,,,,,,,,,,114,20,Female,2022-05-04_14h27.02.684,Parachute,2022.1.1,60.128675365093144,
negative,blue,2,None,k,,,,,,,,,0,89,89,89,,,,,,,,,,,,,,,,,,,,,,,,,,,,,,,,,,,,,main,None,None,1,1.5005574999959208,423.9199110000045,None,None,1,,,,,,,,,,,,,,114,20,Female,2022-05-04_14h27.02.684,Parachute,2022.1.1,60.128675365093144,
positive,yellow,2,None,k,,,,,,,,,0,90,90,90,,,,,,,,,,,,,,,,,,,,,,,,,,,,,,,,,,,,,main,None,None,1,1.4983198999834713,426.4210747000179,None,None,1,,,,,,,,,,,,,,114,20,Female,2022-05-04_14h27.02.684,Parachute,2022.1.1,60.128675365093144,
negative,yellow,1,k,None,,,,,,,,,0,91,91,91,,,,,,,,,,,,,,,,,,,,,,,,,,,,,,,,,,,,,main,k,k,1,0.7838610999751836,428.9205702000181,None,None,0,,,,,,,,,,,,,,114,20,Female,2022-05-04_14h27.02.684,Parachute,2022.1.1,60.128675365093144,
negative,red,2,None,None,,,,,,,,,0,92,92,92,,,,,,,,,,,,,,,,,,,,,,,,,,,,,,,,,,,,,main,None,None,1,1.496527999988757,430.7063986000139,None,None,1,,,,,,,,,,,,,,114,20,Female,2022-05-04_14h27.02.684,Parachute,2022.1.1,60.128675365093144,
negative,blue,2,None,k,,,,,,,,,0,93,93,93,,,,,,,,,,,,,,,,,,,,,,,,,,,,,,,,,,,,,main,None,None,1,1.498776899999939,433.20385220000753,None,None,1,,,,,,,,,,,,,,114,20,Female,2022-05-04_14h27.02.684,Parachute,2022.1.1,60.128675365093144,
negative,blue,1,None,k,,,,,,,,,0,94,94,94,,,,,,,,,,,,,,,,,,,,,,,,,,,,,,,,,,,,,main,None,None,1,1.4990693999861833,435.70401590000256,None,None,1,,,,,,,,,,,,,,114,20,Female,2022-05-04_14h27.02.684,Parachute,2022.1.1,60.128675365093144,
negative,blue,1,None,k,,,,,,,,,0,95,95,95,,,,,,,,,,,,,,,,,,,,,,,,,,,,,,,,,,,,,main,None,None,1,1.4981611000257544,438.20452250001836,None,None,1,,,,,,,,,,,,,,114,20,Female,2022-05-04_14h27.02.684,Parachute,2022.1.1,60.128675365093144,
negative,red,1,None,None,,,,,,,,,0,96,96,96,,,,,,,,,,,,,,,,,,,,,,,,,,,,,,,,,,,,,main,None,None,1,1.4984347999852616,440.7041133000166,None,None,1,,,,,,,,,,,,,,114,20,Female,2022-05-04_14h27.02.684,Parachute,2022.1.1,60.128675365093144,
positive,yellow,1,None,k,,,,,,,,,0,97,97,97,,,,,,,,,,,,,,,,,,,,,,,,,,,,,,,,,,,,,main,None,None,1,1.498912899987772,443.20405510001,None,None,1,,,,,,,,,,,,,,114,20,Female,2022-05-04_14h27.02.684,Parachute,2022.1.1,60.128675365093144,
negative,yellow,1,k,None,,,,,,,,,0,98,98,98,,,,,,,,,,,,,,,,,,,,,,,,,,,,,,,,,,,,,main,k,k,1,1.0201988999906462,445.7043738999928,None,None,0,,,,,,,,,,,,,,114,20,Female,2022-05-04_14h27.02.684,Parachute,2022.1.1,60.128675365093144,
positive,red,1,None,None,,,,,,,,,0,99,99,99,,,,,,,,,,,,,,,,,,,,,,,,,,,,,,,,,,,,,main,None,None,1,1.4934174999943934,447.72605660001864,None,None,1,,,,,,,,,,,,,,114,20,Female,2022-05-04_14h27.02.684,Parachute,2022.1.1,60.128675365093144,
positive,blue,1,k,None,,,,,,,,,0,100,100,100,,,,,,,,,,,,,,,,,,,,,,,,,,,,,,,,,,,,,main,k,k,1,1.0376679000037257,450.2207877000037,None,None,0,,,,,,,,,,,,,,114,20,Female,2022-05-04_14h27.02.684,Parachute,2022.1.1,60.128675365093144,
negative,yellow,1,k,None,,,,,,,,,0,101,101,101,,,,,,,,,,,,,,,,,,,,,,,,,,,,,,,,,,,,,main,k,k,1,1.2307311999902595,452.25954510000884,None,None,0,,,,,,,,,,,,,,114,20,Female,2022-05-04_14h27.02.684,Parachute,2022.1.1,60.128675365093144,
negative,blue,2,None,k,,,,,,,,,0,102,102,102,,,,,,,,,,,,,,,,,,,,,,,,,,,,,,,,,,,,,main,None,None,1,1.494176599982893,454.49231030000374,None,None,1,,,,,,,,,,,,,,114,20,Female,2022-05-04_14h27.02.684,Parachute,2022.1.1,60.128675365093144,
negative,yellow,2,k,None,,,,,,,,,0,103,103,103,,,,,,,,,,,,,,,,,,,,,,,,,,,,,,,,,,,,,main,k,k,1,1.4033010000130162,456.98736369999824,None,None,0,,,,,,,,,,,,,,114,20,Female,2022-05-04_14h27.02.684,Parachute,2022.1.1,60.128675365093144,
positive,yellow,2,None,k,,,,,,,,,0,104,104,104,,,,,,,,,,,,,,,,,,,,,,,,,,,,,,,,,,,,,main,None,None,1,1.4940556000219658,459.3929051000159,None,None,1,,,,,,,,,,,,,,114,20,Female,2022-05-04_14h27.02.684,Parachute,2022.1.1,60.128675365093144,
positive,blue,1,k,None,,,,,,,,,0,105,105,105,,,,,,,,,,,,,,,,,,,,,,,,,,,,,,,,,,,,,main,k,k,1,0.9364808000100311,461.8877470000007,None,None,0,,,,,,,,,,,,,,114,20,Female,2022-05-04_14h27.02.684,Parachute,2022.1.1,60.128675365093144,
positive,blue,2,k,None,,,,,,,,,0,106,106,106,,,,,,,,,,,,,,,,,,,,,,,,,,,,,,,,,,,,,main,k,k,1,0.9831037000112701,463.8266380999994,None,None,0,,,,,,,,,,,,,,114,20,Female,2022-05-04_14h27.02.684,Parachute,2022.1.1,60.128675365093144,
negative,blue,1,None,k,,,,,,,,,0,107,107,107,,,,,,,,,,,,,,,,,,,,,,,,,,,,,,,,,,,,,main,None,None,1,1.4932898999832105,465.8095444999926,None,None,1,,,,,,,,,,,,,,114,20,Female,2022-05-04_14h27.02.684,Parachute,2022.1.1,60.128675365093144,
positive,yellow,2,None,k,,,,,,,,,0,108,108,108,,,,,,,,,,,,,,,,,,,,,,,,,,,,,,,,,,,,,main,None,None,1,1.4985382000159007,468.3054075000109,None,None,1,,,,,,,,,,,,,,114,20,Female,2022-05-04_14h27.02.684,Parachute,2022.1.1,60.128675365093144,
negative,yellow,1,k,None,,,,,,,,,0,109,109,109,,,,,,,,,,,,,,,,,,,,,,,,,,,,,,,,,,,,,main,k,k,1,1.470149799977662,470.80521019999287,None,None,0,,,,,,,,,,,,,,114,20,Female,2022-05-04_14h27.02.684,Parachute,2022.1.1,60.128675365093144,
negative,blue,2,None,k,,,,,,,,,0,110,110,110,,,,,,,,,,,,,,,,,,,,,,,,,,,,,,,,,,,,,main,None,None,1,1.4937281000020448,473.276986700017,None,None,1,,,,,,,,,,,,,,114,20,Female,2022-05-04_14h27.02.684,Parachute,2022.1.1,60.128675365093144,
positive,blue,2,k,None,,,,,,,,,0,111,111,111,,,,,,,,,,,,,,,,,,,,,,,,,,,,,,,,,,,,,main,k,k,1,1.4686738000018522,475.77145530001144,None,None,0,,,,,,,,,,,,,,114,20,Female,2022-05-04_14h27.02.684,Parachute,2022.1.1,60.128675365093144,
negative,blue,1,None,k,,,,,,,,,0,112,112,112,,,,,,,,,,,,,,,,,,,,,,,,,,,,,,,,,,,,,main,None,None,1,1.4947914000076707,478.24254910001764,None,None,1,,,,,,,,,,,,,,114,20,Female,2022-05-04_14h27.02.684,Parachute,2022.1.1,60.128675365093144,
positive,yellow,1,None,k,,,,,,,,,0,113,113,113,,,,,,,,,,,,,,,,,,,,,,,,,,,,,,,,,,,,,main,None,None,1,1.4989098999940325,480.7386822999979,None,None,1,,,,,,,,,,,,,,114,20,Female,2022-05-04_14h27.02.684,Parachute,2022.1.1,60.128675365093144,
negative,red,1,None,None,,,,,,,,,0,114,114,114,,,,,,,,,,,,,,,,,,,,,,,,,,,,,,,,,,,,,main,None,None,1,1.4985240999958478,483.23852149999584,None,None,1,,,,,,,,,,,,,,114,20,Female,2022-05-04_14h27.02.684,Parachute,2022.1.1,60.128675365093144,
positive,red,1,None,None,,,,,,,,,0,115,115,115,,,,,,,,,,,,,,,,,,,,,,,,,,,,,,,,,,,,,main,None,None,1,1.4994468000077177,485.73836049999227,None,None,1,,,,,,,,,,,,,,114,20,Female,2022-05-04_14h27.02.684,Parachute,2022.1.1,60.128675365093144,
negative,red,2,None,None,,,,,,,,,0,116,116,116,,,,,,,,,,,,,,,,,,,,,,,,,,,,,,,,,,,,,main,None,None,1,1.4983410999993794,488.23861309999484,None,None,1,,,,,,,,,,,,,,114,20,Female,2022-05-04_14h27.02.684,Parachute,2022.1.1,60.128675365093144,
negative,yellow,2,k,None,,,,,,,,,0,117,117,117,,,,,,,,,,,,,,,,,,,,,,,,,,,,,,,,,,,,,main,k,k,1,1.4706824999884702,490.7385069000011,None,None,0,,,,,,,,,,,,,,114,20,Female,2022-05-04_14h27.02.684,Parachute,2022.1.1,60.128675365093144,
positive,yellow,1,None,k,,,,,,,,,0,118,118,118,,,,,,,,,,,,,,,,,,,,,,,,,,,,,,,,,,,,,main,None,None,1,1.493378399987705,493.2102606999979,None,None,1,,,,,,,,,,,,,,114,20,Female,2022-05-04_14h27.02.684,Parachute,2022.1.1,60.128675365093144,
positive,red,2,None,None,,,,,,,,,0,119,119,119,,,,,,,,,,,,,,,,,,,,,,,,,,,,,,,,,,,,,main,None,None,1,1.499106400005985,495.70559600001434,None,None,1,,,,,,,,,,,,,,114,20,Female,2022-05-04_14h27.02.684,Parachute,2022.1.1,60.128675365093144,
positive,blue,2,k,None,,,,,,,,,0,120,120,120,,,,,,,,,,,,,,,,,,,,,,,,,,,,,,,,,,,,,main,k,k,1,0.9533578999980818,498.20594680000795,None,None,0,,,,,,,,,,,,,,114,20,Female,2022-05-04_14h27.02.684,Parachute,2022.1.1,60.128675365093144,
negative,red,1,None,None,,,,,,,,,0,121,121,121,,,,,,,,,,,,,,,,,,,,,,,,,,,,,,,,,,,,,main,None,None,1,1.4934339000028558,500.160643900017,None,None,1,,,,,,,,,,,,,,114,20,Female,2022-05-04_14h27.02.684,Parachute,2022.1.1,60.128675365093144,
positive,yellow,2,None,k,,,,,,,,,0,122,122,122,,,,,,,,,,,,,,,,,,,,,,,,,,,,,,,,,,,,,main,None,None,1,1.4983978999953251,502.65565580001567,None,None,1,,,,,,,,,,,,,,114,20,Female,2022-05-04_14h27.02.684,Parachute,2022.1.1,60.128675365093144,
negative,red,2,None,None,,,,,,,,,0,123,123,123,,,,,,,,,,,,,,,,,,,,,,,,,,,,,,,,,,,,,main,None,None,1,1.4987510000064503,505.1553977000003,None,None,1,,,,,,,,,,,,,,114,20,Female,2022-05-04_14h27.02.684,Parachute,2022.1.1,60.128675365093144,
negative,yellow,2,k,None,,,,,,,,,0,124,124,124,,,,,,,,,,,,,,,,,,,,,,,,,,,,,,,,,,,,,main,k,k,1,1.0534573000040837,507.6556860000128,None,None,0,,,,,,,,,,,,,,114,20,Female,2022-05-04_14h27.02.684,Parachute,2022.1.1,60.128675365093144,
positive,red,1,None,None,,,,,,,,,0,125,125,125,,,,,,,,,,,,,,,,,,,,,,,,,,,,,,,,,,,,,main,None,None,1,1.4938297000189777,509.71021059999475,None,None,1,,,,,,,,,,,,,,114,20,Female,2022-05-04_14h27.02.684,Parachute,2022.1.1,60.128675365093144,
negative,blue,2,None,k,,,,,,,,,0,126,126,126,,,,,,,,,,,,,,,,,,,,,,,,,,,,,,,,,,,,,main,None,None,1,1.4979867000074591,512.2060462000081,None,None,1,,,,,,,,,,,,,,114,20,Female,2022-05-04_14h27.02.684,Parachute,2022.1.1,60.128675365093144,
negative,blue,1,None,k,,,,,,,,,0,127,127,127,,,,,,,,,,,,,,,,,,,,,,,,,,,,,,,,,,,,,main,None,None,1,1.4997579000191763,514.7056990000128,None,None,1,,,,,,,,,,,,,,114,20,Female,2022-05-04_14h27.02.684,Parachute,2022.1.1,60.128675365093144,
negative,yellow,1,k,None,,,,,,,,,0,128,128,128,,,,,,,,,,,,,,,,,,,,,,,,,,,,,,,,,,,,,main,k,k,1,0.919390499999281,517.2079836000048,None,None,0,,,,,,,,,,,,,,114,20,Female,2022-05-04_14h27.02.684,Parachute,2022.1.1,60.128675365093144,
negative,yellow,1,k,None,,,,,,,,,0,129,129,129,,,,,,,,,,,,,,,,,,,,,,,,,,,,,,,,,,,,,main,k,k,1,0.9454392000043299,519.1373670000175,None,None,0,,,,,,,,,,,,,,114,20,Female,2022-05-04_14h27.02.684,Parachute,2022.1.1,60.128675365093144,
positive,blue,1,k,None,,,,,,,,,0,130,130,130,,,,,,,,,,,,,,,,,,,,,,,,,,,,,,,,,,,,,main,k,k,1,0.9345894000143744,521.0756847000157,None,None,0,,,,,,,,,,,,,,114,20,Female,2022-05-04_14h27.02.684,Parachute,2022.1.1,60.128675365093144,
negative,blue,1,None,k,,,,,,,,,0,131,131,131,,,,,,,,,,,,,,,,,,,,,,,,,,,,,,,,,,,,,main,None,None,1,1.4939425000047777,523.0107857999974,None,None,1,,,,,,,,,,,,,,114,20,Female,2022-05-04_14h27.02.684,Parachute,2022.1.1,60.128675365093144,
negative,blue,2,None,k,,,,,,,,,0,132,132,132,,,,,,,,,,,,,,,,,,,,,,,,,,,,,,,,,,,,,main,None,None,1,1.4987553999817465,525.506231300009,None,None,1,,,,,,,,,,,,,,114,20,Female,2022-05-04_14h27.02.684,Parachute,2022.1.1,60.128675365093144,
positive,blue,2,k,None,,,,,,,,,0,133,133,133,,,,,,,,,,,,,,,,,,,,,,,,,,,,,,,,,,,,,main,k,k,1,1.020018799987156,528.0066969000036,None,None,0,,,,,,,,,,,,,,114,20,Female,2022-05-04_14h27.02.684,Parachute,2022.1.1,60.128675365093144,
positive,red,2,None,None,,,,,,,,,0,134,134,134,,,,,,,,,,,,,,,,,,,,,,,,,,,,,,,,,,,,,main,None,None,1,1.4935262000071816,530.0277563999989,None,None,1,,,,,,,,,,,,,,114,20,Female,2022-05-04_14h27.02.684,Parachute,2022.1.1,60.128675365093144,
negative,yellow,2,k,None,,,,,,,,,0,135,135,135,,,,,,,,,,,,,,,,,,,,,,,,,,,,,,,,,,,,,main,k,k,1,1.1861042999953497,532.5230207999994,None,None,0,,,,,,,,,,,,,,114,20,Female,2022-05-04_14h27.02.684,Parachute,2022.1.1,60.128675365093144,
positive,yellow,2,None,k,,,,,,,,,0,136,136,136,,,,,,,,,,,,,,,,,,,,,,,,,,,,,,,,,,,,,main,None,None,1,1.4941075000097044,534.7115050000139,None,None,1,,,,,,,,,,,,,,114,20,Female,2022-05-04_14h27.02.684,Parachute,2022.1.1,60.128675365093144,
positive,blue,1,k,None,,,,,,,,,0,137,137,137,,,,,,,,,,,,,,,,,,,,,,,,,,,,,,,,,,,,,main,k,k,1,1.0362932999851182,537.2062942000048,None,None,0,,,,,,,,,,,,,,114,20,Female,2022-05-04_14h27.02.684,Parachute,2022.1.1,60.128675365093144,
positive,yellow,1,None,k,,,,,,,,,0,138,138,138,,,,,,,,,,,,,,,,,,,,,,,,,,,,,,,,,,,,,main,None,None,1,1.4947976999974344,539.244765600015,None,None,1,,,,,,,,,,,,,,114,20,Female,2022-05-04_14h27.02.684,Parachute,2022.1.1,60.128675365093144,
positive,yellow,1,None,k,,,,,,,,,0,139,139,139,,,,,,,,,,,,,,,,,,,,,,,,,,,,,,,,,,,,,main,None,None,1,1.4986284999758936,541.7410722000059,None,None,1,,,,,,,,,,,,,,114,20,Female,2022-05-04_14h27.02.684,Parachute,2022.1.1,60.128675365093144,
positive,yellow,1,None,k,,,,,,,,,0,140,140,140,,,,,,,,,,,,,,,,,,,,,,,,,,,,,,,,,,,,,main,None,None,1,1.4980447000125423,544.2422090000182,None,None,1,,,,,,,,,,,,,,114,20,Female,2022-05-04_14h27.02.684,Parachute,2022.1.1,60.128675365093144,
positive,blue,1,k,None,,,,,,,,,0,141,141,141,,,,,,,,,,,,,,,,,,,,,,,,,,,,,,,,,,,,,main,k,k,1,0.9677733000135049,546.7414782000124,None,None,0,,,,,,,,,,,,,,114,20,Female,2022-05-04_14h27.02.684,Parachute,2022.1.1,60.128675365093144,
positive,blue,2,k,None,,,,,,,,,0,142,142,142,,,,,,,,,,,,,,,,,,,,,,,,,,,,,,,,,,,,,main,k,k,1,1.1018217999953777,548.710685900005,None,None,0,,,,,,,,,,,,,,114,20,Female,2022-05-04_14h27.02.684,Parachute,2022.1.1,60.128675365093144,
positive,yellow,2,None,k,,,,,,,,,0,143,143,143,,,,,,,,,,,,,,,,,,,,,,,,,,,,,,,,,,,,,main,None,None,1,1.5092421000008471,550.8131185999955,None,None,1,,,,,,,,,,,,,,114,20,Female,2022-05-04_14h27.02.684,Parachute,2022.1.1,60.128675365093144,
negative,yellow,2,k,None,,,,,,,,,0,144,144,144,,,,,,,,,,,,,,,,,,,,,,,,,,,,,,,,,,,,,main,k,k,1,0.9857712000084575,553.3262540000142,None,None,0,,,,,,,,,,,,,,114,20,Female,2022-05-04_14h27.02.684,Parachute,2022.1.1,60.128675365093144,
negative,blue,2,None,k,,,,,,,,,0,145,145,145,,,,,,,,,,,,,,,,,,,,,,,,,,,,,,,,,,,,,main,None,None,1,1.4931929000013042,555.3212617000099,None,None,1,,,,,,,,,,,,,,114,20,Female,2022-05-04_14h27.02.684,Parachute,2022.1.1,60.128675365093144,
negative,red,1,None,None,,,,,,,,,0,146,146,146,,,,,,,,,,,,,,,,,,,,,,,,,,,,,,,,,,,,,main,None,None,1,1.4993876999942586,557.8062922999961,None,None,1,,,,,,,,,,,,,,114,20,Female,2022-05-04_14h27.02.684,Parachute,2022.1.1,60.128675365093144,
positive,blue,1,k,None,,,,,,,,,0,147,147,147,,,,,,,,,,,,,,,,,,,,,,,,,,,,,,,,,,,,,main,k,k,1,0.8853583000018261,560.3074922999949,None,None,0,,,,,,,,,,,,,,114,20,Female,2022-05-04_14h27.02.684,Parachute,2022.1.1,60.128675365093144,
positive,yellow,1,None,k,,,,,,,,,0,148,148,148,,,,,,,,,,,,,,,,,,,,,,,,,,,,,,,,,,,,,main,None,None,1,1.4948217000055593,562.1945331000024,None,None,1,,,,,,,,,,,,,,114,20,Female,2022-05-04_14h27.02.684,Parachute,2022.1.1,60.128675365093144,
negative,red,2,None,None,,,,,,,,,0,149,149,149,,,,,,,,,,,,,,,,,,,,,,,,,,,,,,,,,,,,,main,None,None,1,1.4987646999943536,564.6906293000211,None,None,1,,,,,,,,,,,,,,114,20,Female,2022-05-04_14h27.02.684,Parachute,2022.1.1,60.128675365093144,
negative,blue,1,None,k,,,,,,,,,0,150,150,150,,,,,,,,,,,,,,,,,,,,,,,,,,,,,,,,,,,,,main,None,None,1,1.4985304000147153,567.1905777000065,None,None,1,,,,,,,,,,,,,,114,20,Female,2022-05-04_14h27.02.684,Parachute,2022.1.1,60.128675365093144,
negative,yellow,2,k,None,,,,,,,,,0,151,151,151,,,,,,,,,,,,,,,,,,,,,,,,,,,,,,,,,,,,,main,k,k,1,0.7373822000226937,569.6905449000187,None,None,0,,,,,,,,,,,,,,114,20,Female,2022-05-04_14h27.02.684,Parachute,2022.1.1,60.128675365093144,
negative,blue,2,None,k,,,,,,,,,0,152,152,152,,,,,,,,,,,,,,,,,,,,,,,,,,,,,,,,,,,,,main,None,None,1,1.4936707000015303,571.428309400013,None,None,1,,,,,,,,,,,,,,114,20,Female,2022-05-04_14h27.02.684,Parachute,2022.1.1,60.128675365093144,
negative,yellow,1,k,None,,,,,,,,,0,153,153,153,,,,,,,,,,,,,,,,,,,,,,,,,,,,,,,,,,,,,main,k,k,1,1.1032459000125527,573.9243852999934,None,None,0,,,,,,,,,,,,,,114,20,Female,2022-05-04_14h27.02.684,Parachute,2022.1.1,60.128675365093144,
negative,blue,1,None,k,,,,,,,,,0,154,154,154,,,,,,,,,,,,,,,,,,,,,,,,,,,,,,,,,,,,,main,None,None,1,1.493350200005807,576.0293827000132,None,None,1,,,,,,,,,,,,,,114,20,Female,2022-05-04_14h27.02.684,Parachute,2022.1.1,60.128675365093144,
positive,yellow,2,None,k,,,,,,,,,0,155,155,155,,,,,,,,,,,,,,,,,,,,,,,,,,,,,,,,,,,,,main,None,None,1,1.4993049000040628,578.5239029999939,None,None,1,,,,,,,,,,,,,,114,20,Female,2022-05-04_14h27.02.684,Parachute,2022.1.1,60.128675365093144,
positive,red,2,None,None,,,,,,,,,0,156,156,156,,,,,,,,,,,,,,,,,,,,,,,,,,,,,,,,,,,,,main,None,None,1,1.4979160000220872,581.0243240999989,None,None,1,,,,,,,,,,,,,,114,20,Female,2022-05-04_14h27.02.684,Parachute,2022.1.1,60.128675365093144,
positive,red,1,None,None,,,,,,,,,0,157,157,157,,,,,,,,,,,,,,,,,,,,,,,,,,,,,,,,,,,,,main,None,None,1,1.4989012000150979,583.5240714999964,None,None,1,,,,,,,,,,,,,,114,20,Female,2022-05-04_14h27.02.684,Parachute,2022.1.1,60.128675365093144,
positive,blue,2,k,None,,,,,,,,,0,158,158,158,,,,,,,,,,,,,,,,,,,,,,,,,,,,,,,,,,,,,main,k,k,1,1.621305200009374,586.024285499996,None,None,0,,,,,,,,,,,,,,114,20,Female,2022-05-04_14h27.02.684,Parachute,2022.1.1,60.128675365093144,
negative,yellow,1,k,None,,,,,,,,,0,159,159,159,,,,,,,,,,,,,,,,,,,,,,,,,,,,,,,,,,,,,main,k,k,1,1.1061701999860816,589.6568935000105,None,None,0,,,,,,,,,,,,,,114,20,Female,2022-05-04_14h27.02.684,Parachute,2022.1.1,60.128675365093144,
negative,red,2,None,None,,,,,,,,,0,160,160,160,,,,,,,,,,,,,,,,,,,,,,,,,,,,,,,,,,,,,main,None,None,1,1.4940683000022545,591.762626700016,None,None,1,,,,,,,,,,,,,,114,20,Female,2022-05-04_14h27.02.684,Parachute,2022.1.1,60.128675365093144,
negative,blue,1,None,k,,,,,,,,,0,161,161,161,,,,,,,,,,,,,,,,,,,,,,,,,,,,,,,,,,,,,main,None,None,1,1.4987018999818247,594.257628899999,None,None,1,,,,,,,,,,,,,,114,20,Female,2022-05-04_14h27.02.684,Parachute,2022.1.1,60.128675365093144,
negative,blue,1,None,k,,,,,,,,,0,162,162,162,,,,,,,,,,,,,,,,,,,,,,,,,,,,,,,,,,,,,main,None,None,1,1.499204899999313,596.7579219000181,None,None,1,,,,,,,,,,,,,,114,20,Female,2022-05-04_14h27.02.684,Parachute,2022.1.1,60.128675365093144,
negative,yellow,1,k,None,,,,,,,,,0,163,163,163,,,,,,,,,,,,,,,,,,,,,,,,,,,,,,,,,,,,,main,k,k,1,1.286699199990835,599.2585748000129,None,None,0,,,,,,,,,,,,,,114,20,Female,2022-05-04_14h27.02.684,Parachute,2022.1.1,60.128675365093144,
negative,yellow,1,k,None,,,,,,,,,0,164,164,164,,,,,,,,,,,,,,,,,,,,,,,,,,,,,,,,,,,,,main,k,k,1,0.798324400006095,601.5555426999927,None,None,0,,,,,,,,,,,,,,114,20,Female,2022-05-04_14h27.02.684,Parachute,2022.1.1,60.128675365093144,
positive,yellow,1,None,k,,,,,,,,,0,165,165,165,,,,,,,,,,,,,,,,,,,,,,,,,,,,,,,,,,,,,main,None,None,1,1.493683599983342,603.3461423999979,None,None,1,,,,,,,,,,,,,,114,20,Female,2022-05-04_14h27.02.684,Parachute,2022.1.1,60.128675365093144,
negative,red,1,None,None,,,,,,,,,0,166,166,166,,,,,,,,,,,,,,,,,,,,,,,,,,,,,,,,,,,,,main,None,None,1,1.498669799999334,605.8416680000082,None,None,1,,,,,,,,,,,,,,114,20,Female,2022-05-04_14h27.02.684,Parachute,2022.1.1,60.128675365093144,
negative,yellow,2,k,None,,,,,,,,,0,167,167,167,,,,,,,,,,,,,,,,,,,,,,,,,,,,,,,,,,,,,main,k,k,1,1.3694636999862269,608.3417026000097,None,None,0,,,,,,,,,,,,,,114,20,Female,2022-05-04_14h27.02.684,Parachute,2022.1.1,60.128675365093144,
positive,blue,2,k,None,,,,,,,,,0,168,168,168,,,,,,,,,,,,,,,,,,,,,,,,,,,,,,,,,,,,,main,k,k,1,0.8101720999984536,610.7132799999963,None,None,0,,,,,,,,,,,,,,114,20,Female,2022-05-04_14h27.02.684,Parachute,2022.1.1,60.128675365093144,
positive,red,2,None,None,,,,,,,,,0,169,169,169,,,,,,,,,,,,,,,,,,,,,,,,,,,,,,,,,,,,,main,None,None,1,1.4999989999923855,612.5243315999978,None,None,1,,,,,,,,,,,,,,114,20,Female,2022-05-04_14h27.02.684,Parachute,2022.1.1,60.128675365093144,
positive,red,1,None,None,,,,,,,,,0,170,170,170,,,,,,,,,,,,,,,,,,,,,,,,,,,,,,,,,,,,,main,None,None,1,1.4984764000109863,615.0252113000024,None,None,1,,,,,,,,,,,,,,114,20,Female,2022-05-04_14h27.02.684,Parachute,2022.1.1,60.128675365093144,
negative,blue,2,None,k,,,,,,,,,0,171,171,171,,,,,,,,,,,,,,,,,,,,,,,,,,,,,,,,,,,,,main,None,None,1,1.498888599977363,617.5250397000054,None,None,1,,,,,,,,,,,,,,114,20,Female,2022-05-04_14h27.02.684,Parachute,2022.1.1,60.128675365093144,
positive,blue,2,k,None,,,,,,,,,0,172,172,172,,,,,,,,,,,,,,,,,,,,,,,,,,,,,,,,,,,,,main,k,k,1,1.2699221999791916,620.025483800011,None,None,0,,,,,,,,,,,,,,114,20,Female,2022-05-04_14h27.02.684,Parachute,2022.1.1,60.128675365093144,
negative,yellow,2,k,None,,,,,,,,,0,173,173,173,,,,,,,,,,,,,,,,,,,,,,,,,,,,,,,,,,,,,main,k,k,1,1.5286536999919917,622.3086614000204,None,None,0,,,,,,,,,,,,,,114,20,Female,2022-05-04_14h27.02.684,Parachute,2022.1.1,60.128675365093144,
positive,yellow,2,None,k,,,,,,,,,0,174,174,174,,,,,,,,,,,,,,,,,,,,,,,,,,,,,,,,,,,,,main,None,k,0,-0.7264588999969419,625.8418843999971,None,None,1,,,,,,,,,,,,,,114,20,Female,2022-05-04_14h27.02.684,Parachute,2022.1.1,60.128675365093144,
negative,blue,2,None,k,,,,,,,,,0,175,175,175,,,,,,,,,,,,,,,,,,,,,,,,,,,,,,,,,,,,,main,None,None,1,1.5014145000022836,629.1246717000031,None,None,1,,,,,,,,,,,,,,114,20,Female,2022-05-04_14h27.02.684,Parachute,2022.1.1,60.128675365093144,
positive,blue,1,k,None,,,,,,,,,0,176,176,176,,,,,,,,,,,,,,,,,,,,,,,,,,,,,,,,,,,,,main,k,k,1,-0.39919100000406615,631.6256049000076,None,None,0,,,,,,,,,,,,,,114,20,Female,2022-05-04_14h27.02.684,Parachute,2022.1.1,60.128675365093144,
positive,yellow,1,None,k,,,,,,,,,0,177,177,177,,,,,,,,,,,,,,,,,,,,,,,,,,,,,,,,,,,,,main,None,None,1,1.5021695999894291,635.2415348000068,None,None,1,,,,,,,,,,,,,,114,20,Female,2022-05-04_14h27.02.684,Parachute,2022.1.1,60.128675365093144,
positive,blue,1,k,None,,,,,,,,,0,178,178,178,,,,,,,,,,,,,,,,,,,,,,,,,,,,,,,,,,,,,main,k,k,1,6.487104300002102,637.743071600009,None,None,0,,,,,,,,,,,,,,114,20,Female,2022-05-04_14h27.02.684,Parachute,2022.1.1,60.128675365093144,
positive,yellow,2,None,k,,,,,,,,,0,179,179,179,,,,,,,,,,,,,,,,,,,,,,,,,,,,,,,,,,,,,main,None,None,1,1.5017444999830332,646.2416397000197,None,None,1,,,,,,,,,,,,,,114,20,Female,2022-05-04_14h27.02.684,Parachute,2022.1.1,60.128675365093144,
positive,blue,1,k,None,,,,,,,,,0,180,180,180,,,,,,,,,,,,,,,,,,,,,,,,,,,,,,,,,,,,,main,k,k,1,1.2371055000112392,648.7428447999991,None,None,0,,,,,,,,,,,,,,114,20,Female,2022-05-04_14h27.02.684,Parachute,2022.1.1,60.128675365093144,
negative,red,1,None,None,,,,,,,,,0,181,181,181,,,,,,,,,,,,,,,,,,,,,,,,,,,,,,,,,,,,,main,None,None,1,1.4933138999913353,650.9805084000109,None,None,1,,,,,,,,,,,,,,114,20,Female,2022-05-04_14h27.02.684,Parachute,2022.1.1,60.128675365093144,
negative,blue,1,None,k,,,,,,,,,0,182,182,182,,,,,,,,,,,,,,,,,,,,,,,,,,,,,,,,,,,,,main,None,None,1,1.4987994999974035,653.4759690999927,None,None,1,,,,,,,,,,,,,,114,20,Female,2022-05-04_14h27.02.684,Parachute,2022.1.1,60.128675365093144,
negative,yellow,2,k,None,,,,,,,,,0,183,183,183,,,,,,,,,,,,,,,,,,,,,,,,,,,,,,,,,,,,,main,k,k,1,1.21913150002365,655.9762233000074,None,None,0,,,,,,,,,,,,,,114,20,Female,2022-05-04_14h27.02.684,Parachute,2022.1.1,60.128675365093144,
positive,yellow,2,None,k,,,,,,,,,0,184,184,184,,,,,,,,,,,,,,,,,,,,,,,,,,,,,,,,,,,,,main,None,None,1,1.4943704000033904,658.197118800017,None,None,1,,,,,,,,,,,,,,114,20,Female,2022-05-04_14h27.02.684,Parachute,2022.1.1,60.128675365093144,
positive,yellow,1,None,k,,,,,,,,,0,185,185,185,,,,,,,,,,,,,,,,,,,,,,,,,,,,,,,,,,,,,main,None,None,1,1.4986859999771696,660.6925540000084,None,None,1,,,,,,,,,,,,,,114,20,Female,2022-05-04_14h27.02.684,Parachute,2022.1.1,60.128675365093144,
positive,red,2,None,None,,,,,,,,,0,186,186,186,,,,,,,,,,,,,,,,,,,,,,,,,,,,,,,,,,,,,main,None,None,1,1.4985308999894187,663.192855900008,None,None,1,,,,,,,,,,,,,,114,20,Female,2022-05-04_14h27.02.684,Parachute,2022.1.1,60.128675365093144,
positive,blue,1,k,None,,,,,,,,,0,187,187,187,,,,,,,,,,,,,,,,,,,,,,,,,,,,,,,,,,,,,main,k,k,1,6.436318099993514,665.6930088000081,None,None,0,,,,,,,,,,,,,,114,20,Female,2022-05-04_14h27.02.684,Parachute,2022.1.1,60.128675365093144,
negative,yellow,1,k,None,,,,,,,,,0,188,188,188,,,,,,,,,,,,,,,,,,,,,,,,,,,,,,,,,,,,,main,k,k,1,0.82412339997245,674.142559800006,None,None,0,,,,,,,,,,,,,,114,20,Female,2022-05-04_14h27.02.684,Parachute,2022.1.1,60.128675365093144,
positive,yellow,2,None,k,,,,,,,,,0,189,189,189,,,,,,,,,,,,,,,,,,,,,,,,,,,,,,,,,,,,,main,None,None,1,1.4927640000241809,675.9640116000082,None,None,1,,,,,,,,,,,,,,114,20,Female,2022-05-04_14h27.02.684,Parachute,2022.1.1,60.128675365093144,
negative,yellow,2,k,None,,,,,,,,,0,190,190,190,,,,,,,,,,,,,,,,,,,,,,,,,,,,,,,,,,,,,main,k,k,1,3.9871181000198703,678.459142000007,None,None,0,,,,,,,,,,,,,,114,20,Female,2022-05-04_14h27.02.684,Parachute,2022.1.1,60.128675365093144,
negative,yellow,1,k,None,,,,,,,,,0,191,191,191,,,,,,,,,,,,,,,,,,,,,,,,,,,,,,,,,,,,,main,k,k,1,0.7733639000216499,684.4593535000167,None,None,0,,,,,,,,,,,,,,114,20,Female,2022-05-04_14h27.02.684,Parachute,2022.1.1,60.128675365093144,
positive,blue,2,k,None,,,,,,,,,0,192,192,192,,,,,,,,,,,,,,,,,,,,,,,,,,,,,,,,,,,,,main,k,k,1,0.6807586999784689,686.230899200018,None,None,0,,,,,,,,,,,,,,114,20,Female,2022-05-04_14h27.02.684,Parachute,2022.1.1,60.128675365093144,
positive,yellow,1,None,k,,,,,,,,,0,193,193,193,,,,,,,,,,,,,,,,,,,,,,,,,,,,,,,,,,,,,main,None,None,1,1.494900100020459,687.9145650000137,None,None,1,,,,,,,,,,,,,,114,20,Female,2022-05-04_14h27.02.684,Parachute,2022.1.1,60.128675365093144,
negative,red,2,None,None,,,,,,,,,0,194,194,194,,,,,,,,,,,,,,,,,,,,,,,,,,,,,,,,,,,,,main,None,None,1,1.498164699994959,690.410105500021,None,None,1,,,,,,,,,,,,,,114,20,Female,2022-05-04_14h27.02.684,Parachute,2022.1.1,60.128675365093144,
positive,red,1,None,None,,,,,,,,,0,195,195,195,,,,,,,,,,,,,,,,,,,,,,,,,,,,,,,,,,,,,main,None,None,1,1.4987805999990087,692.9096113000123,None,None,1,,,,,,,,,,,,,,114,20,Female,2022-05-04_14h27.02.684,Parachute,2022.1.1,60.128675365093144,
negative,blue,1,None,k,,,,,,,,,0,196,196,196,,,,,,,,,,,,,,,,,,,,,,,,,,,,,,,,,,,,,main,None,None,1,1.5059385999920778,695.4099099000159,None,None,1,,,,,,,,,,,,,,114,20,Female,2022-05-04_14h27.02.684,Parachute,2022.1.1,60.128675365093144,
positive,blue,2,k,None,,,,,,,,,0,197,197,197,,,,,,,,,,,,,,,,,,,,,,,,,,,,,,,,,,,,,main,k,k,1,0.7440709999937098,697.9164175000042,None,None,0,,,,,,,,,,,,,,114,20,Female,2022-05-04_14h27.02.684,Parachute,2022.1.1,60.128675365093144,
negative,blue,2,None,k,,,,,,,,,0,198,198,198,,,,,,,,,,,,,,,,,,,,,,,,,,,,,,,,,,,,,main,None,None,1,1.4960093999980018,699.6629624000052,None,None,1,,,,,,,,,,,,,,114,20,Female,2022-05-04_14h27.02.684,Parachute,2022.1.1,60.128675365093144,
negative,blue,2,None,k,,,,,,,,,0,199,199,199,,,,,,,,,,,,,,,,,,,,,,,,,,,,,,,,,,,,,main,None,k,0,0.8683206000132486,702.1597347000206,None,None,1,,,,,,,,,,,,,,114,20,Female,2022-05-04_14h27.02.684,Parachute,2022.1.1,60.128675365093144,
positive,blue,2,k,None,,,,,,,,,0,200,200,200,,,,,,,,,,,,,,,,,,,,,,,,,,,,,,,,,,,,,main,k,k,1,1.8071726000052877,705.0430760000017,None,None,0,,,,,,,,,,,,,,114,20,Female,2022-05-04_14h27.02.684,Parachute,2022.1.1,60.128675365093144,
positive,blue,2,k,None,,,,,,,,,0,201,201,201,,,,,,,,,,,,,,,,,,,,,,,,,,,,,,,,,,,,,main,k,k,1,0.7166007999912836,708.8596537999983,None,None,0,,,,,,,,,,,,,,114,20,Female,2022-05-04_14h27.02.684,Parachute,2022.1.1,60.128675365093144,
negative,yellow,2,k,None,,,,,,,,,0,202,202,202,,,,,,,,,,,,,,,,,,,,,,,,,,,,,,,,,,,,,main,k,k,1,1.8386064000078477,710.5765609999944,None,None,0,,,,,,,,,,,,,,114,20,Female,2022-05-04_14h27.02.684,Parachute,2022.1.1,60.128675365093144,
positive,red,1,None,None,,,,,,,,,0,203,203,203,,,,,,,,,,,,,,,,,,,,,,,,,,,,,,,,,,,,,main,None,None,1,1.5021049000206403,714.4268848999927,None,None,1,,,,,,,,,,,,,,114,20,Female,2022-05-04_14h27.02.684,Parachute,2022.1.1,60.128675365093144,
negative,blue,2,None,k,,,,,,,,,0,204,204,204,,,,,,,,,,,,,,,,,,,,,,,,,,,,,,,,,,,,,main,None,None,1,1.4987132999813184,716.9270223000203,None,None,1,,,,,,,,,,,,,,114,20,Female,2022-05-04_14h27.02.684,Parachute,2022.1.1,60.128675365093144,
negative,red,1,None,None,,,,,,,,,0,205,205,205,,,,,,,,,,,,,,,,,,,,,,,,,,,,,,,,,,,,,main,None,None,1,1.4982027000223752,719.4275674000091,None,None,1,,,,,,,,,,,,,,114,20,Female,2022-05-04_14h27.02.684,Parachute,2022.1.1,60.128675365093144,
negative,blue,2,None,k,,,,,,,,,0,206,206,206,,,,,,,,,,,,,,,,,,,,,,,,,,,,,,,,,,,,,main,None,None,1,1.498651300003985,721.9269884999958,None,None,1,,,,,,,,,,,,,,114,20,Female,2022-05-04_14h27.02.684,Parachute,2022.1.1,60.128675365093144,
negative,yellow,2,k,None,,,,,,,,,0,207,207,207,,,,,,,,,,,,,,,,,,,,,,,,,,,,,,,,,,,,,main,k,k,1,1.1204889999935403,724.4272770000098,None,None,0,,,,,,,,,,,,,,114,20,Female,2022-05-04_14h27.02.684,Parachute,2022.1.1,60.128675365093144,
positive,yellow,2,None,k,,,,,,,,,0,208,208,208,,,,,,,,,,,,,,,,,,,,,,,,,,,,,,,,,,,,,main,None,None,1,1.4933466000074986,726.5486834000039,None,None,1,,,,,,,,,,,,,,114,20,Female,2022-05-04_14h27.02.684,Parachute,2022.1.1,60.128675365093144,
negative,yellow,1,k,None,,,,,,,,,0,209,209,209,,,,,,,,,,,,,,,,,,,,,,,,,,,,,,,,,,,,,main,k,k,1,1.6369656999886502,729.0441249000141,None,None,0,,,,,,,,,,,,,,114,20,Female,2022-05-04_14h27.02.684,Parachute,2022.1.1,60.128675365093144,
negative,red,2,None,None,,,,,,,,,0,210,210,210,,,,,,,,,,,,,,,,,,,,,,,,,,,,,,,,,,,,,main,None,None,1,1.501435499987565,732.6934849999961,None,None,1,,,,,,,,,,,,,,114,20,Female,2022-05-04_14h27.02.684,Parachute,2022.1.1,60.128675365093144,
negative,blue,1,None,k,,,,,,,,,0,211,211,211,,,,,,,,,,,,,,,,,,,,,,,,,,,,,,,,,,,,,main,None,None,1,1.4986228999914601,735.1947105000145,None,None,1,,,,,,,,,,,,,,114,20,Female,2022-05-04_14h27.02.684,Parachute,2022.1.1,60.128675365093144,
negative,yellow,1,k,None,,,,,,,,,0,212,212,212,,,,,,,,,,,,,,,,,,,,,,,,,,,,,,,,,,,,,main,k,k,1,0.986090599995805,737.694370400015,None,None,0,,,,,,,,,,,,,,114,20,Female,2022-05-04_14h27.02.684,Parachute,2022.1.1,60.128675365093144,
positive,blue,1,k,None,,,,,,,,,0,213,213,213,,,,,,,,,,,,,,,,,,,,,,,,,,,,,,,,,,,,,main,k,k,1,0.7758428000088315,739.6820979000186,None,None,0,,,,,,,,,,,,,,114,20,Female,2022-05-04_14h27.02.684,Parachute,2022.1.1,60.128675365093144,
positive,blue,1,k,None,,,,,,,,,0,214,214,214,,,,,,,,,,,,,,,,,,,,,,,,,,,,,,,,,,,,,main,k,k,1,0.739999200013699,741.4605932999984,None,None,0,,,,,,,,,,,,,,114,20,Female,2022-05-04_14h27.02.684,Parachute,2022.1.1,60.128675365093144,
positive,yellow,1,None,k,,,,,,,,,0,215,215,215,,,,,,,,,,,,,,,,,,,,,,,,,,,,,,,,,,,,,main,None,None,1,1.5088363999966532,743.1998699000105,None,None,1,,,,,,,,,,,,,,114,20,Female,2022-05-04_14h27.02.684,Parachute,2022.1.1,60.128675365093144,
positive,yellow,1,None,k,,,,,,,,,0,216,216,216,,,,,,,,,,,,,,,,,,,,,,,,,,,,,,,,,,,,,main,None,None,1,1.4984313000168186,745.7110365999979,None,None,1,,,,,,,,,,,,,,114,20,Female,2022-05-04_14h27.02.684,Parachute,2022.1.1,60.128675365093144,
positive,yellow,2,None,k,,,,,,,,,0,217,217,217,,,,,,,,,,,,,,,,,,,,,,,,,,,,,,,,,,,,,main,None,None,1,1.4990716000029352,748.2106692999951,None,None,1,,,,,,,,,,,,,,114,20,Female,2022-05-04_14h27.02.684,Parachute,2022.1.1,60.128675365093144,
negative,blue,1,None,k,,,,,,,,,0,218,218,218,,,,,,,,,,,,,,,,,,,,,,,,,,,,,,,,,,,,,main,None,None,1,1.4983662000158802,750.7114277000073,None,None,1,,,,,,,,,,,,,,114,20,Female,2022-05-04_14h27.02.684,Parachute,2022.1.1,60.128675365093144,
positive,red,2,None,None,,,,,,,,,0,219,219,219,,,,,,,,,,,,,,,,,,,,,,,,,,,,,,,,,,,,,main,None,None,1,1.4984951999795157,753.2107733000012,None,None,1,,,,,,,,,,,,,,114,20,Female,2022-05-04_14h27.02.684,Parachute,2022.1.1,60.128675365093144,
positive,yellow,1,None,k,,,,,,,,,0,220,220,220,,,,,,,,,,,,,,,,,,,,,,,,,,,,,,,,,,,,,main,None,None,1,1.4990740999928676,755.7111269000161,None,None,1,,,,,,,,,,,,,,114,20,Female,2022-05-04_14h27.02.684,Parachute,2022.1.1,60.128675365093144,
positive,blue,1,k,None,,,,,,,,,0,221,221,221,,,,,,,,,,,,,,,,,,,,,,,,,,,,,,,,,,,,,main,k,k,1,1.0537255000090227,758.2108982999926,None,None,0,,,,,,,,,,,,,,114,20,Female,2022-05-04_14h27.02.684,Parachute,2022.1.1,60.128675365093144,
positive,yellow,2,None,k,,,,,,,,,0,222,222,222,,,,,,,,,,,,,,,,,,,,,,,,,,,,,,,,,,,,,main,None,None,1,1.494201499997871,760.2659248000127,None,None,1,,,,,,,,,,,,,,114,20,Female,2022-05-04_14h27.02.684,Parachute,2022.1.1,60.128675365093144,
negative,yellow,1,k,None,,,,,,,,,0,223,223,223,,,,,,,,,,,,,,,,,,,,,,,,,,,,,,,,,,,,,main,k,k,1,1.1369870000053197,762.7615550000046,None,None,0,,,,,,,,,,,,,,114,20,Female,2022-05-04_14h27.02.684,Parachute,2022.1.1,60.128675365093144,
positive,yellow,2,None,k,,,,,,,,,0,224,224,224,,,,,,,,,,,,,,,,,,,,,,,,,,,,,,,,,,,,,main,None,None,1,1.4933874999987893,764.8994951000204,None,None,1,,,,,,,,,,,,,,114,20,Female,2022-05-04_14h27.02.684,Parachute,2022.1.1,60.128675365093144,
negative,yellow,2,k,None,,,,,,,,,0,225,225,225,,,,,,,,,,,,,,,,,,,,,,,,,,,,,,,,,,,,,main,k,k,1,0.8540849999990314,767.3947716999974,None,None,0,,,,,,,,,,,,,,114,20,Female,2022-05-04_14h27.02.684,Parachute,2022.1.1,60.128675365093144,
negative,blue,2,None,k,,,,,,,,,0,226,226,226,,,,,,,,,,,,,,,,,,,,,,,,,,,,,,,,,,,,,main,None,None,1,1.49306589999469,769.2617618000077,None,None,1,,,,,,,,,,,,,,114,20,Female,2022-05-04_14h27.02.684,Parachute,2022.1.1,60.128675365093144,
positive,red,2,None,None,,,,,,,,,0,227,227,227,,,,,,,,,,,,,,,,,,,,,,,,,,,,,,,,,,,,,main,None,None,1,1.4992706000048202,771.7446342000039,None,None,1,,,,,,,,,,,,,,114,20,Female,2022-05-04_14h27.02.684,Parachute,2022.1.1,60.128675365093144,
positive,blue,2,k,None,,,,,,,,,0,228,228,228,,,,,,,,,,,,,,,,,,,,,,,,,,,,,,,,,,,,,main,k,k,1,1.0207244999764953,774.2453807000129,None,None,0,,,,,,,,,,,,,,114,20,Female,2022-05-04_14h27.02.684,Parachute,2022.1.1,60.128675365093144,
negative,blue,1,None,k,,,,,,,,,0,229,229,229,,,,,,,,,,,,,,,,,,,,,,,,,,,,,,,,,,,,,main,None,None,1,1.493010799982585,776.2668508000206,None,None,1,,,,,,,,,,,,,,114,20,Female,2022-05-04_14h27.02.684,Parachute,2022.1.1,60.128675365093144,
positive,yellow,1,None,k,,,,,,,,,0,230,230,230,,,,,,,,,,,,,,,,,,,,,,,,,,,,,,,,,,,,,main,None,k,0,1.0862171000044327,778.761734700005,None,None,1,,,,,,,,,,,,,,114,20,Female,2022-05-04_14h27.02.684,Parachute,2022.1.1,60.128675365093144,
negative,blue,2,None,k,,,,,,,,,0,231,231,231,,,,,,,,,,,,,,,,,,,,,,,,,,,,,,,,,,,,,main,None,None,1,1.5020849000138696,781.8612543000199,None,None,1,,,,,,,,,,,,,,114,20,Female,2022-05-04_14h27.02.684,Parachute,2022.1.1,60.128675365093144,
negative,red,1,None,None,,,,,,,,,0,232,232,232,,,,,,,,,,,,,,,,,,,,,,,,,,,,,,,,,,,,,main,None,None,1,1.49808980000671,784.3627745000122,None,None,1,,,,,,,,,,,,,,114,20,Female,2022-05-04_14h27.02.684,Parachute,2022.1.1,60.128675365093144,
positive,blue,2,k,None,,,,,,,,,0,233,233,233,,,,,,,,,,,,,,,,,,,,,,,,,,,,,,,,,,,,,main,k,k,1,0.9034062000282574,786.8620801999932,None,None,0,,,,,,,,,,,,,,114,20,Female,2022-05-04_14h27.02.684,Parachute,2022.1.1,60.128675365093144,
negative,yellow,1,k,None,,,,,,,,,0,234,234,234,,,,,,,,,,,,,,,,,,,,,,,,,,,,,,,,,,,,,main,k,k,1,0.9993083000008482,788.767016400001,None,None,0,,,,,,,,,,,,,,114,20,Female,2022-05-04_14h27.02.684,Parachute,2022.1.1,60.128675365093144,
negative,yellow,2,k,None,,,,,,,,,0,235,235,235,,,,,,,,,,,,,,,,,,,,,,,,,,,,,,,,,,,,,main,k,k,1,1.0653775999962818,790.7676903000101,None,None,0,,,,,,,,,,,,,,114,20,Female,2022-05-04_14h27.02.684,Parachute,2022.1.1,60.128675365093144,
positive,red,1,None,None,,,,,,,,,0,236,236,236,,,,,,,,,,,,,,,,,,,,,,,,,,,,,,,,,,,,,main,None,None,1,1.493658699997468,792.8336208999972,None,None,1,,,,,,,,,,,,,,114,20,Female,2022-05-04_14h27.02.684,Parachute,2022.1.1,60.128675365093144,
negative,red,2,None,None,,,,,,,,,0,237,237,237,,,,,,,,,,,,,,,,,,,,,,,,,,,,,,,,,,,,,main,None,None,1,1.4981582000036724,795.3295993999927,None,None,1,,,,,,,,,,,,,,114,20,Female,2022-05-04_14h27.02.684,Parachute,2022.1.1,60.128675365093144,
negative,blue,1,None,k,,,,,,,,,0,238,238,238,,,,,,,,,,,,,,,,,,,,,,,,,,,,,,,,,,,,,main,None,None,1,1.4985049999959301,797.8292255999986,None,None,1,,,,,,,,,,,,,,114,20,Female,2022-05-04_14h27.02.684,Parachute,2022.1.1,60.128675365093144,
positive,blue,1,k,None,,,,,,,,,0,239,239,239,,,,,,,,,,,,,,,,,,,,,,,,,,,,,,,,,,,,,main,k,k,1,1.0206397000001743,800.3288990000146,None,None,0,,,,,,,,,,,,,,114,20,Female,2022-05-04_14h27.02.684,Parachute,2022.1.1,60.128675365093144,
,,,,,,,,,,,,,,,,,,,,,,,,,,,,,,,,,,,,,,,,,,,,,,,,,,,,,,,,,,,,,,,,,,,,,,,,,802.347138800018,None,,,,,,,,
