distractor,target,set,ans1,ans2,rep_loop4.thisRepN,rep_loop4.thisTrialN,rep_loop4.thisN,rep_loop4.thisIndex,st2_prac_loop.thisRepN,st2_prac_loop.thisTrialN,st2_prac_loop.thisN,st2_prac_loop.thisIndex,st2_main_loop.thisRepN,st2_main_loop.thisTrialN,st2_main_loop.thisN,st2_main_loop.thisIndex,image_4.started,image_4.stopped,mouse_7.x,mouse_7.y,mouse_7.leftButton,mouse_7.midButton,mouse_7.rightButton,sound_2.started,sound_2.stopped,key_resp_3.keys,mouse_5.x,mouse_5.y,mouse_5.leftButton,mouse_5.midButton,mouse_5.rightButton,mouse_5.started,mouse_5.stopped,yes_text2.started,yes_text2.stopped,no_text2.started,no_text2.stopped,mouse_3.x,mouse_3.y,mouse_3.leftButton,mouse_3.midButton,mouse_3.rightButton,mouse_3.started,mouse_3.stopped,st_prac_back.started,st_prac_back.stopped,st_prac_text.started,st_prac_text.stopped,st_fix_back.started,st_fix_back.stopped,st_fix_2.started,st_fix_2.stopped,main_prac,st_ans,st_res,st_corr,st_rt,st_back.started,st_back.stopped,st2_resp.keys,st2_resp.corr,st_main_back.started,st_main_back.stopped,st_main_text.started,st_main_text.stopped,mouse_4.x,mouse_4.y,mouse_4.leftButton,mouse_4.midButton,mouse_4.rightButton,mouse_4.started,mouse_4.stopped,text_2.started,text_2.stopped,id*,age*,gender*,date,expName,psychopyVersion,frameRate,
,,,,,,,,,,,,,,,,,36.59567819998483,None,-0.6462963,-0.2898148,0,0,0,,,,,,,,,,,,,,,,,,,,,,,,,,,,,,,,,,,,,,,,,,,,,,,,,,,,115,21,Female,2022-05-05_09h47.47.670,Parachute,2022.1.1,60.070161944931655,
negative,yellow,1,k,None,,,,,0,0,0,0,,,,,,,,,,,,41.7505005499901,None,None,-0.0009259259,-0.4148148,0,0,0,1.0045877999800723,None,98.33571379998466,None,98.33571379998466,None,-0.096296296,-0.085185185,0,0,0,0.013444150012219325,None,101.00630999999703,None,101.00630999999703,None,103.01767169998493,None,103.01767169998493,None,prac,None,None,1,1.5104858999839053,105.04006850000587,None,None,1,,,,,,,,,,,,,,115,21,Female,2022-05-05_09h47.47.670,Parachute,2022.1.1,60.070161944931655,
positive,red,2,None,None,,,,,0,1,1,1,,,,,,,,,,,,,,,,,,,,,,,,,,,,,,,,,,,,,,,,,prac,None,None,1,1.497998099977849,107.52795570000308,None,None,1,,,,,,,,,,,,,,115,21,Female,2022-05-05_09h47.47.670,Parachute,2022.1.1,60.070161944931655,
negative,blue,2,None,k,,,,,0,2,2,2,,,,,,,,,,,,,,,,,,,,,,,,,,,,,,,,,,,,,,,,,prac,k,k,1,1.0876944999909028,110.02753299998585,None,None,0,,,,,,,,,,,,,,115,21,Female,2022-05-05_09h47.47.670,Parachute,2022.1.1,60.070161944931655,
positive,yellow,1,None,k,,,,,0,3,3,3,,,,,,,,,,,,,,,,,,,,,,,,,,,,,,,,,,,,,,,,,prac,k,k,1,1.0967912999913096,112.11488439998357,None,None,0,,,,,,,,,,,,,,115,21,Female,2022-05-05_09h47.47.670,Parachute,2022.1.1,60.070161944931655,
negative,blue,2,None,k,,,,,0,4,4,4,,,,,,,,,,,,,,,,,,,,,,,,,,,,,,,,,,,,,,,,,prac,k,k,1,0.9999600000155624,114.21325070000603,None,None,0,,,,,,,,,,,,,,115,21,Female,2022-05-05_09h47.47.670,Parachute,2022.1.1,60.070161944931655,
negative,blue,1,None,k,,,,,0,5,5,5,,,,,,,,,,,,,,,,,,,,,,,,,,,,,,,,,,,,,,,,,prac,k,k,1,1.2149051000014879,116.20718229998602,None,None,0,,,,,,,,,,,,,,115,21,Female,2022-05-05_09h47.47.670,Parachute,2022.1.1,60.070161944931655,
negative,yellow,2,k,None,,,,,0,6,6,6,,,,,,,,,,,,,,,,,,,,,,,,,,,,,,,,,,,,,,,,,prac,None,None,1,1.4938458000251558,118.4241924000089,None,None,1,,,,,,,,,,,,,,115,21,Female,2022-05-05_09h47.47.670,Parachute,2022.1.1,60.070161944931655,
negative,red,1,None,None,,,,,0,7,7,7,,,,,,,,,,,,,,,,,,,,,,,,,,,,,,,,,,,,,,,,,prac,None,None,1,1.4988381000002846,120.92650329999742,None,None,1,,,,,,,,,,,,,,115,21,Female,2022-05-05_09h47.47.670,Parachute,2022.1.1,60.070161944931655,
positive,yellow,2,None,k,,,,,0,8,8,8,,,,,,,,,,,,,,,,,,,,,,,,,,,,,,,,,,,,,,,,,prac,k,k,1,0.7839167999918573,123.4194382999849,None,None,0,,,,,,,,,,,,,,115,21,Female,2022-05-05_09h47.47.670,Parachute,2022.1.1,60.070161944931655,
negative,yellow,1,k,None,,,,,0,9,9,9,,,,,,,,,,,,,,,,,,,,,,,,,,,,,,,,,,,,,,,,,prac,None,None,1,1.4964597999933176,125.20536900000297,None,None,1,,,,,,,,,,,,,,115,21,Female,2022-05-05_09h47.47.670,Parachute,2022.1.1,60.070161944931655,
positive,yellow,2,None,k,,,,,0,10,10,10,,,,,,,,,,,,,,,,,,,,,,,,,,,,,,,,,,,,,,,,,prac,k,k,1,0.8681536999938544,127.70321780000813,None,None,0,,,,,,,,,,,,,,115,21,Female,2022-05-05_09h47.47.670,Parachute,2022.1.1,60.070161944931655,
negative,yellow,2,k,None,,,,,0,11,11,11,,,,,,,,,,,,,,,,,,,,,,,,,,,,,,,,,,,,,,,,,prac,None,None,1,1.4956916999944951,129.57304899999872,None,None,1,,,,,,,,,,,,,,115,21,Female,2022-05-05_09h47.47.670,Parachute,2022.1.1,60.070161944931655,
negative,red,2,None,None,,,,,0,12,12,12,,,,,,,,,,,,,,,,,,,,,,,,,,,,,,,,,,,,,,,,,prac,None,None,1,1.497955999977421,132.06978089999757,None,None,1,,,,,,,,,,,,,,115,21,Female,2022-05-05_09h47.47.670,Parachute,2022.1.1,60.070161944931655,
positive,red,1,None,None,,,,,0,13,13,13,,,,,,,,,,,,,,,,,,,,,,,,,,,,,,,,,,,,,,,,,prac,None,None,1,1.4990446000010706,134.57672129999264,None,None,1,,,,,,,,,,,,,,115,21,Female,2022-05-05_09h47.47.670,Parachute,2022.1.1,60.070161944931655,
positive,blue,2,k,None,,,,,0,14,14,14,,,,,,,,,,,,,,,,,,,,,,,,,,,,,,,,,,,,,,,,,prac,None,None,1,1.4987513000087347,137.07686050000484,None,None,1,,,,,,,,,,,,,,115,21,Female,2022-05-05_09h47.47.670,Parachute,2022.1.1,60.070161944931655,
positive,blue,1,k,None,,,,,0,15,15,15,,,,,,,,,,,,,,,,,,,,,,,,,,,,,,,,,,,,,,,,,prac,None,None,1,1.4983528000011574,139.5699031999975,None,None,1,,,,,,,,,,,,,,115,21,Female,2022-05-05_09h47.47.670,Parachute,2022.1.1,60.070161944931655,
negative,blue,1,None,k,,,,,0,16,16,16,,,,,,,,,,,,,,,,,,,,,,,,,,,,,,,,,,,,,,,,,prac,k,k,1,0.8854660000069998,142.06979690000298,None,None,0,,,,,,,,,,,,,,115,21,Female,2022-05-05_09h47.47.670,Parachute,2022.1.1,60.070161944931655,
positive,blue,2,k,None,,,,,0,17,17,17,,,,,,,,,,,,,,,,,,,,,,,,,,,,,,,,,,,,,,,,,prac,None,None,1,1.495296299981419,143.95733000000473,None,None,1,,,,,,,,,,,,,,115,21,Female,2022-05-05_09h47.47.670,Parachute,2022.1.1,60.070161944931655,
positive,blue,1,k,None,,,,,0,18,18,18,,,,,,,,,,,,,,,,,,,,,,,,,,,,,,,,,,,,,,,,,prac,None,None,1,1.499120499996934,146.45334800001,None,None,1,,,,,,,,,,,,,,115,21,Female,2022-05-05_09h47.47.670,Parachute,2022.1.1,60.070161944931655,
positive,yellow,1,None,k,,,,,0,19,19,19,,,,,,,,,,,,,,,,,,,,,,,,,,,,,,,,,,,,,,,,,prac,k,k,1,0.9374870000174269,148.9538429999957,None,None,0,,,,,,,,,,,,,,115,21,Female,2022-05-05_09h47.47.670,Parachute,2022.1.1,60.070161944931655,
negative,yellow,1,k,None,,,,,1,0,20,0,,,,,,,,,,,,,,,,,,,,,,,,,,,,,,,,,,,,,,,,,prac,None,None,1,1.5087801000045147,150.89321989999735,None,None,1,,,,,,,,,,,,,,115,21,Female,2022-05-05_09h47.47.670,Parachute,2022.1.1,60.070161944931655,
positive,red,2,None,None,,,,,1,1,21,1,,,,,,,,,,,,,,,,,,,,,,,,,,,,,,,,,,,,,,,,,prac,None,None,1,1.4982383000024129,153.40350769998622,None,None,1,,,,,,,,,,,,,,115,21,Female,2022-05-05_09h47.47.670,Parachute,2022.1.1,60.070161944931655,
negative,blue,2,None,k,,,,,1,2,22,2,,,,,,,,,,,,,,,,,,,,,,,,,,,,,,,,,,,,,,,,,prac,k,k,1,0.7706013999995776,155.90327730000718,None,None,0,,,,,,,,,,,,,,115,21,Female,2022-05-05_09h47.47.670,Parachute,2022.1.1,60.070161944931655,
positive,yellow,1,None,k,,,,,1,3,23,3,,,,,,,,,,,,,,,,,,,,,,,,,,,,,,,,,,,,,,,,,prac,k,k,1,0.912600100011332,157.67516439998872,None,None,0,,,,,,,,,,,,,,115,21,Female,2022-05-05_09h47.47.670,Parachute,2022.1.1,60.070161944931655,
negative,blue,2,None,k,,,,,1,4,24,4,,,,,,,,,,,,,,,,,,,,,,,,,,,,,,,,,,,,,,,,,prac,k,k,1,0.8990294999966864,159.59072509998805,None,None,0,,,,,,,,,,,,,,115,21,Female,2022-05-05_09h47.47.670,Parachute,2022.1.1,60.070161944931655,
negative,blue,1,None,k,,,,,1,5,25,5,,,,,,,,,,,,,,,,,,,,,,,,,,,,,,,,,,,,,,,,,prac,k,k,1,0.8330197999894153,161.49103919998743,None,None,0,,,,,,,,,,,,,,115,21,Female,2022-05-05_09h47.47.670,Parachute,2022.1.1,60.070161944931655,
negative,yellow,2,k,None,,,,,1,6,26,6,,,,,,,,,,,,,,,,,,,,,,,,,,,,,,,,,,,,,,,,,prac,None,None,1,1.4949417000170797,163.32525739999255,None,None,1,,,,,,,,,,,,,,115,21,Female,2022-05-05_09h47.47.670,Parachute,2022.1.1,60.070161944931655,
negative,red,1,None,None,,,,,1,7,27,7,,,,,,,,,,,,,,,,,,,,,,,,,,,,,,,,,,,,,,,,,prac,None,None,1,1.4978815999929793,165.8213257000025,None,None,1,,,,,,,,,,,,,,115,21,Female,2022-05-05_09h47.47.670,Parachute,2022.1.1,60.070161944931655,
positive,yellow,2,None,k,,,,,1,8,28,8,,,,,,,,,,,,,,,,,,,,,,,,,,,,,,,,,,,,,,,,,prac,k,k,1,0.819728300004499,168.3200346000085,None,None,0,,,,,,,,,,,,,,115,21,Female,2022-05-05_09h47.47.670,Parachute,2022.1.1,60.070161944931655,
negative,yellow,1,k,None,,,,,1,9,29,9,,,,,,,,,,,,,,,,,,,,,,,,,,,,,,,,,,,,,,,,,prac,None,None,1,1.4943767999939155,170.14182379998965,None,None,1,,,,,,,,,,,,,,115,21,Female,2022-05-05_09h47.47.670,Parachute,2022.1.1,60.070161944931655,
positive,yellow,2,None,k,,,,,1,10,30,10,,,,,,,,,,,,,,,,,,,,,,,,,,,,,,,,,,,,,,,,,prac,k,k,1,0.8027928999799769,172.6370093000005,None,None,0,,,,,,,,,,,,,,115,21,Female,2022-05-05_09h47.47.670,Parachute,2022.1.1,60.070161944931655,
negative,yellow,2,k,None,,,,,1,11,31,11,,,,,,,,,,,,,,,,,,,,,,,,,,,,,,,,,,,,,,,,,prac,None,None,1,1.4945077000011224,174.44178069999907,None,None,1,,,,,,,,,,,,,,115,21,Female,2022-05-05_09h47.47.670,Parachute,2022.1.1,60.070161944931655,
negative,red,2,None,None,,,,,1,12,32,12,,,,,,,,,,,,,,,,,,,,,,,,,,,,,,,,,,,,,,,,,prac,None,None,1,1.4987295000173617,176.9381529999955,None,None,1,,,,,,,,,,,,,,115,21,Female,2022-05-05_09h47.47.670,Parachute,2022.1.1,60.070161944931655,
positive,red,1,None,None,,,,,1,13,33,13,,,,,,,,,,,,,,,,,,,,,,,,,,,,,,,,,,,,,,,,,prac,None,None,1,1.4984359000227414,179.43849309999496,None,None,1,,,,,,,,,,,,,,115,21,Female,2022-05-05_09h47.47.670,Parachute,2022.1.1,60.070161944931655,
positive,blue,2,k,None,,,,,1,14,34,14,,,,,,,,,,,,,,,,,,,,,,,,,,,,,,,,,,,,,,,,,prac,None,None,1,1.498849199997494,181.93794659999548,None,None,1,,,,,,,,,,,,,,115,21,Female,2022-05-05_09h47.47.670,Parachute,2022.1.1,60.070161944931655,
positive,blue,1,k,None,,,,,1,15,35,15,,,,,,,,,,,,,,,,,,,,,,,,,,,,,,,,,,,,,,,,,prac,None,None,1,1.4989723000035156,184.43879159999778,None,None,1,,,,,,,,,,,,,,115,21,Female,2022-05-05_09h47.47.670,Parachute,2022.1.1,60.070161944931655,
negative,blue,1,None,k,,,,,1,16,36,16,,,,,,,,,,,,,,,,,,,,,,,,,,,,,,,,,,,,,,,,,prac,k,k,1,0.7200505000073463,186.93899900000542,None,None,0,,,,,,,,,,,,,,115,21,Female,2022-05-05_09h47.47.670,Parachute,2022.1.1,60.070161944931655,
positive,blue,2,k,None,,,,,1,17,37,17,,,,,,,,,,,,,,,,,,,,,,,,,,,,,,,,,,,,,,,,,prac,None,None,1,1.4940061999950558,188.65897119999863,None,None,1,,,,,,,,,,,,,,115,21,Female,2022-05-05_09h47.47.670,Parachute,2022.1.1,60.070161944931655,
positive,blue,1,k,None,,,,,1,18,38,18,,,,,,,,,,,,,,,,,,,,,,,,,,,,,,,,,,,,,,,,,prac,None,None,1,1.4986725999915507,191.1547639000055,None,None,1,,,,,,,,,,,,,,115,21,Female,2022-05-05_09h47.47.670,Parachute,2022.1.1,60.070161944931655,
positive,yellow,1,None,k,,,,,1,19,39,19,,,,,,,,,,,,,,,,,,,,,,,,,,,,,,,,,,,,,,,,,prac,k,k,1,1.1358189000166021,193.65451429999666,None,None,0,,,,,,,,,,,,,,115,21,Female,2022-05-05_09h47.47.670,Parachute,2022.1.1,60.070161944931655,
,,,,,,,,,,,,,,,,,,,,,,,,,,,,,,,,,,,,,,,,,,,,,,,,,,,,,,,,,,,,,,195.8125286999857,None,195.8125286999857,None,0.049074072,-0.0712963,0,0,0,0.011072350025642663,None,,,115,21,Female,2022-05-05_09h47.47.670,Parachute,2022.1.1,60.070161944931655,
negative,yellow,2,k,None,,,,,,,,,0,0,0,0,,,,,,,,,,,,,,,,,,,,,,,,,,,,,,,,,213.62090839998564,None,213.62090839998564,None,main,None,None,1,1.504116800002521,215.66532060000463,None,None,1,,,,,,,,,,,,,,115,21,Female,2022-05-05_09h47.47.670,Parachute,2022.1.1,60.070161944931655,
positive,red,1,None,None,,,,,,,,,0,1,1,1,,,,,,,,,,,,,,,,,,,,,,,,,,,,,,,,,,,,,main,None,None,1,1.4985562000074424,218.1724108000053,None,None,1,,,,,,,,,,,,,,115,21,Female,2022-05-05_09h47.47.670,Parachute,2022.1.1,60.070161944931655,
positive,blue,2,k,None,,,,,,,,,0,2,2,2,,,,,,,,,,,,,,,,,,,,,,,,,,,,,,,,,,,,,main,None,None,1,1.498188500001561,220.67277609999292,None,None,1,,,,,,,,,,,,,,115,21,Female,2022-05-05_09h47.47.670,Parachute,2022.1.1,60.070161944931655,
positive,blue,1,k,None,,,,,,,,,0,3,3,3,,,,,,,,,,,,,,,,,,,,,,,,,,,,,,,,,,,,,main,None,None,1,1.4989932000171393,223.1711626999895,None,None,1,,,,,,,,,,,,,,115,21,Female,2022-05-05_09h47.47.670,Parachute,2022.1.1,60.070161944931655,
negative,yellow,2,k,None,,,,,,,,,0,4,4,4,,,,,,,,,,,,,,,,,,,,,,,,,,,,,,,,,,,,,main,None,None,1,1.4982039000024088,225.67153689998668,None,None,1,,,,,,,,,,,,,,115,21,Female,2022-05-05_09h47.47.670,Parachute,2022.1.1,60.070161944931655,
positive,yellow,2,None,k,,,,,,,,,0,5,5,5,,,,,,,,,,,,,,,,,,,,,,,,,,,,,,,,,,,,,main,k,k,1,0.7694406000082381,228.17135349998716,None,None,0,,,,,,,,,,,,,,115,21,Female,2022-05-05_09h47.47.670,Parachute,2022.1.1,60.070161944931655,
negative,blue,2,None,k,,,,,,,,,0,6,6,6,,,,,,,,,,,,,,,,,,,,,,,,,,,,,,,,,,,,,main,k,k,1,0.7481272000004537,229.94278779998422,None,None,0,,,,,,,,,,,,,,115,21,Female,2022-05-05_09h47.47.670,Parachute,2022.1.1,60.070161944931655,
positive,red,2,None,None,,,,,,,,,0,7,7,7,,,,,,,,,,,,,,,,,,,,,,,,,,,,,,,,,,,,,main,None,None,1,1.4954127999953926,231.6923659000022,None,None,1,,,,,,,,,,,,,,115,21,Female,2022-05-05_09h47.47.670,Parachute,2022.1.1,60.070161944931655,
positive,yellow,1,None,k,,,,,,,,,0,8,8,8,,,,,,,,,,,,,,,,,,,,,,,,,,,,,,,,,,,,,main,k,k,1,0.8521992000169121,234.18847110000206,None,None,0,,,,,,,,,,,,,,115,21,Female,2022-05-05_09h47.47.670,Parachute,2022.1.1,60.070161944931655,
negative,red,1,None,None,,,,,,,,,0,9,9,9,,,,,,,,,,,,,,,,,,,,,,,,,,,,,,,,,,,,,main,None,None,1,1.4953898999956436,236.0426673000038,None,None,1,,,,,,,,,,,,,,115,21,Female,2022-05-05_09h47.47.670,Parachute,2022.1.1,60.070161944931655,
positive,yellow,1,None,k,,,,,,,,,0,10,10,10,,,,,,,,,,,,,,,,,,,,,,,,,,,,,,,,,,,,,main,k,k,1,0.7968698999902699,238.53929829999106,None,None,0,,,,,,,,,,,,,,115,21,Female,2022-05-05_09h47.47.670,Parachute,2022.1.1,60.070161944931655,
negative,yellow,1,k,None,,,,,,,,,0,11,11,11,,,,,,,,,,,,,,,,,,,,,,,,,,,,,,,,,,,,,main,None,None,1,1.4994857000128832,240.33863559999736,None,None,1,,,,,,,,,,,,,,115,21,Female,2022-05-05_09h47.47.670,Parachute,2022.1.1,60.070161944931655,
negative,yellow,1,k,None,,,,,,,,,0,12,12,12,,,,,,,,,,,,,,,,,,,,,,,,,,,,,,,,,,,,,main,None,None,1,1.4969270000001416,242.841860799992,None,None,1,,,,,,,,,,,,,,115,21,Female,2022-05-05_09h47.47.670,Parachute,2022.1.1,60.070161944931655,
negative,red,2,None,None,,,,,,,,,0,13,13,13,,,,,,,,,,,,,,,,,,,,,,,,,,,,,,,,,,,,,main,None,None,1,1.4980303999909665,245.34056889999192,None,None,1,,,,,,,,,,,,,,115,21,Female,2022-05-05_09h47.47.670,Parachute,2022.1.1,60.070161944931655,
positive,yellow,2,None,k,,,,,,,,,0,14,14,14,,,,,,,,,,,,,,,,,,,,,,,,,,,,,,,,,,,,,main,k,k,1,0.7846646000107285,247.8420604999992,None,None,0,,,,,,,,,,,,,,115,21,Female,2022-05-05_09h47.47.670,Parachute,2022.1.1,60.070161944931655,
positive,blue,1,k,None,,,,,,,,,0,15,15,15,,,,,,,,,,,,,,,,,,,,,,,,,,,,,,,,,,,,,main,None,None,1,1.493799299991224,249.62716539998655,None,None,1,,,,,,,,,,,,,,115,21,Female,2022-05-05_09h47.47.670,Parachute,2022.1.1,60.070161944931655,
negative,blue,1,None,k,,,,,,,,,0,16,16,16,,,,,,,,,,,,,,,,,,,,,,,,,,,,,,,,,,,,,main,k,k,1,0.6876072000013664,252.1220614000049,None,None,0,,,,,,,,,,,,,,115,21,Female,2022-05-05_09h47.47.670,Parachute,2022.1.1,60.070161944931655,
positive,blue,2,k,None,,,,,,,,,0,17,17,17,,,,,,,,,,,,,,,,,,,,,,,,,,,,,,,,,,,,,main,None,None,1,1.4924358999996912,253.81041040000855,None,None,1,,,,,,,,,,,,,,115,21,Female,2022-05-05_09h47.47.670,Parachute,2022.1.1,60.070161944931655,
negative,blue,2,None,k,,,,,,,,,0,18,18,18,,,,,,,,,,,,,,,,,,,,,,,,,,,,,,,,,,,,,main,k,k,1,0.8832389999879524,256.30520790000446,None,None,0,,,,,,,,,,,,,,115,21,Female,2022-05-05_09h47.47.670,Parachute,2022.1.1,60.070161944931655,
negative,blue,1,None,k,,,,,,,,,0,19,19,19,,,,,,,,,,,,,,,,,,,,,,,,,,,,,,,,,,,,,main,k,k,1,0.8034429999825079,258.18987400000333,None,None,0,,,,,,,,,,,,,,115,21,Female,2022-05-05_09h47.47.670,Parachute,2022.1.1,60.070161944931655,
negative,blue,1,None,k,,,,,,,,,0,20,20,20,,,,,,,,,,,,,,,,,,,,,,,,,,,,,,,,,,,,,main,k,k,1,0.7152624000154901,259.99352289998205,None,None,0,,,,,,,,,,,,,,115,21,Female,2022-05-05_09h47.47.670,Parachute,2022.1.1,60.070161944931655,
negative,blue,2,None,k,,,,,,,,,0,21,21,21,,,,,,,,,,,,,,,,,,,,,,,,,,,,,,,,,,,,,main,k,k,1,0.6990846000262536,261.710405299993,None,None,0,,,,,,,,,,,,,,115,21,Female,2022-05-05_09h47.47.670,Parachute,2022.1.1,60.070161944931655,
negative,red,1,None,None,,,,,,,,,0,22,22,22,,,,,,,,,,,,,,,,,,,,,,,,,,,,,,,,,,,,,main,None,None,1,1.5096043000230566,263.4122628000041,None,None,1,,,,,,,,,,,,,,115,21,Female,2022-05-05_09h47.47.670,Parachute,2022.1.1,60.070161944931655,
positive,red,2,None,None,,,,,,,,,0,23,23,23,,,,,,,,,,,,,,,,,,,,,,,,,,,,,,,,,,,,,main,None,None,1,1.4977734000131022,265.92479719998664,None,None,1,,,,,,,,,,,,,,115,21,Female,2022-05-05_09h47.47.670,Parachute,2022.1.1,60.070161944931655,
negative,red,2,None,None,,,,,,,,,0,24,24,24,,,,,,,,,,,,,,,,,,,,,,,,,,,,,,,,,,,,,main,None,None,1,1.4995746000204235,268.42354990000604,None,None,1,,,,,,,,,,,,,,115,21,Female,2022-05-05_09h47.47.670,Parachute,2022.1.1,60.070161944931655,
positive,blue,2,k,None,,,,,,,,,0,25,25,25,,,,,,,,,,,,,,,,,,,,,,,,,,,,,,,,,,,,,main,None,None,1,1.497666199982632,270.9256205999991,None,None,1,,,,,,,,,,,,,,115,21,Female,2022-05-05_09h47.47.670,Parachute,2022.1.1,60.070161944931655,
negative,yellow,1,k,None,,,,,,,,,0,26,26,26,,,,,,,,,,,,,,,,,,,,,,,,,,,,,,,,,,,,,main,None,None,1,1.4983771999832243,273.4246715999907,None,None,1,,,,,,,,,,,,,,115,21,Female,2022-05-05_09h47.47.670,Parachute,2022.1.1,60.070161944931655,
positive,blue,2,k,None,,,,,,,,,0,27,27,27,,,,,,,,,,,,,,,,,,,,,,,,,,,,,,,,,,,,,main,None,None,1,1.4987416999938432,275.9243931999954,None,None,1,,,,,,,,,,,,,,115,21,Female,2022-05-05_09h47.47.670,Parachute,2022.1.1,60.070161944931655,
negative,blue,2,None,k,,,,,,,,,0,28,28,28,,,,,,,,,,,,,,,,,,,,,,,,,,,,,,,,,,,,,main,k,k,1,0.6521472999884281,278.42489449999994,None,None,0,,,,,,,,,,,,,,115,21,Female,2022-05-05_09h47.47.670,Parachute,2022.1.1,60.070161944931655,
positive,red,1,None,None,,,,,,,,,0,29,29,29,,,,,,,,,,,,,,,,,,,,,,,,,,,,,,,,,,,,,main,None,None,1,1.4939359000127297,280.0777361000073,None,None,1,,,,,,,,,,,,,,115,21,Female,2022-05-05_09h47.47.670,Parachute,2022.1.1,60.070161944931655,
positive,blue,1,k,None,,,,,,,,,0,30,30,30,,,,,,,,,,,,,,,,,,,,,,,,,,,,,,,,,,,,,main,None,None,1,1.4979915000149049,282.57405999998446,None,None,1,,,,,,,,,,,,,,115,21,Female,2022-05-05_09h47.47.670,Parachute,2022.1.1,60.070161944931655,
positive,yellow,1,None,k,,,,,,,,,0,31,31,31,,,,,,,,,,,,,,,,,,,,,,,,,,,,,,,,,,,,,main,k,k,1,0.8678724000055809,285.07288349999,None,None,0,,,,,,,,,,,,,,115,21,Female,2022-05-05_09h47.47.670,Parachute,2022.1.1,60.070161944931655,
negative,yellow,2,k,None,,,,,,,,,0,32,32,32,,,,,,,,,,,,,,,,,,,,,,,,,,,,,,,,,,,,,main,None,None,1,1.4964151000021957,286.94296109999414,None,None,1,,,,,,,,,,,,,,115,21,Female,2022-05-05_09h47.47.670,Parachute,2022.1.1,60.070161944931655,
negative,blue,1,None,k,,,,,,,,,0,33,33,33,,,,,,,,,,,,,,,,,,,,,,,,,,,,,,,,,,,,,main,k,k,1,0.8198913999949582,289.439953699999,None,None,0,,,,,,,,,,,,,,115,21,Female,2022-05-05_09h47.47.670,Parachute,2022.1.1,60.070161944931655,
positive,blue,1,k,None,,,,,,,,,0,34,34,34,,,,,,,,,,,,,,,,,,,,,,,,,,,,,,,,,,,,,main,None,None,1,1.4939079000032507,291.2610196000023,None,None,1,,,,,,,,,,,,,,115,21,Female,2022-05-05_09h47.47.670,Parachute,2022.1.1,60.070161944931655,
negative,yellow,1,k,None,,,,,,,,,0,35,35,35,,,,,,,,,,,,,,,,,,,,,,,,,,,,,,,,,,,,,main,None,None,1,1.4986827000102494,293.75676819999353,None,None,1,,,,,,,,,,,,,,115,21,Female,2022-05-05_09h47.47.670,Parachute,2022.1.1,60.070161944931655,
positive,yellow,2,None,k,,,,,,,,,0,36,36,36,,,,,,,,,,,,,,,,,,,,,,,,,,,,,,,,,,,,,main,k,k,1,0.7204510000010487,296.2563833000022,None,None,0,,,,,,,,,,,,,,115,21,Female,2022-05-05_09h47.47.670,Parachute,2022.1.1,60.070161944931655,
positive,yellow,2,None,k,,,,,,,,,0,37,37,37,,,,,,,,,,,,,,,,,,,,,,,,,,,,,,,,,,,,,main,k,k,1,0.5584419000078924,297.97805810000864,None,None,0,,,,,,,,,,,,,,115,21,Female,2022-05-05_09h47.47.670,Parachute,2022.1.1,60.070161944931655,
negative,yellow,2,k,None,,,,,,,,,0,38,38,38,,,,,,,,,,,,,,,,,,,,,,,,,,,,,,,,,,,,,main,None,None,1,1.4999409999873023,299.5395140000037,None,None,1,,,,,,,,,,,,,,115,21,Female,2022-05-05_09h47.47.670,Parachute,2022.1.1,60.070161944931655,
positive,yellow,1,None,k,,,,,,,,,0,39,39,39,,,,,,,,,,,,,,,,,,,,,,,,,,,,,,,,,,,,,main,k,k,1,0.73700579997967,302.0400316999876,None,None,0,,,,,,,,,,,,,,115,21,Female,2022-05-05_09h47.47.670,Parachute,2022.1.1,60.070161944931655,
negative,yellow,2,k,None,,,,,,,,,0,40,40,40,,,,,,,,,,,,,,,,,,,,,,,,,,,,,,,,,,,,,main,None,None,1,1.4941148999787401,303.77812699999777,None,None,1,,,,,,,,,,,,,,115,21,Female,2022-05-05_09h47.47.670,Parachute,2022.1.1,60.070161944931655,
positive,blue,2,k,None,,,,,,,,,0,41,41,41,,,,,,,,,,,,,,,,,,,,,,,,,,,,,,,,,,,,,main,None,None,1,1.4977138999965973,306.27432579998276,None,None,1,,,,,,,,,,,,,,115,21,Female,2022-05-05_09h47.47.670,Parachute,2022.1.1,60.070161944931655,
positive,blue,2,k,None,,,,,,,,,0,42,42,42,,,,,,,,,,,,,,,,,,,,,,,,,,,,,,,,,,,,,main,None,None,1,1.4993385000270791,308.77376899999217,None,None,1,,,,,,,,,,,,,,115,21,Female,2022-05-05_09h47.47.670,Parachute,2022.1.1,60.070161944931655,
negative,blue,2,None,k,,,,,,,,,0,43,43,43,,,,,,,,,,,,,,,,,,,,,,,,,,,,,,,,,,,,,main,k,k,1,0.7697335999982897,311.2747937999957,None,None,0,,,,,,,,,,,,,,115,21,Female,2022-05-05_09h47.47.670,Parachute,2022.1.1,60.070161944931655,
negative,red,1,None,None,,,,,,,,,0,44,44,44,,,,,,,,,,,,,,,,,,,,,,,,,,,,,,,,,,,,,main,None,None,1,1.4934175999951549,313.0446331999847,None,None,1,,,,,,,,,,,,,,115,21,Female,2022-05-05_09h47.47.670,Parachute,2022.1.1,60.070161944931655,
negative,yellow,1,k,None,,,,,,,,,0,45,45,45,,,,,,,,,,,,,,,,,,,,,,,,,,,,,,,,,,,,,main,None,None,1,1.4989238000125624,315.5401806999871,None,None,1,,,,,,,,,,,,,,115,21,Female,2022-05-05_09h47.47.670,Parachute,2022.1.1,60.070161944931655,
negative,yellow,1,k,None,,,,,,,,,0,46,46,46,,,,,,,,,,,,,,,,,,,,,,,,,,,,,,,,,,,,,main,None,None,1,1.498260799999116,318.0403468000004,None,None,1,,,,,,,,,,,,,,115,21,Female,2022-05-05_09h47.47.670,Parachute,2022.1.1,60.070161944931655,
positive,red,1,None,None,,,,,,,,,0,47,47,47,,,,,,,,,,,,,,,,,,,,,,,,,,,,,,,,,,,,,main,None,None,1,1.499063000024762,320.5403382999939,None,None,1,,,,,,,,,,,,,,115,21,Female,2022-05-05_09h47.47.670,Parachute,2022.1.1,60.070161944931655,
positive,yellow,1,None,k,,,,,,,,,0,48,48,48,,,,,,,,,,,,,,,,,,,,,,,,,,,,,,,,,,,,,main,k,k,1,0.9160703999805264,323.04064839999774,None,None,0,,,,,,,,,,,,,,115,21,Female,2022-05-05_09h47.47.670,Parachute,2022.1.1,60.070161944931655,
negative,blue,1,None,k,,,,,,,,,0,49,49,49,,,,,,,,,,,,,,,,,,,,,,,,,,,,,,,,,,,,,main,k,k,1,0.7655395999900065,324.95797879999736,None,None,0,,,,,,,,,,,,,,115,21,Female,2022-05-05_09h47.47.670,Parachute,2022.1.1,60.070161944931655,
positive,yellow,2,None,k,,,,,,,,,0,50,50,50,,,,,,,,,,,,,,,,,,,,,,,,,,,,,,,,,,,,,main,k,k,1,0.7358037999947555,326.7251563000027,None,None,0,,,,,,,,,,,,,,115,21,Female,2022-05-05_09h47.47.670,Parachute,2022.1.1,60.070161944931655,
negative,blue,1,None,k,,,,,,,,,0,51,51,51,,,,,,,,,,,,,,,,,,,,,,,,,,,,,,,,,,,,,main,k,k,1,0.7616301999951247,328.46185839999816,None,None,0,,,,,,,,,,,,,,115,21,Female,2022-05-05_09h47.47.670,Parachute,2022.1.1,60.070161944931655,
positive,red,2,None,None,,,,,,,,,0,52,52,52,,,,,,,,,,,,,,,,,,,,,,,,,,,,,,,,,,,,,main,None,None,1,1.496898899989901,330.22589589998825,None,None,1,,,,,,,,,,,,,,115,21,Female,2022-05-05_09h47.47.670,Parachute,2022.1.1,60.070161944931655,
positive,yellow,2,None,k,,,,,,,,,0,53,53,53,,,,,,,,,,,,,,,,,,,,,,,,,,,,,,,,,,,,,main,k,k,1,0.7371629999834113,332.72378060000483,None,None,0,,,,,,,,,,,,,,115,21,Female,2022-05-05_09h47.47.670,Parachute,2022.1.1,60.070161944931655,
negative,red,2,None,None,,,,,,,,,0,54,54,54,,,,,,,,,,,,,,,,,,,,,,,,,,,,,,,,,,,,,main,None,None,1,1.4935033999790903,334.46248739998555,None,None,1,,,,,,,,,,,,,,115,21,Female,2022-05-05_09h47.47.670,Parachute,2022.1.1,60.070161944931655,
positive,yellow,1,None,k,,,,,,,,,0,55,55,55,,,,,,,,,,,,,,,,,,,,,,,,,,,,,,,,,,,,,main,k,k,1,0.7691237999824807,336.9571164000081,None,None,0,,,,,,,,,,,,,,115,21,Female,2022-05-05_09h47.47.670,Parachute,2022.1.1,60.070161944931655,
negative,blue,2,None,k,,,,,,,,,0,56,56,56,,,,,,,,,,,,,,,,,,,,,,,,,,,,,,,,,,,,,main,k,k,1,0.7996487000200432,338.7284554000071,None,None,0,,,,,,,,,,,,,,115,21,Female,2022-05-05_09h47.47.670,Parachute,2022.1.1,60.070161944931655,
positive,blue,1,k,None,,,,,,,,,0,57,57,57,,,,,,,,,,,,,,,,,,,,,,,,,,,,,,,,,,,,,main,None,None,1,1.4940038000058848,340.5291400999995,None,None,1,,,,,,,,,,,,,,115,21,Female,2022-05-05_09h47.47.670,Parachute,2022.1.1,60.070161944931655,
positive,blue,1,k,None,,,,,,,,,0,58,58,58,,,,,,,,,,,,,,,,,,,,,,,,,,,,,,,,,,,,,main,None,None,1,1.4983007999835536,343.0245969000098,None,None,1,,,,,,,,,,,,,,115,21,Female,2022-05-05_09h47.47.670,Parachute,2022.1.1,60.070161944931655,
negative,yellow,2,k,None,,,,,,,,,0,59,59,59,,,,,,,,,,,,,,,,,,,,,,,,,,,,,,,,,,,,,main,None,None,1,1.498894799995469,345.52432450000197,None,None,1,,,,,,,,,,,,,,115,21,Female,2022-05-05_09h47.47.670,Parachute,2022.1.1,60.070161944931655,
positive,red,2,None,None,,,,,,,,,0,60,60,60,,,,,,,,,,,,,,,,,,,,,,,,,,,,,,,,,,,,,main,None,None,1,1.49848340000608,348.02450199998566,None,None,1,,,,,,,,,,,,,,115,21,Female,2022-05-05_09h47.47.670,Parachute,2022.1.1,60.070161944931655,
negative,yellow,1,k,None,,,,,,,,,0,61,61,61,,,,,,,,,,,,,,,,,,,,,,,,,,,,,,,,,,,,,main,None,None,1,1.4987326000118628,350.52451749998727,None,None,1,,,,,,,,,,,,,,115,21,Female,2022-05-05_09h47.47.670,Parachute,2022.1.1,60.070161944931655,
negative,red,1,None,None,,,,,,,,,0,62,62,62,,,,,,,,,,,,,,,,,,,,,,,,,,,,,,,,,,,,,main,None,None,1,1.4985759999835864,353.0243787000072,None,None,1,,,,,,,,,,,,,,115,21,Female,2022-05-05_09h47.47.670,Parachute,2022.1.1,60.070161944931655,
negative,blue,1,None,k,,,,,,,,,0,63,63,63,,,,,,,,,,,,,,,,,,,,,,,,,,,,,,,,,,,,,main,k,k,1,0.7205677000165451,355.5243615999934,None,None,0,,,,,,,,,,,,,,115,21,Female,2022-05-05_09h47.47.670,Parachute,2022.1.1,60.070161944931655,
positive,blue,2,k,None,,,,,,,,,0,64,64,64,,,,,,,,,,,,,,,,,,,,,,,,,,,,,,,,,,,,,main,None,None,1,1.4938918999978341,357.2457166000095,None,None,1,,,,,,,,,,,,,,115,21,Female,2022-05-05_09h47.47.670,Parachute,2022.1.1,60.070161944931655,
negative,yellow,2,k,None,,,,,,,,,0,65,65,65,,,,,,,,,,,,,,,,,,,,,,,,,,,,,,,,,,,,,main,None,None,1,1.4981258000188973,359.741691800009,None,None,1,,,,,,,,,,,,,,115,21,Female,2022-05-05_09h47.47.670,Parachute,2022.1.1,60.070161944931655,
positive,yellow,2,None,k,,,,,,,,,0,66,66,66,,,,,,,,,,,,,,,,,,,,,,,,,,,,,,,,,,,,,main,k,k,1,0.7509253000025637,362.24109299998963,None,None,0,,,,,,,,,,,,,,115,21,Female,2022-05-05_09h47.47.670,Parachute,2022.1.1,60.070161944931655,
positive,yellow,2,None,k,,,,,,,,,0,67,67,67,,,,,,,,,,,,,,,,,,,,,,,,,,,,,,,,,,,,,main,k,k,1,0.7010008000070229,363.9948104000068,None,None,0,,,,,,,,,,,,,,115,21,Female,2022-05-05_09h47.47.670,Parachute,2022.1.1,60.070161944931655,
positive,red,1,None,None,,,,,,,,,0,68,68,68,,,,,,,,,,,,,,,,,,,,,,,,,,,,,,,,,,,,,main,None,None,1,1.4940664999885485,365.69655629998306,None,None,1,,,,,,,,,,,,,,115,21,Female,2022-05-05_09h47.47.670,Parachute,2022.1.1,60.070161944931655,
positive,yellow,1,None,k,,,,,,,,,0,69,69,69,,,,,,,,,,,,,,,,,,,,,,,,,,,,,,,,,,,,,main,k,k,1,0.867339999997057,368.19259649998276,None,None,0,,,,,,,,,,,,,,115,21,Female,2022-05-05_09h47.47.670,Parachute,2022.1.1,60.070161944931655,
negative,yellow,2,k,None,,,,,,,,,0,70,70,70,,,,,,,,,,,,,,,,,,,,,,,,,,,,,,,,,,,,,main,None,None,1,1.4963445000175852,370.0623118999938,None,None,1,,,,,,,,,,,,,,115,21,Female,2022-05-05_09h47.47.670,Parachute,2022.1.1,60.070161944931655,
positive,yellow,1,None,k,,,,,,,,,0,71,71,71,,,,,,,,,,,,,,,,,,,,,,,,,,,,,,,,,,,,,main,k,k,1,0.8507428000157233,372.55815299999085,None,None,0,,,,,,,,,,,,,,115,21,Female,2022-05-05_09h47.47.670,Parachute,2022.1.1,60.070161944931655,
negative,blue,1,None,k,,,,,,,,,0,72,72,72,,,,,,,,,,,,,,,,,,,,,,,,,,,,,,,,,,,,,main,k,k,1,0.7838683000009041,374.41180470000836,None,None,0,,,,,,,,,,,,,,115,21,Female,2022-05-05_09h47.47.670,Parachute,2022.1.1,60.070161944931655,
negative,red,2,None,None,,,,,,,,,0,73,73,73,,,,,,,,,,,,,,,,,,,,,,,,,,,,,,,,,,,,,main,None,None,1,1.4944403999834321,376.19589870001073,None,None,1,,,,,,,,,,,,,,115,21,Female,2022-05-05_09h47.47.670,Parachute,2022.1.1,60.070161944931655,
positive,blue,2,k,None,,,,,,,,,0,74,74,74,,,,,,,,,,,,,,,,,,,,,,,,,,,,,,,,,,,,,main,None,None,1,1.4985511999984737,378.6916169000033,None,None,1,,,,,,,,,,,,,,115,21,Female,2022-05-05_09h47.47.670,Parachute,2022.1.1,60.070161944931655,
negative,blue,2,None,k,,,,,,,,,0,75,75,75,,,,,,,,,,,,,,,,,,,,,,,,,,,,,,,,,,,,,main,k,k,1,1.084220999997342,381.191444600001,None,None,0,,,,,,,,,,,,,,115,21,Female,2022-05-05_09h47.47.670,Parachute,2022.1.1,60.070161944931655,
negative,blue,2,None,k,,,,,,,,,0,76,76,76,,,,,,,,,,,,,,,,,,,,,,,,,,,,,,,,,,,,,main,k,k,1,0.7670248000067659,383.2774917999923,None,None,0,,,,,,,,,,,,,,115,21,Female,2022-05-05_09h47.47.670,Parachute,2022.1.1,60.070161944931655,
negative,yellow,1,k,None,,,,,,,,,0,77,77,77,,,,,,,,,,,,,,,,,,,,,,,,,,,,,,,,,,,,,main,None,None,1,1.4946553999907337,385.0475634000031,None,None,1,,,,,,,,,,,,,,115,21,Female,2022-05-05_09h47.47.670,Parachute,2022.1.1,60.070161944931655,
positive,blue,1,k,None,,,,,,,,,0,78,78,78,,,,,,,,,,,,,,,,,,,,,,,,,,,,,,,,,,,,,main,None,None,1,1.498870800016448,387.54141079998226,None,None,1,,,,,,,,,,,,,,115,21,Female,2022-05-05_09h47.47.670,Parachute,2022.1.1,60.070161944931655,
positive,blue,1,k,None,,,,,,,,,0,79,79,79,,,,,,,,,,,,,,,,,,,,,,,,,,,,,,,,,,,,,main,None,None,1,1.4985686000145506,390.04196889998275,None,None,1,,,,,,,,,,,,,,115,21,Female,2022-05-05_09h47.47.670,Parachute,2022.1.1,60.070161944931655,
positive,red,2,None,None,,,,,,,,,0,80,80,80,,,,,,,,,,,,,,,,,,,,,,,,,,,,,,,,,,,,,main,None,None,1,1.49851890001446,392.5423800999997,None,None,1,,,,,,,,,,,,,,115,21,Female,2022-05-05_09h47.47.670,Parachute,2022.1.1,60.070161944931655,
positive,yellow,2,None,k,,,,,,,,,0,81,81,81,,,,,,,,,,,,,,,,,,,,,,,,,,,,,,,,,,,,,main,k,k,1,0.852541400003247,395.04181029999745,None,None,0,,,,,,,,,,,,,,115,21,Female,2022-05-05_09h47.47.670,Parachute,2022.1.1,60.070161944931655,
positive,blue,1,k,None,,,,,,,,,0,82,82,82,,,,,,,,,,,,,,,,,,,,,,,,,,,,,,,,,,,,,main,None,None,1,1.4948120999906678,396.89641029998893,None,None,1,,,,,,,,,,,,,,115,21,Female,2022-05-05_09h47.47.670,Parachute,2022.1.1,60.070161944931655,
negative,yellow,2,k,None,,,,,,,,,0,83,83,83,,,,,,,,,,,,,,,,,,,,,,,,,,,,,,,,,,,,,main,None,None,1,1.4991977000026964,399.3924725999823,None,None,1,,,,,,,,,,,,,,115,21,Female,2022-05-05_09h47.47.670,Parachute,2022.1.1,60.070161944931655,
positive,blue,2,k,None,,,,,,,,,0,84,84,84,,,,,,,,,,,,,,,,,,,,,,,,,,,,,,,,,,,,,main,None,None,1,1.498669599997811,401.8926089000015,None,None,1,,,,,,,,,,,,,,115,21,Female,2022-05-05_09h47.47.670,Parachute,2022.1.1,60.070161944931655,
positive,yellow,1,None,k,,,,,,,,,0,85,85,85,,,,,,,,,,,,,,,,,,,,,,,,,,,,,,,,,,,,,main,k,k,1,0.8867375000263564,404.39270940001006,None,None,0,,,,,,,,,,,,,,115,21,Female,2022-05-05_09h47.47.670,Parachute,2022.1.1,60.070161944931655,
positive,blue,2,k,None,,,,,,,,,0,86,86,86,,,,,,,,,,,,,,,,,,,,,,,,,,,,,,,,,,,,,main,None,None,1,1.4934803000069223,406.2802318999893,None,None,1,,,,,,,,,,,,,,115,21,Female,2022-05-05_09h47.47.670,Parachute,2022.1.1,60.070161944931655,
positive,blue,1,k,None,,,,,,,,,0,87,87,87,,,,,,,,,,,,,,,,,,,,,,,,,,,,,,,,,,,,,main,None,None,1,1.4989097000216134,408.7756667000067,None,None,1,,,,,,,,,,,,,,115,21,Female,2022-05-05_09h47.47.670,Parachute,2022.1.1,60.070161944931655,
negative,yellow,2,k,None,,,,,,,,,0,88,88,88,,,,,,,,,,,,,,,,,,,,,,,,,,,,,,,,,,,,,main,None,None,1,1.4984173999982886,411.275956700003,None,None,1,,,,,,,,,,,,,,115,21,Female,2022-05-05_09h47.47.670,Parachute,2022.1.1,60.070161944931655,
negative,blue,2,None,k,,,,,,,,,0,89,89,89,,,,,,,,,,,,,,,,,,,,,,,,,,,,,,,,,,,,,main,k,k,1,0.8832495999813545,413.77591080000275,None,None,0,,,,,,,,,,,,,,115,21,Female,2022-05-05_09h47.47.670,Parachute,2022.1.1,60.070161944931655,
positive,yellow,2,None,k,,,,,,,,,0,90,90,90,,,,,,,,,,,,,,,,,,,,,,,,,,,,,,,,,,,,,main,k,k,1,0.8365114000043832,415.6610006999981,None,None,0,,,,,,,,,,,,,,115,21,Female,2022-05-05_09h47.47.670,Parachute,2022.1.1,60.070161944931655,
negative,yellow,1,k,None,,,,,,,,,0,91,91,91,,,,,,,,,,,,,,,,,,,,,,,,,,,,,,,,,,,,,main,None,None,1,1.5097189000225626,417.4973154999898,None,None,1,,,,,,,,,,,,,,115,21,Female,2022-05-05_09h47.47.670,Parachute,2022.1.1,60.070161944931655,
negative,red,2,None,None,,,,,,,,,0,92,92,92,,,,,,,,,,,,,,,,,,,,,,,,,,,,,,,,,,,,,main,None,None,1,1.498696499998914,420.00988430000143,None,None,1,,,,,,,,,,,,,,115,21,Female,2022-05-05_09h47.47.670,Parachute,2022.1.1,60.070161944931655,
negative,blue,2,None,k,,,,,,,,,0,93,93,93,,,,,,,,,,,,,,,,,,,,,,,,,,,,,,,,,,,,,main,k,k,1,0.7367381000076421,422.50989409998874,None,None,0,,,,,,,,,,,,,,115,21,Female,2022-05-05_09h47.47.670,Parachute,2022.1.1,60.070161944931655,
negative,blue,1,None,k,,,,,,,,,0,94,94,94,,,,,,,,,,,,,,,,,,,,,,,,,,,,,,,,,,,,,main,k,k,1,0.6648431000066921,424.2477196000109,None,None,0,,,,,,,,,,,,,,115,21,Female,2022-05-05_09h47.47.670,Parachute,2022.1.1,60.070161944931655,
negative,blue,1,None,k,,,,,,,,,0,95,95,95,,,,,,,,,,,,,,,,,,,,,,,,,,,,,,,,,,,,,main,k,k,1,0.6491401999955997,425.91395580000244,None,None,0,,,,,,,,,,,,,,115,21,Female,2022-05-05_09h47.47.670,Parachute,2022.1.1,60.070161944931655,
negative,red,1,None,None,,,,,,,,,0,96,96,96,,,,,,,,,,,,,,,,,,,,,,,,,,,,,,,,,,,,,main,None,None,1,1.4936979000049178,427.5640616999881,None,None,1,,,,,,,,,,,,,,115,21,Female,2022-05-05_09h47.47.670,Parachute,2022.1.1,60.070161944931655,
positive,yellow,1,None,k,,,,,,,,,0,97,97,97,,,,,,,,,,,,,,,,,,,,,,,,,,,,,,,,,,,,,main,k,k,1,0.9690752000024077,430.06079899999895,None,None,0,,,,,,,,,,,,,,115,21,Female,2022-05-05_09h47.47.670,Parachute,2022.1.1,60.070161944931655,
negative,yellow,1,k,None,,,,,,,,,0,98,98,98,,,,,,,,,,,,,,,,,,,,,,,,,,,,,,,,,,,,,main,None,None,1,1.4944711000134703,432.03102399999625,None,None,1,,,,,,,,,,,,,,115,21,Female,2022-05-05_09h47.47.670,Parachute,2022.1.1,60.070161944931655,
positive,red,1,None,None,,,,,,,,,0,99,99,99,,,,,,,,,,,,,,,,,,,,,,,,,,,,,,,,,,,,,main,None,None,1,1.4982255999930203,434.52658400000655,None,None,1,,,,,,,,,,,,,,115,21,Female,2022-05-05_09h47.47.670,Parachute,2022.1.1,60.070161944931655,
positive,blue,1,k,None,,,,,,,,,0,100,100,100,,,,,,,,,,,,,,,,,,,,,,,,,,,,,,,,,,,,,main,None,None,1,1.4994221999950241,437.0259310999827,None,None,1,,,,,,,,,,,,,,115,21,Female,2022-05-05_09h47.47.670,Parachute,2022.1.1,60.070161944931655,
negative,yellow,1,k,None,,,,,,,,,0,101,101,101,,,,,,,,,,,,,,,,,,,,,,,,,,,,,,,,,,,,,main,None,None,1,1.4982757000252604,439.52724249998573,None,None,1,,,,,,,,,,,,,,115,21,Female,2022-05-05_09h47.47.670,Parachute,2022.1.1,60.070161944931655,
negative,blue,2,None,k,,,,,,,,,0,102,102,102,,,,,,,,,,,,,,,,,,,,,,,,,,,,,,,,,,,,,main,k,k,1,0.9494402999989688,442.02641530000255,None,None,0,,,,,,,,,,,,,,115,21,Female,2022-05-05_09h47.47.670,Parachute,2022.1.1,60.070161944931655,
negative,yellow,2,k,None,,,,,,,,,0,103,103,103,,,,,,,,,,,,,,,,,,,,,,,,,,,,,,,,,,,,,main,None,None,1,1.4981483000156004,443.9772944999859,None,None,1,,,,,,,,,,,,,,115,21,Female,2022-05-05_09h47.47.670,Parachute,2022.1.1,60.070161944931655,
positive,yellow,2,None,k,,,,,,,,,0,104,104,104,,,,,,,,,,,,,,,,,,,,,,,,,,,,,,,,,,,,,main,k,k,1,0.669639300002018,446.4769738999894,None,None,0,,,,,,,,,,,,,,115,21,Female,2022-05-05_09h47.47.670,Parachute,2022.1.1,60.070161944931655,
positive,blue,1,k,None,,,,,,,,,0,105,105,105,,,,,,,,,,,,,,,,,,,,,,,,,,,,,,,,,,,,,main,None,None,1,1.4940117000078317,448.14777680000407,None,None,1,,,,,,,,,,,,,,115,21,Female,2022-05-05_09h47.47.670,Parachute,2022.1.1,60.070161944931655,
positive,blue,2,k,None,,,,,,,,,0,106,106,106,,,,,,,,,,,,,,,,,,,,,,,,,,,,,,,,,,,,,main,None,None,1,1.498226399999112,450.64338130000397,None,None,1,,,,,,,,,,,,,,115,21,Female,2022-05-05_09h47.47.670,Parachute,2022.1.1,60.070161944931655,
negative,blue,1,None,k,,,,,,,,,0,107,107,107,,,,,,,,,,,,,,,,,,,,,,,,,,,,,,,,,,,,,main,k,k,1,0.719976599997608,453.1431281999976,None,None,0,,,,,,,,,,,,,,115,21,Female,2022-05-05_09h47.47.670,Parachute,2022.1.1,60.070161944931655,
positive,yellow,2,None,k,,,,,,,,,0,108,108,108,,,,,,,,,,,,,,,,,,,,,,,,,,,,,,,,,,,,,main,k,k,1,0.7326487999816891,454.8647898999916,None,None,0,,,,,,,,,,,,,,115,21,Female,2022-05-05_09h47.47.670,Parachute,2022.1.1,60.070161944931655,
negative,yellow,1,k,None,,,,,,,,,0,109,109,109,,,,,,,,,,,,,,,,,,,,,,,,,,,,,,,,,,,,,main,None,None,1,1.4936961000203155,456.59816449999926,None,None,1,,,,,,,,,,,,,,115,21,Female,2022-05-05_09h47.47.670,Parachute,2022.1.1,60.070161944931655,
negative,blue,2,None,k,,,,,,,,,0,110,110,110,,,,,,,,,,,,,,,,,,,,,,,,,,,,,,,,,,,,,main,k,k,1,0.8207481999997981,459.09361089998856,None,None,0,,,,,,,,,,,,,,115,21,Female,2022-05-05_09h47.47.670,Parachute,2022.1.1,60.070161944931655,
positive,blue,2,k,None,,,,,,,,,0,111,111,111,,,,,,,,,,,,,,,,,,,,,,,,,,,,,,,,,,,,,main,None,None,1,1.493398899998283,460.9262277999951,None,None,1,,,,,,,,,,,,,,115,21,Female,2022-05-05_09h47.47.670,Parachute,2022.1.1,60.070161944931655,
negative,blue,1,None,k,,,,,,,,,0,112,112,112,,,,,,,,,,,,,,,,,,,,,,,,,,,,,,,,,,,,,main,k,k,1,0.9195641000114847,463.41022130000056,None,None,0,,,,,,,,,,,,,,115,21,Female,2022-05-05_09h47.47.670,Parachute,2022.1.1,60.070161944931655,
positive,yellow,1,None,k,,,,,,,,,0,113,113,113,,,,,,,,,,,,,,,,,,,,,,,,,,,,,,,,,,,,,main,k,k,1,0.5928430999920238,465.33162099999026,None,None,0,,,,,,,,,,,,,,115,21,Female,2022-05-05_09h47.47.670,Parachute,2022.1.1,60.070161944931655,
negative,red,1,None,None,,,,,,,,,0,114,114,114,,,,,,,,,,,,,,,,,,,,,,,,,,,,,,,,,,,,,main,None,None,1,1.5003315999929328,466.92648019999615,None,None,1,,,,,,,,,,,,,,115,21,Female,2022-05-05_09h47.47.670,Parachute,2022.1.1,60.070161944931655,
positive,red,1,None,None,,,,,,,,,0,115,115,115,,,,,,,,,,,,,,,,,,,,,,,,,,,,,,,,,,,,,main,None,None,1,1.498522599984426,469.4273079999839,None,None,1,,,,,,,,,,,,,,115,21,Female,2022-05-05_09h47.47.670,Parachute,2022.1.1,60.070161944931655,
negative,red,2,None,None,,,,,,,,,0,116,116,116,,,,,,,,,,,,,,,,,,,,,,,,,,,,,,,,,,,,,main,None,None,1,1.4989912000019103,471.92732779998914,None,None,1,,,,,,,,,,,,,,115,21,Female,2022-05-05_09h47.47.670,Parachute,2022.1.1,60.070161944931655,
negative,yellow,2,k,None,,,,,,,,,0,117,117,117,,,,,,,,,,,,,,,,,,,,,,,,,,,,,,,,,,,,,main,None,None,1,1.498245800001314,474.4274955999863,None,None,1,,,,,,,,,,,,,,115,21,Female,2022-05-05_09h47.47.670,Parachute,2022.1.1,60.070161944931655,
positive,yellow,1,None,k,,,,,,,,,0,118,118,118,,,,,,,,,,,,,,,,,,,,,,,,,,,,,,,,,,,,,main,k,k,1,0.7703084000095259,476.92734299998847,None,None,0,,,,,,,,,,,,,,115,21,Female,2022-05-05_09h47.47.670,Parachute,2022.1.1,60.070161944931655,
positive,red,2,None,None,,,,,,,,,0,119,119,119,,,,,,,,,,,,,,,,,,,,,,,,,,,,,,,,,,,,,main,None,None,1,1.4941773999889847,478.6982771999901,None,None,1,,,,,,,,,,,,,,115,21,Female,2022-05-05_09h47.47.670,Parachute,2022.1.1,60.070161944931655,
positive,blue,2,k,None,,,,,,,,,0,120,120,120,,,,,,,,,,,,,,,,,,,,,,,,,,,,,,,,,,,,,main,None,None,1,1.4983427000115626,481.19445549999364,None,None,1,,,,,,,,,,,,,,115,21,Female,2022-05-05_09h47.47.670,Parachute,2022.1.1,60.070161944931655,
negative,red,1,None,None,,,,,,,,,0,121,121,121,,,,,,,,,,,,,,,,,,,,,,,,,,,,,,,,,,,,,main,None,None,1,1.498380700009875,483.694723099994,None,None,1,,,,,,,,,,,,,,115,21,Female,2022-05-05_09h47.47.670,Parachute,2022.1.1,60.070161944931655,
positive,yellow,2,None,k,,,,,,,,,0,122,122,122,,,,,,,,,,,,,,,,,,,,,,,,,,,,,,,,,,,,,main,k,k,1,1.0192952000070363,486.19415789999766,None,None,0,,,,,,,,,,,,,,115,21,Female,2022-05-05_09h47.47.670,Parachute,2022.1.1,60.070161944931655,
negative,red,2,None,None,,,,,,,,,0,123,123,123,,,,,,,,,,,,,,,,,,,,,,,,,,,,,,,,,,,,,main,None,None,1,1.4951226999983191,488.21487910000724,None,None,1,,,,,,,,,,,,,,115,21,Female,2022-05-05_09h47.47.670,Parachute,2022.1.1,60.070161944931655,
negative,yellow,2,k,None,,,,,,,,,0,124,124,124,,,,,,,,,,,,,,,,,,,,,,,,,,,,,,,,,,,,,main,None,None,1,1.4979096000024583,490.71091980001074,None,None,1,,,,,,,,,,,,,,115,21,Female,2022-05-05_09h47.47.670,Parachute,2022.1.1,60.070161944931655,
positive,red,1,None,None,,,,,,,,,0,125,125,125,,,,,,,,,,,,,,,,,,,,,,,,,,,,,,,,,,,,,main,None,None,1,1.4993090000061784,493.21076009998797,None,None,1,,,,,,,,,,,,,,115,21,Female,2022-05-05_09h47.47.670,Parachute,2022.1.1,60.070161944931655,
negative,blue,2,None,k,,,,,,,,,0,126,126,126,,,,,,,,,,,,,,,,,,,,,,,,,,,,,,,,,,,,,main,k,k,1,1.0844112999911886,495.7117073999834,None,None,0,,,,,,,,,,,,,,115,21,Female,2022-05-05_09h47.47.670,Parachute,2022.1.1,60.070161944931655,
negative,blue,1,None,k,,,,,,,,,0,127,127,127,,,,,,,,,,,,,,,,,,,,,,,,,,,,,,,,,,,,,main,k,k,1,0.7012494999798946,497.7977583000029,None,None,0,,,,,,,,,,,,,,115,21,Female,2022-05-05_09h47.47.670,Parachute,2022.1.1,60.070161944931655,
negative,yellow,1,k,None,,,,,,,,,0,128,128,128,,,,,,,,,,,,,,,,,,,,,,,,,,,,,,,,,,,,,main,None,None,1,1.4932619000028353,499.4989621999848,None,None,1,,,,,,,,,,,,,,115,21,Female,2022-05-05_09h47.47.670,Parachute,2022.1.1,60.070161944931655,
negative,yellow,1,k,None,,,,,,,,,0,129,129,129,,,,,,,,,,,,,,,,,,,,,,,,,,,,,,,,,,,,,main,None,None,1,1.498610299982829,501.9938922000001,None,None,1,,,,,,,,,,,,,,115,21,Female,2022-05-05_09h47.47.670,Parachute,2022.1.1,60.070161944931655,
positive,blue,1,k,None,,,,,,,,,0,130,130,130,,,,,,,,,,,,,,,,,,,,,,,,,,,,,,,,,,,,,main,None,None,1,1.4982957000029273,504.49510739999823,None,None,1,,,,,,,,,,,,,,115,21,Female,2022-05-05_09h47.47.670,Parachute,2022.1.1,60.070161944931655,
negative,blue,1,None,k,,,,,,,,,0,131,131,131,,,,,,,,,,,,,,,,,,,,,,,,,,,,,,,,,,,,,main,k,k,1,0.7165565000032075,506.99426680000033,None,None,0,,,,,,,,,,,,,,115,21,Female,2022-05-05_09h47.47.670,Parachute,2022.1.1,60.070161944931655,
negative,blue,2,None,k,,,,,,,,,0,132,132,132,,,,,,,,,,,,,,,,,,,,,,,,,,,,,,,,,,,,,main,k,k,1,0.7197571999859065,508.7127009999822,None,None,0,,,,,,,,,,,,,,115,21,Female,2022-05-05_09h47.47.670,Parachute,2022.1.1,60.070161944931655,
positive,blue,2,k,None,,,,,,,,,0,133,133,133,,,,,,,,,,,,,,,,,,,,,,,,,,,,,,,,,,,,,main,None,None,1,1.5103501999983564,510.4324301999877,None,None,1,,,,,,,,,,,,,,115,21,Female,2022-05-05_09h47.47.670,Parachute,2022.1.1,60.070161944931655,
positive,red,2,None,None,,,,,,,,,0,134,134,134,,,,,,,,,,,,,,,,,,,,,,,,,,,,,,,,,,,,,main,None,None,1,1.498384399979841,512.9452605999832,None,None,1,,,,,,,,,,,,,,115,21,Female,2022-05-05_09h47.47.670,Parachute,2022.1.1,60.070161944931655,
negative,yellow,2,k,None,,,,,,,,,0,135,135,135,,,,,,,,,,,,,,,,,,,,,,,,,,,,,,,,,,,,,main,None,None,1,1.4983460000075866,515.4447589000047,None,None,1,,,,,,,,,,,,,,115,21,Female,2022-05-05_09h47.47.670,Parachute,2022.1.1,60.070161944931655,
positive,yellow,2,None,k,,,,,,,,,0,136,136,136,,,,,,,,,,,,,,,,,,,,,,,,,,,,,,,,,,,,,main,k,k,1,0.5845036999962758,517.9446689999895,None,None,0,,,,,,,,,,,,,,115,21,Female,2022-05-05_09h47.47.670,Parachute,2022.1.1,60.070161944931655,
positive,blue,1,k,None,,,,,,,,,0,137,137,137,,,,,,,,,,,,,,,,,,,,,,,,,,,,,,,,,,,,,main,None,None,1,1.4960634000017308,519.5307783999888,None,None,1,,,,,,,,,,,,,,115,21,Female,2022-05-05_09h47.47.670,Parachute,2022.1.1,60.070161944931655,
positive,yellow,1,None,k,,,,,,,,,0,138,138,138,,,,,,,,,,,,,,,,,,,,,,,,,,,,,,,,,,,,,main,k,k,1,0.9505636999965645,522.0277994000062,None,None,0,,,,,,,,,,,,,,115,21,Female,2022-05-05_09h47.47.670,Parachute,2022.1.1,60.070161944931655,
positive,yellow,1,None,k,,,,,,,,,0,139,139,139,,,,,,,,,,,,,,,,,,,,,,,,,,,,,,,,,,,,,main,k,k,1,0.618717800010927,523.9800743999949,None,None,0,,,,,,,,,,,,,,115,21,Female,2022-05-05_09h47.47.670,Parachute,2022.1.1,60.070161944931655,
positive,yellow,1,None,k,,,,,,,,,0,140,140,140,,,,,,,,,,,,,,,,,,,,,,,,,,,,,,,,,,,,,main,k,k,1,0.6491436999931466,525.5995775999909,None,None,0,,,,,,,,,,,,,,115,21,Female,2022-05-05_09h47.47.670,Parachute,2022.1.1,60.070161944931655,
positive,blue,1,k,None,,,,,,,,,0,141,141,141,,,,,,,,,,,,,,,,,,,,,,,,,,,,,,,,,,,,,main,None,None,1,1.4940029999997932,527.2497634000028,None,None,1,,,,,,,,,,,,,,115,21,Female,2022-05-05_09h47.47.670,Parachute,2022.1.1,60.070161944931655,
positive,blue,2,k,None,,,,,,,,,0,142,142,142,,,,,,,,,,,,,,,,,,,,,,,,,,,,,,,,,,,,,main,None,None,1,1.4990857999946456,529.7463737000071,None,None,1,,,,,,,,,,,,,,115,21,Female,2022-05-05_09h47.47.670,Parachute,2022.1.1,60.070161944931655,
positive,yellow,2,None,k,,,,,,,,,0,143,143,143,,,,,,,,,,,,,,,,,,,,,,,,,,,,,,,,,,,,,main,k,k,1,0.8346068999962881,532.2468586000032,None,None,0,,,,,,,,,,,,,,115,21,Female,2022-05-05_09h47.47.670,Parachute,2022.1.1,60.070161944931655,
negative,yellow,2,k,None,,,,,,,,,0,144,144,144,,,,,,,,,,,,,,,,,,,,,,,,,,,,,,,,,,,,,main,None,None,1,1.494930699991528,534.0949583000038,None,None,1,,,,,,,,,,,,,,115,21,Female,2022-05-05_09h47.47.670,Parachute,2022.1.1,60.070161944931655,
negative,blue,2,None,k,,,,,,,,,0,145,145,145,,,,,,,,,,,,,,,,,,,,,,,,,,,,,,,,,,,,,main,k,k,1,0.8684451000008266,536.5786879000079,None,None,0,,,,,,,,,,,,,,115,21,Female,2022-05-05_09h47.47.670,Parachute,2022.1.1,60.070161944931655,
negative,red,1,None,None,,,,,,,,,0,146,146,146,,,,,,,,,,,,,,,,,,,,,,,,,,,,,,,,,,,,,main,None,None,1,1.4954966999939643,538.4487145000021,None,None,1,,,,,,,,,,,,,,115,21,Female,2022-05-05_09h47.47.670,Parachute,2022.1.1,60.070161944931655,
positive,blue,1,k,None,,,,,,,,,0,147,147,147,,,,,,,,,,,,,,,,,,,,,,,,,,,,,,,,,,,,,main,None,None,1,1.4981503000017256,540.9465486999834,None,None,1,,,,,,,,,,,,,,115,21,Female,2022-05-05_09h47.47.670,Parachute,2022.1.1,60.070161944931655,
positive,yellow,1,None,k,,,,,,,,,0,148,148,148,,,,,,,,,,,,,,,,,,,,,,,,,,,,,,,,,,,,,main,k,k,1,0.849581099988427,543.4463222000049,None,None,0,,,,,,,,,,,,,,115,21,Female,2022-05-05_09h47.47.670,Parachute,2022.1.1,60.070161944931655,
negative,red,2,None,None,,,,,,,,,0,149,149,149,,,,,,,,,,,,,,,,,,,,,,,,,,,,,,,,,,,,,main,None,None,1,1.4978561999741942,545.295721100003,None,None,1,,,,,,,,,,,,,,115,21,Female,2022-05-05_09h47.47.670,Parachute,2022.1.1,60.070161944931655,
negative,blue,1,None,k,,,,,,,,,0,150,150,150,,,,,,,,,,,,,,,,,,,,,,,,,,,,,,,,,,,,,main,k,k,1,0.7042072000040207,547.7949694999843,None,None,0,,,,,,,,,,,,,,115,21,Female,2022-05-05_09h47.47.670,Parachute,2022.1.1,60.070161944931655,
negative,yellow,2,k,None,,,,,,,,,0,151,151,151,,,,,,,,,,,,,,,,,,,,,,,,,,,,,,,,,,,,,main,None,None,1,1.4938876000232995,549.5001650000049,None,None,1,,,,,,,,,,,,,,115,21,Female,2022-05-05_09h47.47.670,Parachute,2022.1.1,60.070161944931655,
negative,blue,2,None,k,,,,,,,,,0,152,152,152,,,,,,,,,,,,,,,,,,,,,,,,,,,,,,,,,,,,,main,k,k,1,0.8025459000200499,551.9959086999879,None,None,0,,,,,,,,,,,,,,115,21,Female,2022-05-05_09h47.47.670,Parachute,2022.1.1,60.070161944931655,
negative,yellow,1,k,None,,,,,,,,,0,153,153,153,,,,,,,,,,,,,,,,,,,,,,,,,,,,,,,,,,,,,main,None,None,1,1.49461870000232,553.8003389000078,None,None,1,,,,,,,,,,,,,,115,21,Female,2022-05-05_09h47.47.670,Parachute,2022.1.1,60.070161944931655,
negative,blue,1,None,k,,,,,,,,,0,154,154,154,,,,,,,,,,,,,,,,,,,,,,,,,,,,,,,,,,,,,main,k,k,1,0.9354455999855418,556.2953161000041,None,None,0,,,,,,,,,,,,,,115,21,Female,2022-05-05_09h47.47.670,Parachute,2022.1.1,60.070161944931655,
positive,yellow,2,None,k,,,,,,,,,0,155,155,155,,,,,,,,,,,,,,,,,,,,,,,,,,,,,,,,,,,,,main,k,k,1,0.7806074999971315,558.2332610999874,None,None,0,,,,,,,,,,,,,,115,21,Female,2022-05-05_09h47.47.670,Parachute,2022.1.1,60.070161944931655,
positive,red,2,None,None,,,,,,,,,0,156,156,156,,,,,,,,,,,,,,,,,,,,,,,,,,,,,,,,,,,,,main,None,None,1,1.4964523000235204,560.0150958999875,None,None,1,,,,,,,,,,,,,,115,21,Female,2022-05-05_09h47.47.670,Parachute,2022.1.1,60.070161944931655,
positive,red,1,None,None,,,,,,,,,0,157,157,157,,,,,,,,,,,,,,,,,,,,,,,,,,,,,,,,,,,,,main,None,None,1,1.4980503000260796,562.5134966000041,None,None,1,,,,,,,,,,,,,,115,21,Female,2022-05-05_09h47.47.670,Parachute,2022.1.1,60.070161944931655,
positive,blue,2,k,None,,,,,,,,,0,158,158,158,,,,,,,,,,,,,,,,,,,,,,,,,,,,,,,,,,,,,main,None,None,1,1.4988789999915753,565.0126928999962,None,None,1,,,,,,,,,,,,,,115,21,Female,2022-05-05_09h47.47.670,Parachute,2022.1.1,60.070161944931655,
negative,yellow,1,k,None,,,,,,,,,0,159,159,159,,,,,,,,,,,,,,,,,,,,,,,,,,,,,,,,,,,,,main,None,None,1,1.4986748000083026,567.5127618999977,None,None,1,,,,,,,,,,,,,,115,21,Female,2022-05-05_09h47.47.670,Parachute,2022.1.1,60.070161944931655,
negative,red,2,None,None,,,,,,,,,0,160,160,160,,,,,,,,,,,,,,,,,,,,,,,,,,,,,,,,,,,,,main,None,None,1,1.4986116000218317,570.0137166999921,None,None,1,,,,,,,,,,,,,,115,21,Female,2022-05-05_09h47.47.670,Parachute,2022.1.1,60.070161944931655,
negative,blue,1,None,k,,,,,,,,,0,161,161,161,,,,,,,,,,,,,,,,,,,,,,,,,,,,,,,,,,,,,main,k,k,1,0.8334555000183173,572.5128359000082,None,None,0,,,,,,,,,,,,,,115,21,Female,2022-05-05_09h47.47.670,Parachute,2022.1.1,60.070161944931655,
negative,blue,1,None,k,,,,,,,,,0,162,162,162,,,,,,,,,,,,,,,,,,,,,,,,,,,,,,,,,,,,,main,k,k,1,0.6852260000014212,574.3479541999986,None,None,0,,,,,,,,,,,,,,115,21,Female,2022-05-05_09h47.47.670,Parachute,2022.1.1,60.070161944931655,
negative,yellow,1,k,None,,,,,,,,,0,163,163,163,,,,,,,,,,,,,,,,,,,,,,,,,,,,,,,,,,,,,main,None,None,1,1.4935997999855317,576.0340066000063,None,None,1,,,,,,,,,,,,,,115,21,Female,2022-05-05_09h47.47.670,Parachute,2022.1.1,60.070161944931655,
negative,yellow,1,k,None,,,,,,,,,0,164,164,164,,,,,,,,,,,,,,,,,,,,,,,,,,,,,,,,,,,,,main,None,None,1,1.498980100004701,578.5292737999989,None,None,1,,,,,,,,,,,,,,115,21,Female,2022-05-05_09h47.47.670,Parachute,2022.1.1,60.070161944931655,
positive,yellow,1,None,k,,,,,,,,,0,165,165,165,,,,,,,,,,,,,,,,,,,,,,,,,,,,,,,,,,,,,main,k,k,1,1.0702954000153113,581.0295478999906,None,None,0,,,,,,,,,,,,,,115,21,Female,2022-05-05_09h47.47.670,Parachute,2022.1.1,60.070161944931655,
negative,red,1,None,None,,,,,,,,,0,166,166,166,,,,,,,,,,,,,,,,,,,,,,,,,,,,,,,,,,,,,main,None,None,1,1.4936772999935783,583.100601699989,None,None,1,,,,,,,,,,,,,,115,21,Female,2022-05-05_09h47.47.670,Parachute,2022.1.1,60.070161944931655,
negative,yellow,2,k,None,,,,,,,,,0,167,167,167,,,,,,,,,,,,,,,,,,,,,,,,,,,,,,,,,,,,,main,None,None,1,1.4983549000171479,585.5963616000081,None,None,1,,,,,,,,,,,,,,115,21,Female,2022-05-05_09h47.47.670,Parachute,2022.1.1,60.070161944931655,
positive,blue,2,k,None,,,,,,,,,0,168,168,168,,,,,,,,,,,,,,,,,,,,,,,,,,,,,,,,,,,,,main,None,None,1,1.4993796999915503,588.0961784000101,None,None,1,,,,,,,,,,,,,,115,21,Female,2022-05-05_09h47.47.670,Parachute,2022.1.1,60.070161944931655,
positive,red,2,None,None,,,,,,,,,0,169,169,169,,,,,,,,,,,,,,,,,,,,,,,,,,,,,,,,,,,,,main,None,None,1,1.4982591000152752,590.5966610999894,None,None,1,,,,,,,,,,,,,,115,21,Female,2022-05-05_09h47.47.670,Parachute,2022.1.1,60.070161944931655,
positive,red,1,None,None,,,,,,,,,0,170,170,170,,,,,,,,,,,,,,,,,,,,,,,,,,,,,,,,,,,,,main,None,None,1,1.4988959000038449,593.0963853999856,None,None,1,,,,,,,,,,,,,,115,21,Female,2022-05-05_09h47.47.670,Parachute,2022.1.1,60.070161944931655,
negative,blue,2,None,k,,,,,,,,,0,171,171,171,,,,,,,,,,,,,,,,,,,,,,,,,,,,,,,,,,,,,main,k,k,1,0.750796399981482,595.5964797000051,None,None,0,,,,,,,,,,,,,,115,21,Female,2022-05-05_09h47.47.670,Parachute,2022.1.1,60.070161944931655,
positive,blue,2,k,None,,,,,,,,,0,172,172,172,,,,,,,,,,,,,,,,,,,,,,,,,,,,,,,,,,,,,main,None,None,1,1.4964639999961946,597.3496423999895,None,None,1,,,,,,,,,,,,,,115,21,Female,2022-05-05_09h47.47.670,Parachute,2022.1.1,60.070161944931655,
negative,yellow,2,k,None,,,,,,,,,0,173,173,173,,,,,,,,,,,,,,,,,,,,,,,,,,,,,,,,,,,,,main,None,None,1,1.4981349000008777,599.8472203999991,None,None,1,,,,,,,,,,,,,,115,21,Female,2022-05-05_09h47.47.670,Parachute,2022.1.1,60.070161944931655,
positive,yellow,2,None,k,,,,,,,,,0,174,174,174,,,,,,,,,,,,,,,,,,,,,,,,,,,,,,,,,,,,,main,k,k,1,0.8865772999997716,602.3464950000052,None,None,0,,,,,,,,,,,,,,115,21,Female,2022-05-05_09h47.47.670,Parachute,2022.1.1,60.070161944931655,
negative,blue,2,None,k,,,,,,,,,0,175,175,175,,,,,,,,,,,,,,,,,,,,,,,,,,,,,,,,,,,,,main,k,k,1,0.8499074000283144,604.2352989999927,None,None,0,,,,,,,,,,,,,,115,21,Female,2022-05-05_09h47.47.670,Parachute,2022.1.1,60.070161944931655,
positive,blue,1,k,None,,,,,,,,,0,176,176,176,,,,,,,,,,,,,,,,,,,,,,,,,,,,,,,,,,,,,main,None,None,1,1.4932158000010531,606.0851510000066,None,None,1,,,,,,,,,,,,,,115,21,Female,2022-05-05_09h47.47.670,Parachute,2022.1.1,60.070161944931655,
positive,yellow,1,None,k,,,,,,,,,0,177,177,177,,,,,,,,,,,,,,,,,,,,,,,,,,,,,,,,,,,,,main,k,k,1,0.8540092000039294,608.5801215000101,None,None,0,,,,,,,,,,,,,,115,21,Female,2022-05-05_09h47.47.670,Parachute,2022.1.1,60.070161944931655,
positive,blue,1,k,None,,,,,,,,,0,178,178,178,,,,,,,,,,,,,,,,,,,,,,,,,,,,,,,,,,,,,main,None,None,1,1.4931847999978345,610.4348764999886,None,None,1,,,,,,,,,,,,,,115,21,Female,2022-05-05_09h47.47.670,Parachute,2022.1.1,60.070161944931655,
positive,yellow,2,None,k,,,,,,,,,0,179,179,179,,,,,,,,,,,,,,,,,,,,,,,,,,,,,,,,,,,,,main,k,k,1,0.8374416000151541,612.9306355000008,None,None,0,,,,,,,,,,,,,,115,21,Female,2022-05-05_09h47.47.670,Parachute,2022.1.1,60.070161944931655,
positive,blue,1,k,None,,,,,,,,,0,180,180,180,,,,,,,,,,,,,,,,,,,,,,,,,,,,,,,,,,,,,main,None,None,1,1.4934417999756988,614.7683434000064,None,None,1,,,,,,,,,,,,,,115,21,Female,2022-05-05_09h47.47.670,Parachute,2022.1.1,60.070161944931655,
negative,red,1,None,None,,,,,,,,,0,181,181,181,,,,,,,,,,,,,,,,,,,,,,,,,,,,,,,,,,,,,main,None,None,1,1.4986640999850351,617.2637576999841,None,None,1,,,,,,,,,,,,,,115,21,Female,2022-05-05_09h47.47.670,Parachute,2022.1.1,60.070161944931655,
negative,blue,1,None,k,,,,,,,,,0,182,182,182,,,,,,,,,,,,,,,,,,,,,,,,,,,,,,,,,,,,,main,k,k,1,0.9371016999939457,619.7643358999921,None,None,0,,,,,,,,,,,,,,115,21,Female,2022-05-05_09h47.47.670,Parachute,2022.1.1,60.070161944931655,
negative,yellow,2,k,None,,,,,,,,,0,183,183,183,,,,,,,,,,,,,,,,,,,,,,,,,,,,,,,,,,,,,main,None,None,1,1.4934404999949038,621.7016775000084,None,None,1,,,,,,,,,,,,,,115,21,Female,2022-05-05_09h47.47.670,Parachute,2022.1.1,60.070161944931655,
positive,yellow,2,None,k,,,,,,,,,0,184,184,184,,,,,,,,,,,,,,,,,,,,,,,,,,,,,,,,,,,,,main,k,k,1,0.7189944999990985,624.1972200000018,None,None,0,,,,,,,,,,,,,,115,21,Female,2022-05-05_09h47.47.670,Parachute,2022.1.1,60.070161944931655,
positive,yellow,1,None,k,,,,,,,,,0,185,185,185,,,,,,,,,,,,,,,,,,,,,,,,,,,,,,,,,,,,,main,k,k,1,1.6289915000088513,625.9185435000109,None,None,0,,,,,,,,,,,,,,115,21,Female,2022-05-05_09h47.47.670,Parachute,2022.1.1,60.070161944931655,
positive,red,2,None,None,,,,,,,,,0,186,186,186,,,,,,,,,,,,,,,,,,,,,,,,,,,,,,,,,,,,,main,None,None,1,1.5027522000018507,629.59668409999,None,None,1,,,,,,,,,,,,,,115,21,Female,2022-05-05_09h47.47.670,Parachute,2022.1.1,60.070161944931655,
positive,blue,1,k,None,,,,,,,,,0,187,187,187,,,,,,,,,,,,,,,,,,,,,,,,,,,,,,,,,,,,,main,None,None,1,1.4982859999872744,632.0976919000095,None,None,1,,,,,,,,,,,,,,115,21,Female,2022-05-05_09h47.47.670,Parachute,2022.1.1,60.070161944931655,
negative,yellow,1,k,None,,,,,,,,,0,188,188,188,,,,,,,,,,,,,,,,,,,,,,,,,,,,,,,,,,,,,main,None,None,1,1.498589999973774,634.5976096999948,None,None,1,,,,,,,,,,,,,,115,21,Female,2022-05-05_09h47.47.670,Parachute,2022.1.1,60.070161944931655,
positive,yellow,2,None,k,,,,,,,,,0,189,189,189,,,,,,,,,,,,,,,,,,,,,,,,,,,,,,,,,,,,,main,k,k,1,0.7702135000145063,637.0972382999898,None,None,0,,,,,,,,,,,,,,115,21,Female,2022-05-05_09h47.47.670,Parachute,2022.1.1,60.070161944931655,
negative,yellow,2,k,None,,,,,,,,,0,190,190,190,,,,,,,,,,,,,,,,,,,,,,,,,,,,,,,,,,,,,main,None,None,1,1.493655400001444,638.8689283999847,None,None,1,,,,,,,,,,,,,,115,21,Female,2022-05-05_09h47.47.670,Parachute,2022.1.1,60.070161944931655,
negative,yellow,1,k,None,,,,,,,,,0,191,191,191,,,,,,,,,,,,,,,,,,,,,,,,,,,,,,,,,,,,,main,None,None,1,1.4990080999850761,641.3641459000064,None,None,1,,,,,,,,,,,,,,115,21,Female,2022-05-05_09h47.47.670,Parachute,2022.1.1,60.070161944931655,
positive,blue,2,k,None,,,,,,,,,0,192,192,192,,,,,,,,,,,,,,,,,,,,,,,,,,,,,,,,,,,,,main,None,None,1,1.4976722999999765,643.8649280999962,None,None,1,,,,,,,,,,,,,,115,21,Female,2022-05-05_09h47.47.670,Parachute,2022.1.1,60.070161944931655,
positive,yellow,1,None,k,,,,,,,,,0,193,193,193,,,,,,,,,,,,,,,,,,,,,,,,,,,,,,,,,,,,,main,k,k,1,0.8711119999934454,646.3637558000046,None,None,0,,,,,,,,,,,,,,115,21,Female,2022-05-05_09h47.47.670,Parachute,2022.1.1,60.070161944931655,
negative,red,2,None,None,,,,,,,,,0,194,194,194,,,,,,,,,,,,,,,,,,,,,,,,,,,,,,,,,,,,,main,None,None,1,1.493408999987878,648.2361784999957,None,None,1,,,,,,,,,,,,,,115,21,Female,2022-05-05_09h47.47.670,Parachute,2022.1.1,60.070161944931655,
positive,red,1,None,None,,,,,,,,,0,195,195,195,,,,,,,,,,,,,,,,,,,,,,,,,,,,,,,,,,,,,main,None,None,1,1.4982812999805901,650.7311966999841,None,None,1,,,,,,,,,,,,,,115,21,Female,2022-05-05_09h47.47.670,Parachute,2022.1.1,60.070161944931655,
negative,blue,1,None,k,,,,,,,,,0,196,196,196,,,,,,,,,,,,,,,,,,,,,,,,,,,,,,,,,,,,,main,k,k,1,0.853623000002699,653.2305387000088,None,None,0,,,,,,,,,,,,,,115,21,Female,2022-05-05_09h47.47.670,Parachute,2022.1.1,60.070161944931655,
positive,blue,2,k,None,,,,,,,,,0,197,197,197,,,,,,,,,,,,,,,,,,,,,,,,,,,,,,,,,,,,,main,None,None,1,1.493883300019661,655.085857500002,None,None,1,,,,,,,,,,,,,,115,21,Female,2022-05-05_09h47.47.670,Parachute,2022.1.1,60.070161944931655,
negative,blue,2,None,k,,,,,,,,,0,198,198,198,,,,,,,,,,,,,,,,,,,,,,,,,,,,,,,,,,,,,main,k,k,1,3.050967599992873,657.5808192999975,None,None,0,,,,,,,,,,,,,,115,21,Female,2022-05-05_09h47.47.670,Parachute,2022.1.1,60.070161944931655,
negative,blue,2,None,k,,,,,,,,,0,199,199,199,,,,,,,,,,,,,,,,,,,,,,,,,,,,,,,,,,,,,main,k,k,1,0.7072669000190217,662.6475628000044,None,None,0,,,,,,,,,,,,,,115,21,Female,2022-05-05_09h47.47.670,Parachute,2022.1.1,60.070161944931655,
positive,blue,2,k,None,,,,,,,,,0,200,200,200,,,,,,,,,,,,,,,,,,,,,,,,,,,,,,,,,,,,,main,None,None,1,1.4931196000252385,664.3530759999994,None,None,1,,,,,,,,,,,,,,115,21,Female,2022-05-05_09h47.47.670,Parachute,2022.1.1,60.070161944931655,
positive,blue,2,k,None,,,,,,,,,0,201,201,201,,,,,,,,,,,,,,,,,,,,,,,,,,,,,,,,,,,,,main,None,None,1,1.4991467999934684,666.847809800005,None,None,1,,,,,,,,,,,,,,115,21,Female,2022-05-05_09h47.47.670,Parachute,2022.1.1,60.070161944931655,
negative,yellow,2,k,None,,,,,,,,,0,202,202,202,,,,,,,,,,,,,,,,,,,,,,,,,,,,,,,,,,,,,main,None,None,1,1.498262600012822,669.3481463000062,None,None,1,,,,,,,,,,,,,,115,21,Female,2022-05-05_09h47.47.670,Parachute,2022.1.1,60.070161944931655,
positive,red,1,None,None,,,,,,,,,0,203,203,203,,,,,,,,,,,,,,,,,,,,,,,,,,,,,,,,,,,,,main,None,None,1,1.4988811999792233,671.8477399999974,None,None,1,,,,,,,,,,,,,,115,21,Female,2022-05-05_09h47.47.670,Parachute,2022.1.1,60.070161944931655,
negative,blue,2,None,k,,,,,,,,,0,204,204,204,,,,,,,,,,,,,,,,,,,,,,,,,,,,,,,,,,,,,main,k,k,1,0.72016330002225,674.3481092999864,None,None,0,,,,,,,,,,,,,,115,21,Female,2022-05-05_09h47.47.670,Parachute,2022.1.1,60.070161944931655,
negative,red,1,None,None,,,,,,,,,0,205,205,205,,,,,,,,,,,,,,,,,,,,,,,,,,,,,,,,,,,,,main,None,None,1,1.4937271999951918,676.0816448999976,None,None,1,,,,,,,,,,,,,,115,21,Female,2022-05-05_09h47.47.670,Parachute,2022.1.1,60.070161944931655,
negative,blue,2,None,k,,,,,,,,,0,206,206,206,,,,,,,,,,,,,,,,,,,,,,,,,,,,,,,,,,,,,main,k,k,1,0.6535497000149917,678.5651653000095,None,None,0,,,,,,,,,,,,,,115,21,Female,2022-05-05_09h47.47.670,Parachute,2022.1.1,60.070161944931655,
negative,yellow,2,k,None,,,,,,,,,0,207,207,207,,,,,,,,,,,,,,,,,,,,,,,,,,,,,,,,,,,,,main,None,None,1,1.4933354000095278,680.2196068000048,None,None,1,,,,,,,,,,,,,,115,21,Female,2022-05-05_09h47.47.670,Parachute,2022.1.1,60.070161944931655,
positive,yellow,2,None,k,,,,,,,,,0,208,208,208,,,,,,,,,,,,,,,,,,,,,,,,,,,,,,,,,,,,,main,k,k,1,0.6829602000070736,682.7146515999921,None,None,0,,,,,,,,,,,,,,115,21,Female,2022-05-05_09h47.47.670,Parachute,2022.1.1,60.070161944931655,
negative,yellow,1,k,None,,,,,,,,,0,209,209,209,,,,,,,,,,,,,,,,,,,,,,,,,,,,,,,,,,,,,main,None,None,1,1.497717999998713,684.3990551999887,None,None,1,,,,,,,,,,,,,,115,21,Female,2022-05-05_09h47.47.670,Parachute,2022.1.1,60.070161944931655,
negative,red,2,None,None,,,,,,,,,0,210,210,210,,,,,,,,,,,,,,,,,,,,,,,,,,,,,,,,,,,,,main,None,None,1,1.4989738000149373,686.8982479999831,None,None,1,,,,,,,,,,,,,,115,21,Female,2022-05-05_09h47.47.670,Parachute,2022.1.1,60.070161944931655,
negative,blue,1,None,k,,,,,,,,,0,211,211,211,,,,,,,,,,,,,,,,,,,,,,,,,,,,,,,,,,,,,main,k,k,1,0.8493299000256229,689.3983157000039,None,None,0,,,,,,,,,,,,,,115,21,Female,2022-05-05_09h47.47.670,Parachute,2022.1.1,60.070161944931655,
negative,yellow,1,k,None,,,,,,,,,0,212,212,212,,,,,,,,,,,,,,,,,,,,,,,,,,,,,,,,,,,,,main,None,None,1,1.4975776000064798,691.249244400009,None,None,1,,,,,,,,,,,,,,115,21,Female,2022-05-05_09h47.47.670,Parachute,2022.1.1,60.070161944931655,
positive,blue,1,k,None,,,,,,,,,0,213,213,213,,,,,,,,,,,,,,,,,,,,,,,,,,,,,,,,,,,,,main,None,None,1,1.4989938999933656,693.7483652000083,None,None,1,,,,,,,,,,,,,,115,21,Female,2022-05-05_09h47.47.670,Parachute,2022.1.1,60.070161944931655,
positive,blue,1,k,None,,,,,,,,,0,214,214,214,,,,,,,,,,,,,,,,,,,,,,,,,,,,,,,,,,,,,main,None,None,1,1.4991277999943122,696.24829280001,None,None,1,,,,,,,,,,,,,,115,21,Female,2022-05-05_09h47.47.670,Parachute,2022.1.1,60.070161944931655,
positive,yellow,1,None,k,,,,,,,,,0,215,215,215,,,,,,,,,,,,,,,,,,,,,,,,,,,,,,,,,,,,,main,k,k,1,1.2539146000053734,698.7488865999912,None,None,0,,,,,,,,,,,,,,115,21,Female,2022-05-05_09h47.47.670,Parachute,2022.1.1,60.070161944931655,
positive,yellow,1,None,k,,,,,,,,,0,216,216,216,,,,,,,,,,,,,,,,,,,,,,,,,,,,,,,,,,,,,main,k,k,1,0.7640635999850929,701.0036550000077,None,None,0,,,,,,,,,,,,,,115,21,Female,2022-05-05_09h47.47.670,Parachute,2022.1.1,60.070161944931655,
positive,yellow,2,None,k,,,,,,,,,0,217,217,217,,,,,,,,,,,,,,,,,,,,,,,,,,,,,,,,,,,,,main,k,k,1,0.7461327999772038,702.7700412999839,None,None,0,,,,,,,,,,,,,,115,21,Female,2022-05-05_09h47.47.670,Parachute,2022.1.1,60.070161944931655,
negative,blue,1,None,k,,,,,,,,,0,218,218,218,,,,,,,,,,,,,,,,,,,,,,,,,,,,,,,,,,,,,main,k,k,1,0.8170133999956306,704.51755769999,None,None,0,,,,,,,,,,,,,,115,21,Female,2022-05-05_09h47.47.670,Parachute,2022.1.1,60.070161944931655,
positive,red,2,None,None,,,,,,,,,0,219,219,219,,,,,,,,,,,,,,,,,,,,,,,,,,,,,,,,,,,,,main,None,None,1,1.4949189999897499,706.335917999997,None,None,1,,,,,,,,,,,,,,115,21,Female,2022-05-05_09h47.47.670,Parachute,2022.1.1,60.070161944931655,
positive,yellow,1,None,k,,,,,,,,,0,220,220,220,,,,,,,,,,,,,,,,,,,,,,,,,,,,,,,,,,,,,main,k,k,1,0.8036363999999594,708.8319214000076,None,None,0,,,,,,,,,,,,,,115,21,Female,2022-05-05_09h47.47.670,Parachute,2022.1.1,60.070161944931655,
positive,blue,1,k,None,,,,,,,,,0,221,221,221,,,,,,,,,,,,,,,,,,,,,,,,,,,,,,,,,,,,,main,None,None,1,1.493839000002481,710.6373488999961,None,None,1,,,,,,,,,,,,,,115,21,Female,2022-05-05_09h47.47.670,Parachute,2022.1.1,60.070161944931655,
positive,yellow,2,None,k,,,,,,,,,0,222,222,222,,,,,,,,,,,,,,,,,,,,,,,,,,,,,,,,,,,,,main,k,k,1,0.7371798999956809,713.1332689999836,None,None,0,,,,,,,,,,,,,,115,21,Female,2022-05-05_09h47.47.670,Parachute,2022.1.1,60.070161944931655,
negative,yellow,1,k,None,,,,,,,,,0,223,223,223,,,,,,,,,,,,,,,,,,,,,,,,,,,,,,,,,,,,,main,None,None,1,1.4938527999911457,714.8704619999917,None,None,1,,,,,,,,,,,,,,115,21,Female,2022-05-05_09h47.47.670,Parachute,2022.1.1,60.070161944931655,
positive,yellow,2,None,k,,,,,,,,,0,224,224,224,,,,,,,,,,,,,,,,,,,,,,,,,,,,,,,,,,,,,main,k,k,1,0.7370131000061519,717.3658805000014,None,None,0,,,,,,,,,,,,,,115,21,Female,2022-05-05_09h47.47.670,Parachute,2022.1.1,60.070161944931655,
negative,yellow,2,k,None,,,,,,,,,0,225,225,225,,,,,,,,,,,,,,,,,,,,,,,,,,,,,,,,,,,,,main,None,None,1,1.493721300008474,719.1040488999861,None,None,1,,,,,,,,,,,,,,115,21,Female,2022-05-05_09h47.47.670,Parachute,2022.1.1,60.070161944931655,
negative,blue,2,None,k,,,,,,,,,0,226,226,226,,,,,,,,,,,,,,,,,,,,,,,,,,,,,,,,,,,,,main,k,k,1,0.7668640000047162,721.5999906999932,None,None,0,,,,,,,,,,,,,,115,21,Female,2022-05-05_09h47.47.670,Parachute,2022.1.1,60.070161944931655,
positive,red,2,None,None,,,,,,,,,0,227,227,227,,,,,,,,,,,,,,,,,,,,,,,,,,,,,,,,,,,,,main,None,None,1,1.4975412999920081,723.3678150000051,None,None,1,,,,,,,,,,,,,,115,21,Female,2022-05-05_09h47.47.670,Parachute,2022.1.1,60.070161944931655,
positive,blue,2,k,None,,,,,,,,,0,228,228,228,,,,,,,,,,,,,,,,,,,,,,,,,,,,,,,,,,,,,main,None,None,1,1.4983104999992065,725.8665274000086,None,None,1,,,,,,,,,,,,,,115,21,Female,2022-05-05_09h47.47.670,Parachute,2022.1.1,60.070161944931655,
negative,blue,1,None,k,,,,,,,,,0,229,229,229,,,,,,,,,,,,,,,,,,,,,,,,,,,,,,,,,,,,,main,k,k,1,1.0200624999997672,728.3661026000045,None,None,0,,,,,,,,,,,,,,115,21,Female,2022-05-05_09h47.47.670,Parachute,2022.1.1,60.070161944931655,
positive,yellow,1,None,k,,,,,,,,,0,230,230,230,,,,,,,,,,,,,,,,,,,,,,,,,,,,,,,,,,,,,main,k,k,1,0.765029100002721,730.3875518999994,None,None,0,,,,,,,,,,,,,,115,21,Female,2022-05-05_09h47.47.670,Parachute,2022.1.1,60.070161944931655,
negative,blue,2,None,k,,,,,,,,,0,231,231,231,,,,,,,,,,,,,,,,,,,,,,,,,,,,,,,,,,,,,main,k,k,1,0.9655104000121355,732.1545307000051,None,None,0,,,,,,,,,,,,,,115,21,Female,2022-05-05_09h47.47.670,Parachute,2022.1.1,60.070161944931655,
negative,red,1,None,None,,,,,,,,,0,232,232,232,,,,,,,,,,,,,,,,,,,,,,,,,,,,,,,,,,,,,main,None,None,1,1.4938237000023946,734.1209636999993,None,None,1,,,,,,,,,,,,,,115,21,Female,2022-05-05_09h47.47.670,Parachute,2022.1.1,60.070161944931655,
positive,blue,2,k,None,,,,,,,,,0,233,233,233,,,,,,,,,,,,,,,,,,,,,,,,,,,,,,,,,,,,,main,None,None,1,1.4981298000202514,736.6167871000071,None,None,1,,,,,,,,,,,,,,115,21,Female,2022-05-05_09h47.47.670,Parachute,2022.1.1,60.070161944931655,
negative,yellow,1,k,None,,,,,,,,,0,234,234,234,,,,,,,,,,,,,,,,,,,,,,,,,,,,,,,,,,,,,main,None,None,1,1.4983741999894846,739.1166138999979,None,None,1,,,,,,,,,,,,,,115,21,Female,2022-05-05_09h47.47.670,Parachute,2022.1.1,60.070161944931655,
negative,yellow,2,k,None,,,,,,,,,0,235,235,235,,,,,,,,,,,,,,,,,,,,,,,,,,,,,,,,,,,,,main,None,None,1,1.4988668999867514,741.6159208999889,None,None,1,,,,,,,,,,,,,,115,21,Female,2022-05-05_09h47.47.670,Parachute,2022.1.1,60.070161944931655,
positive,red,1,None,None,,,,,,,,,0,236,236,236,,,,,,,,,,,,,,,,,,,,,,,,,,,,,,,,,,,,,main,None,None,1,1.4993104999884963,744.1166608000058,None,None,1,,,,,,,,,,,,,,115,21,Female,2022-05-05_09h47.47.670,Parachute,2022.1.1,60.070161944931655,
negative,red,2,None,None,,,,,,,,,0,237,237,237,,,,,,,,,,,,,,,,,,,,,,,,,,,,,,,,,,,,,main,None,None,1,1.4984670999983791,746.6168570999871,None,None,1,,,,,,,,,,,,,,115,21,Female,2022-05-05_09h47.47.670,Parachute,2022.1.1,60.070161944931655,
negative,blue,1,None,k,,,,,,,,,0,238,238,238,,,,,,,,,,,,,,,,,,,,,,,,,,,,,,,,,,,,,main,k,k,1,0.8871230000222567,749.1162987999851,None,None,0,,,,,,,,,,,,,,115,21,Female,2022-05-05_09h47.47.670,Parachute,2022.1.1,60.070161944931655,
positive,blue,1,k,None,,,,,,,,,0,239,239,239,,,,,,,,,,,,,,,,,,,,,,,,,,,,,,,,,,,,,main,None,None,1,1.4936916999868117,751.0142499000067,None,None,1,,,,,,,,,,,,,,115,21,Female,2022-05-05_09h47.47.670,Parachute,2022.1.1,60.070161944931655,
,,,,,,,,,,,,,,,,,,,,,,,,,,,,,,,,,,,,,,,,,,,,,,,,,,,,,,,,,,,,,,,,,,,,,,,,,753.4993628000084,None,,,,,,,,
