distractor,target,set,ans1,ans2,rep_loop4.thisRepN,rep_loop4.thisTrialN,rep_loop4.thisN,rep_loop4.thisIndex,st2_prac_loop.thisRepN,st2_prac_loop.thisTrialN,st2_prac_loop.thisN,st2_prac_loop.thisIndex,st2_main_loop.thisRepN,st2_main_loop.thisTrialN,st2_main_loop.thisN,st2_main_loop.thisIndex,image_4.started,image_4.stopped,mouse_7.x,mouse_7.y,mouse_7.leftButton,mouse_7.midButton,mouse_7.rightButton,sound_2.started,sound_2.stopped,key_resp_3.keys,mouse_5.x,mouse_5.y,mouse_5.leftButton,mouse_5.midButton,mouse_5.rightButton,mouse_5.started,mouse_5.stopped,yes_text2.started,yes_text2.stopped,no_text2.started,no_text2.stopped,mouse_3.x,mouse_3.y,mouse_3.leftButton,mouse_3.midButton,mouse_3.rightButton,mouse_3.started,mouse_3.stopped,st_prac_back.started,st_prac_back.stopped,st_prac_text.started,st_prac_text.stopped,st_fix_back.started,st_fix_back.stopped,st_fix_2.started,st_fix_2.stopped,main_prac,st_ans,st_res,st_corr,st_rt,st_back.started,st_back.stopped,st2_resp.keys,st2_resp.corr,st_main_back.started,st_main_back.stopped,st_main_text.started,st_main_text.stopped,mouse_4.x,mouse_4.y,mouse_4.leftButton,mouse_4.midButton,mouse_4.rightButton,mouse_4.started,mouse_4.stopped,text_2.started,text_2.stopped,id*,age*,gender*,date,expName,psychopyVersion,frameRate,
,,,,,,,,,,,,,,,,,34.166525999986334,None,-0.046296295,-0.17962962,0,0,0,,,,,,,,,,,,,,,,,,,,,,,,,,,,,,,,,,,,,,,,,,,,,,,,,,,,116,24,Female,2022-05-05_11h25.50.869,Parachute,2022.1.1,60.2447745171287,
negative,yellow,1,k,None,,,,,0,0,0,0,,,,,,,,,,,,41.84419768000371,None,None,0.21296297,-0.40925926,0,0,0,1.0033755800395738,None,99.32891459998791,None,99.32891459998791,None,-0.09351852,-0.09351852,0,0,0,0.013272279989905655,None,102.68431449998752,None,102.68431449998752,None,104.69952460000059,None,104.69952460000059,None,prac,k,k,1,1.5648931000032462,106.70833140000468,None,None,0,,,,,,,,,,,,,,116,24,Female,2022-05-05_11h25.50.869,Parachute,2022.1.1,60.2447745171287,
positive,red,2,None,None,,,,,0,1,1,1,,,,,,,,,,,,,,,,,,,,,,,,,,,,,,,,,,,,,,,,,prac,None,None,1,1.5020206000190228,110.29594549999456,None,None,1,,,,,,,,,,,,,,116,24,Female,2022-05-05_11h25.50.869,Parachute,2022.1.1,60.2447745171287,
negative,blue,2,None,k,,,,,0,2,2,2,,,,,,,,,,,,,,,,,,,,,,,,,,,,,,,,,,,,,,,,,prac,None,None,1,1.498348100023577,112.79680389998248,None,None,1,,,,,,,,,,,,,,116,24,Female,2022-05-05_11h25.50.869,Parachute,2022.1.1,60.2447745171287,
positive,yellow,1,None,k,,,,,0,3,3,3,,,,,,,,,,,,,,,,,,,,,,,,,,,,,,,,,,,,,,,,,prac,None,None,1,1.4984608000086155,115.29814939998323,None,None,1,,,,,,,,,,,,,,116,24,Female,2022-05-05_11h25.50.869,Parachute,2022.1.1,60.2447745171287,
negative,blue,2,None,k,,,,,0,4,4,4,,,,,,,,,,,,,,,,,,,,,,,,,,,,,,,,,,,,,,,,,prac,None,None,1,1.4988399999856483,117.79584390000673,None,None,1,,,,,,,,,,,,,,116,24,Female,2022-05-05_11h25.50.869,Parachute,2022.1.1,60.2447745171287,
negative,blue,1,None,k,,,,,0,5,5,5,,,,,,,,,,,,,,,,,,,,,,,,,,,,,,,,,,,,,,,,,prac,None,None,1,1.4991953000135254,120.29623730000458,None,None,1,,,,,,,,,,,,,,116,24,Female,2022-05-05_11h25.50.869,Parachute,2022.1.1,60.2447745171287,
negative,yellow,2,k,None,,,,,0,6,6,6,,,,,,,,,,,,,,,,,,,,,,,,,,,,,,,,,,,,,,,,,prac,k,k,1,0.720917600003304,122.79681249998976,None,None,0,,,,,,,,,,,,,,116,24,Female,2022-05-05_11h25.50.869,Parachute,2022.1.1,60.2447745171287,
negative,red,1,None,None,,,,,0,7,7,7,,,,,,,,,,,,,,,,,,,,,,,,,,,,,,,,,,,,,,,,,prac,None,None,1,1.4929635000007693,124.51786560000619,None,None,1,,,,,,,,,,,,,,116,24,Female,2022-05-05_11h25.50.869,Parachute,2022.1.1,60.2447745171287,
positive,yellow,2,None,k,,,,,0,8,8,8,,,,,,,,,,,,,,,,,,,,,,,,,,,,,,,,,,,,,,,,,prac,None,None,1,1.4981928000051994,127.01350649999222,None,None,1,,,,,,,,,,,,,,116,24,Female,2022-05-05_11h25.50.869,Parachute,2022.1.1,60.2447745171287,
negative,yellow,1,k,None,,,,,0,9,9,9,,,,,,,,,,,,,,,,,,,,,,,,,,,,,,,,,,,,,,,,,prac,k,k,1,0.9342958999914117,129.5135578000045,None,None,0,,,,,,,,,,,,,,116,24,Female,2022-05-05_11h25.50.869,Parachute,2022.1.1,60.2447745171287,
positive,yellow,2,None,k,,,,,0,10,10,10,,,,,,,,,,,,,,,,,,,,,,,,,,,,,,,,,,,,,,,,,prac,None,None,1,1.4965635999978986,131.44909459998598,None,None,1,,,,,,,,,,,,,,116,24,Female,2022-05-05_11h25.50.869,Parachute,2022.1.1,60.2447745171287,
negative,yellow,2,k,None,,,,,0,11,11,11,,,,,,,,,,,,,,,,,,,,,,,,,,,,,,,,,,,,,,,,,prac,k,k,1,1.2873557999846525,133.94669630000135,None,None,0,,,,,,,,,,,,,,116,24,Female,2022-05-05_11h25.50.869,Parachute,2022.1.1,60.2447745171287,
negative,red,2,None,None,,,,,0,12,12,12,,,,,,,,,,,,,,,,,,,,,,,,,,,,,,,,,,,,,,,,,prac,None,None,1,1.493775300012203,136.23524519999046,None,None,1,,,,,,,,,,,,,,116,24,Female,2022-05-05_11h25.50.869,Parachute,2022.1.1,60.2447745171287,
positive,red,1,None,None,,,,,0,13,13,13,,,,,,,,,,,,,,,,,,,,,,,,,,,,,,,,,,,,,,,,,prac,None,None,1,1.4979072000132874,138.73008730000583,None,None,1,,,,,,,,,,,,,,116,24,Female,2022-05-05_11h25.50.869,Parachute,2022.1.1,60.2447745171287,
positive,blue,2,k,None,,,,,0,14,14,14,,,,,,,,,,,,,,,,,,,,,,,,,,,,,,,,,,,,,,,,,prac,k,k,1,0.7872367999807466,141.2302697999985,None,None,0,,,,,,,,,,,,,,116,24,Female,2022-05-05_11h25.50.869,Parachute,2022.1.1,60.2447745171287,
positive,blue,1,k,None,,,,,0,15,15,15,,,,,,,,,,,,,,,,,,,,,,,,,,,,,,,,,,,,,,,,,prac,k,k,1,0.632830600021407,143.01850829998148,None,None,0,,,,,,,,,,,,,,116,24,Female,2022-05-05_11h25.50.869,Parachute,2022.1.1,60.2447745171287,
negative,blue,1,None,k,,,,,0,16,16,16,,,,,,,,,,,,,,,,,,,,,,,,,,,,,,,,,,,,,,,,,prac,None,None,1,1.4928471999883186,144.65172389999498,None,None,1,,,,,,,,,,,,,,116,24,Female,2022-05-05_11h25.50.869,Parachute,2022.1.1,60.2447745171287,
positive,blue,2,k,None,,,,,0,17,17,17,,,,,,,,,,,,,,,,,,,,,,,,,,,,,,,,,,,,,,,,,prac,k,k,1,0.8208232999895699,147.14708239998436,None,None,0,,,,,,,,,,,,,,116,24,Female,2022-05-05_11h25.50.869,Parachute,2022.1.1,60.2447745171287,
positive,blue,1,k,None,,,,,0,18,18,18,,,,,,,,,,,,,,,,,,,,,,,,,,,,,,,,,,,,,,,,,prac,k,k,1,0.6289093000232242,148.9782387999876,None,None,0,,,,,,,,,,,,,,116,24,Female,2022-05-05_11h25.50.869,Parachute,2022.1.1,60.2447745171287,
positive,yellow,1,None,k,,,,,0,19,19,19,,,,,,,,,,,,,,,,,,,,,,,,,,,,,,,,,,,,,,,,,prac,None,None,1,1.4957496999995783,150.6011276000063,None,None,1,,,,,,,,,,,,,,116,24,Female,2022-05-05_11h25.50.869,Parachute,2022.1.1,60.2447745171287,
negative,yellow,1,k,None,,,,,1,0,20,0,,,,,,,,,,,,,,,,,,,,,,,,,,,,,,,,,,,,,,,,,prac,k,k,1,1.2872728999936953,153.09710119999363,None,None,0,,,,,,,,,,,,,,116,24,Female,2022-05-05_11h25.50.869,Parachute,2022.1.1,60.2447745171287,
positive,red,2,None,None,,,,,1,1,21,1,,,,,,,,,,,,,,,,,,,,,,,,,,,,,,,,,,,,,,,,,prac,None,None,1,1.4933763000008184,155.38548420000006,None,None,1,,,,,,,,,,,,,,116,24,Female,2022-05-05_11h25.50.869,Parachute,2022.1.1,60.2447745171287,
negative,blue,2,None,k,,,,,1,2,22,2,,,,,,,,,,,,,,,,,,,,,,,,,,,,,,,,,,,,,,,,,prac,None,None,1,1.4985977000033017,157.8807986000029,None,None,1,,,,,,,,,,,,,,116,24,Female,2022-05-05_11h25.50.869,Parachute,2022.1.1,60.2447745171287,
positive,yellow,1,None,k,,,,,1,3,23,3,,,,,,,,,,,,,,,,,,,,,,,,,,,,,,,,,,,,,,,,,prac,None,None,1,1.4983020999934524,160.38086360000307,None,None,1,,,,,,,,,,,,,,116,24,Female,2022-05-05_11h25.50.869,Parachute,2022.1.1,60.2447745171287,
negative,blue,2,None,k,,,,,1,4,24,4,,,,,,,,,,,,,,,,,,,,,,,,,,,,,,,,,,,,,,,,,prac,None,None,1,1.4993963000015356,162.88051960000303,None,None,1,,,,,,,,,,,,,,116,24,Female,2022-05-05_11h25.50.869,Parachute,2022.1.1,60.2447745171287,
negative,blue,1,None,k,,,,,1,5,25,5,,,,,,,,,,,,,,,,,,,,,,,,,,,,,,,,,,,,,,,,,prac,None,None,1,1.4985908000089694,165.38139140000567,None,None,1,,,,,,,,,,,,,,116,24,Female,2022-05-05_11h25.50.869,Parachute,2022.1.1,60.2447745171287,
negative,yellow,2,k,None,,,,,1,6,26,6,,,,,,,,,,,,,,,,,,,,,,,,,,,,,,,,,,,,,,,,,prac,k,k,1,1.32024219998857,167.88128089997917,None,None,0,,,,,,,,,,,,,,116,24,Female,2022-05-05_11h25.50.869,Parachute,2022.1.1,60.2447745171287,
negative,red,1,None,None,,,,,1,7,27,7,,,,,,,,,,,,,,,,,,,,,,,,,,,,,,,,,,,,,,,,,prac,None,None,1,1.4935342999815475,170.20228159998078,None,None,1,,,,,,,,,,,,,,116,24,Female,2022-05-05_11h25.50.869,Parachute,2022.1.1,60.2447745171287,
positive,yellow,2,None,k,,,,,1,8,28,8,,,,,,,,,,,,,,,,,,,,,,,,,,,,,,,,,,,,,,,,,prac,None,None,1,1.498296300007496,172.69784239999717,None,None,1,,,,,,,,,,,,,,116,24,Female,2022-05-05_11h25.50.869,Parachute,2022.1.1,60.2447745171287,
negative,yellow,1,k,None,,,,,1,9,29,9,,,,,,,,,,,,,,,,,,,,,,,,,,,,,,,,,,,,,,,,,prac,k,k,1,0.7540699999954086,175.19728910000413,None,None,0,,,,,,,,,,,,,,116,24,Female,2022-05-05_11h25.50.869,Parachute,2022.1.1,60.2447745171287,
positive,yellow,2,None,k,,,,,1,10,30,10,,,,,,,,,,,,,,,,,,,,,,,,,,,,,,,,,,,,,,,,,prac,None,None,1,1.4936832000094,176.95243539998773,None,None,1,,,,,,,,,,,,,,116,24,Female,2022-05-05_11h25.50.869,Parachute,2022.1.1,60.2447745171287,
negative,yellow,2,k,None,,,,,1,11,31,11,,,,,,,,,,,,,,,,,,,,,,,,,,,,,,,,,,,,,,,,,prac,k,k,1,0.8336815999937244,179.4487070000032,None,None,0,,,,,,,,,,,,,,116,24,Female,2022-05-05_11h25.50.869,Parachute,2022.1.1,60.2447745171287,
negative,red,2,None,None,,,,,1,12,32,12,,,,,,,,,,,,,,,,,,,,,,,,,,,,,,,,,,,,,,,,,prac,None,None,1,1.496564800007036,181.28444389998913,None,None,1,,,,,,,,,,,,,,116,24,Female,2022-05-05_11h25.50.869,Parachute,2022.1.1,60.2447745171287,
positive,red,1,None,None,,,,,1,13,33,13,,,,,,,,,,,,,,,,,,,,,,,,,,,,,,,,,,,,,,,,,prac,None,None,1,1.498716100002639,183.78105459999642,None,None,1,,,,,,,,,,,,,,116,24,Female,2022-05-05_11h25.50.869,Parachute,2022.1.1,60.2447745171287,
positive,blue,2,k,None,,,,,1,14,34,14,,,,,,,,,,,,,,,,,,,,,,,,,,,,,,,,,,,,,,,,,prac,k,k,1,0.6038695999886841,186.28165449999506,None,None,0,,,,,,,,,,,,,,116,24,Female,2022-05-05_11h25.50.869,Parachute,2022.1.1,60.2447745171287,
positive,blue,1,k,None,,,,,1,15,35,15,,,,,,,,,,,,,,,,,,,,,,,,,,,,,,,,,,,,,,,,,prac,k,k,1,0.9315653999801725,187.88628189999145,None,None,0,,,,,,,,,,,,,,116,24,Female,2022-05-05_11h25.50.869,Parachute,2022.1.1,60.2447745171287,
negative,blue,1,None,k,,,,,1,16,36,16,,,,,,,,,,,,,,,,,,,,,,,,,,,,,,,,,,,,,,,,,prac,None,None,1,1.4938711000140756,189.81944409999414,None,None,1,,,,,,,,,,,,,,116,24,Female,2022-05-05_11h25.50.869,Parachute,2022.1.1,60.2447745171287,
positive,blue,2,k,None,,,,,1,17,37,17,,,,,,,,,,,,,,,,,,,,,,,,,,,,,,,,,,,,,,,,,prac,k,k,1,0.7339906999841332,192.3141423999914,None,None,0,,,,,,,,,,,,,,116,24,Female,2022-05-05_11h25.50.869,Parachute,2022.1.1,60.2447745171287,
positive,blue,1,k,None,,,,,1,18,38,18,,,,,,,,,,,,,,,,,,,,,,,,,,,,,,,,,,,,,,,,,prac,k,k,1,0.9018272000248544,194.04993459998514,None,None,0,,,,,,,,,,,,,,116,24,Female,2022-05-05_11h25.50.869,Parachute,2022.1.1,60.2447745171287,
positive,yellow,1,None,k,,,,,1,19,39,19,,,,,,,,,,,,,,,,,,,,,,,,,,,,,,,,,,,,,,,,,prac,None,k,0,0.5493272000167053,195.95347079998464,None,None,1,,,,,,,,,,,,,,116,24,Female,2022-05-05_11h25.50.869,Parachute,2022.1.1,60.2447745171287,
,,,,,,,,,,,,,,,,,,,,,,,,,,,,,,,,,,,,,,,,,,,,,,,,,,,,,,,,,,,,,,198.52925490000052,None,198.52925490000052,None,0.055555556,0.012037037,0,0,0,0.016104180016554892,None,,,116,24,Female,2022-05-05_11h25.50.869,Parachute,2022.1.1,60.2447745171287,
negative,yellow,2,k,None,,,,,,,,,0,0,0,0,,,,,,,,,,,,,,,,,,,,,,,,,,,,,,,,,199.19837979998556,None,199.19837979998556,None,main,k,k,1,1.0873428999911994,201.2289424999908,None,None,0,,,,,,,,,,,,,,116,24,Female,2022-05-05_11h25.50.869,Parachute,2022.1.1,60.2447745171287,
positive,red,1,None,None,,,,,,,,,0,1,1,1,,,,,,,,,,,,,,,,,,,,,,,,,,,,,,,,,,,,,main,None,None,1,1.4939389000064693,203.3199771999789,None,None,1,,,,,,,,,,,,,,116,24,Female,2022-05-05_11h25.50.869,Parachute,2022.1.1,60.2447745171287,
positive,blue,2,k,None,,,,,,,,,0,2,2,2,,,,,,,,,,,,,,,,,,,,,,,,,,,,,,,,,,,,,main,k,k,1,0.7197632000024896,205.81514979997883,None,None,0,,,,,,,,,,,,,,116,24,Female,2022-05-05_11h25.50.869,Parachute,2022.1.1,60.2447745171287,
positive,blue,1,k,None,,,,,,,,,0,3,3,3,,,,,,,,,,,,,,,,,,,,,,,,,,,,,,,,,,,,,main,k,k,1,0.7807280000124592,207.53677779997815,None,None,0,,,,,,,,,,,,,,116,24,Female,2022-05-05_11h25.50.869,Parachute,2022.1.1,60.2447745171287,
negative,yellow,2,k,None,,,,,,,,,0,4,4,4,,,,,,,,,,,,,,,,,,,,,,,,,,,,,,,,,,,,,main,k,k,1,0.8267691999790259,209.31905729998834,None,None,0,,,,,,,,,,,,,,116,24,Female,2022-05-05_11h25.50.869,Parachute,2022.1.1,60.2447745171287,
positive,yellow,2,None,k,,,,,,,,,0,5,5,5,,,,,,,,,,,,,,,,,,,,,,,,,,,,,,,,,,,,,main,None,None,1,1.500271500000963,211.14785300000221,None,None,1,,,,,,,,,,,,,,116,24,Female,2022-05-05_11h25.50.869,Parachute,2022.1.1,60.2447745171287,
negative,blue,2,None,k,,,,,,,,,0,6,6,6,,,,,,,,,,,,,,,,,,,,,,,,,,,,,,,,,,,,,main,None,None,1,1.49848340000608,213.64816989999963,None,None,1,,,,,,,,,,,,,,116,24,Female,2022-05-05_11h25.50.869,Parachute,2022.1.1,60.2447745171287,
positive,red,2,None,None,,,,,,,,,0,7,7,7,,,,,,,,,,,,,,,,,,,,,,,,,,,,,,,,,,,,,main,None,None,1,1.4994339999975637,216.14848599999095,None,None,1,,,,,,,,,,,,,,116,24,Female,2022-05-05_11h25.50.869,Parachute,2022.1.1,60.2447745171287,
positive,yellow,1,None,k,,,,,,,,,0,8,8,8,,,,,,,,,,,,,,,,,,,,,,,,,,,,,,,,,,,,,main,None,None,1,1.4983483999967575,218.6488990999933,None,None,1,,,,,,,,,,,,,,116,24,Female,2022-05-05_11h25.50.869,Parachute,2022.1.1,60.2447745171287,
negative,red,1,None,None,,,,,,,,,0,9,9,9,,,,,,,,,,,,,,,,,,,,,,,,,,,,,,,,,,,,,main,None,None,1,1.4986419000197202,221.14858799998183,None,None,1,,,,,,,,,,,,,,116,24,Female,2022-05-05_11h25.50.869,Parachute,2022.1.1,60.2447745171287,
positive,yellow,1,None,k,,,,,,,,,0,10,10,10,,,,,,,,,,,,,,,,,,,,,,,,,,,,,,,,,,,,,main,None,None,1,1.4989426000101957,223.6487034999882,None,None,1,,,,,,,,,,,,,,116,24,Female,2022-05-05_11h25.50.869,Parachute,2022.1.1,60.2447745171287,
negative,yellow,1,k,None,,,,,,,,,0,11,11,11,,,,,,,,,,,,,,,,,,,,,,,,,,,,,,,,,,,,,main,k,k,1,1.337547800008906,226.14821640000446,None,None,0,,,,,,,,,,,,,,116,24,Female,2022-05-05_11h25.50.869,Parachute,2022.1.1,60.2447745171287,
negative,yellow,1,k,None,,,,,,,,,0,12,12,12,,,,,,,,,,,,,,,,,,,,,,,,,,,,,,,,,,,,,main,k,k,1,0.7464682999998331,228.4879153999791,None,None,0,,,,,,,,,,,,,,116,24,Female,2022-05-05_11h25.50.869,Parachute,2022.1.1,60.2447745171287,
negative,red,2,None,None,,,,,,,,,0,13,13,13,,,,,,,,,,,,,,,,,,,,,,,,,,,,,,,,,,,,,main,None,None,1,1.4956553000083659,230.23579189999145,None,None,1,,,,,,,,,,,,,,116,24,Female,2022-05-05_11h25.50.869,Parachute,2022.1.1,60.2447745171287,
positive,yellow,2,None,k,,,,,,,,,0,14,14,14,,,,,,,,,,,,,,,,,,,,,,,,,,,,,,,,,,,,,main,None,None,1,1.4984266000101343,232.73313409998082,None,None,1,,,,,,,,,,,,,,116,24,Female,2022-05-05_11h25.50.869,Parachute,2022.1.1,60.2447745171287,
positive,blue,1,k,None,,,,,,,,,0,15,15,15,,,,,,,,,,,,,,,,,,,,,,,,,,,,,,,,,,,,,main,k,k,1,0.7508501000120305,235.23344809998525,None,None,0,,,,,,,,,,,,,,116,24,Female,2022-05-05_11h25.50.869,Parachute,2022.1.1,60.2447745171287,
negative,blue,1,None,k,,,,,,,,,0,16,16,16,,,,,,,,,,,,,,,,,,,,,,,,,,,,,,,,,,,,,main,None,None,1,1.4957423999730963,236.98524680000264,None,None,1,,,,,,,,,,,,,,116,24,Female,2022-05-05_11h25.50.869,Parachute,2022.1.1,60.2447745171287,
positive,blue,2,k,None,,,,,,,,,0,17,17,17,,,,,,,,,,,,,,,,,,,,,,,,,,,,,,,,,,,,,main,k,k,1,0.8512016000167932,239.48299319998478,None,None,0,,,,,,,,,,,,,,116,24,Female,2022-05-05_11h25.50.869,Parachute,2022.1.1,60.2447745171287,
negative,blue,2,None,k,,,,,,,,,0,18,18,18,,,,,,,,,,,,,,,,,,,,,,,,,,,,,,,,,,,,,main,None,None,1,1.4958025999949314,241.33574179999414,None,None,1,,,,,,,,,,,,,,116,24,Female,2022-05-05_11h25.50.869,Parachute,2022.1.1,60.2447745171287,
negative,blue,1,None,k,,,,,,,,,0,19,19,19,,,,,,,,,,,,,,,,,,,,,,,,,,,,,,,,,,,,,main,None,None,1,1.498442599986447,243.83268459999817,None,None,1,,,,,,,,,,,,,,116,24,Female,2022-05-05_11h25.50.869,Parachute,2022.1.1,60.2447745171287,
negative,blue,1,None,k,,,,,,,,,0,20,20,20,,,,,,,,,,,,,,,,,,,,,,,,,,,,,,,,,,,,,main,None,None,1,1.4986944000120275,246.33273249998456,None,None,1,,,,,,,,,,,,,,116,24,Female,2022-05-05_11h25.50.869,Parachute,2022.1.1,60.2447745171287,
negative,blue,2,None,k,,,,,,,,,0,21,21,21,,,,,,,,,,,,,,,,,,,,,,,,,,,,,,,,,,,,,main,None,None,1,1.4982224999985192,248.83257759999833,None,None,1,,,,,,,,,,,,,,116,24,Female,2022-05-05_11h25.50.869,Parachute,2022.1.1,60.2447745171287,
negative,red,1,None,None,,,,,,,,,0,22,22,22,,,,,,,,,,,,,,,,,,,,,,,,,,,,,,,,,,,,,main,None,None,1,1.4991995000164025,251.3326860999805,None,None,1,,,,,,,,,,,,,,116,24,Female,2022-05-05_11h25.50.869,Parachute,2022.1.1,60.2447745171287,
positive,red,2,None,None,,,,,,,,,0,23,23,23,,,,,,,,,,,,,,,,,,,,,,,,,,,,,,,,,,,,,main,None,None,1,1.498214499995811,253.83313839999028,None,None,1,,,,,,,,,,,,,,116,24,Female,2022-05-05_11h25.50.869,Parachute,2022.1.1,60.2447745171287,
negative,red,2,None,None,,,,,,,,,0,24,24,24,,,,,,,,,,,,,,,,,,,,,,,,,,,,,,,,,,,,,main,None,None,1,1.4987426000006963,256.3328913000005,None,None,1,,,,,,,,,,,,,,116,24,Female,2022-05-05_11h25.50.869,Parachute,2022.1.1,60.2447745171287,
positive,blue,2,k,None,,,,,,,,,0,25,25,25,,,,,,,,,,,,,,,,,,,,,,,,,,,,,,,,,,,,,main,k,k,1,1.3374212000053376,258.83303889998933,None,None,0,,,,,,,,,,,,,,116,24,Female,2022-05-05_11h25.50.869,Parachute,2022.1.1,60.2447745171287,
negative,yellow,1,k,None,,,,,,,,,0,26,26,26,,,,,,,,,,,,,,,,,,,,,,,,,,,,,,,,,,,,,main,k,k,1,1.2325029999774415,261.17157599999337,None,None,0,,,,,,,,,,,,,,116,24,Female,2022-05-05_11h25.50.869,Parachute,2022.1.1,60.2447745171287,
positive,blue,2,k,None,,,,,,,,,0,27,27,27,,,,,,,,,,,,,,,,,,,,,,,,,,,,,,,,,,,,,main,k,k,1,0.9597579000110272,263.4052223000035,None,None,0,,,,,,,,,,,,,,116,24,Female,2022-05-05_11h25.50.869,Parachute,2022.1.1,60.2447745171287,
negative,blue,2,None,k,,,,,,,,,0,28,28,28,,,,,,,,,,,,,,,,,,,,,,,,,,,,,,,,,,,,,main,None,None,1,1.4973874000133947,265.36741809998057,None,None,1,,,,,,,,,,,,,,116,24,Female,2022-05-05_11h25.50.869,Parachute,2022.1.1,60.2447745171287,
positive,red,1,None,None,,,,,,,,,0,29,29,29,,,,,,,,,,,,,,,,,,,,,,,,,,,,,,,,,,,,,main,None,None,1,1.4993613999977242,267.86600969999563,None,None,1,,,,,,,,,,,,,,116,24,Female,2022-05-05_11h25.50.869,Parachute,2022.1.1,60.2447745171287,
positive,blue,1,k,None,,,,,,,,,0,30,30,30,,,,,,,,,,,,,,,,,,,,,,,,,,,,,,,,,,,,,main,k,k,1,0.7524823000130709,270.3665654999786,None,None,0,,,,,,,,,,,,,,116,24,Female,2022-05-05_11h25.50.869,Parachute,2022.1.1,60.2447745171287,
positive,yellow,1,None,k,,,,,,,,,0,31,31,31,,,,,,,,,,,,,,,,,,,,,,,,,,,,,,,,,,,,,main,None,None,1,1.4946488999994472,272.12078599998495,None,None,1,,,,,,,,,,,,,,116,24,Female,2022-05-05_11h25.50.869,Parachute,2022.1.1,60.2447745171287,
negative,yellow,2,k,None,,,,,,,,,0,32,32,32,,,,,,,,,,,,,,,,,,,,,,,,,,,,,,,,,,,,,main,k,k,1,1.1334781000041403,274.6164994999999,None,None,0,,,,,,,,,,,,,,116,24,Female,2022-05-05_11h25.50.869,Parachute,2022.1.1,60.2447745171287,
negative,blue,1,None,k,,,,,,,,,0,33,33,33,,,,,,,,,,,,,,,,,,,,,,,,,,,,,,,,,,,,,main,None,None,1,1.4971900999953505,276.7521553999977,None,None,1,,,,,,,,,,,,,,116,24,Female,2022-05-05_11h25.50.869,Parachute,2022.1.1,60.2447745171287,
positive,blue,1,k,None,,,,,,,,,0,34,34,34,,,,,,,,,,,,,,,,,,,,,,,,,,,,,,,,,,,,,main,k,k,1,0.7171697999874596,279.250111500005,None,None,0,,,,,,,,,,,,,,116,24,Female,2022-05-05_11h25.50.869,Parachute,2022.1.1,60.2447745171287,
negative,yellow,1,k,None,,,,,,,,,0,35,35,35,,,,,,,,,,,,,,,,,,,,,,,,,,,,,,,,,,,,,main,k,k,1,1.0184522999916226,280.96904529997846,None,None,0,,,,,,,,,,,,,,116,24,Female,2022-05-05_11h25.50.869,Parachute,2022.1.1,60.2447745171287,
positive,yellow,2,None,k,,,,,,,,,0,36,36,36,,,,,,,,,,,,,,,,,,,,,,,,,,,,,,,,,,,,,main,None,None,1,1.493066800001543,282.9881635000056,None,None,1,,,,,,,,,,,,,,116,24,Female,2022-05-05_11h25.50.869,Parachute,2022.1.1,60.2447745171287,
positive,yellow,2,None,k,,,,,,,,,0,37,37,37,,,,,,,,,,,,,,,,,,,,,,,,,,,,,,,,,,,,,main,None,None,1,1.498783499991987,285.4831594999996,None,None,1,,,,,,,,,,,,,,116,24,Female,2022-05-05_11h25.50.869,Parachute,2022.1.1,60.2447745171287,
negative,yellow,2,k,None,,,,,,,,,0,38,38,38,,,,,,,,,,,,,,,,,,,,,,,,,,,,,,,,,,,,,main,k,k,1,0.8705023000075016,287.98351869999897,None,None,0,,,,,,,,,,,,,,116,24,Female,2022-05-05_11h25.50.869,Parachute,2022.1.1,60.2447745171287,
positive,yellow,1,None,k,,,,,,,,,0,39,39,39,,,,,,,,,,,,,,,,,,,,,,,,,,,,,,,,,,,,,main,None,None,1,1.4931553999776952,289.85527999998885,None,None,1,,,,,,,,,,,,,,116,24,Female,2022-05-05_11h25.50.869,Parachute,2022.1.1,60.2447745171287,
negative,yellow,2,k,None,,,,,,,,,0,40,40,40,,,,,,,,,,,,,,,,,,,,,,,,,,,,,,,,,,,,,main,k,k,1,0.8876033999840729,292.3501663999923,None,None,0,,,,,,,,,,,,,,116,24,Female,2022-05-05_11h25.50.869,Parachute,2022.1.1,60.2447745171287,
positive,blue,2,k,None,,,,,,,,,0,41,41,41,,,,,,,,,,,,,,,,,,,,,,,,,,,,,,,,,,,,,main,k,k,1,0.8986542999919038,294.23892949998844,None,None,0,,,,,,,,,,,,,,116,24,Female,2022-05-05_11h25.50.869,Parachute,2022.1.1,60.2447745171287,
positive,blue,2,k,None,,,,,,,,,0,42,42,42,,,,,,,,,,,,,,,,,,,,,,,,,,,,,,,,,,,,,main,k,k,1,0.7278232999960892,296.148425899999,None,None,0,,,,,,,,,,,,,,116,24,Female,2022-05-05_11h25.50.869,Parachute,2022.1.1,60.2447745171287,
negative,blue,2,None,k,,,,,,,,,0,43,43,43,,,,,,,,,,,,,,,,,,,,,,,,,,,,,,,,,,,,,main,None,None,1,1.4980951999896206,297.8679867000028,None,None,1,,,,,,,,,,,,,,116,24,Female,2022-05-05_11h25.50.869,Parachute,2022.1.1,60.2447745171287,
negative,red,1,None,None,,,,,,,,,0,44,44,44,,,,,,,,,,,,,,,,,,,,,,,,,,,,,,,,,,,,,main,None,None,1,1.4984770999872126,300.36743699997896,None,None,1,,,,,,,,,,,,,,116,24,Female,2022-05-05_11h25.50.869,Parachute,2022.1.1,60.2447745171287,
negative,yellow,1,k,None,,,,,,,,,0,45,45,45,,,,,,,,,,,,,,,,,,,,,,,,,,,,,,,,,,,,,main,k,k,1,0.734445100009907,302.8689565999957,None,None,0,,,,,,,,,,,,,,116,24,Female,2022-05-05_11h25.50.869,Parachute,2022.1.1,60.2447745171287,
negative,yellow,1,k,None,,,,,,,,,0,46,46,46,,,,,,,,,,,,,,,,,,,,,,,,,,,,,,,,,,,,,main,k,k,1,1.3478012999985367,304.6039659999951,None,None,0,,,,,,,,,,,,,,116,24,Female,2022-05-05_11h25.50.869,Parachute,2022.1.1,60.2447745171287,
positive,red,1,None,None,,,,,,,,,0,47,47,47,,,,,,,,,,,,,,,,,,,,,,,,,,,,,,,,,,,,,main,None,None,1,1.496822199987946,306.95245479998994,None,None,1,,,,,,,,,,,,,,116,24,Female,2022-05-05_11h25.50.869,Parachute,2022.1.1,60.2447745171287,
positive,yellow,1,None,k,,,,,,,,,0,48,48,48,,,,,,,,,,,,,,,,,,,,,,,,,,,,,,,,,,,,,main,None,None,1,1.4984538000135217,309.4510665999842,None,None,1,,,,,,,,,,,,,,116,24,Female,2022-05-05_11h25.50.869,Parachute,2022.1.1,60.2447745171287,
negative,blue,1,None,k,,,,,,,,,0,49,49,49,,,,,,,,,,,,,,,,,,,,,,,,,,,,,,,,,,,,,main,None,None,1,1.4992570000176784,311.9503104999894,None,None,1,,,,,,,,,,,,,,116,24,Female,2022-05-05_11h25.50.869,Parachute,2022.1.1,60.2447745171287,
positive,yellow,2,None,k,,,,,,,,,0,50,50,50,,,,,,,,,,,,,,,,,,,,,,,,,,,,,,,,,,,,,main,None,None,1,1.4985725000151433,314.45127580000553,None,None,1,,,,,,,,,,,,,,116,24,Female,2022-05-05_11h25.50.869,Parachute,2022.1.1,60.2447745171287,
negative,blue,1,None,k,,,,,,,,,0,51,51,51,,,,,,,,,,,,,,,,,,,,,,,,,,,,,,,,,,,,,main,None,None,1,1.4984507999906782,316.95090369999525,None,None,1,,,,,,,,,,,,,,116,24,Female,2022-05-05_11h25.50.869,Parachute,2022.1.1,60.2447745171287,
positive,red,2,None,None,,,,,,,,,0,52,52,52,,,,,,,,,,,,,,,,,,,,,,,,,,,,,,,,,,,,,main,None,None,1,1.4988328000181355,319.4508430999995,None,None,1,,,,,,,,,,,,,,116,24,Female,2022-05-05_11h25.50.869,Parachute,2022.1.1,60.2447745171287,
positive,yellow,2,None,k,,,,,,,,,0,53,53,53,,,,,,,,,,,,,,,,,,,,,,,,,,,,,,,,,,,,,main,None,None,1,1.49850940000033,321.9518295000016,None,None,1,,,,,,,,,,,,,,116,24,Female,2022-05-05_11h25.50.869,Parachute,2022.1.1,60.2447745171287,
negative,red,2,None,None,,,,,,,,,0,54,54,54,,,,,,,,,,,,,,,,,,,,,,,,,,,,,,,,,,,,,main,None,None,1,1.4987638000166044,324.4512809999869,None,None,1,,,,,,,,,,,,,,116,24,Female,2022-05-05_11h25.50.869,Parachute,2022.1.1,60.2447745171287,
positive,yellow,1,None,k,,,,,,,,,0,55,55,55,,,,,,,,,,,,,,,,,,,,,,,,,,,,,,,,,,,,,main,None,None,1,1.4990217000013217,326.95064419999835,None,None,1,,,,,,,,,,,,,,116,24,Female,2022-05-05_11h25.50.869,Parachute,2022.1.1,60.2447745171287,
negative,blue,2,None,k,,,,,,,,,0,56,56,56,,,,,,,,,,,,,,,,,,,,,,,,,,,,,,,,,,,,,main,None,None,1,1.4982497000019066,329.45180869998876,None,None,1,,,,,,,,,,,,,,116,24,Female,2022-05-05_11h25.50.869,Parachute,2022.1.1,60.2447745171287,
positive,blue,1,k,None,,,,,,,,,0,57,57,57,,,,,,,,,,,,,,,,,,,,,,,,,,,,,,,,,,,,,main,k,k,1,0.9338993999990635,331.9510417999991,None,None,0,,,,,,,,,,,,,,116,24,Female,2022-05-05_11h25.50.869,Parachute,2022.1.1,60.2447745171287,
positive,blue,1,k,None,,,,,,,,,0,58,58,58,,,,,,,,,,,,,,,,,,,,,,,,,,,,,,,,,,,,,main,k,k,1,0.8189631999994162,333.8867438999878,None,None,0,,,,,,,,,,,,,,116,24,Female,2022-05-05_11h25.50.869,Parachute,2022.1.1,60.2447745171287,
negative,yellow,2,k,None,,,,,,,,,0,59,59,59,,,,,,,,,,,,,,,,,,,,,,,,,,,,,,,,,,,,,main,k,k,1,1.1650878000073135,335.7061404999986,None,None,0,,,,,,,,,,,,,,116,24,Female,2022-05-05_11h25.50.869,Parachute,2022.1.1,60.2447745171287,
positive,red,2,None,None,,,,,,,,,0,60,60,60,,,,,,,,,,,,,,,,,,,,,,,,,,,,,,,,,,,,,main,None,None,1,1.4937162999995053,337.8728414999787,None,None,1,,,,,,,,,,,,,,116,24,Female,2022-05-05_11h25.50.869,Parachute,2022.1.1,60.2447745171287,
negative,yellow,1,k,None,,,,,,,,,0,61,61,61,,,,,,,,,,,,,,,,,,,,,,,,,,,,,,,,,,,,,main,k,k,1,0.9514287000056356,340.3677783999883,None,None,0,,,,,,,,,,,,,,116,24,Female,2022-05-05_11h25.50.869,Parachute,2022.1.1,60.2447745171287,
negative,red,1,None,None,,,,,,,,,0,62,62,62,,,,,,,,,,,,,,,,,,,,,,,,,,,,,,,,,,,,,main,None,None,1,1.4961534999893047,342.32125409998116,None,None,1,,,,,,,,,,,,,,116,24,Female,2022-05-05_11h25.50.869,Parachute,2022.1.1,60.2447745171287,
negative,blue,1,None,k,,,,,,,,,0,63,63,63,,,,,,,,,,,,,,,,,,,,,,,,,,,,,,,,,,,,,main,None,None,1,1.4984470999916084,344.818202399998,None,None,1,,,,,,,,,,,,,,116,24,Female,2022-05-05_11h25.50.869,Parachute,2022.1.1,60.2447745171287,
positive,blue,2,k,None,,,,,,,,,0,64,64,64,,,,,,,,,,,,,,,,,,,,,,,,,,,,,,,,,,,,,main,k,k,1,0.8996282999869436,347.31787209998583,None,None,0,,,,,,,,,,,,,,116,24,Female,2022-05-05_11h25.50.869,Parachute,2022.1.1,60.2447745171287,
negative,yellow,2,k,None,,,,,,,,,0,65,65,65,,,,,,,,,,,,,,,,,,,,,,,,,,,,,,,,,,,,,main,k,k,1,0.733943300001556,349.21923059999244,None,None,0,,,,,,,,,,,,,,116,24,Female,2022-05-05_11h25.50.869,Parachute,2022.1.1,60.2447745171287,
positive,yellow,2,None,k,,,,,,,,,0,66,66,66,,,,,,,,,,,,,,,,,,,,,,,,,,,,,,,,,,,,,main,None,None,1,1.4960994999855757,350.9546592999832,None,None,1,,,,,,,,,,,,,,116,24,Female,2022-05-05_11h25.50.869,Parachute,2022.1.1,60.2447745171287,
positive,yellow,2,None,k,,,,,,,,,0,67,67,67,,,,,,,,,,,,,,,,,,,,,,,,,,,,,,,,,,,,,main,None,None,1,1.4983607000031043,353.4519997999887,None,None,1,,,,,,,,,,,,,,116,24,Female,2022-05-05_11h25.50.869,Parachute,2022.1.1,60.2447745171287,
positive,red,1,None,None,,,,,,,,,0,68,68,68,,,,,,,,,,,,,,,,,,,,,,,,,,,,,,,,,,,,,main,None,None,1,1.4987599000160117,355.95131899998523,None,None,1,,,,,,,,,,,,,,116,24,Female,2022-05-05_11h25.50.869,Parachute,2022.1.1,60.2447745171287,
positive,yellow,1,None,k,,,,,,,,,0,69,69,69,,,,,,,,,,,,,,,,,,,,,,,,,,,,,,,,,,,,,main,None,None,1,1.4986665999749675,358.45174279998173,None,None,1,,,,,,,,,,,,,,116,24,Female,2022-05-05_11h25.50.869,Parachute,2022.1.1,60.2447745171287,
negative,yellow,2,k,None,,,,,,,,,0,70,70,70,,,,,,,,,,,,,,,,,,,,,,,,,,,,,,,,,,,,,main,k,k,1,0.7868397999845911,360.9517460000061,None,None,0,,,,,,,,,,,,,,116,24,Female,2022-05-05_11h25.50.869,Parachute,2022.1.1,60.2447745171287,
positive,yellow,1,None,k,,,,,,,,,0,71,71,71,,,,,,,,,,,,,,,,,,,,,,,,,,,,,,,,,,,,,main,None,None,1,1.4935385000135284,362.73948910000036,None,None,1,,,,,,,,,,,,,,116,24,Female,2022-05-05_11h25.50.869,Parachute,2022.1.1,60.2447745171287,
negative,blue,1,None,k,,,,,,,,,0,72,72,72,,,,,,,,,,,,,,,,,,,,,,,,,,,,,,,,,,,,,main,None,None,1,1.4988474999845494,365.2351268999919,None,None,1,,,,,,,,,,,,,,116,24,Female,2022-05-05_11h25.50.869,Parachute,2022.1.1,60.2447745171287,
negative,red,2,None,None,,,,,,,,,0,73,73,73,,,,,,,,,,,,,,,,,,,,,,,,,,,,,,,,,,,,,main,None,None,1,1.4986607999890111,367.73517460000585,None,None,1,,,,,,,,,,,,,,116,24,Female,2022-05-05_11h25.50.869,Parachute,2022.1.1,60.2447745171287,
positive,blue,2,k,None,,,,,,,,,0,74,74,74,,,,,,,,,,,,,,,,,,,,,,,,,,,,,,,,,,,,,main,k,k,1,0.9673416999867186,370.2353053999832,None,None,0,,,,,,,,,,,,,,116,24,Female,2022-05-05_11h25.50.869,Parachute,2022.1.1,60.2447745171287,
negative,blue,2,None,k,,,,,,,,,0,75,75,75,,,,,,,,,,,,,,,,,,,,,,,,,,,,,,,,,,,,,main,None,None,1,1.4962288000097033,372.2038094000018,None,None,1,,,,,,,,,,,,,,116,24,Female,2022-05-05_11h25.50.869,Parachute,2022.1.1,60.2447745171287,
negative,blue,2,None,k,,,,,,,,,0,76,76,76,,,,,,,,,,,,,,,,,,,,,,,,,,,,,,,,,,,,,main,None,None,1,1.4989015999890398,374.7019788000034,None,None,1,,,,,,,,,,,,,,116,24,Female,2022-05-05_11h25.50.869,Parachute,2022.1.1,60.2447745171287,
negative,yellow,1,k,None,,,,,,,,,0,77,77,77,,,,,,,,,,,,,,,,,,,,,,,,,,,,,,,,,,,,,main,k,k,1,1.514735999982804,377.2018876999791,None,None,0,,,,,,,,,,,,,,116,24,Female,2022-05-05_11h25.50.869,Parachute,2022.1.1,60.2447745171287,
positive,blue,1,k,None,,,,,,,,,0,78,78,78,,,,,,,,,,,,,,,,,,,,,,,,,,,,,,,,,,,,,main,k,k,1,0.7399476999999024,380.7188814999827,None,None,0,,,,,,,,,,,,,,116,24,Female,2022-05-05_11h25.50.869,Parachute,2022.1.1,60.2447745171287,
positive,blue,1,k,None,,,,,,,,,0,79,79,79,,,,,,,,,,,,,,,,,,,,,,,,,,,,,,,,,,,,,main,k,k,1,0.5456721000082325,382.4694826999912,None,None,0,,,,,,,,,,,,,,116,24,Female,2022-05-05_11h25.50.869,Parachute,2022.1.1,60.2447745171287,
positive,red,2,None,None,,,,,,,,,0,80,80,80,,,,,,,,,,,,,,,,,,,,,,,,,,,,,,,,,,,,,main,None,None,1,1.4961547999992035,384.0052480000013,None,None,1,,,,,,,,,,,,,,116,24,Female,2022-05-05_11h25.50.869,Parachute,2022.1.1,60.2447745171287,
positive,yellow,2,None,k,,,,,,,,,0,81,81,81,,,,,,,,,,,,,,,,,,,,,,,,,,,,,,,,,,,,,main,None,None,1,1.4987663999781944,386.5024010000052,None,None,1,,,,,,,,,,,,,,116,24,Female,2022-05-05_11h25.50.869,Parachute,2022.1.1,60.2447745171287,
positive,blue,1,k,None,,,,,,,,,0,82,82,82,,,,,,,,,,,,,,,,,,,,,,,,,,,,,,,,,,,,,main,k,k,1,0.6168006999942008,389.00270559999626,None,None,0,,,,,,,,,,,,,,116,24,Female,2022-05-05_11h25.50.869,Parachute,2022.1.1,60.2447745171287,
negative,yellow,2,k,None,,,,,,,,,0,83,83,83,,,,,,,,,,,,,,,,,,,,,,,,,,,,,,,,,,,,,main,k,k,1,1.0019986999977846,390.6216611999844,None,None,0,,,,,,,,,,,,,,116,24,Female,2022-05-05_11h25.50.869,Parachute,2022.1.1,60.2447745171287,
positive,blue,2,k,None,,,,,,,,,0,84,84,84,,,,,,,,,,,,,,,,,,,,,,,,,,,,,,,,,,,,,main,k,k,1,0.695649900007993,392.6242222999863,None,None,0,,,,,,,,,,,,,,116,24,Female,2022-05-05_11h25.50.869,Parachute,2022.1.1,60.2447745171287,
positive,yellow,1,None,k,,,,,,,,,0,85,85,85,,,,,,,,,,,,,,,,,,,,,,,,,,,,,,,,,,,,,main,None,None,1,1.4966876999824308,394.321621399984,None,None,1,,,,,,,,,,,,,,116,24,Female,2022-05-05_11h25.50.869,Parachute,2022.1.1,60.2447745171287,
positive,blue,2,k,None,,,,,,,,,0,86,86,86,,,,,,,,,,,,,,,,,,,,,,,,,,,,,,,,,,,,,main,k,k,1,0.7687417000124697,396.8192609999969,None,None,0,,,,,,,,,,,,,,116,24,Female,2022-05-05_11h25.50.869,Parachute,2022.1.1,60.2447745171287,
positive,blue,1,k,None,,,,,,,,,0,87,87,87,,,,,,,,,,,,,,,,,,,,,,,,,,,,,,,,,,,,,main,k,k,1,0.6335038000252098,398.5904891999962,None,None,0,,,,,,,,,,,,,,116,24,Female,2022-05-05_11h25.50.869,Parachute,2022.1.1,60.2447745171287,
negative,yellow,2,k,None,,,,,,,,,0,88,88,88,,,,,,,,,,,,,,,,,,,,,,,,,,,,,,,,,,,,,main,k,k,1,0.7303438999806531,400.2246064999781,None,None,0,,,,,,,,,,,,,,116,24,Female,2022-05-05_11h25.50.869,Parachute,2022.1.1,60.2447745171287,
negative,blue,2,None,k,,,,,,,,,0,89,89,89,,,,,,,,,,,,,,,,,,,,,,,,,,,,,,,,,,,,,main,None,None,1,1.4957469000073615,401.9564703000069,None,None,1,,,,,,,,,,,,,,116,24,Female,2022-05-05_11h25.50.869,Parachute,2022.1.1,60.2447745171287,
positive,yellow,2,None,k,,,,,,,,,0,90,90,90,,,,,,,,,,,,,,,,,,,,,,,,,,,,,,,,,,,,,main,None,None,1,1.499188099987805,404.4529526999977,None,None,1,,,,,,,,,,,,,,116,24,Female,2022-05-05_11h25.50.869,Parachute,2022.1.1,60.2447745171287,
negative,yellow,1,k,None,,,,,,,,,0,91,91,91,,,,,,,,,,,,,,,,,,,,,,,,,,,,,,,,,,,,,main,k,k,1,0.6856398000090849,406.9532002999913,None,None,0,,,,,,,,,,,,,,116,24,Female,2022-05-05_11h25.50.869,Parachute,2022.1.1,60.2447745171287,
negative,red,2,None,None,,,,,,,,,0,92,92,92,,,,,,,,,,,,,,,,,,,,,,,,,,,,,,,,,,,,,main,None,None,1,1.4946127000148408,408.6408528999891,None,None,1,,,,,,,,,,,,,,116,24,Female,2022-05-05_11h25.50.869,Parachute,2022.1.1,60.2447745171287,
negative,blue,2,None,k,,,,,,,,,0,93,93,93,,,,,,,,,,,,,,,,,,,,,,,,,,,,,,,,,,,,,main,None,None,1,1.4980314999993425,411.1365292999835,None,None,1,,,,,,,,,,,,,,116,24,Female,2022-05-05_11h25.50.869,Parachute,2022.1.1,60.2447745171287,
negative,blue,1,None,k,,,,,,,,,0,94,94,94,,,,,,,,,,,,,,,,,,,,,,,,,,,,,,,,,,,,,main,None,None,1,1.4996037999808323,413.6360607999959,None,None,1,,,,,,,,,,,,,,116,24,Female,2022-05-05_11h25.50.869,Parachute,2022.1.1,60.2447745171287,
negative,blue,1,None,k,,,,,,,,,0,95,95,95,,,,,,,,,,,,,,,,,,,,,,,,,,,,,,,,,,,,,main,None,None,1,1.497724900022149,416.1372488999914,None,None,1,,,,,,,,,,,,,,116,24,Female,2022-05-05_11h25.50.869,Parachute,2022.1.1,60.2447745171287,
negative,red,1,None,None,,,,,,,,,0,96,96,96,,,,,,,,,,,,,,,,,,,,,,,,,,,,,,,,,,,,,main,None,None,1,1.4983632999937981,418.63602320000064,None,None,1,,,,,,,,,,,,,,116,24,Female,2022-05-05_11h25.50.869,Parachute,2022.1.1,60.2447745171287,
positive,yellow,1,None,k,,,,,,,,,0,97,97,97,,,,,,,,,,,,,,,,,,,,,,,,,,,,,,,,,,,,,main,None,None,1,1.4996790000004694,421.1360173999856,None,None,1,,,,,,,,,,,,,,116,24,Female,2022-05-05_11h25.50.869,Parachute,2022.1.1,60.2447745171287,
negative,yellow,1,k,None,,,,,,,,,0,98,98,98,,,,,,,,,,,,,,,,,,,,,,,,,,,,,,,,,,,,,main,k,k,1,0.9527362999797333,423.6366030999925,None,None,0,,,,,,,,,,,,,,116,24,Female,2022-05-05_11h25.50.869,Parachute,2022.1.1,60.2447745171287,
positive,red,1,None,None,,,,,,,,,0,99,99,99,,,,,,,,,,,,,,,,,,,,,,,,,,,,,,,,,,,,,main,None,None,1,1.494805099995574,425.5911543999973,None,None,1,,,,,,,,,,,,,,116,24,Female,2022-05-05_11h25.50.869,Parachute,2022.1.1,60.2447745171287,
positive,blue,1,k,None,,,,,,,,,0,100,100,100,,,,,,,,,,,,,,,,,,,,,,,,,,,,,,,,,,,,,main,k,k,1,0.9168287000211421,428.08850939999684,None,None,0,,,,,,,,,,,,,,116,24,Female,2022-05-05_11h25.50.869,Parachute,2022.1.1,60.2447745171287,
negative,yellow,1,k,None,,,,,,,,,0,101,101,101,,,,,,,,,,,,,,,,,,,,,,,,,,,,,,,,,,,,,main,k,k,1,0.8009027999942191,430.00546029998804,None,None,0,,,,,,,,,,,,,,116,24,Female,2022-05-05_11h25.50.869,Parachute,2022.1.1,60.2447745171287,
negative,blue,2,None,k,,,,,,,,,0,102,102,102,,,,,,,,,,,,,,,,,,,,,,,,,,,,,,,,,,,,,main,None,None,1,1.494458000001032,431.80834190000314,None,None,1,,,,,,,,,,,,,,116,24,Female,2022-05-05_11h25.50.869,Parachute,2022.1.1,60.2447745171287,
negative,yellow,2,k,None,,,,,,,,,0,103,103,103,,,,,,,,,,,,,,,,,,,,,,,,,,,,,,,,,,,,,main,k,k,1,1.003723199974047,434.3040142999962,None,None,0,,,,,,,,,,,,,,116,24,Female,2022-05-05_11h25.50.869,Parachute,2022.1.1,60.2447745171287,
positive,yellow,2,None,k,,,,,,,,,0,104,104,104,,,,,,,,,,,,,,,,,,,,,,,,,,,,,,,,,,,,,main,None,None,1,1.4935943000018597,436.3075132999802,None,None,1,,,,,,,,,,,,,,116,24,Female,2022-05-05_11h25.50.869,Parachute,2022.1.1,60.2447745171287,
positive,blue,1,k,None,,,,,,,,,0,105,105,105,,,,,,,,,,,,,,,,,,,,,,,,,,,,,,,,,,,,,main,k,k,1,0.803624000021955,438.8035668999946,None,None,0,,,,,,,,,,,,,,116,24,Female,2022-05-05_11h25.50.869,Parachute,2022.1.1,60.2447745171287,
positive,blue,2,k,None,,,,,,,,,0,106,106,106,,,,,,,,,,,,,,,,,,,,,,,,,,,,,,,,,,,,,main,k,k,1,1.1146715999930166,440.6082688999886,None,None,0,,,,,,,,,,,,,,116,24,Female,2022-05-05_11h25.50.869,Parachute,2022.1.1,60.2447745171287,
negative,blue,1,None,k,,,,,,,,,0,107,107,107,,,,,,,,,,,,,,,,,,,,,,,,,,,,,,,,,,,,,main,None,None,1,1.4937589000037406,442.72496839999803,None,None,1,,,,,,,,,,,,,,116,24,Female,2022-05-05_11h25.50.869,Parachute,2022.1.1,60.2447745171287,
positive,yellow,2,None,k,,,,,,,,,0,108,108,108,,,,,,,,,,,,,,,,,,,,,,,,,,,,,,,,,,,,,main,None,None,1,1.499036299996078,445.21979669999564,None,None,1,,,,,,,,,,,,,,116,24,Female,2022-05-05_11h25.50.869,Parachute,2022.1.1,60.2447745171287,
negative,yellow,1,k,None,,,,,,,,,0,109,109,109,,,,,,,,,,,,,,,,,,,,,,,,,,,,,,,,,,,,,main,k,k,1,0.7140439999930095,447.7204482999805,None,None,0,,,,,,,,,,,,,,116,24,Female,2022-05-05_11h25.50.869,Parachute,2022.1.1,60.2447745171287,
negative,blue,2,None,k,,,,,,,,,0,110,110,110,,,,,,,,,,,,,,,,,,,,,,,,,,,,,,,,,,,,,main,None,None,1,1.4995422999782022,449.43650509999134,None,None,1,,,,,,,,,,,,,,116,24,Female,2022-05-05_11h25.50.869,Parachute,2022.1.1,60.2447745171287,
positive,blue,2,k,None,,,,,,,,,0,111,111,111,,,,,,,,,,,,,,,,,,,,,,,,,,,,,,,,,,,,,main,k,k,1,1.187310700013768,451.9369560999912,None,None,0,,,,,,,,,,,,,,116,24,Female,2022-05-05_11h25.50.869,Parachute,2022.1.1,60.2447745171287,
negative,blue,1,None,k,,,,,,,,,0,112,112,112,,,,,,,,,,,,,,,,,,,,,,,,,,,,,,,,,,,,,main,None,None,1,1.4937016000039876,454.1257461000059,None,None,1,,,,,,,,,,,,,,116,24,Female,2022-05-05_11h25.50.869,Parachute,2022.1.1,60.2447745171287,
positive,yellow,1,None,k,,,,,,,,,0,113,113,113,,,,,,,,,,,,,,,,,,,,,,,,,,,,,,,,,,,,,main,None,None,1,1.4984952000086196,456.6198841999867,None,None,1,,,,,,,,,,,,,,116,24,Female,2022-05-05_11h25.50.869,Parachute,2022.1.1,60.2447745171287,
negative,red,1,None,None,,,,,,,,,0,114,114,114,,,,,,,,,,,,,,,,,,,,,,,,,,,,,,,,,,,,,main,None,None,1,1.4988589999848045,459.1204093999986,None,None,1,,,,,,,,,,,,,,116,24,Female,2022-05-05_11h25.50.869,Parachute,2022.1.1,60.2447745171287,
positive,red,1,None,None,,,,,,,,,0,115,115,115,,,,,,,,,,,,,,,,,,,,,,,,,,,,,,,,,,,,,main,None,None,1,1.4986557999800425,461.62048479999066,None,None,1,,,,,,,,,,,,,,116,24,Female,2022-05-05_11h25.50.869,Parachute,2022.1.1,60.2447745171287,
negative,red,2,None,None,,,,,,,,,0,116,116,116,,,,,,,,,,,,,,,,,,,,,,,,,,,,,,,,,,,,,main,None,None,1,1.4985464999917895,464.1210693999892,None,None,1,,,,,,,,,,,,,,116,24,Female,2022-05-05_11h25.50.869,Parachute,2022.1.1,60.2447745171287,
negative,yellow,2,k,None,,,,,,,,,0,117,117,117,,,,,,,,,,,,,,,,,,,,,,,,,,,,,,,,,,,,,main,k,k,1,1.514717300015036,466.6213205999811,None,None,0,,,,,,,,,,,,,,116,24,Female,2022-05-05_11h25.50.869,Parachute,2022.1.1,60.2447745171287,
positive,yellow,1,None,k,,,,,,,,,0,118,118,118,,,,,,,,,,,,,,,,,,,,,,,,,,,,,,,,,,,,,main,None,None,1,1.501418100000592,470.13754909997806,None,None,1,,,,,,,,,,,,,,116,24,Female,2022-05-05_11h25.50.869,Parachute,2022.1.1,60.2447745171287,
positive,red,2,None,None,,,,,,,,,0,119,119,119,,,,,,,,,,,,,,,,,,,,,,,,,,,,,,,,,,,,,main,None,None,1,1.4980037000204902,472.6372723999957,None,None,1,,,,,,,,,,,,,,116,24,Female,2022-05-05_11h25.50.869,Parachute,2022.1.1,60.2447745171287,
positive,blue,2,k,None,,,,,,,,,0,120,120,120,,,,,,,,,,,,,,,,,,,,,,,,,,,,,,,,,,,,,main,k,k,1,0.7869530000025406,475.1373354999814,None,None,0,,,,,,,,,,,,,,116,24,Female,2022-05-05_11h25.50.869,Parachute,2022.1.1,60.2447745171287,
negative,red,1,None,None,,,,,,,,,0,121,121,121,,,,,,,,,,,,,,,,,,,,,,,,,,,,,,,,,,,,,main,None,None,1,1.4938652999990154,476.92573839999386,None,None,1,,,,,,,,,,,,,,116,24,Female,2022-05-05_11h25.50.869,Parachute,2022.1.1,60.2447745171287,
positive,yellow,2,None,k,,,,,,,,,0,122,122,122,,,,,,,,,,,,,,,,,,,,,,,,,,,,,,,,,,,,,main,None,None,1,1.498754399974132,479.4204841000028,None,None,1,,,,,,,,,,,,,,116,24,Female,2022-05-05_11h25.50.869,Parachute,2022.1.1,60.2447745171287,
negative,red,2,None,None,,,,,,,,,0,123,123,123,,,,,,,,,,,,,,,,,,,,,,,,,,,,,,,,,,,,,main,None,None,1,1.499156799982302,481.9209865999874,None,None,1,,,,,,,,,,,,,,116,24,Female,2022-05-05_11h25.50.869,Parachute,2022.1.1,60.2447745171287,
negative,yellow,2,k,None,,,,,,,,,0,124,124,124,,,,,,,,,,,,,,,,,,,,,,,,,,,,,,,,,,,,,main,k,k,1,0.8827089999977034,484.4212780999951,None,None,0,,,,,,,,,,,,,,116,24,Female,2022-05-05_11h25.50.869,Parachute,2022.1.1,60.2447745171287,
positive,red,1,None,None,,,,,,,,,0,125,125,125,,,,,,,,,,,,,,,,,,,,,,,,,,,,,,,,,,,,,main,None,None,1,1.4980081999965478,486.3052970999852,None,None,1,,,,,,,,,,,,,,116,24,Female,2022-05-05_11h25.50.869,Parachute,2022.1.1,60.2447745171287,
negative,blue,2,None,k,,,,,,,,,0,126,126,126,,,,,,,,,,,,,,,,,,,,,,,,,,,,,,,,,,,,,main,None,None,1,1.2732460999977775,488.80447619999177,None,None,1,,,,,,,,,,,,,,116,24,Female,2022-05-05_11h25.50.869,Parachute,2022.1.1,60.2447745171287,
negative,blue,1,None,k,,,,,,,,,0,127,127,127,,,,,,,,,,,,,,,,,,,,,,,,,,,,,,,,,,,,,main,None,k,0,1.5082238999893889,491.0791375999979,None,None,1,,,,,,,,,,,,,,116,24,Female,2022-05-05_11h25.50.869,Parachute,2022.1.1,60.2447745171287,
negative,yellow,1,k,None,,,,,,,,,0,128,128,128,,,,,,,,,,,,,,,,,,,,,,,,,,,,,,,,,,,,,main,k,k,1,1.0204535000084434,494.58745580000686,None,None,0,,,,,,,,,,,,,,116,24,Female,2022-05-05_11h25.50.869,Parachute,2022.1.1,60.2447745171287,
negative,yellow,1,k,None,,,,,,,,,0,129,129,129,,,,,,,,,,,,,,,,,,,,,,,,,,,,,,,,,,,,,main,k,k,1,1.034934900002554,496.6070436000009,None,None,0,,,,,,,,,,,,,,116,24,Female,2022-05-05_11h25.50.869,Parachute,2022.1.1,60.2447745171287,
positive,blue,1,k,None,,,,,,,,,0,130,130,130,,,,,,,,,,,,,,,,,,,,,,,,,,,,,,,,,,,,,main,k,k,1,0.8626990000193473,498.6434507999802,None,None,0,,,,,,,,,,,,,,116,24,Female,2022-05-05_11h25.50.869,Parachute,2022.1.1,60.2447745171287,
negative,blue,1,None,k,,,,,,,,,0,131,131,131,,,,,,,,,,,,,,,,,,,,,,,,,,,,,,,,,,,,,main,None,None,1,1.4964004999783356,500.5081027999986,None,None,1,,,,,,,,,,,,,,116,24,Female,2022-05-05_11h25.50.869,Parachute,2022.1.1,60.2447745171287,
negative,blue,2,None,k,,,,,,,,,0,132,132,132,,,,,,,,,,,,,,,,,,,,,,,,,,,,,,,,,,,,,main,None,None,1,1.4987596000137273,503.0053015000012,None,None,1,,,,,,,,,,,,,,116,24,Female,2022-05-05_11h25.50.869,Parachute,2022.1.1,60.2447745171287,
positive,blue,2,k,None,,,,,,,,,0,133,133,133,,,,,,,,,,,,,,,,,,,,,,,,,,,,,,,,,,,,,main,k,k,1,0.986424500006251,505.50520929999766,None,None,0,,,,,,,,,,,,,,116,24,Female,2022-05-05_11h25.50.869,Parachute,2022.1.1,60.2447745171287,
positive,red,2,None,None,,,,,,,,,0,134,134,134,,,,,,,,,,,,,,,,,,,,,,,,,,,,,,,,,,,,,main,None,None,1,1.4933407000207808,507.4935468999902,None,None,1,,,,,,,,,,,,,,116,24,Female,2022-05-05_11h25.50.869,Parachute,2022.1.1,60.2447745171287,
negative,yellow,2,k,None,,,,,,,,,0,135,135,135,,,,,,,,,,,,,,,,,,,,,,,,,,,,,,,,,,,,,main,k,k,1,0.8875538999855053,509.9888706000056,None,None,0,,,,,,,,,,,,,,116,24,Female,2022-05-05_11h25.50.869,Parachute,2022.1.1,60.2447745171287,
positive,yellow,2,None,k,,,,,,,,,0,136,136,136,,,,,,,,,,,,,,,,,,,,,,,,,,,,,,,,,,,,,main,None,None,1,1.4933199000079185,511.8768698000058,None,None,1,,,,,,,,,,,,,,116,24,Female,2022-05-05_11h25.50.869,Parachute,2022.1.1,60.2447745171287,
positive,blue,1,k,None,,,,,,,,,0,137,137,137,,,,,,,,,,,,,,,,,,,,,,,,,,,,,,,,,,,,,main,k,k,1,1.2863390000129584,514.3719488999923,None,None,0,,,,,,,,,,,,,,116,24,Female,2022-05-05_11h25.50.869,Parachute,2022.1.1,60.2447745171287,
positive,yellow,1,None,k,,,,,,,,,0,138,138,138,,,,,,,,,,,,,,,,,,,,,,,,,,,,,,,,,,,,,main,None,None,1,1.4945580000057817,516.6600675999944,None,None,1,,,,,,,,,,,,,,116,24,Female,2022-05-05_11h25.50.869,Parachute,2022.1.1,60.2447745171287,
positive,yellow,1,None,k,,,,,,,,,0,139,139,139,,,,,,,,,,,,,,,,,,,,,,,,,,,,,,,,,,,,,main,None,None,1,1.4984800999809522,519.1555853000027,None,None,1,,,,,,,,,,,,,,116,24,Female,2022-05-05_11h25.50.869,Parachute,2022.1.1,60.2447745171287,
positive,yellow,1,None,k,,,,,,,,,0,140,140,140,,,,,,,,,,,,,,,,,,,,,,,,,,,,,,,,,,,,,main,None,None,1,1.4981490999925882,521.655761699978,None,None,1,,,,,,,,,,,,,,116,24,Female,2022-05-05_11h25.50.869,Parachute,2022.1.1,60.2447745171287,
positive,blue,1,k,None,,,,,,,,,0,141,141,141,,,,,,,,,,,,,,,,,,,,,,,,,,,,,,,,,,,,,main,k,k,1,0.8374312999949325,524.155598399986,None,None,0,,,,,,,,,,,,,,116,24,Female,2022-05-05_11h25.50.869,Parachute,2022.1.1,60.2447745171287,
positive,blue,2,k,None,,,,,,,,,0,142,142,142,,,,,,,,,,,,,,,,,,,,,,,,,,,,,,,,,,,,,main,k,k,1,0.8457829999970272,526.005525799992,None,None,0,,,,,,,,,,,,,,116,24,Female,2022-05-05_11h25.50.869,Parachute,2022.1.1,60.2447745171287,
positive,yellow,2,None,k,,,,,,,,,0,143,143,143,,,,,,,,,,,,,,,,,,,,,,,,,,,,,,,,,,,,,main,None,None,1,1.4960471999947913,527.8424756999884,None,None,1,,,,,,,,,,,,,,116,24,Female,2022-05-05_11h25.50.869,Parachute,2022.1.1,60.2447745171287,
negative,yellow,2,k,None,,,,,,,,,0,144,144,144,,,,,,,,,,,,,,,,,,,,,,,,,,,,,,,,,,,,,main,k,k,1,1.0875830999866594,530.3388229999982,None,None,0,,,,,,,,,,,,,,116,24,Female,2022-05-05_11h25.50.869,Parachute,2022.1.1,60.2447745171287,
negative,blue,2,None,k,,,,,,,,,0,145,145,145,,,,,,,,,,,,,,,,,,,,,,,,,,,,,,,,,,,,,main,None,None,1,1.4930647000146564,532.4275261999865,None,None,1,,,,,,,,,,,,,,116,24,Female,2022-05-05_11h25.50.869,Parachute,2022.1.1,60.2447745171287,
negative,red,1,None,None,,,,,,,,,0,146,146,146,,,,,,,,,,,,,,,,,,,,,,,,,,,,,,,,,,,,,main,None,None,1,1.4990245999943,534.9222752999922,None,None,1,,,,,,,,,,,,,,116,24,Female,2022-05-05_11h25.50.869,Parachute,2022.1.1,60.2447745171287,
positive,blue,1,k,None,,,,,,,,,0,147,147,147,,,,,,,,,,,,,,,,,,,,,,,,,,,,,,,,,,,,,main,k,k,1,0.7658582000003662,537.4226090000011,None,None,0,,,,,,,,,,,,,,116,24,Female,2022-05-05_11h25.50.869,Parachute,2022.1.1,60.2447745171287,
positive,yellow,1,None,k,,,,,,,,,0,148,148,148,,,,,,,,,,,,,,,,,,,,,,,,,,,,,,,,,,,,,main,None,None,1,1.4974482000106946,539.1902066000039,None,None,1,,,,,,,,,,,,,,116,24,Female,2022-05-05_11h25.50.869,Parachute,2022.1.1,60.2447745171287,
negative,red,2,None,None,,,,,,,,,0,149,149,149,,,,,,,,,,,,,,,,,,,,,,,,,,,,,,,,,,,,,main,None,None,1,1.4989721000019927,541.6887979999883,None,None,1,,,,,,,,,,,,,,116,24,Female,2022-05-05_11h25.50.869,Parachute,2022.1.1,60.2447745171287,
negative,blue,1,None,k,,,,,,,,,0,150,150,150,,,,,,,,,,,,,,,,,,,,,,,,,,,,,,,,,,,,,main,None,None,1,1.4988778000115417,544.189306299988,None,None,1,,,,,,,,,,,,,,116,24,Female,2022-05-05_11h25.50.869,Parachute,2022.1.1,60.2447745171287,
negative,yellow,2,k,None,,,,,,,,,0,151,151,151,,,,,,,,,,,,,,,,,,,,,,,,,,,,,,,,,,,,,main,k,k,1,0.8999693999940064,546.6893445999885,None,None,0,,,,,,,,,,,,,,116,24,Female,2022-05-05_11h25.50.869,Parachute,2022.1.1,60.2447745171287,
negative,blue,2,None,k,,,,,,,,,0,152,152,152,,,,,,,,,,,,,,,,,,,,,,,,,,,,,,,,,,,,,main,None,None,1,1.4970313000085298,548.5907124999794,None,None,1,,,,,,,,,,,,,,116,24,Female,2022-05-05_11h25.50.869,Parachute,2022.1.1,60.2447745171287,
negative,yellow,1,k,None,,,,,,,,,0,153,153,153,,,,,,,,,,,,,,,,,,,,,,,,,,,,,,,,,,,,,main,k,k,1,1.3202683000126854,551.0894879999978,None,None,0,,,,,,,,,,,,,,116,24,Female,2022-05-05_11h25.50.869,Parachute,2022.1.1,60.2447745171287,
negative,blue,1,None,k,,,,,,,,,0,154,154,154,,,,,,,,,,,,,,,,,,,,,,,,,,,,,,,,,,,,,main,None,None,1,1.493708100024378,553.4105731000018,None,None,1,,,,,,,,,,,,,,116,24,Female,2022-05-05_11h25.50.869,Parachute,2022.1.1,60.2447745171287,
positive,yellow,2,None,k,,,,,,,,,0,155,155,155,,,,,,,,,,,,,,,,,,,,,,,,,,,,,,,,,,,,,main,None,None,1,1.4990940999996383,555.9062911999936,None,None,1,,,,,,,,,,,,,,116,24,Female,2022-05-05_11h25.50.869,Parachute,2022.1.1,60.2447745171287,
positive,red,2,None,None,,,,,,,,,0,156,156,156,,,,,,,,,,,,,,,,,,,,,,,,,,,,,,,,,,,,,main,None,None,1,1.4988483999914024,558.4058946000005,None,None,1,,,,,,,,,,,,,,116,24,Female,2022-05-05_11h25.50.869,Parachute,2022.1.1,60.2447745171287,
positive,red,1,None,None,,,,,,,,,0,157,157,157,,,,,,,,,,,,,,,,,,,,,,,,,,,,,,,,,,,,,main,None,None,1,1.4987207000085618,560.906467599998,None,None,1,,,,,,,,,,,,,,116,24,Female,2022-05-05_11h25.50.869,Parachute,2022.1.1,60.2447745171287,
positive,blue,2,k,None,,,,,,,,,0,158,158,158,,,,,,,,,,,,,,,,,,,,,,,,,,,,,,,,,,,,,main,k,k,1,0.8301221000147052,563.406310099992,None,None,0,,,,,,,,,,,,,,116,24,Female,2022-05-05_11h25.50.869,Parachute,2022.1.1,60.2447745171287,
negative,yellow,1,k,None,,,,,,,,,0,159,159,159,,,,,,,,,,,,,,,,,,,,,,,,,,,,,,,,,,,,,main,k,k,1,0.9048413000127766,565.2391073000035,None,None,0,,,,,,,,,,,,,,116,24,Female,2022-05-05_11h25.50.869,Parachute,2022.1.1,60.2447745171287,
negative,red,2,None,None,,,,,,,,,0,160,160,160,,,,,,,,,,,,,,,,,,,,,,,,,,,,,,,,,,,,,main,None,None,1,1.4939772000070661,567.1442581999872,None,None,1,,,,,,,,,,,,,,116,24,Female,2022-05-05_11h25.50.869,Parachute,2022.1.1,60.2447745171287,
negative,blue,1,None,k,,,,,,,,,0,161,161,161,,,,,,,,,,,,,,,,,,,,,,,,,,,,,,,,,,,,,main,None,k,0,0.7872840999916662,569.6394709000015,None,None,1,,,,,,,,,,,,,,116,24,Female,2022-05-05_11h25.50.869,Parachute,2022.1.1,60.2447745171287,
negative,blue,1,None,k,,,,,,,,,0,162,162,162,,,,,,,,,,,,,,,,,,,,,,,,,,,,,,,,,,,,,main,None,None,1,1.5028304999868851,572.4391470999981,None,None,1,,,,,,,,,,,,,,116,24,Female,2022-05-05_11h25.50.869,Parachute,2022.1.1,60.2447745171287,
negative,yellow,1,k,None,,,,,,,,,0,163,163,163,,,,,,,,,,,,,,,,,,,,,,,,,,,,,,,,,,,,,main,k,k,1,1.0681073000014294,574.9405220999906,None,None,0,,,,,,,,,,,,,,116,24,Female,2022-05-05_11h25.50.869,Parachute,2022.1.1,60.2447745171287,
negative,yellow,1,k,None,,,,,,,,,0,164,164,164,,,,,,,,,,,,,,,,,,,,,,,,,,,,,,,,,,,,,main,k,k,1,0.7492479000065941,577.0105546999839,None,None,0,,,,,,,,,,,,,,116,24,Female,2022-05-05_11h25.50.869,Parachute,2022.1.1,60.2447745171287,
positive,yellow,1,None,k,,,,,,,,,0,165,165,165,,,,,,,,,,,,,,,,,,,,,,,,,,,,,,,,,,,,,main,None,None,1,1.494539299979806,578.7610165999795,None,None,1,,,,,,,,,,,,,,116,24,Female,2022-05-05_11h25.50.869,Parachute,2022.1.1,60.2447745171287,
negative,red,1,None,None,,,,,,,,,0,166,166,166,,,,,,,,,,,,,,,,,,,,,,,,,,,,,,,,,,,,,main,None,None,1,1.498518199980026,581.2570368000015,None,None,1,,,,,,,,,,,,,,116,24,Female,2022-05-05_11h25.50.869,Parachute,2022.1.1,60.2447745171287,
negative,yellow,2,k,None,,,,,,,,,0,167,167,167,,,,,,,,,,,,,,,,,,,,,,,,,,,,,,,,,,,,,main,k,k,1,0.8039819999830797,583.756239099981,None,None,0,,,,,,,,,,,,,,116,24,Female,2022-05-05_11h25.50.869,Parachute,2022.1.1,60.2447745171287,
positive,blue,2,k,None,,,,,,,,,0,168,168,168,,,,,,,,,,,,,,,,,,,,,,,,,,,,,,,,,,,,,main,k,k,1,0.7482893999840599,585.561428999994,None,None,0,,,,,,,,,,,,,,116,24,Female,2022-05-05_11h25.50.869,Parachute,2022.1.1,60.2447745171287,
positive,red,2,None,None,,,,,,,,,0,169,169,169,,,,,,,,,,,,,,,,,,,,,,,,,,,,,,,,,,,,,main,None,None,1,1.493693099997472,587.3117192999925,None,None,1,,,,,,,,,,,,,,116,24,Female,2022-05-05_11h25.50.869,Parachute,2022.1.1,60.2447745171287,
positive,red,1,None,None,,,,,,,,,0,170,170,170,,,,,,,,,,,,,,,,,,,,,,,,,,,,,,,,,,,,,main,None,None,1,1.4984981000015978,589.8070399999851,None,None,1,,,,,,,,,,,,,,116,24,Female,2022-05-05_11h25.50.869,Parachute,2022.1.1,60.2447745171287,
negative,blue,2,None,k,,,,,,,,,0,171,171,171,,,,,,,,,,,,,,,,,,,,,,,,,,,,,,,,,,,,,main,None,None,1,1.4985099000041373,592.3066401999968,None,None,1,,,,,,,,,,,,,,116,24,Female,2022-05-05_11h25.50.869,Parachute,2022.1.1,60.2447745171287,
positive,blue,2,k,None,,,,,,,,,0,172,172,172,,,,,,,,,,,,,,,,,,,,,,,,,,,,,,,,,,,,,main,k,k,1,0.9206629000254907,594.8068241000001,None,None,0,,,,,,,,,,,,,,116,24,Female,2022-05-05_11h25.50.869,Parachute,2022.1.1,60.2447745171287,
negative,yellow,2,k,None,,,,,,,,,0,173,173,173,,,,,,,,,,,,,,,,,,,,,,,,,,,,,,,,,,,,,main,k,k,1,0.8154959999956191,596.7405724999844,None,None,0,,,,,,,,,,,,,,116,24,Female,2022-05-05_11h25.50.869,Parachute,2022.1.1,60.2447745171287,
positive,yellow,2,None,k,,,,,,,,,0,174,174,174,,,,,,,,,,,,,,,,,,,,,,,,,,,,,,,,,,,,,main,None,None,1,1.4931949000165332,598.5455586999888,None,None,1,,,,,,,,,,,,,,116,24,Female,2022-05-05_11h25.50.869,Parachute,2022.1.1,60.2447745171287,
negative,blue,2,None,k,,,,,,,,,0,175,175,175,,,,,,,,,,,,,,,,,,,,,,,,,,,,,,,,,,,,,main,None,None,1,1.498698700015666,601.0400834000029,None,None,1,,,,,,,,,,,,,,116,24,Female,2022-05-05_11h25.50.869,Parachute,2022.1.1,60.2447745171287,
positive,blue,1,k,None,,,,,,,,,0,176,176,176,,,,,,,,,,,,,,,,,,,,,,,,,,,,,,,,,,,,,main,k,k,1,0.7877298999810591,603.5407378999807,None,None,0,,,,,,,,,,,,,,116,24,Female,2022-05-05_11h25.50.869,Parachute,2022.1.1,60.2447745171287,
positive,yellow,1,None,k,,,,,,,,,0,177,177,177,,,,,,,,,,,,,,,,,,,,,,,,,,,,,,,,,,,,,main,None,k,0,1.1111988000047859,605.328812199994,None,None,1,,,,,,,,,,,,,,116,24,Female,2022-05-05_11h25.50.869,Parachute,2022.1.1,60.2447745171287,
positive,blue,1,k,None,,,,,,,,,0,178,178,178,,,,,,,,,,,,,,,,,,,,,,,,,,,,,,,,,,,,,main,k,k,1,0.837942500016652,608.4405849000032,None,None,0,,,,,,,,,,,,,,116,24,Female,2022-05-05_11h25.50.869,Parachute,2022.1.1,60.2447745171287,
positive,yellow,2,None,k,,,,,,,,,0,179,179,179,,,,,,,,,,,,,,,,,,,,,,,,,,,,,,,,,,,,,main,None,None,1,1.4965710999967996,610.2770923000062,None,None,1,,,,,,,,,,,,,,116,24,Female,2022-05-05_11h25.50.869,Parachute,2022.1.1,60.2447745171287,
positive,blue,1,k,None,,,,,,,,,0,180,180,180,,,,,,,,,,,,,,,,,,,,,,,,,,,,,,,,,,,,,main,k,k,1,0.8335193000093568,612.7745744999847,None,None,0,,,,,,,,,,,,,,116,24,Female,2022-05-05_11h25.50.869,Parachute,2022.1.1,60.2447745171287,
negative,red,1,None,None,,,,,,,,,0,181,181,181,,,,,,,,,,,,,,,,,,,,,,,,,,,,,,,,,,,,,main,None,None,1,1.4964092999871355,614.6097650000011,None,None,1,,,,,,,,,,,,,,116,24,Female,2022-05-05_11h25.50.869,Parachute,2022.1.1,60.2447745171287,
negative,blue,1,None,k,,,,,,,,,0,182,182,182,,,,,,,,,,,,,,,,,,,,,,,,,,,,,,,,,,,,,main,None,None,1,1.4986397000029683,617.1074619999854,None,None,1,,,,,,,,,,,,,,116,24,Female,2022-05-05_11h25.50.869,Parachute,2022.1.1,60.2447745171287,
negative,yellow,2,k,None,,,,,,,,,0,183,183,183,,,,,,,,,,,,,,,,,,,,,,,,,,,,,,,,,,,,,main,k,k,1,1.003761600004509,619.6073998999782,None,None,0,,,,,,,,,,,,,,116,24,Female,2022-05-05_11h25.50.869,Parachute,2022.1.1,60.2447745171287,
positive,yellow,2,None,k,,,,,,,,,0,184,184,184,,,,,,,,,,,,,,,,,,,,,,,,,,,,,,,,,,,,,main,None,None,1,1.4933342000003904,621.6130981000024,None,None,1,,,,,,,,,,,,,,116,24,Female,2022-05-05_11h25.50.869,Parachute,2022.1.1,60.2447745171287,
positive,yellow,1,None,k,,,,,,,,,0,185,185,185,,,,,,,,,,,,,,,,,,,,,,,,,,,,,,,,,,,,,main,None,None,1,1.4991594000020996,624.1071382999944,None,None,1,,,,,,,,,,,,,,116,24,Female,2022-05-05_11h25.50.869,Parachute,2022.1.1,60.2447745171287,
positive,red,2,None,None,,,,,,,,,0,186,186,186,,,,,,,,,,,,,,,,,,,,,,,,,,,,,,,,,,,,,main,None,None,1,1.4979766000178643,626.6074547999888,None,None,1,,,,,,,,,,,,,,116,24,Female,2022-05-05_11h25.50.869,Parachute,2022.1.1,60.2447745171287,
positive,blue,1,k,None,,,,,,,,,0,187,187,187,,,,,,,,,,,,,,,,,,,,,,,,,,,,,,,,,,,,,main,k,k,1,0.8180467000056524,629.1073584999831,None,None,0,,,,,,,,,,,,,,116,24,Female,2022-05-05_11h25.50.869,Parachute,2022.1.1,60.2447745171287,
negative,yellow,1,k,None,,,,,,,,,0,188,188,188,,,,,,,,,,,,,,,,,,,,,,,,,,,,,,,,,,,,,main,k,k,1,0.8520492999814451,630.9265825999901,None,None,0,,,,,,,,,,,,,,116,24,Female,2022-05-05_11h25.50.869,Parachute,2022.1.1,60.2447745171287,
positive,yellow,2,None,k,,,,,,,,,0,189,189,189,,,,,,,,,,,,,,,,,,,,,,,,,,,,,,,,,,,,,main,None,None,1,1.4933410000230651,632.7793466000003,None,None,1,,,,,,,,,,,,,,116,24,Female,2022-05-05_11h25.50.869,Parachute,2022.1.1,60.2447745171287,
negative,yellow,2,k,None,,,,,,,,,0,190,190,190,,,,,,,,,,,,,,,,,,,,,,,,,,,,,,,,,,,,,main,k,k,1,0.801959500007797,635.274482799985,None,None,0,,,,,,,,,,,,,,116,24,Female,2022-05-05_11h25.50.869,Parachute,2022.1.1,60.2447745171287,
negative,yellow,1,k,None,,,,,,,,,0,191,191,191,,,,,,,,,,,,,,,,,,,,,,,,,,,,,,,,,,,,,main,k,k,1,0.8339600000181235,637.0790195000009,None,None,0,,,,,,,,,,,,,,116,24,Female,2022-05-05_11h25.50.869,Parachute,2022.1.1,60.2447745171287,
positive,blue,2,k,None,,,,,,,,,0,192,192,192,,,,,,,,,,,,,,,,,,,,,,,,,,,,,,,,,,,,,main,k,k,1,0.6782080999983009,638.912634999986,None,None,0,,,,,,,,,,,,,,116,24,Female,2022-05-05_11h25.50.869,Parachute,2022.1.1,60.2447745171287,
positive,yellow,1,None,k,,,,,,,,,0,193,193,193,,,,,,,,,,,,,,,,,,,,,,,,,,,,,,,,,,,,,main,None,None,1,1.4969403000141028,640.5930354000011,None,None,1,,,,,,,,,,,,,,116,24,Female,2022-05-05_11h25.50.869,Parachute,2022.1.1,60.2447745171287,
negative,red,2,None,None,,,,,,,,,0,194,194,194,,,,,,,,,,,,,,,,,,,,,,,,,,,,,,,,,,,,,main,None,None,1,1.4988946000230499,643.0913923000044,None,None,1,,,,,,,,,,,,,,116,24,Female,2022-05-05_11h25.50.869,Parachute,2022.1.1,60.2447745171287,
positive,red,1,None,None,,,,,,,,,0,195,195,195,,,,,,,,,,,,,,,,,,,,,,,,,,,,,,,,,,,,,main,None,None,1,1.4981563999899663,645.5910513999988,None,None,1,,,,,,,,,,,,,,116,24,Female,2022-05-05_11h25.50.869,Parachute,2022.1.1,60.2447745171287,
negative,blue,1,None,k,,,,,,,,,0,196,196,196,,,,,,,,,,,,,,,,,,,,,,,,,,,,,,,,,,,,,main,None,None,1,1.4992751000099815,648.0914239999838,None,None,1,,,,,,,,,,,,,,116,24,Female,2022-05-05_11h25.50.869,Parachute,2022.1.1,60.2447745171287,
positive,blue,2,k,None,,,,,,,,,0,197,197,197,,,,,,,,,,,,,,,,,,,,,,,,,,,,,,,,,,,,,main,k,k,1,0.9014357999840286,650.5924537999963,None,None,0,,,,,,,,,,,,,,116,24,Female,2022-05-05_11h25.50.869,Parachute,2022.1.1,60.2447745171287,
negative,blue,2,None,k,,,,,,,,,0,198,198,198,,,,,,,,,,,,,,,,,,,,,,,,,,,,,,,,,,,,,main,None,None,1,1.496436099987477,652.4949779000017,None,None,1,,,,,,,,,,,,,,116,24,Female,2022-05-05_11h25.50.869,Parachute,2022.1.1,60.2447745171287,
negative,blue,2,None,k,,,,,,,,,0,199,199,199,,,,,,,,,,,,,,,,,,,,,,,,,,,,,,,,,,,,,main,None,None,1,1.4976904000213835,654.9930228999874,None,None,1,,,,,,,,,,,,,,116,24,Female,2022-05-05_11h25.50.869,Parachute,2022.1.1,60.2447745171287,
positive,blue,2,k,None,,,,,,,,,0,200,200,200,,,,,,,,,,,,,,,,,,,,,,,,,,,,,,,,,,,,,main,k,k,1,0.7876648999808822,657.4914437999832,None,None,0,,,,,,,,,,,,,,116,24,Female,2022-05-05_11h25.50.869,Parachute,2022.1.1,60.2447745171287,
positive,blue,2,k,None,,,,,,,,,0,201,201,201,,,,,,,,,,,,,,,,,,,,,,,,,,,,,,,,,,,,,main,k,k,1,0.8961489000066649,659.2797223999805,None,None,0,,,,,,,,,,,,,,116,24,Female,2022-05-05_11h25.50.869,Parachute,2022.1.1,60.2447745171287,
negative,yellow,2,k,None,,,,,,,,,0,202,202,202,,,,,,,,,,,,,,,,,,,,,,,,,,,,,,,,,,,,,main,k,k,1,0.7174689000239596,661.1781527999847,None,None,0,,,,,,,,,,,,,,116,24,Female,2022-05-05_11h25.50.869,Parachute,2022.1.1,60.2447745171287,
positive,red,1,None,None,,,,,,,,,0,203,203,203,,,,,,,,,,,,,,,,,,,,,,,,,,,,,,,,,,,,,main,None,None,1,1.4943717000132892,662.8967491999792,None,None,1,,,,,,,,,,,,,,116,24,Female,2022-05-05_11h25.50.869,Parachute,2022.1.1,60.2447745171287,
negative,blue,2,None,k,,,,,,,,,0,204,204,204,,,,,,,,,,,,,,,,,,,,,,,,,,,,,,,,,,,,,main,None,None,1,1.2198805999942124,665.3926706000057,None,None,1,,,,,,,,,,,,,,116,24,Female,2022-05-05_11h25.50.869,Parachute,2022.1.1,60.2447745171287,
negative,red,1,None,None,,,,,,,,,0,205,205,205,,,,,,,,,,,,,,,,,,,,,,,,,,,,,,,,,,,,,main,None,k,0,1.5099662999855354,667.6134315999807,None,None,1,,,,,,,,,,,,,,116,24,Female,2022-05-05_11h25.50.869,Parachute,2022.1.1,60.2447745171287,
negative,blue,2,None,k,,,,,,,,,0,206,206,206,,,,,,,,,,,,,,,,,,,,,,,,,,,,,,,,,,,,,main,None,None,1,1.5026603000005707,671.1250132999849,None,None,1,,,,,,,,,,,,,,116,24,Female,2022-05-05_11h25.50.869,Parachute,2022.1.1,60.2447745171287,
negative,yellow,2,k,None,,,,,,,,,0,207,207,207,,,,,,,,,,,,,,,,,,,,,,,,,,,,,,,,,,,,,main,k,k,1,0.8525630999938585,673.6258419999795,None,None,0,,,,,,,,,,,,,,116,24,Female,2022-05-05_11h25.50.869,Parachute,2022.1.1,60.2447745171287,
positive,yellow,2,None,k,,,,,,,,,0,208,208,208,,,,,,,,,,,,,,,,,,,,,,,,,,,,,,,,,,,,,main,None,None,1,1.492998500005342,675.4802046999976,None,None,1,,,,,,,,,,,,,,116,24,Female,2022-05-05_11h25.50.869,Parachute,2022.1.1,60.2447745171287,
negative,yellow,1,k,None,,,,,,,,,0,209,209,209,,,,,,,,,,,,,,,,,,,,,,,,,,,,,,,,,,,,,main,k,k,1,0.8685796000063419,677.9774123999814,None,None,0,,,,,,,,,,,,,,116,24,Female,2022-05-05_11h25.50.869,Parachute,2022.1.1,60.2447745171287,
negative,red,2,None,None,,,,,,,,,0,210,210,210,,,,,,,,,,,,,,,,,,,,,,,,,,,,,,,,,,,,,main,None,None,1,1.4940127999871038,679.8468693000032,None,None,1,,,,,,,,,,,,,,116,24,Female,2022-05-05_11h25.50.869,Parachute,2022.1.1,60.2447745171287,
negative,blue,1,None,k,,,,,,,,,0,211,211,211,,,,,,,,,,,,,,,,,,,,,,,,,,,,,,,,,,,,,main,None,None,1,1.4974460999947041,682.3442275999987,None,None,1,,,,,,,,,,,,,,116,24,Female,2022-05-05_11h25.50.869,Parachute,2022.1.1,60.2447745171287,
negative,yellow,1,k,None,,,,,,,,,0,212,212,212,,,,,,,,,,,,,,,,,,,,,,,,,,,,,,,,,,,,,main,k,k,1,0.9024784000066575,684.8444696999795,None,None,0,,,,,,,,,,,,,,116,24,Female,2022-05-05_11h25.50.869,Parachute,2022.1.1,60.2447745171287,
positive,blue,1,k,None,,,,,,,,,0,213,213,213,,,,,,,,,,,,,,,,,,,,,,,,,,,,,,,,,,,,,main,k,k,1,0.9941208999953233,686.7471386999823,None,None,0,,,,,,,,,,,,,,116,24,Female,2022-05-05_11h25.50.869,Parachute,2022.1.1,60.2447745171287,
positive,blue,1,k,None,,,,,,,,,0,214,214,214,,,,,,,,,,,,,,,,,,,,,,,,,,,,,,,,,,,,,main,k,k,1,0.7540268000157084,688.7438293999876,None,None,0,,,,,,,,,,,,,,116,24,Female,2022-05-05_11h25.50.869,Parachute,2022.1.1,60.2447745171287,
positive,yellow,1,None,k,,,,,,,,,0,215,215,215,,,,,,,,,,,,,,,,,,,,,,,,,,,,,,,,,,,,,main,None,None,1,1.493251500010956,690.5093053999881,None,None,1,,,,,,,,,,,,,,116,24,Female,2022-05-05_11h25.50.869,Parachute,2022.1.1,60.2447745171287,
positive,yellow,1,None,k,,,,,,,,,0,216,216,216,,,,,,,,,,,,,,,,,,,,,,,,,,,,,,,,,,,,,main,None,None,1,1.498967299994547,692.9929167999944,None,None,1,,,,,,,,,,,,,,116,24,Female,2022-05-05_11h25.50.869,Parachute,2022.1.1,60.2447745171287,
positive,yellow,2,None,k,,,,,,,,,0,217,217,217,,,,,,,,,,,,,,,,,,,,,,,,,,,,,,,,,,,,,main,None,None,1,1.4992505999980494,695.4939736999804,None,None,1,,,,,,,,,,,,,,116,24,Female,2022-05-05_11h25.50.869,Parachute,2022.1.1,60.2447745171287,
negative,blue,1,None,k,,,,,,,,,0,218,218,218,,,,,,,,,,,,,,,,,,,,,,,,,,,,,,,,,,,,,main,None,None,1,1.4973911000124644,697.9945162999793,None,None,1,,,,,,,,,,,,,,116,24,Female,2022-05-05_11h25.50.869,Parachute,2022.1.1,60.2447745171287,
positive,red,2,None,None,,,,,,,,,0,219,219,219,,,,,,,,,,,,,,,,,,,,,,,,,,,,,,,,,,,,,main,None,None,1,1.499773500021547,700.4926413999929,None,None,1,,,,,,,,,,,,,,116,24,Female,2022-05-05_11h25.50.869,Parachute,2022.1.1,60.2447745171287,
positive,yellow,1,None,k,,,,,,,,,0,220,220,220,,,,,,,,,,,,,,,,,,,,,,,,,,,,,,,,,,,,,main,None,None,1,1.497542600001907,702.9944503000006,None,None,1,,,,,,,,,,,,,,116,24,Female,2022-05-05_11h25.50.869,Parachute,2022.1.1,60.2447745171287,
positive,blue,1,k,None,,,,,,,,,0,221,221,221,,,,,,,,,,,,,,,,,,,,,,,,,,,,,,,,,,,,,main,k,k,1,0.9193541000131518,705.492640899989,None,None,0,,,,,,,,,,,,,,116,24,Female,2022-05-05_11h25.50.869,Parachute,2022.1.1,60.2447745171287,
positive,yellow,2,None,k,,,,,,,,,0,222,222,222,,,,,,,,,,,,,,,,,,,,,,,,,,,,,,,,,,,,,main,None,None,1,1.4945925000065472,707.4142287999857,None,None,1,,,,,,,,,,,,,,116,24,Female,2022-05-05_11h25.50.869,Parachute,2022.1.1,60.2447745171287,
negative,yellow,1,k,None,,,,,,,,,0,223,223,223,,,,,,,,,,,,,,,,,,,,,,,,,,,,,,,,,,,,,main,k,k,1,0.7365058999857865,709.9095076999802,None,None,0,,,,,,,,,,,,,,116,24,Female,2022-05-05_11h25.50.869,Parachute,2022.1.1,60.2447745171287,
positive,yellow,2,None,k,,,,,,,,,0,224,224,224,,,,,,,,,,,,,,,,,,,,,,,,,,,,,,,,,,,,,main,None,None,1,1.494215799990343,711.6473484000016,None,None,1,,,,,,,,,,,,,,116,24,Female,2022-05-05_11h25.50.869,Parachute,2022.1.1,60.2447745171287,
negative,yellow,2,k,None,,,,,,,,,0,225,225,225,,,,,,,,,,,,,,,,,,,,,,,,,,,,,,,,,,,,,main,k,k,1,0.803172399988398,714.1431392999948,None,None,0,,,,,,,,,,,,,,116,24,Female,2022-05-05_11h25.50.869,Parachute,2022.1.1,60.2447745171287,
negative,blue,2,None,k,,,,,,,,,0,226,226,226,,,,,,,,,,,,,,,,,,,,,,,,,,,,,,,,,,,,,main,None,None,1,1.5099967999849468,715.9478910999896,None,None,1,,,,,,,,,,,,,,116,24,Female,2022-05-05_11h25.50.869,Parachute,2022.1.1,60.2447745171287,
positive,red,2,None,None,,,,,,,,,0,227,227,227,,,,,,,,,,,,,,,,,,,,,,,,,,,,,,,,,,,,,main,None,None,1,1.498311700008344,718.4599669000017,None,None,1,,,,,,,,,,,,,,116,24,Female,2022-05-05_11h25.50.869,Parachute,2022.1.1,60.2447745171287,
positive,blue,2,k,None,,,,,,,,,0,228,228,228,,,,,,,,,,,,,,,,,,,,,,,,,,,,,,,,,,,,,main,k,k,1,1.034033800009638,720.959251399996,None,None,0,,,,,,,,,,,,,,116,24,Female,2022-05-05_11h25.50.869,Parachute,2022.1.1,60.2447745171287,
negative,blue,1,None,k,,,,,,,,,0,229,229,229,,,,,,,,,,,,,,,,,,,,,,,,,,,,,,,,,,,,,main,None,None,1,1.4964896999881603,722.9957974999852,None,None,1,,,,,,,,,,,,,,116,24,Female,2022-05-05_11h25.50.869,Parachute,2022.1.1,60.2447745171287,
positive,yellow,1,None,k,,,,,,,,,0,230,230,230,,,,,,,,,,,,,,,,,,,,,,,,,,,,,,,,,,,,,main,None,None,1,1.4987891999771819,725.4930293999787,None,None,1,,,,,,,,,,,,,,116,24,Female,2022-05-05_11h25.50.869,Parachute,2022.1.1,60.2447745171287,
negative,blue,2,None,k,,,,,,,,,0,231,231,231,,,,,,,,,,,,,,,,,,,,,,,,,,,,,,,,,,,,,main,None,None,1,1.49930470000254,727.9934641,None,None,1,,,,,,,,,,,,,,116,24,Female,2022-05-05_11h25.50.869,Parachute,2022.1.1,60.2447745171287,
negative,red,1,None,None,,,,,,,,,0,232,232,232,,,,,,,,,,,,,,,,,,,,,,,,,,,,,,,,,,,,,main,None,None,1,1.4983620999846607,730.4935848999885,None,None,1,,,,,,,,,,,,,,116,24,Female,2022-05-05_11h25.50.869,Parachute,2022.1.1,60.2447745171287,
positive,blue,2,k,None,,,,,,,,,0,233,233,233,,,,,,,,,,,,,,,,,,,,,,,,,,,,,,,,,,,,,main,k,k,1,0.9353171000257134,732.9934699999867,None,None,0,,,,,,,,,,,,,,116,24,Female,2022-05-05_11h25.50.869,Parachute,2022.1.1,60.2447745171287,
negative,yellow,1,k,None,,,,,,,,,0,234,234,234,,,,,,,,,,,,,,,,,,,,,,,,,,,,,,,,,,,,,main,k,k,1,0.9836081999819726,734.9309322999907,None,None,0,,,,,,,,,,,,,,116,24,Female,2022-05-05_11h25.50.869,Parachute,2022.1.1,60.2447745171287,
negative,yellow,2,k,None,,,,,,,,,0,235,235,235,,,,,,,,,,,,,,,,,,,,,,,,,,,,,,,,,,,,,main,k,k,1,0.9154409000184387,736.9150797000038,None,None,0,,,,,,,,,,,,,,116,24,Female,2022-05-05_11h25.50.869,Parachute,2022.1.1,60.2447745171287,
positive,red,1,None,None,,,,,,,,,0,236,236,236,,,,,,,,,,,,,,,,,,,,,,,,,,,,,,,,,,,,,main,None,None,1,1.4939137999899685,738.8318397999974,None,None,1,,,,,,,,,,,,,,116,24,Female,2022-05-05_11h25.50.869,Parachute,2022.1.1,60.2447745171287,
negative,red,2,None,None,,,,,,,,,0,237,237,237,,,,,,,,,,,,,,,,,,,,,,,,,,,,,,,,,,,,,main,None,None,1,1.499058999994304,741.3266981999914,None,None,1,,,,,,,,,,,,,,116,24,Female,2022-05-05_11h25.50.869,Parachute,2022.1.1,60.2447745171287,
negative,blue,1,None,k,,,,,,,,,0,238,238,238,,,,,,,,,,,,,,,,,,,,,,,,,,,,,,,,,,,,,main,None,None,1,1.4981135000125505,743.8271316000028,None,None,1,,,,,,,,,,,,,,116,24,Female,2022-05-05_11h25.50.869,Parachute,2022.1.1,60.2447745171287,
positive,blue,1,k,None,,,,,,,,,0,239,239,239,,,,,,,,,,,,,,,,,,,,,,,,,,,,,,,,,,,,,main,k,k,1,1.087441800016677,746.326673100004,None,None,0,,,,,,,,,,,,,,116,24,Female,2022-05-05_11h25.50.869,Parachute,2022.1.1,60.2447745171287,
,,,,,,,,,,,,,,,,,,,,,,,,,,,,,,,,,,,,,,,,,,,,,,,,,,,,,,,,,,,,,,,,,,,,,,,,,748.4106723000004,None,,,,,,,,
