distractor,target,set,ans1,ans2,rep_loop4.thisRepN,rep_loop4.thisTrialN,rep_loop4.thisN,rep_loop4.thisIndex,st2_prac_loop.thisRepN,st2_prac_loop.thisTrialN,st2_prac_loop.thisN,st2_prac_loop.thisIndex,st2_main_loop.thisRepN,st2_main_loop.thisTrialN,st2_main_loop.thisN,st2_main_loop.thisIndex,image_4.started,image_4.stopped,mouse_7.x,mouse_7.y,mouse_7.leftButton,mouse_7.midButton,mouse_7.rightButton,sound_2.started,sound_2.stopped,key_resp_3.keys,mouse_5.x,mouse_5.y,mouse_5.leftButton,mouse_5.midButton,mouse_5.rightButton,mouse_5.started,mouse_5.stopped,yes_text2.started,yes_text2.stopped,no_text2.started,no_text2.stopped,mouse_3.x,mouse_3.y,mouse_3.leftButton,mouse_3.midButton,mouse_3.rightButton,mouse_3.started,mouse_3.stopped,st_prac_back.started,st_prac_back.stopped,st_prac_text.started,st_prac_text.stopped,st_fix_back.started,st_fix_back.stopped,st_fix_2.started,st_fix_2.stopped,main_prac,st_ans,st_res,st_corr,st_rt,st_back.started,st_back.stopped,st2_resp.keys,st2_resp.corr,st_main_back.started,st_main_back.stopped,st_main_text.started,st_main_text.stopped,mouse_4.x,mouse_4.y,mouse_4.leftButton,mouse_4.midButton,mouse_4.rightButton,mouse_4.started,mouse_4.stopped,text_2.started,text_2.stopped,id*,age*,gender*,date,expName,psychopyVersion,frameRate,
,,,,,,,,,,,,,,,,,40.488951600011205,None,-0.028703704,0.048148148,0,0,0,,,,,,,,,,,,,,,,,,,,,,,,,,,,,,,,,,,,,,,,,,,,,,,,,,,,117,22,Female,2022-05-05_14h21.10.818,Parachute,2022.1.1,59.64537247763395,
negative,yellow,1,k,None,,,,,0,0,0,0,,,,,,,,,,,,56.01326022000867,None,None,-0.12685186,-0.39259258,0,0,0,1.0039140000299085,None,110.39780500001507,None,110.39780500001507,None,-0.12314815,-0.1037037,0,0,0,0.01371121997362934,None,111.55424369999673,None,111.55424369999673,None,113.56706520001171,None,113.56706520001171,None,prac,None,None,1,1.5095660999941174,115.57962210002006,None,None,1,,,,,,,,,,,,,,117,22,Female,2022-05-05_14h21.10.818,Parachute,2022.1.1,59.64537247763395,
positive,red,2,None,None,,,,,0,1,1,1,,,,,,,,,,,,,,,,,,,,,,,,,,,,,,,,,,,,,,,,,prac,None,None,1,1.4993608000222594,118.064726600016,None,None,1,,,,,,,,,,,,,,117,22,Female,2022-05-05_14h21.10.818,Parachute,2022.1.1,59.64537247763395,
negative,blue,2,None,k,,,,,0,2,2,2,,,,,,,,,,,,,,,,,,,,,,,,,,,,,,,,,,,,,,,,,prac,k,k,1,0.8158173999981955,120.5668593000155,None,None,0,,,,,,,,,,,,,,117,22,Female,2022-05-05_14h21.10.818,Parachute,2022.1.1,59.64537247763395,
positive,yellow,1,None,k,,,,,0,3,3,3,,,,,,,,,,,,,,,,,,,,,,,,,,,,,,,,,,,,,,,,,prac,k,k,1,0.8862949000031222,122.38391120001324,None,None,0,,,,,,,,,,,,,,117,22,Female,2022-05-05_14h21.10.818,Parachute,2022.1.1,59.64537247763395,
negative,blue,2,None,k,,,,,0,4,4,4,,,,,,,,,,,,,,,,,,,,,,,,,,,,,,,,,,,,,,,,,prac,k,k,1,0.8617622000165284,124.27011280000443,None,None,0,,,,,,,,,,,,,,117,22,Female,2022-05-05_14h21.10.818,Parachute,2022.1.1,59.64537247763395,
negative,blue,1,None,k,,,,,0,5,5,5,,,,,,,,,,,,,,,,,,,,,,,,,,,,,,,,,,,,,,,,,prac,k,k,1,1.5516863000229932,126.13370010000654,None,None,0,,,,,,,,,,,,,,117,22,Female,2022-05-05_14h21.10.818,Parachute,2022.1.1,59.64537247763395,
negative,yellow,2,k,None,,,,,0,6,6,6,,,,,,,,,,,,,,,,,,,,,,,,,,,,,,,,,,,,,,,,,prac,None,None,1,1.5021615999867208,129.73136969999177,None,None,1,,,,,,,,,,,,,,117,22,Female,2022-05-05_14h21.10.818,Parachute,2022.1.1,59.64537247763395,
negative,red,1,None,None,,,,,0,7,7,7,,,,,,,,,,,,,,,,,,,,,,,,,,,,,,,,,,,,,,,,,prac,None,None,1,1.497194399998989,132.2333851000003,None,None,1,,,,,,,,,,,,,,117,22,Female,2022-05-05_14h21.10.818,Parachute,2022.1.1,59.64537247763395,
positive,yellow,2,None,k,,,,,0,8,8,8,,,,,,,,,,,,,,,,,,,,,,,,,,,,,,,,,,,,,,,,,prac,k,k,1,1.0199825999734458,134.7321357000037,None,None,0,,,,,,,,,,,,,,117,22,Female,2022-05-05_14h21.10.818,Parachute,2022.1.1,59.64537247763395,
negative,yellow,1,k,None,,,,,0,9,9,9,,,,,,,,,,,,,,,,,,,,,,,,,,,,,,,,,,,,,,,,,prac,None,None,1,1.4943251999793574,136.7533769000147,None,None,1,,,,,,,,,,,,,,117,22,Female,2022-05-05_14h21.10.818,Parachute,2022.1.1,59.64537247763395,
positive,yellow,2,None,k,,,,,0,10,10,10,,,,,,,,,,,,,,,,,,,,,,,,,,,,,,,,,,,,,,,,,prac,k,k,1,0.953816299996106,139.248888800008,None,None,0,,,,,,,,,,,,,,117,22,Female,2022-05-05_14h21.10.818,Parachute,2022.1.1,59.64537247763395,
negative,yellow,2,k,None,,,,,0,11,11,11,,,,,,,,,,,,,,,,,,,,,,,,,,,,,,,,,,,,,,,,,prac,None,None,1,1.4935468999901786,141.2036735000147,None,None,1,,,,,,,,,,,,,,117,22,Female,2022-05-05_14h21.10.818,Parachute,2022.1.1,59.64537247763395,
negative,red,2,None,None,,,,,0,12,12,12,,,,,,,,,,,,,,,,,,,,,,,,,,,,,,,,,,,,,,,,,prac,None,None,1,1.4982408999931067,143.69843320001382,None,None,1,,,,,,,,,,,,,,117,22,Female,2022-05-05_14h21.10.818,Parachute,2022.1.1,59.64537247763395,
positive,red,1,None,None,,,,,0,13,13,13,,,,,,,,,,,,,,,,,,,,,,,,,,,,,,,,,,,,,,,,,prac,None,None,1,1.4996291999996174,146.1985837999964,None,None,1,,,,,,,,,,,,,,117,22,Female,2022-05-05_14h21.10.818,Parachute,2022.1.1,59.64537247763395,
positive,blue,2,k,None,,,,,0,14,14,14,,,,,,,,,,,,,,,,,,,,,,,,,,,,,,,,,,,,,,,,,prac,None,k,0,0.7007302999845706,148.69950250000693,None,None,1,,,,,,,,,,,,,,117,22,Female,2022-05-05_14h21.10.818,Parachute,2022.1.1,59.64537247763395,
positive,blue,1,k,None,,,,,0,15,15,15,,,,,,,,,,,,,,,,,,,,,,,,,,,,,,,,,,,,,,,,,prac,None,None,1,1.5013914000010118,151.4156748999958,None,None,1,,,,,,,,,,,,,,117,22,Female,2022-05-05_14h21.10.818,Parachute,2022.1.1,59.64537247763395,
negative,blue,1,None,k,,,,,0,16,16,16,,,,,,,,,,,,,,,,,,,,,,,,,,,,,,,,,,,,,,,,,prac,k,k,1,0.8002266999974381,153.9162335000001,None,None,0,,,,,,,,,,,,,,117,22,Female,2022-05-05_14h21.10.818,Parachute,2022.1.1,59.64537247763395,
positive,blue,2,k,None,,,,,0,17,17,17,,,,,,,,,,,,,,,,,,,,,,,,,,,,,,,,,,,,,,,,,prac,None,None,1,1.496448899997631,155.71781010000268,None,None,1,,,,,,,,,,,,,,117,22,Female,2022-05-05_14h21.10.818,Parachute,2022.1.1,59.64537247763395,
positive,blue,1,k,None,,,,,0,18,18,18,,,,,,,,,,,,,,,,,,,,,,,,,,,,,,,,,,,,,,,,,prac,None,None,1,1.4985618999926373,158.2160075000138,None,None,1,,,,,,,,,,,,,,117,22,Female,2022-05-05_14h21.10.818,Parachute,2022.1.1,59.64537247763395,
positive,yellow,1,None,k,,,,,0,19,19,19,,,,,,,,,,,,,,,,,,,,,,,,,,,,,,,,,,,,,,,,,prac,k,k,1,1.0875148999912199,160.7157889000082,None,None,0,,,,,,,,,,,,,,117,22,Female,2022-05-05_14h21.10.818,Parachute,2022.1.1,59.64537247763395,
negative,yellow,1,k,None,,,,,1,0,20,0,,,,,,,,,,,,,,,,,,,,,,,,,,,,,,,,,,,,,,,,,prac,None,None,1,1.4932492999942042,162.80452560001868,None,None,1,,,,,,,,,,,,,,117,22,Female,2022-05-05_14h21.10.818,Parachute,2022.1.1,59.64537247763395,
positive,red,2,None,None,,,,,1,1,21,1,,,,,,,,,,,,,,,,,,,,,,,,,,,,,,,,,,,,,,,,,prac,None,None,1,1.4986115999927279,165.2990827000176,None,None,1,,,,,,,,,,,,,,117,22,Female,2022-05-05_14h21.10.818,Parachute,2022.1.1,59.64537247763395,
negative,blue,2,None,k,,,,,1,2,22,2,,,,,,,,,,,,,,,,,,,,,,,,,,,,,,,,,,,,,,,,,prac,k,k,1,0.7706175999774132,167.79916850000154,None,None,0,,,,,,,,,,,,,,117,22,Female,2022-05-05_14h21.10.818,Parachute,2022.1.1,59.64537247763395,
positive,yellow,1,None,k,,,,,1,3,23,3,,,,,,,,,,,,,,,,,,,,,,,,,,,,,,,,,,,,,,,,,prac,k,k,1,0.9812881000107154,169.57160850000218,None,None,0,,,,,,,,,,,,,,117,22,Female,2022-05-05_14h21.10.818,Parachute,2022.1.1,59.64537247763395,
negative,blue,2,None,k,,,,,1,4,24,4,,,,,,,,,,,,,,,,,,,,,,,,,,,,,,,,,,,,,,,,,prac,k,k,1,0.9157241999928374,171.55454800001462,None,None,0,,,,,,,,,,,,,,117,22,Female,2022-05-05_14h21.10.818,Parachute,2022.1.1,59.64537247763395,
negative,blue,1,None,k,,,,,1,5,25,5,,,,,,,,,,,,,,,,,,,,,,,,,,,,,,,,,,,,,,,,,prac,k,k,1,1.3314040999975987,173.47147220000625,None,None,0,,,,,,,,,,,,,,117,22,Female,2022-05-05_14h21.10.818,Parachute,2022.1.1,59.64537247763395,
negative,yellow,2,k,None,,,,,1,6,26,6,,,,,,,,,,,,,,,,,,,,,,,,,,,,,,,,,,,,,,,,,prac,None,None,1,1.4945809000055306,175.8043777999992,None,None,1,,,,,,,,,,,,,,117,22,Female,2022-05-05_14h21.10.818,Parachute,2022.1.1,59.64537247763395,
negative,red,1,None,None,,,,,1,7,27,7,,,,,,,,,,,,,,,,,,,,,,,,,,,,,,,,,,,,,,,,,prac,None,None,1,1.4984623999916948,178.29974730001413,None,None,1,,,,,,,,,,,,,,117,22,Female,2022-05-05_14h21.10.818,Parachute,2022.1.1,59.64537247763395,
positive,yellow,2,None,k,,,,,1,8,28,8,,,,,,,,,,,,,,,,,,,,,,,,,,,,,,,,,,,,,,,,,prac,k,k,1,0.9010236999893095,180.80057320001652,None,None,0,,,,,,,,,,,,,,117,22,Female,2022-05-05_14h21.10.818,Parachute,2022.1.1,59.64537247763395,
negative,yellow,1,k,None,,,,,1,9,29,9,,,,,,,,,,,,,,,,,,,,,,,,,,,,,,,,,,,,,,,,,prac,None,None,1,1.496281799976714,182.7022280000092,None,None,1,,,,,,,,,,,,,,117,22,Female,2022-05-05_14h21.10.818,Parachute,2022.1.1,59.64537247763395,
positive,yellow,2,None,k,,,,,1,10,30,10,,,,,,,,,,,,,,,,,,,,,,,,,,,,,,,,,,,,,,,,,prac,k,k,1,0.8375202000024728,185.20012850000057,None,None,0,,,,,,,,,,,,,,117,22,Female,2022-05-05_14h21.10.818,Parachute,2022.1.1,59.64537247763395,
negative,yellow,2,k,None,,,,,1,11,31,11,,,,,,,,,,,,,,,,,,,,,,,,,,,,,,,,,,,,,,,,,prac,None,None,1,1.4929993000114337,187.03823010000633,None,None,1,,,,,,,,,,,,,,117,22,Female,2022-05-05_14h21.10.818,Parachute,2022.1.1,59.64537247763395,
negative,red,2,None,None,,,,,1,12,32,12,,,,,,,,,,,,,,,,,,,,,,,,,,,,,,,,,,,,,,,,,prac,None,None,1,1.499093799997354,189.53312410000945,None,None,1,,,,,,,,,,,,,,117,22,Female,2022-05-05_14h21.10.818,Parachute,2022.1.1,59.64537247763395,
positive,red,1,None,None,,,,,1,13,33,13,,,,,,,,,,,,,,,,,,,,,,,,,,,,,,,,,,,,,,,,,prac,None,None,1,1.4983417999756057,192.03327000001445,None,None,1,,,,,,,,,,,,,,117,22,Female,2022-05-05_14h21.10.818,Parachute,2022.1.1,59.64537247763395,
positive,blue,2,k,None,,,,,1,14,34,14,,,,,,,,,,,,,,,,,,,,,,,,,,,,,,,,,,,,,,,,,prac,None,None,1,1.4991363000008278,194.5333055999945,None,None,1,,,,,,,,,,,,,,117,22,Female,2022-05-05_14h21.10.818,Parachute,2022.1.1,59.64537247763395,
positive,blue,1,k,None,,,,,1,15,35,15,,,,,,,,,,,,,,,,,,,,,,,,,,,,,,,,,,,,,,,,,prac,None,None,1,1.4984756000048947,197.03347630001372,None,None,1,,,,,,,,,,,,,,117,22,Female,2022-05-05_14h21.10.818,Parachute,2022.1.1,59.64537247763395,
negative,blue,1,None,k,,,,,1,16,36,16,,,,,,,,,,,,,,,,,,,,,,,,,,,,,,,,,,,,,,,,,prac,k,k,1,0.8873662000114564,199.5335247000039,None,None,0,,,,,,,,,,,,,,117,22,Female,2022-05-05_14h21.10.818,Parachute,2022.1.1,59.64537247763395,
positive,blue,2,k,None,,,,,1,17,37,17,,,,,,,,,,,,,,,,,,,,,,,,,,,,,,,,,,,,,,,,,prac,None,None,1,1.4938197000010405,201.42153260001214,None,None,1,,,,,,,,,,,,,,117,22,Female,2022-05-05_14h21.10.818,Parachute,2022.1.1,59.64537247763395,
positive,blue,1,k,None,,,,,1,18,38,18,,,,,,,,,,,,,,,,,,,,,,,,,,,,,,,,,,,,,,,,,prac,None,None,1,1.498576400015736,203.91702560000704,None,None,1,,,,,,,,,,,,,,117,22,Female,2022-05-05_14h21.10.818,Parachute,2022.1.1,59.64537247763395,
positive,yellow,1,None,k,,,,,1,19,39,19,,,,,,,,,,,,,,,,,,,,,,,,,,,,,,,,,,,,,,,,,prac,k,k,1,0.9710671000066213,206.41693740000483,None,None,0,,,,,,,,,,,,,,117,22,Female,2022-05-05_14h21.10.818,Parachute,2022.1.1,59.64537247763395,
,,,,,,,,,,,,,,,,,,,,,,,,,,,,,,,,,,,,,,,,,,,,,,,,,,,,,,,,,,,,,,208.41645280001103,None,208.41645280001103,None,0.096296296,-0.08055556,0,0,0,0.012495420000050217,None,,,117,22,Female,2022-05-05_14h21.10.818,Parachute,2022.1.1,59.64537247763395,
negative,yellow,2,k,None,,,,,,,,,0,0,0,0,,,,,,,,,,,,,,,,,,,,,,,,,,,,,,,,,220.9839489000151,None,220.9839489000151,None,main,None,None,1,1.5055761999974493,223.0257593000133,None,None,1,,,,,,,,,,,,,,117,22,Female,2022-05-05_14h21.10.818,Parachute,2022.1.1,59.64537247763395,
positive,red,1,None,None,,,,,,,,,0,1,1,1,,,,,,,,,,,,,,,,,,,,,,,,,,,,,,,,,,,,,main,None,None,1,1.4989411999995355,225.53407829999924,None,None,1,,,,,,,,,,,,,,117,22,Female,2022-05-05_14h21.10.818,Parachute,2022.1.1,59.64537247763395,
positive,blue,2,k,None,,,,,,,,,0,2,2,2,,,,,,,,,,,,,,,,,,,,,,,,,,,,,,,,,,,,,main,None,None,1,1.4984732000157237,228.03451090000453,None,None,1,,,,,,,,,,,,,,117,22,Female,2022-05-05_14h21.10.818,Parachute,2022.1.1,59.64537247763395,
positive,blue,1,k,None,,,,,,,,,0,3,3,3,,,,,,,,,,,,,,,,,,,,,,,,,,,,,,,,,,,,,main,None,None,1,1.498730399995111,230.53416929999366,None,None,1,,,,,,,,,,,,,,117,22,Female,2022-05-05_14h21.10.818,Parachute,2022.1.1,59.64537247763395,
negative,yellow,2,k,None,,,,,,,,,0,4,4,4,,,,,,,,,,,,,,,,,,,,,,,,,,,,,,,,,,,,,main,None,None,1,1.4983615000091959,233.03452320001088,None,None,1,,,,,,,,,,,,,,117,22,Female,2022-05-05_14h21.10.818,Parachute,2022.1.1,59.64537247763395,
positive,yellow,2,None,k,,,,,,,,,0,5,5,5,,,,,,,,,,,,,,,,,,,,,,,,,,,,,,,,,,,,,main,k,k,1,0.7870689999836031,235.53458350000437,None,None,0,,,,,,,,,,,,,,117,22,Female,2022-05-05_14h21.10.818,Parachute,2022.1.1,59.64537247763395,
negative,blue,2,None,k,,,,,,,,,0,6,6,6,,,,,,,,,,,,,,,,,,,,,,,,,,,,,,,,,,,,,main,k,k,1,0.7326863000052981,237.3223999000038,None,None,0,,,,,,,,,,,,,,117,22,Female,2022-05-05_14h21.10.818,Parachute,2022.1.1,59.64537247763395,
positive,red,2,None,None,,,,,,,,,0,7,7,7,,,,,,,,,,,,,,,,,,,,,,,,,,,,,,,,,,,,,main,None,None,1,1.493272199993953,239.05572309999843,None,None,1,,,,,,,,,,,,,,117,22,Female,2022-05-05_14h21.10.818,Parachute,2022.1.1,59.64537247763395,
positive,yellow,1,None,k,,,,,,,,,0,8,8,8,,,,,,,,,,,,,,,,,,,,,,,,,,,,,,,,,,,,,main,k,k,1,0.9198335999972187,241.55320660001598,None,None,0,,,,,,,,,,,,,,117,22,Female,2022-05-05_14h21.10.818,Parachute,2022.1.1,59.64537247763395,
negative,red,1,None,None,,,,,,,,,0,9,9,9,,,,,,,,,,,,,,,,,,,,,,,,,,,,,,,,,,,,,main,None,None,1,1.4939360999851488,243.47267960000318,None,None,1,,,,,,,,,,,,,,117,22,Female,2022-05-05_14h21.10.818,Parachute,2022.1.1,59.64537247763395,
positive,yellow,1,None,k,,,,,,,,,0,10,10,10,,,,,,,,,,,,,,,,,,,,,,,,,,,,,,,,,,,,,main,k,k,1,0.7039184999885038,245.96825200002058,None,None,0,,,,,,,,,,,,,,117,22,Female,2022-05-05_14h21.10.818,Parachute,2022.1.1,59.64537247763395,
negative,yellow,1,k,None,,,,,,,,,0,11,11,11,,,,,,,,,,,,,,,,,,,,,,,,,,,,,,,,,,,,,main,None,None,1,1.493907099997159,247.67304429999785,None,None,1,,,,,,,,,,,,,,117,22,Female,2022-05-05_14h21.10.818,Parachute,2022.1.1,59.64537247763395,
negative,yellow,1,k,None,,,,,,,,,0,12,12,12,,,,,,,,,,,,,,,,,,,,,,,,,,,,,,,,,,,,,main,None,None,1,1.498117600014666,250.16829380000127,None,None,1,,,,,,,,,,,,,,117,22,Female,2022-05-05_14h21.10.818,Parachute,2022.1.1,59.64537247763395,
negative,red,2,None,None,,,,,,,,,0,13,13,13,,,,,,,,,,,,,,,,,,,,,,,,,,,,,,,,,,,,,main,None,None,1,1.4990823999978602,252.6679933000123,None,None,1,,,,,,,,,,,,,,117,22,Female,2022-05-05_14h21.10.818,Parachute,2022.1.1,59.64537247763395,
positive,yellow,2,None,k,,,,,,,,,0,14,14,14,,,,,,,,,,,,,,,,,,,,,,,,,,,,,,,,,,,,,main,k,k,1,0.718722899997374,255.1681266000087,None,None,0,,,,,,,,,,,,,,117,22,Female,2022-05-05_14h21.10.818,Parachute,2022.1.1,59.64537247763395,
positive,blue,1,k,None,,,,,,,,,0,15,15,15,,,,,,,,,,,,,,,,,,,,,,,,,,,,,,,,,,,,,main,None,None,1,1.494707899983041,256.88882230001036,None,None,1,,,,,,,,,,,,,,117,22,Female,2022-05-05_14h21.10.818,Parachute,2022.1.1,59.64537247763395,
negative,blue,1,None,k,,,,,,,,,0,16,16,16,,,,,,,,,,,,,,,,,,,,,,,,,,,,,,,,,,,,,main,k,k,1,0.6683762000175193,259.3849721000006,None,None,0,,,,,,,,,,,,,,117,22,Female,2022-05-05_14h21.10.818,Parachute,2022.1.1,59.64537247763395,
positive,blue,2,k,None,,,,,,,,,0,17,17,17,,,,,,,,,,,,,,,,,,,,,,,,,,,,,,,,,,,,,main,None,None,1,1.4958633999922313,261.0542854999949,None,None,1,,,,,,,,,,,,,,117,22,Female,2022-05-05_14h21.10.818,Parachute,2022.1.1,59.64537247763395,
negative,blue,2,None,k,,,,,,,,,0,18,18,18,,,,,,,,,,,,,,,,,,,,,,,,,,,,,,,,,,,,,main,k,k,1,0.701850600016769,263.5518086999946,None,None,0,,,,,,,,,,,,,,117,22,Female,2022-05-05_14h21.10.818,Parachute,2022.1.1,59.64537247763395,
negative,blue,1,None,k,,,,,,,,,0,19,19,19,,,,,,,,,,,,,,,,,,,,,,,,,,,,,,,,,,,,,main,k,k,1,0.826916899997741,265.2553812999977,None,None,0,,,,,,,,,,,,,,117,22,Female,2022-05-05_14h21.10.818,Parachute,2022.1.1,59.64537247763395,
negative,blue,1,None,k,,,,,,,,,0,20,20,20,,,,,,,,,,,,,,,,,,,,,,,,,,,,,,,,,,,,,main,k,k,1,0.8673120000166818,267.08510349999415,None,None,0,,,,,,,,,,,,,,117,22,Female,2022-05-05_14h21.10.818,Parachute,2022.1.1,59.64537247763395,
negative,blue,2,None,k,,,,,,,,,0,21,21,21,,,,,,,,,,,,,,,,,,,,,,,,,,,,,,,,,,,,,main,k,k,1,0.7195387999818195,268.951876200008,None,None,0,,,,,,,,,,,,,,117,22,Female,2022-05-05_14h21.10.818,Parachute,2022.1.1,59.64537247763395,
negative,red,1,None,None,,,,,,,,,0,22,22,22,,,,,,,,,,,,,,,,,,,,,,,,,,,,,,,,,,,,,main,None,None,1,1.4943695999972988,270.6730026000005,None,None,1,,,,,,,,,,,,,,117,22,Female,2022-05-05_14h21.10.818,Parachute,2022.1.1,59.64537247763395,
positive,red,2,None,None,,,,,,,,,0,23,23,23,,,,,,,,,,,,,,,,,,,,,,,,,,,,,,,,,,,,,main,None,None,1,1.4987244000076316,273.167989700014,None,None,1,,,,,,,,,,,,,,117,22,Female,2022-05-05_14h21.10.818,Parachute,2022.1.1,59.64537247763395,
negative,red,2,None,None,,,,,,,,,0,24,24,24,,,,,,,,,,,,,,,,,,,,,,,,,,,,,,,,,,,,,main,None,None,1,1.4986786999797914,275.66865170001984,None,None,1,,,,,,,,,,,,,,117,22,Female,2022-05-05_14h21.10.818,Parachute,2022.1.1,59.64537247763395,
positive,blue,2,k,None,,,,,,,,,0,25,25,25,,,,,,,,,,,,,,,,,,,,,,,,,,,,,,,,,,,,,main,None,None,1,1.499078399996506,278.1685666000121,None,None,1,,,,,,,,,,,,,,117,22,Female,2022-05-05_14h21.10.818,Parachute,2022.1.1,59.64537247763395,
negative,yellow,1,k,None,,,,,,,,,0,26,26,26,,,,,,,,,,,,,,,,,,,,,,,,,,,,,,,,,,,,,main,None,None,1,1.4979458000161685,280.66902400000254,None,None,1,,,,,,,,,,,,,,117,22,Female,2022-05-05_14h21.10.818,Parachute,2022.1.1,59.64537247763395,
positive,blue,2,k,None,,,,,,,,,0,27,27,27,,,,,,,,,,,,,,,,,,,,,,,,,,,,,,,,,,,,,main,None,None,1,1.4989787000231445,283.16821410000557,None,None,1,,,,,,,,,,,,,,117,22,Female,2022-05-05_14h21.10.818,Parachute,2022.1.1,59.64537247763395,
negative,blue,2,None,k,,,,,,,,,0,28,28,28,,,,,,,,,,,,,,,,,,,,,,,,,,,,,,,,,,,,,main,k,k,1,0.8205737999815028,285.66832699999213,None,None,0,,,,,,,,,,,,,,117,22,Female,2022-05-05_14h21.10.818,Parachute,2022.1.1,59.64537247763395,
positive,red,1,None,None,,,,,,,,,0,29,29,29,,,,,,,,,,,,,,,,,,,,,,,,,,,,,,,,,,,,,main,None,None,1,1.493002000002889,287.4901041999983,None,None,1,,,,,,,,,,,,,,117,22,Female,2022-05-05_14h21.10.818,Parachute,2022.1.1,59.64537247763395,
positive,blue,1,k,None,,,,,,,,,0,30,30,30,,,,,,,,,,,,,,,,,,,,,,,,,,,,,,,,,,,,,main,None,None,1,1.4994295999931637,289.9851380000182,None,None,1,,,,,,,,,,,,,,117,22,Female,2022-05-05_14h21.10.818,Parachute,2022.1.1,59.64537247763395,
positive,yellow,1,None,k,,,,,,,,,0,31,31,31,,,,,,,,,,,,,,,,,,,,,,,,,,,,,,,,,,,,,main,k,k,1,0.8368459999910556,292.4858821000089,None,None,0,,,,,,,,,,,,,,117,22,Female,2022-05-05_14h21.10.818,Parachute,2022.1.1,59.64537247763395,
negative,yellow,2,k,None,,,,,,,,,0,32,32,32,,,,,,,,,,,,,,,,,,,,,,,,,,,,,,,,,,,,,main,None,None,1,1.4930836999847088,294.3233548999997,None,None,1,,,,,,,,,,,,,,117,22,Female,2022-05-05_14h21.10.818,Parachute,2022.1.1,59.64537247763395,
negative,blue,1,None,k,,,,,,,,,0,33,33,33,,,,,,,,,,,,,,,,,,,,,,,,,,,,,,,,,,,,,main,k,k,1,0.8327515999844763,296.81857060000766,None,None,0,,,,,,,,,,,,,,117,22,Female,2022-05-05_14h21.10.818,Parachute,2022.1.1,59.64537247763395,
positive,blue,1,k,None,,,,,,,,,0,34,34,34,,,,,,,,,,,,,,,,,,,,,,,,,,,,,,,,,,,,,main,None,None,1,1.4983424999809358,298.65301989999716,None,None,1,,,,,,,,,,,,,,117,22,Female,2022-05-05_14h21.10.818,Parachute,2022.1.1,59.64537247763395,
negative,yellow,1,k,None,,,,,,,,,0,35,35,35,,,,,,,,,,,,,,,,,,,,,,,,,,,,,,,,,,,,,main,None,None,1,1.4983746999932919,301.152831000014,None,None,1,,,,,,,,,,,,,,117,22,Female,2022-05-05_14h21.10.818,Parachute,2022.1.1,59.64537247763395,
positive,yellow,2,None,k,,,,,,,,,0,36,36,36,,,,,,,,,,,,,,,,,,,,,,,,,,,,,,,,,,,,,main,k,k,1,0.8024722999834921,303.6523367000045,None,None,0,,,,,,,,,,,,,,117,22,Female,2022-05-05_14h21.10.818,Parachute,2022.1.1,59.64537247763395,
positive,yellow,2,None,k,,,,,,,,,0,37,37,37,,,,,,,,,,,,,,,,,,,,,,,,,,,,,,,,,,,,,main,k,k,1,0.6596400999987964,305.45700080000097,None,None,0,,,,,,,,,,,,,,117,22,Female,2022-05-05_14h21.10.818,Parachute,2022.1.1,59.64537247763395,
negative,yellow,2,k,None,,,,,,,,,0,38,38,38,,,,,,,,,,,,,,,,,,,,,,,,,,,,,,,,,,,,,main,None,None,1,1.5000374000228476,307.1183300999983,None,None,1,,,,,,,,,,,,,,117,22,Female,2022-05-05_14h21.10.818,Parachute,2022.1.1,59.64537247763395,
positive,yellow,1,None,k,,,,,,,,,0,39,39,39,,,,,,,,,,,,,,,,,,,,,,,,,,,,,,,,,,,,,main,k,k,1,0.7194767000037245,309.61869910001406,None,None,0,,,,,,,,,,,,,,117,22,Female,2022-05-05_14h21.10.818,Parachute,2022.1.1,59.64537247763395,
negative,yellow,2,k,None,,,,,,,,,0,40,40,40,,,,,,,,,,,,,,,,,,,,,,,,,,,,,,,,,,,,,main,None,None,1,1.4951924000051804,311.34005090000574,None,None,1,,,,,,,,,,,,,,117,22,Female,2022-05-05_14h21.10.818,Parachute,2022.1.1,59.64537247763395,
positive,blue,2,k,None,,,,,,,,,0,41,41,41,,,,,,,,,,,,,,,,,,,,,,,,,,,,,,,,,,,,,main,None,None,1,1.498929399996996,313.83606080000754,None,None,1,,,,,,,,,,,,,,117,22,Female,2022-05-05_14h21.10.818,Parachute,2022.1.1,59.64537247763395,
positive,blue,2,k,None,,,,,,,,,0,42,42,42,,,,,,,,,,,,,,,,,,,,,,,,,,,,,,,,,,,,,main,None,None,1,1.4983570000040345,316.33631919999607,None,None,1,,,,,,,,,,,,,,117,22,Female,2022-05-05_14h21.10.818,Parachute,2022.1.1,59.64537247763395,
negative,blue,2,None,k,,,,,,,,,0,43,43,43,,,,,,,,,,,,,,,,,,,,,,,,,,,,,,,,,,,,,main,k,k,1,0.7032898000034038,318.8367923000187,None,None,0,,,,,,,,,,,,,,117,22,Female,2022-05-05_14h21.10.818,Parachute,2022.1.1,59.64537247763395,
negative,red,1,None,None,,,,,,,,,0,44,44,44,,,,,,,,,,,,,,,,,,,,,,,,,,,,,,,,,,,,,main,None,None,1,1.493965700006811,320.54112239999813,None,None,1,,,,,,,,,,,,,,117,22,Female,2022-05-05_14h21.10.818,Parachute,2022.1.1,59.64537247763395,
negative,yellow,1,k,None,,,,,,,,,0,45,45,45,,,,,,,,,,,,,,,,,,,,,,,,,,,,,,,,,,,,,main,None,None,1,1.4980770999973174,323.03646550001577,None,None,1,,,,,,,,,,,,,,117,22,Female,2022-05-05_14h21.10.818,Parachute,2022.1.1,59.64537247763395,
negative,yellow,1,k,None,,,,,,,,,0,46,46,46,,,,,,,,,,,,,,,,,,,,,,,,,,,,,,,,,,,,,main,None,None,1,1.4993341999943368,325.5361679000198,None,None,1,,,,,,,,,,,,,,117,22,Female,2022-05-05_14h21.10.818,Parachute,2022.1.1,59.64537247763395,
positive,red,1,None,None,,,,,,,,,0,47,47,47,,,,,,,,,,,,,,,,,,,,,,,,,,,,,,,,,,,,,main,None,None,1,1.498283299995819,328.03670200001216,None,None,1,,,,,,,,,,,,,,117,22,Female,2022-05-05_14h21.10.818,Parachute,2022.1.1,59.64537247763395,
positive,yellow,1,None,k,,,,,,,,,0,48,48,48,,,,,,,,,,,,,,,,,,,,,,,,,,,,,,,,,,,,,main,k,k,1,1.7204175000078976,330.5356066999957,None,None,0,,,,,,,,,,,,,,117,22,Female,2022-05-05_14h21.10.818,Parachute,2022.1.1,59.64537247763395,
negative,blue,1,None,k,,,,,,,,,0,49,49,49,,,,,,,,,,,,,,,,,,,,,,,,,,,,,,,,,,,,,main,k,k,1,0.8576901000051294,334.26932099999976,None,None,0,,,,,,,,,,,,,,117,22,Female,2022-05-05_14h21.10.818,Parachute,2022.1.1,59.64537247763395,
positive,yellow,2,None,k,,,,,,,,,0,50,50,50,,,,,,,,,,,,,,,,,,,,,,,,,,,,,,,,,,,,,main,k,k,1,0.9813999000180047,336.12508779999916,None,None,0,,,,,,,,,,,,,,117,22,Female,2022-05-05_14h21.10.818,Parachute,2022.1.1,59.64537247763395,
negative,blue,1,None,k,,,,,,,,,0,51,51,51,,,,,,,,,,,,,,,,,,,,,,,,,,,,,,,,,,,,,main,k,k,1,0.9609749999945052,338.11994699999923,None,None,0,,,,,,,,,,,,,,117,22,Female,2022-05-05_14h21.10.818,Parachute,2022.1.1,59.64537247763395,
positive,red,2,None,None,,,,,,,,,0,52,52,52,,,,,,,,,,,,,,,,,,,,,,,,,,,,,,,,,,,,,main,None,None,1,1.497118600003887,340.0714552999998,None,None,1,,,,,,,,,,,,,,117,22,Female,2022-05-05_14h21.10.818,Parachute,2022.1.1,59.64537247763395,
positive,yellow,2,None,k,,,,,,,,,0,53,53,53,,,,,,,,,,,,,,,,,,,,,,,,,,,,,,,,,,,,,main,k,k,1,0.8346801000006963,342.5695551999961,None,None,0,,,,,,,,,,,,,,117,22,Female,2022-05-05_14h21.10.818,Parachute,2022.1.1,59.64537247763395,
negative,red,2,None,None,,,,,,,,,0,54,54,54,,,,,,,,,,,,,,,,,,,,,,,,,,,,,,,,,,,,,main,None,None,1,1.4963187999965157,344.40616660000524,None,None,1,,,,,,,,,,,,,,117,22,Female,2022-05-05_14h21.10.818,Parachute,2022.1.1,59.64537247763395,
positive,yellow,1,None,k,,,,,,,,,0,55,55,55,,,,,,,,,,,,,,,,,,,,,,,,,,,,,,,,,,,,,main,k,k,1,0.9340475000208244,346.90317259999574,None,None,0,,,,,,,,,,,,,,117,22,Female,2022-05-05_14h21.10.818,Parachute,2022.1.1,59.64537247763395,
negative,blue,2,None,k,,,,,,,,,0,56,56,56,,,,,,,,,,,,,,,,,,,,,,,,,,,,,,,,,,,,,main,k,k,1,0.7860038000217173,348.8393473000033,None,None,0,,,,,,,,,,,,,,117,22,Female,2022-05-05_14h21.10.818,Parachute,2022.1.1,59.64537247763395,
positive,blue,1,k,None,,,,,,,,,0,57,57,57,,,,,,,,,,,,,,,,,,,,,,,,,,,,,,,,,,,,,main,None,None,1,1.493061300017871,350.6250335999939,None,None,1,,,,,,,,,,,,,,117,22,Female,2022-05-05_14h21.10.818,Parachute,2022.1.1,59.64537247763395,
positive,blue,1,k,None,,,,,,,,,0,58,58,58,,,,,,,,,,,,,,,,,,,,,,,,,,,,,,,,,,,,,main,None,None,1,1.4983077000069898,353.1205175000068,None,None,1,,,,,,,,,,,,,,117,22,Female,2022-05-05_14h21.10.818,Parachute,2022.1.1,59.64537247763395,
negative,yellow,2,k,None,,,,,,,,,0,59,59,59,,,,,,,,,,,,,,,,,,,,,,,,,,,,,,,,,,,,,main,None,None,1,1.4987729999993462,355.6198246999993,None,None,1,,,,,,,,,,,,,,117,22,Female,2022-05-05_14h21.10.818,Parachute,2022.1.1,59.64537247763395,
positive,red,2,None,None,,,,,,,,,0,60,60,60,,,,,,,,,,,,,,,,,,,,,,,,,,,,,,,,,,,,,main,None,None,1,1.498743200005265,358.12006050001946,None,None,1,,,,,,,,,,,,,,117,22,Female,2022-05-05_14h21.10.818,Parachute,2022.1.1,59.64537247763395,
negative,yellow,1,k,None,,,,,,,,,0,61,61,61,,,,,,,,,,,,,,,,,,,,,,,,,,,,,,,,,,,,,main,None,None,1,1.4985825000039767,360.62050889999955,None,None,1,,,,,,,,,,,,,,117,22,Female,2022-05-05_14h21.10.818,Parachute,2022.1.1,59.64537247763395,
negative,red,1,None,None,,,,,,,,,0,62,62,62,,,,,,,,,,,,,,,,,,,,,,,,,,,,,,,,,,,,,main,None,None,1,1.4991512999986298,363.1202544000116,None,None,1,,,,,,,,,,,,,,117,22,Female,2022-05-05_14h21.10.818,Parachute,2022.1.1,59.64537247763395,
negative,blue,1,None,k,,,,,,,,,0,63,63,63,,,,,,,,,,,,,,,,,,,,,,,,,,,,,,,,,,,,,main,k,k,1,1.102088100014953,365.62025410000933,None,None,0,,,,,,,,,,,,,,117,22,Female,2022-05-05_14h21.10.818,Parachute,2022.1.1,59.64537247763395,
positive,blue,2,k,None,,,,,,,,,0,64,64,64,,,,,,,,,,,,,,,,,,,,,,,,,,,,,,,,,,,,,main,None,None,1,1.4944015000073705,367.72481909999624,None,None,1,,,,,,,,,,,,,,117,22,Female,2022-05-05_14h21.10.818,Parachute,2022.1.1,59.64537247763395,
negative,yellow,2,k,None,,,,,,,,,0,65,65,65,,,,,,,,,,,,,,,,,,,,,,,,,,,,,,,,,,,,,main,None,None,1,1.4991414000105578,370.2202920000127,None,None,1,,,,,,,,,,,,,,117,22,Female,2022-05-05_14h21.10.818,Parachute,2022.1.1,59.64537247763395,
positive,yellow,2,None,k,,,,,,,,,0,66,66,66,,,,,,,,,,,,,,,,,,,,,,,,,,,,,,,,,,,,,main,k,k,1,0.86681549999048,372.7201311000099,None,None,0,,,,,,,,,,,,,,117,22,Female,2022-05-05_14h21.10.818,Parachute,2022.1.1,59.64537247763395,
positive,yellow,2,None,k,,,,,,,,,0,67,67,67,,,,,,,,,,,,,,,,,,,,,,,,,,,,,,,,,,,,,main,k,k,1,0.8367126000230201,374.5885532000102,None,None,0,,,,,,,,,,,,,,117,22,Female,2022-05-05_14h21.10.818,Parachute,2022.1.1,59.64537247763395,
positive,red,1,None,None,,,,,,,,,0,68,68,68,,,,,,,,,,,,,,,,,,,,,,,,,,,,,,,,,,,,,main,None,None,1,1.4928901999955997,376.4255822999985,None,None,1,,,,,,,,,,,,,,117,22,Female,2022-05-05_14h21.10.818,Parachute,2022.1.1,59.64537247763395,
positive,yellow,1,None,k,,,,,,,,,0,69,69,69,,,,,,,,,,,,,,,,,,,,,,,,,,,,,,,,,,,,,main,k,k,1,0.9531379999825731,378.92045190001954,None,None,0,,,,,,,,,,,,,,117,22,Female,2022-05-05_14h21.10.818,Parachute,2022.1.1,59.64537247763395,
negative,yellow,2,k,None,,,,,,,,,0,70,70,70,,,,,,,,,,,,,,,,,,,,,,,,,,,,,,,,,,,,,main,None,None,1,1.49391900000046,380.87570699999924,None,None,1,,,,,,,,,,,,,,117,22,Female,2022-05-05_14h21.10.818,Parachute,2022.1.1,59.64537247763395,
positive,yellow,1,None,k,,,,,,,,,0,71,71,71,,,,,,,,,,,,,,,,,,,,,,,,,,,,,,,,,,,,,main,k,k,1,0.9027180999983102,383.3711905000091,None,None,0,,,,,,,,,,,,,,117,22,Female,2022-05-05_14h21.10.818,Parachute,2022.1.1,59.64537247763395,
negative,blue,1,None,k,,,,,,,,,0,72,72,72,,,,,,,,,,,,,,,,,,,,,,,,,,,,,,,,,,,,,main,k,k,1,0.7624013999884482,385.276190900011,None,None,0,,,,,,,,,,,,,,117,22,Female,2022-05-05_14h21.10.818,Parachute,2022.1.1,59.64537247763395,
negative,red,2,None,None,,,,,,,,,0,73,73,73,,,,,,,,,,,,,,,,,,,,,,,,,,,,,,,,,,,,,main,None,None,1,1.4968971000052989,387.0384496000188,None,None,1,,,,,,,,,,,,,,117,22,Female,2022-05-05_14h21.10.818,Parachute,2022.1.1,59.64537247763395,
positive,blue,2,k,None,,,,,,,,,0,74,74,74,,,,,,,,,,,,,,,,,,,,,,,,,,,,,,,,,,,,,main,None,None,1,1.4992327000072692,389.53727460000664,None,None,1,,,,,,,,,,,,,,117,22,Female,2022-05-05_14h21.10.818,Parachute,2022.1.1,59.64537247763395,
negative,blue,2,None,k,,,,,,,,,0,75,75,75,,,,,,,,,,,,,,,,,,,,,,,,,,,,,,,,,,,,,main,k,k,1,0.7706117999914568,392.03748930001166,None,None,0,,,,,,,,,,,,,,117,22,Female,2022-05-05_14h21.10.818,Parachute,2022.1.1,59.64537247763395,
negative,blue,2,None,k,,,,,,,,,0,76,76,76,,,,,,,,,,,,,,,,,,,,,,,,,,,,,,,,,,,,,main,k,k,1,0.8818841000029352,393.80984220001847,None,None,0,,,,,,,,,,,,,,117,22,Female,2022-05-05_14h21.10.818,Parachute,2022.1.1,59.64537247763395,
negative,yellow,1,k,None,,,,,,,,,0,77,77,77,,,,,,,,,,,,,,,,,,,,,,,,,,,,,,,,,,,,,main,None,None,1,1.4937219000130426,395.6923914999934,None,None,1,,,,,,,,,,,,,,117,22,Female,2022-05-05_14h21.10.818,Parachute,2022.1.1,59.64537247763395,
positive,blue,1,k,None,,,,,,,,,0,78,78,78,,,,,,,,,,,,,,,,,,,,,,,,,,,,,,,,,,,,,main,None,None,1,1.4981572999968193,398.1876680999994,None,None,1,,,,,,,,,,,,,,117,22,Female,2022-05-05_14h21.10.818,Parachute,2022.1.1,59.64537247763395,
positive,blue,1,k,None,,,,,,,,,0,79,79,79,,,,,,,,,,,,,,,,,,,,,,,,,,,,,,,,,,,,,main,None,None,1,1.4989846000098623,400.68727369999397,None,None,1,,,,,,,,,,,,,,117,22,Female,2022-05-05_14h21.10.818,Parachute,2022.1.1,59.64537247763395,
positive,red,2,None,None,,,,,,,,,0,80,80,80,,,,,,,,,,,,,,,,,,,,,,,,,,,,,,,,,,,,,main,None,None,1,1.4987514999811538,403.1880533999938,None,None,1,,,,,,,,,,,,,,117,22,Female,2022-05-05_14h21.10.818,Parachute,2022.1.1,59.64537247763395,
positive,yellow,2,None,k,,,,,,,,,0,81,81,81,,,,,,,,,,,,,,,,,,,,,,,,,,,,,,,,,,,,,main,k,k,1,0.9135763999947812,405.6896619000181,None,None,0,,,,,,,,,,,,,,117,22,Female,2022-05-05_14h21.10.818,Parachute,2022.1.1,59.64537247763395,
positive,blue,1,k,None,,,,,,,,,0,82,82,82,,,,,,,,,,,,,,,,,,,,,,,,,,,,,,,,,,,,,main,None,None,1,1.500277700019069,407.60474189999513,None,None,1,,,,,,,,,,,,,,117,22,Female,2022-05-05_14h21.10.818,Parachute,2022.1.1,59.64537247763395,
negative,yellow,2,k,None,,,,,,,,,0,83,83,83,,,,,,,,,,,,,,,,,,,,,,,,,,,,,,,,,,,,,main,None,None,1,1.498884900007397,410.10527900001034,None,None,1,,,,,,,,,,,,,,117,22,Female,2022-05-05_14h21.10.818,Parachute,2022.1.1,59.64537247763395,
positive,blue,2,k,None,,,,,,,,,0,84,84,84,,,,,,,,,,,,,,,,,,,,,,,,,,,,,,,,,,,,,main,None,k,0,-0.8021038000006229,412.6048212000169,None,None,1,,,,,,,,,,,,,,117,22,Female,2022-05-05_14h21.10.818,Parachute,2022.1.1,59.64537247763395,
positive,yellow,1,None,k,,,,,,,,,0,85,85,85,,,,,,,,,,,,,,,,,,,,,,,,,,,,,,,,,,,,,main,k,k,1,0.8902486000151839,415.8212005000096,None,None,0,,,,,,,,,,,,,,117,22,Female,2022-05-05_14h21.10.818,Parachute,2022.1.1,59.64537247763395,
positive,blue,2,k,None,,,,,,,,,0,86,86,86,,,,,,,,,,,,,,,,,,,,,,,,,,,,,,,,,,,,,main,None,None,1,1.4936966999957804,417.71935990001657,None,None,1,,,,,,,,,,,,,,117,22,Female,2022-05-05_14h21.10.818,Parachute,2022.1.1,59.64537247763395,
positive,blue,1,k,None,,,,,,,,,0,87,87,87,,,,,,,,,,,,,,,,,,,,,,,,,,,,,,,,,,,,,main,None,None,1,1.4978503999882378,420.20560710001155,None,None,1,,,,,,,,,,,,,,117,22,Female,2022-05-05_14h21.10.818,Parachute,2022.1.1,59.64537247763395,
negative,yellow,2,k,None,,,,,,,,,0,88,88,88,,,,,,,,,,,,,,,,,,,,,,,,,,,,,,,,,,,,,main,None,None,1,1.4985706000006758,422.7052398000087,None,None,1,,,,,,,,,,,,,,117,22,Female,2022-05-05_14h21.10.818,Parachute,2022.1.1,59.64537247763395,
negative,blue,2,None,k,,,,,,,,,0,89,89,89,,,,,,,,,,,,,,,,,,,,,,,,,,,,,,,,,,,,,main,k,k,1,0.7543007999775,425.20510389999254,None,None,0,,,,,,,,,,,,,,117,22,Female,2022-05-05_14h21.10.818,Parachute,2022.1.1,59.64537247763395,
positive,yellow,2,None,k,,,,,,,,,0,90,90,90,,,,,,,,,,,,,,,,,,,,,,,,,,,,,,,,,,,,,main,k,k,1,0.7981464999902528,426.96038090001093,None,None,0,,,,,,,,,,,,,,117,22,Female,2022-05-05_14h21.10.818,Parachute,2022.1.1,59.64537247763395,
negative,yellow,1,k,None,,,,,,,,,0,91,91,91,,,,,,,,,,,,,,,,,,,,,,,,,,,,,,,,,,,,,main,None,None,1,1.493500699987635,428.7600097999966,None,None,1,,,,,,,,,,,,,,117,22,Female,2022-05-05_14h21.10.818,Parachute,2022.1.1,59.64537247763395,
negative,red,2,None,None,,,,,,,,,0,92,92,92,,,,,,,,,,,,,,,,,,,,,,,,,,,,,,,,,,,,,main,None,None,1,1.4983262000023387,431.25506860000314,None,None,1,,,,,,,,,,,,,,117,22,Female,2022-05-05_14h21.10.818,Parachute,2022.1.1,59.64537247763395,
negative,blue,2,None,k,,,,,,,,,0,93,93,93,,,,,,,,,,,,,,,,,,,,,,,,,,,,,,,,,,,,,main,k,k,1,0.8866323999827728,433.75503110000864,None,None,0,,,,,,,,,,,,,,117,22,Female,2022-05-05_14h21.10.818,Parachute,2022.1.1,59.64537247763395,
negative,blue,1,None,k,,,,,,,,,0,94,94,94,,,,,,,,,,,,,,,,,,,,,,,,,,,,,,,,,,,,,main,k,k,1,1.082958899991354,435.64370760001475,None,None,0,,,,,,,,,,,,,,117,22,Female,2022-05-05_14h21.10.818,Parachute,2022.1.1,59.64537247763395,
negative,blue,1,None,k,,,,,,,,,0,95,95,95,,,,,,,,,,,,,,,,,,,,,,,,,,,,,,,,,,,,,main,k,k,1,0.8810788000118919,437.72724390000803,None,None,0,,,,,,,,,,,,,,117,22,Female,2022-05-05_14h21.10.818,Parachute,2022.1.1,59.64537247763395,
negative,red,1,None,None,,,,,,,,,0,96,96,96,,,,,,,,,,,,,,,,,,,,,,,,,,,,,,,,,,,,,main,None,None,1,1.4938837999943644,439.6099777999916,None,None,1,,,,,,,,,,,,,,117,22,Female,2022-05-05_14h21.10.818,Parachute,2022.1.1,59.64537247763395,
positive,yellow,1,None,k,,,,,,,,,0,97,97,97,,,,,,,,,,,,,,,,,,,,,,,,,,,,,,,,,,,,,main,k,k,1,1.304617000016151,442.10475840000436,None,None,0,,,,,,,,,,,,,,117,22,Female,2022-05-05_14h21.10.818,Parachute,2022.1.1,59.64537247763395,
negative,yellow,1,k,None,,,,,,,,,0,98,98,98,,,,,,,,,,,,,,,,,,,,,,,,,,,,,,,,,,,,,main,None,None,1,1.4937096000066958,444.4104917999939,None,None,1,,,,,,,,,,,,,,117,22,Female,2022-05-05_14h21.10.818,Parachute,2022.1.1,59.64537247763395,
positive,red,1,None,None,,,,,,,,,0,99,99,99,,,,,,,,,,,,,,,,,,,,,,,,,,,,,,,,,,,,,main,None,None,1,1.499417099985294,446.9061910000164,None,None,1,,,,,,,,,,,,,,117,22,Female,2022-05-05_14h21.10.818,Parachute,2022.1.1,59.64537247763395,
positive,blue,1,k,None,,,,,,,,,0,100,100,100,,,,,,,,,,,,,,,,,,,,,,,,,,,,,,,,,,,,,main,None,None,1,1.498614499985706,449.40760400000727,None,None,1,,,,,,,,,,,,,,117,22,Female,2022-05-05_14h21.10.818,Parachute,2022.1.1,59.64537247763395,
negative,yellow,1,k,None,,,,,,,,,0,101,101,101,,,,,,,,,,,,,,,,,,,,,,,,,,,,,,,,,,,,,main,None,None,1,1.4971517999947537,451.9073051000014,None,None,1,,,,,,,,,,,,,,117,22,Female,2022-05-05_14h21.10.818,Parachute,2022.1.1,59.64537247763395,
negative,blue,2,None,k,,,,,,,,,0,102,102,102,,,,,,,,,,,,,,,,,,,,,,,,,,,,,,,,,,,,,main,k,k,1,1.3210985999903642,454.4053791000042,None,None,0,,,,,,,,,,,,,,117,22,Female,2022-05-05_14h21.10.818,Parachute,2022.1.1,59.64537247763395,
negative,yellow,2,k,None,,,,,,,,,0,103,103,103,,,,,,,,,,,,,,,,,,,,,,,,,,,,,,,,,,,,,main,None,None,1,1.4931551000045147,456.7278973000066,None,None,1,,,,,,,,,,,,,,117,22,Female,2022-05-05_14h21.10.818,Parachute,2022.1.1,59.64537247763395,
positive,yellow,2,None,k,,,,,,,,,0,104,104,104,,,,,,,,,,,,,,,,,,,,,,,,,,,,,,,,,,,,,main,k,k,1,0.9035348999896087,459.2220263000054,None,None,0,,,,,,,,,,,,,,117,22,Female,2022-05-05_14h21.10.818,Parachute,2022.1.1,59.64537247763395,
positive,blue,1,k,None,,,,,,,,,0,105,105,105,,,,,,,,,,,,,,,,,,,,,,,,,,,,,,,,,,,,,main,None,None,1,1.4945886999776121,461.1270630999934,None,None,1,,,,,,,,,,,,,,117,22,Female,2022-05-05_14h21.10.818,Parachute,2022.1.1,59.64537247763395,
positive,blue,2,k,None,,,,,,,,,0,106,106,106,,,,,,,,,,,,,,,,,,,,,,,,,,,,,,,,,,,,,main,None,None,1,1.4979759999841917,463.6232464000059,None,None,1,,,,,,,,,,,,,,117,22,Female,2022-05-05_14h21.10.818,Parachute,2022.1.1,59.64537247763395,
negative,blue,1,None,k,,,,,,,,,0,107,107,107,,,,,,,,,,,,,,,,,,,,,,,,,,,,,,,,,,,,,main,k,k,1,0.6870518999930937,466.12251790001756,None,None,0,,,,,,,,,,,,,,117,22,Female,2022-05-05_14h21.10.818,Parachute,2022.1.1,59.64537247763395,
positive,yellow,2,None,k,,,,,,,,,0,108,108,108,,,,,,,,,,,,,,,,,,,,,,,,,,,,,,,,,,,,,main,k,k,1,0.9825278999924194,467.81108899999526,None,None,0,,,,,,,,,,,,,,117,22,Female,2022-05-05_14h21.10.818,Parachute,2022.1.1,59.64537247763395,
negative,yellow,1,k,None,,,,,,,,,0,109,109,109,,,,,,,,,,,,,,,,,,,,,,,,,,,,,,,,,,,,,main,None,None,1,1.4934039000072517,469.79467980001937,None,None,1,,,,,,,,,,,,,,117,22,Female,2022-05-05_14h21.10.818,Parachute,2022.1.1,59.64537247763395,
negative,blue,2,None,k,,,,,,,,,0,110,110,110,,,,,,,,,,,,,,,,,,,,,,,,,,,,,,,,,,,,,main,k,k,1,0.769842100009555,472.2893843000056,None,None,0,,,,,,,,,,,,,,117,22,Female,2022-05-05_14h21.10.818,Parachute,2022.1.1,59.64537247763395,
positive,blue,2,k,None,,,,,,,,,0,111,111,111,,,,,,,,,,,,,,,,,,,,,,,,,,,,,,,,,,,,,main,None,None,1,1.4936796000110917,474.0608780000184,None,None,1,,,,,,,,,,,,,,117,22,Female,2022-05-05_14h21.10.818,Parachute,2022.1.1,59.64537247763395,
negative,blue,1,None,k,,,,,,,,,0,112,112,112,,,,,,,,,,,,,,,,,,,,,,,,,,,,,,,,,,,,,main,k,k,1,0.8518023999931756,476.55547670001397,None,None,0,,,,,,,,,,,,,,117,22,Female,2022-05-05_14h21.10.818,Parachute,2022.1.1,59.64537247763395,
positive,yellow,1,None,k,,,,,,,,,0,113,113,113,,,,,,,,,,,,,,,,,,,,,,,,,,,,,,,,,,,,,main,k,k,1,1.1168763999885414,478.4099461000005,None,None,0,,,,,,,,,,,,,,117,22,Female,2022-05-05_14h21.10.818,Parachute,2022.1.1,59.64537247763395,
negative,red,1,None,None,,,,,,,,,0,114,114,114,,,,,,,,,,,,,,,,,,,,,,,,,,,,,,,,,,,,,main,None,None,1,1.4942032999824733,480.527459600009,None,None,1,,,,,,,,,,,,,,117,22,Female,2022-05-05_14h21.10.818,Parachute,2022.1.1,59.64537247763395,
positive,red,1,None,None,,,,,,,,,0,115,115,115,,,,,,,,,,,,,,,,,,,,,,,,,,,,,,,,,,,,,main,None,None,1,1.4987058999831788,483.0227689000021,None,None,1,,,,,,,,,,,,,,117,22,Female,2022-05-05_14h21.10.818,Parachute,2022.1.1,59.64537247763395,
negative,red,2,None,None,,,,,,,,,0,116,116,116,,,,,,,,,,,,,,,,,,,,,,,,,,,,,,,,,,,,,main,None,None,1,1.498448800004553,485.5235192000109,None,None,1,,,,,,,,,,,,,,117,22,Female,2022-05-05_14h21.10.818,Parachute,2022.1.1,59.64537247763395,
negative,yellow,2,k,None,,,,,,,,,0,117,117,117,,,,,,,,,,,,,,,,,,,,,,,,,,,,,,,,,,,,,main,None,None,1,1.4991663999971934,488.0231805999938,None,None,1,,,,,,,,,,,,,,117,22,Female,2022-05-05_14h21.10.818,Parachute,2022.1.1,59.64537247763395,
positive,yellow,1,None,k,,,,,,,,,0,118,118,118,,,,,,,,,,,,,,,,,,,,,,,,,,,,,,,,,,,,,main,k,k,1,1.4194385000155307,490.5228994000063,None,None,0,,,,,,,,,,,,,,117,22,Female,2022-05-05_14h21.10.818,Parachute,2022.1.1,59.64537247763395,
positive,red,2,None,None,,,,,,,,,0,119,119,119,,,,,,,,,,,,,,,,,,,,,,,,,,,,,,,,,,,,,main,None,None,1,1.4945342999999411,492.9444246000203,None,None,1,,,,,,,,,,,,,,117,22,Female,2022-05-05_14h21.10.818,Parachute,2022.1.1,59.64537247763395,
positive,blue,2,k,None,,,,,,,,,0,120,120,120,,,,,,,,,,,,,,,,,,,,,,,,,,,,,,,,,,,,,main,None,None,1,1.4991512999986298,495.43991169999936,None,None,1,,,,,,,,,,,,,,117,22,Female,2022-05-05_14h21.10.818,Parachute,2022.1.1,59.64537247763395,
negative,red,1,None,None,,,,,,,,,0,121,121,121,,,,,,,,,,,,,,,,,,,,,,,,,,,,,,,,,,,,,main,None,None,1,1.498196700005792,497.94087570000556,None,None,1,,,,,,,,,,,,,,117,22,Female,2022-05-05_14h21.10.818,Parachute,2022.1.1,59.64537247763395,
positive,yellow,2,None,k,,,,,,,,,0,122,122,122,,,,,,,,,,,,,,,,,,,,,,,,,,,,,,,,,,,,,main,k,k,1,0.7532896999910008,500.43976189999375,None,None,0,,,,,,,,,,,,,,117,22,Female,2022-05-05_14h21.10.818,Parachute,2022.1.1,59.64537247763395,
negative,red,2,None,None,,,,,,,,,0,123,123,123,,,,,,,,,,,,,,,,,,,,,,,,,,,,,,,,,,,,,main,None,None,1,1.4940710999944713,502.19468440001947,None,None,1,,,,,,,,,,,,,,117,22,Female,2022-05-05_14h21.10.818,Parachute,2022.1.1,59.64537247763395,
negative,yellow,2,k,None,,,,,,,,,0,124,124,124,,,,,,,,,,,,,,,,,,,,,,,,,,,,,,,,,,,,,main,None,None,1,1.4991776999959257,504.69009540000116,None,None,1,,,,,,,,,,,,,,117,22,Female,2022-05-05_14h21.10.818,Parachute,2022.1.1,59.64537247763395,
positive,red,1,None,None,,,,,,,,,0,125,125,125,,,,,,,,,,,,,,,,,,,,,,,,,,,,,,,,,,,,,main,None,None,1,1.4983285999915097,507.1909056000004,None,None,1,,,,,,,,,,,,,,117,22,Female,2022-05-05_14h21.10.818,Parachute,2022.1.1,59.64537247763395,
negative,blue,2,None,k,,,,,,,,,0,126,126,126,,,,,,,,,,,,,,,,,,,,,,,,,,,,,,,,,,,,,main,k,k,1,0.903620500001125,509.69016030000057,None,None,0,,,,,,,,,,,,,,117,22,Female,2022-05-05_14h21.10.818,Parachute,2022.1.1,59.64537247763395,
negative,blue,1,None,k,,,,,,,,,0,127,127,127,,,,,,,,,,,,,,,,,,,,,,,,,,,,,,,,,,,,,main,k,k,1,0.7611892000131775,511.5950603999954,None,None,0,,,,,,,,,,,,,,117,22,Female,2022-05-05_14h21.10.818,Parachute,2022.1.1,59.64537247763395,
negative,yellow,1,k,None,,,,,,,,,0,128,128,128,,,,,,,,,,,,,,,,,,,,,,,,,,,,,,,,,,,,,main,None,None,1,1.497264500008896,513.3584635000152,None,None,1,,,,,,,,,,,,,,117,22,Female,2022-05-05_14h21.10.818,Parachute,2022.1.1,59.64537247763395,
negative,yellow,1,k,None,,,,,,,,,0,129,129,129,,,,,,,,,,,,,,,,,,,,,,,,,,,,,,,,,,,,,main,None,None,1,1.4999056000087876,515.8564878000179,None,None,1,,,,,,,,,,,,,,117,22,Female,2022-05-05_14h21.10.818,Parachute,2022.1.1,59.64537247763395,
positive,blue,1,k,None,,,,,,,,,0,130,130,130,,,,,,,,,,,,,,,,,,,,,,,,,,,,,,,,,,,,,main,None,None,1,1.4981574999983422,518.3578557000146,None,None,1,,,,,,,,,,,,,,117,22,Female,2022-05-05_14h21.10.818,Parachute,2022.1.1,59.64537247763395,
negative,blue,1,None,k,,,,,,,,,0,131,131,131,,,,,,,,,,,,,,,,,,,,,,,,,,,,,,,,,,,,,main,k,k,1,0.6356730000115931,520.8571145000169,None,None,0,,,,,,,,,,,,,,117,22,Female,2022-05-05_14h21.10.818,Parachute,2022.1.1,59.64537247763395,
negative,blue,2,None,k,,,,,,,,,0,132,132,132,,,,,,,,,,,,,,,,,,,,,,,,,,,,,,,,,,,,,main,k,k,1,0.6479439999966417,522.4947686000087,None,None,0,,,,,,,,,,,,,,117,22,Female,2022-05-05_14h21.10.818,Parachute,2022.1.1,59.64537247763395,
positive,blue,2,k,None,,,,,,,,,0,133,133,133,,,,,,,,,,,,,,,,,,,,,,,,,,,,,,,,,,,,,main,None,None,1,1.495912300015334,524.1442333000014,None,None,1,,,,,,,,,,,,,,117,22,Female,2022-05-05_14h21.10.818,Parachute,2022.1.1,59.64537247763395,
positive,red,2,None,None,,,,,,,,,0,134,134,134,,,,,,,,,,,,,,,,,,,,,,,,,,,,,,,,,,,,,main,None,None,1,1.4988388000056148,526.6409701000084,None,None,1,,,,,,,,,,,,,,117,22,Female,2022-05-05_14h21.10.818,Parachute,2022.1.1,59.64537247763395,
negative,yellow,2,k,None,,,,,,,,,0,135,135,135,,,,,,,,,,,,,,,,,,,,,,,,,,,,,,,,,,,,,main,None,k,0,0.8370932999823708,529.1406737999932,None,None,1,,,,,,,,,,,,,,117,22,Female,2022-05-05_14h21.10.818,Parachute,2022.1.1,59.64537247763395,
positive,yellow,2,None,k,,,,,,,,,0,136,136,136,,,,,,,,,,,,,,,,,,,,,,,,,,,,,,,,,,,,,main,k,k,1,0.9400700000114739,531.9904238000163,None,None,0,,,,,,,,,,,,,,117,22,Female,2022-05-05_14h21.10.818,Parachute,2022.1.1,59.64537247763395,
positive,blue,1,k,None,,,,,,,,,0,137,137,137,,,,,,,,,,,,,,,,,,,,,,,,,,,,,,,,,,,,,main,None,None,1,1.4932565000199247,533.929215000011,None,None,1,,,,,,,,,,,,,,117,22,Female,2022-05-05_14h21.10.818,Parachute,2022.1.1,59.64537247763395,
positive,yellow,1,None,k,,,,,,,,,0,138,138,138,,,,,,,,,,,,,,,,,,,,,,,,,,,,,,,,,,,,,main,k,k,1,1.1529655999911483,536.4250269000186,None,None,0,,,,,,,,,,,,,,117,22,Female,2022-05-05_14h21.10.818,Parachute,2022.1.1,59.64537247763395,
positive,yellow,1,None,k,,,,,,,,,0,139,139,139,,,,,,,,,,,,,,,,,,,,,,,,,,,,,,,,,,,,,main,k,k,1,0.64925950000179,538.579120200011,None,None,0,,,,,,,,,,,,,,117,22,Female,2022-05-05_14h21.10.818,Parachute,2022.1.1,59.64537247763395,
positive,yellow,1,None,k,,,,,,,,,0,140,140,140,,,,,,,,,,,,,,,,,,,,,,,,,,,,,,,,,,,,,main,k,k,1,0.6419284000003245,540.2297797999927,None,None,0,,,,,,,,,,,,,,117,22,Female,2022-05-05_14h21.10.818,Parachute,2022.1.1,59.64537247763395,
positive,blue,1,k,None,,,,,,,,,0,141,141,141,,,,,,,,,,,,,,,,,,,,,,,,,,,,,,,,,,,,,main,None,None,1,1.5001629999896977,541.8738602999947,None,None,1,,,,,,,,,,,,,,117,22,Female,2022-05-05_14h21.10.818,Parachute,2022.1.1,59.64537247763395,
positive,blue,2,k,None,,,,,,,,,0,142,142,142,,,,,,,,,,,,,,,,,,,,,,,,,,,,,,,,,,,,,main,None,None,1,1.498740600014571,544.3746748999984,None,None,1,,,,,,,,,,,,,,117,22,Female,2022-05-05_14h21.10.818,Parachute,2022.1.1,59.64537247763395,
positive,yellow,2,None,k,,,,,,,,,0,143,143,143,,,,,,,,,,,,,,,,,,,,,,,,,,,,,,,,,,,,,main,k,k,1,0.836245799990138,546.8745425000088,None,None,0,,,,,,,,,,,,,,117,22,Female,2022-05-05_14h21.10.818,Parachute,2022.1.1,59.64537247763395,
negative,yellow,2,k,None,,,,,,,,,0,144,144,144,,,,,,,,,,,,,,,,,,,,,,,,,,,,,,,,,,,,,main,None,None,1,1.4942471999966074,548.713021100004,None,None,1,,,,,,,,,,,,,,117,22,Female,2022-05-05_14h21.10.818,Parachute,2022.1.1,59.64537247763395,
negative,blue,2,None,k,,,,,,,,,0,145,145,145,,,,,,,,,,,,,,,,,,,,,,,,,,,,,,,,,,,,,main,k,k,1,0.9538523000082932,551.2078083000088,None,None,0,,,,,,,,,,,,,,117,22,Female,2022-05-05_14h21.10.818,Parachute,2022.1.1,59.64537247763395,
negative,red,1,None,None,,,,,,,,,0,146,146,146,,,,,,,,,,,,,,,,,,,,,,,,,,,,,,,,,,,,,main,None,None,1,1.4929062000010163,553.1628252000082,None,None,1,,,,,,,,,,,,,,117,22,Female,2022-05-05_14h21.10.818,Parachute,2022.1.1,59.64537247763395,
positive,blue,1,k,None,,,,,,,,,0,147,147,147,,,,,,,,,,,,,,,,,,,,,,,,,,,,,,,,,,,,,main,None,None,1,1.4991408000059891,555.6575385000033,None,None,1,,,,,,,,,,,,,,117,22,Female,2022-05-05_14h21.10.818,Parachute,2022.1.1,59.64537247763395,
positive,yellow,1,None,k,,,,,,,,,0,148,148,148,,,,,,,,,,,,,,,,,,,,,,,,,,,,,,,,,,,,,main,k,k,1,1.0368422000028659,558.1580968000053,None,None,0,,,,,,,,,,,,,,117,22,Female,2022-05-05_14h21.10.818,Parachute,2022.1.1,59.64537247763395,
negative,red,2,None,None,,,,,,,,,0,149,149,149,,,,,,,,,,,,,,,,,,,,,,,,,,,,,,,,,,,,,main,None,None,1,1.493020499998238,560.1962182999996,None,None,1,,,,,,,,,,,,,,117,22,Female,2022-05-05_14h21.10.818,Parachute,2022.1.1,59.64537247763395,
negative,blue,1,None,k,,,,,,,,,0,150,150,150,,,,,,,,,,,,,,,,,,,,,,,,,,,,,,,,,,,,,main,k,k,1,0.9863988000142854,562.6917624000052,None,None,0,,,,,,,,,,,,,,117,22,Female,2022-05-05_14h21.10.818,Parachute,2022.1.1,59.64537247763395,
negative,yellow,2,k,None,,,,,,,,,0,151,151,151,,,,,,,,,,,,,,,,,,,,,,,,,,,,,,,,,,,,,main,None,None,1,1.4940935000195168,564.6793513000011,None,None,1,,,,,,,,,,,,,,117,22,Female,2022-05-05_14h21.10.818,Parachute,2022.1.1,59.64537247763395,
negative,blue,2,None,k,,,,,,,,,0,152,152,152,,,,,,,,,,,,,,,,,,,,,,,,,,,,,,,,,,,,,main,k,k,1,0.8876958999899216,567.1751456999918,None,None,0,,,,,,,,,,,,,,117,22,Female,2022-05-05_14h21.10.818,Parachute,2022.1.1,59.64537247763395,
negative,yellow,1,k,None,,,,,,,,,0,153,153,153,,,,,,,,,,,,,,,,,,,,,,,,,,,,,,,,,,,,,main,None,None,1,1.49279089999618,569.063375400001,None,None,1,,,,,,,,,,,,,,117,22,Female,2022-05-05_14h21.10.818,Parachute,2022.1.1,59.64537247763395,
negative,blue,1,None,k,,,,,,,,,0,154,154,154,,,,,,,,,,,,,,,,,,,,,,,,,,,,,,,,,,,,,main,k,k,1,0.9539945999858901,571.5584548000188,None,None,0,,,,,,,,,,,,,,117,22,Female,2022-05-05_14h21.10.818,Parachute,2022.1.1,59.64537247763395,
positive,yellow,2,None,k,,,,,,,,,0,155,155,155,,,,,,,,,,,,,,,,,,,,,,,,,,,,,,,,,,,,,main,k,k,1,1.0118841000075918,573.5130987000011,None,None,0,,,,,,,,,,,,,,117,22,Female,2022-05-05_14h21.10.818,Parachute,2022.1.1,59.64537247763395,
positive,red,2,None,None,,,,,,,,,0,156,156,156,,,,,,,,,,,,,,,,,,,,,,,,,,,,,,,,,,,,,main,None,None,1,1.4961844999925233,575.5275488000188,None,None,1,,,,,,,,,,,,,,117,22,Female,2022-05-05_14h21.10.818,Parachute,2022.1.1,59.64537247763395,
positive,red,1,None,None,,,,,,,,,0,157,157,157,,,,,,,,,,,,,,,,,,,,,,,,,,,,,,,,,,,,,main,None,None,1,1.4989133999915794,578.0247117000108,None,None,1,,,,,,,,,,,,,,117,22,Female,2022-05-05_14h21.10.818,Parachute,2022.1.1,59.64537247763395,
positive,blue,2,k,None,,,,,,,,,0,158,158,158,,,,,,,,,,,,,,,,,,,,,,,,,,,,,,,,,,,,,main,None,None,1,1.4988764000008814,580.5255217000085,None,None,1,,,,,,,,,,,,,,117,22,Female,2022-05-05_14h21.10.818,Parachute,2022.1.1,59.64537247763395,
negative,yellow,1,k,None,,,,,,,,,0,159,159,159,,,,,,,,,,,,,,,,,,,,,,,,,,,,,,,,,,,,,main,None,None,1,1.498333099996671,583.0255280999991,None,None,1,,,,,,,,,,,,,,117,22,Female,2022-05-05_14h21.10.818,Parachute,2022.1.1,59.64537247763395,
negative,red,2,None,None,,,,,,,,,0,160,160,160,,,,,,,,,,,,,,,,,,,,,,,,,,,,,,,,,,,,,main,None,None,1,1.4983348000096157,585.5255933000008,None,None,1,,,,,,,,,,,,,,117,22,Female,2022-05-05_14h21.10.818,Parachute,2022.1.1,59.64537247763395,
negative,blue,1,None,k,,,,,,,,,0,161,161,161,,,,,,,,,,,,,,,,,,,,,,,,,,,,,,,,,,,,,main,k,k,1,0.8543178999971133,588.0248861,None,None,0,,,,,,,,,,,,,,117,22,Female,2022-05-05_14h21.10.818,Parachute,2022.1.1,59.64537247763395,
negative,blue,1,None,k,,,,,,,,,0,162,162,162,,,,,,,,,,,,,,,,,,,,,,,,,,,,,,,,,,,,,main,k,k,1,0.9444384000089485,589.8805534999992,None,None,0,,,,,,,,,,,,,,117,22,Female,2022-05-05_14h21.10.818,Parachute,2022.1.1,59.64537247763395,
negative,yellow,1,k,None,,,,,,,,,0,163,163,163,,,,,,,,,,,,,,,,,,,,,,,,,,,,,,,,,,,,,main,None,None,1,1.497233200003393,591.8265551000077,None,None,1,,,,,,,,,,,,,,117,22,Female,2022-05-05_14h21.10.818,Parachute,2022.1.1,59.64537247763395,
negative,yellow,1,k,None,,,,,,,,,0,164,164,164,,,,,,,,,,,,,,,,,,,,,,,,,,,,,,,,,,,,,main,None,None,1,1.498573100019712,594.3253006000014,None,None,1,,,,,,,,,,,,,,117,22,Female,2022-05-05_14h21.10.818,Parachute,2022.1.1,59.64537247763395,
positive,yellow,1,None,k,,,,,,,,,0,165,165,165,,,,,,,,,,,,,,,,,,,,,,,,,,,,,,,,,,,,,main,k,k,1,0.9043646999925841,596.8258013000013,None,None,0,,,,,,,,,,,,,,117,22,Female,2022-05-05_14h21.10.818,Parachute,2022.1.1,59.64537247763395,
negative,red,1,None,None,,,,,,,,,0,166,166,166,,,,,,,,,,,,,,,,,,,,,,,,,,,,,,,,,,,,,main,None,None,1,1.492813599994406,598.7306264000072,None,None,1,,,,,,,,,,,,,,117,22,Female,2022-05-05_14h21.10.818,Parachute,2022.1.1,59.64537247763395,
negative,yellow,2,k,None,,,,,,,,,0,167,167,167,,,,,,,,,,,,,,,,,,,,,,,,,,,,,,,,,,,,,main,None,None,1,1.4986268999928143,601.2257886000152,None,None,1,,,,,,,,,,,,,,117,22,Female,2022-05-05_14h21.10.818,Parachute,2022.1.1,59.64537247763395,
positive,blue,2,k,None,,,,,,,,,0,168,168,168,,,,,,,,,,,,,,,,,,,,,,,,,,,,,,,,,,,,,main,None,None,1,1.498837499995716,603.7259034000163,None,None,1,,,,,,,,,,,,,,117,22,Female,2022-05-05_14h21.10.818,Parachute,2022.1.1,59.64537247763395,
positive,red,2,None,None,,,,,,,,,0,169,169,169,,,,,,,,,,,,,,,,,,,,,,,,,,,,,,,,,,,,,main,None,None,1,1.4991196999908425,606.2253346999933,None,None,1,,,,,,,,,,,,,,117,22,Female,2022-05-05_14h21.10.818,Parachute,2022.1.1,59.64537247763395,
positive,red,1,None,None,,,,,,,,,0,170,170,170,,,,,,,,,,,,,,,,,,,,,,,,,,,,,,,,,,,,,main,None,None,1,1.4982339999987744,608.7259323000035,None,None,1,,,,,,,,,,,,,,117,22,Female,2022-05-05_14h21.10.818,Parachute,2022.1.1,59.64537247763395,
negative,blue,2,None,k,,,,,,,,,0,171,171,171,,,,,,,,,,,,,,,,,,,,,,,,,,,,,,,,,,,,,main,k,k,1,0.853268200007733,611.2256836000015,None,None,0,,,,,,,,,,,,,,117,22,Female,2022-05-05_14h21.10.818,Parachute,2022.1.1,59.64537247763395,
positive,blue,2,k,None,,,,,,,,,0,172,172,172,,,,,,,,,,,,,,,,,,,,,,,,,,,,,,,,,,,,,main,None,None,1,1.4939743999857455,613.0809890000091,None,None,1,,,,,,,,,,,,,,117,22,Female,2022-05-05_14h21.10.818,Parachute,2022.1.1,59.64537247763395,
negative,yellow,2,k,None,,,,,,,,,0,173,173,173,,,,,,,,,,,,,,,,,,,,,,,,,,,,,,,,,,,,,main,None,None,1,1.498695599992061,615.5757726000156,None,None,1,,,,,,,,,,,,,,117,22,Female,2022-05-05_14h21.10.818,Parachute,2022.1.1,59.64537247763395,
positive,yellow,2,None,k,,,,,,,,,0,174,174,174,,,,,,,,,,,,,,,,,,,,,,,,,,,,,,,,,,,,,main,k,k,1,0.7872615000233054,618.076103200001,None,None,0,,,,,,,,,,,,,,117,22,Female,2022-05-05_14h21.10.818,Parachute,2022.1.1,59.64537247763395,
negative,blue,2,None,k,,,,,,,,,0,175,175,175,,,,,,,,,,,,,,,,,,,,,,,,,,,,,,,,,,,,,main,k,k,1,0.7819557000184432,619.8645958999987,None,None,0,,,,,,,,,,,,,,117,22,Female,2022-05-05_14h21.10.818,Parachute,2022.1.1,59.64537247763395,
positive,blue,1,k,None,,,,,,,,,0,176,176,176,,,,,,,,,,,,,,,,,,,,,,,,,,,,,,,,,,,,,main,None,None,1,1.4942774999944959,621.6479374000046,None,None,1,,,,,,,,,,,,,,117,22,Female,2022-05-05_14h21.10.818,Parachute,2022.1.1,59.64537247763395,
positive,yellow,1,None,k,,,,,,,,,0,177,177,177,,,,,,,,,,,,,,,,,,,,,,,,,,,,,,,,,,,,,main,k,k,1,0.887422300002072,624.1430302000081,None,None,0,,,,,,,,,,,,,,117,22,Female,2022-05-05_14h21.10.818,Parachute,2022.1.1,59.64537247763395,
positive,blue,1,k,None,,,,,,,,,0,178,178,178,,,,,,,,,,,,,,,,,,,,,,,,,,,,,,,,,,,,,main,None,None,1,1.4922247000213247,626.0324328000133,None,None,1,,,,,,,,,,,,,,117,22,Female,2022-05-05_14h21.10.818,Parachute,2022.1.1,59.64537247763395,
positive,yellow,2,None,k,,,,,,,,,0,179,179,179,,,,,,,,,,,,,,,,,,,,,,,,,,,,,,,,,,,,,main,k,k,1,1.4710263999877498,628.526208700001,None,None,0,,,,,,,,,,,,,,117,22,Female,2022-05-05_14h21.10.818,Parachute,2022.1.1,59.64537247763395,
positive,blue,1,k,None,,,,,,,,,0,180,180,180,,,,,,,,,,,,,,,,,,,,,,,,,,,,,,,,,,,,,main,None,None,1,1.4934781000192743,630.997589000006,None,None,1,,,,,,,,,,,,,,117,22,Female,2022-05-05_14h21.10.818,Parachute,2022.1.1,59.64537247763395,
negative,red,1,None,None,,,,,,,,,0,181,181,181,,,,,,,,,,,,,,,,,,,,,,,,,,,,,,,,,,,,,main,None,None,1,1.4985083999927156,633.4931551000045,None,None,1,,,,,,,,,,,,,,117,22,Female,2022-05-05_14h21.10.818,Parachute,2022.1.1,59.64537247763395,
negative,blue,1,None,k,,,,,,,,,0,182,182,182,,,,,,,,,,,,,,,,,,,,,,,,,,,,,,,,,,,,,main,k,k,1,0.9999654999992345,635.993086100003,None,None,0,,,,,,,,,,,,,,117,22,Female,2022-05-05_14h21.10.818,Parachute,2022.1.1,59.64537247763395,
negative,yellow,2,k,None,,,,,,,,,0,183,183,183,,,,,,,,,,,,,,,,,,,,,,,,,,,,,,,,,,,,,main,None,None,1,1.4975450999918394,637.9943571000185,None,None,1,,,,,,,,,,,,,,117,22,Female,2022-05-05_14h21.10.818,Parachute,2022.1.1,59.64537247763395,
positive,yellow,2,None,k,,,,,,,,,0,184,184,184,,,,,,,,,,,,,,,,,,,,,,,,,,,,,,,,,,,,,main,k,k,1,2.653331400011666,640.4933043000055,None,None,0,,,,,,,,,,,,,,117,22,Female,2022-05-05_14h21.10.818,Parachute,2022.1.1,59.64537247763395,
positive,yellow,1,None,k,,,,,,,,,0,185,185,185,,,,,,,,,,,,,,,,,,,,,,,,,,,,,,,,,,,,,main,k,k,1,0.757836300006602,645.159982400015,None,None,0,,,,,,,,,,,,,,117,22,Female,2022-05-05_14h21.10.818,Parachute,2022.1.1,59.64537247763395,
positive,red,2,None,None,,,,,,,,,0,186,186,186,,,,,,,,,,,,,,,,,,,,,,,,,,,,,,,,,,,,,main,None,None,1,1.4924830000090878,646.9156893000181,None,None,1,,,,,,,,,,,,,,117,22,Female,2022-05-05_14h21.10.818,Parachute,2022.1.1,59.64537247763395,
positive,blue,1,k,None,,,,,,,,,0,187,187,187,,,,,,,,,,,,,,,,,,,,,,,,,,,,,,,,,,,,,main,None,None,1,1.4984114000108093,649.4100951,None,None,1,,,,,,,,,,,,,,117,22,Female,2022-05-05_14h21.10.818,Parachute,2022.1.1,59.64537247763395,
negative,yellow,1,k,None,,,,,,,,,0,188,188,188,,,,,,,,,,,,,,,,,,,,,,,,,,,,,,,,,,,,,main,None,None,1,1.4986670000071172,651.9103255000082,None,None,1,,,,,,,,,,,,,,117,22,Female,2022-05-05_14h21.10.818,Parachute,2022.1.1,59.64537247763395,
positive,yellow,2,None,k,,,,,,,,,0,189,189,189,,,,,,,,,,,,,,,,,,,,,,,,,,,,,,,,,,,,,main,k,k,1,0.9028385999845341,654.4100054000155,None,None,0,,,,,,,,,,,,,,117,22,Female,2022-05-05_14h21.10.818,Parachute,2022.1.1,59.64537247763395,
negative,yellow,2,k,None,,,,,,,,,0,190,190,190,,,,,,,,,,,,,,,,,,,,,,,,,,,,,,,,,,,,,main,None,k,0,-0.5389987000089604,656.3146386000153,None,None,1,,,,,,,,,,,,,,117,22,Female,2022-05-05_14h21.10.818,Parachute,2022.1.1,59.64537247763395,
negative,yellow,1,k,None,,,,,,,,,0,191,191,191,,,,,,,,,,,,,,,,,,,,,,,,,,,,,,,,,,,,,main,None,None,1,1.5027678000042215,659.776486000017,None,None,1,,,,,,,,,,,,,,117,22,Female,2022-05-05_14h21.10.818,Parachute,2022.1.1,59.64537247763395,
positive,blue,2,k,None,,,,,,,,,0,192,192,192,,,,,,,,,,,,,,,,,,,,,,,,,,,,,,,,,,,,,main,None,None,1,1.4977088999876287,662.2783850000123,None,None,1,,,,,,,,,,,,,,117,22,Female,2022-05-05_14h21.10.818,Parachute,2022.1.1,59.64537247763395,
positive,yellow,1,None,k,,,,,,,,,0,193,193,193,,,,,,,,,,,,,,,,,,,,,,,,,,,,,,,,,,,,,main,k,k,1,1.147137299994938,664.7776751999918,None,None,0,,,,,,,,,,,,,,117,22,Female,2022-05-05_14h21.10.818,Parachute,2022.1.1,59.64537247763395,
negative,red,2,None,None,,,,,,,,,0,194,194,194,,,,,,,,,,,,,,,,,,,,,,,,,,,,,,,,,,,,,main,None,None,1,1.5006622999790125,666.9265663000115,None,None,1,,,,,,,,,,,,,,117,22,Female,2022-05-05_14h21.10.818,Parachute,2022.1.1,59.64537247763395,
positive,red,1,None,None,,,,,,,,,0,195,195,195,,,,,,,,,,,,,,,,,,,,,,,,,,,,,,,,,,,,,main,None,None,1,1.498640499979956,669.4271311000048,None,None,1,,,,,,,,,,,,,,117,22,Female,2022-05-05_14h21.10.818,Parachute,2022.1.1,59.64537247763395,
negative,blue,1,None,k,,,,,,,,,0,196,196,196,,,,,,,,,,,,,,,,,,,,,,,,,,,,,,,,,,,,,main,k,k,1,0.9167445000202861,671.9274152000144,None,None,0,,,,,,,,,,,,,,117,22,Female,2022-05-05_14h21.10.818,Parachute,2022.1.1,59.64537247763395,
positive,blue,2,k,None,,,,,,,,,0,197,197,197,,,,,,,,,,,,,,,,,,,,,,,,,,,,,,,,,,,,,main,None,None,1,1.497246399987489,673.84571590001,None,None,1,,,,,,,,,,,,,,117,22,Female,2022-05-05_14h21.10.818,Parachute,2022.1.1,59.64537247763395,
negative,blue,2,None,k,,,,,,,,,0,198,198,198,,,,,,,,,,,,,,,,,,,,,,,,,,,,,,,,,,,,,main,k,k,1,0.8340507000102662,676.3445861999935,None,None,0,,,,,,,,,,,,,,117,22,Female,2022-05-05_14h21.10.818,Parachute,2022.1.1,59.64537247763395,
negative,blue,2,None,k,,,,,,,,,0,199,199,199,,,,,,,,,,,,,,,,,,,,,,,,,,,,,,,,,,,,,main,k,k,1,0.7977785999828484,678.1802361000155,None,None,0,,,,,,,,,,,,,,117,22,Female,2022-05-05_14h21.10.818,Parachute,2022.1.1,59.64537247763395,
positive,blue,2,k,None,,,,,,,,,0,200,200,200,,,,,,,,,,,,,,,,,,,,,,,,,,,,,,,,,,,,,main,None,None,1,1.4975277000048663,679.9784444000106,None,None,1,,,,,,,,,,,,,,117,22,Female,2022-05-05_14h21.10.818,Parachute,2022.1.1,59.64537247763395,
positive,blue,2,k,None,,,,,,,,,0,201,201,201,,,,,,,,,,,,,,,,,,,,,,,,,,,,,,,,,,,,,main,None,None,1,1.498101500008488,682.4776087999926,None,None,1,,,,,,,,,,,,,,117,22,Female,2022-05-05_14h21.10.818,Parachute,2022.1.1,59.64537247763395,
negative,yellow,2,k,None,,,,,,,,,0,202,202,202,,,,,,,,,,,,,,,,,,,,,,,,,,,,,,,,,,,,,main,None,None,1,1.4986811999988277,684.9767969000095,None,None,1,,,,,,,,,,,,,,117,22,Female,2022-05-05_14h21.10.818,Parachute,2022.1.1,59.64537247763395,
positive,red,1,None,None,,,,,,,,,0,203,203,203,,,,,,,,,,,,,,,,,,,,,,,,,,,,,,,,,,,,,main,None,None,1,1.4990343000099529,687.4770014999958,None,None,1,,,,,,,,,,,,,,117,22,Female,2022-05-05_14h21.10.818,Parachute,2022.1.1,59.64537247763395,
negative,blue,2,None,k,,,,,,,,,0,204,204,204,,,,,,,,,,,,,,,,,,,,,,,,,,,,,,,,,,,,,main,k,k,1,1.0969818999874406,689.9780948999978,None,None,0,,,,,,,,,,,,,,117,22,Female,2022-05-05_14h21.10.818,Parachute,2022.1.1,59.64537247763395,
negative,red,1,None,None,,,,,,,,,0,205,205,205,,,,,,,,,,,,,,,,,,,,,,,,,,,,,,,,,,,,,main,None,None,1,1.5005977999826428,692.0773678999976,None,None,1,,,,,,,,,,,,,,117,22,Female,2022-05-05_14h21.10.818,Parachute,2022.1.1,59.64537247763395,
negative,blue,2,None,k,,,,,,,,,0,206,206,206,,,,,,,,,,,,,,,,,,,,,,,,,,,,,,,,,,,,,main,k,k,1,0.7702479000145104,694.5781964000198,None,None,0,,,,,,,,,,,,,,117,22,Female,2022-05-05_14h21.10.818,Parachute,2022.1.1,59.64537247763395,
negative,yellow,2,k,None,,,,,,,,,0,207,207,207,,,,,,,,,,,,,,,,,,,,,,,,,,,,,,,,,,,,,main,None,None,1,1.4934689000074286,696.3500725000049,None,None,1,,,,,,,,,,,,,,117,22,Female,2022-05-05_14h21.10.818,Parachute,2022.1.1,59.64537247763395,
positive,yellow,2,None,k,,,,,,,,,0,208,208,208,,,,,,,,,,,,,,,,,,,,,,,,,,,,,,,,,,,,,main,k,k,1,0.7845540999842342,698.8445646000037,None,None,0,,,,,,,,,,,,,,117,22,Female,2022-05-05_14h21.10.818,Parachute,2022.1.1,59.64537247763395,
negative,yellow,1,k,None,,,,,,,,,0,209,209,209,,,,,,,,,,,,,,,,,,,,,,,,,,,,,,,,,,,,,main,None,None,1,1.49600349998218,700.6304114999948,None,None,1,,,,,,,,,,,,,,117,22,Female,2022-05-05_14h21.10.818,Parachute,2022.1.1,59.64537247763395,
negative,red,2,None,None,,,,,,,,,0,210,210,210,,,,,,,,,,,,,,,,,,,,,,,,,,,,,,,,,,,,,main,None,None,1,1.4992133000050671,703.1276338000025,None,None,1,,,,,,,,,,,,,,117,22,Female,2022-05-05_14h21.10.818,Parachute,2022.1.1,59.64537247763395,
negative,blue,1,None,k,,,,,,,,,0,211,211,211,,,,,,,,,,,,,,,,,,,,,,,,,,,,,,,,,,,,,main,k,k,1,1.3015056000149343,705.6282064999978,None,None,0,,,,,,,,,,,,,,117,22,Female,2022-05-05_14h21.10.818,Parachute,2022.1.1,59.64537247763395,
negative,yellow,1,k,None,,,,,,,,,0,212,212,212,,,,,,,,,,,,,,,,,,,,,,,,,,,,,,,,,,,,,main,None,k,0,0.6607857999915723,707.9311465999926,None,None,1,,,,,,,,,,,,,,117,22,Female,2022-05-05_14h21.10.818,Parachute,2022.1.1,59.64537247763395,
positive,blue,1,k,None,,,,,,,,,0,213,213,213,,,,,,,,,,,,,,,,,,,,,,,,,,,,,,,,,,,,,main,None,None,1,1.5021465999889188,710.5946199000173,None,None,1,,,,,,,,,,,,,,117,22,Female,2022-05-05_14h21.10.818,Parachute,2022.1.1,59.64537247763395,
positive,blue,1,k,None,,,,,,,,,0,214,214,214,,,,,,,,,,,,,,,,,,,,,,,,,,,,,,,,,,,,,main,None,None,1,1.4973840000166092,713.0957037000044,None,None,1,,,,,,,,,,,,,,117,22,Female,2022-05-05_14h21.10.818,Parachute,2022.1.1,59.64537247763395,
positive,yellow,1,None,k,,,,,,,,,0,215,215,215,,,,,,,,,,,,,,,,,,,,,,,,,,,,,,,,,,,,,main,k,k,1,1.2541539999947418,715.5951043000096,None,None,0,,,,,,,,,,,,,,117,22,Female,2022-05-05_14h21.10.818,Parachute,2022.1.1,59.64537247763395,
positive,yellow,1,None,k,,,,,,,,,0,216,216,216,,,,,,,,,,,,,,,,,,,,,,,,,,,,,,,,,,,,,main,k,k,1,0.8314377999922726,717.8503221000137,None,None,0,,,,,,,,,,,,,,117,22,Female,2022-05-05_14h21.10.818,Parachute,2022.1.1,59.64537247763395,
positive,yellow,2,None,k,,,,,,,,,0,217,217,217,,,,,,,,,,,,,,,,,,,,,,,,,,,,,,,,,,,,,main,k,k,1,2.930748000013409,719.6830660999985,None,None,0,,,,,,,,,,,,,,117,22,Female,2022-05-05_14h21.10.818,Parachute,2022.1.1,59.64537247763395,
negative,blue,1,None,k,,,,,,,,,0,218,218,218,,,,,,,,,,,,,,,,,,,,,,,,,,,,,,,,,,,,,main,k,k,1,0.7734119000087958,724.627727700019,None,None,0,,,,,,,,,,,,,,117,22,Female,2022-05-05_14h21.10.818,Parachute,2022.1.1,59.64537247763395,
positive,red,2,None,None,,,,,,,,,0,219,219,219,,,,,,,,,,,,,,,,,,,,,,,,,,,,,,,,,,,,,main,None,None,1,1.493793999979971,726.4119504000118,None,None,1,,,,,,,,,,,,,,117,22,Female,2022-05-05_14h21.10.818,Parachute,2022.1.1,59.64537247763395,
positive,yellow,1,None,k,,,,,,,,,0,220,220,220,,,,,,,,,,,,,,,,,,,,,,,,,,,,,,,,,,,,,main,k,k,1,0.7839441999967676,728.8956327000051,None,None,0,,,,,,,,,,,,,,117,22,Female,2022-05-05_14h21.10.818,Parachute,2022.1.1,59.64537247763395,
positive,blue,1,k,None,,,,,,,,,0,221,221,221,,,,,,,,,,,,,,,,,,,,,,,,,,,,,,,,,,,,,main,None,None,1,1.4960840999847278,730.6814416999987,None,None,1,,,,,,,,,,,,,,117,22,Female,2022-05-05_14h21.10.818,Parachute,2022.1.1,59.64537247763395,
positive,yellow,2,None,k,,,,,,,,,0,222,222,222,,,,,,,,,,,,,,,,,,,,,,,,,,,,,,,,,,,,,main,k,k,1,0.7361009000160266,733.1785737000173,None,None,0,,,,,,,,,,,,,,117,22,Female,2022-05-05_14h21.10.818,Parachute,2022.1.1,59.64537247763395,
negative,yellow,1,k,None,,,,,,,,,0,223,223,223,,,,,,,,,,,,,,,,,,,,,,,,,,,,,,,,,,,,,main,None,None,1,1.4949345999921206,734.9165211000072,None,None,1,,,,,,,,,,,,,,117,22,Female,2022-05-05_14h21.10.818,Parachute,2022.1.1,59.64537247763395,
positive,yellow,2,None,k,,,,,,,,,0,224,224,224,,,,,,,,,,,,,,,,,,,,,,,,,,,,,,,,,,,,,main,k,k,1,0.8032779000059236,737.4125152000051,None,None,0,,,,,,,,,,,,,,117,22,Female,2022-05-05_14h21.10.818,Parachute,2022.1.1,59.64537247763395,
negative,yellow,2,k,None,,,,,,,,,0,225,225,225,,,,,,,,,,,,,,,,,,,,,,,,,,,,,,,,,,,,,main,None,None,1,1.4940792999987025,739.2166988000099,None,None,1,,,,,,,,,,,,,,117,22,Female,2022-05-05_14h21.10.818,Parachute,2022.1.1,59.64537247763395,
negative,blue,2,None,k,,,,,,,,,0,226,226,226,,,,,,,,,,,,,,,,,,,,,,,,,,,,,,,,,,,,,main,k,k,1,0.8329239999875426,741.7123974999995,None,None,0,,,,,,,,,,,,,,117,22,Female,2022-05-05_14h21.10.818,Parachute,2022.1.1,59.64537247763395,
positive,red,2,None,None,,,,,,,,,0,227,227,227,,,,,,,,,,,,,,,,,,,,,,,,,,,,,,,,,,,,,main,None,None,1,1.4972349999879953,743.5470221000141,None,None,1,,,,,,,,,,,,,,117,22,Female,2022-05-05_14h21.10.818,Parachute,2022.1.1,59.64537247763395,
positive,blue,2,k,None,,,,,,,,,0,228,228,228,,,,,,,,,,,,,,,,,,,,,,,,,,,,,,,,,,,,,main,None,None,1,1.499117400002433,746.045317400014,None,None,1,,,,,,,,,,,,,,117,22,Female,2022-05-05_14h21.10.818,Parachute,2022.1.1,59.64537247763395,
negative,blue,1,None,k,,,,,,,,,0,229,229,229,,,,,,,,,,,,,,,,,,,,,,,,,,,,,,,,,,,,,main,k,k,1,0.9206452999787871,748.5451775999973,None,None,0,,,,,,,,,,,,,,117,22,Female,2022-05-05_14h21.10.818,Parachute,2022.1.1,59.64537247763395,
positive,yellow,1,None,k,,,,,,,,,0,230,230,230,,,,,,,,,,,,,,,,,,,,,,,,,,,,,,,,,,,,,main,k,k,1,0.7980128999915905,750.4672506000206,None,None,0,,,,,,,,,,,,,,117,22,Female,2022-05-05_14h21.10.818,Parachute,2022.1.1,59.64537247763395,
negative,blue,2,None,k,,,,,,,,,0,231,231,231,,,,,,,,,,,,,,,,,,,,,,,,,,,,,,,,,,,,,main,k,k,1,0.7322169999824837,752.2668145000061,None,None,0,,,,,,,,,,,,,,117,22,Female,2022-05-05_14h21.10.818,Parachute,2022.1.1,59.64537247763395,
negative,red,1,None,None,,,,,,,,,0,232,232,232,,,,,,,,,,,,,,,,,,,,,,,,,,,,,,,,,,,,,main,None,None,1,1.4933873000263702,754.0007416000008,None,None,1,,,,,,,,,,,,,,117,22,Female,2022-05-05_14h21.10.818,Parachute,2022.1.1,59.64537247763395,
positive,blue,2,k,None,,,,,,,,,0,233,233,233,,,,,,,,,,,,,,,,,,,,,,,,,,,,,,,,,,,,,main,None,None,1,1.4990496000100393,756.4959258000017,None,None,1,,,,,,,,,,,,,,117,22,Female,2022-05-05_14h21.10.818,Parachute,2022.1.1,59.64537247763395,
negative,yellow,1,k,None,,,,,,,,,0,234,234,234,,,,,,,,,,,,,,,,,,,,,,,,,,,,,,,,,,,,,main,None,None,1,1.4988907999941148,758.996329000016,None,None,1,,,,,,,,,,,,,,117,22,Female,2022-05-05_14h21.10.818,Parachute,2022.1.1,59.64537247763395,
negative,yellow,2,k,None,,,,,,,,,0,235,235,235,,,,,,,,,,,,,,,,,,,,,,,,,,,,,,,,,,,,,main,None,k,0,-0.7850668999890331,761.4965016999922,None,None,1,,,,,,,,,,,,,,117,22,Female,2022-05-05_14h21.10.818,Parachute,2022.1.1,59.64537247763395,
positive,red,1,None,None,,,,,,,,,0,236,236,236,,,,,,,,,,,,,,,,,,,,,,,,,,,,,,,,,,,,,main,None,None,1,1.5015080999874044,764.7122988000046,None,None,1,,,,,,,,,,,,,,117,22,Female,2022-05-05_14h21.10.818,Parachute,2022.1.1,59.64537247763395,
negative,red,2,None,None,,,,,,,,,0,237,237,237,,,,,,,,,,,,,,,,,,,,,,,,,,,,,,,,,,,,,main,None,None,1,1.4983655999822076,767.2132660000061,None,None,1,,,,,,,,,,,,,,117,22,Female,2022-05-05_14h21.10.818,Parachute,2022.1.1,59.64537247763395,
negative,blue,1,None,k,,,,,,,,,0,238,238,238,,,,,,,,,,,,,,,,,,,,,,,,,,,,,,,,,,,,,main,k,k,1,0.8041428999858908,769.7123617000179,None,None,0,,,,,,,,,,,,,,117,22,Female,2022-05-05_14h21.10.818,Parachute,2022.1.1,59.64537247763395,
positive,blue,1,k,None,,,,,,,,,0,239,239,239,,,,,,,,,,,,,,,,,,,,,,,,,,,,,,,,,,,,,main,None,None,1,1.4929722000088077,771.5175939000037,None,None,1,,,,,,,,,,,,,,117,22,Female,2022-05-05_14h21.10.818,Parachute,2022.1.1,59.64537247763395,
,,,,,,,,,,,,,,,,,,,,,,,,,,,,,,,,,,,,,,,,,,,,,,,,,,,,,,,,,,,,,,,,,,,,,,,,,774.0128002999991,None,,,,,,,,
