distractor,target,set,ans1,ans2,rep_loop4.thisRepN,rep_loop4.thisTrialN,rep_loop4.thisN,rep_loop4.thisIndex,st2_prac_loop.thisRepN,st2_prac_loop.thisTrialN,st2_prac_loop.thisN,st2_prac_loop.thisIndex,st2_main_loop.thisRepN,st2_main_loop.thisTrialN,st2_main_loop.thisN,st2_main_loop.thisIndex,image_4.started,image_4.stopped,mouse_7.x,mouse_7.y,mouse_7.leftButton,mouse_7.midButton,mouse_7.rightButton,sound_2.started,sound_2.stopped,key_resp_3.keys,mouse_5.x,mouse_5.y,mouse_5.leftButton,mouse_5.midButton,mouse_5.rightButton,mouse_5.started,mouse_5.stopped,yes_text2.started,yes_text2.stopped,no_text2.started,no_text2.stopped,mouse_3.x,mouse_3.y,mouse_3.leftButton,mouse_3.midButton,mouse_3.rightButton,mouse_3.started,mouse_3.stopped,st_prac_back.started,st_prac_back.stopped,st_prac_text.started,st_prac_text.stopped,st_fix_back.started,st_fix_back.stopped,st_fix_2.started,st_fix_2.stopped,main_prac,st_ans,st_res,st_corr,st_rt,st_back.started,st_back.stopped,st2_resp.keys,st2_resp.corr,st_main_back.started,st_main_back.stopped,st_main_text.started,st_main_text.stopped,mouse_4.x,mouse_4.y,mouse_4.leftButton,mouse_4.midButton,mouse_4.rightButton,mouse_4.started,mouse_4.stopped,text_2.started,text_2.stopped,id*,age*,gender*,date,expName,psychopyVersion,frameRate,
,,,,,,,,,,,,,,,,,37.41484029998537,None,-0.5574074,-0.09166667,0,0,0,,,,,,,,,,,,,,,,,,,,,,,,,,,,,,,,,,,,,,,,,,,,,,,,,,,,118,24,Female,2022-05-06_12h53.52.931,Parachute,2022.1.1,60.066553730849435,
negative,yellow,1,k,None,,,,,0,0,0,0,,,,,,,,,,,,44.617985479952765,None,None,0.028703704,-0.010185185,0,0,0,1.0020334800356068,None,100.30296959995758,None,100.30296959995758,None,-0.08796296,-0.1,0,0,0,0.013269780029077083,None,107.54946139996173,None,107.54946139996173,None,109.56963579996955,None,109.56963579996955,None,prac,k,k,1,1.0504871999728493,111.59107480000239,None,None,0,,,,,,,,,,,,,,118,24,Female,2022-05-06_12h53.52.931,Parachute,2022.1.1,60.066553730849435,
positive,red,2,None,None,,,,,0,1,1,1,,,,,,,,,,,,,,,,,,,,,,,,,,,,,,,,,,,,,,,,,prac,None,None,1,1.5080638999934308,113.62139389995718,None,None,1,,,,,,,,,,,,,,118,24,Female,2022-05-06_12h53.52.931,Parachute,2022.1.1,60.066553730849435,
negative,blue,2,None,k,,,,,0,2,2,2,,,,,,,,,,,,,,,,,,,,,,,,,,,,,,,,,,,,,,,,,prac,None,None,1,1.498852499993518,116.12779070000397,None,None,1,,,,,,,,,,,,,,118,24,Female,2022-05-06_12h53.52.931,Parachute,2022.1.1,60.066553730849435,
positive,yellow,1,None,k,,,,,0,3,3,3,,,,,,,,,,,,,,,,,,,,,,,,,,,,,,,,,,,,,,,,,prac,None,None,1,1.4983580999542028,118.62743860000046,None,None,1,,,,,,,,,,,,,,118,24,Female,2022-05-06_12h53.52.931,Parachute,2022.1.1,60.066553730849435,
negative,blue,2,None,k,,,,,0,4,4,4,,,,,,,,,,,,,,,,,,,,,,,,,,,,,,,,,,,,,,,,,prac,None,None,1,1.498559900035616,121.1245016999892,None,None,1,,,,,,,,,,,,,,118,24,Female,2022-05-06_12h53.52.931,Parachute,2022.1.1,60.066553730849435,
negative,blue,1,None,k,,,,,0,5,5,5,,,,,,,,,,,,,,,,,,,,,,,,,,,,,,,,,,,,,,,,,prac,None,None,1,1.498391899978742,123.62232599995332,None,None,1,,,,,,,,,,,,,,118,24,Female,2022-05-06_12h53.52.931,Parachute,2022.1.1,60.066553730849435,
negative,yellow,2,k,None,,,,,0,6,6,6,,,,,,,,,,,,,,,,,,,,,,,,,,,,,,,,,,,,,,,,,prac,k,k,1,1.0867828999762423,126.12306279997574,None,None,0,,,,,,,,,,,,,,118,24,Female,2022-05-06_12h53.52.931,Parachute,2022.1.1,60.066553730849435,
negative,red,1,None,None,,,,,0,7,7,7,,,,,,,,,,,,,,,,,,,,,,,,,,,,,,,,,,,,,,,,,prac,None,None,1,1.4932006999733858,128.2081752999802,None,None,1,,,,,,,,,,,,,,118,24,Female,2022-05-06_12h53.52.931,Parachute,2022.1.1,60.066553730849435,
positive,yellow,2,None,k,,,,,0,8,8,8,,,,,,,,,,,,,,,,,,,,,,,,,,,,,,,,,,,,,,,,,prac,None,None,1,1.4992142000119202,130.70425129996147,None,None,1,,,,,,,,,,,,,,118,24,Female,2022-05-06_12h53.52.931,Parachute,2022.1.1,60.066553730849435,
negative,yellow,1,k,None,,,,,0,9,9,9,,,,,,,,,,,,,,,,,,,,,,,,,,,,,,,,,,,,,,,,,prac,k,k,1,0.9870410999865271,133.2056281999685,None,None,0,,,,,,,,,,,,,,118,24,Female,2022-05-06_12h53.52.931,Parachute,2022.1.1,60.066553730849435,
positive,yellow,2,None,k,,,,,0,10,10,10,,,,,,,,,,,,,,,,,,,,,,,,,,,,,,,,,,,,,,,,,prac,None,None,1,1.4932018000399694,135.1990934999776,None,None,1,,,,,,,,,,,,,,118,24,Female,2022-05-06_12h53.52.931,Parachute,2022.1.1,60.066553730849435,
negative,yellow,2,k,None,,,,,0,11,11,11,,,,,,,,,,,,,,,,,,,,,,,,,,,,,,,,,,,,,,,,,prac,k,k,1,0.9538619999657385,137.6888649999746,None,None,0,,,,,,,,,,,,,,118,24,Female,2022-05-06_12h53.52.931,Parachute,2022.1.1,60.066553730849435,
negative,red,2,None,None,,,,,0,12,12,12,,,,,,,,,,,,,,,,,,,,,,,,,,,,,,,,,,,,,,,,,prac,None,None,1,1.4930069000110961,139.64215929998318,None,None,1,,,,,,,,,,,,,,118,24,Female,2022-05-06_12h53.52.931,Parachute,2022.1.1,60.066553730849435,
positive,red,1,None,None,,,,,0,13,13,13,,,,,,,,,,,,,,,,,,,,,,,,,,,,,,,,,,,,,,,,,prac,None,None,1,1.4988396000117064,142.13908940000692,None,None,1,,,,,,,,,,,,,,118,24,Female,2022-05-06_12h53.52.931,Parachute,2022.1.1,60.066553730849435,
positive,blue,2,k,None,,,,,0,14,14,14,,,,,,,,,,,,,,,,,,,,,,,,,,,,,,,,,,,,,,,,,prac,k,k,1,1.0867967000231147,144.63933819998056,None,None,0,,,,,,,,,,,,,,118,24,Female,2022-05-06_12h53.52.931,Parachute,2022.1.1,60.066553730849435,
positive,blue,1,k,None,,,,,0,15,15,15,,,,,,,,,,,,,,,,,,,,,,,,,,,,,,,,,,,,,,,,,prac,k,k,1,1.0804914999753237,146.73509989999002,None,None,0,,,,,,,,,,,,,,118,24,Female,2022-05-06_12h53.52.931,Parachute,2022.1.1,60.066553730849435,
negative,blue,1,None,k,,,,,0,16,16,16,,,,,,,,,,,,,,,,,,,,,,,,,,,,,,,,,,,,,,,,,prac,None,None,1,1.494750700017903,148.81410809996305,None,None,1,,,,,,,,,,,,,,118,24,Female,2022-05-06_12h53.52.931,Parachute,2022.1.1,60.066553730849435,
positive,blue,2,k,None,,,,,0,17,17,17,,,,,,,,,,,,,,,,,,,,,,,,,,,,,,,,,,,,,,,,,prac,k,k,1,0.9704609999898821,151.30551649996778,None,None,0,,,,,,,,,,,,,,118,24,Female,2022-05-06_12h53.52.931,Parachute,2022.1.1,60.066553730849435,
positive,blue,1,k,None,,,,,0,18,18,18,,,,,,,,,,,,,,,,,,,,,,,,,,,,,,,,,,,,,,,,,prac,k,k,1,0.9155484999646433,153.27547999995295,None,None,0,,,,,,,,,,,,,,118,24,Female,2022-05-06_12h53.52.931,Parachute,2022.1.1,60.066553730849435,
positive,yellow,1,None,k,,,,,0,19,19,19,,,,,,,,,,,,,,,,,,,,,,,,,,,,,,,,,,,,,,,,,prac,None,None,1,1.4933521000202745,155.1929053000058,None,None,1,,,,,,,,,,,,,,118,24,Female,2022-05-06_12h53.52.931,Parachute,2022.1.1,60.066553730849435,
negative,yellow,1,k,None,,,,,1,0,20,0,,,,,,,,,,,,,,,,,,,,,,,,,,,,,,,,,,,,,,,,,prac,k,k,1,0.7528962999931537,157.69035029999213,None,None,0,,,,,,,,,,,,,,118,24,Female,2022-05-06_12h53.52.931,Parachute,2022.1.1,60.066553730849435,
positive,red,2,None,None,,,,,1,1,21,1,,,,,,,,,,,,,,,,,,,,,,,,,,,,,,,,,,,,,,,,,prac,None,None,1,1.4935640000039712,159.4421231999877,None,None,1,,,,,,,,,,,,,,118,24,Female,2022-05-06_12h53.52.931,Parachute,2022.1.1,60.066553730849435,
negative,blue,2,None,k,,,,,1,2,22,2,,,,,,,,,,,,,,,,,,,,,,,,,,,,,,,,,,,,,,,,,prac,None,None,1,1.4986490999581292,161.93903049995424,None,None,1,,,,,,,,,,,,,,118,24,Female,2022-05-06_12h53.52.931,Parachute,2022.1.1,60.066553730849435,
positive,yellow,1,None,k,,,,,1,3,23,3,,,,,,,,,,,,,,,,,,,,,,,,,,,,,,,,,,,,,,,,,prac,None,None,1,1.4987905999878421,164.43859429995064,None,None,1,,,,,,,,,,,,,,118,24,Female,2022-05-06_12h53.52.931,Parachute,2022.1.1,60.066553730849435,
negative,blue,2,None,k,,,,,1,4,24,4,,,,,,,,,,,,,,,,,,,,,,,,,,,,,,,,,,,,,,,,,prac,None,None,1,1.498788099968806,166.9398460999946,None,None,1,,,,,,,,,,,,,,118,24,Female,2022-05-06_12h53.52.931,Parachute,2022.1.1,60.066553730849435,
negative,blue,1,None,k,,,,,1,5,25,5,,,,,,,,,,,,,,,,,,,,,,,,,,,,,,,,,,,,,,,,,prac,None,None,1,1.4984238999895751,169.4403214000049,None,None,1,,,,,,,,,,,,,,118,24,Female,2022-05-06_12h53.52.931,Parachute,2022.1.1,60.066553730849435,
negative,yellow,2,k,None,,,,,1,6,26,6,,,,,,,,,,,,,,,,,,,,,,,,,,,,,,,,,,,,,,,,,prac,k,k,1,1.1190323999617249,171.94000929995673,None,None,0,,,,,,,,,,,,,,118,24,Female,2022-05-06_12h53.52.931,Parachute,2022.1.1,60.066553730849435,
negative,red,1,None,None,,,,,1,7,27,7,,,,,,,,,,,,,,,,,,,,,,,,,,,,,,,,,,,,,,,,,prac,None,None,1,1.4948820999707095,174.05838179995771,None,None,1,,,,,,,,,,,,,,118,24,Female,2022-05-06_12h53.52.931,Parachute,2022.1.1,60.066553730849435,
positive,yellow,2,None,k,,,,,1,8,28,8,,,,,,,,,,,,,,,,,,,,,,,,,,,,,,,,,,,,,,,,,prac,None,None,1,1.4990747999981977,176.55707619996974,None,None,1,,,,,,,,,,,,,,118,24,Female,2022-05-06_12h53.52.931,Parachute,2022.1.1,60.066553730849435,
negative,yellow,1,k,None,,,,,1,9,29,9,,,,,,,,,,,,,,,,,,,,,,,,,,,,,,,,,,,,,,,,,prac,k,k,1,0.887953799974639,179.0579380999552,None,None,0,,,,,,,,,,,,,,118,24,Female,2022-05-06_12h53.52.931,Parachute,2022.1.1,60.066553730849435,
positive,yellow,2,None,k,,,,,1,10,30,10,,,,,,,,,,,,,,,,,,,,,,,,,,,,,,,,,,,,,,,,,prac,None,None,1,1.508166000014171,180.94503269996494,None,None,1,,,,,,,,,,,,,,118,24,Female,2022-05-06_12h53.52.931,Parachute,2022.1.1,60.066553730849435,
negative,yellow,2,k,None,,,,,1,11,31,11,,,,,,,,,,,,,,,,,,,,,,,,,,,,,,,,,,,,,,,,,prac,k,k,1,0.9200562000041828,183.45692919997964,None,None,0,,,,,,,,,,,,,,118,24,Female,2022-05-06_12h53.52.931,Parachute,2022.1.1,60.066553730849435,
negative,red,2,None,None,,,,,1,12,32,12,,,,,,,,,,,,,,,,,,,,,,,,,,,,,,,,,,,,,,,,,prac,None,None,1,1.4937743000336923,185.37590729998192,None,None,1,,,,,,,,,,,,,,118,24,Female,2022-05-06_12h53.52.931,Parachute,2022.1.1,60.066553730849435,
positive,red,1,None,None,,,,,1,13,33,13,,,,,,,,,,,,,,,,,,,,,,,,,,,,,,,,,,,,,,,,,prac,None,None,1,1.498590300034266,187.87407069996698,None,None,1,,,,,,,,,,,,,,118,24,Female,2022-05-06_12h53.52.931,Parachute,2022.1.1,60.066553730849435,
positive,blue,2,k,None,,,,,1,14,34,14,,,,,,,,,,,,,,,,,,,,,,,,,,,,,,,,,,,,,,,,,prac,k,k,1,0.9531722000101581,190.37388379999902,None,None,0,,,,,,,,,,,,,,118,24,Female,2022-05-06_12h53.52.931,Parachute,2022.1.1,60.066553730849435,
positive,blue,1,k,None,,,,,1,15,35,15,,,,,,,,,,,,,,,,,,,,,,,,,,,,,,,,,,,,,,,,,prac,k,k,1,0.8156797999981791,192.32601839996642,None,None,0,,,,,,,,,,,,,,118,24,Female,2022-05-06_12h53.52.931,Parachute,2022.1.1,60.066553730849435,
negative,blue,1,None,k,,,,,1,16,36,16,,,,,,,,,,,,,,,,,,,,,,,,,,,,,,,,,,,,,,,,,prac,None,None,1,1.493196800001897,194.14309539995156,None,None,1,,,,,,,,,,,,,,118,24,Female,2022-05-06_12h53.52.931,Parachute,2022.1.1,60.066553730849435,
positive,blue,2,k,None,,,,,1,17,37,17,,,,,,,,,,,,,,,,,,,,,,,,,,,,,,,,,,,,,,,,,prac,k,k,1,0.87092549999943,196.64071000000695,None,None,0,,,,,,,,,,,,,,118,24,Female,2022-05-06_12h53.52.931,Parachute,2022.1.1,60.066553730849435,
positive,blue,1,k,None,,,,,1,18,38,18,,,,,,,,,,,,,,,,,,,,,,,,,,,,,,,,,,,,,,,,,prac,k,k,1,1.0474887000164017,198.51108299999032,None,None,0,,,,,,,,,,,,,,118,24,Female,2022-05-06_12h53.52.931,Parachute,2022.1.1,60.066553730849435,
positive,yellow,1,None,k,,,,,1,19,39,19,,,,,,,,,,,,,,,,,,,,,,,,,,,,,,,,,,,,,,,,,prac,None,None,1,1.493880799971521,200.55955559998984,None,None,1,,,,,,,,,,,,,,118,24,Female,2022-05-06_12h53.52.931,Parachute,2022.1.1,60.066553730849435,
,,,,,,,,,,,,,,,,,,,,,,,,,,,,,,,,,,,,,,,,,,,,,,,,,,,,,,,,,,,,,,203.07215979998,None,203.07215979998,None,0.050925925,0.0018518518,0,0,0,0.012586679949890822,None,,,118,24,Female,2022-05-06_12h53.52.931,Parachute,2022.1.1,60.066553730849435,
negative,yellow,2,k,None,,,,,,,,,0,0,0,0,,,,,,,,,,,,,,,,,,,,,,,,,,,,,,,,,204.23860139999306,None,204.23860139999306,None,main,k,k,1,1.094473699980881,206.27905569999712,None,None,0,,,,,,,,,,,,,,118,24,Female,2022-05-06_12h53.52.931,Parachute,2022.1.1,60.066553730849435,
positive,red,1,None,None,,,,,,,,,0,1,1,1,,,,,,,,,,,,,,,,,,,,,,,,,,,,,,,,,,,,,main,None,None,1,1.4934782999916933,208.37649110000348,None,None,1,,,,,,,,,,,,,,118,24,Female,2022-05-06_12h53.52.931,Parachute,2022.1.1,60.066553730849435,
positive,blue,2,k,None,,,,,,,,,0,2,2,2,,,,,,,,,,,,,,,,,,,,,,,,,,,,,,,,,,,,,main,k,k,1,0.7369314999668859,210.8742938999785,None,None,0,,,,,,,,,,,,,,118,24,Female,2022-05-06_12h53.52.931,Parachute,2022.1.1,60.066553730849435,
positive,blue,1,k,None,,,,,,,,,0,3,3,3,,,,,,,,,,,,,,,,,,,,,,,,,,,,,,,,,,,,,main,k,k,1,0.6315445000072941,212.61018879996845,None,None,0,,,,,,,,,,,,,,118,24,Female,2022-05-06_12h53.52.931,Parachute,2022.1.1,60.066553730849435,
negative,yellow,2,k,None,,,,,,,,,0,4,4,4,,,,,,,,,,,,,,,,,,,,,,,,,,,,,,,,,,,,,main,k,k,1,0.7300242999917828,214.24309209996136,None,None,0,,,,,,,,,,,,,,118,24,Female,2022-05-06_12h53.52.931,Parachute,2022.1.1,60.066553730849435,
positive,yellow,2,None,k,,,,,,,,,0,5,5,5,,,,,,,,,,,,,,,,,,,,,,,,,,,,,,,,,,,,,main,None,None,1,1.4958757000276819,215.98525839997455,None,None,1,,,,,,,,,,,,,,118,24,Female,2022-05-06_12h53.52.931,Parachute,2022.1.1,60.066553730849435,
negative,blue,2,None,k,,,,,,,,,0,6,6,6,,,,,,,,,,,,,,,,,,,,,,,,,,,,,,,,,,,,,main,None,None,1,1.4983089999877848,218.47421889996622,None,None,1,,,,,,,,,,,,,,118,24,Female,2022-05-06_12h53.52.931,Parachute,2022.1.1,60.066553730849435,
positive,red,2,None,None,,,,,,,,,0,7,7,7,,,,,,,,,,,,,,,,,,,,,,,,,,,,,,,,,,,,,main,None,None,1,1.4987320000072941,220.97419479995733,None,None,1,,,,,,,,,,,,,,118,24,Female,2022-05-06_12h53.52.931,Parachute,2022.1.1,60.066553730849435,
positive,yellow,1,None,k,,,,,,,,,0,8,8,8,,,,,,,,,,,,,,,,,,,,,,,,,,,,,,,,,,,,,main,None,None,1,1.498402299999725,223.4744812999852,None,None,1,,,,,,,,,,,,,,118,24,Female,2022-05-06_12h53.52.931,Parachute,2022.1.1,60.066553730849435,
negative,red,1,None,None,,,,,,,,,0,9,9,9,,,,,,,,,,,,,,,,,,,,,,,,,,,,,,,,,,,,,main,None,None,1,1.4986353000276722,225.97443949995795,None,None,1,,,,,,,,,,,,,,118,24,Female,2022-05-06_12h53.52.931,Parachute,2022.1.1,60.066553730849435,
positive,yellow,1,None,k,,,,,,,,,0,10,10,10,,,,,,,,,,,,,,,,,,,,,,,,,,,,,,,,,,,,,main,None,None,1,1.4987808000296354,228.474483900005,None,None,1,,,,,,,,,,,,,,118,24,Female,2022-05-06_12h53.52.931,Parachute,2022.1.1,60.066553730849435,
negative,yellow,1,k,None,,,,,,,,,0,11,11,11,,,,,,,,,,,,,,,,,,,,,,,,,,,,,,,,,,,,,main,k,k,1,0.919886099989526,230.97501569997985,None,None,0,,,,,,,,,,,,,,118,24,Female,2022-05-06_12h53.52.931,Parachute,2022.1.1,60.066553730849435,
negative,yellow,1,k,None,,,,,,,,,0,12,12,12,,,,,,,,,,,,,,,,,,,,,,,,,,,,,,,,,,,,,main,k,k,1,1.049262100015767,232.8937027999782,None,None,0,,,,,,,,,,,,,,118,24,Female,2022-05-06_12h53.52.931,Parachute,2022.1.1,60.066553730849435,
negative,red,2,None,None,,,,,,,,,0,13,13,13,,,,,,,,,,,,,,,,,,,,,,,,,,,,,,,,,,,,,main,None,None,1,1.49271039996529,234.94533849996515,None,None,1,,,,,,,,,,,,,,118,24,Female,2022-05-06_12h53.52.931,Parachute,2022.1.1,60.066553730849435,
positive,yellow,2,None,k,,,,,,,,,0,14,14,14,,,,,,,,,,,,,,,,,,,,,,,,,,,,,,,,,,,,,main,None,None,1,1.4991627000272274,237.44121259998064,None,None,1,,,,,,,,,,,,,,118,24,Female,2022-05-06_12h53.52.931,Parachute,2022.1.1,60.066553730849435,
positive,blue,1,k,None,,,,,,,,,0,15,15,15,,,,,,,,,,,,,,,,,,,,,,,,,,,,,,,,,,,,,main,k,k,1,0.9191916999989189,239.94249789998867,None,None,0,,,,,,,,,,,,,,118,24,Female,2022-05-06_12h53.52.931,Parachute,2022.1.1,60.066553730849435,
negative,blue,1,None,k,,,,,,,,,0,16,16,16,,,,,,,,,,,,,,,,,,,,,,,,,,,,,,,,,,,,,main,None,None,1,1.4938859000103548,241.86046699999133,None,None,1,,,,,,,,,,,,,,118,24,Female,2022-05-06_12h53.52.931,Parachute,2022.1.1,60.066553730849435,
positive,blue,2,k,None,,,,,,,,,0,17,17,17,,,,,,,,,,,,,,,,,,,,,,,,,,,,,,,,,,,,,main,k,k,1,0.7873462999705225,244.35884080000687,None,None,0,,,,,,,,,,,,,,118,24,Female,2022-05-06_12h53.52.931,Parachute,2022.1.1,60.066553730849435,
negative,blue,2,None,k,,,,,,,,,0,18,18,18,,,,,,,,,,,,,,,,,,,,,,,,,,,,,,,,,,,,,main,None,None,1,1.4925698000006378,246.14461419999134,None,None,1,,,,,,,,,,,,,,118,24,Female,2022-05-06_12h53.52.931,Parachute,2022.1.1,60.066553730849435,
negative,blue,1,None,k,,,,,,,,,0,19,19,19,,,,,,,,,,,,,,,,,,,,,,,,,,,,,,,,,,,,,main,None,None,1,1.4990904000005685,248.64126259996556,None,None,1,,,,,,,,,,,,,,118,24,Female,2022-05-06_12h53.52.931,Parachute,2022.1.1,60.066553730849435,
negative,blue,1,None,k,,,,,,,,,0,20,20,20,,,,,,,,,,,,,,,,,,,,,,,,,,,,,,,,,,,,,main,None,None,1,1.4982392000383697,251.1426318999729,None,None,1,,,,,,,,,,,,,,118,24,Female,2022-05-06_12h53.52.931,Parachute,2022.1.1,60.066553730849435,
negative,blue,2,None,k,,,,,,,,,0,21,21,21,,,,,,,,,,,,,,,,,,,,,,,,,,,,,,,,,,,,,main,None,None,1,1.4984825999708846,253.6415553999832,None,None,1,,,,,,,,,,,,,,118,24,Female,2022-05-06_12h53.52.931,Parachute,2022.1.1,60.066553730849435,
negative,red,1,None,None,,,,,,,,,0,22,22,22,,,,,,,,,,,,,,,,,,,,,,,,,,,,,,,,,,,,,main,None,None,1,1.4985001999884844,256.141830699984,None,None,1,,,,,,,,,,,,,,118,24,Female,2022-05-06_12h53.52.931,Parachute,2022.1.1,60.066553730849435,
positive,red,2,None,None,,,,,,,,,0,23,23,23,,,,,,,,,,,,,,,,,,,,,,,,,,,,,,,,,,,,,main,None,None,1,1.4982741000130773,258.6421504999744,None,None,1,,,,,,,,,,,,,,118,24,Female,2022-05-06_12h53.52.931,Parachute,2022.1.1,60.066553730849435,
negative,red,2,None,None,,,,,,,,,0,24,24,24,,,,,,,,,,,,,,,,,,,,,,,,,,,,,,,,,,,,,main,None,None,1,1.4989758000010625,261.141285199963,None,None,1,,,,,,,,,,,,,,118,24,Female,2022-05-06_12h53.52.931,Parachute,2022.1.1,60.066553730849435,
positive,blue,2,k,None,,,,,,,,,0,25,25,25,,,,,,,,,,,,,,,,,,,,,,,,,,,,,,,,,,,,,main,k,k,1,0.9758125999942422,263.6430067999754,None,None,0,,,,,,,,,,,,,,118,24,Female,2022-05-06_12h53.52.931,Parachute,2022.1.1,60.066553730849435,
negative,yellow,1,k,None,,,,,,,,,0,26,26,26,,,,,,,,,,,,,,,,,,,,,,,,,,,,,,,,,,,,,main,k,k,1,1.44246499997098,265.61632299999474,None,None,0,,,,,,,,,,,,,,118,24,Female,2022-05-06_12h53.52.931,Parachute,2022.1.1,60.066553730849435,
positive,blue,2,k,None,,,,,,,,,0,27,27,27,,,,,,,,,,,,,,,,,,,,,,,,,,,,,,,,,,,,,main,k,k,1,0.8652470000088215,268.0609412000049,None,None,0,,,,,,,,,,,,,,118,24,Female,2022-05-06_12h53.52.931,Parachute,2022.1.1,60.066553730849435,
negative,blue,2,None,k,,,,,,,,,0,28,28,28,,,,,,,,,,,,,,,,,,,,,,,,,,,,,,,,,,,,,main,None,None,1,1.4935455999802798,269.92786229995545,None,None,1,,,,,,,,,,,,,,118,24,Female,2022-05-06_12h53.52.931,Parachute,2022.1.1,60.066553730849435,
positive,red,1,None,None,,,,,,,,,0,29,29,29,,,,,,,,,,,,,,,,,,,,,,,,,,,,,,,,,,,,,main,None,None,1,1.4981754000182264,272.4246596999583,None,None,1,,,,,,,,,,,,,,118,24,Female,2022-05-06_12h53.52.931,Parachute,2022.1.1,60.066553730849435,
positive,blue,1,k,None,,,,,,,,,0,30,30,30,,,,,,,,,,,,,,,,,,,,,,,,,,,,,,,,,,,,,main,k,k,1,0.8959866999648511,274.9245561999851,None,None,0,,,,,,,,,,,,,,118,24,Female,2022-05-06_12h53.52.931,Parachute,2022.1.1,60.066553730849435,
positive,yellow,1,None,k,,,,,,,,,0,31,31,31,,,,,,,,,,,,,,,,,,,,,,,,,,,,,,,,,,,,,main,None,None,1,1.5026125999866053,276.8228921999689,None,None,1,,,,,,,,,,,,,,118,24,Female,2022-05-06_12h53.52.931,Parachute,2022.1.1,60.066553730849435,
negative,yellow,2,k,None,,,,,,,,,0,32,32,32,,,,,,,,,,,,,,,,,,,,,,,,,,,,,,,,,,,,,main,k,k,1,1.0021892000222579,279.3281052999664,None,None,0,,,,,,,,,,,,,,118,24,Female,2022-05-06_12h53.52.931,Parachute,2022.1.1,60.066553730849435,
negative,blue,1,None,k,,,,,,,,,0,33,33,33,,,,,,,,,,,,,,,,,,,,,,,,,,,,,,,,,,,,,main,None,None,1,1.4932434000074863,281.3279904999654,None,None,1,,,,,,,,,,,,,,118,24,Female,2022-05-06_12h53.52.931,Parachute,2022.1.1,60.066553730849435,
positive,blue,1,k,None,,,,,,,,,0,34,34,34,,,,,,,,,,,,,,,,,,,,,,,,,,,,,,,,,,,,,main,k,k,1,0.8880096999928355,283.82478729996365,None,None,0,,,,,,,,,,,,,,118,24,Female,2022-05-06_12h53.52.931,Parachute,2022.1.1,60.066553730849435,
negative,yellow,1,k,None,,,,,,,,,0,35,35,35,,,,,,,,,,,,,,,,,,,,,,,,,,,,,,,,,,,,,main,k,k,1,0.9476076999562792,285.7120680999942,None,None,0,,,,,,,,,,,,,,118,24,Female,2022-05-06_12h53.52.931,Parachute,2022.1.1,60.066553730849435,
positive,yellow,2,None,k,,,,,,,,,0,36,36,36,,,,,,,,,,,,,,,,,,,,,,,,,,,,,,,,,,,,,main,None,None,1,1.4939894000417553,287.6613573000068,None,None,1,,,,,,,,,,,,,,118,24,Female,2022-05-06_12h53.52.931,Parachute,2022.1.1,60.066553730849435,
positive,yellow,2,None,k,,,,,,,,,0,37,37,37,,,,,,,,,,,,,,,,,,,,,,,,,,,,,,,,,,,,,main,None,None,1,1.4981824000133201,290.15960579999955,None,None,1,,,,,,,,,,,,,,118,24,Female,2022-05-06_12h53.52.931,Parachute,2022.1.1,60.066553730849435,
negative,yellow,2,k,None,,,,,,,,,0,38,38,38,,,,,,,,,,,,,,,,,,,,,,,,,,,,,,,,,,,,,main,k,k,1,0.9037762000225484,292.6590152999852,None,None,0,,,,,,,,,,,,,,118,24,Female,2022-05-06_12h53.52.931,Parachute,2022.1.1,60.066553730849435,
positive,yellow,1,None,k,,,,,,,,,0,39,39,39,,,,,,,,,,,,,,,,,,,,,,,,,,,,,,,,,,,,,main,None,None,1,1.4936254000058398,294.5617428999976,None,None,1,,,,,,,,,,,,,,118,24,Female,2022-05-06_12h53.52.931,Parachute,2022.1.1,60.066553730849435,
negative,yellow,2,k,None,,,,,,,,,0,40,40,40,,,,,,,,,,,,,,,,,,,,,,,,,,,,,,,,,,,,,main,k,k,1,0.8687320000026375,297.0596224999754,None,None,0,,,,,,,,,,,,,,118,24,Female,2022-05-06_12h53.52.931,Parachute,2022.1.1,60.066553730849435,
positive,blue,2,k,None,,,,,,,,,0,41,41,41,,,,,,,,,,,,,,,,,,,,,,,,,,,,,,,,,,,,,main,k,k,1,0.9668278999743052,298.9392880999949,None,None,0,,,,,,,,,,,,,,118,24,Female,2022-05-06_12h53.52.931,Parachute,2022.1.1,60.066553730849435,
positive,blue,2,k,None,,,,,,,,,0,42,42,42,,,,,,,,,,,,,,,,,,,,,,,,,,,,,,,,,,,,,main,k,k,1,0.6981556999962777,300.89531479997095,None,None,0,,,,,,,,,,,,,,118,24,Female,2022-05-06_12h53.52.931,Parachute,2022.1.1,60.066553730849435,
negative,blue,2,None,k,,,,,,,,,0,43,43,43,,,,,,,,,,,,,,,,,,,,,,,,,,,,,,,,,,,,,main,None,None,1,1.4939389000064693,302.59524789999705,None,None,1,,,,,,,,,,,,,,118,24,Female,2022-05-06_12h53.52.931,Parachute,2022.1.1,60.066553730849435,
negative,red,1,None,None,,,,,,,,,0,44,44,44,,,,,,,,,,,,,,,,,,,,,,,,,,,,,,,,,,,,,main,None,None,1,1.4983659999561496,305.0929181999527,None,None,1,,,,,,,,,,,,,,118,24,Female,2022-05-06_12h53.52.931,Parachute,2022.1.1,60.066553730849435,
negative,yellow,1,k,None,,,,,,,,,0,45,45,45,,,,,,,,,,,,,,,,,,,,,,,,,,,,,,,,,,,,,main,k,k,1,0.9211536999791861,307.59256799996365,None,None,0,,,,,,,,,,,,,,118,24,Female,2022-05-06_12h53.52.931,Parachute,2022.1.1,60.066553730849435,
negative,yellow,1,k,None,,,,,,,,,0,46,46,46,,,,,,,,,,,,,,,,,,,,,,,,,,,,,,,,,,,,,main,k,k,1,0.6811675999779254,309.51384069997584,None,None,0,,,,,,,,,,,,,,118,24,Female,2022-05-06_12h53.52.931,Parachute,2022.1.1,60.066553730849435,
positive,red,1,None,None,,,,,,,,,0,47,47,47,,,,,,,,,,,,,,,,,,,,,,,,,,,,,,,,,,,,,main,None,None,1,1.4932391000329517,311.19639850000385,None,None,1,,,,,,,,,,,,,,118,24,Female,2022-05-06_12h53.52.931,Parachute,2022.1.1,60.066553730849435,
positive,yellow,1,None,k,,,,,,,,,0,48,48,48,,,,,,,,,,,,,,,,,,,,,,,,,,,,,,,,,,,,,main,None,k,0,0.8506945999688469,313.69333389995154,None,None,1,,,,,,,,,,,,,,118,24,Female,2022-05-06_12h53.52.931,Parachute,2022.1.1,60.066553730849435,
negative,blue,1,None,k,,,,,,,,,0,49,49,49,,,,,,,,,,,,,,,,,,,,,,,,,,,,,,,,,,,,,main,None,None,1,1.5016880999901332,316.59038639999926,None,None,1,,,,,,,,,,,,,,118,24,Female,2022-05-06_12h53.52.931,Parachute,2022.1.1,60.066553730849435,
positive,yellow,2,None,k,,,,,,,,,0,50,50,50,,,,,,,,,,,,,,,,,,,,,,,,,,,,,,,,,,,,,main,None,None,1,1.4983637999976054,319.09347919997526,None,None,1,,,,,,,,,,,,,,118,24,Female,2022-05-06_12h53.52.931,Parachute,2022.1.1,60.066553730849435,
negative,blue,1,None,k,,,,,,,,,0,51,51,51,,,,,,,,,,,,,,,,,,,,,,,,,,,,,,,,,,,,,main,None,None,1,1.4986428000265732,321.59317419998115,None,None,1,,,,,,,,,,,,,,118,24,Female,2022-05-06_12h53.52.931,Parachute,2022.1.1,60.066553730849435,
positive,red,2,None,None,,,,,,,,,0,52,52,52,,,,,,,,,,,,,,,,,,,,,,,,,,,,,,,,,,,,,main,None,None,1,1.4981233000289649,324.0939369999687,None,None,1,,,,,,,,,,,,,,118,24,Female,2022-05-06_12h53.52.931,Parachute,2022.1.1,60.066553730849435,
positive,yellow,2,None,k,,,,,,,,,0,53,53,53,,,,,,,,,,,,,,,,,,,,,,,,,,,,,,,,,,,,,main,None,None,1,1.498969899956137,326.59256049996475,None,None,1,,,,,,,,,,,,,,118,24,Female,2022-05-06_12h53.52.931,Parachute,2022.1.1,60.066553730849435,
negative,red,2,None,None,,,,,,,,,0,54,54,54,,,,,,,,,,,,,,,,,,,,,,,,,,,,,,,,,,,,,main,None,None,1,1.4982560999924317,329.0936017999775,None,None,1,,,,,,,,,,,,,,118,24,Female,2022-05-06_12h53.52.931,Parachute,2022.1.1,60.066553730849435,
positive,yellow,1,None,k,,,,,,,,,0,55,55,55,,,,,,,,,,,,,,,,,,,,,,,,,,,,,,,,,,,,,main,None,None,1,1.4988683999981731,331.592943799973,None,None,1,,,,,,,,,,,,,,118,24,Female,2022-05-06_12h53.52.931,Parachute,2022.1.1,60.066553730849435,
negative,blue,2,None,k,,,,,,,,,0,56,56,56,,,,,,,,,,,,,,,,,,,,,,,,,,,,,,,,,,,,,main,None,None,1,1.4983695999835618,334.09370149997994,None,None,1,,,,,,,,,,,,,,118,24,Female,2022-05-06_12h53.52.931,Parachute,2022.1.1,60.066553730849435,
positive,blue,1,k,None,,,,,,,,,0,57,57,57,,,,,,,,,,,,,,,,,,,,,,,,,,,,,,,,,,,,,main,k,k,1,0.9369711999897845,336.59326419996796,None,None,0,,,,,,,,,,,,,,118,24,Female,2022-05-06_12h53.52.931,Parachute,2022.1.1,60.066553730849435,
positive,blue,1,k,None,,,,,,,,,0,58,58,58,,,,,,,,,,,,,,,,,,,,,,,,,,,,,,,,,,,,,main,k,k,1,0.913240899972152,338.52965769998264,None,None,0,,,,,,,,,,,,,,118,24,Female,2022-05-06_12h53.52.931,Parachute,2022.1.1,60.066553730849435,
negative,yellow,2,k,None,,,,,,,,,0,59,59,59,,,,,,,,,,,,,,,,,,,,,,,,,,,,,,,,,,,,,main,k,k,1,0.7829234999953769,340.45634029997746,None,None,0,,,,,,,,,,,,,,118,24,Female,2022-05-06_12h53.52.931,Parachute,2022.1.1,60.066553730849435,
positive,red,2,None,None,,,,,,,,,0,60,60,60,,,,,,,,,,,,,,,,,,,,,,,,,,,,,,,,,,,,,main,None,None,1,1.4948353000218049,342.2288646999514,None,None,1,,,,,,,,,,,,,,118,24,Female,2022-05-06_12h53.52.931,Parachute,2022.1.1,60.066553730849435,
negative,yellow,1,k,None,,,,,,,,,0,61,61,61,,,,,,,,,,,,,,,,,,,,,,,,,,,,,,,,,,,,,main,k,k,1,0.9347982999752276,344.72826189995976,None,None,0,,,,,,,,,,,,,,118,24,Female,2022-05-06_12h53.52.931,Parachute,2022.1.1,60.066553730849435,
negative,red,1,None,None,,,,,,,,,0,62,62,62,,,,,,,,,,,,,,,,,,,,,,,,,,,,,,,,,,,,,main,None,None,1,1.494523300032597,346.6728648999706,None,None,1,,,,,,,,,,,,,,118,24,Female,2022-05-06_12h53.52.931,Parachute,2022.1.1,60.066553730849435,
negative,blue,1,None,k,,,,,,,,,0,63,63,63,,,,,,,,,,,,,,,,,,,,,,,,,,,,,,,,,,,,,main,None,None,1,1.4985989999840967,349.1606125999824,None,None,1,,,,,,,,,,,,,,118,24,Female,2022-05-06_12h53.52.931,Parachute,2022.1.1,60.066553730849435,
positive,blue,2,k,None,,,,,,,,,0,64,64,64,,,,,,,,,,,,,,,,,,,,,,,,,,,,,,,,,,,,,main,k,k,1,0.9204942000214942,351.65980550000677,None,None,0,,,,,,,,,,,,,,118,24,Female,2022-05-06_12h53.52.931,Parachute,2022.1.1,60.066553730849435,
negative,yellow,2,k,None,,,,,,,,,0,65,65,65,,,,,,,,,,,,,,,,,,,,,,,,,,,,,,,,,,,,,main,k,k,1,0.7733470000093803,353.5797903999919,None,None,0,,,,,,,,,,,,,,118,24,Female,2022-05-06_12h53.52.931,Parachute,2022.1.1,60.066553730849435,
positive,yellow,2,None,k,,,,,,,,,0,66,66,66,,,,,,,,,,,,,,,,,,,,,,,,,,,,,,,,,,,,,main,None,None,1,1.5018224000232294,355.35802919999696,None,None,1,,,,,,,,,,,,,,118,24,Female,2022-05-06_12h53.52.931,Parachute,2022.1.1,60.066553730849435,
positive,yellow,2,None,k,,,,,,,,,0,67,67,67,,,,,,,,,,,,,,,,,,,,,,,,,,,,,,,,,,,,,main,None,None,1,1.4987427999731153,357.86000609997427,None,None,1,,,,,,,,,,,,,,118,24,Female,2022-05-06_12h53.52.931,Parachute,2022.1.1,60.066553730849435,
positive,red,1,None,None,,,,,,,,,0,68,68,68,,,,,,,,,,,,,,,,,,,,,,,,,,,,,,,,,,,,,main,None,None,1,1.498296500009019,360.36087599996245,None,None,1,,,,,,,,,,,,,,118,24,Female,2022-05-06_12h53.52.931,Parachute,2022.1.1,60.066553730849435,
positive,yellow,1,None,k,,,,,,,,,0,69,69,69,,,,,,,,,,,,,,,,,,,,,,,,,,,,,,,,,,,,,main,None,None,1,1.4984709999989718,362.8602009000024,None,None,1,,,,,,,,,,,,,,118,24,Female,2022-05-06_12h53.52.931,Parachute,2022.1.1,60.066553730849435,
negative,yellow,2,k,None,,,,,,,,,0,70,70,70,,,,,,,,,,,,,,,,,,,,,,,,,,,,,,,,,,,,,main,k,k,1,1.3543765000067651,365.35987389995717,None,None,0,,,,,,,,,,,,,,118,24,Female,2022-05-06_12h53.52.931,Parachute,2022.1.1,60.066553730849435,
positive,yellow,1,None,k,,,,,,,,,0,71,71,71,,,,,,,,,,,,,,,,,,,,,,,,,,,,,,,,,,,,,main,None,None,1,1.493129600014072,367.71381309995195,None,None,1,,,,,,,,,,,,,,118,24,Female,2022-05-06_12h53.52.931,Parachute,2022.1.1,60.066553730849435,
negative,blue,1,None,k,,,,,,,,,0,72,72,72,,,,,,,,,,,,,,,,,,,,,,,,,,,,,,,,,,,,,main,None,None,1,1.49841490003746,370.2108580999775,None,None,1,,,,,,,,,,,,,,118,24,Female,2022-05-06_12h53.52.931,Parachute,2022.1.1,60.066553730849435,
negative,red,2,None,None,,,,,,,,,0,73,73,73,,,,,,,,,,,,,,,,,,,,,,,,,,,,,,,,,,,,,main,None,None,1,1.498513999977149,372.71121909999056,None,None,1,,,,,,,,,,,,,,118,24,Female,2022-05-06_12h53.52.931,Parachute,2022.1.1,60.066553730849435,
positive,blue,2,k,None,,,,,,,,,0,74,74,74,,,,,,,,,,,,,,,,,,,,,,,,,,,,,,,,,,,,,main,k,k,1,0.8459421000443399,375.21093109995127,None,None,0,,,,,,,,,,,,,,118,24,Female,2022-05-06_12h53.52.931,Parachute,2022.1.1,60.066553730849435,
negative,blue,2,None,k,,,,,,,,,0,75,75,75,,,,,,,,,,,,,,,,,,,,,,,,,,,,,,,,,,,,,main,None,None,1,1.5009185000089929,377.0586245000013,None,None,1,,,,,,,,,,,,,,118,24,Female,2022-05-06_12h53.52.931,Parachute,2022.1.1,60.066553730849435,
negative,blue,2,None,k,,,,,,,,,0,76,76,76,,,,,,,,,,,,,,,,,,,,,,,,,,,,,,,,,,,,,main,None,None,1,1.4983536999789067,379.5610955999582,None,None,1,,,,,,,,,,,,,,118,24,Female,2022-05-06_12h53.52.931,Parachute,2022.1.1,60.066553730849435,
negative,yellow,1,k,None,,,,,,,,,0,77,77,77,,,,,,,,,,,,,,,,,,,,,,,,,,,,,,,,,,,,,main,k,k,1,0.802679700020235,382.0608083999832,None,None,0,,,,,,,,,,,,,,118,24,Female,2022-05-06_12h53.52.931,Parachute,2022.1.1,60.066553730849435,
positive,blue,1,k,None,,,,,,,,,0,78,78,78,,,,,,,,,,,,,,,,,,,,,,,,,,,,,,,,,,,,,main,k,k,1,1.1994263000087813,383.86383529996965,None,None,0,,,,,,,,,,,,,,118,24,Female,2022-05-06_12h53.52.931,Parachute,2022.1.1,60.066553730849435,
positive,blue,1,k,None,,,,,,,,,0,79,79,79,,,,,,,,,,,,,,,,,,,,,,,,,,,,,,,,,,,,,main,k,k,1,0.698591899999883,386.0641094999737,None,None,0,,,,,,,,,,,,,,118,24,Female,2022-05-06_12h53.52.931,Parachute,2022.1.1,60.066553730849435,
positive,red,2,None,None,,,,,,,,,0,80,80,80,,,,,,,,,,,,,,,,,,,,,,,,,,,,,,,,,,,,,main,None,None,1,1.493196800001897,387.76406499999575,None,None,1,,,,,,,,,,,,,,118,24,Female,2022-05-06_12h53.52.931,Parachute,2022.1.1,60.066553730849435,
positive,yellow,2,None,k,,,,,,,,,0,81,81,81,,,,,,,,,,,,,,,,,,,,,,,,,,,,,,,,,,,,,main,None,None,1,1.4985931999981403,390.26095169998007,None,None,1,,,,,,,,,,,,,,118,24,Female,2022-05-06_12h53.52.931,Parachute,2022.1.1,60.066553730849435,
positive,blue,1,k,None,,,,,,,,,0,82,82,82,,,,,,,,,,,,,,,,,,,,,,,,,,,,,,,,,,,,,main,k,k,1,0.8624884000164457,392.76127829996403,None,None,0,,,,,,,,,,,,,,118,24,Female,2022-05-06_12h53.52.931,Parachute,2022.1.1,60.066553730849435,
negative,yellow,2,k,None,,,,,,,,,0,83,83,83,,,,,,,,,,,,,,,,,,,,,,,,,,,,,,,,,,,,,main,k,k,1,0.8396501000388525,394.62549429998035,None,None,0,,,,,,,,,,,,,,118,24,Female,2022-05-06_12h53.52.931,Parachute,2022.1.1,60.066553730849435,
positive,blue,2,k,None,,,,,,,,,0,84,84,84,,,,,,,,,,,,,,,,,,,,,,,,,,,,,,,,,,,,,main,k,k,1,0.7141774999909103,396.46437010000227,None,None,0,,,,,,,,,,,,,,118,24,Female,2022-05-06_12h53.52.931,Parachute,2022.1.1,60.066553730849435,
positive,yellow,1,None,k,,,,,,,,,0,85,85,85,,,,,,,,,,,,,,,,,,,,,,,,,,,,,,,,,,,,,main,None,None,1,1.4943534000194632,398.18074869998964,None,None,1,,,,,,,,,,,,,,118,24,Female,2022-05-06_12h53.52.931,Parachute,2022.1.1,60.066553730849435,
positive,blue,2,k,None,,,,,,,,,0,86,86,86,,,,,,,,,,,,,,,,,,,,,,,,,,,,,,,,,,,,,main,k,k,1,1.0040242000250146,400.6782476999797,None,None,0,,,,,,,,,,,,,,118,24,Female,2022-05-06_12h53.52.931,Parachute,2022.1.1,60.066553730849435,
positive,blue,1,k,None,,,,,,,,,0,87,87,87,,,,,,,,,,,,,,,,,,,,,,,,,,,,,,,,,,,,,main,k,k,1,0.8149595999857411,402.6811675999779,None,None,0,,,,,,,,,,,,,,118,24,Female,2022-05-06_12h53.52.931,Parachute,2022.1.1,60.066553730849435,
negative,yellow,2,k,None,,,,,,,,,0,88,88,88,,,,,,,,,,,,,,,,,,,,,,,,,,,,,,,,,,,,,main,k,k,1,1.0642129999469034,404.4981862999848,None,None,0,,,,,,,,,,,,,,118,24,Female,2022-05-06_12h53.52.931,Parachute,2022.1.1,60.066553730849435,
negative,blue,2,None,k,,,,,,,,,0,89,89,89,,,,,,,,,,,,,,,,,,,,,,,,,,,,,,,,,,,,,main,None,None,1,1.4944776000338607,406.56422299996484,None,None,1,,,,,,,,,,,,,,118,24,Female,2022-05-06_12h53.52.931,Parachute,2022.1.1,60.066553730849435,
positive,yellow,2,None,k,,,,,,,,,0,90,90,90,,,,,,,,,,,,,,,,,,,,,,,,,,,,,,,,,,,,,main,None,None,1,1.4982301999698393,409.0617651999928,None,None,1,,,,,,,,,,,,,,118,24,Female,2022-05-06_12h53.52.931,Parachute,2022.1.1,60.066553730849435,
negative,yellow,1,k,None,,,,,,,,,0,91,91,91,,,,,,,,,,,,,,,,,,,,,,,,,,,,,,,,,,,,,main,k,k,1,1.0365975000313483,411.56092009996064,None,None,0,,,,,,,,,,,,,,118,24,Female,2022-05-06_12h53.52.931,Parachute,2022.1.1,60.066553730849435,
negative,red,2,None,None,,,,,,,,,0,92,92,92,,,,,,,,,,,,,,,,,,,,,,,,,,,,,,,,,,,,,main,None,None,1,1.4938275000313297,413.59791919996496,None,None,1,,,,,,,,,,,,,,118,24,Female,2022-05-06_12h53.52.931,Parachute,2022.1.1,60.066553730849435,
negative,blue,2,None,k,,,,,,,,,0,93,93,93,,,,,,,,,,,,,,,,,,,,,,,,,,,,,,,,,,,,,main,None,None,1,1.4049828000133857,416.09426369995344,None,None,1,,,,,,,,,,,,,,118,24,Female,2022-05-06_12h53.52.931,Parachute,2022.1.1,60.066553730849435,
negative,blue,1,None,k,,,,,,,,,0,94,94,94,,,,,,,,,,,,,,,,,,,,,,,,,,,,,,,,,,,,,main,None,k,0,1.5096704000025056,418.49965029995656,None,None,1,,,,,,,,,,,,,,118,24,Female,2022-05-06_12h53.52.931,Parachute,2022.1.1,60.066553730849435,
negative,blue,1,None,k,,,,,,,,,0,95,95,95,,,,,,,,,,,,,,,,,,,,,,,,,,,,,,,,,,,,,main,None,None,1,1.5020693999831565,422.02604089997476,None,None,1,,,,,,,,,,,,,,118,24,Female,2022-05-06_12h53.52.931,Parachute,2022.1.1,60.066553730849435,
negative,red,1,None,None,,,,,,,,,0,96,96,96,,,,,,,,,,,,,,,,,,,,,,,,,,,,,,,,,,,,,main,None,None,1,1.497901999973692,424.52947419998236,None,None,1,,,,,,,,,,,,,,118,24,Female,2022-05-06_12h53.52.931,Parachute,2022.1.1,60.066553730849435,
positive,yellow,1,None,k,,,,,,,,,0,97,97,97,,,,,,,,,,,,,,,,,,,,,,,,,,,,,,,,,,,,,main,None,None,1,1.4987963999737985,427.0285040999879,None,None,1,,,,,,,,,,,,,,118,24,Female,2022-05-06_12h53.52.931,Parachute,2022.1.1,60.066553730849435,
negative,yellow,1,k,None,,,,,,,,,0,98,98,98,,,,,,,,,,,,,,,,,,,,,,,,,,,,,,,,,,,,,main,k,k,1,0.8868522999691777,429.5290702999919,None,None,0,,,,,,,,,,,,,,118,24,Female,2022-05-06_12h53.52.931,Parachute,2022.1.1,60.066553730849435,
positive,red,1,None,None,,,,,,,,,0,99,99,99,,,,,,,,,,,,,,,,,,,,,,,,,,,,,,,,,,,,,main,None,None,1,1.4935330000007525,431.41484759998275,None,None,1,,,,,,,,,,,,,,118,24,Female,2022-05-06_12h53.52.931,Parachute,2022.1.1,60.066553730849435,
positive,blue,1,k,None,,,,,,,,,0,100,100,100,,,,,,,,,,,,,,,,,,,,,,,,,,,,,,,,,,,,,main,k,k,1,0.7868951999698766,433.91207540000323,None,None,0,,,,,,,,,,,,,,118,24,Female,2022-05-06_12h53.52.931,Parachute,2022.1.1,60.066553730849435,
negative,yellow,1,k,None,,,,,,,,,0,101,101,101,,,,,,,,,,,,,,,,,,,,,,,,,,,,,,,,,,,,,main,k,k,1,0.8487730999477208,435.69833089999156,None,None,0,,,,,,,,,,,,,,118,24,Female,2022-05-06_12h53.52.931,Parachute,2022.1.1,60.066553730849435,
negative,blue,2,None,k,,,,,,,,,0,102,102,102,,,,,,,,,,,,,,,,,,,,,,,,,,,,,,,,,,,,,main,None,None,1,1.4936225000419654,437.5482769999653,None,None,1,,,,,,,,,,,,,,118,24,Female,2022-05-06_12h53.52.931,Parachute,2022.1.1,60.066553730849435,
negative,yellow,2,k,None,,,,,,,,,0,103,103,103,,,,,,,,,,,,,,,,,,,,,,,,,,,,,,,,,,,,,main,k,k,1,0.8198934000101872,440.04592349997256,None,None,0,,,,,,,,,,,,,,118,24,Female,2022-05-06_12h53.52.931,Parachute,2022.1.1,60.066553730849435,
positive,yellow,2,None,k,,,,,,,,,0,104,104,104,,,,,,,,,,,,,,,,,,,,,,,,,,,,,,,,,,,,,main,None,k,0,0.6986198000377044,441.86504999996396,None,None,1,,,,,,,,,,,,,,118,24,Female,2022-05-06_12h53.52.931,Parachute,2022.1.1,60.066553730849435,
positive,blue,1,k,None,,,,,,,,,0,105,105,105,,,,,,,,,,,,,,,,,,,,,,,,,,,,,,,,,,,,,main,k,k,1,0.7906230999506079,444.5766318999813,None,None,0,,,,,,,,,,,,,,118,24,Female,2022-05-06_12h53.52.931,Parachute,2022.1.1,60.066553730849435,
positive,blue,2,k,None,,,,,,,,,0,106,106,106,,,,,,,,,,,,,,,,,,,,,,,,,,,,,,,,,,,,,main,k,k,1,0.6973365999874659,446.366424799955,None,None,0,,,,,,,,,,,,,,118,24,Female,2022-05-06_12h53.52.931,Parachute,2022.1.1,60.066553730849435,
negative,blue,1,None,k,,,,,,,,,0,107,107,107,,,,,,,,,,,,,,,,,,,,,,,,,,,,,,,,,,,,,main,None,None,1,1.493444100022316,448.0650362999877,None,None,1,,,,,,,,,,,,,,118,24,Female,2022-05-06_12h53.52.931,Parachute,2022.1.1,60.066553730849435,
positive,yellow,2,None,k,,,,,,,,,0,108,108,108,,,,,,,,,,,,,,,,,,,,,,,,,,,,,,,,,,,,,main,None,None,1,1.4988767000031658,450.56201009999495,None,None,1,,,,,,,,,,,,,,118,24,Female,2022-05-06_12h53.52.931,Parachute,2022.1.1,60.066553730849435,
negative,yellow,1,k,None,,,,,,,,,0,109,109,109,,,,,,,,,,,,,,,,,,,,,,,,,,,,,,,,,,,,,main,k,k,1,0.803814799990505,453.0627959999838,None,None,0,,,,,,,,,,,,,,118,24,Female,2022-05-06_12h53.52.931,Parachute,2022.1.1,60.066553730849435,
negative,blue,2,None,k,,,,,,,,,0,110,110,110,,,,,,,,,,,,,,,,,,,,,,,,,,,,,,,,,,,,,main,None,None,1,1.493217499984894,454.86562929995125,None,None,1,,,,,,,,,,,,,,118,24,Female,2022-05-06_12h53.52.931,Parachute,2022.1.1,60.066553730849435,
positive,blue,2,k,None,,,,,,,,,0,111,111,111,,,,,,,,,,,,,,,,,,,,,,,,,,,,,,,,,,,,,main,k,k,1,0.7709180999663658,457.3629339999752,None,None,0,,,,,,,,,,,,,,118,24,Female,2022-05-06_12h53.52.931,Parachute,2022.1.1,60.066553730849435,
negative,blue,1,None,k,,,,,,,,,0,112,112,112,,,,,,,,,,,,,,,,,,,,,,,,,,,,,,,,,,,,,main,None,None,1,1.492800800013356,459.1331898999633,None,None,1,,,,,,,,,,,,,,118,24,Female,2022-05-06_12h53.52.931,Parachute,2022.1.1,60.066553730849435,
positive,yellow,1,None,k,,,,,,,,,0,113,113,113,,,,,,,,,,,,,,,,,,,,,,,,,,,,,,,,,,,,,main,None,None,1,1.4984288000268862,461.6299729999737,None,None,1,,,,,,,,,,,,,,118,24,Female,2022-05-06_12h53.52.931,Parachute,2022.1.1,60.066553730849435,
negative,red,1,None,None,,,,,,,,,0,114,114,114,,,,,,,,,,,,,,,,,,,,,,,,,,,,,,,,,,,,,main,None,None,1,1.498156099987682,464.12925559998257,None,None,1,,,,,,,,,,,,,,118,24,Female,2022-05-06_12h53.52.931,Parachute,2022.1.1,60.066553730849435,
positive,red,1,None,None,,,,,,,,,0,115,115,115,,,,,,,,,,,,,,,,,,,,,,,,,,,,,,,,,,,,,main,None,None,1,1.4990047999890521,466.62895089999074,None,None,1,,,,,,,,,,,,,,118,24,Female,2022-05-06_12h53.52.931,Parachute,2022.1.1,60.066553730849435,
negative,red,2,None,None,,,,,,,,,0,116,116,116,,,,,,,,,,,,,,,,,,,,,,,,,,,,,,,,,,,,,main,None,None,1,1.4987421000259928,469.12951649999013,None,None,1,,,,,,,,,,,,,,118,24,Female,2022-05-06_12h53.52.931,Parachute,2022.1.1,60.066553730849435,
negative,yellow,2,k,None,,,,,,,,,0,117,117,117,,,,,,,,,,,,,,,,,,,,,,,,,,,,,,,,,,,,,main,k,k,1,1.2199572999961674,471.6302404999733,None,None,0,,,,,,,,,,,,,,118,24,Female,2022-05-06_12h53.52.931,Parachute,2022.1.1,60.066553730849435,
positive,yellow,1,None,k,,,,,,,,,0,118,118,118,,,,,,,,,,,,,,,,,,,,,,,,,,,,,,,,,,,,,main,None,None,1,1.4934741000179201,473.8494215999963,None,None,1,,,,,,,,,,,,,,118,24,Female,2022-05-06_12h53.52.931,Parachute,2022.1.1,60.066553730849435,
positive,red,2,None,None,,,,,,,,,0,119,119,119,,,,,,,,,,,,,,,,,,,,,,,,,,,,,,,,,,,,,main,None,None,1,1.498045500018634,476.3468585999799,None,None,1,,,,,,,,,,,,,,118,24,Female,2022-05-06_12h53.52.931,Parachute,2022.1.1,60.066553730849435,
positive,blue,2,k,None,,,,,,,,,0,120,120,120,,,,,,,,,,,,,,,,,,,,,,,,,,,,,,,,,,,,,main,k,k,1,1.037722799985204,478.845957499987,None,None,0,,,,,,,,,,,,,,118,24,Female,2022-05-06_12h53.52.931,Parachute,2022.1.1,60.066553730849435,
negative,red,1,None,None,,,,,,,,,0,121,121,121,,,,,,,,,,,,,,,,,,,,,,,,,,,,,,,,,,,,,main,None,None,1,1.493271499988623,480.88330369995674,None,None,1,,,,,,,,,,,,,,118,24,Female,2022-05-06_12h53.52.931,Parachute,2022.1.1,60.066553730849435,
positive,yellow,2,None,k,,,,,,,,,0,122,122,122,,,,,,,,,,,,,,,,,,,,,,,,,,,,,,,,,,,,,main,None,None,1,1.498009600036312,483.3800437999889,None,None,1,,,,,,,,,,,,,,118,24,Female,2022-05-06_12h53.52.931,Parachute,2022.1.1,60.066553730849435,
negative,red,2,None,None,,,,,,,,,0,123,123,123,,,,,,,,,,,,,,,,,,,,,,,,,,,,,,,,,,,,,main,None,None,1,1.4990966999903321,485.8791400999762,None,None,1,,,,,,,,,,,,,,118,24,Female,2022-05-06_12h53.52.931,Parachute,2022.1.1,60.066553730849435,
negative,yellow,2,k,None,,,,,,,,,0,124,124,124,,,,,,,,,,,,,,,,,,,,,,,,,,,,,,,,,,,,,main,k,k,1,1.0678991999593563,488.38040619995445,None,None,0,,,,,,,,,,,,,,118,24,Female,2022-05-06_12h53.52.931,Parachute,2022.1.1,60.066553730849435,
positive,red,1,None,None,,,,,,,,,0,125,125,125,,,,,,,,,,,,,,,,,,,,,,,,,,,,,,,,,,,,,main,None,None,1,1.4952963999821804,490.4494872999494,None,None,1,,,,,,,,,,,,,,118,24,Female,2022-05-06_12h53.52.931,Parachute,2022.1.1,60.066553730849435,
negative,blue,2,None,k,,,,,,,,,0,126,126,126,,,,,,,,,,,,,,,,,,,,,,,,,,,,,,,,,,,,,main,None,None,1,1.498588100017514,492.94555809994927,None,None,1,,,,,,,,,,,,,,118,24,Female,2022-05-06_12h53.52.931,Parachute,2022.1.1,60.066553730849435,
negative,blue,1,None,k,,,,,,,,,0,127,127,127,,,,,,,,,,,,,,,,,,,,,,,,,,,,,,,,,,,,,main,None,None,1,1.4987017000094056,495.4459815999726,None,None,1,,,,,,,,,,,,,,118,24,Female,2022-05-06_12h53.52.931,Parachute,2022.1.1,60.066553730849435,
negative,yellow,1,k,None,,,,,,,,,0,128,128,128,,,,,,,,,,,,,,,,,,,,,,,,,,,,,,,,,,,,,main,k,k,1,0.8708766999770887,497.9461997000035,None,None,0,,,,,,,,,,,,,,118,24,Female,2022-05-06_12h53.52.931,Parachute,2022.1.1,60.066553730849435,
negative,yellow,1,k,None,,,,,,,,,0,129,129,129,,,,,,,,,,,,,,,,,,,,,,,,,,,,,,,,,,,,,main,k,k,1,0.9144323999644257,499.816628200002,None,None,0,,,,,,,,,,,,,,118,24,Female,2022-05-06_12h53.52.931,Parachute,2022.1.1,60.066553730849435,
positive,blue,1,k,None,,,,,,,,,0,130,130,130,,,,,,,,,,,,,,,,,,,,,,,,,,,,,,,,,,,,,main,k,k,1,0.8991665000212379,501.73303669999586,None,None,0,,,,,,,,,,,,,,118,24,Female,2022-05-06_12h53.52.931,Parachute,2022.1.1,60.066553730849435,
negative,blue,1,None,k,,,,,,,,,0,131,131,131,,,,,,,,,,,,,,,,,,,,,,,,,,,,,,,,,,,,,main,None,None,1,1.49293220002437,503.63349019997986,None,None,1,,,,,,,,,,,,,,118,24,Female,2022-05-06_12h53.52.931,Parachute,2022.1.1,60.066553730849435,
negative,blue,2,None,k,,,,,,,,,0,132,132,132,,,,,,,,,,,,,,,,,,,,,,,,,,,,,,,,,,,,,main,None,None,1,1.4988738000392914,506.1299605999957,None,None,1,,,,,,,,,,,,,,118,24,Female,2022-05-06_12h53.52.931,Parachute,2022.1.1,60.066553730849435,
positive,blue,2,k,None,,,,,,,,,0,133,133,133,,,,,,,,,,,,,,,,,,,,,,,,,,,,,,,,,,,,,main,k,k,1,0.7204785000067204,508.6310256999568,None,None,0,,,,,,,,,,,,,,118,24,Female,2022-05-06_12h53.52.931,Parachute,2022.1.1,60.066553730849435,
positive,red,2,None,None,,,,,,,,,0,134,134,134,,,,,,,,,,,,,,,,,,,,,,,,,,,,,,,,,,,,,main,None,None,1,1.4930451000109315,510.35041409998666,None,None,1,,,,,,,,,,,,,,118,24,Female,2022-05-06_12h53.52.931,Parachute,2022.1.1,60.066553730849435,
negative,yellow,2,k,None,,,,,,,,,0,135,135,135,,,,,,,,,,,,,,,,,,,,,,,,,,,,,,,,,,,,,main,k,k,1,1.0377136000315659,512.8469158999505,None,None,0,,,,,,,,,,,,,,118,24,Female,2022-05-06_12h53.52.931,Parachute,2022.1.1,60.066553730849435,
positive,yellow,2,None,k,,,,,,,,,0,136,136,136,,,,,,,,,,,,,,,,,,,,,,,,,,,,,,,,,,,,,main,None,None,1,1.5093804999487475,514.8844259000034,None,None,1,,,,,,,,,,,,,,118,24,Female,2022-05-06_12h53.52.931,Parachute,2022.1.1,60.066553730849435,
positive,blue,1,k,None,,,,,,,,,0,137,137,137,,,,,,,,,,,,,,,,,,,,,,,,,,,,,,,,,,,,,main,k,k,1,1.1849769999971613,517.3969230999937,None,None,0,,,,,,,,,,,,,,118,24,Female,2022-05-06_12h53.52.931,Parachute,2022.1.1,60.066553730849435,
positive,yellow,1,None,k,,,,,,,,,0,138,138,138,,,,,,,,,,,,,,,,,,,,,,,,,,,,,,,,,,,,,main,None,None,1,1.4953379000071436,519.5839274000027,None,None,1,,,,,,,,,,,,,,118,24,Female,2022-05-06_12h53.52.931,Parachute,2022.1.1,60.066553730849435,
positive,yellow,1,None,k,,,,,,,,,0,139,139,139,,,,,,,,,,,,,,,,,,,,,,,,,,,,,,,,,,,,,main,None,None,1,1.498441300005652,522.0803878000006,None,None,1,,,,,,,,,,,,,,118,24,Female,2022-05-06_12h53.52.931,Parachute,2022.1.1,60.066553730849435,
positive,yellow,1,None,k,,,,,,,,,0,140,140,140,,,,,,,,,,,,,,,,,,,,,,,,,,,,,,,,,,,,,main,None,None,1,1.4987794000189751,524.5800003999611,None,None,1,,,,,,,,,,,,,,118,24,Female,2022-05-06_12h53.52.931,Parachute,2022.1.1,60.066553730849435,
positive,blue,1,k,None,,,,,,,,,0,141,141,141,,,,,,,,,,,,,,,,,,,,,,,,,,,,,,,,,,,,,main,k,k,1,1.2706345000187866,527.0808669999824,None,None,0,,,,,,,,,,,,,,118,24,Female,2022-05-06_12h53.52.931,Parachute,2022.1.1,60.066553730849435,
positive,blue,2,k,None,,,,,,,,,0,142,142,142,,,,,,,,,,,,,,,,,,,,,,,,,,,,,,,,,,,,,main,k,k,1,0.9150117000099272,529.3515981999808,None,None,0,,,,,,,,,,,,,,118,24,Female,2022-05-06_12h53.52.931,Parachute,2022.1.1,60.066553730849435,
positive,yellow,2,None,k,,,,,,,,,0,143,143,143,,,,,,,,,,,,,,,,,,,,,,,,,,,,,,,,,,,,,main,None,None,1,1.4935276999603957,531.2667186000035,None,None,1,,,,,,,,,,,,,,118,24,Female,2022-05-06_12h53.52.931,Parachute,2022.1.1,60.066553730849435,
negative,yellow,2,k,None,,,,,,,,,0,144,144,144,,,,,,,,,,,,,,,,,,,,,,,,,,,,,,,,,,,,,main,k,k,1,0.8203287000069395,533.7642849999829,None,None,0,,,,,,,,,,,,,,118,24,Female,2022-05-06_12h53.52.931,Parachute,2022.1.1,60.066553730849435,
negative,blue,2,None,k,,,,,,,,,0,145,145,145,,,,,,,,,,,,,,,,,,,,,,,,,,,,,,,,,,,,,main,None,None,1,1.4934558999957517,535.5852505999501,None,None,1,,,,,,,,,,,,,,118,24,Female,2022-05-06_12h53.52.931,Parachute,2022.1.1,60.066553730849435,
negative,red,1,None,None,,,,,,,,,0,146,146,146,,,,,,,,,,,,,,,,,,,,,,,,,,,,,,,,,,,,,main,None,None,1,1.4986113000195473,538.0810584999854,None,None,1,,,,,,,,,,,,,,118,24,Female,2022-05-06_12h53.52.931,Parachute,2022.1.1,60.066553730849435,
positive,blue,1,k,None,,,,,,,,,0,147,147,147,,,,,,,,,,,,,,,,,,,,,,,,,,,,,,,,,,,,,main,k,k,1,0.836991099989973,540.5826392999734,None,None,0,,,,,,,,,,,,,,118,24,Female,2022-05-06_12h53.52.931,Parachute,2022.1.1,60.066553730849435,
positive,yellow,1,None,k,,,,,,,,,0,148,148,148,,,,,,,,,,,,,,,,,,,,,,,,,,,,,,,,,,,,,main,None,None,1,1.4936480000033043,542.4172241999768,None,None,1,,,,,,,,,,,,,,118,24,Female,2022-05-06_12h53.52.931,Parachute,2022.1.1,60.066553730849435,
negative,red,2,None,None,,,,,,,,,0,149,149,149,,,,,,,,,,,,,,,,,,,,,,,,,,,,,,,,,,,,,main,None,None,1,1.4983055000193417,544.9150427999557,None,None,1,,,,,,,,,,,,,,118,24,Female,2022-05-06_12h53.52.931,Parachute,2022.1.1,60.066553730849435,
negative,blue,1,None,k,,,,,,,,,0,150,150,150,,,,,,,,,,,,,,,,,,,,,,,,,,,,,,,,,,,,,main,None,None,1,1.498696899972856,547.4146044999943,None,None,1,,,,,,,,,,,,,,118,24,Female,2022-05-06_12h53.52.931,Parachute,2022.1.1,60.066553730849435,
negative,yellow,2,k,None,,,,,,,,,0,151,151,151,,,,,,,,,,,,,,,,,,,,,,,,,,,,,,,,,,,,,main,k,k,1,1.0352983999764547,549.9152331999503,None,None,0,,,,,,,,,,,,,,118,24,Female,2022-05-06_12h53.52.931,Parachute,2022.1.1,60.066553730849435,
negative,blue,2,None,k,,,,,,,,,0,152,152,152,,,,,,,,,,,,,,,,,,,,,,,,,,,,,,,,,,,,,main,None,None,1,1.5088432999909855,551.9505540999817,None,None,1,,,,,,,,,,,,,,118,24,Female,2022-05-06_12h53.52.931,Parachute,2022.1.1,60.066553730849435,
negative,yellow,1,k,None,,,,,,,,,0,153,153,153,,,,,,,,,,,,,,,,,,,,,,,,,,,,,,,,,,,,,main,k,k,1,1.0223089000210166,554.466600099986,None,None,0,,,,,,,,,,,,,,118,24,Female,2022-05-06_12h53.52.931,Parachute,2022.1.1,60.066553730849435,
negative,blue,1,None,k,,,,,,,,,0,154,154,154,,,,,,,,,,,,,,,,,,,,,,,,,,,,,,,,,,,,,main,None,None,1,1.507485700014513,556.4912582999677,None,None,1,,,,,,,,,,,,,,118,24,Female,2022-05-06_12h53.52.931,Parachute,2022.1.1,60.066553730849435,
positive,yellow,2,None,k,,,,,,,,,0,155,155,155,,,,,,,,,,,,,,,,,,,,,,,,,,,,,,,,,,,,,main,None,None,1,1.513723099953495,559.0044605999719,None,None,1,,,,,,,,,,,,,,118,24,Female,2022-05-06_12h53.52.931,Parachute,2022.1.1,60.066553730849435,
positive,red,2,None,None,,,,,,,,,0,156,156,156,,,,,,,,,,,,,,,,,,,,,,,,,,,,,,,,,,,,,main,None,None,1,1.4979377000126988,561.5175319999689,None,None,1,,,,,,,,,,,,,,118,24,Female,2022-05-06_12h53.52.931,Parachute,2022.1.1,60.066553730849435,
positive,red,1,None,None,,,,,,,,,0,157,157,157,,,,,,,,,,,,,,,,,,,,,,,,,,,,,,,,,,,,,main,None,None,1,1.497712100041099,564.0176397999749,None,None,1,,,,,,,,,,,,,,118,24,Female,2022-05-06_12h53.52.931,Parachute,2022.1.1,60.066553730849435,
positive,blue,2,k,None,,,,,,,,,0,158,158,158,,,,,,,,,,,,,,,,,,,,,,,,,,,,,,,,,,,,,main,k,k,1,0.9623155000153929,566.5157985999831,None,None,0,,,,,,,,,,,,,,118,24,Female,2022-05-06_12h53.52.931,Parachute,2022.1.1,60.066553730849435,
negative,yellow,1,k,None,,,,,,,,,0,159,159,159,,,,,,,,,,,,,,,,,,,,,,,,,,,,,,,,,,,,,main,k,k,1,0.7072183000273071,568.4791548999492,None,None,0,,,,,,,,,,,,,,118,24,Female,2022-05-06_12h53.52.931,Parachute,2022.1.1,60.066553730849435,
negative,red,2,None,None,,,,,,,,,0,160,160,160,,,,,,,,,,,,,,,,,,,,,,,,,,,,,,,,,,,,,main,None,None,1,1.5093033000011928,570.1861988999881,None,None,1,,,,,,,,,,,,,,118,24,Female,2022-05-06_12h53.52.931,Parachute,2022.1.1,60.066553730849435,
negative,blue,1,None,k,,,,,,,,,0,161,161,161,,,,,,,,,,,,,,,,,,,,,,,,,,,,,,,,,,,,,main,None,None,1,1.4981929000350647,572.7000762999523,None,None,1,,,,,,,,,,,,,,118,24,Female,2022-05-06_12h53.52.931,Parachute,2022.1.1,60.066553730849435,
negative,blue,1,None,k,,,,,,,,,0,162,162,162,,,,,,,,,,,,,,,,,,,,,,,,,,,,,,,,,,,,,main,None,k,0,0.9032483999617398,575.1993145999731,None,None,1,,,,,,,,,,,,,,118,24,Female,2022-05-06_12h53.52.931,Parachute,2022.1.1,60.066553730849435,
negative,yellow,1,k,None,,,,,,,,,0,163,163,163,,,,,,,,,,,,,,,,,,,,,,,,,,,,,,,,,,,,,main,k,k,1,0.989376200013794,578.1133305999683,None,None,0,,,,,,,,,,,,,,118,24,Female,2022-05-06_12h53.52.931,Parachute,2022.1.1,60.066553730849435,
negative,yellow,1,k,None,,,,,,,,,0,164,164,164,,,,,,,,,,,,,,,,,,,,,,,,,,,,,,,,,,,,,main,k,k,1,0.7977594999829307,580.1012359999586,None,None,0,,,,,,,,,,,,,,118,24,Female,2022-05-06_12h53.52.931,Parachute,2022.1.1,60.066553730849435,
positive,yellow,1,None,k,,,,,,,,,0,165,165,165,,,,,,,,,,,,,,,,,,,,,,,,,,,,,,,,,,,,,main,None,None,1,1.4949774000560865,581.9098067999585,None,None,1,,,,,,,,,,,,,,118,24,Female,2022-05-06_12h53.52.931,Parachute,2022.1.1,60.066553730849435,
negative,red,1,None,None,,,,,,,,,0,166,166,166,,,,,,,,,,,,,,,,,,,,,,,,,,,,,,,,,,,,,main,None,None,1,1.4991707999724895,584.3990501999506,None,None,1,,,,,,,,,,,,,,118,24,Female,2022-05-06_12h53.52.931,Parachute,2022.1.1,60.066553730849435,
negative,yellow,2,k,None,,,,,,,,,0,167,167,167,,,,,,,,,,,,,,,,,,,,,,,,,,,,,,,,,,,,,main,k,k,1,1.11858619999839,586.8999263999867,None,None,0,,,,,,,,,,,,,,118,24,Female,2022-05-06_12h53.52.931,Parachute,2022.1.1,60.066553730849435,
positive,blue,2,k,None,,,,,,,,,0,168,168,168,,,,,,,,,,,,,,,,,,,,,,,,,,,,,,,,,,,,,main,k,k,1,0.8829762000241317,589.018394899962,None,None,0,,,,,,,,,,,,,,118,24,Female,2022-05-06_12h53.52.931,Parachute,2022.1.1,60.066553730849435,
positive,red,2,None,None,,,,,,,,,0,169,169,169,,,,,,,,,,,,,,,,,,,,,,,,,,,,,,,,,,,,,main,None,None,1,1.4936821999726817,590.901586699998,None,None,1,,,,,,,,,,,,,,118,24,Female,2022-05-06_12h53.52.931,Parachute,2022.1.1,60.066553730849435,
positive,red,1,None,None,,,,,,,,,0,170,170,170,,,,,,,,,,,,,,,,,,,,,,,,,,,,,,,,,,,,,main,None,None,1,1.498281300009694,593.3992761999834,None,None,1,,,,,,,,,,,,,,118,24,Female,2022-05-06_12h53.52.931,Parachute,2022.1.1,60.066553730849435,
negative,blue,2,None,k,,,,,,,,,0,171,171,171,,,,,,,,,,,,,,,,,,,,,,,,,,,,,,,,,,,,,main,None,None,1,1.4986817000317387,595.8989510999527,None,None,1,,,,,,,,,,,,,,118,24,Female,2022-05-06_12h53.52.931,Parachute,2022.1.1,60.066553730849435,
positive,blue,2,k,None,,,,,,,,,0,172,172,172,,,,,,,,,,,,,,,,,,,,,,,,,,,,,,,,,,,,,main,k,k,1,1.2860423999954946,598.3992697999929,None,None,0,,,,,,,,,,,,,,118,24,Female,2022-05-06_12h53.52.931,Parachute,2022.1.1,60.066553730849435,
negative,yellow,2,k,None,,,,,,,,,0,173,173,173,,,,,,,,,,,,,,,,,,,,,,,,,,,,,,,,,,,,,main,k,k,1,1.1999021000228822,600.6853685999522,None,None,0,,,,,,,,,,,,,,118,24,Female,2022-05-06_12h53.52.931,Parachute,2022.1.1,60.066553730849435,
positive,yellow,2,None,k,,,,,,,,,0,174,174,174,,,,,,,,,,,,,,,,,,,,,,,,,,,,,,,,,,,,,main,None,None,1,1.4933221999672242,602.8857072999817,None,None,1,,,,,,,,,,,,,,118,24,Female,2022-05-06_12h53.52.931,Parachute,2022.1.1,60.066553730849435,
negative,blue,2,None,k,,,,,,,,,0,175,175,175,,,,,,,,,,,,,,,,,,,,,,,,,,,,,,,,,,,,,main,None,None,1,1.4980590000050142,605.3827454999555,None,None,1,,,,,,,,,,,,,,118,24,Female,2022-05-06_12h53.52.931,Parachute,2022.1.1,60.066553730849435,
positive,blue,1,k,None,,,,,,,,,0,176,176,176,,,,,,,,,,,,,,,,,,,,,,,,,,,,,,,,,,,,,main,k,k,1,1.1373992000008002,607.8820467999903,None,None,0,,,,,,,,,,,,,,118,24,Female,2022-05-06_12h53.52.931,Parachute,2022.1.1,60.066553730849435,
positive,yellow,1,None,k,,,,,,,,,0,177,177,177,,,,,,,,,,,,,,,,,,,,,,,,,,,,,,,,,,,,,main,None,None,1,1.4935829999740236,610.0191935999901,None,None,1,,,,,,,,,,,,,,118,24,Female,2022-05-06_12h53.52.931,Parachute,2022.1.1,60.066553730849435,
positive,blue,1,k,None,,,,,,,,,0,178,178,178,,,,,,,,,,,,,,,,,,,,,,,,,,,,,,,,,,,,,main,k,k,1,0.8363379999645986,612.5170214999816,None,None,0,,,,,,,,,,,,,,118,24,Female,2022-05-06_12h53.52.931,Parachute,2022.1.1,60.066553730849435,
positive,yellow,2,None,k,,,,,,,,,0,179,179,179,,,,,,,,,,,,,,,,,,,,,,,,,,,,,,,,,,,,,main,None,None,1,1.493650499964133,614.352139399969,None,None,1,,,,,,,,,,,,,,118,24,Female,2022-05-06_12h53.52.931,Parachute,2022.1.1,60.066553730849435,
positive,blue,1,k,None,,,,,,,,,0,180,180,180,,,,,,,,,,,,,,,,,,,,,,,,,,,,,,,,,,,,,main,k,k,1,0.8217533000279218,616.8496220999514,None,None,0,,,,,,,,,,,,,,118,24,Female,2022-05-06_12h53.52.931,Parachute,2022.1.1,60.066553730849435,
negative,red,1,None,None,,,,,,,,,0,181,181,181,,,,,,,,,,,,,,,,,,,,,,,,,,,,,,,,,,,,,main,None,None,1,1.5085338999633677,618.6715353999753,None,None,1,,,,,,,,,,,,,,118,24,Female,2022-05-06_12h53.52.931,Parachute,2022.1.1,60.066553730849435,
negative,blue,1,None,k,,,,,,,,,0,182,182,182,,,,,,,,,,,,,,,,,,,,,,,,,,,,,,,,,,,,,main,None,None,1,1.498892400006298,621.1824301999877,None,None,1,,,,,,,,,,,,,,118,24,Female,2022-05-06_12h53.52.931,Parachute,2022.1.1,60.066553730849435,
negative,yellow,2,k,None,,,,,,,,,0,183,183,183,,,,,,,,,,,,,,,,,,,,,,,,,,,,,,,,,,,,,main,k,k,1,0.878854600014165,623.6836611999897,None,None,0,,,,,,,,,,,,,,118,24,Female,2022-05-06_12h53.52.931,Parachute,2022.1.1,60.066553730849435,
positive,yellow,2,None,k,,,,,,,,,0,184,184,184,,,,,,,,,,,,,,,,,,,,,,,,,,,,,,,,,,,,,main,None,None,1,1.5010149999870919,625.5639755000011,None,None,1,,,,,,,,,,,,,,118,24,Female,2022-05-06_12h53.52.931,Parachute,2022.1.1,60.066553730849435,
positive,yellow,1,None,k,,,,,,,,,0,185,185,185,,,,,,,,,,,,,,,,,,,,,,,,,,,,,,,,,,,,,main,None,None,1,1.499223599967081,628.0657931999885,None,None,1,,,,,,,,,,,,,,118,24,Female,2022-05-06_12h53.52.931,Parachute,2022.1.1,60.066553730849435,
positive,red,2,None,None,,,,,,,,,0,186,186,186,,,,,,,,,,,,,,,,,,,,,,,,,,,,,,,,,,,,,main,None,None,1,1.4982619999791496,630.5671881999588,None,None,1,,,,,,,,,,,,,,118,24,Female,2022-05-06_12h53.52.931,Parachute,2022.1.1,60.066553730849435,
positive,blue,1,k,None,,,,,,,,,0,187,187,187,,,,,,,,,,,,,,,,,,,,,,,,,,,,,,,,,,,,,main,k,k,1,0.8039583000354469,633.0666511000018,None,None,0,,,,,,,,,,,,,,118,24,Female,2022-05-06_12h53.52.931,Parachute,2022.1.1,60.066553730849435,
negative,yellow,1,k,None,,,,,,,,,0,188,188,188,,,,,,,,,,,,,,,,,,,,,,,,,,,,,,,,,,,,,main,k,k,1,0.9651636999915354,634.869334899995,None,None,0,,,,,,,,,,,,,,118,24,Female,2022-05-06_12h53.52.931,Parachute,2022.1.1,60.066553730849435,
positive,yellow,2,None,k,,,,,,,,,0,189,189,189,,,,,,,,,,,,,,,,,,,,,,,,,,,,,,,,,,,,,main,None,None,1,1.4933537000324577,636.8363293999573,None,None,1,,,,,,,,,,,,,,118,24,Female,2022-05-06_12h53.52.931,Parachute,2022.1.1,60.066553730849435,
negative,yellow,2,k,None,,,,,,,,,0,190,190,190,,,,,,,,,,,,,,,,,,,,,,,,,,,,,,,,,,,,,main,k,k,1,1.153483200003393,639.3329877999495,None,None,0,,,,,,,,,,,,,,118,24,Female,2022-05-06_12h53.52.931,Parachute,2022.1.1,60.066553730849435,
negative,yellow,1,k,None,,,,,,,,,0,191,191,191,,,,,,,,,,,,,,,,,,,,,,,,,,,,,,,,,,,,,main,k,k,1,1.0817233999841847,641.4861822999665,None,None,0,,,,,,,,,,,,,,118,24,Female,2022-05-06_12h53.52.931,Parachute,2022.1.1,60.066553730849435,
positive,blue,2,k,None,,,,,,,,,0,192,192,192,,,,,,,,,,,,,,,,,,,,,,,,,,,,,,,,,,,,,main,k,k,1,0.9153844999964349,643.5702325999737,None,None,0,,,,,,,,,,,,,,118,24,Female,2022-05-06_12h53.52.931,Parachute,2022.1.1,60.066553730849435,
positive,yellow,1,None,k,,,,,,,,,0,193,193,193,,,,,,,,,,,,,,,,,,,,,,,,,,,,,,,,,,,,,main,None,k,0,1.11498070001835,645.485943000007,None,None,1,,,,,,,,,,,,,,118,24,Female,2022-05-06_12h53.52.931,Parachute,2022.1.1,60.066553730849435,
negative,red,2,None,None,,,,,,,,,0,194,194,194,,,,,,,,,,,,,,,,,,,,,,,,,,,,,,,,,,,,,main,None,None,1,1.5022137999767438,648.6144694999675,None,None,1,,,,,,,,,,,,,,118,24,Female,2022-05-06_12h53.52.931,Parachute,2022.1.1,60.066553730849435,
positive,red,1,None,None,,,,,,,,,0,195,195,195,,,,,,,,,,,,,,,,,,,,,,,,,,,,,,,,,,,,,main,None,None,1,1.4981576999998651,651.1174241999979,None,None,1,,,,,,,,,,,,,,118,24,Female,2022-05-06_12h53.52.931,Parachute,2022.1.1,60.066553730849435,
negative,blue,1,None,k,,,,,,,,,0,196,196,196,,,,,,,,,,,,,,,,,,,,,,,,,,,,,,,,,,,,,main,None,None,1,1.498117999988608,653.6164347999729,None,None,1,,,,,,,,,,,,,,118,24,Female,2022-05-06_12h53.52.931,Parachute,2022.1.1,60.066553730849435,
positive,blue,2,k,None,,,,,,,,,0,197,197,197,,,,,,,,,,,,,,,,,,,,,,,,,,,,,,,,,,,,,main,k,k,1,0.7712140000076033,656.1158392999787,None,None,0,,,,,,,,,,,,,,118,24,Female,2022-05-06_12h53.52.931,Parachute,2022.1.1,60.066553730849435,
negative,blue,2,None,k,,,,,,,,,0,198,198,198,,,,,,,,,,,,,,,,,,,,,,,,,,,,,,,,,,,,,main,None,None,1,1.492761600005906,657.887038099987,None,None,1,,,,,,,,,,,,,,118,24,Female,2022-05-06_12h53.52.931,Parachute,2022.1.1,60.066553730849435,
negative,blue,2,None,k,,,,,,,,,0,199,199,199,,,,,,,,,,,,,,,,,,,,,,,,,,,,,,,,,,,,,main,None,None,1,1.4986250000074506,660.3831656999537,None,None,1,,,,,,,,,,,,,,118,24,Female,2022-05-06_12h53.52.931,Parachute,2022.1.1,60.066553730849435,
positive,blue,2,k,None,,,,,,,,,0,200,200,200,,,,,,,,,,,,,,,,,,,,,,,,,,,,,,,,,,,,,main,k,k,1,0.9040186000056565,662.8834131999756,None,None,0,,,,,,,,,,,,,,118,24,Female,2022-05-06_12h53.52.931,Parachute,2022.1.1,60.066553730849435,
positive,blue,2,k,None,,,,,,,,,0,201,201,201,,,,,,,,,,,,,,,,,,,,,,,,,,,,,,,,,,,,,main,k,k,1,0.8807848999858834,664.786567299976,None,None,0,,,,,,,,,,,,,,118,24,Female,2022-05-06_12h53.52.931,Parachute,2022.1.1,60.066553730849435,
negative,yellow,2,k,None,,,,,,,,,0,202,202,202,,,,,,,,,,,,,,,,,,,,,,,,,,,,,,,,,,,,,main,k,k,1,1.066262900014408,666.6698933999869,None,None,0,,,,,,,,,,,,,,118,24,Female,2022-05-06_12h53.52.931,Parachute,2022.1.1,60.066553730849435,
positive,red,1,None,None,,,,,,,,,0,203,203,203,,,,,,,,,,,,,,,,,,,,,,,,,,,,,,,,,,,,,main,None,None,1,1.4936633000033908,668.7366861999617,None,None,1,,,,,,,,,,,,,,118,24,Female,2022-05-06_12h53.52.931,Parachute,2022.1.1,60.066553730849435,
negative,blue,2,None,k,,,,,,,,,0,204,204,204,,,,,,,,,,,,,,,,,,,,,,,,,,,,,,,,,,,,,main,None,None,1,1.498573100019712,671.2342748999945,None,None,1,,,,,,,,,,,,,,118,24,Female,2022-05-06_12h53.52.931,Parachute,2022.1.1,60.066553730849435,
negative,red,1,None,None,,,,,,,,,0,205,205,205,,,,,,,,,,,,,,,,,,,,,,,,,,,,,,,,,,,,,main,None,None,1,1.4979242000263184,673.7342027999694,None,None,1,,,,,,,,,,,,,,118,24,Female,2022-05-06_12h53.52.931,Parachute,2022.1.1,60.066553730849435,
negative,blue,2,None,k,,,,,,,,,0,206,206,206,,,,,,,,,,,,,,,,,,,,,,,,,,,,,,,,,,,,,main,None,None,1,1.499284199962858,676.2332725999877,None,None,1,,,,,,,,,,,,,,118,24,Female,2022-05-06_12h53.52.931,Parachute,2022.1.1,60.066553730849435,
negative,yellow,2,k,None,,,,,,,,,0,207,207,207,,,,,,,,,,,,,,,,,,,,,,,,,,,,,,,,,,,,,main,k,k,1,0.8031215999508277,678.7346479999833,None,None,0,,,,,,,,,,,,,,118,24,Female,2022-05-06_12h53.52.931,Parachute,2022.1.1,60.066553730849435,
positive,yellow,2,None,k,,,,,,,,,0,208,208,208,,,,,,,,,,,,,,,,,,,,,,,,,,,,,,,,,,,,,main,None,None,1,1.4937565000145696,680.53680849995,None,None,1,,,,,,,,,,,,,,118,24,Female,2022-05-06_12h53.52.931,Parachute,2022.1.1,60.066553730849435,
negative,yellow,1,k,None,,,,,,,,,0,209,209,209,,,,,,,,,,,,,,,,,,,,,,,,,,,,,,,,,,,,,main,k,k,1,0.9036030999850482,683.034144699981,None,None,0,,,,,,,,,,,,,,118,24,Female,2022-05-06_12h53.52.931,Parachute,2022.1.1,60.066553730849435,
negative,red,2,None,None,,,,,,,,,0,210,210,210,,,,,,,,,,,,,,,,,,,,,,,,,,,,,,,,,,,,,main,None,None,1,1.493705399974715,684.9370360999601,None,None,1,,,,,,,,,,,,,,118,24,Female,2022-05-06_12h53.52.931,Parachute,2022.1.1,60.066553730849435,
negative,blue,1,None,k,,,,,,,,,0,211,211,211,,,,,,,,,,,,,,,,,,,,,,,,,,,,,,,,,,,,,main,None,None,1,1.4984106000047177,687.43462179997,None,None,1,,,,,,,,,,,,,,118,24,Female,2022-05-06_12h53.52.931,Parachute,2022.1.1,60.066553730849435,
negative,yellow,1,k,None,,,,,,,,,0,212,212,212,,,,,,,,,,,,,,,,,,,,,,,,,,,,,,,,,,,,,main,k,k,1,1.0042923000291921,689.9349690999952,None,None,0,,,,,,,,,,,,,,118,24,Female,2022-05-06_12h53.52.931,Parachute,2022.1.1,60.066553730849435,
positive,blue,1,k,None,,,,,,,,,0,213,213,213,,,,,,,,,,,,,,,,,,,,,,,,,,,,,,,,,,,,,main,k,k,1,1.231046500033699,691.9382725000032,None,None,0,,,,,,,,,,,,,,118,24,Female,2022-05-06_12h53.52.931,Parachute,2022.1.1,60.066553730849435,
positive,blue,1,k,None,,,,,,,,,0,214,214,214,,,,,,,,,,,,,,,,,,,,,,,,,,,,,,,,,,,,,main,k,k,1,0.7485564000089653,694.1704917000025,None,None,0,,,,,,,,,,,,,,118,24,Female,2022-05-06_12h53.52.931,Parachute,2022.1.1,60.066553730849435,
positive,yellow,1,None,k,,,,,,,,,0,215,215,215,,,,,,,,,,,,,,,,,,,,,,,,,,,,,,,,,,,,,main,None,None,1,1.4933440000168048,695.9205994999502,None,None,1,,,,,,,,,,,,,,118,24,Female,2022-05-06_12h53.52.931,Parachute,2022.1.1,60.066553730849435,
positive,yellow,1,None,k,,,,,,,,,0,216,216,216,,,,,,,,,,,,,,,,,,,,,,,,,,,,,,,,,,,,,main,None,None,1,1.498842799977865,698.4178312000004,None,None,1,,,,,,,,,,,,,,118,24,Female,2022-05-06_12h53.52.931,Parachute,2022.1.1,60.066553730849435,
positive,yellow,2,None,k,,,,,,,,,0,217,217,217,,,,,,,,,,,,,,,,,,,,,,,,,,,,,,,,,,,,,main,None,None,1,1.4988101999624632,700.9176023000036,None,None,1,,,,,,,,,,,,,,118,24,Female,2022-05-06_12h53.52.931,Parachute,2022.1.1,60.066553730849435,
negative,blue,1,None,k,,,,,,,,,0,218,218,218,,,,,,,,,,,,,,,,,,,,,,,,,,,,,,,,,,,,,main,None,None,1,1.4984572000103071,703.4183494999888,None,None,1,,,,,,,,,,,,,,118,24,Female,2022-05-06_12h53.52.931,Parachute,2022.1.1,60.066553730849435,
positive,red,2,None,None,,,,,,,,,0,219,219,219,,,,,,,,,,,,,,,,,,,,,,,,,,,,,,,,,,,,,main,None,None,1,1.4983876000042073,705.9179121999769,None,None,1,,,,,,,,,,,,,,118,24,Female,2022-05-06_12h53.52.931,Parachute,2022.1.1,60.066553730849435,
positive,yellow,1,None,k,,,,,,,,,0,220,220,220,,,,,,,,,,,,,,,,,,,,,,,,,,,,,,,,,,,,,main,None,None,1,1.4986303000478074,708.4180996000068,None,None,1,,,,,,,,,,,,,,118,24,Female,2022-05-06_12h53.52.931,Parachute,2022.1.1,60.066553730849435,
positive,blue,1,k,None,,,,,,,,,0,221,221,221,,,,,,,,,,,,,,,,,,,,,,,,,,,,,,,,,,,,,main,k,k,1,6.685626899998169,710.918040599965,None,None,0,,,,,,,,,,,,,,118,24,Female,2022-05-06_12h53.52.931,Parachute,2022.1.1,60.066553730849435,
positive,yellow,2,None,k,,,,,,,,,0,222,222,222,,,,,,,,,,,,,,,,,,,,,,,,,,,,,,,,,,,,,main,None,None,1,1.5019717999966815,719.6164940999588,None,None,1,,,,,,,,,,,,,,118,24,Female,2022-05-06_12h53.52.931,Parachute,2022.1.1,60.066553730849435,
negative,yellow,1,k,None,,,,,,,,,0,223,223,223,,,,,,,,,,,,,,,,,,,,,,,,,,,,,,,,,,,,,main,k,k,1,1.803656600008253,722.1189370999928,None,None,0,,,,,,,,,,,,,,118,24,Female,2022-05-06_12h53.52.931,Parachute,2022.1.1,60.066553730849435,
positive,yellow,2,None,k,,,,,,,,,0,224,224,224,,,,,,,,,,,,,,,,,,,,,,,,,,,,,,,,,,,,,main,None,None,1,1.5015545000205748,725.9326423999737,None,None,1,,,,,,,,,,,,,,118,24,Female,2022-05-06_12h53.52.931,Parachute,2022.1.1,60.066553730849435,
negative,yellow,2,k,None,,,,,,,,,0,225,225,225,,,,,,,,,,,,,,,,,,,,,,,,,,,,,,,,,,,,,main,k,k,1,0.9535513000446372,728.435112999985,None,None,0,,,,,,,,,,,,,,118,24,Female,2022-05-06_12h53.52.931,Parachute,2022.1.1,60.066553730849435,
negative,blue,2,None,k,,,,,,,,,0,226,226,226,,,,,,,,,,,,,,,,,,,,,,,,,,,,,,,,,,,,,main,None,None,1,1.4931554999784566,730.3878987999633,None,None,1,,,,,,,,,,,,,,118,24,Female,2022-05-06_12h53.52.931,Parachute,2022.1.1,60.066553730849435,
positive,red,2,None,None,,,,,,,,,0,227,227,227,,,,,,,,,,,,,,,,,,,,,,,,,,,,,,,,,,,,,main,None,None,1,1.498563400004059,732.884492799989,None,None,1,,,,,,,,,,,,,,118,24,Female,2022-05-06_12h53.52.931,Parachute,2022.1.1,60.066553730849435,
positive,blue,2,k,None,,,,,,,,,0,228,228,228,,,,,,,,,,,,,,,,,,,,,,,,,,,,,,,,,,,,,main,k,k,1,3.788177300011739,735.384932099958,None,None,0,,,,,,,,,,,,,,118,24,Female,2022-05-06_12h53.52.931,Parachute,2022.1.1,60.066553730849435,
negative,blue,1,None,k,,,,,,,,,0,229,229,229,,,,,,,,,,,,,,,,,,,,,,,,,,,,,,,,,,,,,main,None,None,1,1.5023242000024766,741.1828961999854,None,None,1,,,,,,,,,,,,,,118,24,Female,2022-05-06_12h53.52.931,Parachute,2022.1.1,60.066553730849435,
positive,yellow,1,None,k,,,,,,,,,0,230,230,230,,,,,,,,,,,,,,,,,,,,,,,,,,,,,,,,,,,,,main,None,None,1,1.4976822000462562,743.6863643999677,None,None,1,,,,,,,,,,,,,,118,24,Female,2022-05-06_12h53.52.931,Parachute,2022.1.1,60.066553730849435,
negative,blue,2,None,k,,,,,,,,,0,231,231,231,,,,,,,,,,,,,,,,,,,,,,,,,,,,,,,,,,,,,main,None,None,1,1.4992570000467822,746.1852561999694,None,None,1,,,,,,,,,,,,,,118,24,Female,2022-05-06_12h53.52.931,Parachute,2022.1.1,60.066553730849435,
negative,red,1,None,None,,,,,,,,,0,232,232,232,,,,,,,,,,,,,,,,,,,,,,,,,,,,,,,,,,,,,main,None,None,1,1.4979138000053354,748.6870973999612,None,None,1,,,,,,,,,,,,,,118,24,Female,2022-05-06_12h53.52.931,Parachute,2022.1.1,60.066553730849435,
positive,blue,2,k,None,,,,,,,,,0,233,233,233,,,,,,,,,,,,,,,,,,,,,,,,,,,,,,,,,,,,,main,k,k,1,0.9691869000089355,751.1850314000039,None,None,0,,,,,,,,,,,,,,118,24,Female,2022-05-06_12h53.52.931,Parachute,2022.1.1,60.066553730849435,
negative,yellow,1,k,None,,,,,,,,,0,234,234,234,,,,,,,,,,,,,,,,,,,,,,,,,,,,,,,,,,,,,main,k,k,1,0.9000279999454506,753.165910199983,None,None,0,,,,,,,,,,,,,,118,24,Female,2022-05-06_12h53.52.931,Parachute,2022.1.1,60.066553730849435,
negative,yellow,2,k,None,,,,,,,,,0,235,235,235,,,,,,,,,,,,,,,,,,,,,,,,,,,,,,,,,,,,,main,k,k,1,0.8972584000439383,755.0552999000065,None,None,0,,,,,,,,,,,,,,118,24,Female,2022-05-06_12h53.52.931,Parachute,2022.1.1,60.066553730849435,
positive,red,1,None,None,,,,,,,,,0,236,236,236,,,,,,,,,,,,,,,,,,,,,,,,,,,,,,,,,,,,,main,None,None,1,1.4945959000033326,756.9555274999584,None,None,1,,,,,,,,,,,,,,118,24,Female,2022-05-06_12h53.52.931,Parachute,2022.1.1,60.066553730849435,
negative,red,2,None,None,,,,,,,,,0,237,237,237,,,,,,,,,,,,,,,,,,,,,,,,,,,,,,,,,,,,,main,None,None,1,1.498482699971646,759.4517723000026,None,None,1,,,,,,,,,,,,,,118,24,Female,2022-05-06_12h53.52.931,Parachute,2022.1.1,60.066553730849435,
negative,blue,1,None,k,,,,,,,,,0,238,238,238,,,,,,,,,,,,,,,,,,,,,,,,,,,,,,,,,,,,,main,None,None,1,1.4992359000025317,761.9525008999626,None,None,1,,,,,,,,,,,,,,118,24,Female,2022-05-06_12h53.52.931,Parachute,2022.1.1,60.066553730849435,
positive,blue,1,k,None,,,,,,,,,0,239,239,239,,,,,,,,,,,,,,,,,,,,,,,,,,,,,,,,,,,,,main,k,k,1,0.8537013999884948,764.4531772999908,None,None,0,,,,,,,,,,,,,,118,24,Female,2022-05-06_12h53.52.931,Parachute,2022.1.1,60.066553730849435,
,,,,,,,,,,,,,,,,,,,,,,,,,,,,,,,,,,,,,,,,,,,,,,,,,,,,,,,,,,,,,,,,,,,,,,,,,766.3024511999683,None,,,,,,,,
