distractor,target,set,ans1,ans2,rep_loop4.thisRepN,rep_loop4.thisTrialN,rep_loop4.thisN,rep_loop4.thisIndex,st2_prac_loop.thisRepN,st2_prac_loop.thisTrialN,st2_prac_loop.thisN,st2_prac_loop.thisIndex,st2_main_loop.thisRepN,st2_main_loop.thisTrialN,st2_main_loop.thisN,st2_main_loop.thisIndex,image_4.started,image_4.stopped,mouse_7.x,mouse_7.y,mouse_7.leftButton,mouse_7.midButton,mouse_7.rightButton,sound_2.started,sound_2.stopped,key_resp_3.keys,mouse_5.x,mouse_5.y,mouse_5.leftButton,mouse_5.midButton,mouse_5.rightButton,mouse_5.started,mouse_5.stopped,yes_text2.started,yes_text2.stopped,no_text2.started,no_text2.stopped,mouse_3.x,mouse_3.y,mouse_3.leftButton,mouse_3.midButton,mouse_3.rightButton,mouse_3.started,mouse_3.stopped,st_prac_back.started,st_prac_back.stopped,st_prac_text.started,st_prac_text.stopped,st_fix_back.started,st_fix_back.stopped,st_fix_2.started,st_fix_2.stopped,main_prac,st_ans,st_res,st_corr,st_rt,st_back.started,st_back.stopped,st2_resp.keys,st2_resp.corr,st_main_back.started,st_main_back.stopped,st_main_text.started,st_main_text.stopped,mouse_4.x,mouse_4.y,mouse_4.leftButton,mouse_4.midButton,mouse_4.rightButton,mouse_4.started,mouse_4.stopped,text_2.started,text_2.stopped,id*,age*,gender*,date,expName,psychopyVersion,frameRate,
,,,,,,,,,,,,,,,,,36.29889249999542,None,-0.4101852,0.043518517,0,0,0,,,,,,,,,,,,,,,,,,,,,,,,,,,,,,,,,,,,,,,,,,,,,,,,,,,,120,30,Female,2022-05-06_15h40.47.719,Parachute,2022.1.1,59.950313185943955,
negative,yellow,1,k,None,,,,,0,0,0,0,,,,,,,,,,,,41.691872159997004,None,None,-0.19722222,-0.3212963,0,0,0,1.0075364000513218,None,96.26012699998682,None,96.26012699998682,None,-0.11574074,-0.096296296,0,0,0,0.01327106001554057,None,97.56461619999027,None,97.56461619999027,None,99.57902679999825,None,99.57902679999825,None,prac,k,k,1,9.014909700024873,101.5905047999695,None,None,0,,,,,,,,,,,,,,120,30,Female,2022-05-06_15h40.47.719,Parachute,2022.1.1,59.950313185943955,
positive,red,2,None,None,,,,,0,1,1,1,,,,,,,,,,,,,,,,,,,,,,,,,,,,,,,,,,,,,,,,,prac,None,None,1,1.502202900010161,112.6263665999868,None,None,1,,,,,,,,,,,,,,120,30,Female,2022-05-06_15h40.47.719,Parachute,2022.1.1,59.950313185943955,
negative,blue,2,None,k,,,,,0,2,2,2,,,,,,,,,,,,,,,,,,,,,,,,,,,,,,,,,,,,,,,,,prac,None,None,1,1.497985499969218,115.12933139997767,None,None,1,,,,,,,,,,,,,,120,30,Female,2022-05-06_15h40.47.719,Parachute,2022.1.1,59.950313185943955,
positive,yellow,1,None,k,,,,,0,3,3,3,,,,,,,,,,,,,,,,,,,,,,,,,,,,,,,,,,,,,,,,,prac,None,None,1,1.4992542999680154,117.6283522999729,None,None,1,,,,,,,,,,,,,,120,30,Female,2022-05-06_15h40.47.719,Parachute,2022.1.1,59.950313185943955,
negative,blue,2,None,k,,,,,0,4,4,4,,,,,,,,,,,,,,,,,,,,,,,,,,,,,,,,,,,,,,,,,prac,None,None,1,1.49894039996434,120.1299021000159,None,None,1,,,,,,,,,,,,,,120,30,Female,2022-05-06_15h40.47.719,Parachute,2022.1.1,59.950313185943955,
negative,blue,1,None,k,,,,,0,5,5,5,,,,,,,,,,,,,,,,,,,,,,,,,,,,,,,,,,,,,,,,,prac,None,None,1,1.4996276999590918,122.62978089996614,None,None,1,,,,,,,,,,,,,,120,30,Female,2022-05-06_15h40.47.719,Parachute,2022.1.1,59.950313185943955,
negative,yellow,2,k,None,,,,,0,6,6,6,,,,,,,,,,,,,,,,,,,,,,,,,,,,,,,,,,,,,,,,,prac,k,k,1,0.8203266999917105,125.13170759996865,None,None,0,,,,,,,,,,,,,,120,30,Female,2022-05-06_15h40.47.719,Parachute,2022.1.1,59.950313185943955,
negative,red,1,None,None,,,,,0,7,7,7,,,,,,,,,,,,,,,,,,,,,,,,,,,,,,,,,,,,,,,,,prac,None,None,1,1.5084910999867134,126.95043169998098,None,None,1,,,,,,,,,,,,,,120,30,Female,2022-05-06_15h40.47.719,Parachute,2022.1.1,59.950313185943955,
positive,yellow,2,None,k,,,,,0,8,8,8,,,,,,,,,,,,,,,,,,,,,,,,,,,,,,,,,,,,,,,,,prac,None,None,1,1.4988322000135668,129.46289309998974,None,None,1,,,,,,,,,,,,,,120,30,Female,2022-05-06_15h40.47.719,Parachute,2022.1.1,59.950313185943955,
negative,yellow,1,k,None,,,,,0,9,9,9,,,,,,,,,,,,,,,,,,,,,,,,,,,,,,,,,,,,,,,,,prac,k,k,1,1.252759099996183,131.96279219997814,None,None,0,,,,,,,,,,,,,,120,30,Female,2022-05-06_15h40.47.719,Parachute,2022.1.1,59.950313185943955,
positive,yellow,2,None,k,,,,,0,10,10,10,,,,,,,,,,,,,,,,,,,,,,,,,,,,,,,,,,,,,,,,,prac,None,None,1,1.4947932999930345,134.21542750002118,None,None,1,,,,,,,,,,,,,,120,30,Female,2022-05-06_15h40.47.719,Parachute,2022.1.1,59.950313185943955,
negative,yellow,2,k,None,,,,,0,11,11,11,,,,,,,,,,,,,,,,,,,,,,,,,,,,,,,,,,,,,,,,,prac,k,k,1,2.9537577999872155,136.71373469999526,None,None,0,,,,,,,,,,,,,,120,30,Female,2022-05-06_15h40.47.719,Parachute,2022.1.1,59.950313185943955,
negative,red,2,None,None,,,,,0,12,12,12,,,,,,,,,,,,,,,,,,,,,,,,,,,,,,,,,,,,,,,,,prac,None,None,1,1.5021579000167549,141.67691530002048,None,None,1,,,,,,,,,,,,,,120,30,Female,2022-05-06_15h40.47.719,Parachute,2022.1.1,59.950313185943955,
positive,red,1,None,None,,,,,0,13,13,13,,,,,,,,,,,,,,,,,,,,,,,,,,,,,,,,,,,,,,,,,prac,None,None,1,1.497800700017251,144.180764299992,None,None,1,,,,,,,,,,,,,,120,30,Female,2022-05-06_15h40.47.719,Parachute,2022.1.1,59.950313185943955,
positive,blue,2,k,None,,,,,0,14,14,14,,,,,,,,,,,,,,,,,,,,,,,,,,,,,,,,,,,,,,,,,prac,k,k,1,0.9205939000239596,146.67999679996865,None,None,0,,,,,,,,,,,,,,120,30,Female,2022-05-06_15h40.47.719,Parachute,2022.1.1,59.950313185943955,
positive,blue,1,k,None,,,,,0,15,15,15,,,,,,,,,,,,,,,,,,,,,,,,,,,,,,,,,,,,,,,,,prac,k,k,1,1.5406215999973938,148.59917669999413,None,None,0,,,,,,,,,,,,,,120,30,Female,2022-05-06_15h40.47.719,Parachute,2022.1.1,59.950313185943955,
negative,blue,1,None,k,,,,,0,16,16,16,,,,,,,,,,,,,,,,,,,,,,,,,,,,,,,,,,,,,,,,,prac,None,None,1,1.5024169000098482,152.144032399985,None,None,1,,,,,,,,,,,,,,120,30,Female,2022-05-06_15h40.47.719,Parachute,2022.1.1,59.950313185943955,
positive,blue,2,k,None,,,,,0,17,17,17,,,,,,,,,,,,,,,,,,,,,,,,,,,,,,,,,,,,,,,,,prac,k,k,1,0.8181777999852784,154.64743060001638,None,None,0,,,,,,,,,,,,,,120,30,Female,2022-05-06_15h40.47.719,Parachute,2022.1.1,59.950313185943955,
positive,blue,1,k,None,,,,,0,18,18,18,,,,,,,,,,,,,,,,,,,,,,,,,,,,,,,,,,,,,,,,,prac,k,k,1,0.6505171000026166,156.47448319999967,None,None,0,,,,,,,,,,,,,,120,30,Female,2022-05-06_15h40.47.719,Parachute,2022.1.1,59.950313185943955,
positive,yellow,1,None,k,,,,,0,19,19,19,,,,,,,,,,,,,,,,,,,,,,,,,,,,,,,,,,,,,,,,,prac,None,None,1,1.4928406999679282,158.11722600000212,None,None,1,,,,,,,,,,,,,,120,30,Female,2022-05-06_15h40.47.719,Parachute,2022.1.1,59.950313185943955,
negative,yellow,1,k,None,,,,,1,0,20,0,,,,,,,,,,,,,,,,,,,,,,,,,,,,,,,,,,,,,,,,,prac,k,k,1,0.7627906000125222,160.61289789999137,None,None,0,,,,,,,,,,,,,,120,30,Female,2022-05-06_15h40.47.719,Parachute,2022.1.1,59.950313185943955,
positive,red,2,None,None,,,,,1,1,21,1,,,,,,,,,,,,,,,,,,,,,,,,,,,,,,,,,,,,,,,,,prac,None,None,1,1.5015624999650754,162.37775009998586,None,None,1,,,,,,,,,,,,,,120,30,Female,2022-05-06_15h40.47.719,Parachute,2022.1.1,59.950313185943955,
negative,blue,2,None,k,,,,,1,2,22,2,,,,,,,,,,,,,,,,,,,,,,,,,,,,,,,,,,,,,,,,,prac,None,None,1,1.498355099989567,164.88086699997075,None,None,1,,,,,,,,,,,,,,120,30,Female,2022-05-06_15h40.47.719,Parachute,2022.1.1,59.950313185943955,
positive,yellow,1,None,k,,,,,1,3,23,3,,,,,,,,,,,,,,,,,,,,,,,,,,,,,,,,,,,,,,,,,prac,None,None,1,1.498732200008817,167.38054769998416,None,None,1,,,,,,,,,,,,,,120,30,Female,2022-05-06_15h40.47.719,Parachute,2022.1.1,59.950313185943955,
negative,blue,2,None,k,,,,,1,4,24,4,,,,,,,,,,,,,,,,,,,,,,,,,,,,,,,,,,,,,,,,,prac,None,None,1,1.4989174999645911,169.8798836999922,None,None,1,,,,,,,,,,,,,,120,30,Female,2022-05-06_15h40.47.719,Parachute,2022.1.1,59.950313185943955,
negative,blue,1,None,k,,,,,1,5,25,5,,,,,,,,,,,,,,,,,,,,,,,,,,,,,,,,,,,,,,,,,prac,None,None,1,1.4983437999617308,172.38024029997177,None,None,1,,,,,,,,,,,,,,120,30,Female,2022-05-06_15h40.47.719,Parachute,2022.1.1,59.950313185943955,
negative,yellow,2,k,None,,,,,1,6,26,6,,,,,,,,,,,,,,,,,,,,,,,,,,,,,,,,,,,,,,,,,prac,k,k,1,0.8377071000286378,174.88020499999402,None,None,0,,,,,,,,,,,,,,120,30,Female,2022-05-06_15h40.47.719,Parachute,2022.1.1,59.950313185943955,
negative,red,1,None,None,,,,,1,7,27,7,,,,,,,,,,,,,,,,,,,,,,,,,,,,,,,,,,,,,,,,,prac,None,None,1,1.4930349999922328,176.71673280000687,None,None,1,,,,,,,,,,,,,,120,30,Female,2022-05-06_15h40.47.719,Parachute,2022.1.1,59.950313185943955,
positive,yellow,2,None,k,,,,,1,8,28,8,,,,,,,,,,,,,,,,,,,,,,,,,,,,,,,,,,,,,,,,,prac,None,None,1,1.4988970999838784,179.21370359999128,None,None,1,,,,,,,,,,,,,,120,30,Female,2022-05-06_15h40.47.719,Parachute,2022.1.1,59.950313185943955,
negative,yellow,1,k,None,,,,,1,9,29,9,,,,,,,,,,,,,,,,,,,,,,,,,,,,,,,,,,,,,,,,,prac,k,k,1,-0.7323373000253923,181.71360309998272,None,None,0,,,,,,,,,,,,,,120,30,Female,2022-05-06_15h40.47.719,Parachute,2022.1.1,59.950313185943955,
positive,yellow,2,None,k,,,,,1,10,30,10,,,,,,,,,,,,,,,,,,,,,,,,,,,,,,,,,,,,,,,,,prac,None,None,1,1.5019492999999784,184.99453819997143,None,None,1,,,,,,,,,,,,,,120,30,Female,2022-05-06_15h40.47.719,Parachute,2022.1.1,59.950313185943955,
negative,yellow,2,k,None,,,,,1,11,31,11,,,,,,,,,,,,,,,,,,,,,,,,,,,,,,,,,,,,,,,,,prac,k,k,1,1.0869594999821857,187.49763769999845,None,None,0,,,,,,,,,,,,,,120,30,Female,2022-05-06_15h40.47.719,Parachute,2022.1.1,59.950313185943955,
negative,red,2,None,None,,,,,1,12,32,12,,,,,,,,,,,,,,,,,,,,,,,,,,,,,,,,,,,,,,,,,prac,None,None,1,1.4932060000137426,189.5835871999734,None,None,1,,,,,,,,,,,,,,120,30,Female,2022-05-06_15h40.47.719,Parachute,2022.1.1,59.950313185943955,
positive,red,1,None,None,,,,,1,13,33,13,,,,,,,,,,,,,,,,,,,,,,,,,,,,,,,,,,,,,,,,,prac,None,None,1,1.4988900999887846,192.08081969997147,None,None,1,,,,,,,,,,,,,,120,30,Female,2022-05-06_15h40.47.719,Parachute,2022.1.1,59.950313185943955,
positive,blue,2,k,None,,,,,1,14,34,14,,,,,,,,,,,,,,,,,,,,,,,,,,,,,,,,,,,,,,,,,prac,k,k,1,0.9370971000171266,194.58092059998307,None,None,0,,,,,,,,,,,,,,120,30,Female,2022-05-06_15h40.47.719,Parachute,2022.1.1,59.950313185943955,
positive,blue,1,k,None,,,,,1,15,35,15,,,,,,,,,,,,,,,,,,,,,,,,,,,,,,,,,,,,,,,,,prac,k,k,1,0.8130851000314578,196.5171043999726,None,None,0,,,,,,,,,,,,,,120,30,Female,2022-05-06_15h40.47.719,Parachute,2022.1.1,59.950313185943955,
negative,blue,1,None,k,,,,,1,16,36,16,,,,,,,,,,,,,,,,,,,,,,,,,,,,,,,,,,,,,,,,,prac,None,None,1,1.4954398999689147,198.33410669997102,None,None,1,,,,,,,,,,,,,,120,30,Female,2022-05-06_15h40.47.719,Parachute,2022.1.1,59.950313185943955,
positive,blue,2,k,None,,,,,1,17,37,17,,,,,,,,,,,,,,,,,,,,,,,,,,,,,,,,,,,,,,,,,prac,k,k,1,1.9691230000462383,200.8302030999912,None,None,0,,,,,,,,,,,,,,120,30,Female,2022-05-06_15h40.47.719,Parachute,2022.1.1,59.950313185943955,
positive,blue,1,k,None,,,,,1,18,38,18,,,,,,,,,,,,,,,,,,,,,,,,,,,,,,,,,,,,,,,,,prac,k,k,1,0.8242328999913298,204.81200859998353,None,None,0,,,,,,,,,,,,,,120,30,Female,2022-05-06_15h40.47.719,Parachute,2022.1.1,59.950313185943955,
positive,yellow,1,None,k,,,,,1,19,39,19,,,,,,,,,,,,,,,,,,,,,,,,,,,,,,,,,,,,,,,,,prac,None,None,1,1.4923265999532305,206.63448890001746,None,None,1,,,,,,,,,,,,,,120,30,Female,2022-05-06_15h40.47.719,Parachute,2022.1.1,59.950313185943955,
,,,,,,,,,,,,,,,,,,,,,,,,,,,,,,,,,,,,,,,,,,,,,,,,,,,,,,,,,,,,,,209.15103389997967,None,209.15103389997967,None,-0.14907408,-0.096296296,0,0,0,0.012592060025781393,None,,,120,30,Female,2022-05-06_15h40.47.719,Parachute,2022.1.1,59.950313185943955,
negative,yellow,2,k,None,,,,,,,,,0,0,0,0,,,,,,,,,,,,,,,,,,,,,,,,,,,,,,,,,210.66348749998724,None,210.66348749998724,None,main,k,k,1,3.053291700023692,212.71139379998203,None,None,0,,,,,,,,,,,,,,120,30,Female,2022-05-06_15h40.47.719,Parachute,2022.1.1,59.950313185943955,
positive,red,1,None,None,,,,,,,,,0,1,1,1,,,,,,,,,,,,,,,,,,,,,,,,,,,,,,,,,,,,,main,None,None,1,1.5016257000388578,217.77883490000386,None,None,1,,,,,,,,,,,,,,120,30,Female,2022-05-06_15h40.47.719,Parachute,2022.1.1,59.950313185943955,
positive,blue,2,k,None,,,,,,,,,0,2,2,2,,,,,,,,,,,,,,,,,,,,,,,,,,,,,,,,,,,,,main,k,k,1,1.0034117000177503,220.281872499967,None,None,0,,,,,,,,,,,,,,120,30,Female,2022-05-06_15h40.47.719,Parachute,2022.1.1,59.950313185943955,
positive,blue,1,k,None,,,,,,,,,0,3,3,3,,,,,,,,,,,,,,,,,,,,,,,,,,,,,,,,,,,,,main,k,k,1,0.7986127000185661,222.2845422999817,None,None,0,,,,,,,,,,,,,,120,30,Female,2022-05-06_15h40.47.719,Parachute,2022.1.1,59.950313185943955,
negative,yellow,2,k,None,,,,,,,,,0,4,4,4,,,,,,,,,,,,,,,,,,,,,,,,,,,,,,,,,,,,,main,k,k,1,0.6984463999979198,224.0843012999976,None,None,0,,,,,,,,,,,,,,120,30,Female,2022-05-06_15h40.47.719,Parachute,2022.1.1,59.950313185943955,
positive,yellow,2,None,k,,,,,,,,,0,5,5,5,,,,,,,,,,,,,,,,,,,,,,,,,,,,,,,,,,,,,main,None,None,1,1.49353420000989,225.78394920000574,None,None,1,,,,,,,,,,,,,,120,30,Female,2022-05-06_15h40.47.719,Parachute,2022.1.1,59.950313185943955,
negative,blue,2,None,k,,,,,,,,,0,6,6,6,,,,,,,,,,,,,,,,,,,,,,,,,,,,,,,,,,,,,main,None,None,1,1.4983726000064053,228.281418700004,None,None,1,,,,,,,,,,,,,,120,30,Female,2022-05-06_15h40.47.719,Parachute,2022.1.1,59.950313185943955,
positive,red,2,None,None,,,,,,,,,0,7,7,7,,,,,,,,,,,,,,,,,,,,,,,,,,,,,,,,,,,,,main,None,None,1,1.4988738999818452,230.7808033999754,None,None,1,,,,,,,,,,,,,,120,30,Female,2022-05-06_15h40.47.719,Parachute,2022.1.1,59.950313185943955,
positive,yellow,1,None,k,,,,,,,,,0,8,8,8,,,,,,,,,,,,,,,,,,,,,,,,,,,,,,,,,,,,,main,None,None,1,1.4990658999886364,233.2814525999711,None,None,1,,,,,,,,,,,,,,120,30,Female,2022-05-06_15h40.47.719,Parachute,2022.1.1,59.950313185943955,
negative,red,1,None,None,,,,,,,,,0,9,9,9,,,,,,,,,,,,,,,,,,,,,,,,,,,,,,,,,,,,,main,None,None,1,1.4985433999681845,235.78154359996552,None,None,1,,,,,,,,,,,,,,120,30,Female,2022-05-06_15h40.47.719,Parachute,2022.1.1,59.950313185943955,
positive,yellow,1,None,k,,,,,,,,,0,10,10,10,,,,,,,,,,,,,,,,,,,,,,,,,,,,,,,,,,,,,main,None,None,1,1.4986273999675177,238.28160839999327,None,None,1,,,,,,,,,,,,,,120,30,Female,2022-05-06_15h40.47.719,Parachute,2022.1.1,59.950313185943955,
negative,yellow,1,k,None,,,,,,,,,0,11,11,11,,,,,,,,,,,,,,,,,,,,,,,,,,,,,,,,,,,,,main,k,k,1,0.7540085000218824,240.78159869997762,None,None,0,,,,,,,,,,,,,,120,30,Female,2022-05-06_15h40.47.719,Parachute,2022.1.1,59.950313185943955,
negative,yellow,1,k,None,,,,,,,,,0,12,12,12,,,,,,,,,,,,,,,,,,,,,,,,,,,,,,,,,,,,,main,k,k,1,1.3829741000081412,242.53471799998078,None,None,0,,,,,,,,,,,,,,120,30,Female,2022-05-06_15h40.47.719,Parachute,2022.1.1,59.950313185943955,
negative,red,2,None,None,,,,,,,,,0,13,13,13,,,,,,,,,,,,,,,,,,,,,,,,,,,,,,,,,,,,,main,None,None,1,1.4925145000452176,244.91927939996822,None,None,1,,,,,,,,,,,,,,120,30,Female,2022-05-06_15h40.47.719,Parachute,2022.1.1,59.950313185943955,
positive,yellow,2,None,k,,,,,,,,,0,14,14,14,,,,,,,,,,,,,,,,,,,,,,,,,,,,,,,,,,,,,main,None,None,1,1.4989247000194155,247.41562719998183,None,None,1,,,,,,,,,,,,,,120,30,Female,2022-05-06_15h40.47.719,Parachute,2022.1.1,59.950313185943955,
positive,blue,1,k,None,,,,,,,,,0,15,15,15,,,,,,,,,,,,,,,,,,,,,,,,,,,,,,,,,,,,,main,k,k,1,0.9201611999887973,249.91567830002168,None,None,0,,,,,,,,,,,,,,120,30,Female,2022-05-06_15h40.47.719,Parachute,2022.1.1,59.950313185943955,
negative,blue,1,None,k,,,,,,,,,0,16,16,16,,,,,,,,,,,,,,,,,,,,,,,,,,,,,,,,,,,,,main,None,None,1,1.4936807000194676,251.83452139998553,None,None,1,,,,,,,,,,,,,,120,30,Female,2022-05-06_15h40.47.719,Parachute,2022.1.1,59.950313185943955,
positive,blue,2,k,None,,,,,,,,,0,17,17,17,,,,,,,,,,,,,,,,,,,,,,,,,,,,,,,,,,,,,main,k,k,1,0.9010628000251018,254.33266119996551,None,None,0,,,,,,,,,,,,,,120,30,Female,2022-05-06_15h40.47.719,Parachute,2022.1.1,59.950313185943955,
negative,blue,2,None,k,,,,,,,,,0,18,18,18,,,,,,,,,,,,,,,,,,,,,,,,,,,,,,,,,,,,,main,None,None,1,1.4962709000101313,256.23526360001415,None,None,1,,,,,,,,,,,,,,120,30,Female,2022-05-06_15h40.47.719,Parachute,2022.1.1,59.950313185943955,
negative,blue,1,None,k,,,,,,,,,0,19,19,19,,,,,,,,,,,,,,,,,,,,,,,,,,,,,,,,,,,,,main,None,None,1,1.4983036000048742,258.7327189000207,None,None,1,,,,,,,,,,,,,,120,30,Female,2022-05-06_15h40.47.719,Parachute,2022.1.1,59.950313185943955,
negative,blue,1,None,k,,,,,,,,,0,20,20,20,,,,,,,,,,,,,,,,,,,,,,,,,,,,,,,,,,,,,main,None,None,1,1.4984551999950781,261.2321600000141,None,None,1,,,,,,,,,,,,,,120,30,Female,2022-05-06_15h40.47.719,Parachute,2022.1.1,59.950313185943955,
negative,blue,2,None,k,,,,,,,,,0,21,21,21,,,,,,,,,,,,,,,,,,,,,,,,,,,,,,,,,,,,,main,None,None,1,1.499062899965793,263.7327923999983,None,None,1,,,,,,,,,,,,,,120,30,Female,2022-05-06_15h40.47.719,Parachute,2022.1.1,59.950313185943955,
negative,red,1,None,None,,,,,,,,,0,22,22,22,,,,,,,,,,,,,,,,,,,,,,,,,,,,,,,,,,,,,main,None,None,1,1.4982853999827057,266.23255600000266,None,None,1,,,,,,,,,,,,,,120,30,Female,2022-05-06_15h40.47.719,Parachute,2022.1.1,59.950313185943955,
positive,red,2,None,None,,,,,,,,,0,23,23,23,,,,,,,,,,,,,,,,,,,,,,,,,,,,,,,,,,,,,main,None,None,1,1.498494400002528,268.73223359999247,None,None,1,,,,,,,,,,,,,,120,30,Female,2022-05-06_15h40.47.719,Parachute,2022.1.1,59.950313185943955,
negative,red,2,None,None,,,,,,,,,0,24,24,24,,,,,,,,,,,,,,,,,,,,,,,,,,,,,,,,,,,,,main,None,None,1,1.4987742999801412,271.2321137000108,None,None,1,,,,,,,,,,,,,,120,30,Female,2022-05-06_15h40.47.719,Parachute,2022.1.1,59.950313185943955,
positive,blue,2,k,None,,,,,,,,,0,25,25,25,,,,,,,,,,,,,,,,,,,,,,,,,,,,,,,,,,,,,main,k,k,1,1.2375952000147663,273.73252319998574,None,None,0,,,,,,,,,,,,,,120,30,Female,2022-05-06_15h40.47.719,Parachute,2022.1.1,59.950313185943955,
negative,yellow,1,k,None,,,,,,,,,0,26,26,26,,,,,,,,,,,,,,,,,,,,,,,,,,,,,,,,,,,,,main,k,k,1,0.8321487000212073,275.9683900999953,None,None,0,,,,,,,,,,,,,,120,30,Female,2022-05-06_15h40.47.719,Parachute,2022.1.1,59.950313185943955,
positive,blue,2,k,None,,,,,,,,,0,27,27,27,,,,,,,,,,,,,,,,,,,,,,,,,,,,,,,,,,,,,main,k,k,1,0.7833572000381537,277.8023997999844,None,None,0,,,,,,,,,,,,,,120,30,Female,2022-05-06_15h40.47.719,Parachute,2022.1.1,59.950313185943955,
negative,blue,2,None,k,,,,,,,,,0,28,28,28,,,,,,,,,,,,,,,,,,,,,,,,,,,,,,,,,,,,,main,None,None,1,1.5086341999704018,279.5869307999965,None,None,1,,,,,,,,,,,,,,120,30,Female,2022-05-06_15h40.47.719,Parachute,2022.1.1,59.950313185943955,
positive,red,1,None,None,,,,,,,,,0,29,29,29,,,,,,,,,,,,,,,,,,,,,,,,,,,,,,,,,,,,,main,None,None,1,1.4987470000050962,282.0994330999674,None,None,1,,,,,,,,,,,,,,120,30,Female,2022-05-06_15h40.47.719,Parachute,2022.1.1,59.950313185943955,
positive,blue,1,k,None,,,,,,,,,0,30,30,30,,,,,,,,,,,,,,,,,,,,,,,,,,,,,,,,,,,,,main,k,k,1,0.7619147999794222,284.59957510000095,None,None,0,,,,,,,,,,,,,,120,30,Female,2022-05-06_15h40.47.719,Parachute,2022.1.1,59.950313185943955,
positive,yellow,1,None,k,,,,,,,,,0,31,31,31,,,,,,,,,,,,,,,,,,,,,,,,,,,,,,,,,,,,,main,None,None,1,1.5013165000127628,286.3636609999812,None,None,1,,,,,,,,,,,,,,120,30,Female,2022-05-06_15h40.47.719,Parachute,2022.1.1,59.950313185943955,
negative,yellow,2,k,None,,,,,,,,,0,32,32,32,,,,,,,,,,,,,,,,,,,,,,,,,,,,,,,,,,,,,main,k,k,1,1.3377275000093505,288.86529499996686,None,None,0,,,,,,,,,,,,,,120,30,Female,2022-05-06_15h40.47.719,Parachute,2022.1.1,59.950313185943955,
negative,blue,1,None,k,,,,,,,,,0,33,33,33,,,,,,,,,,,,,,,,,,,,,,,,,,,,,,,,,,,,,main,None,None,1,1.493707399989944,291.20243980002124,None,None,1,,,,,,,,,,,,,,120,30,Female,2022-05-06_15h40.47.719,Parachute,2022.1.1,59.950313185943955,
positive,blue,1,k,None,,,,,,,,,0,34,34,34,,,,,,,,,,,,,,,,,,,,,,,,,,,,,,,,,,,,,main,k,k,1,0.9040210000239313,293.6997005000012,None,None,0,,,,,,,,,,,,,,120,30,Female,2022-05-06_15h40.47.719,Parachute,2022.1.1,59.950313185943955,
negative,yellow,1,k,None,,,,,,,,,0,35,35,35,,,,,,,,,,,,,,,,,,,,,,,,,,,,,,,,,,,,,main,k,k,1,0.7799345999956131,295.6028447999852,None,None,0,,,,,,,,,,,,,,120,30,Female,2022-05-06_15h40.47.719,Parachute,2022.1.1,59.950313185943955,
positive,yellow,2,None,k,,,,,,,,,0,36,36,36,,,,,,,,,,,,,,,,,,,,,,,,,,,,,,,,,,,,,main,None,None,1,1.4952175000216812,297.3958477000124,None,None,1,,,,,,,,,,,,,,120,30,Female,2022-05-06_15h40.47.719,Parachute,2022.1.1,59.950313185943955,
positive,yellow,2,None,k,,,,,,,,,0,37,37,37,,,,,,,,,,,,,,,,,,,,,,,,,,,,,,,,,,,,,main,None,None,1,1.498616700002458,299.883735099982,None,None,1,,,,,,,,,,,,,,120,30,Female,2022-05-06_15h40.47.719,Parachute,2022.1.1,59.950313185943955,
negative,yellow,2,k,None,,,,,,,,,0,38,38,38,,,,,,,,,,,,,,,,,,,,,,,,,,,,,,,,,,,,,main,k,k,1,1.4371898000244983,302.3829894000082,None,None,0,,,,,,,,,,,,,,120,30,Female,2022-05-06_15h40.47.719,Parachute,2022.1.1,59.950313185943955,
positive,yellow,1,None,k,,,,,,,,,0,39,39,39,,,,,,,,,,,,,,,,,,,,,,,,,,,,,,,,,,,,,main,None,None,1,1.493583099974785,304.81919339997694,None,None,1,,,,,,,,,,,,,,120,30,Female,2022-05-06_15h40.47.719,Parachute,2022.1.1,59.950313185943955,
negative,yellow,2,k,None,,,,,,,,,0,40,40,40,,,,,,,,,,,,,,,,,,,,,,,,,,,,,,,,,,,,,main,k,k,1,0.7523950999602675,307.31711920001544,None,None,0,,,,,,,,,,,,,,120,30,Female,2022-05-06_15h40.47.719,Parachute,2022.1.1,59.950313185943955,
positive,blue,2,k,None,,,,,,,,,0,41,41,41,,,,,,,,,,,,,,,,,,,,,,,,,,,,,,,,,,,,,main,k,k,1,0.7837900000158697,309.0689745999989,None,None,0,,,,,,,,,,,,,,120,30,Female,2022-05-06_15h40.47.719,Parachute,2022.1.1,59.950313185943955,
positive,blue,2,k,None,,,,,,,,,0,42,42,42,,,,,,,,,,,,,,,,,,,,,,,,,,,,,,,,,,,,,main,k,k,1,0.8644274000544101,310.8534765999648,None,None,0,,,,,,,,,,,,,,120,30,Female,2022-05-06_15h40.47.719,Parachute,2022.1.1,59.950313185943955,
negative,blue,2,None,k,,,,,,,,,0,43,43,43,,,,,,,,,,,,,,,,,,,,,,,,,,,,,,,,,,,,,main,None,None,1,1.4934932999894954,312.7193191999686,None,None,1,,,,,,,,,,,,,,120,30,Female,2022-05-06_15h40.47.719,Parachute,2022.1.1,59.950313185943955,
negative,red,1,None,None,,,,,,,,,0,44,44,44,,,,,,,,,,,,,,,,,,,,,,,,,,,,,,,,,,,,,main,None,None,1,1.4986031000153162,315.2165408000001,None,None,1,,,,,,,,,,,,,,120,30,Female,2022-05-06_15h40.47.719,Parachute,2022.1.1,59.950313185943955,
negative,yellow,1,k,None,,,,,,,,,0,45,45,45,,,,,,,,,,,,,,,,,,,,,,,,,,,,,,,,,,,,,main,k,k,1,1.3519858000217937,317.71719180000946,None,None,0,,,,,,,,,,,,,,120,30,Female,2022-05-06_15h40.47.719,Parachute,2022.1.1,59.950313185943955,
negative,yellow,1,k,None,,,,,,,,,0,46,46,46,,,,,,,,,,,,,,,,,,,,,,,,,,,,,,,,,,,,,main,k,k,1,0.8169316999847069,320.0699595999904,None,None,0,,,,,,,,,,,,,,120,30,Female,2022-05-06_15h40.47.719,Parachute,2022.1.1,59.950313185943955,
positive,red,1,None,None,,,,,,,,,0,47,47,47,,,,,,,,,,,,,,,,,,,,,,,,,,,,,,,,,,,,,main,None,None,1,1.4934964000131004,321.8861794999684,None,None,1,,,,,,,,,,,,,,120,30,Female,2022-05-06_15h40.47.719,Parachute,2022.1.1,59.950313185943955,
positive,yellow,1,None,k,,,,,,,,,0,48,48,48,,,,,,,,,,,,,,,,,,,,,,,,,,,,,,,,,,,,,main,None,None,1,1.498901000013575,324.3831301999744,None,None,1,,,,,,,,,,,,,,120,30,Female,2022-05-06_15h40.47.719,Parachute,2022.1.1,59.950313185943955,
negative,blue,1,None,k,,,,,,,,,0,49,49,49,,,,,,,,,,,,,,,,,,,,,,,,,,,,,,,,,,,,,main,None,None,1,1.4990360999945551,326.8837173000211,None,None,1,,,,,,,,,,,,,,120,30,Female,2022-05-06_15h40.47.719,Parachute,2022.1.1,59.950313185943955,
positive,yellow,2,None,k,,,,,,,,,0,50,50,50,,,,,,,,,,,,,,,,,,,,,,,,,,,,,,,,,,,,,main,None,None,1,1.4988167000119574,329.3842874999973,None,None,1,,,,,,,,,,,,,,120,30,Female,2022-05-06_15h40.47.719,Parachute,2022.1.1,59.950313185943955,
negative,blue,1,None,k,,,,,,,,,0,51,51,51,,,,,,,,,,,,,,,,,,,,,,,,,,,,,,,,,,,,,main,None,None,1,1.4980968000018038,331.8840815000003,None,None,1,,,,,,,,,,,,,,120,30,Female,2022-05-06_15h40.47.719,Parachute,2022.1.1,59.950313185943955,
positive,red,2,None,None,,,,,,,,,0,52,52,52,,,,,,,,,,,,,,,,,,,,,,,,,,,,,,,,,,,,,main,None,None,1,1.4989100000238977,334.38384520000545,None,None,1,,,,,,,,,,,,,,120,30,Female,2022-05-06_15h40.47.719,Parachute,2022.1.1,59.950313185943955,
positive,yellow,2,None,k,,,,,,,,,0,53,53,53,,,,,,,,,,,,,,,,,,,,,,,,,,,,,,,,,,,,,main,None,None,1,1.4989157000090927,336.88373990001855,None,None,1,,,,,,,,,,,,,,120,30,Female,2022-05-06_15h40.47.719,Parachute,2022.1.1,59.950313185943955,
negative,red,2,None,None,,,,,,,,,0,54,54,54,,,,,,,,,,,,,,,,,,,,,,,,,,,,,,,,,,,,,main,None,None,1,1.4987498000264168,339.3840638999827,None,None,1,,,,,,,,,,,,,,120,30,Female,2022-05-06_15h40.47.719,Parachute,2022.1.1,59.950313185943955,
positive,yellow,1,None,k,,,,,,,,,0,55,55,55,,,,,,,,,,,,,,,,,,,,,,,,,,,,,,,,,,,,,main,None,None,1,1.4987414000206627,341.8842489999952,None,None,1,,,,,,,,,,,,,,120,30,Female,2022-05-06_15h40.47.719,Parachute,2022.1.1,59.950313185943955,
negative,blue,2,None,k,,,,,,,,,0,56,56,56,,,,,,,,,,,,,,,,,,,,,,,,,,,,,,,,,,,,,main,None,None,1,1.4983477999921888,344.38455979997525,None,None,1,,,,,,,,,,,,,,120,30,Female,2022-05-06_15h40.47.719,Parachute,2022.1.1,59.950313185943955,
positive,blue,1,k,None,,,,,,,,,0,57,57,57,,,,,,,,,,,,,,,,,,,,,,,,,,,,,,,,,,,,,main,k,k,1,0.7448899999726564,346.8842210000148,None,None,0,,,,,,,,,,,,,,120,30,Female,2022-05-06_15h40.47.719,Parachute,2022.1.1,59.950313185943955,
positive,blue,1,k,None,,,,,,,,,0,58,58,58,,,,,,,,,,,,,,,,,,,,,,,,,,,,,,,,,,,,,main,k,k,1,0.6722792999935336,348.6316403999808,None,None,0,,,,,,,,,,,,,,120,30,Female,2022-05-06_15h40.47.719,Parachute,2022.1.1,59.950313185943955,
negative,yellow,2,k,None,,,,,,,,,0,59,59,59,,,,,,,,,,,,,,,,,,,,,,,,,,,,,,,,,,,,,main,k,k,1,0.9339384000049904,350.3119592000148,None,None,0,,,,,,,,,,,,,,120,30,Female,2022-05-06_15h40.47.719,Parachute,2022.1.1,59.950313185943955,
positive,red,2,None,None,,,,,,,,,0,60,60,60,,,,,,,,,,,,,,,,,,,,,,,,,,,,,,,,,,,,,main,None,None,1,1.4932877999963239,352.23697399999946,None,None,1,,,,,,,,,,,,,,120,30,Female,2022-05-06_15h40.47.719,Parachute,2022.1.1,59.950313185943955,
negative,yellow,1,k,None,,,,,,,,,0,61,61,61,,,,,,,,,,,,,,,,,,,,,,,,,,,,,,,,,,,,,main,k,k,1,0.8871808999683708,354.73382919997675,None,None,0,,,,,,,,,,,,,,120,30,Female,2022-05-06_15h40.47.719,Parachute,2022.1.1,59.950313185943955,
negative,red,1,None,None,,,,,,,,,0,62,62,62,,,,,,,,,,,,,,,,,,,,,,,,,,,,,,,,,,,,,main,None,None,1,1.4937468999996781,356.62064969999483,None,None,1,,,,,,,,,,,,,,120,30,Female,2022-05-06_15h40.47.719,Parachute,2022.1.1,59.950313185943955,
negative,blue,1,None,k,,,,,,,,,0,63,63,63,,,,,,,,,,,,,,,,,,,,,,,,,,,,,,,,,,,,,main,None,None,1,1.4991594000020996,359.11780960002216,None,None,1,,,,,,,,,,,,,,120,30,Female,2022-05-06_15h40.47.719,Parachute,2022.1.1,59.950313185943955,
positive,blue,2,k,None,,,,,,,,,0,64,64,64,,,,,,,,,,,,,,,,,,,,,,,,,,,,,,,,,,,,,main,k,k,1,0.7190157999866642,361.61826730001485,None,None,0,,,,,,,,,,,,,,120,30,Female,2022-05-06_15h40.47.719,Parachute,2022.1.1,59.950313185943955,
negative,yellow,2,k,None,,,,,,,,,0,65,65,65,,,,,,,,,,,,,,,,,,,,,,,,,,,,,,,,,,,,,main,k,k,1,0.8499881000025198,363.3371920000063,None,None,0,,,,,,,,,,,,,,120,30,Female,2022-05-06_15h40.47.719,Parachute,2022.1.1,59.950313185943955,
positive,yellow,2,None,k,,,,,,,,,0,66,66,66,,,,,,,,,,,,,,,,,,,,,,,,,,,,,,,,,,,,,main,None,None,1,1.4935705999960192,365.1872560000047,None,None,1,,,,,,,,,,,,,,120,30,Female,2022-05-06_15h40.47.719,Parachute,2022.1.1,59.950313185943955,
positive,yellow,2,None,k,,,,,,,,,0,67,67,67,,,,,,,,,,,,,,,,,,,,,,,,,,,,,,,,,,,,,main,None,None,1,1.4984285000246018,367.6850793000194,None,None,1,,,,,,,,,,,,,,120,30,Female,2022-05-06_15h40.47.719,Parachute,2022.1.1,59.950313185943955,
positive,red,1,None,None,,,,,,,,,0,68,68,68,,,,,,,,,,,,,,,,,,,,,,,,,,,,,,,,,,,,,main,None,None,1,1.4991987000103109,370.1852908000001,None,None,1,,,,,,,,,,,,,,120,30,Female,2022-05-06_15h40.47.719,Parachute,2022.1.1,59.950313185943955,
positive,yellow,1,None,k,,,,,,,,,0,69,69,69,,,,,,,,,,,,,,,,,,,,,,,,,,,,,,,,,,,,,main,None,None,1,1.4976163999526761,372.6856037999969,None,None,1,,,,,,,,,,,,,,120,30,Female,2022-05-06_15h40.47.719,Parachute,2022.1.1,59.950313185943955,
negative,yellow,2,k,None,,,,,,,,,0,70,70,70,,,,,,,,,,,,,,,,,,,,,,,,,,,,,,,,,,,,,main,k,k,1,1.305344300053548,375.18388570001116,None,None,0,,,,,,,,,,,,,,120,30,Female,2022-05-06_15h40.47.719,Parachute,2022.1.1,59.950313185943955,
positive,yellow,1,None,k,,,,,,,,,0,71,71,71,,,,,,,,,,,,,,,,,,,,,,,,,,,,,,,,,,,,,main,None,None,1,1.492305999970995,377.48915739997756,None,None,1,,,,,,,,,,,,,,120,30,Female,2022-05-06_15h40.47.719,Parachute,2022.1.1,59.950313185943955,
negative,blue,1,None,k,,,,,,,,,0,72,72,72,,,,,,,,,,,,,,,,,,,,,,,,,,,,,,,,,,,,,main,None,None,1,1.4988519999897107,379.9842169000185,None,None,1,,,,,,,,,,,,,,120,30,Female,2022-05-06_15h40.47.719,Parachute,2022.1.1,59.950313185943955,
negative,red,2,None,None,,,,,,,,,0,73,73,73,,,,,,,,,,,,,,,,,,,,,,,,,,,,,,,,,,,,,main,None,None,1,1.4985975999734364,382.4844829000067,None,None,1,,,,,,,,,,,,,,120,30,Female,2022-05-06_15h40.47.719,Parachute,2022.1.1,59.950313185943955,
positive,blue,2,k,None,,,,,,,,,0,74,74,74,,,,,,,,,,,,,,,,,,,,,,,,,,,,,,,,,,,,,main,k,k,1,0.9016717000049539,384.98501519998536,None,None,0,,,,,,,,,,,,,,120,30,Female,2022-05-06_15h40.47.719,Parachute,2022.1.1,59.950313185943955,
negative,blue,2,None,k,,,,,,,,,0,75,75,75,,,,,,,,,,,,,,,,,,,,,,,,,,,,,,,,,,,,,main,None,None,1,1.4953097000252455,386.8959717999678,None,None,1,,,,,,,,,,,,,,120,30,Female,2022-05-06_15h40.47.719,Parachute,2022.1.1,59.950313185943955,
negative,blue,2,None,k,,,,,,,,,0,76,76,76,,,,,,,,,,,,,,,,,,,,,,,,,,,,,,,,,,,,,main,None,None,1,1.4987534999963827,389.3846978999791,None,None,1,,,,,,,,,,,,,,120,30,Female,2022-05-06_15h40.47.719,Parachute,2022.1.1,59.950313185943955,
negative,yellow,1,k,None,,,,,,,,,0,77,77,77,,,,,,,,,,,,,,,,,,,,,,,,,,,,,,,,,,,,,main,k,k,1,0.820636399963405,391.8853659000015,None,None,0,,,,,,,,,,,,,,120,30,Female,2022-05-06_15h40.47.719,Parachute,2022.1.1,59.950313185943955,
positive,blue,1,k,None,,,,,,,,,0,78,78,78,,,,,,,,,,,,,,,,,,,,,,,,,,,,,,,,,,,,,main,k,k,1,0.6321659000241198,393.70463890000246,None,None,0,,,,,,,,,,,,,,120,30,Female,2022-05-06_15h40.47.719,Parachute,2022.1.1,59.950313185943955,
positive,blue,1,k,None,,,,,,,,,0,79,79,79,,,,,,,,,,,,,,,,,,,,,,,,,,,,,,,,,,,,,main,k,k,1,0.8314007000299171,395.33841620001476,None,None,0,,,,,,,,,,,,,,120,30,Female,2022-05-06_15h40.47.719,Parachute,2022.1.1,59.950313185943955,
positive,red,2,None,None,,,,,,,,,0,80,80,80,,,,,,,,,,,,,,,,,,,,,,,,,,,,,,,,,,,,,main,None,None,1,1.493747100001201,397.17147930001374,None,None,1,,,,,,,,,,,,,,120,30,Female,2022-05-06_15h40.47.719,Parachute,2022.1.1,59.950313185943955,
positive,yellow,2,None,k,,,,,,,,,0,81,81,81,,,,,,,,,,,,,,,,,,,,,,,,,,,,,,,,,,,,,main,None,None,1,1.4985072999843396,399.66834839998046,None,None,1,,,,,,,,,,,,,,120,30,Female,2022-05-06_15h40.47.719,Parachute,2022.1.1,59.950313185943955,
positive,blue,1,k,None,,,,,,,,,0,82,82,82,,,,,,,,,,,,,,,,,,,,,,,,,,,,,,,,,,,,,main,k,k,1,1.0373173999832943,402.1685414999956,None,None,0,,,,,,,,,,,,,,120,30,Female,2022-05-06_15h40.47.719,Parachute,2022.1.1,59.950313185943955,
negative,yellow,2,k,None,,,,,,,,,0,83,83,83,,,,,,,,,,,,,,,,,,,,,,,,,,,,,,,,,,,,,main,k,k,1,1.0315856999950483,404.20478510000976,None,None,0,,,,,,,,,,,,,,120,30,Female,2022-05-06_15h40.47.719,Parachute,2022.1.1,59.950313185943955,
positive,blue,2,k,None,,,,,,,,,0,84,84,84,,,,,,,,,,,,,,,,,,,,,,,,,,,,,,,,,,,,,main,k,k,1,1.5645779999904335,406.23940530000255,None,None,0,,,,,,,,,,,,,,120,30,Female,2022-05-06_15h40.47.719,Parachute,2022.1.1,59.950313185943955,
positive,yellow,1,None,k,,,,,,,,,0,85,85,85,,,,,,,,,,,,,,,,,,,,,,,,,,,,,,,,,,,,,main,None,None,1,1.5018482999876142,409.81625059997896,None,None,1,,,,,,,,,,,,,,120,30,Female,2022-05-06_15h40.47.719,Parachute,2022.1.1,59.950313185943955,
positive,blue,2,k,None,,,,,,,,,0,86,86,86,,,,,,,,,,,,,,,,,,,,,,,,,,,,,,,,,,,,,main,k,k,1,0.9640328999958001,412.3190187999862,None,None,0,,,,,,,,,,,,,,120,30,Female,2022-05-06_15h40.47.719,Parachute,2022.1.1,59.950313185943955,
positive,blue,1,k,None,,,,,,,,,0,87,87,87,,,,,,,,,,,,,,,,,,,,,,,,,,,,,,,,,,,,,main,k,k,1,1.2156252999557182,414.2845167000196,None,None,0,,,,,,,,,,,,,,120,30,Female,2022-05-06_15h40.47.719,Parachute,2022.1.1,59.950313185943955,
negative,yellow,2,k,None,,,,,,,,,0,88,88,88,,,,,,,,,,,,,,,,,,,,,,,,,,,,,,,,,,,,,main,k,k,1,0.8383956999750808,416.50084350002,None,None,0,,,,,,,,,,,,,,120,30,Female,2022-05-06_15h40.47.719,Parachute,2022.1.1,59.950313185943955,
negative,blue,2,None,k,,,,,,,,,0,89,89,89,,,,,,,,,,,,,,,,,,,,,,,,,,,,,,,,,,,,,main,None,None,1,1.4929774000192992,418.3388385999715,None,None,1,,,,,,,,,,,,,,120,30,Female,2022-05-06_15h40.47.719,Parachute,2022.1.1,59.950313185943955,
positive,yellow,2,None,k,,,,,,,,,0,90,90,90,,,,,,,,,,,,,,,,,,,,,,,,,,,,,,,,,,,,,main,None,None,1,1.498507399985101,420.83551050000824,None,None,1,,,,,,,,,,,,,,120,30,Female,2022-05-06_15h40.47.719,Parachute,2022.1.1,59.950313185943955,
negative,yellow,1,k,None,,,,,,,,,0,91,91,91,,,,,,,,,,,,,,,,,,,,,,,,,,,,,,,,,,,,,main,k,k,1,1.1036797999986447,423.3355329000042,None,None,0,,,,,,,,,,,,,,120,30,Female,2022-05-06_15h40.47.719,Parachute,2022.1.1,59.950313185943955,
negative,red,2,None,None,,,,,,,,,0,92,92,92,,,,,,,,,,,,,,,,,,,,,,,,,,,,,,,,,,,,,main,None,None,1,1.4935163999907672,425.4383587000193,None,None,1,,,,,,,,,,,,,,120,30,Female,2022-05-06_15h40.47.719,Parachute,2022.1.1,59.950313185943955,
negative,blue,2,None,k,,,,,,,,,0,93,93,93,,,,,,,,,,,,,,,,,,,,,,,,,,,,,,,,,,,,,main,None,None,1,1.4986158999963664,427.9350976999849,None,None,1,,,,,,,,,,,,,,120,30,Female,2022-05-06_15h40.47.719,Parachute,2022.1.1,59.950313185943955,
negative,blue,1,None,k,,,,,,,,,0,94,94,94,,,,,,,,,,,,,,,,,,,,,,,,,,,,,,,,,,,,,main,None,None,1,1.4990938999690115,430.4352593999938,None,None,1,,,,,,,,,,,,,,120,30,Female,2022-05-06_15h40.47.719,Parachute,2022.1.1,59.950313185943955,
negative,blue,1,None,k,,,,,,,,,0,95,95,95,,,,,,,,,,,,,,,,,,,,,,,,,,,,,,,,,,,,,main,None,None,1,1.498008500027936,432.9363364999881,None,None,1,,,,,,,,,,,,,,120,30,Female,2022-05-06_15h40.47.719,Parachute,2022.1.1,59.950313185943955,
negative,red,1,None,None,,,,,,,,,0,96,96,96,,,,,,,,,,,,,,,,,,,,,,,,,,,,,,,,,,,,,main,None,None,1,1.4993776000337675,435.4352077000076,None,None,1,,,,,,,,,,,,,,120,30,Female,2022-05-06_15h40.47.719,Parachute,2022.1.1,59.950313185943955,
positive,yellow,1,None,k,,,,,,,,,0,97,97,97,,,,,,,,,,,,,,,,,,,,,,,,,,,,,,,,,,,,,main,None,None,1,1.498351400019601,437.9366873999825,None,None,1,,,,,,,,,,,,,,120,30,Female,2022-05-06_15h40.47.719,Parachute,2022.1.1,59.950313185943955,
negative,yellow,1,k,None,,,,,,,,,0,98,98,98,,,,,,,,,,,,,,,,,,,,,,,,,,,,,,,,,,,,,main,k,k,1,0.9042478000046685,440.43675389996497,None,None,0,,,,,,,,,,,,,,120,30,Female,2022-05-06_15h40.47.719,Parachute,2022.1.1,59.950313185943955,
positive,red,1,None,None,,,,,,,,,0,99,99,99,,,,,,,,,,,,,,,,,,,,,,,,,,,,,,,,,,,,,main,None,None,1,1.4932524000178091,442.33944850001717,None,None,1,,,,,,,,,,,,,,120,30,Female,2022-05-06_15h40.47.719,Parachute,2022.1.1,59.950313185943955,
positive,blue,1,k,None,,,,,,,,,0,100,100,100,,,,,,,,,,,,,,,,,,,,,,,,,,,,,,,,,,,,,main,k,k,1,0.9203515999834053,444.8373089999659,None,None,0,,,,,,,,,,,,,,120,30,Female,2022-05-06_15h40.47.719,Parachute,2022.1.1,59.950313185943955,
negative,yellow,1,k,None,,,,,,,,,0,101,101,101,,,,,,,,,,,,,,,,,,,,,,,,,,,,,,,,,,,,,main,k,k,1,0.9155259999679402,446.764337599976,None,None,0,,,,,,,,,,,,,,120,30,Female,2022-05-06_15h40.47.719,Parachute,2022.1.1,59.950313185943955,
negative,blue,2,None,k,,,,,,,,,0,102,102,102,,,,,,,,,,,,,,,,,,,,,,,,,,,,,,,,,,,,,main,None,None,1,1.4928073000046425,448.67307459999574,None,None,1,,,,,,,,,,,,,,120,30,Female,2022-05-06_15h40.47.719,Parachute,2022.1.1,59.950313185943955,
negative,yellow,2,k,None,,,,,,,,,0,103,103,103,,,,,,,,,,,,,,,,,,,,,,,,,,,,,,,,,,,,,main,k,k,1,0.9453329999814741,451.1698682999704,None,None,0,,,,,,,,,,,,,,120,30,Female,2022-05-06_15h40.47.719,Parachute,2022.1.1,59.950313185943955,
positive,yellow,2,None,k,,,,,,,,,0,104,104,104,,,,,,,,,,,,,,,,,,,,,,,,,,,,,,,,,,,,,main,None,None,1,1.5020889000152238,453.1172554999939,None,None,1,,,,,,,,,,,,,,120,30,Female,2022-05-06_15h40.47.719,Parachute,2022.1.1,59.950313185943955,
positive,blue,1,k,None,,,,,,,,,0,105,105,105,,,,,,,,,,,,,,,,,,,,,,,,,,,,,,,,,,,,,main,k,k,1,0.8376002999721095,455.6197446999722,None,None,0,,,,,,,,,,,,,,120,30,Female,2022-05-06_15h40.47.719,Parachute,2022.1.1,59.950313185943955,
positive,blue,2,k,None,,,,,,,,,0,106,106,106,,,,,,,,,,,,,,,,,,,,,,,,,,,,,,,,,,,,,main,k,k,1,0.8254352000076324,457.4564214000129,None,None,0,,,,,,,,,,,,,,120,30,Female,2022-05-06_15h40.47.719,Parachute,2022.1.1,59.950313185943955,
negative,blue,1,None,k,,,,,,,,,0,107,107,107,,,,,,,,,,,,,,,,,,,,,,,,,,,,,,,,,,,,,main,None,None,1,1.4995657000108622,459.28558119997615,None,None,1,,,,,,,,,,,,,,120,30,Female,2022-05-06_15h40.47.719,Parachute,2022.1.1,59.950313185943955,
positive,yellow,2,None,k,,,,,,,,,0,108,108,108,,,,,,,,,,,,,,,,,,,,,,,,,,,,,,,,,,,,,main,None,None,1,1.4988192000309937,461.78694989997894,None,None,1,,,,,,,,,,,,,,120,30,Female,2022-05-06_15h40.47.719,Parachute,2022.1.1,59.950313185943955,
negative,yellow,1,k,None,,,,,,,,,0,109,109,109,,,,,,,,,,,,,,,,,,,,,,,,,,,,,,,,,,,,,main,k,k,1,-0.4627180999959819,464.28706319996854,None,None,0,,,,,,,,,,,,,,120,30,Female,2022-05-06_15h40.47.719,Parachute,2022.1.1,59.950313185943955,
negative,blue,2,None,k,,,,,,,,,0,110,110,110,,,,,,,,,,,,,,,,,,,,,,,,,,,,,,,,,,,,,main,None,None,1,1.5024528000503778,467.8340353000094,None,None,1,,,,,,,,,,,,,,120,30,Female,2022-05-06_15h40.47.719,Parachute,2022.1.1,59.950313185943955,
positive,blue,2,k,None,,,,,,,,,0,111,111,111,,,,,,,,,,,,,,,,,,,,,,,,,,,,,,,,,,,,,main,k,k,1,0.9368828000151552,470.337297399994,None,None,0,,,,,,,,,,,,,,120,30,Female,2022-05-06_15h40.47.719,Parachute,2022.1.1,59.950313185943955,
negative,blue,1,None,k,,,,,,,,,0,112,112,112,,,,,,,,,,,,,,,,,,,,,,,,,,,,,,,,,,,,,main,None,None,1,1.4933164999820292,472.27362799999537,None,None,1,,,,,,,,,,,,,,120,30,Female,2022-05-06_15h40.47.719,Parachute,2022.1.1,59.950313185943955,
positive,yellow,1,None,k,,,,,,,,,0,113,113,113,,,,,,,,,,,,,,,,,,,,,,,,,,,,,,,,,,,,,main,None,None,1,1.4987647999660112,474.77022319997195,None,None,1,,,,,,,,,,,,,,120,30,Female,2022-05-06_15h40.47.719,Parachute,2022.1.1,59.950313185943955,
negative,red,1,None,None,,,,,,,,,0,114,114,114,,,,,,,,,,,,,,,,,,,,,,,,,,,,,,,,,,,,,main,None,None,1,1.4984170999960043,477.2704674999695,None,None,1,,,,,,,,,,,,,,120,30,Female,2022-05-06_15h40.47.719,Parachute,2022.1.1,59.950313185943955,
positive,red,1,None,None,,,,,,,,,0,115,115,115,,,,,,,,,,,,,,,,,,,,,,,,,,,,,,,,,,,,,main,None,None,1,1.4986286000348628,479.7698459000094,None,None,1,,,,,,,,,,,,,,120,30,Female,2022-05-06_15h40.47.719,Parachute,2022.1.1,59.950313185943955,
negative,red,2,None,None,,,,,,,,,0,116,116,116,,,,,,,,,,,,,,,,,,,,,,,,,,,,,,,,,,,,,main,None,None,1,1.4980895000044256,482.27038880001055,None,None,1,,,,,,,,,,,,,,120,30,Female,2022-05-06_15h40.47.719,Parachute,2022.1.1,59.950313185943955,
negative,yellow,2,k,None,,,,,,,,,0,117,117,117,,,,,,,,,,,,,,,,,,,,,,,,,,,,,,,,,,,,,main,k,k,1,1.1547623999649659,484.76922989997547,None,None,0,,,,,,,,,,,,,,120,30,Female,2022-05-06_15h40.47.719,Parachute,2022.1.1,59.950313185943955,
positive,yellow,1,None,k,,,,,,,,,0,118,118,118,,,,,,,,,,,,,,,,,,,,,,,,,,,,,,,,,,,,,main,None,None,1,1.4935785999987274,486.9232862999779,None,None,1,,,,,,,,,,,,,,120,30,Female,2022-05-06_15h40.47.719,Parachute,2022.1.1,59.950313185943955,
positive,red,2,None,None,,,,,,,,,0,119,119,119,,,,,,,,,,,,,,,,,,,,,,,,,,,,,,,,,,,,,main,None,None,1,1.4984641000046395,489.42065990000265,None,None,1,,,,,,,,,,,,,,120,30,Female,2022-05-06_15h40.47.719,Parachute,2022.1.1,59.950313185943955,
positive,blue,2,k,None,,,,,,,,,0,120,120,120,,,,,,,,,,,,,,,,,,,,,,,,,,,,,,,,,,,,,main,k,k,1,0.7874024000484496,491.9207720999839,None,None,0,,,,,,,,,,,,,,120,30,Female,2022-05-06_15h40.47.719,Parachute,2022.1.1,59.950313185943955,
negative,red,1,None,None,,,,,,,,,0,121,121,121,,,,,,,,,,,,,,,,,,,,,,,,,,,,,,,,,,,,,main,None,None,1,1.4932062000152655,493.70668910001405,None,None,1,,,,,,,,,,,,,,120,30,Female,2022-05-06_15h40.47.719,Parachute,2022.1.1,59.950313185943955,
positive,yellow,2,None,k,,,,,,,,,0,122,122,122,,,,,,,,,,,,,,,,,,,,,,,,,,,,,,,,,,,,,main,None,None,1,1.49847570003476,496.20390289998613,None,None,1,,,,,,,,,,,,,,120,30,Female,2022-05-06_15h40.47.719,Parachute,2022.1.1,59.950313185943955,
negative,red,2,None,None,,,,,,,,,0,123,123,123,,,,,,,,,,,,,,,,,,,,,,,,,,,,,,,,,,,,,main,None,None,1,1.4986106000142172,498.70400059997337,None,None,1,,,,,,,,,,,,,,120,30,Female,2022-05-06_15h40.47.719,Parachute,2022.1.1,59.950313185943955,
negative,yellow,2,k,None,,,,,,,,,0,124,124,124,,,,,,,,,,,,,,,,,,,,,,,,,,,,,,,,,,,,,main,k,k,1,1.1876026000245474,501.2039314999711,None,None,0,,,,,,,,,,,,,,120,30,Female,2022-05-06_15h40.47.719,Parachute,2022.1.1,59.950313185943955,
positive,red,1,None,None,,,,,,,,,0,125,125,125,,,,,,,,,,,,,,,,,,,,,,,,,,,,,,,,,,,,,main,None,None,1,1.4932574999984354,503.3905270000105,None,None,1,,,,,,,,,,,,,,120,30,Female,2022-05-06_15h40.47.719,Parachute,2022.1.1,59.950313185943955,
negative,blue,2,None,k,,,,,,,,,0,126,126,126,,,,,,,,,,,,,,,,,,,,,,,,,,,,,,,,,,,,,main,None,None,1,1.4992097000358626,505.8872083000024,None,None,1,,,,,,,,,,,,,,120,30,Female,2022-05-06_15h40.47.719,Parachute,2022.1.1,59.950313185943955,
negative,blue,1,None,k,,,,,,,,,0,127,127,127,,,,,,,,,,,,,,,,,,,,,,,,,,,,,,,,,,,,,main,None,None,1,1.4980055000050925,508.38843549997546,None,None,1,,,,,,,,,,,,,,120,30,Female,2022-05-06_15h40.47.719,Parachute,2022.1.1,59.950313185943955,
negative,yellow,1,k,None,,,,,,,,,0,128,128,128,,,,,,,,,,,,,,,,,,,,,,,,,,,,,,,,,,,,,main,k,k,1,0.90467440005159,510.8872403000132,None,None,0,,,,,,,,,,,,,,120,30,Female,2022-05-06_15h40.47.719,Parachute,2022.1.1,59.950313185943955,
negative,yellow,1,k,None,,,,,,,,,0,129,129,129,,,,,,,,,,,,,,,,,,,,,,,,,,,,,,,,,,,,,main,k,k,1,1.8632250999798998,512.7909002999659,None,None,0,,,,,,,,,,,,,,120,30,Female,2022-05-06_15h40.47.719,Parachute,2022.1.1,59.950313185943955,
positive,blue,1,k,None,,,,,,,,,0,130,130,130,,,,,,,,,,,,,,,,,,,,,,,,,,,,,,,,,,,,,main,k,k,1,1.1737993000424467,516.6687326999963,None,None,0,,,,,,,,,,,,,,120,30,Female,2022-05-06_15h40.47.719,Parachute,2022.1.1,59.950313185943955,
negative,blue,1,None,k,,,,,,,,,0,131,131,131,,,,,,,,,,,,,,,,,,,,,,,,,,,,,,,,,,,,,main,None,None,1,1.493134199990891,518.8414207000169,None,None,1,,,,,,,,,,,,,,120,30,Female,2022-05-06_15h40.47.719,Parachute,2022.1.1,59.950313185943955,
negative,blue,2,None,k,,,,,,,,,0,132,132,132,,,,,,,,,,,,,,,,,,,,,,,,,,,,,,,,,,,,,main,None,None,1,1.498756900022272,521.3379166999948,None,None,1,,,,,,,,,,,,,,120,30,Female,2022-05-06_15h40.47.719,Parachute,2022.1.1,59.950313185943955,
positive,blue,2,k,None,,,,,,,,,0,133,133,133,,,,,,,,,,,,,,,,,,,,,,,,,,,,,,,,,,,,,main,k,k,1,0.9369209000142291,523.8382841999992,None,None,0,,,,,,,,,,,,,,120,30,Female,2022-05-06_15h40.47.719,Parachute,2022.1.1,59.950313185943955,
positive,red,2,None,None,,,,,,,,,0,134,134,134,,,,,,,,,,,,,,,,,,,,,,,,,,,,,,,,,,,,,main,None,None,1,1.49376810004469,525.7740870999987,None,None,1,,,,,,,,,,,,,,120,30,Female,2022-05-06_15h40.47.719,Parachute,2022.1.1,59.950313185943955,
negative,yellow,2,k,None,,,,,,,,,0,135,135,135,,,,,,,,,,,,,,,,,,,,,,,,,,,,,,,,,,,,,main,k,k,1,0.9368173999828286,528.2715270000044,None,None,0,,,,,,,,,,,,,,120,30,Female,2022-05-06_15h40.47.719,Parachute,2022.1.1,59.950313185943955,
positive,yellow,2,None,k,,,,,,,,,0,136,136,136,,,,,,,,,,,,,,,,,,,,,,,,,,,,,,,,,,,,,main,None,None,1,1.4938541000010446,530.2073337999755,None,None,1,,,,,,,,,,,,,,120,30,Female,2022-05-06_15h40.47.719,Parachute,2022.1.1,59.950313185943955,
positive,blue,1,k,None,,,,,,,,,0,137,137,137,,,,,,,,,,,,,,,,,,,,,,,,,,,,,,,,,,,,,main,k,k,1,0.87055530003272,532.7048199999845,None,None,0,,,,,,,,,,,,,,120,30,Female,2022-05-06_15h40.47.719,Parachute,2022.1.1,59.950313185943955,
positive,yellow,1,None,k,,,,,,,,,0,138,138,138,,,,,,,,,,,,,,,,,,,,,,,,,,,,,,,,,,,,,main,None,None,1,1.4934899000218138,534.5747959999717,None,None,1,,,,,,,,,,,,,,120,30,Female,2022-05-06_15h40.47.719,Parachute,2022.1.1,59.950313185943955,
positive,yellow,1,None,k,,,,,,,,,0,139,139,139,,,,,,,,,,,,,,,,,,,,,,,,,,,,,,,,,,,,,main,None,None,1,1.498904699983541,537.0716572999954,None,None,1,,,,,,,,,,,,,,120,30,Female,2022-05-06_15h40.47.719,Parachute,2022.1.1,59.950313185943955,
positive,yellow,1,None,k,,,,,,,,,0,140,140,140,,,,,,,,,,,,,,,,,,,,,,,,,,,,,,,,,,,,,main,None,None,1,1.4985548999975435,539.5721875000163,None,None,1,,,,,,,,,,,,,,120,30,Female,2022-05-06_15h40.47.719,Parachute,2022.1.1,59.950313185943955,
positive,blue,1,k,None,,,,,,,,,0,141,141,141,,,,,,,,,,,,,,,,,,,,,,,,,,,,,,,,,,,,,main,k,k,1,1.1207039000000805,542.0713033999782,None,None,0,,,,,,,,,,,,,,120,30,Female,2022-05-06_15h40.47.719,Parachute,2022.1.1,59.950313185943955,
positive,blue,2,k,None,,,,,,,,,0,142,142,142,,,,,,,,,,,,,,,,,,,,,,,,,,,,,,,,,,,,,main,k,k,1,1.082038399996236,544.1913331999676,None,None,0,,,,,,,,,,,,,,120,30,Female,2022-05-06_15h40.47.719,Parachute,2022.1.1,59.950313185943955,
positive,yellow,2,None,k,,,,,,,,,0,143,143,143,,,,,,,,,,,,,,,,,,,,,,,,,,,,,,,,,,,,,main,None,None,1,1.4933319999836385,546.2747395000188,None,None,1,,,,,,,,,,,,,,120,30,Female,2022-05-06_15h40.47.719,Parachute,2022.1.1,59.950313185943955,
negative,yellow,2,k,None,,,,,,,,,0,144,144,144,,,,,,,,,,,,,,,,,,,,,,,,,,,,,,,,,,,,,main,k,k,1,0.7205582999740727,548.7723390000174,None,None,0,,,,,,,,,,,,,,120,30,Female,2022-05-06_15h40.47.719,Parachute,2022.1.1,59.950313185943955,
negative,blue,2,None,k,,,,,,,,,0,145,145,145,,,,,,,,,,,,,,,,,,,,,,,,,,,,,,,,,,,,,main,None,None,1,1.4934002999798395,550.4911378999823,None,None,1,,,,,,,,,,,,,,120,30,Female,2022-05-06_15h40.47.719,Parachute,2022.1.1,59.950313185943955,
negative,red,1,None,None,,,,,,,,,0,146,146,146,,,,,,,,,,,,,,,,,,,,,,,,,,,,,,,,,,,,,main,None,None,1,1.4982663000118919,552.988809500006,None,None,1,,,,,,,,,,,,,,120,30,Female,2022-05-06_15h40.47.719,Parachute,2022.1.1,59.950313185943955,
positive,blue,1,k,None,,,,,,,,,0,147,147,147,,,,,,,,,,,,,,,,,,,,,,,,,,,,,,,,,,,,,main,k,k,1,0.7042135000228882,555.4879828999983,None,None,0,,,,,,,,,,,,,,120,30,Female,2022-05-06_15h40.47.719,Parachute,2022.1.1,59.950313185943955,
positive,yellow,1,None,k,,,,,,,,,0,148,148,148,,,,,,,,,,,,,,,,,,,,,,,,,,,,,,,,,,,,,main,None,None,1,1.4934901000233367,557.1911942000152,None,None,1,,,,,,,,,,,,,,120,30,Female,2022-05-06_15h40.47.719,Parachute,2022.1.1,59.950313185943955,
negative,red,2,None,None,,,,,,,,,0,149,149,149,,,,,,,,,,,,,,,,,,,,,,,,,,,,,,,,,,,,,main,None,None,1,1.498634800023865,559.6883350000135,None,None,1,,,,,,,,,,,,,,120,30,Female,2022-05-06_15h40.47.719,Parachute,2022.1.1,59.950313185943955,
negative,blue,1,None,k,,,,,,,,,0,150,150,150,,,,,,,,,,,,,,,,,,,,,,,,,,,,,,,,,,,,,main,None,None,1,1.4986406999523751,562.188327300013,None,None,1,,,,,,,,,,,,,,120,30,Female,2022-05-06_15h40.47.719,Parachute,2022.1.1,59.950313185943955,
negative,yellow,2,k,None,,,,,,,,,0,151,151,151,,,,,,,,,,,,,,,,,,,,,,,,,,,,,,,,,,,,,main,k,k,1,0.9224314999883063,564.6885238999967,None,None,0,,,,,,,,,,,,,,120,30,Female,2022-05-06_15h40.47.719,Parachute,2022.1.1,59.950313185943955,
negative,blue,2,None,k,,,,,,,,,0,152,152,152,,,,,,,,,,,,,,,,,,,,,,,,,,,,,,,,,,,,,main,None,None,1,1.5084096000064164,566.6103842000011,None,None,1,,,,,,,,,,,,,,120,30,Female,2022-05-06_15h40.47.719,Parachute,2022.1.1,59.950313185943955,
negative,yellow,1,k,None,,,,,,,,,0,153,153,153,,,,,,,,,,,,,,,,,,,,,,,,,,,,,,,,,,,,,main,k,k,1,1.120562499971129,569.1220789999934,None,None,0,,,,,,,,,,,,,,120,30,Female,2022-05-06_15h40.47.719,Parachute,2022.1.1,59.950313185943955,
negative,blue,1,None,k,,,,,,,,,0,154,154,154,,,,,,,,,,,,,,,,,,,,,,,,,,,,,,,,,,,,,main,None,None,1,1.4937523999833502,571.2416675999993,None,None,1,,,,,,,,,,,,,,120,30,Female,2022-05-06_15h40.47.719,Parachute,2022.1.1,59.950313185943955,
positive,yellow,2,None,k,,,,,,,,,0,155,155,155,,,,,,,,,,,,,,,,,,,,,,,,,,,,,,,,,,,,,main,None,None,1,1.4987175000132993,573.7397669000202,None,None,1,,,,,,,,,,,,,,120,30,Female,2022-05-06_15h40.47.719,Parachute,2022.1.1,59.950313185943955,
positive,red,2,None,None,,,,,,,,,0,156,156,156,,,,,,,,,,,,,,,,,,,,,,,,,,,,,,,,,,,,,main,None,None,1,1.4980197999975644,576.2394900000072,None,None,1,,,,,,,,,,,,,,120,30,Female,2022-05-06_15h40.47.719,Parachute,2022.1.1,59.950313185943955,
positive,red,1,None,None,,,,,,,,,0,157,157,157,,,,,,,,,,,,,,,,,,,,,,,,,,,,,,,,,,,,,main,None,None,1,1.4990848999586888,578.738320000004,None,None,1,,,,,,,,,,,,,,120,30,Female,2022-05-06_15h40.47.719,Parachute,2022.1.1,59.950313185943955,
positive,blue,2,k,None,,,,,,,,,0,158,158,158,,,,,,,,,,,,,,,,,,,,,,,,,,,,,,,,,,,,,main,k,k,1,0.7706748000346124,581.2390455999994,None,None,0,,,,,,,,,,,,,,120,30,Female,2022-05-06_15h40.47.719,Parachute,2022.1.1,59.950313185943955,
negative,yellow,1,k,None,,,,,,,,,0,159,159,159,,,,,,,,,,,,,,,,,,,,,,,,,,,,,,,,,,,,,main,k,k,1,0.6998653000337072,583.0088304000092,None,None,0,,,,,,,,,,,,,,120,30,Female,2022-05-06_15h40.47.719,Parachute,2022.1.1,59.950313185943955,
negative,red,2,None,None,,,,,,,,,0,160,160,160,,,,,,,,,,,,,,,,,,,,,,,,,,,,,,,,,,,,,main,None,None,1,1.509109599981457,584.7103395999875,None,None,1,,,,,,,,,,,,,,120,30,Female,2022-05-06_15h40.47.719,Parachute,2022.1.1,59.950313185943955,
negative,blue,1,None,k,,,,,,,,,0,161,161,161,,,,,,,,,,,,,,,,,,,,,,,,,,,,,,,,,,,,,main,None,None,1,1.498417700000573,587.2240954000154,None,None,1,,,,,,,,,,,,,,120,30,Female,2022-05-06_15h40.47.719,Parachute,2022.1.1,59.950313185943955,
negative,blue,1,None,k,,,,,,,,,0,162,162,162,,,,,,,,,,,,,,,,,,,,,,,,,,,,,,,,,,,,,main,None,None,1,1.49872360000154,589.7234949999838,None,None,1,,,,,,,,,,,,,,120,30,Female,2022-05-06_15h40.47.719,Parachute,2022.1.1,59.950313185943955,
negative,yellow,1,k,None,,,,,,,,,0,163,163,163,,,,,,,,,,,,,,,,,,,,,,,,,,,,,,,,,,,,,main,k,k,1,0.8554826999898069,592.2228587999707,None,None,0,,,,,,,,,,,,,,120,30,Female,2022-05-06_15h40.47.719,Parachute,2022.1.1,59.950313185943955,
negative,yellow,1,k,None,,,,,,,,,0,164,164,164,,,,,,,,,,,,,,,,,,,,,,,,,,,,,,,,,,,,,main,k,k,1,0.6049692000378855,594.0773864999646,None,None,0,,,,,,,,,,,,,,120,30,Female,2022-05-06_15h40.47.719,Parachute,2022.1.1,59.950313185943955,
positive,yellow,1,None,k,,,,,,,,,0,165,165,165,,,,,,,,,,,,,,,,,,,,,,,,,,,,,,,,,,,,,main,None,None,1,1.5020262000034563,595.6868255999871,None,None,1,,,,,,,,,,,,,,120,30,Female,2022-05-06_15h40.47.719,Parachute,2022.1.1,59.950313185943955,
negative,red,1,None,None,,,,,,,,,0,166,166,166,,,,,,,,,,,,,,,,,,,,,,,,,,,,,,,,,,,,,main,None,None,1,1.4984776999917813,598.1899264999665,None,None,1,,,,,,,,,,,,,,120,30,Female,2022-05-06_15h40.47.719,Parachute,2022.1.1,59.950313185943955,
negative,yellow,2,k,None,,,,,,,,,0,167,167,167,,,,,,,,,,,,,,,,,,,,,,,,,,,,,,,,,,,,,main,k,k,1,0.7978271000320092,600.6897210999741,None,None,0,,,,,,,,,,,,,,120,30,Female,2022-05-06_15h40.47.719,Parachute,2022.1.1,59.950313185943955,
positive,blue,2,k,None,,,,,,,,,0,168,168,168,,,,,,,,,,,,,,,,,,,,,,,,,,,,,,,,,,,,,main,k,k,1,0.6700061000301503,602.488652799977,None,None,0,,,,,,,,,,,,,,120,30,Female,2022-05-06_15h40.47.719,Parachute,2022.1.1,59.950313185943955,
positive,red,2,None,None,,,,,,,,,0,169,169,169,,,,,,,,,,,,,,,,,,,,,,,,,,,,,,,,,,,,,main,None,None,1,1.4947453999775462,604.1675360000227,None,None,1,,,,,,,,,,,,,,120,30,Female,2022-05-06_15h40.47.719,Parachute,2022.1.1,59.950313185943955,
positive,red,1,None,None,,,,,,,,,0,170,170,170,,,,,,,,,,,,,,,,,,,,,,,,,,,,,,,,,,,,,main,None,None,1,1.4990313000162132,606.655975200003,None,None,1,,,,,,,,,,,,,,120,30,Female,2022-05-06_15h40.47.719,Parachute,2022.1.1,59.950313185943955,
negative,blue,2,None,k,,,,,,,,,0,171,171,171,,,,,,,,,,,,,,,,,,,,,,,,,,,,,,,,,,,,,main,None,None,1,1.4988209000439383,609.1569317000103,None,None,1,,,,,,,,,,,,,,120,30,Female,2022-05-06_15h40.47.719,Parachute,2022.1.1,59.950313185943955,
positive,blue,2,k,None,,,,,,,,,0,172,172,172,,,,,,,,,,,,,,,,,,,,,,,,,,,,,,,,,,,,,main,k,k,1,0.6201991999987513,611.6561676000129,None,None,0,,,,,,,,,,,,,,120,30,Female,2022-05-06_15h40.47.719,Parachute,2022.1.1,59.950313185943955,
negative,yellow,2,k,None,,,,,,,,,0,173,173,173,,,,,,,,,,,,,,,,,,,,,,,,,,,,,,,,,,,,,main,k,k,1,0.7152828999678604,613.275895299972,None,None,0,,,,,,,,,,,,,,120,30,Female,2022-05-06_15h40.47.719,Parachute,2022.1.1,59.950313185943955,
positive,yellow,2,None,k,,,,,,,,,0,174,174,174,,,,,,,,,,,,,,,,,,,,,,,,,,,,,,,,,,,,,main,None,None,1,1.494141400035005,614.9926333000185,None,None,1,,,,,,,,,,,,,,120,30,Female,2022-05-06_15h40.47.719,Parachute,2022.1.1,59.950313185943955,
negative,blue,2,None,k,,,,,,,,,0,175,175,175,,,,,,,,,,,,,,,,,,,,,,,,,,,,,,,,,,,,,main,None,None,1,1.4985187000129372,617.4903187999735,None,None,1,,,,,,,,,,,,,,120,30,Female,2022-05-06_15h40.47.719,Parachute,2022.1.1,59.950313185943955,
positive,blue,1,k,None,,,,,,,,,0,176,176,176,,,,,,,,,,,,,,,,,,,,,,,,,,,,,,,,,,,,,main,k,k,1,0.7204166000010446,619.9907574999961,None,None,0,,,,,,,,,,,,,,120,30,Female,2022-05-06_15h40.47.719,Parachute,2022.1.1,59.950313185943955,
positive,yellow,1,None,k,,,,,,,,,0,177,177,177,,,,,,,,,,,,,,,,,,,,,,,,,,,,,,,,,,,,,main,None,None,1,1.4933766000322066,621.7199031999917,None,None,1,,,,,,,,,,,,,,120,30,Female,2022-05-06_15h40.47.719,Parachute,2022.1.1,59.950313185943955,
positive,blue,1,k,None,,,,,,,,,0,178,178,178,,,,,,,,,,,,,,,,,,,,,,,,,,,,,,,,,,,,,main,k,k,1,3.5876315999776125,624.2069450999843,None,None,0,,,,,,,,,,,,,,120,30,Female,2022-05-06_15h40.47.719,Parachute,2022.1.1,59.950313185943955,
positive,yellow,2,None,k,,,,,,,,,0,179,179,179,,,,,,,,,,,,,,,,,,,,,,,,,,,,,,,,,,,,,main,None,None,1,1.5026830999995582,629.8046560999937,None,None,1,,,,,,,,,,,,,,120,30,Female,2022-05-06_15h40.47.719,Parachute,2022.1.1,59.950313185943955,
positive,blue,1,k,None,,,,,,,,,0,180,180,180,,,,,,,,,,,,,,,,,,,,,,,,,,,,,,,,,,,,,main,k,k,1,0.6854904000065289,632.3073952000123,None,None,0,,,,,,,,,,,,,,120,30,Female,2022-05-06_15h40.47.719,Parachute,2022.1.1,59.950313185943955,
negative,red,1,None,None,,,,,,,,,0,181,181,181,,,,,,,,,,,,,,,,,,,,,,,,,,,,,,,,,,,,,main,None,None,1,1.4938198000309058,633.9930373000097,None,None,1,,,,,,,,,,,,,,120,30,Female,2022-05-06_15h40.47.719,Parachute,2022.1.1,59.950313185943955,
negative,blue,1,None,k,,,,,,,,,0,182,182,182,,,,,,,,,,,,,,,,,,,,,,,,,,,,,,,,,,,,,main,None,None,1,1.4992470999713987,636.4903589999885,None,None,1,,,,,,,,,,,,,,120,30,Female,2022-05-06_15h40.47.719,Parachute,2022.1.1,59.950313185943955,
negative,yellow,2,k,None,,,,,,,,,0,183,183,183,,,,,,,,,,,,,,,,,,,,,,,,,,,,,,,,,,,,,main,k,k,1,0.7549379999982193,638.9906556999777,None,None,0,,,,,,,,,,,,,,120,30,Female,2022-05-06_15h40.47.719,Parachute,2022.1.1,59.950313185943955,
positive,yellow,2,None,k,,,,,,,,,0,184,184,184,,,,,,,,,,,,,,,,,,,,,,,,,,,,,,,,,,,,,main,None,None,1,1.492341800010763,640.7447055999655,None,None,1,,,,,,,,,,,,,,120,30,Female,2022-05-06_15h40.47.719,Parachute,2022.1.1,59.950313185943955,
positive,yellow,1,None,k,,,,,,,,,0,185,185,185,,,,,,,,,,,,,,,,,,,,,,,,,,,,,,,,,,,,,main,None,k,0,1.1015270999632776,643.24055029999,None,None,1,,,,,,,,,,,,,,120,30,Female,2022-05-06_15h40.47.719,Parachute,2022.1.1,59.950313185943955,
positive,red,2,None,None,,,,,,,,,0,186,186,186,,,,,,,,,,,,,,,,,,,,,,,,,,,,,,,,,,,,,main,None,None,1,1.501954899984412,646.355470200011,None,None,1,,,,,,,,,,,,,,120,30,Female,2022-05-06_15h40.47.719,Parachute,2022.1.1,59.950313185943955,
positive,blue,1,k,None,,,,,,,,,0,187,187,187,,,,,,,,,,,,,,,,,,,,,,,,,,,,,,,,,,,,,main,k,k,1,0.6193632999784313,648.8578678999911,None,None,0,,,,,,,,,,,,,,120,30,Female,2022-05-06_15h40.47.719,Parachute,2022.1.1,59.950313185943955,
negative,yellow,1,k,None,,,,,,,,,0,188,188,188,,,,,,,,,,,,,,,,,,,,,,,,,,,,,,,,,,,,,main,k,k,1,0.730834899994079,650.4764639000059,None,None,0,,,,,,,,,,,,,,120,30,Female,2022-05-06_15h40.47.719,Parachute,2022.1.1,59.950313185943955,
positive,yellow,2,None,k,,,,,,,,,0,189,189,189,,,,,,,,,,,,,,,,,,,,,,,,,,,,,,,,,,,,,main,None,None,1,1.4950749000418,652.2187159999739,None,None,1,,,,,,,,,,,,,,120,30,Female,2022-05-06_15h40.47.719,Parachute,2022.1.1,59.950313185943955,
negative,yellow,2,k,None,,,,,,,,,0,190,190,190,,,,,,,,,,,,,,,,,,,,,,,,,,,,,,,,,,,,,main,k,k,1,0.8386244000284933,654.7074163000216,None,None,0,,,,,,,,,,,,,,120,30,Female,2022-05-06_15h40.47.719,Parachute,2022.1.1,59.950313185943955,
negative,yellow,1,k,None,,,,,,,,,0,191,191,191,,,,,,,,,,,,,,,,,,,,,,,,,,,,,,,,,,,,,main,k,k,1,0.781071699981112,656.5448309999774,None,None,0,,,,,,,,,,,,,,120,30,Female,2022-05-06_15h40.47.719,Parachute,2022.1.1,59.950313185943955,
positive,blue,2,k,None,,,,,,,,,0,192,192,192,,,,,,,,,,,,,,,,,,,,,,,,,,,,,,,,,,,,,main,k,k,1,0.6627586999675259,658.3272048999788,None,None,0,,,,,,,,,,,,,,120,30,Female,2022-05-06_15h40.47.719,Parachute,2022.1.1,59.950313185943955,
positive,yellow,1,None,k,,,,,,,,,0,193,193,193,,,,,,,,,,,,,,,,,,,,,,,,,,,,,,,,,,,,,main,None,None,1,1.495441099978052,659.993907600001,None,None,1,,,,,,,,,,,,,,120,30,Female,2022-05-06_15h40.47.719,Parachute,2022.1.1,59.950313185943955,
negative,red,2,None,None,,,,,,,,,0,194,194,194,,,,,,,,,,,,,,,,,,,,,,,,,,,,,,,,,,,,,main,None,None,1,1.499433399992995,662.4902675999911,None,None,1,,,,,,,,,,,,,,120,30,Female,2022-05-06_15h40.47.719,Parachute,2022.1.1,59.950313185943955,
positive,red,1,None,None,,,,,,,,,0,195,195,195,,,,,,,,,,,,,,,,,,,,,,,,,,,,,,,,,,,,,main,None,None,1,1.4985266999574378,664.9913030000171,None,None,1,,,,,,,,,,,,,,120,30,Female,2022-05-06_15h40.47.719,Parachute,2022.1.1,59.950313185943955,
negative,blue,1,None,k,,,,,,,,,0,196,196,196,,,,,,,,,,,,,,,,,,,,,,,,,,,,,,,,,,,,,main,None,None,1,1.4986989999888465,667.491052599973,None,None,1,,,,,,,,,,,,,,120,30,Female,2022-05-06_15h40.47.719,Parachute,2022.1.1,59.950313185943955,
positive,blue,2,k,None,,,,,,,,,0,197,197,197,,,,,,,,,,,,,,,,,,,,,,,,,,,,,,,,,,,,,main,k,k,1,0.7034016000106931,669.9914250000147,None,None,0,,,,,,,,,,,,,,120,30,Female,2022-05-06_15h40.47.719,Parachute,2022.1.1,59.950313185943955,
negative,blue,2,None,k,,,,,,,,,0,198,198,198,,,,,,,,,,,,,,,,,,,,,,,,,,,,,,,,,,,,,main,None,None,1,1.4939525999943726,671.6939434999949,None,None,1,,,,,,,,,,,,,,120,30,Female,2022-05-06_15h40.47.719,Parachute,2022.1.1,59.950313185943955,
negative,blue,2,None,k,,,,,,,,,0,199,199,199,,,,,,,,,,,,,,,,,,,,,,,,,,,,,,,,,,,,,main,None,None,1,1.4984842000412755,674.1913034999743,None,None,1,,,,,,,,,,,,,,120,30,Female,2022-05-06_15h40.47.719,Parachute,2022.1.1,59.950313185943955,
positive,blue,2,k,None,,,,,,,,,0,200,200,200,,,,,,,,,,,,,,,,,,,,,,,,,,,,,,,,,,,,,main,k,k,1,0.6371210000361316,676.6915664999979,None,None,0,,,,,,,,,,,,,,120,30,Female,2022-05-06_15h40.47.719,Parachute,2022.1.1,59.950313185943955,
positive,blue,2,k,None,,,,,,,,,0,201,201,201,,,,,,,,,,,,,,,,,,,,,,,,,,,,,,,,,,,,,main,k,k,1,0.7483218999695964,678.3296984999906,None,None,0,,,,,,,,,,,,,,120,30,Female,2022-05-06_15h40.47.719,Parachute,2022.1.1,59.950313185943955,
negative,yellow,2,k,None,,,,,,,,,0,202,202,202,,,,,,,,,,,,,,,,,,,,,,,,,,,,,,,,,,,,,main,k,k,1,0.5975891999551095,680.0772809999762,None,None,0,,,,,,,,,,,,,,120,30,Female,2022-05-06_15h40.47.719,Parachute,2022.1.1,59.950313185943955,
positive,red,1,None,None,,,,,,,,,0,203,203,203,,,,,,,,,,,,,,,,,,,,,,,,,,,,,,,,,,,,,main,None,None,1,1.4949589999741875,681.6776372999884,None,None,1,,,,,,,,,,,,,,120,30,Female,2022-05-06_15h40.47.719,Parachute,2022.1.1,59.950313185943955,
negative,blue,2,None,k,,,,,,,,,0,204,204,204,,,,,,,,,,,,,,,,,,,,,,,,,,,,,,,,,,,,,main,None,None,1,1.4983146999729797,684.1753919000039,None,None,1,,,,,,,,,,,,,,120,30,Female,2022-05-06_15h40.47.719,Parachute,2022.1.1,59.950313185943955,
negative,red,1,None,None,,,,,,,,,0,205,205,205,,,,,,,,,,,,,,,,,,,,,,,,,,,,,,,,,,,,,main,None,None,1,1.4990314000169747,686.6754696000135,None,None,1,,,,,,,,,,,,,,120,30,Female,2022-05-06_15h40.47.719,Parachute,2022.1.1,59.950313185943955,
negative,blue,2,None,k,,,,,,,,,0,206,206,206,,,,,,,,,,,,,,,,,,,,,,,,,,,,,,,,,,,,,main,None,None,1,1.4982334999949671,689.1756209000014,None,None,1,,,,,,,,,,,,,,120,30,Female,2022-05-06_15h40.47.719,Parachute,2022.1.1,59.950313185943955,
negative,yellow,2,k,None,,,,,,,,,0,207,207,207,,,,,,,,,,,,,,,,,,,,,,,,,,,,,,,,,,,,,main,k,k,1,0.6711049000150524,691.6753667999874,None,None,0,,,,,,,,,,,,,,120,30,Female,2022-05-06_15h40.47.719,Parachute,2022.1.1,59.950313185943955,
positive,yellow,2,None,k,,,,,,,,,0,208,208,208,,,,,,,,,,,,,,,,,,,,,,,,,,,,,,,,,,,,,main,None,None,1,1.4927783000166528,693.3451275000116,None,None,1,,,,,,,,,,,,,,120,30,Female,2022-05-06_15h40.47.719,Parachute,2022.1.1,59.950313185943955,
negative,yellow,1,k,None,,,,,,,,,0,209,209,209,,,,,,,,,,,,,,,,,,,,,,,,,,,,,,,,,,,,,main,k,k,1,0.6681090999627486,695.8415703999926,None,None,0,,,,,,,,,,,,,,120,30,Female,2022-05-06_15h40.47.719,Parachute,2022.1.1,59.950313185943955,
negative,red,2,None,None,,,,,,,,,0,210,210,210,,,,,,,,,,,,,,,,,,,,,,,,,,,,,,,,,,,,,main,None,None,1,1.4961776999989524,697.5113444000017,None,None,1,,,,,,,,,,,,,,120,30,Female,2022-05-06_15h40.47.719,Parachute,2022.1.1,59.950313185943955,
negative,blue,1,None,k,,,,,,,,,0,211,211,211,,,,,,,,,,,,,,,,,,,,,,,,,,,,,,,,,,,,,main,None,k,0,0.8038013000041246,700.0088286999962,None,None,1,,,,,,,,,,,,,,120,30,Female,2022-05-06_15h40.47.719,Parachute,2022.1.1,59.950313185943955,
negative,yellow,1,k,None,,,,,,,,,0,212,212,212,,,,,,,,,,,,,,,,,,,,,,,,,,,,,,,,,,,,,main,k,k,1,0.7487590000382625,702.8227151000174,None,None,0,,,,,,,,,,,,,,120,30,Female,2022-05-06_15h40.47.719,Parachute,2022.1.1,59.950313185943955,
positive,blue,1,k,None,,,,,,,,,0,213,213,213,,,,,,,,,,,,,,,,,,,,,,,,,,,,,,,,,,,,,main,k,k,1,0.7237731000059284,704.5725654999842,None,None,0,,,,,,,,,,,,,,120,30,Female,2022-05-06_15h40.47.719,Parachute,2022.1.1,59.950313185943955,
positive,blue,1,k,None,,,,,,,,,0,214,214,214,,,,,,,,,,,,,,,,,,,,,,,,,,,,,,,,,,,,,main,k,k,1,0.5394869999727234,706.295815200021,None,None,0,,,,,,,,,,,,,,120,30,Female,2022-05-06_15h40.47.719,Parachute,2022.1.1,59.950313185943955,
positive,yellow,1,None,k,,,,,,,,,0,215,215,215,,,,,,,,,,,,,,,,,,,,,,,,,,,,,,,,,,,,,main,None,None,1,1.502071499999147,707.8393726000213,None,None,1,,,,,,,,,,,,,,120,30,Female,2022-05-06_15h40.47.719,Parachute,2022.1.1,59.950313185943955,
positive,yellow,1,None,k,,,,,,,,,0,216,216,216,,,,,,,,,,,,,,,,,,,,,,,,,,,,,,,,,,,,,main,None,k,0,0.886877800046932,710.3421597999986,None,None,1,,,,,,,,,,,,,,120,30,Female,2022-05-06_15h40.47.719,Parachute,2022.1.1,59.950313185943955,
positive,yellow,2,None,k,,,,,,,,,0,217,217,217,,,,,,,,,,,,,,,,,,,,,,,,,,,,,,,,,,,,,main,None,None,1,1.5017220000154339,713.2398407000001,None,None,1,,,,,,,,,,,,,,120,30,Female,2022-05-06_15h40.47.719,Parachute,2022.1.1,59.950313185943955,
negative,blue,1,None,k,,,,,,,,,0,218,218,218,,,,,,,,,,,,,,,,,,,,,,,,,,,,,,,,,,,,,main,None,None,1,1.4980038999929093,715.7428288999945,None,None,1,,,,,,,,,,,,,,120,30,Female,2022-05-06_15h40.47.719,Parachute,2022.1.1,59.950313185943955,
positive,red,2,None,None,,,,,,,,,0,219,219,219,,,,,,,,,,,,,,,,,,,,,,,,,,,,,,,,,,,,,main,None,None,1,1.4984494000091217,718.2422688999795,None,None,1,,,,,,,,,,,,,,120,30,Female,2022-05-06_15h40.47.719,Parachute,2022.1.1,59.950313185943955,
positive,yellow,1,None,k,,,,,,,,,0,220,220,220,,,,,,,,,,,,,,,,,,,,,,,,,,,,,,,,,,,,,main,None,None,1,1.4990111999795772,720.7416764000081,None,None,1,,,,,,,,,,,,,,120,30,Female,2022-05-06_15h40.47.719,Parachute,2022.1.1,59.950313185943955,
positive,blue,1,k,None,,,,,,,,,0,221,221,221,,,,,,,,,,,,,,,,,,,,,,,,,,,,,,,,,,,,,main,k,k,1,0.8037468999973498,723.2423820999684,None,None,0,,,,,,,,,,,,,,120,30,Female,2022-05-06_15h40.47.719,Parachute,2022.1.1,59.950313185943955,
positive,yellow,2,None,k,,,,,,,,,0,222,222,222,,,,,,,,,,,,,,,,,,,,,,,,,,,,,,,,,,,,,main,None,None,1,1.493715099990368,725.0449338000035,None,None,1,,,,,,,,,,,,,,120,30,Female,2022-05-06_15h40.47.719,Parachute,2022.1.1,59.950313185943955,
negative,yellow,1,k,None,,,,,,,,,0,223,223,223,,,,,,,,,,,,,,,,,,,,,,,,,,,,,,,,,,,,,main,k,k,1,0.6037294000270776,727.542318199994,None,None,0,,,,,,,,,,,,,,120,30,Female,2022-05-06_15h40.47.719,Parachute,2022.1.1,59.950313185943955,
positive,yellow,2,None,k,,,,,,,,,0,224,224,224,,,,,,,,,,,,,,,,,,,,,,,,,,,,,,,,,,,,,main,None,None,1,1.4934266000054777,729.1453865999938,None,None,1,,,,,,,,,,,,,,120,30,Female,2022-05-06_15h40.47.719,Parachute,2022.1.1,59.950313185943955,
negative,yellow,2,k,None,,,,,,,,,0,225,225,225,,,,,,,,,,,,,,,,,,,,,,,,,,,,,,,,,,,,,main,k,k,1,0.870723599975463,731.6426587000024,None,None,0,,,,,,,,,,,,,,120,30,Female,2022-05-06_15h40.47.719,Parachute,2022.1.1,59.950313185943955,
negative,blue,2,None,k,,,,,,,,,0,226,226,226,,,,,,,,,,,,,,,,,,,,,,,,,,,,,,,,,,,,,main,None,None,1,1.4934535000356846,733.5122603999916,None,None,1,,,,,,,,,,,,,,120,30,Female,2022-05-06_15h40.47.719,Parachute,2022.1.1,59.950313185943955,
positive,red,2,None,None,,,,,,,,,0,227,227,227,,,,,,,,,,,,,,,,,,,,,,,,,,,,,,,,,,,,,main,None,None,1,1.4992063999525271,736.0094155999832,None,None,1,,,,,,,,,,,,,,120,30,Female,2022-05-06_15h40.47.719,Parachute,2022.1.1,59.950313185943955,
positive,blue,2,k,None,,,,,,,,,0,228,228,228,,,,,,,,,,,,,,,,,,,,,,,,,,,,,,,,,,,,,main,k,k,1,1.0201964000007138,738.5098577999743,None,None,0,,,,,,,,,,,,,,120,30,Female,2022-05-06_15h40.47.719,Parachute,2022.1.1,59.950313185943955,
negative,blue,1,None,k,,,,,,,,,0,229,229,229,,,,,,,,,,,,,,,,,,,,,,,,,,,,,,,,,,,,,main,None,None,1,1.4933517000172287,740.5289547999855,None,None,1,,,,,,,,,,,,,,120,30,Female,2022-05-06_15h40.47.719,Parachute,2022.1.1,59.950313185943955,
positive,yellow,1,None,k,,,,,,,,,0,230,230,230,,,,,,,,,,,,,,,,,,,,,,,,,,,,,,,,,,,,,main,None,None,1,1.4989531000028364,743.0269208999816,None,None,1,,,,,,,,,,,,,,120,30,Female,2022-05-06_15h40.47.719,Parachute,2022.1.1,59.950313185943955,
negative,blue,2,None,k,,,,,,,,,0,231,231,231,,,,,,,,,,,,,,,,,,,,,,,,,,,,,,,,,,,,,main,None,None,1,1.4981927000335418,745.5267401000019,None,None,1,,,,,,,,,,,,,,120,30,Female,2022-05-06_15h40.47.719,Parachute,2022.1.1,59.950313185943955,
negative,red,1,None,None,,,,,,,,,0,232,232,232,,,,,,,,,,,,,,,,,,,,,,,,,,,,,,,,,,,,,main,None,None,1,1.4986046999692917,748.0259384000092,None,None,1,,,,,,,,,,,,,,120,30,Female,2022-05-06_15h40.47.719,Parachute,2022.1.1,59.950313185943955,
positive,blue,2,k,None,,,,,,,,,0,233,233,233,,,,,,,,,,,,,,,,,,,,,,,,,,,,,,,,,,,,,main,k,k,1,0.7027948999893852,750.5265212999657,None,None,0,,,,,,,,,,,,,,120,30,Female,2022-05-06_15h40.47.719,Parachute,2022.1.1,59.950313185943955,
negative,yellow,1,k,None,,,,,,,,,0,234,234,234,,,,,,,,,,,,,,,,,,,,,,,,,,,,,,,,,,,,,main,k,k,1,0.7650881999870762,752.2291798000224,None,None,0,,,,,,,,,,,,,,120,30,Female,2022-05-06_15h40.47.719,Parachute,2022.1.1,59.950313185943955,
negative,yellow,2,k,None,,,,,,,,,0,235,235,235,,,,,,,,,,,,,,,,,,,,,,,,,,,,,,,,,,,,,main,k,k,1,0.72505289997207,753.995751600014,None,None,0,,,,,,,,,,,,,,120,30,Female,2022-05-06_15h40.47.719,Parachute,2022.1.1,59.950313185943955,
positive,red,1,None,None,,,,,,,,,0,236,236,236,,,,,,,,,,,,,,,,,,,,,,,,,,,,,,,,,,,,,main,None,None,1,1.5015021999715827,755.7237396999844,None,None,1,,,,,,,,,,,,,,120,30,Female,2022-05-06_15h40.47.719,Parachute,2022.1.1,59.950313185943955,
negative,red,2,None,None,,,,,,,,,0,237,237,237,,,,,,,,,,,,,,,,,,,,,,,,,,,,,,,,,,,,,main,None,None,1,1.4987811000319198,758.2270505999913,None,None,1,,,,,,,,,,,,,,120,30,Female,2022-05-06_15h40.47.719,Parachute,2022.1.1,59.950313185943955,
negative,blue,1,None,k,,,,,,,,,0,238,238,238,,,,,,,,,,,,,,,,,,,,,,,,,,,,,,,,,,,,,main,None,None,1,1.4985121000208892,760.7271824000054,None,None,1,,,,,,,,,,,,,,120,30,Female,2022-05-06_15h40.47.719,Parachute,2022.1.1,59.950313185943955,
positive,blue,1,k,None,,,,,,,,,0,239,239,239,,,,,,,,,,,,,,,,,,,,,,,,,,,,,,,,,,,,,main,k,k,1,0.7031747999717481,763.2272449000156,None,None,0,,,,,,,,,,,,,,120,30,Female,2022-05-06_15h40.47.719,Parachute,2022.1.1,59.950313185943955,
,,,,,,,,,,,,,,,,,,,,,,,,,,,,,,,,,,,,,,,,,,,,,,,,,,,,,,,,,,,,,,,,,,,,,,,,,764.9246232999722,None,,,,,,,,
