distractor,target,set,ans1,ans2,rep_loop4.thisRepN,rep_loop4.thisTrialN,rep_loop4.thisN,rep_loop4.thisIndex,st2_prac_loop.thisRepN,st2_prac_loop.thisTrialN,st2_prac_loop.thisN,st2_prac_loop.thisIndex,st2_main_loop.thisRepN,st2_main_loop.thisTrialN,st2_main_loop.thisN,st2_main_loop.thisIndex,image_4.started,image_4.stopped,mouse_7.x,mouse_7.y,mouse_7.leftButton,mouse_7.midButton,mouse_7.rightButton,sound_2.started,sound_2.stopped,key_resp_3.keys,mouse_5.x,mouse_5.y,mouse_5.leftButton,mouse_5.midButton,mouse_5.rightButton,mouse_5.started,mouse_5.stopped,yes_text2.started,yes_text2.stopped,no_text2.started,no_text2.stopped,mouse_3.x,mouse_3.y,mouse_3.leftButton,mouse_3.midButton,mouse_3.rightButton,mouse_3.started,mouse_3.stopped,st_prac_back.started,st_prac_back.stopped,st_prac_text.started,st_prac_text.stopped,st_fix_back.started,st_fix_back.stopped,st_fix_2.started,st_fix_2.stopped,main_prac,st_ans,st_res,st_corr,st_rt,st_back.started,st_back.stopped,st2_resp.keys,st2_resp.corr,st_main_back.started,st_main_back.stopped,st_main_text.started,st_main_text.stopped,mouse_4.x,mouse_4.y,mouse_4.leftButton,mouse_4.midButton,mouse_4.rightButton,mouse_4.started,mouse_4.stopped,text_2.started,text_2.stopped,id*,age*,gender*,date,expName,psychopyVersion,frameRate,
,,,,,,,,,,,,,,,,,33.658430300070904,None,-0.08425926,-0.08055556,0,0,0,,,,,,,,,,,,,,,,,,,,,,,,,,,,,,,,,,,,,,,,,,,,,,,,,,,,121,22,Female,2022-05-09_09h46.00.170,Parachute,2022.1.1,60.208937074314704,
negative,yellow,1,k,None,,,,,0,0,0,0,,,,,,,,,,,,97.74666757000378,None,None,0.108333334,-0.14351852,0,0,0,1.0073752499883994,None,101.5465454000514,None,101.5465454000514,None,-0.08981481,-0.1287037,0,0,0,0.012338070082478225,None,102.68653100007214,None,102.68653100007214,None,104.69532440009061,None,104.69532440009061,None,prac,None,None,1,1.5097928999457508,106.71933260001242,None,None,1,,,,,,,,,,,,,,121,22,Female,2022-05-09_09h46.00.170,Parachute,2022.1.1,60.208937074314704,
positive,red,2,None,None,,,,,0,1,1,1,,,,,,,,,,,,,,,,,,,,,,,,,,,,,,,,,,,,,,,,,prac,None,None,1,1.4985442999750376,109.20593950001057,None,None,1,,,,,,,,,,,,,,121,22,Female,2022-05-09_09h46.00.170,Parachute,2022.1.1,60.208937074314704,
negative,blue,2,None,k,,,,,0,2,2,2,,,,,,,,,,,,,,,,,,,,,,,,,,,,,,,,,,,,,,,,,prac,k,k,1,0.7196234000148252,111.7059115000302,None,None,0,,,,,,,,,,,,,,121,22,Female,2022-05-09_09h46.00.170,Parachute,2022.1.1,60.208937074314704,
positive,yellow,1,None,k,,,,,0,3,3,3,,,,,,,,,,,,,,,,,,,,,,,,,,,,,,,,,,,,,,,,,prac,k,k,1,0.6496180000249296,113.42518630006816,None,None,0,,,,,,,,,,,,,,121,22,Female,2022-05-09_09h46.00.170,Parachute,2022.1.1,60.208937074314704,
negative,blue,2,None,k,,,,,0,4,4,4,,,,,,,,,,,,,,,,,,,,,,,,,,,,,,,,,,,,,,,,,prac,k,k,1,0.8649251000024378,115.07937500008848,None,None,0,,,,,,,,,,,,,,121,22,Female,2022-05-09_09h46.00.170,Parachute,2022.1.1,60.208937074314704,
negative,blue,1,None,k,,,,,0,5,5,5,,,,,,,,,,,,,,,,,,,,,,,,,,,,,,,,,,,,,,,,,prac,k,k,1,0.998370400047861,116.93529120006133,None,None,0,,,,,,,,,,,,,,121,22,Female,2022-05-09_09h46.00.170,Parachute,2022.1.1,60.208937074314704,
negative,yellow,2,k,None,,,,,0,6,6,6,,,,,,,,,,,,,,,,,,,,,,,,,,,,,,,,,,,,,,,,,prac,None,None,1,1.4939900001045316,118.935175599996,None,None,1,,,,,,,,,,,,,,121,22,Female,2022-05-09_09h46.00.170,Parachute,2022.1.1,60.208937074314704,
negative,red,1,None,None,,,,,0,7,7,7,,,,,,,,,,,,,,,,,,,,,,,,,,,,,,,,,,,,,,,,,prac,None,None,1,1.4985438000876456,121.4381424000021,None,None,1,,,,,,,,,,,,,,121,22,Female,2022-05-09_09h46.00.170,Parachute,2022.1.1,60.208937074314704,
positive,yellow,2,None,k,,,,,0,8,8,8,,,,,,,,,,,,,,,,,,,,,,,,,,,,,,,,,,,,,,,,,prac,k,k,1,0.8692069000098854,123.9389680000022,None,None,0,,,,,,,,,,,,,,121,22,Female,2022-05-09_09h46.00.170,Parachute,2022.1.1,60.208937074314704,
negative,yellow,1,k,None,,,,,0,9,9,9,,,,,,,,,,,,,,,,,,,,,,,,,,,,,,,,,,,,,,,,,prac,None,None,1,1.4941111999796703,125.80195190000813,None,None,1,,,,,,,,,,,,,,121,22,Female,2022-05-09_09h46.00.170,Parachute,2022.1.1,60.208937074314704,
positive,yellow,2,None,k,,,,,0,10,10,10,,,,,,,,,,,,,,,,,,,,,,,,,,,,,,,,,,,,,,,,,prac,k,k,1,0.5704432000638917,128.29949130001478,None,None,0,,,,,,,,,,,,,,121,22,Female,2022-05-09_09h46.00.170,Parachute,2022.1.1,60.208937074314704,
negative,yellow,2,k,None,,,,,0,11,11,11,,,,,,,,,,,,,,,,,,,,,,,,,,,,,,,,,,,,,,,,,prac,None,None,1,1.4933391000377014,129.8686752000358,None,None,1,,,,,,,,,,,,,,121,22,Female,2022-05-09_09h46.00.170,Parachute,2022.1.1,60.208937074314704,
negative,red,2,None,None,,,,,0,12,12,12,,,,,,,,,,,,,,,,,,,,,,,,,,,,,,,,,,,,,,,,,prac,None,None,1,1.4988224999979138,132.366050700075,None,None,1,,,,,,,,,,,,,,121,22,Female,2022-05-09_09h46.00.170,Parachute,2022.1.1,60.208937074314704,
positive,red,1,None,None,,,,,0,13,13,13,,,,,,,,,,,,,,,,,,,,,,,,,,,,,,,,,,,,,,,,,prac,None,None,1,1.4984628999372944,134.86666649999097,None,None,1,,,,,,,,,,,,,,121,22,Female,2022-05-09_09h46.00.170,Parachute,2022.1.1,60.208937074314704,
positive,blue,2,k,None,,,,,0,14,14,14,,,,,,,,,,,,,,,,,,,,,,,,,,,,,,,,,,,,,,,,,prac,None,None,1,1.4985731999622658,137.3664516999852,None,None,1,,,,,,,,,,,,,,121,22,Female,2022-05-09_09h46.00.170,Parachute,2022.1.1,60.208937074314704,
positive,blue,1,k,None,,,,,0,15,15,15,,,,,,,,,,,,,,,,,,,,,,,,,,,,,,,,,,,,,,,,,prac,None,None,1,1.4987527000484988,139.87174349999987,None,None,1,,,,,,,,,,,,,,121,22,Female,2022-05-09_09h46.00.170,Parachute,2022.1.1,60.208937074314704,
negative,blue,1,None,k,,,,,0,16,16,16,,,,,,,,,,,,,,,,,,,,,,,,,,,,,,,,,,,,,,,,,prac,k,k,1,0.6202797999139875,142.3667355000507,None,None,0,,,,,,,,,,,,,,121,22,Female,2022-05-09_09h46.00.170,Parachute,2022.1.1,60.208937074314704,
positive,blue,2,k,None,,,,,0,17,17,17,,,,,,,,,,,,,,,,,,,,,,,,,,,,,,,,,,,,,,,,,prac,None,None,1,1.493720900034532,143.9860420000041,None,None,1,,,,,,,,,,,,,,121,22,Female,2022-05-09_09h46.00.170,Parachute,2022.1.1,60.208937074314704,
positive,blue,1,k,None,,,,,0,18,18,18,,,,,,,,,,,,,,,,,,,,,,,,,,,,,,,,,,,,,,,,,prac,None,None,1,1.4986180999549106,146.48291680007242,None,None,1,,,,,,,,,,,,,,121,22,Female,2022-05-09_09h46.00.170,Parachute,2022.1.1,60.208937074314704,
positive,yellow,1,None,k,,,,,0,19,19,19,,,,,,,,,,,,,,,,,,,,,,,,,,,,,,,,,,,,,,,,,prac,k,k,1,1.0960170000325888,148.98338059999514,None,None,0,,,,,,,,,,,,,,121,22,Female,2022-05-09_09h46.00.170,Parachute,2022.1.1,60.208937074314704,
negative,yellow,1,k,None,,,,,1,0,20,0,,,,,,,,,,,,,,,,,,,,,,,,,,,,,,,,,,,,,,,,,prac,None,None,1,1.5019851999823004,151.08090290008113,None,None,1,,,,,,,,,,,,,,121,22,Female,2022-05-09_09h46.00.170,Parachute,2022.1.1,60.208937074314704,
positive,red,2,None,None,,,,,1,1,21,1,,,,,,,,,,,,,,,,,,,,,,,,,,,,,,,,,,,,,,,,,prac,None,None,1,1.498675400041975,153.5846853000112,None,None,1,,,,,,,,,,,,,,121,22,Female,2022-05-09_09h46.00.170,Parachute,2022.1.1,60.208937074314704,
negative,blue,2,None,k,,,,,1,2,22,2,,,,,,,,,,,,,,,,,,,,,,,,,,,,,,,,,,,,,,,,,prac,k,k,1,0.6331404999364167,156.08533690008335,None,None,0,,,,,,,,,,,,,,121,22,Female,2022-05-09_09h46.00.170,Parachute,2022.1.1,60.208937074314704,
positive,yellow,1,None,k,,,,,1,3,23,3,,,,,,,,,,,,,,,,,,,,,,,,,,,,,,,,,,,,,,,,,prac,k,k,1,0.7344713000347838,157.719429400051,None,None,0,,,,,,,,,,,,,,121,22,Female,2022-05-09_09h46.00.170,Parachute,2022.1.1,60.208937074314704,
negative,blue,2,None,k,,,,,1,4,24,4,,,,,,,,,,,,,,,,,,,,,,,,,,,,,,,,,,,,,,,,,prac,k,k,1,0.6156090999720618,159.4526257000398,None,None,0,,,,,,,,,,,,,,121,22,Female,2022-05-09_09h46.00.170,Parachute,2022.1.1,60.208937074314704,
negative,blue,1,None,k,,,,,1,5,25,5,,,,,,,,,,,,,,,,,,,,,,,,,,,,,,,,,,,,,,,,,prac,k,k,1,0.680438100011088,161.06985010008793,None,None,0,,,,,,,,,,,,,,121,22,Female,2022-05-09_09h46.00.170,Parachute,2022.1.1,60.208937074314704,
negative,yellow,2,k,None,,,,,1,6,26,6,,,,,,,,,,,,,,,,,,,,,,,,,,,,,,,,,,,,,,,,,prac,None,k,0,0.5500605000415817,162.75281119998544,None,None,1,,,,,,,,,,,,,,121,22,Female,2022-05-09_09h46.00.170,Parachute,2022.1.1,60.208937074314704,
negative,red,1,None,None,,,,,1,7,27,7,,,,,,,,,,,,,,,,,,,,,,,,,,,,,,,,,,,,,,,,,prac,None,None,1,1.5021118998993188,165.33075920003466,None,None,1,,,,,,,,,,,,,,121,22,Female,2022-05-09_09h46.00.170,Parachute,2022.1.1,60.208937074314704,
positive,yellow,2,None,k,,,,,1,8,28,8,,,,,,,,,,,,,,,,,,,,,,,,,,,,,,,,,,,,,,,,,prac,k,k,1,0.6522263999795541,167.83489529998042,None,None,0,,,,,,,,,,,,,,121,22,Female,2022-05-09_09h46.00.170,Parachute,2022.1.1,60.208937074314704,
negative,yellow,1,k,None,,,,,1,9,29,9,,,,,,,,,,,,,,,,,,,,,,,,,,,,,,,,,,,,,,,,,prac,None,None,1,1.4945806000614539,169.48609170003328,None,None,1,,,,,,,,,,,,,,121,22,Female,2022-05-09_09h46.00.170,Parachute,2022.1.1,60.208937074314704,
positive,yellow,2,None,k,,,,,1,10,30,10,,,,,,,,,,,,,,,,,,,,,,,,,,,,,,,,,,,,,,,,,prac,k,k,1,0.5870475999545306,171.98355730006006,None,None,0,,,,,,,,,,,,,,121,22,Female,2022-05-09_09h46.00.170,Parachute,2022.1.1,60.208937074314704,
negative,yellow,2,k,None,,,,,1,11,31,11,,,,,,,,,,,,,,,,,,,,,,,,,,,,,,,,,,,,,,,,,prac,None,None,1,1.4933255999349058,173.5695889000781,None,None,1,,,,,,,,,,,,,,121,22,Female,2022-05-09_09h46.00.170,Parachute,2022.1.1,60.208937074314704,
negative,red,2,None,None,,,,,1,12,32,12,,,,,,,,,,,,,,,,,,,,,,,,,,,,,,,,,,,,,,,,,prac,None,None,1,1.498344000079669,176.06672390003223,None,None,1,,,,,,,,,,,,,,121,22,Female,2022-05-09_09h46.00.170,Parachute,2022.1.1,60.208937074314704,
positive,red,1,None,None,,,,,1,13,33,13,,,,,,,,,,,,,,,,,,,,,,,,,,,,,,,,,,,,,,,,,prac,None,None,1,1.4992137000663206,178.5662637000205,None,None,1,,,,,,,,,,,,,,121,22,Female,2022-05-09_09h46.00.170,Parachute,2022.1.1,60.208937074314704,
positive,blue,2,k,None,,,,,1,14,34,14,,,,,,,,,,,,,,,,,,,,,,,,,,,,,,,,,,,,,,,,,prac,None,None,1,1.4981938001001254,181.0680810000049,None,None,1,,,,,,,,,,,,,,121,22,Female,2022-05-09_09h46.00.170,Parachute,2022.1.1,60.208937074314704,
positive,blue,1,k,None,,,,,1,15,35,15,,,,,,,,,,,,,,,,,,,,,,,,,,,,,,,,,,,,,,,,,prac,None,None,1,1.498931400012225,183.567132199998,None,None,1,,,,,,,,,,,,,,121,22,Female,2022-05-09_09h46.00.170,Parachute,2022.1.1,60.208937074314704,
negative,blue,1,None,k,,,,,1,16,36,16,,,,,,,,,,,,,,,,,,,,,,,,,,,,,,,,,,,,,,,,,prac,k,k,1,0.6843800999922678,186.06765860004816,None,None,0,,,,,,,,,,,,,,121,22,Female,2022-05-09_09h46.00.170,Parachute,2022.1.1,60.208937074314704,
positive,blue,2,k,None,,,,,1,17,37,17,,,,,,,,,,,,,,,,,,,,,,,,,,,,,,,,,,,,,,,,,prac,None,None,1,1.4957560000475496,187.7536534999963,None,None,1,,,,,,,,,,,,,,121,22,Female,2022-05-09_09h46.00.170,Parachute,2022.1.1,60.208937074314704,
positive,blue,1,k,None,,,,,1,18,38,18,,,,,,,,,,,,,,,,,,,,,,,,,,,,,,,,,,,,,,,,,prac,None,None,1,1.4982347000623122,190.25062529998831,None,None,1,,,,,,,,,,,,,,121,22,Female,2022-05-09_09h46.00.170,Parachute,2022.1.1,60.208937074314704,
positive,yellow,1,None,k,,,,,1,19,39,19,,,,,,,,,,,,,,,,,,,,,,,,,,,,,,,,,,,,,,,,,prac,k,k,1,0.7044390999944881,192.74965340003837,None,None,0,,,,,,,,,,,,,,121,22,Female,2022-05-09_09h46.00.170,Parachute,2022.1.1,60.208937074314704,
,,,,,,,,,,,,,,,,,,,,,,,,,,,,,,,,,,,,,,,,,,,,,,,,,,,,,,,,,,,,,,194.48160699999426,None,194.48160699999426,None,0.008333334,-0.07037037,0,0,0,0.012109169852919877,None,,,121,22,Female,2022-05-09_09h46.00.170,Parachute,2022.1.1,60.208937074314704,
negative,yellow,2,k,None,,,,,,,,,0,0,0,0,,,,,,,,,,,,,,,,,,,,,,,,,,,,,,,,,203.91518080001697,None,203.91518080001697,None,main,None,None,1,1.5044204000150785,205.9584583999822,None,None,1,,,,,,,,,,,,,,121,22,Female,2022-05-09_09h46.00.170,Parachute,2022.1.1,60.208937074314704,
positive,red,1,None,None,,,,,,,,,0,1,1,1,,,,,,,,,,,,,,,,,,,,,,,,,,,,,,,,,,,,,main,None,None,1,1.4984212999697775,208.46803910005838,None,None,1,,,,,,,,,,,,,,121,22,Female,2022-05-09_09h46.00.170,Parachute,2022.1.1,60.208937074314704,
positive,blue,2,k,None,,,,,,,,,0,2,2,2,,,,,,,,,,,,,,,,,,,,,,,,,,,,,,,,,,,,,main,None,None,1,1.4986166999442503,210.96761260007042,None,None,1,,,,,,,,,,,,,,121,22,Female,2022-05-09_09h46.00.170,Parachute,2022.1.1,60.208937074314704,
positive,blue,1,k,None,,,,,,,,,0,3,3,3,,,,,,,,,,,,,,,,,,,,,,,,,,,,,,,,,,,,,main,None,None,1,1.4989792000269517,213.46783009998035,None,None,1,,,,,,,,,,,,,,121,22,Female,2022-05-09_09h46.00.170,Parachute,2022.1.1,60.208937074314704,
negative,yellow,2,k,None,,,,,,,,,0,4,4,4,,,,,,,,,,,,,,,,,,,,,,,,,,,,,,,,,,,,,main,None,None,1,1.498063699924387,215.96839669998735,None,None,1,,,,,,,,,,,,,,121,22,Female,2022-05-09_09h46.00.170,Parachute,2022.1.1,60.208937074314704,
positive,yellow,2,None,k,,,,,,,,,0,5,5,5,,,,,,,,,,,,,,,,,,,,,,,,,,,,,,,,,,,,,main,k,k,1,0.6365879999939352,218.46853620000184,None,None,0,,,,,,,,,,,,,,121,22,Female,2022-05-09_09h46.00.170,Parachute,2022.1.1,60.208937074314704,
negative,blue,2,None,k,,,,,,,,,0,6,6,6,,,,,,,,,,,,,,,,,,,,,,,,,,,,,,,,,,,,,main,k,k,1,0.7323186999419704,220.10403560008854,None,None,0,,,,,,,,,,,,,,121,22,Female,2022-05-09_09h46.00.170,Parachute,2022.1.1,60.208937074314704,
positive,red,2,None,None,,,,,,,,,0,7,7,7,,,,,,,,,,,,,,,,,,,,,,,,,,,,,,,,,,,,,main,None,None,1,1.4933592000743374,221.83710650005378,None,None,1,,,,,,,,,,,,,,121,22,Female,2022-05-09_09h46.00.170,Parachute,2022.1.1,60.208937074314704,
positive,yellow,1,None,k,,,,,,,,,0,8,8,8,,,,,,,,,,,,,,,,,,,,,,,,,,,,,,,,,,,,,main,k,k,1,0.7369424999924377,224.33445229998324,None,None,0,,,,,,,,,,,,,,121,22,Female,2022-05-09_09h46.00.170,Parachute,2022.1.1,60.208937074314704,
negative,red,1,None,None,,,,,,,,,0,9,9,9,,,,,,,,,,,,,,,,,,,,,,,,,,,,,,,,,,,,,main,None,None,1,1.4941556000849232,226.0708654000191,None,None,1,,,,,,,,,,,,,,121,22,Female,2022-05-09_09h46.00.170,Parachute,2022.1.1,60.208937074314704,
positive,yellow,1,None,k,,,,,,,,,0,10,10,10,,,,,,,,,,,,,,,,,,,,,,,,,,,,,,,,,,,,,main,k,k,1,0.7856994000030681,228.56875229999423,None,None,0,,,,,,,,,,,,,,121,22,Female,2022-05-09_09h46.00.170,Parachute,2022.1.1,60.208937074314704,
negative,yellow,1,k,None,,,,,,,,,0,11,11,11,,,,,,,,,,,,,,,,,,,,,,,,,,,,,,,,,,,,,main,None,None,1,1.494964399957098,230.35419290000573,None,None,1,,,,,,,,,,,,,,121,22,Female,2022-05-09_09h46.00.170,Parachute,2022.1.1,60.208937074314704,
negative,yellow,1,k,None,,,,,,,,,0,12,12,12,,,,,,,,,,,,,,,,,,,,,,,,,,,,,,,,,,,,,main,None,None,1,1.4984420000109822,232.85190750006586,None,None,1,,,,,,,,,,,,,,121,22,Female,2022-05-09_09h46.00.170,Parachute,2022.1.1,60.208937074314704,
negative,red,2,None,None,,,,,,,,,0,13,13,13,,,,,,,,,,,,,,,,,,,,,,,,,,,,,,,,,,,,,main,None,None,1,1.4987033000215888,235.352029300062,None,None,1,,,,,,,,,,,,,,121,22,Female,2022-05-09_09h46.00.170,Parachute,2022.1.1,60.208937074314704,
positive,yellow,2,None,k,,,,,,,,,0,14,14,14,,,,,,,,,,,,,,,,,,,,,,,,,,,,,,,,,,,,,main,k,k,1,0.5875944000435993,237.85229350009467,None,None,0,,,,,,,,,,,,,,121,22,Female,2022-05-09_09h46.00.170,Parachute,2022.1.1,60.208937074314704,
positive,blue,1,k,None,,,,,,,,,0,15,15,15,,,,,,,,,,,,,,,,,,,,,,,,,,,,,,,,,,,,,main,None,None,1,1.4929059999994934,239.43874830007553,None,None,1,,,,,,,,,,,,,,121,22,Female,2022-05-09_09h46.00.170,Parachute,2022.1.1,60.208937074314704,
negative,blue,1,None,k,,,,,,,,,0,16,16,16,,,,,,,,,,,,,,,,,,,,,,,,,,,,,,,,,,,,,main,k,k,1,0.5537768999347463,241.9350900000427,None,None,0,,,,,,,,,,,,,,121,22,Female,2022-05-09_09h46.00.170,Parachute,2022.1.1,60.208937074314704,
positive,blue,2,k,None,,,,,,,,,0,17,17,17,,,,,,,,,,,,,,,,,,,,,,,,,,,,,,,,,,,,,main,None,None,1,1.4939497999148443,243.48785380006302,None,None,1,,,,,,,,,,,,,,121,22,Female,2022-05-09_09h46.00.170,Parachute,2022.1.1,60.208937074314704,
negative,blue,2,None,k,,,,,,,,,0,18,18,18,,,,,,,,,,,,,,,,,,,,,,,,,,,,,,,,,,,,,main,k,k,1,0.603425299981609,245.98595510004088,None,None,0,,,,,,,,,,,,,,121,22,Female,2022-05-09_09h46.00.170,Parachute,2022.1.1,60.208937074314704,
negative,blue,1,None,k,,,,,,,,,0,19,19,19,,,,,,,,,,,,,,,,,,,,,,,,,,,,,,,,,,,,,main,k,k,1,0.6305721999378875,247.58789339999203,None,None,0,,,,,,,,,,,,,,121,22,Female,2022-05-09_09h46.00.170,Parachute,2022.1.1,60.208937074314704,
negative,blue,1,None,k,,,,,,,,,0,20,20,20,,,,,,,,,,,,,,,,,,,,,,,,,,,,,,,,,,,,,main,k,k,1,0.566296299919486,249.22964120004326,None,None,0,,,,,,,,,,,,,,121,22,Female,2022-05-09_09h46.00.170,Parachute,2022.1.1,60.208937074314704,
negative,blue,2,None,k,,,,,,,,,0,21,21,21,,,,,,,,,,,,,,,,,,,,,,,,,,,,,,,,,,,,,main,k,k,1,0.7151873999973759,250.7881158000091,None,None,0,,,,,,,,,,,,,,121,22,Female,2022-05-09_09h46.00.170,Parachute,2022.1.1,60.208937074314704,
negative,red,1,None,None,,,,,,,,,0,22,22,22,,,,,,,,,,,,,,,,,,,,,,,,,,,,,,,,,,,,,main,None,None,1,1.493846399942413,252.50465440005064,None,None,1,,,,,,,,,,,,,,121,22,Female,2022-05-09_09h46.00.170,Parachute,2022.1.1,60.208937074314704,
positive,red,2,None,None,,,,,,,,,0,23,23,23,,,,,,,,,,,,,,,,,,,,,,,,,,,,,,,,,,,,,main,None,None,1,1.4987043000292033,255.00205400004052,None,None,1,,,,,,,,,,,,,,121,22,Female,2022-05-09_09h46.00.170,Parachute,2022.1.1,60.208937074314704,
negative,red,2,None,None,,,,,,,,,0,24,24,24,,,,,,,,,,,,,,,,,,,,,,,,,,,,,,,,,,,,,main,None,None,1,1.4988455000566319,257.5025901000481,None,None,1,,,,,,,,,,,,,,121,22,Female,2022-05-09_09h46.00.170,Parachute,2022.1.1,60.208937074314704,
positive,blue,2,k,None,,,,,,,,,0,25,25,25,,,,,,,,,,,,,,,,,,,,,,,,,,,,,,,,,,,,,main,None,None,1,1.498713899985887,260.0026928000152,None,None,1,,,,,,,,,,,,,,121,22,Female,2022-05-09_09h46.00.170,Parachute,2022.1.1,60.208937074314704,
negative,yellow,1,k,None,,,,,,,,,0,26,26,26,,,,,,,,,,,,,,,,,,,,,,,,,,,,,,,,,,,,,main,None,None,1,1.4985664999112487,262.50269320001826,None,None,1,,,,,,,,,,,,,,121,22,Female,2022-05-09_09h46.00.170,Parachute,2022.1.1,60.208937074314704,
positive,blue,2,k,None,,,,,,,,,0,27,27,27,,,,,,,,,,,,,,,,,,,,,,,,,,,,,,,,,,,,,main,None,None,1,1.498662899946794,265.00240940006915,None,None,1,,,,,,,,,,,,,,121,22,Female,2022-05-09_09h46.00.170,Parachute,2022.1.1,60.208937074314704,
negative,blue,2,None,k,,,,,,,,,0,28,28,28,,,,,,,,,,,,,,,,,,,,,,,,,,,,,,,,,,,,,main,k,k,1,0.7036282999906689,267.5021686999826,None,None,0,,,,,,,,,,,,,,121,22,Female,2022-05-09_09h46.00.170,Parachute,2022.1.1,60.208937074314704,
positive,red,1,None,None,,,,,,,,,0,29,29,29,,,,,,,,,,,,,,,,,,,,,,,,,,,,,,,,,,,,,main,None,None,1,1.493917900021188,269.2046114000259,None,None,1,,,,,,,,,,,,,,121,22,Female,2022-05-09_09h46.00.170,Parachute,2022.1.1,60.208937074314704,
positive,blue,1,k,None,,,,,,,,,0,30,30,30,,,,,,,,,,,,,,,,,,,,,,,,,,,,,,,,,,,,,main,None,None,1,1.49862669990398,271.70259060000535,None,None,1,,,,,,,,,,,,,,121,22,Female,2022-05-09_09h46.00.170,Parachute,2022.1.1,60.208937074314704,
positive,yellow,1,None,k,,,,,,,,,0,31,31,31,,,,,,,,,,,,,,,,,,,,,,,,,,,,,,,,,,,,,main,k,k,1,0.7201961999526247,274.2028805000009,None,None,0,,,,,,,,,,,,,,121,22,Female,2022-05-09_09h46.00.170,Parachute,2022.1.1,60.208937074314704,
negative,yellow,2,k,None,,,,,,,,,0,32,32,32,,,,,,,,,,,,,,,,,,,,,,,,,,,,,,,,,,,,,main,None,None,1,1.4937305999919772,275.9222802000586,None,None,1,,,,,,,,,,,,,,121,22,Female,2022-05-09_09h46.00.170,Parachute,2022.1.1,60.208937074314704,
negative,blue,1,None,k,,,,,,,,,0,33,33,33,,,,,,,,,,,,,,,,,,,,,,,,,,,,,,,,,,,,,main,k,k,1,0.8536317999241874,278.41991789999884,None,None,0,,,,,,,,,,,,,,121,22,Female,2022-05-09_09h46.00.170,Parachute,2022.1.1,60.208937074314704,
positive,blue,1,k,None,,,,,,,,,0,34,34,34,,,,,,,,,,,,,,,,,,,,,,,,,,,,,,,,,,,,,main,None,None,1,1.4936022999463603,280.2729729000712,None,None,1,,,,,,,,,,,,,,121,22,Female,2022-05-09_09h46.00.170,Parachute,2022.1.1,60.208937074314704,
negative,yellow,1,k,None,,,,,,,,,0,35,35,35,,,,,,,,,,,,,,,,,,,,,,,,,,,,,,,,,,,,,main,None,None,1,1.4983079999219626,282.7702270000009,None,None,1,,,,,,,,,,,,,,121,22,Female,2022-05-09_09h46.00.170,Parachute,2022.1.1,60.208937074314704,
positive,yellow,2,None,k,,,,,,,,,0,36,36,36,,,,,,,,,,,,,,,,,,,,,,,,,,,,,,,,,,,,,main,k,k,1,0.6369615000439808,285.2701162000885,None,None,0,,,,,,,,,,,,,,121,22,Female,2022-05-09_09h46.00.170,Parachute,2022.1.1,60.208937074314704,
positive,yellow,2,None,k,,,,,,,,,0,37,37,37,,,,,,,,,,,,,,,,,,,,,,,,,,,,,,,,,,,,,main,k,k,1,0.5984125999966636,286.9056517999852,None,None,0,,,,,,,,,,,,,,121,22,Female,2022-05-09_09h46.00.170,Parachute,2022.1.1,60.208937074314704,
negative,yellow,2,k,None,,,,,,,,,0,38,38,38,,,,,,,,,,,,,,,,,,,,,,,,,,,,,,,,,,,,,main,None,None,1,1.4931549999164417,288.50532080000266,None,None,1,,,,,,,,,,,,,,121,22,Female,2022-05-09_09h46.00.170,Parachute,2022.1.1,60.208937074314704,
positive,yellow,1,None,k,,,,,,,,,0,39,39,39,,,,,,,,,,,,,,,,,,,,,,,,,,,,,,,,,,,,,main,k,k,1,0.6042407000204548,291.00244950002525,None,None,0,,,,,,,,,,,,,,121,22,Female,2022-05-09_09h46.00.170,Parachute,2022.1.1,60.208937074314704,
negative,yellow,2,k,None,,,,,,,,,0,40,40,40,,,,,,,,,,,,,,,,,,,,,,,,,,,,,,,,,,,,,main,None,None,1,1.4934972999617457,292.6056527000619,None,None,1,,,,,,,,,,,,,,121,22,Female,2022-05-09_09h46.00.170,Parachute,2022.1.1,60.208937074314704,
positive,blue,2,k,None,,,,,,,,,0,41,41,41,,,,,,,,,,,,,,,,,,,,,,,,,,,,,,,,,,,,,main,None,None,1,1.4985896999714896,295.10318119998556,None,None,1,,,,,,,,,,,,,,121,22,Female,2022-05-09_09h46.00.170,Parachute,2022.1.1,60.208937074314704,
positive,blue,2,k,None,,,,,,,,,0,42,42,42,,,,,,,,,,,,,,,,,,,,,,,,,,,,,,,,,,,,,main,None,None,1,1.4983389000408351,297.6028248000657,None,None,1,,,,,,,,,,,,,,121,22,Female,2022-05-09_09h46.00.170,Parachute,2022.1.1,60.208937074314704,
negative,blue,2,None,k,,,,,,,,,0,43,43,43,,,,,,,,,,,,,,,,,,,,,,,,,,,,,,,,,,,,,main,k,k,1,0.5547468999866396,300.1026411000639,None,None,0,,,,,,,,,,,,,,121,22,Female,2022-05-09_09h46.00.170,Parachute,2022.1.1,60.208937074314704,
negative,red,1,None,None,,,,,,,,,0,44,44,44,,,,,,,,,,,,,,,,,,,,,,,,,,,,,,,,,,,,,main,None,None,1,1.50919030001387,301.65756810002495,None,None,1,,,,,,,,,,,,,,121,22,Female,2022-05-09_09h46.00.170,Parachute,2022.1.1,60.208937074314704,
negative,yellow,1,k,None,,,,,,,,,0,45,45,45,,,,,,,,,,,,,,,,,,,,,,,,,,,,,,,,,,,,,main,None,None,1,1.4986085999989882,304.16997869999614,None,None,1,,,,,,,,,,,,,,121,22,Female,2022-05-09_09h46.00.170,Parachute,2022.1.1,60.208937074314704,
negative,yellow,1,k,None,,,,,,,,,0,46,46,46,,,,,,,,,,,,,,,,,,,,,,,,,,,,,,,,,,,,,main,None,None,1,1.4987028000177816,306.6694895999972,None,None,1,,,,,,,,,,,,,,121,22,Female,2022-05-09_09h46.00.170,Parachute,2022.1.1,60.208937074314704,
positive,red,1,None,None,,,,,,,,,0,47,47,47,,,,,,,,,,,,,,,,,,,,,,,,,,,,,,,,,,,,,main,None,None,1,1.4989166000159457,309.169996200013,None,None,1,,,,,,,,,,,,,,121,22,Female,2022-05-09_09h46.00.170,Parachute,2022.1.1,60.208937074314704,
positive,yellow,1,None,k,,,,,,,,,0,48,48,48,,,,,,,,,,,,,,,,,,,,,,,,,,,,,,,,,,,,,main,k,k,1,0.553932800074108,311.6705343000358,None,None,0,,,,,,,,,,,,,,121,22,Female,2022-05-09_09h46.00.170,Parachute,2022.1.1,60.208937074314704,
negative,blue,1,None,k,,,,,,,,,0,49,49,49,,,,,,,,,,,,,,,,,,,,,,,,,,,,,,,,,,,,,main,k,k,1,0.6816104000899941,313.22344129998237,None,None,0,,,,,,,,,,,,,,121,22,Female,2022-05-09_09h46.00.170,Parachute,2022.1.1,60.208937074314704,
positive,yellow,2,None,k,,,,,,,,,0,50,50,50,,,,,,,,,,,,,,,,,,,,,,,,,,,,,,,,,,,,,main,k,k,1,0.5822471000719815,314.90662350005005,None,None,0,,,,,,,,,,,,,,121,22,Female,2022-05-09_09h46.00.170,Parachute,2022.1.1,60.208937074314704,
negative,blue,1,None,k,,,,,,,,,0,51,51,51,,,,,,,,,,,,,,,,,,,,,,,,,,,,,,,,,,,,,main,k,k,1,0.6136642000637949,316.4899286000291,None,None,0,,,,,,,,,,,,,,121,22,Female,2022-05-09_09h46.00.170,Parachute,2022.1.1,60.208937074314704,
positive,red,2,None,None,,,,,,,,,0,52,52,52,,,,,,,,,,,,,,,,,,,,,,,,,,,,,,,,,,,,,main,None,None,1,1.4946539000375196,318.1060996000888,None,None,1,,,,,,,,,,,,,,121,22,Female,2022-05-09_09h46.00.170,Parachute,2022.1.1,60.208937074314704,
positive,yellow,2,None,k,,,,,,,,,0,53,53,53,,,,,,,,,,,,,,,,,,,,,,,,,,,,,,,,,,,,,main,k,k,1,0.6529079999309033,320.60464560007676,None,None,0,,,,,,,,,,,,,,121,22,Female,2022-05-09_09h46.00.170,Parachute,2022.1.1,60.208937074314704,
negative,red,2,None,None,,,,,,,,,0,54,54,54,,,,,,,,,,,,,,,,,,,,,,,,,,,,,,,,,,,,,main,None,None,1,1.4941811999306083,322.2564270000439,None,None,1,,,,,,,,,,,,,,121,22,Female,2022-05-09_09h46.00.170,Parachute,2022.1.1,60.208937074314704,
positive,yellow,1,None,k,,,,,,,,,0,55,55,55,,,,,,,,,,,,,,,,,,,,,,,,,,,,,,,,,,,,,main,k,k,1,0.6200757999904454,324.75336000008974,None,None,0,,,,,,,,,,,,,,121,22,Female,2022-05-09_09h46.00.170,Parachute,2022.1.1,60.208937074314704,
negative,blue,2,None,k,,,,,,,,,0,56,56,56,,,,,,,,,,,,,,,,,,,,,,,,,,,,,,,,,,,,,main,k,k,1,0.6325781000778079,326.3731418000534,None,None,0,,,,,,,,,,,,,,121,22,Female,2022-05-09_09h46.00.170,Parachute,2022.1.1,60.208937074314704,
positive,blue,1,k,None,,,,,,,,,0,57,57,57,,,,,,,,,,,,,,,,,,,,,,,,,,,,,,,,,,,,,main,None,None,1,1.4935569000663236,328.00656300003175,None,None,1,,,,,,,,,,,,,,121,22,Female,2022-05-09_09h46.00.170,Parachute,2022.1.1,60.208937074314704,
positive,blue,1,k,None,,,,,,,,,0,58,58,58,,,,,,,,,,,,,,,,,,,,,,,,,,,,,,,,,,,,,main,None,None,1,1.498625100008212,330.5041724999901,None,None,1,,,,,,,,,,,,,,121,22,Female,2022-05-09_09h46.00.170,Parachute,2022.1.1,60.208937074314704,
negative,yellow,2,k,None,,,,,,,,,0,59,59,59,,,,,,,,,,,,,,,,,,,,,,,,,,,,,,,,,,,,,main,None,None,1,1.4985805999021977,333.00397810002323,None,None,1,,,,,,,,,,,,,,121,22,Female,2022-05-09_09h46.00.170,Parachute,2022.1.1,60.208937074314704,
positive,red,2,None,None,,,,,,,,,0,60,60,60,,,,,,,,,,,,,,,,,,,,,,,,,,,,,,,,,,,,,main,None,None,1,1.498793700011447,335.50397160009015,None,None,1,,,,,,,,,,,,,,121,22,Female,2022-05-09_09h46.00.170,Parachute,2022.1.1,60.208937074314704,
negative,yellow,1,k,None,,,,,,,,,0,61,61,61,,,,,,,,,,,,,,,,,,,,,,,,,,,,,,,,,,,,,main,None,None,1,1.498323299922049,338.00416980008595,None,None,1,,,,,,,,,,,,,,121,22,Female,2022-05-09_09h46.00.170,Parachute,2022.1.1,60.208937074314704,
negative,red,1,None,None,,,,,,,,,0,62,62,62,,,,,,,,,,,,,,,,,,,,,,,,,,,,,,,,,,,,,main,None,None,1,1.4989995999494568,340.5040194999892,None,None,1,,,,,,,,,,,,,,121,22,Female,2022-05-09_09h46.00.170,Parachute,2022.1.1,60.208937074314704,
negative,blue,1,None,k,,,,,,,,,0,63,63,63,,,,,,,,,,,,,,,,,,,,,,,,,,,,,,,,,,,,,main,k,k,1,1.5536085999337956,343.0044763000915,None,None,0,,,,,,,,,,,,,,121,22,Female,2022-05-09_09h46.00.170,Parachute,2022.1.1,60.208937074314704,
positive,blue,2,k,None,,,,,,,,,0,64,64,64,,,,,,,,,,,,,,,,,,,,,,,,,,,,,,,,,,,,,main,None,None,1,1.5018780999816954,346.5687627000734,None,None,1,,,,,,,,,,,,,,121,22,Female,2022-05-09_09h46.00.170,Parachute,2022.1.1,60.208937074314704,
negative,yellow,2,k,None,,,,,,,,,0,65,65,65,,,,,,,,,,,,,,,,,,,,,,,,,,,,,,,,,,,,,main,None,None,1,1.498386999941431,349.07100390002597,None,None,1,,,,,,,,,,,,,,121,22,Female,2022-05-09_09h46.00.170,Parachute,2022.1.1,60.208937074314704,
positive,yellow,2,None,k,,,,,,,,,0,66,66,66,,,,,,,,,,,,,,,,,,,,,,,,,,,,,,,,,,,,,main,k,k,1,0.6039460999891162,351.5714662000537,None,None,0,,,,,,,,,,,,,,121,22,Female,2022-05-09_09h46.00.170,Parachute,2022.1.1,60.208937074314704,
positive,yellow,2,None,k,,,,,,,,,0,67,67,67,,,,,,,,,,,,,,,,,,,,,,,,,,,,,,,,,,,,,main,k,k,1,0.6485852999612689,353.17370180005673,None,None,0,,,,,,,,,,,,,,121,22,Female,2022-05-09_09h46.00.170,Parachute,2022.1.1,60.208937074314704,
positive,red,1,None,None,,,,,,,,,0,68,68,68,,,,,,,,,,,,,,,,,,,,,,,,,,,,,,,,,,,,,main,None,None,1,1.4932585000060499,354.82350790000055,None,None,1,,,,,,,,,,,,,,121,22,Female,2022-05-09_09h46.00.170,Parachute,2022.1.1,60.208937074314704,
positive,yellow,1,None,k,,,,,,,,,0,69,69,69,,,,,,,,,,,,,,,,,,,,,,,,,,,,,,,,,,,,,main,k,k,1,0.7208366999402642,357.32288410002366,None,None,0,,,,,,,,,,,,,,121,22,Female,2022-05-09_09h46.00.170,Parachute,2022.1.1,60.208937074314704,
negative,yellow,2,k,None,,,,,,,,,0,70,70,70,,,,,,,,,,,,,,,,,,,,,,,,,,,,,,,,,,,,,main,None,None,1,1.4935003999853507,359.0407611000119,None,None,1,,,,,,,,,,,,,,121,22,Female,2022-05-09_09h46.00.170,Parachute,2022.1.1,60.208937074314704,
positive,yellow,1,None,k,,,,,,,,,0,71,71,71,,,,,,,,,,,,,,,,,,,,,,,,,,,,,,,,,,,,,main,k,k,1,0.6354422000003979,361.5376209000824,None,None,0,,,,,,,,,,,,,,121,22,Female,2022-05-09_09h46.00.170,Parachute,2022.1.1,60.208937074314704,
negative,blue,1,None,k,,,,,,,,,0,72,72,72,,,,,,,,,,,,,,,,,,,,,,,,,,,,,,,,,,,,,main,k,k,1,0.6331005999818444,363.1738589000888,None,None,0,,,,,,,,,,,,,,121,22,Female,2022-05-09_09h46.00.170,Parachute,2022.1.1,60.208937074314704,
negative,red,2,None,None,,,,,,,,,0,73,73,73,,,,,,,,,,,,,,,,,,,,,,,,,,,,,,,,,,,,,main,None,None,1,1.4934983999701217,364.80715610005427,None,None,1,,,,,,,,,,,,,,121,22,Female,2022-05-09_09h46.00.170,Parachute,2022.1.1,60.208937074314704,
positive,blue,2,k,None,,,,,,,,,0,74,74,74,,,,,,,,,,,,,,,,,,,,,,,,,,,,,,,,,,,,,main,None,None,1,1.4986690999940038,367.3046224000864,None,None,1,,,,,,,,,,,,,,121,22,Female,2022-05-09_09h46.00.170,Parachute,2022.1.1,60.208937074314704,
negative,blue,2,None,k,,,,,,,,,0,75,75,75,,,,,,,,,,,,,,,,,,,,,,,,,,,,,,,,,,,,,main,k,k,1,0.5536200000206009,369.8045035999967,None,None,0,,,,,,,,,,,,,,121,22,Female,2022-05-09_09h46.00.170,Parachute,2022.1.1,60.208937074314704,
negative,blue,2,None,k,,,,,,,,,0,76,76,76,,,,,,,,,,,,,,,,,,,,,,,,,,,,,,,,,,,,,main,k,k,1,0.5488098999485373,371.3571490000468,None,None,0,,,,,,,,,,,,,,121,22,Female,2022-05-09_09h46.00.170,Parachute,2022.1.1,60.208937074314704,
negative,yellow,1,k,None,,,,,,,,,0,77,77,77,,,,,,,,,,,,,,,,,,,,,,,,,,,,,,,,,,,,,main,None,None,1,1.4931768999667838,372.907327300054,None,None,1,,,,,,,,,,,,,,121,22,Female,2022-05-09_09h46.00.170,Parachute,2022.1.1,60.208937074314704,
positive,blue,1,k,None,,,,,,,,,0,78,78,78,,,,,,,,,,,,,,,,,,,,,,,,,,,,,,,,,,,,,main,None,None,1,1.4990942999720573,375.4044156000018,None,None,1,,,,,,,,,,,,,,121,22,Female,2022-05-09_09h46.00.170,Parachute,2022.1.1,60.208937074314704,
positive,blue,1,k,None,,,,,,,,,0,79,79,79,,,,,,,,,,,,,,,,,,,,,,,,,,,,,,,,,,,,,main,None,None,1,1.4988466000650078,377.9050242000958,None,None,1,,,,,,,,,,,,,,121,22,Female,2022-05-09_09h46.00.170,Parachute,2022.1.1,60.208937074314704,
positive,red,2,None,None,,,,,,,,,0,80,80,80,,,,,,,,,,,,,,,,,,,,,,,,,,,,,,,,,,,,,main,None,None,1,1.4985583999659866,380.40509420004673,None,None,1,,,,,,,,,,,,,,121,22,Female,2022-05-09_09h46.00.170,Parachute,2022.1.1,60.208937074314704,
positive,yellow,2,None,k,,,,,,,,,0,81,81,81,,,,,,,,,,,,,,,,,,,,,,,,,,,,,,,,,,,,,main,k,k,1,0.6686681000282988,382.9052418000065,None,None,0,,,,,,,,,,,,,,121,22,Female,2022-05-09_09h46.00.170,Parachute,2022.1.1,60.208937074314704,
positive,blue,1,k,None,,,,,,,,,0,82,82,82,,,,,,,,,,,,,,,,,,,,,,,,,,,,,,,,,,,,,main,None,None,1,1.4952289999928325,384.5828512000153,None,None,1,,,,,,,,,,,,,,121,22,Female,2022-05-09_09h46.00.170,Parachute,2022.1.1,60.208937074314704,
negative,yellow,2,k,None,,,,,,,,,0,83,83,83,,,,,,,,,,,,,,,,,,,,,,,,,,,,,,,,,,,,,main,None,k,0,0.5620070000877604,387.07209680008236,None,None,1,,,,,,,,,,,,,,121,22,Female,2022-05-09_09h46.00.170,Parachute,2022.1.1,60.208937074314704,
positive,blue,2,k,None,,,,,,,,,0,84,84,84,,,,,,,,,,,,,,,,,,,,,,,,,,,,,,,,,,,,,main,None,None,1,1.5021692999871448,389.6357643000083,None,None,1,,,,,,,,,,,,,,121,22,Female,2022-05-09_09h46.00.170,Parachute,2022.1.1,60.208937074314704,
positive,yellow,1,None,k,,,,,,,,,0,85,85,85,,,,,,,,,,,,,,,,,,,,,,,,,,,,,,,,,,,,,main,k,k,1,0.5689964999910444,392.1394225000404,None,None,0,,,,,,,,,,,,,,121,22,Female,2022-05-09_09h46.00.170,Parachute,2022.1.1,60.208937074314704,
positive,blue,2,k,None,,,,,,,,,0,86,86,86,,,,,,,,,,,,,,,,,,,,,,,,,,,,,,,,,,,,,main,None,None,1,1.4945847999770194,393.70770979998633,None,None,1,,,,,,,,,,,,,,121,22,Female,2022-05-09_09h46.00.170,Parachute,2022.1.1,60.208937074314704,
positive,blue,1,k,None,,,,,,,,,0,87,87,87,,,,,,,,,,,,,,,,,,,,,,,,,,,,,,,,,,,,,main,None,None,1,1.498082600068301,396.20583560003433,None,None,1,,,,,,,,,,,,,,121,22,Female,2022-05-09_09h46.00.170,Parachute,2022.1.1,60.208937074314704,
negative,yellow,2,k,None,,,,,,,,,0,88,88,88,,,,,,,,,,,,,,,,,,,,,,,,,,,,,,,,,,,,,main,None,None,1,1.4989407000830397,398.705116200028,None,None,1,,,,,,,,,,,,,,121,22,Female,2022-05-09_09h46.00.170,Parachute,2022.1.1,60.208937074314704,
negative,blue,2,None,k,,,,,,,,,0,89,89,89,,,,,,,,,,,,,,,,,,,,,,,,,,,,,,,,,,,,,main,k,k,1,0.6350524000590667,401.2058841000544,None,None,0,,,,,,,,,,,,,,121,22,Female,2022-05-09_09h46.00.170,Parachute,2022.1.1,60.208937074314704,
positive,yellow,2,None,k,,,,,,,,,0,90,90,90,,,,,,,,,,,,,,,,,,,,,,,,,,,,,,,,,,,,,main,k,k,1,0.6856971000088379,402.8499211000744,None,None,0,,,,,,,,,,,,,,121,22,Female,2022-05-09_09h46.00.170,Parachute,2022.1.1,60.208937074314704,
negative,yellow,1,k,None,,,,,,,,,0,91,91,91,,,,,,,,,,,,,,,,,,,,,,,,,,,,,,,,,,,,,main,None,None,1,1.5073681001085788,404.5275078000268,None,None,1,,,,,,,,,,,,,,121,22,Female,2022-05-09_09h46.00.170,Parachute,2022.1.1,60.208937074314704,
negative,red,2,None,None,,,,,,,,,0,92,92,92,,,,,,,,,,,,,,,,,,,,,,,,,,,,,,,,,,,,,main,None,None,1,1.4985238999361172,407.0397119000554,None,None,1,,,,,,,,,,,,,,121,22,Female,2022-05-09_09h46.00.170,Parachute,2022.1.1,60.208937074314704,
negative,blue,2,None,k,,,,,,,,,0,93,93,93,,,,,,,,,,,,,,,,,,,,,,,,,,,,,,,,,,,,,main,k,k,1,0.6707987000700086,409.53885570005514,None,None,0,,,,,,,,,,,,,,121,22,Female,2022-05-09_09h46.00.170,Parachute,2022.1.1,60.208937074314704,
negative,blue,1,None,k,,,,,,,,,0,94,94,94,,,,,,,,,,,,,,,,,,,,,,,,,,,,,,,,,,,,,main,k,k,1,0.7981018000282347,411.20835269999225,None,None,0,,,,,,,,,,,,,,121,22,Female,2022-05-09_09h46.00.170,Parachute,2022.1.1,60.208937074314704,
negative,blue,1,None,k,,,,,,,,,0,95,95,95,,,,,,,,,,,,,,,,,,,,,,,,,,,,,,,,,,,,,main,k,k,1,0.4808630000334233,413.0083401000593,None,None,0,,,,,,,,,,,,,,121,22,Female,2022-05-09_09h46.00.170,Parachute,2022.1.1,60.208937074314704,
negative,red,1,None,None,,,,,,,,,0,96,96,96,,,,,,,,,,,,,,,,,,,,,,,,,,,,,,,,,,,,,main,None,None,1,1.4945861999876797,414.49161220004316,None,None,1,,,,,,,,,,,,,,121,22,Female,2022-05-09_09h46.00.170,Parachute,2022.1.1,60.208937074314704,
positive,yellow,1,None,k,,,,,,,,,0,97,97,97,,,,,,,,,,,,,,,,,,,,,,,,,,,,,,,,,,,,,main,k,k,1,0.6039283000864089,416.98910780006554,None,None,0,,,,,,,,,,,,,,121,22,Female,2022-05-09_09h46.00.170,Parachute,2022.1.1,60.208937074314704,
negative,yellow,1,k,None,,,,,,,,,0,98,98,98,,,,,,,,,,,,,,,,,,,,,,,,,,,,,,,,,,,,,main,None,None,1,1.4932802999392152,418.59206140006427,None,None,1,,,,,,,,,,,,,,121,22,Female,2022-05-09_09h46.00.170,Parachute,2022.1.1,60.208937074314704,
positive,red,1,None,None,,,,,,,,,0,99,99,99,,,,,,,,,,,,,,,,,,,,,,,,,,,,,,,,,,,,,main,None,None,1,1.498454499989748,421.0891877000686,None,None,1,,,,,,,,,,,,,,121,22,Female,2022-05-09_09h46.00.170,Parachute,2022.1.1,60.208937074314704,
positive,blue,1,k,None,,,,,,,,,0,100,100,100,,,,,,,,,,,,,,,,,,,,,,,,,,,,,,,,,,,,,main,None,None,1,1.4984161999309435,423.58884209999815,None,None,1,,,,,,,,,,,,,,121,22,Female,2022-05-09_09h46.00.170,Parachute,2022.1.1,60.208937074314704,
negative,yellow,1,k,None,,,,,,,,,0,101,101,101,,,,,,,,,,,,,,,,,,,,,,,,,,,,,,,,,,,,,main,None,None,1,1.4990656999871135,426.08966920000967,None,None,1,,,,,,,,,,,,,,121,22,Female,2022-05-09_09h46.00.170,Parachute,2022.1.1,60.208937074314704,
negative,blue,2,None,k,,,,,,,,,0,102,102,102,,,,,,,,,,,,,,,,,,,,,,,,,,,,,,,,,,,,,main,k,k,1,0.7203269000165164,428.58914709999226,None,None,0,,,,,,,,,,,,,,121,22,Female,2022-05-09_09h46.00.170,Parachute,2022.1.1,60.208937074314704,
negative,yellow,2,k,None,,,,,,,,,0,103,103,103,,,,,,,,,,,,,,,,,,,,,,,,,,,,,,,,,,,,,main,None,None,1,1.493862000061199,430.30854160001036,None,None,1,,,,,,,,,,,,,,121,22,Female,2022-05-09_09h46.00.170,Parachute,2022.1.1,60.208937074314704,
positive,yellow,2,None,k,,,,,,,,,0,104,104,104,,,,,,,,,,,,,,,,,,,,,,,,,,,,,,,,,,,,,main,k,k,1,0.6371537999948487,432.80662320007104,None,None,0,,,,,,,,,,,,,,121,22,Female,2022-05-09_09h46.00.170,Parachute,2022.1.1,60.208937074314704,
positive,blue,1,k,None,,,,,,,,,0,105,105,105,,,,,,,,,,,,,,,,,,,,,,,,,,,,,,,,,,,,,main,None,None,1,1.4930751000065356,434.44354680005927,None,None,1,,,,,,,,,,,,,,121,22,Female,2022-05-09_09h46.00.170,Parachute,2022.1.1,60.208937074314704,
positive,blue,2,k,None,,,,,,,,,0,106,106,106,,,,,,,,,,,,,,,,,,,,,,,,,,,,,,,,,,,,,main,None,None,1,1.4982358999550343,436.9400909000542,None,None,1,,,,,,,,,,,,,,121,22,Female,2022-05-09_09h46.00.170,Parachute,2022.1.1,60.208937074314704,
negative,blue,1,None,k,,,,,,,,,0,107,107,107,,,,,,,,,,,,,,,,,,,,,,,,,,,,,,,,,,,,,main,k,k,1,0.6024068999104202,439.43961630004924,None,None,0,,,,,,,,,,,,,,121,22,Female,2022-05-09_09h46.00.170,Parachute,2022.1.1,60.208937074314704,
positive,yellow,2,None,k,,,,,,,,,0,108,108,108,,,,,,,,,,,,,,,,,,,,,,,,,,,,,,,,,,,,,main,k,k,1,0.7251807000720873,441.0503549000714,None,None,0,,,,,,,,,,,,,,121,22,Female,2022-05-09_09h46.00.170,Parachute,2022.1.1,60.208937074314704,
negative,yellow,1,k,None,,,,,,,,,0,109,109,109,,,,,,,,,,,,,,,,,,,,,,,,,,,,,,,,,,,,,main,None,None,1,1.501778700039722,442.7703649000032,None,None,1,,,,,,,,,,,,,,121,22,Female,2022-05-09_09h46.00.170,Parachute,2022.1.1,60.208937074314704,
negative,blue,2,None,k,,,,,,,,,0,110,110,110,,,,,,,,,,,,,,,,,,,,,,,,,,,,,,,,,,,,,main,k,k,1,0.7037026999751106,445.2731532000471,None,None,0,,,,,,,,,,,,,,121,22,Female,2022-05-09_09h46.00.170,Parachute,2022.1.1,60.208937074314704,
positive,blue,2,k,None,,,,,,,,,0,111,111,111,,,,,,,,,,,,,,,,,,,,,,,,,,,,,,,,,,,,,main,None,None,1,1.4937651000218466,446.97596270008944,None,None,1,,,,,,,,,,,,,,121,22,Female,2022-05-09_09h46.00.170,Parachute,2022.1.1,60.208937074314704,
negative,blue,1,None,k,,,,,,,,,0,112,112,112,,,,,,,,,,,,,,,,,,,,,,,,,,,,,,,,,,,,,main,k,k,1,0.6519156999420375,449.4735498999944,None,None,0,,,,,,,,,,,,,,121,22,Female,2022-05-09_09h46.00.170,Parachute,2022.1.1,60.208937074314704,
positive,yellow,1,None,k,,,,,,,,,0,113,113,113,,,,,,,,,,,,,,,,,,,,,,,,,,,,,,,,,,,,,main,k,k,1,0.7664705000352114,451.1341672000708,None,None,0,,,,,,,,,,,,,,121,22,Female,2022-05-09_09h46.00.170,Parachute,2022.1.1,60.208937074314704,
negative,red,1,None,None,,,,,,,,,0,114,114,114,,,,,,,,,,,,,,,,,,,,,,,,,,,,,,,,,,,,,main,None,None,1,1.4932278000051156,452.89218530000653,None,None,1,,,,,,,,,,,,,,121,22,Female,2022-05-09_09h46.00.170,Parachute,2022.1.1,60.208937074314704,
positive,red,1,None,None,,,,,,,,,0,115,115,115,,,,,,,,,,,,,,,,,,,,,,,,,,,,,,,,,,,,,main,None,None,1,1.4992261999286711,455.3894225000404,None,None,1,,,,,,,,,,,,,,121,22,Female,2022-05-09_09h46.00.170,Parachute,2022.1.1,60.208937074314704,
negative,red,2,None,None,,,,,,,,,0,116,116,116,,,,,,,,,,,,,,,,,,,,,,,,,,,,,,,,,,,,,main,None,None,1,1.4982749000191689,457.8900385000743,None,None,1,,,,,,,,,,,,,,121,22,Female,2022-05-09_09h46.00.170,Parachute,2022.1.1,60.208937074314704,
negative,yellow,2,k,None,,,,,,,,,0,117,117,117,,,,,,,,,,,,,,,,,,,,,,,,,,,,,,,,,,,,,main,None,None,1,1.4986828999826685,460.3893074000953,None,None,1,,,,,,,,,,,,,,121,22,Female,2022-05-09_09h46.00.170,Parachute,2022.1.1,60.208937074314704,
positive,yellow,1,None,k,,,,,,,,,0,118,118,118,,,,,,,,,,,,,,,,,,,,,,,,,,,,,,,,,,,,,main,k,k,1,0.570807799929753,462.88982700009365,None,None,0,,,,,,,,,,,,,,121,22,Female,2022-05-09_09h46.00.170,Parachute,2022.1.1,60.208937074314704,
positive,red,2,None,None,,,,,,,,,0,119,119,119,,,,,,,,,,,,,,,,,,,,,,,,,,,,,,,,,,,,,main,None,None,1,1.5100086000747979,464.46079480007757,None,None,1,,,,,,,,,,,,,,121,22,Female,2022-05-09_09h46.00.170,Parachute,2022.1.1,60.208937074314704,
positive,blue,2,k,None,,,,,,,,,0,120,120,120,,,,,,,,,,,,,,,,,,,,,,,,,,,,,,,,,,,,,main,None,None,1,1.4977480999659747,466.97385559999384,None,None,1,,,,,,,,,,,,,,121,22,Female,2022-05-09_09h46.00.170,Parachute,2022.1.1,60.208937074314704,
negative,red,1,None,None,,,,,,,,,0,121,121,121,,,,,,,,,,,,,,,,,,,,,,,,,,,,,,,,,,,,,main,None,None,1,1.4991608000127599,469.47313790000044,None,None,1,,,,,,,,,,,,,,121,22,Female,2022-05-09_09h46.00.170,Parachute,2022.1.1,60.208937074314704,
positive,yellow,2,None,k,,,,,,,,,0,122,122,122,,,,,,,,,,,,,,,,,,,,,,,,,,,,,,,,,,,,,main,k,k,1,0.77051709999796,471.9733853000216,None,None,0,,,,,,,,,,,,,,121,22,Female,2022-05-09_09h46.00.170,Parachute,2022.1.1,60.208937074314704,
negative,red,2,None,None,,,,,,,,,0,123,123,123,,,,,,,,,,,,,,,,,,,,,,,,,,,,,,,,,,,,,main,None,None,1,1.4933857000432909,473.7432591000106,None,None,1,,,,,,,,,,,,,,121,22,Female,2022-05-09_09h46.00.170,Parachute,2022.1.1,60.208937074314704,
negative,yellow,2,k,None,,,,,,,,,0,124,124,124,,,,,,,,,,,,,,,,,,,,,,,,,,,,,,,,,,,,,main,None,None,1,1.4990418000379577,476.2397754000267,None,None,1,,,,,,,,,,,,,,121,22,Female,2022-05-09_09h46.00.170,Parachute,2022.1.1,60.208937074314704,
positive,red,1,None,None,,,,,,,,,0,125,125,125,,,,,,,,,,,,,,,,,,,,,,,,,,,,,,,,,,,,,main,None,None,1,1.4985263999551535,478.74145540001336,None,None,1,,,,,,,,,,,,,,121,22,Female,2022-05-09_09h46.00.170,Parachute,2022.1.1,60.208937074314704,
negative,blue,2,None,k,,,,,,,,,0,126,126,126,,,,,,,,,,,,,,,,,,,,,,,,,,,,,,,,,,,,,main,k,k,1,0.8703399000223726,481.2407607000787,None,None,0,,,,,,,,,,,,,,121,22,Female,2022-05-09_09h46.00.170,Parachute,2022.1.1,60.208937074314704,
negative,blue,1,None,k,,,,,,,,,0,127,127,127,,,,,,,,,,,,,,,,,,,,,,,,,,,,,,,,,,,,,main,k,k,1,0.7231856000144035,483.1101590000326,None,None,0,,,,,,,,,,,,,,121,22,Female,2022-05-09_09h46.00.170,Parachute,2022.1.1,60.208937074314704,
negative,yellow,1,k,None,,,,,,,,,0,128,128,128,,,,,,,,,,,,,,,,,,,,,,,,,,,,,,,,,,,,,main,None,None,1,1.5018782999832183,484.8380335000111,None,None,1,,,,,,,,,,,,,,121,22,Female,2022-05-09_09h46.00.170,Parachute,2022.1.1,60.208937074314704,
negative,yellow,1,k,None,,,,,,,,,0,129,129,129,,,,,,,,,,,,,,,,,,,,,,,,,,,,,,,,,,,,,main,None,None,1,1.4985001999884844,487.3407441000454,None,None,1,,,,,,,,,,,,,,121,22,Female,2022-05-09_09h46.00.170,Parachute,2022.1.1,60.208937074314704,
positive,blue,1,k,None,,,,,,,,,0,130,130,130,,,,,,,,,,,,,,,,,,,,,,,,,,,,,,,,,,,,,main,None,None,1,1.4984940000576898,489.84081770002376,None,None,1,,,,,,,,,,,,,,121,22,Female,2022-05-09_09h46.00.170,Parachute,2022.1.1,60.208937074314704,
negative,blue,1,None,k,,,,,,,,,0,131,131,131,,,,,,,,,,,,,,,,,,,,,,,,,,,,,,,,,,,,,main,k,k,1,0.6207851000363007,492.34040400001686,None,None,0,,,,,,,,,,,,,,121,22,Female,2022-05-09_09h46.00.170,Parachute,2022.1.1,60.208937074314704,
negative,blue,2,None,k,,,,,,,,,0,132,132,132,,,,,,,,,,,,,,,,,,,,,,,,,,,,,,,,,,,,,main,k,k,1,0.6656683000037447,493.96012290008366,None,None,0,,,,,,,,,,,,,,121,22,Female,2022-05-09_09h46.00.170,Parachute,2022.1.1,60.208937074314704,
positive,blue,2,k,None,,,,,,,,,0,133,133,133,,,,,,,,,,,,,,,,,,,,,,,,,,,,,,,,,,,,,main,None,None,1,1.509430899983272,495.62799960002303,None,None,1,,,,,,,,,,,,,,121,22,Female,2022-05-09_09h46.00.170,Parachute,2022.1.1,60.208937074314704,
positive,red,2,None,None,,,,,,,,,0,134,134,134,,,,,,,,,,,,,,,,,,,,,,,,,,,,,,,,,,,,,main,None,None,1,1.4985992999281734,498.1412760000676,None,None,1,,,,,,,,,,,,,,121,22,Female,2022-05-09_09h46.00.170,Parachute,2022.1.1,60.208937074314704,
negative,yellow,2,k,None,,,,,,,,,0,135,135,135,,,,,,,,,,,,,,,,,,,,,,,,,,,,,,,,,,,,,main,None,None,1,1.4987236999440938,500.6408261000179,None,None,1,,,,,,,,,,,,,,121,22,Female,2022-05-09_09h46.00.170,Parachute,2022.1.1,60.208937074314704,
positive,yellow,2,None,k,,,,,,,,,0,136,136,136,,,,,,,,,,,,,,,,,,,,,,,,,,,,,,,,,,,,,main,k,k,1,0.7371248999843374,503.1416174999904,None,None,0,,,,,,,,,,,,,,121,22,Female,2022-05-09_09h46.00.170,Parachute,2022.1.1,60.208937074314704,
positive,blue,1,k,None,,,,,,,,,0,137,137,137,,,,,,,,,,,,,,,,,,,,,,,,,,,,,,,,,,,,,main,None,None,1,1.4939853999530897,504.87718770001084,None,None,1,,,,,,,,,,,,,,121,22,Female,2022-05-09_09h46.00.170,Parachute,2022.1.1,60.208937074314704,
positive,yellow,1,None,k,,,,,,,,,0,138,138,138,,,,,,,,,,,,,,,,,,,,,,,,,,,,,,,,,,,,,main,k,k,1,0.8462041999446228,507.37506530003157,None,None,0,,,,,,,,,,,,,,121,22,Female,2022-05-09_09h46.00.170,Parachute,2022.1.1,60.208937074314704,
positive,yellow,1,None,k,,,,,,,,,0,139,139,139,,,,,,,,,,,,,,,,,,,,,,,,,,,,,,,,,,,,,main,k,k,1,0.5890095999930054,509.22276770009194,None,None,0,,,,,,,,,,,,,,121,22,Female,2022-05-09_09h46.00.170,Parachute,2022.1.1,60.208937074314704,
positive,yellow,1,None,k,,,,,,,,,0,140,140,140,,,,,,,,,,,,,,,,,,,,,,,,,,,,,,,,,,,,,main,k,k,1,0.5987131999572739,510.81126240000594,None,None,0,,,,,,,,,,,,,,121,22,Female,2022-05-09_09h46.00.170,Parachute,2022.1.1,60.208937074314704,
positive,blue,1,k,None,,,,,,,,,0,141,141,141,,,,,,,,,,,,,,,,,,,,,,,,,,,,,,,,,,,,,main,None,None,1,1.4926187999080867,512.4114207000239,None,None,1,,,,,,,,,,,,,,121,22,Female,2022-05-09_09h46.00.170,Parachute,2022.1.1,60.208937074314704,
positive,blue,2,k,None,,,,,,,,,0,142,142,142,,,,,,,,,,,,,,,,,,,,,,,,,,,,,,,,,,,,,main,None,None,1,1.4993400999810547,514.9075436000712,None,None,1,,,,,,,,,,,,,,121,22,Female,2022-05-09_09h46.00.170,Parachute,2022.1.1,60.208937074314704,
positive,yellow,2,None,k,,,,,,,,,0,143,143,143,,,,,,,,,,,,,,,,,,,,,,,,,,,,,,,,,,,,,main,k,k,1,0.7199461999116465,517.4088948999997,None,None,0,,,,,,,,,,,,,,121,22,Female,2022-05-09_09h46.00.170,Parachute,2022.1.1,60.208937074314704,
negative,yellow,2,k,None,,,,,,,,,0,144,144,144,,,,,,,,,,,,,,,,,,,,,,,,,,,,,,,,,,,,,main,None,None,1,1.4936249000020325,519.127191400039,None,None,1,,,,,,,,,,,,,,121,22,Female,2022-05-09_09h46.00.170,Parachute,2022.1.1,60.208937074314704,
negative,blue,2,None,k,,,,,,,,,0,145,145,145,,,,,,,,,,,,,,,,,,,,,,,,,,,,,,,,,,,,,main,k,k,1,0.703708800021559,521.6261030000169,None,None,0,,,,,,,,,,,,,,121,22,Female,2022-05-09_09h46.00.170,Parachute,2022.1.1,60.208937074314704,
negative,red,1,None,None,,,,,,,,,0,146,146,146,,,,,,,,,,,,,,,,,,,,,,,,,,,,,,,,,,,,,main,None,None,1,1.4934542999835685,523.3270928000566,None,None,1,,,,,,,,,,,,,,121,22,Female,2022-05-09_09h46.00.170,Parachute,2022.1.1,60.208937074314704,
positive,blue,1,k,None,,,,,,,,,0,147,147,147,,,,,,,,,,,,,,,,,,,,,,,,,,,,,,,,,,,,,main,None,None,1,1.498465899960138,525.8248907000525,None,None,1,,,,,,,,,,,,,,121,22,Female,2022-05-09_09h46.00.170,Parachute,2022.1.1,60.208937074314704,
positive,yellow,1,None,k,,,,,,,,,0,148,148,148,,,,,,,,,,,,,,,,,,,,,,,,,,,,,,,,,,,,,main,k,k,1,0.7373918000375852,528.3246542999987,None,None,0,,,,,,,,,,,,,,121,22,Female,2022-05-09_09h46.00.170,Parachute,2022.1.1,60.208937074314704,
negative,red,2,None,None,,,,,,,,,0,149,149,149,,,,,,,,,,,,,,,,,,,,,,,,,,,,,,,,,,,,,main,None,None,1,1.4931923999683931,530.0611825999804,None,None,1,,,,,,,,,,,,,,121,22,Female,2022-05-09_09h46.00.170,Parachute,2022.1.1,60.208937074314704,
negative,blue,1,None,k,,,,,,,,,0,150,150,150,,,,,,,,,,,,,,,,,,,,,,,,,,,,,,,,,,,,,main,k,k,1,0.5874282999429852,532.5582502000034,None,None,0,,,,,,,,,,,,,,121,22,Female,2022-05-09_09h46.00.170,Parachute,2022.1.1,60.208937074314704,
negative,yellow,2,k,None,,,,,,,,,0,151,151,151,,,,,,,,,,,,,,,,,,,,,,,,,,,,,,,,,,,,,main,None,None,1,1.4930539999622852,534.1442000999814,None,None,1,,,,,,,,,,,,,,121,22,Female,2022-05-09_09h46.00.170,Parachute,2022.1.1,60.208937074314704,
negative,blue,2,None,k,,,,,,,,,0,152,152,152,,,,,,,,,,,,,,,,,,,,,,,,,,,,,,,,,,,,,main,k,k,1,0.670645699952729,536.641025400022,None,None,0,,,,,,,,,,,,,,121,22,Female,2022-05-09_09h46.00.170,Parachute,2022.1.1,60.208937074314704,
negative,yellow,1,k,None,,,,,,,,,0,153,153,153,,,,,,,,,,,,,,,,,,,,,,,,,,,,,,,,,,,,,main,None,None,1,1.4937427999684587,538.3109111000085,None,None,1,,,,,,,,,,,,,,121,22,Female,2022-05-09_09h46.00.170,Parachute,2022.1.1,60.208937074314704,
negative,blue,1,None,k,,,,,,,,,0,154,154,154,,,,,,,,,,,,,,,,,,,,,,,,,,,,,,,,,,,,,main,k,k,1,0.6701597000937909,540.8082515000133,None,None,0,,,,,,,,,,,,,,121,22,Female,2022-05-09_09h46.00.170,Parachute,2022.1.1,60.208937074314704,
positive,yellow,2,None,k,,,,,,,,,0,155,155,155,,,,,,,,,,,,,,,,,,,,,,,,,,,,,,,,,,,,,main,k,k,1,0.6321480999467894,542.4776359000243,None,None,0,,,,,,,,,,,,,,121,22,Female,2022-05-09_09h46.00.170,Parachute,2022.1.1,60.208937074314704,
positive,red,2,None,None,,,,,,,,,0,156,156,156,,,,,,,,,,,,,,,,,,,,,,,,,,,,,,,,,,,,,main,None,None,1,1.4935309999855235,544.1110387000954,None,None,1,,,,,,,,,,,,,,121,22,Female,2022-05-09_09h46.00.170,Parachute,2022.1.1,60.208937074314704,
positive,red,1,None,None,,,,,,,,,0,157,157,157,,,,,,,,,,,,,,,,,,,,,,,,,,,,,,,,,,,,,main,None,None,1,1.498518299893476,546.608888000017,None,None,1,,,,,,,,,,,,,,121,22,Female,2022-05-09_09h46.00.170,Parachute,2022.1.1,60.208937074314704,
positive,blue,2,k,None,,,,,,,,,0,158,158,158,,,,,,,,,,,,,,,,,,,,,,,,,,,,,,,,,,,,,main,None,None,1,1.4988264000276104,549.1080449000001,None,None,1,,,,,,,,,,,,,,121,22,Female,2022-05-09_09h46.00.170,Parachute,2022.1.1,60.208937074314704,
negative,yellow,1,k,None,,,,,,,,,0,159,159,159,,,,,,,,,,,,,,,,,,,,,,,,,,,,,,,,,,,,,main,None,None,1,1.4987573999678716,551.6088474000571,None,None,1,,,,,,,,,,,,,,121,22,Female,2022-05-09_09h46.00.170,Parachute,2022.1.1,60.208937074314704,
negative,red,2,None,None,,,,,,,,,0,160,160,160,,,,,,,,,,,,,,,,,,,,,,,,,,,,,,,,,,,,,main,None,None,1,1.4986782000632957,554.1089228000492,None,None,1,,,,,,,,,,,,,,121,22,Female,2022-05-09_09h46.00.170,Parachute,2022.1.1,60.208937074314704,
negative,blue,1,None,k,,,,,,,,,0,161,161,161,,,,,,,,,,,,,,,,,,,,,,,,,,,,,,,,,,,,,main,k,k,1,1.1031693000113592,556.6093392000766,None,None,0,,,,,,,,,,,,,,121,22,Female,2022-05-09_09h46.00.170,Parachute,2022.1.1,60.208937074314704,
negative,blue,1,None,k,,,,,,,,,0,162,162,162,,,,,,,,,,,,,,,,,,,,,,,,,,,,,,,,,,,,,main,k,k,1,0.6492428000783548,558.711737500038,None,None,0,,,,,,,,,,,,,,121,22,Female,2022-05-09_09h46.00.170,Parachute,2022.1.1,60.208937074314704,
negative,yellow,1,k,None,,,,,,,,,0,163,163,163,,,,,,,,,,,,,,,,,,,,,,,,,,,,,,,,,,,,,main,None,None,1,1.4951427999185398,560.3617648000363,None,None,1,,,,,,,,,,,,,,121,22,Female,2022-05-09_09h46.00.170,Parachute,2022.1.1,60.208937074314704,
negative,yellow,1,k,None,,,,,,,,,0,164,164,164,,,,,,,,,,,,,,,,,,,,,,,,,,,,,,,,,,,,,main,None,None,1,1.496038099983707,562.8696774999844,None,None,1,,,,,,,,,,,,,,121,22,Female,2022-05-09_09h46.00.170,Parachute,2022.1.1,60.208937074314704,
positive,yellow,1,None,k,,,,,,,,,0,165,165,165,,,,,,,,,,,,,,,,,,,,,,,,,,,,,,,,,,,,,main,k,k,1,0.6028149999910966,565.3588605000405,None,None,0,,,,,,,,,,,,,,121,22,Female,2022-05-09_09h46.00.170,Parachute,2022.1.1,60.208937074314704,
negative,red,1,None,None,,,,,,,,,0,166,166,166,,,,,,,,,,,,,,,,,,,,,,,,,,,,,,,,,,,,,main,None,None,1,1.4943321000318974,566.9615798000013,None,None,1,,,,,,,,,,,,,,121,22,Female,2022-05-09_09h46.00.170,Parachute,2022.1.1,60.208937074314704,
negative,yellow,2,k,None,,,,,,,,,0,167,167,167,,,,,,,,,,,,,,,,,,,,,,,,,,,,,,,,,,,,,main,None,None,1,1.4986742999171838,569.4597220000578,None,None,1,,,,,,,,,,,,,,121,22,Female,2022-05-09_09h46.00.170,Parachute,2022.1.1,60.208937074314704,
positive,blue,2,k,None,,,,,,,,,0,168,168,168,,,,,,,,,,,,,,,,,,,,,,,,,,,,,,,,,,,,,main,None,None,1,1.4983931999886408,571.9595441999845,None,None,1,,,,,,,,,,,,,,121,22,Female,2022-05-09_09h46.00.170,Parachute,2022.1.1,60.208937074314704,
positive,red,2,None,None,,,,,,,,,0,169,169,169,,,,,,,,,,,,,,,,,,,,,,,,,,,,,,,,,,,,,main,None,None,1,1.4988029999658465,574.4592544999905,None,None,1,,,,,,,,,,,,,,121,22,Female,2022-05-09_09h46.00.170,Parachute,2022.1.1,60.208937074314704,
positive,red,1,None,None,,,,,,,,,0,170,170,170,,,,,,,,,,,,,,,,,,,,,,,,,,,,,,,,,,,,,main,None,None,1,1.498852299991995,576.9594817000907,None,None,1,,,,,,,,,,,,,,121,22,Female,2022-05-09_09h46.00.170,Parachute,2022.1.1,60.208937074314704,
negative,blue,2,None,k,,,,,,,,,0,171,171,171,,,,,,,,,,,,,,,,,,,,,,,,,,,,,,,,,,,,,main,k,k,1,0.6359699000604451,579.4595345000271,None,None,0,,,,,,,,,,,,,,121,22,Female,2022-05-09_09h46.00.170,Parachute,2022.1.1,60.208937074314704,
positive,blue,2,k,None,,,,,,,,,0,172,172,172,,,,,,,,,,,,,,,,,,,,,,,,,,,,,,,,,,,,,main,None,None,1,1.4943852999713272,581.0956361000426,None,None,1,,,,,,,,,,,,,,121,22,Female,2022-05-09_09h46.00.170,Parachute,2022.1.1,60.208937074314704,
negative,yellow,2,k,None,,,,,,,,,0,173,173,173,,,,,,,,,,,,,,,,,,,,,,,,,,,,,,,,,,,,,main,None,None,1,1.4980763000203297,583.5928541000467,None,None,1,,,,,,,,,,,,,,121,22,Female,2022-05-09_09h46.00.170,Parachute,2022.1.1,60.208937074314704,
positive,yellow,2,None,k,,,,,,,,,0,174,174,174,,,,,,,,,,,,,,,,,,,,,,,,,,,,,,,,,,,,,main,k,k,1,0.5875114999944344,586.092400600086,None,None,0,,,,,,,,,,,,,,121,22,Female,2022-05-09_09h46.00.170,Parachute,2022.1.1,60.208937074314704,
negative,blue,2,None,k,,,,,,,,,0,175,175,175,,,,,,,,,,,,,,,,,,,,,,,,,,,,,,,,,,,,,main,k,k,1,0.6803090000757948,587.6790963000385,None,None,0,,,,,,,,,,,,,,121,22,Female,2022-05-09_09h46.00.170,Parachute,2022.1.1,60.208937074314704,
positive,blue,1,k,None,,,,,,,,,0,176,176,176,,,,,,,,,,,,,,,,,,,,,,,,,,,,,,,,,,,,,main,None,None,1,1.4952529999427497,589.3705912000732,None,None,1,,,,,,,,,,,,,,121,22,Female,2022-05-09_09h46.00.170,Parachute,2022.1.1,60.208937074314704,
positive,yellow,1,None,k,,,,,,,,,0,177,177,177,,,,,,,,,,,,,,,,,,,,,,,,,,,,,,,,,,,,,main,k,k,1,0.7284895000047982,591.8598133000778,None,None,0,,,,,,,,,,,,,,121,22,Female,2022-05-09_09h46.00.170,Parachute,2022.1.1,60.208937074314704,
positive,blue,1,k,None,,,,,,,,,0,178,178,178,,,,,,,,,,,,,,,,,,,,,,,,,,,,,,,,,,,,,main,None,None,1,1.5018449999624863,593.5902395000448,None,None,1,,,,,,,,,,,,,,121,22,Female,2022-05-09_09h46.00.170,Parachute,2022.1.1,60.208937074314704,
positive,yellow,2,None,k,,,,,,,,,0,179,179,179,,,,,,,,,,,,,,,,,,,,,,,,,,,,,,,,,,,,,main,k,k,1,0.7537239000666887,596.093018900021,None,None,0,,,,,,,,,,,,,,121,22,Female,2022-05-09_09h46.00.170,Parachute,2022.1.1,60.208937074314704,
positive,blue,1,k,None,,,,,,,,,0,180,180,180,,,,,,,,,,,,,,,,,,,,,,,,,,,,,,,,,,,,,main,None,None,1,1.4937563999556005,597.8456298999954,None,None,1,,,,,,,,,,,,,,121,22,Female,2022-05-09_09h46.00.170,Parachute,2022.1.1,60.208937074314704,
negative,red,1,None,None,,,,,,,,,0,181,181,181,,,,,,,,,,,,,,,,,,,,,,,,,,,,,,,,,,,,,main,None,None,1,1.4984260000055656,600.34345819999,None,None,1,,,,,,,,,,,,,,121,22,Female,2022-05-09_09h46.00.170,Parachute,2022.1.1,60.208937074314704,
negative,blue,1,None,k,,,,,,,,,0,182,182,182,,,,,,,,,,,,,,,,,,,,,,,,,,,,,,,,,,,,,main,k,k,1,0.6374768000096083,602.8434200000484,None,None,0,,,,,,,,,,,,,,121,22,Female,2022-05-09_09h46.00.170,Parachute,2022.1.1,60.208937074314704,
negative,yellow,2,k,None,,,,,,,,,0,183,183,183,,,,,,,,,,,,,,,,,,,,,,,,,,,,,,,,,,,,,main,None,None,1,1.4930489000398666,604.4798818000127,None,None,1,,,,,,,,,,,,,,121,22,Female,2022-05-09_09h46.00.170,Parachute,2022.1.1,60.208937074314704,
positive,yellow,2,None,k,,,,,,,,,0,184,184,184,,,,,,,,,,,,,,,,,,,,,,,,,,,,,,,,,,,,,main,k,k,1,0.6870444000232965,606.9762723000022,None,None,0,,,,,,,,,,,,,,121,22,Female,2022-05-09_09h46.00.170,Parachute,2022.1.1,60.208937074314704,
positive,yellow,1,None,k,,,,,,,,,0,185,185,185,,,,,,,,,,,,,,,,,,,,,,,,,,,,,,,,,,,,,main,k,k,1,0.7987926000496373,608.6628189000767,None,None,0,,,,,,,,,,,,,,121,22,Female,2022-05-09_09h46.00.170,Parachute,2022.1.1,60.208937074314704,
positive,red,2,None,None,,,,,,,,,0,186,186,186,,,,,,,,,,,,,,,,,,,,,,,,,,,,,,,,,,,,,main,None,None,1,1.4933579000644386,610.4626980000176,None,None,1,,,,,,,,,,,,,,121,22,Female,2022-05-09_09h46.00.170,Parachute,2022.1.1,60.208937074314704,
positive,blue,1,k,None,,,,,,,,,0,187,187,187,,,,,,,,,,,,,,,,,,,,,,,,,,,,,,,,,,,,,main,None,None,1,1.4985997000476345,612.9589926000917,None,None,1,,,,,,,,,,,,,,121,22,Female,2022-05-09_09h46.00.170,Parachute,2022.1.1,60.208937074314704,
negative,yellow,1,k,None,,,,,,,,,0,188,188,188,,,,,,,,,,,,,,,,,,,,,,,,,,,,,,,,,,,,,main,None,None,1,1.498791699996218,615.4599224000704,None,None,1,,,,,,,,,,,,,,121,22,Female,2022-05-09_09h46.00.170,Parachute,2022.1.1,60.208937074314704,
positive,yellow,2,None,k,,,,,,,,,0,189,189,189,,,,,,,,,,,,,,,,,,,,,,,,,,,,,,,,,,,,,main,k,k,1,0.7037869000341743,617.9603381000925,None,None,0,,,,,,,,,,,,,,121,22,Female,2022-05-09_09h46.00.170,Parachute,2022.1.1,60.208937074314704,
negative,yellow,2,k,None,,,,,,,,,0,190,190,190,,,,,,,,,,,,,,,,,,,,,,,,,,,,,,,,,,,,,main,None,None,1,1.4936374999815598,619.6631334000267,None,None,1,,,,,,,,,,,,,,121,22,Female,2022-05-09_09h46.00.170,Parachute,2022.1.1,60.208937074314704,
negative,yellow,1,k,None,,,,,,,,,0,191,191,191,,,,,,,,,,,,,,,,,,,,,,,,,,,,,,,,,,,,,main,None,None,1,1.4985068999230862,622.1604682999896,None,None,1,,,,,,,,,,,,,,121,22,Female,2022-05-09_09h46.00.170,Parachute,2022.1.1,60.208937074314704,
positive,blue,2,k,None,,,,,,,,,0,192,192,192,,,,,,,,,,,,,,,,,,,,,,,,,,,,,,,,,,,,,main,None,None,1,1.4992280000587925,624.6604942000704,None,None,1,,,,,,,,,,,,,,121,22,Female,2022-05-09_09h46.00.170,Parachute,2022.1.1,60.208937074314704,
positive,yellow,1,None,k,,,,,,,,,0,193,193,193,,,,,,,,,,,,,,,,,,,,,,,,,,,,,,,,,,,,,main,k,k,1,0.6807638999307528,627.1616096000653,None,None,0,,,,,,,,,,,,,,121,22,Female,2022-05-09_09h46.00.170,Parachute,2022.1.1,60.208937074314704,
negative,red,2,None,None,,,,,,,,,0,194,194,194,,,,,,,,,,,,,,,,,,,,,,,,,,,,,,,,,,,,,main,None,None,1,1.4992256000405177,628.8429237999953,None,None,1,,,,,,,,,,,,,,121,22,Female,2022-05-09_09h46.00.170,Parachute,2022.1.1,60.208937074314704,
positive,red,1,None,None,,,,,,,,,0,195,195,195,,,,,,,,,,,,,,,,,,,,,,,,,,,,,,,,,,,,,main,None,None,1,1.498730199993588,631.3438457000302,None,None,1,,,,,,,,,,,,,,121,22,Female,2022-05-09_09h46.00.170,Parachute,2022.1.1,60.208937074314704,
negative,blue,1,None,k,,,,,,,,,0,196,196,196,,,,,,,,,,,,,,,,,,,,,,,,,,,,,,,,,,,,,main,k,k,1,0.7038728999905288,633.8437070000218,None,None,0,,,,,,,,,,,,,,121,22,Female,2022-05-09_09h46.00.170,Parachute,2022.1.1,60.208937074314704,
positive,blue,2,k,None,,,,,,,,,0,197,197,197,,,,,,,,,,,,,,,,,,,,,,,,,,,,,,,,,,,,,main,None,None,1,1.4932299999054521,635.5468366000568,None,None,1,,,,,,,,,,,,,,121,22,Female,2022-05-09_09h46.00.170,Parachute,2022.1.1,60.208937074314704,
negative,blue,2,None,k,,,,,,,,,0,198,198,198,,,,,,,,,,,,,,,,,,,,,,,,,,,,,,,,,,,,,main,k,k,1,0.6203106000320986,638.0441826999886,None,None,0,,,,,,,,,,,,,,121,22,Female,2022-05-09_09h46.00.170,Parachute,2022.1.1,60.208937074314704,
negative,blue,2,None,k,,,,,,,,,0,199,199,199,,,,,,,,,,,,,,,,,,,,,,,,,,,,,,,,,,,,,main,k,k,1,0.5972112000454217,639.6632436000509,None,None,0,,,,,,,,,,,,,,121,22,Female,2022-05-09_09h46.00.170,Parachute,2022.1.1,60.208937074314704,
positive,blue,2,k,None,,,,,,,,,0,200,200,200,,,,,,,,,,,,,,,,,,,,,,,,,,,,,,,,,,,,,main,None,None,1,1.4947560000000522,641.271853000042,None,None,1,,,,,,,,,,,,,,121,22,Female,2022-05-09_09h46.00.170,Parachute,2022.1.1,60.208937074314704,
positive,blue,2,k,None,,,,,,,,,0,201,201,201,,,,,,,,,,,,,,,,,,,,,,,,,,,,,,,,,,,,,main,None,None,1,1.4987032000208274,643.7602481000358,None,None,1,,,,,,,,,,,,,,121,22,Female,2022-05-09_09h46.00.170,Parachute,2022.1.1,60.208937074314704,
negative,yellow,2,k,None,,,,,,,,,0,202,202,202,,,,,,,,,,,,,,,,,,,,,,,,,,,,,,,,,,,,,main,None,None,1,1.4988239000085741,646.2606204000767,None,None,1,,,,,,,,,,,,,,121,22,Female,2022-05-09_09h46.00.170,Parachute,2022.1.1,60.208937074314704,
positive,red,1,None,None,,,,,,,,,0,203,203,203,,,,,,,,,,,,,,,,,,,,,,,,,,,,,,,,,,,,,main,None,None,1,1.4983571999473497,648.7606027000584,None,None,1,,,,,,,,,,,,,,121,22,Female,2022-05-09_09h46.00.170,Parachute,2022.1.1,60.208937074314704,
negative,blue,2,None,k,,,,,,,,,0,204,204,204,,,,,,,,,,,,,,,,,,,,,,,,,,,,,,,,,,,,,main,k,k,1,1.2208204000489786,651.2604885000037,None,None,0,,,,,,,,,,,,,,121,22,Female,2022-05-09_09h46.00.170,Parachute,2022.1.1,60.208937074314704,
negative,red,1,None,None,,,,,,,,,0,205,205,205,,,,,,,,,,,,,,,,,,,,,,,,,,,,,,,,,,,,,main,None,None,1,1.4929630000842735,653.4808341000462,None,None,1,,,,,,,,,,,,,,121,22,Female,2022-05-09_09h46.00.170,Parachute,2022.1.1,60.208937074314704,
negative,blue,2,None,k,,,,,,,,,0,206,206,206,,,,,,,,,,,,,,,,,,,,,,,,,,,,,,,,,,,,,main,k,k,1,0.6203514999942854,655.9774618000956,None,None,0,,,,,,,,,,,,,,121,22,Female,2022-05-09_09h46.00.170,Parachute,2022.1.1,60.208937074314704,
negative,yellow,2,k,None,,,,,,,,,0,207,207,207,,,,,,,,,,,,,,,,,,,,,,,,,,,,,,,,,,,,,main,None,None,1,1.4936316999373958,657.5972435000585,None,None,1,,,,,,,,,,,,,,121,22,Female,2022-05-09_09h46.00.170,Parachute,2022.1.1,60.208937074314704,
positive,yellow,2,None,k,,,,,,,,,0,208,208,208,,,,,,,,,,,,,,,,,,,,,,,,,,,,,,,,,,,,,main,k,k,1,0.5877397001022473,660.0953589000273,None,None,0,,,,,,,,,,,,,,121,22,Female,2022-05-09_09h46.00.170,Parachute,2022.1.1,60.208937074314704,
negative,yellow,1,k,None,,,,,,,,,0,209,209,209,,,,,,,,,,,,,,,,,,,,,,,,,,,,,,,,,,,,,main,None,None,1,1.4928658000426367,661.6813299000496,None,None,1,,,,,,,,,,,,,,121,22,Female,2022-05-09_09h46.00.170,Parachute,2022.1.1,60.208937074314704,
negative,red,2,None,None,,,,,,,,,0,210,210,210,,,,,,,,,,,,,,,,,,,,,,,,,,,,,,,,,,,,,main,None,None,1,1.4989863999653608,664.1779111000942,None,None,1,,,,,,,,,,,,,,121,22,Female,2022-05-09_09h46.00.170,Parachute,2022.1.1,60.208937074314704,
negative,blue,1,None,k,,,,,,,,,0,211,211,211,,,,,,,,,,,,,,,,,,,,,,,,,,,,,,,,,,,,,main,k,k,1,0.6347006999421865,666.6789017000701,None,None,0,,,,,,,,,,,,,,121,22,Female,2022-05-09_09h46.00.170,Parachute,2022.1.1,60.208937074314704,
negative,yellow,1,k,None,,,,,,,,,0,212,212,212,,,,,,,,,,,,,,,,,,,,,,,,,,,,,,,,,,,,,main,None,None,1,1.4951710000168532,668.3146174000576,None,None,1,,,,,,,,,,,,,,121,22,Female,2022-05-09_09h46.00.170,Parachute,2022.1.1,60.208937074314704,
positive,blue,1,k,None,,,,,,,,,0,213,213,213,,,,,,,,,,,,,,,,,,,,,,,,,,,,,,,,,,,,,main,None,None,1,1.4989067000569776,670.8111726000207,None,None,1,,,,,,,,,,,,,,121,22,Female,2022-05-09_09h46.00.170,Parachute,2022.1.1,60.208937074314704,
positive,blue,1,k,None,,,,,,,,,0,214,214,214,,,,,,,,,,,,,,,,,,,,,,,,,,,,,,,,,,,,,main,None,None,1,1.4990388000151142,673.3114499000367,None,None,1,,,,,,,,,,,,,,121,22,Female,2022-05-09_09h46.00.170,Parachute,2022.1.1,60.208937074314704,
positive,yellow,1,None,k,,,,,,,,,0,215,215,215,,,,,,,,,,,,,,,,,,,,,,,,,,,,,,,,,,,,,main,k,k,1,0.7177761999191716,675.8125887000933,None,None,0,,,,,,,,,,,,,,121,22,Female,2022-05-09_09h46.00.170,Parachute,2022.1.1,60.208937074314704,
positive,yellow,1,None,k,,,,,,,,,0,216,216,216,,,,,,,,,,,,,,,,,,,,,,,,,,,,,,,,,,,,,main,k,k,1,0.7010081999469548,677.5308297000593,None,None,0,,,,,,,,,,,,,,121,22,Female,2022-05-09_09h46.00.170,Parachute,2022.1.1,60.208937074314704,
positive,yellow,2,None,k,,,,,,,,,0,217,217,217,,,,,,,,,,,,,,,,,,,,,,,,,,,,,,,,,,,,,main,k,k,1,0.6654488000785932,679.2310106999939,None,None,0,,,,,,,,,,,,,,121,22,Female,2022-05-09_09h46.00.170,Parachute,2022.1.1,60.208937074314704,
negative,blue,1,None,k,,,,,,,,,0,218,218,218,,,,,,,,,,,,,,,,,,,,,,,,,,,,,,,,,,,,,main,k,k,1,0.8297587999841198,680.8982126000337,None,None,0,,,,,,,,,,,,,,121,22,Female,2022-05-09_09h46.00.170,Parachute,2022.1.1,60.208937074314704,
positive,red,2,None,None,,,,,,,,,0,219,219,219,,,,,,,,,,,,,,,,,,,,,,,,,,,,,,,,,,,,,main,None,None,1,1.495120899984613,682.7394644999877,None,None,1,,,,,,,,,,,,,,121,22,Female,2022-05-09_09h46.00.170,Parachute,2022.1.1,60.208937074314704,
positive,yellow,1,None,k,,,,,,,,,0,220,220,220,,,,,,,,,,,,,,,,,,,,,,,,,,,,,,,,,,,,,main,k,k,1,0.7371179999317974,685.22830409999,None,None,0,,,,,,,,,,,,,,121,22,Female,2022-05-09_09h46.00.170,Parachute,2022.1.1,60.208937074314704,
positive,blue,1,k,None,,,,,,,,,0,221,221,221,,,,,,,,,,,,,,,,,,,,,,,,,,,,,,,,,,,,,main,None,None,1,1.4937333000125363,686.9643588000908,None,None,1,,,,,,,,,,,,,,121,22,Female,2022-05-09_09h46.00.170,Parachute,2022.1.1,60.208937074314704,
positive,yellow,2,None,k,,,,,,,,,0,222,222,222,,,,,,,,,,,,,,,,,,,,,,,,,,,,,,,,,,,,,main,k,k,1,0.7034883999731392,689.4622748000547,None,None,0,,,,,,,,,,,,,,121,22,Female,2022-05-09_09h46.00.170,Parachute,2022.1.1,60.208937074314704,
negative,yellow,1,k,None,,,,,,,,,0,223,223,223,,,,,,,,,,,,,,,,,,,,,,,,,,,,,,,,,,,,,main,None,None,1,1.493271900108084,691.1645658999914,None,None,1,,,,,,,,,,,,,,121,22,Female,2022-05-09_09h46.00.170,Parachute,2022.1.1,60.208937074314704,
positive,yellow,2,None,k,,,,,,,,,0,224,224,224,,,,,,,,,,,,,,,,,,,,,,,,,,,,,,,,,,,,,main,k,k,1,0.720839099958539,693.6609379000729,None,None,0,,,,,,,,,,,,,,121,22,Female,2022-05-09_09h46.00.170,Parachute,2022.1.1,60.208937074314704,
negative,yellow,2,k,None,,,,,,,,,0,225,225,225,,,,,,,,,,,,,,,,,,,,,,,,,,,,,,,,,,,,,main,None,None,1,1.4930038000456989,695.3821391999954,None,None,1,,,,,,,,,,,,,,121,22,Female,2022-05-09_09h46.00.170,Parachute,2022.1.1,60.208937074314704,
negative,blue,2,None,k,,,,,,,,,0,226,226,226,,,,,,,,,,,,,,,,,,,,,,,,,,,,,,,,,,,,,main,k,k,1,0.6357968999072909,697.8785401000641,None,None,0,,,,,,,,,,,,,,121,22,Female,2022-05-09_09h46.00.170,Parachute,2022.1.1,60.208937074314704,
positive,red,2,None,None,,,,,,,,,0,227,227,227,,,,,,,,,,,,,,,,,,,,,,,,,,,,,,,,,,,,,main,None,None,1,1.4947111000074074,699.5253783999942,None,None,1,,,,,,,,,,,,,,121,22,Female,2022-05-09_09h46.00.170,Parachute,2022.1.1,60.208937074314704,
positive,blue,2,k,None,,,,,,,,,0,228,228,228,,,,,,,,,,,,,,,,,,,,,,,,,,,,,,,,,,,,,main,None,None,1,1.4990300999488682,702.0120870000683,None,None,1,,,,,,,,,,,,,,121,22,Female,2022-05-09_09h46.00.170,Parachute,2022.1.1,60.208937074314704,
negative,blue,1,None,k,,,,,,,,,0,229,229,229,,,,,,,,,,,,,,,,,,,,,,,,,,,,,,,,,,,,,main,k,k,1,0.6521322999615222,704.5124277999857,None,None,0,,,,,,,,,,,,,,121,22,Female,2022-05-09_09h46.00.170,Parachute,2022.1.1,60.208937074314704,
positive,yellow,1,None,k,,,,,,,,,0,230,230,230,,,,,,,,,,,,,,,,,,,,,,,,,,,,,,,,,,,,,main,k,k,1,0.6339879999868572,706.1747866000514,None,None,0,,,,,,,,,,,,,,121,22,Female,2022-05-09_09h46.00.170,Parachute,2022.1.1,60.208937074314704,
negative,blue,2,None,k,,,,,,,,,0,231,231,231,,,,,,,,,,,,,,,,,,,,,,,,,,,,,,,,,,,,,main,k,k,1,0.6151878000237048,707.7989997999975,None,None,0,,,,,,,,,,,,,,121,22,Female,2022-05-09_09h46.00.170,Parachute,2022.1.1,60.208937074314704,
negative,red,1,None,None,,,,,,,,,0,232,232,232,,,,,,,,,,,,,,,,,,,,,,,,,,,,,,,,,,,,,main,None,None,1,1.4932333999313414,709.4152325000614,None,None,1,,,,,,,,,,,,,,121,22,Female,2022-05-09_09h46.00.170,Parachute,2022.1.1,60.208937074314704,
positive,blue,2,k,None,,,,,,,,,0,233,233,233,,,,,,,,,,,,,,,,,,,,,,,,,,,,,,,,,,,,,main,None,None,1,1.4981914999661967,711.9127257000655,None,None,1,,,,,,,,,,,,,,121,22,Female,2022-05-09_09h46.00.170,Parachute,2022.1.1,60.208937074314704,
negative,yellow,1,k,None,,,,,,,,,0,234,234,234,,,,,,,,,,,,,,,,,,,,,,,,,,,,,,,,,,,,,main,None,None,1,1.4991566999815404,714.4119403000223,None,None,1,,,,,,,,,,,,,,121,22,Female,2022-05-09_09h46.00.170,Parachute,2022.1.1,60.208937074314704,
negative,yellow,2,k,None,,,,,,,,,0,235,235,235,,,,,,,,,,,,,,,,,,,,,,,,,,,,,,,,,,,,,main,None,None,1,1.4982770000351593,716.9131126999855,None,None,1,,,,,,,,,,,,,,121,22,Female,2022-05-09_09h46.00.170,Parachute,2022.1.1,60.208937074314704,
positive,red,1,None,None,,,,,,,,,0,236,236,236,,,,,,,,,,,,,,,,,,,,,,,,,,,,,,,,,,,,,main,None,None,1,1.4987118999706581,719.412819600082,None,None,1,,,,,,,,,,,,,,121,22,Female,2022-05-09_09h46.00.170,Parachute,2022.1.1,60.208937074314704,
negative,red,2,None,None,,,,,,,,,0,237,237,237,,,,,,,,,,,,,,,,,,,,,,,,,,,,,,,,,,,,,main,None,None,1,1.4985642000101507,721.9127601000946,None,None,1,,,,,,,,,,,,,,121,22,Female,2022-05-09_09h46.00.170,Parachute,2022.1.1,60.208937074314704,
negative,blue,1,None,k,,,,,,,,,0,238,238,238,,,,,,,,,,,,,,,,,,,,,,,,,,,,,,,,,,,,,main,k,k,1,0.7518555999267846,724.4127749000909,None,None,0,,,,,,,,,,,,,,121,22,Female,2022-05-09_09h46.00.170,Parachute,2022.1.1,60.208937074314704,
positive,blue,1,k,None,,,,,,,,,0,239,239,239,,,,,,,,,,,,,,,,,,,,,,,,,,,,,,,,,,,,,main,None,None,1,1.4946709000505507,726.1654198000906,None,None,1,,,,,,,,,,,,,,121,22,Female,2022-05-09_09h46.00.170,Parachute,2022.1.1,60.208937074314704,
,,,,,,,,,,,,,,,,,,,,,,,,,,,,,,,,,,,,,,,,,,,,,,,,,,,,,,,,,,,,,,,,,,,,,,,,,728.6604550000047,None,,,,,,,,
