distractor,target,set,ans1,ans2,rep_loop4.thisRepN,rep_loop4.thisTrialN,rep_loop4.thisN,rep_loop4.thisIndex,st2_prac_loop.thisRepN,st2_prac_loop.thisTrialN,st2_prac_loop.thisN,st2_prac_loop.thisIndex,st2_main_loop.thisRepN,st2_main_loop.thisTrialN,st2_main_loop.thisN,st2_main_loop.thisIndex,image_4.started,image_4.stopped,mouse_7.x,mouse_7.y,mouse_7.leftButton,mouse_7.midButton,mouse_7.rightButton,sound_2.started,sound_2.stopped,key_resp_3.keys,mouse_5.x,mouse_5.y,mouse_5.leftButton,mouse_5.midButton,mouse_5.rightButton,mouse_5.started,mouse_5.stopped,yes_text2.started,yes_text2.stopped,no_text2.started,no_text2.stopped,mouse_3.x,mouse_3.y,mouse_3.leftButton,mouse_3.midButton,mouse_3.rightButton,mouse_3.started,mouse_3.stopped,st_prac_back.started,st_prac_back.stopped,st_prac_text.started,st_prac_text.stopped,st_fix_back.started,st_fix_back.stopped,st_fix_2.started,st_fix_2.stopped,main_prac,st_ans,st_res,st_corr,st_rt,st_back.started,st_back.stopped,st2_resp.keys,st2_resp.corr,st_main_back.started,st_main_back.stopped,st_main_text.started,st_main_text.stopped,mouse_4.x,mouse_4.y,mouse_4.leftButton,mouse_4.midButton,mouse_4.rightButton,mouse_4.started,mouse_4.stopped,text_2.started,text_2.stopped,id*,age*,gender*,date,expName,psychopyVersion,frameRate,
,,,,,,,,,,,,,,,,,33.21122870000545,None,-0.34444445,-0.21851853,0,0,0,,,,,,,,,,,,,,,,,,,,,,,,,,,,,,,,,,,,,,,,,,,,,,,,,,,,122,21,Female,2022-05-09_16h04.23.657,Parachute,2022.1.1,59.8563328091407,
negative,yellow,1,k,None,,,,,0,0,0,0,,,,,,,,,,,,38.8230435200152,None,None,0.072222225,-0.40925926,0,0,0,1.0113426201278344,None,102.39287139999215,None,102.39287139999215,None,-0.108333334,-0.075,0,0,0,0.013023919891566038,None,103.88118259992916,None,103.88118259992916,None,105.893352999934,None,105.893352999934,None,prac,k,k,1,1.7646412999602035,107.90733939991333,None,None,0,,,,,,,,,,,,,,122,21,Female,2022-05-09_16h04.23.657,Parachute,2022.1.1,59.8563328091407,
positive,red,2,None,None,,,,,0,1,1,1,,,,,,,,,,,,,,,,,,,,,,,,,,,,,,,,,,,,,,,,,prac,None,None,1,1.5021341999527067,111.69071719993372,None,None,1,,,,,,,,,,,,,,122,21,Female,2022-05-09_16h04.23.657,Parachute,2022.1.1,59.8563328091407,
negative,blue,2,None,k,,,,,0,2,2,2,,,,,,,,,,,,,,,,,,,,,,,,,,,,,,,,,,,,,,,,,prac,None,None,1,1.4978207999374717,114.19513449992519,None,None,1,,,,,,,,,,,,,,122,21,Female,2022-05-09_16h04.23.657,Parachute,2022.1.1,59.8563328091407,
positive,yellow,1,None,k,,,,,0,3,3,3,,,,,,,,,,,,,,,,,,,,,,,,,,,,,,,,,,,,,,,,,prac,None,None,1,1.4989985000574961,116.69327239994891,None,None,1,,,,,,,,,,,,,,122,21,Female,2022-05-09_16h04.23.657,Parachute,2022.1.1,59.8563328091407,
negative,blue,2,None,k,,,,,0,4,4,4,,,,,,,,,,,,,,,,,,,,,,,,,,,,,,,,,,,,,,,,,prac,None,None,1,1.4976433999836445,119.19418190000579,None,None,1,,,,,,,,,,,,,,122,21,Female,2022-05-09_16h04.23.657,Parachute,2022.1.1,59.8563328091407,
negative,blue,1,None,k,,,,,0,5,5,5,,,,,,,,,,,,,,,,,,,,,,,,,,,,,,,,,,,,,,,,,prac,None,None,1,1.5009244000539184,121.69280870002694,None,None,1,,,,,,,,,,,,,,122,21,Female,2022-05-09_16h04.23.657,Parachute,2022.1.1,59.8563328091407,
negative,yellow,2,k,None,,,,,0,6,6,6,,,,,,,,,,,,,,,,,,,,,,,,,,,,,,,,,,,,,,,,,prac,k,k,1,1.1017969999229535,124.19646529993042,None,None,0,,,,,,,,,,,,,,122,21,Female,2022-05-09_16h04.23.657,Parachute,2022.1.1,59.8563328091407,
negative,red,1,None,None,,,,,0,7,7,7,,,,,,,,,,,,,,,,,,,,,,,,,,,,,,,,,,,,,,,,,prac,None,None,1,1.4926908999914303,126.29706449992955,None,None,1,,,,,,,,,,,,,,122,21,Female,2022-05-09_16h04.23.657,Parachute,2022.1.1,59.8563328091407,
positive,yellow,2,None,k,,,,,0,8,8,8,,,,,,,,,,,,,,,,,,,,,,,,,,,,,,,,,,,,,,,,,prac,None,None,1,1.4991571999853477,128.7936255999375,None,None,1,,,,,,,,,,,,,,122,21,Female,2022-05-09_16h04.23.657,Parachute,2022.1.1,59.8563328091407,
negative,yellow,1,k,None,,,,,0,9,9,9,,,,,,,,,,,,,,,,,,,,,,,,,,,,,,,,,,,,,,,,,prac,k,k,1,1.4869115999899805,131.29363089997787,None,None,0,,,,,,,,,,,,,,122,21,Female,2022-05-09_16h04.23.657,Parachute,2022.1.1,59.8563328091407,
positive,yellow,2,None,k,,,,,0,10,10,10,,,,,,,,,,,,,,,,,,,,,,,,,,,,,,,,,,,,,,,,,prac,None,None,1,1.493946100003086,133.78024779993575,None,None,1,,,,,,,,,,,,,,122,21,Female,2022-05-09_16h04.23.657,Parachute,2022.1.1,59.8563328091407,
negative,yellow,2,k,None,,,,,0,11,11,11,,,,,,,,,,,,,,,,,,,,,,,,,,,,,,,,,,,,,,,,,prac,k,k,1,0.9957347000017762,136.2778078999836,None,None,0,,,,,,,,,,,,,,122,21,Female,2022-05-09_16h04.23.657,Parachute,2022.1.1,59.8563328091407,
negative,red,2,None,None,,,,,0,12,12,12,,,,,,,,,,,,,,,,,,,,,,,,,,,,,,,,,,,,,,,,,prac,None,None,1,1.501411399920471,138.27517029992305,None,None,1,,,,,,,,,,,,,,122,21,Female,2022-05-09_16h04.23.657,Parachute,2022.1.1,59.8563328091407,
positive,red,1,None,None,,,,,0,13,13,13,,,,,,,,,,,,,,,,,,,,,,,,,,,,,,,,,,,,,,,,,prac,None,None,1,1.4982443999033421,140.77898910001386,None,None,1,,,,,,,,,,,,,,122,21,Female,2022-05-09_16h04.23.657,Parachute,2022.1.1,59.8563328091407,
positive,blue,2,k,None,,,,,0,14,14,14,,,,,,,,,,,,,,,,,,,,,,,,,,,,,,,,,,,,,,,,,prac,k,k,1,0.7537353999214247,143.2779426999623,None,None,0,,,,,,,,,,,,,,122,21,Female,2022-05-09_16h04.23.657,Parachute,2022.1.1,59.8563328091407,
positive,blue,1,k,None,,,,,0,15,15,15,,,,,,,,,,,,,,,,,,,,,,,,,,,,,,,,,,,,,,,,,prac,k,k,1,1.331429100013338,145.03139739995822,None,None,0,,,,,,,,,,,,,,122,21,Female,2022-05-09_16h04.23.657,Parachute,2022.1.1,59.8563328091407,
negative,blue,1,None,k,,,,,0,16,16,16,,,,,,,,,,,,,,,,,,,,,,,,,,,,,,,,,,,,,,,,,prac,None,None,1,1.4937215000391006,147.36356899992097,None,None,1,,,,,,,,,,,,,,122,21,Female,2022-05-09_16h04.23.657,Parachute,2022.1.1,59.8563328091407,
positive,blue,2,k,None,,,,,0,17,17,17,,,,,,,,,,,,,,,,,,,,,,,,,,,,,,,,,,,,,,,,,prac,k,k,1,0.7700300000142306,149.86107440001797,None,None,0,,,,,,,,,,,,,,122,21,Female,2022-05-09_16h04.23.657,Parachute,2022.1.1,59.8563328091407,
positive,blue,1,k,None,,,,,0,18,18,18,,,,,,,,,,,,,,,,,,,,,,,,,,,,,,,,,,,,,,,,,prac,k,k,1,0.8656499000499025,151.62997249991167,None,None,0,,,,,,,,,,,,,,122,21,Female,2022-05-09_16h04.23.657,Parachute,2022.1.1,59.8563328091407,
positive,yellow,1,None,k,,,,,0,19,19,19,,,,,,,,,,,,,,,,,,,,,,,,,,,,,,,,,,,,,,,,,prac,None,None,1,1.4935161001048982,153.49781959992833,None,None,1,,,,,,,,,,,,,,122,21,Female,2022-05-09_16h04.23.657,Parachute,2022.1.1,59.8563328091407,
negative,yellow,1,k,None,,,,,1,0,20,0,,,,,,,,,,,,,,,,,,,,,,,,,,,,,,,,,,,,,,,,,prac,k,k,1,0.9347729000728577,155.99510940001346,None,None,0,,,,,,,,,,,,,,122,21,Female,2022-05-09_16h04.23.657,Parachute,2022.1.1,59.8563328091407,
positive,red,2,None,None,,,,,1,1,21,1,,,,,,,,,,,,,,,,,,,,,,,,,,,,,,,,,,,,,,,,,prac,None,None,1,1.4953752999426797,157.9389454999473,None,None,1,,,,,,,,,,,,,,122,21,Female,2022-05-09_16h04.23.657,Parachute,2022.1.1,59.8563328091407,
negative,blue,2,None,k,,,,,1,2,22,2,,,,,,,,,,,,,,,,,,,,,,,,,,,,,,,,,,,,,,,,,prac,None,None,1,1.4983778999885544,160.42802919994574,None,None,1,,,,,,,,,,,,,,122,21,Female,2022-05-09_16h04.23.657,Parachute,2022.1.1,59.8563328091407,
positive,yellow,1,None,k,,,,,1,3,23,3,,,,,,,,,,,,,,,,,,,,,,,,,,,,,,,,,,,,,,,,,prac,None,None,1,1.4984396999934688,162.92814380000345,None,None,1,,,,,,,,,,,,,,122,21,Female,2022-05-09_16h04.23.657,Parachute,2022.1.1,59.8563328091407,
negative,blue,2,None,k,,,,,1,4,24,4,,,,,,,,,,,,,,,,,,,,,,,,,,,,,,,,,,,,,,,,,prac,None,None,1,1.499023100011982,165.4276410000166,None,None,1,,,,,,,,,,,,,,122,21,Female,2022-05-09_16h04.23.657,Parachute,2022.1.1,59.8563328091407,
negative,blue,1,None,k,,,,,1,5,25,5,,,,,,,,,,,,,,,,,,,,,,,,,,,,,,,,,,,,,,,,,prac,None,None,1,1.4983175999950618,167.9278678999981,None,None,1,,,,,,,,,,,,,,122,21,Female,2022-05-09_16h04.23.657,Parachute,2022.1.1,59.8563328091407,
negative,yellow,2,k,None,,,,,1,6,26,6,,,,,,,,,,,,,,,,,,,,,,,,,,,,,,,,,,,,,,,,,prac,k,k,1,1.6696356000611559,170.42824279994238,None,None,0,,,,,,,,,,,,,,122,21,Female,2022-05-09_16h04.23.657,Parachute,2022.1.1,59.8563328091407,
negative,red,1,None,None,,,,,1,7,27,7,,,,,,,,,,,,,,,,,,,,,,,,,,,,,,,,,,,,,,,,,prac,None,None,1,1.5019664999563247,174.10897800000384,None,None,1,,,,,,,,,,,,,,122,21,Female,2022-05-09_16h04.23.657,Parachute,2022.1.1,59.8563328091407,
positive,yellow,2,None,k,,,,,1,8,28,8,,,,,,,,,,,,,,,,,,,,,,,,,,,,,,,,,,,,,,,,,prac,None,None,1,1.4984390999889001,176.61211430002004,None,None,1,,,,,,,,,,,,,,122,21,Female,2022-05-09_16h04.23.657,Parachute,2022.1.1,59.8563328091407,
negative,yellow,1,k,None,,,,,1,9,29,9,,,,,,,,,,,,,,,,,,,,,,,,,,,,,,,,,,,,,,,,,prac,k,k,1,1.0207828999264166,179.111678199959,None,None,0,,,,,,,,,,,,,,122,21,Female,2022-05-09_16h04.23.657,Parachute,2022.1.1,59.8563328091407,
positive,yellow,2,None,k,,,,,1,10,30,10,,,,,,,,,,,,,,,,,,,,,,,,,,,,,,,,,,,,,,,,,prac,None,None,1,1.4932752000167966,181.13174619991332,None,None,1,,,,,,,,,,,,,,122,21,Female,2022-05-09_16h04.23.657,Parachute,2022.1.1,59.8563328091407,
negative,yellow,2,k,None,,,,,1,11,31,11,,,,,,,,,,,,,,,,,,,,,,,,,,,,,,,,,,,,,,,,,prac,k,k,1,0.8524846999207512,183.62982199992985,None,None,0,,,,,,,,,,,,,,122,21,Female,2022-05-09_16h04.23.657,Parachute,2022.1.1,59.8563328091407,
negative,red,2,None,None,,,,,1,12,32,12,,,,,,,,,,,,,,,,,,,,,,,,,,,,,,,,,,,,,,,,,prac,None,None,1,1.4942757999524474,185.48100009991322,None,None,1,,,,,,,,,,,,,,122,21,Female,2022-05-09_16h04.23.657,Parachute,2022.1.1,59.8563328091407,
positive,red,1,None,None,,,,,1,13,33,13,,,,,,,,,,,,,,,,,,,,,,,,,,,,,,,,,,,,,,,,,prac,None,None,1,1.498388799955137,187.97906089993194,None,None,1,,,,,,,,,,,,,,122,21,Female,2022-05-09_16h04.23.657,Parachute,2022.1.1,59.8563328091407,
positive,blue,2,k,None,,,,,1,14,34,14,,,,,,,,,,,,,,,,,,,,,,,,,,,,,,,,,,,,,,,,,prac,k,k,1,0.7220338999759406,190.47863089991733,None,None,0,,,,,,,,,,,,,,122,21,Female,2022-05-09_16h04.23.657,Parachute,2022.1.1,59.8563328091407,
positive,blue,1,k,None,,,,,1,15,35,15,,,,,,,,,,,,,,,,,,,,,,,,,,,,,,,,,,,,,,,,,prac,k,k,1,1.029030599980615,192.20048409991432,None,None,0,,,,,,,,,,,,,,122,21,Female,2022-05-09_16h04.23.657,Parachute,2022.1.1,59.8563328091407,
negative,blue,1,None,k,,,,,1,16,36,16,,,,,,,,,,,,,,,,,,,,,,,,,,,,,,,,,,,,,,,,,prac,None,None,1,1.4947998999850824,194.23190859996248,None,None,1,,,,,,,,,,,,,,122,21,Female,2022-05-09_16h04.23.657,Parachute,2022.1.1,59.8563328091407,
positive,blue,2,k,None,,,,,1,17,37,17,,,,,,,,,,,,,,,,,,,,,,,,,,,,,,,,,,,,,,,,,prac,k,k,1,0.7339785000076517,196.73095529992133,None,None,0,,,,,,,,,,,,,,122,21,Female,2022-05-09_16h04.23.657,Parachute,2022.1.1,59.8563328091407,
positive,blue,1,k,None,,,,,1,18,38,18,,,,,,,,,,,,,,,,,,,,,,,,,,,,,,,,,,,,,,,,,prac,k,k,1,0.9344704999821261,198.4649474999169,None,None,0,,,,,,,,,,,,,,122,21,Female,2022-05-09_16h04.23.657,Parachute,2022.1.1,59.8563328091407,
positive,yellow,1,None,k,,,,,1,19,39,19,,,,,,,,,,,,,,,,,,,,,,,,,,,,,,,,,,,,,,,,,prac,None,None,1,1.4931822000071406,200.39816550002433,None,None,1,,,,,,,,,,,,,,122,21,Female,2022-05-09_16h04.23.657,Parachute,2022.1.1,59.8563328091407,
,,,,,,,,,,,,,,,,,,,,,,,,,,,,,,,,,,,,,,,,,,,,,,,,,,,,,,,,,,,,,,202.91409530001692,None,202.91409530001692,None,0.09537037,-0.17777778,0,0,0,0.012350219883956015,None,,,122,21,Female,2022-05-09_16h04.23.657,Parachute,2022.1.1,59.8563328091407,
negative,yellow,2,k,None,,,,,,,,,0,0,0,0,,,,,,,,,,,,,,,,,,,,,,,,,,,,,,,,,210.9100084999809,None,210.9100084999809,None,main,k,k,1,0.8626942000119016,212.94972549995873,None,None,0,,,,,,,,,,,,,,122,21,Female,2022-05-09_16h04.23.657,Parachute,2022.1.1,59.8563328091407,
positive,red,1,None,None,,,,,,,,,0,1,1,1,,,,,,,,,,,,,,,,,,,,,,,,,,,,,,,,,,,,,main,None,None,1,1.4942138999467716,214.81499430001713,None,None,1,,,,,,,,,,,,,,122,21,Female,2022-05-09_16h04.23.657,Parachute,2022.1.1,59.8563328091407,
positive,blue,2,k,None,,,,,,,,,0,2,2,2,,,,,,,,,,,,,,,,,,,,,,,,,,,,,,,,,,,,,main,k,k,1,0.6864218999398872,217.31320309999865,None,None,0,,,,,,,,,,,,,,122,21,Female,2022-05-09_16h04.23.657,Parachute,2022.1.1,59.8563328091407,
positive,blue,1,k,None,,,,,,,,,0,3,3,3,,,,,,,,,,,,,,,,,,,,,,,,,,,,,,,,,,,,,main,k,k,1,0.649188100011088,218.9987143999897,None,None,0,,,,,,,,,,,,,,122,21,Female,2022-05-09_16h04.23.657,Parachute,2022.1.1,59.8563328091407,
negative,yellow,2,k,None,,,,,,,,,0,4,4,4,,,,,,,,,,,,,,,,,,,,,,,,,,,,,,,,,,,,,main,k,k,1,0.713178199948743,220.64916019991506,None,None,0,,,,,,,,,,,,,,122,21,Female,2022-05-09_16h04.23.657,Parachute,2022.1.1,59.8563328091407,
positive,yellow,2,None,k,,,,,,,,,0,5,5,5,,,,,,,,,,,,,,,,,,,,,,,,,,,,,,,,,,,,,main,None,None,1,1.4950893999775872,222.3753071000101,None,None,1,,,,,,,,,,,,,,122,21,Female,2022-05-09_16h04.23.657,Parachute,2022.1.1,59.8563328091407,
negative,blue,2,None,k,,,,,,,,,0,6,6,6,,,,,,,,,,,,,,,,,,,,,,,,,,,,,,,,,,,,,main,None,None,1,1.4985282000852749,224.86246929992922,None,None,1,,,,,,,,,,,,,,122,21,Female,2022-05-09_16h04.23.657,Parachute,2022.1.1,59.8563328091407,
positive,red,2,None,None,,,,,,,,,0,7,7,7,,,,,,,,,,,,,,,,,,,,,,,,,,,,,,,,,,,,,main,None,None,1,1.4984809999587014,227.3633877999382,None,None,1,,,,,,,,,,,,,,122,21,Female,2022-05-09_16h04.23.657,Parachute,2022.1.1,59.8563328091407,
positive,yellow,1,None,k,,,,,,,,,0,8,8,8,,,,,,,,,,,,,,,,,,,,,,,,,,,,,,,,,,,,,main,None,None,1,1.4985841000452638,229.86470179993194,None,None,1,,,,,,,,,,,,,,122,21,Female,2022-05-09_16h04.23.657,Parachute,2022.1.1,59.8563328091407,
negative,red,1,None,None,,,,,,,,,0,9,9,9,,,,,,,,,,,,,,,,,,,,,,,,,,,,,,,,,,,,,main,None,None,1,1.4988072999985889,232.36552280001342,None,None,1,,,,,,,,,,,,,,122,21,Female,2022-05-09_16h04.23.657,Parachute,2022.1.1,59.8563328091407,
positive,yellow,1,None,k,,,,,,,,,0,10,10,10,,,,,,,,,,,,,,,,,,,,,,,,,,,,,,,,,,,,,main,None,None,1,1.4982464000349864,234.86440840002615,None,None,1,,,,,,,,,,,,,,122,21,Female,2022-05-09_16h04.23.657,Parachute,2022.1.1,59.8563328091407,
negative,yellow,1,k,None,,,,,,,,,0,11,11,11,,,,,,,,,,,,,,,,,,,,,,,,,,,,,,,,,,,,,main,k,k,1,0.9209425998851657,237.3635256999405,None,None,0,,,,,,,,,,,,,,122,21,Female,2022-05-09_16h04.23.657,Parachute,2022.1.1,59.8563328091407,
negative,yellow,1,k,None,,,,,,,,,0,12,12,12,,,,,,,,,,,,,,,,,,,,,,,,,,,,,,,,,,,,,main,k,k,1,0.9474724000319839,239.28255659993738,None,None,0,,,,,,,,,,,,,,122,21,Female,2022-05-09_16h04.23.657,Parachute,2022.1.1,59.8563328091407,
negative,red,2,None,None,,,,,,,,,0,13,13,13,,,,,,,,,,,,,,,,,,,,,,,,,,,,,,,,,,,,,main,None,None,1,1.4942114000441507,241.23231420002412,None,None,1,,,,,,,,,,,,,,122,21,Female,2022-05-09_16h04.23.657,Parachute,2022.1.1,59.8563328091407,
positive,yellow,2,None,k,,,,,,,,,0,14,14,14,,,,,,,,,,,,,,,,,,,,,,,,,,,,,,,,,,,,,main,None,None,1,1.4989887000992894,243.73026859993115,None,None,1,,,,,,,,,,,,,,122,21,Female,2022-05-09_16h04.23.657,Parachute,2022.1.1,59.8563328091407,
positive,blue,1,k,None,,,,,,,,,0,15,15,15,,,,,,,,,,,,,,,,,,,,,,,,,,,,,,,,,,,,,main,k,k,1,0.7865313000511378,246.2302575999638,None,None,0,,,,,,,,,,,,,,122,21,Female,2022-05-09_16h04.23.657,Parachute,2022.1.1,59.8563328091407,
negative,blue,1,None,k,,,,,,,,,0,16,16,16,,,,,,,,,,,,,,,,,,,,,,,,,,,,,,,,,,,,,main,None,None,1,1.4933433999540284,248.01631620002445,None,None,1,,,,,,,,,,,,,,122,21,Female,2022-05-09_16h04.23.657,Parachute,2022.1.1,59.8563328091407,
positive,blue,2,k,None,,,,,,,,,0,17,17,17,,,,,,,,,,,,,,,,,,,,,,,,,,,,,,,,,,,,,main,k,k,1,0.7787561999866739,250.5140027999878,None,None,0,,,,,,,,,,,,,,122,21,Female,2022-05-09_16h04.23.657,Parachute,2022.1.1,59.8563328091407,
negative,blue,2,None,k,,,,,,,,,0,18,18,18,,,,,,,,,,,,,,,,,,,,,,,,,,,,,,,,,,,,,main,None,None,1,1.5019642000552267,252.2935421000002,None,None,1,,,,,,,,,,,,,,122,21,Female,2022-05-09_16h04.23.657,Parachute,2022.1.1,59.8563328091407,
negative,blue,1,None,k,,,,,,,,,0,19,19,19,,,,,,,,,,,,,,,,,,,,,,,,,,,,,,,,,,,,,main,None,None,1,1.4984900000272319,254.79690850002225,None,None,1,,,,,,,,,,,,,,122,21,Female,2022-05-09_16h04.23.657,Parachute,2022.1.1,59.8563328091407,
negative,blue,1,None,k,,,,,,,,,0,20,20,20,,,,,,,,,,,,,,,,,,,,,,,,,,,,,,,,,,,,,main,None,None,1,1.498027199995704,257.29680909996387,None,None,1,,,,,,,,,,,,,,122,21,Female,2022-05-09_16h04.23.657,Parachute,2022.1.1,59.8563328091407,
negative,blue,2,None,k,,,,,,,,,0,21,21,21,,,,,,,,,,,,,,,,,,,,,,,,,,,,,,,,,,,,,main,None,None,1,1.499695700011216,259.7961818999611,None,None,1,,,,,,,,,,,,,,122,21,Female,2022-05-09_16h04.23.657,Parachute,2022.1.1,59.8563328091407,
negative,red,1,None,None,,,,,,,,,0,22,22,22,,,,,,,,,,,,,,,,,,,,,,,,,,,,,,,,,,,,,main,None,None,1,1.4980053999461234,262.2984519000165,None,None,1,,,,,,,,,,,,,,122,21,Female,2022-05-09_16h04.23.657,Parachute,2022.1.1,59.8563328091407,
positive,red,2,None,None,,,,,,,,,0,23,23,23,,,,,,,,,,,,,,,,,,,,,,,,,,,,,,,,,,,,,main,None,None,1,1.4981008999748155,264.79718819994014,None,None,1,,,,,,,,,,,,,,122,21,Female,2022-05-09_16h04.23.657,Parachute,2022.1.1,59.8563328091407,
negative,red,2,None,None,,,,,,,,,0,24,24,24,,,,,,,,,,,,,,,,,,,,,,,,,,,,,,,,,,,,,main,None,None,1,1.4986415000166744,267.29762670001946,None,None,1,,,,,,,,,,,,,,122,21,Female,2022-05-09_16h04.23.657,Parachute,2022.1.1,59.8563328091407,
positive,blue,2,k,None,,,,,,,,,0,25,25,25,,,,,,,,,,,,,,,,,,,,,,,,,,,,,,,,,,,,,main,k,k,1,0.735239899950102,269.79709629993886,None,None,0,,,,,,,,,,,,,,122,21,Female,2022-05-09_16h04.23.657,Parachute,2022.1.1,59.8563328091407,
negative,yellow,1,k,None,,,,,,,,,0,26,26,26,,,,,,,,,,,,,,,,,,,,,,,,,,,,,,,,,,,,,main,k,k,1,0.8658753999043256,271.5412996999221,None,None,0,,,,,,,,,,,,,,122,21,Female,2022-05-09_16h04.23.657,Parachute,2022.1.1,59.8563328091407,
positive,blue,2,k,None,,,,,,,,,0,27,27,27,,,,,,,,,,,,,,,,,,,,,,,,,,,,,,,,,,,,,main,k,k,1,0.7163853000383824,273.39949250000063,None,None,0,,,,,,,,,,,,,,122,21,Female,2022-05-09_16h04.23.657,Parachute,2022.1.1,59.8563328091407,
negative,blue,2,None,k,,,,,,,,,0,28,28,28,,,,,,,,,,,,,,,,,,,,,,,,,,,,,,,,,,,,,main,None,None,1,1.4935394999338314,275.11662129999604,None,None,1,,,,,,,,,,,,,,122,21,Female,2022-05-09_16h04.23.657,Parachute,2022.1.1,59.8563328091407,
positive,red,1,None,None,,,,,,,,,0,29,29,29,,,,,,,,,,,,,,,,,,,,,,,,,,,,,,,,,,,,,main,None,None,1,1.4979381000157446,277.61431500001345,None,None,1,,,,,,,,,,,,,,122,21,Female,2022-05-09_16h04.23.657,Parachute,2022.1.1,59.8563328091407,
positive,blue,1,k,None,,,,,,,,,0,30,30,30,,,,,,,,,,,,,,,,,,,,,,,,,,,,,,,,,,,,,main,k,k,1,0.6373440999304876,280.11348079994787,None,None,0,,,,,,,,,,,,,,122,21,Female,2022-05-09_16h04.23.657,Parachute,2022.1.1,59.8563328091407,
positive,yellow,1,None,k,,,,,,,,,0,31,31,31,,,,,,,,,,,,,,,,,,,,,,,,,,,,,,,,,,,,,main,None,None,1,1.4932801000541076,281.7498584999703,None,None,1,,,,,,,,,,,,,,122,21,Female,2022-05-09_16h04.23.657,Parachute,2022.1.1,59.8563328091407,
negative,yellow,2,k,None,,,,,,,,,0,32,32,32,,,,,,,,,,,,,,,,,,,,,,,,,,,,,,,,,,,,,main,k,k,1,0.7869334999704733,284.24725449993275,None,None,0,,,,,,,,,,,,,,122,21,Female,2022-05-09_16h04.23.657,Parachute,2022.1.1,59.8563328091407,
negative,blue,1,None,k,,,,,,,,,0,33,33,33,,,,,,,,,,,,,,,,,,,,,,,,,,,,,,,,,,,,,main,None,None,1,1.493896899977699,286.0332381000044,None,None,1,,,,,,,,,,,,,,122,21,Female,2022-05-09_16h04.23.657,Parachute,2022.1.1,59.8563328091407,
positive,blue,1,k,None,,,,,,,,,0,34,34,34,,,,,,,,,,,,,,,,,,,,,,,,,,,,,,,,,,,,,main,k,k,1,0.6366291000740603,288.5323774999706,None,None,0,,,,,,,,,,,,,,122,21,Female,2022-05-09_16h04.23.657,Parachute,2022.1.1,59.8563328091407,
negative,yellow,1,k,None,,,,,,,,,0,35,35,35,,,,,,,,,,,,,,,,,,,,,,,,,,,,,,,,,,,,,main,k,k,1,0.9820610999595374,290.16702689998783,None,None,0,,,,,,,,,,,,,,122,21,Female,2022-05-09_16h04.23.657,Parachute,2022.1.1,59.8563328091407,
positive,yellow,2,None,k,,,,,,,,,0,36,36,36,,,,,,,,,,,,,,,,,,,,,,,,,,,,,,,,,,,,,main,None,None,1,1.4934497999493033,292.1498439999996,None,None,1,,,,,,,,,,,,,,122,21,Female,2022-05-09_16h04.23.657,Parachute,2022.1.1,59.8563328091407,
positive,yellow,2,None,k,,,,,,,,,0,37,37,37,,,,,,,,,,,,,,,,,,,,,,,,,,,,,,,,,,,,,main,None,None,1,1.4987225999357179,294.64745699998457,None,None,1,,,,,,,,,,,,,,122,21,Female,2022-05-09_16h04.23.657,Parachute,2022.1.1,59.8563328091407,
negative,yellow,2,k,None,,,,,,,,,0,38,38,38,,,,,,,,,,,,,,,,,,,,,,,,,,,,,,,,,,,,,main,k,k,1,0.7525246000150219,297.1477513000136,None,None,0,,,,,,,,,,,,,,122,21,Female,2022-05-09_16h04.23.657,Parachute,2022.1.1,59.8563328091407,
positive,yellow,1,None,k,,,,,,,,,0,39,39,39,,,,,,,,,,,,,,,,,,,,,,,,,,,,,,,,,,,,,main,None,None,1,1.4949929000576958,298.9002215999644,None,None,1,,,,,,,,,,,,,,122,21,Female,2022-05-09_16h04.23.657,Parachute,2022.1.1,59.8563328091407,
negative,yellow,2,k,None,,,,,,,,,0,40,40,40,,,,,,,,,,,,,,,,,,,,,,,,,,,,,,,,,,,,,main,k,k,1,0.9018731999676675,301.39789759996347,None,None,0,,,,,,,,,,,,,,122,21,Female,2022-05-09_16h04.23.657,Parachute,2022.1.1,59.8563328091407,
positive,blue,2,k,None,,,,,,,,,0,41,41,41,,,,,,,,,,,,,,,,,,,,,,,,,,,,,,,,,,,,,main,k,k,1,0.6993766000960022,303.30035629996564,None,None,0,,,,,,,,,,,,,,122,21,Female,2022-05-09_16h04.23.657,Parachute,2022.1.1,59.8563328091407,
positive,blue,2,k,None,,,,,,,,,0,42,42,42,,,,,,,,,,,,,,,,,,,,,,,,,,,,,,,,,,,,,main,k,k,1,0.699685400002636,304.99976209993474,None,None,0,,,,,,,,,,,,,,122,21,Female,2022-05-09_16h04.23.657,Parachute,2022.1.1,59.8563328091407,
negative,blue,2,None,k,,,,,,,,,0,43,43,43,,,,,,,,,,,,,,,,,,,,,,,,,,,,,,,,,,,,,main,None,None,1,1.5099891999270767,306.70153289998416,None,None,1,,,,,,,,,,,,,,122,21,Female,2022-05-09_16h04.23.657,Parachute,2022.1.1,59.8563328091407,
negative,red,1,None,None,,,,,,,,,0,44,44,44,,,,,,,,,,,,,,,,,,,,,,,,,,,,,,,,,,,,,main,None,k,0,1.4980055000633001,309.2153816999635,None,None,1,,,,,,,,,,,,,,122,21,Female,2022-05-09_16h04.23.657,Parachute,2022.1.1,59.8563328091407,
negative,yellow,1,k,None,,,,,,,,,0,45,45,45,,,,,,,,,,,,,,,,,,,,,,,,,,,,,,,,,,,,,main,k,k,1,0.9406057000160217,312.7287050000159,None,None,0,,,,,,,,,,,,,,122,21,Female,2022-05-09_16h04.23.657,Parachute,2022.1.1,59.8563328091407,
negative,yellow,1,k,None,,,,,,,,,0,46,46,46,,,,,,,,,,,,,,,,,,,,,,,,,,,,,,,,,,,,,main,k,k,1,1.8986012000823393,314.66870929999277,None,None,0,,,,,,,,,,,,,,122,21,Female,2022-05-09_16h04.23.657,Parachute,2022.1.1,59.8563328091407,
positive,red,1,None,None,,,,,,,,,0,47,47,47,,,,,,,,,,,,,,,,,,,,,,,,,,,,,,,,,,,,,main,None,None,1,1.5023115000221878,318.57871839997824,None,None,1,,,,,,,,,,,,,,122,21,Female,2022-05-09_16h04.23.657,Parachute,2022.1.1,59.8563328091407,
positive,yellow,1,None,k,,,,,,,,,0,48,48,48,,,,,,,,,,,,,,,,,,,,,,,,,,,,,,,,,,,,,main,None,None,1,1.4977195999817923,321.08270739996806,None,None,1,,,,,,,,,,,,,,122,21,Female,2022-05-09_16h04.23.657,Parachute,2022.1.1,59.8563328091407,
negative,blue,1,None,k,,,,,,,,,0,49,49,49,,,,,,,,,,,,,,,,,,,,,,,,,,,,,,,,,,,,,main,None,None,1,1.497999000013806,323.5819541999372,None,None,1,,,,,,,,,,,,,,122,21,Female,2022-05-09_16h04.23.657,Parachute,2022.1.1,59.8563328091407,
positive,yellow,2,None,k,,,,,,,,,0,50,50,50,,,,,,,,,,,,,,,,,,,,,,,,,,,,,,,,,,,,,main,None,None,1,1.4989545000717044,326.0808949000202,None,None,1,,,,,,,,,,,,,,122,21,Female,2022-05-09_16h04.23.657,Parachute,2022.1.1,59.8563328091407,
negative,blue,1,None,k,,,,,,,,,0,51,51,51,,,,,,,,,,,,,,,,,,,,,,,,,,,,,,,,,,,,,main,None,None,1,1.4990195001009852,328.5808125999756,None,None,1,,,,,,,,,,,,,,122,21,Female,2022-05-09_16h04.23.657,Parachute,2022.1.1,59.8563328091407,
positive,red,2,None,None,,,,,,,,,0,52,52,52,,,,,,,,,,,,,,,,,,,,,,,,,,,,,,,,,,,,,main,None,None,1,1.4983136999653652,331.08196689991746,None,None,1,,,,,,,,,,,,,,122,21,Female,2022-05-09_16h04.23.657,Parachute,2022.1.1,59.8563328091407,
positive,yellow,2,None,k,,,,,,,,,0,53,53,53,,,,,,,,,,,,,,,,,,,,,,,,,,,,,,,,,,,,,main,None,None,1,1.498907900066115,333.58160779997706,None,None,1,,,,,,,,,,,,,,122,21,Female,2022-05-09_16h04.23.657,Parachute,2022.1.1,59.8563328091407,
negative,red,2,None,None,,,,,,,,,0,54,54,54,,,,,,,,,,,,,,,,,,,,,,,,,,,,,,,,,,,,,main,None,None,1,1.4978186999214813,336.08197830000427,None,None,1,,,,,,,,,,,,,,122,21,Female,2022-05-09_16h04.23.657,Parachute,2022.1.1,59.8563328091407,
positive,yellow,1,None,k,,,,,,,,,0,55,55,55,,,,,,,,,,,,,,,,,,,,,,,,,,,,,,,,,,,,,main,None,None,1,1.499329200014472,338.5815595999593,None,None,1,,,,,,,,,,,,,,122,21,Female,2022-05-09_16h04.23.657,Parachute,2022.1.1,59.8563328091407,
negative,blue,2,None,k,,,,,,,,,0,56,56,56,,,,,,,,,,,,,,,,,,,,,,,,,,,,,,,,,,,,,main,None,None,1,1.4983497000066563,341.08167310000863,None,None,1,,,,,,,,,,,,,,122,21,Female,2022-05-09_16h04.23.657,Parachute,2022.1.1,59.8563328091407,
positive,blue,1,k,None,,,,,,,,,0,57,57,57,,,,,,,,,,,,,,,,,,,,,,,,,,,,,,,,,,,,,main,k,k,1,0.753805199987255,343.5816368999658,None,None,0,,,,,,,,,,,,,,122,21,Female,2022-05-09_16h04.23.657,Parachute,2022.1.1,59.8563328091407,
positive,blue,1,k,None,,,,,,,,,0,58,58,58,,,,,,,,,,,,,,,,,,,,,,,,,,,,,,,,,,,,,main,k,k,1,0.6982906999764964,345.3347306000069,None,None,0,,,,,,,,,,,,,,122,21,Female,2022-05-09_16h04.23.657,Parachute,2022.1.1,59.8563328091407,
negative,yellow,2,k,None,,,,,,,,,0,59,59,59,,,,,,,,,,,,,,,,,,,,,,,,,,,,,,,,,,,,,main,k,k,1,0.732714100042358,347.0358404999133,None,None,0,,,,,,,,,,,,,,122,21,Female,2022-05-09_16h04.23.657,Parachute,2022.1.1,59.8563328091407,
positive,red,2,None,None,,,,,,,,,0,60,60,60,,,,,,,,,,,,,,,,,,,,,,,,,,,,,,,,,,,,,main,None,None,1,1.4927093000151217,348.76865069998894,None,None,1,,,,,,,,,,,,,,122,21,Female,2022-05-09_16h04.23.657,Parachute,2022.1.1,59.8563328091407,
negative,yellow,1,k,None,,,,,,,,,0,61,61,61,,,,,,,,,,,,,,,,,,,,,,,,,,,,,,,,,,,,,main,k,k,1,0.9870806999970227,351.2652279000031,None,None,0,,,,,,,,,,,,,,122,21,Female,2022-05-09_16h04.23.657,Parachute,2022.1.1,59.8563328091407,
negative,red,1,None,None,,,,,,,,,0,62,62,62,,,,,,,,,,,,,,,,,,,,,,,,,,,,,,,,,,,,,main,None,None,1,1.4935092000523582,353.252370400005,None,None,1,,,,,,,,,,,,,,122,21,Female,2022-05-09_16h04.23.657,Parachute,2022.1.1,59.8563328091407,
negative,blue,1,None,k,,,,,,,,,0,63,63,63,,,,,,,,,,,,,,,,,,,,,,,,,,,,,,,,,,,,,main,None,None,1,1.4988830999936908,355.74999339994974,None,None,1,,,,,,,,,,,,,,122,21,Female,2022-05-09_16h04.23.657,Parachute,2022.1.1,59.8563328091407,
positive,blue,2,k,None,,,,,,,,,0,64,64,64,,,,,,,,,,,,,,,,,,,,,,,,,,,,,,,,,,,,,main,k,k,1,0.7203901000320911,358.25054119993,None,None,0,,,,,,,,,,,,,,122,21,Female,2022-05-09_16h04.23.657,Parachute,2022.1.1,59.8563328091407,
negative,yellow,2,k,None,,,,,,,,,0,65,65,65,,,,,,,,,,,,,,,,,,,,,,,,,,,,,,,,,,,,,main,k,k,1,0.8142572999931872,359.96838869992644,None,None,0,,,,,,,,,,,,,,122,21,Female,2022-05-09_16h04.23.657,Parachute,2022.1.1,59.8563328091407,
positive,yellow,2,None,k,,,,,,,,,0,66,66,66,,,,,,,,,,,,,,,,,,,,,,,,,,,,,,,,,,,,,main,None,None,1,1.494452100014314,361.78492629993707,None,None,1,,,,,,,,,,,,,,122,21,Female,2022-05-09_16h04.23.657,Parachute,2022.1.1,59.8563328091407,
positive,yellow,2,None,k,,,,,,,,,0,67,67,67,,,,,,,,,,,,,,,,,,,,,,,,,,,,,,,,,,,,,main,None,None,1,1.4985870000673458,364.28215360001195,None,None,1,,,,,,,,,,,,,,122,21,Female,2022-05-09_16h04.23.657,Parachute,2022.1.1,59.8563328091407,
positive,red,1,None,None,,,,,,,,,0,68,68,68,,,,,,,,,,,,,,,,,,,,,,,,,,,,,,,,,,,,,main,None,None,1,1.4985950998961926,366.78272329992615,None,None,1,,,,,,,,,,,,,,122,21,Female,2022-05-09_16h04.23.657,Parachute,2022.1.1,59.8563328091407,
positive,yellow,1,None,k,,,,,,,,,0,69,69,69,,,,,,,,,,,,,,,,,,,,,,,,,,,,,,,,,,,,,main,None,None,1,1.497974600060843,369.28326009993907,None,None,1,,,,,,,,,,,,,,122,21,Female,2022-05-09_16h04.23.657,Parachute,2022.1.1,59.8563328091407,
negative,yellow,2,k,None,,,,,,,,,0,70,70,70,,,,,,,,,,,,,,,,,,,,,,,,,,,,,,,,,,,,,main,k,k,1,1.5207836999325082,371.7826553999912,None,None,0,,,,,,,,,,,,,,122,21,Female,2022-05-09_16h04.23.657,Parachute,2022.1.1,59.8563328091407,
positive,yellow,1,None,k,,,,,,,,,0,71,71,71,,,,,,,,,,,,,,,,,,,,,,,,,,,,,,,,,,,,,main,None,None,1,1.5019745999015868,375.3133403999964,None,None,1,,,,,,,,,,,,,,122,21,Female,2022-05-09_16h04.23.657,Parachute,2022.1.1,59.8563328091407,
negative,blue,1,None,k,,,,,,,,,0,72,72,72,,,,,,,,,,,,,,,,,,,,,,,,,,,,,,,,,,,,,main,None,None,1,1.4975741000380367,377.81688739999663,None,None,1,,,,,,,,,,,,,,122,21,Female,2022-05-09_16h04.23.657,Parachute,2022.1.1,59.8563328091407,
negative,red,2,None,None,,,,,,,,,0,73,73,73,,,,,,,,,,,,,,,,,,,,,,,,,,,,,,,,,,,,,main,None,None,1,1.499399800086394,380.315256999922,None,None,1,,,,,,,,,,,,,,122,21,Female,2022-05-09_16h04.23.657,Parachute,2022.1.1,59.8563328091407,
positive,blue,2,k,None,,,,,,,,,0,74,74,74,,,,,,,,,,,,,,,,,,,,,,,,,,,,,,,,,,,,,main,k,k,1,0.6030618000077084,382.8166568999877,None,None,0,,,,,,,,,,,,,,122,21,Female,2022-05-09_16h04.23.657,Parachute,2022.1.1,59.8563328091407,
negative,blue,2,None,k,,,,,,,,,0,75,75,75,,,,,,,,,,,,,,,,,,,,,,,,,,,,,,,,,,,,,main,None,None,1,1.5097275000298396,384.4203427999746,None,None,1,,,,,,,,,,,,,,122,21,Female,2022-05-09_16h04.23.657,Parachute,2022.1.1,59.8563328091407,
negative,blue,2,None,k,,,,,,,,,0,76,76,76,,,,,,,,,,,,,,,,,,,,,,,,,,,,,,,,,,,,,main,None,None,1,1.4979645001003519,386.93389500002377,None,None,1,,,,,,,,,,,,,,122,21,Female,2022-05-09_16h04.23.657,Parachute,2022.1.1,59.8563328091407,
negative,yellow,1,k,None,,,,,,,,,0,77,77,77,,,,,,,,,,,,,,,,,,,,,,,,,,,,,,,,,,,,,main,k,k,1,1.0042075000237674,389.43290429993067,None,None,0,,,,,,,,,,,,,,122,21,Female,2022-05-09_16h04.23.657,Parachute,2022.1.1,59.8563328091407,
positive,blue,1,k,None,,,,,,,,,0,78,78,78,,,,,,,,,,,,,,,,,,,,,,,,,,,,,,,,,,,,,main,k,k,1,0.798676099977456,391.4357533999719,None,None,0,,,,,,,,,,,,,,122,21,Female,2022-05-09_16h04.23.657,Parachute,2022.1.1,59.8563328091407,
positive,blue,1,k,None,,,,,,,,,0,79,79,79,,,,,,,,,,,,,,,,,,,,,,,,,,,,,,,,,,,,,main,k,k,1,0.6986171000171453,393.23670989996754,None,None,0,,,,,,,,,,,,,,122,21,Female,2022-05-09_16h04.23.657,Parachute,2022.1.1,59.8563328091407,
positive,red,2,None,None,,,,,,,,,0,80,80,80,,,,,,,,,,,,,,,,,,,,,,,,,,,,,,,,,,,,,main,None,None,1,1.5110537000000477,394.93696770002134,None,None,1,,,,,,,,,,,,,,122,21,Female,2022-05-09_16h04.23.657,Parachute,2022.1.1,59.8563328091407,
positive,yellow,2,None,k,,,,,,,,,0,81,81,81,,,,,,,,,,,,,,,,,,,,,,,,,,,,,,,,,,,,,main,None,None,1,1.497050300007686,397.4525489999214,None,None,1,,,,,,,,,,,,,,122,21,Female,2022-05-09_16h04.23.657,Parachute,2022.1.1,59.8563328091407,
positive,blue,1,k,None,,,,,,,,,0,82,82,82,,,,,,,,,,,,,,,,,,,,,,,,,,,,,,,,,,,,,main,k,k,1,0.8029241999611259,399.95080330001656,None,None,0,,,,,,,,,,,,,,122,21,Female,2022-05-09_16h04.23.657,Parachute,2022.1.1,59.8563328091407,
negative,yellow,2,k,None,,,,,,,,,0,83,83,83,,,,,,,,,,,,,,,,,,,,,,,,,,,,,,,,,,,,,main,k,k,1,0.8323885999852791,401.75241690000985,None,None,0,,,,,,,,,,,,,,122,21,Female,2022-05-09_16h04.23.657,Parachute,2022.1.1,59.8563328091407,
positive,blue,2,k,None,,,,,,,,,0,84,84,84,,,,,,,,,,,,,,,,,,,,,,,,,,,,,,,,,,,,,main,k,k,1,0.782481599948369,403.58575289999135,None,None,0,,,,,,,,,,,,,,122,21,Female,2022-05-09_16h04.23.657,Parachute,2022.1.1,59.8563328091407,
positive,yellow,1,None,k,,,,,,,,,0,85,85,85,,,,,,,,,,,,,,,,,,,,,,,,,,,,,,,,,,,,,main,None,None,1,1.4930630000308156,405.3700946000172,None,None,1,,,,,,,,,,,,,,122,21,Female,2022-05-09_16h04.23.657,Parachute,2022.1.1,59.8563328091407,
positive,blue,2,k,None,,,,,,,,,0,86,86,86,,,,,,,,,,,,,,,,,,,,,,,,,,,,,,,,,,,,,main,k,k,1,0.7956417000386864,407.8670617999742,None,None,0,,,,,,,,,,,,,,122,21,Female,2022-05-09_16h04.23.657,Parachute,2022.1.1,59.8563328091407,
positive,blue,1,k,None,,,,,,,,,0,87,87,87,,,,,,,,,,,,,,,,,,,,,,,,,,,,,,,,,,,,,main,k,k,1,1.1729804000351578,409.66414279991295,None,None,0,,,,,,,,,,,,,,122,21,Female,2022-05-09_16h04.23.657,Parachute,2022.1.1,59.8563328091407,
negative,yellow,2,k,None,,,,,,,,,0,88,88,88,,,,,,,,,,,,,,,,,,,,,,,,,,,,,,,,,,,,,main,k,k,1,0.7317456000018865,411.8356556999497,None,None,0,,,,,,,,,,,,,,122,21,Female,2022-05-09_16h04.23.657,Parachute,2022.1.1,59.8563328091407,
negative,blue,2,None,k,,,,,,,,,0,89,89,89,,,,,,,,,,,,,,,,,,,,,,,,,,,,,,,,,,,,,main,None,k,0,0.7977131999796256,413.56983329996,None,None,1,,,,,,,,,,,,,,122,21,Female,2022-05-09_16h04.23.657,Parachute,2022.1.1,59.8563328091407,
positive,yellow,2,None,k,,,,,,,,,0,90,90,90,,,,,,,,,,,,,,,,,,,,,,,,,,,,,,,,,,,,,main,None,k,0,1.1907148000318557,416.3807452999754,None,None,1,,,,,,,,,,,,,,122,21,Female,2022-05-09_16h04.23.657,Parachute,2022.1.1,59.8563328091407,
negative,yellow,1,k,None,,,,,,,,,0,91,91,91,,,,,,,,,,,,,,,,,,,,,,,,,,,,,,,,,,,,,main,k,k,1,3.322893499978818,419.580859699985,None,None,0,,,,,,,,,,,,,,122,21,Female,2022-05-09_16h04.23.657,Parachute,2022.1.1,59.8563328091407,
negative,red,2,None,None,,,,,,,,,0,92,92,92,,,,,,,,,,,,,,,,,,,,,,,,,,,,,,,,,,,,,main,None,None,1,1.501943700015545,424.9144454000052,None,None,1,,,,,,,,,,,,,,122,21,Female,2022-05-09_16h04.23.657,Parachute,2022.1.1,59.8563328091407,
negative,blue,2,None,k,,,,,,,,,0,93,93,93,,,,,,,,,,,,,,,,,,,,,,,,,,,,,,,,,,,,,main,None,None,1,1.49816339998506,427.4181097999681,None,None,1,,,,,,,,,,,,,,122,21,Female,2022-05-09_16h04.23.657,Parachute,2022.1.1,59.8563328091407,
negative,blue,1,None,k,,,,,,,,,0,94,94,94,,,,,,,,,,,,,,,,,,,,,,,,,,,,,,,,,,,,,main,None,None,1,1.4983048000140116,429.91858880000655,None,None,1,,,,,,,,,,,,,,122,21,Female,2022-05-09_16h04.23.657,Parachute,2022.1.1,59.8563328091407,
negative,blue,1,None,k,,,,,,,,,0,95,95,95,,,,,,,,,,,,,,,,,,,,,,,,,,,,,,,,,,,,,main,None,None,1,1.4987627000082284,432.41735799994785,None,None,1,,,,,,,,,,,,,,122,21,Female,2022-05-09_16h04.23.657,Parachute,2022.1.1,59.8563328091407,
negative,red,1,None,None,,,,,,,,,0,96,96,96,,,,,,,,,,,,,,,,,,,,,,,,,,,,,,,,,,,,,main,None,None,1,1.4987467000028118,434.9174273000099,None,None,1,,,,,,,,,,,,,,122,21,Female,2022-05-09_16h04.23.657,Parachute,2022.1.1,59.8563328091407,
positive,yellow,1,None,k,,,,,,,,,0,97,97,97,,,,,,,,,,,,,,,,,,,,,,,,,,,,,,,,,,,,,main,None,None,1,1.4980192000512034,437.41829489998054,None,None,1,,,,,,,,,,,,,,122,21,Female,2022-05-09_16h04.23.657,Parachute,2022.1.1,59.8563328091407,
negative,yellow,1,k,None,,,,,,,,,0,98,98,98,,,,,,,,,,,,,,,,,,,,,,,,,,,,,,,,,,,,,main,k,k,1,1.3205142000224441,439.9174939999357,None,None,0,,,,,,,,,,,,,,122,21,Female,2022-05-09_16h04.23.657,Parachute,2022.1.1,59.8563328091407,
positive,red,1,None,None,,,,,,,,,0,99,99,99,,,,,,,,,,,,,,,,,,,,,,,,,,,,,,,,,,,,,main,None,None,1,1.493306800024584,442.23736179992557,None,None,1,,,,,,,,,,,,,,122,21,Female,2022-05-09_16h04.23.657,Parachute,2022.1.1,59.8563328091407,
positive,blue,1,k,None,,,,,,,,,0,100,100,100,,,,,,,,,,,,,,,,,,,,,,,,,,,,,,,,,,,,,main,k,k,1,0.7527526000048965,444.7344371000072,None,None,0,,,,,,,,,,,,,,122,21,Female,2022-05-09_16h04.23.657,Parachute,2022.1.1,59.8563328091407,
negative,yellow,1,k,None,,,,,,,,,0,101,101,101,,,,,,,,,,,,,,,,,,,,,,,,,,,,,,,,,,,,,main,k,k,1,0.9494201999623328,446.48680720000993,None,None,0,,,,,,,,,,,,,,122,21,Female,2022-05-09_16h04.23.657,Parachute,2022.1.1,59.8563328091407,
negative,blue,2,None,k,,,,,,,,,0,102,102,102,,,,,,,,,,,,,,,,,,,,,,,,,,,,,,,,,,,,,main,None,None,1,1.4932821000693366,448.436779199983,None,None,1,,,,,,,,,,,,,,122,21,Female,2022-05-09_16h04.23.657,Parachute,2022.1.1,59.8563328091407,
negative,yellow,2,k,None,,,,,,,,,0,103,103,103,,,,,,,,,,,,,,,,,,,,,,,,,,,,,,,,,,,,,main,k,k,1,0.85369899997022,450.93414239992853,None,None,0,,,,,,,,,,,,,,122,21,Female,2022-05-09_16h04.23.657,Parachute,2022.1.1,59.8563328091407,
positive,yellow,2,None,k,,,,,,,,,0,104,104,104,,,,,,,,,,,,,,,,,,,,,,,,,,,,,,,,,,,,,main,None,None,1,1.4940812001004815,452.78688669996336,None,None,1,,,,,,,,,,,,,,122,21,Female,2022-05-09_16h04.23.657,Parachute,2022.1.1,59.8563328091407,
positive,blue,1,k,None,,,,,,,,,0,105,105,105,,,,,,,,,,,,,,,,,,,,,,,,,,,,,,,,,,,,,main,k,k,1,0.7860419999342412,455.2857978999382,None,None,0,,,,,,,,,,,,,,122,21,Female,2022-05-09_16h04.23.657,Parachute,2022.1.1,59.8563328091407,
positive,blue,2,k,None,,,,,,,,,0,106,106,106,,,,,,,,,,,,,,,,,,,,,,,,,,,,,,,,,,,,,main,k,k,1,1.1659088999731466,457.0703604000155,None,None,0,,,,,,,,,,,,,,122,21,Female,2022-05-09_16h04.23.657,Parachute,2022.1.1,59.8563328091407,
negative,blue,1,None,k,,,,,,,,,0,107,107,107,,,,,,,,,,,,,,,,,,,,,,,,,,,,,,,,,,,,,main,None,None,1,1.4929707000264898,459.23816339997575,None,None,1,,,,,,,,,,,,,,122,21,Female,2022-05-09_16h04.23.657,Parachute,2022.1.1,59.8563328091407,
positive,yellow,2,None,k,,,,,,,,,0,108,108,108,,,,,,,,,,,,,,,,,,,,,,,,,,,,,,,,,,,,,main,None,None,1,1.4985991000430658,461.7349590000231,None,None,1,,,,,,,,,,,,,,122,21,Female,2022-05-09_16h04.23.657,Parachute,2022.1.1,59.8563328091407,
negative,yellow,1,k,None,,,,,,,,,0,109,109,109,,,,,,,,,,,,,,,,,,,,,,,,,,,,,,,,,,,,,main,k,k,1,1.2035508999833837,464.23504239995964,None,None,0,,,,,,,,,,,,,,122,21,Female,2022-05-09_16h04.23.657,Parachute,2022.1.1,59.8563328091407,
negative,blue,2,None,k,,,,,,,,,0,110,110,110,,,,,,,,,,,,,,,,,,,,,,,,,,,,,,,,,,,,,main,None,None,1,1.4937456999905407,466.43740459997207,None,None,1,,,,,,,,,,,,,,122,21,Female,2022-05-09_16h04.23.657,Parachute,2022.1.1,59.8563328091407,
positive,blue,2,k,None,,,,,,,,,0,111,111,111,,,,,,,,,,,,,,,,,,,,,,,,,,,,,,,,,,,,,main,k,k,1,1.1372358000371605,468.9348729000194,None,None,0,,,,,,,,,,,,,,122,21,Female,2022-05-09_16h04.23.657,Parachute,2022.1.1,59.8563328091407,
negative,blue,1,None,k,,,,,,,,,0,112,112,112,,,,,,,,,,,,,,,,,,,,,,,,,,,,,,,,,,,,,main,None,None,1,1.4933933999855071,471.0714771000203,None,None,1,,,,,,,,,,,,,,122,21,Female,2022-05-09_16h04.23.657,Parachute,2022.1.1,59.8563328091407,
positive,yellow,1,None,k,,,,,,,,,0,113,113,113,,,,,,,,,,,,,,,,,,,,,,,,,,,,,,,,,,,,,main,None,None,1,1.4980720999883488,473.5684509999119,None,None,1,,,,,,,,,,,,,,122,21,Female,2022-05-09_16h04.23.657,Parachute,2022.1.1,59.8563328091407,
negative,red,1,None,None,,,,,,,,,0,114,114,114,,,,,,,,,,,,,,,,,,,,,,,,,,,,,,,,,,,,,main,None,None,1,1.4991321000270545,476.06776439992245,None,None,1,,,,,,,,,,,,,,122,21,Female,2022-05-09_16h04.23.657,Parachute,2022.1.1,59.8563328091407,
positive,red,1,None,None,,,,,,,,,0,115,115,115,,,,,,,,,,,,,,,,,,,,,,,,,,,,,,,,,,,,,main,None,None,1,1.4985188000136986,478.5681571000023,None,None,1,,,,,,,,,,,,,,122,21,Female,2022-05-09_16h04.23.657,Parachute,2022.1.1,59.8563328091407,
negative,red,2,None,None,,,,,,,,,0,116,116,116,,,,,,,,,,,,,,,,,,,,,,,,,,,,,,,,,,,,,main,None,None,1,1.4989496000343934,481.0681389999809,None,None,1,,,,,,,,,,,,,,122,21,Female,2022-05-09_16h04.23.657,Parachute,2022.1.1,59.8563328091407,
negative,yellow,2,k,None,,,,,,,,,0,117,117,117,,,,,,,,,,,,,,,,,,,,,,,,,,,,,,,,,,,,,main,k,k,1,0.970112600014545,483.5698322999524,None,None,0,,,,,,,,,,,,,,122,21,Female,2022-05-09_16h04.23.657,Parachute,2022.1.1,59.8563328091407,
positive,yellow,1,None,k,,,,,,,,,0,118,118,118,,,,,,,,,,,,,,,,,,,,,,,,,,,,,,,,,,,,,main,None,None,1,1.4931081000249833,485.538385599968,None,None,1,,,,,,,,,,,,,,122,21,Female,2022-05-09_16h04.23.657,Parachute,2022.1.1,59.8563328091407,
positive,red,2,None,None,,,,,,,,,0,119,119,119,,,,,,,,,,,,,,,,,,,,,,,,,,,,,,,,,,,,,main,None,None,1,1.4988088000100106,488.0349271999439,None,None,1,,,,,,,,,,,,,,122,21,Female,2022-05-09_16h04.23.657,Parachute,2022.1.1,59.8563328091407,
positive,blue,2,k,None,,,,,,,,,0,120,120,120,,,,,,,,,,,,,,,,,,,,,,,,,,,,,,,,,,,,,main,k,k,1,0.8866395000368357,490.5367349999724,None,None,0,,,,,,,,,,,,,,122,21,Female,2022-05-09_16h04.23.657,Parachute,2022.1.1,59.8563328091407,
negative,red,1,None,None,,,,,,,,,0,121,121,121,,,,,,,,,,,,,,,,,,,,,,,,,,,,,,,,,,,,,main,None,None,1,1.4934392001014203,492.42181410000194,None,None,1,,,,,,,,,,,,,,122,21,Female,2022-05-09_16h04.23.657,Parachute,2022.1.1,59.8563328091407,
positive,yellow,2,None,k,,,,,,,,,0,122,122,122,,,,,,,,,,,,,,,,,,,,,,,,,,,,,,,,,,,,,main,None,None,1,1.4981092000380158,494.91926919994876,None,None,1,,,,,,,,,,,,,,122,21,Female,2022-05-09_16h04.23.657,Parachute,2022.1.1,59.8563328091407,
negative,red,2,None,None,,,,,,,,,0,123,123,123,,,,,,,,,,,,,,,,,,,,,,,,,,,,,,,,,,,,,main,None,None,1,1.4989526000572369,497.4189215999795,None,None,1,,,,,,,,,,,,,,122,21,Female,2022-05-09_16h04.23.657,Parachute,2022.1.1,59.8563328091407,
negative,yellow,2,k,None,,,,,,,,,0,124,124,124,,,,,,,,,,,,,,,,,,,,,,,,,,,,,,,,,,,,,main,k,k,1,0.8533867000369355,499.91930750000756,None,None,0,,,,,,,,,,,,,,122,21,Female,2022-05-09_16h04.23.657,Parachute,2022.1.1,59.8563328091407,
positive,red,1,None,None,,,,,,,,,0,125,125,125,,,,,,,,,,,,,,,,,,,,,,,,,,,,,,,,,,,,,main,None,None,1,1.493858200032264,501.77164309995715,None,None,1,,,,,,,,,,,,,,122,21,Female,2022-05-09_16h04.23.657,Parachute,2022.1.1,59.8563328091407,
negative,blue,2,None,k,,,,,,,,,0,126,126,126,,,,,,,,,,,,,,,,,,,,,,,,,,,,,,,,,,,,,main,None,None,1,1.498244599904865,504.2692487000022,None,None,1,,,,,,,,,,,,,,122,21,Female,2022-05-09_16h04.23.657,Parachute,2022.1.1,59.8563328091407,
negative,blue,1,None,k,,,,,,,,,0,127,127,127,,,,,,,,,,,,,,,,,,,,,,,,,,,,,,,,,,,,,main,None,None,1,1.4982438000151888,506.76908479991835,None,None,1,,,,,,,,,,,,,,122,21,Female,2022-05-09_16h04.23.657,Parachute,2022.1.1,59.8563328091407,
negative,yellow,1,k,None,,,,,,,,,0,128,128,128,,,,,,,,,,,,,,,,,,,,,,,,,,,,,,,,,,,,,main,k,k,1,0.9874356999062002,509.268555299961,None,None,0,,,,,,,,,,,,,,122,21,Female,2022-05-09_16h04.23.657,Parachute,2022.1.1,59.8563328091407,
negative,yellow,1,k,None,,,,,,,,,0,129,129,129,,,,,,,,,,,,,,,,,,,,,,,,,,,,,,,,,,,,,main,k,k,1,0.7485351000213996,511.2547561000101,None,None,0,,,,,,,,,,,,,,122,21,Female,2022-05-09_16h04.23.657,Parachute,2022.1.1,59.8563328091407,
positive,blue,1,k,None,,,,,,,,,0,130,130,130,,,,,,,,,,,,,,,,,,,,,,,,,,,,,,,,,,,,,main,k,k,1,0.7321835999609903,513.0049335999647,None,None,0,,,,,,,,,,,,,,122,21,Female,2022-05-09_16h04.23.657,Parachute,2022.1.1,59.8563328091407,
negative,blue,1,None,k,,,,,,,,,0,131,131,131,,,,,,,,,,,,,,,,,,,,,,,,,,,,,,,,,,,,,main,None,None,1,1.4931474999757484,514.7393469000235,None,None,1,,,,,,,,,,,,,,122,21,Female,2022-05-09_16h04.23.657,Parachute,2022.1.1,59.8563328091407,
negative,blue,2,None,k,,,,,,,,,0,132,132,132,,,,,,,,,,,,,,,,,,,,,,,,,,,,,,,,,,,,,main,None,None,1,1.4978644999209791,517.2362819999689,None,None,1,,,,,,,,,,,,,,122,21,Female,2022-05-09_16h04.23.657,Parachute,2022.1.1,59.8563328091407,
positive,blue,2,k,None,,,,,,,,,0,133,133,133,,,,,,,,,,,,,,,,,,,,,,,,,,,,,,,,,,,,,main,k,k,1,0.7532805000664666,519.7351678999839,None,None,0,,,,,,,,,,,,,,122,21,Female,2022-05-09_16h04.23.657,Parachute,2022.1.1,59.8563328091407,
positive,red,2,None,None,,,,,,,,,0,134,134,134,,,,,,,,,,,,,,,,,,,,,,,,,,,,,,,,,,,,,main,None,None,1,1.4942597000626847,521.4877836999949,None,None,1,,,,,,,,,,,,,,122,21,Female,2022-05-09_16h04.23.657,Parachute,2022.1.1,59.8563328091407,
negative,yellow,2,k,None,,,,,,,,,0,135,135,135,,,,,,,,,,,,,,,,,,,,,,,,,,,,,,,,,,,,,main,k,k,1,1.3545449000084773,523.9861960000126,None,None,0,,,,,,,,,,,,,,122,21,Female,2022-05-09_16h04.23.657,Parachute,2022.1.1,59.8563328091407,
positive,yellow,2,None,k,,,,,,,,,0,136,136,136,,,,,,,,,,,,,,,,,,,,,,,,,,,,,,,,,,,,,main,None,None,1,1.4926746999844909,526.3397777000209,None,None,1,,,,,,,,,,,,,,122,21,Female,2022-05-09_16h04.23.657,Parachute,2022.1.1,59.8563328091407,
positive,blue,1,k,None,,,,,,,,,0,137,137,137,,,,,,,,,,,,,,,,,,,,,,,,,,,,,,,,,,,,,main,k,k,1,0.9037451999029145,528.8361461999593,None,None,0,,,,,,,,,,,,,,122,21,Female,2022-05-09_16h04.23.657,Parachute,2022.1.1,59.8563328091407,
positive,yellow,1,None,k,,,,,,,,,0,138,138,138,,,,,,,,,,,,,,,,,,,,,,,,,,,,,,,,,,,,,main,None,None,1,1.4933322999859229,530.7387617999921,None,None,1,,,,,,,,,,,,,,122,21,Female,2022-05-09_16h04.23.657,Parachute,2022.1.1,59.8563328091407,
positive,yellow,1,None,k,,,,,,,,,0,139,139,139,,,,,,,,,,,,,,,,,,,,,,,,,,,,,,,,,,,,,main,None,None,1,1.4986800999613479,533.2363139999798,None,None,1,,,,,,,,,,,,,,122,21,Female,2022-05-09_16h04.23.657,Parachute,2022.1.1,59.8563328091407,
positive,yellow,1,None,k,,,,,,,,,0,140,140,140,,,,,,,,,,,,,,,,,,,,,,,,,,,,,,,,,,,,,main,None,None,1,1.4985382000450045,535.7364936999511,None,None,1,,,,,,,,,,,,,,122,21,Female,2022-05-09_16h04.23.657,Parachute,2022.1.1,59.8563328091407,
positive,blue,1,k,None,,,,,,,,,0,141,141,141,,,,,,,,,,,,,,,,,,,,,,,,,,,,,,,,,,,,,main,k,k,1,0.9207437000004575,538.2363254999509,None,None,0,,,,,,,,,,,,,,122,21,Female,2022-05-09_16h04.23.657,Parachute,2022.1.1,59.8563328091407,
positive,blue,2,k,None,,,,,,,,,0,142,142,142,,,,,,,,,,,,,,,,,,,,,,,,,,,,,,,,,,,,,main,k,k,1,1.0476243000011891,540.1563198999502,None,None,0,,,,,,,,,,,,,,122,21,Female,2022-05-09_16h04.23.657,Parachute,2022.1.1,59.8563328091407,
positive,yellow,2,None,k,,,,,,,,,0,143,143,143,,,,,,,,,,,,,,,,,,,,,,,,,,,,,,,,,,,,,main,None,None,1,1.4942525000078604,542.2058072999353,None,None,1,,,,,,,,,,,,,,122,21,Female,2022-05-09_16h04.23.657,Parachute,2022.1.1,59.8563328091407,
negative,yellow,2,k,None,,,,,,,,,0,144,144,144,,,,,,,,,,,,,,,,,,,,,,,,,,,,,,,,,,,,,main,k,k,1,0.820198200060986,544.7032720999559,None,None,0,,,,,,,,,,,,,,122,21,Female,2022-05-09_16h04.23.657,Parachute,2022.1.1,59.8563328091407,
negative,blue,2,None,k,,,,,,,,,0,145,145,145,,,,,,,,,,,,,,,,,,,,,,,,,,,,,,,,,,,,,main,None,None,1,1.4934698999859393,546.5222814999288,None,None,1,,,,,,,,,,,,,,122,21,Female,2022-05-09_16h04.23.657,Parachute,2022.1.1,59.8563328091407,
negative,red,1,None,None,,,,,,,,,0,146,146,146,,,,,,,,,,,,,,,,,,,,,,,,,,,,,,,,,,,,,main,None,None,1,1.4985229999292642,549.0197723999154,None,None,1,,,,,,,,,,,,,,122,21,Female,2022-05-09_16h04.23.657,Parachute,2022.1.1,59.8563328091407,
positive,blue,1,k,None,,,,,,,,,0,147,147,147,,,,,,,,,,,,,,,,,,,,,,,,,,,,,,,,,,,,,main,k,k,1,0.7707173000089824,551.5198205999332,None,None,0,,,,,,,,,,,,,,122,21,Female,2022-05-09_16h04.23.657,Parachute,2022.1.1,59.8563328091407,
positive,yellow,1,None,k,,,,,,,,,0,148,148,148,,,,,,,,,,,,,,,,,,,,,,,,,,,,,,,,,,,,,main,None,None,1,1.4934858999913558,553.2895588999381,None,None,1,,,,,,,,,,,,,,122,21,Female,2022-05-09_16h04.23.657,Parachute,2022.1.1,59.8563328091407,
negative,red,2,None,None,,,,,,,,,0,149,149,149,,,,,,,,,,,,,,,,,,,,,,,,,,,,,,,,,,,,,main,None,None,1,1.498220399953425,555.7871380000142,None,None,1,,,,,,,,,,,,,,122,21,Female,2022-05-09_16h04.23.657,Parachute,2022.1.1,59.8563328091407,
negative,blue,1,None,k,,,,,,,,,0,150,150,150,,,,,,,,,,,,,,,,,,,,,,,,,,,,,,,,,,,,,main,None,None,1,1.4988360999850556,558.2866551999468,None,None,1,,,,,,,,,,,,,,122,21,Female,2022-05-09_16h04.23.657,Parachute,2022.1.1,59.8563328091407,
negative,yellow,2,k,None,,,,,,,,,0,151,151,151,,,,,,,,,,,,,,,,,,,,,,,,,,,,,,,,,,,,,main,k,k,1,0.7511732999701053,560.7870004000142,None,None,0,,,,,,,,,,,,,,122,21,Female,2022-05-09_16h04.23.657,Parachute,2022.1.1,59.8563328091407,
negative,blue,2,None,k,,,,,,,,,0,152,152,152,,,,,,,,,,,,,,,,,,,,,,,,,,,,,,,,,,,,,main,None,None,1,1.4960916999261826,562.539684599964,None,None,1,,,,,,,,,,,,,,122,21,Female,2022-05-09_16h04.23.657,Parachute,2022.1.1,59.8563328091407,
negative,yellow,1,k,None,,,,,,,,,0,153,153,153,,,,,,,,,,,,,,,,,,,,,,,,,,,,,,,,,,,,,main,k,k,1,0.903323799953796,565.0379486000165,None,None,0,,,,,,,,,,,,,,122,21,Female,2022-05-09_16h04.23.657,Parachute,2022.1.1,59.8563328091407,
negative,blue,1,None,k,,,,,,,,,0,154,154,154,,,,,,,,,,,,,,,,,,,,,,,,,,,,,,,,,,,,,main,None,None,1,1.4935202000197023,566.9401337999152,None,None,1,,,,,,,,,,,,,,122,21,Female,2022-05-09_16h04.23.657,Parachute,2022.1.1,59.8563328091407,
positive,yellow,2,None,k,,,,,,,,,0,155,155,155,,,,,,,,,,,,,,,,,,,,,,,,,,,,,,,,,,,,,main,None,None,1,1.4988004999468103,569.4370265000034,None,None,1,,,,,,,,,,,,,,122,21,Female,2022-05-09_16h04.23.657,Parachute,2022.1.1,59.8563328091407,
positive,red,2,None,None,,,,,,,,,0,156,156,156,,,,,,,,,,,,,,,,,,,,,,,,,,,,,,,,,,,,,main,None,None,1,1.498397900024429,571.9382883999497,None,None,1,,,,,,,,,,,,,,122,21,Female,2022-05-09_16h04.23.657,Parachute,2022.1.1,59.8563328091407,
positive,red,1,None,None,,,,,,,,,0,157,157,157,,,,,,,,,,,,,,,,,,,,,,,,,,,,,,,,,,,,,main,None,None,1,1.4981672000139952,574.4375840999419,None,None,1,,,,,,,,,,,,,,122,21,Female,2022-05-09_16h04.23.657,Parachute,2022.1.1,59.8563328091407,
positive,blue,2,k,None,,,,,,,,,0,158,158,158,,,,,,,,,,,,,,,,,,,,,,,,,,,,,,,,,,,,,main,k,k,1,0.7526445999974385,576.9372592999134,None,None,0,,,,,,,,,,,,,,122,21,Female,2022-05-09_16h04.23.657,Parachute,2022.1.1,59.8563328091407,
negative,yellow,1,k,None,,,,,,,,,0,159,159,159,,,,,,,,,,,,,,,,,,,,,,,,,,,,,,,,,,,,,main,k,k,1,0.9320248999865726,578.6904904999537,None,None,0,,,,,,,,,,,,,,122,21,Female,2022-05-09_16h04.23.657,Parachute,2022.1.1,59.8563328091407,
negative,red,2,None,None,,,,,,,,,0,160,160,160,,,,,,,,,,,,,,,,,,,,,,,,,,,,,,,,,,,,,main,None,None,1,1.4930710999760777,580.6238185999682,None,None,1,,,,,,,,,,,,,,122,21,Female,2022-05-09_16h04.23.657,Parachute,2022.1.1,59.8563328091407,
negative,blue,1,None,k,,,,,,,,,0,161,161,161,,,,,,,,,,,,,,,,,,,,,,,,,,,,,,,,,,,,,main,None,None,1,1.4988825999898836,583.1203297999455,None,None,1,,,,,,,,,,,,,,122,21,Female,2022-05-09_16h04.23.657,Parachute,2022.1.1,59.8563328091407,
negative,blue,1,None,k,,,,,,,,,0,162,162,162,,,,,,,,,,,,,,,,,,,,,,,,,,,,,,,,,,,,,main,None,None,1,1.4984291999135166,585.6208726000041,None,None,1,,,,,,,,,,,,,,122,21,Female,2022-05-09_16h04.23.657,Parachute,2022.1.1,59.8563328091407,
negative,yellow,1,k,None,,,,,,,,,0,163,163,163,,,,,,,,,,,,,,,,,,,,,,,,,,,,,,,,,,,,,main,k,k,1,0.753667899989523,588.1208690999774,None,None,0,,,,,,,,,,,,,,122,21,Female,2022-05-09_16h04.23.657,Parachute,2022.1.1,59.8563328091407,
negative,yellow,1,k,None,,,,,,,,,0,164,164,164,,,,,,,,,,,,,,,,,,,,,,,,,,,,,,,,,,,,,main,k,k,1,0.6312753999372944,589.8741337999236,None,None,0,,,,,,,,,,,,,,122,21,Female,2022-05-09_16h04.23.657,Parachute,2022.1.1,59.8563328091407,
positive,yellow,1,None,k,,,,,,,,,0,165,165,165,,,,,,,,,,,,,,,,,,,,,,,,,,,,,,,,,,,,,main,None,None,1,1.4935472999932244,591.5069004999241,None,None,1,,,,,,,,,,,,,,122,21,Female,2022-05-09_16h04.23.657,Parachute,2022.1.1,59.8563328091407,
negative,red,1,None,None,,,,,,,,,0,166,166,166,,,,,,,,,,,,,,,,,,,,,,,,,,,,,,,,,,,,,main,None,None,1,1.4988087000092492,594.0037045999197,None,None,1,,,,,,,,,,,,,,122,21,Female,2022-05-09_16h04.23.657,Parachute,2022.1.1,59.8563328091407,
negative,yellow,2,k,None,,,,,,,,,0,167,167,167,,,,,,,,,,,,,,,,,,,,,,,,,,,,,,,,,,,,,main,k,k,1,0.7537988999392837,596.5040760999545,None,None,0,,,,,,,,,,,,,,122,21,Female,2022-05-09_16h04.23.657,Parachute,2022.1.1,59.8563328091407,
positive,blue,2,k,None,,,,,,,,,0,168,168,168,,,,,,,,,,,,,,,,,,,,,,,,,,,,,,,,,,,,,main,k,k,1,0.8148758000461385,598.2567978999577,None,None,0,,,,,,,,,,,,,,122,21,Female,2022-05-09_16h04.23.657,Parachute,2022.1.1,59.8563328091407,
positive,red,2,None,None,,,,,,,,,0,169,169,169,,,,,,,,,,,,,,,,,,,,,,,,,,,,,,,,,,,,,main,None,None,1,1.4933053000131622,600.0734674999258,None,None,1,,,,,,,,,,,,,,122,21,Female,2022-05-09_16h04.23.657,Parachute,2022.1.1,59.8563328091407,
positive,red,1,None,None,,,,,,,,,0,170,170,170,,,,,,,,,,,,,,,,,,,,,,,,,,,,,,,,,,,,,main,None,None,1,1.4993694999720901,602.5704167999793,None,None,1,,,,,,,,,,,,,,122,21,Female,2022-05-09_16h04.23.657,Parachute,2022.1.1,59.8563328091407,
negative,blue,2,None,k,,,,,,,,,0,171,171,171,,,,,,,,,,,,,,,,,,,,,,,,,,,,,,,,,,,,,main,None,None,1,1.4984821999678388,605.0712653999217,None,None,1,,,,,,,,,,,,,,122,21,Female,2022-05-09_16h04.23.657,Parachute,2022.1.1,59.8563328091407,
positive,blue,2,k,None,,,,,,,,,0,172,172,172,,,,,,,,,,,,,,,,,,,,,,,,,,,,,,,,,,,,,main,k,k,1,0.7533079000422731,607.5704781999812,None,None,0,,,,,,,,,,,,,,122,21,Female,2022-05-09_16h04.23.657,Parachute,2022.1.1,59.8563328091407,
negative,yellow,2,k,None,,,,,,,,,0,173,173,173,,,,,,,,,,,,,,,,,,,,,,,,,,,,,,,,,,,,,main,k,k,1,0.8154672000091523,609.323435899918,None,None,0,,,,,,,,,,,,,,122,21,Female,2022-05-09_16h04.23.657,Parachute,2022.1.1,59.8563328091407,
positive,yellow,2,None,k,,,,,,,,,0,174,174,174,,,,,,,,,,,,,,,,,,,,,,,,,,,,,,,,,,,,,main,None,k,0,0.8320737999165431,611.1401586999418,None,None,1,,,,,,,,,,,,,,122,21,Female,2022-05-09_16h04.23.657,Parachute,2022.1.1,59.8563328091407,
negative,blue,2,None,k,,,,,,,,,0,175,175,175,,,,,,,,,,,,,,,,,,,,,,,,,,,,,,,,,,,,,main,None,None,1,1.5014380000066012,613.9853967999807,None,None,1,,,,,,,,,,,,,,122,21,Female,2022-05-09_16h04.23.657,Parachute,2022.1.1,59.8563328091407,
positive,blue,1,k,None,,,,,,,,,0,176,176,176,,,,,,,,,,,,,,,,,,,,,,,,,,,,,,,,,,,,,main,k,k,1,0.6540133999660611,616.4876928000012,None,None,0,,,,,,,,,,,,,,122,21,Female,2022-05-09_16h04.23.657,Parachute,2022.1.1,59.8563328091407,
positive,yellow,1,None,k,,,,,,,,,0,177,177,177,,,,,,,,,,,,,,,,,,,,,,,,,,,,,,,,,,,,,main,None,None,1,1.4937830000417307,618.1406951999525,None,None,1,,,,,,,,,,,,,,122,21,Female,2022-05-09_16h04.23.657,Parachute,2022.1.1,59.8563328091407,
positive,blue,1,k,None,,,,,,,,,0,178,178,178,,,,,,,,,,,,,,,,,,,,,,,,,,,,,,,,,,,,,main,k,k,1,0.7200118000619113,620.6389769000234,None,None,0,,,,,,,,,,,,,,122,21,Female,2022-05-09_16h04.23.657,Parachute,2022.1.1,59.8563328091407,
positive,yellow,2,None,k,,,,,,,,,0,179,179,179,,,,,,,,,,,,,,,,,,,,,,,,,,,,,,,,,,,,,main,None,None,1,1.51004019996617,622.358715099981,None,None,1,,,,,,,,,,,,,,122,21,Female,2022-05-09_16h04.23.657,Parachute,2022.1.1,59.8563328091407,
positive,blue,1,k,None,,,,,,,,,0,180,180,180,,,,,,,,,,,,,,,,,,,,,,,,,,,,,,,,,,,,,main,k,k,1,0.9285942000569776,624.8717960999347,None,None,0,,,,,,,,,,,,,,122,21,Female,2022-05-09_16h04.23.657,Parachute,2022.1.1,59.8563328091407,
negative,red,1,None,None,,,,,,,,,0,181,181,181,,,,,,,,,,,,,,,,,,,,,,,,,,,,,,,,,,,,,main,None,None,1,1.5010668999748304,626.8022555999923,None,None,1,,,,,,,,,,,,,,122,21,Female,2022-05-09_16h04.23.657,Parachute,2022.1.1,59.8563328091407,
negative,blue,1,None,k,,,,,,,,,0,182,182,182,,,,,,,,,,,,,,,,,,,,,,,,,,,,,,,,,,,,,main,None,None,1,1.4994344000006095,629.3048666999675,None,None,1,,,,,,,,,,,,,,122,21,Female,2022-05-09_16h04.23.657,Parachute,2022.1.1,59.8563328091407,
negative,yellow,2,k,None,,,,,,,,,0,183,183,183,,,,,,,,,,,,,,,,,,,,,,,,,,,,,,,,,,,,,main,k,k,1,0.802488400018774,631.8062128999736,None,None,0,,,,,,,,,,,,,,122,21,Female,2022-05-09_16h04.23.657,Parachute,2022.1.1,59.8563328091407,
positive,yellow,2,None,k,,,,,,,,,0,184,184,184,,,,,,,,,,,,,,,,,,,,,,,,,,,,,,,,,,,,,main,None,None,1,1.4936738000251353,633.6076283999719,None,None,1,,,,,,,,,,,,,,122,21,Female,2022-05-09_16h04.23.657,Parachute,2022.1.1,59.8563328091407,
positive,yellow,1,None,k,,,,,,,,,0,185,185,185,,,,,,,,,,,,,,,,,,,,,,,,,,,,,,,,,,,,,main,None,None,1,1.4988015999551862,636.1045658999356,None,None,1,,,,,,,,,,,,,,122,21,Female,2022-05-09_16h04.23.657,Parachute,2022.1.1,59.8563328091407,
positive,red,2,None,None,,,,,,,,,0,186,186,186,,,,,,,,,,,,,,,,,,,,,,,,,,,,,,,,,,,,,main,None,None,1,1.4989469000138342,638.6049286000198,None,None,1,,,,,,,,,,,,,,122,21,Female,2022-05-09_16h04.23.657,Parachute,2022.1.1,59.8563328091407,
positive,blue,1,k,None,,,,,,,,,0,187,187,187,,,,,,,,,,,,,,,,,,,,,,,,,,,,,,,,,,,,,main,k,k,1,0.7526321000186726,641.1053265000228,None,None,0,,,,,,,,,,,,,,122,21,Female,2022-05-09_16h04.23.657,Parachute,2022.1.1,59.8563328091407,
negative,yellow,1,k,None,,,,,,,,,0,188,188,188,,,,,,,,,,,,,,,,,,,,,,,,,,,,,,,,,,,,,main,k,k,1,0.9001838000258431,642.8577847999986,None,None,0,,,,,,,,,,,,,,122,21,Female,2022-05-09_16h04.23.657,Parachute,2022.1.1,59.8563328091407,
positive,yellow,2,None,k,,,,,,,,,0,189,189,189,,,,,,,,,,,,,,,,,,,,,,,,,,,,,,,,,,,,,main,None,None,1,1.5097963999724016,644.7590476999758,None,None,1,,,,,,,,,,,,,,122,21,Female,2022-05-09_16h04.23.657,Parachute,2022.1.1,59.8563328091407,
negative,yellow,2,k,None,,,,,,,,,0,190,190,190,,,,,,,,,,,,,,,,,,,,,,,,,,,,,,,,,,,,,main,k,k,1,0.9864758000476286,647.272185800015,None,None,0,,,,,,,,,,,,,,122,21,Female,2022-05-09_16h04.23.657,Parachute,2022.1.1,59.8563328091407,
negative,yellow,1,k,None,,,,,,,,,0,191,191,191,,,,,,,,,,,,,,,,,,,,,,,,,,,,,,,,,,,,,main,k,k,1,1.3154193999944255,649.2576927000191,None,None,0,,,,,,,,,,,,,,122,21,Female,2022-05-09_16h04.23.657,Parachute,2022.1.1,59.8563328091407,
positive,blue,2,k,None,,,,,,,,,0,192,192,192,,,,,,,,,,,,,,,,,,,,,,,,,,,,,,,,,,,,,main,k,k,1,0.748844699934125,651.5747273999732,None,None,0,,,,,,,,,,,,,,122,21,Female,2022-05-09_16h04.23.657,Parachute,2022.1.1,59.8563328091407,
positive,yellow,1,None,k,,,,,,,,,0,193,193,193,,,,,,,,,,,,,,,,,,,,,,,,,,,,,,,,,,,,,main,None,None,1,1.493342100060545,653.325161500019,None,None,1,,,,,,,,,,,,,,122,21,Female,2022-05-09_16h04.23.657,Parachute,2022.1.1,59.8563328091407,
negative,red,2,None,None,,,,,,,,,0,194,194,194,,,,,,,,,,,,,,,,,,,,,,,,,,,,,,,,,,,,,main,None,None,1,1.4983637999976054,655.822446599952,None,None,1,,,,,,,,,,,,,,122,21,Female,2022-05-09_16h04.23.657,Parachute,2022.1.1,59.8563328091407,
positive,red,1,None,None,,,,,,,,,0,195,195,195,,,,,,,,,,,,,,,,,,,,,,,,,,,,,,,,,,,,,main,None,None,1,1.4982691000914201,658.3221313999966,None,None,1,,,,,,,,,,,,,,122,21,Female,2022-05-09_16h04.23.657,Parachute,2022.1.1,59.8563328091407,
negative,blue,1,None,k,,,,,,,,,0,196,196,196,,,,,,,,,,,,,,,,,,,,,,,,,,,,,,,,,,,,,main,None,None,1,1.49892829998862,660.8220474999398,None,None,1,,,,,,,,,,,,,,122,21,Female,2022-05-09_16h04.23.657,Parachute,2022.1.1,59.8563328091407,
positive,blue,2,k,None,,,,,,,,,0,197,197,197,,,,,,,,,,,,,,,,,,,,,,,,,,,,,,,,,,,,,main,k,k,1,0.7373074000934139,663.3221332000103,None,None,0,,,,,,,,,,,,,,122,21,Female,2022-05-09_16h04.23.657,Parachute,2022.1.1,59.8563328091407,
negative,blue,2,None,k,,,,,,,,,0,198,198,198,,,,,,,,,,,,,,,,,,,,,,,,,,,,,,,,,,,,,main,None,None,1,1.4934366999659687,665.058540500002,None,None,1,,,,,,,,,,,,,,122,21,Female,2022-05-09_16h04.23.657,Parachute,2022.1.1,59.8563328091407,
negative,blue,2,None,k,,,,,,,,,0,199,199,199,,,,,,,,,,,,,,,,,,,,,,,,,,,,,,,,,,,,,main,None,None,1,1.4983747999649495,667.557282499969,None,None,1,,,,,,,,,,,,,,122,21,Female,2022-05-09_16h04.23.657,Parachute,2022.1.1,59.8563328091407,
positive,blue,2,k,None,,,,,,,,,0,200,200,200,,,,,,,,,,,,,,,,,,,,,,,,,,,,,,,,,,,,,main,k,k,1,1.045893399976194,670.0573610999854,None,None,0,,,,,,,,,,,,,,122,21,Female,2022-05-09_16h04.23.657,Parachute,2022.1.1,59.8563328091407,
positive,blue,2,k,None,,,,,,,,,0,201,201,201,,,,,,,,,,,,,,,,,,,,,,,,,,,,,,,,,,,,,main,k,k,1,1.373279699939303,672.1031832000008,None,None,0,,,,,,,,,,,,,,122,21,Female,2022-05-09_16h04.23.657,Parachute,2022.1.1,59.8563328091407,
negative,yellow,2,k,None,,,,,,,,,0,202,202,202,,,,,,,,,,,,,,,,,,,,,,,,,,,,,,,,,,,,,main,k,k,1,0.9820238000247627,674.4752531999256,None,None,0,,,,,,,,,,,,,,122,21,Female,2022-05-09_16h04.23.657,Parachute,2022.1.1,59.8563328091407,
positive,red,1,None,None,,,,,,,,,0,203,203,203,,,,,,,,,,,,,,,,,,,,,,,,,,,,,,,,,,,,,main,None,None,1,1.4935013999929652,676.4588043999393,None,None,1,,,,,,,,,,,,,,122,21,Female,2022-05-09_16h04.23.657,Parachute,2022.1.1,59.8563328091407,
negative,blue,2,None,k,,,,,,,,,0,204,204,204,,,,,,,,,,,,,,,,,,,,,,,,,,,,,,,,,,,,,main,None,None,1,1.504264699993655,678.9563595999498,None,None,1,,,,,,,,,,,,,,122,21,Female,2022-05-09_16h04.23.657,Parachute,2022.1.1,59.8563328091407,
negative,red,1,None,None,,,,,,,,,0,205,205,205,,,,,,,,,,,,,,,,,,,,,,,,,,,,,,,,,,,,,main,None,None,1,1.5089608000125736,681.461864199955,None,None,1,,,,,,,,,,,,,,122,21,Female,2022-05-09_16h04.23.657,Parachute,2022.1.1,59.8563328091407,
negative,blue,2,None,k,,,,,,,,,0,206,206,206,,,,,,,,,,,,,,,,,,,,,,,,,,,,,,,,,,,,,main,None,None,1,1.4986852000001818,683.9731459999457,None,None,1,,,,,,,,,,,,,,122,21,Female,2022-05-09_16h04.23.657,Parachute,2022.1.1,59.8563328091407,
negative,yellow,2,k,None,,,,,,,,,0,207,207,207,,,,,,,,,,,,,,,,,,,,,,,,,,,,,,,,,,,,,main,k,k,1,0.9866168999578804,686.4734710999765,None,None,0,,,,,,,,,,,,,,122,21,Female,2022-05-09_16h04.23.657,Parachute,2022.1.1,59.8563328091407,
positive,yellow,2,None,k,,,,,,,,,0,208,208,208,,,,,,,,,,,,,,,,,,,,,,,,,,,,,,,,,,,,,main,None,None,1,1.4937650000210851,688.4586361999391,None,None,1,,,,,,,,,,,,,,122,21,Female,2022-05-09_16h04.23.657,Parachute,2022.1.1,59.8563328091407,
negative,yellow,1,k,None,,,,,,,,,0,209,209,209,,,,,,,,,,,,,,,,,,,,,,,,,,,,,,,,,,,,,main,k,k,1,0.8371440999908373,690.9566323999316,None,None,0,,,,,,,,,,,,,,122,21,Female,2022-05-09_16h04.23.657,Parachute,2022.1.1,59.8563328091407,
negative,red,2,None,None,,,,,,,,,0,210,210,210,,,,,,,,,,,,,,,,,,,,,,,,,,,,,,,,,,,,,main,None,None,1,1.4934290000237525,692.7922009999165,None,None,1,,,,,,,,,,,,,,122,21,Female,2022-05-09_16h04.23.657,Parachute,2022.1.1,59.8563328091407,
negative,blue,1,None,k,,,,,,,,,0,211,211,211,,,,,,,,,,,,,,,,,,,,,,,,,,,,,,,,,,,,,main,None,k,0,0.704273400013335,695.289287099964,None,None,1,,,,,,,,,,,,,,122,21,Female,2022-05-09_16h04.23.657,Parachute,2022.1.1,59.8563328091407,
negative,yellow,1,k,None,,,,,,,,,0,212,212,212,,,,,,,,,,,,,,,,,,,,,,,,,,,,,,,,,,,,,main,k,k,1,0.9577547999797389,698.0041526999557,None,None,0,,,,,,,,,,,,,,122,21,Female,2022-05-09_16h04.23.657,Parachute,2022.1.1,59.8563328091407,
positive,blue,1,k,None,,,,,,,,,0,213,213,213,,,,,,,,,,,,,,,,,,,,,,,,,,,,,,,,,,,,,main,k,k,1,0.8644753999542445,699.9607598999282,None,None,0,,,,,,,,,,,,,,122,21,Female,2022-05-09_16h04.23.657,Parachute,2022.1.1,59.8563328091407,
positive,blue,1,k,None,,,,,,,,,0,214,214,214,,,,,,,,,,,,,,,,,,,,,,,,,,,,,,,,,,,,,main,k,k,1,1.1807946000481024,701.8261771999532,None,None,0,,,,,,,,,,,,,,122,21,Female,2022-05-09_16h04.23.657,Parachute,2022.1.1,59.8563328091407,
positive,yellow,1,None,k,,,,,,,,,0,215,215,215,,,,,,,,,,,,,,,,,,,,,,,,,,,,,,,,,,,,,main,None,None,1,1.4947800999507308,704.0091638999293,None,None,1,,,,,,,,,,,,,,122,21,Female,2022-05-09_16h04.23.657,Parachute,2022.1.1,59.8563328091407,
positive,yellow,1,None,k,,,,,,,,,0,216,216,216,,,,,,,,,,,,,,,,,,,,,,,,,,,,,,,,,,,,,main,None,None,1,1.498802199959755,706.507774299942,None,None,1,,,,,,,,,,,,,,122,21,Female,2022-05-09_16h04.23.657,Parachute,2022.1.1,59.8563328091407,
positive,yellow,2,None,k,,,,,,,,,0,217,217,217,,,,,,,,,,,,,,,,,,,,,,,,,,,,,,,,,,,,,main,None,None,1,1.498159500071779,709.0088470999617,None,None,1,,,,,,,,,,,,,,122,21,Female,2022-05-09_16h04.23.657,Parachute,2022.1.1,59.8563328091407,
negative,blue,1,None,k,,,,,,,,,0,218,218,218,,,,,,,,,,,,,,,,,,,,,,,,,,,,,,,,,,,,,main,None,None,1,1.498280999949202,711.5079604999628,None,None,1,,,,,,,,,,,,,,122,21,Female,2022-05-09_16h04.23.657,Parachute,2022.1.1,59.8563328091407,
positive,red,2,None,None,,,,,,,,,0,219,219,219,,,,,,,,,,,,,,,,,,,,,,,,,,,,,,,,,,,,,main,None,None,1,1.4980867999838665,714.0067669999553,None,None,1,,,,,,,,,,,,,,122,21,Female,2022-05-09_16h04.23.657,Parachute,2022.1.1,59.8563328091407,
positive,yellow,1,None,k,,,,,,,,,0,220,220,220,,,,,,,,,,,,,,,,,,,,,,,,,,,,,,,,,,,,,main,None,None,1,1.4984073000960052,716.5068699999247,None,None,1,,,,,,,,,,,,,,122,21,Female,2022-05-09_16h04.23.657,Parachute,2022.1.1,59.8563328091407,
positive,blue,1,k,None,,,,,,,,,0,221,221,221,,,,,,,,,,,,,,,,,,,,,,,,,,,,,,,,,,,,,main,k,k,1,1.5532736000604928,719.0057780999923,None,None,0,,,,,,,,,,,,,,122,21,Female,2022-05-09_16h04.23.657,Parachute,2022.1.1,59.8563328091407,
positive,yellow,2,None,k,,,,,,,,,0,222,222,222,,,,,,,,,,,,,,,,,,,,,,,,,,,,,,,,,,,,,main,None,None,1,1.5031569000566378,722.5713791999733,None,None,1,,,,,,,,,,,,,,122,21,Female,2022-05-09_16h04.23.657,Parachute,2022.1.1,59.8563328091407,
negative,yellow,1,k,None,,,,,,,,,0,223,223,223,,,,,,,,,,,,,,,,,,,,,,,,,,,,,,,,,,,,,main,k,k,1,1.0180904000299051,725.0756202000193,None,None,0,,,,,,,,,,,,,,122,21,Female,2022-05-09_16h04.23.657,Parachute,2022.1.1,59.8563328091407,
positive,yellow,2,None,k,,,,,,,,,0,224,224,224,,,,,,,,,,,,,,,,,,,,,,,,,,,,,,,,,,,,,main,None,None,1,1.4939739999826998,727.0928235999309,None,None,1,,,,,,,,,,,,,,122,21,Female,2022-05-09_16h04.23.657,Parachute,2022.1.1,59.8563328091407,
negative,yellow,2,k,None,,,,,,,,,0,225,225,225,,,,,,,,,,,,,,,,,,,,,,,,,,,,,,,,,,,,,main,k,k,1,0.6702979999827221,729.5901603000239,None,None,0,,,,,,,,,,,,,,122,21,Female,2022-05-09_16h04.23.657,Parachute,2022.1.1,59.8563328091407,
negative,blue,2,None,k,,,,,,,,,0,226,226,226,,,,,,,,,,,,,,,,,,,,,,,,,,,,,,,,,,,,,main,None,None,1,1.4930397999705747,731.2597876000218,None,None,1,,,,,,,,,,,,,,122,21,Female,2022-05-09_16h04.23.657,Parachute,2022.1.1,59.8563328091407,
positive,red,2,None,None,,,,,,,,,0,227,227,227,,,,,,,,,,,,,,,,,,,,,,,,,,,,,,,,,,,,,main,None,None,1,1.4989668000489473,733.7587022000225,None,None,1,,,,,,,,,,,,,,122,21,Female,2022-05-09_16h04.23.657,Parachute,2022.1.1,59.8563328091407,
positive,blue,2,k,None,,,,,,,,,0,228,228,228,,,,,,,,,,,,,,,,,,,,,,,,,,,,,,,,,,,,,main,k,k,1,0.7869595000520349,736.2590621999698,None,None,0,,,,,,,,,,,,,,122,21,Female,2022-05-09_16h04.23.657,Parachute,2022.1.1,59.8563328091407,
negative,blue,1,None,k,,,,,,,,,0,229,229,229,,,,,,,,,,,,,,,,,,,,,,,,,,,,,,,,,,,,,main,None,None,1,1.5103728000540286,738.0440026000142,None,None,1,,,,,,,,,,,,,,122,21,Female,2022-05-09_16h04.23.657,Parachute,2022.1.1,59.8563328091407,
positive,yellow,1,None,k,,,,,,,,,0,230,230,230,,,,,,,,,,,,,,,,,,,,,,,,,,,,,,,,,,,,,main,None,None,1,1.4982752000214532,740.5578187999781,None,None,1,,,,,,,,,,,,,,122,21,Female,2022-05-09_16h04.23.657,Parachute,2022.1.1,59.8563328091407,
negative,blue,2,None,k,,,,,,,,,0,231,231,231,,,,,,,,,,,,,,,,,,,,,,,,,,,,,,,,,,,,,main,None,None,1,1.498185700038448,743.0581589000067,None,None,1,,,,,,,,,,,,,,122,21,Female,2022-05-09_16h04.23.657,Parachute,2022.1.1,59.8563328091407,
negative,red,1,None,None,,,,,,,,,0,232,232,232,,,,,,,,,,,,,,,,,,,,,,,,,,,,,,,,,,,,,main,None,None,1,1.498884700005874,745.5573347000172,None,None,1,,,,,,,,,,,,,,122,21,Female,2022-05-09_16h04.23.657,Parachute,2022.1.1,59.8563328091407,
positive,blue,2,k,None,,,,,,,,,0,233,233,233,,,,,,,,,,,,,,,,,,,,,,,,,,,,,,,,,,,,,main,k,k,1,0.9538457999005914,748.0575993999373,None,None,0,,,,,,,,,,,,,,122,21,Female,2022-05-09_16h04.23.657,Parachute,2022.1.1,59.8563328091407,
negative,yellow,1,k,None,,,,,,,,,0,234,234,234,,,,,,,,,,,,,,,,,,,,,,,,,,,,,,,,,,,,,main,k,k,1,0.8671643000561744,750.0101407999173,None,None,0,,,,,,,,,,,,,,122,21,Female,2022-05-09_16h04.23.657,Parachute,2022.1.1,59.8563328091407,
negative,yellow,2,k,None,,,,,,,,,0,235,235,235,,,,,,,,,,,,,,,,,,,,,,,,,,,,,,,,,,,,,main,k,k,1,0.9117225999943912,751.8788725999184,None,None,0,,,,,,,,,,,,,,122,21,Female,2022-05-09_16h04.23.657,Parachute,2022.1.1,59.8563328091407,
positive,red,1,None,None,,,,,,,,,0,236,236,236,,,,,,,,,,,,,,,,,,,,,,,,,,,,,,,,,,,,,main,None,None,1,1.4951738000381738,753.8019307999639,None,None,1,,,,,,,,,,,,,,122,21,Female,2022-05-09_16h04.23.657,Parachute,2022.1.1,59.8563328091407,
negative,red,2,None,None,,,,,,,,,0,237,237,237,,,,,,,,,,,,,,,,,,,,,,,,,,,,,,,,,,,,,main,None,None,1,1.4986504999687895,756.2908904999495,None,None,1,,,,,,,,,,,,,,122,21,Female,2022-05-09_16h04.23.657,Parachute,2022.1.1,59.8563328091407,
negative,blue,1,None,k,,,,,,,,,0,238,238,238,,,,,,,,,,,,,,,,,,,,,,,,,,,,,,,,,,,,,main,None,k,0,0.9197782999835908,758.7916180000175,None,None,1,,,,,,,,,,,,,,122,21,Female,2022-05-09_16h04.23.657,Parachute,2022.1.1,59.8563328091407,
positive,blue,1,k,None,,,,,,,,,0,239,239,239,,,,,,,,,,,,,,,,,,,,,,,,,,,,,,,,,,,,,main,k,k,1,0.9247257000533864,761.7214937999379,None,None,0,,,,,,,,,,,,,,122,21,Female,2022-05-09_16h04.23.657,Parachute,2022.1.1,59.8563328091407,
,,,,,,,,,,,,,,,,,,,,,,,,,,,,,,,,,,,,,,,,,,,,,,,,,,,,,,,,,,,,,,,,,,,,,,,,,763.6547259999206,None,,,,,,,,
