distractor,target,set,ans1,ans2,rep_loop4.thisRepN,rep_loop4.thisTrialN,rep_loop4.thisN,rep_loop4.thisIndex,st2_prac_loop.thisRepN,st2_prac_loop.thisTrialN,st2_prac_loop.thisN,st2_prac_loop.thisIndex,st2_main_loop.thisRepN,st2_main_loop.thisTrialN,st2_main_loop.thisN,st2_main_loop.thisIndex,image_4.started,image_4.stopped,mouse_7.x,mouse_7.y,mouse_7.leftButton,mouse_7.midButton,mouse_7.rightButton,sound_2.started,sound_2.stopped,key_resp_3.keys,mouse_5.x,mouse_5.y,mouse_5.leftButton,mouse_5.midButton,mouse_5.rightButton,mouse_5.started,mouse_5.stopped,yes_text2.started,yes_text2.stopped,no_text2.started,no_text2.stopped,mouse_3.x,mouse_3.y,mouse_3.leftButton,mouse_3.midButton,mouse_3.rightButton,mouse_3.started,mouse_3.stopped,st_prac_back.started,st_prac_back.stopped,st_prac_text.started,st_prac_text.stopped,st_fix_back.started,st_fix_back.stopped,st_fix_2.started,st_fix_2.stopped,main_prac,st_ans,st_res,st_corr,st_rt,st_back.started,st_back.stopped,st2_resp.keys,st2_resp.corr,st_main_back.started,st_main_back.stopped,st_main_text.started,st_main_text.stopped,mouse_4.x,mouse_4.y,mouse_4.leftButton,mouse_4.midButton,mouse_4.rightButton,mouse_4.started,mouse_4.stopped,text_2.started,text_2.stopped,id*,age*,gender*,date,expName,psychopyVersion,frameRate,
,,,,,,,,,,,,,,,,,33.28093369991984,None,-0.09537037,-0.1037037,0,0,0,,,,,,,,,,,,,,,,,,,,,,,,,,,,,,,,,,,,,,,,,,,,,,,,,,,,123,19,Female,2022-05-09_20h27.47.421,Parachute,2022.1.1,60.02199204366872,
negative,yellow,1,k,None,,,,,0,0,0,0,,,,,,,,,,,,37.202056259999516,None,None,-0.04537037,-0.4074074,0,0,0,1.0017629000358284,None,98.33644009998534,None,98.33644009998534,None,-0.12407407,-0.06851852,0,0,0,0.012877759989351034,None,100.39266190002672,None,100.39266190002672,None,102.40348149999045,None,102.40348149999045,None,prac,None,None,1,1.5099111000308767,104.4189474999439,None,None,1,,,,,,,,,,,,,,123,19,Female,2022-05-09_20h27.47.421,Parachute,2022.1.1,60.02199204366872,
positive,red,2,None,None,,,,,0,1,1,1,,,,,,,,,,,,,,,,,,,,,,,,,,,,,,,,,,,,,,,,,prac,None,None,1,1.4986681999871507,106.90597379999235,None,None,1,,,,,,,,,,,,,,123,19,Female,2022-05-09_20h27.47.421,Parachute,2022.1.1,60.02199204366872,
negative,blue,2,None,k,,,,,0,2,2,2,,,,,,,,,,,,,,,,,,,,,,,,,,,,,,,,,,,,,,,,,prac,k,k,1,1.4045380000025034,109.4055468000006,None,None,0,,,,,,,,,,,,,,123,19,Female,2022-05-09_20h27.47.421,Parachute,2022.1.1,60.02199204366872,
positive,yellow,1,None,k,,,,,0,3,3,3,,,,,,,,,,,,,,,,,,,,,,,,,,,,,,,,,,,,,,,,,prac,k,k,1,1.1310746999224648,111.80958330002613,None,None,0,,,,,,,,,,,,,,123,19,Female,2022-05-09_20h27.47.421,Parachute,2022.1.1,60.02199204366872,
negative,blue,2,None,k,,,,,0,4,4,4,,,,,,,,,,,,,,,,,,,,,,,,,,,,,,,,,,,,,,,,,prac,k,k,1,1.0155611999798566,113.94218819995876,None,None,0,,,,,,,,,,,,,,123,19,Female,2022-05-09_20h27.47.421,Parachute,2022.1.1,60.02199204366872,
negative,blue,1,None,k,,,,,0,5,5,5,,,,,,,,,,,,,,,,,,,,,,,,,,,,,,,,,,,,,,,,,prac,k,k,1,5.914880899945274,115.95978499995545,None,None,0,,,,,,,,,,,,,,123,19,Female,2022-05-09_20h27.47.421,Parachute,2022.1.1,60.02199204366872,
negative,yellow,2,k,None,,,,,0,6,6,6,,,,,,,,,,,,,,,,,,,,,,,,,,,,,,,,,,,,,,,,,prac,None,None,1,1.5021142000332475,123.9205859999638,None,None,1,,,,,,,,,,,,,,123,19,Female,2022-05-09_20h27.47.421,Parachute,2022.1.1,60.02199204366872,
negative,red,1,None,None,,,,,0,7,7,7,,,,,,,,,,,,,,,,,,,,,,,,,,,,,,,,,,,,,,,,,prac,None,None,1,1.4982915000291541,126.42391519993544,None,None,1,,,,,,,,,,,,,,123,19,Female,2022-05-09_20h27.47.421,Parachute,2022.1.1,60.02199204366872,
positive,yellow,2,None,k,,,,,0,8,8,8,,,,,,,,,,,,,,,,,,,,,,,,,,,,,,,,,,,,,,,,,prac,k,k,1,0.8034012999851257,128.9233830999583,None,None,0,,,,,,,,,,,,,,123,19,Female,2022-05-09_20h27.47.421,Parachute,2022.1.1,60.02199204366872,
negative,yellow,1,k,None,,,,,0,9,9,9,,,,,,,,,,,,,,,,,,,,,,,,,,,,,,,,,,,,,,,,,prac,None,None,1,1.4929845998995006,130.7256292999955,None,None,1,,,,,,,,,,,,,,123,19,Female,2022-05-09_20h27.47.421,Parachute,2022.1.1,60.02199204366872,
positive,yellow,2,None,k,,,,,0,10,10,10,,,,,,,,,,,,,,,,,,,,,,,,,,,,,,,,,,,,,,,,,prac,k,k,1,0.9041151000419632,133.22227059991565,None,None,0,,,,,,,,,,,,,,123,19,Female,2022-05-09_20h27.47.421,Parachute,2022.1.1,60.02199204366872,
negative,yellow,2,k,None,,,,,0,11,11,11,,,,,,,,,,,,,,,,,,,,,,,,,,,,,,,,,,,,,,,,,prac,None,None,1,1.4937122000847012,135.12573410000186,None,None,1,,,,,,,,,,,,,,123,19,Female,2022-05-09_20h27.47.421,Parachute,2022.1.1,60.02199204366872,
negative,red,2,None,None,,,,,0,12,12,12,,,,,,,,,,,,,,,,,,,,,,,,,,,,,,,,,,,,,,,,,prac,None,None,1,1.498367999913171,137.6235857999418,None,None,1,,,,,,,,,,,,,,123,19,Female,2022-05-09_20h27.47.421,Parachute,2022.1.1,60.02199204366872,
positive,red,1,None,None,,,,,0,13,13,13,,,,,,,,,,,,,,,,,,,,,,,,,,,,,,,,,,,,,,,,,prac,None,None,1,1.498887600027956,140.1232721999986,None,None,1,,,,,,,,,,,,,,123,19,Female,2022-05-09_20h27.47.421,Parachute,2022.1.1,60.02199204366872,
positive,blue,2,k,None,,,,,0,14,14,14,,,,,,,,,,,,,,,,,,,,,,,,,,,,,,,,,,,,,,,,,prac,None,None,1,1.4980834000743926,142.62442669994198,None,None,1,,,,,,,,,,,,,,123,19,Female,2022-05-09_20h27.47.421,Parachute,2022.1.1,60.02199204366872,
positive,blue,1,k,None,,,,,0,15,15,15,,,,,,,,,,,,,,,,,,,,,,,,,,,,,,,,,,,,,,,,,prac,None,None,1,1.4990354001056403,145.12324059999082,None,None,1,,,,,,,,,,,,,,123,19,Female,2022-05-09_20h27.47.421,Parachute,2022.1.1,60.02199204366872,
negative,blue,1,None,k,,,,,0,16,16,16,,,,,,,,,,,,,,,,,,,,,,,,,,,,,,,,,,,,,,,,,prac,k,k,1,1.2535383999347687,147.62458669999614,None,None,0,,,,,,,,,,,,,,123,19,Female,2022-05-09_20h27.47.421,Parachute,2022.1.1,60.02199204366872,
positive,blue,2,k,None,,,,,0,17,17,17,,,,,,,,,,,,,,,,,,,,,,,,,,,,,,,,,,,,,,,,,prac,None,None,1,1.493233000044711,149.8775750999339,None,None,1,,,,,,,,,,,,,,123,19,Female,2022-05-09_20h27.47.421,Parachute,2022.1.1,60.02199204366872,
positive,blue,1,k,None,,,,,0,18,18,18,,,,,,,,,,,,,,,,,,,,,,,,,,,,,,,,,,,,,,,,,prac,None,None,1,1.4985086000524461,152.3748784000054,None,None,1,,,,,,,,,,,,,,123,19,Female,2022-05-09_20h27.47.421,Parachute,2022.1.1,60.02199204366872,
positive,yellow,1,None,k,,,,,0,19,19,19,,,,,,,,,,,,,,,,,,,,,,,,,,,,,,,,,,,,,,,,,prac,k,k,1,0.5687791999662295,154.87526589992922,None,None,0,,,,,,,,,,,,,,123,19,Female,2022-05-09_20h27.47.421,Parachute,2022.1.1,60.02199204366872,
negative,yellow,1,k,None,,,,,1,0,20,0,,,,,,,,,,,,,,,,,,,,,,,,,,,,,,,,,,,,,,,,,prac,None,None,1,1.4948528000386432,156.44285350001883,None,None,1,,,,,,,,,,,,,,123,19,Female,2022-05-09_20h27.47.421,Parachute,2022.1.1,60.02199204366872,
positive,red,2,None,None,,,,,1,1,21,1,,,,,,,,,,,,,,,,,,,,,,,,,,,,,,,,,,,,,,,,,prac,None,None,1,1.4988308000611141,158.94033120002132,None,None,1,,,,,,,,,,,,,,123,19,Female,2022-05-09_20h27.47.421,Parachute,2022.1.1,60.02199204366872,
negative,blue,2,None,k,,,,,1,2,22,2,,,,,,,,,,,,,,,,,,,,,,,,,,,,,,,,,,,,,,,,,prac,k,k,1,0.6705416000913829,161.4410142999841,None,None,0,,,,,,,,,,,,,,123,19,Female,2022-05-09_20h27.47.421,Parachute,2022.1.1,60.02199204366872,
positive,yellow,1,None,k,,,,,1,3,23,3,,,,,,,,,,,,,,,,,,,,,,,,,,,,,,,,,,,,,,,,,prac,k,k,1,0.6648338000522926,163.11038410000037,None,None,0,,,,,,,,,,,,,,123,19,Female,2022-05-09_20h27.47.421,Parachute,2022.1.1,60.02199204366872,
negative,blue,2,None,k,,,,,1,4,24,4,,,,,,,,,,,,,,,,,,,,,,,,,,,,,,,,,,,,,,,,,prac,k,k,1,0.7646326000103727,164.77650979999453,None,None,0,,,,,,,,,,,,,,123,19,Female,2022-05-09_20h27.47.421,Parachute,2022.1.1,60.02199204366872,
negative,blue,1,None,k,,,,,1,5,25,5,,,,,,,,,,,,,,,,,,,,,,,,,,,,,,,,,,,,,,,,,prac,k,k,1,1.0825911000138149,166.54245559999254,None,None,0,,,,,,,,,,,,,,123,19,Female,2022-05-09_20h27.47.421,Parachute,2022.1.1,60.02199204366872,
negative,yellow,2,k,None,,,,,1,6,26,6,,,,,,,,,,,,,,,,,,,,,,,,,,,,,,,,,,,,,,,,,prac,None,None,1,1.4931680000154302,168.62715529999696,None,None,1,,,,,,,,,,,,,,123,19,Female,2022-05-09_20h27.47.421,Parachute,2022.1.1,60.02199204366872,
negative,red,1,None,None,,,,,1,7,27,7,,,,,,,,,,,,,,,,,,,,,,,,,,,,,,,,,,,,,,,,,prac,None,None,1,1.498301799991168,171.1240817999933,None,None,1,,,,,,,,,,,,,,123,19,Female,2022-05-09_20h27.47.421,Parachute,2022.1.1,60.02199204366872,
positive,yellow,2,None,k,,,,,1,8,28,8,,,,,,,,,,,,,,,,,,,,,,,,,,,,,,,,,,,,,,,,,prac,k,k,1,0.6371231001103297,173.62396420002915,None,None,0,,,,,,,,,,,,,,123,19,Female,2022-05-09_20h27.47.421,Parachute,2022.1.1,60.02199204366872,
negative,yellow,1,k,None,,,,,1,9,29,9,,,,,,,,,,,,,,,,,,,,,,,,,,,,,,,,,,,,,,,,,prac,None,None,1,1.493220999953337,175.25966119999066,None,None,1,,,,,,,,,,,,,,123,19,Female,2022-05-09_20h27.47.421,Parachute,2022.1.1,60.02199204366872,
positive,yellow,2,None,k,,,,,1,10,30,10,,,,,,,,,,,,,,,,,,,,,,,,,,,,,,,,,,,,,,,,,prac,k,k,1,0.6704940999625251,177.75779419997707,None,None,0,,,,,,,,,,,,,,123,19,Female,2022-05-09_20h27.47.421,Parachute,2022.1.1,60.02199204366872,
negative,yellow,2,k,None,,,,,1,11,31,11,,,,,,,,,,,,,,,,,,,,,,,,,,,,,,,,,,,,,,,,,prac,None,None,1,1.4933174999896437,179.4270259999903,None,None,1,,,,,,,,,,,,,,123,19,Female,2022-05-09_20h27.47.421,Parachute,2022.1.1,60.02199204366872,
negative,red,2,None,None,,,,,1,12,32,12,,,,,,,,,,,,,,,,,,,,,,,,,,,,,,,,,,,,,,,,,prac,None,None,1,1.4986134000355378,181.923849600018,None,None,1,,,,,,,,,,,,,,123,19,Female,2022-05-09_20h27.47.421,Parachute,2022.1.1,60.02199204366872,
positive,red,1,None,None,,,,,1,13,33,13,,,,,,,,,,,,,,,,,,,,,,,,,,,,,,,,,,,,,,,,,prac,None,None,1,1.4985813000239432,184.42406729992945,None,None,1,,,,,,,,,,,,,,123,19,Female,2022-05-09_20h27.47.421,Parachute,2022.1.1,60.02199204366872,
positive,blue,2,k,None,,,,,1,14,34,14,,,,,,,,,,,,,,,,,,,,,,,,,,,,,,,,,,,,,,,,,prac,None,None,1,1.4986501999665052,186.92441059998237,None,None,1,,,,,,,,,,,,,,123,19,Female,2022-05-09_20h27.47.421,Parachute,2022.1.1,60.02199204366872,
positive,blue,1,k,None,,,,,1,15,35,15,,,,,,,,,,,,,,,,,,,,,,,,,,,,,,,,,,,,,,,,,prac,None,None,1,1.4979580000508577,189.42477639997378,None,None,1,,,,,,,,,,,,,,123,19,Female,2022-05-09_20h27.47.421,Parachute,2022.1.1,60.02199204366872,
negative,blue,1,None,k,,,,,1,16,36,16,,,,,,,,,,,,,,,,,,,,,,,,,,,,,,,,,,,,,,,,,prac,k,k,1,1.2392189999809489,191.92385699995793,None,None,0,,,,,,,,,,,,,,123,19,Female,2022-05-09_20h27.47.421,Parachute,2022.1.1,60.02199204366872,
positive,blue,2,k,None,,,,,1,17,37,17,,,,,,,,,,,,,,,,,,,,,,,,,,,,,,,,,,,,,,,,,prac,None,None,1,1.5080789999337867,194.16294159996323,None,None,1,,,,,,,,,,,,,,123,19,Female,2022-05-09_20h27.47.421,Parachute,2022.1.1,60.02199204366872,
positive,blue,1,k,None,,,,,1,18,38,18,,,,,,,,,,,,,,,,,,,,,,,,,,,,,,,,,,,,,,,,,prac,None,None,1,1.498917399905622,196.67426300002262,None,None,1,,,,,,,,,,,,,,123,19,Female,2022-05-09_20h27.47.421,Parachute,2022.1.1,60.02199204366872,
positive,yellow,1,None,k,,,,,1,19,39,19,,,,,,,,,,,,,,,,,,,,,,,,,,,,,,,,,,,,,,,,,prac,k,k,1,0.6356156999245286,199.17486010002904,None,None,0,,,,,,,,,,,,,,123,19,Female,2022-05-09_20h27.47.421,Parachute,2022.1.1,60.02199204366872,
,,,,,,,,,,,,,,,,,,,,,,,,,,,,,,,,,,,,,,,,,,,,,,,,,,,,,,,,,,,,,,200.83160709997173,None,200.83160709997173,None,-0.10185185,-0.075,0,0,0,0.01192715996876359,None,,,123,19,Female,2022-05-09_20h27.47.421,Parachute,2022.1.1,60.02199204366872,
negative,yellow,2,k,None,,,,,,,,,0,0,0,0,,,,,,,,,,,,,,,,,,,,,,,,,,,,,,,,,229.08944929996505,None,229.08944929996505,None,main,None,None,1,1.4980078999651596,231.1240659999894,None,None,1,,,,,,,,,,,,,,123,19,Female,2022-05-09_20h27.47.421,Parachute,2022.1.1,60.02199204366872,
positive,red,1,None,None,,,,,,,,,0,1,1,1,,,,,,,,,,,,,,,,,,,,,,,,,,,,,,,,,,,,,main,None,None,1,1.4977253000251949,233.6273547000019,None,None,1,,,,,,,,,,,,,,123,19,Female,2022-05-09_20h27.47.421,Parachute,2022.1.1,60.02199204366872,
positive,blue,2,k,None,,,,,,,,,0,2,2,2,,,,,,,,,,,,,,,,,,,,,,,,,,,,,,,,,,,,,main,None,None,1,1.497975300066173,236.12601399992127,None,None,1,,,,,,,,,,,,,,123,19,Female,2022-05-09_20h27.47.421,Parachute,2022.1.1,60.02199204366872,
positive,blue,1,k,None,,,,,,,,,0,3,3,3,,,,,,,,,,,,,,,,,,,,,,,,,,,,,,,,,,,,,main,None,None,1,1.498726399964653,238.62575509992894,None,None,1,,,,,,,,,,,,,,123,19,Female,2022-05-09_20h27.47.421,Parachute,2022.1.1,60.02199204366872,
negative,yellow,2,k,None,,,,,,,,,0,4,4,4,,,,,,,,,,,,,,,,,,,,,,,,,,,,,,,,,,,,,main,None,None,1,1.498615499935113,241.12514160003047,None,None,1,,,,,,,,,,,,,,123,19,Female,2022-05-09_20h27.47.421,Parachute,2022.1.1,60.02199204366872,
positive,yellow,2,None,k,,,,,,,,,0,5,5,5,,,,,,,,,,,,,,,,,,,,,,,,,,,,,,,,,,,,,main,k,k,1,0.651796399964951,243.62526999996044,None,None,0,,,,,,,,,,,,,,123,19,Female,2022-05-09_20h27.47.421,Parachute,2022.1.1,60.02199204366872,
negative,blue,2,None,k,,,,,,,,,0,6,6,6,,,,,,,,,,,,,,,,,,,,,,,,,,,,,,,,,,,,,main,k,k,1,0.6835652000736445,245.2781334000174,None,None,0,,,,,,,,,,,,,,123,19,Female,2022-05-09_20h27.47.421,Parachute,2022.1.1,60.02199204366872,
positive,red,2,None,None,,,,,,,,,0,7,7,7,,,,,,,,,,,,,,,,,,,,,,,,,,,,,,,,,,,,,main,None,None,1,1.4932964000618085,246.96143779996783,None,None,1,,,,,,,,,,,,,,123,19,Female,2022-05-09_20h27.47.421,Parachute,2022.1.1,60.02199204366872,
positive,yellow,1,None,k,,,,,,,,,0,8,8,8,,,,,,,,,,,,,,,,,,,,,,,,,,,,,,,,,,,,,main,k,k,1,0.6195016000419855,249.45864029997028,None,None,0,,,,,,,,,,,,,,123,19,Female,2022-05-09_20h27.47.421,Parachute,2022.1.1,60.02199204366872,
negative,red,1,None,None,,,,,,,,,0,9,9,9,,,,,,,,,,,,,,,,,,,,,,,,,,,,,,,,,,,,,main,None,None,1,1.4940960999811068,251.07815469999332,None,None,1,,,,,,,,,,,,,,123,19,Female,2022-05-09_20h27.47.421,Parachute,2022.1.1,60.02199204366872,
positive,yellow,1,None,k,,,,,,,,,0,10,10,10,,,,,,,,,,,,,,,,,,,,,,,,,,,,,,,,,,,,,main,k,k,1,0.6040935000637546,253.57535930001177,None,None,0,,,,,,,,,,,,,,123,19,Female,2022-05-09_20h27.47.421,Parachute,2022.1.1,60.02199204366872,
negative,yellow,1,k,None,,,,,,,,,0,11,11,11,,,,,,,,,,,,,,,,,,,,,,,,,,,,,,,,,,,,,main,None,None,1,1.4935953000094742,255.17848040000536,None,None,1,,,,,,,,,,,,,,123,19,Female,2022-05-09_20h27.47.421,Parachute,2022.1.1,60.02199204366872,
negative,yellow,1,k,None,,,,,,,,,0,12,12,12,,,,,,,,,,,,,,,,,,,,,,,,,,,,,,,,,,,,,main,None,None,1,1.4979324999731034,257.6763251000084,None,None,1,,,,,,,,,,,,,,123,19,Female,2022-05-09_20h27.47.421,Parachute,2022.1.1,60.02199204366872,
negative,red,2,None,None,,,,,,,,,0,13,13,13,,,,,,,,,,,,,,,,,,,,,,,,,,,,,,,,,,,,,main,None,None,1,1.498426100006327,260.1755656999303,None,None,1,,,,,,,,,,,,,,123,19,Female,2022-05-09_20h27.47.421,Parachute,2022.1.1,60.02199204366872,
positive,yellow,2,None,k,,,,,,,,,0,14,14,14,,,,,,,,,,,,,,,,,,,,,,,,,,,,,,,,,,,,,main,k,k,1,0.6540672000264749,262.6752435999224,None,None,0,,,,,,,,,,,,,,123,19,Female,2022-05-09_20h27.47.421,Parachute,2022.1.1,60.02199204366872,
positive,blue,1,k,None,,,,,,,,,0,15,15,15,,,,,,,,,,,,,,,,,,,,,,,,,,,,,,,,,,,,,main,None,None,1,1.4936276000225917,264.3287487999769,None,None,1,,,,,,,,,,,,,,123,19,Female,2022-05-09_20h27.47.421,Parachute,2022.1.1,60.02199204366872,
negative,blue,1,None,k,,,,,,,,,0,16,16,16,,,,,,,,,,,,,,,,,,,,,,,,,,,,,,,,,,,,,main,k,k,1,0.6033119999337941,266.82685890002176,None,None,0,,,,,,,,,,,,,,123,19,Female,2022-05-09_20h27.47.421,Parachute,2022.1.1,60.02199204366872,
positive,blue,2,k,None,,,,,,,,,0,17,17,17,,,,,,,,,,,,,,,,,,,,,,,,,,,,,,,,,,,,,main,None,None,1,1.4934559999965131,268.4284863999346,None,None,1,,,,,,,,,,,,,,123,19,Female,2022-05-09_20h27.47.421,Parachute,2022.1.1,60.02199204366872,
negative,blue,2,None,k,,,,,,,,,0,18,18,18,,,,,,,,,,,,,,,,,,,,,,,,,,,,,,,,,,,,,main,k,k,1,0.7538257000269368,270.9260116999503,None,None,0,,,,,,,,,,,,,,123,19,Female,2022-05-09_20h27.47.421,Parachute,2022.1.1,60.02199204366872,
negative,blue,1,None,k,,,,,,,,,0,19,19,19,,,,,,,,,,,,,,,,,,,,,,,,,,,,,,,,,,,,,main,k,k,1,0.7130448999814689,272.6787223999854,None,None,0,,,,,,,,,,,,,,123,19,Female,2022-05-09_20h27.47.421,Parachute,2022.1.1,60.02199204366872,
negative,blue,1,None,k,,,,,,,,,0,20,20,20,,,,,,,,,,,,,,,,,,,,,,,,,,,,,,,,,,,,,main,k,k,1,0.6660094000399113,274.4037527999608,None,None,0,,,,,,,,,,,,,,123,19,Female,2022-05-09_20h27.47.421,Parachute,2022.1.1,60.02199204366872,
negative,blue,2,None,k,,,,,,,,,0,21,21,21,,,,,,,,,,,,,,,,,,,,,,,,,,,,,,,,,,,,,main,k,k,1,0.7700238999677822,276.0618393999757,None,None,0,,,,,,,,,,,,,,123,19,Female,2022-05-09_20h27.47.421,Parachute,2022.1.1,60.02199204366872,
negative,red,1,None,None,,,,,,,,,0,22,22,22,,,,,,,,,,,,,,,,,,,,,,,,,,,,,,,,,,,,,main,None,None,1,1.504808200057596,277.83254979993217,None,None,1,,,,,,,,,,,,,,123,19,Female,2022-05-09_20h27.47.421,Parachute,2022.1.1,60.02199204366872,
positive,red,2,None,None,,,,,,,,,0,23,23,23,,,,,,,,,,,,,,,,,,,,,,,,,,,,,,,,,,,,,main,None,None,1,1.4992803999921307,280.3421747999964,None,None,1,,,,,,,,,,,,,,123,19,Female,2022-05-09_20h27.47.421,Parachute,2022.1.1,60.02199204366872,
negative,red,2,None,None,,,,,,,,,0,24,24,24,,,,,,,,,,,,,,,,,,,,,,,,,,,,,,,,,,,,,main,None,None,1,1.498299799975939,282.8436510999454,None,None,1,,,,,,,,,,,,,,123,19,Female,2022-05-09_20h27.47.421,Parachute,2022.1.1,60.02199204366872,
positive,blue,2,k,None,,,,,,,,,0,25,25,25,,,,,,,,,,,,,,,,,,,,,,,,,,,,,,,,,,,,,main,None,None,1,1.4988010000670329,285.3429683999857,None,None,1,,,,,,,,,,,,,,123,19,Female,2022-05-09_20h27.47.421,Parachute,2022.1.1,60.02199204366872,
negative,yellow,1,k,None,,,,,,,,,0,26,26,26,,,,,,,,,,,,,,,,,,,,,,,,,,,,,,,,,,,,,main,None,None,1,1.4984561000019312,287.843880899949,None,None,1,,,,,,,,,,,,,,123,19,Female,2022-05-09_20h27.47.421,Parachute,2022.1.1,60.02199204366872,
positive,blue,2,k,None,,,,,,,,,0,27,27,27,,,,,,,,,,,,,,,,,,,,,,,,,,,,,,,,,,,,,main,None,None,1,1.4983820000197738,290.3433534000069,None,None,1,,,,,,,,,,,,,,123,19,Female,2022-05-09_20h27.47.421,Parachute,2022.1.1,60.02199204366872,
negative,blue,2,None,k,,,,,,,,,0,28,28,28,,,,,,,,,,,,,,,,,,,,,,,,,,,,,,,,,,,,,main,k,k,1,0.6859563000034541,292.8433978999965,None,None,0,,,,,,,,,,,,,,123,19,Female,2022-05-09_20h27.47.421,Parachute,2022.1.1,60.02199204366872,
positive,red,1,None,None,,,,,,,,,0,29,29,29,,,,,,,,,,,,,,,,,,,,,,,,,,,,,,,,,,,,,main,None,None,1,1.4944983000168577,294.5291379999835,None,None,1,,,,,,,,,,,,,,123,19,Female,2022-05-09_20h27.47.421,Parachute,2022.1.1,60.02199204366872,
positive,blue,1,k,None,,,,,,,,,0,30,30,30,,,,,,,,,,,,,,,,,,,,,,,,,,,,,,,,,,,,,main,None,None,1,1.4983072000322863,297.0272060999414,None,None,1,,,,,,,,,,,,,,123,19,Female,2022-05-09_20h27.47.421,Parachute,2022.1.1,60.02199204366872,
positive,yellow,1,None,k,,,,,,,,,0,31,31,31,,,,,,,,,,,,,,,,,,,,,,,,,,,,,,,,,,,,,main,k,k,1,0.6349253000225872,299.52780229994096,None,None,0,,,,,,,,,,,,,,123,19,Female,2022-05-09_20h27.47.421,Parachute,2022.1.1,60.02199204366872,
negative,yellow,2,k,None,,,,,,,,,0,32,32,32,,,,,,,,,,,,,,,,,,,,,,,,,,,,,,,,,,,,,main,None,None,1,1.4949500999646261,301.162512699957,None,None,1,,,,,,,,,,,,,,123,19,Female,2022-05-09_20h27.47.421,Parachute,2022.1.1,60.02199204366872,
negative,blue,1,None,k,,,,,,,,,0,33,33,33,,,,,,,,,,,,,,,,,,,,,,,,,,,,,,,,,,,,,main,k,k,1,0.6041206999216229,303.6597608999582,None,None,0,,,,,,,,,,,,,,123,19,Female,2022-05-09_20h27.47.421,Parachute,2022.1.1,60.02199204366872,
positive,blue,1,k,None,,,,,,,,,0,34,34,34,,,,,,,,,,,,,,,,,,,,,,,,,,,,,,,,,,,,,main,None,None,1,1.4930463000200689,305.2632559000049,None,None,1,,,,,,,,,,,,,,123,19,Female,2022-05-09_20h27.47.421,Parachute,2022.1.1,60.02199204366872,
negative,yellow,1,k,None,,,,,,,,,0,35,35,35,,,,,,,,,,,,,,,,,,,,,,,,,,,,,,,,,,,,,main,None,None,1,1.4986224999884143,307.76026789995376,None,None,1,,,,,,,,,,,,,,123,19,Female,2022-05-09_20h27.47.421,Parachute,2022.1.1,60.02199204366872,
positive,yellow,2,None,k,,,,,,,,,0,36,36,36,,,,,,,,,,,,,,,,,,,,,,,,,,,,,,,,,,,,,main,k,k,1,0.6036538999760523,310.2609630000079,None,None,0,,,,,,,,,,,,,,123,19,Female,2022-05-09_20h27.47.421,Parachute,2022.1.1,60.02199204366872,
positive,yellow,2,None,k,,,,,,,,,0,37,37,37,,,,,,,,,,,,,,,,,,,,,,,,,,,,,,,,,,,,,main,k,k,1,0.5649240999482572,311.86318310000934,None,None,0,,,,,,,,,,,,,,123,19,Female,2022-05-09_20h27.47.421,Parachute,2022.1.1,60.02199204366872,
negative,yellow,2,k,None,,,,,,,,,0,38,38,38,,,,,,,,,,,,,,,,,,,,,,,,,,,,,,,,,,,,,main,None,None,1,1.4938598000444472,313.4290838999441,None,None,1,,,,,,,,,,,,,,123,19,Female,2022-05-09_20h27.47.421,Parachute,2022.1.1,60.02199204366872,
positive,yellow,1,None,k,,,,,,,,,0,39,39,39,,,,,,,,,,,,,,,,,,,,,,,,,,,,,,,,,,,,,main,k,k,1,0.6185103999450803,315.92725980002433,None,None,0,,,,,,,,,,,,,,123,19,Female,2022-05-09_20h27.47.421,Parachute,2022.1.1,60.02199204366872,
negative,yellow,2,k,None,,,,,,,,,0,40,40,40,,,,,,,,,,,,,,,,,,,,,,,,,,,,,,,,,,,,,main,None,None,1,1.4949061999795958,317.54613199993037,None,None,1,,,,,,,,,,,,,,123,19,Female,2022-05-09_20h27.47.421,Parachute,2022.1.1,60.02199204366872,
positive,blue,2,k,None,,,,,,,,,0,41,41,41,,,,,,,,,,,,,,,,,,,,,,,,,,,,,,,,,,,,,main,None,None,1,1.4989726999774575,320.04433109995443,None,None,1,,,,,,,,,,,,,,123,19,Female,2022-05-09_20h27.47.421,Parachute,2022.1.1,60.02199204366872,
positive,blue,2,k,None,,,,,,,,,0,42,42,42,,,,,,,,,,,,,,,,,,,,,,,,,,,,,,,,,,,,,main,None,None,1,1.4974685000488535,322.544794299989,None,None,1,,,,,,,,,,,,,,123,19,Female,2022-05-09_20h27.47.421,Parachute,2022.1.1,60.02199204366872,
negative,blue,2,None,k,,,,,,,,,0,43,43,43,,,,,,,,,,,,,,,,,,,,,,,,,,,,,,,,,,,,,main,k,k,1,0.5342676000436768,325.04348140000366,None,None,0,,,,,,,,,,,,,,123,19,Female,2022-05-09_20h27.47.421,Parachute,2022.1.1,60.02199204366872,
negative,red,1,None,None,,,,,,,,,0,44,44,44,,,,,,,,,,,,,,,,,,,,,,,,,,,,,,,,,,,,,main,None,None,1,1.4964962999802083,326.57957549998537,None,None,1,,,,,,,,,,,,,,123,19,Female,2022-05-09_20h27.47.421,Parachute,2022.1.1,60.02199204366872,
negative,yellow,1,k,None,,,,,,,,,0,45,45,45,,,,,,,,,,,,,,,,,,,,,,,,,,,,,,,,,,,,,main,None,None,1,1.4987025000154972,329.07700529997237,None,None,1,,,,,,,,,,,,,,123,19,Female,2022-05-09_20h27.47.421,Parachute,2022.1.1,60.02199204366872,
negative,yellow,1,k,None,,,,,,,,,0,46,46,46,,,,,,,,,,,,,,,,,,,,,,,,,,,,,,,,,,,,,main,None,None,1,1.498386999941431,331.5777648999356,None,None,1,,,,,,,,,,,,,,123,19,Female,2022-05-09_20h27.47.421,Parachute,2022.1.1,60.02199204366872,
positive,red,1,None,None,,,,,,,,,0,47,47,47,,,,,,,,,,,,,,,,,,,,,,,,,,,,,,,,,,,,,main,None,None,1,1.4989472000161186,334.0771076999372,None,None,1,,,,,,,,,,,,,,123,19,Female,2022-05-09_20h27.47.421,Parachute,2022.1.1,60.02199204366872,
positive,yellow,1,None,k,,,,,,,,,0,48,48,48,,,,,,,,,,,,,,,,,,,,,,,,,,,,,,,,,,,,,main,k,k,1,0.6040427999105304,336.5779692999786,None,None,0,,,,,,,,,,,,,,123,19,Female,2022-05-09_20h27.47.421,Parachute,2022.1.1,60.02199204366872,
negative,blue,1,None,k,,,,,,,,,0,49,49,49,,,,,,,,,,,,,,,,,,,,,,,,,,,,,,,,,,,,,main,k,k,1,0.8812971999868751,338.18077380000614,None,None,0,,,,,,,,,,,,,,123,19,Female,2022-05-09_20h27.47.421,Parachute,2022.1.1,60.02199204366872,
positive,yellow,2,None,k,,,,,,,,,0,50,50,50,,,,,,,,,,,,,,,,,,,,,,,,,,,,,,,,,,,,,main,k,k,1,0.6316522000124678,340.063305699965,None,None,0,,,,,,,,,,,,,,123,19,Female,2022-05-09_20h27.47.421,Parachute,2022.1.1,60.02199204366872,
negative,blue,1,None,k,,,,,,,,,0,51,51,51,,,,,,,,,,,,,,,,,,,,,,,,,,,,,,,,,,,,,main,k,k,1,0.5649603999918327,341.6976893999381,None,None,0,,,,,,,,,,,,,,123,19,Female,2022-05-09_20h27.47.421,Parachute,2022.1.1,60.02199204366872,
positive,red,2,None,None,,,,,,,,,0,52,52,52,,,,,,,,,,,,,,,,,,,,,,,,,,,,,,,,,,,,,main,None,None,1,1.4936983999796212,343.26341969997156,None,None,1,,,,,,,,,,,,,,123,19,Female,2022-05-09_20h27.47.421,Parachute,2022.1.1,60.02199204366872,
positive,yellow,2,None,k,,,,,,,,,0,53,53,53,,,,,,,,,,,,,,,,,,,,,,,,,,,,,,,,,,,,,main,k,k,1,0.6036009000381455,345.76114660000894,None,None,0,,,,,,,,,,,,,,123,19,Female,2022-05-09_20h27.47.421,Parachute,2022.1.1,60.02199204366872,
negative,red,2,None,None,,,,,,,,,0,54,54,54,,,,,,,,,,,,,,,,,,,,,,,,,,,,,,,,,,,,,main,None,None,1,1.5105724999448285,347.3651440999238,None,None,1,,,,,,,,,,,,,,123,19,Female,2022-05-09_20h27.47.421,Parachute,2022.1.1,60.02199204366872,
positive,yellow,1,None,k,,,,,,,,,0,55,55,55,,,,,,,,,,,,,,,,,,,,,,,,,,,,,,,,,,,,,main,k,k,1,0.5184508999809623,349.8798818999203,None,None,0,,,,,,,,,,,,,,123,19,Female,2022-05-09_20h27.47.421,Parachute,2022.1.1,60.02199204366872,
negative,blue,2,None,k,,,,,,,,,0,56,56,56,,,,,,,,,,,,,,,,,,,,,,,,,,,,,,,,,,,,,main,k,k,1,0.5986182000488043,351.3969373999862,None,None,0,,,,,,,,,,,,,,123,19,Female,2022-05-09_20h27.47.421,Parachute,2022.1.1,60.02199204366872,
positive,blue,1,k,None,,,,,,,,,0,57,57,57,,,,,,,,,,,,,,,,,,,,,,,,,,,,,,,,,,,,,main,None,None,1,1.4935093000531197,352.9966224000091,None,None,1,,,,,,,,,,,,,,123,19,Female,2022-05-09_20h27.47.421,Parachute,2022.1.1,60.02199204366872,
positive,blue,1,k,None,,,,,,,,,0,58,58,58,,,,,,,,,,,,,,,,,,,,,,,,,,,,,,,,,,,,,main,None,None,1,1.498764600022696,355.49437149998266,None,None,1,,,,,,,,,,,,,,123,19,Female,2022-05-09_20h27.47.421,Parachute,2022.1.1,60.02199204366872,
negative,yellow,2,k,None,,,,,,,,,0,59,59,59,,,,,,,,,,,,,,,,,,,,,,,,,,,,,,,,,,,,,main,None,None,1,1.498892999952659,357.994840499945,None,None,1,,,,,,,,,,,,,,123,19,Female,2022-05-09_20h27.47.421,Parachute,2022.1.1,60.02199204366872,
positive,red,2,None,None,,,,,,,,,0,60,60,60,,,,,,,,,,,,,,,,,,,,,,,,,,,,,,,,,,,,,main,None,None,1,1.4982772999210283,360.4947847999865,None,None,1,,,,,,,,,,,,,,123,19,Female,2022-05-09_20h27.47.421,Parachute,2022.1.1,60.02199204366872,
negative,yellow,1,k,None,,,,,,,,,0,61,61,61,,,,,,,,,,,,,,,,,,,,,,,,,,,,,,,,,,,,,main,None,None,1,1.4988435000414029,362.9951025999617,None,None,1,,,,,,,,,,,,,,123,19,Female,2022-05-09_20h27.47.421,Parachute,2022.1.1,60.02199204366872,
negative,red,1,None,None,,,,,,,,,0,62,62,62,,,,,,,,,,,,,,,,,,,,,,,,,,,,,,,,,,,,,main,None,None,1,1.4984193000709638,365.49537719995715,None,None,1,,,,,,,,,,,,,,123,19,Female,2022-05-09_20h27.47.421,Parachute,2022.1.1,60.02199204366872,
negative,blue,1,None,k,,,,,,,,,0,63,63,63,,,,,,,,,,,,,,,,,,,,,,,,,,,,,,,,,,,,,main,k,k,1,0.7032818000297993,367.9955125999404,None,None,0,,,,,,,,,,,,,,123,19,Female,2022-05-09_20h27.47.421,Parachute,2022.1.1,60.02199204366872,
positive,blue,2,k,None,,,,,,,,,0,64,64,64,,,,,,,,,,,,,,,,,,,,,,,,,,,,,,,,,,,,,main,None,None,1,1.4936959000770003,369.6975303000072,None,None,1,,,,,,,,,,,,,,123,19,Female,2022-05-09_20h27.47.421,Parachute,2022.1.1,60.02199204366872,
negative,yellow,2,k,None,,,,,,,,,0,65,65,65,,,,,,,,,,,,,,,,,,,,,,,,,,,,,,,,,,,,,main,None,None,1,1.4981811000034213,372.1951504999306,None,None,1,,,,,,,,,,,,,,123,19,Female,2022-05-09_20h27.47.421,Parachute,2022.1.1,60.02199204366872,
positive,yellow,2,None,k,,,,,,,,,0,66,66,66,,,,,,,,,,,,,,,,,,,,,,,,,,,,,,,,,,,,,main,k,k,1,0.5874058000044897,374.6946933999425,None,None,0,,,,,,,,,,,,,,123,19,Female,2022-05-09_20h27.47.421,Parachute,2022.1.1,60.02199204366872,
positive,yellow,2,None,k,,,,,,,,,0,67,67,67,,,,,,,,,,,,,,,,,,,,,,,,,,,,,,,,,,,,,main,k,k,1,0.5656556999310851,376.28111400001217,None,None,0,,,,,,,,,,,,,,123,19,Female,2022-05-09_20h27.47.421,Parachute,2022.1.1,60.02199204366872,
positive,red,1,None,None,,,,,,,,,0,68,68,68,,,,,,,,,,,,,,,,,,,,,,,,,,,,,,,,,,,,,main,None,None,1,1.492751199984923,377.8488152999198,None,None,1,,,,,,,,,,,,,,123,19,Female,2022-05-09_20h27.47.421,Parachute,2022.1.1,60.02199204366872,
positive,yellow,1,None,k,,,,,,,,,0,69,69,69,,,,,,,,,,,,,,,,,,,,,,,,,,,,,,,,,,,,,main,k,k,1,0.5861176999751478,380.34510319994297,None,None,0,,,,,,,,,,,,,,123,19,Female,2022-05-09_20h27.47.421,Parachute,2022.1.1,60.02199204366872,
negative,yellow,2,k,None,,,,,,,,,0,70,70,70,,,,,,,,,,,,,,,,,,,,,,,,,,,,,,,,,,,,,main,None,None,1,1.4943621999118477,381.9310423999559,None,None,1,,,,,,,,,,,,,,123,19,Female,2022-05-09_20h27.47.421,Parachute,2022.1.1,60.02199204366872,
positive,yellow,1,None,k,,,,,,,,,0,71,71,71,,,,,,,,,,,,,,,,,,,,,,,,,,,,,,,,,,,,,main,k,k,1,0.7367580001009628,384.4288885999704,None,None,0,,,,,,,,,,,,,,123,19,Female,2022-05-09_20h27.47.421,Parachute,2022.1.1,60.02199204366872,
negative,blue,1,None,k,,,,,,,,,0,72,72,72,,,,,,,,,,,,,,,,,,,,,,,,,,,,,,,,,,,,,main,k,k,1,0.7170464000664651,386.16437929996755,None,None,0,,,,,,,,,,,,,,123,19,Female,2022-05-09_20h27.47.421,Parachute,2022.1.1,60.02199204366872,
negative,red,2,None,None,,,,,,,,,0,73,73,73,,,,,,,,,,,,,,,,,,,,,,,,,,,,,,,,,,,,,main,None,None,1,1.508659000042826,387.88367359992117,None,None,1,,,,,,,,,,,,,,123,19,Female,2022-05-09_20h27.47.421,Parachute,2022.1.1,60.02199204366872,
positive,blue,2,k,None,,,,,,,,,0,74,74,74,,,,,,,,,,,,,,,,,,,,,,,,,,,,,,,,,,,,,main,None,None,1,1.498337300028652,390.39664980000816,None,None,1,,,,,,,,,,,,,,123,19,Female,2022-05-09_20h27.47.421,Parachute,2022.1.1,60.02199204366872,
negative,blue,2,None,k,,,,,,,,,0,75,75,75,,,,,,,,,,,,,,,,,,,,,,,,,,,,,,,,,,,,,main,k,k,1,0.7848518999526277,392.8960665999912,None,None,0,,,,,,,,,,,,,,123,19,Female,2022-05-09_20h27.47.421,Parachute,2022.1.1,60.02199204366872,
negative,blue,2,None,k,,,,,,,,,0,76,76,76,,,,,,,,,,,,,,,,,,,,,,,,,,,,,,,,,,,,,main,k,k,1,0.6168285000603646,394.6897870999528,None,None,0,,,,,,,,,,,,,,123,19,Female,2022-05-09_20h27.47.421,Parachute,2022.1.1,60.02199204366872,
negative,yellow,1,k,None,,,,,,,,,0,77,77,77,,,,,,,,,,,,,,,,,,,,,,,,,,,,,,,,,,,,,main,None,None,1,1.493705700035207,396.300731999916,None,None,1,,,,,,,,,,,,,,123,19,Female,2022-05-09_20h27.47.421,Parachute,2022.1.1,60.02199204366872,
positive,blue,1,k,None,,,,,,,,,0,78,78,78,,,,,,,,,,,,,,,,,,,,,,,,,,,,,,,,,,,,,main,None,None,1,1.4986811999697238,398.79599879996385,None,None,1,,,,,,,,,,,,,,123,19,Female,2022-05-09_20h27.47.421,Parachute,2022.1.1,60.02199204366872,
positive,blue,1,k,None,,,,,,,,,0,79,79,79,,,,,,,,,,,,,,,,,,,,,,,,,,,,,,,,,,,,,main,None,None,1,1.4982307999162003,401.29580560000613,None,None,1,,,,,,,,,,,,,,123,19,Female,2022-05-09_20h27.47.421,Parachute,2022.1.1,60.02199204366872,
positive,red,2,None,None,,,,,,,,,0,80,80,80,,,,,,,,,,,,,,,,,,,,,,,,,,,,,,,,,,,,,main,None,None,1,1.498227300005965,403.79579929995816,None,None,1,,,,,,,,,,,,,,123,19,Female,2022-05-09_20h27.47.421,Parachute,2022.1.1,60.02199204366872,
positive,yellow,2,None,k,,,,,,,,,0,81,81,81,,,,,,,,,,,,,,,,,,,,,,,,,,,,,,,,,,,,,main,k,k,1,0.5892678999807686,406.2955870999722,None,None,0,,,,,,,,,,,,,,123,19,Female,2022-05-09_20h27.47.421,Parachute,2022.1.1,60.02199204366872,
positive,blue,1,k,None,,,,,,,,,0,82,82,82,,,,,,,,,,,,,,,,,,,,,,,,,,,,,,,,,,,,,main,None,None,1,1.507967900019139,407.88389930000994,None,None,1,,,,,,,,,,,,,,123,19,Female,2022-05-09_20h27.47.421,Parachute,2022.1.1,60.02199204366872,
negative,yellow,2,k,None,,,,,,,,,0,83,83,83,,,,,,,,,,,,,,,,,,,,,,,,,,,,,,,,,,,,,main,None,None,1,1.4982245999854058,410.39614640001673,None,None,1,,,,,,,,,,,,,,123,19,Female,2022-05-09_20h27.47.421,Parachute,2022.1.1,60.02199204366872,
positive,blue,2,k,None,,,,,,,,,0,84,84,84,,,,,,,,,,,,,,,,,,,,,,,,,,,,,,,,,,,,,main,None,None,1,1.4990345999831334,412.8957001999952,None,None,1,,,,,,,,,,,,,,123,19,Female,2022-05-09_20h27.47.421,Parachute,2022.1.1,60.02199204366872,
positive,yellow,1,None,k,,,,,,,,,0,85,85,85,,,,,,,,,,,,,,,,,,,,,,,,,,,,,,,,,,,,,main,k,k,1,0.7540710000321269,415.39599059999455,None,None,0,,,,,,,,,,,,,,123,19,Female,2022-05-09_20h27.47.421,Parachute,2022.1.1,60.02199204366872,
positive,blue,2,k,None,,,,,,,,,0,86,86,86,,,,,,,,,,,,,,,,,,,,,,,,,,,,,,,,,,,,,main,None,None,1,1.4929535000119358,417.1492947000079,None,None,1,,,,,,,,,,,,,,123,19,Female,2022-05-09_20h27.47.421,Parachute,2022.1.1,60.02199204366872,
positive,blue,1,k,None,,,,,,,,,0,87,87,87,,,,,,,,,,,,,,,,,,,,,,,,,,,,,,,,,,,,,main,None,k,0,0.7021786000113934,419.64596829994116,None,None,1,,,,,,,,,,,,,,123,19,Female,2022-05-09_20h27.47.421,Parachute,2022.1.1,60.02199204366872,
negative,yellow,2,k,None,,,,,,,,,0,88,88,88,,,,,,,,,,,,,,,,,,,,,,,,,,,,,,,,,,,,,main,None,None,1,1.5022315999958664,422.3602049999172,None,None,1,,,,,,,,,,,,,,123,19,Female,2022-05-09_20h27.47.421,Parachute,2022.1.1,60.02199204366872,
negative,blue,2,None,k,,,,,,,,,0,89,89,89,,,,,,,,,,,,,,,,,,,,,,,,,,,,,,,,,,,,,main,k,k,1,0.6873326000059023,424.86259829998016,None,None,0,,,,,,,,,,,,,,123,19,Female,2022-05-09_20h27.47.421,Parachute,2022.1.1,60.02199204366872,
positive,yellow,2,None,k,,,,,,,,,0,90,90,90,,,,,,,,,,,,,,,,,,,,,,,,,,,,,,,,,,,,,main,k,k,1,0.6562564999330789,426.5493103999179,None,None,0,,,,,,,,,,,,,,123,19,Female,2022-05-09_20h27.47.421,Parachute,2022.1.1,60.02199204366872,
negative,yellow,1,k,None,,,,,,,,,0,91,91,91,,,,,,,,,,,,,,,,,,,,,,,,,,,,,,,,,,,,,main,None,None,1,1.5022311999928206,428.2097310000099,None,None,1,,,,,,,,,,,,,,123,19,Female,2022-05-09_20h27.47.421,Parachute,2022.1.1,60.02199204366872,
negative,red,2,None,None,,,,,,,,,0,92,92,92,,,,,,,,,,,,,,,,,,,,,,,,,,,,,,,,,,,,,main,None,None,1,1.4988479000749066,430.712972600013,None,None,1,,,,,,,,,,,,,,123,19,Female,2022-05-09_20h27.47.421,Parachute,2022.1.1,60.02199204366872,
negative,blue,2,None,k,,,,,,,,,0,93,93,93,,,,,,,,,,,,,,,,,,,,,,,,,,,,,,,,,,,,,main,k,k,1,0.6030994999455288,433.2134977999376,None,None,0,,,,,,,,,,,,,,123,19,Female,2022-05-09_20h27.47.421,Parachute,2022.1.1,60.02199204366872,
negative,blue,1,None,k,,,,,,,,,0,94,94,94,,,,,,,,,,,,,,,,,,,,,,,,,,,,,,,,,,,,,main,k,k,1,0.6310471000615507,434.81532880000304,None,None,0,,,,,,,,,,,,,,123,19,Female,2022-05-09_20h27.47.421,Parachute,2022.1.1,60.02199204366872,
negative,blue,1,None,k,,,,,,,,,0,95,95,95,,,,,,,,,,,,,,,,,,,,,,,,,,,,,,,,,,,,,main,k,k,1,0.5678591000614688,436.4488491999218,None,None,0,,,,,,,,,,,,,,123,19,Female,2022-05-09_20h27.47.421,Parachute,2022.1.1,60.02199204366872,
negative,red,1,None,None,,,,,,,,,0,96,96,96,,,,,,,,,,,,,,,,,,,,,,,,,,,,,,,,,,,,,main,None,None,1,1.5082352000754327,438.0178647999419,None,None,1,,,,,,,,,,,,,,123,19,Female,2022-05-09_20h27.47.421,Parachute,2022.1.1,60.02199204366872,
positive,yellow,1,None,k,,,,,,,,,0,97,97,97,,,,,,,,,,,,,,,,,,,,,,,,,,,,,,,,,,,,,main,k,k,1,0.6872568000108004,440.5291307999287,None,None,0,,,,,,,,,,,,,,123,19,Female,2022-05-09_20h27.47.421,Parachute,2022.1.1,60.02199204366872,
negative,yellow,1,k,None,,,,,,,,,0,98,98,98,,,,,,,,,,,,,,,,,,,,,,,,,,,,,,,,,,,,,main,None,None,1,1.4935359999071807,442.2156231999397,None,None,1,,,,,,,,,,,,,,123,19,Female,2022-05-09_20h27.47.421,Parachute,2022.1.1,60.02199204366872,
positive,red,1,None,None,,,,,,,,,0,99,99,99,,,,,,,,,,,,,,,,,,,,,,,,,,,,,,,,,,,,,main,None,None,1,1.4985772999934852,444.7131899999222,None,None,1,,,,,,,,,,,,,,123,19,Female,2022-05-09_20h27.47.421,Parachute,2022.1.1,60.02199204366872,
positive,blue,1,k,None,,,,,,,,,0,100,100,100,,,,,,,,,,,,,,,,,,,,,,,,,,,,,,,,,,,,,main,None,None,1,1.4997561000054702,447.2132502000313,None,None,1,,,,,,,,,,,,,,123,19,Female,2022-05-09_20h27.47.421,Parachute,2022.1.1,60.02199204366872,
negative,yellow,1,k,None,,,,,,,,,0,101,101,101,,,,,,,,,,,,,,,,,,,,,,,,,,,,,,,,,,,,,main,None,None,1,1.4967072999570519,449.71560320002027,None,None,1,,,,,,,,,,,,,,123,19,Female,2022-05-09_20h27.47.421,Parachute,2022.1.1,60.02199204366872,
negative,blue,2,None,k,,,,,,,,,0,102,102,102,,,,,,,,,,,,,,,,,,,,,,,,,,,,,,,,,,,,,main,k,k,1,1.2817362999776378,452.21312470000703,None,None,0,,,,,,,,,,,,,,123,19,Female,2022-05-09_20h27.47.421,Parachute,2022.1.1,60.02199204366872,
negative,yellow,2,k,None,,,,,,,,,0,103,103,103,,,,,,,,,,,,,,,,,,,,,,,,,,,,,,,,,,,,,main,None,None,1,1.4992874000454322,454.49664389993995,None,None,1,,,,,,,,,,,,,,123,19,Female,2022-05-09_20h27.47.421,Parachute,2022.1.1,60.02199204366872,
positive,yellow,2,None,k,,,,,,,,,0,104,104,104,,,,,,,,,,,,,,,,,,,,,,,,,,,,,,,,,,,,,main,k,k,1,0.6621459999587387,456.9971554999938,None,None,0,,,,,,,,,,,,,,123,19,Female,2022-05-09_20h27.47.421,Parachute,2022.1.1,60.02199204366872,
positive,blue,1,k,None,,,,,,,,,0,105,105,105,,,,,,,,,,,,,,,,,,,,,,,,,,,,,,,,,,,,,main,None,None,1,1.501624200027436,458.66091440001037,None,None,1,,,,,,,,,,,,,,123,19,Female,2022-05-09_20h27.47.421,Parachute,2022.1.1,60.02199204366872,
positive,blue,2,k,None,,,,,,,,,0,106,106,106,,,,,,,,,,,,,,,,,,,,,,,,,,,,,,,,,,,,,main,None,k,0,0.5367538999998942,461.16444610001054,None,None,1,,,,,,,,,,,,,,123,19,Female,2022-05-09_20h27.47.421,Parachute,2022.1.1,60.02199204366872,
negative,blue,1,None,k,,,,,,,,,0,107,107,107,,,,,,,,,,,,,,,,,,,,,,,,,,,,,,,,,,,,,main,k,k,1,0.7409848000388592,463.71088509995025,None,None,0,,,,,,,,,,,,,,123,19,Female,2022-05-09_20h27.47.421,Parachute,2022.1.1,60.02199204366872,
positive,yellow,2,None,k,,,,,,,,,0,108,108,108,,,,,,,,,,,,,,,,,,,,,,,,,,,,,,,,,,,,,main,k,k,1,0.6640949000138789,465.45166169991717,None,None,0,,,,,,,,,,,,,,123,19,Female,2022-05-09_20h27.47.421,Parachute,2022.1.1,60.02199204366872,
negative,yellow,1,k,None,,,,,,,,,0,109,109,109,,,,,,,,,,,,,,,,,,,,,,,,,,,,,,,,,,,,,main,None,None,1,1.4927602999377996,467.11680439999327,None,None,1,,,,,,,,,,,,,,123,19,Female,2022-05-09_20h27.47.421,Parachute,2022.1.1,60.02199204366872,
negative,blue,2,None,k,,,,,,,,,0,110,110,110,,,,,,,,,,,,,,,,,,,,,,,,,,,,,,,,,,,,,main,k,k,1,0.7551466999575496,469.61314029991627,None,None,0,,,,,,,,,,,,,,123,19,Female,2022-05-09_20h27.47.421,Parachute,2022.1.1,60.02199204366872,
positive,blue,2,k,None,,,,,,,,,0,111,111,111,,,,,,,,,,,,,,,,,,,,,,,,,,,,,,,,,,,,,main,None,None,1,1.5079376999055967,471.36887270002626,None,None,1,,,,,,,,,,,,,,123,19,Female,2022-05-09_20h27.47.421,Parachute,2022.1.1,60.02199204366872,
negative,blue,1,None,k,,,,,,,,,0,112,112,112,,,,,,,,,,,,,,,,,,,,,,,,,,,,,,,,,,,,,main,k,k,1,0.6385507000377402,473.881135399919,None,None,0,,,,,,,,,,,,,,123,19,Female,2022-05-09_20h27.47.421,Parachute,2022.1.1,60.02199204366872,
positive,yellow,1,None,k,,,,,,,,,0,113,113,113,,,,,,,,,,,,,,,,,,,,,,,,,,,,,,,,,,,,,main,k,k,1,0.5634461999870837,475.5178673999617,None,None,0,,,,,,,,,,,,,,123,19,Female,2022-05-09_20h27.47.421,Parachute,2022.1.1,60.02199204366872,
negative,red,1,None,None,,,,,,,,,0,114,114,114,,,,,,,,,,,,,,,,,,,,,,,,,,,,,,,,,,,,,main,None,None,1,1.4943133000051603,477.08309889992233,None,None,1,,,,,,,,,,,,,,123,19,Female,2022-05-09_20h27.47.421,Parachute,2022.1.1,60.02199204366872,
positive,red,1,None,None,,,,,,,,,0,115,115,115,,,,,,,,,,,,,,,,,,,,,,,,,,,,,,,,,,,,,main,None,None,1,1.4979326999746263,479.5813468999695,None,None,1,,,,,,,,,,,,,,123,19,Female,2022-05-09_20h27.47.421,Parachute,2022.1.1,60.02199204366872,
negative,red,2,None,None,,,,,,,,,0,116,116,116,,,,,,,,,,,,,,,,,,,,,,,,,,,,,,,,,,,,,main,None,None,1,1.4986850999994203,482.0794998999918,None,None,1,,,,,,,,,,,,,,123,19,Female,2022-05-09_20h27.47.421,Parachute,2022.1.1,60.02199204366872,
negative,yellow,2,k,None,,,,,,,,,0,117,117,117,,,,,,,,,,,,,,,,,,,,,,,,,,,,,,,,,,,,,main,None,None,1,1.498842400033027,484.58107559999917,None,None,1,,,,,,,,,,,,,,123,19,Female,2022-05-09_20h27.47.421,Parachute,2022.1.1,60.02199204366872,
positive,yellow,1,None,k,,,,,,,,,0,118,118,118,,,,,,,,,,,,,,,,,,,,,,,,,,,,,,,,,,,,,main,k,k,1,0.5026466000126675,487.08047719998285,None,None,0,,,,,,,,,,,,,,123,19,Female,2022-05-09_20h27.47.421,Parachute,2022.1.1,60.02199204366872,
positive,red,2,None,None,,,,,,,,,0,119,119,119,,,,,,,,,,,,,,,,,,,,,,,,,,,,,,,,,,,,,main,None,None,1,1.494493699981831,488.58337130001746,None,None,1,,,,,,,,,,,,,,123,19,Female,2022-05-09_20h27.47.421,Parachute,2022.1.1,60.02199204366872,
positive,blue,2,k,None,,,,,,,,,0,120,120,120,,,,,,,,,,,,,,,,,,,,,,,,,,,,,,,,,,,,,main,None,None,1,1.4986517000943422,491.0812231999589,None,None,1,,,,,,,,,,,,,,123,19,Female,2022-05-09_20h27.47.421,Parachute,2022.1.1,60.02199204366872,
negative,red,1,None,None,,,,,,,,,0,121,121,121,,,,,,,,,,,,,,,,,,,,,,,,,,,,,,,,,,,,,main,None,None,1,1.4983822000212967,493.58253120002337,None,None,1,,,,,,,,,,,,,,123,19,Female,2022-05-09_20h27.47.421,Parachute,2022.1.1,60.02199204366872,
positive,yellow,2,None,k,,,,,,,,,0,122,122,122,,,,,,,,,,,,,,,,,,,,,,,,,,,,,,,,,,,,,main,k,k,1,0.6871951998909935,496.0809460999444,None,None,0,,,,,,,,,,,,,,123,19,Female,2022-05-09_20h27.47.421,Parachute,2022.1.1,60.02199204366872,
negative,red,2,None,None,,,,,,,,,0,123,123,123,,,,,,,,,,,,,,,,,,,,,,,,,,,,,,,,,,,,,main,None,None,1,1.4933983999071643,497.76780149992555,None,None,1,,,,,,,,,,,,,,123,19,Female,2022-05-09_20h27.47.421,Parachute,2022.1.1,60.02199204366872,
negative,yellow,2,k,None,,,,,,,,,0,124,124,124,,,,,,,,,,,,,,,,,,,,,,,,,,,,,,,,,,,,,main,None,None,1,1.4990075998939574,500.2644201000221,None,None,1,,,,,,,,,,,,,,123,19,Female,2022-05-09_20h27.47.421,Parachute,2022.1.1,60.02199204366872,
positive,red,1,None,None,,,,,,,,,0,125,125,125,,,,,,,,,,,,,,,,,,,,,,,,,,,,,,,,,,,,,main,None,None,1,1.4980259999865666,502.7659945000196,None,None,1,,,,,,,,,,,,,,123,19,Female,2022-05-09_20h27.47.421,Parachute,2022.1.1,60.02199204366872,
negative,blue,2,None,k,,,,,,,,,0,126,126,126,,,,,,,,,,,,,,,,,,,,,,,,,,,,,,,,,,,,,main,k,k,1,0.5872421000385657,505.2648740999866,None,None,0,,,,,,,,,,,,,,123,19,Female,2022-05-09_20h27.47.421,Parachute,2022.1.1,60.02199204366872,
negative,blue,1,None,k,,,,,,,,,0,127,127,127,,,,,,,,,,,,,,,,,,,,,,,,,,,,,,,,,,,,,main,k,k,1,0.6812551999464631,506.852122399956,None,None,0,,,,,,,,,,,,,,123,19,Female,2022-05-09_20h27.47.421,Parachute,2022.1.1,60.02199204366872,
negative,yellow,1,k,None,,,,,,,,,0,128,128,128,,,,,,,,,,,,,,,,,,,,,,,,,,,,,,,,,,,,,main,None,None,1,1.4933628999860957,508.53426969994325,None,None,1,,,,,,,,,,,,,,123,19,Female,2022-05-09_20h27.47.421,Parachute,2022.1.1,60.02199204366872,
negative,yellow,1,k,None,,,,,,,,,0,129,129,129,,,,,,,,,,,,,,,,,,,,,,,,,,,,,,,,,,,,,main,None,None,1,1.4983785999938846,511.031682599918,None,None,1,,,,,,,,,,,,,,123,19,Female,2022-05-09_20h27.47.421,Parachute,2022.1.1,60.02199204366872,
positive,blue,1,k,None,,,,,,,,,0,130,130,130,,,,,,,,,,,,,,,,,,,,,,,,,,,,,,,,,,,,,main,None,None,1,1.4986004999373108,513.5311199999414,None,None,1,,,,,,,,,,,,,,123,19,Female,2022-05-09_20h27.47.421,Parachute,2022.1.1,60.02199204366872,
negative,blue,1,None,k,,,,,,,,,0,131,131,131,,,,,,,,,,,,,,,,,,,,,,,,,,,,,,,,,,,,,main,k,k,1,0.6702680999878794,516.0311283000046,None,None,0,,,,,,,,,,,,,,123,19,Female,2022-05-09_20h27.47.421,Parachute,2022.1.1,60.02199204366872,
negative,blue,2,None,k,,,,,,,,,0,132,132,132,,,,,,,,,,,,,,,,,,,,,,,,,,,,,,,,,,,,,main,k,k,1,0.6317425000015646,517.7014577999944,None,None,0,,,,,,,,,,,,,,123,19,Female,2022-05-09_20h27.47.421,Parachute,2022.1.1,60.02199204366872,
positive,blue,2,k,None,,,,,,,,,0,133,133,133,,,,,,,,,,,,,,,,,,,,,,,,,,,,,,,,,,,,,main,None,None,1,1.4938079999992624,519.3341589999618,None,None,1,,,,,,,,,,,,,,123,19,Female,2022-05-09_20h27.47.421,Parachute,2022.1.1,60.02199204366872,
positive,red,2,None,None,,,,,,,,,0,134,134,134,,,,,,,,,,,,,,,,,,,,,,,,,,,,,,,,,,,,,main,None,None,1,1.4984935999382287,521.8314555999823,None,None,1,,,,,,,,,,,,,,123,19,Female,2022-05-09_20h27.47.421,Parachute,2022.1.1,60.02199204366872,
negative,yellow,2,k,None,,,,,,,,,0,135,135,135,,,,,,,,,,,,,,,,,,,,,,,,,,,,,,,,,,,,,main,None,None,1,1.4988577000331134,524.3311869999161,None,None,1,,,,,,,,,,,,,,123,19,Female,2022-05-09_20h27.47.421,Parachute,2022.1.1,60.02199204366872,
positive,yellow,2,None,k,,,,,,,,,0,136,136,136,,,,,,,,,,,,,,,,,,,,,,,,,,,,,,,,,,,,,main,k,k,1,0.5866672999691218,526.8330876999535,None,None,0,,,,,,,,,,,,,,123,19,Female,2022-05-09_20h27.47.421,Parachute,2022.1.1,60.02199204366872,
positive,blue,1,k,None,,,,,,,,,0,137,137,137,,,,,,,,,,,,,,,,,,,,,,,,,,,,,,,,,,,,,main,None,None,1,1.4936730000190437,528.4179827999324,None,None,1,,,,,,,,,,,,,,123,19,Female,2022-05-09_20h27.47.421,Parachute,2022.1.1,60.02199204366872,
positive,yellow,1,None,k,,,,,,,,,0,138,138,138,,,,,,,,,,,,,,,,,,,,,,,,,,,,,,,,,,,,,main,k,k,1,0.8697112000081688,530.9155432999833,None,None,0,,,,,,,,,,,,,,123,19,Female,2022-05-09_20h27.47.421,Parachute,2022.1.1,60.02199204366872,
positive,yellow,1,None,k,,,,,,,,,0,139,139,139,,,,,,,,,,,,,,,,,,,,,,,,,,,,,,,,,,,,,main,k,k,1,0.5979732000268996,532.7846027999185,None,None,0,,,,,,,,,,,,,,123,19,Female,2022-05-09_20h27.47.421,Parachute,2022.1.1,60.02199204366872,
positive,yellow,1,None,k,,,,,,,,,0,140,140,140,,,,,,,,,,,,,,,,,,,,,,,,,,,,,,,,,,,,,main,k,k,1,0.6164386000018567,534.3843688999768,None,None,0,,,,,,,,,,,,,,123,19,Female,2022-05-09_20h27.47.421,Parachute,2022.1.1,60.02199204366872,
positive,blue,1,k,None,,,,,,,,,0,141,141,141,,,,,,,,,,,,,,,,,,,,,,,,,,,,,,,,,,,,,main,None,None,1,1.4932154000271112,536.002373999916,None,None,1,,,,,,,,,,,,,,123,19,Female,2022-05-09_20h27.47.421,Parachute,2022.1.1,60.02199204366872,
positive,blue,2,k,None,,,,,,,,,0,142,142,142,,,,,,,,,,,,,,,,,,,,,,,,,,,,,,,,,,,,,main,None,None,1,1.498754100059159,538.4982382999733,None,None,1,,,,,,,,,,,,,,123,19,Female,2022-05-09_20h27.47.421,Parachute,2022.1.1,60.02199204366872,
positive,yellow,2,None,k,,,,,,,,,0,143,143,143,,,,,,,,,,,,,,,,,,,,,,,,,,,,,,,,,,,,,main,k,k,1,0.6540298999752849,540.9991349999327,None,None,0,,,,,,,,,,,,,,123,19,Female,2022-05-09_20h27.47.421,Parachute,2022.1.1,60.02199204366872,
negative,yellow,2,k,None,,,,,,,,,0,144,144,144,,,,,,,,,,,,,,,,,,,,,,,,,,,,,,,,,,,,,main,None,None,1,1.4928738999878988,542.6521258000284,None,None,1,,,,,,,,,,,,,,123,19,Female,2022-05-09_20h27.47.421,Parachute,2022.1.1,60.02199204366872,
negative,blue,2,None,k,,,,,,,,,0,145,145,145,,,,,,,,,,,,,,,,,,,,,,,,,,,,,,,,,,,,,main,k,k,1,0.533893599989824,545.1488823000109,None,None,0,,,,,,,,,,,,,,123,19,Female,2022-05-09_20h27.47.421,Parachute,2022.1.1,60.02199204366872,
negative,red,1,None,None,,,,,,,,,0,146,146,146,,,,,,,,,,,,,,,,,,,,,,,,,,,,,,,,,,,,,main,None,None,1,1.4964450999395922,546.6844076999696,None,None,1,,,,,,,,,,,,,,123,19,Female,2022-05-09_20h27.47.421,Parachute,2022.1.1,60.02199204366872,
positive,blue,1,k,None,,,,,,,,,0,147,147,147,,,,,,,,,,,,,,,,,,,,,,,,,,,,,,,,,,,,,main,None,None,1,1.4986246000044048,549.181997800013,None,None,1,,,,,,,,,,,,,,123,19,Female,2022-05-09_20h27.47.421,Parachute,2022.1.1,60.02199204366872,
positive,yellow,1,None,k,,,,,,,,,0,148,148,148,,,,,,,,,,,,,,,,,,,,,,,,,,,,,,,,,,,,,main,k,k,1,0.5855160000501201,551.6816052999347,None,None,0,,,,,,,,,,,,,,123,19,Female,2022-05-09_20h27.47.421,Parachute,2022.1.1,60.02199204366872,
negative,red,2,None,None,,,,,,,,,0,149,149,149,,,,,,,,,,,,,,,,,,,,,,,,,,,,,,,,,,,,,main,None,None,1,1.4957701999228448,553.2763688999694,None,None,1,,,,,,,,,,,,,,123,19,Female,2022-05-09_20h27.47.421,Parachute,2022.1.1,60.02199204366872,
negative,blue,1,None,k,,,,,,,,,0,150,150,150,,,,,,,,,,,,,,,,,,,,,,,,,,,,,,,,,,,,,main,k,k,1,0.502741500036791,555.7666091999272,None,None,0,,,,,,,,,,,,,,123,19,Female,2022-05-09_20h27.47.421,Parachute,2022.1.1,60.02199204366872,
negative,yellow,2,k,None,,,,,,,,,0,151,151,151,,,,,,,,,,,,,,,,,,,,,,,,,,,,,,,,,,,,,main,None,None,1,1.4932404999854043,557.2685807999223,None,None,1,,,,,,,,,,,,,,123,19,Female,2022-05-09_20h27.47.421,Parachute,2022.1.1,60.02199204366872,
negative,blue,2,None,k,,,,,,,,,0,152,152,152,,,,,,,,,,,,,,,,,,,,,,,,,,,,,,,,,,,,,main,k,k,1,0.6538299999665469,559.7654530999716,None,None,0,,,,,,,,,,,,,,123,19,Female,2022-05-09_20h27.47.421,Parachute,2022.1.1,60.02199204366872,
negative,yellow,1,k,None,,,,,,,,,0,153,153,153,,,,,,,,,,,,,,,,,,,,,,,,,,,,,,,,,,,,,main,None,None,1,1.493450100068003,561.4183341999305,None,None,1,,,,,,,,,,,,,,123,19,Female,2022-05-09_20h27.47.421,Parachute,2022.1.1,60.02199204366872,
negative,blue,1,None,k,,,,,,,,,0,154,154,154,,,,,,,,,,,,,,,,,,,,,,,,,,,,,,,,,,,,,main,k,k,1,0.6374480000231415,563.915613799938,None,None,0,,,,,,,,,,,,,,123,19,Female,2022-05-09_20h27.47.421,Parachute,2022.1.1,60.02199204366872,
positive,yellow,2,None,k,,,,,,,,,0,155,155,155,,,,,,,,,,,,,,,,,,,,,,,,,,,,,,,,,,,,,main,k,k,1,0.6648256999906152,565.5524912999244,None,None,0,,,,,,,,,,,,,,123,19,Female,2022-05-09_20h27.47.421,Parachute,2022.1.1,60.02199204366872,
positive,red,2,None,None,,,,,,,,,0,156,156,156,,,,,,,,,,,,,,,,,,,,,,,,,,,,,,,,,,,,,main,None,None,1,1.4939013000112027,567.2183705000207,None,None,1,,,,,,,,,,,,,,123,19,Female,2022-05-09_20h27.47.421,Parachute,2022.1.1,60.02199204366872,
positive,red,1,None,None,,,,,,,,,0,157,157,157,,,,,,,,,,,,,,,,,,,,,,,,,,,,,,,,,,,,,main,None,None,1,1.4976505000377074,569.7160557999741,None,None,1,,,,,,,,,,,,,,123,19,Female,2022-05-09_20h27.47.421,Parachute,2022.1.1,60.02199204366872,
positive,blue,2,k,None,,,,,,,,,0,158,158,158,,,,,,,,,,,,,,,,,,,,,,,,,,,,,,,,,,,,,main,None,None,1,1.4990538000129163,572.2154946000082,None,None,1,,,,,,,,,,,,,,123,19,Female,2022-05-09_20h27.47.421,Parachute,2022.1.1,60.02199204366872,
negative,yellow,1,k,None,,,,,,,,,0,159,159,159,,,,,,,,,,,,,,,,,,,,,,,,,,,,,,,,,,,,,main,None,None,1,1.4986753999255598,574.7159907999448,None,None,1,,,,,,,,,,,,,,123,19,Female,2022-05-09_20h27.47.421,Parachute,2022.1.1,60.02199204366872,
negative,red,2,None,None,,,,,,,,,0,160,160,160,,,,,,,,,,,,,,,,,,,,,,,,,,,,,,,,,,,,,main,None,None,1,1.4985895999707282,577.215533999959,None,None,1,,,,,,,,,,,,,,123,19,Female,2022-05-09_20h27.47.421,Parachute,2022.1.1,60.02199204366872,
negative,blue,1,None,k,,,,,,,,,0,161,161,161,,,,,,,,,,,,,,,,,,,,,,,,,,,,,,,,,,,,,main,k,k,1,0.720505400095135,579.7164572000038,None,None,0,,,,,,,,,,,,,,123,19,Female,2022-05-09_20h27.47.421,Parachute,2022.1.1,60.02199204366872,
negative,blue,1,None,k,,,,,,,,,0,162,162,162,,,,,,,,,,,,,,,,,,,,,,,,,,,,,,,,,,,,,main,k,k,1,1.215298100025393,581.4361341999611,None,None,0,,,,,,,,,,,,,,123,19,Female,2022-05-09_20h27.47.421,Parachute,2022.1.1,60.02199204366872,
negative,yellow,1,k,None,,,,,,,,,0,163,163,163,,,,,,,,,,,,,,,,,,,,,,,,,,,,,,,,,,,,,main,None,None,1,1.4930435999995098,583.6525307999691,None,None,1,,,,,,,,,,,,,,123,19,Female,2022-05-09_20h27.47.421,Parachute,2022.1.1,60.02199204366872,
negative,yellow,1,k,None,,,,,,,,,0,164,164,164,,,,,,,,,,,,,,,,,,,,,,,,,,,,,,,,,,,,,main,None,None,1,1.4990429999306798,586.149920099997,None,None,1,,,,,,,,,,,,,,123,19,Female,2022-05-09_20h27.47.421,Parachute,2022.1.1,60.02199204366872,
positive,yellow,1,None,k,,,,,,,,,0,165,165,165,,,,,,,,,,,,,,,,,,,,,,,,,,,,,,,,,,,,,main,k,k,1,0.6869673000182956,588.6504775999347,None,None,0,,,,,,,,,,,,,,123,19,Female,2022-05-09_20h27.47.421,Parachute,2022.1.1,60.02199204366872,
negative,red,1,None,None,,,,,,,,,0,166,166,166,,,,,,,,,,,,,,,,,,,,,,,,,,,,,,,,,,,,,main,None,None,1,1.493129099952057,590.3360252999701,None,None,1,,,,,,,,,,,,,,123,19,Female,2022-05-09_20h27.47.421,Parachute,2022.1.1,60.02199204366872,
negative,yellow,2,k,None,,,,,,,,,0,167,167,167,,,,,,,,,,,,,,,,,,,,,,,,,,,,,,,,,,,,,main,None,None,1,1.498961400007829,592.8331535999896,None,None,1,,,,,,,,,,,,,,123,19,Female,2022-05-09_20h27.47.421,Parachute,2022.1.1,60.02199204366872,
positive,blue,2,k,None,,,,,,,,,0,168,168,168,,,,,,,,,,,,,,,,,,,,,,,,,,,,,,,,,,,,,main,None,None,1,1.4977507999865338,595.3338165999157,None,None,1,,,,,,,,,,,,,,123,19,Female,2022-05-09_20h27.47.421,Parachute,2022.1.1,60.02199204366872,
positive,red,2,None,None,,,,,,,,,0,169,169,169,,,,,,,,,,,,,,,,,,,,,,,,,,,,,,,,,,,,,main,None,None,1,1.4990325000835583,597.8331751999212,None,None,1,,,,,,,,,,,,,,123,19,Female,2022-05-09_20h27.47.421,Parachute,2022.1.1,60.02199204366872,
positive,red,1,None,None,,,,,,,,,0,170,170,170,,,,,,,,,,,,,,,,,,,,,,,,,,,,,,,,,,,,,main,None,None,1,1.4985243000555784,600.3336980999447,None,None,1,,,,,,,,,,,,,,123,19,Female,2022-05-09_20h27.47.421,Parachute,2022.1.1,60.02199204366872,
negative,blue,2,None,k,,,,,,,,,0,171,171,171,,,,,,,,,,,,,,,,,,,,,,,,,,,,,,,,,,,,,main,k,k,1,0.6858855000464246,602.8333788999589,None,None,0,,,,,,,,,,,,,,123,19,Female,2022-05-09_20h27.47.421,Parachute,2022.1.1,60.02199204366872,
positive,blue,2,k,None,,,,,,,,,0,172,172,172,,,,,,,,,,,,,,,,,,,,,,,,,,,,,,,,,,,,,main,None,None,1,1.4943869999842718,604.5193333999487,None,None,1,,,,,,,,,,,,,,123,19,Female,2022-05-09_20h27.47.421,Parachute,2022.1.1,60.02199204366872,
negative,yellow,2,k,None,,,,,,,,,0,173,173,173,,,,,,,,,,,,,,,,,,,,,,,,,,,,,,,,,,,,,main,None,None,1,1.4984862999990582,607.0167366999667,None,None,1,,,,,,,,,,,,,,123,19,Female,2022-05-09_20h27.47.421,Parachute,2022.1.1,60.02199204366872,
positive,yellow,2,None,k,,,,,,,,,0,174,174,174,,,,,,,,,,,,,,,,,,,,,,,,,,,,,,,,,,,,,main,k,k,1,0.5534716000547633,609.5160358999856,None,None,0,,,,,,,,,,,,,,123,19,Female,2022-05-09_20h27.47.421,Parachute,2022.1.1,60.02199204366872,
negative,blue,2,None,k,,,,,,,,,0,175,175,175,,,,,,,,,,,,,,,,,,,,,,,,,,,,,,,,,,,,,main,k,k,1,0.6322954000206664,611.0690584999975,None,None,0,,,,,,,,,,,,,,123,19,Female,2022-05-09_20h27.47.421,Parachute,2022.1.1,60.02199204366872,
positive,blue,1,k,None,,,,,,,,,0,176,176,176,,,,,,,,,,,,,,,,,,,,,,,,,,,,,,,,,,,,,main,None,None,1,1.4938298999331892,612.7021555999527,None,None,1,,,,,,,,,,,,,,123,19,Female,2022-05-09_20h27.47.421,Parachute,2022.1.1,60.02199204366872,
positive,yellow,1,None,k,,,,,,,,,0,177,177,177,,,,,,,,,,,,,,,,,,,,,,,,,,,,,,,,,,,,,main,k,k,1,0.7864852999337018,615.2010391999502,None,None,0,,,,,,,,,,,,,,123,19,Female,2022-05-09_20h27.47.421,Parachute,2022.1.1,60.02199204366872,
positive,blue,1,k,None,,,,,,,,,0,178,178,178,,,,,,,,,,,,,,,,,,,,,,,,,,,,,,,,,,,,,main,None,None,1,1.493628800031729,616.9861479999963,None,None,1,,,,,,,,,,,,,,123,19,Female,2022-05-09_20h27.47.421,Parachute,2022.1.1,60.02199204366872,
positive,yellow,2,None,k,,,,,,,,,0,179,179,179,,,,,,,,,,,,,,,,,,,,,,,,,,,,,,,,,,,,,main,k,k,1,0.5851516999537125,619.4844338999828,None,None,0,,,,,,,,,,,,,,123,19,Female,2022-05-09_20h27.47.421,Parachute,2022.1.1,60.02199204366872,
positive,blue,1,k,None,,,,,,,,,0,180,180,180,,,,,,,,,,,,,,,,,,,,,,,,,,,,,,,,,,,,,main,None,None,1,1.4950456999940798,621.0696056999732,None,None,1,,,,,,,,,,,,,,123,19,Female,2022-05-09_20h27.47.421,Parachute,2022.1.1,60.02199204366872,
negative,red,1,None,None,,,,,,,,,0,181,181,181,,,,,,,,,,,,,,,,,,,,,,,,,,,,,,,,,,,,,main,None,None,1,1.4984437000239268,623.5670841999818,None,None,1,,,,,,,,,,,,,,123,19,Female,2022-05-09_20h27.47.421,Parachute,2022.1.1,60.02199204366872,
negative,blue,1,None,k,,,,,,,,,0,182,182,182,,,,,,,,,,,,,,,,,,,,,,,,,,,,,,,,,,,,,main,k,k,1,0.8373575999867171,626.0669050000142,None,None,0,,,,,,,,,,,,,,123,19,Female,2022-05-09_20h27.47.421,Parachute,2022.1.1,60.02199204366872,
negative,yellow,2,k,None,,,,,,,,,0,183,183,183,,,,,,,,,,,,,,,,,,,,,,,,,,,,,,,,,,,,,main,None,None,1,1.4935155999846756,627.9038694999181,None,None,1,,,,,,,,,,,,,,123,19,Female,2022-05-09_20h27.47.421,Parachute,2022.1.1,60.02199204366872,
positive,yellow,2,None,k,,,,,,,,,0,184,184,184,,,,,,,,,,,,,,,,,,,,,,,,,,,,,,,,,,,,,main,k,k,1,0.6023763000266626,630.4012037999928,None,None,0,,,,,,,,,,,,,,123,19,Female,2022-05-09_20h27.47.421,Parachute,2022.1.1,60.02199204366872,
positive,yellow,1,None,k,,,,,,,,,0,185,185,185,,,,,,,,,,,,,,,,,,,,,,,,,,,,,,,,,,,,,main,k,k,1,0.6828090000199154,632.0031119999476,None,None,0,,,,,,,,,,,,,,123,19,Female,2022-05-09_20h27.47.421,Parachute,2022.1.1,60.02199204366872,
positive,red,2,None,None,,,,,,,,,0,186,186,186,,,,,,,,,,,,,,,,,,,,,,,,,,,,,,,,,,,,,main,None,None,1,1.4938974999822676,633.6865195999853,None,None,1,,,,,,,,,,,,,,123,19,Female,2022-05-09_20h27.47.421,Parachute,2022.1.1,60.02199204366872,
positive,blue,1,k,None,,,,,,,,,0,187,187,187,,,,,,,,,,,,,,,,,,,,,,,,,,,,,,,,,,,,,main,None,None,1,1.4984661000780761,636.184244300006,None,None,1,,,,,,,,,,,,,,123,19,Female,2022-05-09_20h27.47.421,Parachute,2022.1.1,60.02199204366872,
negative,yellow,1,k,None,,,,,,,,,0,188,188,188,,,,,,,,,,,,,,,,,,,,,,,,,,,,,,,,,,,,,main,None,None,1,1.498650100082159,638.684956699959,None,None,1,,,,,,,,,,,,,,123,19,Female,2022-05-09_20h27.47.421,Parachute,2022.1.1,60.02199204366872,
positive,yellow,2,None,k,,,,,,,,,0,189,189,189,,,,,,,,,,,,,,,,,,,,,,,,,,,,,,,,,,,,,main,k,k,1,0.6210838999832049,641.1848518999759,None,None,0,,,,,,,,,,,,,,123,19,Female,2022-05-09_20h27.47.421,Parachute,2022.1.1,60.02199204366872,
negative,yellow,2,k,None,,,,,,,,,0,190,190,190,,,,,,,,,,,,,,,,,,,,,,,,,,,,,,,,,,,,,main,None,None,1,1.5091363000683486,642.8049995999318,None,None,1,,,,,,,,,,,,,,123,19,Female,2022-05-09_20h27.47.421,Parachute,2022.1.1,60.02199204366872,
negative,yellow,1,k,None,,,,,,,,,0,191,191,191,,,,,,,,,,,,,,,,,,,,,,,,,,,,,,,,,,,,,main,None,None,1,1.4985543000511825,645.3180199000053,None,None,1,,,,,,,,,,,,,,123,19,Female,2022-05-09_20h27.47.421,Parachute,2022.1.1,60.02199204366872,
positive,blue,2,k,None,,,,,,,,,0,192,192,192,,,,,,,,,,,,,,,,,,,,,,,,,,,,,,,,,,,,,main,None,None,1,1.4987169000087306,647.8178536000196,None,None,1,,,,,,,,,,,,,,123,19,Female,2022-05-09_20h27.47.421,Parachute,2022.1.1,60.02199204366872,
positive,yellow,1,None,k,,,,,,,,,0,193,193,193,,,,,,,,,,,,,,,,,,,,,,,,,,,,,,,,,,,,,main,k,k,1,0.5369545000139624,650.3178546000272,None,None,0,,,,,,,,,,,,,,123,19,Female,2022-05-09_20h27.47.421,Parachute,2022.1.1,60.02199204366872,
negative,red,2,None,None,,,,,,,,,0,194,194,194,,,,,,,,,,,,,,,,,,,,,,,,,,,,,,,,,,,,,main,None,None,1,1.4993288000114262,651.8544428999303,None,None,1,,,,,,,,,,,,,,123,19,Female,2022-05-09_20h27.47.421,Parachute,2022.1.1,60.02199204366872,
positive,red,1,None,None,,,,,,,,,0,195,195,195,,,,,,,,,,,,,,,,,,,,,,,,,,,,,,,,,,,,,main,None,None,1,1.509119699941948,654.3565725999651,None,None,1,,,,,,,,,,,,,,123,19,Female,2022-05-09_20h27.47.421,Parachute,2022.1.1,60.02199204366872,
negative,blue,1,None,k,,,,,,,,,0,196,196,196,,,,,,,,,,,,,,,,,,,,,,,,,,,,,,,,,,,,,main,k,k,1,0.6371796999592334,656.8680775000248,None,None,0,,,,,,,,,,,,,,123,19,Female,2022-05-09_20h27.47.421,Parachute,2022.1.1,60.02199204366872,
positive,blue,2,k,None,,,,,,,,,0,197,197,197,,,,,,,,,,,,,,,,,,,,,,,,,,,,,,,,,,,,,main,None,None,1,1.4932512999512255,658.5040555000305,None,None,1,,,,,,,,,,,,,,123,19,Female,2022-05-09_20h27.47.421,Parachute,2022.1.1,60.02199204366872,
negative,blue,2,None,k,,,,,,,,,0,198,198,198,,,,,,,,,,,,,,,,,,,,,,,,,,,,,,,,,,,,,main,k,k,1,0.6350372999440879,661.0011864999542,None,None,0,,,,,,,,,,,,,,123,19,Female,2022-05-09_20h27.47.421,Parachute,2022.1.1,60.02199204366872,
negative,blue,2,None,k,,,,,,,,,0,199,199,199,,,,,,,,,,,,,,,,,,,,,,,,,,,,,,,,,,,,,main,k,k,1,0.933183699962683,662.6372318000067,None,None,0,,,,,,,,,,,,,,123,19,Female,2022-05-09_20h27.47.421,Parachute,2022.1.1,60.02199204366872,
positive,blue,2,k,None,,,,,,,,,0,200,200,200,,,,,,,,,,,,,,,,,,,,,,,,,,,,,,,,,,,,,main,None,None,1,1.5109138999832794,664.5719923999859,None,None,1,,,,,,,,,,,,,,123,19,Female,2022-05-09_20h27.47.421,Parachute,2022.1.1,60.02199204366872,
positive,blue,2,k,None,,,,,,,,,0,201,201,201,,,,,,,,,,,,,,,,,,,,,,,,,,,,,,,,,,,,,main,None,None,1,1.4989903999958187,667.0859681000002,None,None,1,,,,,,,,,,,,,,123,19,Female,2022-05-09_20h27.47.421,Parachute,2022.1.1,60.02199204366872,
negative,yellow,2,k,None,,,,,,,,,0,202,202,202,,,,,,,,,,,,,,,,,,,,,,,,,,,,,,,,,,,,,main,None,None,1,1.4982211999595165,669.5874480999773,None,None,1,,,,,,,,,,,,,,123,19,Female,2022-05-09_20h27.47.421,Parachute,2022.1.1,60.02199204366872,
positive,red,1,None,None,,,,,,,,,0,203,203,203,,,,,,,,,,,,,,,,,,,,,,,,,,,,,,,,,,,,,main,None,None,1,1.4987391999457031,672.0867498000152,None,None,1,,,,,,,,,,,,,,123,19,Female,2022-05-09_20h27.47.421,Parachute,2022.1.1,60.02199204366872,
negative,blue,2,None,k,,,,,,,,,0,204,204,204,,,,,,,,,,,,,,,,,,,,,,,,,,,,,,,,,,,,,main,k,k,1,0.6344355000182986,674.5873279999942,None,None,0,,,,,,,,,,,,,,123,19,Female,2022-05-09_20h27.47.421,Parachute,2022.1.1,60.02199204366872,
negative,red,1,None,None,,,,,,,,,0,205,205,205,,,,,,,,,,,,,,,,,,,,,,,,,,,,,,,,,,,,,main,None,None,1,1.4944647999946028,676.2204487000126,None,None,1,,,,,,,,,,,,,,123,19,Female,2022-05-09_20h27.47.421,Parachute,2022.1.1,60.02199204366872,
negative,blue,2,None,k,,,,,,,,,0,206,206,206,,,,,,,,,,,,,,,,,,,,,,,,,,,,,,,,,,,,,main,k,k,1,0.6541232001036406,678.7186940999236,None,None,0,,,,,,,,,,,,,,123,19,Female,2022-05-09_20h27.47.421,Parachute,2022.1.1,60.02199204366872,
negative,yellow,2,k,None,,,,,,,,,0,207,207,207,,,,,,,,,,,,,,,,,,,,,,,,,,,,,,,,,,,,,main,None,None,1,1.4931808999972418,680.371682500001,None,None,1,,,,,,,,,,,,,,123,19,Female,2022-05-09_20h27.47.421,Parachute,2022.1.1,60.02199204366872,
positive,yellow,2,None,k,,,,,,,,,0,208,208,208,,,,,,,,,,,,,,,,,,,,,,,,,,,,,,,,,,,,,main,k,k,1,0.5534368000226095,682.8686391999945,None,None,0,,,,,,,,,,,,,,123,19,Female,2022-05-09_20h27.47.421,Parachute,2022.1.1,60.02199204366872,
negative,yellow,1,k,None,,,,,,,,,0,209,209,209,,,,,,,,,,,,,,,,,,,,,,,,,,,,,,,,,,,,,main,None,None,1,1.4938695000018924,684.4210109999403,None,None,1,,,,,,,,,,,,,,123,19,Female,2022-05-09_20h27.47.421,Parachute,2022.1.1,60.02199204366872,
negative,red,2,None,None,,,,,,,,,0,210,210,210,,,,,,,,,,,,,,,,,,,,,,,,,,,,,,,,,,,,,main,None,None,1,1.498079500044696,686.919215300004,None,None,1,,,,,,,,,,,,,,123,19,Female,2022-05-09_20h27.47.421,Parachute,2022.1.1,60.02199204366872,
negative,blue,1,None,k,,,,,,,,,0,211,211,211,,,,,,,,,,,,,,,,,,,,,,,,,,,,,,,,,,,,,main,k,k,1,0.5537724000168964,689.4183690999635,None,None,0,,,,,,,,,,,,,,123,19,Female,2022-05-09_20h27.47.421,Parachute,2022.1.1,60.02199204366872,
negative,yellow,1,k,None,,,,,,,,,0,212,212,212,,,,,,,,,,,,,,,,,,,,,,,,,,,,,,,,,,,,,main,None,None,1,1.4930842999601737,690.9717222999316,None,None,1,,,,,,,,,,,,,,123,19,Female,2022-05-09_20h27.47.421,Parachute,2022.1.1,60.02199204366872,
positive,blue,1,k,None,,,,,,,,,0,213,213,213,,,,,,,,,,,,,,,,,,,,,,,,,,,,,,,,,,,,,main,None,None,1,1.4987870000768453,693.4686797999311,None,None,1,,,,,,,,,,,,,,123,19,Female,2022-05-09_20h27.47.421,Parachute,2022.1.1,60.02199204366872,
positive,blue,1,k,None,,,,,,,,,0,214,214,214,,,,,,,,,,,,,,,,,,,,,,,,,,,,,,,,,,,,,main,None,None,1,1.498436199966818,695.968649999937,None,None,1,,,,,,,,,,,,,,123,19,Female,2022-05-09_20h27.47.421,Parachute,2022.1.1,60.02199204366872,
positive,yellow,1,None,k,,,,,,,,,0,215,215,215,,,,,,,,,,,,,,,,,,,,,,,,,,,,,,,,,,,,,main,k,k,1,0.6205767999636009,698.4681491999654,None,None,0,,,,,,,,,,,,,,123,19,Female,2022-05-09_20h27.47.421,Parachute,2022.1.1,60.02199204366872,
positive,yellow,1,None,k,,,,,,,,,0,216,216,216,,,,,,,,,,,,,,,,,,,,,,,,,,,,,,,,,,,,,main,k,k,1,0.5822942999657243,700.0889852999244,None,None,0,,,,,,,,,,,,,,123,19,Female,2022-05-09_20h27.47.421,Parachute,2022.1.1,60.02199204366872,
positive,yellow,2,None,k,,,,,,,,,0,217,217,217,,,,,,,,,,,,,,,,,,,,,,,,,,,,,,,,,,,,,main,k,k,1,0.6651630999986082,701.672212400008,None,None,0,,,,,,,,,,,,,,123,19,Female,2022-05-09_20h27.47.421,Parachute,2022.1.1,60.02199204366872,
negative,blue,1,None,k,,,,,,,,,0,218,218,218,,,,,,,,,,,,,,,,,,,,,,,,,,,,,,,,,,,,,main,k,k,1,0.6489954999415204,703.3384581999853,None,None,0,,,,,,,,,,,,,,123,19,Female,2022-05-09_20h27.47.421,Parachute,2022.1.1,60.02199204366872,
positive,red,2,None,None,,,,,,,,,0,219,219,219,,,,,,,,,,,,,,,,,,,,,,,,,,,,,,,,,,,,,main,None,None,1,1.4923624000512064,704.9893870999804,None,None,1,,,,,,,,,,,,,,123,19,Female,2022-05-09_20h27.47.421,Parachute,2022.1.1,60.02199204366872,
positive,yellow,1,None,k,,,,,,,,,0,220,220,220,,,,,,,,,,,,,,,,,,,,,,,,,,,,,,,,,,,,,main,k,k,1,0.7040852999780327,707.4850330000045,None,None,0,,,,,,,,,,,,,,123,19,Female,2022-05-09_20h27.47.421,Parachute,2022.1.1,60.02199204366872,
positive,blue,1,k,None,,,,,,,,,0,221,221,221,,,,,,,,,,,,,,,,,,,,,,,,,,,,,,,,,,,,,main,None,None,1,1.4929719000356272,709.1883013999322,None,None,1,,,,,,,,,,,,,,123,19,Female,2022-05-09_20h27.47.421,Parachute,2022.1.1,60.02199204366872,
positive,yellow,2,None,k,,,,,,,,,0,222,222,222,,,,,,,,,,,,,,,,,,,,,,,,,,,,,,,,,,,,,main,k,k,1,0.6530781000619754,711.6861042999662,None,None,0,,,,,,,,,,,,,,123,19,Female,2022-05-09_20h27.47.421,Parachute,2022.1.1,60.02199204366872,
negative,yellow,1,k,None,,,,,,,,,0,223,223,223,,,,,,,,,,,,,,,,,,,,,,,,,,,,,,,,,,,,,main,None,None,1,1.4942921999609098,713.3385360999964,None,None,1,,,,,,,,,,,,,,123,19,Female,2022-05-09_20h27.47.421,Parachute,2022.1.1,60.02199204366872,
positive,yellow,2,None,k,,,,,,,,,0,224,224,224,,,,,,,,,,,,,,,,,,,,,,,,,,,,,,,,,,,,,main,k,k,1,0.602241100044921,715.8359351999825,None,None,0,,,,,,,,,,,,,,123,19,Female,2022-05-09_20h27.47.421,Parachute,2022.1.1,60.02199204366872,
negative,yellow,2,k,None,,,,,,,,,0,225,225,225,,,,,,,,,,,,,,,,,,,,,,,,,,,,,,,,,,,,,main,None,None,1,1.494405199890025,717.4384873999516,None,None,1,,,,,,,,,,,,,,123,19,Female,2022-05-09_20h27.47.421,Parachute,2022.1.1,60.02199204366872,
negative,blue,2,None,k,,,,,,,,,0,226,226,226,,,,,,,,,,,,,,,,,,,,,,,,,,,,,,,,,,,,,main,k,k,1,0.5865217000246048,719.9349793000147,None,None,0,,,,,,,,,,,,,,123,19,Female,2022-05-09_20h27.47.421,Parachute,2022.1.1,60.02199204366872,
positive,red,2,None,None,,,,,,,,,0,227,227,227,,,,,,,,,,,,,,,,,,,,,,,,,,,,,,,,,,,,,main,None,None,1,1.494562300038524,721.5216016999912,None,None,1,,,,,,,,,,,,,,123,19,Female,2022-05-09_20h27.47.421,Parachute,2022.1.1,60.02199204366872,
positive,blue,2,k,None,,,,,,,,,0,228,228,228,,,,,,,,,,,,,,,,,,,,,,,,,,,,,,,,,,,,,main,None,None,1,1.498559100087732,724.0204345999518,None,None,1,,,,,,,,,,,,,,123,19,Female,2022-05-09_20h27.47.421,Parachute,2022.1.1,60.02199204366872,
negative,blue,1,None,k,,,,,,,,,0,229,229,229,,,,,,,,,,,,,,,,,,,,,,,,,,,,,,,,,,,,,main,k,k,1,0.6202617000089958,726.5202015999239,None,None,0,,,,,,,,,,,,,,123,19,Female,2022-05-09_20h27.47.421,Parachute,2022.1.1,60.02199204366872,
positive,yellow,1,None,k,,,,,,,,,0,230,230,230,,,,,,,,,,,,,,,,,,,,,,,,,,,,,,,,,,,,,main,k,k,1,0.6288853000150993,728.1394247999415,None,None,0,,,,,,,,,,,,,,123,19,Female,2022-05-09_20h27.47.421,Parachute,2022.1.1,60.02199204366872,
negative,blue,2,None,k,,,,,,,,,0,231,231,231,,,,,,,,,,,,,,,,,,,,,,,,,,,,,,,,,,,,,main,k,k,1,0.6677224000450224,729.7725391000276,None,None,0,,,,,,,,,,,,,,123,19,Female,2022-05-09_20h27.47.421,Parachute,2022.1.1,60.02199204366872,
negative,red,1,None,None,,,,,,,,,0,232,232,232,,,,,,,,,,,,,,,,,,,,,,,,,,,,,,,,,,,,,main,None,None,1,1.4932667999528348,731.4393984000199,None,None,1,,,,,,,,,,,,,,123,19,Female,2022-05-09_20h27.47.421,Parachute,2022.1.1,60.02199204366872,
positive,blue,2,k,None,,,,,,,,,0,233,233,233,,,,,,,,,,,,,,,,,,,,,,,,,,,,,,,,,,,,,main,None,None,1,1.4987010000040755,733.9361253000097,None,None,1,,,,,,,,,,,,,,123,19,Female,2022-05-09_20h27.47.421,Parachute,2022.1.1,60.02199204366872,
negative,yellow,1,k,None,,,,,,,,,0,234,234,234,,,,,,,,,,,,,,,,,,,,,,,,,,,,,,,,,,,,,main,None,None,1,1.4985381999285892,736.4366119999904,None,None,1,,,,,,,,,,,,,,123,19,Female,2022-05-09_20h27.47.421,Parachute,2022.1.1,60.02199204366872,
negative,yellow,2,k,None,,,,,,,,,0,235,235,235,,,,,,,,,,,,,,,,,,,,,,,,,,,,,,,,,,,,,main,None,None,1,1.497963499976322,738.9364592999918,None,None,1,,,,,,,,,,,,,,123,19,Female,2022-05-09_20h27.47.421,Parachute,2022.1.1,60.02199204366872,
positive,red,1,None,None,,,,,,,,,0,236,236,236,,,,,,,,,,,,,,,,,,,,,,,,,,,,,,,,,,,,,main,None,None,1,1.4992845000233501,741.4361753999256,None,None,1,,,,,,,,,,,,,,123,19,Female,2022-05-09_20h27.47.421,Parachute,2022.1.1,60.02199204366872,
negative,red,2,None,None,,,,,,,,,0,237,237,237,,,,,,,,,,,,,,,,,,,,,,,,,,,,,,,,,,,,,main,None,None,1,1.4985196999041364,743.9366342999274,None,None,1,,,,,,,,,,,,,,123,19,Female,2022-05-09_20h27.47.421,Parachute,2022.1.1,60.02199204366872,
negative,blue,1,None,k,,,,,,,,,0,238,238,238,,,,,,,,,,,,,,,,,,,,,,,,,,,,,,,,,,,,,main,k,k,1,1.0872786999680102,746.436624999973,None,None,0,,,,,,,,,,,,,,123,19,Female,2022-05-09_20h27.47.421,Parachute,2022.1.1,60.02199204366872,
positive,blue,1,k,None,,,,,,,,,0,239,239,239,,,,,,,,,,,,,,,,,,,,,,,,,,,,,,,,,,,,,main,None,None,1,1.4931686000199988,748.5229688999243,None,None,1,,,,,,,,,,,,,,123,19,Female,2022-05-09_20h27.47.421,Parachute,2022.1.1,60.02199204366872,
,,,,,,,,,,,,,,,,,,,,,,,,,,,,,,,,,,,,,,,,,,,,,,,,,,,,,,,,,,,,,,,,,,,,,,,,,751.0174861999694,None,,,,,,,,
