distractor,target,set,ans1,ans2,rep_loop4.thisRepN,rep_loop4.thisTrialN,rep_loop4.thisN,rep_loop4.thisIndex,st2_prac_loop.thisRepN,st2_prac_loop.thisTrialN,st2_prac_loop.thisN,st2_prac_loop.thisIndex,st2_main_loop.thisRepN,st2_main_loop.thisTrialN,st2_main_loop.thisN,st2_main_loop.thisIndex,image_4.started,image_4.stopped,mouse_7.x,mouse_7.y,mouse_7.leftButton,mouse_7.midButton,mouse_7.rightButton,sound_2.started,sound_2.stopped,key_resp_3.keys,mouse_5.x,mouse_5.y,mouse_5.leftButton,mouse_5.midButton,mouse_5.rightButton,mouse_5.started,mouse_5.stopped,yes_text2.started,yes_text2.stopped,no_text2.started,no_text2.stopped,mouse_3.x,mouse_3.y,mouse_3.leftButton,mouse_3.midButton,mouse_3.rightButton,mouse_3.started,mouse_3.stopped,st_prac_back.started,st_prac_back.stopped,st_prac_text.started,st_prac_text.stopped,st_fix_back.started,st_fix_back.stopped,st_fix_2.started,st_fix_2.stopped,main_prac,st_ans,st_res,st_corr,st_rt,st_back.started,st_back.stopped,st2_resp.keys,st2_resp.corr,st_main_back.started,st_main_back.stopped,st_main_text.started,st_main_text.stopped,mouse_4.x,mouse_4.y,mouse_4.leftButton,mouse_4.midButton,mouse_4.rightButton,mouse_4.started,mouse_4.stopped,text_2.started,text_2.stopped,id*,age*,gender*,date,expName,psychopyVersion,frameRate,
,,,,,,,,,,,,,,,,,33.11330830003135,None,0.38981482,-0.30555555,0,0,0,,,,,,,,,,,,,,,,,,,,,,,,,,,,,,,,,,,,,,,,,,,,,,,,,,,,124,30,Male,2022-05-10_09h59.33.369,Parachute,2022.1.1,59.8425781135805,
negative,yellow,1,k,None,,,,,0,0,0,0,,,,,,,,,,,,96.62790293002035,None,None,0.15648147,-0.24907407,0,0,0,1.0106480799149722,None,97.69489140005317,None,97.69489140005317,None,-0.09259259,-0.1,0,0,0,0.013673730078153312,None,98.93560399999842,None,98.93560399999842,None,100.94194050005171,None,100.94194050005171,None,prac,k,k,1,3.331154399900697,102.96986890002154,None,None,0,,,,,,,,,,,,,,124,30,Male,2022-05-10_09h59.33.369,Parachute,2022.1.1,59.8425781135805,
positive,red,2,None,None,,,,,0,1,1,1,,,,,,,,,,,,,,,,,,,,,,,,,,,,,,,,,,,,,,,,,prac,None,None,1,1.502419399912469,108.31838880002033,None,None,1,,,,,,,,,,,,,,124,30,Male,2022-05-10_09h59.33.369,Parachute,2022.1.1,59.8425781135805,
negative,blue,2,None,k,,,,,0,2,2,2,,,,,,,,,,,,,,,,,,,,,,,,,,,,,,,,,,,,,,,,,prac,None,None,1,1.4973284000298008,110.81585640006233,None,None,1,,,,,,,,,,,,,,124,30,Male,2022-05-10_09h59.33.369,Parachute,2022.1.1,59.8425781135805,
positive,yellow,1,None,k,,,,,0,3,3,3,,,,,,,,,,,,,,,,,,,,,,,,,,,,,,,,,,,,,,,,,prac,None,None,1,1.4989186999155208,113.32105270004831,None,None,1,,,,,,,,,,,,,,124,30,Male,2022-05-10_09h59.33.369,Parachute,2022.1.1,59.8425781135805,
negative,blue,2,None,k,,,,,0,4,4,4,,,,,,,,,,,,,,,,,,,,,,,,,,,,,,,,,,,,,,,,,prac,None,None,1,1.498143499949947,115.81962030008435,None,None,1,,,,,,,,,,,,,,124,30,Male,2022-05-10_09h59.33.369,Parachute,2022.1.1,59.8425781135805,
negative,blue,1,None,k,,,,,0,5,5,5,,,,,,,,,,,,,,,,,,,,,,,,,,,,,,,,,,,,,,,,,prac,None,None,1,1.5001807999797165,118.314435300068,None,None,1,,,,,,,,,,,,,,124,30,Male,2022-05-10_09h59.33.369,Parachute,2022.1.1,59.8425781135805,
negative,yellow,2,k,None,,,,,0,6,6,6,,,,,,,,,,,,,,,,,,,,,,,,,,,,,,,,,,,,,,,,,prac,k,k,1,0.9022647000383586,120.81598980003037,None,None,0,,,,,,,,,,,,,,124,30,Male,2022-05-10_09h59.33.369,Parachute,2022.1.1,59.8425781135805,
negative,red,1,None,None,,,,,0,7,7,7,,,,,,,,,,,,,,,,,,,,,,,,,,,,,,,,,,,,,,,,,prac,None,None,1,1.4932648999383673,122.71680290007498,None,None,1,,,,,,,,,,,,,,124,30,Male,2022-05-10_09h59.33.369,Parachute,2022.1.1,59.8425781135805,
positive,yellow,2,None,k,,,,,0,8,8,8,,,,,,,,,,,,,,,,,,,,,,,,,,,,,,,,,,,,,,,,,prac,None,None,1,1.4987871999619529,125.2200486001093,None,None,1,,,,,,,,,,,,,,124,30,Male,2022-05-10_09h59.33.369,Parachute,2022.1.1,59.8425781135805,
negative,yellow,1,k,None,,,,,0,9,9,9,,,,,,,,,,,,,,,,,,,,,,,,,,,,,,,,,,,,,,,,,prac,k,k,1,0.9541587999556214,127.71461200003978,None,None,0,,,,,,,,,,,,,,124,30,Male,2022-05-10_09h59.33.369,Parachute,2022.1.1,59.8425781135805,
positive,yellow,2,None,k,,,,,0,10,10,10,,,,,,,,,,,,,,,,,,,,,,,,,,,,,,,,,,,,,,,,,prac,None,None,1,1.492700600065291,129.66749590006657,None,None,1,,,,,,,,,,,,,,124,30,Male,2022-05-10_09h59.33.369,Parachute,2022.1.1,59.8425781135805,
negative,yellow,2,k,None,,,,,0,11,11,11,,,,,,,,,,,,,,,,,,,,,,,,,,,,,,,,,,,,,,,,,prac,k,k,1,0.8871216999832541,132.16352080006618,None,None,0,,,,,,,,,,,,,,124,30,Male,2022-05-10_09h59.33.369,Parachute,2022.1.1,59.8425781135805,
negative,red,2,None,None,,,,,0,12,12,12,,,,,,,,,,,,,,,,,,,,,,,,,,,,,,,,,,,,,,,,,prac,None,None,1,1.493303700000979,134.0501497000223,None,None,1,,,,,,,,,,,,,,124,30,Male,2022-05-10_09h59.33.369,Parachute,2022.1.1,59.8425781135805,
positive,red,1,None,None,,,,,0,13,13,13,,,,,,,,,,,,,,,,,,,,,,,,,,,,,,,,,,,,,,,,,prac,None,None,1,1.4989117999793962,136.54924810002558,None,None,1,,,,,,,,,,,,,,124,30,Male,2022-05-10_09h59.33.369,Parachute,2022.1.1,59.8425781135805,
positive,blue,2,k,None,,,,,0,14,14,14,,,,,,,,,,,,,,,,,,,,,,,,,,,,,,,,,,,,,,,,,prac,k,k,1,0.7714854000369087,139.0478419000283,None,None,0,,,,,,,,,,,,,,124,30,Male,2022-05-10_09h59.33.369,Parachute,2022.1.1,59.8425781135805,
positive,blue,1,k,None,,,,,0,15,15,15,,,,,,,,,,,,,,,,,,,,,,,,,,,,,,,,,,,,,,,,,prac,k,k,1,0.9968843000242487,140.81929880008101,None,None,0,,,,,,,,,,,,,,124,30,Male,2022-05-10_09h59.33.369,Parachute,2022.1.1,59.8425781135805,
negative,blue,1,None,k,,,,,0,16,16,16,,,,,,,,,,,,,,,,,,,,,,,,,,,,,,,,,,,,,,,,,prac,None,None,1,1.4936094000004232,142.8170360000804,None,None,1,,,,,,,,,,,,,,124,30,Male,2022-05-10_09h59.33.369,Parachute,2022.1.1,59.8425781135805,
positive,blue,2,k,None,,,,,0,17,17,17,,,,,,,,,,,,,,,,,,,,,,,,,,,,,,,,,,,,,,,,,prac,k,k,1,0.9031886999728158,145.31477740011178,None,None,0,,,,,,,,,,,,,,124,30,Male,2022-05-10_09h59.33.369,Parachute,2022.1.1,59.8425781135805,
positive,blue,1,k,None,,,,,0,18,18,18,,,,,,,,,,,,,,,,,,,,,,,,,,,,,,,,,,,,,,,,,prac,k,k,1,0.8988995000254363,147.21709320007358,None,None,0,,,,,,,,,,,,,,124,30,Male,2022-05-10_09h59.33.369,Parachute,2022.1.1,59.8425781135805,
positive,yellow,1,None,k,,,,,0,19,19,19,,,,,,,,,,,,,,,,,,,,,,,,,,,,,,,,,,,,,,,,,prac,None,None,1,1.493484399979934,149.11710540007334,None,None,1,,,,,,,,,,,,,,124,30,Male,2022-05-10_09h59.33.369,Parachute,2022.1.1,59.8425781135805,
negative,yellow,1,k,None,,,,,1,0,20,0,,,,,,,,,,,,,,,,,,,,,,,,,,,,,,,,,,,,,,,,,prac,k,k,1,0.920914699905552,151.61473420006223,None,None,0,,,,,,,,,,,,,,124,30,Male,2022-05-10_09h59.33.369,Parachute,2022.1.1,59.8425781135805,
positive,red,2,None,None,,,,,1,1,21,1,,,,,,,,,,,,,,,,,,,,,,,,,,,,,,,,,,,,,,,,,prac,None,None,1,1.5093221999704838,153.53559640003368,None,None,1,,,,,,,,,,,,,,124,30,Male,2022-05-10_09h59.33.369,Parachute,2022.1.1,59.8425781135805,
negative,blue,2,None,k,,,,,1,2,22,2,,,,,,,,,,,,,,,,,,,,,,,,,,,,,,,,,,,,,,,,,prac,None,None,1,1.498527399962768,156.0480064000003,None,None,1,,,,,,,,,,,,,,124,30,Male,2022-05-10_09h59.33.369,Parachute,2022.1.1,59.8425781135805,
positive,yellow,1,None,k,,,,,1,3,23,3,,,,,,,,,,,,,,,,,,,,,,,,,,,,,,,,,,,,,,,,,prac,None,None,1,1.4989351000403985,158.54862470005173,None,None,1,,,,,,,,,,,,,,124,30,Male,2022-05-10_09h59.33.369,Parachute,2022.1.1,59.8425781135805,
negative,blue,2,None,k,,,,,1,4,24,4,,,,,,,,,,,,,,,,,,,,,,,,,,,,,,,,,,,,,,,,,prac,None,None,1,1.498383199912496,161.04892230010591,None,None,1,,,,,,,,,,,,,,124,30,Male,2022-05-10_09h59.33.369,Parachute,2022.1.1,59.8425781135805,
negative,blue,1,None,k,,,,,1,5,25,5,,,,,,,,,,,,,,,,,,,,,,,,,,,,,,,,,,,,,,,,,prac,None,None,1,1.4983811000129208,163.5494152000174,None,None,1,,,,,,,,,,,,,,124,30,Male,2022-05-10_09h59.33.369,Parachute,2022.1.1,59.8425781135805,
negative,yellow,2,k,None,,,,,1,6,26,6,,,,,,,,,,,,,,,,,,,,,,,,,,,,,,,,,,,,,,,,,prac,k,k,1,0.9868987000081688,166.04883500002325,None,None,0,,,,,,,,,,,,,,124,30,Male,2022-05-10_09h59.33.369,Parachute,2022.1.1,59.8425781135805,
negative,red,1,None,None,,,,,1,7,27,7,,,,,,,,,,,,,,,,,,,,,,,,,,,,,,,,,,,,,,,,,prac,None,None,1,1.4929706999100745,168.03491090005264,None,None,1,,,,,,,,,,,,,,124,30,Male,2022-05-10_09h59.33.369,Parachute,2022.1.1,59.8425781135805,
positive,yellow,2,None,k,,,,,1,8,28,8,,,,,,,,,,,,,,,,,,,,,,,,,,,,,,,,,,,,,,,,,prac,None,None,1,1.4989012000150979,170.5315059000859,None,None,1,,,,,,,,,,,,,,124,30,Male,2022-05-10_09h59.33.369,Parachute,2022.1.1,59.8425781135805,
negative,yellow,1,k,None,,,,,1,9,29,9,,,,,,,,,,,,,,,,,,,,,,,,,,,,,,,,,,,,,,,,,prac,k,k,1,1.0519920999649912,173.0319333000807,None,None,0,,,,,,,,,,,,,,124,30,Male,2022-05-10_09h59.33.369,Parachute,2022.1.1,59.8425781135805,
positive,yellow,2,None,k,,,,,1,10,30,10,,,,,,,,,,,,,,,,,,,,,,,,,,,,,,,,,,,,,,,,,prac,None,None,1,1.495332199963741,175.09276310005225,None,None,1,,,,,,,,,,,,,,124,30,Male,2022-05-10_09h59.33.369,Parachute,2022.1.1,59.8425781135805,
negative,yellow,2,k,None,,,,,1,11,31,11,,,,,,,,,,,,,,,,,,,,,,,,,,,,,,,,,,,,,,,,,prac,k,k,1,1.1035696000326425,177.5823262000922,None,None,0,,,,,,,,,,,,,,124,30,Male,2022-05-10_09h59.33.369,Parachute,2022.1.1,59.8425781135805,
negative,red,2,None,None,,,,,1,12,32,12,,,,,,,,,,,,,,,,,,,,,,,,,,,,,,,,,,,,,,,,,prac,None,None,1,1.4931306999642402,179.685032300069,None,None,1,,,,,,,,,,,,,,124,30,Male,2022-05-10_09h59.33.369,Parachute,2022.1.1,59.8425781135805,
positive,red,1,None,None,,,,,1,13,33,13,,,,,,,,,,,,,,,,,,,,,,,,,,,,,,,,,,,,,,,,,prac,None,None,1,1.4991900000022724,182.18220280006062,None,None,1,,,,,,,,,,,,,,124,30,Male,2022-05-10_09h59.33.369,Parachute,2022.1.1,59.8425781135805,
positive,blue,2,k,None,,,,,1,14,34,14,,,,,,,,,,,,,,,,,,,,,,,,,,,,,,,,,,,,,,,,,prac,k,k,1,1.5015824000583962,184.68279330001678,None,None,0,,,,,,,,,,,,,,124,30,Male,2022-05-10_09h59.33.369,Parachute,2022.1.1,59.8425781135805,
positive,blue,1,k,None,,,,,1,15,35,15,,,,,,,,,,,,,,,,,,,,,,,,,,,,,,,,,,,,,,,,,prac,k,k,1,0.7737884999951348,188.19590570009314,None,None,0,,,,,,,,,,,,,,124,30,Male,2022-05-10_09h59.33.369,Parachute,2022.1.1,59.8425781135805,
negative,blue,1,None,k,,,,,1,16,36,16,,,,,,,,,,,,,,,,,,,,,,,,,,,,,,,,,,,,,,,,,prac,None,None,1,1.4935080000432208,189.96870070009027,None,None,1,,,,,,,,,,,,,,124,30,Male,2022-05-10_09h59.33.369,Parachute,2022.1.1,59.8425781135805,
positive,blue,2,k,None,,,,,1,17,37,17,,,,,,,,,,,,,,,,,,,,,,,,,,,,,,,,,,,,,,,,,prac,k,k,1,0.8036607000976801,192.46572850004304,None,None,0,,,,,,,,,,,,,,124,30,Male,2022-05-10_09h59.33.369,Parachute,2022.1.1,59.8425781135805,
positive,blue,1,k,None,,,,,1,18,38,18,,,,,,,,,,,,,,,,,,,,,,,,,,,,,,,,,,,,,,,,,prac,k,k,1,0.8819533999776468,194.26925410004333,None,None,0,,,,,,,,,,,,,,124,30,Male,2022-05-10_09h59.33.369,Parachute,2022.1.1,59.8425781135805,
positive,yellow,1,None,k,,,,,1,19,39,19,,,,,,,,,,,,,,,,,,,,,,,,,,,,,,,,,,,,,,,,,prac,None,None,1,1.4931318999733776,196.15266060002614,None,None,1,,,,,,,,,,,,,,124,30,Male,2022-05-10_09h59.33.369,Parachute,2022.1.1,59.8425781135805,
,,,,,,,,,,,,,,,,,,,,,,,,,,,,,,,,,,,,,,,,,,,,,,,,,,,,,,,,,,,,,,198.6675706000533,None,198.6675706000533,None,0.11296296,0.16944444,0,0,0,0.012434829957783222,None,,,124,30,Male,2022-05-10_09h59.33.369,Parachute,2022.1.1,59.8425781135805,
negative,yellow,2,k,None,,,,,,,,,0,0,0,0,,,,,,,,,,,,,,,,,,,,,,,,,,,,,,,,,218.1133832000196,None,218.1133832000196,None,main,k,k,1,0.87729439989198,220.15533890004735,None,None,0,,,,,,,,,,,,,,124,30,Male,2022-05-10_09h59.33.369,Parachute,2022.1.1,59.8425781135805,
positive,red,1,None,None,,,,,,,,,0,1,1,1,,,,,,,,,,,,,,,,,,,,,,,,,,,,,,,,,,,,,main,None,None,1,1.493710600072518,222.0380447000498,None,None,1,,,,,,,,,,,,,,124,30,Male,2022-05-10_09h59.33.369,Parachute,2022.1.1,59.8425781135805,
positive,blue,2,k,None,,,,,,,,,0,2,2,2,,,,,,,,,,,,,,,,,,,,,,,,,,,,,,,,,,,,,main,k,k,1,0.6205115000484511,224.53331020008773,None,None,0,,,,,,,,,,,,,,124,30,Male,2022-05-10_09h59.33.369,Parachute,2022.1.1,59.8425781135805,
positive,blue,1,k,None,,,,,,,,,0,3,3,3,,,,,,,,,,,,,,,,,,,,,,,,,,,,,,,,,,,,,main,k,k,1,0.698406400042586,226.15209430002142,None,None,0,,,,,,,,,,,,,,124,30,Male,2022-05-10_09h59.33.369,Parachute,2022.1.1,59.8425781135805,
negative,yellow,2,k,None,,,,,,,,,0,4,4,4,,,,,,,,,,,,,,,,,,,,,,,,,,,,,,,,,,,,,main,k,k,1,0.7152333999983966,227.85256110003684,None,None,0,,,,,,,,,,,,,,124,30,Male,2022-05-10_09h59.33.369,Parachute,2022.1.1,59.8425781135805,
positive,yellow,2,None,k,,,,,,,,,0,5,5,5,,,,,,,,,,,,,,,,,,,,,,,,,,,,,,,,,,,,,main,None,k,0,1.1188171000685543,229.5688285001088,None,None,1,,,,,,,,,,,,,,124,30,Male,2022-05-10_09h59.33.369,Parachute,2022.1.1,59.8425781135805,
negative,blue,2,None,k,,,,,,,,,0,6,6,6,,,,,,,,,,,,,,,,,,,,,,,,,,,,,,,,,,,,,main,None,None,1,1.5022003999911249,232.69713690003846,None,None,1,,,,,,,,,,,,,,124,30,Male,2022-05-10_09h59.33.369,Parachute,2022.1.1,59.8425781135805,
positive,red,2,None,None,,,,,,,,,0,7,7,7,,,,,,,,,,,,,,,,,,,,,,,,,,,,,,,,,,,,,main,None,None,1,1.498217900050804,235.2003052000655,None,None,1,,,,,,,,,,,,,,124,30,Male,2022-05-10_09h59.33.369,Parachute,2022.1.1,59.8425781135805,
positive,yellow,1,None,k,,,,,,,,,0,8,8,8,,,,,,,,,,,,,,,,,,,,,,,,,,,,,,,,,,,,,main,None,None,1,1.4981706999242306,237.69980200007558,None,None,1,,,,,,,,,,,,,,124,30,Male,2022-05-10_09h59.33.369,Parachute,2022.1.1,59.8425781135805,
negative,red,1,None,None,,,,,,,,,0,9,9,9,,,,,,,,,,,,,,,,,,,,,,,,,,,,,,,,,,,,,main,None,None,1,1.4990924999583513,240.19955190003384,None,None,1,,,,,,,,,,,,,,124,30,Male,2022-05-10_09h59.33.369,Parachute,2022.1.1,59.8425781135805,
positive,yellow,1,None,k,,,,,,,,,0,10,10,10,,,,,,,,,,,,,,,,,,,,,,,,,,,,,,,,,,,,,main,None,None,1,1.498846699949354,242.7003124000039,None,None,1,,,,,,,,,,,,,,124,30,Male,2022-05-10_09h59.33.369,Parachute,2022.1.1,59.8425781135805,
negative,yellow,1,k,None,,,,,,,,,0,11,11,11,,,,,,,,,,,,,,,,,,,,,,,,,,,,,,,,,,,,,main,k,k,1,0.9706292999908328,245.20093460008502,None,None,0,,,,,,,,,,,,,,124,30,Male,2022-05-10_09h59.33.369,Parachute,2022.1.1,59.8425781135805,
negative,yellow,1,k,None,,,,,,,,,0,12,12,12,,,,,,,,,,,,,,,,,,,,,,,,,,,,,,,,,,,,,main,k,k,1,0.8812981999944896,247.17032050003763,None,None,0,,,,,,,,,,,,,,124,30,Male,2022-05-10_09h59.33.369,Parachute,2022.1.1,59.8425781135805,
negative,red,2,None,None,,,,,,,,,0,13,13,13,,,,,,,,,,,,,,,,,,,,,,,,,,,,,,,,,,,,,main,None,None,1,1.4936868000077084,249.05266840010881,None,None,1,,,,,,,,,,,,,,124,30,Male,2022-05-10_09h59.33.369,Parachute,2022.1.1,59.8425781135805,
positive,yellow,2,None,k,,,,,,,,,0,14,14,14,,,,,,,,,,,,,,,,,,,,,,,,,,,,,,,,,,,,,main,None,None,1,1.4989876999752596,251.54994050005917,None,None,1,,,,,,,,,,,,,,124,30,Male,2022-05-10_09h59.33.369,Parachute,2022.1.1,59.8425781135805,
positive,blue,1,k,None,,,,,,,,,0,15,15,15,,,,,,,,,,,,,,,,,,,,,,,,,,,,,,,,,,,,,main,k,k,1,0.8030976000009105,254.05170250008814,None,None,0,,,,,,,,,,,,,,124,30,Male,2022-05-10_09h59.33.369,Parachute,2022.1.1,59.8425781135805,
negative,blue,1,None,k,,,,,,,,,0,16,16,16,,,,,,,,,,,,,,,,,,,,,,,,,,,,,,,,,,,,,main,None,None,1,1.4938972999807447,255.85281110007782,None,None,1,,,,,,,,,,,,,,124,30,Male,2022-05-10_09h59.33.369,Parachute,2022.1.1,59.8425781135805,
positive,blue,2,k,None,,,,,,,,,0,17,17,17,,,,,,,,,,,,,,,,,,,,,,,,,,,,,,,,,,,,,main,k,k,1,1.0030975999543443,258.35125890001655,None,None,0,,,,,,,,,,,,,,124,30,Male,2022-05-10_09h59.33.369,Parachute,2022.1.1,59.8425781135805,
negative,blue,2,None,k,,,,,,,,,0,18,18,18,,,,,,,,,,,,,,,,,,,,,,,,,,,,,,,,,,,,,main,None,None,1,1.4937936998903751,260.3530575000914,None,None,1,,,,,,,,,,,,,,124,30,Male,2022-05-10_09h59.33.369,Parachute,2022.1.1,59.8425781135805,
negative,blue,1,None,k,,,,,,,,,0,19,19,19,,,,,,,,,,,,,,,,,,,,,,,,,,,,,,,,,,,,,main,None,None,1,1.4986777000594884,262.85046250000596,None,None,1,,,,,,,,,,,,,,124,30,Male,2022-05-10_09h59.33.369,Parachute,2022.1.1,59.8425781135805,
negative,blue,1,None,k,,,,,,,,,0,20,20,20,,,,,,,,,,,,,,,,,,,,,,,,,,,,,,,,,,,,,main,None,None,1,1.4988046999787912,265.3506769000087,None,None,1,,,,,,,,,,,,,,124,30,Male,2022-05-10_09h59.33.369,Parachute,2022.1.1,59.8425781135805,
negative,blue,2,None,k,,,,,,,,,0,21,21,21,,,,,,,,,,,,,,,,,,,,,,,,,,,,,,,,,,,,,main,None,None,1,1.498264600057155,267.85116910003126,None,None,1,,,,,,,,,,,,,,124,30,Male,2022-05-10_09h59.33.369,Parachute,2022.1.1,59.8425781135805,
negative,red,1,None,None,,,,,,,,,0,22,22,22,,,,,,,,,,,,,,,,,,,,,,,,,,,,,,,,,,,,,main,None,None,1,1.4990737000480294,270.35063380002975,None,None,1,,,,,,,,,,,,,,124,30,Male,2022-05-10_09h59.33.369,Parachute,2022.1.1,59.8425781135805,
positive,red,2,None,None,,,,,,,,,0,23,23,23,,,,,,,,,,,,,,,,,,,,,,,,,,,,,,,,,,,,,main,None,None,1,1.4982583000091836,272.8516704000067,None,None,1,,,,,,,,,,,,,,124,30,Male,2022-05-10_09h59.33.369,Parachute,2022.1.1,59.8425781135805,
negative,red,2,None,None,,,,,,,,,0,24,24,24,,,,,,,,,,,,,,,,,,,,,,,,,,,,,,,,,,,,,main,None,None,1,1.4978950000368059,275.3507221000036,None,None,1,,,,,,,,,,,,,,124,30,Male,2022-05-10_09h59.33.369,Parachute,2022.1.1,59.8425781135805,
positive,blue,2,k,None,,,,,,,,,0,25,25,25,,,,,,,,,,,,,,,,,,,,,,,,,,,,,,,,,,,,,main,k,k,1,1.0713029999751598,277.84974170010537,None,None,0,,,,,,,,,,,,,,124,30,Male,2022-05-10_09h59.33.369,Parachute,2022.1.1,59.8425781135805,
negative,yellow,1,k,None,,,,,,,,,0,26,26,26,,,,,,,,,,,,,,,,,,,,,,,,,,,,,,,,,,,,,main,k,k,1,0.8820774999912828,279.9202264000196,None,None,0,,,,,,,,,,,,,,124,30,Male,2022-05-10_09h59.33.369,Parachute,2022.1.1,59.8425781135805,
positive,blue,2,k,None,,,,,,,,,0,27,27,27,,,,,,,,,,,,,,,,,,,,,,,,,,,,,,,,,,,,,main,k,k,1,1.4762708999915048,281.80354360002093,None,None,0,,,,,,,,,,,,,,124,30,Male,2022-05-10_09h59.33.369,Parachute,2022.1.1,59.8425781135805,
negative,blue,2,None,k,,,,,,,,,0,28,28,28,,,,,,,,,,,,,,,,,,,,,,,,,,,,,,,,,,,,,main,None,None,1,1.4989876999752596,284.2843262000242,None,None,1,,,,,,,,,,,,,,124,30,Male,2022-05-10_09h59.33.369,Parachute,2022.1.1,59.8425781135805,
positive,red,1,None,None,,,,,,,,,0,29,29,29,,,,,,,,,,,,,,,,,,,,,,,,,,,,,,,,,,,,,main,None,None,1,1.4987162000034004,286.7845006000716,None,None,1,,,,,,,,,,,,,,124,30,Male,2022-05-10_09h59.33.369,Parachute,2022.1.1,59.8425781135805,
positive,blue,1,k,None,,,,,,,,,0,30,30,30,,,,,,,,,,,,,,,,,,,,,,,,,,,,,,,,,,,,,main,k,k,1,1.070299300015904,289.2855545000639,None,None,0,,,,,,,,,,,,,,124,30,Male,2022-05-10_09h59.33.369,Parachute,2022.1.1,59.8425781135805,
positive,yellow,1,None,k,,,,,,,,,0,31,31,31,,,,,,,,,,,,,,,,,,,,,,,,,,,,,,,,,,,,,main,None,None,1,1.4938606000505388,291.35361870005727,None,None,1,,,,,,,,,,,,,,124,30,Male,2022-05-10_09h59.33.369,Parachute,2022.1.1,59.8425781135805,
negative,yellow,2,k,None,,,,,,,,,0,32,32,32,,,,,,,,,,,,,,,,,,,,,,,,,,,,,,,,,,,,,main,k,k,1,0.8701945999637246,293.8523333000485,None,None,0,,,,,,,,,,,,,,124,30,Male,2022-05-10_09h59.33.369,Parachute,2022.1.1,59.8425781135805,
negative,blue,1,None,k,,,,,,,,,0,33,33,33,,,,,,,,,,,,,,,,,,,,,,,,,,,,,,,,,,,,,main,None,None,1,1.492797699989751,295.7213512000162,None,None,1,,,,,,,,,,,,,,124,30,Male,2022-05-10_09h59.33.369,Parachute,2022.1.1,59.8425781135805,
positive,blue,1,k,None,,,,,,,,,0,34,34,34,,,,,,,,,,,,,,,,,,,,,,,,,,,,,,,,,,,,,main,k,k,1,0.8456240999512374,298.2178315001074,None,None,0,,,,,,,,,,,,,,124,30,Male,2022-05-10_09h59.33.369,Parachute,2022.1.1,59.8425781135805,
negative,yellow,1,k,None,,,,,,,,,0,35,35,35,,,,,,,,,,,,,,,,,,,,,,,,,,,,,,,,,,,,,main,k,k,1,0.855380600085482,300.06612750003114,None,None,0,,,,,,,,,,,,,,124,30,Male,2022-05-10_09h59.33.369,Parachute,2022.1.1,59.8425781135805,
positive,yellow,2,None,k,,,,,,,,,0,36,36,36,,,,,,,,,,,,,,,,,,,,,,,,,,,,,,,,,,,,,main,None,None,1,1.4936602999223396,301.92178279999644,None,None,1,,,,,,,,,,,,,,124,30,Male,2022-05-10_09h59.33.369,Parachute,2022.1.1,59.8425781135805,
positive,yellow,2,None,k,,,,,,,,,0,37,37,37,,,,,,,,,,,,,,,,,,,,,,,,,,,,,,,,,,,,,main,None,None,1,1.4986702000023797,304.41919450007845,None,None,1,,,,,,,,,,,,,,124,30,Male,2022-05-10_09h59.33.369,Parachute,2022.1.1,59.8425781135805,
negative,yellow,2,k,None,,,,,,,,,0,38,38,38,,,,,,,,,,,,,,,,,,,,,,,,,,,,,,,,,,,,,main,k,k,1,0.8526299999793991,306.91943120001815,None,None,0,,,,,,,,,,,,,,124,30,Male,2022-05-10_09h59.33.369,Parachute,2022.1.1,59.8425781135805,
positive,yellow,1,None,k,,,,,,,,,0,39,39,39,,,,,,,,,,,,,,,,,,,,,,,,,,,,,,,,,,,,,main,None,None,1,1.4944258000468835,308.7706066000974,None,None,1,,,,,,,,,,,,,,124,30,Male,2022-05-10_09h59.33.369,Parachute,2022.1.1,59.8425781135805,
negative,yellow,2,k,None,,,,,,,,,0,40,40,40,,,,,,,,,,,,,,,,,,,,,,,,,,,,,,,,,,,,,main,k,k,1,0.8041604000609368,311.26874850003514,None,None,0,,,,,,,,,,,,,,124,30,Male,2022-05-10_09h59.33.369,Parachute,2022.1.1,59.8425781135805,
positive,blue,2,k,None,,,,,,,,,0,41,41,41,,,,,,,,,,,,,,,,,,,,,,,,,,,,,,,,,,,,,main,k,k,1,1.1297926999395713,313.0713283000514,None,None,0,,,,,,,,,,,,,,124,30,Male,2022-05-10_09h59.33.369,Parachute,2022.1.1,59.8425781135805,
positive,blue,2,k,None,,,,,,,,,0,42,42,42,,,,,,,,,,,,,,,,,,,,,,,,,,,,,,,,,,,,,main,k,k,1,0.8172373999841511,315.21264650009107,None,None,0,,,,,,,,,,,,,,124,30,Male,2022-05-10_09h59.33.369,Parachute,2022.1.1,59.8425781135805,
negative,blue,2,None,k,,,,,,,,,0,43,43,43,,,,,,,,,,,,,,,,,,,,,,,,,,,,,,,,,,,,,main,None,None,1,1.4932769000297412,317.02133190003224,None,None,1,,,,,,,,,,,,,,124,30,Male,2022-05-10_09h59.33.369,Parachute,2022.1.1,59.8425781135805,
negative,red,1,None,None,,,,,,,,,0,44,44,44,,,,,,,,,,,,,,,,,,,,,,,,,,,,,,,,,,,,,main,None,None,1,1.4987304999958724,319.51837880001403,None,None,1,,,,,,,,,,,,,,124,30,Male,2022-05-10_09h59.33.369,Parachute,2022.1.1,59.8425781135805,
negative,yellow,1,k,None,,,,,,,,,0,45,45,45,,,,,,,,,,,,,,,,,,,,,,,,,,,,,,,,,,,,,main,k,k,1,0.8869197000749409,322.01868820004165,None,None,0,,,,,,,,,,,,,,124,30,Male,2022-05-10_09h59.33.369,Parachute,2022.1.1,59.8425781135805,
negative,yellow,1,k,None,,,,,,,,,0,46,46,46,,,,,,,,,,,,,,,,,,,,,,,,,,,,,,,,,,,,,main,k,k,1,0.8154665000038221,323.9045875000302,None,None,0,,,,,,,,,,,,,,124,30,Male,2022-05-10_09h59.33.369,Parachute,2022.1.1,59.8425781135805,
positive,red,1,None,None,,,,,,,,,0,47,47,47,,,,,,,,,,,,,,,,,,,,,,,,,,,,,,,,,,,,,main,None,None,1,1.4935122999595478,325.721437200089,None,None,1,,,,,,,,,,,,,,124,30,Male,2022-05-10_09h59.33.369,Parachute,2022.1.1,59.8425781135805,
positive,yellow,1,None,k,,,,,,,,,0,48,48,48,,,,,,,,,,,,,,,,,,,,,,,,,,,,,,,,,,,,,main,None,None,1,1.4984649999532849,328.21838400000706,None,None,1,,,,,,,,,,,,,,124,30,Male,2022-05-10_09h59.33.369,Parachute,2022.1.1,59.8425781135805,
negative,blue,1,None,k,,,,,,,,,0,49,49,49,,,,,,,,,,,,,,,,,,,,,,,,,,,,,,,,,,,,,main,None,None,1,1.4982048999518156,330.7193872000789,None,None,1,,,,,,,,,,,,,,124,30,Male,2022-05-10_09h59.33.369,Parachute,2022.1.1,59.8425781135805,
positive,yellow,2,None,k,,,,,,,,,0,50,50,50,,,,,,,,,,,,,,,,,,,,,,,,,,,,,,,,,,,,,main,None,None,1,1.4991521999472752,333.2190044000745,None,None,1,,,,,,,,,,,,,,124,30,Male,2022-05-10_09h59.33.369,Parachute,2022.1.1,59.8425781135805,
negative,blue,1,None,k,,,,,,,,,0,51,51,51,,,,,,,,,,,,,,,,,,,,,,,,,,,,,,,,,,,,,main,None,None,1,1.4984601000323892,335.7191731000785,None,None,1,,,,,,,,,,,,,,124,30,Male,2022-05-10_09h59.33.369,Parachute,2022.1.1,59.8425781135805,
positive,red,2,None,None,,,,,,,,,0,52,52,52,,,,,,,,,,,,,,,,,,,,,,,,,,,,,,,,,,,,,main,None,None,1,1.4986338999588042,338.21919460000936,None,None,1,,,,,,,,,,,,,,124,30,Male,2022-05-10_09h59.33.369,Parachute,2022.1.1,59.8425781135805,
positive,yellow,2,None,k,,,,,,,,,0,53,53,53,,,,,,,,,,,,,,,,,,,,,,,,,,,,,,,,,,,,,main,None,None,1,1.4983519000234082,340.7191034000134,None,None,1,,,,,,,,,,,,,,124,30,Male,2022-05-10_09h59.33.369,Parachute,2022.1.1,59.8425781135805,
negative,red,2,None,None,,,,,,,,,0,54,54,54,,,,,,,,,,,,,,,,,,,,,,,,,,,,,,,,,,,,,main,None,None,1,1.498485999996774,343.2188732000068,None,None,1,,,,,,,,,,,,,,124,30,Male,2022-05-10_09h59.33.369,Parachute,2022.1.1,59.8425781135805,
positive,yellow,1,None,k,,,,,,,,,0,55,55,55,,,,,,,,,,,,,,,,,,,,,,,,,,,,,,,,,,,,,main,None,None,1,1.4990501999855042,345.71887130010873,None,None,1,,,,,,,,,,,,,,124,30,Male,2022-05-10_09h59.33.369,Parachute,2022.1.1,59.8425781135805,
negative,blue,2,None,k,,,,,,,,,0,56,56,56,,,,,,,,,,,,,,,,,,,,,,,,,,,,,,,,,,,,,main,None,None,1,1.4984615000430495,348.21959590003826,None,None,1,,,,,,,,,,,,,,124,30,Male,2022-05-10_09h59.33.369,Parachute,2022.1.1,59.8425781135805,
positive,blue,1,k,None,,,,,,,,,0,57,57,57,,,,,,,,,,,,,,,,,,,,,,,,,,,,,,,,,,,,,main,k,k,1,0.8616315999533981,350.71944350004196,None,None,0,,,,,,,,,,,,,,124,30,Male,2022-05-10_09h59.33.369,Parachute,2022.1.1,59.8425781135805,
positive,blue,1,k,None,,,,,,,,,0,58,58,58,,,,,,,,,,,,,,,,,,,,,,,,,,,,,,,,,,,,,main,k,k,1,0.9746976000024006,352.5830768001033,None,None,0,,,,,,,,,,,,,,124,30,Male,2022-05-10_09h59.33.369,Parachute,2022.1.1,59.8425781135805,
negative,yellow,2,k,None,,,,,,,,,0,59,59,59,,,,,,,,,,,,,,,,,,,,,,,,,,,,,,,,,,,,,main,k,k,1,0.8141145000699908,354.5566592999967,None,None,0,,,,,,,,,,,,,,124,30,Male,2022-05-10_09h59.33.369,Parachute,2022.1.1,59.8425781135805,
positive,red,2,None,None,,,,,,,,,0,60,60,60,,,,,,,,,,,,,,,,,,,,,,,,,,,,,,,,,,,,,main,None,None,1,1.49354180006776,356.3715999000706,None,None,1,,,,,,,,,,,,,,124,30,Male,2022-05-10_09h59.33.369,Parachute,2022.1.1,59.8425781135805,
negative,yellow,1,k,None,,,,,,,,,0,61,61,61,,,,,,,,,,,,,,,,,,,,,,,,,,,,,,,,,,,,,main,k,k,1,0.9707023999653757,358.86954100010917,None,None,0,,,,,,,,,,,,,,124,30,Male,2022-05-10_09h59.33.369,Parachute,2022.1.1,59.8425781135805,
negative,red,1,None,None,,,,,,,,,0,62,62,62,,,,,,,,,,,,,,,,,,,,,,,,,,,,,,,,,,,,,main,None,None,1,1.493349299998954,360.8392342000734,None,None,1,,,,,,,,,,,,,,124,30,Male,2022-05-10_09h59.33.369,Parachute,2022.1.1,59.8425781135805,
negative,blue,1,None,k,,,,,,,,,0,63,63,63,,,,,,,,,,,,,,,,,,,,,,,,,,,,,,,,,,,,,main,None,None,1,1.500157400034368,363.33670920005534,None,None,1,,,,,,,,,,,,,,124,30,Male,2022-05-10_09h59.33.369,Parachute,2022.1.1,59.8425781135805,
positive,blue,2,k,None,,,,,,,,,0,64,64,64,,,,,,,,,,,,,,,,,,,,,,,,,,,,,,,,,,,,,main,k,k,1,1.0517068000044674,365.8383820001036,None,None,0,,,,,,,,,,,,,,124,30,Male,2022-05-10_09h59.33.369,Parachute,2022.1.1,59.8425781135805,
negative,yellow,2,k,None,,,,,,,,,0,65,65,65,,,,,,,,,,,,,,,,,,,,,,,,,,,,,,,,,,,,,main,k,k,1,0.9160176001023501,367.8887862000847,None,None,0,,,,,,,,,,,,,,124,30,Male,2022-05-10_09h59.33.369,Parachute,2022.1.1,59.8425781135805,
positive,yellow,2,None,k,,,,,,,,,0,66,66,66,,,,,,,,,,,,,,,,,,,,,,,,,,,,,,,,,,,,,main,None,None,1,1.5094891999615356,369.80690930003766,None,None,1,,,,,,,,,,,,,,124,30,Male,2022-05-10_09h59.33.369,Parachute,2022.1.1,59.8425781135805,
positive,yellow,2,None,k,,,,,,,,,0,67,67,67,,,,,,,,,,,,,,,,,,,,,,,,,,,,,,,,,,,,,main,None,None,1,1.4979690000182018,372.31992090004496,None,None,1,,,,,,,,,,,,,,124,30,Male,2022-05-10_09h59.33.369,Parachute,2022.1.1,59.8425781135805,
positive,red,1,None,None,,,,,,,,,0,68,68,68,,,,,,,,,,,,,,,,,,,,,,,,,,,,,,,,,,,,,main,None,None,1,1.4989679000573233,374.8208810000215,None,None,1,,,,,,,,,,,,,,124,30,Male,2022-05-10_09h59.33.369,Parachute,2022.1.1,59.8425781135805,
positive,yellow,1,None,k,,,,,,,,,0,69,69,69,,,,,,,,,,,,,,,,,,,,,,,,,,,,,,,,,,,,,main,None,None,1,1.4995905000250787,377.3196778000565,None,None,1,,,,,,,,,,,,,,124,30,Male,2022-05-10_09h59.33.369,Parachute,2022.1.1,59.8425781135805,
negative,yellow,2,k,None,,,,,,,,,0,70,70,70,,,,,,,,,,,,,,,,,,,,,,,,,,,,,,,,,,,,,main,k,k,1,0.9027482999954373,379.82070180005394,None,None,0,,,,,,,,,,,,,,124,30,Male,2022-05-10_09h59.33.369,Parachute,2022.1.1,59.8425781135805,
positive,yellow,1,None,k,,,,,,,,,0,71,71,71,,,,,,,,,,,,,,,,,,,,,,,,,,,,,,,,,,,,,main,None,None,1,1.4950323000084609,381.7231650000904,None,None,1,,,,,,,,,,,,,,124,30,Male,2022-05-10_09h59.33.369,Parachute,2022.1.1,59.8425781135805,
negative,blue,1,None,k,,,,,,,,,0,72,72,72,,,,,,,,,,,,,,,,,,,,,,,,,,,,,,,,,,,,,main,None,None,1,1.4974606999894604,384.2213455000892,None,None,1,,,,,,,,,,,,,,124,30,Male,2022-05-10_09h59.33.369,Parachute,2022.1.1,59.8425781135805,
negative,red,2,None,None,,,,,,,,,0,73,73,73,,,,,,,,,,,,,,,,,,,,,,,,,,,,,,,,,,,,,main,None,None,1,1.4980395999737084,386.721182600013,None,None,1,,,,,,,,,,,,,,124,30,Male,2022-05-10_09h59.33.369,Parachute,2022.1.1,59.8425781135805,
positive,blue,2,k,None,,,,,,,,,0,74,74,74,,,,,,,,,,,,,,,,,,,,,,,,,,,,,,,,,,,,,main,k,k,1,0.8703975999960676,389.22006370010786,None,None,0,,,,,,,,,,,,,,124,30,Male,2022-05-10_09h59.33.369,Parachute,2022.1.1,59.8425781135805,
negative,blue,2,None,k,,,,,,,,,0,75,75,75,,,,,,,,,,,,,,,,,,,,,,,,,,,,,,,,,,,,,main,None,None,1,1.4929970999946818,391.08973760006484,None,None,1,,,,,,,,,,,,,,124,30,Male,2022-05-10_09h59.33.369,Parachute,2022.1.1,59.8425781135805,
negative,blue,2,None,k,,,,,,,,,0,76,76,76,,,,,,,,,,,,,,,,,,,,,,,,,,,,,,,,,,,,,main,None,None,1,1.49863429996185,393.5866281000199,None,None,1,,,,,,,,,,,,,,124,30,Male,2022-05-10_09h59.33.369,Parachute,2022.1.1,59.8425781135805,
negative,yellow,1,k,None,,,,,,,,,0,77,77,77,,,,,,,,,,,,,,,,,,,,,,,,,,,,,,,,,,,,,main,k,k,1,0.9702582999598235,396.086466900073,None,None,0,,,,,,,,,,,,,,124,30,Male,2022-05-10_09h59.33.369,Parachute,2022.1.1,59.8425781135805,
positive,blue,1,k,None,,,,,,,,,0,78,78,78,,,,,,,,,,,,,,,,,,,,,,,,,,,,,,,,,,,,,main,k,k,1,0.8477304999250919,398.05595850001555,None,None,0,,,,,,,,,,,,,,124,30,Male,2022-05-10_09h59.33.369,Parachute,2022.1.1,59.8425781135805,
positive,blue,1,k,None,,,,,,,,,0,79,79,79,,,,,,,,,,,,,,,,,,,,,,,,,,,,,,,,,,,,,main,k,k,1,0.831559200072661,399.9053343000123,None,None,0,,,,,,,,,,,,,,124,30,Male,2022-05-10_09h59.33.369,Parachute,2022.1.1,59.8425781135805,
positive,red,2,None,None,,,,,,,,,0,80,80,80,,,,,,,,,,,,,,,,,,,,,,,,,,,,,,,,,,,,,main,None,None,1,1.494642399949953,401.7401521001011,None,None,1,,,,,,,,,,,,,,124,30,Male,2022-05-10_09h59.33.369,Parachute,2022.1.1,59.8425781135805,
positive,yellow,2,None,k,,,,,,,,,0,81,81,81,,,,,,,,,,,,,,,,,,,,,,,,,,,,,,,,,,,,,main,None,None,1,1.4991891999961808,404.2375144000398,None,None,1,,,,,,,,,,,,,,124,30,Male,2022-05-10_09h59.33.369,Parachute,2022.1.1,59.8425781135805,
positive,blue,1,k,None,,,,,,,,,0,82,82,82,,,,,,,,,,,,,,,,,,,,,,,,,,,,,,,,,,,,,main,k,k,1,1.0034472000552341,406.7381561000366,None,None,0,,,,,,,,,,,,,,124,30,Male,2022-05-10_09h59.33.369,Parachute,2022.1.1,59.8425781135805,
negative,yellow,2,k,None,,,,,,,,,0,83,83,83,,,,,,,,,,,,,,,,,,,,,,,,,,,,,,,,,,,,,main,k,k,1,0.7734696000115946,408.74047070008237,None,None,0,,,,,,,,,,,,,,124,30,Male,2022-05-10_09h59.33.369,Parachute,2022.1.1,59.8425781135805,
positive,blue,2,k,None,,,,,,,,,0,84,84,84,,,,,,,,,,,,,,,,,,,,,,,,,,,,,,,,,,,,,main,k,k,1,1.2886212000157684,410.5176470000297,None,None,0,,,,,,,,,,,,,,124,30,Male,2022-05-10_09h59.33.369,Parachute,2022.1.1,59.8425781135805,
positive,yellow,1,None,k,,,,,,,,,0,85,85,85,,,,,,,,,,,,,,,,,,,,,,,,,,,,,,,,,,,,,main,None,None,1,1.4943026000401005,412.8062839000486,None,None,1,,,,,,,,,,,,,,124,30,Male,2022-05-10_09h59.33.369,Parachute,2022.1.1,59.8425781135805,
positive,blue,2,k,None,,,,,,,,,0,86,86,86,,,,,,,,,,,,,,,,,,,,,,,,,,,,,,,,,,,,,main,k,k,1,0.8205360999563709,415.3037281000288,None,None,0,,,,,,,,,,,,,,124,30,Male,2022-05-10_09h59.33.369,Parachute,2022.1.1,59.8425781135805,
positive,blue,1,k,None,,,,,,,,,0,87,87,87,,,,,,,,,,,,,,,,,,,,,,,,,,,,,,,,,,,,,main,k,k,1,1.415281500085257,417.1227721000323,None,None,0,,,,,,,,,,,,,,124,30,Male,2022-05-10_09h59.33.369,Parachute,2022.1.1,59.8425781135805,
negative,yellow,2,k,None,,,,,,,,,0,88,88,88,,,,,,,,,,,,,,,,,,,,,,,,,,,,,,,,,,,,,main,k,k,1,0.8566580000333488,419.5414309001062,None,None,0,,,,,,,,,,,,,,124,30,Male,2022-05-10_09h59.33.369,Parachute,2022.1.1,59.8425781135805,
negative,blue,2,None,k,,,,,,,,,0,89,89,89,,,,,,,,,,,,,,,,,,,,,,,,,,,,,,,,,,,,,main,None,None,1,1.5029571999330074,421.4014895000728,None,None,1,,,,,,,,,,,,,,124,30,Male,2022-05-10_09h59.33.369,Parachute,2022.1.1,59.8425781135805,
positive,yellow,2,None,k,,,,,,,,,0,90,90,90,,,,,,,,,,,,,,,,,,,,,,,,,,,,,,,,,,,,,main,None,None,1,1.5055951999966055,423.9054909000406,None,None,1,,,,,,,,,,,,,,124,30,Male,2022-05-10_09h59.33.369,Parachute,2022.1.1,59.8425781135805,
negative,yellow,1,k,None,,,,,,,,,0,91,91,91,,,,,,,,,,,,,,,,,,,,,,,,,,,,,,,,,,,,,main,k,k,1,0.8781350000062957,426.41478340001777,None,None,0,,,,,,,,,,,,,,124,30,Male,2022-05-10_09h59.33.369,Parachute,2022.1.1,59.8425781135805,
negative,red,2,None,None,,,,,,,,,0,92,92,92,,,,,,,,,,,,,,,,,,,,,,,,,,,,,,,,,,,,,main,None,None,1,1.4937867000699043,428.2918912000023,None,None,1,,,,,,,,,,,,,,124,30,Male,2022-05-10_09h59.33.369,Parachute,2022.1.1,59.8425781135805,
negative,blue,2,None,k,,,,,,,,,0,93,93,93,,,,,,,,,,,,,,,,,,,,,,,,,,,,,,,,,,,,,main,None,None,1,1.498556499951519,430.78766760008875,None,None,1,,,,,,,,,,,,,,124,30,Male,2022-05-10_09h59.33.369,Parachute,2022.1.1,59.8425781135805,
negative,blue,1,None,k,,,,,,,,,0,94,94,94,,,,,,,,,,,,,,,,,,,,,,,,,,,,,,,,,,,,,main,None,None,1,1.4986577000236139,433.2877208000282,None,None,1,,,,,,,,,,,,,,124,30,Male,2022-05-10_09h59.33.369,Parachute,2022.1.1,59.8425781135805,
negative,blue,1,None,k,,,,,,,,,0,95,95,95,,,,,,,,,,,,,,,,,,,,,,,,,,,,,,,,,,,,,main,None,None,1,1.4991240000817925,435.7878475000616,None,None,1,,,,,,,,,,,,,,124,30,Male,2022-05-10_09h59.33.369,Parachute,2022.1.1,59.8425781135805,
negative,red,1,None,None,,,,,,,,,0,96,96,96,,,,,,,,,,,,,,,,,,,,,,,,,,,,,,,,,,,,,main,None,None,1,1.4980954999336973,438.2886002000887,None,None,1,,,,,,,,,,,,,,124,30,Male,2022-05-10_09h59.33.369,Parachute,2022.1.1,59.8425781135805,
positive,yellow,1,None,k,,,,,,,,,0,97,97,97,,,,,,,,,,,,,,,,,,,,,,,,,,,,,,,,,,,,,main,None,k,0,0.8537248000502586,440.7877741000848,None,None,1,,,,,,,,,,,,,,124,30,Male,2022-05-10_09h59.33.369,Parachute,2022.1.1,59.8425781135805,
negative,yellow,1,k,None,,,,,,,,,0,98,98,98,,,,,,,,,,,,,,,,,,,,,,,,,,,,,,,,,,,,,main,k,k,1,0.8572751000756398,443.65136800007895,None,None,0,,,,,,,,,,,,,,124,30,Male,2022-05-10_09h59.33.369,Parachute,2022.1.1,59.8425781135805,
positive,red,1,None,None,,,,,,,,,0,99,99,99,,,,,,,,,,,,,,,,,,,,,,,,,,,,,,,,,,,,,main,None,None,1,1.4927010000683367,445.50833090010565,None,None,1,,,,,,,,,,,,,,124,30,Male,2022-05-10_09h59.33.369,Parachute,2022.1.1,59.8425781135805,
positive,blue,1,k,None,,,,,,,,,0,100,100,100,,,,,,,,,,,,,,,,,,,,,,,,,,,,,,,,,,,,,main,k,k,1,1.0710232000565156,448.0044835000299,None,None,0,,,,,,,,,,,,,,124,30,Male,2022-05-10_09h59.33.369,Parachute,2022.1.1,59.8425781135805,
negative,yellow,1,k,None,,,,,,,,,0,101,101,101,,,,,,,,,,,,,,,,,,,,,,,,,,,,,,,,,,,,,main,k,k,1,0.882087100064382,450.0742958000628,None,None,0,,,,,,,,,,,,,,124,30,Male,2022-05-10_09h59.33.369,Parachute,2022.1.1,59.8425781135805,
negative,blue,2,None,k,,,,,,,,,0,102,102,102,,,,,,,,,,,,,,,,,,,,,,,,,,,,,,,,,,,,,main,None,None,1,1.4930815999396145,451.95750250003766,None,None,1,,,,,,,,,,,,,,124,30,Male,2022-05-10_09h59.33.369,Parachute,2022.1.1,59.8425781135805,
negative,yellow,2,k,None,,,,,,,,,0,103,103,103,,,,,,,,,,,,,,,,,,,,,,,,,,,,,,,,,,,,,main,k,k,1,1.362300799926743,454.45495919999667,None,None,0,,,,,,,,,,,,,,124,30,Male,2022-05-10_09h59.33.369,Parachute,2022.1.1,59.8425781135805,
positive,yellow,2,None,k,,,,,,,,,0,104,104,104,,,,,,,,,,,,,,,,,,,,,,,,,,,,,,,,,,,,,main,None,None,1,1.5014985000016168,456.8188926000148,None,None,1,,,,,,,,,,,,,,124,30,Male,2022-05-10_09h59.33.369,Parachute,2022.1.1,59.8425781135805,
positive,blue,1,k,None,,,,,,,,,0,105,105,105,,,,,,,,,,,,,,,,,,,,,,,,,,,,,,,,,,,,,main,k,k,1,0.8202554999152198,459.32177810010035,None,None,0,,,,,,,,,,,,,,124,30,Male,2022-05-10_09h59.33.369,Parachute,2022.1.1,59.8425781135805,
positive,blue,2,k,None,,,,,,,,,0,106,106,106,,,,,,,,,,,,,,,,,,,,,,,,,,,,,,,,,,,,,main,k,k,1,1.0972154000774026,461.1408051000908,None,None,0,,,,,,,,,,,,,,124,30,Male,2022-05-10_09h59.33.369,Parachute,2022.1.1,59.8425781135805,
negative,blue,1,None,k,,,,,,,,,0,107,107,107,,,,,,,,,,,,,,,,,,,,,,,,,,,,,,,,,,,,,main,None,None,1,1.4951418000273407,463.24924750009086,None,None,1,,,,,,,,,,,,,,124,30,Male,2022-05-10_09h59.33.369,Parachute,2022.1.1,59.8425781135805,
positive,yellow,2,None,k,,,,,,,,,0,108,108,108,,,,,,,,,,,,,,,,,,,,,,,,,,,,,,,,,,,,,main,None,None,1,1.4984347999561578,465.7392671999987,None,None,1,,,,,,,,,,,,,,124,30,Male,2022-05-10_09h59.33.369,Parachute,2022.1.1,59.8425781135805,
negative,yellow,1,k,None,,,,,,,,,0,109,109,109,,,,,,,,,,,,,,,,,,,,,,,,,,,,,,,,,,,,,main,k,k,1,0.956741499947384,468.23866120004095,None,None,0,,,,,,,,,,,,,,124,30,Male,2022-05-10_09h59.33.369,Parachute,2022.1.1,59.8425781135805,
negative,blue,2,None,k,,,,,,,,,0,110,110,110,,,,,,,,,,,,,,,,,,,,,,,,,,,,,,,,,,,,,main,None,None,1,1.5036262000212446,470.19708130008075,None,None,1,,,,,,,,,,,,,,124,30,Male,2022-05-10_09h59.33.369,Parachute,2022.1.1,59.8425781135805,
positive,blue,2,k,None,,,,,,,,,0,111,111,111,,,,,,,,,,,,,,,,,,,,,,,,,,,,,,,,,,,,,main,k,k,1,0.9373796000145376,472.70517740002833,None,None,0,,,,,,,,,,,,,,124,30,Male,2022-05-10_09h59.33.369,Parachute,2022.1.1,59.8425781135805,
negative,blue,1,None,k,,,,,,,,,0,112,112,112,,,,,,,,,,,,,,,,,,,,,,,,,,,,,,,,,,,,,main,None,None,1,1.4934621000429615,474.6423918000655,None,None,1,,,,,,,,,,,,,,124,30,Male,2022-05-10_09h59.33.369,Parachute,2022.1.1,59.8425781135805,
positive,yellow,1,None,k,,,,,,,,,0,113,113,113,,,,,,,,,,,,,,,,,,,,,,,,,,,,,,,,,,,,,main,None,None,1,1.4983851000433788,477.13909970002715,None,None,1,,,,,,,,,,,,,,124,30,Male,2022-05-10_09h59.33.369,Parachute,2022.1.1,59.8425781135805,
negative,red,1,None,None,,,,,,,,,0,114,114,114,,,,,,,,,,,,,,,,,,,,,,,,,,,,,,,,,,,,,main,None,None,1,1.498100700089708,479.63864410005044,None,None,1,,,,,,,,,,,,,,124,30,Male,2022-05-10_09h59.33.369,Parachute,2022.1.1,59.8425781135805,
positive,red,1,None,None,,,,,,,,,0,115,115,115,,,,,,,,,,,,,,,,,,,,,,,,,,,,,,,,,,,,,main,None,None,1,1.4994016999844462,482.1380101001123,None,None,1,,,,,,,,,,,,,,124,30,Male,2022-05-10_09h59.33.369,Parachute,2022.1.1,59.8425781135805,
negative,red,2,None,None,,,,,,,,,0,116,116,116,,,,,,,,,,,,,,,,,,,,,,,,,,,,,,,,,,,,,main,None,None,1,1.4983500000089407,484.63900060008746,None,None,1,,,,,,,,,,,,,,124,30,Male,2022-05-10_09h59.33.369,Parachute,2022.1.1,59.8425781135805,
negative,yellow,2,k,None,,,,,,,,,0,117,117,117,,,,,,,,,,,,,,,,,,,,,,,,,,,,,,,,,,,,,main,k,k,1,0.9852070000488311,487.1387911000056,None,None,0,,,,,,,,,,,,,,124,30,Male,2022-05-10_09h59.33.369,Parachute,2022.1.1,59.8425781135805,
positive,yellow,1,None,k,,,,,,,,,0,118,118,118,,,,,,,,,,,,,,,,,,,,,,,,,,,,,,,,,,,,,main,None,None,1,1.4951589000411332,489.1330492000561,None,None,1,,,,,,,,,,,,,,124,30,Male,2022-05-10_09h59.33.369,Parachute,2022.1.1,59.8425781135805,
positive,red,2,None,None,,,,,,,,,0,119,119,119,,,,,,,,,,,,,,,,,,,,,,,,,,,,,,,,,,,,,main,None,None,1,1.4990645999787375,491.62168100010604,None,None,1,,,,,,,,,,,,,,124,30,Male,2022-05-10_09h59.33.369,Parachute,2022.1.1,59.8425781135805,
positive,blue,2,k,None,,,,,,,,,0,120,120,120,,,,,,,,,,,,,,,,,,,,,,,,,,,,,,,,,,,,,main,k,k,1,0.8702145999995992,494.1224860000657,None,None,0,,,,,,,,,,,,,,124,30,Male,2022-05-10_09h59.33.369,Parachute,2022.1.1,59.8425781135805,
negative,red,1,None,None,,,,,,,,,0,121,121,121,,,,,,,,,,,,,,,,,,,,,,,,,,,,,,,,,,,,,main,None,None,1,1.4933680000249296,495.9914093000116,None,None,1,,,,,,,,,,,,,,124,30,Male,2022-05-10_09h59.33.369,Parachute,2022.1.1,59.8425781135805,
positive,yellow,2,None,k,,,,,,,,,0,122,122,122,,,,,,,,,,,,,,,,,,,,,,,,,,,,,,,,,,,,,main,None,None,1,1.4989269999787211,498.48869150003884,None,None,1,,,,,,,,,,,,,,124,30,Male,2022-05-10_09h59.33.369,Parachute,2022.1.1,59.8425781135805,
negative,red,2,None,None,,,,,,,,,0,123,123,123,,,,,,,,,,,,,,,,,,,,,,,,,,,,,,,,,,,,,main,None,None,1,1.4979498999891803,500.9893392000813,None,None,1,,,,,,,,,,,,,,124,30,Male,2022-05-10_09h59.33.369,Parachute,2022.1.1,59.8425781135805,
negative,yellow,2,k,None,,,,,,,,,0,124,124,124,,,,,,,,,,,,,,,,,,,,,,,,,,,,,,,,,,,,,main,k,k,1,0.8876306000165641,503.4887605000986,None,None,0,,,,,,,,,,,,,,124,30,Male,2022-05-10_09h59.33.369,Parachute,2022.1.1,59.8425781135805,
positive,red,1,None,None,,,,,,,,,0,125,125,125,,,,,,,,,,,,,,,,,,,,,,,,,,,,,,,,,,,,,main,None,None,1,1.4926384999416769,505.3773348000832,None,None,1,,,,,,,,,,,,,,124,30,Male,2022-05-10_09h59.33.369,Parachute,2022.1.1,59.8425781135805,
negative,blue,2,None,k,,,,,,,,,0,126,126,126,,,,,,,,,,,,,,,,,,,,,,,,,,,,,,,,,,,,,main,None,None,1,1.4990537000121549,507.8739656000398,None,None,1,,,,,,,,,,,,,,124,30,Male,2022-05-10_09h59.33.369,Parachute,2022.1.1,59.8425781135805,
negative,blue,1,None,k,,,,,,,,,0,127,127,127,,,,,,,,,,,,,,,,,,,,,,,,,,,,,,,,,,,,,main,None,None,1,1.4987936000106856,510.37434660003055,None,None,1,,,,,,,,,,,,,,124,30,Male,2022-05-10_09h59.33.369,Parachute,2022.1.1,59.8425781135805,
negative,yellow,1,k,None,,,,,,,,,0,128,128,128,,,,,,,,,,,,,,,,,,,,,,,,,,,,,,,,,,,,,main,k,k,1,0.9524507999885827,512.8736126000294,None,None,0,,,,,,,,,,,,,,124,30,Male,2022-05-10_09h59.33.369,Parachute,2022.1.1,59.8425781135805,
negative,yellow,1,k,None,,,,,,,,,0,129,129,129,,,,,,,,,,,,,,,,,,,,,,,,,,,,,,,,,,,,,main,k,k,1,0.7992564999731258,514.8253740000073,None,None,0,,,,,,,,,,,,,,124,30,Male,2022-05-10_09h59.33.369,Parachute,2022.1.1,59.8425781135805,
positive,blue,1,k,None,,,,,,,,,0,130,130,130,,,,,,,,,,,,,,,,,,,,,,,,,,,,,,,,,,,,,main,k,k,1,0.8307568000163883,516.6265634000301,None,None,0,,,,,,,,,,,,,,124,30,Male,2022-05-10_09h59.33.369,Parachute,2022.1.1,59.8425781135805,
negative,blue,1,None,k,,,,,,,,,0,131,131,131,,,,,,,,,,,,,,,,,,,,,,,,,,,,,,,,,,,,,main,None,None,1,1.493694300064817,518.4585693000117,None,None,1,,,,,,,,,,,,,,124,30,Male,2022-05-10_09h59.33.369,Parachute,2022.1.1,59.8425781135805,
negative,blue,2,None,k,,,,,,,,,0,132,132,132,,,,,,,,,,,,,,,,,,,,,,,,,,,,,,,,,,,,,main,None,None,1,1.4985675000352785,520.95693450002,None,None,1,,,,,,,,,,,,,,124,30,Male,2022-05-10_09h59.33.369,Parachute,2022.1.1,59.8425781135805,
positive,blue,2,k,None,,,,,,,,,0,133,133,133,,,,,,,,,,,,,,,,,,,,,,,,,,,,,,,,,,,,,main,k,k,1,0.854556200094521,523.457591000013,None,None,0,,,,,,,,,,,,,,124,30,Male,2022-05-10_09h59.33.369,Parachute,2022.1.1,59.8425781135805,
positive,red,2,None,None,,,,,,,,,0,134,134,134,,,,,,,,,,,,,,,,,,,,,,,,,,,,,,,,,,,,,main,None,None,1,1.4928279999876395,525.3097097000573,None,None,1,,,,,,,,,,,,,,124,30,Male,2022-05-10_09h59.33.369,Parachute,2022.1.1,59.8425781135805,
negative,yellow,2,k,None,,,,,,,,,0,135,135,135,,,,,,,,,,,,,,,,,,,,,,,,,,,,,,,,,,,,,main,k,k,1,0.9211310000391677,527.8082081000321,None,None,0,,,,,,,,,,,,,,124,30,Male,2022-05-10_09h59.33.369,Parachute,2022.1.1,59.8425781135805,
positive,yellow,2,None,k,,,,,,,,,0,136,136,136,,,,,,,,,,,,,,,,,,,,,,,,,,,,,,,,,,,,,main,None,None,1,1.4925759999314323,529.7267346000299,None,None,1,,,,,,,,,,,,,,124,30,Male,2022-05-10_09h59.33.369,Parachute,2022.1.1,59.8425781135805,
positive,blue,1,k,None,,,,,,,,,0,137,137,137,,,,,,,,,,,,,,,,,,,,,,,,,,,,,,,,,,,,,main,k,k,1,0.8311389000155032,532.223345000064,None,None,0,,,,,,,,,,,,,,124,30,Male,2022-05-10_09h59.33.369,Parachute,2022.1.1,59.8425781135805,
positive,yellow,1,None,k,,,,,,,,,0,138,138,138,,,,,,,,,,,,,,,,,,,,,,,,,,,,,,,,,,,,,main,None,None,1,1.4990587000502273,534.0578187000938,None,None,1,,,,,,,,,,,,,,124,30,Male,2022-05-10_09h59.33.369,Parachute,2022.1.1,59.8425781135805,
positive,yellow,1,None,k,,,,,,,,,0,139,139,139,,,,,,,,,,,,,,,,,,,,,,,,,,,,,,,,,,,,,main,None,None,1,1.4985574000747874,536.5573696000502,None,None,1,,,,,,,,,,,,,,124,30,Male,2022-05-10_09h59.33.369,Parachute,2022.1.1,59.8425781135805,
positive,yellow,1,None,k,,,,,,,,,0,140,140,140,,,,,,,,,,,,,,,,,,,,,,,,,,,,,,,,,,,,,main,None,None,1,1.4983137000817806,539.0574162000557,None,None,1,,,,,,,,,,,,,,124,30,Male,2022-05-10_09h59.33.369,Parachute,2022.1.1,59.8425781135805,
positive,blue,1,k,None,,,,,,,,,0,141,141,141,,,,,,,,,,,,,,,,,,,,,,,,,,,,,,,,,,,,,main,k,k,1,0.8376520000165328,541.5579342000419,None,None,0,,,,,,,,,,,,,,124,30,Male,2022-05-10_09h59.33.369,Parachute,2022.1.1,59.8425781135805,
positive,blue,2,k,None,,,,,,,,,0,142,142,142,,,,,,,,,,,,,,,,,,,,,,,,,,,,,,,,,,,,,main,k,k,1,1.2565251999767497,543.3930665000807,None,None,0,,,,,,,,,,,,,,124,30,Male,2022-05-10_09h59.33.369,Parachute,2022.1.1,59.8425781135805,
positive,yellow,2,None,k,,,,,,,,,0,143,143,143,,,,,,,,,,,,,,,,,,,,,,,,,,,,,,,,,,,,,main,None,None,1,1.5018624000949785,545.653961300035,None,None,1,,,,,,,,,,,,,,124,30,Male,2022-05-10_09h59.33.369,Parachute,2022.1.1,59.8425781135805,
negative,yellow,2,k,None,,,,,,,,,0,144,144,144,,,,,,,,,,,,,,,,,,,,,,,,,,,,,,,,,,,,,main,k,k,1,0.9039668999612331,548.1571696000174,None,None,0,,,,,,,,,,,,,,124,30,Male,2022-05-10_09h59.33.369,Parachute,2022.1.1,59.8425781135805,
negative,blue,2,None,k,,,,,,,,,0,145,145,145,,,,,,,,,,,,,,,,,,,,,,,,,,,,,,,,,,,,,main,None,None,1,1.4928049999289215,550.0598280000268,None,None,1,,,,,,,,,,,,,,124,30,Male,2022-05-10_09h59.33.369,Parachute,2022.1.1,59.8425781135805,
negative,red,1,None,None,,,,,,,,,0,146,146,146,,,,,,,,,,,,,,,,,,,,,,,,,,,,,,,,,,,,,main,None,None,1,1.4990092000225559,552.5565770000685,None,None,1,,,,,,,,,,,,,,124,30,Male,2022-05-10_09h59.33.369,Parachute,2022.1.1,59.8425781135805,
positive,blue,1,k,None,,,,,,,,,0,147,147,147,,,,,,,,,,,,,,,,,,,,,,,,,,,,,,,,,,,,,main,k,k,1,0.8541925000026822,555.0580928000854,None,None,0,,,,,,,,,,,,,,124,30,Male,2022-05-10_09h59.33.369,Parachute,2022.1.1,59.8425781135805,
positive,yellow,1,None,k,,,,,,,,,0,148,148,148,,,,,,,,,,,,,,,,,,,,,,,,,,,,,,,,,,,,,main,None,None,1,1.492744499933906,556.9111300000222,None,None,1,,,,,,,,,,,,,,124,30,Male,2022-05-10_09h59.33.369,Parachute,2022.1.1,59.8425781135805,
negative,red,2,None,None,,,,,,,,,0,149,149,149,,,,,,,,,,,,,,,,,,,,,,,,,,,,,,,,,,,,,main,None,None,1,1.4983053000178188,559.4077424000716,None,None,1,,,,,,,,,,,,,,124,30,Male,2022-05-10_09h59.33.369,Parachute,2022.1.1,59.8425781135805,
negative,blue,1,None,k,,,,,,,,,0,150,150,150,,,,,,,,,,,,,,,,,,,,,,,,,,,,,,,,,,,,,main,None,None,1,1.4986339000752196,561.9076188000618,None,None,1,,,,,,,,,,,,,,124,30,Male,2022-05-10_09h59.33.369,Parachute,2022.1.1,59.8425781135805,
negative,yellow,2,k,None,,,,,,,,,0,151,151,151,,,,,,,,,,,,,,,,,,,,,,,,,,,,,,,,,,,,,main,k,k,1,0.869030800065957,564.4076118000085,None,None,0,,,,,,,,,,,,,,124,30,Male,2022-05-10_09h59.33.369,Parachute,2022.1.1,59.8425781135805,
negative,blue,2,None,k,,,,,,,,,0,152,152,152,,,,,,,,,,,,,,,,,,,,,,,,,,,,,,,,,,,,,main,None,None,1,1.4945813999511302,566.2762540000258,None,None,1,,,,,,,,,,,,,,124,30,Male,2022-05-10_09h59.33.369,Parachute,2022.1.1,59.8425781135805,
negative,yellow,1,k,None,,,,,,,,,0,153,153,153,,,,,,,,,,,,,,,,,,,,,,,,,,,,,,,,,,,,,main,k,k,1,0.9874070000369102,568.7738615000853,None,None,0,,,,,,,,,,,,,,124,30,Male,2022-05-10_09h59.33.369,Parachute,2022.1.1,59.8425781135805,
negative,blue,1,None,k,,,,,,,,,0,154,154,154,,,,,,,,,,,,,,,,,,,,,,,,,,,,,,,,,,,,,main,None,None,1,1.4933850000379607,570.7605526000261,None,None,1,,,,,,,,,,,,,,124,30,Male,2022-05-10_09h59.33.369,Parachute,2022.1.1,59.8425781135805,
positive,yellow,2,None,k,,,,,,,,,0,155,155,155,,,,,,,,,,,,,,,,,,,,,,,,,,,,,,,,,,,,,main,None,None,1,1.4984177000587806,573.258261000039,None,None,1,,,,,,,,,,,,,,124,30,Male,2022-05-10_09h59.33.369,Parachute,2022.1.1,59.8425781135805,
positive,red,2,None,None,,,,,,,,,0,156,156,156,,,,,,,,,,,,,,,,,,,,,,,,,,,,,,,,,,,,,main,None,None,1,1.4985982000362128,575.7576896999963,None,None,1,,,,,,,,,,,,,,124,30,Male,2022-05-10_09h59.33.369,Parachute,2022.1.1,59.8425781135805,
positive,red,1,None,None,,,,,,,,,0,157,157,157,,,,,,,,,,,,,,,,,,,,,,,,,,,,,,,,,,,,,main,None,None,1,1.4989115000935271,578.2578181000426,None,None,1,,,,,,,,,,,,,,124,30,Male,2022-05-10_09h59.33.369,Parachute,2022.1.1,59.8425781135805,
positive,blue,2,k,None,,,,,,,,,0,158,158,158,,,,,,,,,,,,,,,,,,,,,,,,,,,,,,,,,,,,,main,k,k,1,0.8529791999608278,580.7582254000008,None,None,0,,,,,,,,,,,,,,124,30,Male,2022-05-10_09h59.33.369,Parachute,2022.1.1,59.8425781135805,
negative,yellow,1,k,None,,,,,,,,,0,159,159,159,,,,,,,,,,,,,,,,,,,,,,,,,,,,,,,,,,,,,main,k,k,1,0.7641072999686003,582.610473100096,None,None,0,,,,,,,,,,,,,,124,30,Male,2022-05-10_09h59.33.369,Parachute,2022.1.1,59.8425781135805,
negative,red,2,None,None,,,,,,,,,0,160,160,160,,,,,,,,,,,,,,,,,,,,,,,,,,,,,,,,,,,,,main,None,None,1,1.4947477000532672,584.3767595000099,None,None,1,,,,,,,,,,,,,,124,30,Male,2022-05-10_09h59.33.369,Parachute,2022.1.1,59.8425781135805,
negative,blue,1,None,k,,,,,,,,,0,161,161,161,,,,,,,,,,,,,,,,,,,,,,,,,,,,,,,,,,,,,main,None,None,1,1.4988901999313384,586.8745434000157,None,None,1,,,,,,,,,,,,,,124,30,Male,2022-05-10_09h59.33.369,Parachute,2022.1.1,59.8425781135805,
negative,blue,1,None,k,,,,,,,,,0,162,162,162,,,,,,,,,,,,,,,,,,,,,,,,,,,,,,,,,,,,,main,None,None,1,1.4983741999603808,589.3747202000814,None,None,1,,,,,,,,,,,,,,124,30,Male,2022-05-10_09h59.33.369,Parachute,2022.1.1,59.8425781135805,
negative,yellow,1,k,None,,,,,,,,,0,163,163,163,,,,,,,,,,,,,,,,,,,,,,,,,,,,,,,,,,,,,main,k,k,1,1.0866779000498354,591.8746283000801,None,None,0,,,,,,,,,,,,,,124,30,Male,2022-05-10_09h59.33.369,Parachute,2022.1.1,59.8425781135805,
negative,yellow,1,k,None,,,,,,,,,0,164,164,164,,,,,,,,,,,,,,,,,,,,,,,,,,,,,,,,,,,,,main,k,k,1,0.8323973999358714,593.9602844000328,None,None,0,,,,,,,,,,,,,,124,30,Male,2022-05-10_09h59.33.369,Parachute,2022.1.1,59.8425781135805,
positive,yellow,1,None,k,,,,,,,,,0,165,165,165,,,,,,,,,,,,,,,,,,,,,,,,,,,,,,,,,,,,,main,None,None,1,1.4928717999719083,595.7943193000974,None,None,1,,,,,,,,,,,,,,124,30,Male,2022-05-10_09h59.33.369,Parachute,2022.1.1,59.8425781135805,
negative,red,1,None,None,,,,,,,,,0,166,166,166,,,,,,,,,,,,,,,,,,,,,,,,,,,,,,,,,,,,,main,None,None,1,1.5027444999432191,598.2911187000573,None,None,1,,,,,,,,,,,,,,124,30,Male,2022-05-10_09h59.33.369,Parachute,2022.1.1,59.8425781135805,
negative,yellow,2,k,None,,,,,,,,,0,167,167,167,,,,,,,,,,,,,,,,,,,,,,,,,,,,,,,,,,,,,main,k,k,1,0.8659248999319971,600.7937481000554,None,None,0,,,,,,,,,,,,,,124,30,Male,2022-05-10_09h59.33.369,Parachute,2022.1.1,59.8425781135805,
positive,blue,2,k,None,,,,,,,,,0,168,168,168,,,,,,,,,,,,,,,,,,,,,,,,,,,,,,,,,,,,,main,k,k,1,0.9307259999914095,602.6608031000942,None,None,0,,,,,,,,,,,,,,124,30,Male,2022-05-10_09h59.33.369,Parachute,2022.1.1,59.8425781135805,
positive,red,2,None,None,,,,,,,,,0,169,169,169,,,,,,,,,,,,,,,,,,,,,,,,,,,,,,,,,,,,,main,None,None,1,1.4948992000427097,604.5939315001015,None,None,1,,,,,,,,,,,,,,124,30,Male,2022-05-10_09h59.33.369,Parachute,2022.1.1,59.8425781135805,
positive,red,1,None,None,,,,,,,,,0,170,170,170,,,,,,,,,,,,,,,,,,,,,,,,,,,,,,,,,,,,,main,None,None,1,1.4985648000147194,607.0912247000961,None,None,1,,,,,,,,,,,,,,124,30,Male,2022-05-10_09h59.33.369,Parachute,2022.1.1,59.8425781135805,
negative,blue,2,None,k,,,,,,,,,0,171,171,171,,,,,,,,,,,,,,,,,,,,,,,,,,,,,,,,,,,,,main,None,None,1,1.4985815999098122,609.5913603000809,None,None,1,,,,,,,,,,,,,,124,30,Male,2022-05-10_09h59.33.369,Parachute,2022.1.1,59.8425781135805,
positive,blue,2,k,None,,,,,,,,,0,172,172,172,,,,,,,,,,,,,,,,,,,,,,,,,,,,,,,,,,,,,main,k,k,1,0.9355771999107674,612.0912192000542,None,None,0,,,,,,,,,,,,,,124,30,Male,2022-05-10_09h59.33.369,Parachute,2022.1.1,59.8425781135805,
negative,yellow,2,k,None,,,,,,,,,0,173,173,173,,,,,,,,,,,,,,,,,,,,,,,,,,,,,,,,,,,,,main,k,k,1,0.8338884999975562,614.0375366000226,None,None,0,,,,,,,,,,,,,,124,30,Male,2022-05-10_09h59.33.369,Parachute,2022.1.1,59.8425781135805,
positive,yellow,2,None,k,,,,,,,,,0,174,174,174,,,,,,,,,,,,,,,,,,,,,,,,,,,,,,,,,,,,,main,None,None,1,1.4930873999837786,615.8620776000898,None,None,1,,,,,,,,,,,,,,124,30,Male,2022-05-10_09h59.33.369,Parachute,2022.1.1,59.8425781135805,
negative,blue,2,None,k,,,,,,,,,0,175,175,175,,,,,,,,,,,,,,,,,,,,,,,,,,,,,,,,,,,,,main,None,None,1,1.4977142000570893,618.3594694000203,None,None,1,,,,,,,,,,,,,,124,30,Male,2022-05-10_09h59.33.369,Parachute,2022.1.1,59.8425781135805,
positive,blue,1,k,None,,,,,,,,,0,176,176,176,,,,,,,,,,,,,,,,,,,,,,,,,,,,,,,,,,,,,main,k,k,1,0.8374981000088155,620.8588852001121,None,None,0,,,,,,,,,,,,,,124,30,Male,2022-05-10_09h59.33.369,Parachute,2022.1.1,59.8425781135805,
positive,yellow,1,None,k,,,,,,,,,0,177,177,177,,,,,,,,,,,,,,,,,,,,,,,,,,,,,,,,,,,,,main,None,None,1,1.5098042000317946,622.6953359000618,None,None,1,,,,,,,,,,,,,,124,30,Male,2022-05-10_09h59.33.369,Parachute,2022.1.1,59.8425781135805,
positive,blue,1,k,None,,,,,,,,,0,178,178,178,,,,,,,,,,,,,,,,,,,,,,,,,,,,,,,,,,,,,main,k,k,1,0.9203242999501526,625.208836600068,None,None,0,,,,,,,,,,,,,,124,30,Male,2022-05-10_09h59.33.369,Parachute,2022.1.1,59.8425781135805,
positive,yellow,2,None,k,,,,,,,,,0,179,179,179,,,,,,,,,,,,,,,,,,,,,,,,,,,,,,,,,,,,,main,None,None,1,1.494206800009124,627.1306218000827,None,None,1,,,,,,,,,,,,,,124,30,Male,2022-05-10_09h59.33.369,Parachute,2022.1.1,59.8425781135805,
positive,blue,1,k,None,,,,,,,,,0,180,180,180,,,,,,,,,,,,,,,,,,,,,,,,,,,,,,,,,,,,,main,k,k,1,0.9703925000503659,629.6265503000468,None,None,0,,,,,,,,,,,,,,124,30,Male,2022-05-10_09h59.33.369,Parachute,2022.1.1,59.8425781135805,
negative,red,1,None,None,,,,,,,,,0,181,181,181,,,,,,,,,,,,,,,,,,,,,,,,,,,,,,,,,,,,,main,None,None,1,1.5092237000353634,631.5962124000071,None,None,1,,,,,,,,,,,,,,124,30,Male,2022-05-10_09h59.33.369,Parachute,2022.1.1,59.8425781135805,
negative,blue,1,None,k,,,,,,,,,0,182,182,182,,,,,,,,,,,,,,,,,,,,,,,,,,,,,,,,,,,,,main,None,None,1,1.4991460000164807,634.1084920000285,None,None,1,,,,,,,,,,,,,,124,30,Male,2022-05-10_09h59.33.369,Parachute,2022.1.1,59.8425781135805,
negative,yellow,2,k,None,,,,,,,,,0,183,183,183,,,,,,,,,,,,,,,,,,,,,,,,,,,,,,,,,,,,,main,k,k,1,0.7865636999486014,636.6100734000793,None,None,0,,,,,,,,,,,,,,124,30,Male,2022-05-10_09h59.33.369,Parachute,2022.1.1,59.8425781135805,
positive,yellow,2,None,k,,,,,,,,,0,184,184,184,,,,,,,,,,,,,,,,,,,,,,,,,,,,,,,,,,,,,main,None,None,1,1.5011186000192538,638.3950804000488,None,None,1,,,,,,,,,,,,,,124,30,Male,2022-05-10_09h59.33.369,Parachute,2022.1.1,59.8425781135805,
positive,yellow,1,None,k,,,,,,,,,0,185,185,185,,,,,,,,,,,,,,,,,,,,,,,,,,,,,,,,,,,,,main,None,None,1,1.5072026998968795,640.902769700042,None,None,1,,,,,,,,,,,,,,124,30,Male,2022-05-10_09h59.33.369,Parachute,2022.1.1,59.8425781135805,
positive,red,2,None,None,,,,,,,,,0,186,186,186,,,,,,,,,,,,,,,,,,,,,,,,,,,,,,,,,,,,,main,None,None,1,1.497944499948062,643.4102839000989,None,None,1,,,,,,,,,,,,,,124,30,Male,2022-05-10_09h59.33.369,Parachute,2022.1.1,59.8425781135805,
positive,blue,1,k,None,,,,,,,,,0,187,187,187,,,,,,,,,,,,,,,,,,,,,,,,,,,,,,,,,,,,,main,k,k,1,0.8103083000751212,645.9093078000005,None,None,0,,,,,,,,,,,,,,124,30,Male,2022-05-10_09h59.33.369,Parachute,2022.1.1,59.8425781135805,
negative,yellow,1,k,None,,,,,,,,,0,188,188,188,,,,,,,,,,,,,,,,,,,,,,,,,,,,,,,,,,,,,main,k,k,1,0.873061899910681,647.7223084000871,None,None,0,,,,,,,,,,,,,,124,30,Male,2022-05-10_09h59.33.369,Parachute,2022.1.1,59.8425781135805,
positive,yellow,2,None,k,,,,,,,,,0,189,189,189,,,,,,,,,,,,,,,,,,,,,,,,,,,,,,,,,,,,,main,None,None,1,1.4944616999709979,649.5956213000463,None,None,1,,,,,,,,,,,,,,124,30,Male,2022-05-10_09h59.33.369,Parachute,2022.1.1,59.8425781135805,
negative,yellow,2,k,None,,,,,,,,,0,190,190,190,,,,,,,,,,,,,,,,,,,,,,,,,,,,,,,,,,,,,main,k,k,1,0.7867181999608874,652.0922739000525,None,None,0,,,,,,,,,,,,,,124,30,Male,2022-05-10_09h59.33.369,Parachute,2022.1.1,59.8425781135805,
negative,yellow,1,k,None,,,,,,,,,0,191,191,191,,,,,,,,,,,,,,,,,,,,,,,,,,,,,,,,,,,,,main,k,k,1,0.8313836999004707,653.8787090000696,None,None,0,,,,,,,,,,,,,,124,30,Male,2022-05-10_09h59.33.369,Parachute,2022.1.1,59.8425781135805,
positive,blue,2,k,None,,,,,,,,,0,192,192,192,,,,,,,,,,,,,,,,,,,,,,,,,,,,,,,,,,,,,main,k,k,1,0.766268500010483,655.7115766000934,None,None,0,,,,,,,,,,,,,,124,30,Male,2022-05-10_09h59.33.369,Parachute,2022.1.1,59.8425781135805,
positive,yellow,1,None,k,,,,,,,,,0,193,193,193,,,,,,,,,,,,,,,,,,,,,,,,,,,,,,,,,,,,,main,None,None,1,1.493358200066723,657.4793204000453,None,None,1,,,,,,,,,,,,,,124,30,Male,2022-05-10_09h59.33.369,Parachute,2022.1.1,59.8425781135805,
negative,red,2,None,None,,,,,,,,,0,194,194,194,,,,,,,,,,,,,,,,,,,,,,,,,,,,,,,,,,,,,main,None,None,1,1.498608099995181,659.9767751001054,None,None,1,,,,,,,,,,,,,,124,30,Male,2022-05-10_09h59.33.369,Parachute,2022.1.1,59.8425781135805,
positive,red,1,None,None,,,,,,,,,0,195,195,195,,,,,,,,,,,,,,,,,,,,,,,,,,,,,,,,,,,,,main,None,None,1,1.4981641999911517,662.4765490000136,None,None,1,,,,,,,,,,,,,,124,30,Male,2022-05-10_09h59.33.369,Parachute,2022.1.1,59.8425781135805,
negative,blue,1,None,k,,,,,,,,,0,196,196,196,,,,,,,,,,,,,,,,,,,,,,,,,,,,,,,,,,,,,main,None,None,1,1.4984805999556556,664.9761288000736,None,None,1,,,,,,,,,,,,,,124,30,Male,2022-05-10_09h59.33.369,Parachute,2022.1.1,59.8425781135805,
positive,blue,2,k,None,,,,,,,,,0,197,197,197,,,,,,,,,,,,,,,,,,,,,,,,,,,,,,,,,,,,,main,k,k,1,1.7524197000311688,667.4761264000554,None,None,0,,,,,,,,,,,,,,124,30,Male,2022-05-10_09h59.33.369,Parachute,2022.1.1,59.8425781135805,
negative,blue,2,None,k,,,,,,,,,0,198,198,198,,,,,,,,,,,,,,,,,,,,,,,,,,,,,,,,,,,,,main,None,None,1,1.5021261000074446,671.2402199000353,None,None,1,,,,,,,,,,,,,,124,30,Male,2022-05-10_09h59.33.369,Parachute,2022.1.1,59.8425781135805,
negative,blue,2,None,k,,,,,,,,,0,199,199,199,,,,,,,,,,,,,,,,,,,,,,,,,,,,,,,,,,,,,main,None,None,1,1.4979144999524578,673.7430478000315,None,None,1,,,,,,,,,,,,,,124,30,Male,2022-05-10_09h59.33.369,Parachute,2022.1.1,59.8425781135805,
positive,blue,2,k,None,,,,,,,,,0,200,200,200,,,,,,,,,,,,,,,,,,,,,,,,,,,,,,,,,,,,,main,k,k,1,0.8536185000557452,676.2427575000329,None,None,0,,,,,,,,,,,,,,124,30,Male,2022-05-10_09h59.33.369,Parachute,2022.1.1,59.8425781135805,
positive,blue,2,k,None,,,,,,,,,0,201,201,201,,,,,,,,,,,,,,,,,,,,,,,,,,,,,,,,,,,,,main,k,k,1,0.8317358000203967,678.0955203000922,None,None,0,,,,,,,,,,,,,,124,30,Male,2022-05-10_09h59.33.369,Parachute,2022.1.1,59.8425781135805,
negative,yellow,2,k,None,,,,,,,,,0,202,202,202,,,,,,,,,,,,,,,,,,,,,,,,,,,,,,,,,,,,,main,k,k,1,0.8493500000331551,679.92837530002,None,None,0,,,,,,,,,,,,,,124,30,Male,2022-05-10_09h59.33.369,Parachute,2022.1.1,59.8425781135805,
positive,red,1,None,None,,,,,,,,,0,203,203,203,,,,,,,,,,,,,,,,,,,,,,,,,,,,,,,,,,,,,main,None,None,1,1.4927891999250278,681.7803768001031,None,None,1,,,,,,,,,,,,,,124,30,Male,2022-05-10_09h59.33.369,Parachute,2022.1.1,59.8425781135805,
negative,blue,2,None,k,,,,,,,,,0,204,204,204,,,,,,,,,,,,,,,,,,,,,,,,,,,,,,,,,,,,,main,None,None,1,1.4996531000360847,684.2766115000704,None,None,1,,,,,,,,,,,,,,124,30,Male,2022-05-10_09h59.33.369,Parachute,2022.1.1,59.8425781135805,
negative,red,1,None,None,,,,,,,,,0,205,205,205,,,,,,,,,,,,,,,,,,,,,,,,,,,,,,,,,,,,,main,None,None,1,1.4969459000276402,686.7794625000097,None,None,1,,,,,,,,,,,,,,124,30,Male,2022-05-10_09h59.33.369,Parachute,2022.1.1,59.8425781135805,
negative,blue,2,None,k,,,,,,,,,0,206,206,206,,,,,,,,,,,,,,,,,,,,,,,,,,,,,,,,,,,,,main,None,None,1,1.498804600094445,689.2760762000689,None,None,1,,,,,,,,,,,,,,124,30,Male,2022-05-10_09h59.33.369,Parachute,2022.1.1,59.8425781135805,
negative,yellow,2,k,None,,,,,,,,,0,207,207,207,,,,,,,,,,,,,,,,,,,,,,,,,,,,,,,,,,,,,main,k,k,1,0.8193274999503046,691.7777996000368,None,None,0,,,,,,,,,,,,,,124,30,Male,2022-05-10_09h59.33.369,Parachute,2022.1.1,59.8425781135805,
positive,yellow,2,None,k,,,,,,,,,0,208,208,208,,,,,,,,,,,,,,,,,,,,,,,,,,,,,,,,,,,,,main,None,None,1,1.4944743999512866,693.5958418000955,None,None,1,,,,,,,,,,,,,,124,30,Male,2022-05-10_09h59.33.369,Parachute,2022.1.1,59.8425781135805,
negative,yellow,1,k,None,,,,,,,,,0,209,209,209,,,,,,,,,,,,,,,,,,,,,,,,,,,,,,,,,,,,,main,k,k,1,0.8374934000894427,696.0939933001064,None,None,0,,,,,,,,,,,,,,124,30,Male,2022-05-10_09h59.33.369,Parachute,2022.1.1,59.8425781135805,
negative,red,2,None,None,,,,,,,,,0,210,210,210,,,,,,,,,,,,,,,,,,,,,,,,,,,,,,,,,,,,,main,None,None,1,1.492574799922295,697.930173000088,None,None,1,,,,,,,,,,,,,,124,30,Male,2022-05-10_09h59.33.369,Parachute,2022.1.1,59.8425781135805,
negative,blue,1,None,k,,,,,,,,,0,211,211,211,,,,,,,,,,,,,,,,,,,,,,,,,,,,,,,,,,,,,main,None,None,1,1.4990490999771282,700.4260149000911,None,None,1,,,,,,,,,,,,,,124,30,Male,2022-05-10_09h59.33.369,Parachute,2022.1.1,59.8425781135805,
negative,yellow,1,k,None,,,,,,,,,0,212,212,212,,,,,,,,,,,,,,,,,,,,,,,,,,,,,,,,,,,,,main,k,k,1,1.2037039999850094,702.9269835000159,None,None,0,,,,,,,,,,,,,,124,30,Male,2022-05-10_09h59.33.369,Parachute,2022.1.1,59.8425781135805,
positive,blue,1,k,None,,,,,,,,,0,213,213,213,,,,,,,,,,,,,,,,,,,,,,,,,,,,,,,,,,,,,main,k,k,1,0.8996014998992905,705.1296642000088,None,None,0,,,,,,,,,,,,,,124,30,Male,2022-05-10_09h59.33.369,Parachute,2022.1.1,59.8425781135805,
positive,blue,1,k,None,,,,,,,,,0,214,214,214,,,,,,,,,,,,,,,,,,,,,,,,,,,,,,,,,,,,,main,k,k,1,0.8975570000475273,707.031237200019,None,None,0,,,,,,,,,,,,,,124,30,Male,2022-05-10_09h59.33.369,Parachute,2022.1.1,59.8425781135805,
positive,yellow,1,None,k,,,,,,,,,0,215,215,215,,,,,,,,,,,,,,,,,,,,,,,,,,,,,,,,,,,,,main,None,None,1,1.494791999924928,708.9297757000895,None,None,1,,,,,,,,,,,,,,124,30,Male,2022-05-10_09h59.33.369,Parachute,2022.1.1,59.8425781135805,
positive,yellow,1,None,k,,,,,,,,,0,216,216,216,,,,,,,,,,,,,,,,,,,,,,,,,,,,,,,,,,,,,main,None,None,1,1.4968176999827847,711.429105300107,None,None,1,,,,,,,,,,,,,,124,30,Male,2022-05-10_09h59.33.369,Parachute,2022.1.1,59.8425781135805,
positive,yellow,2,None,k,,,,,,,,,0,217,217,217,,,,,,,,,,,,,,,,,,,,,,,,,,,,,,,,,,,,,main,None,None,1,1.4984961000736803,713.9275737000862,None,None,1,,,,,,,,,,,,,,124,30,Male,2022-05-10_09h59.33.369,Parachute,2022.1.1,59.8425781135805,
negative,blue,1,None,k,,,,,,,,,0,218,218,218,,,,,,,,,,,,,,,,,,,,,,,,,,,,,,,,,,,,,main,None,None,1,1.4979716999223456,716.4274825000903,None,None,1,,,,,,,,,,,,,,124,30,Male,2022-05-10_09h59.33.369,Parachute,2022.1.1,59.8425781135805,
positive,red,2,None,None,,,,,,,,,0,219,219,219,,,,,,,,,,,,,,,,,,,,,,,,,,,,,,,,,,,,,main,None,None,1,1.4993604000192136,718.9267105000326,None,None,1,,,,,,,,,,,,,,124,30,Male,2022-05-10_09h59.33.369,Parachute,2022.1.1,59.8425781135805,
positive,yellow,1,None,k,,,,,,,,,0,220,220,220,,,,,,,,,,,,,,,,,,,,,,,,,,,,,,,,,,,,,main,None,None,1,1.4978122999891639,721.4279450000031,None,None,1,,,,,,,,,,,,,,124,30,Male,2022-05-10_09h59.33.369,Parachute,2022.1.1,59.8425781135805,
positive,blue,1,k,None,,,,,,,,,0,221,221,221,,,,,,,,,,,,,,,,,,,,,,,,,,,,,,,,,,,,,main,k,k,1,1.062345499987714,723.9269352999981,None,None,0,,,,,,,,,,,,,,124,30,Male,2022-05-10_09h59.33.369,Parachute,2022.1.1,59.8425781135805,
positive,yellow,2,None,k,,,,,,,,,0,222,222,222,,,,,,,,,,,,,,,,,,,,,,,,,,,,,,,,,,,,,main,None,None,1,1.5017886999994516,725.9914684001124,None,None,1,,,,,,,,,,,,,,124,30,Male,2022-05-10_09h59.33.369,Parachute,2022.1.1,59.8425781135805,
negative,yellow,1,k,None,,,,,,,,,0,223,223,223,,,,,,,,,,,,,,,,,,,,,,,,,,,,,,,,,,,,,main,k,k,1,0.8684540000976995,728.4948271000758,None,None,0,,,,,,,,,,,,,,124,30,Male,2022-05-10_09h59.33.369,Parachute,2022.1.1,59.8425781135805,
positive,yellow,2,None,k,,,,,,,,,0,224,224,224,,,,,,,,,,,,,,,,,,,,,,,,,,,,,,,,,,,,,main,None,None,1,1.4951372999930754,730.3741117001045,None,None,1,,,,,,,,,,,,,,124,30,Male,2022-05-10_09h59.33.369,Parachute,2022.1.1,59.8425781135805,
negative,yellow,2,k,None,,,,,,,,,0,225,225,225,,,,,,,,,,,,,,,,,,,,,,,,,,,,,,,,,,,,,main,k,k,1,1.0710782000096515,732.860206500045,None,None,0,,,,,,,,,,,,,,124,30,Male,2022-05-10_09h59.33.369,Parachute,2022.1.1,59.8425781135805,
negative,blue,2,None,k,,,,,,,,,0,226,226,226,,,,,,,,,,,,,,,,,,,,,,,,,,,,,,,,,,,,,main,None,None,1,1.4930290000047535,734.930919000064,None,None,1,,,,,,,,,,,,,,124,30,Male,2022-05-10_09h59.33.369,Parachute,2022.1.1,59.8425781135805,
positive,red,2,None,None,,,,,,,,,0,227,227,227,,,,,,,,,,,,,,,,,,,,,,,,,,,,,,,,,,,,,main,None,None,1,1.499068700009957,737.427119800006,None,None,1,,,,,,,,,,,,,,124,30,Male,2022-05-10_09h59.33.369,Parachute,2022.1.1,59.8425781135805,
positive,blue,2,k,None,,,,,,,,,0,228,228,228,,,,,,,,,,,,,,,,,,,,,,,,,,,,,,,,,,,,,main,k,k,1,0.953438900061883,739.928372800001,None,None,0,,,,,,,,,,,,,,124,30,Male,2022-05-10_09h59.33.369,Parachute,2022.1.1,59.8425781135805,
negative,blue,1,None,k,,,,,,,,,0,229,229,229,,,,,,,,,,,,,,,,,,,,,,,,,,,,,,,,,,,,,main,None,None,1,1.49330860003829,741.8808437000262,None,None,1,,,,,,,,,,,,,,124,30,Male,2022-05-10_09h59.33.369,Parachute,2022.1.1,59.8425781135805,
positive,yellow,1,None,k,,,,,,,,,0,230,230,230,,,,,,,,,,,,,,,,,,,,,,,,,,,,,,,,,,,,,main,None,None,1,1.4989380000624806,744.3779787000967,None,None,1,,,,,,,,,,,,,,124,30,Male,2022-05-10_09h59.33.369,Parachute,2022.1.1,59.8425781135805,
negative,blue,2,None,k,,,,,,,,,0,231,231,231,,,,,,,,,,,,,,,,,,,,,,,,,,,,,,,,,,,,,main,None,None,1,1.497867599944584,746.8788229000056,None,None,1,,,,,,,,,,,,,,124,30,Male,2022-05-10_09h59.33.369,Parachute,2022.1.1,59.8425781135805,
negative,red,1,None,None,,,,,,,,,0,232,232,232,,,,,,,,,,,,,,,,,,,,,,,,,,,,,,,,,,,,,main,None,None,1,1.4989926000125706,749.3775652000913,None,None,1,,,,,,,,,,,,,,124,30,Male,2022-05-10_09h59.33.369,Parachute,2022.1.1,59.8425781135805,
positive,blue,2,k,None,,,,,,,,,0,233,233,233,,,,,,,,,,,,,,,,,,,,,,,,,,,,,,,,,,,,,main,k,k,1,0.8684778000460938,751.8790245000273,None,None,0,,,,,,,,,,,,,,124,30,Male,2022-05-10_09h59.33.369,Parachute,2022.1.1,59.8425781135805,
negative,yellow,1,k,None,,,,,,,,,0,234,234,234,,,,,,,,,,,,,,,,,,,,,,,,,,,,,,,,,,,,,main,k,k,1,0.83349490002729,753.7556926000398,None,None,0,,,,,,,,,,,,,,124,30,Male,2022-05-10_09h59.33.369,Parachute,2022.1.1,59.8425781135805,
negative,yellow,2,k,None,,,,,,,,,0,235,235,235,,,,,,,,,,,,,,,,,,,,,,,,,,,,,,,,,,,,,main,k,k,1,0.8322566000279039,755.580909500015,None,None,0,,,,,,,,,,,,,,124,30,Male,2022-05-10_09h59.33.369,Parachute,2022.1.1,59.8425781135805,
positive,red,1,None,None,,,,,,,,,0,236,236,236,,,,,,,,,,,,,,,,,,,,,,,,,,,,,,,,,,,,,main,None,None,1,1.493575399974361,757.4144736001035,None,None,1,,,,,,,,,,,,,,124,30,Male,2022-05-10_09h59.33.369,Parachute,2022.1.1,59.8425781135805,
negative,red,2,None,None,,,,,,,,,0,237,237,237,,,,,,,,,,,,,,,,,,,,,,,,,,,,,,,,,,,,,main,None,None,1,1.4984430000185966,759.9115949000698,None,None,1,,,,,,,,,,,,,,124,30,Male,2022-05-10_09h59.33.369,Parachute,2022.1.1,59.8425781135805,
negative,blue,1,None,k,,,,,,,,,0,238,238,238,,,,,,,,,,,,,,,,,,,,,,,,,,,,,,,,,,,,,main,None,None,1,1.4987339999061078,762.4117075001122,None,None,1,,,,,,,,,,,,,,124,30,Male,2022-05-10_09h59.33.369,Parachute,2022.1.1,59.8425781135805,
positive,blue,1,k,None,,,,,,,,,0,239,239,239,,,,,,,,,,,,,,,,,,,,,,,,,,,,,,,,,,,,,main,k,k,1,0.7856829999946058,764.9121071000118,None,None,0,,,,,,,,,,,,,,124,30,Male,2022-05-10_09h59.33.369,Parachute,2022.1.1,59.8425781135805,
,,,,,,,,,,,,,,,,,,,,,,,,,,,,,,,,,,,,,,,,,,,,,,,,,,,,,,,,,,,,,,,,,,,,,,,,,766.6928079000209,None,,,,,,,,
