distractor,target,set,ans1,ans2,rep_loop4.thisRepN,rep_loop4.thisTrialN,rep_loop4.thisN,rep_loop4.thisIndex,st2_prac_loop.thisRepN,st2_prac_loop.thisTrialN,st2_prac_loop.thisN,st2_prac_loop.thisIndex,st2_main_loop.thisRepN,st2_main_loop.thisTrialN,st2_main_loop.thisN,st2_main_loop.thisIndex,image_4.started,image_4.stopped,mouse_7.x,mouse_7.y,mouse_7.leftButton,mouse_7.midButton,mouse_7.rightButton,sound_2.started,sound_2.stopped,key_resp_3.keys,mouse_5.x,mouse_5.y,mouse_5.leftButton,mouse_5.midButton,mouse_5.rightButton,mouse_5.started,mouse_5.stopped,yes_text2.started,yes_text2.stopped,no_text2.started,no_text2.stopped,mouse_3.x,mouse_3.y,mouse_3.leftButton,mouse_3.midButton,mouse_3.rightButton,mouse_3.started,mouse_3.stopped,st_prac_back.started,st_prac_back.stopped,st_prac_text.started,st_prac_text.stopped,st_fix_back.started,st_fix_back.stopped,st_fix_2.started,st_fix_2.stopped,main_prac,st_ans,st_res,st_corr,st_rt,st_back.started,st_back.stopped,st2_resp.keys,st2_resp.corr,st_main_back.started,st_main_back.stopped,st_main_text.started,st_main_text.stopped,mouse_4.x,mouse_4.y,mouse_4.leftButton,mouse_4.midButton,mouse_4.rightButton,mouse_4.started,mouse_4.stopped,text_2.started,text_2.stopped,id*,age*,gender*,date,expName,psychopyVersion,frameRate,
,,,,,,,,,,,,,,,,,36.15570430003572,None,-0.34814814,0.024074074,0,0,0,,,,,,,,,,,,,,,,,,,,,,,,,,,,,,,,,,,,,,,,,,,,,,,,,,,,125,19,Female,2022-05-10_12h52.45.122,Parachute,2022.1.1,59.87299742057007,
negative,yellow,1,k,None,,,,,0,0,0,0,,,,,,,,,,,,43.25967427999713,None,None,-0.22037037,-0.38981482,0,0,0,1.0023289797827601,None,102.3638955000788,None,102.3638955000788,None,-0.12222222,-0.06759259,0,0,0,0.013407379854470491,None,103.80393240007106,None,103.80393240007106,None,105.8101963000372,None,105.8101963000372,None,prac,None,None,1,1.510765300015919,107.8369807000272,None,None,1,,,,,,,,,,,,,,125,19,Female,2022-05-10_12h52.45.122,Parachute,2022.1.1,59.87299742057007,
positive,red,2,None,None,,,,,0,1,1,1,,,,,,,,,,,,,,,,,,,,,,,,,,,,,,,,,,,,,,,,,prac,None,None,1,1.4972814999055117,110.31597970006987,None,None,1,,,,,,,,,,,,,,125,19,Female,2022-05-10_12h52.45.122,Parachute,2022.1.1,59.87299742057007,
negative,blue,2,None,k,,,,,0,2,2,2,,,,,,,,,,,,,,,,,,,,,,,,,,,,,,,,,,,,,,,,,prac,k,k,1,1.237478299997747,112.8152681000065,None,None,0,,,,,,,,,,,,,,125,19,Female,2022-05-10_12h52.45.122,Parachute,2022.1.1,59.87299742057007,
positive,yellow,1,None,k,,,,,0,3,3,3,,,,,,,,,,,,,,,,,,,,,,,,,,,,,,,,,,,,,,,,,prac,k,k,1,15.41516119998414,115.05137580004521,None,None,0,,,,,,,,,,,,,,125,19,Female,2022-05-10_12h52.45.122,Parachute,2022.1.1,59.87299742057007,
negative,blue,2,None,k,,,,,0,4,4,4,,,,,,,,,,,,,,,,,,,,,,,,,,,,,,,,,,,,,,,,,prac,k,k,1,1.2911085000960156,132.5115998000838,None,None,0,,,,,,,,,,,,,,125,19,Female,2022-05-10_12h52.45.122,Parachute,2022.1.1,59.87299742057007,
negative,blue,1,None,k,,,,,0,5,5,5,,,,,,,,,,,,,,,,,,,,,,,,,,,,,,,,,,,,,,,,,prac,k,k,1,4.556501799961552,134.80202140007168,None,None,0,,,,,,,,,,,,,,125,19,Female,2022-05-10_12h52.45.122,Parachute,2022.1.1,59.87299742057007,
negative,yellow,2,k,None,,,,,0,6,6,6,,,,,,,,,,,,,,,,,,,,,,,,,,,,,,,,,,,,,,,,,prac,None,None,1,1.5014117999235168,141.36189310008194,None,None,1,,,,,,,,,,,,,,125,19,Female,2022-05-10_12h52.45.122,Parachute,2022.1.1,59.87299742057007,
negative,red,1,None,None,,,,,0,7,7,7,,,,,,,,,,,,,,,,,,,,,,,,,,,,,,,,,,,,,,,,,prac,None,None,1,1.4980554999783635,143.86483269999735,None,None,1,,,,,,,,,,,,,,125,19,Female,2022-05-10_12h52.45.122,Parachute,2022.1.1,59.87299742057007,
positive,yellow,2,None,k,,,,,0,8,8,8,,,,,,,,,,,,,,,,,,,,,,,,,,,,,,,,,,,,,,,,,prac,k,k,1,1.4544084999943152,146.36395280004945,None,None,0,,,,,,,,,,,,,,125,19,Female,2022-05-10_12h52.45.122,Parachute,2022.1.1,59.87299742057007,
negative,yellow,1,k,None,,,,,0,9,9,9,,,,,,,,,,,,,,,,,,,,,,,,,,,,,,,,,,,,,,,,,prac,None,None,1,1.4929974001133814,148.8174676001072,None,None,1,,,,,,,,,,,,,,125,19,Female,2022-05-10_12h52.45.122,Parachute,2022.1.1,59.87299742057007,
positive,yellow,2,None,k,,,,,0,10,10,10,,,,,,,,,,,,,,,,,,,,,,,,,,,,,,,,,,,,,,,,,prac,k,k,1,1.7523579000262544,151.314177100081,None,None,0,,,,,,,,,,,,,,125,19,Female,2022-05-10_12h52.45.122,Parachute,2022.1.1,59.87299742057007,
negative,yellow,2,k,None,,,,,0,11,11,11,,,,,,,,,,,,,,,,,,,,,,,,,,,,,,,,,,,,,,,,,prac,None,None,1,1.5030673999572173,155.079170800047,None,None,1,,,,,,,,,,,,,,125,19,Female,2022-05-10_12h52.45.122,Parachute,2022.1.1,59.87299742057007,
negative,red,2,None,None,,,,,0,12,12,12,,,,,,,,,,,,,,,,,,,,,,,,,,,,,,,,,,,,,,,,,prac,None,None,1,1.4982077999738976,157.58370410010684,None,None,1,,,,,,,,,,,,,,125,19,Female,2022-05-10_12h52.45.122,Parachute,2022.1.1,59.87299742057007,
positive,red,1,None,None,,,,,0,13,13,13,,,,,,,,,,,,,,,,,,,,,,,,,,,,,,,,,,,,,,,,,prac,None,None,1,1.4986875000176951,160.083754900028,None,None,1,,,,,,,,,,,,,,125,19,Female,2022-05-10_12h52.45.122,Parachute,2022.1.1,59.87299742057007,
positive,blue,2,k,None,,,,,0,14,14,14,,,,,,,,,,,,,,,,,,,,,,,,,,,,,,,,,,,,,,,,,prac,None,None,1,1.4986360999755561,162.5839474000968,None,None,1,,,,,,,,,,,,,,125,19,Female,2022-05-10_12h52.45.122,Parachute,2022.1.1,59.87299742057007,
positive,blue,1,k,None,,,,,0,15,15,15,,,,,,,,,,,,,,,,,,,,,,,,,,,,,,,,,,,,,,,,,prac,None,None,1,1.4987866999581456,165.08440360007808,None,None,1,,,,,,,,,,,,,,125,19,Female,2022-05-10_12h52.45.122,Parachute,2022.1.1,59.87299742057007,
negative,blue,1,None,k,,,,,0,16,16,16,,,,,,,,,,,,,,,,,,,,,,,,,,,,,,,,,,,,,,,,,prac,k,k,1,0.8195698999334127,167.5835272000404,None,None,0,,,,,,,,,,,,,,125,19,Female,2022-05-10_12h52.45.122,Parachute,2022.1.1,59.87299742057007,
positive,blue,2,k,None,,,,,0,17,17,17,,,,,,,,,,,,,,,,,,,,,,,,,,,,,,,,,,,,,,,,,prac,None,None,1,1.4931125999428332,169.40255290002096,None,None,1,,,,,,,,,,,,,,125,19,Female,2022-05-10_12h52.45.122,Parachute,2022.1.1,59.87299742057007,
positive,blue,1,k,None,,,,,0,18,18,18,,,,,,,,,,,,,,,,,,,,,,,,,,,,,,,,,,,,,,,,,prac,None,None,1,1.4984406000003219,171.89873510005418,None,None,1,,,,,,,,,,,,,,125,19,Female,2022-05-10_12h52.45.122,Parachute,2022.1.1,59.87299742057007,
positive,yellow,1,None,k,,,,,0,19,19,19,,,,,,,,,,,,,,,,,,,,,,,,,,,,,,,,,,,,,,,,,prac,k,k,1,1.103747499990277,174.3985493000364,None,None,0,,,,,,,,,,,,,,125,19,Female,2022-05-10_12h52.45.122,Parachute,2022.1.1,59.87299742057007,
negative,yellow,1,k,None,,,,,1,0,20,0,,,,,,,,,,,,,,,,,,,,,,,,,,,,,,,,,,,,,,,,,prac,None,None,1,1.4931233000243083,176.50110800005496,None,None,1,,,,,,,,,,,,,,125,19,Female,2022-05-10_12h52.45.122,Parachute,2022.1.1,59.87299742057007,
positive,red,2,None,None,,,,,1,1,21,1,,,,,,,,,,,,,,,,,,,,,,,,,,,,,,,,,,,,,,,,,prac,None,None,1,1.4985984000377357,178.99860610009637,None,None,1,,,,,,,,,,,,,,125,19,Female,2022-05-10_12h52.45.122,Parachute,2022.1.1,59.87299742057007,
negative,blue,2,None,k,,,,,1,2,22,2,,,,,,,,,,,,,,,,,,,,,,,,,,,,,,,,,,,,,,,,,prac,k,k,1,0.8873316999524832,181.4985465001082,None,None,0,,,,,,,,,,,,,,125,19,Female,2022-05-10_12h52.45.122,Parachute,2022.1.1,59.87299742057007,
positive,yellow,1,None,k,,,,,1,3,23,3,,,,,,,,,,,,,,,,,,,,,,,,,,,,,,,,,,,,,,,,,prac,k,k,1,0.9152481999481097,183.38461629999802,None,None,0,,,,,,,,,,,,,,125,19,Female,2022-05-10_12h52.45.122,Parachute,2022.1.1,59.87299742057007,
negative,blue,2,None,k,,,,,1,4,24,4,,,,,,,,,,,,,,,,,,,,,,,,,,,,,,,,,,,,,,,,,prac,k,k,1,0.8489748999709263,185.30166500003543,None,None,0,,,,,,,,,,,,,,125,19,Female,2022-05-10_12h52.45.122,Parachute,2022.1.1,59.87299742057007,
negative,blue,1,None,k,,,,,1,5,25,5,,,,,,,,,,,,,,,,,,,,,,,,,,,,,,,,,,,,,,,,,prac,k,k,1,1.073481100029312,187.15192690002732,None,None,0,,,,,,,,,,,,,,125,19,Female,2022-05-10_12h52.45.122,Parachute,2022.1.1,59.87299742057007,
negative,yellow,2,k,None,,,,,1,6,26,6,,,,,,,,,,,,,,,,,,,,,,,,,,,,,,,,,,,,,,,,,prac,None,None,1,1.5020577000686899,189.22968290001154,None,None,1,,,,,,,,,,,,,,125,19,Female,2022-05-10_12h52.45.122,Parachute,2022.1.1,59.87299742057007,
negative,red,1,None,None,,,,,1,7,27,7,,,,,,,,,,,,,,,,,,,,,,,,,,,,,,,,,,,,,,,,,prac,None,None,1,1.4986468000570312,191.7334206000669,None,None,1,,,,,,,,,,,,,,125,19,Female,2022-05-10_12h52.45.122,Parachute,2022.1.1,59.87299742057007,
positive,yellow,2,None,k,,,,,1,8,28,8,,,,,,,,,,,,,,,,,,,,,,,,,,,,,,,,,,,,,,,,,prac,k,k,1,0.7202016999945045,194.23323570005596,None,None,0,,,,,,,,,,,,,,125,19,Female,2022-05-10_12h52.45.122,Parachute,2022.1.1,59.87299742057007,
negative,yellow,1,k,None,,,,,1,9,29,9,,,,,,,,,,,,,,,,,,,,,,,,,,,,,,,,,,,,,,,,,prac,None,None,1,1.493275300017558,195.95295599999372,None,None,1,,,,,,,,,,,,,,125,19,Female,2022-05-10_12h52.45.122,Parachute,2022.1.1,59.87299742057007,
positive,yellow,2,None,k,,,,,1,10,30,10,,,,,,,,,,,,,,,,,,,,,,,,,,,,,,,,,,,,,,,,,prac,k,k,1,0.7213169999886304,198.4504922000924,None,None,0,,,,,,,,,,,,,,125,19,Female,2022-05-10_12h52.45.122,Parachute,2022.1.1,59.87299742057007,
negative,yellow,2,k,None,,,,,1,11,31,11,,,,,,,,,,,,,,,,,,,,,,,,,,,,,,,,,,,,,,,,,prac,None,None,1,1.5100785000249743,200.1714807000244,None,None,1,,,,,,,,,,,,,,125,19,Female,2022-05-10_12h52.45.122,Parachute,2022.1.1,59.87299742057007,
negative,red,2,None,None,,,,,1,12,32,12,,,,,,,,,,,,,,,,,,,,,,,,,,,,,,,,,,,,,,,,,prac,None,None,1,1.5122299999929965,202.68624810001347,None,None,1,,,,,,,,,,,,,,125,19,Female,2022-05-10_12h52.45.122,Parachute,2022.1.1,59.87299742057007,
positive,red,1,None,None,,,,,1,13,33,13,,,,,,,,,,,,,,,,,,,,,,,,,,,,,,,,,,,,,,,,,prac,None,None,1,1.4974189999047667,205.20140730007552,None,None,1,,,,,,,,,,,,,,125,19,Female,2022-05-10_12h52.45.122,Parachute,2022.1.1,59.87299742057007,
positive,blue,2,k,None,,,,,1,14,34,14,,,,,,,,,,,,,,,,,,,,,,,,,,,,,,,,,,,,,,,,,prac,None,None,1,1.4986710000084713,207.6987233000109,None,None,1,,,,,,,,,,,,,,125,19,Female,2022-05-10_12h52.45.122,Parachute,2022.1.1,59.87299742057007,
positive,blue,1,k,None,,,,,1,15,35,15,,,,,,,,,,,,,,,,,,,,,,,,,,,,,,,,,,,,,,,,,prac,None,None,1,1.4985838000429794,210.19954460009467,None,None,1,,,,,,,,,,,,,,125,19,Female,2022-05-10_12h52.45.122,Parachute,2022.1.1,59.87299742057007,
negative,blue,1,None,k,,,,,1,16,36,16,,,,,,,,,,,,,,,,,,,,,,,,,,,,,,,,,,,,,,,,,prac,k,k,1,0.8207072999794036,212.69918880006298,None,None,0,,,,,,,,,,,,,,125,19,Female,2022-05-10_12h52.45.122,Parachute,2022.1.1,59.87299742057007,
positive,blue,2,k,None,,,,,1,17,37,17,,,,,,,,,,,,,,,,,,,,,,,,,,,,,,,,,,,,,,,,,prac,None,None,1,1.4932058999547735,214.5189533000812,None,None,1,,,,,,,,,,,,,,125,19,Female,2022-05-10_12h52.45.122,Parachute,2022.1.1,59.87299742057007,
positive,blue,1,k,None,,,,,1,18,38,18,,,,,,,,,,,,,,,,,,,,,,,,,,,,,,,,,,,,,,,,,prac,None,None,1,1.4988103000214323,217.01604790007696,None,None,1,,,,,,,,,,,,,,125,19,Female,2022-05-10_12h52.45.122,Parachute,2022.1.1,59.87299742057007,
positive,yellow,1,None,k,,,,,1,19,39,19,,,,,,,,,,,,,,,,,,,,,,,,,,,,,,,,,,,,,,,,,prac,k,k,1,0.8205493000568822,219.51665340003092,None,None,0,,,,,,,,,,,,,,125,19,Female,2022-05-10_12h52.45.122,Parachute,2022.1.1,59.87299742057007,
,,,,,,,,,,,,,,,,,,,,,,,,,,,,,,,,,,,,,,,,,,,,,,,,,,,,,,,,,,,,,,221.36445470002946,None,221.36445470002946,None,0.023148147,0.0055555557,0,0,0,0.012141279992647469,None,,,125,19,Female,2022-05-10_12h52.45.122,Parachute,2022.1.1,59.87299742057007,
negative,yellow,2,k,None,,,,,,,,,0,0,0,0,,,,,,,,,,,,,,,,,,,,,,,,,,,,,,,,,232.58048220002092,None,232.58048220002092,None,main,None,None,1,1.5088091000216082,234.62002400006168,None,None,1,,,,,,,,,,,,,,125,19,Female,2022-05-10_12h52.45.122,Parachute,2022.1.1,59.87299742057007,
positive,red,1,None,None,,,,,,,,,0,1,1,1,,,,,,,,,,,,,,,,,,,,,,,,,,,,,,,,,,,,,main,None,None,1,1.498424299992621,237.13346460007597,None,None,1,,,,,,,,,,,,,,125,19,Female,2022-05-10_12h52.45.122,Parachute,2022.1.1,59.87299742057007,
positive,blue,2,k,None,,,,,,,,,0,2,2,2,,,,,,,,,,,,,,,,,,,,,,,,,,,,,,,,,,,,,main,None,None,1,1.4989726999774575,239.6333763001021,None,None,1,,,,,,,,,,,,,,125,19,Female,2022-05-10_12h52.45.122,Parachute,2022.1.1,59.87299742057007,
positive,blue,1,k,None,,,,,,,,,0,3,3,3,,,,,,,,,,,,,,,,,,,,,,,,,,,,,,,,,,,,,main,None,None,1,1.4982973000733182,242.13406230008695,None,None,1,,,,,,,,,,,,,,125,19,Female,2022-05-10_12h52.45.122,Parachute,2022.1.1,59.87299742057007,
negative,yellow,2,k,None,,,,,,,,,0,4,4,4,,,,,,,,,,,,,,,,,,,,,,,,,,,,,,,,,,,,,main,None,None,1,1.498662400059402,244.63329130003694,None,None,1,,,,,,,,,,,,,,125,19,Female,2022-05-10_12h52.45.122,Parachute,2022.1.1,59.87299742057007,
positive,yellow,2,None,k,,,,,,,,,0,5,5,5,,,,,,,,,,,,,,,,,,,,,,,,,,,,,,,,,,,,,main,k,k,1,0.9699783999240026,247.13411810004618,None,None,0,,,,,,,,,,,,,,125,19,Female,2022-05-10_12h52.45.122,Parachute,2022.1.1,59.87299742057007,
negative,blue,2,None,k,,,,,,,,,0,6,6,6,,,,,,,,,,,,,,,,,,,,,,,,,,,,,,,,,,,,,main,k,k,1,0.7988087000558153,249.10337610007264,None,None,0,,,,,,,,,,,,,,125,19,Female,2022-05-10_12h52.45.122,Parachute,2022.1.1,59.87299742057007,
positive,red,2,None,None,,,,,,,,,0,7,7,7,,,,,,,,,,,,,,,,,,,,,,,,,,,,,,,,,,,,,main,None,None,1,1.493347099982202,250.9039520000806,None,None,1,,,,,,,,,,,,,,125,19,Female,2022-05-10_12h52.45.122,Parachute,2022.1.1,59.87299742057007,
positive,yellow,1,None,k,,,,,,,,,0,8,8,8,,,,,,,,,,,,,,,,,,,,,,,,,,,,,,,,,,,,,main,k,k,1,0.9211637999396771,253.4011358000571,None,None,0,,,,,,,,,,,,,,125,19,Female,2022-05-10_12h52.45.122,Parachute,2022.1.1,59.87299742057007,
negative,red,1,None,None,,,,,,,,,0,9,9,9,,,,,,,,,,,,,,,,,,,,,,,,,,,,,,,,,,,,,main,None,None,1,1.5085791000165045,255.32114990008995,None,None,1,,,,,,,,,,,,,,125,19,Female,2022-05-10_12h52.45.122,Parachute,2022.1.1,59.87299742057007,
positive,yellow,1,None,k,,,,,,,,,0,10,10,10,,,,,,,,,,,,,,,,,,,,,,,,,,,,,,,,,,,,,main,k,k,1,0.8148013000609353,257.83297830005176,None,None,0,,,,,,,,,,,,,,125,19,Female,2022-05-10_12h52.45.122,Parachute,2022.1.1,59.87299742057007,
negative,yellow,1,k,None,,,,,,,,,0,11,11,11,,,,,,,,,,,,,,,,,,,,,,,,,,,,,,,,,,,,,main,None,None,1,1.4989809999242425,259.64976800000295,None,None,1,,,,,,,,,,,,,,125,19,Female,2022-05-10_12h52.45.122,Parachute,2022.1.1,59.87299742057007,
negative,yellow,1,k,None,,,,,,,,,0,12,12,12,,,,,,,,,,,,,,,,,,,,,,,,,,,,,,,,,,,,,main,None,None,1,1.498844499932602,262.1503821000224,None,None,1,,,,,,,,,,,,,,125,19,Female,2022-05-10_12h52.45.122,Parachute,2022.1.1,59.87299742057007,
negative,red,2,None,None,,,,,,,,,0,13,13,13,,,,,,,,,,,,,,,,,,,,,,,,,,,,,,,,,,,,,main,None,None,1,1.4984014000510797,264.6506248000078,None,None,1,,,,,,,,,,,,,,125,19,Female,2022-05-10_12h52.45.122,Parachute,2022.1.1,59.87299742057007,
positive,yellow,2,None,k,,,,,,,,,0,14,14,14,,,,,,,,,,,,,,,,,,,,,,,,,,,,,,,,,,,,,main,k,k,1,0.9043575000250712,267.15029760007747,None,None,0,,,,,,,,,,,,,,125,19,Female,2022-05-10_12h52.45.122,Parachute,2022.1.1,59.87299742057007,
positive,blue,1,k,None,,,,,,,,,0,15,15,15,,,,,,,,,,,,,,,,,,,,,,,,,,,,,,,,,,,,,main,None,None,1,1.4933668000157923,269.05394870007876,None,None,1,,,,,,,,,,,,,,125,19,Female,2022-05-10_12h52.45.122,Parachute,2022.1.1,59.87299742057007,
negative,blue,1,None,k,,,,,,,,,0,16,16,16,,,,,,,,,,,,,,,,,,,,,,,,,,,,,,,,,,,,,main,k,k,1,0.8205669999588281,271.5505857000826,None,None,0,,,,,,,,,,,,,,125,19,Female,2022-05-10_12h52.45.122,Parachute,2022.1.1,59.87299742057007,
positive,blue,2,k,None,,,,,,,,,0,17,17,17,,,,,,,,,,,,,,,,,,,,,,,,,,,,,,,,,,,,,main,None,None,1,1.4934383999789134,273.37030400009826,None,None,1,,,,,,,,,,,,,,125,19,Female,2022-05-10_12h52.45.122,Parachute,2022.1.1,59.87299742057007,
negative,blue,2,None,k,,,,,,,,,0,18,18,18,,,,,,,,,,,,,,,,,,,,,,,,,,,,,,,,,,,,,main,k,k,1,0.8311395000200719,275.8679635000881,None,None,0,,,,,,,,,,,,,,125,19,Female,2022-05-10_12h52.45.122,Parachute,2022.1.1,59.87299742057007,
negative,blue,1,None,k,,,,,,,,,0,19,19,19,,,,,,,,,,,,,,,,,,,,,,,,,,,,,,,,,,,,,main,k,k,1,0.8380338000133634,277.69974559999537,None,None,0,,,,,,,,,,,,,,125,19,Female,2022-05-10_12h52.45.122,Parachute,2022.1.1,59.87299742057007,
negative,blue,1,None,k,,,,,,,,,0,20,20,20,,,,,,,,,,,,,,,,,,,,,,,,,,,,,,,,,,,,,main,k,k,1,0.7150123999454081,279.537154700025,None,None,0,,,,,,,,,,,,,,125,19,Female,2022-05-10_12h52.45.122,Parachute,2022.1.1,59.87299742057007,
negative,blue,2,None,k,,,,,,,,,0,21,21,21,,,,,,,,,,,,,,,,,,,,,,,,,,,,,,,,,,,,,main,k,k,1,0.832463699975051,281.2541195000522,None,None,0,,,,,,,,,,,,,,125,19,Female,2022-05-10_12h52.45.122,Parachute,2022.1.1,59.87299742057007,
negative,red,1,None,None,,,,,,,,,0,22,22,22,,,,,,,,,,,,,,,,,,,,,,,,,,,,,,,,,,,,,main,None,None,1,1.4933975000167266,283.08708200010005,None,None,1,,,,,,,,,,,,,,125,19,Female,2022-05-10_12h52.45.122,Parachute,2022.1.1,59.87299742057007,
positive,red,2,None,None,,,,,,,,,0,23,23,23,,,,,,,,,,,,,,,,,,,,,,,,,,,,,,,,,,,,,main,None,None,1,1.4985730999615043,285.584769600071,None,None,1,,,,,,,,,,,,,,125,19,Female,2022-05-10_12h52.45.122,Parachute,2022.1.1,59.87299742057007,
negative,red,2,None,None,,,,,,,,,0,24,24,24,,,,,,,,,,,,,,,,,,,,,,,,,,,,,,,,,,,,,main,None,None,1,1.4982087999815121,288.08553300006315,None,None,1,,,,,,,,,,,,,,125,19,Female,2022-05-10_12h52.45.122,Parachute,2022.1.1,59.87299742057007,
positive,blue,2,k,None,,,,,,,,,0,25,25,25,,,,,,,,,,,,,,,,,,,,,,,,,,,,,,,,,,,,,main,None,None,1,1.4989243999589235,290.5845807000296,None,None,1,,,,,,,,,,,,,,125,19,Female,2022-05-10_12h52.45.122,Parachute,2022.1.1,59.87299742057007,
negative,yellow,1,k,None,,,,,,,,,0,26,26,26,,,,,,,,,,,,,,,,,,,,,,,,,,,,,,,,,,,,,main,None,k,0,0.9703428000211716,293.08531930006575,None,None,1,,,,,,,,,,,,,,125,19,Female,2022-05-10_12h52.45.122,Parachute,2022.1.1,59.87299742057007,
positive,blue,2,k,None,,,,,,,,,0,27,27,27,,,,,,,,,,,,,,,,,,,,,,,,,,,,,,,,,,,,,main,None,None,1,1.5024510000366718,296.06543539999984,None,None,1,,,,,,,,,,,,,,125,19,Female,2022-05-10_12h52.45.122,Parachute,2022.1.1,59.87299742057007,
negative,blue,2,None,k,,,,,,,,,0,28,28,28,,,,,,,,,,,,,,,,,,,,,,,,,,,,,,,,,,,,,main,k,k,1,0.7857778000179678,298.56914290005807,None,None,0,,,,,,,,,,,,,,125,19,Female,2022-05-10_12h52.45.122,Parachute,2022.1.1,59.87299742057007,
positive,red,1,None,None,,,,,,,,,0,29,29,29,,,,,,,,,,,,,,,,,,,,,,,,,,,,,,,,,,,,,main,None,None,1,1.4936230999883264,300.35362190008163,None,None,1,,,,,,,,,,,,,,125,19,Female,2022-05-10_12h52.45.122,Parachute,2022.1.1,59.87299742057007,
positive,blue,1,k,None,,,,,,,,,0,30,30,30,,,,,,,,,,,,,,,,,,,,,,,,,,,,,,,,,,,,,main,None,None,1,1.4991573999868706,302.8512451000279,None,None,1,,,,,,,,,,,,,,125,19,Female,2022-05-10_12h52.45.122,Parachute,2022.1.1,59.87299742057007,
positive,yellow,1,None,k,,,,,,,,,0,31,31,31,,,,,,,,,,,,,,,,,,,,,,,,,,,,,,,,,,,,,main,k,k,1,0.8371058000484481,305.35203770000953,None,None,0,,,,,,,,,,,,,,125,19,Female,2022-05-10_12h52.45.122,Parachute,2022.1.1,59.87299742057007,
negative,yellow,2,k,None,,,,,,,,,0,32,32,32,,,,,,,,,,,,,,,,,,,,,,,,,,,,,,,,,,,,,main,None,None,1,1.4933323999866843,307.1877282001078,None,None,1,,,,,,,,,,,,,,125,19,Female,2022-05-10_12h52.45.122,Parachute,2022.1.1,59.87299742057007,
negative,blue,1,None,k,,,,,,,,,0,33,33,33,,,,,,,,,,,,,,,,,,,,,,,,,,,,,,,,,,,,,main,k,k,1,0.8208511000266299,309.6849308999954,None,None,0,,,,,,,,,,,,,,125,19,Female,2022-05-10_12h52.45.122,Parachute,2022.1.1,59.87299742057007,
positive,blue,1,k,None,,,,,,,,,0,34,34,34,,,,,,,,,,,,,,,,,,,,,,,,,,,,,,,,,,,,,main,None,None,1,1.4933767000911757,311.5042227000231,None,None,1,,,,,,,,,,,,,,125,19,Female,2022-05-10_12h52.45.122,Parachute,2022.1.1,59.87299742057007,
negative,yellow,1,k,None,,,,,,,,,0,35,35,35,,,,,,,,,,,,,,,,,,,,,,,,,,,,,,,,,,,,,main,None,None,1,1.4981184999924153,314.0021490000654,None,None,1,,,,,,,,,,,,,,125,19,Female,2022-05-10_12h52.45.122,Parachute,2022.1.1,59.87299742057007,
positive,yellow,2,None,k,,,,,,,,,0,36,36,36,,,,,,,,,,,,,,,,,,,,,,,,,,,,,,,,,,,,,main,k,k,1,0.7539567000931129,316.5017125000013,None,None,0,,,,,,,,,,,,,,125,19,Female,2022-05-10_12h52.45.122,Parachute,2022.1.1,59.87299742057007,
positive,yellow,2,None,k,,,,,,,,,0,37,37,37,,,,,,,,,,,,,,,,,,,,,,,,,,,,,,,,,,,,,main,k,k,1,0.6964345999294892,318.25638500007335,None,None,0,,,,,,,,,,,,,,125,19,Female,2022-05-10_12h52.45.122,Parachute,2022.1.1,59.87299742057007,
negative,yellow,2,k,None,,,,,,,,,0,38,38,38,,,,,,,,,,,,,,,,,,,,,,,,,,,,,,,,,,,,,main,None,None,1,1.4941572999814525,319.9541066000238,None,None,1,,,,,,,,,,,,,,125,19,Female,2022-05-10_12h52.45.122,Parachute,2022.1.1,59.87299742057007,
positive,yellow,1,None,k,,,,,,,,,0,39,39,39,,,,,,,,,,,,,,,,,,,,,,,,,,,,,,,,,,,,,main,k,k,1,0.8868558000540361,322.4516471000388,None,None,0,,,,,,,,,,,,,,125,19,Female,2022-05-10_12h52.45.122,Parachute,2022.1.1,59.87299742057007,
negative,yellow,2,k,None,,,,,,,,,0,40,40,40,,,,,,,,,,,,,,,,,,,,,,,,,,,,,,,,,,,,,main,None,None,1,1.4936849999940023,324.33756690006703,None,None,1,,,,,,,,,,,,,,125,19,Female,2022-05-10_12h52.45.122,Parachute,2022.1.1,59.87299742057007,
positive,blue,2,k,None,,,,,,,,,0,41,41,41,,,,,,,,,,,,,,,,,,,,,,,,,,,,,,,,,,,,,main,None,None,1,1.4982260999968275,326.83492680010386,None,None,1,,,,,,,,,,,,,,125,19,Female,2022-05-10_12h52.45.122,Parachute,2022.1.1,59.87299742057007,
positive,blue,2,k,None,,,,,,,,,0,42,42,42,,,,,,,,,,,,,,,,,,,,,,,,,,,,,,,,,,,,,main,None,None,1,1.4991951000411063,329.33430460002273,None,None,1,,,,,,,,,,,,,,125,19,Female,2022-05-10_12h52.45.122,Parachute,2022.1.1,59.87299742057007,
negative,blue,2,None,k,,,,,,,,,0,43,43,43,,,,,,,,,,,,,,,,,,,,,,,,,,,,,,,,,,,,,main,k,k,1,0.7868587999837473,331.8362306000199,None,None,0,,,,,,,,,,,,,,125,19,Female,2022-05-10_12h52.45.122,Parachute,2022.1.1,59.87299742057007,
negative,red,1,None,None,,,,,,,,,0,44,44,44,,,,,,,,,,,,,,,,,,,,,,,,,,,,,,,,,,,,,main,None,None,1,1.4931355000007898,333.6214086000109,None,None,1,,,,,,,,,,,,,,125,19,Female,2022-05-10_12h52.45.122,Parachute,2022.1.1,59.87299742057007,
negative,yellow,1,k,None,,,,,,,,,0,45,45,45,,,,,,,,,,,,,,,,,,,,,,,,,,,,,,,,,,,,,main,None,None,1,1.4982164000393823,336.1189699000679,None,None,1,,,,,,,,,,,,,,125,19,Female,2022-05-10_12h52.45.122,Parachute,2022.1.1,59.87299742057007,
negative,yellow,1,k,None,,,,,,,,,0,46,46,46,,,,,,,,,,,,,,,,,,,,,,,,,,,,,,,,,,,,,main,None,None,1,1.4988805999746546,338.6185869000619,None,None,1,,,,,,,,,,,,,,125,19,Female,2022-05-10_12h52.45.122,Parachute,2022.1.1,59.87299742057007,
positive,red,1,None,None,,,,,,,,,0,47,47,47,,,,,,,,,,,,,,,,,,,,,,,,,,,,,,,,,,,,,main,None,None,1,1.4983030000003055,341.11878970009275,None,None,1,,,,,,,,,,,,,,125,19,Female,2022-05-10_12h52.45.122,Parachute,2022.1.1,59.87299742057007,
positive,yellow,1,None,k,,,,,,,,,0,48,48,48,,,,,,,,,,,,,,,,,,,,,,,,,,,,,,,,,,,,,main,k,k,1,0.7546803000150248,343.61820910009556,None,None,0,,,,,,,,,,,,,,125,19,Female,2022-05-10_12h52.45.122,Parachute,2022.1.1,59.87299742057007,
negative,blue,1,None,k,,,,,,,,,0,49,49,49,,,,,,,,,,,,,,,,,,,,,,,,,,,,,,,,,,,,,main,k,k,1,0.8319805000210181,345.37241990002804,None,None,0,,,,,,,,,,,,,,125,19,Female,2022-05-10_12h52.45.122,Parachute,2022.1.1,59.87299742057007,
positive,yellow,2,None,k,,,,,,,,,0,50,50,50,,,,,,,,,,,,,,,,,,,,,,,,,,,,,,,,,,,,,main,k,k,1,0.8986310999607667,347.2054424000671,None,None,0,,,,,,,,,,,,,,125,19,Female,2022-05-10_12h52.45.122,Parachute,2022.1.1,59.87299742057007,
negative,blue,1,None,k,,,,,,,,,0,51,51,51,,,,,,,,,,,,,,,,,,,,,,,,,,,,,,,,,,,,,main,k,k,1,0.8309101000195369,349.1060465000337,None,None,0,,,,,,,,,,,,,,125,19,Female,2022-05-10_12h52.45.122,Parachute,2022.1.1,59.87299742057007,
positive,red,2,None,None,,,,,,,,,0,52,52,52,,,,,,,,,,,,,,,,,,,,,,,,,,,,,,,,,,,,,main,None,None,1,1.4948161999927834,350.9385678000981,None,None,1,,,,,,,,,,,,,,125,19,Female,2022-05-10_12h52.45.122,Parachute,2022.1.1,59.87299742057007,
positive,yellow,2,None,k,,,,,,,,,0,53,53,53,,,,,,,,,,,,,,,,,,,,,,,,,,,,,,,,,,,,,main,k,k,1,0.8038912999909371,353.43691700010095,None,None,0,,,,,,,,,,,,,,125,19,Female,2022-05-10_12h52.45.122,Parachute,2022.1.1,59.87299742057007,
negative,red,2,None,None,,,,,,,,,0,54,54,54,,,,,,,,,,,,,,,,,,,,,,,,,,,,,,,,,,,,,main,None,None,1,1.4928225999465212,355.2395446000155,None,None,1,,,,,,,,,,,,,,125,19,Female,2022-05-10_12h52.45.122,Parachute,2022.1.1,59.87299742057007,
positive,yellow,1,None,k,,,,,,,,,0,55,55,55,,,,,,,,,,,,,,,,,,,,,,,,,,,,,,,,,,,,,main,k,k,1,0.8043926000827923,357.73582120006904,None,None,0,,,,,,,,,,,,,,125,19,Female,2022-05-10_12h52.45.122,Parachute,2022.1.1,59.87299742057007,
negative,blue,2,None,k,,,,,,,,,0,56,56,56,,,,,,,,,,,,,,,,,,,,,,,,,,,,,,,,,,,,,main,k,k,1,0.8462649999419227,359.53915730002336,None,None,0,,,,,,,,,,,,,,125,19,Female,2022-05-10_12h52.45.122,Parachute,2022.1.1,59.87299742057007,
positive,blue,1,k,None,,,,,,,,,0,57,57,57,,,,,,,,,,,,,,,,,,,,,,,,,,,,,,,,,,,,,main,None,None,1,1.4958554999902844,361.38886040006764,None,None,1,,,,,,,,,,,,,,125,19,Female,2022-05-10_12h52.45.122,Parachute,2022.1.1,59.87299742057007,
positive,blue,1,k,None,,,,,,,,,0,58,58,58,,,,,,,,,,,,,,,,,,,,,,,,,,,,,,,,,,,,,main,None,None,1,1.4980654999380931,363.88704200007487,None,None,1,,,,,,,,,,,,,,125,19,Female,2022-05-10_12h52.45.122,Parachute,2022.1.1,59.87299742057007,
negative,yellow,2,k,None,,,,,,,,,0,59,59,59,,,,,,,,,,,,,,,,,,,,,,,,,,,,,,,,,,,,,main,None,None,1,1.4991804999299347,366.38607030001003,None,None,1,,,,,,,,,,,,,,125,19,Female,2022-05-10_12h52.45.122,Parachute,2022.1.1,59.87299742057007,
positive,red,2,None,None,,,,,,,,,0,60,60,60,,,,,,,,,,,,,,,,,,,,,,,,,,,,,,,,,,,,,main,None,None,1,1.498327000066638,368.8868316001026,None,None,1,,,,,,,,,,,,,,125,19,Female,2022-05-10_12h52.45.122,Parachute,2022.1.1,59.87299742057007,
negative,yellow,1,k,None,,,,,,,,,0,61,61,61,,,,,,,,,,,,,,,,,,,,,,,,,,,,,,,,,,,,,main,None,None,1,1.4990118000423536,371.38589980010875,None,None,1,,,,,,,,,,,,,,125,19,Female,2022-05-10_12h52.45.122,Parachute,2022.1.1,59.87299742057007,
negative,red,1,None,None,,,,,,,,,0,62,62,62,,,,,,,,,,,,,,,,,,,,,,,,,,,,,,,,,,,,,main,None,None,1,1.4990272000432014,373.88602970005013,None,None,1,,,,,,,,,,,,,,125,19,Female,2022-05-10_12h52.45.122,Parachute,2022.1.1,59.87299742057007,
negative,blue,1,None,k,,,,,,,,,0,63,63,63,,,,,,,,,,,,,,,,,,,,,,,,,,,,,,,,,,,,,main,k,k,1,0.9540458000265062,376.38690210005734,None,None,0,,,,,,,,,,,,,,125,19,Female,2022-05-10_12h52.45.122,Parachute,2022.1.1,59.87299742057007,
positive,blue,2,k,None,,,,,,,,,0,64,64,64,,,,,,,,,,,,,,,,,,,,,,,,,,,,,,,,,,,,,main,None,None,1,1.493086399976164,378.33949770010076,None,None,1,,,,,,,,,,,,,,125,19,Female,2022-05-10_12h52.45.122,Parachute,2022.1.1,59.87299742057007,
negative,yellow,2,k,None,,,,,,,,,0,65,65,65,,,,,,,,,,,,,,,,,,,,,,,,,,,,,,,,,,,,,main,None,None,1,1.4991365999449044,380.83642710000277,None,None,1,,,,,,,,,,,,,,125,19,Female,2022-05-10_12h52.45.122,Parachute,2022.1.1,59.87299742057007,
positive,yellow,2,None,k,,,,,,,,,0,66,66,66,,,,,,,,,,,,,,,,,,,,,,,,,,,,,,,,,,,,,main,k,k,1,0.7356810999335721,383.33667270001024,None,None,0,,,,,,,,,,,,,,125,19,Female,2022-05-10_12h52.45.122,Parachute,2022.1.1,59.87299742057007,
positive,yellow,2,None,k,,,,,,,,,0,67,67,67,,,,,,,,,,,,,,,,,,,,,,,,,,,,,,,,,,,,,main,k,k,1,0.7826361999614164,385.0725779000204,None,None,0,,,,,,,,,,,,,,125,19,Female,2022-05-10_12h52.45.122,Parachute,2022.1.1,59.87299742057007,
positive,red,1,None,None,,,,,,,,,0,68,68,68,,,,,,,,,,,,,,,,,,,,,,,,,,,,,,,,,,,,,main,None,None,1,1.4942583999363706,386.8570320000872,None,None,1,,,,,,,,,,,,,,125,19,Female,2022-05-10_12h52.45.122,Parachute,2022.1.1,59.87299742057007,
positive,yellow,1,None,k,,,,,,,,,0,69,69,69,,,,,,,,,,,,,,,,,,,,,,,,,,,,,,,,,,,,,main,k,k,1,0.9071665999945253,389.3540997999953,None,None,0,,,,,,,,,,,,,,125,19,Female,2022-05-10_12h52.45.122,Parachute,2022.1.1,59.87299742057007,
negative,yellow,2,k,None,,,,,,,,,0,70,70,70,,,,,,,,,,,,,,,,,,,,,,,,,,,,,,,,,,,,,main,None,None,1,1.5611216999823228,391.2595768000465,None,None,1,,,,,,,,,,,,,,125,19,Female,2022-05-10_12h52.45.122,Parachute,2022.1.1,59.87299742057007,
positive,yellow,1,None,k,,,,,,,,,0,71,71,71,,,,,,,,,,,,,,,,,,,,,,,,,,,,,,,,,,,,,main,k,k,1,0.981936400057748,393.82182030007243,None,None,0,,,,,,,,,,,,,,125,19,Female,2022-05-10_12h52.45.122,Parachute,2022.1.1,59.87299742057007,
negative,blue,1,None,k,,,,,,,,,0,72,72,72,,,,,,,,,,,,,,,,,,,,,,,,,,,,,,,,,,,,,main,k,k,1,0.8131009000353515,395.8080206000013,None,None,0,,,,,,,,,,,,,,125,19,Female,2022-05-10_12h52.45.122,Parachute,2022.1.1,59.87299742057007,
negative,red,2,None,None,,,,,,,,,0,73,73,73,,,,,,,,,,,,,,,,,,,,,,,,,,,,,,,,,,,,,main,None,None,1,1.4942519000032917,397.6225687999977,None,None,1,,,,,,,,,,,,,,125,19,Female,2022-05-10_12h52.45.122,Parachute,2022.1.1,59.87299742057007,
positive,blue,2,k,None,,,,,,,,,0,74,74,74,,,,,,,,,,,,,,,,,,,,,,,,,,,,,,,,,,,,,main,None,None,1,1.4984633999411017,400.12073040008545,None,None,1,,,,,,,,,,,,,,125,19,Female,2022-05-10_12h52.45.122,Parachute,2022.1.1,59.87299742057007,
negative,blue,2,None,k,,,,,,,,,0,75,75,75,,,,,,,,,,,,,,,,,,,,,,,,,,,,,,,,,,,,,main,k,k,1,1.695651900023222,402.6227015000768,None,None,0,,,,,,,,,,,,,,125,19,Female,2022-05-10_12h52.45.122,Parachute,2022.1.1,59.87299742057007,
negative,blue,2,None,k,,,,,,,,,0,76,76,76,,,,,,,,,,,,,,,,,,,,,,,,,,,,,,,,,,,,,main,k,k,1,0.7409979999065399,406.3175604999997,None,None,0,,,,,,,,,,,,,,125,19,Female,2022-05-10_12h52.45.122,Parachute,2022.1.1,59.87299742057007,
negative,yellow,1,k,None,,,,,,,,,0,77,77,77,,,,,,,,,,,,,,,,,,,,,,,,,,,,,,,,,,,,,main,None,None,1,1.49243209999986,408.05752900009975,None,None,1,,,,,,,,,,,,,,125,19,Female,2022-05-10_12h52.45.122,Parachute,2022.1.1,59.87299742057007,
positive,blue,1,k,None,,,,,,,,,0,78,78,78,,,,,,,,,,,,,,,,,,,,,,,,,,,,,,,,,,,,,main,None,None,1,1.4988233000040054,410.55385040002875,None,None,1,,,,,,,,,,,,,,125,19,Female,2022-05-10_12h52.45.122,Parachute,2022.1.1,59.87299742057007,
positive,blue,1,k,None,,,,,,,,,0,79,79,79,,,,,,,,,,,,,,,,,,,,,,,,,,,,,,,,,,,,,main,None,None,1,1.498708099941723,413.0542078000726,None,None,1,,,,,,,,,,,,,,125,19,Female,2022-05-10_12h52.45.122,Parachute,2022.1.1,59.87299742057007,
positive,red,2,None,None,,,,,,,,,0,80,80,80,,,,,,,,,,,,,,,,,,,,,,,,,,,,,,,,,,,,,main,None,None,1,1.4980779000325128,415.5541069000028,None,None,1,,,,,,,,,,,,,,125,19,Female,2022-05-10_12h52.45.122,Parachute,2022.1.1,59.87299742057007,
positive,yellow,2,None,k,,,,,,,,,0,81,81,81,,,,,,,,,,,,,,,,,,,,,,,,,,,,,,,,,,,,,main,k,k,1,0.9045389000093564,418.05336220003664,None,None,0,,,,,,,,,,,,,,125,19,Female,2022-05-10_12h52.45.122,Parachute,2022.1.1,59.87299742057007,
positive,blue,1,k,None,,,,,,,,,0,82,82,82,,,,,,,,,,,,,,,,,,,,,,,,,,,,,,,,,,,,,main,None,None,1,1.4932944999309257,419.9567971000215,None,None,1,,,,,,,,,,,,,,125,19,Female,2022-05-10_12h52.45.122,Parachute,2022.1.1,59.87299742057007,
negative,yellow,2,k,None,,,,,,,,,0,83,83,83,,,,,,,,,,,,,,,,,,,,,,,,,,,,,,,,,,,,,main,None,None,1,1.4991052999394014,422.45420710009057,None,None,1,,,,,,,,,,,,,,125,19,Female,2022-05-10_12h52.45.122,Parachute,2022.1.1,59.87299742057007,
positive,blue,2,k,None,,,,,,,,,0,84,84,84,,,,,,,,,,,,,,,,,,,,,,,,,,,,,,,,,,,,,main,None,None,1,1.4986104000126943,424.95498540007975,None,None,1,,,,,,,,,,,,,,125,19,Female,2022-05-10_12h52.45.122,Parachute,2022.1.1,59.87299742057007,
positive,yellow,1,None,k,,,,,,,,,0,85,85,85,,,,,,,,,,,,,,,,,,,,,,,,,,,,,,,,,,,,,main,k,k,1,0.9526554000331089,427.4547270000912,None,None,0,,,,,,,,,,,,,,125,19,Female,2022-05-10_12h52.45.122,Parachute,2022.1.1,59.87299742057007,
positive,blue,2,k,None,,,,,,,,,0,86,86,86,,,,,,,,,,,,,,,,,,,,,,,,,,,,,,,,,,,,,main,None,None,1,1.4937387000536546,429.40693910000846,None,None,1,,,,,,,,,,,,,,125,19,Female,2022-05-10_12h52.45.122,Parachute,2022.1.1,59.87299742057007,
positive,blue,1,k,None,,,,,,,,,0,87,87,87,,,,,,,,,,,,,,,,,,,,,,,,,,,,,,,,,,,,,main,None,None,1,1.4987248999532312,431.9045820001047,None,None,1,,,,,,,,,,,,,,125,19,Female,2022-05-10_12h52.45.122,Parachute,2022.1.1,59.87299742057007,
negative,yellow,2,k,None,,,,,,,,,0,88,88,88,,,,,,,,,,,,,,,,,,,,,,,,,,,,,,,,,,,,,main,None,None,1,1.4989996999502182,434.4045642000856,None,None,1,,,,,,,,,,,,,,125,19,Female,2022-05-10_12h52.45.122,Parachute,2022.1.1,59.87299742057007,
negative,blue,2,None,k,,,,,,,,,0,89,89,89,,,,,,,,,,,,,,,,,,,,,,,,,,,,,,,,,,,,,main,k,k,1,1.0029334999853745,436.90438370010816,None,None,0,,,,,,,,,,,,,,125,19,Female,2022-05-10_12h52.45.122,Parachute,2022.1.1,59.87299742057007,
positive,yellow,2,None,k,,,,,,,,,0,90,90,90,,,,,,,,,,,,,,,,,,,,,,,,,,,,,,,,,,,,,main,k,k,1,0.826761299977079,438.9069258000236,None,None,0,,,,,,,,,,,,,,125,19,Female,2022-05-10_12h52.45.122,Parachute,2022.1.1,59.87299742057007,
negative,yellow,1,k,None,,,,,,,,,0,91,91,91,,,,,,,,,,,,,,,,,,,,,,,,,,,,,,,,,,,,,main,None,None,1,1.4994572999421507,440.736973100109,None,None,1,,,,,,,,,,,,,,125,19,Female,2022-05-10_12h52.45.122,Parachute,2022.1.1,59.87299742057007,
negative,red,2,None,None,,,,,,,,,0,92,92,92,,,,,,,,,,,,,,,,,,,,,,,,,,,,,,,,,,,,,main,None,None,1,1.4986742000328377,443.2377369001042,None,None,1,,,,,,,,,,,,,,125,19,Female,2022-05-10_12h52.45.122,Parachute,2022.1.1,59.87299742057007,
negative,blue,2,None,k,,,,,,,,,0,93,93,93,,,,,,,,,,,,,,,,,,,,,,,,,,,,,,,,,,,,,main,k,k,1,0.9703448999207467,445.7379121000413,None,None,0,,,,,,,,,,,,,,125,19,Female,2022-05-10_12h52.45.122,Parachute,2022.1.1,59.87299742057007,
negative,blue,1,None,k,,,,,,,,,0,94,94,94,,,,,,,,,,,,,,,,,,,,,,,,,,,,,,,,,,,,,main,k,k,1,0.8823915000539273,447.7073371000588,None,None,0,,,,,,,,,,,,,,125,19,Female,2022-05-10_12h52.45.122,Parachute,2022.1.1,59.87299742057007,
negative,blue,1,None,k,,,,,,,,,0,95,95,95,,,,,,,,,,,,,,,,,,,,,,,,,,,,,,,,,,,,,main,k,k,1,0.7656923999311402,449.5910983000649,None,None,0,,,,,,,,,,,,,,125,19,Female,2022-05-10_12h52.45.122,Parachute,2022.1.1,59.87299742057007,
negative,red,1,None,None,,,,,,,,,0,96,96,96,,,,,,,,,,,,,,,,,,,,,,,,,,,,,,,,,,,,,main,None,None,1,1.4930976000614464,451.35837700008415,None,None,1,,,,,,,,,,,,,,125,19,Female,2022-05-10_12h52.45.122,Parachute,2022.1.1,59.87299742057007,
positive,yellow,1,None,k,,,,,,,,,0,97,97,97,,,,,,,,,,,,,,,,,,,,,,,,,,,,,,,,,,,,,main,k,k,1,0.7207782999612391,453.8544192000991,None,None,0,,,,,,,,,,,,,,125,19,Female,2022-05-10_12h52.45.122,Parachute,2022.1.1,59.87299742057007,
negative,yellow,1,k,None,,,,,,,,,0,98,98,98,,,,,,,,,,,,,,,,,,,,,,,,,,,,,,,,,,,,,main,None,None,1,1.4936519000912085,455.5746025000699,None,None,1,,,,,,,,,,,,,,125,19,Female,2022-05-10_12h52.45.122,Parachute,2022.1.1,59.87299742057007,
positive,red,1,None,None,,,,,,,,,0,99,99,99,,,,,,,,,,,,,,,,,,,,,,,,,,,,,,,,,,,,,main,None,None,1,1.4984276000177488,458.0725500000408,None,None,1,,,,,,,,,,,,,,125,19,Female,2022-05-10_12h52.45.122,Parachute,2022.1.1,59.87299742057007,
positive,blue,1,k,None,,,,,,,,,0,100,100,100,,,,,,,,,,,,,,,,,,,,,,,,,,,,,,,,,,,,,main,None,None,1,1.4982851000968367,460.5719639000017,None,None,1,,,,,,,,,,,,,,125,19,Female,2022-05-10_12h52.45.122,Parachute,2022.1.1,59.87299742057007,
negative,yellow,1,k,None,,,,,,,,,0,101,101,101,,,,,,,,,,,,,,,,,,,,,,,,,,,,,,,,,,,,,main,None,None,1,1.4989158000098541,463.0712092000758,None,None,1,,,,,,,,,,,,,,125,19,Female,2022-05-10_12h52.45.122,Parachute,2022.1.1,59.87299742057007,
negative,blue,2,None,k,,,,,,,,,0,102,102,102,,,,,,,,,,,,,,,,,,,,,,,,,,,,,,,,,,,,,main,k,k,1,0.9370382000925019,465.57198010000866,None,None,0,,,,,,,,,,,,,,125,19,Female,2022-05-10_12h52.45.122,Parachute,2022.1.1,59.87299742057007,
negative,yellow,2,k,None,,,,,,,,,0,103,103,103,,,,,,,,,,,,,,,,,,,,,,,,,,,,,,,,,,,,,main,None,k,0,0.7490653999848291,467.50764990004245,None,None,1,,,,,,,,,,,,,,125,19,Female,2022-05-10_12h52.45.122,Parachute,2022.1.1,59.87299742057007,
positive,yellow,2,None,k,,,,,,,,,0,104,104,104,,,,,,,,,,,,,,,,,,,,,,,,,,,,,,,,,,,,,main,k,k,1,0.9230134000536054,470.26912240008824,None,None,0,,,,,,,,,,,,,,125,19,Female,2022-05-10_12h52.45.122,Parachute,2022.1.1,59.87299742057007,
positive,blue,1,k,None,,,,,,,,,0,105,105,105,,,,,,,,,,,,,,,,,,,,,,,,,,,,,,,,,,,,,main,None,None,1,1.494049199973233,472.1909988000989,None,None,1,,,,,,,,,,,,,,125,19,Female,2022-05-10_12h52.45.122,Parachute,2022.1.1,59.87299742057007,
positive,blue,2,k,None,,,,,,,,,0,106,106,106,,,,,,,,,,,,,,,,,,,,,,,,,,,,,,,,,,,,,main,None,None,1,1.4984768000431359,474.68887790001463,None,None,1,,,,,,,,,,,,,,125,19,Female,2022-05-10_12h52.45.122,Parachute,2022.1.1,59.87299742057007,
negative,blue,1,None,k,,,,,,,,,0,107,107,107,,,,,,,,,,,,,,,,,,,,,,,,,,,,,,,,,,,,,main,k,k,1,0.6876043000956997,477.18881469999906,None,None,0,,,,,,,,,,,,,,125,19,Female,2022-05-10_12h52.45.122,Parachute,2022.1.1,59.87299742057007,
positive,yellow,2,None,k,,,,,,,,,0,108,108,108,,,,,,,,,,,,,,,,,,,,,,,,,,,,,,,,,,,,,main,k,k,1,0.865789599949494,478.87562550010625,None,None,0,,,,,,,,,,,,,,125,19,Female,2022-05-10_12h52.45.122,Parachute,2022.1.1,59.87299742057007,
negative,yellow,1,k,None,,,,,,,,,0,109,109,109,,,,,,,,,,,,,,,,,,,,,,,,,,,,,,,,,,,,,main,None,None,1,1.492044199956581,480.7435347000137,None,None,1,,,,,,,,,,,,,,125,19,Female,2022-05-10_12h52.45.122,Parachute,2022.1.1,59.87299742057007,
negative,blue,2,None,k,,,,,,,,,0,110,110,110,,,,,,,,,,,,,,,,,,,,,,,,,,,,,,,,,,,,,main,k,k,1,0.7716127000749111,483.2387705000583,None,None,0,,,,,,,,,,,,,,125,19,Female,2022-05-10_12h52.45.122,Parachute,2022.1.1,59.87299742057007,
positive,blue,2,k,None,,,,,,,,,0,111,111,111,,,,,,,,,,,,,,,,,,,,,,,,,,,,,,,,,,,,,main,None,None,1,1.4929593000561,485.0092171001015,None,None,1,,,,,,,,,,,,,,125,19,Female,2022-05-10_12h52.45.122,Parachute,2022.1.1,59.87299742057007,
negative,blue,1,None,k,,,,,,,,,0,112,112,112,,,,,,,,,,,,,,,,,,,,,,,,,,,,,,,,,,,,,main,k,k,1,0.7369462000206113,487.5055104000494,None,None,0,,,,,,,,,,,,,,125,19,Female,2022-05-10_12h52.45.122,Parachute,2022.1.1,59.87299742057007,
positive,yellow,1,None,k,,,,,,,,,0,113,113,113,,,,,,,,,,,,,,,,,,,,,,,,,,,,,,,,,,,,,main,k,k,1,0.6827447001123801,489.24166090006474,None,None,0,,,,,,,,,,,,,,125,19,Female,2022-05-10_12h52.45.122,Parachute,2022.1.1,59.87299742057007,
negative,red,1,None,None,,,,,,,,,0,114,114,114,,,,,,,,,,,,,,,,,,,,,,,,,,,,,,,,,,,,,main,None,None,1,1.4929462000727654,490.9259402001044,None,None,1,,,,,,,,,,,,,,125,19,Female,2022-05-10_12h52.45.122,Parachute,2022.1.1,59.87299742057007,
positive,red,1,None,None,,,,,,,,,0,115,115,115,,,,,,,,,,,,,,,,,,,,,,,,,,,,,,,,,,,,,main,None,None,1,1.498773599974811,493.4226426000241,None,None,1,,,,,,,,,,,,,,125,19,Female,2022-05-10_12h52.45.122,Parachute,2022.1.1,59.87299742057007,
negative,red,2,None,None,,,,,,,,,0,116,116,116,,,,,,,,,,,,,,,,,,,,,,,,,,,,,,,,,,,,,main,None,None,1,1.4984613999258727,495.92315380007494,None,None,1,,,,,,,,,,,,,,125,19,Female,2022-05-10_12h52.45.122,Parachute,2022.1.1,59.87299742057007,
negative,yellow,2,k,None,,,,,,,,,0,117,117,117,,,,,,,,,,,,,,,,,,,,,,,,,,,,,,,,,,,,,main,None,None,1,1.4987597999861464,498.42180170002393,None,None,1,,,,,,,,,,,,,,125,19,Female,2022-05-10_12h52.45.122,Parachute,2022.1.1,59.87299742057007,
positive,yellow,1,None,k,,,,,,,,,0,118,118,118,,,,,,,,,,,,,,,,,,,,,,,,,,,,,,,,,,,,,main,k,k,1,1.037158100050874,500.92277550010476,None,None,0,,,,,,,,,,,,,,125,19,Female,2022-05-10_12h52.45.122,Parachute,2022.1.1,59.87299742057007,
positive,red,2,None,None,,,,,,,,,0,119,119,119,,,,,,,,,,,,,,,,,,,,,,,,,,,,,,,,,,,,,main,None,None,1,1.4936296999221668,502.9582450001035,None,None,1,,,,,,,,,,,,,,125,19,Female,2022-05-10_12h52.45.122,Parachute,2022.1.1,59.87299742057007,
positive,blue,2,k,None,,,,,,,,,0,120,120,120,,,,,,,,,,,,,,,,,,,,,,,,,,,,,,,,,,,,,main,None,None,1,1.4985442999750376,505.4558778000064,None,None,1,,,,,,,,,,,,,,125,19,Female,2022-05-10_12h52.45.122,Parachute,2022.1.1,59.87299742057007,
negative,red,1,None,None,,,,,,,,,0,121,121,121,,,,,,,,,,,,,,,,,,,,,,,,,,,,,,,,,,,,,main,None,None,1,1.4987762999953702,507.95579880010337,None,None,1,,,,,,,,,,,,,,125,19,Female,2022-05-10_12h52.45.122,Parachute,2022.1.1,59.87299742057007,
positive,yellow,2,None,k,,,,,,,,,0,122,122,122,,,,,,,,,,,,,,,,,,,,,,,,,,,,,,,,,,,,,main,k,k,1,0.8706651000538841,510.45531580003444,None,None,0,,,,,,,,,,,,,,125,19,Female,2022-05-10_12h52.45.122,Parachute,2022.1.1,59.87299742057007,
negative,red,2,None,None,,,,,,,,,0,123,123,123,,,,,,,,,,,,,,,,,,,,,,,,,,,,,,,,,,,,,main,None,None,1,1.493218900053762,512.3251747000031,None,None,1,,,,,,,,,,,,,,125,19,Female,2022-05-10_12h52.45.122,Parachute,2022.1.1,59.87299742057007,
negative,yellow,2,k,None,,,,,,,,,0,124,124,124,,,,,,,,,,,,,,,,,,,,,,,,,,,,,,,,,,,,,main,None,None,1,1.4987379000522196,514.822708300082,None,None,1,,,,,,,,,,,,,,125,19,Female,2022-05-10_12h52.45.122,Parachute,2022.1.1,59.87299742057007,
positive,red,1,None,None,,,,,,,,,0,125,125,125,,,,,,,,,,,,,,,,,,,,,,,,,,,,,,,,,,,,,main,None,None,1,1.4989626000169665,517.3225229000673,None,None,1,,,,,,,,,,,,,,125,19,Female,2022-05-10_12h52.45.122,Parachute,2022.1.1,59.87299742057007,
negative,blue,2,None,k,,,,,,,,,0,126,126,126,,,,,,,,,,,,,,,,,,,,,,,,,,,,,,,,,,,,,main,k,k,1,0.9709857000270858,519.8221735000843,None,None,0,,,,,,,,,,,,,,125,19,Female,2022-05-10_12h52.45.122,Parachute,2022.1.1,59.87299742057007,
negative,blue,1,None,k,,,,,,,,,0,127,127,127,,,,,,,,,,,,,,,,,,,,,,,,,,,,,,,,,,,,,main,k,k,1,0.8156980000203475,521.7928379001096,None,None,0,,,,,,,,,,,,,,125,19,Female,2022-05-10_12h52.45.122,Parachute,2022.1.1,59.87299742057007,
negative,yellow,1,k,None,,,,,,,,,0,128,128,128,,,,,,,,,,,,,,,,,,,,,,,,,,,,,,,,,,,,,main,None,None,1,1.4921857999870554,523.6115538000595,None,None,1,,,,,,,,,,,,,,125,19,Female,2022-05-10_12h52.45.122,Parachute,2022.1.1,59.87299742057007,
negative,yellow,1,k,None,,,,,,,,,0,129,129,129,,,,,,,,,,,,,,,,,,,,,,,,,,,,,,,,,,,,,main,None,None,1,1.4991676999488845,526.1068077000091,None,None,1,,,,,,,,,,,,,,125,19,Female,2022-05-10_12h52.45.122,Parachute,2022.1.1,59.87299742057007,
positive,blue,1,k,None,,,,,,,,,0,130,130,130,,,,,,,,,,,,,,,,,,,,,,,,,,,,,,,,,,,,,main,None,None,1,1.498886700021103,528.6081695000175,None,None,1,,,,,,,,,,,,,,125,19,Female,2022-05-10_12h52.45.122,Parachute,2022.1.1,59.87299742057007,
negative,blue,1,None,k,,,,,,,,,0,131,131,131,,,,,,,,,,,,,,,,,,,,,,,,,,,,,,,,,,,,,main,k,k,1,0.8037873000139371,531.1078602001071,None,None,0,,,,,,,,,,,,,,125,19,Female,2022-05-10_12h52.45.122,Parachute,2022.1.1,59.87299742057007,
negative,blue,2,None,k,,,,,,,,,0,132,132,132,,,,,,,,,,,,,,,,,,,,,,,,,,,,,,,,,,,,,main,k,k,1,0.8650130999740213,532.9089325000532,None,None,0,,,,,,,,,,,,,,125,19,Female,2022-05-10_12h52.45.122,Parachute,2022.1.1,59.87299742057007,
positive,blue,2,k,None,,,,,,,,,0,133,133,133,,,,,,,,,,,,,,,,,,,,,,,,,,,,,,,,,,,,,main,None,None,1,1.4932503999443725,534.7759904999984,None,None,1,,,,,,,,,,,,,,125,19,Female,2022-05-10_12h52.45.122,Parachute,2022.1.1,59.87299742057007,
positive,red,2,None,None,,,,,,,,,0,134,134,134,,,,,,,,,,,,,,,,,,,,,,,,,,,,,,,,,,,,,main,None,None,1,1.4984551999950781,537.2730914000422,None,None,1,,,,,,,,,,,,,,125,19,Female,2022-05-10_12h52.45.122,Parachute,2022.1.1,59.87299742057007,
negative,yellow,2,k,None,,,,,,,,,0,135,135,135,,,,,,,,,,,,,,,,,,,,,,,,,,,,,,,,,,,,,main,None,None,1,1.4991641000378877,539.7729132000823,None,None,1,,,,,,,,,,,,,,125,19,Female,2022-05-10_12h52.45.122,Parachute,2022.1.1,59.87299742057007,
positive,yellow,2,None,k,,,,,,,,,0,136,136,136,,,,,,,,,,,,,,,,,,,,,,,,,,,,,,,,,,,,,main,k,k,1,0.7649506999878213,542.2732802000828,None,None,0,,,,,,,,,,,,,,125,19,Female,2022-05-10_12h52.45.122,Parachute,2022.1.1,59.87299742057007,
positive,blue,1,k,None,,,,,,,,,0,137,137,137,,,,,,,,,,,,,,,,,,,,,,,,,,,,,,,,,,,,,main,None,None,1,1.4997123000212014,544.0396501000505,None,None,1,,,,,,,,,,,,,,125,19,Female,2022-05-10_12h52.45.122,Parachute,2022.1.1,59.87299742057007,
positive,yellow,1,None,k,,,,,,,,,0,138,138,138,,,,,,,,,,,,,,,,,,,,,,,,,,,,,,,,,,,,,main,k,k,1,0.7702533999690786,546.5411241000984,None,None,0,,,,,,,,,,,,,,125,19,Female,2022-05-10_12h52.45.122,Parachute,2022.1.1,59.87299742057007,
positive,yellow,1,None,k,,,,,,,,,0,139,139,139,,,,,,,,,,,,,,,,,,,,,,,,,,,,,,,,,,,,,main,k,k,1,0.692619200097397,548.3097606000956,None,None,0,,,,,,,,,,,,,,125,19,Female,2022-05-10_12h52.45.122,Parachute,2022.1.1,59.87299742057007,
positive,yellow,1,None,k,,,,,,,,,0,140,140,140,,,,,,,,,,,,,,,,,,,,,,,,,,,,,,,,,,,,,main,k,k,1,0.6877416000934318,550.007001100108,None,None,0,,,,,,,,,,,,,,125,19,Female,2022-05-10_12h52.45.122,Parachute,2022.1.1,59.87299742057007,
positive,blue,1,k,None,,,,,,,,,0,141,141,141,,,,,,,,,,,,,,,,,,,,,,,,,,,,,,,,,,,,,main,None,None,1,1.493716900004074,551.6947745000944,None,None,1,,,,,,,,,,,,,,125,19,Female,2022-05-10_12h52.45.122,Parachute,2022.1.1,59.87299742057007,
positive,blue,2,k,None,,,,,,,,,0,142,142,142,,,,,,,,,,,,,,,,,,,,,,,,,,,,,,,,,,,,,main,None,None,1,1.4983683999162167,554.1917435000651,None,None,1,,,,,,,,,,,,,,125,19,Female,2022-05-10_12h52.45.122,Parachute,2022.1.1,59.87299742057007,
positive,yellow,2,None,k,,,,,,,,,0,143,143,143,,,,,,,,,,,,,,,,,,,,,,,,,,,,,,,,,,,,,main,k,k,1,0.8046170000452548,556.6915565000381,None,None,0,,,,,,,,,,,,,,125,19,Female,2022-05-10_12h52.45.122,Parachute,2022.1.1,59.87299742057007,
negative,yellow,2,k,None,,,,,,,,,0,144,144,144,,,,,,,,,,,,,,,,,,,,,,,,,,,,,,,,,,,,,main,None,None,1,1.4929427000461146,558.4938494000817,None,None,1,,,,,,,,,,,,,,125,19,Female,2022-05-10_12h52.45.122,Parachute,2022.1.1,59.87299742057007,
negative,blue,2,None,k,,,,,,,,,0,145,145,145,,,,,,,,,,,,,,,,,,,,,,,,,,,,,,,,,,,,,main,k,k,1,0.9870850000297651,560.9897882000078,None,None,0,,,,,,,,,,,,,,125,19,Female,2022-05-10_12h52.45.122,Parachute,2022.1.1,59.87299742057007,
negative,red,1,None,None,,,,,,,,,0,146,146,146,,,,,,,,,,,,,,,,,,,,,,,,,,,,,,,,,,,,,main,None,None,1,1.4933045000070706,562.9763422000688,None,None,1,,,,,,,,,,,,,,125,19,Female,2022-05-10_12h52.45.122,Parachute,2022.1.1,59.87299742057007,
positive,blue,1,k,None,,,,,,,,,0,147,147,147,,,,,,,,,,,,,,,,,,,,,,,,,,,,,,,,,,,,,main,None,None,1,1.4994982000207528,565.473485100083,None,None,1,,,,,,,,,,,,,,125,19,Female,2022-05-10_12h52.45.122,Parachute,2022.1.1,59.87299742057007,
positive,yellow,1,None,k,,,,,,,,,0,148,148,148,,,,,,,,,,,,,,,,,,,,,,,,,,,,,,,,,,,,,main,k,k,1,0.9021305000642315,567.9742966000922,None,None,0,,,,,,,,,,,,,,125,19,Female,2022-05-10_12h52.45.122,Parachute,2022.1.1,59.87299742057007,
negative,red,2,None,None,,,,,,,,,0,149,149,149,,,,,,,,,,,,,,,,,,,,,,,,,,,,,,,,,,,,,main,None,None,1,1.4951322000706568,569.8868125000736,None,None,1,,,,,,,,,,,,,,125,19,Female,2022-05-10_12h52.45.122,Parachute,2022.1.1,59.87299742057007,
negative,blue,1,None,k,,,,,,,,,0,150,150,150,,,,,,,,,,,,,,,,,,,,,,,,,,,,,,,,,,,,,main,k,k,1,0.6858710999367759,572.3743601000169,None,None,0,,,,,,,,,,,,,,125,19,Female,2022-05-10_12h52.45.122,Parachute,2022.1.1,59.87299742057007,
negative,yellow,2,k,None,,,,,,,,,0,151,151,151,,,,,,,,,,,,,,,,,,,,,,,,,,,,,,,,,,,,,main,None,None,1,1.4943853999720886,574.0600181000773,None,None,1,,,,,,,,,,,,,,125,19,Female,2022-05-10_12h52.45.122,Parachute,2022.1.1,59.87299742057007,
negative,blue,2,None,k,,,,,,,,,0,152,152,152,,,,,,,,,,,,,,,,,,,,,,,,,,,,,,,,,,,,,main,k,k,1,0.7547041999641806,576.5571592000779,None,None,0,,,,,,,,,,,,,,125,19,Female,2022-05-10_12h52.45.122,Parachute,2022.1.1,59.87299742057007,
negative,yellow,1,k,None,,,,,,,,,0,153,153,153,,,,,,,,,,,,,,,,,,,,,,,,,,,,,,,,,,,,,main,None,None,1,1.4927627999568358,578.3110364000313,None,None,1,,,,,,,,,,,,,,125,19,Female,2022-05-10_12h52.45.122,Parachute,2022.1.1,59.87299742057007,
negative,blue,1,None,k,,,,,,,,,0,154,154,154,,,,,,,,,,,,,,,,,,,,,,,,,,,,,,,,,,,,,main,k,k,1,0.7875463999807835,580.8073480000021,None,None,0,,,,,,,,,,,,,,125,19,Female,2022-05-10_12h52.45.122,Parachute,2022.1.1,59.87299742057007,
positive,yellow,2,None,k,,,,,,,,,0,155,155,155,,,,,,,,,,,,,,,,,,,,,,,,,,,,,,,,,,,,,main,k,k,1,1.2486539999954402,582.5939653000096,None,None,0,,,,,,,,,,,,,,125,19,Female,2022-05-10_12h52.45.122,Parachute,2022.1.1,59.87299742057007,
positive,red,2,None,None,,,,,,,,,0,156,156,156,,,,,,,,,,,,,,,,,,,,,,,,,,,,,,,,,,,,,main,None,None,1,1.493559499969706,584.843714900082,None,None,1,,,,,,,,,,,,,,125,19,Female,2022-05-10_12h52.45.122,Parachute,2022.1.1,59.87299742057007,
positive,red,1,None,None,,,,,,,,,0,157,157,157,,,,,,,,,,,,,,,,,,,,,,,,,,,,,,,,,,,,,main,None,None,1,1.498423399985768,587.3418114000233,None,None,1,,,,,,,,,,,,,,125,19,Female,2022-05-10_12h52.45.122,Parachute,2022.1.1,59.87299742057007,
positive,blue,2,k,None,,,,,,,,,0,158,158,158,,,,,,,,,,,,,,,,,,,,,,,,,,,,,,,,,,,,,main,None,None,1,1.4989541999530047,589.8412628000369,None,None,1,,,,,,,,,,,,,,125,19,Female,2022-05-10_12h52.45.122,Parachute,2022.1.1,59.87299742057007,
negative,yellow,1,k,None,,,,,,,,,0,159,159,159,,,,,,,,,,,,,,,,,,,,,,,,,,,,,,,,,,,,,main,None,None,1,1.4982495000585914,592.3416037000716,None,None,1,,,,,,,,,,,,,,125,19,Female,2022-05-10_12h52.45.122,Parachute,2022.1.1,59.87299742057007,
negative,red,2,None,None,,,,,,,,,0,160,160,160,,,,,,,,,,,,,,,,,,,,,,,,,,,,,,,,,,,,,main,None,None,1,1.4987516000401229,594.8410271001048,None,None,1,,,,,,,,,,,,,,125,19,Female,2022-05-10_12h52.45.122,Parachute,2022.1.1,59.87299742057007,
negative,blue,1,None,k,,,,,,,,,0,161,161,161,,,,,,,,,,,,,,,,,,,,,,,,,,,,,,,,,,,,,main,k,k,1,0.837101599900052,597.3410540000768,None,None,0,,,,,,,,,,,,,,125,19,Female,2022-05-10_12h52.45.122,Parachute,2022.1.1,59.87299742057007,
negative,blue,1,None,k,,,,,,,,,0,162,162,162,,,,,,,,,,,,,,,,,,,,,,,,,,,,,,,,,,,,,main,k,k,1,0.6988707999698818,599.177357400069,None,None,0,,,,,,,,,,,,,,125,19,Female,2022-05-10_12h52.45.122,Parachute,2022.1.1,59.87299742057007,
negative,yellow,1,k,None,,,,,,,,,0,163,163,163,,,,,,,,,,,,,,,,,,,,,,,,,,,,,,,,,,,,,main,None,None,1,1.4939471000107005,600.8771787000587,None,None,1,,,,,,,,,,,,,,125,19,Female,2022-05-10_12h52.45.122,Parachute,2022.1.1,59.87299742057007,
negative,yellow,1,k,None,,,,,,,,,0,164,164,164,,,,,,,,,,,,,,,,,,,,,,,,,,,,,,,,,,,,,main,None,None,1,1.4979387000203133,603.3758111000061,None,None,1,,,,,,,,,,,,,,125,19,Female,2022-05-10_12h52.45.122,Parachute,2022.1.1,59.87299742057007,
positive,yellow,1,None,k,,,,,,,,,0,165,165,165,,,,,,,,,,,,,,,,,,,,,,,,,,,,,,,,,,,,,main,k,k,1,0.8214753000065684,605.8741259000963,None,None,0,,,,,,,,,,,,,,125,19,Female,2022-05-10_12h52.45.122,Parachute,2022.1.1,59.87299742057007,
negative,red,1,None,None,,,,,,,,,0,166,166,166,,,,,,,,,,,,,,,,,,,,,,,,,,,,,,,,,,,,,main,None,None,1,1.4926833000499755,607.6950815001037,None,None,1,,,,,,,,,,,,,,125,19,Female,2022-05-10_12h52.45.122,Parachute,2022.1.1,59.87299742057007,
negative,yellow,2,k,None,,,,,,,,,0,167,167,167,,,,,,,,,,,,,,,,,,,,,,,,,,,,,,,,,,,,,main,None,None,1,1.498845100053586,610.191499800072,None,None,1,,,,,,,,,,,,,,125,19,Female,2022-05-10_12h52.45.122,Parachute,2022.1.1,59.87299742057007,
positive,blue,2,k,None,,,,,,,,,0,168,168,168,,,,,,,,,,,,,,,,,,,,,,,,,,,,,,,,,,,,,main,None,None,1,1.4985561000648886,612.6913986,None,None,1,,,,,,,,,,,,,,125,19,Female,2022-05-10_12h52.45.122,Parachute,2022.1.1,59.87299742057007,
positive,red,2,None,None,,,,,,,,,0,169,169,169,,,,,,,,,,,,,,,,,,,,,,,,,,,,,,,,,,,,,main,None,None,1,1.498801299952902,615.1918869999936,None,None,1,,,,,,,,,,,,,,125,19,Female,2022-05-10_12h52.45.122,Parachute,2022.1.1,59.87299742057007,
positive,red,1,None,None,,,,,,,,,0,170,170,170,,,,,,,,,,,,,,,,,,,,,,,,,,,,,,,,,,,,,main,None,None,1,1.4991907000076026,617.6913151000626,None,None,1,,,,,,,,,,,,,,125,19,Female,2022-05-10_12h52.45.122,Parachute,2022.1.1,59.87299742057007,
negative,blue,2,None,k,,,,,,,,,0,171,171,171,,,,,,,,,,,,,,,,,,,,,,,,,,,,,,,,,,,,,main,k,k,1,0.853608199977316,620.1920119000133,None,None,0,,,,,,,,,,,,,,125,19,Female,2022-05-10_12h52.45.122,Parachute,2022.1.1,59.87299742057007,
positive,blue,2,k,None,,,,,,,,,0,172,172,172,,,,,,,,,,,,,,,,,,,,,,,,,,,,,,,,,,,,,main,None,None,1,1.4940275000408292,622.0442550000735,None,None,1,,,,,,,,,,,,,,125,19,Female,2022-05-10_12h52.45.122,Parachute,2022.1.1,59.87299742057007,
negative,yellow,2,k,None,,,,,,,,,0,173,173,173,,,,,,,,,,,,,,,,,,,,,,,,,,,,,,,,,,,,,main,None,None,1,1.4984708999982104,624.5425284000812,None,None,1,,,,,,,,,,,,,,125,19,Female,2022-05-10_12h52.45.122,Parachute,2022.1.1,59.87299742057007,
positive,yellow,2,None,k,,,,,,,,,0,174,174,174,,,,,,,,,,,,,,,,,,,,,,,,,,,,,,,,,,,,,main,k,k,1,0.7696380000561476,627.0434683000203,None,None,0,,,,,,,,,,,,,,125,19,Female,2022-05-10_12h52.45.122,Parachute,2022.1.1,59.87299742057007,
negative,blue,2,None,k,,,,,,,,,0,175,175,175,,,,,,,,,,,,,,,,,,,,,,,,,,,,,,,,,,,,,main,k,k,1,0.7152944999979809,628.8111585000297,None,None,0,,,,,,,,,,,,,,125,19,Female,2022-05-10_12h52.45.122,Parachute,2022.1.1,59.87299742057007,
positive,blue,1,k,None,,,,,,,,,0,176,176,176,,,,,,,,,,,,,,,,,,,,,,,,,,,,,,,,,,,,,main,None,None,1,1.4935240000486374,630.5281366000418,None,None,1,,,,,,,,,,,,,,125,19,Female,2022-05-10_12h52.45.122,Parachute,2022.1.1,59.87299742057007,
positive,yellow,1,None,k,,,,,,,,,0,177,177,177,,,,,,,,,,,,,,,,,,,,,,,,,,,,,,,,,,,,,main,k,k,1,0.8382045000325888,633.0250365000684,None,None,0,,,,,,,,,,,,,,125,19,Female,2022-05-10_12h52.45.122,Parachute,2022.1.1,59.87299742057007,
positive,blue,1,k,None,,,,,,,,,0,178,178,178,,,,,,,,,,,,,,,,,,,,,,,,,,,,,,,,,,,,,main,None,None,1,1.4922289999667555,634.8627896000398,None,None,1,,,,,,,,,,,,,,125,19,Female,2022-05-10_12h52.45.122,Parachute,2022.1.1,59.87299742057007,
positive,yellow,2,None,k,,,,,,,,,0,179,179,179,,,,,,,,,,,,,,,,,,,,,,,,,,,,,,,,,,,,,main,k,k,1,0.9051777001004666,637.3589305001078,None,None,0,,,,,,,,,,,,,,125,19,Female,2022-05-10_12h52.45.122,Parachute,2022.1.1,59.87299742057007,
positive,blue,1,k,None,,,,,,,,,0,180,180,180,,,,,,,,,,,,,,,,,,,,,,,,,,,,,,,,,,,,,main,None,None,1,1.4920017999829724,639.2629340999993,None,None,1,,,,,,,,,,,,,,125,19,Female,2022-05-10_12h52.45.122,Parachute,2022.1.1,59.87299742057007,
negative,red,1,None,None,,,,,,,,,0,181,181,181,,,,,,,,,,,,,,,,,,,,,,,,,,,,,,,,,,,,,main,None,None,1,1.4987963000312448,641.7583845000481,None,None,1,,,,,,,,,,,,,,125,19,Female,2022-05-10_12h52.45.122,Parachute,2022.1.1,59.87299742057007,
negative,blue,1,None,k,,,,,,,,,0,182,182,182,,,,,,,,,,,,,,,,,,,,,,,,,,,,,,,,,,,,,main,k,k,1,0.8539630000013858,644.2587437001057,None,None,0,,,,,,,,,,,,,,125,19,Female,2022-05-10_12h52.45.122,Parachute,2022.1.1,59.87299742057007,
negative,yellow,2,k,None,,,,,,,,,0,183,183,183,,,,,,,,,,,,,,,,,,,,,,,,,,,,,,,,,,,,,main,None,None,1,1.4934766000369564,646.111554400064,None,None,1,,,,,,,,,,,,,,125,19,Female,2022-05-10_12h52.45.122,Parachute,2022.1.1,59.87299742057007,
positive,yellow,2,None,k,,,,,,,,,0,184,184,184,,,,,,,,,,,,,,,,,,,,,,,,,,,,,,,,,,,,,main,k,k,1,0.8189458000706509,648.6094781000866,None,None,0,,,,,,,,,,,,,,125,19,Female,2022-05-10_12h52.45.122,Parachute,2022.1.1,59.87299742057007,
positive,yellow,1,None,k,,,,,,,,,0,185,185,185,,,,,,,,,,,,,,,,,,,,,,,,,,,,,,,,,,,,,main,k,k,1,0.9504958000034094,650.428186000092,None,None,0,,,,,,,,,,,,,,125,19,Female,2022-05-10_12h52.45.122,Parachute,2022.1.1,59.87299742057007,
positive,red,2,None,None,,,,,,,,,0,186,186,186,,,,,,,,,,,,,,,,,,,,,,,,,,,,,,,,,,,,,main,None,None,1,1.4926645999075845,652.378799200058,None,None,1,,,,,,,,,,,,,,125,19,Female,2022-05-10_12h52.45.122,Parachute,2022.1.1,59.87299742057007,
positive,blue,1,k,None,,,,,,,,,0,187,187,187,,,,,,,,,,,,,,,,,,,,,,,,,,,,,,,,,,,,,main,None,None,1,1.499184099957347,654.875881700078,None,None,1,,,,,,,,,,,,,,125,19,Female,2022-05-10_12h52.45.122,Parachute,2022.1.1,59.87299742057007,
negative,yellow,1,k,None,,,,,,,,,0,188,188,188,,,,,,,,,,,,,,,,,,,,,,,,,,,,,,,,,,,,,main,None,None,1,1.4989521999377757,657.375968700042,None,None,1,,,,,,,,,,,,,,125,19,Female,2022-05-10_12h52.45.122,Parachute,2022.1.1,59.87299742057007,
positive,yellow,2,None,k,,,,,,,,,0,189,189,189,,,,,,,,,,,,,,,,,,,,,,,,,,,,,,,,,,,,,main,k,k,1,0.7710744000505656,659.8768195000011,None,None,0,,,,,,,,,,,,,,125,19,Female,2022-05-10_12h52.45.122,Parachute,2022.1.1,59.87299742057007,
negative,yellow,2,k,None,,,,,,,,,0,190,190,190,,,,,,,,,,,,,,,,,,,,,,,,,,,,,,,,,,,,,main,None,None,1,1.4925590000348166,661.6464086000342,None,None,1,,,,,,,,,,,,,,125,19,Female,2022-05-10_12h52.45.122,Parachute,2022.1.1,59.87299742057007,
negative,yellow,1,k,None,,,,,,,,,0,191,191,191,,,,,,,,,,,,,,,,,,,,,,,,,,,,,,,,,,,,,main,None,None,1,1.4988508999813348,664.1429831000278,None,None,1,,,,,,,,,,,,,,125,19,Female,2022-05-10_12h52.45.122,Parachute,2022.1.1,59.87299742057007,
positive,blue,2,k,None,,,,,,,,,0,192,192,192,,,,,,,,,,,,,,,,,,,,,,,,,,,,,,,,,,,,,main,None,None,1,1.4992765999631956,666.6433890000917,None,None,1,,,,,,,,,,,,,,125,19,Female,2022-05-10_12h52.45.122,Parachute,2022.1.1,59.87299742057007,
positive,yellow,1,None,k,,,,,,,,,0,193,193,193,,,,,,,,,,,,,,,,,,,,,,,,,,,,,,,,,,,,,main,k,k,1,0.7040275000035763,669.1438702000305,None,None,0,,,,,,,,,,,,,,125,19,Female,2022-05-10_12h52.45.122,Parachute,2022.1.1,59.87299742057007,
negative,red,2,None,None,,,,,,,,,0,194,194,194,,,,,,,,,,,,,,,,,,,,,,,,,,,,,,,,,,,,,main,None,None,1,1.4929617000743747,670.8459495001007,None,None,1,,,,,,,,,,,,,,125,19,Female,2022-05-10_12h52.45.122,Parachute,2022.1.1,59.87299742057007,
positive,red,1,None,None,,,,,,,,,0,195,195,195,,,,,,,,,,,,,,,,,,,,,,,,,,,,,,,,,,,,,main,None,None,1,1.4985438999719918,673.344702100032,None,None,1,,,,,,,,,,,,,,125,19,Female,2022-05-10_12h52.45.122,Parachute,2022.1.1,59.87299742057007,
negative,blue,1,None,k,,,,,,,,,0,196,196,196,,,,,,,,,,,,,,,,,,,,,,,,,,,,,,,,,,,,,main,k,k,1,0.9700682000257075,675.8437284000684,None,None,0,,,,,,,,,,,,,,125,19,Female,2022-05-10_12h52.45.122,Parachute,2022.1.1,59.87299742057007,
positive,blue,2,k,None,,,,,,,,,0,197,197,197,,,,,,,,,,,,,,,,,,,,,,,,,,,,,,,,,,,,,main,None,None,1,1.4941205999348313,677.8124609000515,None,None,1,,,,,,,,,,,,,,125,19,Female,2022-05-10_12h52.45.122,Parachute,2022.1.1,59.87299742057007,
negative,blue,2,None,k,,,,,,,,,0,198,198,198,,,,,,,,,,,,,,,,,,,,,,,,,,,,,,,,,,,,,main,k,k,1,1.0039816999342293,680.3097340000095,None,None,0,,,,,,,,,,,,,,125,19,Female,2022-05-10_12h52.45.122,Parachute,2022.1.1,59.87299742057007,
negative,blue,2,None,k,,,,,,,,,0,199,199,199,,,,,,,,,,,,,,,,,,,,,,,,,,,,,,,,,,,,,main,k,k,1,0.7157979999901727,682.3126299000578,None,None,0,,,,,,,,,,,,,,125,19,Female,2022-05-10_12h52.45.122,Parachute,2022.1.1,59.87299742057007,
positive,blue,2,k,None,,,,,,,,,0,200,200,200,,,,,,,,,,,,,,,,,,,,,,,,,,,,,,,,,,,,,main,None,None,1,1.4930685999570414,684.0297770000761,None,None,1,,,,,,,,,,,,,,125,19,Female,2022-05-10_12h52.45.122,Parachute,2022.1.1,59.87299742057007,
positive,blue,2,k,None,,,,,,,,,0,201,201,201,,,,,,,,,,,,,,,,,,,,,,,,,,,,,,,,,,,,,main,None,None,1,1.4990938999690115,686.5268131000921,None,None,1,,,,,,,,,,,,,,125,19,Female,2022-05-10_12h52.45.122,Parachute,2022.1.1,59.87299742057007,
negative,yellow,2,k,None,,,,,,,,,0,202,202,202,,,,,,,,,,,,,,,,,,,,,,,,,,,,,,,,,,,,,main,None,k,0,0.6867615999653935,689.026847000001,None,None,1,,,,,,,,,,,,,,125,19,Female,2022-05-10_12h52.45.122,Parachute,2022.1.1,59.87299742057007,
positive,red,1,None,None,,,,,,,,,0,203,203,203,,,,,,,,,,,,,,,,,,,,,,,,,,,,,,,,,,,,,main,None,None,1,1.5023117000237107,691.7239326999988,None,None,1,,,,,,,,,,,,,,125,19,Female,2022-05-10_12h52.45.122,Parachute,2022.1.1,59.87299742057007,
negative,blue,2,None,k,,,,,,,,,0,204,204,204,,,,,,,,,,,,,,,,,,,,,,,,,,,,,,,,,,,,,main,k,k,1,1.0373017000965774,694.2274901000783,None,None,0,,,,,,,,,,,,,,125,19,Female,2022-05-10_12h52.45.122,Parachute,2022.1.1,59.87299742057007,
negative,red,1,None,None,,,,,,,,,0,205,205,205,,,,,,,,,,,,,,,,,,,,,,,,,,,,,,,,,,,,,main,None,None,1,1.4935720999492332,696.2631675000302,None,None,1,,,,,,,,,,,,,,125,19,Female,2022-05-10_12h52.45.122,Parachute,2022.1.1,59.87299742057007,
negative,blue,2,None,k,,,,,,,,,0,206,206,206,,,,,,,,,,,,,,,,,,,,,,,,,,,,,,,,,,,,,main,k,k,1,1.1805517999455333,698.7611079000635,None,None,0,,,,,,,,,,,,,,125,19,Female,2022-05-10_12h52.45.122,Parachute,2022.1.1,59.87299742057007,
negative,yellow,2,k,None,,,,,,,,,0,207,207,207,,,,,,,,,,,,,,,,,,,,,,,,,,,,,,,,,,,,,main,None,None,1,1.5000415000831708,700.9420521000866,None,None,1,,,,,,,,,,,,,,125,19,Female,2022-05-10_12h52.45.122,Parachute,2022.1.1,59.87299742057007,
positive,yellow,2,None,k,,,,,,,,,0,208,208,208,,,,,,,,,,,,,,,,,,,,,,,,,,,,,,,,,,,,,main,k,k,1,0.7536931000649929,703.4436712000752,None,None,0,,,,,,,,,,,,,,125,19,Female,2022-05-10_12h52.45.122,Parachute,2022.1.1,59.87299742057007,
negative,yellow,1,k,None,,,,,,,,,0,209,209,209,,,,,,,,,,,,,,,,,,,,,,,,,,,,,,,,,,,,,main,None,None,1,1.4935564999468625,705.1961439000443,None,None,1,,,,,,,,,,,,,,125,19,Female,2022-05-10_12h52.45.122,Parachute,2022.1.1,59.87299742057007,
negative,red,2,None,None,,,,,,,,,0,210,210,210,,,,,,,,,,,,,,,,,,,,,,,,,,,,,,,,,,,,,main,None,None,1,1.4984367999713868,707.6940334000392,None,None,1,,,,,,,,,,,,,,125,19,Female,2022-05-10_12h52.45.122,Parachute,2022.1.1,59.87299742057007,
negative,blue,1,None,k,,,,,,,,,0,211,211,211,,,,,,,,,,,,,,,,,,,,,,,,,,,,,,,,,,,,,main,k,k,1,1.6213702000677586,710.1935157000553,None,None,0,,,,,,,,,,,,,,125,19,Female,2022-05-10_12h52.45.122,Parachute,2022.1.1,59.87299742057007,
negative,yellow,1,k,None,,,,,,,,,0,212,212,212,,,,,,,,,,,,,,,,,,,,,,,,,,,,,,,,,,,,,main,None,None,1,1.5018297000788152,713.8247327000136,None,None,1,,,,,,,,,,,,,,125,19,Female,2022-05-10_12h52.45.122,Parachute,2022.1.1,59.87299742057007,
positive,blue,1,k,None,,,,,,,,,0,213,213,213,,,,,,,,,,,,,,,,,,,,,,,,,,,,,,,,,,,,,main,None,None,1,1.4982663000700995,716.3279746000189,None,None,1,,,,,,,,,,,,,,125,19,Female,2022-05-10_12h52.45.122,Parachute,2022.1.1,59.87299742057007,
positive,blue,1,k,None,,,,,,,,,0,214,214,214,,,,,,,,,,,,,,,,,,,,,,,,,,,,,,,,,,,,,main,None,None,1,1.498978800023906,718.827814700082,None,None,1,,,,,,,,,,,,,,125,19,Female,2022-05-10_12h52.45.122,Parachute,2022.1.1,59.87299742057007,
positive,yellow,1,None,k,,,,,,,,,0,215,215,215,,,,,,,,,,,,,,,,,,,,,,,,,,,,,,,,,,,,,main,k,k,1,0.7376002999953926,721.3279632000485,None,None,0,,,,,,,,,,,,,,125,19,Female,2022-05-10_12h52.45.122,Parachute,2022.1.1,59.87299742057007,
positive,yellow,1,None,k,,,,,,,,,0,216,216,216,,,,,,,,,,,,,,,,,,,,,,,,,,,,,,,,,,,,,main,k,k,1,0.6649218000238761,723.0649945000187,None,None,0,,,,,,,,,,,,,,125,19,Female,2022-05-10_12h52.45.122,Parachute,2022.1.1,59.87299742057007,
positive,yellow,2,None,k,,,,,,,,,0,217,217,217,,,,,,,,,,,,,,,,,,,,,,,,,,,,,,,,,,,,,main,k,k,1,1.0652844000142068,724.7301970000844,None,None,0,,,,,,,,,,,,,,125,19,Female,2022-05-10_12h52.45.122,Parachute,2022.1.1,59.87299742057007,
negative,blue,1,None,k,,,,,,,,,0,218,218,218,,,,,,,,,,,,,,,,,,,,,,,,,,,,,,,,,,,,,main,k,k,1,0.8155514999525622,726.796585700009,None,None,0,,,,,,,,,,,,,,125,19,Female,2022-05-10_12h52.45.122,Parachute,2022.1.1,59.87299742057007,
positive,red,2,None,None,,,,,,,,,0,219,219,219,,,,,,,,,,,,,,,,,,,,,,,,,,,,,,,,,,,,,main,None,None,1,1.4937744999770075,728.6142189000966,None,None,1,,,,,,,,,,,,,,125,19,Female,2022-05-10_12h52.45.122,Parachute,2022.1.1,59.87299742057007,
positive,yellow,1,None,k,,,,,,,,,0,220,220,220,,,,,,,,,,,,,,,,,,,,,,,,,,,,,,,,,,,,,main,k,k,1,1.3422435000538826,731.1127342000837,None,None,0,,,,,,,,,,,,,,125,19,Female,2022-05-10_12h52.45.122,Parachute,2022.1.1,59.87299742057007,
positive,blue,1,k,None,,,,,,,,,0,221,221,221,,,,,,,,,,,,,,,,,,,,,,,,,,,,,,,,,,,,,main,None,None,1,1.5034098000032827,733.4547501000343,None,None,1,,,,,,,,,,,,,,125,19,Female,2022-05-10_12h52.45.122,Parachute,2022.1.1,59.87299742057007,
positive,yellow,2,None,k,,,,,,,,,0,222,222,222,,,,,,,,,,,,,,,,,,,,,,,,,,,,,,,,,,,,,main,k,k,1,0.7881846000673249,735.9618513000896,None,None,0,,,,,,,,,,,,,,125,19,Female,2022-05-10_12h52.45.122,Parachute,2022.1.1,59.87299742057007,
negative,yellow,1,k,None,,,,,,,,,0,223,223,223,,,,,,,,,,,,,,,,,,,,,,,,,,,,,,,,,,,,,main,None,None,1,1.5097883000271395,737.7490475000814,None,None,1,,,,,,,,,,,,,,125,19,Female,2022-05-10_12h52.45.122,Parachute,2022.1.1,59.87299742057007,
positive,yellow,2,None,k,,,,,,,,,0,224,224,224,,,,,,,,,,,,,,,,,,,,,,,,,,,,,,,,,,,,,main,k,k,1,0.6025841000955552,740.2626804000465,None,None,0,,,,,,,,,,,,,,125,19,Female,2022-05-10_12h52.45.122,Parachute,2022.1.1,59.87299742057007,
negative,yellow,2,k,None,,,,,,,,,0,225,225,225,,,,,,,,,,,,,,,,,,,,,,,,,,,,,,,,,,,,,main,None,None,1,1.4930582999950275,741.8643242000835,None,None,1,,,,,,,,,,,,,,125,19,Female,2022-05-10_12h52.45.122,Parachute,2022.1.1,59.87299742057007,
negative,blue,2,None,k,,,,,,,,,0,226,226,226,,,,,,,,,,,,,,,,,,,,,,,,,,,,,,,,,,,,,main,k,k,1,0.8523730000015348,744.3611964000156,None,None,0,,,,,,,,,,,,,,125,19,Female,2022-05-10_12h52.45.122,Parachute,2022.1.1,59.87299742057007,
positive,red,2,None,None,,,,,,,,,0,227,227,227,,,,,,,,,,,,,,,,,,,,,,,,,,,,,,,,,,,,,main,None,None,1,1.495431900024414,746.2242376001086,None,None,1,,,,,,,,,,,,,,125,19,Female,2022-05-10_12h52.45.122,Parachute,2022.1.1,59.87299742057007,
positive,blue,2,k,None,,,,,,,,,0,228,228,228,,,,,,,,,,,,,,,,,,,,,,,,,,,,,,,,,,,,,main,None,None,1,1.498337100027129,748.7116037000669,None,None,1,,,,,,,,,,,,,,125,19,Female,2022-05-10_12h52.45.122,Parachute,2022.1.1,59.87299742057007,
negative,blue,1,None,k,,,,,,,,,0,229,229,229,,,,,,,,,,,,,,,,,,,,,,,,,,,,,,,,,,,,,main,k,k,1,0.8047882999526337,751.2112660000566,None,None,0,,,,,,,,,,,,,,125,19,Female,2022-05-10_12h52.45.122,Parachute,2022.1.1,59.87299742057007,
positive,yellow,1,None,k,,,,,,,,,0,230,230,230,,,,,,,,,,,,,,,,,,,,,,,,,,,,,,,,,,,,,main,k,k,1,0.8646697000367567,753.0158066001022,None,None,0,,,,,,,,,,,,,,125,19,Female,2022-05-10_12h52.45.122,Parachute,2022.1.1,59.87299742057007,
negative,blue,2,None,k,,,,,,,,,0,231,231,231,,,,,,,,,,,,,,,,,,,,,,,,,,,,,,,,,,,,,main,k,k,1,0.8328533000312746,754.8808487000642,None,None,0,,,,,,,,,,,,,,125,19,Female,2022-05-10_12h52.45.122,Parachute,2022.1.1,59.87299742057007,
negative,red,1,None,None,,,,,,,,,0,232,232,232,,,,,,,,,,,,,,,,,,,,,,,,,,,,,,,,,,,,,main,None,None,1,1.4926017000107095,756.7154604000971,None,None,1,,,,,,,,,,,,,,125,19,Female,2022-05-10_12h52.45.122,Parachute,2022.1.1,59.87299742057007,
positive,blue,2,k,None,,,,,,,,,0,233,233,233,,,,,,,,,,,,,,,,,,,,,,,,,,,,,,,,,,,,,main,None,None,1,1.0892506999662146,759.2114635000471,None,None,1,,,,,,,,,,,,,,125,19,Female,2022-05-10_12h52.45.122,Parachute,2022.1.1,59.87299742057007,
negative,yellow,1,k,None,,,,,,,,,0,234,234,234,,,,,,,,,,,,,,,,,,,,,,,,,,,,,,,,,,,,,main,None,k,0,1.508347099996172,761.3001123000868,None,None,1,,,,,,,,,,,,,,125,19,Female,2022-05-10_12h52.45.122,Parachute,2022.1.1,59.87299742057007,
negative,yellow,2,k,None,,,,,,,,,0,235,235,235,,,,,,,,,,,,,,,,,,,,,,,,,,,,,,,,,,,,,main,None,None,1,1.501765799941495,764.8258743000915,None,None,1,,,,,,,,,,,,,,125,19,Female,2022-05-10_12h52.45.122,Parachute,2022.1.1,59.87299742057007,
positive,red,1,None,None,,,,,,,,,0,236,236,236,,,,,,,,,,,,,,,,,,,,,,,,,,,,,,,,,,,,,main,None,None,1,1.498206999967806,767.3287725000409,None,None,1,,,,,,,,,,,,,,125,19,Female,2022-05-10_12h52.45.122,Parachute,2022.1.1,59.87299742057007,
negative,red,2,None,None,,,,,,,,,0,237,237,237,,,,,,,,,,,,,,,,,,,,,,,,,,,,,,,,,,,,,main,None,None,1,1.4984653999563307,769.8287854000228,None,None,1,,,,,,,,,,,,,,125,19,Female,2022-05-10_12h52.45.122,Parachute,2022.1.1,59.87299742057007,
negative,blue,1,None,k,,,,,,,,,0,238,238,238,,,,,,,,,,,,,,,,,,,,,,,,,,,,,,,,,,,,,main,k,k,1,1.070697300019674,772.3286857000785,None,None,0,,,,,,,,,,,,,,125,19,Female,2022-05-10_12h52.45.122,Parachute,2022.1.1,59.87299742057007,
positive,blue,1,k,None,,,,,,,,,0,239,239,239,,,,,,,,,,,,,,,,,,,,,,,,,,,,,,,,,,,,,main,None,None,1,1.4930835000704974,774.3982113000238,None,None,1,,,,,,,,,,,,,,125,19,Female,2022-05-10_12h52.45.122,Parachute,2022.1.1,59.87299742057007,
,,,,,,,,,,,,,,,,,,,,,,,,,,,,,,,,,,,,,,,,,,,,,,,,,,,,,,,,,,,,,,,,,,,,,,,,,776.892522500013,None,,,,,,,,
