distractor,target,set,ans1,ans2,rep_loop4.thisRepN,rep_loop4.thisTrialN,rep_loop4.thisN,rep_loop4.thisIndex,st2_prac_loop.thisRepN,st2_prac_loop.thisTrialN,st2_prac_loop.thisN,st2_prac_loop.thisIndex,st2_main_loop.thisRepN,st2_main_loop.thisTrialN,st2_main_loop.thisN,st2_main_loop.thisIndex,image_4.started,image_4.stopped,mouse_7.x,mouse_7.y,mouse_7.leftButton,mouse_7.midButton,mouse_7.rightButton,sound_2.started,sound_2.stopped,key_resp_3.keys,mouse_5.x,mouse_5.y,mouse_5.leftButton,mouse_5.midButton,mouse_5.rightButton,mouse_5.started,mouse_5.stopped,yes_text2.started,yes_text2.stopped,no_text2.started,no_text2.stopped,mouse_3.x,mouse_3.y,mouse_3.leftButton,mouse_3.midButton,mouse_3.rightButton,mouse_3.started,mouse_3.stopped,st_prac_back.started,st_prac_back.stopped,st_prac_text.started,st_prac_text.stopped,st_fix_back.started,st_fix_back.stopped,st_fix_2.started,st_fix_2.stopped,main_prac,st_ans,st_res,st_corr,st_rt,st_back.started,st_back.stopped,st2_resp.keys,st2_resp.corr,st_main_back.started,st_main_back.stopped,st_main_text.started,st_main_text.stopped,mouse_4.x,mouse_4.y,mouse_4.leftButton,mouse_4.midButton,mouse_4.rightButton,mouse_4.started,mouse_4.stopped,text_2.started,text_2.stopped,id*,age*,gender*,date,expName,psychopyVersion,frameRate,
,,,,,,,,,,,,,,,,,36.664328600047156,None,-0.26018518,-0.039814815,0,0,0,,,,,,,,,,,,,,,,,,,,,,,,,,,,,,,,,,,,,,,,,,,,,,,,,,,,126,19,Female,2022-05-10_18h07.47.613,Parachute,2022.1.1,59.95135546269545,
negative,yellow,1,k,None,,,,,0,0,0,0,,,,,,,,,,,,41.6055909400573,None,None,0.074074075,-0.39814815,0,0,0,1.0098457399290055,None,97.089488800033,None,97.089488800033,None,-0.07962963,-0.10555556,0,0,0,0.013282140134833753,None,98.5293053999776,None,98.5293053999776,None,100.54232700006105,None,100.54232700006105,None,prac,k,k,1,2.2485089000547305,102.5548945000628,None,None,0,,,,,,,,,,,,,,126,19,Female,2022-05-10_18h07.47.613,Parachute,2022.1.1,59.95135546269545,
positive,red,2,None,None,,,,,0,1,1,1,,,,,,,,,,,,,,,,,,,,,,,,,,,,,,,,,,,,,,,,,prac,None,None,1,1.502119499957189,106.82963529997505,None,None,1,,,,,,,,,,,,,,126,19,Female,2022-05-10_18h07.47.613,Parachute,2022.1.1,59.95135546269545,
negative,blue,2,None,k,,,,,0,2,2,2,,,,,,,,,,,,,,,,,,,,,,,,,,,,,,,,,,,,,,,,,prac,None,None,1,1.4969953000545502,109.33364460000303,None,None,1,,,,,,,,,,,,,,126,19,Female,2022-05-10_18h07.47.613,Parachute,2022.1.1,59.95135546269545,
positive,yellow,1,None,k,,,,,0,3,3,3,,,,,,,,,,,,,,,,,,,,,,,,,,,,,,,,,,,,,,,,,prac,None,None,1,1.4980882999952883,111.83225239999592,None,None,1,,,,,,,,,,,,,,126,19,Female,2022-05-10_18h07.47.613,Parachute,2022.1.1,59.95135546269545,
negative,blue,2,None,k,,,,,0,4,4,4,,,,,,,,,,,,,,,,,,,,,,,,,,,,,,,,,,,,,,,,,prac,None,None,1,1.4989659000420943,114.32557780004572,None,None,1,,,,,,,,,,,,,,126,19,Female,2022-05-10_18h07.47.613,Parachute,2022.1.1,59.95135546269545,
negative,blue,1,None,k,,,,,0,5,5,5,,,,,,,,,,,,,,,,,,,,,,,,,,,,,,,,,,,,,,,,,prac,None,None,1,1.4990410000318661,116.82703220006078,None,None,1,,,,,,,,,,,,,,126,19,Female,2022-05-10_18h07.47.613,Parachute,2022.1.1,59.95135546269545,
negative,yellow,2,k,None,,,,,0,6,6,6,,,,,,,,,,,,,,,,,,,,,,,,,,,,,,,,,,,,,,,,,prac,k,k,1,1.1865809999872,119.33166919997893,None,None,0,,,,,,,,,,,,,,126,19,Female,2022-05-10_18h07.47.613,Parachute,2022.1.1,59.95135546269545,
negative,red,1,None,None,,,,,0,7,7,7,,,,,,,,,,,,,,,,,,,,,,,,,,,,,,,,,,,,,,,,,prac,None,None,1,1.4939457000000402,121.51186460000463,None,None,1,,,,,,,,,,,,,,126,19,Female,2022-05-10_18h07.47.613,Parachute,2022.1.1,59.95135546269545,
positive,yellow,2,None,k,,,,,0,8,8,8,,,,,,,,,,,,,,,,,,,,,,,,,,,,,,,,,,,,,,,,,prac,None,None,1,1.498433299944736,124.01027670002077,None,None,1,,,,,,,,,,,,,,126,19,Female,2022-05-10_18h07.47.613,Parachute,2022.1.1,59.95135546269545,
negative,yellow,1,k,None,,,,,0,9,9,9,,,,,,,,,,,,,,,,,,,,,,,,,,,,,,,,,,,,,,,,,prac,k,k,1,1.1846699999878183,126.51003100001253,None,None,0,,,,,,,,,,,,,,126,19,Female,2022-05-10_18h07.47.613,Parachute,2022.1.1,59.95135546269545,
positive,yellow,2,None,k,,,,,0,10,10,10,,,,,,,,,,,,,,,,,,,,,,,,,,,,,,,,,,,,,,,,,prac,None,None,1,1.4962940000696108,128.69612560002133,None,None,1,,,,,,,,,,,,,,126,19,Female,2022-05-10_18h07.47.613,Parachute,2022.1.1,59.95135546269545,
negative,yellow,2,k,None,,,,,0,11,11,11,,,,,,,,,,,,,,,,,,,,,,,,,,,,,,,,,,,,,,,,,prac,k,k,1,1.0449504000134766,131.1937907000538,None,None,0,,,,,,,,,,,,,,126,19,Female,2022-05-10_18h07.47.613,Parachute,2022.1.1,59.95135546269545,
negative,red,2,None,None,,,,,0,12,12,12,,,,,,,,,,,,,,,,,,,,,,,,,,,,,,,,,,,,,,,,,prac,None,None,1,1.5019741000141948,133.24055039999075,None,None,1,,,,,,,,,,,,,,126,19,Female,2022-05-10_18h07.47.613,Parachute,2022.1.1,59.95135546269545,
positive,red,1,None,None,,,,,0,13,13,13,,,,,,,,,,,,,,,,,,,,,,,,,,,,,,,,,,,,,,,,,prac,None,None,1,1.498706000042148,135.7490885000443,None,None,1,,,,,,,,,,,,,,126,19,Female,2022-05-10_18h07.47.613,Parachute,2022.1.1,59.95135546269545,
positive,blue,2,k,None,,,,,0,14,14,14,,,,,,,,,,,,,,,,,,,,,,,,,,,,,,,,,,,,,,,,,prac,k,k,1,0.8876281999982893,138.2489995000651,None,None,0,,,,,,,,,,,,,,126,19,Female,2022-05-10_18h07.47.613,Parachute,2022.1.1,59.95135546269545,
positive,blue,1,k,None,,,,,0,15,15,15,,,,,,,,,,,,,,,,,,,,,,,,,,,,,,,,,,,,,,,,,prac,k,k,1,0.8975175999803469,140.1301954999799,None,None,0,,,,,,,,,,,,,,126,19,Female,2022-05-10_18h07.47.613,Parachute,2022.1.1,59.95135546269545,
negative,blue,1,None,k,,,,,0,16,16,16,,,,,,,,,,,,,,,,,,,,,,,,,,,,,,,,,,,,,,,,,prac,None,None,1,1.5107915999833494,142.03081570006907,None,None,1,,,,,,,,,,,,,,126,19,Female,2022-05-10_18h07.47.613,Parachute,2022.1.1,59.95135546269545,
positive,blue,2,k,None,,,,,0,17,17,17,,,,,,,,,,,,,,,,,,,,,,,,,,,,,,,,,,,,,,,,,prac,k,k,1,1.0029355000006035,144.5452616000548,None,None,0,,,,,,,,,,,,,,126,19,Female,2022-05-10_18h07.47.613,Parachute,2022.1.1,59.95135546269545,
positive,blue,1,k,None,,,,,0,18,18,18,,,,,,,,,,,,,,,,,,,,,,,,,,,,,,,,,,,,,,,,,prac,k,k,1,1.08173119998537,146.54712740005925,None,None,0,,,,,,,,,,,,,,126,19,Female,2022-05-10_18h07.47.613,Parachute,2022.1.1,59.95135546269545,
positive,yellow,1,None,k,,,,,0,19,19,19,,,,,,,,,,,,,,,,,,,,,,,,,,,,,,,,,,,,,,,,,prac,None,None,1,1.4932726999977604,148.62940269999672,None,None,1,,,,,,,,,,,,,,126,19,Female,2022-05-10_18h07.47.613,Parachute,2022.1.1,59.95135546269545,
negative,yellow,1,k,None,,,,,1,0,20,0,,,,,,,,,,,,,,,,,,,,,,,,,,,,,,,,,,,,,,,,,prac,k,k,1,0.8705146999564022,151.1276538000675,None,None,0,,,,,,,,,,,,,,126,19,Female,2022-05-10_18h07.47.613,Parachute,2022.1.1,59.95135546269545,
positive,red,2,None,None,,,,,1,1,21,1,,,,,,,,,,,,,,,,,,,,,,,,,,,,,,,,,,,,,,,,,prac,None,None,1,1.49350899993442,152.99622369999997,None,None,1,,,,,,,,,,,,,,126,19,Female,2022-05-10_18h07.47.613,Parachute,2022.1.1,59.95135546269545,
negative,blue,2,None,k,,,,,1,2,22,2,,,,,,,,,,,,,,,,,,,,,,,,,,,,,,,,,,,,,,,,,prac,None,None,1,1.4989144999999553,155.49363959999755,None,None,1,,,,,,,,,,,,,,126,19,Female,2022-05-10_18h07.47.613,Parachute,2022.1.1,59.95135546269545,
positive,yellow,1,None,k,,,,,1,3,23,3,,,,,,,,,,,,,,,,,,,,,,,,,,,,,,,,,,,,,,,,,prac,None,None,1,1.498562499997206,157.9935765999835,None,None,1,,,,,,,,,,,,,,126,19,Female,2022-05-10_18h07.47.613,Parachute,2022.1.1,59.95135546269545,
negative,blue,2,None,k,,,,,1,4,24,4,,,,,,,,,,,,,,,,,,,,,,,,,,,,,,,,,,,,,,,,,prac,None,k,0,0.870633100043051,160.49365610000677,None,None,1,,,,,,,,,,,,,,126,19,Female,2022-05-10_18h07.47.613,Parachute,2022.1.1,59.95135546269545,
negative,blue,1,None,k,,,,,1,5,25,5,,,,,,,,,,,,,,,,,,,,,,,,,,,,,,,,,,,,,,,,,prac,None,None,1,1.502178500057198,163.37463970005047,None,None,1,,,,,,,,,,,,,,126,19,Female,2022-05-10_18h07.47.613,Parachute,2022.1.1,59.95135546269545,
negative,yellow,2,k,None,,,,,1,6,26,6,,,,,,,,,,,,,,,,,,,,,,,,,,,,,,,,,,,,,,,,,prac,k,k,1,0.9683646999765188,165.87833179999143,None,None,0,,,,,,,,,,,,,,126,19,Female,2022-05-10_18h07.47.613,Parachute,2022.1.1,59.95135546269545,
negative,red,1,None,None,,,,,1,7,27,7,,,,,,,,,,,,,,,,,,,,,,,,,,,,,,,,,,,,,,,,,prac,None,None,1,1.4943791999248788,167.85502260003705,None,None,1,,,,,,,,,,,,,,126,19,Female,2022-05-10_18h07.47.613,Parachute,2022.1.1,59.95135546269545,
positive,yellow,2,None,k,,,,,1,8,28,8,,,,,,,,,,,,,,,,,,,,,,,,,,,,,,,,,,,,,,,,,prac,None,None,1,1.4996834000339732,170.34369400003925,None,None,1,,,,,,,,,,,,,,126,19,Female,2022-05-10_18h07.47.613,Parachute,2022.1.1,59.95135546269545,
negative,yellow,1,k,None,,,,,1,9,29,9,,,,,,,,,,,,,,,,,,,,,,,,,,,,,,,,,,,,,,,,,prac,k,k,1,0.986466999980621,172.8449558999855,None,None,0,,,,,,,,,,,,,,126,19,Female,2022-05-10_18h07.47.613,Parachute,2022.1.1,59.95135546269545,
positive,yellow,2,None,k,,,,,1,10,30,10,,,,,,,,,,,,,,,,,,,,,,,,,,,,,,,,,,,,,,,,,prac,None,None,1,1.493476300034672,174.8301987000741,None,None,1,,,,,,,,,,,,,,126,19,Female,2022-05-10_18h07.47.613,Parachute,2022.1.1,59.95135546269545,
negative,yellow,2,k,None,,,,,1,11,31,11,,,,,,,,,,,,,,,,,,,,,,,,,,,,,,,,,,,,,,,,,prac,k,k,1,1.0123281000414863,177.32745770004112,None,None,0,,,,,,,,,,,,,,126,19,Female,2022-05-10_18h07.47.613,Parachute,2022.1.1,59.95135546269545,
negative,red,2,None,None,,,,,1,12,32,12,,,,,,,,,,,,,,,,,,,,,,,,,,,,,,,,,,,,,,,,,prac,None,None,1,1.5022612999891862,179.34173960005865,None,None,1,,,,,,,,,,,,,,126,19,Female,2022-05-10_18h07.47.613,Parachute,2022.1.1,59.95135546269545,
positive,red,1,None,None,,,,,1,13,33,13,,,,,,,,,,,,,,,,,,,,,,,,,,,,,,,,,,,,,,,,,prac,None,None,1,1.497964799986221,181.84585949999746,None,None,1,,,,,,,,,,,,,,126,19,Female,2022-05-10_18h07.47.613,Parachute,2022.1.1,59.95135546269545,
positive,blue,2,k,None,,,,,1,14,34,14,,,,,,,,,,,,,,,,,,,,,,,,,,,,,,,,,,,,,,,,,prac,k,k,1,1.4374120000284165,184.34426649997476,None,None,0,,,,,,,,,,,,,,126,19,Female,2022-05-10_18h07.47.613,Parachute,2022.1.1,59.95135546269545,
positive,blue,1,k,None,,,,,1,15,35,15,,,,,,,,,,,,,,,,,,,,,,,,,,,,,,,,,,,,,,,,,prac,k,k,1,0.8806792999384925,186.78050510003231,None,None,0,,,,,,,,,,,,,,126,19,Female,2022-05-10_18h07.47.613,Parachute,2022.1.1,59.95135546269545,
negative,blue,1,None,k,,,,,1,16,36,16,,,,,,,,,,,,,,,,,,,,,,,,,,,,,,,,,,,,,,,,,prac,None,None,1,1.494639000040479,188.6640161999967,None,None,1,,,,,,,,,,,,,,126,19,Female,2022-05-10_18h07.47.613,Parachute,2022.1.1,59.95135546269545,
positive,blue,2,k,None,,,,,1,17,37,17,,,,,,,,,,,,,,,,,,,,,,,,,,,,,,,,,,,,,,,,,prac,k,k,1,5.954153299913742,191.16114189999644,None,None,0,,,,,,,,,,,,,,126,19,Female,2022-05-10_18h07.47.613,Parachute,2022.1.1,59.95135546269545,
positive,blue,1,k,None,,,,,1,18,38,18,,,,,,,,,,,,,,,,,,,,,,,,,,,,,,,,,,,,,,,,,prac,k,k,1,0.8243226999184117,199.12556409998797,None,None,0,,,,,,,,,,,,,,126,19,Female,2022-05-10_18h07.47.613,Parachute,2022.1.1,59.95135546269545,
positive,yellow,1,None,k,,,,,1,19,39,19,,,,,,,,,,,,,,,,,,,,,,,,,,,,,,,,,,,,,,,,,prac,None,None,1,1.4926960000302643,200.94888330006506,None,None,1,,,,,,,,,,,,,,126,19,Female,2022-05-10_18h07.47.613,Parachute,2022.1.1,59.95135546269545,
,,,,,,,,,,,,,,,,,,,,,,,,,,,,,,,,,,,,,,,,,,,,,,,,,,,,,,,,,,,,,,203.46021040005144,None,203.46021040005144,None,0.117592596,-0.07037037,0,0,0,0.01260394009295851,None,,,126,19,Female,2022-05-10_18h07.47.613,Parachute,2022.1.1,59.95135546269545,
negative,yellow,2,k,None,,,,,,,,,0,0,0,0,,,,,,,,,,,,,,,,,,,,,,,,,,,,,,,,,210.7254289999837,None,210.7254289999837,None,main,k,k,1,1.1263718000845984,212.7674783000257,None,None,0,,,,,,,,,,,,,,126,19,Female,2022-05-10_18h07.47.613,Parachute,2022.1.1,59.95135546269545,
positive,red,1,None,None,,,,,,,,,0,1,1,1,,,,,,,,,,,,,,,,,,,,,,,,,,,,,,,,,,,,,main,None,None,1,1.4942931000841781,214.89837289997377,None,None,1,,,,,,,,,,,,,,126,19,Female,2022-05-10_18h07.47.613,Parachute,2022.1.1,59.95135546269545,
positive,blue,2,k,None,,,,,,,,,0,2,2,2,,,,,,,,,,,,,,,,,,,,,,,,,,,,,,,,,,,,,main,k,k,1,1.2400636998936534,217.39468320005108,None,None,0,,,,,,,,,,,,,,126,19,Female,2022-05-10_18h07.47.613,Parachute,2022.1.1,59.95135546269545,
positive,blue,1,k,None,,,,,,,,,0,3,3,3,,,,,,,,,,,,,,,,,,,,,,,,,,,,,,,,,,,,,main,k,k,1,0.7789504999527708,219.63393610005733,None,None,0,,,,,,,,,,,,,,126,19,Female,2022-05-10_18h07.47.613,Parachute,2022.1.1,59.95135546269545,
negative,yellow,2,k,None,,,,,,,,,0,4,4,4,,,,,,,,,,,,,,,,,,,,,,,,,,,,,,,,,,,,,main,k,k,1,0.6836138999788091,221.41480749996845,None,None,0,,,,,,,,,,,,,,126,19,Female,2022-05-10_18h07.47.613,Parachute,2022.1.1,59.95135546269545,
positive,yellow,2,None,k,,,,,,,,,0,5,5,5,,,,,,,,,,,,,,,,,,,,,,,,,,,,,,,,,,,,,main,None,None,1,1.5086716000223532,223.0992857000092,None,None,1,,,,,,,,,,,,,,126,19,Female,2022-05-10_18h07.47.613,Parachute,2022.1.1,59.95135546269545,
negative,blue,2,None,k,,,,,,,,,0,6,6,6,,,,,,,,,,,,,,,,,,,,,,,,,,,,,,,,,,,,,main,None,None,1,1.4986289999214932,225.61265330004971,None,None,1,,,,,,,,,,,,,,126,19,Female,2022-05-10_18h07.47.613,Parachute,2022.1.1,59.95135546269545,
positive,red,2,None,None,,,,,,,,,0,7,7,7,,,,,,,,,,,,,,,,,,,,,,,,,,,,,,,,,,,,,main,None,None,1,1.4984722000081092,228.11208810005337,None,None,1,,,,,,,,,,,,,,126,19,Female,2022-05-10_18h07.47.613,Parachute,2022.1.1,59.95135546269545,
positive,yellow,1,None,k,,,,,,,,,0,8,8,8,,,,,,,,,,,,,,,,,,,,,,,,,,,,,,,,,,,,,main,None,None,1,1.4990874000359327,230.61178490007296,None,None,1,,,,,,,,,,,,,,126,19,Female,2022-05-10_18h07.47.613,Parachute,2022.1.1,59.95135546269545,
negative,red,1,None,None,,,,,,,,,0,9,9,9,,,,,,,,,,,,,,,,,,,,,,,,,,,,,,,,,,,,,main,None,None,1,1.4985237999353558,233.11240980005823,None,None,1,,,,,,,,,,,,,,126,19,Female,2022-05-10_18h07.47.613,Parachute,2022.1.1,59.95135546269545,
positive,yellow,1,None,k,,,,,,,,,0,10,10,10,,,,,,,,,,,,,,,,,,,,,,,,,,,,,,,,,,,,,main,None,None,1,1.4988957999739796,235.61220820003655,None,None,1,,,,,,,,,,,,,,126,19,Female,2022-05-10_18h07.47.613,Parachute,2022.1.1,59.95135546269545,
negative,yellow,1,k,None,,,,,,,,,0,11,11,11,,,,,,,,,,,,,,,,,,,,,,,,,,,,,,,,,,,,,main,k,k,1,1.337275999947451,238.11214420001488,None,None,0,,,,,,,,,,,,,,126,19,Female,2022-05-10_18h07.47.613,Parachute,2022.1.1,59.95135546269545,
negative,yellow,1,k,None,,,,,,,,,0,12,12,12,,,,,,,,,,,,,,,,,,,,,,,,,,,,,,,,,,,,,main,k,k,1,0.7475060999859124,240.4487378000049,None,None,0,,,,,,,,,,,,,,126,19,Female,2022-05-10_18h07.47.613,Parachute,2022.1.1,59.95135546269545,
negative,red,2,None,None,,,,,,,,,0,13,13,13,,,,,,,,,,,,,,,,,,,,,,,,,,,,,,,,,,,,,main,None,None,1,1.4943516000639647,242.1984485000139,None,None,1,,,,,,,,,,,,,,126,19,Female,2022-05-10_18h07.47.613,Parachute,2022.1.1,59.95135546269545,
positive,yellow,2,None,k,,,,,,,,,0,14,14,14,,,,,,,,,,,,,,,,,,,,,,,,,,,,,,,,,,,,,main,None,None,1,1.4987696999451146,244.69576699996833,None,None,1,,,,,,,,,,,,,,126,19,Female,2022-05-10_18h07.47.613,Parachute,2022.1.1,59.95135546269545,
positive,blue,1,k,None,,,,,,,,,0,15,15,15,,,,,,,,,,,,,,,,,,,,,,,,,,,,,,,,,,,,,main,k,k,1,0.7856646000873297,247.19659479998518,None,None,0,,,,,,,,,,,,,,126,19,Female,2022-05-10_18h07.47.613,Parachute,2022.1.1,59.95135546269545,
negative,blue,1,None,k,,,,,,,,,0,16,16,16,,,,,,,,,,,,,,,,,,,,,,,,,,,,,,,,,,,,,main,None,None,1,1.494831099989824,248.9817592999898,None,None,1,,,,,,,,,,,,,,126,19,Female,2022-05-10_18h07.47.613,Parachute,2022.1.1,59.95135546269545,
positive,blue,2,k,None,,,,,,,,,0,17,17,17,,,,,,,,,,,,,,,,,,,,,,,,,,,,,,,,,,,,,main,k,k,1,1.3859149999916553,251.47908590000588,None,None,0,,,,,,,,,,,,,,126,19,Female,2022-05-10_18h07.47.613,Parachute,2022.1.1,59.95135546269545,
negative,blue,2,None,k,,,,,,,,,0,18,18,18,,,,,,,,,,,,,,,,,,,,,,,,,,,,,,,,,,,,,main,None,None,1,1.4946133999619633,253.86479000002146,None,None,1,,,,,,,,,,,,,,126,19,Female,2022-05-10_18h07.47.613,Parachute,2022.1.1,59.95135546269545,
negative,blue,1,None,k,,,,,,,,,0,19,19,19,,,,,,,,,,,,,,,,,,,,,,,,,,,,,,,,,,,,,main,None,k,0,0.9706234000623226,256.3624712000601,None,None,1,,,,,,,,,,,,,,126,19,Female,2022-05-10_18h07.47.613,Parachute,2022.1.1,59.95135546269545,
negative,blue,1,None,k,,,,,,,,,0,20,20,20,,,,,,,,,,,,,,,,,,,,,,,,,,,,,,,,,,,,,main,None,None,1,1.5019613999174908,259.3434244999662,None,None,1,,,,,,,,,,,,,,126,19,Female,2022-05-10_18h07.47.613,Parachute,2022.1.1,59.95135546269545,
negative,blue,2,None,k,,,,,,,,,0,21,21,21,,,,,,,,,,,,,,,,,,,,,,,,,,,,,,,,,,,,,main,None,None,1,1.498132499982603,261.84603810007684,None,None,1,,,,,,,,,,,,,,126,19,Female,2022-05-10_18h07.47.613,Parachute,2022.1.1,59.95135546269545,
negative,red,1,None,None,,,,,,,,,0,22,22,22,,,,,,,,,,,,,,,,,,,,,,,,,,,,,,,,,,,,,main,None,None,1,1.4992533000186086,264.346028800006,None,None,1,,,,,,,,,,,,,,126,19,Female,2022-05-10_18h07.47.613,Parachute,2022.1.1,59.95135546269545,
positive,red,2,None,None,,,,,,,,,0,23,23,23,,,,,,,,,,,,,,,,,,,,,,,,,,,,,,,,,,,,,main,None,None,1,1.4985004999907687,266.8467741999775,None,None,1,,,,,,,,,,,,,,126,19,Female,2022-05-10_18h07.47.613,Parachute,2022.1.1,59.95135546269545,
negative,red,2,None,None,,,,,,,,,0,24,24,24,,,,,,,,,,,,,,,,,,,,,,,,,,,,,,,,,,,,,main,None,None,1,1.4987141999881715,269.3461526000174,None,None,1,,,,,,,,,,,,,,126,19,Female,2022-05-10_18h07.47.613,Parachute,2022.1.1,59.95135546269545,
positive,blue,2,k,None,,,,,,,,,0,25,25,25,,,,,,,,,,,,,,,,,,,,,,,,,,,,,,,,,,,,,main,k,k,1,0.804070399957709,271.8465910999803,None,None,0,,,,,,,,,,,,,,126,19,Female,2022-05-10_18h07.47.613,Parachute,2022.1.1,59.95135546269545,
negative,yellow,1,k,None,,,,,,,,,0,26,26,26,,,,,,,,,,,,,,,,,,,,,,,,,,,,,,,,,,,,,main,k,k,1,0.8323848999571055,273.64950409997255,None,None,0,,,,,,,,,,,,,,126,19,Female,2022-05-10_18h07.47.613,Parachute,2022.1.1,59.95135546269545,
positive,blue,2,k,None,,,,,,,,,0,27,27,27,,,,,,,,,,,,,,,,,,,,,,,,,,,,,,,,,,,,,main,k,k,1,0.7645399000030011,275.4831964999903,None,None,0,,,,,,,,,,,,,,126,19,Female,2022-05-10_18h07.47.613,Parachute,2022.1.1,59.95135546269545,
negative,blue,2,None,k,,,,,,,,,0,28,28,28,,,,,,,,,,,,,,,,,,,,,,,,,,,,,,,,,,,,,main,None,None,1,1.493585600052029,277.2493819000665,None,None,1,,,,,,,,,,,,,,126,19,Female,2022-05-10_18h07.47.613,Parachute,2022.1.1,59.95135546269545,
positive,red,1,None,None,,,,,,,,,0,29,29,29,,,,,,,,,,,,,,,,,,,,,,,,,,,,,,,,,,,,,main,None,None,1,1.4991724999854341,279.7463439999847,None,None,1,,,,,,,,,,,,,,126,19,Female,2022-05-10_18h07.47.613,Parachute,2022.1.1,59.95135546269545,
positive,blue,1,k,None,,,,,,,,,0,30,30,30,,,,,,,,,,,,,,,,,,,,,,,,,,,,,,,,,,,,,main,k,k,1,0.8853986000176519,282.2476547000697,None,None,0,,,,,,,,,,,,,,126,19,Female,2022-05-10_18h07.47.613,Parachute,2022.1.1,59.95135546269545,
positive,yellow,1,None,k,,,,,,,,,0,31,31,31,,,,,,,,,,,,,,,,,,,,,,,,,,,,,,,,,,,,,main,None,k,0,0.9755165000678971,284.1325492999749,None,None,1,,,,,,,,,,,,,,126,19,Female,2022-05-10_18h07.47.613,Parachute,2022.1.1,59.95135546269545,
negative,yellow,2,k,None,,,,,,,,,0,32,32,32,,,,,,,,,,,,,,,,,,,,,,,,,,,,,,,,,,,,,main,k,k,1,1.1229444000637159,287.11101470002905,None,None,0,,,,,,,,,,,,,,126,19,Female,2022-05-10_18h07.47.613,Parachute,2022.1.1,59.95135546269545,
negative,blue,1,None,k,,,,,,,,,0,33,33,33,,,,,,,,,,,,,,,,,,,,,,,,,,,,,,,,,,,,,main,None,None,1,1.4939888000953943,289.2328390000621,None,None,1,,,,,,,,,,,,,,126,19,Female,2022-05-10_18h07.47.613,Parachute,2022.1.1,59.95135546269545,
positive,blue,1,k,None,,,,,,,,,0,34,34,34,,,,,,,,,,,,,,,,,,,,,,,,,,,,,,,,,,,,,main,k,k,1,0.8543063000543043,291.7295148000121,None,None,0,,,,,,,,,,,,,,126,19,Female,2022-05-10_18h07.47.613,Parachute,2022.1.1,59.95135546269545,
negative,yellow,1,k,None,,,,,,,,,0,35,35,35,,,,,,,,,,,,,,,,,,,,,,,,,,,,,,,,,,,,,main,k,k,1,0.9318028000416234,293.5828383000335,None,None,0,,,,,,,,,,,,,,126,19,Female,2022-05-10_18h07.47.613,Parachute,2022.1.1,59.95135546269545,
positive,yellow,2,None,k,,,,,,,,,0,36,36,36,,,,,,,,,,,,,,,,,,,,,,,,,,,,,,,,,,,,,main,None,None,1,1.4937488998984918,295.5161128999898,None,None,1,,,,,,,,,,,,,,126,19,Female,2022-05-10_18h07.47.613,Parachute,2022.1.1,59.95135546269545,
positive,yellow,2,None,k,,,,,,,,,0,37,37,37,,,,,,,,,,,,,,,,,,,,,,,,,,,,,,,,,,,,,main,None,None,1,1.4983368000248447,298.01559560000896,None,None,1,,,,,,,,,,,,,,126,19,Female,2022-05-10_18h07.47.613,Parachute,2022.1.1,59.95135546269545,
negative,yellow,2,k,None,,,,,,,,,0,38,38,38,,,,,,,,,,,,,,,,,,,,,,,,,,,,,,,,,,,,,main,k,k,1,0.9541781999869272,300.51482230005786,None,None,0,,,,,,,,,,,,,,126,19,Female,2022-05-10_18h07.47.613,Parachute,2022.1.1,59.95135546269545,
positive,yellow,1,None,k,,,,,,,,,0,39,39,39,,,,,,,,,,,,,,,,,,,,,,,,,,,,,,,,,,,,,main,None,None,1,1.493506999919191,302.4670208999887,None,None,1,,,,,,,,,,,,,,126,19,Female,2022-05-10_18h07.47.613,Parachute,2022.1.1,59.95135546269545,
negative,yellow,2,k,None,,,,,,,,,0,40,40,40,,,,,,,,,,,,,,,,,,,,,,,,,,,,,,,,,,,,,main,k,k,1,1.1200606999918818,304.9637894000625,None,None,0,,,,,,,,,,,,,,126,19,Female,2022-05-10_18h07.47.613,Parachute,2022.1.1,59.95135546269545,
positive,blue,2,k,None,,,,,,,,,0,41,41,41,,,,,,,,,,,,,,,,,,,,,,,,,,,,,,,,,,,,,main,k,k,1,0.8811945000197738,307.0830435999669,None,None,0,,,,,,,,,,,,,,126,19,Female,2022-05-10_18h07.47.613,Parachute,2022.1.1,59.95135546269545,
positive,blue,2,k,None,,,,,,,,,0,42,42,42,,,,,,,,,,,,,,,,,,,,,,,,,,,,,,,,,,,,,main,k,k,1,0.7158566999714822,308.9662021000404,None,None,0,,,,,,,,,,,,,,126,19,Female,2022-05-10_18h07.47.613,Parachute,2022.1.1,59.95135546269545,
negative,blue,2,None,k,,,,,,,,,0,43,43,43,,,,,,,,,,,,,,,,,,,,,,,,,,,,,,,,,,,,,main,None,None,1,1.4933262000558898,310.6829796000384,None,None,1,,,,,,,,,,,,,,126,19,Female,2022-05-10_18h07.47.613,Parachute,2022.1.1,59.95135546269545,
negative,red,1,None,None,,,,,,,,,0,44,44,44,,,,,,,,,,,,,,,,,,,,,,,,,,,,,,,,,,,,,main,None,None,1,1.4988478000741452,313.18042630003765,None,None,1,,,,,,,,,,,,,,126,19,Female,2022-05-10_18h07.47.613,Parachute,2022.1.1,59.95135546269545,
negative,yellow,1,k,None,,,,,,,,,0,45,45,45,,,,,,,,,,,,,,,,,,,,,,,,,,,,,,,,,,,,,main,k,k,1,0.803498899913393,315.68083430000115,None,None,0,,,,,,,,,,,,,,126,19,Female,2022-05-10_18h07.47.613,Parachute,2022.1.1,59.95135546269545,
negative,yellow,1,k,None,,,,,,,,,0,46,46,46,,,,,,,,,,,,,,,,,,,,,,,,,,,,,,,,,,,,,main,k,k,1,0.5986725999973714,317.4831065000035,None,None,0,,,,,,,,,,,,,,126,19,Female,2022-05-10_18h07.47.613,Parachute,2022.1.1,59.95135546269545,
positive,red,1,None,None,,,,,,,,,0,47,47,47,,,,,,,,,,,,,,,,,,,,,,,,,,,,,,,,,,,,,main,None,None,1,1.4940148999448866,319.0831753000384,None,None,1,,,,,,,,,,,,,,126,19,Female,2022-05-10_18h07.47.613,Parachute,2022.1.1,59.95135546269545,
positive,yellow,1,None,k,,,,,,,,,0,48,48,48,,,,,,,,,,,,,,,,,,,,,,,,,,,,,,,,,,,,,main,None,None,1,1.497986799920909,321.5811191999819,None,None,1,,,,,,,,,,,,,,126,19,Female,2022-05-10_18h07.47.613,Parachute,2022.1.1,59.95135546269545,
negative,blue,1,None,k,,,,,,,,,0,49,49,49,,,,,,,,,,,,,,,,,,,,,,,,,,,,,,,,,,,,,main,None,None,1,1.4990026999730617,324.0800358999986,None,None,1,,,,,,,,,,,,,,126,19,Female,2022-05-10_18h07.47.613,Parachute,2022.1.1,59.95135546269545,
positive,yellow,2,None,k,,,,,,,,,0,50,50,50,,,,,,,,,,,,,,,,,,,,,,,,,,,,,,,,,,,,,main,None,None,1,1.4986288000363857,326.58102290006354,None,None,1,,,,,,,,,,,,,,126,19,Female,2022-05-10_18h07.47.613,Parachute,2022.1.1,59.95135546269545,
negative,blue,1,None,k,,,,,,,,,0,51,51,51,,,,,,,,,,,,,,,,,,,,,,,,,,,,,,,,,,,,,main,None,None,1,1.4985741000855342,329.08011109998915,None,None,1,,,,,,,,,,,,,,126,19,Female,2022-05-10_18h07.47.613,Parachute,2022.1.1,59.95135546269545,
positive,red,2,None,None,,,,,,,,,0,52,52,52,,,,,,,,,,,,,,,,,,,,,,,,,,,,,,,,,,,,,main,None,None,1,1.498922000057064,331.58088520006277,None,None,1,,,,,,,,,,,,,,126,19,Female,2022-05-10_18h07.47.613,Parachute,2022.1.1,59.95135546269545,
positive,yellow,2,None,k,,,,,,,,,0,53,53,53,,,,,,,,,,,,,,,,,,,,,,,,,,,,,,,,,,,,,main,None,None,1,1.4982703999849036,334.0812580999918,None,None,1,,,,,,,,,,,,,,126,19,Female,2022-05-10_18h07.47.613,Parachute,2022.1.1,59.95135546269545,
negative,red,2,None,None,,,,,,,,,0,54,54,54,,,,,,,,,,,,,,,,,,,,,,,,,,,,,,,,,,,,,main,None,None,1,1.4990752999437973,336.58080940006766,None,None,1,,,,,,,,,,,,,,126,19,Female,2022-05-10_18h07.47.613,Parachute,2022.1.1,59.95135546269545,
positive,yellow,1,None,k,,,,,,,,,0,55,55,55,,,,,,,,,,,,,,,,,,,,,,,,,,,,,,,,,,,,,main,None,None,1,1.498636499978602,339.08142389997374,None,None,1,,,,,,,,,,,,,,126,19,Female,2022-05-10_18h07.47.613,Parachute,2022.1.1,59.95135546269545,
negative,blue,2,None,k,,,,,,,,,0,56,56,56,,,,,,,,,,,,,,,,,,,,,,,,,,,,,,,,,,,,,main,None,None,1,1.4981752999592572,341.58154649997596,None,None,1,,,,,,,,,,,,,,126,19,Female,2022-05-10_18h07.47.613,Parachute,2022.1.1,59.95135546269545,
positive,blue,1,k,None,,,,,,,,,0,57,57,57,,,,,,,,,,,,,,,,,,,,,,,,,,,,,,,,,,,,,main,k,k,1,1.0218738000839949,344.08076360006817,None,None,0,,,,,,,,,,,,,,126,19,Female,2022-05-10_18h07.47.613,Parachute,2022.1.1,59.95135546269545,
positive,blue,1,k,None,,,,,,,,,0,58,58,58,,,,,,,,,,,,,,,,,,,,,,,,,,,,,,,,,,,,,main,k,k,1,0.7142111000139266,346.10220500000287,None,None,0,,,,,,,,,,,,,,126,19,Female,2022-05-10_18h07.47.613,Parachute,2022.1.1,59.95135546269545,
negative,yellow,2,k,None,,,,,,,,,0,59,59,59,,,,,,,,,,,,,,,,,,,,,,,,,,,,,,,,,,,,,main,k,k,1,0.8318622000515461,347.81705479999073,None,None,0,,,,,,,,,,,,,,126,19,Female,2022-05-10_18h07.47.613,Parachute,2022.1.1,59.95135546269545,
positive,red,2,None,None,,,,,,,,,0,60,60,60,,,,,,,,,,,,,,,,,,,,,,,,,,,,,,,,,,,,,main,None,None,1,1.4932455000234768,349.65069090004545,None,None,1,,,,,,,,,,,,,,126,19,Female,2022-05-10_18h07.47.613,Parachute,2022.1.1,59.95135546269545,
negative,yellow,1,k,None,,,,,,,,,0,61,61,61,,,,,,,,,,,,,,,,,,,,,,,,,,,,,,,,,,,,,main,k,k,1,1.0209350000368431,352.1474265999859,None,None,0,,,,,,,,,,,,,,126,19,Female,2022-05-10_18h07.47.613,Parachute,2022.1.1,59.95135546269545,
negative,red,1,None,None,,,,,,,,,0,62,62,62,,,,,,,,,,,,,,,,,,,,,,,,,,,,,,,,,,,,,main,None,None,1,1.5103338999906555,354.16908630006947,None,None,1,,,,,,,,,,,,,,126,19,Female,2022-05-10_18h07.47.613,Parachute,2022.1.1,59.95135546269545,
negative,blue,1,None,k,,,,,,,,,0,63,63,63,,,,,,,,,,,,,,,,,,,,,,,,,,,,,,,,,,,,,main,None,None,1,1.4986376999877393,356.6830201999983,None,None,1,,,,,,,,,,,,,,126,19,Female,2022-05-10_18h07.47.613,Parachute,2022.1.1,59.95135546269545,
positive,blue,2,k,None,,,,,,,,,0,64,64,64,,,,,,,,,,,,,,,,,,,,,,,,,,,,,,,,,,,,,main,k,k,1,0.802154399920255,359.1839226000011,None,None,0,,,,,,,,,,,,,,126,19,Female,2022-05-10_18h07.47.613,Parachute,2022.1.1,59.95135546269545,
negative,yellow,2,k,None,,,,,,,,,0,65,65,65,,,,,,,,,,,,,,,,,,,,,,,,,,,,,,,,,,,,,main,k,k,1,0.7570029000053182,360.98404580005445,None,None,0,,,,,,,,,,,,,,126,19,Female,2022-05-10_18h07.47.613,Parachute,2022.1.1,59.95135546269545,
positive,yellow,2,None,k,,,,,,,,,0,66,66,66,,,,,,,,,,,,,,,,,,,,,,,,,,,,,,,,,,,,,main,None,None,1,1.5017661000601947,362.7454832000658,None,None,1,,,,,,,,,,,,,,126,19,Female,2022-05-10_18h07.47.613,Parachute,2022.1.1,59.95135546269545,
positive,yellow,2,None,k,,,,,,,,,0,67,67,67,,,,,,,,,,,,,,,,,,,,,,,,,,,,,,,,,,,,,main,None,None,1,1.4984183000633493,365.2482520000776,None,None,1,,,,,,,,,,,,,,126,19,Female,2022-05-10_18h07.47.613,Parachute,2022.1.1,59.95135546269545,
positive,red,1,None,None,,,,,,,,,0,68,68,68,,,,,,,,,,,,,,,,,,,,,,,,,,,,,,,,,,,,,main,None,None,1,1.498774400097318,367.7478569999803,None,None,1,,,,,,,,,,,,,,126,19,Female,2022-05-10_18h07.47.613,Parachute,2022.1.1,59.95135546269545,
positive,yellow,1,None,k,,,,,,,,,0,69,69,69,,,,,,,,,,,,,,,,,,,,,,,,,,,,,,,,,,,,,main,None,None,1,1.4991526000667363,370.24779090005904,None,None,1,,,,,,,,,,,,,,126,19,Female,2022-05-10_18h07.47.613,Parachute,2022.1.1,59.95135546269545,
negative,yellow,2,k,None,,,,,,,,,0,70,70,70,,,,,,,,,,,,,,,,,,,,,,,,,,,,,,,,,,,,,main,k,k,1,1.3532533999532461,372.7492383000208,None,None,0,,,,,,,,,,,,,,126,19,Female,2022-05-10_18h07.47.613,Parachute,2022.1.1,59.95135546269545,
positive,yellow,1,None,k,,,,,,,,,0,71,71,71,,,,,,,,,,,,,,,,,,,,,,,,,,,,,,,,,,,,,main,None,None,1,1.4933284999569878,375.1014443000313,None,None,1,,,,,,,,,,,,,,126,19,Female,2022-05-10_18h07.47.613,Parachute,2022.1.1,59.95135546269545,
negative,blue,1,None,k,,,,,,,,,0,72,72,72,,,,,,,,,,,,,,,,,,,,,,,,,,,,,,,,,,,,,main,None,None,1,1.49899670004379,377.59791460004635,None,None,1,,,,,,,,,,,,,,126,19,Female,2022-05-10_18h07.47.613,Parachute,2022.1.1,59.95135546269545,
negative,red,2,None,None,,,,,,,,,0,73,73,73,,,,,,,,,,,,,,,,,,,,,,,,,,,,,,,,,,,,,main,None,None,1,1.4980853999732062,380.09935230005067,None,None,1,,,,,,,,,,,,,,126,19,Female,2022-05-10_18h07.47.613,Parachute,2022.1.1,59.95135546269545,
positive,blue,2,k,None,,,,,,,,,0,74,74,74,,,,,,,,,,,,,,,,,,,,,,,,,,,,,,,,,,,,,main,k,k,1,1.0535649000667036,382.59893840004224,None,None,0,,,,,,,,,,,,,,126,19,Female,2022-05-10_18h07.47.613,Parachute,2022.1.1,59.95135546269545,
negative,blue,2,None,k,,,,,,,,,0,75,75,75,,,,,,,,,,,,,,,,,,,,,,,,,,,,,,,,,,,,,main,None,None,1,1.4939408999634907,384.6513639000477,None,None,1,,,,,,,,,,,,,,126,19,Female,2022-05-10_18h07.47.613,Parachute,2022.1.1,59.95135546269545,
negative,blue,2,None,k,,,,,,,,,0,76,76,76,,,,,,,,,,,,,,,,,,,,,,,,,,,,,,,,,,,,,main,None,None,1,1.4981366000138223,387.14914970006794,None,None,1,,,,,,,,,,,,,,126,19,Female,2022-05-10_18h07.47.613,Parachute,2022.1.1,59.95135546269545,
negative,yellow,1,k,None,,,,,,,,,0,77,77,77,,,,,,,,,,,,,,,,,,,,,,,,,,,,,,,,,,,,,main,k,k,1,0.7864509000210091,389.64855180005543,None,None,0,,,,,,,,,,,,,,126,19,Female,2022-05-10_18h07.47.613,Parachute,2022.1.1,59.95135546269545,
positive,blue,1,k,None,,,,,,,,,0,78,78,78,,,,,,,,,,,,,,,,,,,,,,,,,,,,,,,,,,,,,main,k,k,1,0.9815964999143034,391.4351110999705,None,None,0,,,,,,,,,,,,,,126,19,Female,2022-05-10_18h07.47.613,Parachute,2022.1.1,59.95135546269545,
positive,blue,1,k,None,,,,,,,,,0,79,79,79,,,,,,,,,,,,,,,,,,,,,,,,,,,,,,,,,,,,,main,k,k,1,0.6317581000039354,393.42670970002655,None,None,0,,,,,,,,,,,,,,126,19,Female,2022-05-10_18h07.47.613,Parachute,2022.1.1,59.95135546269545,
positive,red,2,None,None,,,,,,,,,0,80,80,80,,,,,,,,,,,,,,,,,,,,,,,,,,,,,,,,,,,,,main,None,None,1,1.4949186999583617,395.0513101000106,None,None,1,,,,,,,,,,,,,,126,19,Female,2022-05-10_18h07.47.613,Parachute,2022.1.1,59.95135546269545,
positive,yellow,2,None,k,,,,,,,,,0,81,81,81,,,,,,,,,,,,,,,,,,,,,,,,,,,,,,,,,,,,,main,None,None,1,1.498651499976404,397.54888160002884,None,None,1,,,,,,,,,,,,,,126,19,Female,2022-05-10_18h07.47.613,Parachute,2022.1.1,59.95135546269545,
positive,blue,1,k,None,,,,,,,,,0,82,82,82,,,,,,,,,,,,,,,,,,,,,,,,,,,,,,,,,,,,,main,k,k,1,0.7204303999897093,400.04942900000606,None,None,0,,,,,,,,,,,,,,126,19,Female,2022-05-10_18h07.47.613,Parachute,2022.1.1,59.95135546269545,
negative,yellow,2,k,None,,,,,,,,,0,83,83,83,,,,,,,,,,,,,,,,,,,,,,,,,,,,,,,,,,,,,main,k,k,1,0.706875600037165,401.76840180007275,None,None,0,,,,,,,,,,,,,,126,19,Female,2022-05-10_18h07.47.613,Parachute,2022.1.1,59.95135546269545,
positive,blue,2,k,None,,,,,,,,,0,84,84,84,,,,,,,,,,,,,,,,,,,,,,,,,,,,,,,,,,,,,main,k,k,1,2.8403805000707507,403.4798487999942,None,None,0,,,,,,,,,,,,,,126,19,Female,2022-05-10_18h07.47.613,Parachute,2022.1.1,59.95135546269545,
positive,yellow,1,None,k,,,,,,,,,0,85,85,85,,,,,,,,,,,,,,,,,,,,,,,,,,,,,,,,,,,,,main,None,None,1,1.5021384001011029,408.3300925999647,None,None,1,,,,,,,,,,,,,,126,19,Female,2022-05-10_18h07.47.613,Parachute,2022.1.1,59.95135546269545,
positive,blue,2,k,None,,,,,,,,,0,86,86,86,,,,,,,,,,,,,,,,,,,,,,,,,,,,,,,,,,,,,main,k,k,1,1.0703579999972135,410.8329208000796,None,None,0,,,,,,,,,,,,,,126,19,Female,2022-05-10_18h07.47.613,Parachute,2022.1.1,59.95135546269545,
positive,blue,1,k,None,,,,,,,,,0,87,87,87,,,,,,,,,,,,,,,,,,,,,,,,,,,,,,,,,,,,,main,k,k,1,0.8144145000260323,412.90257719997317,None,None,0,,,,,,,,,,,,,,126,19,Female,2022-05-10_18h07.47.613,Parachute,2022.1.1,59.95135546269545,
negative,yellow,2,k,None,,,,,,,,,0,88,88,88,,,,,,,,,,,,,,,,,,,,,,,,,,,,,,,,,,,,,main,k,k,1,0.7159390000160784,414.7186938000377,None,None,0,,,,,,,,,,,,,,126,19,Female,2022-05-10_18h07.47.613,Parachute,2022.1.1,59.95135546269545,
negative,blue,2,None,k,,,,,,,,,0,89,89,89,,,,,,,,,,,,,,,,,,,,,,,,,,,,,,,,,,,,,main,None,None,1,1.4931031999876723,416.43586269998923,None,None,1,,,,,,,,,,,,,,126,19,Female,2022-05-10_18h07.47.613,Parachute,2022.1.1,59.95135546269545,
positive,yellow,2,None,k,,,,,,,,,0,90,90,90,,,,,,,,,,,,,,,,,,,,,,,,,,,,,,,,,,,,,main,None,None,1,1.4992902999510989,418.9329899000004,None,None,1,,,,,,,,,,,,,,126,19,Female,2022-05-10_18h07.47.613,Parachute,2022.1.1,59.95135546269545,
negative,yellow,1,k,None,,,,,,,,,0,91,91,91,,,,,,,,,,,,,,,,,,,,,,,,,,,,,,,,,,,,,main,k,k,1,1.086776899988763,421.43328160000965,None,None,0,,,,,,,,,,,,,,126,19,Female,2022-05-10_18h07.47.613,Parachute,2022.1.1,59.95135546269545,
negative,red,2,None,None,,,,,,,,,0,92,92,92,,,,,,,,,,,,,,,,,,,,,,,,,,,,,,,,,,,,,main,None,None,1,1.4934070999734104,423.5191613000352,None,None,1,,,,,,,,,,,,,,126,19,Female,2022-05-10_18h07.47.613,Parachute,2022.1.1,59.95135546269545,
negative,blue,2,None,k,,,,,,,,,0,93,93,93,,,,,,,,,,,,,,,,,,,,,,,,,,,,,,,,,,,,,main,None,None,1,1.4990614999551326,426.01668540004175,None,None,1,,,,,,,,,,,,,,126,19,Female,2022-05-10_18h07.47.613,Parachute,2022.1.1,59.95135546269545,
negative,blue,1,None,k,,,,,,,,,0,94,94,94,,,,,,,,,,,,,,,,,,,,,,,,,,,,,,,,,,,,,main,None,None,1,1.49771700007841,428.5169479000615,None,None,1,,,,,,,,,,,,,,126,19,Female,2022-05-10_18h07.47.613,Parachute,2022.1.1,59.95135546269545,
negative,blue,1,None,k,,,,,,,,,0,95,95,95,,,,,,,,,,,,,,,,,,,,,,,,,,,,,,,,,,,,,main,None,None,1,1.4993424999993294,431.0157460999908,None,None,1,,,,,,,,,,,,,,126,19,Female,2022-05-10_18h07.47.613,Parachute,2022.1.1,59.95135546269545,
negative,red,1,None,None,,,,,,,,,0,96,96,96,,,,,,,,,,,,,,,,,,,,,,,,,,,,,,,,,,,,,main,None,None,1,1.4986790999537334,433.5168107000645,None,None,1,,,,,,,,,,,,,,126,19,Female,2022-05-10_18h07.47.613,Parachute,2022.1.1,59.95135546269545,
positive,yellow,1,None,k,,,,,,,,,0,97,97,97,,,,,,,,,,,,,,,,,,,,,,,,,,,,,,,,,,,,,main,None,None,1,1.4983939999947324,436.01692700001877,None,None,1,,,,,,,,,,,,,,126,19,Female,2022-05-10_18h07.47.613,Parachute,2022.1.1,59.95135546269545,
negative,yellow,1,k,None,,,,,,,,,0,98,98,98,,,,,,,,,,,,,,,,,,,,,,,,,,,,,,,,,,,,,main,k,k,1,1.2373867999995127,438.5167336000595,None,None,0,,,,,,,,,,,,,,126,19,Female,2022-05-10_18h07.47.613,Parachute,2022.1.1,59.95135546269545,
positive,red,1,None,None,,,,,,,,,0,99,99,99,,,,,,,,,,,,,,,,,,,,,,,,,,,,,,,,,,,,,main,None,None,1,1.4932224000804126,440.7527594000567,None,None,1,,,,,,,,,,,,,,126,19,Female,2022-05-10_18h07.47.613,Parachute,2022.1.1,59.95135546269545,
positive,blue,1,k,None,,,,,,,,,0,100,100,100,,,,,,,,,,,,,,,,,,,,,,,,,,,,,,,,,,,,,main,k,k,1,1.4539900999516249,443.249741800013,None,None,0,,,,,,,,,,,,,,126,19,Female,2022-05-10_18h07.47.613,Parachute,2022.1.1,59.95135546269545,
negative,yellow,1,k,None,,,,,,,,,0,101,101,101,,,,,,,,,,,,,,,,,,,,,,,,,,,,,,,,,,,,,main,k,k,1,0.882821699953638,445.7030612999806,None,None,0,,,,,,,,,,,,,,126,19,Female,2022-05-10_18h07.47.613,Parachute,2022.1.1,59.95135546269545,
negative,blue,2,None,k,,,,,,,,,0,102,102,102,,,,,,,,,,,,,,,,,,,,,,,,,,,,,,,,,,,,,main,None,None,1,1.4918720999266952,447.5877012000419,None,None,1,,,,,,,,,,,,,,126,19,Female,2022-05-10_18h07.47.613,Parachute,2022.1.1,59.95135546269545,
negative,yellow,2,k,None,,,,,,,,,0,103,103,103,,,,,,,,,,,,,,,,,,,,,,,,,,,,,,,,,,,,,main,k,k,1,1.0212156999623403,450.08269060007297,None,None,0,,,,,,,,,,,,,,126,19,Female,2022-05-10_18h07.47.613,Parachute,2022.1.1,59.95135546269545,
positive,yellow,2,None,k,,,,,,,,,0,104,104,104,,,,,,,,,,,,,,,,,,,,,,,,,,,,,,,,,,,,,main,None,None,1,1.4935597999719903,452.1031359999906,None,None,1,,,,,,,,,,,,,,126,19,Female,2022-05-10_18h07.47.613,Parachute,2022.1.1,59.95135546269545,
positive,blue,1,k,None,,,,,,,,,0,105,105,105,,,,,,,,,,,,,,,,,,,,,,,,,,,,,,,,,,,,,main,k,k,1,0.853906900039874,454.59977590001654,None,None,0,,,,,,,,,,,,,,126,19,Female,2022-05-10_18h07.47.613,Parachute,2022.1.1,59.95135546269545,
positive,blue,2,k,None,,,,,,,,,0,106,106,106,,,,,,,,,,,,,,,,,,,,,,,,,,,,,,,,,,,,,main,k,k,1,0.7151732000056654,456.4534884999739,None,None,0,,,,,,,,,,,,,,126,19,Female,2022-05-10_18h07.47.613,Parachute,2022.1.1,59.95135546269545,
negative,blue,1,None,k,,,,,,,,,0,107,107,107,,,,,,,,,,,,,,,,,,,,,,,,,,,,,,,,,,,,,main,None,None,1,1.493277300032787,458.1701946000103,None,None,1,,,,,,,,,,,,,,126,19,Female,2022-05-10_18h07.47.613,Parachute,2022.1.1,59.95135546269545,
positive,yellow,2,None,k,,,,,,,,,0,108,108,108,,,,,,,,,,,,,,,,,,,,,,,,,,,,,,,,,,,,,main,None,None,1,1.499292500084266,460.66654980008025,None,None,1,,,,,,,,,,,,,,126,19,Female,2022-05-10_18h07.47.613,Parachute,2022.1.1,59.95135546269545,
negative,yellow,1,k,None,,,,,,,,,0,109,109,109,,,,,,,,,,,,,,,,,,,,,,,,,,,,,,,,,,,,,main,k,k,1,0.7367152000078931,463.167836299981,None,None,0,,,,,,,,,,,,,,126,19,Female,2022-05-10_18h07.47.613,Parachute,2022.1.1,59.95135546269545,
negative,blue,2,None,k,,,,,,,,,0,110,110,110,,,,,,,,,,,,,,,,,,,,,,,,,,,,,,,,,,,,,main,None,None,1,1.4935558999422938,464.903001000057,None,None,1,,,,,,,,,,,,,,126,19,Female,2022-05-10_18h07.47.613,Parachute,2022.1.1,59.95135546269545,
positive,blue,2,k,None,,,,,,,,,0,111,111,111,,,,,,,,,,,,,,,,,,,,,,,,,,,,,,,,,,,,,main,k,k,1,0.8522462999681011,467.40056490001734,None,None,0,,,,,,,,,,,,,,126,19,Female,2022-05-10_18h07.47.613,Parachute,2022.1.1,59.95135546269545,
negative,blue,1,None,k,,,,,,,,,0,112,112,112,,,,,,,,,,,,,,,,,,,,,,,,,,,,,,,,,,,,,main,None,None,1,1.49502360005863,469.25382250000257,None,None,1,,,,,,,,,,,,,,126,19,Female,2022-05-10_18h07.47.613,Parachute,2022.1.1,59.95135546269545,
positive,yellow,1,None,k,,,,,,,,,0,113,113,113,,,,,,,,,,,,,,,,,,,,,,,,,,,,,,,,,,,,,main,None,k,0,0.686946599977091,471.7502823000541,None,None,1,,,,,,,,,,,,,,126,19,Female,2022-05-10_18h07.47.613,Parachute,2022.1.1,59.95135546269545,
negative,red,1,None,None,,,,,,,,,0,114,114,114,,,,,,,,,,,,,,,,,,,,,,,,,,,,,,,,,,,,,main,None,None,1,1.5015551999676973,474.4484609999927,None,None,1,,,,,,,,,,,,,,126,19,Female,2022-05-10_18h07.47.613,Parachute,2022.1.1,59.95135546269545,
positive,red,1,None,None,,,,,,,,,0,115,115,115,,,,,,,,,,,,,,,,,,,,,,,,,,,,,,,,,,,,,main,None,None,1,1.4974432999733835,476.9528333999915,None,None,1,,,,,,,,,,,,,,126,19,Female,2022-05-10_18h07.47.613,Parachute,2022.1.1,59.95135546269545,
negative,red,2,None,None,,,,,,,,,0,116,116,116,,,,,,,,,,,,,,,,,,,,,,,,,,,,,,,,,,,,,main,None,None,1,1.4992351999972016,479.45050989999436,None,None,1,,,,,,,,,,,,,,126,19,Female,2022-05-10_18h07.47.613,Parachute,2022.1.1,59.95135546269545,
negative,yellow,2,k,None,,,,,,,,,0,117,117,117,,,,,,,,,,,,,,,,,,,,,,,,,,,,,,,,,,,,,main,k,k,1,0.9533019999507815,481.95153890002985,None,None,0,,,,,,,,,,,,,,126,19,Female,2022-05-10_18h07.47.613,Parachute,2022.1.1,59.95135546269545,
positive,yellow,1,None,k,,,,,,,,,0,118,118,118,,,,,,,,,,,,,,,,,,,,,,,,,,,,,,,,,,,,,main,None,None,1,1.4933515000157058,483.9033962000394,None,None,1,,,,,,,,,,,,,,126,19,Female,2022-05-10_18h07.47.613,Parachute,2022.1.1,59.95135546269545,
positive,red,2,None,None,,,,,,,,,0,119,119,119,,,,,,,,,,,,,,,,,,,,,,,,,,,,,,,,,,,,,main,None,None,1,1.4986233999952674,486.4009724999778,None,None,1,,,,,,,,,,,,,,126,19,Female,2022-05-10_18h07.47.613,Parachute,2022.1.1,59.95135546269545,
positive,blue,2,k,None,,,,,,,,,0,120,120,120,,,,,,,,,,,,,,,,,,,,,,,,,,,,,,,,,,,,,main,k,k,1,1.1703162000048906,488.9010279000504,None,None,0,,,,,,,,,,,,,,126,19,Female,2022-05-10_18h07.47.613,Parachute,2022.1.1,59.95135546269545,
negative,red,1,None,None,,,,,,,,,0,121,121,121,,,,,,,,,,,,,,,,,,,,,,,,,,,,,,,,,,,,,main,None,None,1,1.4939932998968288,491.0705614000326,None,None,1,,,,,,,,,,,,,,126,19,Female,2022-05-10_18h07.47.613,Parachute,2022.1.1,59.95135546269545,
positive,yellow,2,None,k,,,,,,,,,0,122,122,122,,,,,,,,,,,,,,,,,,,,,,,,,,,,,,,,,,,,,main,None,None,1,1.4983997999224812,493.56798589997925,None,None,1,,,,,,,,,,,,,,126,19,Female,2022-05-10_18h07.47.613,Parachute,2022.1.1,59.95135546269545,
negative,red,2,None,None,,,,,,,,,0,123,123,123,,,,,,,,,,,,,,,,,,,,,,,,,,,,,,,,,,,,,main,None,None,1,1.498520000022836,496.06766970001627,None,None,1,,,,,,,,,,,,,,126,19,Female,2022-05-10_18h07.47.613,Parachute,2022.1.1,59.95135546269545,
negative,yellow,2,k,None,,,,,,,,,0,124,124,124,,,,,,,,,,,,,,,,,,,,,,,,,,,,,,,,,,,,,main,k,k,1,1.304040899965912,498.5675475000171,None,None,0,,,,,,,,,,,,,,126,19,Female,2022-05-10_18h07.47.613,Parachute,2022.1.1,59.95135546269545,
positive,red,1,None,None,,,,,,,,,0,125,125,125,,,,,,,,,,,,,,,,,,,,,,,,,,,,,,,,,,,,,main,None,None,1,1.4929790999740362,500.8722956000129,None,None,1,,,,,,,,,,,,,,126,19,Female,2022-05-10_18h07.47.613,Parachute,2022.1.1,59.95135546269545,
negative,blue,2,None,k,,,,,,,,,0,126,126,126,,,,,,,,,,,,,,,,,,,,,,,,,,,,,,,,,,,,,main,None,None,1,1.498568500042893,503.36770399997476,None,None,1,,,,,,,,,,,,,,126,19,Female,2022-05-10_18h07.47.613,Parachute,2022.1.1,59.95135546269545,
negative,blue,1,None,k,,,,,,,,,0,127,127,127,,,,,,,,,,,,,,,,,,,,,,,,,,,,,,,,,,,,,main,None,None,1,1.499295400106348,505.8674571000738,None,None,1,,,,,,,,,,,,,,126,19,Female,2022-05-10_18h07.47.613,Parachute,2022.1.1,59.95135546269545,
negative,yellow,1,k,None,,,,,,,,,0,128,128,128,,,,,,,,,,,,,,,,,,,,,,,,,,,,,,,,,,,,,main,k,k,1,1.1709831999614835,508.36871640000027,None,None,0,,,,,,,,,,,,,,126,19,Female,2022-05-10_18h07.47.613,Parachute,2022.1.1,59.95135546269545,
negative,yellow,1,k,None,,,,,,,,,0,129,129,129,,,,,,,,,,,,,,,,,,,,,,,,,,,,,,,,,,,,,main,k,k,1,0.6985547000076622,510.538973000017,None,None,0,,,,,,,,,,,,,,126,19,Female,2022-05-10_18h07.47.613,Parachute,2022.1.1,59.95135546269545,
positive,blue,1,k,None,,,,,,,,,0,130,130,130,,,,,,,,,,,,,,,,,,,,,,,,,,,,,,,,,,,,,main,k,k,1,1.095830100006424,512.2385331999976,None,None,0,,,,,,,,,,,,,,126,19,Female,2022-05-10_18h07.47.613,Parachute,2022.1.1,59.95135546269545,
negative,blue,1,None,k,,,,,,,,,0,131,131,131,,,,,,,,,,,,,,,,,,,,,,,,,,,,,,,,,,,,,main,None,None,1,1.495629199896939,514.3380747999763,None,None,1,,,,,,,,,,,,,,126,19,Female,2022-05-10_18h07.47.613,Parachute,2022.1.1,59.95135546269545,
negative,blue,2,None,k,,,,,,,,,0,132,132,132,,,,,,,,,,,,,,,,,,,,,,,,,,,,,,,,,,,,,main,None,None,1,1.4986237999983132,516.8347248000791,None,None,1,,,,,,,,,,,,,,126,19,Female,2022-05-10_18h07.47.613,Parachute,2022.1.1,59.95135546269545,
positive,blue,2,k,None,,,,,,,,,0,133,133,133,,,,,,,,,,,,,,,,,,,,,,,,,,,,,,,,,,,,,main,k,k,1,0.7204949000151828,519.3353506000713,None,None,0,,,,,,,,,,,,,,126,19,Female,2022-05-10_18h07.47.613,Parachute,2022.1.1,59.95135546269545,
positive,red,2,None,None,,,,,,,,,0,134,134,134,,,,,,,,,,,,,,,,,,,,,,,,,,,,,,,,,,,,,main,None,None,1,1.4935838000383228,521.0546173000475,None,None,1,,,,,,,,,,,,,,126,19,Female,2022-05-10_18h07.47.613,Parachute,2022.1.1,59.95135546269545,
negative,yellow,2,k,None,,,,,,,,,0,135,135,135,,,,,,,,,,,,,,,,,,,,,,,,,,,,,,,,,,,,,main,k,k,1,1.0366652000229806,523.5516392000718,None,None,0,,,,,,,,,,,,,,126,19,Female,2022-05-10_18h07.47.613,Parachute,2022.1.1,59.95135546269545,
positive,yellow,2,None,k,,,,,,,,,0,136,136,136,,,,,,,,,,,,,,,,,,,,,,,,,,,,,,,,,,,,,main,None,None,1,1.494188499986194,525.5877584000118,None,None,1,,,,,,,,,,,,,,126,19,Female,2022-05-10_18h07.47.613,Parachute,2022.1.1,59.95135546269545,
positive,blue,1,k,None,,,,,,,,,0,137,137,137,,,,,,,,,,,,,,,,,,,,,,,,,,,,,,,,,,,,,main,k,k,1,0.7042511999607086,528.0864608000265,None,None,0,,,,,,,,,,,,,,126,19,Female,2022-05-10_18h07.47.613,Parachute,2022.1.1,59.95135546269545,
positive,yellow,1,None,k,,,,,,,,,0,138,138,138,,,,,,,,,,,,,,,,,,,,,,,,,,,,,,,,,,,,,main,None,None,1,1.4928856999613345,529.7892300999956,None,None,1,,,,,,,,,,,,,,126,19,Female,2022-05-10_18h07.47.613,Parachute,2022.1.1,59.95135546269545,
positive,yellow,1,None,k,,,,,,,,,0,139,139,139,,,,,,,,,,,,,,,,,,,,,,,,,,,,,,,,,,,,,main,None,None,1,1.4986492999596521,532.2853294999804,None,None,1,,,,,,,,,,,,,,126,19,Female,2022-05-10_18h07.47.613,Parachute,2022.1.1,59.95135546269545,
positive,yellow,1,None,k,,,,,,,,,0,140,140,140,,,,,,,,,,,,,,,,,,,,,,,,,,,,,,,,,,,,,main,None,None,1,1.4992672000080347,534.7852922000457,None,None,1,,,,,,,,,,,,,,126,19,Female,2022-05-10_18h07.47.613,Parachute,2022.1.1,59.95135546269545,
positive,blue,1,k,None,,,,,,,,,0,141,141,141,,,,,,,,,,,,,,,,,,,,,,,,,,,,,,,,,,,,,main,k,k,1,1.053100400022231,537.2863924000412,None,None,0,,,,,,,,,,,,,,126,19,Female,2022-05-10_18h07.47.613,Parachute,2022.1.1,59.95135546269545,
positive,blue,2,k,None,,,,,,,,,0,142,142,142,,,,,,,,,,,,,,,,,,,,,,,,,,,,,,,,,,,,,main,k,k,1,0.832382500055246,539.3382461000001,None,None,0,,,,,,,,,,,,,,126,19,Female,2022-05-10_18h07.47.613,Parachute,2022.1.1,59.95135546269545,
positive,yellow,2,None,k,,,,,,,,,0,143,143,143,,,,,,,,,,,,,,,,,,,,,,,,,,,,,,,,,,,,,main,None,None,1,1.4934181000571698,541.1716693000635,None,None,1,,,,,,,,,,,,,,126,19,Female,2022-05-10_18h07.47.613,Parachute,2022.1.1,59.95135546269545,
negative,yellow,2,k,None,,,,,,,,,0,144,144,144,,,,,,,,,,,,,,,,,,,,,,,,,,,,,,,,,,,,,main,k,k,1,0.6788422000827268,543.6683920000214,None,None,0,,,,,,,,,,,,,,126,19,Female,2022-05-10_18h07.47.613,Parachute,2022.1.1,59.95135546269545,
negative,blue,2,None,k,,,,,,,,,0,145,145,145,,,,,,,,,,,,,,,,,,,,,,,,,,,,,,,,,,,,,main,None,None,1,1.501923399977386,545.3493683000561,None,None,1,,,,,,,,,,,,,,126,19,Female,2022-05-10_18h07.47.613,Parachute,2022.1.1,59.95135546269545,
negative,red,1,None,None,,,,,,,,,0,146,146,146,,,,,,,,,,,,,,,,,,,,,,,,,,,,,,,,,,,,,main,None,None,1,1.4986550000030547,547.8525375999743,None,None,1,,,,,,,,,,,,,,126,19,Female,2022-05-10_18h07.47.613,Parachute,2022.1.1,59.95135546269545,
positive,blue,1,k,None,,,,,,,,,0,147,147,147,,,,,,,,,,,,,,,,,,,,,,,,,,,,,,,,,,,,,main,k,k,1,1.2535409999545664,550.3527718000114,None,None,0,,,,,,,,,,,,,,126,19,Female,2022-05-10_18h07.47.613,Parachute,2022.1.1,59.95135546269545,
positive,yellow,1,None,k,,,,,,,,,0,148,148,148,,,,,,,,,,,,,,,,,,,,,,,,,,,,,,,,,,,,,main,None,None,1,1.4936902000335976,552.6055956999771,None,None,1,,,,,,,,,,,,,,126,19,Female,2022-05-10_18h07.47.613,Parachute,2022.1.1,59.95135546269545,
negative,red,2,None,None,,,,,,,,,0,149,149,149,,,,,,,,,,,,,,,,,,,,,,,,,,,,,,,,,,,,,main,None,None,1,1.4983318999875337,555.1021526000695,None,None,1,,,,,,,,,,,,,,126,19,Female,2022-05-10_18h07.47.613,Parachute,2022.1.1,59.95135546269545,
negative,blue,1,None,k,,,,,,,,,0,150,150,150,,,,,,,,,,,,,,,,,,,,,,,,,,,,,,,,,,,,,main,None,None,1,1.4985670000314713,557.6025002000388,None,None,1,,,,,,,,,,,,,,126,19,Female,2022-05-10_18h07.47.613,Parachute,2022.1.1,59.95135546269545,
negative,yellow,2,k,None,,,,,,,,,0,151,151,151,,,,,,,,,,,,,,,,,,,,,,,,,,,,,,,,,,,,,main,k,k,1,0.8044981000712141,560.1015711000655,None,None,0,,,,,,,,,,,,,,126,19,Female,2022-05-10_18h07.47.613,Parachute,2022.1.1,59.95135546269545,
negative,blue,2,None,k,,,,,,,,,0,152,152,152,,,,,,,,,,,,,,,,,,,,,,,,,,,,,,,,,,,,,main,None,None,1,1.4935293000889942,561.905146199977,None,None,1,,,,,,,,,,,,,,126,19,Female,2022-05-10_18h07.47.613,Parachute,2022.1.1,59.95135546269545,
negative,yellow,1,k,None,,,,,,,,,0,153,153,153,,,,,,,,,,,,,,,,,,,,,,,,,,,,,,,,,,,,,main,k,k,1,0.8035941000562161,564.4028775000479,None,None,0,,,,,,,,,,,,,,126,19,Female,2022-05-10_18h07.47.613,Parachute,2022.1.1,59.95135546269545,
negative,blue,1,None,k,,,,,,,,,0,154,154,154,,,,,,,,,,,,,,,,,,,,,,,,,,,,,,,,,,,,,main,None,None,1,1.4936881000176072,566.2053087999811,None,None,1,,,,,,,,,,,,,,126,19,Female,2022-05-10_18h07.47.613,Parachute,2022.1.1,59.95135546269545,
positive,yellow,2,None,k,,,,,,,,,0,155,155,155,,,,,,,,,,,,,,,,,,,,,,,,,,,,,,,,,,,,,main,None,None,1,1.4986943999538198,568.7028122000629,None,None,1,,,,,,,,,,,,,,126,19,Female,2022-05-10_18h07.47.613,Parachute,2022.1.1,59.95135546269545,
positive,red,2,None,None,,,,,,,,,0,156,156,156,,,,,,,,,,,,,,,,,,,,,,,,,,,,,,,,,,,,,main,None,None,1,1.4978417999809608,571.205403800006,None,None,1,,,,,,,,,,,,,,126,19,Female,2022-05-10_18h07.47.613,Parachute,2022.1.1,59.95135546269545,
positive,red,1,None,None,,,,,,,,,0,157,157,157,,,,,,,,,,,,,,,,,,,,,,,,,,,,,,,,,,,,,main,None,None,1,1.4989461000077426,573.7025019000284,None,None,1,,,,,,,,,,,,,,126,19,Female,2022-05-10_18h07.47.613,Parachute,2022.1.1,59.95135546269545,
positive,blue,2,k,None,,,,,,,,,0,158,158,158,,,,,,,,,,,,,,,,,,,,,,,,,,,,,,,,,,,,,main,k,k,1,0.8527030000695959,576.2034310000017,None,None,0,,,,,,,,,,,,,,126,19,Female,2022-05-10_18h07.47.613,Parachute,2022.1.1,59.95135546269545,
negative,yellow,1,k,None,,,,,,,,,0,159,159,159,,,,,,,,,,,,,,,,,,,,,,,,,,,,,,,,,,,,,main,k,k,1,0.8325629999162629,578.0559028000571,None,None,0,,,,,,,,,,,,,,126,19,Female,2022-05-10_18h07.47.613,Parachute,2022.1.1,59.95135546269545,
negative,red,2,None,None,,,,,,,,,0,160,160,160,,,,,,,,,,,,,,,,,,,,,,,,,,,,,,,,,,,,,main,None,None,1,1.4937825999222696,579.8890238000313,None,None,1,,,,,,,,,,,,,,126,19,Female,2022-05-10_18h07.47.613,Parachute,2022.1.1,59.95135546269545,
negative,blue,1,None,k,,,,,,,,,0,161,161,161,,,,,,,,,,,,,,,,,,,,,,,,,,,,,,,,,,,,,main,None,None,1,1.4984933000523597,582.386892599985,None,None,1,,,,,,,,,,,,,,126,19,Female,2022-05-10_18h07.47.613,Parachute,2022.1.1,59.95135546269545,
negative,blue,1,None,k,,,,,,,,,0,162,162,162,,,,,,,,,,,,,,,,,,,,,,,,,,,,,,,,,,,,,main,None,None,1,1.4987307999981567,584.8861521000508,None,None,1,,,,,,,,,,,,,,126,19,Female,2022-05-10_18h07.47.613,Parachute,2022.1.1,59.95135546269545,
negative,yellow,1,k,None,,,,,,,,,0,163,163,163,,,,,,,,,,,,,,,,,,,,,,,,,,,,,,,,,,,,,main,k,k,1,0.7865307000465691,587.3866302999668,None,None,0,,,,,,,,,,,,,,126,19,Female,2022-05-10_18h07.47.613,Parachute,2022.1.1,59.95135546269545,
negative,yellow,1,k,None,,,,,,,,,0,164,164,164,,,,,,,,,,,,,,,,,,,,,,,,,,,,,,,,,,,,,main,k,k,1,0.9071684000082314,589.1727627000073,None,None,0,,,,,,,,,,,,,,126,19,Female,2022-05-10_18h07.47.613,Parachute,2022.1.1,59.95135546269545,
positive,yellow,1,None,k,,,,,,,,,0,165,165,165,,,,,,,,,,,,,,,,,,,,,,,,,,,,,,,,,,,,,main,None,None,1,1.5019959999481216,591.0844473000616,None,None,1,,,,,,,,,,,,,,126,19,Female,2022-05-10_18h07.47.613,Parachute,2022.1.1,59.95135546269545,
negative,red,1,None,None,,,,,,,,,0,166,166,166,,,,,,,,,,,,,,,,,,,,,,,,,,,,,,,,,,,,,main,None,None,1,1.498538100044243,593.5861770000774,None,None,1,,,,,,,,,,,,,,126,19,Female,2022-05-10_18h07.47.613,Parachute,2022.1.1,59.95135546269545,
negative,yellow,2,k,None,,,,,,,,,0,167,167,167,,,,,,,,,,,,,,,,,,,,,,,,,,,,,,,,,,,,,main,k,k,1,0.8370182999642566,596.0863195999991,None,None,0,,,,,,,,,,,,,,126,19,Female,2022-05-10_18h07.47.613,Parachute,2022.1.1,59.95135546269545,
positive,blue,2,k,None,,,,,,,,,0,168,168,168,,,,,,,,,,,,,,,,,,,,,,,,,,,,,,,,,,,,,main,k,k,1,0.7140998000977561,597.9226286000339,None,None,0,,,,,,,,,,,,,,126,19,Female,2022-05-10_18h07.47.613,Parachute,2022.1.1,59.95135546269545,
positive,red,2,None,None,,,,,,,,,0,169,169,169,,,,,,,,,,,,,,,,,,,,,,,,,,,,,,,,,,,,,main,None,None,1,1.4950703999493271,599.6479203000199,None,None,1,,,,,,,,,,,,,,126,19,Female,2022-05-10_18h07.47.613,Parachute,2022.1.1,59.95135546269545,
positive,red,1,None,None,,,,,,,,,0,170,170,170,,,,,,,,,,,,,,,,,,,,,,,,,,,,,,,,,,,,,main,None,None,1,1.4989136999938637,602.136660899967,None,None,1,,,,,,,,,,,,,,126,19,Female,2022-05-10_18h07.47.613,Parachute,2022.1.1,59.95135546269545,
negative,blue,2,None,k,,,,,,,,,0,171,171,171,,,,,,,,,,,,,,,,,,,,,,,,,,,,,,,,,,,,,main,None,None,1,1.4983617999823764,604.6370187000139,None,None,1,,,,,,,,,,,,,,126,19,Female,2022-05-10_18h07.47.613,Parachute,2022.1.1,59.95135546269545,
positive,blue,2,k,None,,,,,,,,,0,172,172,172,,,,,,,,,,,,,,,,,,,,,,,,,,,,,,,,,,,,,main,k,k,1,0.970060299965553,607.1368700000457,None,None,0,,,,,,,,,,,,,,126,19,Female,2022-05-10_18h07.47.613,Parachute,2022.1.1,59.95135546269545,
negative,yellow,2,k,None,,,,,,,,,0,173,173,173,,,,,,,,,,,,,,,,,,,,,,,,,,,,,,,,,,,,,main,k,k,1,0.7966049999231473,609.1063367000315,None,None,0,,,,,,,,,,,,,,126,19,Female,2022-05-10_18h07.47.613,Parachute,2022.1.1,59.95135546269545,
positive,yellow,2,None,k,,,,,,,,,0,174,174,174,,,,,,,,,,,,,,,,,,,,,,,,,,,,,,,,,,,,,main,None,None,1,1.4959456999786198,610.906196600059,None,None,1,,,,,,,,,,,,,,126,19,Female,2022-05-10_18h07.47.613,Parachute,2022.1.1,59.95135546269545,
negative,blue,2,None,k,,,,,,,,,0,175,175,175,,,,,,,,,,,,,,,,,,,,,,,,,,,,,,,,,,,,,main,None,None,1,1.4994216000195593,613.4036885000532,None,None,1,,,,,,,,,,,,,,126,19,Female,2022-05-10_18h07.47.613,Parachute,2022.1.1,59.95135546269545,
positive,blue,1,k,None,,,,,,,,,0,176,176,176,,,,,,,,,,,,,,,,,,,,,,,,,,,,,,,,,,,,,main,k,k,1,0.720325900008902,615.9047523000045,None,None,0,,,,,,,,,,,,,,126,19,Female,2022-05-10_18h07.47.613,Parachute,2022.1.1,59.95135546269545,
positive,yellow,1,None,k,,,,,,,,,0,177,177,177,,,,,,,,,,,,,,,,,,,,,,,,,,,,,,,,,,,,,main,None,None,1,1.4930333000374958,617.6252220000606,None,None,1,,,,,,,,,,,,,,126,19,Female,2022-05-10_18h07.47.613,Parachute,2022.1.1,59.95135546269545,
positive,blue,1,k,None,,,,,,,,,0,178,178,178,,,,,,,,,,,,,,,,,,,,,,,,,,,,,,,,,,,,,main,k,k,1,1.1538253999315202,620.1219027000479,None,None,0,,,,,,,,,,,,,,126,19,Female,2022-05-10_18h07.47.613,Parachute,2022.1.1,59.95135546269545,
positive,yellow,2,None,k,,,,,,,,,0,179,179,179,,,,,,,,,,,,,,,,,,,,,,,,,,,,,,,,,,,,,main,None,None,1,1.4933939999900758,622.2732602000469,None,None,1,,,,,,,,,,,,,,126,19,Female,2022-05-10_18h07.47.613,Parachute,2022.1.1,59.95135546269545,
positive,blue,1,k,None,,,,,,,,,0,180,180,180,,,,,,,,,,,,,,,,,,,,,,,,,,,,,,,,,,,,,main,k,k,1,0.9873641000594944,624.7706798000727,None,None,0,,,,,,,,,,,,,,126,19,Female,2022-05-10_18h07.47.613,Parachute,2022.1.1,59.95135546269545,
negative,red,1,None,None,,,,,,,,,0,181,181,181,,,,,,,,,,,,,,,,,,,,,,,,,,,,,,,,,,,,,main,None,None,1,1.4929356999928132,626.7572793000145,None,None,1,,,,,,,,,,,,,,126,19,Female,2022-05-10_18h07.47.613,Parachute,2022.1.1,59.95135546269545,
negative,blue,1,None,k,,,,,,,,,0,182,182,182,,,,,,,,,,,,,,,,,,,,,,,,,,,,,,,,,,,,,main,None,None,1,1.4995702999876812,629.2535713000689,None,None,1,,,,,,,,,,,,,,126,19,Female,2022-05-10_18h07.47.613,Parachute,2022.1.1,59.95135546269545,
negative,yellow,2,k,None,,,,,,,,,0,183,183,183,,,,,,,,,,,,,,,,,,,,,,,,,,,,,,,,,,,,,main,k,k,1,0.6870148999150842,631.7557668000227,None,None,0,,,,,,,,,,,,,,126,19,Female,2022-05-10_18h07.47.613,Parachute,2022.1.1,59.95135546269545,
positive,yellow,2,None,k,,,,,,,,,0,184,184,184,,,,,,,,,,,,,,,,,,,,,,,,,,,,,,,,,,,,,main,None,None,1,1.4927727999165654,633.4414059000555,None,None,1,,,,,,,,,,,,,,126,19,Female,2022-05-10_18h07.47.613,Parachute,2022.1.1,59.95135546269545,
positive,yellow,1,None,k,,,,,,,,,0,185,185,185,,,,,,,,,,,,,,,,,,,,,,,,,,,,,,,,,,,,,main,None,None,1,1.4988357999827713,635.9377576999832,None,None,1,,,,,,,,,,,,,,126,19,Female,2022-05-10_18h07.47.613,Parachute,2022.1.1,59.95135546269545,
positive,red,2,None,None,,,,,,,,,0,186,186,186,,,,,,,,,,,,,,,,,,,,,,,,,,,,,,,,,,,,,main,None,None,1,1.4981019000988454,638.4385616000509,None,None,1,,,,,,,,,,,,,,126,19,Female,2022-05-10_18h07.47.613,Parachute,2022.1.1,59.95135546269545,
positive,blue,1,k,None,,,,,,,,,0,187,187,187,,,,,,,,,,,,,,,,,,,,,,,,,,,,,,,,,,,,,main,k,k,1,1.3877444000681862,640.9374996999977,None,None,0,,,,,,,,,,,,,,126,19,Female,2022-05-10_18h07.47.613,Parachute,2022.1.1,59.95135546269545,
negative,yellow,1,k,None,,,,,,,,,0,188,188,188,,,,,,,,,,,,,,,,,,,,,,,,,,,,,,,,,,,,,main,k,k,1,0.665831100079231,643.323874099995,None,None,0,,,,,,,,,,,,,,126,19,Female,2022-05-10_18h07.47.613,Parachute,2022.1.1,59.95135546269545,
positive,yellow,2,None,k,,,,,,,,,0,189,189,189,,,,,,,,,,,,,,,,,,,,,,,,,,,,,,,,,,,,,main,None,None,1,1.4927106000250205,644.9913200000301,None,None,1,,,,,,,,,,,,,,126,19,Female,2022-05-10_18h07.47.613,Parachute,2022.1.1,59.95135546269545,
negative,yellow,2,k,None,,,,,,,,,0,190,190,190,,,,,,,,,,,,,,,,,,,,,,,,,,,,,,,,,,,,,main,k,k,1,1.1206196000566706,647.4879457000643,None,None,0,,,,,,,,,,,,,,126,19,Female,2022-05-10_18h07.47.613,Parachute,2022.1.1,59.95135546269545,
negative,yellow,1,k,None,,,,,,,,,0,191,191,191,,,,,,,,,,,,,,,,,,,,,,,,,,,,,,,,,,,,,main,k,k,1,0.7642265999456868,649.6072547000367,None,None,0,,,,,,,,,,,,,,126,19,Female,2022-05-10_18h07.47.613,Parachute,2022.1.1,59.95135546269545,
positive,blue,2,k,None,,,,,,,,,0,192,192,192,,,,,,,,,,,,,,,,,,,,,,,,,,,,,,,,,,,,,main,k,k,1,0.8175308000063524,651.3742391000269,None,None,0,,,,,,,,,,,,,,126,19,Female,2022-05-10_18h07.47.613,Parachute,2022.1.1,59.95135546269545,
positive,yellow,1,None,k,,,,,,,,,0,193,193,193,,,,,,,,,,,,,,,,,,,,,,,,,,,,,,,,,,,,,main,None,None,1,1.5087618000106886,653.1922419000184,None,None,1,,,,,,,,,,,,,,126,19,Female,2022-05-10_18h07.47.613,Parachute,2022.1.1,59.95135546269545,
negative,red,2,None,None,,,,,,,,,0,194,194,194,,,,,,,,,,,,,,,,,,,,,,,,,,,,,,,,,,,,,main,None,None,1,1.498714999994263,655.7048922000686,None,None,1,,,,,,,,,,,,,,126,19,Female,2022-05-10_18h07.47.613,Parachute,2022.1.1,59.95135546269545,
positive,red,1,None,None,,,,,,,,,0,195,195,195,,,,,,,,,,,,,,,,,,,,,,,,,,,,,,,,,,,,,main,None,None,1,1.4985024000052363,658.2051566999871,None,None,1,,,,,,,,,,,,,,126,19,Female,2022-05-10_18h07.47.613,Parachute,2022.1.1,59.95135546269545,
negative,blue,1,None,k,,,,,,,,,0,196,196,196,,,,,,,,,,,,,,,,,,,,,,,,,,,,,,,,,,,,,main,None,None,1,1.4988956999732181,660.7045750999823,None,None,1,,,,,,,,,,,,,,126,19,Female,2022-05-10_18h07.47.613,Parachute,2022.1.1,59.95135546269545,
positive,blue,2,k,None,,,,,,,,,0,197,197,197,,,,,,,,,,,,,,,,,,,,,,,,,,,,,,,,,,,,,main,k,k,1,1.4537086999043822,663.2054469999857,None,None,0,,,,,,,,,,,,,,126,19,Female,2022-05-10_18h07.47.613,Parachute,2022.1.1,59.95135546269545,
negative,blue,2,None,k,,,,,,,,,0,198,198,198,,,,,,,,,,,,,,,,,,,,,,,,,,,,,,,,,,,,,main,None,None,1,1.493663299945183,665.6583361000521,None,None,1,,,,,,,,,,,,,,126,19,Female,2022-05-10_18h07.47.613,Parachute,2022.1.1,59.95135546269545,
negative,blue,2,None,k,,,,,,,,,0,199,199,199,,,,,,,,,,,,,,,,,,,,,,,,,,,,,,,,,,,,,main,None,None,1,1.4981539000291377,668.1564122000709,None,None,1,,,,,,,,,,,,,,126,19,Female,2022-05-10_18h07.47.613,Parachute,2022.1.1,59.95135546269545,
positive,blue,2,k,None,,,,,,,,,0,200,200,200,,,,,,,,,,,,,,,,,,,,,,,,,,,,,,,,,,,,,main,k,k,1,0.9372784999432042,670.6557353000389,None,None,0,,,,,,,,,,,,,,126,19,Female,2022-05-10_18h07.47.613,Parachute,2022.1.1,59.95135546269545,
positive,blue,2,k,None,,,,,,,,,0,201,201,201,,,,,,,,,,,,,,,,,,,,,,,,,,,,,,,,,,,,,main,k,k,1,0.7655314999865368,672.5914780000458,None,None,0,,,,,,,,,,,,,,126,19,Female,2022-05-10_18h07.47.613,Parachute,2022.1.1,59.95135546269545,
negative,yellow,2,k,None,,,,,,,,,0,202,202,202,,,,,,,,,,,,,,,,,,,,,,,,,,,,,,,,,,,,,main,k,k,1,0.7649353999877349,674.3578370000469,None,None,0,,,,,,,,,,,,,,126,19,Female,2022-05-10_18h07.47.613,Parachute,2022.1.1,59.95135546269545,
positive,red,1,None,None,,,,,,,,,0,203,203,203,,,,,,,,,,,,,,,,,,,,,,,,,,,,,,,,,,,,,main,None,None,1,1.4936049999669194,676.1244774999795,None,None,1,,,,,,,,,,,,,,126,19,Female,2022-05-10_18h07.47.613,Parachute,2022.1.1,59.95135546269545,
negative,blue,2,None,k,,,,,,,,,0,204,204,204,,,,,,,,,,,,,,,,,,,,,,,,,,,,,,,,,,,,,main,None,None,1,1.498776899999939,678.6213693000609,None,None,1,,,,,,,,,,,,,,126,19,Female,2022-05-10_18h07.47.613,Parachute,2022.1.1,59.95135546269545,
negative,red,1,None,None,,,,,,,,,0,205,205,205,,,,,,,,,,,,,,,,,,,,,,,,,,,,,,,,,,,,,main,None,None,1,1.4985215000342578,681.1215433999896,None,None,1,,,,,,,,,,,,,,126,19,Female,2022-05-10_18h07.47.613,Parachute,2022.1.1,59.95135546269545,
negative,blue,2,None,k,,,,,,,,,0,206,206,206,,,,,,,,,,,,,,,,,,,,,,,,,,,,,,,,,,,,,main,None,None,1,1.498892099945806,683.6217377000721,None,None,1,,,,,,,,,,,,,,126,19,Female,2022-05-10_18h07.47.613,Parachute,2022.1.1,59.95135546269545,
negative,yellow,2,k,None,,,,,,,,,0,207,207,207,,,,,,,,,,,,,,,,,,,,,,,,,,,,,,,,,,,,,main,k,k,1,1.5040773999644443,686.1218025999842,None,None,0,,,,,,,,,,,,,,126,19,Female,2022-05-10_18h07.47.613,Parachute,2022.1.1,59.95135546269545,
positive,yellow,2,None,k,,,,,,,,,0,208,208,208,,,,,,,,,,,,,,,,,,,,,,,,,,,,,,,,,,,,,main,None,None,1,1.5029034999897704,689.6366102000466,None,None,1,,,,,,,,,,,,,,126,19,Female,2022-05-10_18h07.47.613,Parachute,2022.1.1,59.95135546269545,
negative,yellow,1,k,None,,,,,,,,,0,209,209,209,,,,,,,,,,,,,,,,,,,,,,,,,,,,,,,,,,,,,main,k,k,1,1.236194400000386,692.1394680000376,None,None,0,,,,,,,,,,,,,,126,19,Female,2022-05-10_18h07.47.613,Parachute,2022.1.1,59.95135546269545,
negative,red,2,None,None,,,,,,,,,0,210,210,210,,,,,,,,,,,,,,,,,,,,,,,,,,,,,,,,,,,,,main,None,None,1,1.4936646999558434,694.3752215000568,None,None,1,,,,,,,,,,,,,,126,19,Female,2022-05-10_18h07.47.613,Parachute,2022.1.1,59.95135546269545,
negative,blue,1,None,k,,,,,,,,,0,211,211,211,,,,,,,,,,,,,,,,,,,,,,,,,,,,,,,,,,,,,main,None,None,1,1.4985125000821427,696.8726204000413,None,None,1,,,,,,,,,,,,,,126,19,Female,2022-05-10_18h07.47.613,Parachute,2022.1.1,59.95135546269545,
negative,yellow,1,k,None,,,,,,,,,0,212,212,212,,,,,,,,,,,,,,,,,,,,,,,,,,,,,,,,,,,,,main,k,k,1,0.7706078999908641,699.3726057000458,None,None,0,,,,,,,,,,,,,,126,19,Female,2022-05-10_18h07.47.613,Parachute,2022.1.1,59.95135546269545,
positive,blue,1,k,None,,,,,,,,,0,213,213,213,,,,,,,,,,,,,,,,,,,,,,,,,,,,,,,,,,,,,main,k,k,1,0.9567653000121936,701.1418920999859,None,None,0,,,,,,,,,,,,,,126,19,Female,2022-05-10_18h07.47.613,Parachute,2022.1.1,59.95135546269545,
positive,blue,1,k,None,,,,,,,,,0,214,214,214,,,,,,,,,,,,,,,,,,,,,,,,,,,,,,,,,,,,,main,k,k,1,0.690087900031358,703.1034206000622,None,None,0,,,,,,,,,,,,,,126,19,Female,2022-05-10_18h07.47.613,Parachute,2022.1.1,59.95135546269545,
positive,yellow,1,None,k,,,,,,,,,0,215,215,215,,,,,,,,,,,,,,,,,,,,,,,,,,,,,,,,,,,,,main,None,None,1,1.4941402999684215,704.7918492000317,None,None,1,,,,,,,,,,,,,,126,19,Female,2022-05-10_18h07.47.613,Parachute,2022.1.1,59.95135546269545,
positive,yellow,1,None,k,,,,,,,,,0,216,216,216,,,,,,,,,,,,,,,,,,,,,,,,,,,,,,,,,,,,,main,None,None,1,1.4986462000524625,707.289826799999,None,None,1,,,,,,,,,,,,,,126,19,Female,2022-05-10_18h07.47.613,Parachute,2022.1.1,59.95135546269545,
positive,yellow,2,None,k,,,,,,,,,0,217,217,217,,,,,,,,,,,,,,,,,,,,,,,,,,,,,,,,,,,,,main,None,None,1,1.498272700002417,709.7898303000256,None,None,1,,,,,,,,,,,,,,126,19,Female,2022-05-10_18h07.47.613,Parachute,2022.1.1,59.95135546269545,
negative,blue,1,None,k,,,,,,,,,0,218,218,218,,,,,,,,,,,,,,,,,,,,,,,,,,,,,,,,,,,,,main,None,None,1,1.4985840999288484,712.2895299000666,None,None,1,,,,,,,,,,,,,,126,19,Female,2022-05-10_18h07.47.613,Parachute,2022.1.1,59.95135546269545,
positive,red,2,None,None,,,,,,,,,0,219,219,219,,,,,,,,,,,,,,,,,,,,,,,,,,,,,,,,,,,,,main,None,None,1,1.4987761999946088,714.7890802000184,None,None,1,,,,,,,,,,,,,,126,19,Female,2022-05-10_18h07.47.613,Parachute,2022.1.1,59.95135546269545,
positive,yellow,1,None,k,,,,,,,,,0,220,220,220,,,,,,,,,,,,,,,,,,,,,,,,,,,,,,,,,,,,,main,None,None,1,1.4981375000206754,717.289483300061,None,None,1,,,,,,,,,,,,,,126,19,Female,2022-05-10_18h07.47.613,Parachute,2022.1.1,59.95135546269545,
positive,blue,1,k,None,,,,,,,,,0,221,221,221,,,,,,,,,,,,,,,,,,,,,,,,,,,,,,,,,,,,,main,k,k,1,0.7208927000174299,719.7882736000465,None,None,0,,,,,,,,,,,,,,126,19,Female,2022-05-10_18h07.47.613,Parachute,2022.1.1,59.95135546269545,
positive,yellow,2,None,k,,,,,,,,,0,222,222,222,,,,,,,,,,,,,,,,,,,,,,,,,,,,,,,,,,,,,main,None,None,1,1.4933569999411702,721.5086605000542,None,None,1,,,,,,,,,,,,,,126,19,Female,2022-05-10_18h07.47.613,Parachute,2022.1.1,59.95135546269545,
negative,yellow,1,k,None,,,,,,,,,0,223,223,223,,,,,,,,,,,,,,,,,,,,,,,,,,,,,,,,,,,,,main,k,k,1,0.8028653999790549,724.0062321000732,None,None,0,,,,,,,,,,,,,,126,19,Female,2022-05-10_18h07.47.613,Parachute,2022.1.1,59.95135546269545,
positive,yellow,2,None,k,,,,,,,,,0,224,224,224,,,,,,,,,,,,,,,,,,,,,,,,,,,,,,,,,,,,,main,None,None,1,1.495352099998854,725.8088713000761,None,None,1,,,,,,,,,,,,,,126,19,Female,2022-05-10_18h07.47.613,Parachute,2022.1.1,59.95135546269545,
negative,yellow,2,k,None,,,,,,,,,0,225,225,225,,,,,,,,,,,,,,,,,,,,,,,,,,,,,,,,,,,,,main,k,k,1,1.4205938000231981,728.3070895000128,None,None,0,,,,,,,,,,,,,,126,19,Female,2022-05-10_18h07.47.613,Parachute,2022.1.1,59.95135546269545,
negative,blue,2,None,k,,,,,,,,,0,226,226,226,,,,,,,,,,,,,,,,,,,,,,,,,,,,,,,,,,,,,main,None,None,1,1.4929862000280991,730.7267700000666,None,None,1,,,,,,,,,,,,,,126,19,Female,2022-05-10_18h07.47.613,Parachute,2022.1.1,59.95135546269545,
positive,red,2,None,None,,,,,,,,,0,227,227,227,,,,,,,,,,,,,,,,,,,,,,,,,,,,,,,,,,,,,main,None,None,1,1.4985333000076935,733.2231527999975,None,None,1,,,,,,,,,,,,,,126,19,Female,2022-05-10_18h07.47.613,Parachute,2022.1.1,59.95135546269545,
positive,blue,2,k,None,,,,,,,,,0,228,228,228,,,,,,,,,,,,,,,,,,,,,,,,,,,,,,,,,,,,,main,k,k,1,1.1542506000259891,735.7232248999644,None,None,0,,,,,,,,,,,,,,126,19,Female,2022-05-10_18h07.47.613,Parachute,2022.1.1,59.95135546269545,
negative,blue,1,None,k,,,,,,,,,0,229,229,229,,,,,,,,,,,,,,,,,,,,,,,,,,,,,,,,,,,,,main,None,None,1,1.4930378999561071,737.8771360999672,None,None,1,,,,,,,,,,,,,,126,19,Female,2022-05-10_18h07.47.613,Parachute,2022.1.1,59.95135546269545,
positive,yellow,1,None,k,,,,,,,,,0,230,230,230,,,,,,,,,,,,,,,,,,,,,,,,,,,,,,,,,,,,,main,None,k,0,0.8691581999883056,740.3736448000418,None,None,1,,,,,,,,,,,,,,126,19,Female,2022-05-10_18h07.47.613,Parachute,2022.1.1,59.95135546269545,
negative,blue,2,None,k,,,,,,,,,0,231,231,231,,,,,,,,,,,,,,,,,,,,,,,,,,,,,,,,,,,,,main,None,None,1,1.501868600025773,743.2539709999692,None,None,1,,,,,,,,,,,,,,126,19,Female,2022-05-10_18h07.47.613,Parachute,2022.1.1,59.95135546269545,
negative,red,1,None,None,,,,,,,,,0,232,232,232,,,,,,,,,,,,,,,,,,,,,,,,,,,,,,,,,,,,,main,None,None,1,1.4983237000415102,745.7572037000209,None,None,1,,,,,,,,,,,,,,126,19,Female,2022-05-10_18h07.47.613,Parachute,2022.1.1,59.95135546269545,
positive,blue,2,k,None,,,,,,,,,0,233,233,233,,,,,,,,,,,,,,,,,,,,,,,,,,,,,,,,,,,,,main,k,k,1,0.987147800042294,748.256850500009,None,None,0,,,,,,,,,,,,,,126,19,Female,2022-05-10_18h07.47.613,Parachute,2022.1.1,59.95135546269545,
negative,yellow,1,k,None,,,,,,,,,0,234,234,234,,,,,,,,,,,,,,,,,,,,,,,,,,,,,,,,,,,,,main,k,k,1,0.8821205999702215,750.2429924000753,None,None,0,,,,,,,,,,,,,,126,19,Female,2022-05-10_18h07.47.613,Parachute,2022.1.1,59.95135546269545,
negative,yellow,2,k,None,,,,,,,,,0,235,235,235,,,,,,,,,,,,,,,,,,,,,,,,,,,,,,,,,,,,,main,k,k,1,0.9315892999293283,752.1266345999902,None,None,0,,,,,,,,,,,,,,126,19,Female,2022-05-10_18h07.47.613,Parachute,2022.1.1,59.95135546269545,
positive,red,1,None,None,,,,,,,,,0,236,236,236,,,,,,,,,,,,,,,,,,,,,,,,,,,,,,,,,,,,,main,None,None,1,1.4934899000218138,754.0595364000183,None,None,1,,,,,,,,,,,,,,126,19,Female,2022-05-10_18h07.47.613,Parachute,2022.1.1,59.95135546269545,
negative,red,2,None,None,,,,,,,,,0,237,237,237,,,,,,,,,,,,,,,,,,,,,,,,,,,,,,,,,,,,,main,None,None,1,1.4992017999757081,756.5571543000406,None,None,1,,,,,,,,,,,,,,126,19,Female,2022-05-10_18h07.47.613,Parachute,2022.1.1,59.95135546269545,
negative,blue,1,None,k,,,,,,,,,0,238,238,238,,,,,,,,,,,,,,,,,,,,,,,,,,,,,,,,,,,,,main,None,None,1,1.4979471999686211,759.0581507000607,None,None,1,,,,,,,,,,,,,,126,19,Female,2022-05-10_18h07.47.613,Parachute,2022.1.1,59.95135546269545,
positive,blue,1,k,None,,,,,,,,,0,239,239,239,,,,,,,,,,,,,,,,,,,,,,,,,,,,,,,,,,,,,main,k,k,1,0.8378155000973493,761.5567955999868,None,None,0,,,,,,,,,,,,,,126,19,Female,2022-05-10_18h07.47.613,Parachute,2022.1.1,59.95135546269545,
,,,,,,,,,,,,,,,,,,,,,,,,,,,,,,,,,,,,,,,,,,,,,,,,,,,,,,,,,,,,,,,,,,,,,,,,,763.3900052000536,None,,,,,,,,
