distractor,target,set,ans1,ans2,rep_loop4.thisRepN,rep_loop4.thisTrialN,rep_loop4.thisN,rep_loop4.thisIndex,st2_prac_loop.thisRepN,st2_prac_loop.thisTrialN,st2_prac_loop.thisN,st2_prac_loop.thisIndex,st2_main_loop.thisRepN,st2_main_loop.thisTrialN,st2_main_loop.thisN,st2_main_loop.thisIndex,image_4.started,image_4.stopped,mouse_7.x,mouse_7.y,mouse_7.leftButton,mouse_7.midButton,mouse_7.rightButton,sound_2.started,sound_2.stopped,key_resp_3.keys,mouse_5.x,mouse_5.y,mouse_5.leftButton,mouse_5.midButton,mouse_5.rightButton,mouse_5.started,mouse_5.stopped,yes_text2.started,yes_text2.stopped,no_text2.started,no_text2.stopped,mouse_3.x,mouse_3.y,mouse_3.leftButton,mouse_3.midButton,mouse_3.rightButton,mouse_3.started,mouse_3.stopped,st_prac_back.started,st_prac_back.stopped,st_prac_text.started,st_prac_text.stopped,st_fix_back.started,st_fix_back.stopped,st_fix_2.started,st_fix_2.stopped,main_prac,st_ans,st_res,st_corr,st_rt,st_back.started,st_back.stopped,st2_resp.keys,st2_resp.corr,st_main_back.started,st_main_back.stopped,st_main_text.started,st_main_text.stopped,mouse_4.x,mouse_4.y,mouse_4.leftButton,mouse_4.midButton,mouse_4.rightButton,mouse_4.started,mouse_4.stopped,text_2.started,text_2.stopped,id*,age*,gender*,date,expName,psychopyVersion,frameRate,
,,,,,,,,,,,,,,,,,42.69321549998131,None,0.10555556,-0.1388889,0,0,0,,,,,,,,,,,,,,,,,,,,,,,,,,,,,,,,,,,,,,,,,,,,,,,,,,,,127,33,Female,2022-05-11_09h50.21.747,Parachute,2022.1.1,59.976057571007786,
negative,yellow,1,k,None,,,,,0,0,0,0,,,,,,,,,,,,46.62744098996045,None,None,0.022222223,-0.26018518,0,0,0,1.0137735500466079,None,64.11279589997139,None,64.11279589997139,None,-0.11203704,-0.087037034,0,0,0,0.013537290040403605,None,65.31438569992315,None,65.31438569992315,None,67.32955969998147,None,67.32955969998147,None,prac,None,None,1,1.5094172999961302,69.34321319998708,None,None,1,,,,,,,,,,,,,,127,33,Female,2022-05-11_09h50.21.747,Parachute,2022.1.1,59.976057571007786,
positive,red,2,None,None,,,,,0,1,1,1,,,,,,,,,,,,,,,,,,,,,,,,,,,,,,,,,,,,,,,,,prac,None,None,1,1.4993317000335082,71.82992589997593,None,None,1,,,,,,,,,,,,,,127,33,Female,2022-05-11_09h50.21.747,Parachute,2022.1.1,59.976057571007786,
negative,blue,2,None,k,,,,,0,2,2,2,,,,,,,,,,,,,,,,,,,,,,,,,,,,,,,,,,,,,,,,,prac,k,k,1,0.8365298999706283,74.33108059992082,None,None,0,,,,,,,,,,,,,,127,33,Female,2022-05-11_09h50.21.747,Parachute,2022.1.1,59.976057571007786,
positive,yellow,1,None,k,,,,,0,3,3,3,,,,,,,,,,,,,,,,,,,,,,,,,,,,,,,,,,,,,,,,,prac,k,k,1,1.2158802999183536,76.16614809993189,None,None,0,,,,,,,,,,,,,,127,33,Female,2022-05-11_09h50.21.747,Parachute,2022.1.1,59.976057571007786,
negative,blue,2,None,k,,,,,0,4,4,4,,,,,,,,,,,,,,,,,,,,,,,,,,,,,,,,,,,,,,,,,prac,k,k,1,0.7486941999522969,78.38319019996561,None,None,0,,,,,,,,,,,,,,127,33,Female,2022-05-11_09h50.21.747,Parachute,2022.1.1,59.976057571007786,
negative,blue,1,None,k,,,,,0,5,5,5,,,,,,,,,,,,,,,,,,,,,,,,,,,,,,,,,,,,,,,,,prac,k,k,1,0.9816317999502644,80.13332699995954,None,None,0,,,,,,,,,,,,,,127,33,Female,2022-05-11_09h50.21.747,Parachute,2022.1.1,59.976057571007786,
negative,yellow,2,k,None,,,,,0,6,6,6,,,,,,,,,,,,,,,,,,,,,,,,,,,,,,,,,,,,,,,,,prac,None,None,1,1.4938546000048518,82.1165253999643,None,None,1,,,,,,,,,,,,,,127,33,Female,2022-05-11_09h50.21.747,Parachute,2022.1.1,59.976057571007786,
negative,red,1,None,None,,,,,0,7,7,7,,,,,,,,,,,,,,,,,,,,,,,,,,,,,,,,,,,,,,,,,prac,None,None,1,1.4985002999892458,84.61377059994265,None,None,1,,,,,,,,,,,,,,127,33,Female,2022-05-11_09h50.21.747,Parachute,2022.1.1,59.976057571007786,
positive,yellow,2,None,k,,,,,0,8,8,8,,,,,,,,,,,,,,,,,,,,,,,,,,,,,,,,,,,,,,,,,prac,k,k,1,0.7371723999967799,87.11399450001772,None,None,0,,,,,,,,,,,,,,127,33,Female,2022-05-11_09h50.21.747,Parachute,2022.1.1,59.976057571007786,
negative,yellow,1,k,None,,,,,0,9,9,9,,,,,,,,,,,,,,,,,,,,,,,,,,,,,,,,,,,,,,,,,prac,None,None,1,1.4938984999898821,88.85036939999554,None,None,1,,,,,,,,,,,,,,127,33,Female,2022-05-11_09h50.21.747,Parachute,2022.1.1,59.976057571007786,
positive,yellow,2,None,k,,,,,0,10,10,10,,,,,,,,,,,,,,,,,,,,,,,,,,,,,,,,,,,,,,,,,prac,k,k,1,0.9700989000266418,91.34793859999627,None,None,0,,,,,,,,,,,,,,127,33,Female,2022-05-11_09h50.21.747,Parachute,2022.1.1,59.976057571007786,
negative,yellow,2,k,None,,,,,0,11,11,11,,,,,,,,,,,,,,,,,,,,,,,,,,,,,,,,,,,,,,,,,prac,None,None,1,1.4940833000000566,93.31679579999764,None,None,1,,,,,,,,,,,,,,127,33,Female,2022-05-11_09h50.21.747,Parachute,2022.1.1,59.976057571007786,
negative,red,2,None,None,,,,,0,12,12,12,,,,,,,,,,,,,,,,,,,,,,,,,,,,,,,,,,,,,,,,,prac,None,None,1,1.4986592000350356,95.81443599995691,None,None,1,,,,,,,,,,,,,,127,33,Female,2022-05-11_09h50.21.747,Parachute,2022.1.1,59.976057571007786,
positive,red,1,None,None,,,,,0,13,13,13,,,,,,,,,,,,,,,,,,,,,,,,,,,,,,,,,,,,,,,,,prac,None,None,1,1.4978605000069365,98.31451179995202,None,None,1,,,,,,,,,,,,,,127,33,Female,2022-05-11_09h50.21.747,Parachute,2022.1.1,59.976057571007786,
positive,blue,2,k,None,,,,,0,14,14,14,,,,,,,,,,,,,,,,,,,,,,,,,,,,,,,,,,,,,,,,,prac,None,None,1,1.499762599938549,100.81376199994702,None,None,1,,,,,,,,,,,,,,127,33,Female,2022-05-11_09h50.21.747,Parachute,2022.1.1,59.976057571007786,
positive,blue,1,k,None,,,,,0,15,15,15,,,,,,,,,,,,,,,,,,,,,,,,,,,,,,,,,,,,,,,,,prac,None,None,1,1.4984930000500754,103.31499679991975,None,None,1,,,,,,,,,,,,,,127,33,Female,2022-05-11_09h50.21.747,Parachute,2022.1.1,59.976057571007786,
negative,blue,1,None,k,,,,,0,16,16,16,,,,,,,,,,,,,,,,,,,,,,,,,,,,,,,,,,,,,,,,,prac,k,k,1,0.804504600004293,105.81407179997768,None,None,0,,,,,,,,,,,,,,127,33,Female,2022-05-11_09h50.21.747,Parachute,2022.1.1,59.976057571007786,
positive,blue,2,k,None,,,,,0,17,17,17,,,,,,,,,,,,,,,,,,,,,,,,,,,,,,,,,,,,,,,,,prac,None,None,1,1.4928148000035435,107.61846619995777,None,None,1,,,,,,,,,,,,,,127,33,Female,2022-05-11_09h50.21.747,Parachute,2022.1.1,59.976057571007786,
positive,blue,1,k,None,,,,,0,18,18,18,,,,,,,,,,,,,,,,,,,,,,,,,,,,,,,,,,,,,,,,,prac,None,None,1,1.4983711999375373,110.11430130002555,None,None,1,,,,,,,,,,,,,,127,33,Female,2022-05-11_09h50.21.747,Parachute,2022.1.1,59.976057571007786,
positive,yellow,1,None,k,,,,,0,19,19,19,,,,,,,,,,,,,,,,,,,,,,,,,,,,,,,,,,,,,,,,,prac,k,k,1,0.7024321999633685,112.61408620001748,None,None,0,,,,,,,,,,,,,,127,33,Female,2022-05-11_09h50.21.747,Parachute,2022.1.1,59.976057571007786,
negative,yellow,1,k,None,,,,,1,0,20,0,,,,,,,,,,,,,,,,,,,,,,,,,,,,,,,,,,,,,,,,,prac,None,None,1,1.4954781000269577,114.31775980000384,None,None,1,,,,,,,,,,,,,,127,33,Female,2022-05-11_09h50.21.747,Parachute,2022.1.1,59.976057571007786,
positive,red,2,None,None,,,,,1,1,21,1,,,,,,,,,,,,,,,,,,,,,,,,,,,,,,,,,,,,,,,,,prac,None,None,1,1.4985661000246182,116.81400220002979,None,None,1,,,,,,,,,,,,,,127,33,Female,2022-05-11_09h50.21.747,Parachute,2022.1.1,59.976057571007786,
negative,blue,2,None,k,,,,,1,2,22,2,,,,,,,,,,,,,,,,,,,,,,,,,,,,,,,,,,,,,,,,,prac,k,k,1,0.8852366000646725,119.31461190001573,None,None,0,,,,,,,,,,,,,,127,33,Female,2022-05-11_09h50.21.747,Parachute,2022.1.1,59.976057571007786,
positive,yellow,1,None,k,,,,,1,3,23,3,,,,,,,,,,,,,,,,,,,,,,,,,,,,,,,,,,,,,,,,,prac,k,k,1,1.0838188999332488,121.20132029999513,None,None,0,,,,,,,,,,,,,,127,33,Female,2022-05-11_09h50.21.747,Parachute,2022.1.1,59.976057571007786,
negative,blue,2,None,k,,,,,1,4,24,4,,,,,,,,,,,,,,,,,,,,,,,,,,,,,,,,,,,,,,,,,prac,k,k,1,1.299072099965997,123.28391420003027,None,None,0,,,,,,,,,,,,,,127,33,Female,2022-05-11_09h50.21.747,Parachute,2022.1.1,59.976057571007786,
negative,blue,1,None,k,,,,,1,5,25,5,,,,,,,,,,,,,,,,,,,,,,,,,,,,,,,,,,,,,,,,,prac,k,k,1,0.8234144999878481,125.58495749998838,None,None,0,,,,,,,,,,,,,,127,33,Female,2022-05-11_09h50.21.747,Parachute,2022.1.1,59.976057571007786,
negative,yellow,2,k,None,,,,,1,6,26,6,,,,,,,,,,,,,,,,,,,,,,,,,,,,,,,,,,,,,,,,,prac,None,None,1,1.5024968999205157,127.41284759994596,None,None,1,,,,,,,,,,,,,,127,33,Female,2022-05-11_09h50.21.747,Parachute,2022.1.1,59.976057571007786,
negative,red,1,None,None,,,,,1,7,27,7,,,,,,,,,,,,,,,,,,,,,,,,,,,,,,,,,,,,,,,,,prac,None,None,1,1.4981876999372616,129.91626999992877,None,None,1,,,,,,,,,,,,,,127,33,Female,2022-05-11_09h50.21.747,Parachute,2022.1.1,59.976057571007786,
positive,yellow,2,None,k,,,,,1,8,28,8,,,,,,,,,,,,,,,,,,,,,,,,,,,,,,,,,,,,,,,,,prac,k,k,1,0.8211915000574663,132.41531509999186,None,None,0,,,,,,,,,,,,,,127,33,Female,2022-05-11_09h50.21.747,Parachute,2022.1.1,59.976057571007786,
negative,yellow,1,k,None,,,,,1,9,29,9,,,,,,,,,,,,,,,,,,,,,,,,,,,,,,,,,,,,,,,,,prac,None,None,1,1.5097061999840662,134.23614059993997,None,None,1,,,,,,,,,,,,,,127,33,Female,2022-05-11_09h50.21.747,Parachute,2022.1.1,59.976057571007786,
positive,yellow,2,None,k,,,,,1,10,30,10,,,,,,,,,,,,,,,,,,,,,,,,,,,,,,,,,,,,,,,,,prac,k,k,1,0.9700946999946609,136.75005059991963,None,None,0,,,,,,,,,,,,,,127,33,Female,2022-05-11_09h50.21.747,Parachute,2022.1.1,59.976057571007786,
negative,yellow,2,k,None,,,,,1,11,31,11,,,,,,,,,,,,,,,,,,,,,,,,,,,,,,,,,,,,,,,,,prac,None,None,1,1.4934486999409273,138.71818810002878,None,None,1,,,,,,,,,,,,,,127,33,Female,2022-05-11_09h50.21.747,Parachute,2022.1.1,59.976057571007786,
negative,red,2,None,None,,,,,1,12,32,12,,,,,,,,,,,,,,,,,,,,,,,,,,,,,,,,,,,,,,,,,prac,None,None,1,1.4985925999935716,141.21548919996712,None,None,1,,,,,,,,,,,,,,127,33,Female,2022-05-11_09h50.21.747,Parachute,2022.1.1,59.976057571007786,
positive,red,1,None,None,,,,,1,13,33,13,,,,,,,,,,,,,,,,,,,,,,,,,,,,,,,,,,,,,,,,,prac,None,None,1,1.4988389000063762,143.71487669995986,None,None,1,,,,,,,,,,,,,,127,33,Female,2022-05-11_09h50.21.747,Parachute,2022.1.1,59.976057571007786,
positive,blue,2,k,None,,,,,1,14,34,14,,,,,,,,,,,,,,,,,,,,,,,,,,,,,,,,,,,,,,,,,prac,None,None,1,1.499653200036846,146.21493050002027,None,None,1,,,,,,,,,,,,,,127,33,Female,2022-05-11_09h50.21.747,Parachute,2022.1.1,59.976057571007786,
positive,blue,1,k,None,,,,,1,15,35,15,,,,,,,,,,,,,,,,,,,,,,,,,,,,,,,,,,,,,,,,,prac,None,None,1,1.4979749999474734,148.71624470001552,None,None,1,,,,,,,,,,,,,,127,33,Female,2022-05-11_09h50.21.747,Parachute,2022.1.1,59.976057571007786,
negative,blue,1,None,k,,,,,1,16,36,16,,,,,,,,,,,,,,,,,,,,,,,,,,,,,,,,,,,,,,,,,prac,k,k,1,0.7683587000938132,151.21662540000398,None,None,0,,,,,,,,,,,,,,127,33,Female,2022-05-11_09h50.21.747,Parachute,2022.1.1,59.976057571007786,
positive,blue,2,k,None,,,,,1,17,37,17,,,,,,,,,,,,,,,,,,,,,,,,,,,,,,,,,,,,,,,,,prac,None,None,1,1.4944504000013694,152.983860099921,None,None,1,,,,,,,,,,,,,,127,33,Female,2022-05-11_09h50.21.747,Parachute,2022.1.1,59.976057571007786,
positive,blue,1,k,None,,,,,1,18,38,18,,,,,,,,,,,,,,,,,,,,,,,,,,,,,,,,,,,,,,,,,prac,None,None,1,1.5040733999339864,155.4817646999145,None,None,1,,,,,,,,,,,,,,127,33,Female,2022-05-11_09h50.21.747,Parachute,2022.1.1,59.976057571007786,
positive,yellow,1,None,k,,,,,1,19,39,19,,,,,,,,,,,,,,,,,,,,,,,,,,,,,,,,,,,,,,,,,prac,k,k,1,0.6628663000883535,157.98824799992144,None,None,0,,,,,,,,,,,,,,127,33,Female,2022-05-11_09h50.21.747,Parachute,2022.1.1,59.976057571007786,
,,,,,,,,,,,,,,,,,,,,,,,,,,,,,,,,,,,,,,,,,,,,,,,,,,,,,,,,,,,,,,159.67126779991668,None,159.67126779991668,None,0.058333334,-0.13333334,0,0,0,0.011072789900936186,None,,,127,33,Female,2022-05-11_09h50.21.747,Parachute,2022.1.1,59.976057571007786,
negative,yellow,2,k,None,,,,,,,,,0,0,0,0,,,,,,,,,,,,,,,,,,,,,,,,,,,,,,,,,170.47940960002597,None,170.47940960002597,None,main,None,None,1,1.51088630000595,172.53800729999784,None,None,1,,,,,,,,,,,,,,127,33,Female,2022-05-11_09h50.21.747,Parachute,2022.1.1,59.976057571007786,
positive,red,1,None,None,,,,,,,,,0,1,1,1,,,,,,,,,,,,,,,,,,,,,,,,,,,,,,,,,,,,,main,None,None,1,1.4969683999661356,175.05184450000525,None,None,1,,,,,,,,,,,,,,127,33,Female,2022-05-11_09h50.21.747,Parachute,2022.1.1,59.976057571007786,
positive,blue,2,k,None,,,,,,,,,0,2,2,2,,,,,,,,,,,,,,,,,,,,,,,,,,,,,,,,,,,,,main,None,None,1,1.4985429000807926,177.55142349994276,None,None,1,,,,,,,,,,,,,,127,33,Female,2022-05-11_09h50.21.747,Parachute,2022.1.1,59.976057571007786,
positive,blue,1,k,None,,,,,,,,,0,3,3,3,,,,,,,,,,,,,,,,,,,,,,,,,,,,,,,,,,,,,main,None,None,1,1.498787899967283,180.05120159999933,None,None,1,,,,,,,,,,,,,,127,33,Female,2022-05-11_09h50.21.747,Parachute,2022.1.1,59.976057571007786,
negative,yellow,2,k,None,,,,,,,,,0,4,4,4,,,,,,,,,,,,,,,,,,,,,,,,,,,,,,,,,,,,,main,None,None,1,1.4981511000078171,182.55139149993192,None,None,1,,,,,,,,,,,,,,127,33,Female,2022-05-11_09h50.21.747,Parachute,2022.1.1,59.976057571007786,
positive,yellow,2,None,k,,,,,,,,,0,5,5,5,,,,,,,,,,,,,,,,,,,,,,,,,,,,,,,,,,,,,main,k,k,1,0.7688483000965789,185.05099559994414,None,None,0,,,,,,,,,,,,,,127,33,Female,2022-05-11_09h50.21.747,Parachute,2022.1.1,59.976057571007786,
negative,blue,2,None,k,,,,,,,,,0,6,6,6,,,,,,,,,,,,,,,,,,,,,,,,,,,,,,,,,,,,,main,k,k,1,0.6658689000178128,186.81903299991973,None,None,0,,,,,,,,,,,,,,127,33,Female,2022-05-11_09h50.21.747,Parachute,2022.1.1,59.976057571007786,
positive,red,2,None,None,,,,,,,,,0,7,7,7,,,,,,,,,,,,,,,,,,,,,,,,,,,,,,,,,,,,,main,None,None,1,1.4933853999245912,188.48680790001526,None,None,1,,,,,,,,,,,,,,127,33,Female,2022-05-11_09h50.21.747,Parachute,2022.1.1,59.976057571007786,
positive,yellow,1,None,k,,,,,,,,,0,8,8,8,,,,,,,,,,,,,,,,,,,,,,,,,,,,,,,,,,,,,main,k,k,1,0.7868905001087114,190.98309759993572,None,None,0,,,,,,,,,,,,,,127,33,Female,2022-05-11_09h50.21.747,Parachute,2022.1.1,59.976057571007786,
negative,red,1,None,None,,,,,,,,,0,9,9,9,,,,,,,,,,,,,,,,,,,,,,,,,,,,,,,,,,,,,main,None,None,1,1.4927919000620022,192.76912589999847,None,None,1,,,,,,,,,,,,,,127,33,Female,2022-05-11_09h50.21.747,Parachute,2022.1.1,59.976057571007786,
positive,yellow,1,None,k,,,,,,,,,0,10,10,10,,,,,,,,,,,,,,,,,,,,,,,,,,,,,,,,,,,,,main,k,k,1,0.7185729000484571,195.26581959996838,None,None,0,,,,,,,,,,,,,,127,33,Female,2022-05-11_09h50.21.747,Parachute,2022.1.1,59.976057571007786,
negative,yellow,1,k,None,,,,,,,,,0,11,11,11,,,,,,,,,,,,,,,,,,,,,,,,,,,,,,,,,,,,,main,None,None,1,1.4952169000171125,196.99529140000232,None,None,1,,,,,,,,,,,,,,127,33,Female,2022-05-11_09h50.21.747,Parachute,2022.1.1,59.976057571007786,
negative,yellow,1,k,None,,,,,,,,,0,12,12,12,,,,,,,,,,,,,,,,,,,,,,,,,,,,,,,,,,,,,main,None,None,1,1.498733300017193,199.48280869994778,None,None,1,,,,,,,,,,,,,,127,33,Female,2022-05-11_09h50.21.747,Parachute,2022.1.1,59.976057571007786,
negative,red,2,None,None,,,,,,,,,0,13,13,13,,,,,,,,,,,,,,,,,,,,,,,,,,,,,,,,,,,,,main,None,None,1,1.4980761999031529,201.9833775999723,None,None,1,,,,,,,,,,,,,,127,33,Female,2022-05-11_09h50.21.747,Parachute,2022.1.1,59.976057571007786,
positive,yellow,2,None,k,,,,,,,,,0,14,14,14,,,,,,,,,,,,,,,,,,,,,,,,,,,,,,,,,,,,,main,k,k,1,0.7520986000308767,204.48351489997003,None,None,0,,,,,,,,,,,,,,127,33,Female,2022-05-11_09h50.21.747,Parachute,2022.1.1,59.976057571007786,
positive,blue,1,k,None,,,,,,,,,0,15,15,15,,,,,,,,,,,,,,,,,,,,,,,,,,,,,,,,,,,,,main,None,None,1,1.494759799912572,206.2352006000001,None,None,1,,,,,,,,,,,,,,127,33,Female,2022-05-11_09h50.21.747,Parachute,2022.1.1,59.976057571007786,
negative,blue,1,None,k,,,,,,,,,0,16,16,16,,,,,,,,,,,,,,,,,,,,,,,,,,,,,,,,,,,,,main,k,k,1,0.7702558999881148,208.73211280000396,None,None,0,,,,,,,,,,,,,,127,33,Female,2022-05-11_09h50.21.747,Parachute,2022.1.1,59.976057571007786,
positive,blue,2,k,None,,,,,,,,,0,17,17,17,,,,,,,,,,,,,,,,,,,,,,,,,,,,,,,,,,,,,main,None,None,1,1.4938284999225289,210.50193069991656,None,None,1,,,,,,,,,,,,,,127,33,Female,2022-05-11_09h50.21.747,Parachute,2022.1.1,59.976057571007786,
negative,blue,2,None,k,,,,,,,,,0,18,18,18,,,,,,,,,,,,,,,,,,,,,,,,,,,,,,,,,,,,,main,k,k,1,0.918319100048393,212.99996939999983,None,None,0,,,,,,,,,,,,,,127,33,Female,2022-05-11_09h50.21.747,Parachute,2022.1.1,59.976057571007786,
negative,blue,1,None,k,,,,,,,,,0,19,19,19,,,,,,,,,,,,,,,,,,,,,,,,,,,,,,,,,,,,,main,k,k,1,0.9488030999200419,214.92920629994478,None,None,0,,,,,,,,,,,,,,127,33,Female,2022-05-11_09h50.21.747,Parachute,2022.1.1,59.976057571007786,
negative,blue,1,None,k,,,,,,,,,0,20,20,20,,,,,,,,,,,,,,,,,,,,,,,,,,,,,,,,,,,,,main,k,k,1,0.6989210000028834,216.86888919991907,None,None,0,,,,,,,,,,,,,,127,33,Female,2022-05-11_09h50.21.747,Parachute,2022.1.1,59.976057571007786,
negative,blue,2,None,k,,,,,,,,,0,21,21,21,,,,,,,,,,,,,,,,,,,,,,,,,,,,,,,,,,,,,main,k,k,1,0.8703134000534192,218.56860909995157,None,None,0,,,,,,,,,,,,,,127,33,Female,2022-05-11_09h50.21.747,Parachute,2022.1.1,59.976057571007786,
negative,red,1,None,None,,,,,,,,,0,22,22,22,,,,,,,,,,,,,,,,,,,,,,,,,,,,,,,,,,,,,main,None,None,1,1.5066533000208437,220.43954970000777,None,None,1,,,,,,,,,,,,,,127,33,Female,2022-05-11_09h50.21.747,Parachute,2022.1.1,59.976057571007786,
positive,red,2,None,None,,,,,,,,,0,23,23,23,,,,,,,,,,,,,,,,,,,,,,,,,,,,,,,,,,,,,main,None,None,1,1.4965133999940008,222.95300949993543,None,None,1,,,,,,,,,,,,,,127,33,Female,2022-05-11_09h50.21.747,Parachute,2022.1.1,59.976057571007786,
negative,red,2,None,None,,,,,,,,,0,24,24,24,,,,,,,,,,,,,,,,,,,,,,,,,,,,,,,,,,,,,main,None,None,1,1.4983879999490455,225.44991480000317,None,None,1,,,,,,,,,,,,,,127,33,Female,2022-05-11_09h50.21.747,Parachute,2022.1.1,59.976057571007786,
positive,blue,2,k,None,,,,,,,,,0,25,25,25,,,,,,,,,,,,,,,,,,,,,,,,,,,,,,,,,,,,,main,None,None,1,1.4987649000249803,227.95009109994862,None,None,1,,,,,,,,,,,,,,127,33,Female,2022-05-11_09h50.21.747,Parachute,2022.1.1,59.976057571007786,
negative,yellow,1,k,None,,,,,,,,,0,26,26,26,,,,,,,,,,,,,,,,,,,,,,,,,,,,,,,,,,,,,main,None,None,1,1.4981984000187367,230.45077709993348,None,None,1,,,,,,,,,,,,,,127,33,Female,2022-05-11_09h50.21.747,Parachute,2022.1.1,59.976057571007786,
positive,blue,2,k,None,,,,,,,,,0,27,27,27,,,,,,,,,,,,,,,,,,,,,,,,,,,,,,,,,,,,,main,None,None,1,1.4984477000543848,232.95050429995172,None,None,1,,,,,,,,,,,,,,127,33,Female,2022-05-11_09h50.21.747,Parachute,2022.1.1,59.976057571007786,
negative,blue,2,None,k,,,,,,,,,0,28,28,28,,,,,,,,,,,,,,,,,,,,,,,,,,,,,,,,,,,,,main,k,k,1,0.7178048000205308,235.45052129996475,None,None,0,,,,,,,,,,,,,,127,33,Female,2022-05-11_09h50.21.747,Parachute,2022.1.1,59.976057571007786,
positive,red,1,None,None,,,,,,,,,0,29,29,29,,,,,,,,,,,,,,,,,,,,,,,,,,,,,,,,,,,,,main,None,None,1,1.4957517000148073,237.16951189993415,None,None,1,,,,,,,,,,,,,,127,33,Female,2022-05-11_09h50.21.747,Parachute,2022.1.1,59.976057571007786,
positive,blue,1,k,None,,,,,,,,,0,30,30,30,,,,,,,,,,,,,,,,,,,,,,,,,,,,,,,,,,,,,main,None,None,1,1.4984258000040427,239.66681840003002,None,None,1,,,,,,,,,,,,,,127,33,Female,2022-05-11_09h50.21.747,Parachute,2022.1.1,59.976057571007786,
positive,yellow,1,None,k,,,,,,,,,0,31,31,31,,,,,,,,,,,,,,,,,,,,,,,,,,,,,,,,,,,,,main,k,k,1,0.6687867000000551,242.16675600002054,None,None,0,,,,,,,,,,,,,,127,33,Female,2022-05-11_09h50.21.747,Parachute,2022.1.1,59.976057571007786,
negative,yellow,2,k,None,,,,,,,,,0,32,32,32,,,,,,,,,,,,,,,,,,,,,,,,,,,,,,,,,,,,,main,None,None,1,1.4949569000164047,243.83603329991456,None,None,1,,,,,,,,,,,,,,127,33,Female,2022-05-11_09h50.21.747,Parachute,2022.1.1,59.976057571007786,
negative,blue,1,None,k,,,,,,,,,0,33,33,33,,,,,,,,,,,,,,,,,,,,,,,,,,,,,,,,,,,,,main,k,k,1,0.8694470999762416,246.33420289994683,None,None,0,,,,,,,,,,,,,,127,33,Female,2022-05-11_09h50.21.747,Parachute,2022.1.1,59.976057571007786,
positive,blue,1,k,None,,,,,,,,,0,34,34,34,,,,,,,,,,,,,,,,,,,,,,,,,,,,,,,,,,,,,main,None,None,1,1.4938011999474838,248.20278669998515,None,None,1,,,,,,,,,,,,,,127,33,Female,2022-05-11_09h50.21.747,Parachute,2022.1.1,59.976057571007786,
negative,yellow,1,k,None,,,,,,,,,0,35,35,35,,,,,,,,,,,,,,,,,,,,,,,,,,,,,,,,,,,,,main,None,None,1,1.4987732999725267,250.70008199999575,None,None,1,,,,,,,,,,,,,,127,33,Female,2022-05-11_09h50.21.747,Parachute,2022.1.1,59.976057571007786,
positive,yellow,2,None,k,,,,,,,,,0,36,36,36,,,,,,,,,,,,,,,,,,,,,,,,,,,,,,,,,,,,,main,k,k,1,0.7517528999596834,253.2004859999288,None,None,0,,,,,,,,,,,,,,127,33,Female,2022-05-11_09h50.21.747,Parachute,2022.1.1,59.976057571007786,
positive,yellow,2,None,k,,,,,,,,,0,37,37,37,,,,,,,,,,,,,,,,,,,,,,,,,,,,,,,,,,,,,main,k,k,1,0.8832148000365123,254.9527768000262,None,None,0,,,,,,,,,,,,,,127,33,Female,2022-05-11_09h50.21.747,Parachute,2022.1.1,59.976057571007786,
negative,yellow,2,k,None,,,,,,,,,0,38,38,38,,,,,,,,,,,,,,,,,,,,,,,,,,,,,,,,,,,,,main,None,None,1,1.4943931999150664,256.836291500018,None,None,1,,,,,,,,,,,,,,127,33,Female,2022-05-11_09h50.21.747,Parachute,2022.1.1,59.976057571007786,
positive,yellow,1,None,k,,,,,,,,,0,39,39,39,,,,,,,,,,,,,,,,,,,,,,,,,,,,,,,,,,,,,main,k,k,1,1.13430639996659,259.33427069999743,None,None,0,,,,,,,,,,,,,,127,33,Female,2022-05-11_09h50.21.747,Parachute,2022.1.1,59.976057571007786,
negative,yellow,2,k,None,,,,,,,,,0,40,40,40,,,,,,,,,,,,,,,,,,,,,,,,,,,,,,,,,,,,,main,None,None,1,1.495668699964881,261.4697763000149,None,None,1,,,,,,,,,,,,,,127,33,Female,2022-05-11_09h50.21.747,Parachute,2022.1.1,59.976057571007786,
positive,blue,2,k,None,,,,,,,,,0,41,41,41,,,,,,,,,,,,,,,,,,,,,,,,,,,,,,,,,,,,,main,None,None,1,1.4985266999574378,263.96665239997674,None,None,1,,,,,,,,,,,,,,127,33,Female,2022-05-11_09h50.21.747,Parachute,2022.1.1,59.976057571007786,
positive,blue,2,k,None,,,,,,,,,0,42,42,42,,,,,,,,,,,,,,,,,,,,,,,,,,,,,,,,,,,,,main,None,None,1,1.4986338000744581,266.4667862999486,None,None,1,,,,,,,,,,,,,,127,33,Female,2022-05-11_09h50.21.747,Parachute,2022.1.1,59.976057571007786,
negative,blue,2,None,k,,,,,,,,,0,43,43,43,,,,,,,,,,,,,,,,,,,,,,,,,,,,,,,,,,,,,main,k,k,1,0.8356914999894798,268.96701279992703,None,None,0,,,,,,,,,,,,,,127,33,Female,2022-05-11_09h50.21.747,Parachute,2022.1.1,59.976057571007786,
negative,red,1,None,None,,,,,,,,,0,44,44,44,,,,,,,,,,,,,,,,,,,,,,,,,,,,,,,,,,,,,main,None,None,1,1.4944316000910476,270.81176770001184,None,None,1,,,,,,,,,,,,,,127,33,Female,2022-05-11_09h50.21.747,Parachute,2022.1.1,59.976057571007786,
negative,yellow,1,k,None,,,,,,,,,0,45,45,45,,,,,,,,,,,,,,,,,,,,,,,,,,,,,,,,,,,,,main,None,None,1,1.4986258998978883,273.30117929994594,None,None,1,,,,,,,,,,,,,,127,33,Female,2022-05-11_09h50.21.747,Parachute,2022.1.1,59.976057571007786,
negative,yellow,1,k,None,,,,,,,,,0,46,46,46,,,,,,,,,,,,,,,,,,,,,,,,,,,,,,,,,,,,,main,None,None,1,1.4986366999801248,275.8008687000256,None,None,1,,,,,,,,,,,,,,127,33,Female,2022-05-11_09h50.21.747,Parachute,2022.1.1,59.976057571007786,
positive,red,1,None,None,,,,,,,,,0,47,47,47,,,,,,,,,,,,,,,,,,,,,,,,,,,,,,,,,,,,,main,None,None,1,1.4984564000042155,278.30115549999755,None,None,1,,,,,,,,,,,,,,127,33,Female,2022-05-11_09h50.21.747,Parachute,2022.1.1,59.976057571007786,
positive,yellow,1,None,k,,,,,,,,,0,48,48,48,,,,,,,,,,,,,,,,,,,,,,,,,,,,,,,,,,,,,main,k,k,1,0.6356911000330001,280.80048380000517,None,None,0,,,,,,,,,,,,,,127,33,Female,2022-05-11_09h50.21.747,Parachute,2022.1.1,59.976057571007786,
negative,blue,1,None,k,,,,,,,,,0,49,49,49,,,,,,,,,,,,,,,,,,,,,,,,,,,,,,,,,,,,,main,k,k,1,0.8985037000384182,282.4370846999809,None,None,0,,,,,,,,,,,,,,127,33,Female,2022-05-11_09h50.21.747,Parachute,2022.1.1,59.976057571007786,
positive,yellow,2,None,k,,,,,,,,,0,50,50,50,,,,,,,,,,,,,,,,,,,,,,,,,,,,,,,,,,,,,main,k,k,1,0.8978475000476465,284.3372962999856,None,None,0,,,,,,,,,,,,,,127,33,Female,2022-05-11_09h50.21.747,Parachute,2022.1.1,59.976057571007786,
negative,blue,1,None,k,,,,,,,,,0,51,51,51,,,,,,,,,,,,,,,,,,,,,,,,,,,,,,,,,,,,,main,k,k,1,1.4333317999262363,286.23716289992444,None,None,0,,,,,,,,,,,,,,127,33,Female,2022-05-11_09h50.21.747,Parachute,2022.1.1,59.976057571007786,
positive,red,2,None,None,,,,,,,,,0,52,52,52,,,,,,,,,,,,,,,,,,,,,,,,,,,,,,,,,,,,,main,None,None,1,1.4940614000661299,288.6703496000264,None,None,1,,,,,,,,,,,,,,127,33,Female,2022-05-11_09h50.21.747,Parachute,2022.1.1,59.976057571007786,
positive,yellow,2,None,k,,,,,,,,,0,53,53,53,,,,,,,,,,,,,,,,,,,,,,,,,,,,,,,,,,,,,main,k,k,1,0.7185659999959171,291.16854510002304,None,None,0,,,,,,,,,,,,,,127,33,Female,2022-05-11_09h50.21.747,Parachute,2022.1.1,59.976057571007786,
negative,red,2,None,None,,,,,,,,,0,54,54,54,,,,,,,,,,,,,,,,,,,,,,,,,,,,,,,,,,,,,main,None,None,1,1.494925000006333,292.887273499975,None,None,1,,,,,,,,,,,,,,127,33,Female,2022-05-11_09h50.21.747,Parachute,2022.1.1,59.976057571007786,
positive,yellow,1,None,k,,,,,,,,,0,55,55,55,,,,,,,,,,,,,,,,,,,,,,,,,,,,,,,,,,,,,main,k,k,1,0.7868651000317186,295.38462579995394,None,None,0,,,,,,,,,,,,,,127,33,Female,2022-05-11_09h50.21.747,Parachute,2022.1.1,59.976057571007786,
negative,blue,2,None,k,,,,,,,,,0,56,56,56,,,,,,,,,,,,,,,,,,,,,,,,,,,,,,,,,,,,,main,k,k,1,0.6139799000229686,297.17049249995034,None,None,0,,,,,,,,,,,,,,127,33,Female,2022-05-11_09h50.21.747,Parachute,2022.1.1,59.976057571007786,
positive,blue,1,k,None,,,,,,,,,0,57,57,57,,,,,,,,,,,,,,,,,,,,,,,,,,,,,,,,,,,,,main,None,None,1,1.494829999981448,298.7873350000009,None,None,1,,,,,,,,,,,,,,127,33,Female,2022-05-11_09h50.21.747,Parachute,2022.1.1,59.976057571007786,
positive,blue,1,k,None,,,,,,,,,0,58,58,58,,,,,,,,,,,,,,,,,,,,,,,,,,,,,,,,,,,,,main,None,None,1,1.498590899980627,301.285040799994,None,None,1,,,,,,,,,,,,,,127,33,Female,2022-05-11_09h50.21.747,Parachute,2022.1.1,59.976057571007786,
negative,yellow,2,k,None,,,,,,,,,0,59,59,59,,,,,,,,,,,,,,,,,,,,,,,,,,,,,,,,,,,,,main,None,None,1,1.498472400009632,303.78508209995925,None,None,1,,,,,,,,,,,,,,127,33,Female,2022-05-11_09h50.21.747,Parachute,2022.1.1,59.976057571007786,
positive,red,2,None,None,,,,,,,,,0,60,60,60,,,,,,,,,,,,,,,,,,,,,,,,,,,,,,,,,,,,,main,None,None,1,1.4989051000447944,306.28527390002273,None,None,1,,,,,,,,,,,,,,127,33,Female,2022-05-11_09h50.21.747,Parachute,2022.1.1,59.976057571007786,
negative,yellow,1,k,None,,,,,,,,,0,61,61,61,,,,,,,,,,,,,,,,,,,,,,,,,,,,,,,,,,,,,main,None,None,1,1.4982802999438718,308.78569119994063,None,None,1,,,,,,,,,,,,,,127,33,Female,2022-05-11_09h50.21.747,Parachute,2022.1.1,59.976057571007786,
negative,red,1,None,None,,,,,,,,,0,62,62,62,,,,,,,,,,,,,,,,,,,,,,,,,,,,,,,,,,,,,main,None,None,1,1.498492900049314,311.28512609994505,None,None,1,,,,,,,,,,,,,,127,33,Female,2022-05-11_09h50.21.747,Parachute,2022.1.1,59.976057571007786,
negative,blue,1,None,k,,,,,,,,,0,63,63,63,,,,,,,,,,,,,,,,,,,,,,,,,,,,,,,,,,,,,main,k,k,1,0.7685821000486612,313.7851951000048,None,None,0,,,,,,,,,,,,,,127,33,Female,2022-05-11_09h50.21.747,Parachute,2022.1.1,59.976057571007786,
positive,blue,2,k,None,,,,,,,,,0,64,64,64,,,,,,,,,,,,,,,,,,,,,,,,,,,,,,,,,,,,,main,None,None,1,1.4952065999386832,315.5628866999177,None,None,1,,,,,,,,,,,,,,127,33,Female,2022-05-11_09h50.21.747,Parachute,2022.1.1,59.976057571007786,
negative,yellow,2,k,None,,,,,,,,,0,65,65,65,,,,,,,,,,,,,,,,,,,,,,,,,,,,,,,,,,,,,main,None,None,1,1.4983928999863565,318.05262299999595,None,None,1,,,,,,,,,,,,,,127,33,Female,2022-05-11_09h50.21.747,Parachute,2022.1.1,59.976057571007786,
positive,yellow,2,None,k,,,,,,,,,0,66,66,66,,,,,,,,,,,,,,,,,,,,,,,,,,,,,,,,,,,,,main,k,k,1,0.8189348999876529,320.5521065000212,None,None,0,,,,,,,,,,,,,,127,33,Female,2022-05-11_09h50.21.747,Parachute,2022.1.1,59.976057571007786,
positive,yellow,2,None,k,,,,,,,,,0,67,67,67,,,,,,,,,,,,,,,,,,,,,,,,,,,,,,,,,,,,,main,k,k,1,0.6154341000365093,322.3710166999372,None,None,0,,,,,,,,,,,,,,127,33,Female,2022-05-11_09h50.21.747,Parachute,2022.1.1,59.976057571007786,
positive,red,1,None,None,,,,,,,,,0,68,68,68,,,,,,,,,,,,,,,,,,,,,,,,,,,,,,,,,,,,,main,None,None,1,1.495614800020121,323.98799419996794,None,None,1,,,,,,,,,,,,,,127,33,Female,2022-05-11_09h50.21.747,Parachute,2022.1.1,59.976057571007786,
positive,yellow,1,None,k,,,,,,,,,0,69,69,69,,,,,,,,,,,,,,,,,,,,,,,,,,,,,,,,,,,,,main,k,k,1,0.8342300000367686,326.4868048999924,None,None,0,,,,,,,,,,,,,,127,33,Female,2022-05-11_09h50.21.747,Parachute,2022.1.1,59.976057571007786,
negative,yellow,2,k,None,,,,,,,,,0,70,70,70,,,,,,,,,,,,,,,,,,,,,,,,,,,,,,,,,,,,,main,None,None,1,1.4950067999307066,328.32118039997295,None,None,1,,,,,,,,,,,,,,127,33,Female,2022-05-11_09h50.21.747,Parachute,2022.1.1,59.976057571007786,
positive,yellow,1,None,k,,,,,,,,,0,71,71,71,,,,,,,,,,,,,,,,,,,,,,,,,,,,,,,,,,,,,main,k,k,1,0.6855207000626251,330.8202875999268,None,None,0,,,,,,,,,,,,,,127,33,Female,2022-05-11_09h50.21.747,Parachute,2022.1.1,59.976057571007786,
negative,blue,1,None,k,,,,,,,,,0,72,72,72,,,,,,,,,,,,,,,,,,,,,,,,,,,,,,,,,,,,,main,k,k,1,0.6648328999290243,332.50477749994025,None,None,0,,,,,,,,,,,,,,127,33,Female,2022-05-11_09h50.21.747,Parachute,2022.1.1,59.976057571007786,
negative,red,2,None,None,,,,,,,,,0,73,73,73,,,,,,,,,,,,,,,,,,,,,,,,,,,,,,,,,,,,,main,None,None,1,1.495240499963984,334.18217970000114,None,None,1,,,,,,,,,,,,,,127,33,Female,2022-05-11_09h50.21.747,Parachute,2022.1.1,59.976057571007786,
positive,blue,2,k,None,,,,,,,,,0,74,74,74,,,,,,,,,,,,,,,,,,,,,,,,,,,,,,,,,,,,,main,None,None,1,1.4984812000766397,336.6693443999393,None,None,1,,,,,,,,,,,,,,127,33,Female,2022-05-11_09h50.21.747,Parachute,2022.1.1,59.976057571007786,
negative,blue,2,None,k,,,,,,,,,0,75,75,75,,,,,,,,,,,,,,,,,,,,,,,,,,,,,,,,,,,,,main,k,k,1,0.8015254000201821,339.16936439997517,None,None,0,,,,,,,,,,,,,,127,33,Female,2022-05-11_09h50.21.747,Parachute,2022.1.1,59.976057571007786,
negative,blue,2,None,k,,,,,,,,,0,76,76,76,,,,,,,,,,,,,,,,,,,,,,,,,,,,,,,,,,,,,main,k,k,1,0.5987745000747964,340.9716245000018,None,None,0,,,,,,,,,,,,,,127,33,Female,2022-05-11_09h50.21.747,Parachute,2022.1.1,59.976057571007786,
negative,yellow,1,k,None,,,,,,,,,0,77,77,77,,,,,,,,,,,,,,,,,,,,,,,,,,,,,,,,,,,,,main,None,None,1,1.4956891998881474,342.5714813999366,None,None,1,,,,,,,,,,,,,,127,33,Female,2022-05-11_09h50.21.747,Parachute,2022.1.1,59.976057571007786,
positive,blue,1,k,None,,,,,,,,,0,78,78,78,,,,,,,,,,,,,,,,,,,,,,,,,,,,,,,,,,,,,main,None,None,1,1.4989167000167072,345.07099899998866,None,None,1,,,,,,,,,,,,,,127,33,Female,2022-05-11_09h50.21.747,Parachute,2022.1.1,59.976057571007786,
positive,blue,1,k,None,,,,,,,,,0,79,79,79,,,,,,,,,,,,,,,,,,,,,,,,,,,,,,,,,,,,,main,None,None,1,1.4972607999807224,347.57117869996,None,None,1,,,,,,,,,,,,,,127,33,Female,2022-05-11_09h50.21.747,Parachute,2022.1.1,59.976057571007786,
positive,red,2,None,None,,,,,,,,,0,80,80,80,,,,,,,,,,,,,,,,,,,,,,,,,,,,,,,,,,,,,main,None,None,1,1.4986803999636322,350.0694397999905,None,None,1,,,,,,,,,,,,,,127,33,Female,2022-05-11_09h50.21.747,Parachute,2022.1.1,59.976057571007786,
positive,yellow,2,None,k,,,,,,,,,0,81,81,81,,,,,,,,,,,,,,,,,,,,,,,,,,,,,,,,,,,,,main,k,k,1,0.5850088000297546,352.57005849992856,None,None,0,,,,,,,,,,,,,,127,33,Female,2022-05-11_09h50.21.747,Parachute,2022.1.1,59.976057571007786,
positive,blue,1,k,None,,,,,,,,,0,82,82,82,,,,,,,,,,,,,,,,,,,,,,,,,,,,,,,,,,,,,main,None,None,1,1.4952862999634817,354.16373139992356,None,None,1,,,,,,,,,,,,,,127,33,Female,2022-05-11_09h50.21.747,Parachute,2022.1.1,59.976057571007786,
negative,yellow,2,k,None,,,,,,,,,0,83,83,83,,,,,,,,,,,,,,,,,,,,,,,,,,,,,,,,,,,,,main,None,None,1,1.501853600027971,356.6531698999461,None,None,1,,,,,,,,,,,,,,127,33,Female,2022-05-11_09h50.21.747,Parachute,2022.1.1,59.976057571007786,
positive,blue,2,k,None,,,,,,,,,0,84,84,84,,,,,,,,,,,,,,,,,,,,,,,,,,,,,,,,,,,,,main,None,None,1,1.5110604000510648,359.15810799994506,None,None,1,,,,,,,,,,,,,,127,33,Female,2022-05-11_09h50.21.747,Parachute,2022.1.1,59.976057571007786,
positive,yellow,1,None,k,,,,,,,,,0,85,85,85,,,,,,,,,,,,,,,,,,,,,,,,,,,,,,,,,,,,,main,k,k,1,0.7198506999993697,361.6704340999713,None,None,0,,,,,,,,,,,,,,127,33,Female,2022-05-11_09h50.21.747,Parachute,2022.1.1,59.976057571007786,
positive,blue,2,k,None,,,,,,,,,0,86,86,86,,,,,,,,,,,,,,,,,,,,,,,,,,,,,,,,,,,,,main,None,None,1,1.4940338999731466,363.3890977000119,None,None,1,,,,,,,,,,,,,,127,33,Female,2022-05-11_09h50.21.747,Parachute,2022.1.1,59.976057571007786,
positive,blue,1,k,None,,,,,,,,,0,87,87,87,,,,,,,,,,,,,,,,,,,,,,,,,,,,,,,,,,,,,main,None,None,1,1.4987372000468895,365.88702099991497,None,None,1,,,,,,,,,,,,,,127,33,Female,2022-05-11_09h50.21.747,Parachute,2022.1.1,59.976057571007786,
negative,yellow,2,k,None,,,,,,,,,0,88,88,88,,,,,,,,,,,,,,,,,,,,,,,,,,,,,,,,,,,,,main,None,None,1,1.498693700064905,368.38685439992696,None,None,1,,,,,,,,,,,,,,127,33,Female,2022-05-11_09h50.21.747,Parachute,2022.1.1,59.976057571007786,
negative,blue,2,None,k,,,,,,,,,0,89,89,89,,,,,,,,,,,,,,,,,,,,,,,,,,,,,,,,,,,,,main,k,k,1,0.8863797999219969,370.8865657999413,None,None,0,,,,,,,,,,,,,,127,33,Female,2022-05-11_09h50.21.747,Parachute,2022.1.1,59.976057571007786,
positive,yellow,2,None,k,,,,,,,,,0,90,90,90,,,,,,,,,,,,,,,,,,,,,,,,,,,,,,,,,,,,,main,k,k,1,1.0242309999885038,372.7730606999248,None,None,0,,,,,,,,,,,,,,127,33,Female,2022-05-11_09h50.21.747,Parachute,2022.1.1,59.976057571007786,
negative,yellow,1,k,None,,,,,,,,,0,91,91,91,,,,,,,,,,,,,,,,,,,,,,,,,,,,,,,,,,,,,main,None,None,1,1.5023841999936849,374.8017410999164,None,None,1,,,,,,,,,,,,,,127,33,Female,2022-05-11_09h50.21.747,Parachute,2022.1.1,59.976057571007786,
negative,red,2,None,None,,,,,,,,,0,92,92,92,,,,,,,,,,,,,,,,,,,,,,,,,,,,,,,,,,,,,main,None,None,1,1.4983451999723911,377.30380979995243,None,None,1,,,,,,,,,,,,,,127,33,Female,2022-05-11_09h50.21.747,Parachute,2022.1.1,59.976057571007786,
negative,blue,2,None,k,,,,,,,,,0,93,93,93,,,,,,,,,,,,,,,,,,,,,,,,,,,,,,,,,,,,,main,k,k,1,1.3208757999818772,379.8032724999357,None,None,0,,,,,,,,,,,,,,127,33,Female,2022-05-11_09h50.21.747,Parachute,2022.1.1,59.976057571007786,
negative,blue,1,None,k,,,,,,,,,0,94,94,94,,,,,,,,,,,,,,,,,,,,,,,,,,,,,,,,,,,,,main,k,k,1,0.8322541000088677,382.12332359992433,None,None,0,,,,,,,,,,,,,,127,33,Female,2022-05-11_09h50.21.747,Parachute,2022.1.1,59.976057571007786,
negative,blue,1,None,k,,,,,,,,,0,95,95,95,,,,,,,,,,,,,,,,,,,,,,,,,,,,,,,,,,,,,main,k,k,1,0.6319091999903321,383.95683889999054,None,None,0,,,,,,,,,,,,,,127,33,Female,2022-05-11_09h50.21.747,Parachute,2022.1.1,59.976057571007786,
negative,red,1,None,None,,,,,,,,,0,96,96,96,,,,,,,,,,,,,,,,,,,,,,,,,,,,,,,,,,,,,main,None,None,1,1.4935763000976294,385.58999419992324,None,None,1,,,,,,,,,,,,,,127,33,Female,2022-05-11_09h50.21.747,Parachute,2022.1.1,59.976057571007786,
positive,yellow,1,None,k,,,,,,,,,0,97,97,97,,,,,,,,,,,,,,,,,,,,,,,,,,,,,,,,,,,,,main,k,k,1,0.6043043999234214,388.0871361999307,None,None,0,,,,,,,,,,,,,,127,33,Female,2022-05-11_09h50.21.747,Parachute,2022.1.1,59.976057571007786,
negative,yellow,1,k,None,,,,,,,,,0,98,98,98,,,,,,,,,,,,,,,,,,,,,,,,,,,,,,,,,,,,,main,None,None,1,1.492874599993229,389.69057380000595,None,None,1,,,,,,,,,,,,,,127,33,Female,2022-05-11_09h50.21.747,Parachute,2022.1.1,59.976057571007786,
positive,red,1,None,None,,,,,,,,,0,99,99,99,,,,,,,,,,,,,,,,,,,,,,,,,,,,,,,,,,,,,main,None,None,1,1.4985632000025362,392.18670969991945,None,None,1,,,,,,,,,,,,,,127,33,Female,2022-05-11_09h50.21.747,Parachute,2022.1.1,59.976057571007786,
positive,blue,1,k,None,,,,,,,,,0,100,100,100,,,,,,,,,,,,,,,,,,,,,,,,,,,,,,,,,,,,,main,None,None,1,1.4992376000154763,394.6866870999802,None,None,1,,,,,,,,,,,,,,127,33,Female,2022-05-11_09h50.21.747,Parachute,2022.1.1,59.976057571007786,
negative,yellow,1,k,None,,,,,,,,,0,101,101,101,,,,,,,,,,,,,,,,,,,,,,,,,,,,,,,,,,,,,main,None,None,1,1.4988804999738932,397.18735439993907,None,None,1,,,,,,,,,,,,,,127,33,Female,2022-05-11_09h50.21.747,Parachute,2022.1.1,59.976057571007786,
negative,blue,2,None,k,,,,,,,,,0,102,102,102,,,,,,,,,,,,,,,,,,,,,,,,,,,,,,,,,,,,,main,k,k,1,0.87063339992892,399.6869389999192,None,None,0,,,,,,,,,,,,,,127,33,Female,2022-05-11_09h50.21.747,Parachute,2022.1.1,59.976057571007786,
negative,yellow,2,k,None,,,,,,,,,0,103,103,103,,,,,,,,,,,,,,,,,,,,,,,,,,,,,,,,,,,,,main,None,None,1,1.4936427999055013,401.55740029993467,None,None,1,,,,,,,,,,,,,,127,33,Female,2022-05-11_09h50.21.747,Parachute,2022.1.1,59.976057571007786,
positive,yellow,2,None,k,,,,,,,,,0,104,104,104,,,,,,,,,,,,,,,,,,,,,,,,,,,,,,,,,,,,,main,k,k,1,0.9039431000128388,404.0537984999828,None,None,0,,,,,,,,,,,,,,127,33,Female,2022-05-11_09h50.21.747,Parachute,2022.1.1,59.976057571007786,
positive,blue,1,k,None,,,,,,,,,0,105,105,105,,,,,,,,,,,,,,,,,,,,,,,,,,,,,,,,,,,,,main,None,None,1,1.4931057000067085,405.95741039991844,None,None,1,,,,,,,,,,,,,,127,33,Female,2022-05-11_09h50.21.747,Parachute,2022.1.1,59.976057571007786,
positive,blue,2,k,None,,,,,,,,,0,106,106,106,,,,,,,,,,,,,,,,,,,,,,,,,,,,,,,,,,,,,main,None,None,1,1.49922920006793,408.45397529995535,None,None,1,,,,,,,,,,,,,,127,33,Female,2022-05-11_09h50.21.747,Parachute,2022.1.1,59.976057571007786,
negative,blue,1,None,k,,,,,,,,,0,107,107,107,,,,,,,,,,,,,,,,,,,,,,,,,,,,,,,,,,,,,main,k,k,1,0.854098099982366,410.95434269995894,None,None,0,,,,,,,,,,,,,,127,33,Female,2022-05-11_09h50.21.747,Parachute,2022.1.1,59.976057571007786,
positive,yellow,2,None,k,,,,,,,,,0,108,108,108,,,,,,,,,,,,,,,,,,,,,,,,,,,,,,,,,,,,,main,k,k,1,0.9650438000680879,412.80798819998745,None,None,0,,,,,,,,,,,,,,127,33,Female,2022-05-11_09h50.21.747,Parachute,2022.1.1,59.976057571007786,
negative,yellow,1,k,None,,,,,,,,,0,109,109,109,,,,,,,,,,,,,,,,,,,,,,,,,,,,,,,,,,,,,main,None,None,1,1.493611600017175,414.77406690001953,None,None,1,,,,,,,,,,,,,,127,33,Female,2022-05-11_09h50.21.747,Parachute,2022.1.1,59.976057571007786,
negative,blue,2,None,k,,,,,,,,,0,110,110,110,,,,,,,,,,,,,,,,,,,,,,,,,,,,,,,,,,,,,main,k,k,1,0.736936799949035,417.2712203999981,None,None,0,,,,,,,,,,,,,,127,33,Female,2022-05-11_09h50.21.747,Parachute,2022.1.1,59.976057571007786,
positive,blue,2,k,None,,,,,,,,,0,111,111,111,,,,,,,,,,,,,,,,,,,,,,,,,,,,,,,,,,,,,main,None,None,1,1.4937644000165164,419.0070042000152,None,None,1,,,,,,,,,,,,,,127,33,Female,2022-05-11_09h50.21.747,Parachute,2022.1.1,59.976057571007786,
negative,blue,1,None,k,,,,,,,,,0,112,112,112,,,,,,,,,,,,,,,,,,,,,,,,,,,,,,,,,,,,,main,k,k,1,0.7040160000324249,421.5043015999254,None,None,0,,,,,,,,,,,,,,127,33,Female,2022-05-11_09h50.21.747,Parachute,2022.1.1,59.976057571007786,
positive,yellow,1,None,k,,,,,,,,,0,113,113,113,,,,,,,,,,,,,,,,,,,,,,,,,,,,,,,,,,,,,main,k,k,1,0.682039299979806,423.2076815000037,None,None,0,,,,,,,,,,,,,,127,33,Female,2022-05-11_09h50.21.747,Parachute,2022.1.1,59.976057571007786,
negative,red,1,None,None,,,,,,,,,0,114,114,114,,,,,,,,,,,,,,,,,,,,,,,,,,,,,,,,,,,,,main,None,None,1,1.4936374999815598,424.89097930002026,None,None,1,,,,,,,,,,,,,,127,33,Female,2022-05-11_09h50.21.747,Parachute,2022.1.1,59.976057571007786,
positive,red,1,None,None,,,,,,,,,0,115,115,115,,,,,,,,,,,,,,,,,,,,,,,,,,,,,,,,,,,,,main,None,None,1,1.498926099971868,427.3880642999429,None,None,1,,,,,,,,,,,,,,127,33,Female,2022-05-11_09h50.21.747,Parachute,2022.1.1,59.976057571007786,
negative,red,2,None,None,,,,,,,,,0,116,116,116,,,,,,,,,,,,,,,,,,,,,,,,,,,,,,,,,,,,,main,None,None,1,1.4981428000610322,429.8885308000026,None,None,1,,,,,,,,,,,,,,127,33,Female,2022-05-11_09h50.21.747,Parachute,2022.1.1,59.976057571007786,
negative,yellow,2,k,None,,,,,,,,,0,117,117,117,,,,,,,,,,,,,,,,,,,,,,,,,,,,,,,,,,,,,main,None,None,1,1.4986025999533013,432.38714659994,None,None,1,,,,,,,,,,,,,,127,33,Female,2022-05-11_09h50.21.747,Parachute,2022.1.1,59.976057571007786,
positive,yellow,1,None,k,,,,,,,,,0,118,118,118,,,,,,,,,,,,,,,,,,,,,,,,,,,,,,,,,,,,,main,k,k,1,0.78715230000671,434.8875544000184,None,None,0,,,,,,,,,,,,,,127,33,Female,2022-05-11_09h50.21.747,Parachute,2022.1.1,59.976057571007786,
positive,red,2,None,None,,,,,,,,,0,119,119,119,,,,,,,,,,,,,,,,,,,,,,,,,,,,,,,,,,,,,main,None,None,1,1.4940381000051275,436.67462149995845,None,None,1,,,,,,,,,,,,,,127,33,Female,2022-05-11_09h50.21.747,Parachute,2022.1.1,59.976057571007786,
positive,blue,2,k,None,,,,,,,,,0,120,120,120,,,,,,,,,,,,,,,,,,,,,,,,,,,,,,,,,,,,,main,None,None,1,1.4990702000213787,439.171499799937,None,None,1,,,,,,,,,,,,,,127,33,Female,2022-05-11_09h50.21.747,Parachute,2022.1.1,59.976057571007786,
negative,red,1,None,None,,,,,,,,,0,121,121,121,,,,,,,,,,,,,,,,,,,,,,,,,,,,,,,,,,,,,main,None,None,1,1.498196000000462,441.6719554999145,None,None,1,,,,,,,,,,,,,,127,33,Female,2022-05-11_09h50.21.747,Parachute,2022.1.1,59.976057571007786,
positive,yellow,2,None,k,,,,,,,,,0,122,122,122,,,,,,,,,,,,,,,,,,,,,,,,,,,,,,,,,,,,,main,k,k,1,0.7539834999479353,444.1718363999389,None,None,0,,,,,,,,,,,,,,127,33,Female,2022-05-11_09h50.21.747,Parachute,2022.1.1,59.976057571007786,
negative,red,2,None,None,,,,,,,,,0,123,123,123,,,,,,,,,,,,,,,,,,,,,,,,,,,,,,,,,,,,,main,None,None,1,1.4933931999839842,445.92464679991826,None,None,1,,,,,,,,,,,,,,127,33,Female,2022-05-11_09h50.21.747,Parachute,2022.1.1,59.976057571007786,
negative,yellow,2,k,None,,,,,,,,,0,124,124,124,,,,,,,,,,,,,,,,,,,,,,,,,,,,,,,,,,,,,main,None,None,1,1.4982157000340521,448.42167019995395,None,None,1,,,,,,,,,,,,,,127,33,Female,2022-05-11_09h50.21.747,Parachute,2022.1.1,59.976057571007786,
positive,red,1,None,None,,,,,,,,,0,125,125,125,,,,,,,,,,,,,,,,,,,,,,,,,,,,,,,,,,,,,main,None,None,1,1.4991136000026017,450.92133959999774,None,None,1,,,,,,,,,,,,,,127,33,Female,2022-05-11_09h50.21.747,Parachute,2022.1.1,59.976057571007786,
negative,blue,2,None,k,,,,,,,,,0,126,126,126,,,,,,,,,,,,,,,,,,,,,,,,,,,,,,,,,,,,,main,k,k,1,0.7875924999825656,453.42182209994644,None,None,0,,,,,,,,,,,,,,127,33,Female,2022-05-11_09h50.21.747,Parachute,2022.1.1,59.976057571007786,
negative,blue,1,None,k,,,,,,,,,0,127,127,127,,,,,,,,,,,,,,,,,,,,,,,,,,,,,,,,,,,,,main,k,k,1,1.1652011000551283,455.208442299976,None,None,0,,,,,,,,,,,,,,127,33,Female,2022-05-11_09h50.21.747,Parachute,2022.1.1,59.976057571007786,
negative,yellow,1,k,None,,,,,,,,,0,128,128,128,,,,,,,,,,,,,,,,,,,,,,,,,,,,,,,,,,,,,main,None,None,1,1.4930773000232875,457.37513079994824,None,None,1,,,,,,,,,,,,,,127,33,Female,2022-05-11_09h50.21.747,Parachute,2022.1.1,59.976057571007786,
negative,yellow,1,k,None,,,,,,,,,0,129,129,129,,,,,,,,,,,,,,,,,,,,,,,,,,,,,,,,,,,,,main,None,None,1,1.4982024000491947,459.872261099983,None,None,1,,,,,,,,,,,,,,127,33,Female,2022-05-11_09h50.21.747,Parachute,2022.1.1,59.976057571007786,
positive,blue,1,k,None,,,,,,,,,0,130,130,130,,,,,,,,,,,,,,,,,,,,,,,,,,,,,,,,,,,,,main,None,None,1,1.4988822999875993,462.3715834999457,None,None,1,,,,,,,,,,,,,,127,33,Female,2022-05-11_09h50.21.747,Parachute,2022.1.1,59.976057571007786,
negative,blue,1,None,k,,,,,,,,,0,131,131,131,,,,,,,,,,,,,,,,,,,,,,,,,,,,,,,,,,,,,main,k,k,1,0.7708470999496058,464.8715720999753,None,None,0,,,,,,,,,,,,,,127,33,Female,2022-05-11_09h50.21.747,Parachute,2022.1.1,59.976057571007786,
negative,blue,2,None,k,,,,,,,,,0,132,132,132,,,,,,,,,,,,,,,,,,,,,,,,,,,,,,,,,,,,,main,k,k,1,0.6989561000373214,466.6415643999353,None,None,0,,,,,,,,,,,,,,127,33,Female,2022-05-11_09h50.21.747,Parachute,2022.1.1,59.976057571007786,
positive,blue,2,k,None,,,,,,,,,0,133,133,133,,,,,,,,,,,,,,,,,,,,,,,,,,,,,,,,,,,,,main,None,None,1,1.493308800039813,468.34176749992184,None,None,1,,,,,,,,,,,,,,127,33,Female,2022-05-11_09h50.21.747,Parachute,2022.1.1,59.976057571007786,
positive,red,2,None,None,,,,,,,,,0,134,134,134,,,,,,,,,,,,,,,,,,,,,,,,,,,,,,,,,,,,,main,None,None,1,1.4992909000720829,470.83865349995904,None,None,1,,,,,,,,,,,,,,127,33,Female,2022-05-11_09h50.21.747,Parachute,2022.1.1,59.976057571007786,
negative,yellow,2,k,None,,,,,,,,,0,135,135,135,,,,,,,,,,,,,,,,,,,,,,,,,,,,,,,,,,,,,main,None,None,1,1.4983694000402465,473.3392485999502,None,None,1,,,,,,,,,,,,,,127,33,Female,2022-05-11_09h50.21.747,Parachute,2022.1.1,59.976057571007786,
positive,yellow,2,None,k,,,,,,,,,0,136,136,136,,,,,,,,,,,,,,,,,,,,,,,,,,,,,,,,,,,,,main,k,k,1,0.6208041999489069,475.83900449995417,None,None,0,,,,,,,,,,,,,,127,33,Female,2022-05-11_09h50.21.747,Parachute,2022.1.1,59.976057571007786,
positive,blue,1,k,None,,,,,,,,,0,137,137,137,,,,,,,,,,,,,,,,,,,,,,,,,,,,,,,,,,,,,main,None,None,1,1.4942711000330746,477.4588622999145,None,None,1,,,,,,,,,,,,,,127,33,Female,2022-05-11_09h50.21.747,Parachute,2022.1.1,59.976057571007786,
positive,yellow,1,None,k,,,,,,,,,0,138,138,138,,,,,,,,,,,,,,,,,,,,,,,,,,,,,,,,,,,,,main,k,k,1,0.6533174000214785,479.9580705999397,None,None,0,,,,,,,,,,,,,,127,33,Female,2022-05-11_09h50.21.747,Parachute,2022.1.1,59.976057571007786,
positive,yellow,1,None,k,,,,,,,,,0,139,139,139,,,,,,,,,,,,,,,,,,,,,,,,,,,,,,,,,,,,,main,k,k,1,0.6147115000057966,481.61681239993777,None,None,0,,,,,,,,,,,,,,127,33,Female,2022-05-11_09h50.21.747,Parachute,2022.1.1,59.976057571007786,
positive,yellow,1,None,k,,,,,,,,,0,140,140,140,,,,,,,,,,,,,,,,,,,,,,,,,,,,,,,,,,,,,main,k,k,1,0.5492883000988513,483.2256051999284,None,None,0,,,,,,,,,,,,,,127,33,Female,2022-05-11_09h50.21.747,Parachute,2022.1.1,59.976057571007786,
positive,blue,1,k,None,,,,,,,,,0,141,141,141,,,,,,,,,,,,,,,,,,,,,,,,,,,,,,,,,,,,,main,None,None,1,1.4929204999934882,484.77584899996873,None,None,1,,,,,,,,,,,,,,127,33,Female,2022-05-11_09h50.21.747,Parachute,2022.1.1,59.976057571007786,
positive,blue,2,k,None,,,,,,,,,0,142,142,142,,,,,,,,,,,,,,,,,,,,,,,,,,,,,,,,,,,,,main,None,None,1,1.498637399985455,487.27209949993994,None,None,1,,,,,,,,,,,,,,127,33,Female,2022-05-11_09h50.21.747,Parachute,2022.1.1,59.976057571007786,
positive,yellow,2,None,k,,,,,,,,,0,143,143,143,,,,,,,,,,,,,,,,,,,,,,,,,,,,,,,,,,,,,main,k,k,1,0.6541961999610066,489.77272150001954,None,None,0,,,,,,,,,,,,,,127,33,Female,2022-05-11_09h50.21.747,Parachute,2022.1.1,59.976057571007786,
negative,yellow,2,k,None,,,,,,,,,0,144,144,144,,,,,,,,,,,,,,,,,,,,,,,,,,,,,,,,,,,,,main,None,None,1,1.493157000048086,491.4259209999582,None,None,1,,,,,,,,,,,,,,127,33,Female,2022-05-11_09h50.21.747,Parachute,2022.1.1,59.976057571007786,
negative,blue,2,None,k,,,,,,,,,0,145,145,145,,,,,,,,,,,,,,,,,,,,,,,,,,,,,,,,,,,,,main,k,k,1,0.6208429998951033,493.9228756999364,None,None,0,,,,,,,,,,,,,,127,33,Female,2022-05-11_09h50.21.747,Parachute,2022.1.1,59.976057571007786,
negative,red,1,None,None,,,,,,,,,0,146,146,146,,,,,,,,,,,,,,,,,,,,,,,,,,,,,,,,,,,,,main,None,None,1,1.4932736000046134,495.54279039998073,None,None,1,,,,,,,,,,,,,,127,33,Female,2022-05-11_09h50.21.747,Parachute,2022.1.1,59.976057571007786,
positive,blue,1,k,None,,,,,,,,,0,147,147,147,,,,,,,,,,,,,,,,,,,,,,,,,,,,,,,,,,,,,main,None,None,1,1.4990844998974353,498.04013269999996,None,None,1,,,,,,,,,,,,,,127,33,Female,2022-05-11_09h50.21.747,Parachute,2022.1.1,59.976057571007786,
positive,yellow,1,None,k,,,,,,,,,0,148,148,148,,,,,,,,,,,,,,,,,,,,,,,,,,,,,,,,,,,,,main,k,k,1,0.8203092999756336,500.5399573999457,None,None,0,,,,,,,,,,,,,,127,33,Female,2022-05-11_09h50.21.747,Parachute,2022.1.1,59.976057571007786,
negative,red,2,None,None,,,,,,,,,0,149,149,149,,,,,,,,,,,,,,,,,,,,,,,,,,,,,,,,,,,,,main,None,None,1,1.4932479000417516,502.359187199967,None,None,1,,,,,,,,,,,,,,127,33,Female,2022-05-11_09h50.21.747,Parachute,2022.1.1,59.976057571007786,
negative,blue,1,None,k,,,,,,,,,0,150,150,150,,,,,,,,,,,,,,,,,,,,,,,,,,,,,,,,,,,,,main,k,k,1,0.7373516999650747,504.85596229997464,None,None,0,,,,,,,,,,,,,,127,33,Female,2022-05-11_09h50.21.747,Parachute,2022.1.1,59.976057571007786,
negative,yellow,2,k,None,,,,,,,,,0,151,151,151,,,,,,,,,,,,,,,,,,,,,,,,,,,,,,,,,,,,,main,None,None,1,1.4933233999181539,506.5927399999928,None,None,1,,,,,,,,,,,,,,127,33,Female,2022-05-11_09h50.21.747,Parachute,2022.1.1,59.976057571007786,
negative,blue,2,None,k,,,,,,,,,0,152,152,152,,,,,,,,,,,,,,,,,,,,,,,,,,,,,,,,,,,,,main,k,k,1,0.83723549998831,509.0893968999153,None,None,0,,,,,,,,,,,,,,127,33,Female,2022-05-11_09h50.21.747,Parachute,2022.1.1,59.976057571007786,
negative,yellow,1,k,None,,,,,,,,,0,153,153,153,,,,,,,,,,,,,,,,,,,,,,,,,,,,,,,,,,,,,main,None,None,1,1.4939113999716938,510.9260720999446,None,None,1,,,,,,,,,,,,,,127,33,Female,2022-05-11_09h50.21.747,Parachute,2022.1.1,59.976057571007786,
negative,blue,1,None,k,,,,,,,,,0,154,154,154,,,,,,,,,,,,,,,,,,,,,,,,,,,,,,,,,,,,,main,k,k,1,0.6372373999329284,513.422857599915,None,None,0,,,,,,,,,,,,,,127,33,Female,2022-05-11_09h50.21.747,Parachute,2022.1.1,59.976057571007786,
positive,yellow,2,None,k,,,,,,,,,0,155,155,155,,,,,,,,,,,,,,,,,,,,,,,,,,,,,,,,,,,,,main,k,k,1,1.4653167999349535,515.059510699939,None,None,0,,,,,,,,,,,,,,127,33,Female,2022-05-11_09h50.21.747,Parachute,2022.1.1,59.976057571007786,
positive,red,2,None,None,,,,,,,,,0,156,156,156,,,,,,,,,,,,,,,,,,,,,,,,,,,,,,,,,,,,,main,None,None,1,1.4934525999706239,517.5266886999598,None,None,1,,,,,,,,,,,,,,127,33,Female,2022-05-11_09h50.21.747,Parachute,2022.1.1,59.976057571007786,
positive,red,1,None,None,,,,,,,,,0,157,157,157,,,,,,,,,,,,,,,,,,,,,,,,,,,,,,,,,,,,,main,None,None,1,1.4987208000384271,520.0228070999729,None,None,1,,,,,,,,,,,,,,127,33,Female,2022-05-11_09h50.21.747,Parachute,2022.1.1,59.976057571007786,
positive,blue,2,k,None,,,,,,,,,0,158,158,158,,,,,,,,,,,,,,,,,,,,,,,,,,,,,,,,,,,,,main,None,None,1,1.498465499957092,522.5227616999764,None,None,1,,,,,,,,,,,,,,127,33,Female,2022-05-11_09h50.21.747,Parachute,2022.1.1,59.976057571007786,
negative,yellow,1,k,None,,,,,,,,,0,159,159,159,,,,,,,,,,,,,,,,,,,,,,,,,,,,,,,,,,,,,main,None,None,1,1.4996973000233993,525.0233128999826,None,None,1,,,,,,,,,,,,,,127,33,Female,2022-05-11_09h50.21.747,Parachute,2022.1.1,59.976057571007786,
negative,red,2,None,None,,,,,,,,,0,160,160,160,,,,,,,,,,,,,,,,,,,,,,,,,,,,,,,,,,,,,main,None,None,1,1.4984286999097094,527.5240086999256,None,None,1,,,,,,,,,,,,,,127,33,Female,2022-05-11_09h50.21.747,Parachute,2022.1.1,59.976057571007786,
negative,blue,1,None,k,,,,,,,,,0,161,161,161,,,,,,,,,,,,,,,,,,,,,,,,,,,,,,,,,,,,,main,k,k,1,0.7374064000323415,530.0238599999575,None,None,0,,,,,,,,,,,,,,127,33,Female,2022-05-11_09h50.21.747,Parachute,2022.1.1,59.976057571007786,
negative,blue,1,None,k,,,,,,,,,0,162,162,162,,,,,,,,,,,,,,,,,,,,,,,,,,,,,,,,,,,,,main,k,k,1,0.5925382999703288,531.7600647999207,None,None,0,,,,,,,,,,,,,,127,33,Female,2022-05-11_09h50.21.747,Parachute,2022.1.1,59.976057571007786,
negative,yellow,1,k,None,,,,,,,,,0,163,163,163,,,,,,,,,,,,,,,,,,,,,,,,,,,,,,,,,,,,,main,None,k,0,0.5885832000058144,533.3561406999361,None,None,1,,,,,,,,,,,,,,127,33,Female,2022-05-11_09h50.21.747,Parachute,2022.1.1,59.976057571007786,
negative,yellow,1,k,None,,,,,,,,,0,164,164,164,,,,,,,,,,,,,,,,,,,,,,,,,,,,,,,,,,,,,main,None,None,1,1.5017688999651,535.9877530999947,None,None,1,,,,,,,,,,,,,,127,33,Female,2022-05-11_09h50.21.747,Parachute,2022.1.1,59.976057571007786,
positive,yellow,1,None,k,,,,,,,,,0,165,165,165,,,,,,,,,,,,,,,,,,,,,,,,,,,,,,,,,,,,,main,k,k,1,0.7052096000406891,538.4912104000105,None,None,0,,,,,,,,,,,,,,127,33,Female,2022-05-11_09h50.21.747,Parachute,2022.1.1,59.976057571007786,
negative,red,1,None,None,,,,,,,,,0,166,166,166,,,,,,,,,,,,,,,,,,,,,,,,,,,,,,,,,,,,,main,None,None,1,1.4919788000406697,540.1947916999925,None,None,1,,,,,,,,,,,,,,127,33,Female,2022-05-11_09h50.21.747,Parachute,2022.1.1,59.976057571007786,
negative,yellow,2,k,None,,,,,,,,,0,167,167,167,,,,,,,,,,,,,,,,,,,,,,,,,,,,,,,,,,,,,main,None,None,1,1.4989966000430286,542.6908333000029,None,None,1,,,,,,,,,,,,,,127,33,Female,2022-05-11_09h50.21.747,Parachute,2022.1.1,59.976057571007786,
positive,blue,2,k,None,,,,,,,,,0,168,168,168,,,,,,,,,,,,,,,,,,,,,,,,,,,,,,,,,,,,,main,None,None,1,1.4983050000155345,545.1910460999934,None,None,1,,,,,,,,,,,,,,127,33,Female,2022-05-11_09h50.21.747,Parachute,2022.1.1,59.976057571007786,
positive,red,2,None,None,,,,,,,,,0,169,169,169,,,,,,,,,,,,,,,,,,,,,,,,,,,,,,,,,,,,,main,None,None,1,1.4988400000147521,547.6903398999711,None,None,1,,,,,,,,,,,,,,127,33,Female,2022-05-11_09h50.21.747,Parachute,2022.1.1,59.976057571007786,
positive,red,1,None,None,,,,,,,,,0,170,170,170,,,,,,,,,,,,,,,,,,,,,,,,,,,,,,,,,,,,,main,None,None,1,1.4984865000005811,550.1904473999748,None,None,1,,,,,,,,,,,,,,127,33,Female,2022-05-11_09h50.21.747,Parachute,2022.1.1,59.976057571007786,
negative,blue,2,None,k,,,,,,,,,0,171,171,171,,,,,,,,,,,,,,,,,,,,,,,,,,,,,,,,,,,,,main,k,k,1,1.220949299982749,552.6906390999211,None,None,0,,,,,,,,,,,,,,127,33,Female,2022-05-11_09h50.21.747,Parachute,2022.1.1,59.976057571007786,
positive,blue,2,k,None,,,,,,,,,0,172,172,172,,,,,,,,,,,,,,,,,,,,,,,,,,,,,,,,,,,,,main,None,k,0,0.8818050000118092,554.9112879999448,None,None,1,,,,,,,,,,,,,,127,33,Female,2022-05-11_09h50.21.747,Parachute,2022.1.1,59.976057571007786,
negative,yellow,2,k,None,,,,,,,,,0,173,173,173,,,,,,,,,,,,,,,,,,,,,,,,,,,,,,,,,,,,,main,None,None,1,1.5031995000317693,557.8049816000275,None,None,1,,,,,,,,,,,,,,127,33,Female,2022-05-11_09h50.21.747,Parachute,2022.1.1,59.976057571007786,
positive,yellow,2,None,k,,,,,,,,,0,174,174,174,,,,,,,,,,,,,,,,,,,,,,,,,,,,,,,,,,,,,main,k,k,1,0.736208499991335,560.3096576000098,None,None,0,,,,,,,,,,,,,,127,33,Female,2022-05-11_09h50.21.747,Parachute,2022.1.1,59.976057571007786,
negative,blue,2,None,k,,,,,,,,,0,175,175,175,,,,,,,,,,,,,,,,,,,,,,,,,,,,,,,,,,,,,main,k,k,1,1.0484372000209987,562.044157300028,None,None,0,,,,,,,,,,,,,,127,33,Female,2022-05-11_09h50.21.747,Parachute,2022.1.1,59.976057571007786,
positive,blue,1,k,None,,,,,,,,,0,176,176,176,,,,,,,,,,,,,,,,,,,,,,,,,,,,,,,,,,,,,main,None,None,1,1.4943855999736115,564.0937756999629,None,None,1,,,,,,,,,,,,,,127,33,Female,2022-05-11_09h50.21.747,Parachute,2022.1.1,59.976057571007786,
positive,yellow,1,None,k,,,,,,,,,0,177,177,177,,,,,,,,,,,,,,,,,,,,,,,,,,,,,,,,,,,,,main,k,k,1,1.0361215999582782,566.5918813999742,None,None,0,,,,,,,,,,,,,,127,33,Female,2022-05-11_09h50.21.747,Parachute,2022.1.1,59.976057571007786,
positive,blue,1,k,None,,,,,,,,,0,178,178,178,,,,,,,,,,,,,,,,,,,,,,,,,,,,,,,,,,,,,main,None,None,1,1.4940013999585062,568.6272863999475,None,None,1,,,,,,,,,,,,,,127,33,Female,2022-05-11_09h50.21.747,Parachute,2022.1.1,59.976057571007786,
positive,yellow,2,None,k,,,,,,,,,0,179,179,179,,,,,,,,,,,,,,,,,,,,,,,,,,,,,,,,,,,,,main,k,k,1,0.9043991999933496,571.1248582999688,None,None,0,,,,,,,,,,,,,,127,33,Female,2022-05-11_09h50.21.747,Parachute,2022.1.1,59.976057571007786,
positive,blue,1,k,None,,,,,,,,,0,180,180,180,,,,,,,,,,,,,,,,,,,,,,,,,,,,,,,,,,,,,main,None,None,1,1.492898599943146,573.0280378999887,None,None,1,,,,,,,,,,,,,,127,33,Female,2022-05-11_09h50.21.747,Parachute,2022.1.1,59.976057571007786,
negative,red,1,None,None,,,,,,,,,0,181,181,181,,,,,,,,,,,,,,,,,,,,,,,,,,,,,,,,,,,,,main,None,None,1,1.4989829999394715,575.524561899947,None,None,1,,,,,,,,,,,,,,127,33,Female,2022-05-11_09h50.21.747,Parachute,2022.1.1,59.976057571007786,
negative,blue,1,None,k,,,,,,,,,0,182,182,182,,,,,,,,,,,,,,,,,,,,,,,,,,,,,,,,,,,,,main,k,k,1,0.7534387999912724,578.0247929999605,None,None,0,,,,,,,,,,,,,,127,33,Female,2022-05-11_09h50.21.747,Parachute,2022.1.1,59.976057571007786,
negative,yellow,2,k,None,,,,,,,,,0,183,183,183,,,,,,,,,,,,,,,,,,,,,,,,,,,,,,,,,,,,,main,None,None,1,1.4933509000111371,579.7774206999457,None,None,1,,,,,,,,,,,,,,127,33,Female,2022-05-11_09h50.21.747,Parachute,2022.1.1,59.976057571007786,
positive,yellow,2,None,k,,,,,,,,,0,184,184,184,,,,,,,,,,,,,,,,,,,,,,,,,,,,,,,,,,,,,main,k,k,1,0.7056028000079095,582.2742989999242,None,None,0,,,,,,,,,,,,,,127,33,Female,2022-05-11_09h50.21.747,Parachute,2022.1.1,59.976057571007786,
positive,yellow,1,None,k,,,,,,,,,0,185,185,185,,,,,,,,,,,,,,,,,,,,,,,,,,,,,,,,,,,,,main,k,k,1,0.7135399000253528,583.9791624000063,None,None,0,,,,,,,,,,,,,,127,33,Female,2022-05-11_09h50.21.747,Parachute,2022.1.1,59.976057571007786,
positive,red,2,None,None,,,,,,,,,0,186,186,186,,,,,,,,,,,,,,,,,,,,,,,,,,,,,,,,,,,,,main,None,None,1,1.494224700029008,585.6942056999542,None,None,1,,,,,,,,,,,,,,127,33,Female,2022-05-11_09h50.21.747,Parachute,2022.1.1,59.976057571007786,
positive,blue,1,k,None,,,,,,,,,0,187,187,187,,,,,,,,,,,,,,,,,,,,,,,,,,,,,,,,,,,,,main,None,None,1,1.498557799961418,588.1922673999798,None,None,1,,,,,,,,,,,,,,127,33,Female,2022-05-11_09h50.21.747,Parachute,2022.1.1,59.976057571007786,
negative,yellow,1,k,None,,,,,,,,,0,188,188,188,,,,,,,,,,,,,,,,,,,,,,,,,,,,,,,,,,,,,main,None,None,1,1.4981700000353158,590.6920639999444,None,None,1,,,,,,,,,,,,,,127,33,Female,2022-05-11_09h50.21.747,Parachute,2022.1.1,59.976057571007786,
positive,yellow,2,None,k,,,,,,,,,0,189,189,189,,,,,,,,,,,,,,,,,,,,,,,,,,,,,,,,,,,,,main,k,k,1,0.754388100001961,593.1914526999462,None,None,0,,,,,,,,,,,,,,127,33,Female,2022-05-11_09h50.21.747,Parachute,2022.1.1,59.976057571007786,
negative,yellow,2,k,None,,,,,,,,,0,190,190,190,,,,,,,,,,,,,,,,,,,,,,,,,,,,,,,,,,,,,main,None,None,1,1.4931404000381008,594.9459216999821,None,None,1,,,,,,,,,,,,,,127,33,Female,2022-05-11_09h50.21.747,Parachute,2022.1.1,59.976057571007786,
negative,yellow,1,k,None,,,,,,,,,0,191,191,191,,,,,,,,,,,,,,,,,,,,,,,,,,,,,,,,,,,,,main,None,None,1,1.4982752000214532,597.4420792999445,None,None,1,,,,,,,,,,,,,,127,33,Female,2022-05-11_09h50.21.747,Parachute,2022.1.1,59.976057571007786,
positive,blue,2,k,None,,,,,,,,,0,192,192,192,,,,,,,,,,,,,,,,,,,,,,,,,,,,,,,,,,,,,main,None,None,1,1.4987316000042483,599.9414026999148,None,None,1,,,,,,,,,,,,,,127,33,Female,2022-05-11_09h50.21.747,Parachute,2022.1.1,59.976057571007786,
positive,yellow,1,None,k,,,,,,,,,0,193,193,193,,,,,,,,,,,,,,,,,,,,,,,,,,,,,,,,,,,,,main,k,k,1,0.7540733999339864,602.4415353999939,None,None,0,,,,,,,,,,,,,,127,33,Female,2022-05-11_09h50.21.747,Parachute,2022.1.1,59.976057571007786,
negative,red,2,None,None,,,,,,,,,0,194,194,194,,,,,,,,,,,,,,,,,,,,,,,,,,,,,,,,,,,,,main,None,None,1,1.4932639000471681,604.1950115999207,None,None,1,,,,,,,,,,,,,,127,33,Female,2022-05-11_09h50.21.747,Parachute,2022.1.1,59.976057571007786,
positive,red,1,None,None,,,,,,,,,0,195,195,195,,,,,,,,,,,,,,,,,,,,,,,,,,,,,,,,,,,,,main,None,None,1,1.4988479999592528,606.6914174000267,None,None,1,,,,,,,,,,,,,,127,33,Female,2022-05-11_09h50.21.747,Parachute,2022.1.1,59.976057571007786,
negative,blue,1,None,k,,,,,,,,,0,196,196,196,,,,,,,,,,,,,,,,,,,,,,,,,,,,,,,,,,,,,main,k,k,1,1.0202450000215322,609.1920907999156,None,None,0,,,,,,,,,,,,,,127,33,Female,2022-05-11_09h50.21.747,Parachute,2022.1.1,59.976057571007786,
positive,blue,2,k,None,,,,,,,,,0,197,197,197,,,,,,,,,,,,,,,,,,,,,,,,,,,,,,,,,,,,,main,None,None,1,1.4935162999900058,611.2114498999435,None,None,1,,,,,,,,,,,,,,127,33,Female,2022-05-11_09h50.21.747,Parachute,2022.1.1,59.976057571007786,
negative,blue,2,None,k,,,,,,,,,0,198,198,198,,,,,,,,,,,,,,,,,,,,,,,,,,,,,,,,,,,,,main,k,k,1,0.8375010999152437,613.7082024000119,None,None,0,,,,,,,,,,,,,,127,33,Female,2022-05-11_09h50.21.747,Parachute,2022.1.1,59.976057571007786,
negative,blue,2,None,k,,,,,,,,,0,199,199,199,,,,,,,,,,,,,,,,,,,,,,,,,,,,,,,,,,,,,main,k,k,1,0.6486132999416441,615.5452661999734,None,None,0,,,,,,,,,,,,,,127,33,Female,2022-05-11_09h50.21.747,Parachute,2022.1.1,59.976057571007786,
positive,blue,2,k,None,,,,,,,,,0,200,200,200,,,,,,,,,,,,,,,,,,,,,,,,,,,,,,,,,,,,,main,None,None,1,1.4933781999861822,617.1954577999422,None,None,1,,,,,,,,,,,,,,127,33,Female,2022-05-11_09h50.21.747,Parachute,2022.1.1,59.976057571007786,
positive,blue,2,k,None,,,,,,,,,0,201,201,201,,,,,,,,,,,,,,,,,,,,,,,,,,,,,,,,,,,,,main,None,None,1,1.498961600009352,619.6916117999936,None,None,1,,,,,,,,,,,,,,127,33,Female,2022-05-11_09h50.21.747,Parachute,2022.1.1,59.976057571007786,
negative,yellow,2,k,None,,,,,,,,,0,202,202,202,,,,,,,,,,,,,,,,,,,,,,,,,,,,,,,,,,,,,main,None,None,1,1.4982364000752568,622.1920012999326,None,None,1,,,,,,,,,,,,,,127,33,Female,2022-05-11_09h50.21.747,Parachute,2022.1.1,59.976057571007786,
positive,red,1,None,None,,,,,,,,,0,203,203,203,,,,,,,,,,,,,,,,,,,,,,,,,,,,,,,,,,,,,main,None,None,1,1.4990155999548733,624.6918681999668,None,None,1,,,,,,,,,,,,,,127,33,Female,2022-05-11_09h50.21.747,Parachute,2022.1.1,59.976057571007786,
negative,blue,2,None,k,,,,,,,,,0,204,204,204,,,,,,,,,,,,,,,,,,,,,,,,,,,,,,,,,,,,,main,k,k,1,0.8038595999823883,627.1920223999768,None,None,0,,,,,,,,,,,,,,127,33,Female,2022-05-11_09h50.21.747,Parachute,2022.1.1,59.976057571007786,
negative,red,1,None,None,,,,,,,,,0,205,205,205,,,,,,,,,,,,,,,,,,,,,,,,,,,,,,,,,,,,,main,None,None,1,1.4930896000005305,628.9954863999737,None,None,1,,,,,,,,,,,,,,127,33,Female,2022-05-11_09h50.21.747,Parachute,2022.1.1,59.976057571007786,
negative,blue,2,None,k,,,,,,,,,0,206,206,206,,,,,,,,,,,,,,,,,,,,,,,,,,,,,,,,,,,,,main,k,k,1,0.922045899904333,631.4920226000249,None,None,0,,,,,,,,,,,,,,127,33,Female,2022-05-11_09h50.21.747,Parachute,2022.1.1,59.976057571007786,
negative,yellow,2,k,None,,,,,,,,,0,207,207,207,,,,,,,,,,,,,,,,,,,,,,,,,,,,,,,,,,,,,main,None,None,1,1.492618600022979,633.4133239999646,None,None,1,,,,,,,,,,,,,,127,33,Female,2022-05-11_09h50.21.747,Parachute,2022.1.1,59.976057571007786,
positive,yellow,2,None,k,,,,,,,,,0,208,208,208,,,,,,,,,,,,,,,,,,,,,,,,,,,,,,,,,,,,,main,k,k,1,0.8033954999409616,635.9107794000302,None,None,0,,,,,,,,,,,,,,127,33,Female,2022-05-11_09h50.21.747,Parachute,2022.1.1,59.976057571007786,
negative,yellow,1,k,None,,,,,,,,,0,209,209,209,,,,,,,,,,,,,,,,,,,,,,,,,,,,,,,,,,,,,main,None,None,1,1.493655199999921,637.7121573999757,None,None,1,,,,,,,,,,,,,,127,33,Female,2022-05-11_09h50.21.747,Parachute,2022.1.1,59.976057571007786,
negative,red,2,None,None,,,,,,,,,0,210,210,210,,,,,,,,,,,,,,,,,,,,,,,,,,,,,,,,,,,,,main,None,None,1,1.4983839999185875,640.2101812999463,None,None,1,,,,,,,,,,,,,,127,33,Female,2022-05-11_09h50.21.747,Parachute,2022.1.1,59.976057571007786,
negative,blue,1,None,k,,,,,,,,,0,211,211,211,,,,,,,,,,,,,,,,,,,,,,,,,,,,,,,,,,,,,main,k,k,1,0.8705884999362752,642.7090688999742,None,None,0,,,,,,,,,,,,,,127,33,Female,2022-05-11_09h50.21.747,Parachute,2022.1.1,59.976057571007786,
negative,yellow,1,k,None,,,,,,,,,0,212,212,212,,,,,,,,,,,,,,,,,,,,,,,,,,,,,,,,,,,,,main,None,None,1,1.4936230999883264,644.5790236999746,None,None,1,,,,,,,,,,,,,,127,33,Female,2022-05-11_09h50.21.747,Parachute,2022.1.1,59.976057571007786,
positive,blue,1,k,None,,,,,,,,,0,213,213,213,,,,,,,,,,,,,,,,,,,,,,,,,,,,,,,,,,,,,main,None,None,1,1.498255699989386,647.0771614999976,None,None,1,,,,,,,,,,,,,,127,33,Female,2022-05-11_09h50.21.747,Parachute,2022.1.1,59.976057571007786,
positive,blue,1,k,None,,,,,,,,,0,214,214,214,,,,,,,,,,,,,,,,,,,,,,,,,,,,,,,,,,,,,main,None,None,1,1.498919399920851,649.5756368000293,None,None,1,,,,,,,,,,,,,,127,33,Female,2022-05-11_09h50.21.747,Parachute,2022.1.1,59.976057571007786,
positive,yellow,1,None,k,,,,,,,,,0,215,215,215,,,,,,,,,,,,,,,,,,,,,,,,,,,,,,,,,,,,,main,k,k,1,0.620960499974899,652.0757905999199,None,None,0,,,,,,,,,,,,,,127,33,Female,2022-05-11_09h50.21.747,Parachute,2022.1.1,59.976057571007786,
positive,yellow,1,None,k,,,,,,,,,0,216,216,216,,,,,,,,,,,,,,,,,,,,,,,,,,,,,,,,,,,,,main,k,k,1,0.6317759000230581,653.696220099926,None,None,0,,,,,,,,,,,,,,127,33,Female,2022-05-11_09h50.21.747,Parachute,2022.1.1,59.976057571007786,
positive,yellow,2,None,k,,,,,,,,,0,217,217,217,,,,,,,,,,,,,,,,,,,,,,,,,,,,,,,,,,,,,main,k,k,1,1.2153022000566125,655.3293052000226,None,None,0,,,,,,,,,,,,,,127,33,Female,2022-05-11_09h50.21.747,Parachute,2022.1.1,59.976057571007786,
negative,blue,1,None,k,,,,,,,,,0,218,218,218,,,,,,,,,,,,,,,,,,,,,,,,,,,,,,,,,,,,,main,k,k,1,0.9323107999516651,657.5468938000267,None,None,0,,,,,,,,,,,,,,127,33,Female,2022-05-11_09h50.21.747,Parachute,2022.1.1,59.976057571007786,
positive,red,2,None,None,,,,,,,,,0,219,219,219,,,,,,,,,,,,,,,,,,,,,,,,,,,,,,,,,,,,,main,None,None,1,1.4933082999195904,659.4793614000082,None,None,1,,,,,,,,,,,,,,127,33,Female,2022-05-11_09h50.21.747,Parachute,2022.1.1,59.976057571007786,
positive,yellow,1,None,k,,,,,,,,,0,220,220,220,,,,,,,,,,,,,,,,,,,,,,,,,,,,,,,,,,,,,main,k,k,1,0.8042080999584869,661.976804099977,None,None,0,,,,,,,,,,,,,,127,33,Female,2022-05-11_09h50.21.747,Parachute,2022.1.1,59.976057571007786,
positive,blue,1,k,None,,,,,,,,,0,221,221,221,,,,,,,,,,,,,,,,,,,,,,,,,,,,,,,,,,,,,main,None,None,1,1.4927801999729127,663.7807595999911,None,None,1,,,,,,,,,,,,,,127,33,Female,2022-05-11_09h50.21.747,Parachute,2022.1.1,59.976057571007786,
positive,yellow,2,None,k,,,,,,,,,0,222,222,222,,,,,,,,,,,,,,,,,,,,,,,,,,,,,,,,,,,,,main,k,k,1,0.8208168999990448,666.2774908000138,None,None,0,,,,,,,,,,,,,,127,33,Female,2022-05-11_09h50.21.747,Parachute,2022.1.1,59.976057571007786,
negative,yellow,1,k,None,,,,,,,,,0,223,223,223,,,,,,,,,,,,,,,,,,,,,,,,,,,,,,,,,,,,,main,None,None,1,1.4943639999255538,668.0961981000146,None,None,1,,,,,,,,,,,,,,127,33,Female,2022-05-11_09h50.21.747,Parachute,2022.1.1,59.976057571007786,
positive,yellow,2,None,k,,,,,,,,,0,224,224,224,,,,,,,,,,,,,,,,,,,,,,,,,,,,,,,,,,,,,main,k,k,1,0.8345816000364721,670.5933845000109,None,None,0,,,,,,,,,,,,,,127,33,Female,2022-05-11_09h50.21.747,Parachute,2022.1.1,59.976057571007786,
negative,yellow,2,k,None,,,,,,,,,0,225,225,225,,,,,,,,,,,,,,,,,,,,,,,,,,,,,,,,,,,,,main,None,None,1,1.4958206999581307,672.4294294000138,None,None,1,,,,,,,,,,,,,,127,33,Female,2022-05-11_09h50.21.747,Parachute,2022.1.1,59.976057571007786,
negative,blue,2,None,k,,,,,,,,,0,226,226,226,,,,,,,,,,,,,,,,,,,,,,,,,,,,,,,,,,,,,main,k,k,1,0.7373019999358803,674.9267689000117,None,None,0,,,,,,,,,,,,,,127,33,Female,2022-05-11_09h50.21.747,Parachute,2022.1.1,59.976057571007786,
positive,red,2,None,None,,,,,,,,,0,227,227,227,,,,,,,,,,,,,,,,,,,,,,,,,,,,,,,,,,,,,main,None,None,1,1.4936705000000075,676.6635927999159,None,None,1,,,,,,,,,,,,,,127,33,Female,2022-05-11_09h50.21.747,Parachute,2022.1.1,59.976057571007786,
positive,blue,2,k,None,,,,,,,,,0,228,228,228,,,,,,,,,,,,,,,,,,,,,,,,,,,,,,,,,,,,,main,None,None,1,1.4992946999846026,679.1603363999166,None,None,1,,,,,,,,,,,,,,127,33,Female,2022-05-11_09h50.21.747,Parachute,2022.1.1,59.976057571007786,
negative,blue,1,None,k,,,,,,,,,0,229,229,229,,,,,,,,,,,,,,,,,,,,,,,,,,,,,,,,,,,,,main,k,k,1,0.6867002999642864,681.6607104999712,None,None,0,,,,,,,,,,,,,,127,33,Female,2022-05-11_09h50.21.747,Parachute,2022.1.1,59.976057571007786,
positive,yellow,1,None,k,,,,,,,,,0,230,230,230,,,,,,,,,,,,,,,,,,,,,,,,,,,,,,,,,,,,,main,k,k,1,0.7156259000767022,683.3465049000224,None,None,0,,,,,,,,,,,,,,127,33,Female,2022-05-11_09h50.21.747,Parachute,2022.1.1,59.976057571007786,
negative,blue,2,None,k,,,,,,,,,0,231,231,231,,,,,,,,,,,,,,,,,,,,,,,,,,,,,,,,,,,,,main,k,k,1,0.948747800081037,685.0631347999442,None,None,0,,,,,,,,,,,,,,127,33,Female,2022-05-11_09h50.21.747,Parachute,2022.1.1,59.976057571007786,
negative,red,1,None,None,,,,,,,,,0,232,232,232,,,,,,,,,,,,,,,,,,,,,,,,,,,,,,,,,,,,,main,None,None,1,1.4931720000458881,687.0133623000002,None,None,1,,,,,,,,,,,,,,127,33,Female,2022-05-11_09h50.21.747,Parachute,2022.1.1,59.976057571007786,
positive,blue,2,k,None,,,,,,,,,0,233,233,233,,,,,,,,,,,,,,,,,,,,,,,,,,,,,,,,,,,,,main,None,None,1,1.4994741999544203,689.5104280000087,None,None,1,,,,,,,,,,,,,,127,33,Female,2022-05-11_09h50.21.747,Parachute,2022.1.1,59.976057571007786,
negative,yellow,1,k,None,,,,,,,,,0,234,234,234,,,,,,,,,,,,,,,,,,,,,,,,,,,,,,,,,,,,,main,None,k,0,0.5863552000373602,692.011792599922,None,None,1,,,,,,,,,,,,,,127,33,Female,2022-05-11_09h50.21.747,Parachute,2022.1.1,59.976057571007786,
negative,yellow,2,k,None,,,,,,,,,0,235,235,235,,,,,,,,,,,,,,,,,,,,,,,,,,,,,,,,,,,,,main,None,None,1,1.5014305000659078,694.6078685999382,None,None,1,,,,,,,,,,,,,,127,33,Female,2022-05-11_09h50.21.747,Parachute,2022.1.1,59.976057571007786,
positive,red,1,None,None,,,,,,,,,0,236,236,236,,,,,,,,,,,,,,,,,,,,,,,,,,,,,,,,,,,,,main,None,None,1,1.4989739999873564,697.1105944999726,None,None,1,,,,,,,,,,,,,,127,33,Female,2022-05-11_09h50.21.747,Parachute,2022.1.1,59.976057571007786,
negative,red,2,None,None,,,,,,,,,0,237,237,237,,,,,,,,,,,,,,,,,,,,,,,,,,,,,,,,,,,,,main,None,None,1,1.4983640999998897,699.6110094999894,None,None,1,,,,,,,,,,,,,,127,33,Female,2022-05-11_09h50.21.747,Parachute,2022.1.1,59.976057571007786,
negative,blue,1,None,k,,,,,,,,,0,238,238,238,,,,,,,,,,,,,,,,,,,,,,,,,,,,,,,,,,,,,main,k,k,1,0.6851339000277221,702.1105272999266,None,None,0,,,,,,,,,,,,,,127,33,Female,2022-05-11_09h50.21.747,Parachute,2022.1.1,59.976057571007786,
positive,blue,1,k,None,,,,,,,,,0,239,239,239,,,,,,,,,,,,,,,,,,,,,,,,,,,,,,,,,,,,,main,None,None,1,1.4955145999556407,703.8069363000104,None,None,1,,,,,,,,,,,,,,127,33,Female,2022-05-11_09h50.21.747,Parachute,2022.1.1,59.976057571007786,
,,,,,,,,,,,,,,,,,,,,,,,,,,,,,,,,,,,,,,,,,,,,,,,,,,,,,,,,,,,,,,,,,,,,,,,,,706.2916551999515,None,,,,,,,,
