distractor,target,set,ans1,ans2,rep_loop4.thisRepN,rep_loop4.thisTrialN,rep_loop4.thisN,rep_loop4.thisIndex,st2_prac_loop.thisRepN,st2_prac_loop.thisTrialN,st2_prac_loop.thisN,st2_prac_loop.thisIndex,st2_main_loop.thisRepN,st2_main_loop.thisTrialN,st2_main_loop.thisN,st2_main_loop.thisIndex,image_4.started,image_4.stopped,mouse_7.x,mouse_7.y,mouse_7.leftButton,mouse_7.midButton,mouse_7.rightButton,sound_2.started,sound_2.stopped,key_resp_3.keys,mouse_5.x,mouse_5.y,mouse_5.leftButton,mouse_5.midButton,mouse_5.rightButton,mouse_5.started,mouse_5.stopped,yes_text2.started,yes_text2.stopped,no_text2.started,no_text2.stopped,mouse_3.x,mouse_3.y,mouse_3.leftButton,mouse_3.midButton,mouse_3.rightButton,mouse_3.started,mouse_3.stopped,st_prac_back.started,st_prac_back.stopped,st_prac_text.started,st_prac_text.stopped,st_fix_back.started,st_fix_back.stopped,st_fix_2.started,st_fix_2.stopped,main_prac,st_ans,st_res,st_corr,st_rt,st_back.started,st_back.stopped,st2_resp.keys,st2_resp.corr,st_main_back.started,st_main_back.stopped,st_main_text.started,st_main_text.stopped,mouse_4.x,mouse_4.y,mouse_4.leftButton,mouse_4.midButton,mouse_4.rightButton,mouse_4.started,mouse_4.stopped,text_2.started,text_2.stopped,id*,age*,gender*,date,expName,psychopyVersion,frameRate,
,,,,,,,,,,,,,,,,,32.41239409998525,None,-0.24722221,-0.225,0,0,0,,,,,,,,,,,,,,,,,,,,,,,,,,,,,,,,,,,,,,,,,,,,,,,,,,,,128,22,Female,2022-05-11_11h18.25.123,Parachute,2022.1.1,59.95962320337596,
negative,yellow,1,k,None,,,,,0,0,0,0,,,,,,,,,,,,39.45502850005869,None,None,0.02037037,-0.34166667,0,0,0,1.0042990000220016,None,96.44128060003277,None,96.44128060003277,None,-0.08425926,-0.06851852,0,0,0,0.012530699954368174,None,102.06169560004491,None,102.06169560004491,None,104.07393810001668,None,104.07393810001668,None,prac,k,k,1,2.5814407999860123,106.08501639997121,None,None,0,,,,,,,,,,,,,,128,22,Female,2022-05-11_11h18.25.123,Parachute,2022.1.1,59.95962320337596,
positive,red,2,None,None,,,,,0,1,1,1,,,,,,,,,,,,,,,,,,,,,,,,,,,,,,,,,,,,,,,,,prac,None,None,1,1.50157369999215,110.68942980002612,None,None,1,,,,,,,,,,,,,,128,22,Female,2022-05-11_11h18.25.123,Parachute,2022.1.1,59.95962320337596,
negative,blue,2,None,k,,,,,0,2,2,2,,,,,,,,,,,,,,,,,,,,,,,,,,,,,,,,,,,,,,,,,prac,None,None,1,1.4977303000632674,113.19396629999392,None,None,1,,,,,,,,,,,,,,128,22,Female,2022-05-11_11h18.25.123,Parachute,2022.1.1,59.95962320337596,
positive,yellow,1,None,k,,,,,0,3,3,3,,,,,,,,,,,,,,,,,,,,,,,,,,,,,,,,,,,,,,,,,prac,None,None,1,1.4983924000989646,115.69260279997252,None,None,1,,,,,,,,,,,,,,128,22,Female,2022-05-11_11h18.25.123,Parachute,2022.1.1,59.95962320337596,
negative,blue,2,None,k,,,,,0,4,4,4,,,,,,,,,,,,,,,,,,,,,,,,,,,,,,,,,,,,,,,,,prac,None,None,1,1.4988125000381842,118.19164390000515,None,None,1,,,,,,,,,,,,,,128,22,Female,2022-05-11_11h18.25.123,Parachute,2022.1.1,59.95962320337596,
negative,blue,1,None,k,,,,,0,5,5,5,,,,,,,,,,,,,,,,,,,,,,,,,,,,,,,,,,,,,,,,,prac,None,None,1,1.4988190999720246,120.69259310001507,None,None,1,,,,,,,,,,,,,,128,22,Female,2022-05-11_11h18.25.123,Parachute,2022.1.1,59.95962320337596,
negative,yellow,2,k,None,,,,,0,6,6,6,,,,,,,,,,,,,,,,,,,,,,,,,,,,,,,,,,,,,,,,,prac,k,k,1,0.7783753999974579,123.19237359997351,None,None,0,,,,,,,,,,,,,,128,22,Female,2022-05-11_11h18.25.123,Parachute,2022.1.1,59.95962320337596,
negative,red,1,None,None,,,,,0,7,7,7,,,,,,,,,,,,,,,,,,,,,,,,,,,,,,,,,,,,,,,,,prac,None,None,1,1.5021009999327362,124.97311560006347,None,None,1,,,,,,,,,,,,,,128,22,Female,2022-05-11_11h18.25.123,Parachute,2022.1.1,59.95962320337596,
positive,yellow,2,None,k,,,,,0,8,8,8,,,,,,,,,,,,,,,,,,,,,,,,,,,,,,,,,,,,,,,,,prac,None,None,1,1.4986111000180244,127.47528090002015,None,None,1,,,,,,,,,,,,,,128,22,Female,2022-05-11_11h18.25.123,Parachute,2022.1.1,59.95962320337596,
negative,yellow,1,k,None,,,,,0,9,9,9,,,,,,,,,,,,,,,,,,,,,,,,,,,,,,,,,,,,,,,,,prac,k,k,1,1.0449271000688896,129.9749715999933,None,None,0,,,,,,,,,,,,,,128,22,Female,2022-05-11_11h18.25.123,Parachute,2022.1.1,59.95962320337596,
positive,yellow,2,None,k,,,,,0,10,10,10,,,,,,,,,,,,,,,,,,,,,,,,,,,,,,,,,,,,,,,,,prac,None,None,1,1.503182700020261,132.02364290005062,None,None,1,,,,,,,,,,,,,,128,22,Female,2022-05-11_11h18.25.123,Parachute,2022.1.1,59.95962320337596,
negative,yellow,2,k,None,,,,,0,11,11,11,,,,,,,,,,,,,,,,,,,,,,,,,,,,,,,,,,,,,,,,,prac,k,k,1,0.9367984998971224,134.5258773000678,None,None,0,,,,,,,,,,,,,,128,22,Female,2022-05-11_11h18.25.123,Parachute,2022.1.1,59.95962320337596,
negative,red,2,None,None,,,,,0,12,12,12,,,,,,,,,,,,,,,,,,,,,,,,,,,,,,,,,,,,,,,,,prac,None,None,1,1.4930209000594914,136.46213470003568,None,None,1,,,,,,,,,,,,,,128,22,Female,2022-05-11_11h18.25.123,Parachute,2022.1.1,59.95962320337596,
positive,red,1,None,None,,,,,0,13,13,13,,,,,,,,,,,,,,,,,,,,,,,,,,,,,,,,,,,,,,,,,prac,None,None,1,1.4987550999503583,138.95825769996736,None,None,1,,,,,,,,,,,,,,128,22,Female,2022-05-11_11h18.25.123,Parachute,2022.1.1,59.95962320337596,
positive,blue,2,k,None,,,,,0,14,14,14,,,,,,,,,,,,,,,,,,,,,,,,,,,,,,,,,,,,,,,,,prac,k,k,1,0.8036508000222966,141.45849550003186,None,None,0,,,,,,,,,,,,,,128,22,Female,2022-05-11_11h18.25.123,Parachute,2022.1.1,59.95962320337596,
positive,blue,1,k,None,,,,,0,15,15,15,,,,,,,,,,,,,,,,,,,,,,,,,,,,,,,,,,,,,,,,,prac,k,k,1,0.9659887000452727,143.2632261000108,None,None,0,,,,,,,,,,,,,,128,22,Female,2022-05-11_11h18.25.123,Parachute,2022.1.1,59.95962320337596,
negative,blue,1,None,k,,,,,0,16,16,16,,,,,,,,,,,,,,,,,,,,,,,,,,,,,,,,,,,,,,,,,prac,None,None,1,1.4937197999097407,145.22903869999573,None,None,1,,,,,,,,,,,,,,128,22,Female,2022-05-11_11h18.25.123,Parachute,2022.1.1,59.95962320337596,
positive,blue,2,k,None,,,,,0,17,17,17,,,,,,,,,,,,,,,,,,,,,,,,,,,,,,,,,,,,,,,,,prac,k,k,1,0.8449855999788269,147.72599569999147,None,None,0,,,,,,,,,,,,,,128,22,Female,2022-05-11_11h18.25.123,Parachute,2022.1.1,59.95962320337596,
positive,blue,1,k,None,,,,,0,18,18,18,,,,,,,,,,,,,,,,,,,,,,,,,,,,,,,,,,,,,,,,,prac,k,k,1,0.7413224000483751,149.5740069000749,None,None,0,,,,,,,,,,,,,,128,22,Female,2022-05-11_11h18.25.123,Parachute,2022.1.1,59.95962320337596,
positive,yellow,1,None,k,,,,,0,19,19,19,,,,,,,,,,,,,,,,,,,,,,,,,,,,,,,,,,,,,,,,,prac,None,None,1,1.4927832999965176,151.31267060001846,None,None,1,,,,,,,,,,,,,,128,22,Female,2022-05-11_11h18.25.123,Parachute,2022.1.1,59.95962320337596,
negative,yellow,1,k,None,,,,,1,0,20,0,,,,,,,,,,,,,,,,,,,,,,,,,,,,,,,,,,,,,,,,,prac,k,k,1,1.0692655999446288,153.80936870002188,None,None,0,,,,,,,,,,,,,,128,22,Female,2022-05-11_11h18.25.123,Parachute,2022.1.1,59.95962320337596,
positive,red,2,None,None,,,,,1,1,21,1,,,,,,,,,,,,,,,,,,,,,,,,,,,,,,,,,,,,,,,,,prac,None,None,1,1.494570399983786,155.88695569999982,None,None,1,,,,,,,,,,,,,,128,22,Female,2022-05-11_11h18.25.123,Parachute,2022.1.1,59.95962320337596,
negative,blue,2,None,k,,,,,1,2,22,2,,,,,,,,,,,,,,,,,,,,,,,,,,,,,,,,,,,,,,,,,prac,None,None,1,1.49838899995666,158.37667350005358,None,None,1,,,,,,,,,,,,,,128,22,Female,2022-05-11_11h18.25.123,Parachute,2022.1.1,59.95962320337596,
positive,yellow,1,None,k,,,,,1,3,23,3,,,,,,,,,,,,,,,,,,,,,,,,,,,,,,,,,,,,,,,,,prac,None,None,1,1.4976845999481156,160.8782724000048,None,None,1,,,,,,,,,,,,,,128,22,Female,2022-05-11_11h18.25.123,Parachute,2022.1.1,59.95962320337596,
negative,blue,2,None,k,,,,,1,4,24,4,,,,,,,,,,,,,,,,,,,,,,,,,,,,,,,,,,,,,,,,,prac,None,None,1,1.4977858000202104,163.37734320003074,None,None,1,,,,,,,,,,,,,,128,22,Female,2022-05-11_11h18.25.123,Parachute,2022.1.1,59.95962320337596,
negative,blue,1,None,k,,,,,1,5,25,5,,,,,,,,,,,,,,,,,,,,,,,,,,,,,,,,,,,,,,,,,prac,None,None,1,1.4976124999811873,165.877840799978,None,None,1,,,,,,,,,,,,,,128,22,Female,2022-05-11_11h18.25.123,Parachute,2022.1.1,59.95962320337596,
negative,yellow,2,k,None,,,,,1,6,26,6,,,,,,,,,,,,,,,,,,,,,,,,,,,,,,,,,,,,,,,,,prac,k,k,1,0.9363584999227896,168.37754660006613,None,None,0,,,,,,,,,,,,,,128,22,Female,2022-05-11_11h18.25.123,Parachute,2022.1.1,59.95962320337596,
negative,red,1,None,None,,,,,1,7,27,7,,,,,,,,,,,,,,,,,,,,,,,,,,,,,,,,,,,,,,,,,prac,None,None,1,1.4935960000148043,170.312523300061,None,None,1,,,,,,,,,,,,,,128,22,Female,2022-05-11_11h18.25.123,Parachute,2022.1.1,59.95962320337596,
positive,yellow,2,None,k,,,,,1,8,28,8,,,,,,,,,,,,,,,,,,,,,,,,,,,,,,,,,,,,,,,,,prac,None,None,1,1.498936100048013,172.80948809999973,None,None,1,,,,,,,,,,,,,,128,22,Female,2022-05-11_11h18.25.123,Parachute,2022.1.1,59.95962320337596,
negative,yellow,1,k,None,,,,,1,9,29,9,,,,,,,,,,,,,,,,,,,,,,,,,,,,,,,,,,,,,,,,,prac,k,k,1,0.7368254999164492,175.31001320003998,None,None,0,,,,,,,,,,,,,,128,22,Female,2022-05-11_11h18.25.123,Parachute,2022.1.1,59.95962320337596,
positive,yellow,2,None,k,,,,,1,10,30,10,,,,,,,,,,,,,,,,,,,,,,,,,,,,,,,,,,,,,,,,,prac,None,None,1,1.4936042999615893,177.0462838000385,None,None,1,,,,,,,,,,,,,,128,22,Female,2022-05-11_11h18.25.123,Parachute,2022.1.1,59.95962320337596,
negative,yellow,2,k,None,,,,,1,11,31,11,,,,,,,,,,,,,,,,,,,,,,,,,,,,,,,,,,,,,,,,,prac,k,k,1,0.8038037999067456,179.54380119999405,None,None,0,,,,,,,,,,,,,,128,22,Female,2022-05-11_11h18.25.123,Parachute,2022.1.1,59.95962320337596,
negative,red,2,None,None,,,,,1,12,32,12,,,,,,,,,,,,,,,,,,,,,,,,,,,,,,,,,,,,,,,,,prac,None,None,1,1.4931771999690682,181.345958000049,None,None,1,,,,,,,,,,,,,,128,22,Female,2022-05-11_11h18.25.123,Parachute,2022.1.1,59.95962320337596,
positive,red,1,None,None,,,,,1,13,33,13,,,,,,,,,,,,,,,,,,,,,,,,,,,,,,,,,,,,,,,,,prac,None,None,1,1.4996020999969915,183.84338099998422,None,None,1,,,,,,,,,,,,,,128,22,Female,2022-05-11_11h18.25.123,Parachute,2022.1.1,59.95962320337596,
positive,blue,2,k,None,,,,,1,14,34,14,,,,,,,,,,,,,,,,,,,,,,,,,,,,,,,,,,,,,,,,,prac,k,k,1,0.636439900030382,186.34423040004913,None,None,0,,,,,,,,,,,,,,128,22,Female,2022-05-11_11h18.25.123,Parachute,2022.1.1,59.95962320337596,
positive,blue,1,k,None,,,,,1,15,35,15,,,,,,,,,,,,,,,,,,,,,,,,,,,,,,,,,,,,,,,,,prac,k,k,1,0.7838588999584317,187.9793943000259,None,None,0,,,,,,,,,,,,,,128,22,Female,2022-05-11_11h18.25.123,Parachute,2022.1.1,59.95962320337596,
negative,blue,1,None,k,,,,,1,16,36,16,,,,,,,,,,,,,,,,,,,,,,,,,,,,,,,,,,,,,,,,,prac,None,None,1,1.5088402999099344,189.76490149996243,None,None,1,,,,,,,,,,,,,,128,22,Female,2022-05-11_11h18.25.123,Parachute,2022.1.1,59.95962320337596,
positive,blue,2,k,None,,,,,1,17,37,17,,,,,,,,,,,,,,,,,,,,,,,,,,,,,,,,,,,,,,,,,prac,k,k,1,0.708509299904108,192.27722819999326,None,None,0,,,,,,,,,,,,,,128,22,Female,2022-05-11_11h18.25.123,Parachute,2022.1.1,59.95962320337596,
positive,blue,1,k,None,,,,,1,18,38,18,,,,,,,,,,,,,,,,,,,,,,,,,,,,,,,,,,,,,,,,,prac,k,k,1,0.7085117999231443,193.98986009997316,None,None,0,,,,,,,,,,,,,,128,22,Female,2022-05-11_11h18.25.123,Parachute,2022.1.1,59.95962320337596,
positive,yellow,1,None,k,,,,,1,19,39,19,,,,,,,,,,,,,,,,,,,,,,,,,,,,,,,,,,,,,,,,,prac,None,None,1,1.4939326000167057,195.6965849000262,None,None,1,,,,,,,,,,,,,,128,22,Female,2022-05-11_11h18.25.123,Parachute,2022.1.1,59.95962320337596,
,,,,,,,,,,,,,,,,,,,,,,,,,,,,,,,,,,,,,,,,,,,,,,,,,,,,,,,,,,,,,,198.21307980001438,None,198.21307980001438,None,0.02962963,-0.08425926,0,0,0,0.01285320008173585,None,,,128,22,Female,2022-05-11_11h18.25.123,Parachute,2022.1.1,59.95962320337596,
negative,yellow,2,k,None,,,,,,,,,0,0,0,0,,,,,,,,,,,,,,,,,,,,,,,,,,,,,,,,,212.05926080001518,None,212.05926080001518,None,main,k,k,1,1.0226062000729144,214.0911669000052,None,None,0,,,,,,,,,,,,,,128,22,Female,2022-05-11_11h18.25.123,Parachute,2022.1.1,59.95962320337596,
positive,red,1,None,None,,,,,,,,,0,1,1,1,,,,,,,,,,,,,,,,,,,,,,,,,,,,,,,,,,,,,main,None,None,1,1.4925236999988556,216.1172130999621,None,None,1,,,,,,,,,,,,,,128,22,Female,2022-05-11_11h18.25.123,Parachute,2022.1.1,59.95962320337596,
positive,blue,2,k,None,,,,,,,,,0,2,2,2,,,,,,,,,,,,,,,,,,,,,,,,,,,,,,,,,,,,,main,k,k,1,0.7546453999821097,218.61046850006096,None,None,0,,,,,,,,,,,,,,128,22,Female,2022-05-11_11h18.25.123,Parachute,2022.1.1,59.95962320337596,
positive,blue,1,k,None,,,,,,,,,0,3,3,3,,,,,,,,,,,,,,,,,,,,,,,,,,,,,,,,,,,,,main,k,k,1,0.8819191000657156,220.36383729998488,None,None,0,,,,,,,,,,,,,,128,22,Female,2022-05-11_11h18.25.123,Parachute,2022.1.1,59.95962320337596,
negative,yellow,2,k,None,,,,,,,,,0,4,4,4,,,,,,,,,,,,,,,,,,,,,,,,,,,,,,,,,,,,,main,k,k,1,0.8149872999638319,222.2478240999626,None,None,0,,,,,,,,,,,,,,128,22,Female,2022-05-11_11h18.25.123,Parachute,2022.1.1,59.95962320337596,
positive,yellow,2,None,k,,,,,,,,,0,5,5,5,,,,,,,,,,,,,,,,,,,,,,,,,,,,,,,,,,,,,main,None,None,1,1.4936272000195459,224.06388170004357,None,None,1,,,,,,,,,,,,,,128,22,Female,2022-05-11_11h18.25.123,Parachute,2022.1.1,59.95962320337596,
negative,blue,2,None,k,,,,,,,,,0,6,6,6,,,,,,,,,,,,,,,,,,,,,,,,,,,,,,,,,,,,,main,None,None,1,1.498864300083369,226.56099749996793,None,None,1,,,,,,,,,,,,,,128,22,Female,2022-05-11_11h18.25.123,Parachute,2022.1.1,59.95962320337596,
positive,red,2,None,None,,,,,,,,,0,7,7,7,,,,,,,,,,,,,,,,,,,,,,,,,,,,,,,,,,,,,main,None,None,1,1.4989497000351548,229.06109219999053,None,None,1,,,,,,,,,,,,,,128,22,Female,2022-05-11_11h18.25.123,Parachute,2022.1.1,59.95962320337596,
positive,yellow,1,None,k,,,,,,,,,0,8,8,8,,,,,,,,,,,,,,,,,,,,,,,,,,,,,,,,,,,,,main,None,None,1,1.498846400063485,231.56094160000794,None,None,1,,,,,,,,,,,,,,128,22,Female,2022-05-11_11h18.25.123,Parachute,2022.1.1,59.95962320337596,
negative,red,1,None,None,,,,,,,,,0,9,9,9,,,,,,,,,,,,,,,,,,,,,,,,,,,,,,,,,,,,,main,None,None,1,1.498760399990715,234.06149310001638,None,None,1,,,,,,,,,,,,,,128,22,Female,2022-05-11_11h18.25.123,Parachute,2022.1.1,59.95962320337596,
positive,yellow,1,None,k,,,,,,,,,0,10,10,10,,,,,,,,,,,,,,,,,,,,,,,,,,,,,,,,,,,,,main,None,None,1,1.498609200003557,236.56172790005803,None,None,1,,,,,,,,,,,,,,128,22,Female,2022-05-11_11h18.25.123,Parachute,2022.1.1,59.95962320337596,
negative,yellow,1,k,None,,,,,,,,,0,11,11,11,,,,,,,,,,,,,,,,,,,,,,,,,,,,,,,,,,,,,main,k,k,1,0.8377815999556333,239.06110559997614,None,None,0,,,,,,,,,,,,,,128,22,Female,2022-05-11_11h18.25.123,Parachute,2022.1.1,59.95962320337596,
negative,yellow,1,k,None,,,,,,,,,0,12,12,12,,,,,,,,,,,,,,,,,,,,,,,,,,,,,,,,,,,,,main,k,k,1,0.763644399936311,240.8983903999906,None,None,0,,,,,,,,,,,,,,128,22,Female,2022-05-11_11h18.25.123,Parachute,2022.1.1,59.95962320337596,
negative,red,2,None,None,,,,,,,,,0,13,13,13,,,,,,,,,,,,,,,,,,,,,,,,,,,,,,,,,,,,,main,None,None,1,1.4943395999725908,242.67467410000972,None,None,1,,,,,,,,,,,,,,128,22,Female,2022-05-11_11h18.25.123,Parachute,2022.1.1,59.95962320337596,
positive,yellow,2,None,k,,,,,,,,,0,14,14,14,,,,,,,,,,,,,,,,,,,,,,,,,,,,,,,,,,,,,main,None,None,1,1.4994049000088125,245.1611982000759,None,None,1,,,,,,,,,,,,,,128,22,Female,2022-05-11_11h18.25.123,Parachute,2022.1.1,59.95962320337596,
positive,blue,1,k,None,,,,,,,,,0,15,15,15,,,,,,,,,,,,,,,,,,,,,,,,,,,,,,,,,,,,,main,k,k,1,0.7540066000074148,247.6617954999674,None,None,0,,,,,,,,,,,,,,128,22,Female,2022-05-11_11h18.25.123,Parachute,2022.1.1,59.95962320337596,
negative,blue,1,None,k,,,,,,,,,0,16,16,16,,,,,,,,,,,,,,,,,,,,,,,,,,,,,,,,,,,,,main,None,None,1,1.493628800031729,249.41449540003669,None,None,1,,,,,,,,,,,,,,128,22,Female,2022-05-11_11h18.25.123,Parachute,2022.1.1,59.95962320337596,
positive,blue,2,k,None,,,,,,,,,0,17,17,17,,,,,,,,,,,,,,,,,,,,,,,,,,,,,,,,,,,,,main,k,k,1,0.7873850000323728,251.911838500062,None,None,0,,,,,,,,,,,,,,128,22,Female,2022-05-11_11h18.25.123,Parachute,2022.1.1,59.95962320337596,
negative,blue,2,None,k,,,,,,,,,0,18,18,18,,,,,,,,,,,,,,,,,,,,,,,,,,,,,,,,,,,,,main,None,None,1,1.4929368000011891,253.69857070001308,None,None,1,,,,,,,,,,,,,,128,22,Female,2022-05-11_11h18.25.123,Parachute,2022.1.1,59.95962320337596,
negative,blue,1,None,k,,,,,,,,,0,19,19,19,,,,,,,,,,,,,,,,,,,,,,,,,,,,,,,,,,,,,main,None,None,1,1.4989452000008896,256.1954943999881,None,None,1,,,,,,,,,,,,,,128,22,Female,2022-05-11_11h18.25.123,Parachute,2022.1.1,59.95962320337596,
negative,blue,1,None,k,,,,,,,,,0,20,20,20,,,,,,,,,,,,,,,,,,,,,,,,,,,,,,,,,,,,,main,None,None,1,1.4983559000538662,258.69582899997476,None,None,1,,,,,,,,,,,,,,128,22,Female,2022-05-11_11h18.25.123,Parachute,2022.1.1,59.95962320337596,
negative,blue,2,None,k,,,,,,,,,0,21,21,21,,,,,,,,,,,,,,,,,,,,,,,,,,,,,,,,,,,,,main,None,None,1,1.4981557000428438,261.1956191000063,None,None,1,,,,,,,,,,,,,,128,22,Female,2022-05-11_11h18.25.123,Parachute,2022.1.1,59.95962320337596,
negative,red,1,None,None,,,,,,,,,0,22,22,22,,,,,,,,,,,,,,,,,,,,,,,,,,,,,,,,,,,,,main,None,None,1,1.4993581000017002,263.6955645000562,None,None,1,,,,,,,,,,,,,,128,22,Female,2022-05-11_11h18.25.123,Parachute,2022.1.1,59.95962320337596,
positive,red,2,None,None,,,,,,,,,0,23,23,23,,,,,,,,,,,,,,,,,,,,,,,,,,,,,,,,,,,,,main,None,None,1,1.4981034999946132,266.1960005000001,None,None,1,,,,,,,,,,,,,,128,22,Female,2022-05-11_11h18.25.123,Parachute,2022.1.1,59.95962320337596,
negative,red,2,None,None,,,,,,,,,0,24,24,24,,,,,,,,,,,,,,,,,,,,,,,,,,,,,,,,,,,,,main,None,None,1,1.4988653999753296,268.6958338000113,None,None,1,,,,,,,,,,,,,,128,22,Female,2022-05-11_11h18.25.123,Parachute,2022.1.1,59.95962320337596,
positive,blue,2,k,None,,,,,,,,,0,25,25,25,,,,,,,,,,,,,,,,,,,,,,,,,,,,,,,,,,,,,main,k,k,1,0.8925378000130877,271.196049900027,None,None,0,,,,,,,,,,,,,,128,22,Female,2022-05-11_11h18.25.123,Parachute,2022.1.1,59.95962320337596,
negative,yellow,1,k,None,,,,,,,,,0,26,26,26,,,,,,,,,,,,,,,,,,,,,,,,,,,,,,,,,,,,,main,k,k,1,0.9109177999198437,273.08726569998544,None,None,0,,,,,,,,,,,,,,128,22,Female,2022-05-11_11h18.25.123,Parachute,2022.1.1,59.95962320337596,
positive,blue,2,k,None,,,,,,,,,0,27,27,27,,,,,,,,,,,,,,,,,,,,,,,,,,,,,,,,,,,,,main,k,k,1,0.8153572999872267,275.00063250004314,None,None,0,,,,,,,,,,,,,,128,22,Female,2022-05-11_11h18.25.123,Parachute,2022.1.1,59.95962320337596,
negative,blue,2,None,k,,,,,,,,,0,28,28,28,,,,,,,,,,,,,,,,,,,,,,,,,,,,,,,,,,,,,main,None,None,1,1.4922082999255508,276.8233848999953,None,None,1,,,,,,,,,,,,,,128,22,Female,2022-05-11_11h18.25.123,Parachute,2022.1.1,59.95962320337596,
positive,red,1,None,None,,,,,,,,,0,29,29,29,,,,,,,,,,,,,,,,,,,,,,,,,,,,,,,,,,,,,main,None,None,1,1.4987238000612706,279.31230660004076,None,None,1,,,,,,,,,,,,,,128,22,Female,2022-05-11_11h18.25.123,Parachute,2022.1.1,59.95962320337596,
positive,blue,1,k,None,,,,,,,,,0,30,30,30,,,,,,,,,,,,,,,,,,,,,,,,,,,,,,,,,,,,,main,k,k,1,1.104778700042516,281.812437399989,None,None,0,,,,,,,,,,,,,,128,22,Female,2022-05-11_11h18.25.123,Parachute,2022.1.1,59.95962320337596,
positive,yellow,1,None,k,,,,,,,,,0,31,31,31,,,,,,,,,,,,,,,,,,,,,,,,,,,,,,,,,,,,,main,None,None,1,1.4924022000050172,283.91600520000793,None,None,1,,,,,,,,,,,,,,128,22,Female,2022-05-11_11h18.25.123,Parachute,2022.1.1,59.95962320337596,
negative,yellow,2,k,None,,,,,,,,,0,32,32,32,,,,,,,,,,,,,,,,,,,,,,,,,,,,,,,,,,,,,main,k,k,1,0.820631799986586,286.4123060000129,None,None,0,,,,,,,,,,,,,,128,22,Female,2022-05-11_11h18.25.123,Parachute,2022.1.1,59.95962320337596,
negative,blue,1,None,k,,,,,,,,,0,33,33,33,,,,,,,,,,,,,,,,,,,,,,,,,,,,,,,,,,,,,main,None,None,1,1.493550300016068,288.23179640003946,None,None,1,,,,,,,,,,,,,,128,22,Female,2022-05-11_11h18.25.123,Parachute,2022.1.1,59.95962320337596,
positive,blue,1,k,None,,,,,,,,,0,34,34,34,,,,,,,,,,,,,,,,,,,,,,,,,,,,,,,,,,,,,main,k,k,1,0.7046403000131249,290.7285045000026,None,None,0,,,,,,,,,,,,,,128,22,Female,2022-05-11_11h18.25.123,Parachute,2022.1.1,59.95962320337596,
negative,yellow,1,k,None,,,,,,,,,0,35,35,35,,,,,,,,,,,,,,,,,,,,,,,,,,,,,,,,,,,,,main,k,k,1,0.9982137000188231,292.4340779000195,None,None,0,,,,,,,,,,,,,,128,22,Female,2022-05-11_11h18.25.123,Parachute,2022.1.1,59.95962320337596,
positive,yellow,2,None,k,,,,,,,,,0,36,36,36,,,,,,,,,,,,,,,,,,,,,,,,,,,,,,,,,,,,,main,None,None,1,1.4933156000915915,294.4318432,None,None,1,,,,,,,,,,,,,,128,22,Female,2022-05-11_11h18.25.123,Parachute,2022.1.1,59.95962320337596,
positive,yellow,2,None,k,,,,,,,,,0,37,37,37,,,,,,,,,,,,,,,,,,,,,,,,,,,,,,,,,,,,,main,None,None,1,1.498954699956812,296.9293114000466,None,None,1,,,,,,,,,,,,,,128,22,Female,2022-05-11_11h18.25.123,Parachute,2022.1.1,59.95962320337596,
negative,yellow,2,k,None,,,,,,,,,0,38,38,38,,,,,,,,,,,,,,,,,,,,,,,,,,,,,,,,,,,,,main,k,k,1,1.0037654999177903,299.4290282999864,None,None,0,,,,,,,,,,,,,,128,22,Female,2022-05-11_11h18.25.123,Parachute,2022.1.1,59.95962320337596,
positive,yellow,1,None,k,,,,,,,,,0,39,39,39,,,,,,,,,,,,,,,,,,,,,,,,,,,,,,,,,,,,,main,None,None,1,1.4930786999175325,301.43232300004456,None,None,1,,,,,,,,,,,,,,128,22,Female,2022-05-11_11h18.25.123,Parachute,2022.1.1,59.95962320337596,
negative,yellow,2,k,None,,,,,,,,,0,40,40,40,,,,,,,,,,,,,,,,,,,,,,,,,,,,,,,,,,,,,main,k,k,1,0.7791937999427319,303.9284618999809,None,None,0,,,,,,,,,,,,,,128,22,Female,2022-05-11_11h18.25.123,Parachute,2022.1.1,59.95962320337596,
positive,blue,2,k,None,,,,,,,,,0,41,41,41,,,,,,,,,,,,,,,,,,,,,,,,,,,,,,,,,,,,,main,k,k,1,0.9572878000326455,305.7103908000281,None,None,0,,,,,,,,,,,,,,128,22,Female,2022-05-11_11h18.25.123,Parachute,2022.1.1,59.95962320337596,
positive,blue,2,k,None,,,,,,,,,0,42,42,42,,,,,,,,,,,,,,,,,,,,,,,,,,,,,,,,,,,,,main,k,k,1,0.632175900042057,307.66573560005054,None,None,0,,,,,,,,,,,,,,128,22,Female,2022-05-11_11h18.25.123,Parachute,2022.1.1,59.95962320337596,
negative,blue,2,None,k,,,,,,,,,0,43,43,43,,,,,,,,,,,,,,,,,,,,,,,,,,,,,,,,,,,,,main,None,None,1,1.4937104999553412,309.29919589997735,None,None,1,,,,,,,,,,,,,,128,22,Female,2022-05-11_11h18.25.123,Parachute,2022.1.1,59.95962320337596,
negative,red,1,None,None,,,,,,,,,0,44,44,44,,,,,,,,,,,,,,,,,,,,,,,,,,,,,,,,,,,,,main,None,None,1,1.4987660000333562,311.79604849999305,None,None,1,,,,,,,,,,,,,,128,22,Female,2022-05-11_11h18.25.123,Parachute,2022.1.1,59.95962320337596,
negative,yellow,1,k,None,,,,,,,,,0,45,45,45,,,,,,,,,,,,,,,,,,,,,,,,,,,,,,,,,,,,,main,k,k,1,0.9363203000975773,314.2960510000121,None,None,0,,,,,,,,,,,,,,128,22,Female,2022-05-11_11h18.25.123,Parachute,2022.1.1,59.95962320337596,
negative,yellow,1,k,None,,,,,,,,,0,46,46,46,,,,,,,,,,,,,,,,,,,,,,,,,,,,,,,,,,,,,main,k,k,1,0.6996410000137985,316.23240310000256,None,None,0,,,,,,,,,,,,,,128,22,Female,2022-05-11_11h18.25.123,Parachute,2022.1.1,59.95962320337596,
positive,red,1,None,None,,,,,,,,,0,47,47,47,,,,,,,,,,,,,,,,,,,,,,,,,,,,,,,,,,,,,main,None,None,1,1.4930161000229418,317.9327251999639,None,None,1,,,,,,,,,,,,,,128,22,Female,2022-05-11_11h18.25.123,Parachute,2022.1.1,59.95962320337596,
positive,yellow,1,None,k,,,,,,,,,0,48,48,48,,,,,,,,,,,,,,,,,,,,,,,,,,,,,,,,,,,,,main,None,k,0,0.7870229999534786,320.4287111000158,None,None,1,,,,,,,,,,,,,,128,22,Female,2022-05-11_11h18.25.123,Parachute,2022.1.1,59.95962320337596,
negative,blue,1,None,k,,,,,,,,,0,49,49,49,,,,,,,,,,,,,,,,,,,,,,,,,,,,,,,,,,,,,main,None,None,1,1.5025289999321103,323.2278328000102,None,None,1,,,,,,,,,,,,,,128,22,Female,2022-05-11_11h18.25.123,Parachute,2022.1.1,59.95962320337596,
positive,yellow,2,None,k,,,,,,,,,0,50,50,50,,,,,,,,,,,,,,,,,,,,,,,,,,,,,,,,,,,,,main,None,None,1,1.4999640999594703,325.73156149999704,None,None,1,,,,,,,,,,,,,,128,22,Female,2022-05-11_11h18.25.123,Parachute,2022.1.1,59.95962320337596,
negative,blue,1,None,k,,,,,,,,,0,51,51,51,,,,,,,,,,,,,,,,,,,,,,,,,,,,,,,,,,,,,main,None,None,1,1.4972178000025451,328.2323697999818,None,None,1,,,,,,,,,,,,,,128,22,Female,2022-05-11_11h18.25.123,Parachute,2022.1.1,59.95962320337596,
positive,red,2,None,None,,,,,,,,,0,52,52,52,,,,,,,,,,,,,,,,,,,,,,,,,,,,,,,,,,,,,main,None,None,1,1.4986395000014454,330.7311872000573,None,None,1,,,,,,,,,,,,,,128,22,Female,2022-05-11_11h18.25.123,Parachute,2022.1.1,59.95962320337596,
positive,yellow,2,None,k,,,,,,,,,0,53,53,53,,,,,,,,,,,,,,,,,,,,,,,,,,,,,,,,,,,,,main,None,None,1,1.4991840000730008,333.23079050006345,None,None,1,,,,,,,,,,,,,,128,22,Female,2022-05-11_11h18.25.123,Parachute,2022.1.1,59.95962320337596,
negative,red,2,None,None,,,,,,,,,0,54,54,54,,,,,,,,,,,,,,,,,,,,,,,,,,,,,,,,,,,,,main,None,None,1,1.4992134999483824,335.731076200027,None,None,1,,,,,,,,,,,,,,128,22,Female,2022-05-11_11h18.25.123,Parachute,2022.1.1,59.95962320337596,
positive,yellow,1,None,k,,,,,,,,,0,55,55,55,,,,,,,,,,,,,,,,,,,,,,,,,,,,,,,,,,,,,main,None,None,1,1.4985697000520304,338.23271670006216,None,None,1,,,,,,,,,,,,,,128,22,Female,2022-05-11_11h18.25.123,Parachute,2022.1.1,59.95962320337596,
negative,blue,2,None,k,,,,,,,,,0,56,56,56,,,,,,,,,,,,,,,,,,,,,,,,,,,,,,,,,,,,,main,None,None,1,1.4980706999776885,340.73300470004324,None,None,1,,,,,,,,,,,,,,128,22,Female,2022-05-11_11h18.25.123,Parachute,2022.1.1,59.95962320337596,
positive,blue,1,k,None,,,,,,,,,0,57,57,57,,,,,,,,,,,,,,,,,,,,,,,,,,,,,,,,,,,,,main,k,k,1,0.7201021000510082,343.23174489999656,None,None,0,,,,,,,,,,,,,,128,22,Female,2022-05-11_11h18.25.123,Parachute,2022.1.1,59.95962320337596,
positive,blue,1,k,None,,,,,,,,,0,58,58,58,,,,,,,,,,,,,,,,,,,,,,,,,,,,,,,,,,,,,main,k,k,1,0.8157412000000477,344.949888400035,None,None,0,,,,,,,,,,,,,,128,22,Female,2022-05-11_11h18.25.123,Parachute,2022.1.1,59.95962320337596,
negative,yellow,2,k,None,,,,,,,,,0,59,59,59,,,,,,,,,,,,,,,,,,,,,,,,,,,,,,,,,,,,,main,k,k,1,0.8645709999836981,346.7673671999946,None,None,0,,,,,,,,,,,,,,128,22,Female,2022-05-11_11h18.25.123,Parachute,2022.1.1,59.95962320337596,
positive,red,2,None,None,,,,,,,,,0,60,60,60,,,,,,,,,,,,,,,,,,,,,,,,,,,,,,,,,,,,,main,None,None,1,1.4940783000783995,348.6334369999822,None,None,1,,,,,,,,,,,,,,128,22,Female,2022-05-11_11h18.25.123,Parachute,2022.1.1,59.95962320337596,
negative,yellow,1,k,None,,,,,,,,,0,61,61,61,,,,,,,,,,,,,,,,,,,,,,,,,,,,,,,,,,,,,main,k,k,1,0.8790309999603778,351.1304058000678,None,None,0,,,,,,,,,,,,,,128,22,Female,2022-05-11_11h18.25.123,Parachute,2022.1.1,59.95962320337596,
negative,red,1,None,None,,,,,,,,,0,62,62,62,,,,,,,,,,,,,,,,,,,,,,,,,,,,,,,,,,,,,main,None,None,1,1.5018489999929443,353.01132409996353,None,None,1,,,,,,,,,,,,,,128,22,Female,2022-05-11_11h18.25.123,Parachute,2022.1.1,59.95962320337596,
negative,blue,1,None,k,,,,,,,,,0,63,63,63,,,,,,,,,,,,,,,,,,,,,,,,,,,,,,,,,,,,,main,None,None,1,1.4990332999732345,355.51367430004757,None,None,1,,,,,,,,,,,,,,128,22,Female,2022-05-11_11h18.25.123,Parachute,2022.1.1,59.95962320337596,
positive,blue,2,k,None,,,,,,,,,0,64,64,64,,,,,,,,,,,,,,,,,,,,,,,,,,,,,,,,,,,,,main,k,k,1,0.7617842999752611,358.0147285000421,None,None,0,,,,,,,,,,,,,,128,22,Female,2022-05-11_11h18.25.123,Parachute,2022.1.1,59.95962320337596,
negative,yellow,2,k,None,,,,,,,,,0,65,65,65,,,,,,,,,,,,,,,,,,,,,,,,,,,,,,,,,,,,,main,k,k,1,0.9569853999419138,359.77824190002866,None,None,0,,,,,,,,,,,,,,128,22,Female,2022-05-11_11h18.25.123,Parachute,2022.1.1,59.95962320337596,
positive,yellow,2,None,k,,,,,,,,,0,66,66,66,,,,,,,,,,,,,,,,,,,,,,,,,,,,,,,,,,,,,main,None,None,1,1.4935104000614956,361.73363050003536,None,None,1,,,,,,,,,,,,,,128,22,Female,2022-05-11_11h18.25.123,Parachute,2022.1.1,59.95962320337596,
positive,yellow,2,None,k,,,,,,,,,0,67,67,67,,,,,,,,,,,,,,,,,,,,,,,,,,,,,,,,,,,,,main,None,None,1,1.4988156999461353,364.2308498000493,None,None,1,,,,,,,,,,,,,,128,22,Female,2022-05-11_11h18.25.123,Parachute,2022.1.1,59.95962320337596,
positive,red,1,None,None,,,,,,,,,0,68,68,68,,,,,,,,,,,,,,,,,,,,,,,,,,,,,,,,,,,,,main,None,None,1,1.4999368999851868,366.731196800014,None,None,1,,,,,,,,,,,,,,128,22,Female,2022-05-11_11h18.25.123,Parachute,2022.1.1,59.95962320337596,
positive,yellow,1,None,k,,,,,,,,,0,69,69,69,,,,,,,,,,,,,,,,,,,,,,,,,,,,,,,,,,,,,main,None,None,1,1.4971273998962715,369.23235810000915,None,None,1,,,,,,,,,,,,,,128,22,Female,2022-05-11_11h18.25.123,Parachute,2022.1.1,59.95962320337596,
negative,yellow,2,k,None,,,,,,,,,0,70,70,70,,,,,,,,,,,,,,,,,,,,,,,,,,,,,,,,,,,,,main,k,k,1,0.7879168000072241,371.7306150000077,None,None,0,,,,,,,,,,,,,,128,22,Female,2022-05-11_11h18.25.123,Parachute,2022.1.1,59.95962320337596,
positive,yellow,1,None,k,,,,,,,,,0,71,71,71,,,,,,,,,,,,,,,,,,,,,,,,,,,,,,,,,,,,,main,None,None,1,1.4930207999423146,373.516972900019,None,None,1,,,,,,,,,,,,,,128,22,Female,2022-05-11_11h18.25.123,Parachute,2022.1.1,59.95962320337596,
negative,blue,1,None,k,,,,,,,,,0,72,72,72,,,,,,,,,,,,,,,,,,,,,,,,,,,,,,,,,,,,,main,None,None,1,1.4986959000816569,376.01426009996794,None,None,1,,,,,,,,,,,,,,128,22,Female,2022-05-11_11h18.25.123,Parachute,2022.1.1,59.95962320337596,
negative,red,2,None,None,,,,,,,,,0,73,73,73,,,,,,,,,,,,,,,,,,,,,,,,,,,,,,,,,,,,,main,None,None,1,1.4985190000152215,378.5143953000661,None,None,1,,,,,,,,,,,,,,128,22,Female,2022-05-11_11h18.25.123,Parachute,2022.1.1,59.95962320337596,
positive,blue,2,k,None,,,,,,,,,0,74,74,74,,,,,,,,,,,,,,,,,,,,,,,,,,,,,,,,,,,,,main,k,k,1,1.1866035999264568,381.01404999999795,None,None,0,,,,,,,,,,,,,,128,22,Female,2022-05-11_11h18.25.123,Parachute,2022.1.1,59.95962320337596,
negative,blue,2,None,k,,,,,,,,,0,75,75,75,,,,,,,,,,,,,,,,,,,,,,,,,,,,,,,,,,,,,main,None,None,1,1.495166699984111,383.2007218999788,None,None,1,,,,,,,,,,,,,,128,22,Female,2022-05-11_11h18.25.123,Parachute,2022.1.1,59.95962320337596,
negative,blue,2,None,k,,,,,,,,,0,76,76,76,,,,,,,,,,,,,,,,,,,,,,,,,,,,,,,,,,,,,main,None,None,1,1.4984095999971032,385.6983244000003,None,None,1,,,,,,,,,,,,,,128,22,Female,2022-05-11_11h18.25.123,Parachute,2022.1.1,59.95962320337596,
negative,yellow,1,k,None,,,,,,,,,0,77,77,77,,,,,,,,,,,,,,,,,,,,,,,,,,,,,,,,,,,,,main,k,k,1,0.9190742000937462,388.1982740999665,None,None,0,,,,,,,,,,,,,,128,22,Female,2022-05-11_11h18.25.123,Parachute,2022.1.1,59.95962320337596,
positive,blue,1,k,None,,,,,,,,,0,78,78,78,,,,,,,,,,,,,,,,,,,,,,,,,,,,,,,,,,,,,main,k,k,1,0.9170302000129595,390.1259403000586,None,None,0,,,,,,,,,,,,,,128,22,Female,2022-05-11_11h18.25.123,Parachute,2022.1.1,59.95962320337596,
positive,blue,1,k,None,,,,,,,,,0,79,79,79,,,,,,,,,,,,,,,,,,,,,,,,,,,,,,,,,,,,,main,k,k,1,0.7671013999497518,392.0345639999723,None,None,0,,,,,,,,,,,,,,128,22,Female,2022-05-11_11h18.25.123,Parachute,2022.1.1,59.95962320337596,
positive,red,2,None,None,,,,,,,,,0,80,80,80,,,,,,,,,,,,,,,,,,,,,,,,,,,,,,,,,,,,,main,None,None,1,1.5074798999121413,393.80365610006265,None,None,1,,,,,,,,,,,,,,128,22,Female,2022-05-11_11h18.25.123,Parachute,2022.1.1,59.95962320337596,
positive,yellow,2,None,k,,,,,,,,,0,81,81,81,,,,,,,,,,,,,,,,,,,,,,,,,,,,,,,,,,,,,main,None,None,1,1.4984829999739304,396.3147135999752,None,None,1,,,,,,,,,,,,,,128,22,Female,2022-05-11_11h18.25.123,Parachute,2022.1.1,59.95962320337596,
positive,blue,1,k,None,,,,,,,,,0,82,82,82,,,,,,,,,,,,,,,,,,,,,,,,,,,,,,,,,,,,,main,k,k,1,0.7873284999513999,398.81431789998896,None,None,0,,,,,,,,,,,,,,128,22,Female,2022-05-11_11h18.25.123,Parachute,2022.1.1,59.95962320337596,
negative,yellow,2,k,None,,,,,,,,,0,83,83,83,,,,,,,,,,,,,,,,,,,,,,,,,,,,,,,,,,,,,main,k,k,1,0.8484615000197664,400.60098230000585,None,None,0,,,,,,,,,,,,,,128,22,Female,2022-05-11_11h18.25.123,Parachute,2022.1.1,59.95962320337596,
positive,blue,2,k,None,,,,,,,,,0,84,84,84,,,,,,,,,,,,,,,,,,,,,,,,,,,,,,,,,,,,,main,k,k,1,0.7902906999224797,402.45130289997905,None,None,0,,,,,,,,,,,,,,128,22,Female,2022-05-11_11h18.25.123,Parachute,2022.1.1,59.95962320337596,
positive,yellow,1,None,k,,,,,,,,,0,85,85,85,,,,,,,,,,,,,,,,,,,,,,,,,,,,,,,,,,,,,main,None,None,1,1.5016962999943644,404.2457293999614,None,None,1,,,,,,,,,,,,,,128,22,Female,2022-05-11_11h18.25.123,Parachute,2022.1.1,59.95962320337596,
positive,blue,2,k,None,,,,,,,,,0,86,86,86,,,,,,,,,,,,,,,,,,,,,,,,,,,,,,,,,,,,,main,k,k,1,0.9196724999928847,406.7481825000141,None,None,0,,,,,,,,,,,,,,128,22,Female,2022-05-11_11h18.25.123,Parachute,2022.1.1,59.95962320337596,
positive,blue,1,k,None,,,,,,,,,0,87,87,87,,,,,,,,,,,,,,,,,,,,,,,,,,,,,,,,,,,,,main,k,k,1,0.8998542999615893,408.67871690005995,None,None,0,,,,,,,,,,,,,,128,22,Female,2022-05-11_11h18.25.123,Parachute,2022.1.1,59.95962320337596,
negative,yellow,2,k,None,,,,,,,,,0,88,88,88,,,,,,,,,,,,,,,,,,,,,,,,,,,,,,,,,,,,,main,k,k,1,0.93235639994964,410.5681099999929,None,None,0,,,,,,,,,,,,,,128,22,Female,2022-05-11_11h18.25.123,Parachute,2022.1.1,59.95962320337596,
negative,blue,2,None,k,,,,,,,,,0,89,89,89,,,,,,,,,,,,,,,,,,,,,,,,,,,,,,,,,,,,,main,None,None,1,1.4934152000350878,412.5015914000105,None,None,1,,,,,,,,,,,,,,128,22,Female,2022-05-11_11h18.25.123,Parachute,2022.1.1,59.95962320337596,
positive,yellow,2,None,k,,,,,,,,,0,90,90,90,,,,,,,,,,,,,,,,,,,,,,,,,,,,,,,,,,,,,main,None,None,1,1.4986516000935808,414.9981493999949,None,None,1,,,,,,,,,,,,,,128,22,Female,2022-05-11_11h18.25.123,Parachute,2022.1.1,59.95962320337596,
negative,yellow,1,k,None,,,,,,,,,0,91,91,91,,,,,,,,,,,,,,,,,,,,,,,,,,,,,,,,,,,,,main,k,k,1,0.7702760000247508,417.49804830003995,None,None,0,,,,,,,,,,,,,,128,22,Female,2022-05-11_11h18.25.123,Parachute,2022.1.1,59.95962320337596,
negative,red,2,None,None,,,,,,,,,0,92,92,92,,,,,,,,,,,,,,,,,,,,,,,,,,,,,,,,,,,,,main,None,None,1,1.4936856999993324,419.2684820999857,None,None,1,,,,,,,,,,,,,,128,22,Female,2022-05-11_11h18.25.123,Parachute,2022.1.1,59.95962320337596,
negative,blue,2,None,k,,,,,,,,,0,93,93,93,,,,,,,,,,,,,,,,,,,,,,,,,,,,,,,,,,,,,main,None,None,1,1.4993256999878213,421.76450330007356,None,None,1,,,,,,,,,,,,,,128,22,Female,2022-05-11_11h18.25.123,Parachute,2022.1.1,59.95962320337596,
negative,blue,1,None,k,,,,,,,,,0,94,94,94,,,,,,,,,,,,,,,,,,,,,,,,,,,,,,,,,,,,,main,None,None,1,1.4978045999305323,424.26583489996847,None,None,1,,,,,,,,,,,,,,128,22,Female,2022-05-11_11h18.25.123,Parachute,2022.1.1,59.95962320337596,
negative,blue,1,None,k,,,,,,,,,0,95,95,95,,,,,,,,,,,,,,,,,,,,,,,,,,,,,,,,,,,,,main,None,None,1,1.4993106999900192,426.7644814000232,None,None,1,,,,,,,,,,,,,,128,22,Female,2022-05-11_11h18.25.123,Parachute,2022.1.1,59.95962320337596,
negative,red,1,None,None,,,,,,,,,0,96,96,96,,,,,,,,,,,,,,,,,,,,,,,,,,,,,,,,,,,,,main,None,None,1,1.4985219999216497,429.2654297000263,None,None,1,,,,,,,,,,,,,,128,22,Female,2022-05-11_11h18.25.123,Parachute,2022.1.1,59.95962320337596,
positive,yellow,1,None,k,,,,,,,,,0,97,97,97,,,,,,,,,,,,,,,,,,,,,,,,,,,,,,,,,,,,,main,None,None,1,1.498462300049141,431.76502150006127,None,None,1,,,,,,,,,,,,,,128,22,Female,2022-05-11_11h18.25.123,Parachute,2022.1.1,59.95962320337596,
negative,yellow,1,k,None,,,,,,,,,0,98,98,98,,,,,,,,,,,,,,,,,,,,,,,,,,,,,,,,,,,,,main,k,k,1,0.837172600091435,434.2655770999845,None,None,0,,,,,,,,,,,,,,128,22,Female,2022-05-11_11h18.25.123,Parachute,2022.1.1,59.95962320337596,
positive,red,1,None,None,,,,,,,,,0,99,99,99,,,,,,,,,,,,,,,,,,,,,,,,,,,,,,,,,,,,,main,None,None,1,1.4931799999903888,436.10155380005017,None,None,1,,,,,,,,,,,,,,128,22,Female,2022-05-11_11h18.25.123,Parachute,2022.1.1,59.95962320337596,
positive,blue,1,k,None,,,,,,,,,0,100,100,100,,,,,,,,,,,,,,,,,,,,,,,,,,,,,,,,,,,,,main,k,k,1,0.7549595000455156,438.5981056999881,None,None,0,,,,,,,,,,,,,,128,22,Female,2022-05-11_11h18.25.123,Parachute,2022.1.1,59.95962320337596,
negative,yellow,1,k,None,,,,,,,,,0,101,101,101,,,,,,,,,,,,,,,,,,,,,,,,,,,,,,,,,,,,,main,k,k,1,1.0061152999987826,440.3527597000357,None,None,0,,,,,,,,,,,,,,128,22,Female,2022-05-11_11h18.25.123,Parachute,2022.1.1,59.95962320337596,
negative,blue,2,None,k,,,,,,,,,0,102,102,102,,,,,,,,,,,,,,,,,,,,,,,,,,,,,,,,,,,,,main,None,None,1,1.501734699937515,442.36381570005324,None,None,1,,,,,,,,,,,,,,128,22,Female,2022-05-11_11h18.25.123,Parachute,2022.1.1,59.95962320337596,
negative,yellow,2,k,None,,,,,,,,,0,103,103,103,,,,,,,,,,,,,,,,,,,,,,,,,,,,,,,,,,,,,main,k,k,1,1.0378856000024825,444.86504070006777,None,None,0,,,,,,,,,,,,,,128,22,Female,2022-05-11_11h18.25.123,Parachute,2022.1.1,59.95962320337596,
positive,yellow,2,None,k,,,,,,,,,0,104,104,104,,,,,,,,,,,,,,,,,,,,,,,,,,,,,,,,,,,,,main,None,None,1,1.4928039000369608,446.90236589999404,None,None,1,,,,,,,,,,,,,,128,22,Female,2022-05-11_11h18.25.123,Parachute,2022.1.1,59.95962320337596,
positive,blue,1,k,None,,,,,,,,,0,105,105,105,,,,,,,,,,,,,,,,,,,,,,,,,,,,,,,,,,,,,main,k,k,1,0.9877951999660581,449.39840319997165,None,None,0,,,,,,,,,,,,,,128,22,Female,2022-05-11_11h18.25.123,Parachute,2022.1.1,59.95962320337596,
positive,blue,2,k,None,,,,,,,,,0,106,106,106,,,,,,,,,,,,,,,,,,,,,,,,,,,,,,,,,,,,,main,k,k,1,0.807125199935399,451.38542860001326,None,None,0,,,,,,,,,,,,,,128,22,Female,2022-05-11_11h18.25.123,Parachute,2022.1.1,59.95962320337596,
negative,blue,1,None,k,,,,,,,,,0,107,107,107,,,,,,,,,,,,,,,,,,,,,,,,,,,,,,,,,,,,,main,None,None,1,1.5024455999955535,453.1969997000415,None,None,1,,,,,,,,,,,,,,128,22,Female,2022-05-11_11h18.25.123,Parachute,2022.1.1,59.95962320337596,
positive,yellow,2,None,k,,,,,,,,,0,108,108,108,,,,,,,,,,,,,,,,,,,,,,,,,,,,,,,,,,,,,main,None,None,1,1.4983177999965847,455.699944699998,None,None,1,,,,,,,,,,,,,,128,22,Female,2022-05-11_11h18.25.123,Parachute,2022.1.1,59.95962320337596,
negative,yellow,1,k,None,,,,,,,,,0,109,109,109,,,,,,,,,,,,,,,,,,,,,,,,,,,,,,,,,,,,,main,k,k,1,0.8860568000236526,458.19957689999137,None,None,0,,,,,,,,,,,,,,128,22,Female,2022-05-11_11h18.25.123,Parachute,2022.1.1,59.95962320337596,
negative,blue,2,None,k,,,,,,,,,0,110,110,110,,,,,,,,,,,,,,,,,,,,,,,,,,,,,,,,,,,,,main,None,None,1,1.4945336000528187,460.08598370000254,None,None,1,,,,,,,,,,,,,,128,22,Female,2022-05-11_11h18.25.123,Parachute,2022.1.1,59.95962320337596,
positive,blue,2,k,None,,,,,,,,,0,111,111,111,,,,,,,,,,,,,,,,,,,,,,,,,,,,,,,,,,,,,main,k,k,1,1.1205339999869466,462.58254830003716,None,None,0,,,,,,,,,,,,,,128,22,Female,2022-05-11_11h18.25.123,Parachute,2022.1.1,59.95962320337596,
negative,blue,1,None,k,,,,,,,,,0,112,112,112,,,,,,,,,,,,,,,,,,,,,,,,,,,,,,,,,,,,,main,None,None,1,1.4939244999550283,464.7024196999846,None,None,1,,,,,,,,,,,,,,128,22,Female,2022-05-11_11h18.25.123,Parachute,2022.1.1,59.95962320337596,
positive,yellow,1,None,k,,,,,,,,,0,113,113,113,,,,,,,,,,,,,,,,,,,,,,,,,,,,,,,,,,,,,main,None,None,1,1.498907099943608,467.19933319999836,None,None,1,,,,,,,,,,,,,,128,22,Female,2022-05-11_11h18.25.123,Parachute,2022.1.1,59.95962320337596,
negative,red,1,None,None,,,,,,,,,0,114,114,114,,,,,,,,,,,,,,,,,,,,,,,,,,,,,,,,,,,,,main,None,None,1,1.4989642000291497,469.6998547000112,None,None,1,,,,,,,,,,,,,,128,22,Female,2022-05-11_11h18.25.123,Parachute,2022.1.1,59.95962320337596,
positive,red,1,None,None,,,,,,,,,0,115,115,115,,,,,,,,,,,,,,,,,,,,,,,,,,,,,,,,,,,,,main,None,None,1,1.4985747000901029,472.19994229997974,None,None,1,,,,,,,,,,,,,,128,22,Female,2022-05-11_11h18.25.123,Parachute,2022.1.1,59.95962320337596,
negative,red,2,None,None,,,,,,,,,0,116,116,116,,,,,,,,,,,,,,,,,,,,,,,,,,,,,,,,,,,,,main,None,None,1,1.4983535999199376,474.7005144000286,None,None,1,,,,,,,,,,,,,,128,22,Female,2022-05-11_11h18.25.123,Parachute,2022.1.1,59.95962320337596,
negative,yellow,2,k,None,,,,,,,,,0,117,117,117,,,,,,,,,,,,,,,,,,,,,,,,,,,,,,,,,,,,,main,k,k,1,0.8875246000243351,477.1995647000149,None,None,0,,,,,,,,,,,,,,128,22,Female,2022-05-11_11h18.25.123,Parachute,2022.1.1,59.95962320337596,
positive,yellow,1,None,k,,,,,,,,,0,118,118,118,,,,,,,,,,,,,,,,,,,,,,,,,,,,,,,,,,,,,main,None,None,1,1.4931644999887794,479.0862909000134,None,None,1,,,,,,,,,,,,,,128,22,Female,2022-05-11_11h18.25.123,Parachute,2022.1.1,59.95962320337596,
positive,red,2,None,None,,,,,,,,,0,119,119,119,,,,,,,,,,,,,,,,,,,,,,,,,,,,,,,,,,,,,main,None,None,1,1.4986318000592291,481.5833174000727,None,None,1,,,,,,,,,,,,,,128,22,Female,2022-05-11_11h18.25.123,Parachute,2022.1.1,59.95962320337596,
positive,blue,2,k,None,,,,,,,,,0,120,120,120,,,,,,,,,,,,,,,,,,,,,,,,,,,,,,,,,,,,,main,k,k,1,0.9540251999860629,484.0835451000603,None,None,0,,,,,,,,,,,,,,128,22,Female,2022-05-11_11h18.25.123,Parachute,2022.1.1,59.95962320337596,
negative,red,1,None,None,,,,,,,,,0,121,121,121,,,,,,,,,,,,,,,,,,,,,,,,,,,,,,,,,,,,,main,None,None,1,1.49372319993563,486.03626530000474,None,None,1,,,,,,,,,,,,,,128,22,Female,2022-05-11_11h18.25.123,Parachute,2022.1.1,59.95962320337596,
positive,yellow,2,None,k,,,,,,,,,0,122,122,122,,,,,,,,,,,,,,,,,,,,,,,,,,,,,,,,,,,,,main,None,None,1,1.4987319000065327,488.53306609997526,None,None,1,,,,,,,,,,,,,,128,22,Female,2022-05-11_11h18.25.123,Parachute,2022.1.1,59.95962320337596,
negative,red,2,None,None,,,,,,,,,0,123,123,123,,,,,,,,,,,,,,,,,,,,,,,,,,,,,,,,,,,,,main,None,None,1,1.4981963000027463,491.0333234000718,None,None,1,,,,,,,,,,,,,,128,22,Female,2022-05-11_11h18.25.123,Parachute,2022.1.1,59.95962320337596,
negative,yellow,2,k,None,,,,,,,,,0,124,124,124,,,,,,,,,,,,,,,,,,,,,,,,,,,,,,,,,,,,,main,k,k,1,0.7375399000011384,493.5329033000162,None,None,0,,,,,,,,,,,,,,128,22,Female,2022-05-11_11h18.25.123,Parachute,2022.1.1,59.95962320337596,
positive,red,1,None,None,,,,,,,,,0,125,125,125,,,,,,,,,,,,,,,,,,,,,,,,,,,,,,,,,,,,,main,None,None,1,1.4938782999524847,495.26992850005627,None,None,1,,,,,,,,,,,,,,128,22,Female,2022-05-11_11h18.25.123,Parachute,2022.1.1,59.95962320337596,
negative,blue,2,None,k,,,,,,,,,0,126,126,126,,,,,,,,,,,,,,,,,,,,,,,,,,,,,,,,,,,,,main,None,None,1,1.4988994000013918,497.76707920001354,None,None,1,,,,,,,,,,,,,,128,22,Female,2022-05-11_11h18.25.123,Parachute,2022.1.1,59.95962320337596,
negative,blue,1,None,k,,,,,,,,,0,127,127,127,,,,,,,,,,,,,,,,,,,,,,,,,,,,,,,,,,,,,main,None,None,1,1.4986905999248847,500.26711020001676,None,None,1,,,,,,,,,,,,,,128,22,Female,2022-05-11_11h18.25.123,Parachute,2022.1.1,59.95962320337596,
negative,yellow,1,k,None,,,,,,,,,0,128,128,128,,,,,,,,,,,,,,,,,,,,,,,,,,,,,,,,,,,,,main,k,k,1,1.0864197999471799,502.76749600004405,None,None,0,,,,,,,,,,,,,,128,22,Female,2022-05-11_11h18.25.123,Parachute,2022.1.1,59.95962320337596,
negative,yellow,1,k,None,,,,,,,,,0,129,129,129,,,,,,,,,,,,,,,,,,,,,,,,,,,,,,,,,,,,,main,k,k,1,0.9662014999194071,504.85360350005794,None,None,0,,,,,,,,,,,,,,128,22,Female,2022-05-11_11h18.25.123,Parachute,2022.1.1,59.95962320337596,
positive,blue,1,k,None,,,,,,,,,0,130,130,130,,,,,,,,,,,,,,,,,,,,,,,,,,,,,,,,,,,,,main,k,k,1,0.8326108999317512,506.82037239999045,None,None,0,,,,,,,,,,,,,,128,22,Female,2022-05-11_11h18.25.123,Parachute,2022.1.1,59.95962320337596,
negative,blue,1,None,k,,,,,,,,,0,131,131,131,,,,,,,,,,,,,,,,,,,,,,,,,,,,,,,,,,,,,main,None,None,1,1.4932261001085863,508.65400830004364,None,None,1,,,,,,,,,,,,,,128,22,Female,2022-05-11_11h18.25.123,Parachute,2022.1.1,59.95962320337596,
negative,blue,2,None,k,,,,,,,,,0,132,132,132,,,,,,,,,,,,,,,,,,,,,,,,,,,,,,,,,,,,,main,None,None,1,1.4981163999764249,511.15115869999863,None,None,1,,,,,,,,,,,,,,128,22,Female,2022-05-11_11h18.25.123,Parachute,2022.1.1,59.95962320337596,
positive,blue,2,k,None,,,,,,,,,0,133,133,133,,,,,,,,,,,,,,,,,,,,,,,,,,,,,,,,,,,,,main,k,k,1,0.7291188000235707,513.6507232000586,None,None,0,,,,,,,,,,,,,,128,22,Female,2022-05-11_11h18.25.123,Parachute,2022.1.1,59.95962320337596,
positive,red,2,None,None,,,,,,,,,0,134,134,134,,,,,,,,,,,,,,,,,,,,,,,,,,,,,,,,,,,,,main,None,None,1,1.501454700017348,515.3821681999834,None,None,1,,,,,,,,,,,,,,128,22,Female,2022-05-11_11h18.25.123,Parachute,2022.1.1,59.95962320337596,
negative,yellow,2,k,None,,,,,,,,,0,135,135,135,,,,,,,,,,,,,,,,,,,,,,,,,,,,,,,,,,,,,main,k,k,1,1.0041384999640286,517.8835055000382,None,None,0,,,,,,,,,,,,,,128,22,Female,2022-05-11_11h18.25.123,Parachute,2022.1.1,59.95962320337596,
positive,yellow,2,None,k,,,,,,,,,0,136,136,136,,,,,,,,,,,,,,,,,,,,,,,,,,,,,,,,,,,,,main,None,None,1,1.4934410999994725,519.8872168000089,None,None,1,,,,,,,,,,,,,,128,22,Female,2022-05-11_11h18.25.123,Parachute,2022.1.1,59.95962320337596,
positive,blue,1,k,None,,,,,,,,,0,137,137,137,,,,,,,,,,,,,,,,,,,,,,,,,,,,,,,,,,,,,main,k,k,1,1.020795000018552,522.3837461000076,None,None,0,,,,,,,,,,,,,,128,22,Female,2022-05-11_11h18.25.123,Parachute,2022.1.1,59.95962320337596,
positive,yellow,1,None,k,,,,,,,,,0,138,138,138,,,,,,,,,,,,,,,,,,,,,,,,,,,,,,,,,,,,,main,None,None,1,1.4934460000367835,524.4034710000269,None,None,1,,,,,,,,,,,,,,128,22,Female,2022-05-11_11h18.25.123,Parachute,2022.1.1,59.95962320337596,
positive,yellow,1,None,k,,,,,,,,,0,139,139,139,,,,,,,,,,,,,,,,,,,,,,,,,,,,,,,,,,,,,main,None,None,1,1.4990943999728188,526.9011494000442,None,None,1,,,,,,,,,,,,,,128,22,Female,2022-05-11_11h18.25.123,Parachute,2022.1.1,59.95962320337596,
positive,yellow,1,None,k,,,,,,,,,0,140,140,140,,,,,,,,,,,,,,,,,,,,,,,,,,,,,,,,,,,,,main,None,None,1,1.4987566999625415,529.4011517000617,None,None,1,,,,,,,,,,,,,,128,22,Female,2022-05-11_11h18.25.123,Parachute,2022.1.1,59.95962320337596,
positive,blue,1,k,None,,,,,,,,,0,141,141,141,,,,,,,,,,,,,,,,,,,,,,,,,,,,,,,,,,,,,main,k,k,1,0.9209374999627471,531.9017935000593,None,None,0,,,,,,,,,,,,,,128,22,Female,2022-05-11_11h18.25.123,Parachute,2022.1.1,59.95962320337596,
positive,blue,2,k,None,,,,,,,,,0,142,142,142,,,,,,,,,,,,,,,,,,,,,,,,,,,,,,,,,,,,,main,k,k,1,1.0152599000139162,533.821250100038,None,None,0,,,,,,,,,,,,,,128,22,Female,2022-05-11_11h18.25.123,Parachute,2022.1.1,59.95962320337596,
positive,yellow,2,None,k,,,,,,,,,0,143,143,143,,,,,,,,,,,,,,,,,,,,,,,,,,,,,,,,,,,,,main,None,None,1,1.4930903000058606,535.8383898000466,None,None,1,,,,,,,,,,,,,,128,22,Female,2022-05-11_11h18.25.123,Parachute,2022.1.1,59.95962320337596,
negative,yellow,2,k,None,,,,,,,,,0,144,144,144,,,,,,,,,,,,,,,,,,,,,,,,,,,,,,,,,,,,,main,k,k,1,0.9202078999951482,538.3347614000086,None,None,0,,,,,,,,,,,,,,128,22,Female,2022-05-11_11h18.25.123,Parachute,2022.1.1,59.95962320337596,
negative,blue,2,None,k,,,,,,,,,0,145,145,145,,,,,,,,,,,,,,,,,,,,,,,,,,,,,,,,,,,,,main,None,None,1,1.4942781999707222,540.2619515999686,None,None,1,,,,,,,,,,,,,,128,22,Female,2022-05-11_11h18.25.123,Parachute,2022.1.1,59.95962320337596,
negative,red,1,None,None,,,,,,,,,0,146,146,146,,,,,,,,,,,,,,,,,,,,,,,,,,,,,,,,,,,,,main,None,None,1,1.4986380999907851,542.7524908999912,None,None,1,,,,,,,,,,,,,,128,22,Female,2022-05-11_11h18.25.123,Parachute,2022.1.1,59.95962320337596,
positive,blue,1,k,None,,,,,,,,,0,147,147,147,,,,,,,,,,,,,,,,,,,,,,,,,,,,,,,,,,,,,main,k,k,1,0.869738099980168,545.2529317999724,None,None,0,,,,,,,,,,,,,,128,22,Female,2022-05-11_11h18.25.123,Parachute,2022.1.1,59.95962320337596,
positive,yellow,1,None,k,,,,,,,,,0,148,148,148,,,,,,,,,,,,,,,,,,,,,,,,,,,,,,,,,,,,,main,None,None,1,1.4936868000077084,547.1207923999755,None,None,1,,,,,,,,,,,,,,128,22,Female,2022-05-11_11h18.25.123,Parachute,2022.1.1,59.95962320337596,
negative,red,2,None,None,,,,,,,,,0,149,149,149,,,,,,,,,,,,,,,,,,,,,,,,,,,,,,,,,,,,,main,None,None,1,1.4986933999462053,549.6180686000735,None,None,1,,,,,,,,,,,,,,128,22,Female,2022-05-11_11h18.25.123,Parachute,2022.1.1,59.95962320337596,
negative,blue,1,None,k,,,,,,,,,0,150,150,150,,,,,,,,,,,,,,,,,,,,,,,,,,,,,,,,,,,,,main,None,k,0,0.887420899933204,552.1179423000431,None,None,1,,,,,,,,,,,,,,128,22,Female,2022-05-11_11h18.25.123,Parachute,2022.1.1,59.95962320337596,
negative,yellow,2,k,None,,,,,,,,,0,151,151,151,,,,,,,,,,,,,,,,,,,,,,,,,,,,,,,,,,,,,main,k,k,1,0.9239926999434829,555.0158607000485,None,None,0,,,,,,,,,,,,,,128,22,Female,2022-05-11_11h18.25.123,Parachute,2022.1.1,59.95962320337596,
negative,blue,2,None,k,,,,,,,,,0,152,152,152,,,,,,,,,,,,,,,,,,,,,,,,,,,,,,,,,,,,,main,None,None,1,1.492626899969764,556.938498100033,None,None,1,,,,,,,,,,,,,,128,22,Female,2022-05-11_11h18.25.123,Parachute,2022.1.1,59.95962320337596,
negative,yellow,1,k,None,,,,,,,,,0,153,153,153,,,,,,,,,,,,,,,,,,,,,,,,,,,,,,,,,,,,,main,k,k,1,1.0194893000880256,559.4348621000536,None,None,0,,,,,,,,,,,,,,128,22,Female,2022-05-11_11h18.25.123,Parachute,2022.1.1,59.95962320337596,
negative,blue,1,None,k,,,,,,,,,0,154,154,154,,,,,,,,,,,,,,,,,,,,,,,,,,,,,,,,,,,,,main,None,None,1,1.4950525000458583,561.4545869000722,None,None,1,,,,,,,,,,,,,,128,22,Female,2022-05-11_11h18.25.123,Parachute,2022.1.1,59.95962320337596,
positive,yellow,2,None,k,,,,,,,,,0,155,155,155,,,,,,,,,,,,,,,,,,,,,,,,,,,,,,,,,,,,,main,None,None,1,1.497931499965489,563.952214900055,None,None,1,,,,,,,,,,,,,,128,22,Female,2022-05-11_11h18.25.123,Parachute,2022.1.1,59.95962320337596,
positive,red,2,None,None,,,,,,,,,0,156,156,156,,,,,,,,,,,,,,,,,,,,,,,,,,,,,,,,,,,,,main,None,None,1,1.4994999000336975,566.4518437000224,None,None,1,,,,,,,,,,,,,,128,22,Female,2022-05-11_11h18.25.123,Parachute,2022.1.1,59.95962320337596,
positive,red,1,None,None,,,,,,,,,0,157,157,157,,,,,,,,,,,,,,,,,,,,,,,,,,,,,,,,,,,,,main,None,None,1,1.498392799985595,568.952185900067,None,None,1,,,,,,,,,,,,,,128,22,Female,2022-05-11_11h18.25.123,Parachute,2022.1.1,59.95962320337596,
positive,blue,2,k,None,,,,,,,,,0,158,158,158,,,,,,,,,,,,,,,,,,,,,,,,,,,,,,,,,,,,,main,k,k,1,0.8389250000473112,571.452304400038,None,None,0,,,,,,,,,,,,,,128,22,Female,2022-05-11_11h18.25.123,Parachute,2022.1.1,59.95962320337596,
negative,yellow,1,k,None,,,,,,,,,0,159,159,159,,,,,,,,,,,,,,,,,,,,,,,,,,,,,,,,,,,,,main,k,k,1,1.046784200007096,573.2899531000294,None,None,0,,,,,,,,,,,,,,128,22,Female,2022-05-11_11h18.25.123,Parachute,2022.1.1,59.95962320337596,
negative,red,2,None,None,,,,,,,,,0,160,160,160,,,,,,,,,,,,,,,,,,,,,,,,,,,,,,,,,,,,,main,None,None,1,1.4939249000744894,575.3386110999854,None,None,1,,,,,,,,,,,,,,128,22,Female,2022-05-11_11h18.25.123,Parachute,2022.1.1,59.95962320337596,
negative,blue,1,None,k,,,,,,,,,0,161,161,161,,,,,,,,,,,,,,,,,,,,,,,,,,,,,,,,,,,,,main,None,None,1,1.4982683999696746,577.8356020000065,None,None,1,,,,,,,,,,,,,,128,22,Female,2022-05-11_11h18.25.123,Parachute,2022.1.1,59.95962320337596,
negative,blue,1,None,k,,,,,,,,,0,162,162,162,,,,,,,,,,,,,,,,,,,,,,,,,,,,,,,,,,,,,main,None,None,1,1.4988509000977501,580.3354064000305,None,None,1,,,,,,,,,,,,,,128,22,Female,2022-05-11_11h18.25.123,Parachute,2022.1.1,59.95962320337596,
negative,yellow,1,k,None,,,,,,,,,0,163,163,163,,,,,,,,,,,,,,,,,,,,,,,,,,,,,,,,,,,,,main,k,k,1,1.7038208999438211,582.8353329000529,None,None,0,,,,,,,,,,,,,,128,22,Female,2022-05-11_11h18.25.123,Parachute,2022.1.1,59.95962320337596,
negative,yellow,1,k,None,,,,,,,,,0,164,164,164,,,,,,,,,,,,,,,,,,,,,,,,,,,,,,,,,,,,,main,k,k,1,0.7906339999753982,586.5496636000462,None,None,0,,,,,,,,,,,,,,128,22,Female,2022-05-11_11h18.25.123,Parachute,2022.1.1,59.95962320337596,
positive,yellow,1,None,k,,,,,,,,,0,165,165,165,,,,,,,,,,,,,,,,,,,,,,,,,,,,,,,,,,,,,main,None,None,1,1.4929142999462783,588.3395598999923,None,None,1,,,,,,,,,,,,,,128,22,Female,2022-05-11_11h18.25.123,Parachute,2022.1.1,59.95962320337596,
negative,red,1,None,None,,,,,,,,,0,166,166,166,,,,,,,,,,,,,,,,,,,,,,,,,,,,,,,,,,,,,main,None,None,1,1.4991037999279797,590.8355029000668,None,None,1,,,,,,,,,,,,,,128,22,Female,2022-05-11_11h18.25.123,Parachute,2022.1.1,59.95962320337596,
negative,yellow,2,k,None,,,,,,,,,0,167,167,167,,,,,,,,,,,,,,,,,,,,,,,,,,,,,,,,,,,,,main,k,k,1,0.737401399994269,593.3360220000613,None,None,0,,,,,,,,,,,,,,128,22,Female,2022-05-11_11h18.25.123,Parachute,2022.1.1,59.95962320337596,
positive,blue,2,k,None,,,,,,,,,0,168,168,168,,,,,,,,,,,,,,,,,,,,,,,,,,,,,,,,,,,,,main,k,k,1,0.831408999976702,595.0727544999681,None,None,0,,,,,,,,,,,,,,128,22,Female,2022-05-11_11h18.25.123,Parachute,2022.1.1,59.95962320337596,
positive,red,2,None,None,,,,,,,,,0,169,169,169,,,,,,,,,,,,,,,,,,,,,,,,,,,,,,,,,,,,,main,None,None,1,1.4936908999225125,596.9052673999686,None,None,1,,,,,,,,,,,,,,128,22,Female,2022-05-11_11h18.25.123,Parachute,2022.1.1,59.95962320337596,
positive,red,1,None,None,,,,,,,,,0,170,170,170,,,,,,,,,,,,,,,,,,,,,,,,,,,,,,,,,,,,,main,None,None,1,1.4992480999790132,599.4024745000061,None,None,1,,,,,,,,,,,,,,128,22,Female,2022-05-11_11h18.25.123,Parachute,2022.1.1,59.95962320337596,
negative,blue,2,None,k,,,,,,,,,0,171,171,171,,,,,,,,,,,,,,,,,,,,,,,,,,,,,,,,,,,,,main,None,None,1,1.4987581999739632,601.9032048999798,None,None,1,,,,,,,,,,,,,,128,22,Female,2022-05-11_11h18.25.123,Parachute,2022.1.1,59.95962320337596,
positive,blue,2,k,None,,,,,,,,,0,172,172,172,,,,,,,,,,,,,,,,,,,,,,,,,,,,,,,,,,,,,main,k,k,1,0.7374614999862388,604.4028263000073,None,None,0,,,,,,,,,,,,,,128,22,Female,2022-05-11_11h18.25.123,Parachute,2022.1.1,59.95962320337596,
negative,yellow,2,k,None,,,,,,,,,0,173,173,173,,,,,,,,,,,,,,,,,,,,,,,,,,,,,,,,,,,,,main,k,k,1,0.9483063999796286,606.1394237000495,None,None,0,,,,,,,,,,,,,,128,22,Female,2022-05-11_11h18.25.123,Parachute,2022.1.1,59.95962320337596,
positive,yellow,2,None,k,,,,,,,,,0,174,174,174,,,,,,,,,,,,,,,,,,,,,,,,,,,,,,,,,,,,,main,None,None,1,1.4935596000868827,608.0895244000712,None,None,1,,,,,,,,,,,,,,128,22,Female,2022-05-11_11h18.25.123,Parachute,2022.1.1,59.95962320337596,
negative,blue,2,None,k,,,,,,,,,0,175,175,175,,,,,,,,,,,,,,,,,,,,,,,,,,,,,,,,,,,,,main,None,None,1,1.4989787000231445,610.5860297000036,None,None,1,,,,,,,,,,,,,,128,22,Female,2022-05-11_11h18.25.123,Parachute,2022.1.1,59.95962320337596,
positive,blue,1,k,None,,,,,,,,,0,176,176,176,,,,,,,,,,,,,,,,,,,,,,,,,,,,,,,,,,,,,main,k,k,1,0.8701811999781057,613.0863468999742,None,None,0,,,,,,,,,,,,,,128,22,Female,2022-05-11_11h18.25.123,Parachute,2022.1.1,59.95962320337596,
positive,yellow,1,None,k,,,,,,,,,0,177,177,177,,,,,,,,,,,,,,,,,,,,,,,,,,,,,,,,,,,,,main,None,None,1,1.4936108000110835,614.9563889000565,None,None,1,,,,,,,,,,,,,,128,22,Female,2022-05-11_11h18.25.123,Parachute,2022.1.1,59.95962320337596,
positive,blue,1,k,None,,,,,,,,,0,178,178,178,,,,,,,,,,,,,,,,,,,,,,,,,,,,,,,,,,,,,main,k,k,1,0.8714034999720752,617.4529031000566,None,None,0,,,,,,,,,,,,,,128,22,Female,2022-05-11_11h18.25.123,Parachute,2022.1.1,59.95962320337596,
positive,yellow,2,None,k,,,,,,,,,0,179,179,179,,,,,,,,,,,,,,,,,,,,,,,,,,,,,,,,,,,,,main,None,None,1,1.4930433999979869,619.3230071000289,None,None,1,,,,,,,,,,,,,,128,22,Female,2022-05-11_11h18.25.123,Parachute,2022.1.1,59.95962320337596,
positive,blue,1,k,None,,,,,,,,,0,180,180,180,,,,,,,,,,,,,,,,,,,,,,,,,,,,,,,,,,,,,main,k,k,1,0.904136500088498,621.8199862999609,None,None,0,,,,,,,,,,,,,,128,22,Female,2022-05-11_11h18.25.123,Parachute,2022.1.1,59.95962320337596,
negative,red,1,None,None,,,,,,,,,0,181,181,181,,,,,,,,,,,,,,,,,,,,,,,,,,,,,,,,,,,,,main,None,None,1,1.4929722000379115,623.7231493999716,None,None,1,,,,,,,,,,,,,,128,22,Female,2022-05-11_11h18.25.123,Parachute,2022.1.1,59.95962320337596,
negative,blue,1,None,k,,,,,,,,,0,182,182,182,,,,,,,,,,,,,,,,,,,,,,,,,,,,,,,,,,,,,main,None,None,1,1.4986276000272483,626.2191904999781,None,None,1,,,,,,,,,,,,,,128,22,Female,2022-05-11_11h18.25.123,Parachute,2022.1.1,59.95962320337596,
negative,yellow,2,k,None,,,,,,,,,0,183,183,183,,,,,,,,,,,,,,,,,,,,,,,,,,,,,,,,,,,,,main,k,k,1,1.2707996999379247,628.7197726999875,None,None,0,,,,,,,,,,,,,,128,22,Female,2022-05-11_11h18.25.123,Parachute,2022.1.1,59.95962320337596,
positive,yellow,2,None,k,,,,,,,,,0,184,184,184,,,,,,,,,,,,,,,,,,,,,,,,,,,,,,,,,,,,,main,None,None,1,1.4935148999793455,630.9896163999802,None,None,1,,,,,,,,,,,,,,128,22,Female,2022-05-11_11h18.25.123,Parachute,2022.1.1,59.95962320337596,
positive,yellow,1,None,k,,,,,,,,,0,185,185,185,,,,,,,,,,,,,,,,,,,,,,,,,,,,,,,,,,,,,main,None,None,1,1.4998177000088617,633.4866996000055,None,None,1,,,,,,,,,,,,,,128,22,Female,2022-05-11_11h18.25.123,Parachute,2022.1.1,59.95962320337596,
positive,red,2,None,None,,,,,,,,,0,186,186,186,,,,,,,,,,,,,,,,,,,,,,,,,,,,,,,,,,,,,main,None,None,1,1.4979719000402838,635.9874258000636,None,None,1,,,,,,,,,,,,,,128,22,Female,2022-05-11_11h18.25.123,Parachute,2022.1.1,59.95962320337596,
positive,blue,1,k,None,,,,,,,,,0,187,187,187,,,,,,,,,,,,,,,,,,,,,,,,,,,,,,,,,,,,,main,k,k,1,1.0369607000611722,638.4867076000664,None,None,0,,,,,,,,,,,,,,128,22,Female,2022-05-11_11h18.25.123,Parachute,2022.1.1,59.95962320337596,
negative,yellow,1,k,None,,,,,,,,,0,188,188,188,,,,,,,,,,,,,,,,,,,,,,,,,,,,,,,,,,,,,main,k,k,1,1.132233800017275,640.5229248000542,None,None,0,,,,,,,,,,,,,,128,22,Female,2022-05-11_11h18.25.123,Parachute,2022.1.1,59.95962320337596,
positive,yellow,2,None,k,,,,,,,,,0,189,189,189,,,,,,,,,,,,,,,,,,,,,,,,,,,,,,,,,,,,,main,None,None,1,1.4939226999413222,642.6563207000727,None,None,1,,,,,,,,,,,,,,128,22,Female,2022-05-11_11h18.25.123,Parachute,2022.1.1,59.95962320337596,
negative,yellow,2,k,None,,,,,,,,,0,190,190,190,,,,,,,,,,,,,,,,,,,,,,,,,,,,,,,,,,,,,main,k,k,1,1.1537788999266922,645.1540777999908,None,None,0,,,,,,,,,,,,,,128,22,Female,2022-05-11_11h18.25.123,Parachute,2022.1.1,59.95962320337596,
negative,yellow,1,k,None,,,,,,,,,0,191,191,191,,,,,,,,,,,,,,,,,,,,,,,,,,,,,,,,,,,,,main,k,k,1,1.081733200000599,647.3174222999951,None,None,0,,,,,,,,,,,,,,128,22,Female,2022-05-11_11h18.25.123,Parachute,2022.1.1,59.95962320337596,
positive,blue,2,k,None,,,,,,,,,0,192,192,192,,,,,,,,,,,,,,,,,,,,,,,,,,,,,,,,,,,,,main,k,k,1,0.9326485999627039,649.3898903999943,None,None,0,,,,,,,,,,,,,,128,22,Female,2022-05-11_11h18.25.123,Parachute,2022.1.1,59.95962320337596,
positive,yellow,1,None,k,,,,,,,,,0,193,193,193,,,,,,,,,,,,,,,,,,,,,,,,,,,,,,,,,,,,,main,None,None,1,1.4935053999070078,651.3232599999756,None,None,1,,,,,,,,,,,,,,128,22,Female,2022-05-11_11h18.25.123,Parachute,2022.1.1,59.95962320337596,
negative,red,2,None,None,,,,,,,,,0,194,194,194,,,,,,,,,,,,,,,,,,,,,,,,,,,,,,,,,,,,,main,None,None,1,1.4983864999376237,653.8208459999878,None,None,1,,,,,,,,,,,,,,128,22,Female,2022-05-11_11h18.25.123,Parachute,2022.1.1,59.95962320337596,
positive,red,1,None,None,,,,,,,,,0,195,195,195,,,,,,,,,,,,,,,,,,,,,,,,,,,,,,,,,,,,,main,None,None,1,1.4992751000681892,656.3202683000127,None,None,1,,,,,,,,,,,,,,128,22,Female,2022-05-11_11h18.25.123,Parachute,2022.1.1,59.95962320337596,
negative,blue,1,None,k,,,,,,,,,0,196,196,196,,,,,,,,,,,,,,,,,,,,,,,,,,,,,,,,,,,,,main,None,None,1,1.4983653000090271,658.8209211999783,None,None,1,,,,,,,,,,,,,,128,22,Female,2022-05-11_11h18.25.123,Parachute,2022.1.1,59.95962320337596,
positive,blue,2,k,None,,,,,,,,,0,197,197,197,,,,,,,,,,,,,,,,,,,,,,,,,,,,,,,,,,,,,main,k,k,1,0.9370574998902157,661.3204632999841,None,None,0,,,,,,,,,,,,,,128,22,Female,2022-05-11_11h18.25.123,Parachute,2022.1.1,59.95962320337596,
negative,blue,2,None,k,,,,,,,,,0,198,198,198,,,,,,,,,,,,,,,,,,,,,,,,,,,,,,,,,,,,,main,None,None,1,1.493512999964878,663.2569108000025,None,None,1,,,,,,,,,,,,,,128,22,Female,2022-05-11_11h18.25.123,Parachute,2022.1.1,59.95962320337596,
negative,blue,2,None,k,,,,,,,,,0,199,199,199,,,,,,,,,,,,,,,,,,,,,,,,,,,,,,,,,,,,,main,None,None,1,1.4984622000483796,665.7542982000159,None,None,1,,,,,,,,,,,,,,128,22,Female,2022-05-11_11h18.25.123,Parachute,2022.1.1,59.95962320337596,
positive,blue,2,k,None,,,,,,,,,0,200,200,200,,,,,,,,,,,,,,,,,,,,,,,,,,,,,,,,,,,,,main,k,k,1,0.8372724000364542,668.2542888000607,None,None,0,,,,,,,,,,,,,,128,22,Female,2022-05-11_11h18.25.123,Parachute,2022.1.1,59.95962320337596,
positive,blue,2,k,None,,,,,,,,,0,201,201,201,,,,,,,,,,,,,,,,,,,,,,,,,,,,,,,,,,,,,main,k,k,1,0.7321855000918731,670.0907253000187,None,None,0,,,,,,,,,,,,,,128,22,Female,2022-05-11_11h18.25.123,Parachute,2022.1.1,59.95962320337596,
negative,yellow,2,k,None,,,,,,,,,0,202,202,202,,,,,,,,,,,,,,,,,,,,,,,,,,,,,,,,,,,,,main,k,k,1,0.7821344999829307,671.8236622000113,None,None,0,,,,,,,,,,,,,,128,22,Female,2022-05-11_11h18.25.123,Parachute,2022.1.1,59.95962320337596,
positive,red,1,None,None,,,,,,,,,0,203,203,203,,,,,,,,,,,,,,,,,,,,,,,,,,,,,,,,,,,,,main,None,None,1,1.4928628999041393,673.6079533000011,None,None,1,,,,,,,,,,,,,,128,22,Female,2022-05-11_11h18.25.123,Parachute,2022.1.1,59.95962320337596,
negative,blue,2,None,k,,,,,,,,,0,204,204,204,,,,,,,,,,,,,,,,,,,,,,,,,,,,,,,,,,,,,main,None,None,1,1.4983987999148667,676.1039086000528,None,None,1,,,,,,,,,,,,,,128,22,Female,2022-05-11_11h18.25.123,Parachute,2022.1.1,59.95962320337596,
negative,red,1,None,None,,,,,,,,,0,205,205,205,,,,,,,,,,,,,,,,,,,,,,,,,,,,,,,,,,,,,main,None,None,1,1.4997541999910027,678.6040069999872,None,None,1,,,,,,,,,,,,,,128,22,Female,2022-05-11_11h18.25.123,Parachute,2022.1.1,59.95962320337596,
negative,blue,2,None,k,,,,,,,,,0,206,206,206,,,,,,,,,,,,,,,,,,,,,,,,,,,,,,,,,,,,,main,None,None,1,1.497680800035596,681.1052837000461,None,None,1,,,,,,,,,,,,,,128,22,Female,2022-05-11_11h18.25.123,Parachute,2022.1.1,59.95962320337596,
negative,yellow,2,k,None,,,,,,,,,0,207,207,207,,,,,,,,,,,,,,,,,,,,,,,,,,,,,,,,,,,,,main,k,k,1,0.8884681999916211,683.6046347999945,None,None,0,,,,,,,,,,,,,,128,22,Female,2022-05-11_11h18.25.123,Parachute,2022.1.1,59.95962320337596,
positive,yellow,2,None,k,,,,,,,,,0,208,208,208,,,,,,,,,,,,,,,,,,,,,,,,,,,,,,,,,,,,,main,None,None,1,1.4921184999402612,685.4918542000232,None,None,1,,,,,,,,,,,,,,128,22,Female,2022-05-11_11h18.25.123,Parachute,2022.1.1,59.95962320337596,
negative,yellow,1,k,None,,,,,,,,,0,209,209,209,,,,,,,,,,,,,,,,,,,,,,,,,,,,,,,,,,,,,main,k,k,1,0.9877892000367865,687.9876999000553,None,None,0,,,,,,,,,,,,,,128,22,Female,2022-05-11_11h18.25.123,Parachute,2022.1.1,59.95962320337596,
negative,red,2,None,None,,,,,,,,,0,210,210,210,,,,,,,,,,,,,,,,,,,,,,,,,,,,,,,,,,,,,main,None,None,1,1.493659400031902,689.9743805000326,None,None,1,,,,,,,,,,,,,,128,22,Female,2022-05-11_11h18.25.123,Parachute,2022.1.1,59.95962320337596,
negative,blue,1,None,k,,,,,,,,,0,211,211,211,,,,,,,,,,,,,,,,,,,,,,,,,,,,,,,,,,,,,main,None,None,1,1.4985296999802813,692.4714417000068,None,None,1,,,,,,,,,,,,,,128,22,Female,2022-05-11_11h18.25.123,Parachute,2022.1.1,59.95962320337596,
negative,yellow,1,k,None,,,,,,,,,0,212,212,212,,,,,,,,,,,,,,,,,,,,,,,,,,,,,,,,,,,,,main,k,k,1,1.0208261999068782,694.9711345999967,None,None,0,,,,,,,,,,,,,,128,22,Female,2022-05-11_11h18.25.123,Parachute,2022.1.1,59.95962320337596,
positive,blue,1,k,None,,,,,,,,,0,213,213,213,,,,,,,,,,,,,,,,,,,,,,,,,,,,,,,,,,,,,main,k,k,1,1.232391000026837,696.9914222999942,None,None,0,,,,,,,,,,,,,,128,22,Female,2022-05-11_11h18.25.123,Parachute,2022.1.1,59.95962320337596,
positive,blue,1,k,None,,,,,,,,,0,214,214,214,,,,,,,,,,,,,,,,,,,,,,,,,,,,,,,,,,,,,main,k,k,1,0.5985797999892384,699.2245664000511,None,None,0,,,,,,,,,,,,,,128,22,Female,2022-05-11_11h18.25.123,Parachute,2022.1.1,59.95962320337596,
positive,yellow,1,None,k,,,,,,,,,0,215,215,215,,,,,,,,,,,,,,,,,,,,,,,,,,,,,,,,,,,,,main,None,None,1,1.4938824999844655,700.824264200055,None,None,1,,,,,,,,,,,,,,128,22,Female,2022-05-11_11h18.25.123,Parachute,2022.1.1,59.95962320337596,
positive,yellow,1,None,k,,,,,,,,,0,216,216,216,,,,,,,,,,,,,,,,,,,,,,,,,,,,,,,,,,,,,main,None,None,1,1.4979366000043228,703.3224240000127,None,None,1,,,,,,,,,,,,,,128,22,Female,2022-05-11_11h18.25.123,Parachute,2022.1.1,59.95962320337596,
positive,yellow,2,None,k,,,,,,,,,0,217,217,217,,,,,,,,,,,,,,,,,,,,,,,,,,,,,,,,,,,,,main,None,None,1,1.4993103999877349,705.8218596000224,None,None,1,,,,,,,,,,,,,,128,22,Female,2022-05-11_11h18.25.123,Parachute,2022.1.1,59.95962320337596,
negative,blue,1,None,k,,,,,,,,,0,218,218,218,,,,,,,,,,,,,,,,,,,,,,,,,,,,,,,,,,,,,main,None,None,1,1.4984982999740168,708.3220290000318,None,None,1,,,,,,,,,,,,,,128,22,Female,2022-05-11_11h18.25.123,Parachute,2022.1.1,59.95962320337596,
positive,red,2,None,None,,,,,,,,,0,219,219,219,,,,,,,,,,,,,,,,,,,,,,,,,,,,,,,,,,,,,main,None,None,1,1.498639199999161,710.8220965999644,None,None,1,,,,,,,,,,,,,,128,22,Female,2022-05-11_11h18.25.123,Parachute,2022.1.1,59.95962320337596,
positive,yellow,1,None,k,,,,,,,,,0,220,220,220,,,,,,,,,,,,,,,,,,,,,,,,,,,,,,,,,,,,,main,None,None,1,1.498413800029084,713.3219608999789,None,None,1,,,,,,,,,,,,,,128,22,Female,2022-05-11_11h18.25.123,Parachute,2022.1.1,59.95962320337596,
positive,blue,1,k,None,,,,,,,,,0,221,221,221,,,,,,,,,,,,,,,,,,,,,,,,,,,,,,,,,,,,,main,k,k,1,0.8709526000311598,715.8219424000708,None,None,0,,,,,,,,,,,,,,128,22,Female,2022-05-11_11h18.25.123,Parachute,2022.1.1,59.95962320337596,
positive,yellow,2,None,k,,,,,,,,,0,222,222,222,,,,,,,,,,,,,,,,,,,,,,,,,,,,,,,,,,,,,main,None,None,1,1.4929699999047443,717.6916078999639,None,None,1,,,,,,,,,,,,,,128,22,Female,2022-05-11_11h18.25.123,Parachute,2022.1.1,59.95962320337596,
negative,yellow,1,k,None,,,,,,,,,0,223,223,223,,,,,,,,,,,,,,,,,,,,,,,,,,,,,,,,,,,,,main,k,k,1,0.9025818000081927,720.188170199981,None,None,0,,,,,,,,,,,,,,128,22,Female,2022-05-11_11h18.25.123,Parachute,2022.1.1,59.95962320337596,
positive,yellow,2,None,k,,,,,,,,,0,224,224,224,,,,,,,,,,,,,,,,,,,,,,,,,,,,,,,,,,,,,main,None,None,1,1.4955091999145225,722.0994071000023,None,None,1,,,,,,,,,,,,,,128,22,Female,2022-05-11_11h18.25.123,Parachute,2022.1.1,59.95962320337596,
negative,yellow,2,k,None,,,,,,,,,0,225,225,225,,,,,,,,,,,,,,,,,,,,,,,,,,,,,,,,,,,,,main,k,k,1,0.7704267000081018,724.5885334999766,None,None,0,,,,,,,,,,,,,,128,22,Female,2022-05-11_11h18.25.123,Parachute,2022.1.1,59.95962320337596,
negative,blue,2,None,k,,,,,,,,,0,226,226,226,,,,,,,,,,,,,,,,,,,,,,,,,,,,,,,,,,,,,main,None,None,1,1.4938520999858156,726.3586739000166,None,None,1,,,,,,,,,,,,,,128,22,Female,2022-05-11_11h18.25.123,Parachute,2022.1.1,59.95962320337596,
positive,red,2,None,None,,,,,,,,,0,227,227,227,,,,,,,,,,,,,,,,,,,,,,,,,,,,,,,,,,,,,main,None,None,1,1.49879390001297,728.8560503000626,None,None,1,,,,,,,,,,,,,,128,22,Female,2022-05-11_11h18.25.123,Parachute,2022.1.1,59.95962320337596,
positive,blue,2,k,None,,,,,,,,,0,228,228,228,,,,,,,,,,,,,,,,,,,,,,,,,,,,,,,,,,,,,main,k,k,1,0.7871260000392795,731.355901199975,None,None,0,,,,,,,,,,,,,,128,22,Female,2022-05-11_11h18.25.123,Parachute,2022.1.1,59.95962320337596,
negative,blue,1,None,k,,,,,,,,,0,229,229,229,,,,,,,,,,,,,,,,,,,,,,,,,,,,,,,,,,,,,main,None,None,1,1.4929997998988256,733.1423496999778,None,None,1,,,,,,,,,,,,,,128,22,Female,2022-05-11_11h18.25.123,Parachute,2022.1.1,59.95962320337596,
positive,yellow,1,None,k,,,,,,,,,0,230,230,230,,,,,,,,,,,,,,,,,,,,,,,,,,,,,,,,,,,,,main,None,None,1,1.4991817999398336,735.6385125999805,None,None,1,,,,,,,,,,,,,,128,22,Female,2022-05-11_11h18.25.123,Parachute,2022.1.1,59.95962320337596,
negative,blue,2,None,k,,,,,,,,,0,231,231,231,,,,,,,,,,,,,,,,,,,,,,,,,,,,,,,,,,,,,main,None,None,1,1.498241199995391,738.1390761999646,None,None,1,,,,,,,,,,,,,,128,22,Female,2022-05-11_11h18.25.123,Parachute,2022.1.1,59.95962320337596,
negative,red,1,None,None,,,,,,,,,0,232,232,232,,,,,,,,,,,,,,,,,,,,,,,,,,,,,,,,,,,,,main,None,None,1,1.4993088999763131,740.6384825999849,None,None,1,,,,,,,,,,,,,,128,22,Female,2022-05-11_11h18.25.123,Parachute,2022.1.1,59.95962320337596,
positive,blue,2,k,None,,,,,,,,,0,233,233,233,,,,,,,,,,,,,,,,,,,,,,,,,,,,,,,,,,,,,main,k,k,1,1.2202958000125363,743.1395071999868,None,None,0,,,,,,,,,,,,,,128,22,Female,2022-05-11_11h18.25.123,Parachute,2022.1.1,59.95962320337596,
negative,yellow,1,k,None,,,,,,,,,0,234,234,234,,,,,,,,,,,,,,,,,,,,,,,,,,,,,,,,,,,,,main,k,k,1,1.074388699955307,745.3591429999797,None,None,0,,,,,,,,,,,,,,128,22,Female,2022-05-11_11h18.25.123,Parachute,2022.1.1,59.95962320337596,
negative,yellow,2,k,None,,,,,,,,,0,235,235,235,,,,,,,,,,,,,,,,,,,,,,,,,,,,,,,,,,,,,main,k,k,1,0.8065320999594405,747.4367733000545,None,None,0,,,,,,,,,,,,,,128,22,Female,2022-05-11_11h18.25.123,Parachute,2022.1.1,59.95962320337596,
positive,red,1,None,None,,,,,,,,,0,236,236,236,,,,,,,,,,,,,,,,,,,,,,,,,,,,,,,,,,,,,main,None,None,1,1.493695600074716,749.2423883000156,None,None,1,,,,,,,,,,,,,,128,22,Female,2022-05-11_11h18.25.123,Parachute,2022.1.1,59.95962320337596,
negative,red,2,None,None,,,,,,,,,0,237,237,237,,,,,,,,,,,,,,,,,,,,,,,,,,,,,,,,,,,,,main,None,None,1,1.4981455999659374,751.7398243000498,None,None,1,,,,,,,,,,,,,,128,22,Female,2022-05-11_11h18.25.123,Parachute,2022.1.1,59.95962320337596,
negative,blue,1,None,k,,,,,,,,,0,238,238,238,,,,,,,,,,,,,,,,,,,,,,,,,,,,,,,,,,,,,main,None,None,1,1.4983020999934524,754.2392026999732,None,None,1,,,,,,,,,,,,,,128,22,Female,2022-05-11_11h18.25.123,Parachute,2022.1.1,59.95962320337596,
positive,blue,1,k,None,,,,,,,,,0,239,239,239,,,,,,,,,,,,,,,,,,,,,,,,,,,,,,,,,,,,,main,k,k,1,1.0543395000277087,756.738642500015,None,None,0,,,,,,,,,,,,,,128,22,Female,2022-05-11_11h18.25.123,Parachute,2022.1.1,59.95962320337596,
,,,,,,,,,,,,,,,,,,,,,,,,,,,,,,,,,,,,,,,,,,,,,,,,,,,,,,,,,,,,,,,,,,,,,,,,,758.7890230000485,None,,,,,,,,
