distractor,target,set,ans1,ans2,rep_loop4.thisRepN,rep_loop4.thisTrialN,rep_loop4.thisN,rep_loop4.thisIndex,st2_prac_loop.thisRepN,st2_prac_loop.thisTrialN,st2_prac_loop.thisN,st2_prac_loop.thisIndex,st2_main_loop.thisRepN,st2_main_loop.thisTrialN,st2_main_loop.thisN,st2_main_loop.thisIndex,image_4.started,image_4.stopped,mouse_7.x,mouse_7.y,mouse_7.leftButton,mouse_7.midButton,mouse_7.rightButton,sound_2.started,sound_2.stopped,key_resp_3.keys,mouse_5.x,mouse_5.y,mouse_5.leftButton,mouse_5.midButton,mouse_5.rightButton,mouse_5.started,mouse_5.stopped,yes_text2.started,yes_text2.stopped,no_text2.started,no_text2.stopped,mouse_3.x,mouse_3.y,mouse_3.leftButton,mouse_3.midButton,mouse_3.rightButton,mouse_3.started,mouse_3.stopped,st_prac_back.started,st_prac_back.stopped,st_prac_text.started,st_prac_text.stopped,st_fix_back.started,st_fix_back.stopped,st_fix_2.started,st_fix_2.stopped,main_prac,st_ans,st_res,st_corr,st_rt,st_back.started,st_back.stopped,st2_resp.keys,st2_resp.corr,st_main_back.started,st_main_back.stopped,st_main_text.started,st_main_text.stopped,mouse_4.x,mouse_4.y,mouse_4.leftButton,mouse_4.midButton,mouse_4.rightButton,mouse_4.started,mouse_4.stopped,text_2.started,text_2.stopped,id*,age*,gender*,date,expName,psychopyVersion,frameRate,
,,,,,,,,,,,,,,,,,34.31140390003566,None,-0.25277779,-0.13981481,0,0,0,,,,,,,,,,,,,,,,,,,,,,,,,,,,,,,,,,,,,,,,,,,,,,,,,,,,129,20,Female,2022-05-11_12h41.29.648,Parachute,2022.1.1,60.06070939382316,
negative,yellow,1,k,None,,,,,0,0,0,0,,,,,,,,,,,,39.37284569005715,None,None,0.25462964,-0.4027778,0,0,0,1.0050761500606313,None,94.52477889996953,None,94.52477889996953,None,-0.11296296,-0.08888889,0,0,0,0.013161890092305839,None,96.42788570001721,None,96.42788570001721,None,98.44335780001711,None,98.44335780001711,None,prac,None,None,1,1.5096068000420928,100.45655809994787,None,None,1,,,,,,,,,,,,,,129,20,Female,2022-05-11_12h41.29.648,Parachute,2022.1.1,60.06070939382316,
positive,red,2,None,None,,,,,0,1,1,1,,,,,,,,,,,,,,,,,,,,,,,,,,,,,,,,,,,,,,,,,prac,None,None,1,1.498223999980837,102.94385389995296,None,None,1,,,,,,,,,,,,,,129,20,Female,2022-05-11_12h41.29.648,Parachute,2022.1.1,60.06070939382316,
negative,blue,2,None,k,,,,,0,2,2,2,,,,,,,,,,,,,,,,,,,,,,,,,,,,,,,,,,,,,,,,,prac,k,k,1,0.7547532001044601,105.44307979999576,None,None,0,,,,,,,,,,,,,,129,20,Female,2022-05-11_12h41.29.648,Parachute,2022.1.1,60.06070939382316,
positive,yellow,1,None,k,,,,,0,3,3,3,,,,,,,,,,,,,,,,,,,,,,,,,,,,,,,,,,,,,,,,,prac,k,k,1,0.7820078999502584,107.19741240004078,None,None,0,,,,,,,,,,,,,,129,20,Female,2022-05-11_12h41.29.648,Parachute,2022.1.1,60.06070939382316,
negative,blue,2,None,k,,,,,0,4,4,4,,,,,,,,,,,,,,,,,,,,,,,,,,,,,,,,,,,,,,,,,prac,k,k,1,0.8341857000486925,108.98065909999423,None,None,0,,,,,,,,,,,,,,129,20,Female,2022-05-11_12h41.29.648,Parachute,2022.1.1,60.06070939382316,
negative,blue,1,None,k,,,,,0,5,5,5,,,,,,,,,,,,,,,,,,,,,,,,,,,,,,,,,,,,,,,,,prac,k,k,1,0.7941449999343604,110.81641249998938,None,None,0,,,,,,,,,,,,,,129,20,Female,2022-05-11_12h41.29.648,Parachute,2022.1.1,60.06070939382316,
negative,yellow,2,k,None,,,,,0,6,6,6,,,,,,,,,,,,,,,,,,,,,,,,,,,,,,,,,,,,,,,,,prac,None,None,1,1.4949199000839144,112.61337010003626,None,None,1,,,,,,,,,,,,,,129,20,Female,2022-05-11_12h41.29.648,Parachute,2022.1.1,60.06070939382316,
negative,red,1,None,None,,,,,0,7,7,7,,,,,,,,,,,,,,,,,,,,,,,,,,,,,,,,,,,,,,,,,prac,None,None,1,1.499248299980536,115.110668099951,None,None,1,,,,,,,,,,,,,,129,20,Female,2022-05-11_12h41.29.648,Parachute,2022.1.1,60.06070939382316,
positive,yellow,2,None,k,,,,,0,8,8,8,,,,,,,,,,,,,,,,,,,,,,,,,,,,,,,,,,,,,,,,,prac,k,k,1,0.5873304000124335,117.61137349996716,None,None,0,,,,,,,,,,,,,,129,20,Female,2022-05-11_12h41.29.648,Parachute,2022.1.1,60.06070939382316,
negative,yellow,1,k,None,,,,,0,9,9,9,,,,,,,,,,,,,,,,,,,,,,,,,,,,,,,,,,,,,,,,,prac,None,None,1,1.4931281000608578,119.1975492000347,None,None,1,,,,,,,,,,,,,,129,20,Female,2022-05-11_12h41.29.648,Parachute,2022.1.1,60.06070939382316,
positive,yellow,2,None,k,,,,,0,10,10,10,,,,,,,,,,,,,,,,,,,,,,,,,,,,,,,,,,,,,,,,,prac,k,k,1,0.7707866000710055,121.69403020001482,None,None,0,,,,,,,,,,,,,,129,20,Female,2022-05-11_12h41.29.648,Parachute,2022.1.1,60.06070939382316,
negative,yellow,2,k,None,,,,,0,11,11,11,,,,,,,,,,,,,,,,,,,,,,,,,,,,,,,,,,,,,,,,,prac,None,None,1,1.4933841999154538,123.46465750003699,None,None,1,,,,,,,,,,,,,,129,20,Female,2022-05-11_12h41.29.648,Parachute,2022.1.1,60.06070939382316,
negative,red,2,None,None,,,,,0,12,12,12,,,,,,,,,,,,,,,,,,,,,,,,,,,,,,,,,,,,,,,,,prac,None,None,1,1.498886700021103,125.96106749994215,None,None,1,,,,,,,,,,,,,,129,20,Female,2022-05-11_12h41.29.648,Parachute,2022.1.1,60.06070939382316,
positive,red,1,None,None,,,,,0,13,13,13,,,,,,,,,,,,,,,,,,,,,,,,,,,,,,,,,,,,,,,,,prac,None,None,1,1.4990234000142664,128.46136469999328,None,None,1,,,,,,,,,,,,,,129,20,Female,2022-05-11_12h41.29.648,Parachute,2022.1.1,60.06070939382316,
positive,blue,2,k,None,,,,,0,14,14,14,,,,,,,,,,,,,,,,,,,,,,,,,,,,,,,,,,,,,,,,,prac,None,None,1,1.4980143000138924,130.96159950003494,None,None,1,,,,,,,,,,,,,,129,20,Female,2022-05-11_12h41.29.648,Parachute,2022.1.1,60.06070939382316,
positive,blue,1,k,None,,,,,0,15,15,15,,,,,,,,,,,,,,,,,,,,,,,,,,,,,,,,,,,,,,,,,prac,None,None,1,1.5002778000198305,133.46103959996253,None,None,1,,,,,,,,,,,,,,129,20,Female,2022-05-11_12h41.29.648,Parachute,2022.1.1,60.06070939382316,
negative,blue,1,None,k,,,,,0,16,16,16,,,,,,,,,,,,,,,,,,,,,,,,,,,,,,,,,,,,,,,,,prac,k,k,1,0.6533321000169963,135.96315149997827,None,None,0,,,,,,,,,,,,,,129,20,Female,2022-05-11_12h41.29.648,Parachute,2022.1.1,60.06070939382316,
positive,blue,2,k,None,,,,,0,17,17,17,,,,,,,,,,,,,,,,,,,,,,,,,,,,,,,,,,,,,,,,,prac,None,None,1,1.4938791999593377,137.6153975999914,None,None,1,,,,,,,,,,,,,,129,20,Female,2022-05-11_12h41.29.648,Parachute,2022.1.1,60.06070939382316,
positive,blue,1,k,None,,,,,0,18,18,18,,,,,,,,,,,,,,,,,,,,,,,,,,,,,,,,,,,,,,,,,prac,None,None,1,1.4983856999315321,140.11332330002915,None,None,1,,,,,,,,,,,,,,129,20,Female,2022-05-11_12h41.29.648,Parachute,2022.1.1,60.06070939382316,
positive,yellow,1,None,k,,,,,0,19,19,19,,,,,,,,,,,,,,,,,,,,,,,,,,,,,,,,,,,,,,,,,prac,k,k,1,0.7028184999944642,142.61247339996044,None,None,0,,,,,,,,,,,,,,129,20,Female,2022-05-11_12h41.29.648,Parachute,2022.1.1,60.06070939382316,
negative,yellow,1,k,None,,,,,1,0,20,0,,,,,,,,,,,,,,,,,,,,,,,,,,,,,,,,,,,,,,,,,prac,None,None,1,1.4934275000123307,144.31429769995157,None,None,1,,,,,,,,,,,,,,129,20,Female,2022-05-11_12h41.29.648,Parachute,2022.1.1,60.06070939382316,
positive,red,2,None,None,,,,,1,1,21,1,,,,,,,,,,,,,,,,,,,,,,,,,,,,,,,,,,,,,,,,,prac,None,None,1,1.4990207999944687,146.8108114999486,None,None,1,,,,,,,,,,,,,,129,20,Female,2022-05-11_12h41.29.648,Parachute,2022.1.1,60.06070939382316,
negative,blue,2,None,k,,,,,1,2,22,2,,,,,,,,,,,,,,,,,,,,,,,,,,,,,,,,,,,,,,,,,prac,k,k,1,0.9541480999905616,149.311120999977,None,None,0,,,,,,,,,,,,,,129,20,Female,2022-05-11_12h41.29.648,Parachute,2022.1.1,60.06070939382316,
positive,yellow,1,None,k,,,,,1,3,23,3,,,,,,,,,,,,,,,,,,,,,,,,,,,,,,,,,,,,,,,,,prac,k,k,1,0.6988778000231832,151.26469550002366,None,None,0,,,,,,,,,,,,,,129,20,Female,2022-05-11_12h41.29.648,Parachute,2022.1.1,60.06070939382316,
negative,blue,2,None,k,,,,,1,4,24,4,,,,,,,,,,,,,,,,,,,,,,,,,,,,,,,,,,,,,,,,,prac,k,k,1,0.6980426999507472,152.96510290005244,None,None,0,,,,,,,,,,,,,,129,20,Female,2022-05-11_12h41.29.648,Parachute,2022.1.1,60.06070939382316,
negative,blue,1,None,k,,,,,1,5,25,5,,,,,,,,,,,,,,,,,,,,,,,,,,,,,,,,,,,,,,,,,prac,k,k,1,1.099274699925445,154.66489749995526,None,None,0,,,,,,,,,,,,,,129,20,Female,2022-05-11_12h41.29.648,Parachute,2022.1.1,60.06070939382316,
negative,yellow,2,k,None,,,,,1,6,26,6,,,,,,,,,,,,,,,,,,,,,,,,,,,,,,,,,,,,,,,,,prac,None,None,1,1.4934174000518396,156.76482429995667,None,None,1,,,,,,,,,,,,,,129,20,Female,2022-05-11_12h41.29.648,Parachute,2022.1.1,60.06070939382316,
negative,red,1,None,None,,,,,1,7,27,7,,,,,,,,,,,,,,,,,,,,,,,,,,,,,,,,,,,,,,,,,prac,None,None,1,1.4987434999784455,159.26193599996623,None,None,1,,,,,,,,,,,,,,129,20,Female,2022-05-11_12h41.29.648,Parachute,2022.1.1,60.06070939382316,
positive,yellow,2,None,k,,,,,1,8,28,8,,,,,,,,,,,,,,,,,,,,,,,,,,,,,,,,,,,,,,,,,prac,k,k,1,0.6209724999498576,161.7618428999558,None,None,0,,,,,,,,,,,,,,129,20,Female,2022-05-11_12h41.29.648,Parachute,2022.1.1,60.06070939382316,
negative,yellow,1,k,None,,,,,1,9,29,9,,,,,,,,,,,,,,,,,,,,,,,,,,,,,,,,,,,,,,,,,prac,None,None,1,1.4926042000297457,163.38218059996143,None,None,1,,,,,,,,,,,,,,129,20,Female,2022-05-11_12h41.29.648,Parachute,2022.1.1,60.06070939382316,
positive,yellow,2,None,k,,,,,1,10,30,10,,,,,,,,,,,,,,,,,,,,,,,,,,,,,,,,,,,,,,,,,prac,k,k,1,0.6386190000921488,165.87834209995344,None,None,0,,,,,,,,,,,,,,129,20,Female,2022-05-11_12h41.29.648,Parachute,2022.1.1,60.06070939382316,
negative,yellow,2,k,None,,,,,1,11,31,11,,,,,,,,,,,,,,,,,,,,,,,,,,,,,,,,,,,,,,,,,prac,None,None,1,1.5085188000230119,167.51659719995223,None,None,1,,,,,,,,,,,,,,129,20,Female,2022-05-11_12h41.29.648,Parachute,2022.1.1,60.06070939382316,
negative,red,2,None,None,,,,,1,12,32,12,,,,,,,,,,,,,,,,,,,,,,,,,,,,,,,,,,,,,,,,,prac,None,None,1,1.4989635000238195,170.02838140004314,None,None,1,,,,,,,,,,,,,,129,20,Female,2022-05-11_12h41.29.648,Parachute,2022.1.1,60.06070939382316,
positive,red,1,None,None,,,,,1,13,33,13,,,,,,,,,,,,,,,,,,,,,,,,,,,,,,,,,,,,,,,,,prac,None,None,1,1.4985429000807926,172.5295609999448,None,None,1,,,,,,,,,,,,,,129,20,Female,2022-05-11_12h41.29.648,Parachute,2022.1.1,60.06070939382316,
positive,blue,2,k,None,,,,,1,14,34,14,,,,,,,,,,,,,,,,,,,,,,,,,,,,,,,,,,,,,,,,,prac,None,None,1,1.4986308000516146,175.02938419999555,None,None,1,,,,,,,,,,,,,,129,20,Female,2022-05-11_12h41.29.648,Parachute,2022.1.1,60.06070939382316,
positive,blue,1,k,None,,,,,1,15,35,15,,,,,,,,,,,,,,,,,,,,,,,,,,,,,,,,,,,,,,,,,prac,None,None,1,1.498222199967131,177.52963550004642,None,None,1,,,,,,,,,,,,,,129,20,Female,2022-05-11_12h41.29.648,Parachute,2022.1.1,60.06070939382316,
negative,blue,1,None,k,,,,,1,16,36,16,,,,,,,,,,,,,,,,,,,,,,,,,,,,,,,,,,,,,,,,,prac,k,k,1,0.519754899898544,180.02944439998828,None,None,0,,,,,,,,,,,,,,129,20,Female,2022-05-11_12h41.29.648,Parachute,2022.1.1,60.06070939382316,
positive,blue,2,k,None,,,,,1,17,37,17,,,,,,,,,,,,,,,,,,,,,,,,,,,,,,,,,,,,,,,,,prac,None,None,1,1.4942881999304518,181.54841109993868,None,None,1,,,,,,,,,,,,,,129,20,Female,2022-05-11_12h41.29.648,Parachute,2022.1.1,60.06070939382316,
positive,blue,1,k,None,,,,,1,18,38,18,,,,,,,,,,,,,,,,,,,,,,,,,,,,,,,,,,,,,,,,,prac,None,None,1,1.4987318000057712,184.0457888999954,None,None,1,,,,,,,,,,,,,,129,20,Female,2022-05-11_12h41.29.648,Parachute,2022.1.1,60.06070939382316,
positive,yellow,1,None,k,,,,,1,19,39,19,,,,,,,,,,,,,,,,,,,,,,,,,,,,,,,,,,,,,,,,,prac,k,k,1,0.9639826000202447,186.5460538000334,None,None,0,,,,,,,,,,,,,,129,20,Female,2022-05-11_12h41.29.648,Parachute,2022.1.1,60.06070939382316,
,,,,,,,,,,,,,,,,,,,,,,,,,,,,,,,,,,,,,,,,,,,,,,,,,,,,,,,,,,,,,,188.53211339993868,None,188.53211339993868,None,0.062962964,-0.073148146,0,0,0,0.012636689934879541,None,,,129,20,Female,2022-05-11_12h41.29.648,Parachute,2022.1.1,60.06070939382316,
negative,yellow,2,k,None,,,,,,,,,0,0,0,0,,,,,,,,,,,,,,,,,,,,,,,,,,,,,,,,,195.12761359999422,None,195.12761359999422,None,main,None,None,1,1.4949464000528678,197.16324659995735,None,None,1,,,,,,,,,,,,,,129,20,Female,2022-05-11_12h41.29.648,Parachute,2022.1.1,60.06070939382316,
positive,red,1,None,None,,,,,,,,,0,1,1,1,,,,,,,,,,,,,,,,,,,,,,,,,,,,,,,,,,,,,main,None,None,1,1.4982732998905703,199.66320469998755,None,None,1,,,,,,,,,,,,,,129,20,Female,2022-05-11_12h41.29.648,Parachute,2022.1.1,60.06070939382316,
positive,blue,2,k,None,,,,,,,,,0,2,2,2,,,,,,,,,,,,,,,,,,,,,,,,,,,,,,,,,,,,,main,None,None,1,1.4988734000362456,202.16186290001497,None,None,1,,,,,,,,,,,,,,129,20,Female,2022-05-11_12h41.29.648,Parachute,2022.1.1,60.06070939382316,
positive,blue,1,k,None,,,,,,,,,0,3,3,3,,,,,,,,,,,,,,,,,,,,,,,,,,,,,,,,,,,,,main,None,None,1,1.4987667999230325,204.66323089995421,None,None,1,,,,,,,,,,,,,,129,20,Female,2022-05-11_12h41.29.648,Parachute,2022.1.1,60.06070939382316,
negative,yellow,2,k,None,,,,,,,,,0,4,4,4,,,,,,,,,,,,,,,,,,,,,,,,,,,,,,,,,,,,,main,None,None,1,1.4986752000404522,207.16263499995694,None,None,1,,,,,,,,,,,,,,129,20,Female,2022-05-11_12h41.29.648,Parachute,2022.1.1,60.06070939382316,
positive,yellow,2,None,k,,,,,,,,,0,5,5,5,,,,,,,,,,,,,,,,,,,,,,,,,,,,,,,,,,,,,main,k,k,1,0.7379531000042334,209.66293200000655,None,None,0,,,,,,,,,,,,,,129,20,Female,2022-05-11_12h41.29.648,Parachute,2022.1.1,60.06070939382316,
negative,blue,2,None,k,,,,,,,,,0,6,6,6,,,,,,,,,,,,,,,,,,,,,,,,,,,,,,,,,,,,,main,k,k,1,0.7308785000350326,211.39989190001506,None,None,0,,,,,,,,,,,,,,129,20,Female,2022-05-11_12h41.29.648,Parachute,2022.1.1,60.06070939382316,
positive,red,2,None,None,,,,,,,,,0,7,7,7,,,,,,,,,,,,,,,,,,,,,,,,,,,,,,,,,,,,,main,None,None,1,1.4963748999871314,213.13269070000388,None,None,1,,,,,,,,,,,,,,129,20,Female,2022-05-11_12h41.29.648,Parachute,2022.1.1,60.06070939382316,
positive,yellow,1,None,k,,,,,,,,,0,8,8,8,,,,,,,,,,,,,,,,,,,,,,,,,,,,,,,,,,,,,main,k,k,1,0.7007983000949025,215.631922999979,None,None,0,,,,,,,,,,,,,,129,20,Female,2022-05-11_12h41.29.648,Parachute,2022.1.1,60.06070939382316,
negative,red,1,None,None,,,,,,,,,0,9,9,9,,,,,,,,,,,,,,,,,,,,,,,,,,,,,,,,,,,,,main,None,None,1,1.493183400016278,217.3327919000294,None,None,1,,,,,,,,,,,,,,129,20,Female,2022-05-11_12h41.29.648,Parachute,2022.1.1,60.06070939382316,
positive,yellow,1,None,k,,,,,,,,,0,10,10,10,,,,,,,,,,,,,,,,,,,,,,,,,,,,,,,,,,,,,main,k,k,1,0.6376333000371233,219.83030569995753,None,None,0,,,,,,,,,,,,,,129,20,Female,2022-05-11_12h41.29.648,Parachute,2022.1.1,60.06070939382316,
negative,yellow,1,k,None,,,,,,,,,0,11,11,11,,,,,,,,,,,,,,,,,,,,,,,,,,,,,,,,,,,,,main,None,None,1,1.4935142999747768,221.46605749998707,None,None,1,,,,,,,,,,,,,,129,20,Female,2022-05-11_12h41.29.648,Parachute,2022.1.1,60.06070939382316,
negative,yellow,1,k,None,,,,,,,,,0,12,12,12,,,,,,,,,,,,,,,,,,,,,,,,,,,,,,,,,,,,,main,None,k,0,0.5877555999904871,223.96271540003363,None,None,1,,,,,,,,,,,,,,129,20,Female,2022-05-11_12h41.29.648,Parachute,2022.1.1,60.06070939382316,
negative,red,2,None,None,,,,,,,,,0,13,13,13,,,,,,,,,,,,,,,,,,,,,,,,,,,,,,,,,,,,,main,None,None,1,1.5019476999295875,226.59387199999765,None,None,1,,,,,,,,,,,,,,129,20,Female,2022-05-11_12h41.29.648,Parachute,2022.1.1,60.06070939382316,
positive,yellow,2,None,k,,,,,,,,,0,14,14,14,,,,,,,,,,,,,,,,,,,,,,,,,,,,,,,,,,,,,main,k,k,1,0.7526614000089467,229.09765929996502,None,None,0,,,,,,,,,,,,,,129,20,Female,2022-05-11_12h41.29.648,Parachute,2022.1.1,60.06070939382316,
positive,blue,1,k,None,,,,,,,,,0,15,15,15,,,,,,,,,,,,,,,,,,,,,,,,,,,,,,,,,,,,,main,None,None,1,1.494397700065747,230.8502310999902,None,None,1,,,,,,,,,,,,,,129,20,Female,2022-05-11_12h41.29.648,Parachute,2022.1.1,60.06070939382316,
negative,blue,1,None,k,,,,,,,,,0,16,16,16,,,,,,,,,,,,,,,,,,,,,,,,,,,,,,,,,,,,,main,k,k,1,0.7029980999650434,233.34722849994432,None,None,0,,,,,,,,,,,,,,129,20,Female,2022-05-11_12h41.29.648,Parachute,2022.1.1,60.06070939382316,
positive,blue,2,k,None,,,,,,,,,0,17,17,17,,,,,,,,,,,,,,,,,,,,,,,,,,,,,,,,,,,,,main,None,None,1,1.4939313000068069,235.04939639999066,None,None,1,,,,,,,,,,,,,,129,20,Female,2022-05-11_12h41.29.648,Parachute,2022.1.1,60.06070939382316,
negative,blue,2,None,k,,,,,,,,,0,18,18,18,,,,,,,,,,,,,,,,,,,,,,,,,,,,,,,,,,,,,main,k,k,1,0.9214258000720292,237.54806159995496,None,None,0,,,,,,,,,,,,,,129,20,Female,2022-05-11_12h41.29.648,Parachute,2022.1.1,60.06070939382316,
negative,blue,1,None,k,,,,,,,,,0,19,19,19,,,,,,,,,,,,,,,,,,,,,,,,,,,,,,,,,,,,,main,k,k,1,0.6989058000035584,239.46787299995776,None,None,0,,,,,,,,,,,,,,129,20,Female,2022-05-11_12h41.29.648,Parachute,2022.1.1,60.06070939382316,
negative,blue,1,None,k,,,,,,,,,0,20,20,20,,,,,,,,,,,,,,,,,,,,,,,,,,,,,,,,,,,,,main,k,k,1,0.9311389999929816,241.1677351000253,None,None,0,,,,,,,,,,,,,,129,20,Female,2022-05-11_12h41.29.648,Parachute,2022.1.1,60.06070939382316,
negative,blue,2,None,k,,,,,,,,,0,21,21,21,,,,,,,,,,,,,,,,,,,,,,,,,,,,,,,,,,,,,main,k,k,1,0.7806677999906242,243.0997478000354,None,None,0,,,,,,,,,,,,,,129,20,Female,2022-05-11_12h41.29.648,Parachute,2022.1.1,60.06070939382316,
negative,red,1,None,None,,,,,,,,,0,22,22,22,,,,,,,,,,,,,,,,,,,,,,,,,,,,,,,,,,,,,main,None,None,1,1.4939423000905663,244.8827588999411,None,None,1,,,,,,,,,,,,,,129,20,Female,2022-05-11_12h41.29.648,Parachute,2022.1.1,60.06070939382316,
positive,red,2,None,None,,,,,,,,,0,23,23,23,,,,,,,,,,,,,,,,,,,,,,,,,,,,,,,,,,,,,main,None,None,1,1.4986288999207318,247.3802114999853,None,None,1,,,,,,,,,,,,,,129,20,Female,2022-05-11_12h41.29.648,Parachute,2022.1.1,60.06070939382316,
negative,red,2,None,None,,,,,,,,,0,24,24,24,,,,,,,,,,,,,,,,,,,,,,,,,,,,,,,,,,,,,main,None,None,1,1.4991106000961736,249.8805815000087,None,None,1,,,,,,,,,,,,,,129,20,Female,2022-05-11_12h41.29.648,Parachute,2022.1.1,60.06070939382316,
positive,blue,2,k,None,,,,,,,,,0,25,25,25,,,,,,,,,,,,,,,,,,,,,,,,,,,,,,,,,,,,,main,None,None,1,1.4987557999556884,252.38073850004002,None,None,1,,,,,,,,,,,,,,129,20,Female,2022-05-11_12h41.29.648,Parachute,2022.1.1,60.06070939382316,
negative,yellow,1,k,None,,,,,,,,,0,26,26,26,,,,,,,,,,,,,,,,,,,,,,,,,,,,,,,,,,,,,main,None,None,1,1.4981791999889538,254.88037559995428,None,None,1,,,,,,,,,,,,,,129,20,Female,2022-05-11_12h41.29.648,Parachute,2022.1.1,60.06070939382316,
positive,blue,2,k,None,,,,,,,,,0,27,27,27,,,,,,,,,,,,,,,,,,,,,,,,,,,,,,,,,,,,,main,None,None,1,1.4989609000040218,257.37995970004704,None,None,1,,,,,,,,,,,,,,129,20,Female,2022-05-11_12h41.29.648,Parachute,2022.1.1,60.06070939382316,
negative,blue,2,None,k,,,,,,,,,0,28,28,28,,,,,,,,,,,,,,,,,,,,,,,,,,,,,,,,,,,,,main,k,k,1,0.7209863000316545,259.8808365999721,None,None,0,,,,,,,,,,,,,,129,20,Female,2022-05-11_12h41.29.648,Parachute,2022.1.1,60.06070939382316,
positive,red,1,None,None,,,,,,,,,0,29,29,29,,,,,,,,,,,,,,,,,,,,,,,,,,,,,,,,,,,,,main,None,None,1,1.4931728000519797,261.6005942999618,None,None,1,,,,,,,,,,,,,,129,20,Female,2022-05-11_12h41.29.648,Parachute,2022.1.1,60.06070939382316,
positive,blue,1,k,None,,,,,,,,,0,30,30,30,,,,,,,,,,,,,,,,,,,,,,,,,,,,,,,,,,,,,main,None,None,1,1.498448699945584,264.097525899997,None,None,1,,,,,,,,,,,,,,129,20,Female,2022-05-11_12h41.29.648,Parachute,2022.1.1,60.06070939382316,
positive,yellow,1,None,k,,,,,,,,,0,31,31,31,,,,,,,,,,,,,,,,,,,,,,,,,,,,,,,,,,,,,main,k,k,1,0.7208619000157341,266.59749209997244,None,None,0,,,,,,,,,,,,,,129,20,Female,2022-05-11_12h41.29.648,Parachute,2022.1.1,60.06070939382316,
negative,yellow,2,k,None,,,,,,,,,0,32,32,32,,,,,,,,,,,,,,,,,,,,,,,,,,,,,,,,,,,,,main,None,None,1,1.4931594000663608,268.3174796999665,None,None,1,,,,,,,,,,,,,,129,20,Female,2022-05-11_12h41.29.648,Parachute,2022.1.1,60.06070939382316,
negative,blue,1,None,k,,,,,,,,,0,33,33,33,,,,,,,,,,,,,,,,,,,,,,,,,,,,,,,,,,,,,main,k,k,1,0.7706772000528872,270.8142035000492,None,None,0,,,,,,,,,,,,,,129,20,Female,2022-05-11_12h41.29.648,Parachute,2022.1.1,60.06070939382316,
positive,blue,1,k,None,,,,,,,,,0,34,34,34,,,,,,,,,,,,,,,,,,,,,,,,,,,,,,,,,,,,,main,None,None,1,1.4939108999678865,272.5837180999806,None,None,1,,,,,,,,,,,,,,129,20,Female,2022-05-11_12h41.29.648,Parachute,2022.1.1,60.06070939382316,
negative,yellow,1,k,None,,,,,,,,,0,35,35,35,,,,,,,,,,,,,,,,,,,,,,,,,,,,,,,,,,,,,main,None,None,1,1.4986938000656664,275.0810457000043,None,None,1,,,,,,,,,,,,,,129,20,Female,2022-05-11_12h41.29.648,Parachute,2022.1.1,60.06070939382316,
positive,yellow,2,None,k,,,,,,,,,0,36,36,36,,,,,,,,,,,,,,,,,,,,,,,,,,,,,,,,,,,,,main,k,k,1,0.6039639000082389,277.58175510005094,None,None,0,,,,,,,,,,,,,,129,20,Female,2022-05-11_12h41.29.648,Parachute,2022.1.1,60.06070939382316,
positive,yellow,2,None,k,,,,,,,,,0,37,37,37,,,,,,,,,,,,,,,,,,,,,,,,,,,,,,,,,,,,,main,k,k,1,0.7489618000108749,279.18414290004876,None,None,0,,,,,,,,,,,,,,129,20,Female,2022-05-11_12h41.29.648,Parachute,2022.1.1,60.06070939382316,
negative,yellow,2,k,None,,,,,,,,,0,38,38,38,,,,,,,,,,,,,,,,,,,,,,,,,,,,,,,,,,,,,main,None,None,1,1.492600700003095,280.93452450004406,None,None,1,,,,,,,,,,,,,,129,20,Female,2022-05-11_12h41.29.648,Parachute,2022.1.1,60.06070939382316,
positive,yellow,1,None,k,,,,,,,,,0,39,39,39,,,,,,,,,,,,,,,,,,,,,,,,,,,,,,,,,,,,,main,k,k,1,0.6882628999883309,283.43055439996533,None,None,0,,,,,,,,,,,,,,129,20,Female,2022-05-11_12h41.29.648,Parachute,2022.1.1,60.06070939382316,
negative,yellow,2,k,None,,,,,,,,,0,40,40,40,,,,,,,,,,,,,,,,,,,,,,,,,,,,,,,,,,,,,main,None,None,1,1.4930295000085607,285.1180322000291,None,None,1,,,,,,,,,,,,,,129,20,Female,2022-05-11_12h41.29.648,Parachute,2022.1.1,60.06070939382316,
positive,blue,2,k,None,,,,,,,,,0,41,41,41,,,,,,,,,,,,,,,,,,,,,,,,,,,,,,,,,,,,,main,None,None,1,1.499010800034739,287.6148535000393,None,None,1,,,,,,,,,,,,,,129,20,Female,2022-05-11_12h41.29.648,Parachute,2022.1.1,60.06070939382316,
positive,blue,2,k,None,,,,,,,,,0,42,42,42,,,,,,,,,,,,,,,,,,,,,,,,,,,,,,,,,,,,,main,None,None,1,1.4981261999346316,290.11502799997106,None,None,1,,,,,,,,,,,,,,129,20,Female,2022-05-11_12h41.29.648,Parachute,2022.1.1,60.06070939382316,
negative,blue,2,None,k,,,,,,,,,0,43,43,43,,,,,,,,,,,,,,,,,,,,,,,,,,,,,,,,,,,,,main,k,k,1,0.6891983000095934,292.6143365999451,None,None,0,,,,,,,,,,,,,,129,20,Female,2022-05-11_12h41.29.648,Parachute,2022.1.1,60.06070939382316,
negative,red,1,None,None,,,,,,,,,0,44,44,44,,,,,,,,,,,,,,,,,,,,,,,,,,,,,,,,,,,,,main,None,None,1,1.5079275000607595,294.3034223000286,None,None,1,,,,,,,,,,,,,,129,20,Female,2022-05-11_12h41.29.648,Parachute,2022.1.1,60.06070939382316,
negative,yellow,1,k,None,,,,,,,,,0,45,45,45,,,,,,,,,,,,,,,,,,,,,,,,,,,,,,,,,,,,,main,None,None,1,1.4986338999588042,296.81413760001305,None,None,1,,,,,,,,,,,,,,129,20,Female,2022-05-11_12h41.29.648,Parachute,2022.1.1,60.06070939382316,
negative,yellow,1,k,None,,,,,,,,,0,46,46,46,,,,,,,,,,,,,,,,,,,,,,,,,,,,,,,,,,,,,main,None,None,1,1.4988943999633193,299.3148259000154,None,None,1,,,,,,,,,,,,,,129,20,Female,2022-05-11_12h41.29.648,Parachute,2022.1.1,60.06070939382316,
positive,red,1,None,None,,,,,,,,,0,47,47,47,,,,,,,,,,,,,,,,,,,,,,,,,,,,,,,,,,,,,main,None,None,1,1.4991384000750259,301.8144016000442,None,None,1,,,,,,,,,,,,,,129,20,Female,2022-05-11_12h41.29.648,Parachute,2022.1.1,60.06070939382316,
positive,yellow,1,None,k,,,,,,,,,0,48,48,48,,,,,,,,,,,,,,,,,,,,,,,,,,,,,,,,,,,,,main,k,k,1,1.037340399925597,304.31514870002866,None,None,0,,,,,,,,,,,,,,129,20,Female,2022-05-11_12h41.29.648,Parachute,2022.1.1,60.06070939382316,
negative,blue,1,None,k,,,,,,,,,0,49,49,49,,,,,,,,,,,,,,,,,,,,,,,,,,,,,,,,,,,,,main,k,k,1,0.8156993000302464,306.3514619000489,None,None,0,,,,,,,,,,,,,,129,20,Female,2022-05-11_12h41.29.648,Parachute,2022.1.1,60.06070939382316,
positive,yellow,2,None,k,,,,,,,,,0,50,50,50,,,,,,,,,,,,,,,,,,,,,,,,,,,,,,,,,,,,,main,k,k,1,0.714624400017783,308.1685220999643,None,None,0,,,,,,,,,,,,,,129,20,Female,2022-05-11_12h41.29.648,Parachute,2022.1.1,60.06070939382316,
negative,blue,1,None,k,,,,,,,,,0,51,51,51,,,,,,,,,,,,,,,,,,,,,,,,,,,,,,,,,,,,,main,k,k,1,0.5308735999278724,309.8863317000214,None,None,0,,,,,,,,,,,,,,129,20,Female,2022-05-11_12h41.29.648,Parachute,2022.1.1,60.06070939382316,
positive,red,2,None,None,,,,,,,,,0,52,52,52,,,,,,,,,,,,,,,,,,,,,,,,,,,,,,,,,,,,,main,None,None,1,1.492918899981305,311.41825300001074,None,None,1,,,,,,,,,,,,,,129,20,Female,2022-05-11_12h41.29.648,Parachute,2022.1.1,60.06070939382316,
positive,yellow,2,None,k,,,,,,,,,0,53,53,53,,,,,,,,,,,,,,,,,,,,,,,,,,,,,,,,,,,,,main,k,k,1,0.6878368000034243,313.9149699000409,None,None,0,,,,,,,,,,,,,,129,20,Female,2022-05-11_12h41.29.648,Parachute,2022.1.1,60.06070939382316,
negative,red,2,None,None,,,,,,,,,0,54,54,54,,,,,,,,,,,,,,,,,,,,,,,,,,,,,,,,,,,,,main,None,None,1,1.492930099950172,315.60169120004866,None,None,1,,,,,,,,,,,,,,129,20,Female,2022-05-11_12h41.29.648,Parachute,2022.1.1,60.06070939382316,
positive,yellow,1,None,k,,,,,,,,,0,55,55,55,,,,,,,,,,,,,,,,,,,,,,,,,,,,,,,,,,,,,main,k,k,1,0.6376880999887362,318.09815289999824,None,None,0,,,,,,,,,,,,,,129,20,Female,2022-05-11_12h41.29.648,Parachute,2022.1.1,60.06070939382316,
negative,blue,2,None,k,,,,,,,,,0,56,56,56,,,,,,,,,,,,,,,,,,,,,,,,,,,,,,,,,,,,,main,k,k,1,0.639897600049153,319.73472099995706,None,None,0,,,,,,,,,,,,,,129,20,Female,2022-05-11_12h41.29.648,Parachute,2022.1.1,60.06070939382316,
positive,blue,1,k,None,,,,,,,,,0,57,57,57,,,,,,,,,,,,,,,,,,,,,,,,,,,,,,,,,,,,,main,None,None,1,1.5021088999928907,321.37976180005353,None,None,1,,,,,,,,,,,,,,129,20,Female,2022-05-11_12h41.29.648,Parachute,2022.1.1,60.06070939382316,
positive,blue,1,k,None,,,,,,,,,0,58,58,58,,,,,,,,,,,,,,,,,,,,,,,,,,,,,,,,,,,,,main,None,None,1,1.499045699951239,323.8818419999443,None,None,1,,,,,,,,,,,,,,129,20,Female,2022-05-11_12h41.29.648,Parachute,2022.1.1,60.06070939382316,
negative,yellow,2,k,None,,,,,,,,,0,59,59,59,,,,,,,,,,,,,,,,,,,,,,,,,,,,,,,,,,,,,main,None,None,1,1.4988520999904722,326.38196449994575,None,None,1,,,,,,,,,,,,,,129,20,Female,2022-05-11_12h41.29.648,Parachute,2022.1.1,60.06070939382316,
positive,red,2,None,None,,,,,,,,,0,60,60,60,,,,,,,,,,,,,,,,,,,,,,,,,,,,,,,,,,,,,main,None,None,1,1.498210099991411,328.8822844000533,None,None,1,,,,,,,,,,,,,,129,20,Female,2022-05-11_12h41.29.648,Parachute,2022.1.1,60.06070939382316,
negative,yellow,1,k,None,,,,,,,,,0,61,61,61,,,,,,,,,,,,,,,,,,,,,,,,,,,,,,,,,,,,,main,None,None,1,1.499176500015892,331.381910600001,None,None,1,,,,,,,,,,,,,,129,20,Female,2022-05-11_12h41.29.648,Parachute,2022.1.1,60.06070939382316,
negative,red,1,None,None,,,,,,,,,0,62,62,62,,,,,,,,,,,,,,,,,,,,,,,,,,,,,,,,,,,,,main,None,None,1,1.4984366999706253,333.88215499999933,None,None,1,,,,,,,,,,,,,,129,20,Female,2022-05-11_12h41.29.648,Parachute,2022.1.1,60.06070939382316,
negative,blue,1,None,k,,,,,,,,,0,63,63,63,,,,,,,,,,,,,,,,,,,,,,,,,,,,,,,,,,,,,main,k,k,1,3.0547573999501765,336.38212540000677,None,None,0,,,,,,,,,,,,,,129,20,Female,2022-05-11_12h41.29.648,Parachute,2022.1.1,60.06070939382316,
positive,blue,2,k,None,,,,,,,,,0,64,64,64,,,,,,,,,,,,,,,,,,,,,,,,,,,,,,,,,,,,,main,None,None,1,1.5017387999687344,341.4471124999691,None,None,1,,,,,,,,,,,,,,129,20,Female,2022-05-11_12h41.29.648,Parachute,2022.1.1,60.06070939382316,
negative,yellow,2,k,None,,,,,,,,,0,65,65,65,,,,,,,,,,,,,,,,,,,,,,,,,,,,,,,,,,,,,main,None,None,1,1.4987078999402002,343.94918140000664,None,None,1,,,,,,,,,,,,,,129,20,Female,2022-05-11_12h41.29.648,Parachute,2022.1.1,60.06070939382316,
positive,yellow,2,None,k,,,,,,,,,0,66,66,66,,,,,,,,,,,,,,,,,,,,,,,,,,,,,,,,,,,,,main,k,k,1,0.653614400071092,346.4490065999562,None,None,0,,,,,,,,,,,,,,129,20,Female,2022-05-11_12h41.29.648,Parachute,2022.1.1,60.06070939382316,
positive,yellow,2,None,k,,,,,,,,,0,67,67,67,,,,,,,,,,,,,,,,,,,,,,,,,,,,,,,,,,,,,main,k,k,1,0.5657968999585137,348.10218980000354,None,None,0,,,,,,,,,,,,,,129,20,Female,2022-05-11_12h41.29.648,Parachute,2022.1.1,60.06070939382316,
positive,red,1,None,None,,,,,,,,,0,68,68,68,,,,,,,,,,,,,,,,,,,,,,,,,,,,,,,,,,,,,main,None,None,1,1.4937094000633806,349.6691029999638,None,None,1,,,,,,,,,,,,,,129,20,Female,2022-05-11_12h41.29.648,Parachute,2022.1.1,60.06070939382316,
positive,yellow,1,None,k,,,,,,,,,0,69,69,69,,,,,,,,,,,,,,,,,,,,,,,,,,,,,,,,,,,,,main,k,k,1,0.6041147999931127,352.1661900000181,None,None,0,,,,,,,,,,,,,,129,20,Female,2022-05-11_12h41.29.648,Parachute,2022.1.1,60.06070939382316,
negative,yellow,2,k,None,,,,,,,,,0,70,70,70,,,,,,,,,,,,,,,,,,,,,,,,,,,,,,,,,,,,,main,None,None,1,1.4927518999902532,353.7691129000159,None,None,1,,,,,,,,,,,,,,129,20,Female,2022-05-11_12h41.29.648,Parachute,2022.1.1,60.06070939382316,
positive,yellow,1,None,k,,,,,,,,,0,71,71,71,,,,,,,,,,,,,,,,,,,,,,,,,,,,,,,,,,,,,main,k,k,1,0.5710856999503449,356.2660116000334,None,None,0,,,,,,,,,,,,,,129,20,Female,2022-05-11_12h41.29.648,Parachute,2022.1.1,60.06070939382316,
negative,blue,1,None,k,,,,,,,,,0,72,72,72,,,,,,,,,,,,,,,,,,,,,,,,,,,,,,,,,,,,,main,k,k,1,0.6817800999851897,357.83587579999585,None,None,0,,,,,,,,,,,,,,129,20,Female,2022-05-11_12h41.29.648,Parachute,2022.1.1,60.06070939382316,
negative,red,2,None,None,,,,,,,,,0,73,73,73,,,,,,,,,,,,,,,,,,,,,,,,,,,,,,,,,,,,,main,None,None,1,1.4937761999899521,359.5191325000487,None,None,1,,,,,,,,,,,,,,129,20,Female,2022-05-11_12h41.29.648,Parachute,2022.1.1,60.06070939382316,
positive,blue,2,k,None,,,,,,,,,0,74,74,74,,,,,,,,,,,,,,,,,,,,,,,,,,,,,,,,,,,,,main,None,k,0,0.5702052999986336,362.0166492999997,None,None,1,,,,,,,,,,,,,,129,20,Female,2022-05-11_12h41.29.648,Parachute,2022.1.1,60.06070939382316,
negative,blue,2,None,k,,,,,,,,,0,75,75,75,,,,,,,,,,,,,,,,,,,,,,,,,,,,,,,,,,,,,main,k,k,1,0.572848999989219,364.5974963000044,None,None,0,,,,,,,,,,,,,,129,20,Female,2022-05-11_12h41.29.648,Parachute,2022.1.1,60.06070939382316,
negative,blue,2,None,k,,,,,,,,,0,76,76,76,,,,,,,,,,,,,,,,,,,,,,,,,,,,,,,,,,,,,main,k,k,1,0.5148617000086233,366.16992669994943,None,None,0,,,,,,,,,,,,,,129,20,Female,2022-05-11_12h41.29.648,Parachute,2022.1.1,60.06070939382316,
negative,yellow,1,k,None,,,,,,,,,0,77,77,77,,,,,,,,,,,,,,,,,,,,,,,,,,,,,,,,,,,,,main,None,None,1,1.4929922999581322,367.6869750999613,None,None,1,,,,,,,,,,,,,,129,20,Female,2022-05-11_12h41.29.648,Parachute,2022.1.1,60.06070939382316,
positive,blue,1,k,None,,,,,,,,,0,78,78,78,,,,,,,,,,,,,,,,,,,,,,,,,,,,,,,,,,,,,main,None,None,1,1.4991531999548897,370.1826108000241,None,None,1,,,,,,,,,,,,,,129,20,Female,2022-05-11_12h41.29.648,Parachute,2022.1.1,60.06070939382316,
positive,blue,1,k,None,,,,,,,,,0,79,79,79,,,,,,,,,,,,,,,,,,,,,,,,,,,,,,,,,,,,,main,None,None,1,1.4987938000122085,372.6830503999954,None,None,1,,,,,,,,,,,,,,129,20,Female,2022-05-11_12h41.29.648,Parachute,2022.1.1,60.06070939382316,
positive,red,2,None,None,,,,,,,,,0,80,80,80,,,,,,,,,,,,,,,,,,,,,,,,,,,,,,,,,,,,,main,None,None,1,1.49879390001297,375.18302290001884,None,None,1,,,,,,,,,,,,,,129,20,Female,2022-05-11_12h41.29.648,Parachute,2022.1.1,60.06070939382316,
positive,yellow,2,None,k,,,,,,,,,0,81,81,81,,,,,,,,,,,,,,,,,,,,,,,,,,,,,,,,,,,,,main,k,k,1,0.7038719999836758,377.6834265999496,None,None,0,,,,,,,,,,,,,,129,20,Female,2022-05-11_12h41.29.648,Parachute,2022.1.1,60.06070939382316,
positive,blue,1,k,None,,,,,,,,,0,82,82,82,,,,,,,,,,,,,,,,,,,,,,,,,,,,,,,,,,,,,main,None,None,1,1.4929819999961182,379.38641299994197,None,None,1,,,,,,,,,,,,,,129,20,Female,2022-05-11_12h41.29.648,Parachute,2022.1.1,60.06070939382316,
negative,yellow,2,k,None,,,,,,,,,0,83,83,83,,,,,,,,,,,,,,,,,,,,,,,,,,,,,,,,,,,,,main,None,None,1,1.4989318000152707,381.8828509999439,None,None,1,,,,,,,,,,,,,,129,20,Female,2022-05-11_12h41.29.648,Parachute,2022.1.1,60.06070939382316,
positive,blue,2,k,None,,,,,,,,,0,84,84,84,,,,,,,,,,,,,,,,,,,,,,,,,,,,,,,,,,,,,main,None,None,1,1.4991003000177443,384.383128699963,None,None,1,,,,,,,,,,,,,,129,20,Female,2022-05-11_12h41.29.648,Parachute,2022.1.1,60.06070939382316,
positive,yellow,1,None,k,,,,,,,,,0,85,85,85,,,,,,,,,,,,,,,,,,,,,,,,,,,,,,,,,,,,,main,k,k,1,0.7038488999241963,386.88342840003315,None,None,0,,,,,,,,,,,,,,129,20,Female,2022-05-11_12h41.29.648,Parachute,2022.1.1,60.06070939382316,
positive,blue,2,k,None,,,,,,,,,0,86,86,86,,,,,,,,,,,,,,,,,,,,,,,,,,,,,,,,,,,,,main,None,None,1,1.4931275999406353,388.5868131000316,None,None,1,,,,,,,,,,,,,,129,20,Female,2022-05-11_12h41.29.648,Parachute,2022.1.1,60.06070939382316,
positive,blue,1,k,None,,,,,,,,,0,87,87,87,,,,,,,,,,,,,,,,,,,,,,,,,,,,,,,,,,,,,main,None,None,1,1.4989478000206873,391.0830035000108,None,None,1,,,,,,,,,,,,,,129,20,Female,2022-05-11_12h41.29.648,Parachute,2022.1.1,60.06070939382316,
negative,yellow,2,k,None,,,,,,,,,0,88,88,88,,,,,,,,,,,,,,,,,,,,,,,,,,,,,,,,,,,,,main,None,None,1,1.498520000022836,393.5831936999457,None,None,1,,,,,,,,,,,,,,129,20,Female,2022-05-11_12h41.29.648,Parachute,2022.1.1,60.06070939382316,
negative,blue,2,None,k,,,,,,,,,0,89,89,89,,,,,,,,,,,,,,,,,,,,,,,,,,,,,,,,,,,,,main,k,k,1,0.8046258999966085,396.083003000007,None,None,0,,,,,,,,,,,,,,129,20,Female,2022-05-11_12h41.29.648,Parachute,2022.1.1,60.06070939382316,
positive,yellow,2,None,k,,,,,,,,,0,90,90,90,,,,,,,,,,,,,,,,,,,,,,,,,,,,,,,,,,,,,main,k,k,1,0.6650978999678046,397.88667949999217,None,None,0,,,,,,,,,,,,,,129,20,Female,2022-05-11_12h41.29.648,Parachute,2022.1.1,60.06070939382316,
negative,yellow,1,k,None,,,,,,,,,0,91,91,91,,,,,,,,,,,,,,,,,,,,,,,,,,,,,,,,,,,,,main,None,None,1,1.4933608999708667,399.5533020000439,None,None,1,,,,,,,,,,,,,,129,20,Female,2022-05-11_12h41.29.648,Parachute,2022.1.1,60.06070939382316,
negative,red,2,None,None,,,,,,,,,0,92,92,92,,,,,,,,,,,,,,,,,,,,,,,,,,,,,,,,,,,,,main,None,None,1,1.4987801000243053,402.05139299994335,None,None,1,,,,,,,,,,,,,,129,20,Female,2022-05-11_12h41.29.648,Parachute,2022.1.1,60.06070939382316,
negative,blue,2,None,k,,,,,,,,,0,93,93,93,,,,,,,,,,,,,,,,,,,,,,,,,,,,,,,,,,,,,main,k,k,1,0.8874925000127405,404.55137260002084,None,None,0,,,,,,,,,,,,,,129,20,Female,2022-05-11_12h41.29.648,Parachute,2022.1.1,60.06070939382316,
negative,blue,1,None,k,,,,,,,,,0,94,94,94,,,,,,,,,,,,,,,,,,,,,,,,,,,,,,,,,,,,,main,k,k,1,0.8141502999933437,406.43896739999764,None,None,0,,,,,,,,,,,,,,129,20,Female,2022-05-11_12h41.29.648,Parachute,2022.1.1,60.06070939382316,
negative,blue,1,None,k,,,,,,,,,0,95,95,95,,,,,,,,,,,,,,,,,,,,,,,,,,,,,,,,,,,,,main,k,k,1,0.5484513000119478,408.2532562999986,None,None,0,,,,,,,,,,,,,,129,20,Female,2022-05-11_12h41.29.648,Parachute,2022.1.1,60.06070939382316,
negative,red,1,None,None,,,,,,,,,0,96,96,96,,,,,,,,,,,,,,,,,,,,,,,,,,,,,,,,,,,,,main,None,None,1,1.4939270000904799,409.8034339000005,None,None,1,,,,,,,,,,,,,,129,20,Female,2022-05-11_12h41.29.648,Parachute,2022.1.1,60.06070939382316,
positive,yellow,1,None,k,,,,,,,,,0,97,97,97,,,,,,,,,,,,,,,,,,,,,,,,,,,,,,,,,,,,,main,k,k,1,0.5871322000166401,412.3014320000075,None,None,0,,,,,,,,,,,,,,129,20,Female,2022-05-11_12h41.29.648,Parachute,2022.1.1,60.06070939382316,
negative,yellow,1,k,None,,,,,,,,,0,98,98,98,,,,,,,,,,,,,,,,,,,,,,,,,,,,,,,,,,,,,main,None,None,1,1.4924790000077337,413.88822600001004,None,None,1,,,,,,,,,,,,,,129,20,Female,2022-05-11_12h41.29.648,Parachute,2022.1.1,60.06070939382316,
positive,red,1,None,None,,,,,,,,,0,99,99,99,,,,,,,,,,,,,,,,,,,,,,,,,,,,,,,,,,,,,main,None,None,1,1.4974639000138268,416.3860928999493,None,None,1,,,,,,,,,,,,,,129,20,Female,2022-05-11_12h41.29.648,Parachute,2022.1.1,60.06070939382316,
positive,blue,1,k,None,,,,,,,,,0,100,100,100,,,,,,,,,,,,,,,,,,,,,,,,,,,,,,,,,,,,,main,None,None,1,1.4977901000529528,418.8855248000473,None,None,1,,,,,,,,,,,,,,129,20,Female,2022-05-11_12h41.29.648,Parachute,2022.1.1,60.06070939382316,
negative,yellow,1,k,None,,,,,,,,,0,101,101,101,,,,,,,,,,,,,,,,,,,,,,,,,,,,,,,,,,,,,main,None,None,1,1.4976120999781415,421.38595719996374,None,None,1,,,,,,,,,,,,,,129,20,Female,2022-05-11_12h41.29.648,Parachute,2022.1.1,60.06070939382316,
negative,blue,2,None,k,,,,,,,,,0,102,102,102,,,,,,,,,,,,,,,,,,,,,,,,,,,,,,,,,,,,,main,k,k,1,0.7864957000128925,423.88574559998233,None,None,0,,,,,,,,,,,,,,129,20,Female,2022-05-11_12h41.29.648,Parachute,2022.1.1,60.06070939382316,
negative,yellow,2,k,None,,,,,,,,,0,103,103,103,,,,,,,,,,,,,,,,,,,,,,,,,,,,,,,,,,,,,main,None,None,1,1.4933814000105485,425.6712095999392,None,None,1,,,,,,,,,,,,,,129,20,Female,2022-05-11_12h41.29.648,Parachute,2022.1.1,60.06070939382316,
positive,yellow,2,None,k,,,,,,,,,0,104,104,104,,,,,,,,,,,,,,,,,,,,,,,,,,,,,,,,,,,,,main,k,k,1,0.5784272999735549,428.1685044999467,None,None,0,,,,,,,,,,,,,,129,20,Female,2022-05-11_12h41.29.648,Parachute,2022.1.1,60.06070939382316,
positive,blue,1,k,None,,,,,,,,,0,105,105,105,,,,,,,,,,,,,,,,,,,,,,,,,,,,,,,,,,,,,main,None,None,1,1.5016287999460474,429.7485196000198,None,None,1,,,,,,,,,,,,,,129,20,Female,2022-05-11_12h41.29.648,Parachute,2022.1.1,60.06070939382316,
positive,blue,2,k,None,,,,,,,,,0,106,106,106,,,,,,,,,,,,,,,,,,,,,,,,,,,,,,,,,,,,,main,None,None,1,1.4988668999867514,432.2510766000487,None,None,1,,,,,,,,,,,,,,129,20,Female,2022-05-11_12h41.29.648,Parachute,2022.1.1,60.06070939382316,
negative,blue,1,None,k,,,,,,,,,0,107,107,107,,,,,,,,,,,,,,,,,,,,,,,,,,,,,,,,,,,,,main,k,k,1,0.5536135999718681,434.7514061999973,None,None,0,,,,,,,,,,,,,,129,20,Female,2022-05-11_12h41.29.648,Parachute,2022.1.1,60.06070939382316,
positive,yellow,2,None,k,,,,,,,,,0,108,108,108,,,,,,,,,,,,,,,,,,,,,,,,,,,,,,,,,,,,,main,k,k,1,0.6653091000625864,436.3043787999777,None,None,0,,,,,,,,,,,,,,129,20,Female,2022-05-11_12h41.29.648,Parachute,2022.1.1,60.06070939382316,
negative,yellow,1,k,None,,,,,,,,,0,109,109,109,,,,,,,,,,,,,,,,,,,,,,,,,,,,,,,,,,,,,main,None,None,1,1.4939920000033453,437.97092939994764,None,None,1,,,,,,,,,,,,,,129,20,Female,2022-05-11_12h41.29.648,Parachute,2022.1.1,60.06070939382316,
negative,blue,2,None,k,,,,,,,,,0,110,110,110,,,,,,,,,,,,,,,,,,,,,,,,,,,,,,,,,,,,,main,k,k,1,0.6540329999988899,440.46855009999126,None,None,0,,,,,,,,,,,,,,129,20,Female,2022-05-11_12h41.29.648,Parachute,2022.1.1,60.06070939382316,
positive,blue,2,k,None,,,,,,,,,0,111,111,111,,,,,,,,,,,,,,,,,,,,,,,,,,,,,,,,,,,,,main,None,None,1,1.4928382000653073,442.12215459998697,None,None,1,,,,,,,,,,,,,,129,20,Female,2022-05-11_12h41.29.648,Parachute,2022.1.1,60.06070939382316,
negative,blue,1,None,k,,,,,,,,,0,112,112,112,,,,,,,,,,,,,,,,,,,,,,,,,,,,,,,,,,,,,main,k,k,1,0.7154204999096692,444.6181281999452,None,None,0,,,,,,,,,,,,,,129,20,Female,2022-05-11_12h41.29.648,Parachute,2022.1.1,60.06070939382316,
positive,yellow,1,None,k,,,,,,,,,0,113,113,113,,,,,,,,,,,,,,,,,,,,,,,,,,,,,,,,,,,,,main,k,k,1,0.7037689000135288,446.33499739994295,None,None,0,,,,,,,,,,,,,,129,20,Female,2022-05-11_12h41.29.648,Parachute,2022.1.1,60.06070939382316,
negative,red,1,None,None,,,,,,,,,0,114,114,114,,,,,,,,,,,,,,,,,,,,,,,,,,,,,,,,,,,,,main,None,None,1,1.4937184000154957,448.03768539999146,None,None,1,,,,,,,,,,,,,,129,20,Female,2022-05-11_12h41.29.648,Parachute,2022.1.1,60.06070939382316,
positive,red,1,None,None,,,,,,,,,0,115,115,115,,,,,,,,,,,,,,,,,,,,,,,,,,,,,,,,,,,,,main,None,None,1,1.4985155999893323,450.53494010004215,None,None,1,,,,,,,,,,,,,,129,20,Female,2022-05-11_12h41.29.648,Parachute,2022.1.1,60.06070939382316,
negative,red,2,None,None,,,,,,,,,0,116,116,116,,,,,,,,,,,,,,,,,,,,,,,,,,,,,,,,,,,,,main,None,None,1,1.4986146000446752,453.03468989999965,None,None,1,,,,,,,,,,,,,,129,20,Female,2022-05-11_12h41.29.648,Parachute,2022.1.1,60.06070939382316,
negative,yellow,2,k,None,,,,,,,,,0,117,117,117,,,,,,,,,,,,,,,,,,,,,,,,,,,,,,,,,,,,,main,None,None,1,1.498992700013332,455.53455770004075,None,None,1,,,,,,,,,,,,,,129,20,Female,2022-05-11_12h41.29.648,Parachute,2022.1.1,60.06070939382316,
positive,yellow,1,None,k,,,,,,,,,0,118,118,118,,,,,,,,,,,,,,,,,,,,,,,,,,,,,,,,,,,,,main,k,k,1,0.6035393999191001,458.03506709996145,None,None,0,,,,,,,,,,,,,,129,20,Female,2022-05-11_12h41.29.648,Parachute,2022.1.1,60.06070939382316,
positive,red,2,None,None,,,,,,,,,0,119,119,119,,,,,,,,,,,,,,,,,,,,,,,,,,,,,,,,,,,,,main,None,None,1,1.4939305000007153,459.6377568000462,None,None,1,,,,,,,,,,,,,,129,20,Female,2022-05-11_12h41.29.648,Parachute,2022.1.1,60.06070939382316,
positive,blue,2,k,None,,,,,,,,,0,120,120,120,,,,,,,,,,,,,,,,,,,,,,,,,,,,,,,,,,,,,main,None,None,1,1.4988212999887764,462.13476779998746,None,None,1,,,,,,,,,,,,,,129,20,Female,2022-05-11_12h41.29.648,Parachute,2022.1.1,60.06070939382316,
negative,red,1,None,None,,,,,,,,,0,121,121,121,,,,,,,,,,,,,,,,,,,,,,,,,,,,,,,,,,,,,main,None,None,1,1.4982430000090972,464.6354345999425,None,None,1,,,,,,,,,,,,,,129,20,Female,2022-05-11_12h41.29.648,Parachute,2022.1.1,60.06070939382316,
positive,yellow,2,None,k,,,,,,,,,0,122,122,122,,,,,,,,,,,,,,,,,,,,,,,,,,,,,,,,,,,,,main,k,k,1,0.8202008999651298,467.13503789994866,None,None,0,,,,,,,,,,,,,,129,20,Female,2022-05-11_12h41.29.648,Parachute,2022.1.1,60.06070939382316,
negative,red,2,None,None,,,,,,,,,0,123,123,123,,,,,,,,,,,,,,,,,,,,,,,,,,,,,,,,,,,,,main,None,None,1,1.4942836000118405,468.95467570004985,None,None,1,,,,,,,,,,,,,,129,20,Female,2022-05-11_12h41.29.648,Parachute,2022.1.1,60.06070939382316,
negative,yellow,2,k,None,,,,,,,,,0,124,124,124,,,,,,,,,,,,,,,,,,,,,,,,,,,,,,,,,,,,,main,None,None,1,1.4985066000372171,471.4517348000081,None,None,1,,,,,,,,,,,,,,129,20,Female,2022-05-11_12h41.29.648,Parachute,2022.1.1,60.06070939382316,
positive,red,1,None,None,,,,,,,,,0,125,125,125,,,,,,,,,,,,,,,,,,,,,,,,,,,,,,,,,,,,,main,None,None,1,1.4991349000483751,473.95168609998655,None,None,1,,,,,,,,,,,,,,129,20,Female,2022-05-11_12h41.29.648,Parachute,2022.1.1,60.06070939382316,
negative,blue,2,None,k,,,,,,,,,0,126,126,126,,,,,,,,,,,,,,,,,,,,,,,,,,,,,,,,,,,,,main,k,k,1,0.7212664999533445,476.4522473999532,None,None,0,,,,,,,,,,,,,,129,20,Female,2022-05-11_12h41.29.648,Parachute,2022.1.1,60.06070939382316,
negative,blue,1,None,k,,,,,,,,,0,127,127,127,,,,,,,,,,,,,,,,,,,,,,,,,,,,,,,,,,,,,main,k,k,1,0.6157270999392495,478.172843700042,None,None,0,,,,,,,,,,,,,,129,20,Female,2022-05-11_12h41.29.648,Parachute,2022.1.1,60.06070939382316,
negative,yellow,1,k,None,,,,,,,,,0,128,128,128,,,,,,,,,,,,,,,,,,,,,,,,,,,,,,,,,,,,,main,None,None,1,1.4920854000374675,479.7899815000128,None,None,1,,,,,,,,,,,,,,129,20,Female,2022-05-11_12h41.29.648,Parachute,2022.1.1,60.06070939382316,
negative,yellow,1,k,None,,,,,,,,,0,129,129,129,,,,,,,,,,,,,,,,,,,,,,,,,,,,,,,,,,,,,main,None,None,1,1.498747200006619,482.28542339999694,None,None,1,,,,,,,,,,,,,,129,20,Female,2022-05-11_12h41.29.648,Parachute,2022.1.1,60.06070939382316,
positive,blue,1,k,None,,,,,,,,,0,130,130,130,,,,,,,,,,,,,,,,,,,,,,,,,,,,,,,,,,,,,main,None,None,1,1.4991208999417722,484.7854124000296,None,None,1,,,,,,,,,,,,,,129,20,Female,2022-05-11_12h41.29.648,Parachute,2022.1.1,60.06070939382316,
negative,blue,1,None,k,,,,,,,,,0,131,131,131,,,,,,,,,,,,,,,,,,,,,,,,,,,,,,,,,,,,,main,k,k,1,0.7358467999147251,487.2860783999786,None,None,0,,,,,,,,,,,,,,129,20,Female,2022-05-11_12h41.29.648,Parachute,2022.1.1,60.06070939382316,
negative,blue,2,None,k,,,,,,,,,0,132,132,132,,,,,,,,,,,,,,,,,,,,,,,,,,,,,,,,,,,,,main,k,k,1,0.7173369999509305,489.0216454999754,None,None,0,,,,,,,,,,,,,,129,20,Female,2022-05-11_12h41.29.648,Parachute,2022.1.1,60.06070939382316,
positive,blue,2,k,None,,,,,,,,,0,133,133,133,,,,,,,,,,,,,,,,,,,,,,,,,,,,,,,,,,,,,main,None,None,1,1.4927668999880552,490.738736600033,None,None,1,,,,,,,,,,,,,,129,20,Female,2022-05-11_12h41.29.648,Parachute,2022.1.1,60.06070939382316,
positive,red,2,None,None,,,,,,,,,0,134,134,134,,,,,,,,,,,,,,,,,,,,,,,,,,,,,,,,,,,,,main,None,None,1,1.498568500042893,493.2353393000085,None,None,1,,,,,,,,,,,,,,129,20,Female,2022-05-11_12h41.29.648,Parachute,2022.1.1,60.06070939382316,
negative,yellow,2,k,None,,,,,,,,,0,135,135,135,,,,,,,,,,,,,,,,,,,,,,,,,,,,,,,,,,,,,main,None,None,1,1.4990541000152007,495.73549849994015,None,None,1,,,,,,,,,,,,,,129,20,Female,2022-05-11_12h41.29.648,Parachute,2022.1.1,60.06070939382316,
positive,yellow,2,None,k,,,,,,,,,0,136,136,136,,,,,,,,,,,,,,,,,,,,,,,,,,,,,,,,,,,,,main,k,k,1,0.7550642999121919,498.2358609000221,None,None,0,,,,,,,,,,,,,,129,20,Female,2022-05-11_12h41.29.648,Parachute,2022.1.1,60.06070939382316,
positive,blue,1,k,None,,,,,,,,,0,137,137,137,,,,,,,,,,,,,,,,,,,,,,,,,,,,,,,,,,,,,main,None,None,1,1.508596200030297,499.99054549995344,None,None,1,,,,,,,,,,,,,,129,20,Female,2022-05-11_12h41.29.648,Parachute,2022.1.1,60.06070939382316,
positive,yellow,1,None,k,,,,,,,,,0,138,138,138,,,,,,,,,,,,,,,,,,,,,,,,,,,,,,,,,,,,,main,k,k,1,0.8042508000507951,502.50232480000705,None,None,0,,,,,,,,,,,,,,129,20,Female,2022-05-11_12h41.29.648,Parachute,2022.1.1,60.06070939382316,
positive,yellow,1,None,k,,,,,,,,,0,139,139,139,,,,,,,,,,,,,,,,,,,,,,,,,,,,,,,,,,,,,main,k,k,1,0.6254663999425247,504.3058030999964,None,None,0,,,,,,,,,,,,,,129,20,Female,2022-05-11_12h41.29.648,Parachute,2022.1.1,60.06070939382316,
positive,yellow,1,None,k,,,,,,,,,0,140,140,140,,,,,,,,,,,,,,,,,,,,,,,,,,,,,,,,,,,,,main,k,k,1,0.5385943999281153,505.93492599995807,None,None,0,,,,,,,,,,,,,,129,20,Female,2022-05-11_12h41.29.648,Parachute,2022.1.1,60.06070939382316,
positive,blue,1,k,None,,,,,,,,,0,141,141,141,,,,,,,,,,,,,,,,,,,,,,,,,,,,,,,,,,,,,main,None,None,1,1.492850499926135,507.47283470002003,None,None,1,,,,,,,,,,,,,,129,20,Female,2022-05-11_12h41.29.648,Parachute,2022.1.1,60.06070939382316,
positive,blue,2,k,None,,,,,,,,,0,142,142,142,,,,,,,,,,,,,,,,,,,,,,,,,,,,,,,,,,,,,main,None,None,1,1.4996497000101954,509.96863959997427,None,None,1,,,,,,,,,,,,,,129,20,Female,2022-05-11_12h41.29.648,Parachute,2022.1.1,60.06070939382316,
positive,yellow,2,None,k,,,,,,,,,0,143,143,143,,,,,,,,,,,,,,,,,,,,,,,,,,,,,,,,,,,,,main,k,k,1,0.7205323999514803,512.4699236999732,None,None,0,,,,,,,,,,,,,,129,20,Female,2022-05-11_12h41.29.648,Parachute,2022.1.1,60.06070939382316,
negative,yellow,2,k,None,,,,,,,,,0,144,144,144,,,,,,,,,,,,,,,,,,,,,,,,,,,,,,,,,,,,,main,None,None,1,1.493164199986495,514.1890347000444,None,None,1,,,,,,,,,,,,,,129,20,Female,2022-05-11_12h41.29.648,Parachute,2022.1.1,60.06070939382316,
negative,blue,2,None,k,,,,,,,,,0,145,145,145,,,,,,,,,,,,,,,,,,,,,,,,,,,,,,,,,,,,,main,k,k,1,0.570607400033623,516.6860784000019,None,None,0,,,,,,,,,,,,,,129,20,Female,2022-05-11_12h41.29.648,Parachute,2022.1.1,60.06070939382316,
negative,red,1,None,None,,,,,,,,,0,146,146,146,,,,,,,,,,,,,,,,,,,,,,,,,,,,,,,,,,,,,main,None,None,1,1.4929710000287741,518.2559467999963,None,None,1,,,,,,,,,,,,,,129,20,Female,2022-05-11_12h41.29.648,Parachute,2022.1.1,60.06070939382316,
positive,blue,1,k,None,,,,,,,,,0,147,147,147,,,,,,,,,,,,,,,,,,,,,,,,,,,,,,,,,,,,,main,None,None,1,1.4989414000883698,520.75274669996,None,None,1,,,,,,,,,,,,,,129,20,Female,2022-05-11_12h41.29.648,Parachute,2022.1.1,60.06070939382316,
positive,yellow,1,None,k,,,,,,,,,0,148,148,148,,,,,,,,,,,,,,,,,,,,,,,,,,,,,,,,,,,,,main,k,k,1,0.6371941000688821,523.2529687000206,None,None,0,,,,,,,,,,,,,,129,20,Female,2022-05-11_12h41.29.648,Parachute,2022.1.1,60.06070939382316,
negative,red,2,None,None,,,,,,,,,0,149,149,149,,,,,,,,,,,,,,,,,,,,,,,,,,,,,,,,,,,,,main,None,None,1,1.492553999996744,524.8909348000307,None,None,1,,,,,,,,,,,,,,129,20,Female,2022-05-11_12h41.29.648,Parachute,2022.1.1,60.06070939382316,
negative,blue,1,None,k,,,,,,,,,0,150,150,150,,,,,,,,,,,,,,,,,,,,,,,,,,,,,,,,,,,,,main,k,k,1,0.9036276999395341,527.388096599956,None,None,0,,,,,,,,,,,,,,129,20,Female,2022-05-11_12h41.29.648,Parachute,2022.1.1,60.06070939382316,
negative,yellow,2,k,None,,,,,,,,,0,151,151,151,,,,,,,,,,,,,,,,,,,,,,,,,,,,,,,,,,,,,main,None,None,1,1.4927303000586107,529.2900677999714,None,None,1,,,,,,,,,,,,,,129,20,Female,2022-05-11_12h41.29.648,Parachute,2022.1.1,60.06070939382316,
negative,blue,2,None,k,,,,,,,,,0,152,152,152,,,,,,,,,,,,,,,,,,,,,,,,,,,,,,,,,,,,,main,k,k,1,0.7705643000081182,531.7863844999811,None,None,0,,,,,,,,,,,,,,129,20,Female,2022-05-11_12h41.29.648,Parachute,2022.1.1,60.06070939382316,
negative,yellow,1,k,None,,,,,,,,,0,153,153,153,,,,,,,,,,,,,,,,,,,,,,,,,,,,,,,,,,,,,main,None,None,1,1.4940504000987858,533.5562098999508,None,None,1,,,,,,,,,,,,,,129,20,Female,2022-05-11_12h41.29.648,Parachute,2022.1.1,60.06070939382316,
negative,blue,1,None,k,,,,,,,,,0,154,154,154,,,,,,,,,,,,,,,,,,,,,,,,,,,,,,,,,,,,,main,k,k,1,0.8698398000560701,536.0543121000519,None,None,0,,,,,,,,,,,,,,129,20,Female,2022-05-11_12h41.29.648,Parachute,2022.1.1,60.06070939382316,
positive,yellow,2,None,k,,,,,,,,,0,155,155,155,,,,,,,,,,,,,,,,,,,,,,,,,,,,,,,,,,,,,main,k,k,1,0.6643648000899702,537.923262199969,None,None,0,,,,,,,,,,,,,,129,20,Female,2022-05-11_12h41.29.648,Parachute,2022.1.1,60.06070939382316,
positive,red,2,None,None,,,,,,,,,0,156,156,156,,,,,,,,,,,,,,,,,,,,,,,,,,,,,,,,,,,,,main,None,None,1,1.4950769999995828,539.5977535999846,None,None,1,,,,,,,,,,,,,,129,20,Female,2022-05-11_12h41.29.648,Parachute,2022.1.1,60.06070939382316,
positive,red,1,None,None,,,,,,,,,0,157,157,157,,,,,,,,,,,,,,,,,,,,,,,,,,,,,,,,,,,,,main,None,None,1,1.4984119000146165,542.0876256000483,None,None,1,,,,,,,,,,,,,,129,20,Female,2022-05-11_12h41.29.648,Parachute,2022.1.1,60.06070939382316,
positive,blue,2,k,None,,,,,,,,,0,158,158,158,,,,,,,,,,,,,,,,,,,,,,,,,,,,,,,,,,,,,main,None,None,1,1.4987247000681236,544.5870797999669,None,None,1,,,,,,,,,,,,,,129,20,Female,2022-05-11_12h41.29.648,Parachute,2022.1.1,60.06070939382316,
negative,yellow,1,k,None,,,,,,,,,0,159,159,159,,,,,,,,,,,,,,,,,,,,,,,,,,,,,,,,,,,,,main,None,None,1,1.4992228999035433,547.0872267000377,None,None,1,,,,,,,,,,,,,,129,20,Female,2022-05-11_12h41.29.648,Parachute,2022.1.1,60.06070939382316,
negative,red,2,None,None,,,,,,,,,0,160,160,160,,,,,,,,,,,,,,,,,,,,,,,,,,,,,,,,,,,,,main,None,None,1,1.4980027999263257,549.5875064999564,None,None,1,,,,,,,,,,,,,,129,20,Female,2022-05-11_12h41.29.648,Parachute,2022.1.1,60.06070939382316,
negative,blue,1,None,k,,,,,,,,,0,161,161,161,,,,,,,,,,,,,,,,,,,,,,,,,,,,,,,,,,,,,main,k,k,1,0.6712249000556767,552.0866219999734,None,None,0,,,,,,,,,,,,,,129,20,Female,2022-05-11_12h41.29.648,Parachute,2022.1.1,60.06070939382316,
negative,blue,1,None,k,,,,,,,,,0,162,162,162,,,,,,,,,,,,,,,,,,,,,,,,,,,,,,,,,,,,,main,k,k,1,0.6819108999334276,553.756989800022,None,None,0,,,,,,,,,,,,,,129,20,Female,2022-05-11_12h41.29.648,Parachute,2022.1.1,60.06070939382316,
negative,yellow,1,k,None,,,,,,,,,0,163,163,163,,,,,,,,,,,,,,,,,,,,,,,,,,,,,,,,,,,,,main,None,None,1,1.5095953999552876,555.4418918000301,None,None,1,,,,,,,,,,,,,,129,20,Female,2022-05-11_12h41.29.648,Parachute,2022.1.1,60.06070939382316,
negative,yellow,1,k,None,,,,,,,,,0,164,164,164,,,,,,,,,,,,,,,,,,,,,,,,,,,,,,,,,,,,,main,None,None,1,1.4992731999373063,557.9553633000469,None,None,1,,,,,,,,,,,,,,129,20,Female,2022-05-11_12h41.29.648,Parachute,2022.1.1,60.06070939382316,
positive,yellow,1,None,k,,,,,,,,,0,165,165,165,,,,,,,,,,,,,,,,,,,,,,,,,,,,,,,,,,,,,main,k,k,1,0.5856595999794081,560.4560567999724,None,None,0,,,,,,,,,,,,,,129,20,Female,2022-05-11_12h41.29.648,Parachute,2022.1.1,60.06070939382316,
negative,red,1,None,None,,,,,,,,,0,166,166,166,,,,,,,,,,,,,,,,,,,,,,,,,,,,,,,,,,,,,main,None,None,1,1.493630399927497,562.0400354999583,None,None,1,,,,,,,,,,,,,,129,20,Female,2022-05-11_12h41.29.648,Parachute,2022.1.1,60.06070939382316,
negative,yellow,2,k,None,,,,,,,,,0,167,167,167,,,,,,,,,,,,,,,,,,,,,,,,,,,,,,,,,,,,,main,None,None,1,1.4993623999180272,564.5372874999885,None,None,1,,,,,,,,,,,,,,129,20,Female,2022-05-11_12h41.29.648,Parachute,2022.1.1,60.06070939382316,
positive,blue,2,k,None,,,,,,,,,0,168,168,168,,,,,,,,,,,,,,,,,,,,,,,,,,,,,,,,,,,,,main,None,None,1,1.4980741000035778,567.0375912999734,None,None,1,,,,,,,,,,,,,,129,20,Female,2022-05-11_12h41.29.648,Parachute,2022.1.1,60.06070939382316,
positive,red,2,None,None,,,,,,,,,0,169,169,169,,,,,,,,,,,,,,,,,,,,,,,,,,,,,,,,,,,,,main,None,None,1,1.498927100095898,569.5374913000269,None,None,1,,,,,,,,,,,,,,129,20,Female,2022-05-11_12h41.29.648,Parachute,2022.1.1,60.06070939382316,
positive,red,1,None,None,,,,,,,,,0,170,170,170,,,,,,,,,,,,,,,,,,,,,,,,,,,,,,,,,,,,,main,None,None,1,1.4990154000697657,572.0377232000465,None,None,1,,,,,,,,,,,,,,129,20,Female,2022-05-11_12h41.29.648,Parachute,2022.1.1,60.06070939382316,
negative,blue,2,None,k,,,,,,,,,0,171,171,171,,,,,,,,,,,,,,,,,,,,,,,,,,,,,,,,,,,,,main,k,k,1,0.6856334999902174,574.537815000047,None,None,0,,,,,,,,,,,,,,129,20,Female,2022-05-11_12h41.29.648,Parachute,2022.1.1,60.06070939382316,
positive,blue,2,k,None,,,,,,,,,0,172,172,172,,,,,,,,,,,,,,,,,,,,,,,,,,,,,,,,,,,,,main,None,None,1,1.494531000033021,576.2236665999517,None,None,1,,,,,,,,,,,,,,129,20,Female,2022-05-11_12h41.29.648,Parachute,2022.1.1,60.06070939382316,
negative,yellow,2,k,None,,,,,,,,,0,173,173,173,,,,,,,,,,,,,,,,,,,,,,,,,,,,,,,,,,,,,main,None,None,1,1.4987835999345407,578.7209326999728,None,None,1,,,,,,,,,,,,,,129,20,Female,2022-05-11_12h41.29.648,Parachute,2022.1.1,60.06070939382316,
positive,yellow,2,None,k,,,,,,,,,0,174,174,174,,,,,,,,,,,,,,,,,,,,,,,,,,,,,,,,,,,,,main,k,k,1,0.7373785999370739,581.2214089999907,None,None,0,,,,,,,,,,,,,,129,20,Female,2022-05-11_12h41.29.648,Parachute,2022.1.1,60.06070939382316,
negative,blue,2,None,k,,,,,,,,,0,175,175,175,,,,,,,,,,,,,,,,,,,,,,,,,,,,,,,,,,,,,main,k,k,1,0.6985604999354109,582.9573887999868,None,None,0,,,,,,,,,,,,,,129,20,Female,2022-05-11_12h41.29.648,Parachute,2022.1.1,60.06070939382316,
positive,blue,1,k,None,,,,,,,,,0,176,176,176,,,,,,,,,,,,,,,,,,,,,,,,,,,,,,,,,,,,,main,None,None,1,1.4932184999343008,584.6572764000157,None,None,1,,,,,,,,,,,,,,129,20,Female,2022-05-11_12h41.29.648,Parachute,2022.1.1,60.06070939382316,
positive,yellow,1,None,k,,,,,,,,,0,177,177,177,,,,,,,,,,,,,,,,,,,,,,,,,,,,,,,,,,,,,main,k,k,1,0.7545988999772817,587.1536120000528,None,None,0,,,,,,,,,,,,,,129,20,Female,2022-05-11_12h41.29.648,Parachute,2022.1.1,60.06070939382316,
positive,blue,1,k,None,,,,,,,,,0,178,178,178,,,,,,,,,,,,,,,,,,,,,,,,,,,,,,,,,,,,,main,None,None,1,1.493309700046666,588.9079121999675,None,None,1,,,,,,,,,,,,,,129,20,Female,2022-05-11_12h41.29.648,Parachute,2022.1.1,60.06070939382316,
positive,yellow,2,None,k,,,,,,,,,0,179,179,179,,,,,,,,,,,,,,,,,,,,,,,,,,,,,,,,,,,,,main,k,k,1,0.7704691999824718,591.4047101000324,None,None,0,,,,,,,,,,,,,,129,20,Female,2022-05-11_12h41.29.648,Parachute,2022.1.1,60.06070939382316,
positive,blue,1,k,None,,,,,,,,,0,180,180,180,,,,,,,,,,,,,,,,,,,,,,,,,,,,,,,,,,,,,main,None,None,1,1.4935361000243574,593.1742809000425,None,None,1,,,,,,,,,,,,,,129,20,Female,2022-05-11_12h41.29.648,Parachute,2022.1.1,60.06070939382316,
negative,red,1,None,None,,,,,,,,,0,181,181,181,,,,,,,,,,,,,,,,,,,,,,,,,,,,,,,,,,,,,main,None,None,1,1.498746500001289,595.67096639995,None,None,1,,,,,,,,,,,,,,129,20,Female,2022-05-11_12h41.29.648,Parachute,2022.1.1,60.06070939382316,
negative,blue,1,None,k,,,,,,,,,0,182,182,182,,,,,,,,,,,,,,,,,,,,,,,,,,,,,,,,,,,,,main,k,k,1,0.7689206999493763,598.1713115000166,None,None,0,,,,,,,,,,,,,,129,20,Female,2022-05-11_12h41.29.648,Parachute,2022.1.1,60.06070939382316,
negative,yellow,2,k,None,,,,,,,,,0,183,183,183,,,,,,,,,,,,,,,,,,,,,,,,,,,,,,,,,,,,,main,None,None,1,1.4946835999144241,599.9410095999483,None,None,1,,,,,,,,,,,,,,129,20,Female,2022-05-11_12h41.29.648,Parachute,2022.1.1,60.06070939382316,
positive,yellow,2,None,k,,,,,,,,,0,184,184,184,,,,,,,,,,,,,,,,,,,,,,,,,,,,,,,,,,,,,main,k,k,1,0.7211393000325188,602.4378272000467,None,None,0,,,,,,,,,,,,,,129,20,Female,2022-05-11_12h41.29.648,Parachute,2022.1.1,60.06070939382316,
positive,yellow,1,None,k,,,,,,,,,0,185,185,185,,,,,,,,,,,,,,,,,,,,,,,,,,,,,,,,,,,,,main,k,k,1,0.6153931999579072,604.1580742000369,None,None,0,,,,,,,,,,,,,,129,20,Female,2022-05-11_12h41.29.648,Parachute,2022.1.1,60.06070939382316,
positive,red,2,None,None,,,,,,,,,0,186,186,186,,,,,,,,,,,,,,,,,,,,,,,,,,,,,,,,,,,,,main,None,None,1,1.4933693000348285,605.77495370002,None,None,1,,,,,,,,,,,,,,129,20,Female,2022-05-11_12h41.29.648,Parachute,2022.1.1,60.06070939382316,
positive,blue,1,k,None,,,,,,,,,0,187,187,187,,,,,,,,,,,,,,,,,,,,,,,,,,,,,,,,,,,,,main,None,None,1,1.4986248000059277,608.2716445999686,None,None,1,,,,,,,,,,,,,,129,20,Female,2022-05-11_12h41.29.648,Parachute,2022.1.1,60.06070939382316,
negative,yellow,1,k,None,,,,,,,,,0,188,188,188,,,,,,,,,,,,,,,,,,,,,,,,,,,,,,,,,,,,,main,None,None,1,1.4983401000499725,610.7719839999918,None,None,1,,,,,,,,,,,,,,129,20,Female,2022-05-11_12h41.29.648,Parachute,2022.1.1,60.06070939382316,
positive,yellow,2,None,k,,,,,,,,,0,189,189,189,,,,,,,,,,,,,,,,,,,,,,,,,,,,,,,,,,,,,main,k,k,1,0.5695587999653071,613.2711704999674,None,None,0,,,,,,,,,,,,,,129,20,Female,2022-05-11_12h41.29.648,Parachute,2022.1.1,60.06070939382316,
negative,yellow,2,k,None,,,,,,,,,0,190,190,190,,,,,,,,,,,,,,,,,,,,,,,,,,,,,,,,,,,,,main,None,None,1,1.4949275000253692,614.8493107999675,None,None,1,,,,,,,,,,,,,,129,20,Female,2022-05-11_12h41.29.648,Parachute,2022.1.1,60.06070939382316,
negative,yellow,1,k,None,,,,,,,,,0,191,191,191,,,,,,,,,,,,,,,,,,,,,,,,,,,,,,,,,,,,,main,None,None,1,1.49832749995403,617.3385555000277,None,None,1,,,,,,,,,,,,,,129,20,Female,2022-05-11_12h41.29.648,Parachute,2022.1.1,60.06070939382316,
positive,blue,2,k,None,,,,,,,,,0,192,192,192,,,,,,,,,,,,,,,,,,,,,,,,,,,,,,,,,,,,,main,None,None,1,1.4989770000101998,619.8384922000114,None,None,1,,,,,,,,,,,,,,129,20,Female,2022-05-11_12h41.29.648,Parachute,2022.1.1,60.06070939382316,
positive,yellow,1,None,k,,,,,,,,,0,193,193,193,,,,,,,,,,,,,,,,,,,,,,,,,,,,,,,,,,,,,main,k,k,1,0.8040520999347791,622.3385798999807,None,None,0,,,,,,,,,,,,,,129,20,Female,2022-05-11_12h41.29.648,Parachute,2022.1.1,60.06070939382316,
negative,red,2,None,None,,,,,,,,,0,194,194,194,,,,,,,,,,,,,,,,,,,,,,,,,,,,,,,,,,,,,main,None,None,1,1.4930655000498518,624.1415457000257,None,None,1,,,,,,,,,,,,,,129,20,Female,2022-05-11_12h41.29.648,Parachute,2022.1.1,60.06070939382316,
positive,red,1,None,None,,,,,,,,,0,195,195,195,,,,,,,,,,,,,,,,,,,,,,,,,,,,,,,,,,,,,main,None,None,1,1.4988328000763431,626.6382735000225,None,None,1,,,,,,,,,,,,,,129,20,Female,2022-05-11_12h41.29.648,Parachute,2022.1.1,60.06070939382316,
negative,blue,1,None,k,,,,,,,,,0,196,196,196,,,,,,,,,,,,,,,,,,,,,,,,,,,,,,,,,,,,,main,k,k,1,0.7543473000405356,629.1387227999512,None,None,0,,,,,,,,,,,,,,129,20,Female,2022-05-11_12h41.29.648,Parachute,2022.1.1,60.06070939382316,
positive,blue,2,k,None,,,,,,,,,0,197,197,197,,,,,,,,,,,,,,,,,,,,,,,,,,,,,,,,,,,,,main,None,None,1,1.5092635999899358,630.8942697000457,None,None,1,,,,,,,,,,,,,,129,20,Female,2022-05-11_12h41.29.648,Parachute,2022.1.1,60.06070939382316,
negative,blue,2,None,k,,,,,,,,,0,198,198,198,,,,,,,,,,,,,,,,,,,,,,,,,,,,,,,,,,,,,main,k,k,1,0.6193074999609962,633.4089145000326,None,None,0,,,,,,,,,,,,,,129,20,Female,2022-05-11_12h41.29.648,Parachute,2022.1.1,60.06070939382316,
negative,blue,2,None,k,,,,,,,,,0,199,199,199,,,,,,,,,,,,,,,,,,,,,,,,,,,,,,,,,,,,,main,k,k,1,0.6495232000015676,635.0251959000016,None,None,0,,,,,,,,,,,,,,129,20,Female,2022-05-11_12h41.29.648,Parachute,2022.1.1,60.06070939382316,
positive,blue,2,k,None,,,,,,,,,0,200,200,200,,,,,,,,,,,,,,,,,,,,,,,,,,,,,,,,,,,,,main,None,None,1,1.4933724000584334,636.6755095999688,None,None,1,,,,,,,,,,,,,,129,20,Female,2022-05-11_12h41.29.648,Parachute,2022.1.1,60.06070939382316,
positive,blue,2,k,None,,,,,,,,,0,201,201,201,,,,,,,,,,,,,,,,,,,,,,,,,,,,,,,,,,,,,main,None,None,1,1.4980175000382587,639.1723735999549,None,None,1,,,,,,,,,,,,,,129,20,Female,2022-05-11_12h41.29.648,Parachute,2022.1.1,60.06070939382316,
negative,yellow,2,k,None,,,,,,,,,0,202,202,202,,,,,,,,,,,,,,,,,,,,,,,,,,,,,,,,,,,,,main,None,None,1,1.4993713999865577,641.6716246999567,None,None,1,,,,,,,,,,,,,,129,20,Female,2022-05-11_12h41.29.648,Parachute,2022.1.1,60.06070939382316,
positive,red,1,None,None,,,,,,,,,0,203,203,203,,,,,,,,,,,,,,,,,,,,,,,,,,,,,,,,,,,,,main,None,None,1,1.4989373000571504,644.1722772000358,None,None,1,,,,,,,,,,,,,,129,20,Female,2022-05-11_12h41.29.648,Parachute,2022.1.1,60.06070939382316,
negative,blue,2,None,k,,,,,,,,,0,204,204,204,,,,,,,,,,,,,,,,,,,,,,,,,,,,,,,,,,,,,main,k,k,1,0.7709604999981821,646.6728332999628,None,None,0,,,,,,,,,,,,,,129,20,Female,2022-05-11_12h41.29.648,Parachute,2022.1.1,60.06070939382316,
negative,red,1,None,None,,,,,,,,,0,205,205,205,,,,,,,,,,,,,,,,,,,,,,,,,,,,,,,,,,,,,main,None,None,1,1.4928946000291035,648.4427248999709,None,None,1,,,,,,,,,,,,,,129,20,Female,2022-05-11_12h41.29.648,Parachute,2022.1.1,60.06070939382316,
negative,blue,2,None,k,,,,,,,,,0,206,206,206,,,,,,,,,,,,,,,,,,,,,,,,,,,,,,,,,,,,,main,k,k,1,0.7212003000313416,650.9388207000447,None,None,0,,,,,,,,,,,,,,129,20,Female,2022-05-11_12h41.29.648,Parachute,2022.1.1,60.06070939382316,
negative,yellow,2,k,None,,,,,,,,,0,207,207,207,,,,,,,,,,,,,,,,,,,,,,,,,,,,,,,,,,,,,main,None,None,1,1.492777100065723,652.6591240999987,None,None,1,,,,,,,,,,,,,,129,20,Female,2022-05-11_12h41.29.648,Parachute,2022.1.1,60.06070939382316,
positive,yellow,2,None,k,,,,,,,,,0,208,208,208,,,,,,,,,,,,,,,,,,,,,,,,,,,,,,,,,,,,,main,k,k,1,0.5706961000105366,655.1564243000466,None,None,0,,,,,,,,,,,,,,129,20,Female,2022-05-11_12h41.29.648,Parachute,2022.1.1,60.06070939382316,
negative,yellow,1,k,None,,,,,,,,,0,209,209,209,,,,,,,,,,,,,,,,,,,,,,,,,,,,,,,,,,,,,main,None,None,1,1.4929973999969661,656.7255944999633,None,None,1,,,,,,,,,,,,,,129,20,Female,2022-05-11_12h41.29.648,Parachute,2022.1.1,60.06070939382316,
negative,red,2,None,None,,,,,,,,,0,210,210,210,,,,,,,,,,,,,,,,,,,,,,,,,,,,,,,,,,,,,main,None,None,1,1.4995079999789596,659.2225408999948,None,None,1,,,,,,,,,,,,,,129,20,Female,2022-05-11_12h41.29.648,Parachute,2022.1.1,60.06070939382316,
negative,blue,1,None,k,,,,,,,,,0,211,211,211,,,,,,,,,,,,,,,,,,,,,,,,,,,,,,,,,,,,,main,k,k,1,0.6707729999907315,661.7231248000171,None,None,0,,,,,,,,,,,,,,129,20,Female,2022-05-11_12h41.29.648,Parachute,2022.1.1,60.06070939382316,
negative,yellow,1,k,None,,,,,,,,,0,212,212,212,,,,,,,,,,,,,,,,,,,,,,,,,,,,,,,,,,,,,main,None,None,1,1.49305639998056,663.3941510999575,None,None,1,,,,,,,,,,,,,,129,20,Female,2022-05-11_12h41.29.648,Parachute,2022.1.1,60.06070939382316,
positive,blue,1,k,None,,,,,,,,,0,213,213,213,,,,,,,,,,,,,,,,,,,,,,,,,,,,,,,,,,,,,main,None,None,1,1.498418099945411,665.8893037999514,None,None,1,,,,,,,,,,,,,,129,20,Female,2022-05-11_12h41.29.648,Parachute,2022.1.1,60.06070939382316,
positive,blue,1,k,None,,,,,,,,,0,214,214,214,,,,,,,,,,,,,,,,,,,,,,,,,,,,,,,,,,,,,main,None,None,1,1.4992512000026181,668.388616799959,None,None,1,,,,,,,,,,,,,,129,20,Female,2022-05-11_12h41.29.648,Parachute,2022.1.1,60.06070939382316,
positive,yellow,1,None,k,,,,,,,,,0,215,215,215,,,,,,,,,,,,,,,,,,,,,,,,,,,,,,,,,,,,,main,k,k,1,0.9362368000438437,670.8893702999922,None,None,0,,,,,,,,,,,,,,129,20,Female,2022-05-11_12h41.29.648,Parachute,2022.1.1,60.06070939382316,
positive,yellow,1,None,k,,,,,,,,,0,216,216,216,,,,,,,,,,,,,,,,,,,,,,,,,,,,,,,,,,,,,main,k,k,1,0.716867700102739,672.8257282000268,None,None,0,,,,,,,,,,,,,,129,20,Female,2022-05-11_12h41.29.648,Parachute,2022.1.1,60.06070939382316,
positive,yellow,2,None,k,,,,,,,,,0,217,217,217,,,,,,,,,,,,,,,,,,,,,,,,,,,,,,,,,,,,,main,k,k,1,0.6149020000593737,674.54328480002,None,None,0,,,,,,,,,,,,,,129,20,Female,2022-05-11_12h41.29.648,Parachute,2022.1.1,60.06070939382316,
negative,blue,1,None,k,,,,,,,,,0,218,218,218,,,,,,,,,,,,,,,,,,,,,,,,,,,,,,,,,,,,,main,k,k,1,0.6489418999990448,676.1671365000075,None,None,0,,,,,,,,,,,,,,129,20,Female,2022-05-11_12h41.29.648,Parachute,2022.1.1,60.06070939382316,
positive,red,2,None,None,,,,,,,,,0,219,219,219,,,,,,,,,,,,,,,,,,,,,,,,,,,,,,,,,,,,,main,None,None,1,1.493145100073889,677.8096070999745,None,None,1,,,,,,,,,,,,,,129,20,Female,2022-05-11_12h41.29.648,Parachute,2022.1.1,60.06070939382316,
positive,yellow,1,None,k,,,,,,,,,0,220,220,220,,,,,,,,,,,,,,,,,,,,,,,,,,,,,,,,,,,,,main,k,k,1,0.7376485000131652,680.3064989999402,None,None,0,,,,,,,,,,,,,,129,20,Female,2022-05-11_12h41.29.648,Parachute,2022.1.1,60.06070939382316,
positive,blue,1,k,None,,,,,,,,,0,221,221,221,,,,,,,,,,,,,,,,,,,,,,,,,,,,,,,,,,,,,main,None,None,1,1.4935852999333292,682.0429020000156,None,None,1,,,,,,,,,,,,,,129,20,Female,2022-05-11_12h41.29.648,Parachute,2022.1.1,60.06070939382316,
positive,yellow,2,None,k,,,,,,,,,0,222,222,222,,,,,,,,,,,,,,,,,,,,,,,,,,,,,,,,,,,,,main,k,k,1,0.7037810999900103,684.5403119999683,None,None,0,,,,,,,,,,,,,,129,20,Female,2022-05-11_12h41.29.648,Parachute,2022.1.1,60.06070939382316,
negative,yellow,1,k,None,,,,,,,,,0,223,223,223,,,,,,,,,,,,,,,,,,,,,,,,,,,,,,,,,,,,,main,None,None,1,1.4938589999219403,686.2433208000148,None,None,1,,,,,,,,,,,,,,129,20,Female,2022-05-11_12h41.29.648,Parachute,2022.1.1,60.06070939382316,
positive,yellow,2,None,k,,,,,,,,,0,224,224,224,,,,,,,,,,,,,,,,,,,,,,,,,,,,,,,,,,,,,main,k,k,1,0.6873821000335738,688.7406302000163,None,None,0,,,,,,,,,,,,,,129,20,Female,2022-05-11_12h41.29.648,Parachute,2022.1.1,60.06070939382316,
negative,yellow,2,k,None,,,,,,,,,0,225,225,225,,,,,,,,,,,,,,,,,,,,,,,,,,,,,,,,,,,,,main,None,None,1,1.4927278000395745,690.4267297999468,None,None,1,,,,,,,,,,,,,,129,20,Female,2022-05-11_12h41.29.648,Parachute,2022.1.1,60.06070939382316,
negative,blue,2,None,k,,,,,,,,,0,226,226,226,,,,,,,,,,,,,,,,,,,,,,,,,,,,,,,,,,,,,main,k,k,1,0.7713633000385016,692.9233653999399,None,None,0,,,,,,,,,,,,,,129,20,Female,2022-05-11_12h41.29.648,Parachute,2022.1.1,60.06070939382316,
positive,red,2,None,None,,,,,,,,,0,227,227,227,,,,,,,,,,,,,,,,,,,,,,,,,,,,,,,,,,,,,main,None,None,1,1.493226099992171,694.6937273000367,None,None,1,,,,,,,,,,,,,,129,20,Female,2022-05-11_12h41.29.648,Parachute,2022.1.1,60.06070939382316,
positive,blue,2,k,None,,,,,,,,,0,228,228,228,,,,,,,,,,,,,,,,,,,,,,,,,,,,,,,,,,,,,main,None,None,1,1.4390224000671878,697.1907366999658,None,None,1,,,,,,,,,,,,,,129,20,Female,2022-05-11_12h41.29.648,Parachute,2022.1.1,60.06070939382316,
negative,blue,1,None,k,,,,,,,,,0,229,229,229,,,,,,,,,,,,,,,,,,,,,,,,,,,,,,,,,,,,,main,k,k,1,0.8800193999195471,699.6285944000119,None,None,0,,,,,,,,,,,,,,129,20,Female,2022-05-11_12h41.29.648,Parachute,2022.1.1,60.06070939382316,
positive,yellow,1,None,k,,,,,,,,,0,230,230,230,,,,,,,,,,,,,,,,,,,,,,,,,,,,,,,,,,,,,main,k,k,1,0.8493205000413582,701.5100876999786,None,None,0,,,,,,,,,,,,,,129,20,Female,2022-05-11_12h41.29.648,Parachute,2022.1.1,60.06070939382316,
negative,blue,2,None,k,,,,,,,,,0,231,231,231,,,,,,,,,,,,,,,,,,,,,,,,,,,,,,,,,,,,,main,k,k,1,1.0644789000507444,703.3608083999716,None,None,0,,,,,,,,,,,,,,129,20,Female,2022-05-11_12h41.29.648,Parachute,2022.1.1,60.06070939382316,
negative,red,1,None,None,,,,,,,,,0,232,232,232,,,,,,,,,,,,,,,,,,,,,,,,,,,,,,,,,,,,,main,None,None,1,1.4931470999727026,705.4266459000064,None,None,1,,,,,,,,,,,,,,129,20,Female,2022-05-11_12h41.29.648,Parachute,2022.1.1,60.06070939382316,
positive,blue,2,k,None,,,,,,,,,0,233,233,233,,,,,,,,,,,,,,,,,,,,,,,,,,,,,,,,,,,,,main,None,None,1,1.4989234999520704,707.9227999999421,None,None,1,,,,,,,,,,,,,,129,20,Female,2022-05-11_12h41.29.648,Parachute,2022.1.1,60.06070939382316,
negative,yellow,1,k,None,,,,,,,,,0,234,234,234,,,,,,,,,,,,,,,,,,,,,,,,,,,,,,,,,,,,,main,None,None,1,1.4992293999530375,710.4236437999643,None,None,1,,,,,,,,,,,,,,129,20,Female,2022-05-11_12h41.29.648,Parachute,2022.1.1,60.06070939382316,
negative,yellow,2,k,None,,,,,,,,,0,235,235,235,,,,,,,,,,,,,,,,,,,,,,,,,,,,,,,,,,,,,main,None,None,1,1.4985814999090508,712.924069599947,None,None,1,,,,,,,,,,,,,,129,20,Female,2022-05-11_12h41.29.648,Parachute,2022.1.1,60.06070939382316,
positive,red,1,None,None,,,,,,,,,0,236,236,236,,,,,,,,,,,,,,,,,,,,,,,,,,,,,,,,,,,,,main,None,None,1,1.4986006000544876,715.4238415999571,None,None,1,,,,,,,,,,,,,,129,20,Female,2022-05-11_12h41.29.648,Parachute,2022.1.1,60.06070939382316,
negative,red,2,None,None,,,,,,,,,0,237,237,237,,,,,,,,,,,,,,,,,,,,,,,,,,,,,,,,,,,,,main,None,None,1,1.4985197000205517,717.9235657999525,None,None,1,,,,,,,,,,,,,,129,20,Female,2022-05-11_12h41.29.648,Parachute,2022.1.1,60.06070939382316,
negative,blue,1,None,k,,,,,,,,,0,238,238,238,,,,,,,,,,,,,,,,,,,,,,,,,,,,,,,,,,,,,main,k,k,1,0.6385581999784335,720.4232882000506,None,None,0,,,,,,,,,,,,,,129,20,Female,2022-05-11_12h41.29.648,Parachute,2022.1.1,60.06070939382316,
positive,blue,1,k,None,,,,,,,,,0,239,239,239,,,,,,,,,,,,,,,,,,,,,,,,,,,,,,,,,,,,,main,None,None,1,1.4927602999377996,722.0615066000028,None,None,1,,,,,,,,,,,,,,129,20,Female,2022-05-11_12h41.29.648,Parachute,2022.1.1,60.06070939382316,
,,,,,,,,,,,,,,,,,,,,,,,,,,,,,,,,,,,,,,,,,,,,,,,,,,,,,,,,,,,,,,,,,,,,,,,,,724.5556745999493,None,,,,,,,,
