distractor,target,set,ans1,ans2,rep_loop4.thisRepN,rep_loop4.thisTrialN,rep_loop4.thisN,rep_loop4.thisIndex,st2_prac_loop.thisRepN,st2_prac_loop.thisTrialN,st2_prac_loop.thisN,st2_prac_loop.thisIndex,st2_main_loop.thisRepN,st2_main_loop.thisTrialN,st2_main_loop.thisN,st2_main_loop.thisIndex,image_4.started,image_4.stopped,mouse_7.x,mouse_7.y,mouse_7.leftButton,mouse_7.midButton,mouse_7.rightButton,sound_2.started,sound_2.stopped,key_resp_3.keys,mouse_5.x,mouse_5.y,mouse_5.leftButton,mouse_5.midButton,mouse_5.rightButton,mouse_5.started,mouse_5.stopped,yes_text2.started,yes_text2.stopped,no_text2.started,no_text2.stopped,mouse_3.x,mouse_3.y,mouse_3.leftButton,mouse_3.midButton,mouse_3.rightButton,mouse_3.started,mouse_3.stopped,st_prac_back.started,st_prac_back.stopped,st_prac_text.started,st_prac_text.stopped,st_fix_back.started,st_fix_back.stopped,st_fix_2.started,st_fix_2.stopped,main_prac,st_ans,st_res,st_corr,st_rt,st_back.started,st_back.stopped,st2_resp.keys,st2_resp.corr,st_main_back.started,st_main_back.stopped,st_main_text.started,st_main_text.stopped,mouse_4.x,mouse_4.y,mouse_4.leftButton,mouse_4.midButton,mouse_4.rightButton,mouse_4.started,mouse_4.stopped,text_2.started,text_2.stopped,id*,age*,gender*,date,expName,psychopyVersion,frameRate,
,,,,,,,,,,,,,,,,,35.310885600047186,None,0.4648148,0.1037037,0,0,0,,,,,,,,,,,,,,,,,,,,,,,,,,,,,,,,,,,,,,,,,,,,,,,,,,,,130,27,Male,2022-05-11_14h12.13.806,Parachute,2022.1.1,59.95250562632551,
negative,yellow,1,k,None,,,,,0,0,0,0,,,,,,,,,,,,39.85288068007212,None,None,0.24074075,-0.30925927,0,0,0,1.007501979940571,None,107.15436839999165,None,107.15436839999165,None,-0.10555556,-0.08796296,0,0,0,0.012417279998771846,None,108.37439550005365,None,108.37439550005365,None,110.38890340004582,None,110.38890340004582,None,prac,k,k,1,1.9602364000165835,112.40771840000525,None,None,0,,,,,,,,,,,,,,130,27,Male,2022-05-11_14h12.13.806,Parachute,2022.1.1,59.95250562632551,
positive,red,2,None,None,,,,,0,1,1,1,,,,,,,,,,,,,,,,,,,,,,,,,,,,,,,,,,,,,,,,,prac,None,None,1,1.5022663999116048,116.3759066000348,None,None,1,,,,,,,,,,,,,,130,27,Male,2022-05-11_14h12.13.806,Parachute,2022.1.1,59.95250562632551,
negative,blue,2,None,k,,,,,0,2,2,2,,,,,,,,,,,,,,,,,,,,,,,,,,,,,,,,,,,,,,,,,prac,None,None,1,1.4981178999878466,118.87367530004121,None,None,1,,,,,,,,,,,,,,130,27,Male,2022-05-11_14h12.13.806,Parachute,2022.1.1,59.95250562632551,
positive,yellow,1,None,k,,,,,0,3,3,3,,,,,,,,,,,,,,,,,,,,,,,,,,,,,,,,,,,,,,,,,prac,None,None,1,1.4983967000152916,121.37923920003232,None,None,1,,,,,,,,,,,,,,130,27,Male,2022-05-11_14h12.13.806,Parachute,2022.1.1,59.95250562632551,
negative,blue,2,None,k,,,,,0,4,4,4,,,,,,,,,,,,,,,,,,,,,,,,,,,,,,,,,,,,,,,,,prac,None,None,1,1.4982832999667153,123.87204480008222,None,None,1,,,,,,,,,,,,,,130,27,Male,2022-05-11_14h12.13.806,Parachute,2022.1.1,59.95250562632551,
negative,blue,1,None,k,,,,,0,5,5,5,,,,,,,,,,,,,,,,,,,,,,,,,,,,,,,,,,,,,,,,,prac,None,None,1,1.4984850999899209,126.37180870003067,None,None,1,,,,,,,,,,,,,,130,27,Male,2022-05-11_14h12.13.806,Parachute,2022.1.1,59.95250562632551,
negative,yellow,2,k,None,,,,,0,6,6,6,,,,,,,,,,,,,,,,,,,,,,,,,,,,,,,,,,,,,,,,,prac,k,k,1,0.8148257000138983,128.8804369000718,None,None,0,,,,,,,,,,,,,,130,27,Male,2022-05-11_14h12.13.806,Parachute,2022.1.1,59.95250562632551,
negative,red,1,None,None,,,,,0,7,7,7,,,,,,,,,,,,,,,,,,,,,,,,,,,,,,,,,,,,,,,,,prac,None,None,1,1.4975610000547022,130.6965541000245,None,None,1,,,,,,,,,,,,,,130,27,Male,2022-05-11_14h12.13.806,Parachute,2022.1.1,59.95250562632551,
positive,yellow,2,None,k,,,,,0,8,8,8,,,,,,,,,,,,,,,,,,,,,,,,,,,,,,,,,,,,,,,,,prac,None,None,1,1.498528299969621,133.18891020002775,None,None,1,,,,,,,,,,,,,,130,27,Male,2022-05-11_14h12.13.806,Parachute,2022.1.1,59.95250562632551,
negative,yellow,1,k,None,,,,,0,9,9,9,,,,,,,,,,,,,,,,,,,,,,,,,,,,,,,,,,,,,,,,,prac,k,k,1,1.316894100047648,135.68917900009546,None,None,0,,,,,,,,,,,,,,130,27,Male,2022-05-11_14h12.13.806,Parachute,2022.1.1,59.95250562632551,
positive,yellow,2,None,k,,,,,0,10,10,10,,,,,,,,,,,,,,,,,,,,,,,,,,,,,,,,,,,,,,,,,prac,None,None,1,1.4969292000168934,138.00778730004095,None,None,1,,,,,,,,,,,,,,130,27,Male,2022-05-11_14h12.13.806,Parachute,2022.1.1,59.95250562632551,
negative,yellow,2,k,None,,,,,0,11,11,11,,,,,,,,,,,,,,,,,,,,,,,,,,,,,,,,,,,,,,,,,prac,k,k,1,1.1014419000130147,140.50591360009275,None,None,0,,,,,,,,,,,,,,130,27,Male,2022-05-11_14h12.13.806,Parachute,2022.1.1,59.95250562632551,
negative,red,2,None,None,,,,,0,12,12,12,,,,,,,,,,,,,,,,,,,,,,,,,,,,,,,,,,,,,,,,,prac,None,None,1,1.495257299975492,142.60980020009447,None,None,1,,,,,,,,,,,,,,130,27,Male,2022-05-11_14h12.13.806,Parachute,2022.1.1,59.95250562632551,
positive,red,1,None,None,,,,,0,13,13,13,,,,,,,,,,,,,,,,,,,,,,,,,,,,,,,,,,,,,,,,,prac,None,None,1,1.498631100053899,145.10593130008783,None,None,1,,,,,,,,,,,,,,130,27,Male,2022-05-11_14h12.13.806,Parachute,2022.1.1,59.95250562632551,
positive,blue,2,k,None,,,,,0,14,14,14,,,,,,,,,,,,,,,,,,,,,,,,,,,,,,,,,,,,,,,,,prac,k,k,1,1.033040800015442,147.60599370009732,None,None,0,,,,,,,,,,,,,,130,27,Male,2022-05-11_14h12.13.806,Parachute,2022.1.1,59.95250562632551,
positive,blue,1,k,None,,,,,0,15,15,15,,,,,,,,,,,,,,,,,,,,,,,,,,,,,,,,,,,,,,,,,prac,k,k,1,1.0165711999870837,149.647046099999,None,None,0,,,,,,,,,,,,,,130,27,Male,2022-05-11_14h12.13.806,Parachute,2022.1.1,59.95250562632551,
negative,blue,1,None,k,,,,,0,16,16,16,,,,,,,,,,,,,,,,,,,,,,,,,,,,,,,,,,,,,,,,,prac,None,None,1,1.495981700019911,151.65940600004978,None,None,1,,,,,,,,,,,,,,130,27,Male,2022-05-11_14h12.13.806,Parachute,2022.1.1,59.95250562632551,
positive,blue,2,k,None,,,,,0,17,17,17,,,,,,,,,,,,,,,,,,,,,,,,,,,,,,,,,,,,,,,,,prac,k,k,1,0.8496611999580637,154.15643910004292,None,None,0,,,,,,,,,,,,,,130,27,Male,2022-05-11_14h12.13.806,Parachute,2022.1.1,59.95250562632551,
positive,blue,1,k,None,,,,,0,18,18,18,,,,,,,,,,,,,,,,,,,,,,,,,,,,,,,,,,,,,,,,,prac,k,k,1,0.9816331000765786,156.0073636000743,None,None,0,,,,,,,,,,,,,,130,27,Male,2022-05-11_14h12.13.806,Parachute,2022.1.1,59.95250562632551,
positive,yellow,1,None,k,,,,,0,19,19,19,,,,,,,,,,,,,,,,,,,,,,,,,,,,,,,,,,,,,,,,,prac,None,None,1,1.4975283000385389,157.99060340004507,None,None,1,,,,,,,,,,,,,,130,27,Male,2022-05-11_14h12.13.806,Parachute,2022.1.1,59.95250562632551,
negative,yellow,1,k,None,,,,,1,0,20,0,,,,,,,,,,,,,,,,,,,,,,,,,,,,,,,,,,,,,,,,,prac,k,k,1,0.7822453998960555,160.48974450002424,None,None,0,,,,,,,,,,,,,,130,27,Male,2022-05-11_14h12.13.806,Parachute,2022.1.1,59.95250562632551,
positive,red,2,None,None,,,,,1,1,21,1,,,,,,,,,,,,,,,,,,,,,,,,,,,,,,,,,,,,,,,,,prac,None,None,1,1.4975973999826238,162.27363640000112,None,None,1,,,,,,,,,,,,,,130,27,Male,2022-05-11_14h12.13.806,Parachute,2022.1.1,59.95250562632551,
negative,blue,2,None,k,,,,,1,2,22,2,,,,,,,,,,,,,,,,,,,,,,,,,,,,,,,,,,,,,,,,,prac,None,None,1,1.4985951000126079,164.7729687000392,None,None,1,,,,,,,,,,,,,,130,27,Male,2022-05-11_14h12.13.806,Parachute,2022.1.1,59.95250562632551,
positive,yellow,1,None,k,,,,,1,3,23,3,,,,,,,,,,,,,,,,,,,,,,,,,,,,,,,,,,,,,,,,,prac,None,None,1,1.498291700030677,167.273554500076,None,None,1,,,,,,,,,,,,,,130,27,Male,2022-05-11_14h12.13.806,Parachute,2022.1.1,59.95250562632551,
negative,blue,2,None,k,,,,,1,4,24,4,,,,,,,,,,,,,,,,,,,,,,,,,,,,,,,,,,,,,,,,,prac,None,None,1,1.4982072999700904,169.77348040009383,None,None,1,,,,,,,,,,,,,,130,27,Male,2022-05-11_14h12.13.806,Parachute,2022.1.1,59.95250562632551,
negative,blue,1,None,k,,,,,1,5,25,5,,,,,,,,,,,,,,,,,,,,,,,,,,,,,,,,,,,,,,,,,prac,None,None,1,1.4984946000622585,172.27332770009525,None,None,1,,,,,,,,,,,,,,130,27,Male,2022-05-11_14h12.13.806,Parachute,2022.1.1,59.95250562632551,
negative,yellow,2,k,None,,,,,1,6,26,6,,,,,,,,,,,,,,,,,,,,,,,,,,,,,,,,,,,,,,,,,prac,k,k,1,0.8999674000078812,174.77330110000912,None,None,0,,,,,,,,,,,,,,130,27,Male,2022-05-11_14h12.13.806,Parachute,2022.1.1,59.95250562632551,
negative,red,1,None,None,,,,,1,7,27,7,,,,,,,,,,,,,,,,,,,,,,,,,,,,,,,,,,,,,,,,,prac,None,None,1,1.4969791000476107,176.67549050005618,None,None,1,,,,,,,,,,,,,,130,27,Male,2022-05-11_14h12.13.806,Parachute,2022.1.1,59.95250562632551,
positive,yellow,2,None,k,,,,,1,8,28,8,,,,,,,,,,,,,,,,,,,,,,,,,,,,,,,,,,,,,,,,,prac,None,None,1,1.4983872999437153,179.17343480000272,None,None,1,,,,,,,,,,,,,,130,27,Male,2022-05-11_14h12.13.806,Parachute,2022.1.1,59.95250562632551,
negative,yellow,1,k,None,,,,,1,9,29,9,,,,,,,,,,,,,,,,,,,,,,,,,,,,,,,,,,,,,,,,,prac,k,k,1,1.0179116999497637,181.67339430004358,None,None,0,,,,,,,,,,,,,,130,27,Male,2022-05-11_14h12.13.806,Parachute,2022.1.1,59.95250562632551,
positive,yellow,2,None,k,,,,,1,10,30,10,,,,,,,,,,,,,,,,,,,,,,,,,,,,,,,,,,,,,,,,,prac,None,None,1,1.495865499950014,183.69351950008422,None,None,1,,,,,,,,,,,,,,130,27,Male,2022-05-11_14h12.13.806,Parachute,2022.1.1,59.95250562632551,
negative,yellow,2,k,None,,,,,1,11,31,11,,,,,,,,,,,,,,,,,,,,,,,,,,,,,,,,,,,,,,,,,prac,k,k,1,1.466467900085263,186.19020740000997,None,None,0,,,,,,,,,,,,,,130,27,Male,2022-05-11_14h12.13.806,Parachute,2022.1.1,59.95250562632551,
negative,red,2,None,None,,,,,1,12,32,12,,,,,,,,,,,,,,,,,,,,,,,,,,,,,,,,,,,,,,,,,prac,None,None,1,1.497085400042124,188.6601539000403,None,None,1,,,,,,,,,,,,,,130,27,Male,2022-05-11_14h12.13.806,Parachute,2022.1.1,59.95250562632551,
positive,red,1,None,None,,,,,1,13,33,13,,,,,,,,,,,,,,,,,,,,,,,,,,,,,,,,,,,,,,,,,prac,None,None,1,1.4985288999741897,191.15750020009,None,None,1,,,,,,,,,,,,,,130,27,Male,2022-05-11_14h12.13.806,Parachute,2022.1.1,59.95250562632551,
positive,blue,2,k,None,,,,,1,14,34,14,,,,,,,,,,,,,,,,,,,,,,,,,,,,,,,,,,,,,,,,,prac,k,k,1,1.4009372000582516,193.65744370000903,None,None,0,,,,,,,,,,,,,,130,27,Male,2022-05-11_14h12.13.806,Parachute,2022.1.1,59.95250562632551,
positive,blue,1,k,None,,,,,1,15,35,15,,,,,,,,,,,,,,,,,,,,,,,,,,,,,,,,,,,,,,,,,prac,k,k,1,0.84708049998153,196.05998620006721,None,None,0,,,,,,,,,,,,,,130,27,Male,2022-05-11_14h12.13.806,Parachute,2022.1.1,59.95250562632551,
negative,blue,1,None,k,,,,,1,16,36,16,,,,,,,,,,,,,,,,,,,,,,,,,,,,,,,,,,,,,,,,,prac,None,None,1,1.4975026999600232,197.9080859000096,None,None,1,,,,,,,,,,,,,,130,27,Male,2022-05-11_14h12.13.806,Parachute,2022.1.1,59.95250562632551,
positive,blue,2,k,None,,,,,1,17,37,17,,,,,,,,,,,,,,,,,,,,,,,,,,,,,,,,,,,,,,,,,prac,k,k,1,0.8999662999995053,200.40872350009158,None,None,0,,,,,,,,,,,,,,130,27,Male,2022-05-11_14h12.13.806,Parachute,2022.1.1,59.95250562632551,
positive,blue,1,k,None,,,,,1,18,38,18,,,,,,,,,,,,,,,,,,,,,,,,,,,,,,,,,,,,,,,,,prac,k,k,1,0.814604000071995,202.30998060002457,None,None,0,,,,,,,,,,,,,,130,27,Male,2022-05-11_14h12.13.806,Parachute,2022.1.1,59.95250562632551,
positive,yellow,1,None,k,,,,,1,19,39,19,,,,,,,,,,,,,,,,,,,,,,,,,,,,,,,,,,,,,,,,,prac,None,None,1,1.4965397999621928,204.12580510007683,None,None,1,,,,,,,,,,,,,,130,27,Male,2022-05-11_14h12.13.806,Parachute,2022.1.1,59.95250562632551,
,,,,,,,,,,,,,,,,,,,,,,,,,,,,,,,,,,,,,,,,,,,,,,,,,,,,,,,,,,,,,,206.64286110003013,None,206.64286110003013,None,0.88611114,-0.3148148,0,0,0,0.012515880167484283,None,,,130,27,Male,2022-05-11_14h12.13.806,Parachute,2022.1.1,59.95250562632551,
negative,yellow,2,k,None,,,,,,,,,0,0,0,0,,,,,,,,,,,,,,,,,,,,,,,,,,,,,,,,,209.65682140004355,None,209.65682140004355,None,main,k,k,1,1.0360104999272153,211.70275280007627,None,None,0,,,,,,,,,,,,,,130,27,Male,2022-05-11_14h12.13.806,Parachute,2022.1.1,59.95250562632551,
positive,red,1,None,None,,,,,,,,,0,1,1,1,,,,,,,,,,,,,,,,,,,,,,,,,,,,,,,,,,,,,main,None,None,1,1.4969014000380412,213.74266890005674,None,None,1,,,,,,,,,,,,,,130,27,Male,2022-05-11_14h12.13.806,Parachute,2022.1.1,59.95250562632551,
positive,blue,2,k,None,,,,,,,,,0,2,2,2,,,,,,,,,,,,,,,,,,,,,,,,,,,,,,,,,,,,,main,k,k,1,1.4171619000844657,216.24039210006595,None,None,0,,,,,,,,,,,,,,130,27,Male,2022-05-11_14h12.13.806,Parachute,2022.1.1,59.95250562632551,
positive,blue,1,k,None,,,,,,,,,0,3,3,3,,,,,,,,,,,,,,,,,,,,,,,,,,,,,,,,,,,,,main,k,k,1,0.8824233999475837,218.65993810002692,None,None,0,,,,,,,,,,,,,,130,27,Male,2022-05-11_14h12.13.806,Parachute,2022.1.1,59.95250562632551,
negative,yellow,2,k,None,,,,,,,,,0,4,4,4,,,,,,,,,,,,,,,,,,,,,,,,,,,,,,,,,,,,,main,k,k,1,0.9645529999397695,220.54390879999846,None,None,0,,,,,,,,,,,,,,130,27,Male,2022-05-11_14h12.13.806,Parachute,2022.1.1,59.95250562632551,
positive,yellow,2,None,k,,,,,,,,,0,5,5,5,,,,,,,,,,,,,,,,,,,,,,,,,,,,,,,,,,,,,main,None,None,1,1.496411900036037,222.51009100000374,None,None,1,,,,,,,,,,,,,,130,27,Male,2022-05-11_14h12.13.806,Parachute,2022.1.1,59.95250562632551,
negative,blue,2,None,k,,,,,,,,,0,6,6,6,,,,,,,,,,,,,,,,,,,,,,,,,,,,,,,,,,,,,main,None,None,1,1.498875500052236,225.00733960000798,None,None,1,,,,,,,,,,,,,,130,27,Male,2022-05-11_14h12.13.806,Parachute,2022.1.1,59.95250562632551,
positive,red,2,None,None,,,,,,,,,0,7,7,7,,,,,,,,,,,,,,,,,,,,,,,,,,,,,,,,,,,,,main,None,None,1,1.4985409999499097,227.50808300008066,None,None,1,,,,,,,,,,,,,,130,27,Male,2022-05-11_14h12.13.806,Parachute,2022.1.1,59.95250562632551,
positive,yellow,1,None,k,,,,,,,,,0,8,8,8,,,,,,,,,,,,,,,,,,,,,,,,,,,,,,,,,,,,,main,None,None,1,1.4985623999964446,230.0077310000779,None,None,1,,,,,,,,,,,,,,130,27,Male,2022-05-11_14h12.13.806,Parachute,2022.1.1,59.95250562632551,
negative,red,1,None,None,,,,,,,,,0,9,9,9,,,,,,,,,,,,,,,,,,,,,,,,,,,,,,,,,,,,,main,None,None,1,1.4987194000277668,232.50771969999187,None,None,1,,,,,,,,,,,,,,130,27,Male,2022-05-11_14h12.13.806,Parachute,2022.1.1,59.95250562632551,
positive,yellow,1,None,k,,,,,,,,,0,10,10,10,,,,,,,,,,,,,,,,,,,,,,,,,,,,,,,,,,,,,main,None,None,1,1.4983274000696838,235.0081248000497,None,None,1,,,,,,,,,,,,,,130,27,Male,2022-05-11_14h12.13.806,Parachute,2022.1.1,59.95250562632551,
negative,yellow,1,k,None,,,,,,,,,0,11,11,11,,,,,,,,,,,,,,,,,,,,,,,,,,,,,,,,,,,,,main,k,k,1,1.0160739999264479,237.50808410008904,None,None,0,,,,,,,,,,,,,,130,27,Male,2022-05-11_14h12.13.806,Parachute,2022.1.1,59.95250562632551,
negative,yellow,1,k,None,,,,,,,,,0,12,12,12,,,,,,,,,,,,,,,,,,,,,,,,,,,,,,,,,,,,,main,k,k,1,0.843378399964422,239.52554360008799,None,None,0,,,,,,,,,,,,,,130,27,Male,2022-05-11_14h12.13.806,Parachute,2022.1.1,59.95250562632551,
negative,red,2,None,None,,,,,,,,,0,13,13,13,,,,,,,,,,,,,,,,,,,,,,,,,,,,,,,,,,,,,main,None,None,1,1.5018266999395564,241.37000200001057,None,None,1,,,,,,,,,,,,,,130,27,Male,2022-05-11_14h12.13.806,Parachute,2022.1.1,59.95250562632551,
positive,yellow,2,None,k,,,,,,,,,0,14,14,14,,,,,,,,,,,,,,,,,,,,,,,,,,,,,,,,,,,,,main,None,None,1,1.4978607000084594,243.87563560006674,None,None,1,,,,,,,,,,,,,,130,27,Male,2022-05-11_14h12.13.806,Parachute,2022.1.1,59.95250562632551,
positive,blue,1,k,None,,,,,,,,,0,15,15,15,,,,,,,,,,,,,,,,,,,,,,,,,,,,,,,,,,,,,main,k,k,1,0.8164135999977589,246.3755791001022,None,None,0,,,,,,,,,,,,,,130,27,Male,2022-05-11_14h12.13.806,Parachute,2022.1.1,59.95250562632551,
negative,blue,1,None,k,,,,,,,,,0,16,16,16,,,,,,,,,,,,,,,,,,,,,,,,,,,,,,,,,,,,,main,None,None,1,1.4965291999978945,248.19589990004897,None,None,1,,,,,,,,,,,,,,130,27,Male,2022-05-11_14h12.13.806,Parachute,2022.1.1,59.95250562632551,
positive,blue,2,k,None,,,,,,,,,0,17,17,17,,,,,,,,,,,,,,,,,,,,,,,,,,,,,,,,,,,,,main,k,k,1,0.7825776999816298,250.6918140000198,None,None,0,,,,,,,,,,,,,,130,27,Male,2022-05-11_14h12.13.806,Parachute,2022.1.1,59.95250562632551,
negative,blue,2,None,k,,,,,,,,,0,18,18,18,,,,,,,,,,,,,,,,,,,,,,,,,,,,,,,,,,,,,main,None,None,1,1.4975735999178141,252.47569520003162,None,None,1,,,,,,,,,,,,,,130,27,Male,2022-05-11_14h12.13.806,Parachute,2022.1.1,59.95250562632551,
negative,blue,1,None,k,,,,,,,,,0,19,19,19,,,,,,,,,,,,,,,,,,,,,,,,,,,,,,,,,,,,,main,None,None,1,1.4987894999794662,254.97465500002727,None,None,1,,,,,,,,,,,,,,130,27,Male,2022-05-11_14h12.13.806,Parachute,2022.1.1,59.95250562632551,
negative,blue,1,None,k,,,,,,,,,0,20,20,20,,,,,,,,,,,,,,,,,,,,,,,,,,,,,,,,,,,,,main,None,None,1,1.4983502000104636,257.4754014000064,None,None,1,,,,,,,,,,,,,,130,27,Male,2022-05-11_14h12.13.806,Parachute,2022.1.1,59.95250562632551,
negative,blue,2,None,k,,,,,,,,,0,21,21,21,,,,,,,,,,,,,,,,,,,,,,,,,,,,,,,,,,,,,main,None,None,1,1.4983635999960825,259.97551950009074,None,None,1,,,,,,,,,,,,,,130,27,Male,2022-05-11_14h12.13.806,Parachute,2022.1.1,59.95250562632551,
negative,red,1,None,None,,,,,,,,,0,22,22,22,,,,,,,,,,,,,,,,,,,,,,,,,,,,,,,,,,,,,main,None,None,1,1.498503000009805,262.4751178000588,None,None,1,,,,,,,,,,,,,,130,27,Male,2022-05-11_14h12.13.806,Parachute,2022.1.1,59.95250562632551,
positive,red,2,None,None,,,,,,,,,0,23,23,23,,,,,,,,,,,,,,,,,,,,,,,,,,,,,,,,,,,,,main,None,None,1,1.4985355000244454,264.9753667000914,None,None,1,,,,,,,,,,,,,,130,27,Male,2022-05-11_14h12.13.806,Parachute,2022.1.1,59.95250562632551,
negative,red,2,None,None,,,,,,,,,0,24,24,24,,,,,,,,,,,,,,,,,,,,,,,,,,,,,,,,,,,,,main,None,None,1,1.4982538000913337,267.47568350005895,None,None,1,,,,,,,,,,,,,,130,27,Male,2022-05-11_14h12.13.806,Parachute,2022.1.1,59.95250562632551,
positive,blue,2,k,None,,,,,,,,,0,25,25,25,,,,,,,,,,,,,,,,,,,,,,,,,,,,,,,,,,,,,main,k,k,1,0.9669550999533385,269.9753077001078,None,None,0,,,,,,,,,,,,,,130,27,Male,2022-05-11_14h12.13.806,Parachute,2022.1.1,59.95250562632551,
negative,yellow,1,k,None,,,,,,,,,0,26,26,26,,,,,,,,,,,,,,,,,,,,,,,,,,,,,,,,,,,,,main,k,k,1,0.963525400031358,271.94607570010703,None,None,0,,,,,,,,,,,,,,130,27,Male,2022-05-11_14h12.13.806,Parachute,2022.1.1,59.95250562632551,
positive,blue,2,k,None,,,,,,,,,0,27,27,27,,,,,,,,,,,,,,,,,,,,,,,,,,,,,,,,,,,,,main,k,k,1,1.530581400031224,273.9107903999975,None,None,0,,,,,,,,,,,,,,130,27,Male,2022-05-11_14h12.13.806,Parachute,2022.1.1,59.95250562632551,
negative,blue,2,None,k,,,,,,,,,0,28,28,28,,,,,,,,,,,,,,,,,,,,,,,,,,,,,,,,,,,,,main,None,None,1,1.5020721999462694,277.44142430007923,None,None,1,,,,,,,,,,,,,,130,27,Male,2022-05-11_14h12.13.806,Parachute,2022.1.1,59.95250562632551,
positive,red,1,None,None,,,,,,,,,0,29,29,29,,,,,,,,,,,,,,,,,,,,,,,,,,,,,,,,,,,,,main,None,None,1,1.498311199946329,279.94263830001,None,None,1,,,,,,,,,,,,,,130,27,Male,2022-05-11_14h12.13.806,Parachute,2022.1.1,59.95250562632551,
positive,blue,1,k,None,,,,,,,,,0,30,30,30,,,,,,,,,,,,,,,,,,,,,,,,,,,,,,,,,,,,,main,k,k,1,0.9659986000042409,282.4429514000658,None,None,0,,,,,,,,,,,,,,130,27,Male,2022-05-11_14h12.13.806,Parachute,2022.1.1,59.95250562632551,
positive,yellow,1,None,k,,,,,,,,,0,31,31,31,,,,,,,,,,,,,,,,,,,,,,,,,,,,,,,,,,,,,main,None,None,1,1.4970461999764666,284.41083250008523,None,None,1,,,,,,,,,,,,,,130,27,Male,2022-05-11_14h12.13.806,Parachute,2022.1.1,59.95250562632551,
negative,yellow,2,k,None,,,,,,,,,0,32,32,32,,,,,,,,,,,,,,,,,,,,,,,,,,,,,,,,,,,,,main,k,k,1,0.7831547000678256,286.9087962000631,None,None,0,,,,,,,,,,,,,,130,27,Male,2022-05-11_14h12.13.806,Parachute,2022.1.1,59.95250562632551,
negative,blue,1,None,k,,,,,,,,,0,33,33,33,,,,,,,,,,,,,,,,,,,,,,,,,,,,,,,,,,,,,main,None,None,1,1.497346300049685,288.69416340009775,None,None,1,,,,,,,,,,,,,,130,27,Male,2022-05-11_14h12.13.806,Parachute,2022.1.1,59.95250562632551,
positive,blue,1,k,None,,,,,,,,,0,34,34,34,,,,,,,,,,,,,,,,,,,,,,,,,,,,,,,,,,,,,main,k,k,1,0.8010226000333205,291.1927229000721,None,None,0,,,,,,,,,,,,,,130,27,Male,2022-05-11_14h12.13.806,Parachute,2022.1.1,59.95250562632551,
negative,yellow,1,k,None,,,,,,,,,0,35,35,35,,,,,,,,,,,,,,,,,,,,,,,,,,,,,,,,,,,,,main,k,k,1,1.1462127000559121,292.9955116000492,None,None,0,,,,,,,,,,,,,,130,27,Male,2022-05-11_14h12.13.806,Parachute,2022.1.1,59.95250562632551,
positive,yellow,2,None,k,,,,,,,,,0,36,36,36,,,,,,,,,,,,,,,,,,,,,,,,,,,,,,,,,,,,,main,None,None,1,1.4982496000593528,295.14286240004003,None,None,1,,,,,,,,,,,,,,130,27,Male,2022-05-11_14h12.13.806,Parachute,2022.1.1,59.95250562632551,
positive,yellow,2,None,k,,,,,,,,,0,37,37,37,,,,,,,,,,,,,,,,,,,,,,,,,,,,,,,,,,,,,main,None,None,1,1.4988615000620484,297.64295130001847,None,None,1,,,,,,,,,,,,,,130,27,Male,2022-05-11_14h12.13.806,Parachute,2022.1.1,59.95250562632551,
negative,yellow,2,k,None,,,,,,,,,0,38,38,38,,,,,,,,,,,,,,,,,,,,,,,,,,,,,,,,,,,,,main,k,k,1,1.165978999924846,300.1431280000834,None,None,0,,,,,,,,,,,,,,130,27,Male,2022-05-11_14h12.13.806,Parachute,2022.1.1,59.95250562632551,
positive,yellow,1,None,k,,,,,,,,,0,39,39,39,,,,,,,,,,,,,,,,,,,,,,,,,,,,,,,,,,,,,main,None,None,1,1.497187600005418,302.3107022000477,None,None,1,,,,,,,,,,,,,,130,27,Male,2022-05-11_14h12.13.806,Parachute,2022.1.1,59.95250562632551,
negative,yellow,2,k,None,,,,,,,,,0,40,40,40,,,,,,,,,,,,,,,,,,,,,,,,,,,,,,,,,,,,,main,k,k,1,1.1003878000192344,304.8091273000464,None,None,0,,,,,,,,,,,,,,130,27,Male,2022-05-11_14h12.13.806,Parachute,2022.1.1,59.95250562632551,
positive,blue,2,k,None,,,,,,,,,0,41,41,41,,,,,,,,,,,,,,,,,,,,,,,,,,,,,,,,,,,,,main,k,k,1,0.880775099969469,306.9116442000959,None,None,0,,,,,,,,,,,,,,130,27,Male,2022-05-11_14h12.13.806,Parachute,2022.1.1,59.95250562632551,
positive,blue,2,k,None,,,,,,,,,0,42,42,42,,,,,,,,,,,,,,,,,,,,,,,,,,,,,,,,,,,,,main,k,k,1,0.7158161000115797,308.7933561000973,None,None,0,,,,,,,,,,,,,,130,27,Male,2022-05-11_14h12.13.806,Parachute,2022.1.1,59.95250562632551,
negative,blue,2,None,k,,,,,,,,,0,43,43,43,,,,,,,,,,,,,,,,,,,,,,,,,,,,,,,,,,,,,main,None,None,1,1.4971803000662476,310.51083820010535,None,None,1,,,,,,,,,,,,,,130,27,Male,2022-05-11_14h12.13.806,Parachute,2022.1.1,59.95250562632551,
negative,red,1,None,None,,,,,,,,,0,44,44,44,,,,,,,,,,,,,,,,,,,,,,,,,,,,,,,,,,,,,main,None,None,1,1.4985773999942467,313.00941180007067,None,None,1,,,,,,,,,,,,,,130,27,Male,2022-05-11_14h12.13.806,Parachute,2022.1.1,59.95250562632551,
negative,yellow,1,k,None,,,,,,,,,0,45,45,45,,,,,,,,,,,,,,,,,,,,,,,,,,,,,,,,,,,,,main,k,k,1,0.9831823999993503,315.5095845001051,None,None,0,,,,,,,,,,,,,,130,27,Male,2022-05-11_14h12.13.806,Parachute,2022.1.1,59.95250562632551,
negative,yellow,1,k,None,,,,,,,,,0,46,46,46,,,,,,,,,,,,,,,,,,,,,,,,,,,,,,,,,,,,,main,k,k,1,0.7313357000239193,317.4948460001033,None,None,0,,,,,,,,,,,,,,130,27,Male,2022-05-11_14h12.13.806,Parachute,2022.1.1,59.95250562632551,
positive,red,1,None,None,,,,,,,,,0,47,47,47,,,,,,,,,,,,,,,,,,,,,,,,,,,,,,,,,,,,,main,None,None,1,1.497457699966617,319.2274536000332,None,None,1,,,,,,,,,,,,,,130,27,Male,2022-05-11_14h12.13.806,Parachute,2022.1.1,59.95250562632551,
positive,yellow,1,None,k,,,,,,,,,0,48,48,48,,,,,,,,,,,,,,,,,,,,,,,,,,,,,,,,,,,,,main,None,None,1,1.5002843999536708,321.7259965999983,None,None,1,,,,,,,,,,,,,,130,27,Male,2022-05-11_14h12.13.806,Parachute,2022.1.1,59.95250562632551,
negative,blue,1,None,k,,,,,,,,,0,49,49,49,,,,,,,,,,,,,,,,,,,,,,,,,,,,,,,,,,,,,main,None,None,1,1.496214999933727,324.23069160000887,None,None,1,,,,,,,,,,,,,,130,27,Male,2022-05-11_14h12.13.806,Parachute,2022.1.1,59.95250562632551,
positive,yellow,2,None,k,,,,,,,,,0,50,50,50,,,,,,,,,,,,,,,,,,,,,,,,,,,,,,,,,,,,,main,None,None,1,1.4987991000525653,326.7262060000794,None,None,1,,,,,,,,,,,,,,130,27,Male,2022-05-11_14h12.13.806,Parachute,2022.1.1,59.95250562632551,
negative,blue,1,None,k,,,,,,,,,0,51,51,51,,,,,,,,,,,,,,,,,,,,,,,,,,,,,,,,,,,,,main,None,None,1,1.498417199938558,329.226723000058,None,None,1,,,,,,,,,,,,,,130,27,Male,2022-05-11_14h12.13.806,Parachute,2022.1.1,59.95250562632551,
positive,red,2,None,None,,,,,,,,,0,52,52,52,,,,,,,,,,,,,,,,,,,,,,,,,,,,,,,,,,,,,main,None,None,1,1.4985844000475481,331.7266811000882,None,None,1,,,,,,,,,,,,,,130,27,Male,2022-05-11_14h12.13.806,Parachute,2022.1.1,59.95250562632551,
positive,yellow,2,None,k,,,,,,,,,0,53,53,53,,,,,,,,,,,,,,,,,,,,,,,,,,,,,,,,,,,,,main,None,None,1,1.4990730999270454,334.2266375001054,None,None,1,,,,,,,,,,,,,,130,27,Male,2022-05-11_14h12.13.806,Parachute,2022.1.1,59.95250562632551,
negative,red,2,None,None,,,,,,,,,0,54,54,54,,,,,,,,,,,,,,,,,,,,,,,,,,,,,,,,,,,,,main,None,None,1,1.496848599985242,336.731061700033,None,None,1,,,,,,,,,,,,,,130,27,Male,2022-05-11_14h12.13.806,Parachute,2022.1.1,59.95250562632551,
positive,yellow,1,None,k,,,,,,,,,0,55,55,55,,,,,,,,,,,,,,,,,,,,,,,,,,,,,,,,,,,,,main,None,None,1,1.498742000083439,339.2265050000278,None,None,1,,,,,,,,,,,,,,130,27,Male,2022-05-11_14h12.13.806,Parachute,2022.1.1,59.95250562632551,
negative,blue,2,None,k,,,,,,,,,0,56,56,56,,,,,,,,,,,,,,,,,,,,,,,,,,,,,,,,,,,,,main,None,None,1,1.4987812999170274,341.7268340000883,None,None,1,,,,,,,,,,,,,,130,27,Male,2022-05-11_14h12.13.806,Parachute,2022.1.1,59.95250562632551,
positive,blue,1,k,None,,,,,,,,,0,57,57,57,,,,,,,,,,,,,,,,,,,,,,,,,,,,,,,,,,,,,main,k,k,1,1.0322777000255883,344.2272035999922,None,None,0,,,,,,,,,,,,,,130,27,Male,2022-05-11_14h12.13.806,Parachute,2022.1.1,59.95250562632551,
positive,blue,1,k,None,,,,,,,,,0,58,58,58,,,,,,,,,,,,,,,,,,,,,,,,,,,,,,,,,,,,,main,k,k,1,0.7172884000465274,346.26065650000237,None,None,0,,,,,,,,,,,,,,130,27,Male,2022-05-11_14h12.13.806,Parachute,2022.1.1,59.95250562632551,
negative,yellow,2,k,None,,,,,,,,,0,59,59,59,,,,,,,,,,,,,,,,,,,,,,,,,,,,,,,,,,,,,main,k,k,1,0.7167048000264913,347.9800087000476,None,None,0,,,,,,,,,,,,,,130,27,Male,2022-05-11_14h12.13.806,Parachute,2022.1.1,59.95250562632551,
positive,red,2,None,None,,,,,,,,,0,60,60,60,,,,,,,,,,,,,,,,,,,,,,,,,,,,,,,,,,,,,main,None,None,1,1.4943065999541432,349.697824700037,None,None,1,,,,,,,,,,,,,,130,27,Male,2022-05-11_14h12.13.806,Parachute,2022.1.1,59.95250562632551,
negative,yellow,1,k,None,,,,,,,,,0,61,61,61,,,,,,,,,,,,,,,,,,,,,,,,,,,,,,,,,,,,,main,k,k,1,0.7502408999716863,352.1930349000031,None,None,0,,,,,,,,,,,,,,130,27,Male,2022-05-11_14h12.13.806,Parachute,2022.1.1,59.95250562632551,
negative,red,1,None,None,,,,,,,,,0,62,62,62,,,,,,,,,,,,,,,,,,,,,,,,,,,,,,,,,,,,,main,None,None,1,1.497432000003755,353.94516440003645,None,None,1,,,,,,,,,,,,,,130,27,Male,2022-05-11_14h12.13.806,Parachute,2022.1.1,59.95250562632551,
negative,blue,1,None,k,,,,,,,,,0,63,63,63,,,,,,,,,,,,,,,,,,,,,,,,,,,,,,,,,,,,,main,None,None,1,1.4978476000251248,356.4449658000376,None,None,1,,,,,,,,,,,,,,130,27,Male,2022-05-11_14h12.13.806,Parachute,2022.1.1,59.95250562632551,
positive,blue,2,k,None,,,,,,,,,0,64,64,64,,,,,,,,,,,,,,,,,,,,,,,,,,,,,,,,,,,,,main,k,k,1,0.9832524000667036,358.94380630005617,None,None,0,,,,,,,,,,,,,,130,27,Male,2022-05-11_14h12.13.806,Parachute,2022.1.1,59.95250562632551,
negative,yellow,2,k,None,,,,,,,,,0,65,65,65,,,,,,,,,,,,,,,,,,,,,,,,,,,,,,,,,,,,,main,k,k,1,0.8332528999308124,360.9290118000936,None,None,0,,,,,,,,,,,,,,130,27,Male,2022-05-11_14h12.13.806,Parachute,2022.1.1,59.95250562632551,
positive,yellow,2,None,k,,,,,,,,,0,66,66,66,,,,,,,,,,,,,,,,,,,,,,,,,,,,,,,,,,,,,main,None,None,1,1.495985700050369,362.7637350000441,None,None,1,,,,,,,,,,,,,,130,27,Male,2022-05-11_14h12.13.806,Parachute,2022.1.1,59.95250562632551,
positive,yellow,2,None,k,,,,,,,,,0,67,67,67,,,,,,,,,,,,,,,,,,,,,,,,,,,,,,,,,,,,,main,None,None,1,1.4996562999440357,365.26043360005133,None,None,1,,,,,,,,,,,,,,130,27,Male,2022-05-11_14h12.13.806,Parachute,2022.1.1,59.95250562632551,
positive,red,1,None,None,,,,,,,,,0,68,68,68,,,,,,,,,,,,,,,,,,,,,,,,,,,,,,,,,,,,,main,None,None,1,1.4985003999900073,367.7626937000314,None,None,1,,,,,,,,,,,,,,130,27,Male,2022-05-11_14h12.13.806,Parachute,2022.1.1,59.95250562632551,
positive,yellow,1,None,k,,,,,,,,,0,69,69,69,,,,,,,,,,,,,,,,,,,,,,,,,,,,,,,,,,,,,main,None,None,1,1.4982471999246627,370.2630188000621,None,None,1,,,,,,,,,,,,,,130,27,Male,2022-05-11_14h12.13.806,Parachute,2022.1.1,59.95250562632551,
negative,yellow,2,k,None,,,,,,,,,0,70,70,70,,,,,,,,,,,,,,,,,,,,,,,,,,,,,,,,,,,,,main,k,k,1,1.0167839999776334,372.7622994000558,None,None,0,,,,,,,,,,,,,,130,27,Male,2022-05-11_14h12.13.806,Parachute,2022.1.1,59.95250562632551,
positive,yellow,1,None,k,,,,,,,,,0,71,71,71,,,,,,,,,,,,,,,,,,,,,,,,,,,,,,,,,,,,,main,None,None,1,1.4960076999850571,374.7807646000292,None,None,1,,,,,,,,,,,,,,130,27,Male,2022-05-11_14h12.13.806,Parachute,2022.1.1,59.95250562632551,
negative,blue,1,None,k,,,,,,,,,0,72,72,72,,,,,,,,,,,,,,,,,,,,,,,,,,,,,,,,,,,,,main,None,None,1,1.49827360000927,377.2779538000468,None,None,1,,,,,,,,,,,,,,130,27,Male,2022-05-11_14h12.13.806,Parachute,2022.1.1,59.95250562632551,
negative,red,2,None,None,,,,,,,,,0,73,73,73,,,,,,,,,,,,,,,,,,,,,,,,,,,,,,,,,,,,,main,None,None,1,1.498564700013958,379.77729940006975,None,None,1,,,,,,,,,,,,,,130,27,Male,2022-05-11_14h12.13.806,Parachute,2022.1.1,59.95250562632551,
positive,blue,2,k,None,,,,,,,,,0,74,74,74,,,,,,,,,,,,,,,,,,,,,,,,,,,,,,,,,,,,,main,k,k,1,1.1679350999183953,382.2777971000178,None,None,0,,,,,,,,,,,,,,130,27,Male,2022-05-11_14h12.13.806,Parachute,2022.1.1,59.95250562632551,
negative,blue,2,None,k,,,,,,,,,0,75,75,75,,,,,,,,,,,,,,,,,,,,,,,,,,,,,,,,,,,,,main,None,None,1,1.4958799999440089,384.44790480006486,None,None,1,,,,,,,,,,,,,,130,27,Male,2022-05-11_14h12.13.806,Parachute,2022.1.1,59.95250562632551,
negative,blue,2,None,k,,,,,,,,,0,76,76,76,,,,,,,,,,,,,,,,,,,,,,,,,,,,,,,,,,,,,main,None,None,1,1.4981731999432668,386.9449462000048,None,None,1,,,,,,,,,,,,,,130,27,Male,2022-05-11_14h12.13.806,Parachute,2022.1.1,59.95250562632551,
negative,yellow,1,k,None,,,,,,,,,0,77,77,77,,,,,,,,,,,,,,,,,,,,,,,,,,,,,,,,,,,,,main,k,k,1,1.1495250000152737,389.44430640002247,None,None,0,,,,,,,,,,,,,,130,27,Male,2022-05-11_14h12.13.806,Parachute,2022.1.1,59.95250562632551,
positive,blue,1,k,None,,,,,,,,,0,78,78,78,,,,,,,,,,,,,,,,,,,,,,,,,,,,,,,,,,,,,main,k,k,1,1.3985850000753999,391.5956419000868,None,None,0,,,,,,,,,,,,,,130,27,Male,2022-05-11_14h12.13.806,Parachute,2022.1.1,59.95250562632551,
positive,blue,1,k,None,,,,,,,,,0,79,79,79,,,,,,,,,,,,,,,,,,,,,,,,,,,,,,,,,,,,,main,k,k,1,0.7161631999770179,393.9960485000629,None,None,0,,,,,,,,,,,,,,130,27,Male,2022-05-11_14h12.13.806,Parachute,2022.1.1,59.95250562632551,
positive,red,2,None,None,,,,,,,,,0,80,80,80,,,,,,,,,,,,,,,,,,,,,,,,,,,,,,,,,,,,,main,None,None,1,1.496407700004056,395.71373170008883,None,None,1,,,,,,,,,,,,,,130,27,Male,2022-05-11_14h12.13.806,Parachute,2022.1.1,59.95250562632551,
positive,yellow,2,None,k,,,,,,,,,0,81,81,81,,,,,,,,,,,,,,,,,,,,,,,,,,,,,,,,,,,,,main,None,None,1,1.498638299992308,398.2109743000474,None,None,1,,,,,,,,,,,,,,130,27,Male,2022-05-11_14h12.13.806,Parachute,2022.1.1,59.95250562632551,
positive,blue,1,k,None,,,,,,,,,0,82,82,82,,,,,,,,,,,,,,,,,,,,,,,,,,,,,,,,,,,,,main,k,k,1,0.9496333999559283,400.7115788999945,None,None,0,,,,,,,,,,,,,,130,27,Male,2022-05-11_14h12.13.806,Parachute,2022.1.1,59.95250562632551,
negative,yellow,2,k,None,,,,,,,,,0,83,83,83,,,,,,,,,,,,,,,,,,,,,,,,,,,,,,,,,,,,,main,k,k,1,0.7483475999906659,402.6627136000898,None,None,0,,,,,,,,,,,,,,130,27,Male,2022-05-11_14h12.13.806,Parachute,2022.1.1,59.95250562632551,
positive,blue,2,k,None,,,,,,,,,0,84,84,84,,,,,,,,,,,,,,,,,,,,,,,,,,,,,,,,,,,,,main,k,k,1,0.7651104000397027,404.41293360001873,None,None,0,,,,,,,,,,,,,,130,27,Male,2022-05-11_14h12.13.806,Parachute,2022.1.1,59.95250562632551,
positive,yellow,1,None,k,,,,,,,,,0,85,85,85,,,,,,,,,,,,,,,,,,,,,,,,,,,,,,,,,,,,,main,None,None,1,1.4986336999572814,406.1788795000175,None,None,1,,,,,,,,,,,,,,130,27,Male,2022-05-11_14h12.13.806,Parachute,2022.1.1,59.95250562632551,
positive,blue,2,k,None,,,,,,,,,0,86,86,86,,,,,,,,,,,,,,,,,,,,,,,,,,,,,,,,,,,,,main,k,k,1,0.7652944000437856,408.67923590005375,None,None,0,,,,,,,,,,,,,,130,27,Male,2022-05-11_14h12.13.806,Parachute,2022.1.1,59.95250562632551,
positive,blue,1,k,None,,,,,,,,,0,87,87,87,,,,,,,,,,,,,,,,,,,,,,,,,,,,,,,,,,,,,main,k,k,1,0.9832946999231353,410.4462965000421,None,None,0,,,,,,,,,,,,,,130,27,Male,2022-05-11_14h12.13.806,Parachute,2022.1.1,59.95250562632551,
negative,yellow,2,k,None,,,,,,,,,0,88,88,88,,,,,,,,,,,,,,,,,,,,,,,,,,,,,,,,,,,,,main,k,k,1,0.9138432000763714,412.4312740000896,None,None,0,,,,,,,,,,,,,,130,27,Male,2022-05-11_14h12.13.806,Parachute,2022.1.1,59.95250562632551,
negative,blue,2,None,k,,,,,,,,,0,89,89,89,,,,,,,,,,,,,,,,,,,,,,,,,,,,,,,,,,,,,main,None,None,1,1.49712830001954,414.3464927000459,None,None,1,,,,,,,,,,,,,,130,27,Male,2022-05-11_14h12.13.806,Parachute,2022.1.1,59.95250562632551,
positive,yellow,2,None,k,,,,,,,,,0,90,90,90,,,,,,,,,,,,,,,,,,,,,,,,,,,,,,,,,,,,,main,None,None,1,1.498642799910158,416.84493180003483,None,None,1,,,,,,,,,,,,,,130,27,Male,2022-05-11_14h12.13.806,Parachute,2022.1.1,59.95250562632551,
negative,yellow,1,k,None,,,,,,,,,0,91,91,91,,,,,,,,,,,,,,,,,,,,,,,,,,,,,,,,,,,,,main,k,k,1,0.9501591000007465,419.34492580010556,None,None,0,,,,,,,,,,,,,,130,27,Male,2022-05-11_14h12.13.806,Parachute,2022.1.1,59.95250562632551,
negative,red,2,None,None,,,,,,,,,0,92,92,92,,,,,,,,,,,,,,,,,,,,,,,,,,,,,,,,,,,,,main,None,None,1,1.4968450999585912,421.29716340010054,None,None,1,,,,,,,,,,,,,,130,27,Male,2022-05-11_14h12.13.806,Parachute,2022.1.1,59.95250562632551,
negative,blue,2,None,k,,,,,,,,,0,93,93,93,,,,,,,,,,,,,,,,,,,,,,,,,,,,,,,,,,,,,main,None,None,1,1.4986743000335991,423.7951568000717,None,None,1,,,,,,,,,,,,,,130,27,Male,2022-05-11_14h12.13.806,Parachute,2022.1.1,59.95250562632551,
negative,blue,1,None,k,,,,,,,,,0,94,94,94,,,,,,,,,,,,,,,,,,,,,,,,,,,,,,,,,,,,,main,None,None,1,1.4985368999186903,426.2952207000926,None,None,1,,,,,,,,,,,,,,130,27,Male,2022-05-11_14h12.13.806,Parachute,2022.1.1,59.95250562632551,
negative,blue,1,None,k,,,,,,,,,0,95,95,95,,,,,,,,,,,,,,,,,,,,,,,,,,,,,,,,,,,,,main,None,None,1,1.498429000028409,428.79548920004163,None,None,1,,,,,,,,,,,,,,130,27,Male,2022-05-11_14h12.13.806,Parachute,2022.1.1,59.95250562632551,
negative,red,1,None,None,,,,,,,,,0,96,96,96,,,,,,,,,,,,,,,,,,,,,,,,,,,,,,,,,,,,,main,None,None,1,1.4985682999249548,431.29555900010746,None,None,1,,,,,,,,,,,,,,130,27,Male,2022-05-11_14h12.13.806,Parachute,2022.1.1,59.95250562632551,
positive,yellow,1,None,k,,,,,,,,,0,97,97,97,,,,,,,,,,,,,,,,,,,,,,,,,,,,,,,,,,,,,main,None,None,1,1.4982801999431103,433.797653799993,None,None,1,,,,,,,,,,,,,,130,27,Male,2022-05-11_14h12.13.806,Parachute,2022.1.1,59.95250562632551,
negative,yellow,1,k,None,,,,,,,,,0,98,98,98,,,,,,,,,,,,,,,,,,,,,,,,,,,,,,,,,,,,,main,k,k,1,0.9993688999675214,436.296015500091,None,None,0,,,,,,,,,,,,,,130,27,Male,2022-05-11_14h12.13.806,Parachute,2022.1.1,59.95250562632551,
positive,red,1,None,None,,,,,,,,,0,99,99,99,,,,,,,,,,,,,,,,,,,,,,,,,,,,,,,,,,,,,main,None,None,1,1.4976107999682426,438.2969312000787,None,None,1,,,,,,,,,,,,,,130,27,Male,2022-05-11_14h12.13.806,Parachute,2022.1.1,59.95250562632551,
positive,blue,1,k,None,,,,,,,,,0,100,100,100,,,,,,,,,,,,,,,,,,,,,,,,,,,,,,,,,,,,,main,k,k,1,1.2826491999439895,440.79595820000395,None,None,0,,,,,,,,,,,,,,130,27,Male,2022-05-11_14h12.13.806,Parachute,2022.1.1,59.95250562632551,
negative,yellow,1,k,None,,,,,,,,,0,101,101,101,,,,,,,,,,,,,,,,,,,,,,,,,,,,,,,,,,,,,main,k,k,1,0.8156645999988541,443.07998460007366,None,None,0,,,,,,,,,,,,,,130,27,Male,2022-05-11_14h12.13.806,Parachute,2022.1.1,59.95250562632551,
negative,blue,2,None,k,,,,,,,,,0,102,102,102,,,,,,,,,,,,,,,,,,,,,,,,,,,,,,,,,,,,,main,None,None,1,1.497111800010316,444.8969386999961,None,None,1,,,,,,,,,,,,,,130,27,Male,2022-05-11_14h12.13.806,Parachute,2022.1.1,59.95250562632551,
negative,yellow,2,k,None,,,,,,,,,0,103,103,103,,,,,,,,,,,,,,,,,,,,,,,,,,,,,,,,,,,,,main,k,k,1,0.9332383000291884,447.3957622000016,None,None,0,,,,,,,,,,,,,,130,27,Male,2022-05-11_14h12.13.806,Parachute,2022.1.1,59.95250562632551,
positive,yellow,2,None,k,,,,,,,,,0,104,104,104,,,,,,,,,,,,,,,,,,,,,,,,,,,,,,,,,,,,,main,None,None,1,1.4972577000735328,449.33062730007805,None,None,1,,,,,,,,,,,,,,130,27,Male,2022-05-11_14h12.13.806,Parachute,2022.1.1,59.95250562632551,
positive,blue,1,k,None,,,,,,,,,0,105,105,105,,,,,,,,,,,,,,,,,,,,,,,,,,,,,,,,,,,,,main,k,k,1,0.7160962000489235,451.82886300003156,None,None,0,,,,,,,,,,,,,,130,27,Male,2022-05-11_14h12.13.806,Parachute,2022.1.1,59.95250562632551,
positive,blue,2,k,None,,,,,,,,,0,106,106,106,,,,,,,,,,,,,,,,,,,,,,,,,,,,,,,,,,,,,main,k,k,1,0.7980887000449002,453.5471873000497,None,None,0,,,,,,,,,,,,,,130,27,Male,2022-05-11_14h12.13.806,Parachute,2022.1.1,59.95250562632551,
negative,blue,1,None,k,,,,,,,,,0,107,107,107,,,,,,,,,,,,,,,,,,,,,,,,,,,,,,,,,,,,,main,None,None,1,1.4978480000281706,455.3466382001061,None,None,1,,,,,,,,,,,,,,130,27,Male,2022-05-11_14h12.13.806,Parachute,2022.1.1,59.95250562632551,
positive,yellow,2,None,k,,,,,,,,,0,108,108,108,,,,,,,,,,,,,,,,,,,,,,,,,,,,,,,,,,,,,main,None,None,1,1.499177600024268,457.8453824000899,None,None,1,,,,,,,,,,,,,,130,27,Male,2022-05-11_14h12.13.806,Parachute,2022.1.1,59.95250562632551,
negative,yellow,1,k,None,,,,,,,,,0,109,109,109,,,,,,,,,,,,,,,,,,,,,,,,,,,,,,,,,,,,,main,k,k,1,0.7653684999095276,460.3469481000211,None,None,0,,,,,,,,,,,,,,130,27,Male,2022-05-11_14h12.13.806,Parachute,2022.1.1,59.95250562632551,
negative,blue,2,None,k,,,,,,,,,0,110,110,110,,,,,,,,,,,,,,,,,,,,,,,,,,,,,,,,,,,,,main,None,None,1,1.4973317999392748,462.11404700006824,None,None,1,,,,,,,,,,,,,,130,27,Male,2022-05-11_14h12.13.806,Parachute,2022.1.1,59.95250562632551,
positive,blue,2,k,None,,,,,,,,,0,111,111,111,,,,,,,,,,,,,,,,,,,,,,,,,,,,,,,,,,,,,main,k,k,1,1.083793899975717,464.6133687000256,None,None,0,,,,,,,,,,,,,,130,27,Male,2022-05-11_14h12.13.806,Parachute,2022.1.1,59.95250562632551,
negative,blue,1,None,k,,,,,,,,,0,112,112,112,,,,,,,,,,,,,,,,,,,,,,,,,,,,,,,,,,,,,main,None,None,1,1.4966398000251502,466.69917949999217,None,None,1,,,,,,,,,,,,,,130,27,Male,2022-05-11_14h12.13.806,Parachute,2022.1.1,59.95250562632551,
positive,yellow,1,None,k,,,,,,,,,0,113,113,113,,,,,,,,,,,,,,,,,,,,,,,,,,,,,,,,,,,,,main,None,None,1,1.498463699943386,469.1963101000292,None,None,1,,,,,,,,,,,,,,130,27,Male,2022-05-11_14h12.13.806,Parachute,2022.1.1,59.95250562632551,
negative,red,1,None,None,,,,,,,,,0,114,114,114,,,,,,,,,,,,,,,,,,,,,,,,,,,,,,,,,,,,,main,None,None,1,1.4982712999917567,471.69641400000546,None,None,1,,,,,,,,,,,,,,130,27,Male,2022-05-11_14h12.13.806,Parachute,2022.1.1,59.95250562632551,
positive,red,1,None,None,,,,,,,,,0,115,115,115,,,,,,,,,,,,,,,,,,,,,,,,,,,,,,,,,,,,,main,None,None,1,1.4987991000525653,474.1960554000689,None,None,1,,,,,,,,,,,,,,130,27,Male,2022-05-11_14h12.13.806,Parachute,2022.1.1,59.95250562632551,
negative,red,2,None,None,,,,,,,,,0,116,116,116,,,,,,,,,,,,,,,,,,,,,,,,,,,,,,,,,,,,,main,None,None,1,1.4987795999040827,476.6962656000396,None,None,1,,,,,,,,,,,,,,130,27,Male,2022-05-11_14h12.13.806,Parachute,2022.1.1,59.95250562632551,
negative,yellow,2,k,None,,,,,,,,,0,117,117,117,,,,,,,,,,,,,,,,,,,,,,,,,,,,,,,,,,,,,main,k,k,1,0.8496793999802321,479.1965766000794,None,None,0,,,,,,,,,,,,,,130,27,Male,2022-05-11_14h12.13.806,Parachute,2022.1.1,59.95250562632551,
positive,yellow,1,None,k,,,,,,,,,0,118,118,118,,,,,,,,,,,,,,,,,,,,,,,,,,,,,,,,,,,,,main,None,None,1,1.497207700042054,481.04826990002766,None,None,1,,,,,,,,,,,,,,130,27,Male,2022-05-11_14h12.13.806,Parachute,2022.1.1,59.95250562632551,
positive,red,2,None,None,,,,,,,,,0,119,119,119,,,,,,,,,,,,,,,,,,,,,,,,,,,,,,,,,,,,,main,None,None,1,1.4986276000272483,483.5464574000798,None,None,1,,,,,,,,,,,,,,130,27,Male,2022-05-11_14h12.13.806,Parachute,2022.1.1,59.95250562632551,
positive,blue,2,k,None,,,,,,,,,0,120,120,120,,,,,,,,,,,,,,,,,,,,,,,,,,,,,,,,,,,,,main,k,k,1,0.9677857999922708,486.0464238000568,None,None,0,,,,,,,,,,,,,,130,27,Male,2022-05-11_14h12.13.806,Parachute,2022.1.1,59.95250562632551,
negative,red,1,None,None,,,,,,,,,0,121,121,121,,,,,,,,,,,,,,,,,,,,,,,,,,,,,,,,,,,,,main,None,None,1,1.495981700019911,488.01643000007607,None,None,1,,,,,,,,,,,,,,130,27,Male,2022-05-11_14h12.13.806,Parachute,2022.1.1,59.95250562632551,
positive,yellow,2,None,k,,,,,,,,,0,122,122,122,,,,,,,,,,,,,,,,,,,,,,,,,,,,,,,,,,,,,main,None,None,1,1.4985051000257954,490.5133948000148,None,None,1,,,,,,,,,,,,,,130,27,Male,2022-05-11_14h12.13.806,Parachute,2022.1.1,59.95250562632551,
negative,red,2,None,None,,,,,,,,,0,123,123,123,,,,,,,,,,,,,,,,,,,,,,,,,,,,,,,,,,,,,main,None,None,1,1.498257700004615,493.0135363000445,None,None,1,,,,,,,,,,,,,,130,27,Male,2022-05-11_14h12.13.806,Parachute,2022.1.1,59.95250562632551,
negative,yellow,2,k,None,,,,,,,,,0,124,124,124,,,,,,,,,,,,,,,,,,,,,,,,,,,,,,,,,,,,,main,k,k,1,0.783409700030461,495.51289870007895,None,None,0,,,,,,,,,,,,,,130,27,Male,2022-05-11_14h12.13.806,Parachute,2022.1.1,59.95250562632551,
positive,red,1,None,None,,,,,,,,,0,125,125,125,,,,,,,,,,,,,,,,,,,,,,,,,,,,,,,,,,,,,main,None,None,1,1.497397700091824,497.298598100082,None,None,1,,,,,,,,,,,,,,130,27,Male,2022-05-11_14h12.13.806,Parachute,2022.1.1,59.95250562632551,
negative,blue,2,None,k,,,,,,,,,0,126,126,126,,,,,,,,,,,,,,,,,,,,,,,,,,,,,,,,,,,,,main,None,None,1,1.498202299932018,499.79686970007606,None,None,1,,,,,,,,,,,,,,130,27,Male,2022-05-11_14h12.13.806,Parachute,2022.1.1,59.95250562632551,
negative,blue,1,None,k,,,,,,,,,0,127,127,127,,,,,,,,,,,,,,,,,,,,,,,,,,,,,,,,,,,,,main,None,None,1,1.4986540999962017,502.2968867000891,None,None,1,,,,,,,,,,,,,,130,27,Male,2022-05-11_14h12.13.806,Parachute,2022.1.1,59.95250562632551,
negative,yellow,1,k,None,,,,,,,,,0,128,128,128,,,,,,,,,,,,,,,,,,,,,,,,,,,,,,,,,,,,,main,k,k,1,0.7996716999914497,504.7969544000225,None,None,0,,,,,,,,,,,,,,130,27,Male,2022-05-11_14h12.13.806,Parachute,2022.1.1,59.95250562632551,
negative,yellow,1,k,None,,,,,,,,,0,129,129,129,,,,,,,,,,,,,,,,,,,,,,,,,,,,,,,,,,,,,main,k,k,1,1.714528699987568,506.5983753000619,None,None,0,,,,,,,,,,,,,,130,27,Male,2022-05-11_14h12.13.806,Parachute,2022.1.1,59.95250562632551,
positive,blue,1,k,None,,,,,,,,,0,130,130,130,,,,,,,,,,,,,,,,,,,,,,,,,,,,,,,,,,,,,main,k,k,1,0.7197522999485955,510.32994550000876,None,None,0,,,,,,,,,,,,,,130,27,Male,2022-05-11_14h12.13.806,Parachute,2022.1.1,59.95250562632551,
negative,blue,1,None,k,,,,,,,,,0,131,131,131,,,,,,,,,,,,,,,,,,,,,,,,,,,,,,,,,,,,,main,None,None,1,1.4970628999872133,512.0492430001032,None,None,1,,,,,,,,,,,,,,130,27,Male,2022-05-11_14h12.13.806,Parachute,2022.1.1,59.95250562632551,
negative,blue,2,None,k,,,,,,,,,0,132,132,132,,,,,,,,,,,,,,,,,,,,,,,,,,,,,,,,,,,,,main,None,None,1,1.4985999999335036,514.5469281000551,None,None,1,,,,,,,,,,,,,,130,27,Male,2022-05-11_14h12.13.806,Parachute,2022.1.1,59.95250562632551,
positive,blue,2,k,None,,,,,,,,,0,133,133,133,,,,,,,,,,,,,,,,,,,,,,,,,,,,,,,,,,,,,main,k,k,1,1.2670579000841826,517.0472472000401,None,None,0,,,,,,,,,,,,,,130,27,Male,2022-05-11_14h12.13.806,Parachute,2022.1.1,59.95250562632551,
positive,red,2,None,None,,,,,,,,,0,134,134,134,,,,,,,,,,,,,,,,,,,,,,,,,,,,,,,,,,,,,main,None,None,1,1.4964874000288546,519.3162508000387,None,None,1,,,,,,,,,,,,,,130,27,Male,2022-05-11_14h12.13.806,Parachute,2022.1.1,59.95250562632551,
negative,yellow,2,k,None,,,,,,,,,0,135,135,135,,,,,,,,,,,,,,,,,,,,,,,,,,,,,,,,,,,,,main,k,k,1,0.7501612999476492,521.8140457000118,None,None,0,,,,,,,,,,,,,,130,27,Male,2022-05-11_14h12.13.806,Parachute,2022.1.1,59.95250562632551,
positive,yellow,2,None,k,,,,,,,,,0,136,136,136,,,,,,,,,,,,,,,,,,,,,,,,,,,,,,,,,,,,,main,None,None,1,1.4969385999720544,523.5660611001076,None,None,1,,,,,,,,,,,,,,130,27,Male,2022-05-11_14h12.13.806,Parachute,2022.1.1,59.95250562632551,
positive,blue,1,k,None,,,,,,,,,0,137,137,137,,,,,,,,,,,,,,,,,,,,,,,,,,,,,,,,,,,,,main,k,k,1,1.0826459000818431,526.0641165000852,None,None,0,,,,,,,,,,,,,,130,27,Male,2022-05-11_14h12.13.806,Parachute,2022.1.1,59.95250562632551,
positive,yellow,1,None,k,,,,,,,,,0,138,138,138,,,,,,,,,,,,,,,,,,,,,,,,,,,,,,,,,,,,,main,None,None,1,1.4979190999874845,528.1483596001053,None,None,1,,,,,,,,,,,,,,130,27,Male,2022-05-11_14h12.13.806,Parachute,2022.1.1,59.95250562632551,
positive,yellow,1,None,k,,,,,,,,,0,139,139,139,,,,,,,,,,,,,,,,,,,,,,,,,,,,,,,,,,,,,main,None,None,1,1.498306700028479,530.6473920000717,None,None,1,,,,,,,,,,,,,,130,27,Male,2022-05-11_14h12.13.806,Parachute,2022.1.1,59.95250562632551,
positive,yellow,1,None,k,,,,,,,,,0,140,140,140,,,,,,,,,,,,,,,,,,,,,,,,,,,,,,,,,,,,,main,None,None,1,1.4987555999541655,533.1473158000736,None,None,1,,,,,,,,,,,,,,130,27,Male,2022-05-11_14h12.13.806,Parachute,2022.1.1,59.95250562632551,
positive,blue,1,k,None,,,,,,,,,0,141,141,141,,,,,,,,,,,,,,,,,,,,,,,,,,,,,,,,,,,,,main,k,k,1,1.016551399952732,535.647954300046,None,None,0,,,,,,,,,,,,,,130,27,Male,2022-05-11_14h12.13.806,Parachute,2022.1.1,59.95250562632551,
positive,blue,2,k,None,,,,,,,,,0,142,142,142,,,,,,,,,,,,,,,,,,,,,,,,,,,,,,,,,,,,,main,k,k,1,0.9985684000421315,537.6665618000552,None,None,0,,,,,,,,,,,,,,130,27,Male,2022-05-11_14h12.13.806,Parachute,2022.1.1,59.95250562632551,
positive,yellow,2,None,k,,,,,,,,,0,143,143,143,,,,,,,,,,,,,,,,,,,,,,,,,,,,,,,,,,,,,main,None,None,1,1.4979701000265777,539.66633310006,None,None,1,,,,,,,,,,,,,,130,27,Male,2022-05-11_14h12.13.806,Parachute,2022.1.1,59.95250562632551,
negative,yellow,2,k,None,,,,,,,,,0,144,144,144,,,,,,,,,,,,,,,,,,,,,,,,,,,,,,,,,,,,,main,k,k,1,0.9822391000343487,542.1655477000168,None,None,0,,,,,,,,,,,,,,130,27,Male,2022-05-11_14h12.13.806,Parachute,2022.1.1,59.95250562632551,
negative,blue,2,None,k,,,,,,,,,0,145,145,145,,,,,,,,,,,,,,,,,,,,,,,,,,,,,,,,,,,,,main,None,None,1,1.4972843000432476,544.1488143000752,None,None,1,,,,,,,,,,,,,,130,27,Male,2022-05-11_14h12.13.806,Parachute,2022.1.1,59.95250562632551,
negative,red,1,None,None,,,,,,,,,0,146,146,146,,,,,,,,,,,,,,,,,,,,,,,,,,,,,,,,,,,,,main,None,None,1,1.498571699950844,546.6480835000984,None,None,1,,,,,,,,,,,,,,130,27,Male,2022-05-11_14h12.13.806,Parachute,2022.1.1,59.95250562632551,
positive,blue,1,k,None,,,,,,,,,0,147,147,147,,,,,,,,,,,,,,,,,,,,,,,,,,,,,,,,,,,,,main,k,k,1,0.8499050999525934,549.1480257000076,None,None,0,,,,,,,,,,,,,,130,27,Male,2022-05-11_14h12.13.806,Parachute,2022.1.1,59.95250562632551,
positive,yellow,1,None,k,,,,,,,,,0,148,148,148,,,,,,,,,,,,,,,,,,,,,,,,,,,,,,,,,,,,,main,None,None,1,1.497061499976553,550.9993670000695,None,None,1,,,,,,,,,,,,,,130,27,Male,2022-05-11_14h12.13.806,Parachute,2022.1.1,59.95250562632551,
negative,red,2,None,None,,,,,,,,,0,149,149,149,,,,,,,,,,,,,,,,,,,,,,,,,,,,,,,,,,,,,main,None,None,1,1.4987973000388592,553.4980057000648,None,None,1,,,,,,,,,,,,,,130,27,Male,2022-05-11_14h12.13.806,Parachute,2022.1.1,59.95250562632551,
negative,blue,1,None,k,,,,,,,,,0,150,150,150,,,,,,,,,,,,,,,,,,,,,,,,,,,,,,,,,,,,,main,None,None,1,1.498514199978672,555.998458600021,None,None,1,,,,,,,,,,,,,,130,27,Male,2022-05-11_14h12.13.806,Parachute,2022.1.1,59.95250562632551,
negative,yellow,2,k,None,,,,,,,,,0,151,151,151,,,,,,,,,,,,,,,,,,,,,,,,,,,,,,,,,,,,,main,k,k,1,0.7659374000504613,558.4983757000882,None,None,0,,,,,,,,,,,,,,130,27,Male,2022-05-11_14h12.13.806,Parachute,2022.1.1,59.95250562632551,
negative,blue,2,None,k,,,,,,,,,0,152,152,152,,,,,,,,,,,,,,,,,,,,,,,,,,,,,,,,,,,,,main,None,None,1,1.498618399957195,560.2675111000426,None,None,1,,,,,,,,,,,,,,130,27,Male,2022-05-11_14h12.13.806,Parachute,2022.1.1,59.95250562632551,
negative,yellow,1,k,None,,,,,,,,,0,153,153,153,,,,,,,,,,,,,,,,,,,,,,,,,,,,,,,,,,,,,main,k,k,1,0.9481930999318138,562.7667819000781,None,None,0,,,,,,,,,,,,,,130,27,Male,2022-05-11_14h12.13.806,Parachute,2022.1.1,59.95250562632551,
negative,blue,1,None,k,,,,,,,,,0,154,154,154,,,,,,,,,,,,,,,,,,,,,,,,,,,,,,,,,,,,,main,None,None,1,1.4977497999789193,564.7160678000655,None,None,1,,,,,,,,,,,,,,130,27,Male,2022-05-11_14h12.13.806,Parachute,2022.1.1,59.95250562632551,
positive,yellow,2,None,k,,,,,,,,,0,155,155,155,,,,,,,,,,,,,,,,,,,,,,,,,,,,,,,,,,,,,main,None,None,1,1.4987253000726923,567.2149347000523,None,None,1,,,,,,,,,,,,,,130,27,Male,2022-05-11_14h12.13.806,Parachute,2022.1.1,59.95250562632551,
positive,red,2,None,None,,,,,,,,,0,156,156,156,,,,,,,,,,,,,,,,,,,,,,,,,,,,,,,,,,,,,main,None,None,1,1.4985448999796063,569.7155072001042,None,None,1,,,,,,,,,,,,,,130,27,Male,2022-05-11_14h12.13.806,Parachute,2022.1.1,59.95250562632551,
positive,red,1,None,None,,,,,,,,,0,157,157,157,,,,,,,,,,,,,,,,,,,,,,,,,,,,,,,,,,,,,main,None,None,1,1.4982184000546113,572.2157404000172,None,None,1,,,,,,,,,,,,,,130,27,Male,2022-05-11_14h12.13.806,Parachute,2022.1.1,59.95250562632551,
positive,blue,2,k,None,,,,,,,,,0,158,158,158,,,,,,,,,,,,,,,,,,,,,,,,,,,,,,,,,,,,,main,k,k,1,1.0498943999409676,574.7151199000655,None,None,0,,,,,,,,,,,,,,130,27,Male,2022-05-11_14h12.13.806,Parachute,2022.1.1,59.95250562632551,
negative,yellow,1,k,None,,,,,,,,,0,159,159,159,,,,,,,,,,,,,,,,,,,,,,,,,,,,,,,,,,,,,main,k,k,1,1.065077600069344,576.7674555000849,None,None,0,,,,,,,,,,,,,,130,27,Male,2022-05-11_14h12.13.806,Parachute,2022.1.1,59.95250562632551,
negative,red,2,None,None,,,,,,,,,0,160,160,160,,,,,,,,,,,,,,,,,,,,,,,,,,,,,,,,,,,,,main,None,None,1,1.497212899965234,578.8338058000663,None,None,1,,,,,,,,,,,,,,130,27,Male,2022-05-11_14h12.13.806,Parachute,2022.1.1,59.95250562632551,
negative,blue,1,None,k,,,,,,,,,0,161,161,161,,,,,,,,,,,,,,,,,,,,,,,,,,,,,,,,,,,,,main,None,None,1,1.4985754999797791,581.3322407000232,None,None,1,,,,,,,,,,,,,,130,27,Male,2022-05-11_14h12.13.806,Parachute,2022.1.1,59.95250562632551,
negative,blue,1,None,k,,,,,,,,,0,162,162,162,,,,,,,,,,,,,,,,,,,,,,,,,,,,,,,,,,,,,main,None,None,1,1.4985744999721646,583.8323964000447,None,None,1,,,,,,,,,,,,,,130,27,Male,2022-05-11_14h12.13.806,Parachute,2022.1.1,59.95250562632551,
negative,yellow,1,k,None,,,,,,,,,0,163,163,163,,,,,,,,,,,,,,,,,,,,,,,,,,,,,,,,,,,,,main,k,k,1,0.8337186001008376,586.3324491000967,None,None,0,,,,,,,,,,,,,,130,27,Male,2022-05-11_14h12.13.806,Parachute,2022.1.1,59.95250562632551,
negative,yellow,1,k,None,,,,,,,,,0,164,164,164,,,,,,,,,,,,,,,,,,,,,,,,,,,,,,,,,,,,,main,k,k,1,0.7657067000400275,588.1677661000285,None,None,0,,,,,,,,,,,,,,130,27,Male,2022-05-11_14h12.13.806,Parachute,2022.1.1,59.95250562632551,
positive,yellow,1,None,k,,,,,,,,,0,165,165,165,,,,,,,,,,,,,,,,,,,,,,,,,,,,,,,,,,,,,main,None,None,1,1.4960698999930173,589.9356860000407,None,None,1,,,,,,,,,,,,,,130,27,Male,2022-05-11_14h12.13.806,Parachute,2022.1.1,59.95250562632551,
negative,red,1,None,None,,,,,,,,,0,166,166,166,,,,,,,,,,,,,,,,,,,,,,,,,,,,,,,,,,,,,main,None,None,1,1.4983078999212012,592.4326547000092,None,None,1,,,,,,,,,,,,,,130,27,Male,2022-05-11_14h12.13.806,Parachute,2022.1.1,59.95250562632551,
negative,yellow,2,k,None,,,,,,,,,0,167,167,167,,,,,,,,,,,,,,,,,,,,,,,,,,,,,,,,,,,,,main,k,k,1,1.4500659999903291,594.9321416000603,None,None,0,,,,,,,,,,,,,,130,27,Male,2022-05-11_14h12.13.806,Parachute,2022.1.1,59.95250562632551,
positive,blue,2,k,None,,,,,,,,,0,168,168,168,,,,,,,,,,,,,,,,,,,,,,,,,,,,,,,,,,,,,main,k,k,1,0.6684372999006882,597.3843981000828,None,None,0,,,,,,,,,,,,,,130,27,Male,2022-05-11_14h12.13.806,Parachute,2022.1.1,59.95250562632551,
positive,red,2,None,None,,,,,,,,,0,169,169,169,,,,,,,,,,,,,,,,,,,,,,,,,,,,,,,,,,,,,main,None,None,1,1.4938905000453815,599.06352960004,None,None,1,,,,,,,,,,,,,,130,27,Male,2022-05-11_14h12.13.806,Parachute,2022.1.1,59.95250562632551,
positive,red,1,None,None,,,,,,,,,0,170,170,170,,,,,,,,,,,,,,,,,,,,,,,,,,,,,,,,,,,,,main,None,None,1,1.498505000025034,601.5492921000114,None,None,1,,,,,,,,,,,,,,130,27,Male,2022-05-11_14h12.13.806,Parachute,2022.1.1,59.95250562632551,
negative,blue,2,None,k,,,,,,,,,0,171,171,171,,,,,,,,,,,,,,,,,,,,,,,,,,,,,,,,,,,,,main,None,None,1,1.4983951000031084,604.0497087000404,None,None,1,,,,,,,,,,,,,,130,27,Male,2022-05-11_14h12.13.806,Parachute,2022.1.1,59.95250562632551,
positive,blue,2,k,None,,,,,,,,,0,172,172,172,,,,,,,,,,,,,,,,,,,,,,,,,,,,,,,,,,,,,main,k,k,1,0.934200800023973,606.5492235000711,None,None,0,,,,,,,,,,,,,,130,27,Male,2022-05-11_14h12.13.806,Parachute,2022.1.1,59.95250562632551,
negative,yellow,2,k,None,,,,,,,,,0,173,173,173,,,,,,,,,,,,,,,,,,,,,,,,,,,,,,,,,,,,,main,k,k,1,0.830419100006111,608.4861618001014,None,None,0,,,,,,,,,,,,,,130,27,Male,2022-05-11_14h12.13.806,Parachute,2022.1.1,59.95250562632551,
positive,yellow,2,None,k,,,,,,,,,0,174,174,174,,,,,,,,,,,,,,,,,,,,,,,,,,,,,,,,,,,,,main,None,None,1,1.4974816999165341,610.317182400031,None,None,1,,,,,,,,,,,,,,130,27,Male,2022-05-11_14h12.13.806,Parachute,2022.1.1,59.95250562632551,
negative,blue,2,None,k,,,,,,,,,0,175,175,175,,,,,,,,,,,,,,,,,,,,,,,,,,,,,,,,,,,,,main,None,None,1,1.4987692999420688,612.815918700071,None,None,1,,,,,,,,,,,,,,130,27,Male,2022-05-11_14h12.13.806,Parachute,2022.1.1,59.95250562632551,
positive,blue,1,k,None,,,,,,,,,0,176,176,176,,,,,,,,,,,,,,,,,,,,,,,,,,,,,,,,,,,,,main,k,k,1,0.916252699913457,615.3165851000231,None,None,0,,,,,,,,,,,,,,130,27,Male,2022-05-11_14h12.13.806,Parachute,2022.1.1,59.95250562632551,
positive,yellow,1,None,k,,,,,,,,,0,177,177,177,,,,,,,,,,,,,,,,,,,,,,,,,,,,,,,,,,,,,main,None,None,1,1.496635099989362,617.235152300098,None,None,1,,,,,,,,,,,,,,130,27,Male,2022-05-11_14h12.13.806,Parachute,2022.1.1,59.95250562632551,
positive,blue,1,k,None,,,,,,,,,0,178,178,178,,,,,,,,,,,,,,,,,,,,,,,,,,,,,,,,,,,,,main,k,k,1,1.0172869000816718,619.732587800012,None,None,0,,,,,,,,,,,,,,130,27,Male,2022-05-11_14h12.13.806,Parachute,2022.1.1,59.95250562632551,
positive,yellow,2,None,k,,,,,,,,,0,179,179,179,,,,,,,,,,,,,,,,,,,,,,,,,,,,,,,,,,,,,main,None,None,1,1.4965755000011995,621.7520643000025,None,None,1,,,,,,,,,,,,,,130,27,Male,2022-05-11_14h12.13.806,Parachute,2022.1.1,59.95250562632551,
positive,blue,1,k,None,,,,,,,,,0,180,180,180,,,,,,,,,,,,,,,,,,,,,,,,,,,,,,,,,,,,,main,k,k,1,0.833160400041379,624.2502414000919,None,None,0,,,,,,,,,,,,,,130,27,Male,2022-05-11_14h12.13.806,Parachute,2022.1.1,59.95250562632551,
negative,red,1,None,None,,,,,,,,,0,181,181,181,,,,,,,,,,,,,,,,,,,,,,,,,,,,,,,,,,,,,main,None,None,1,1.4969710999866948,626.0850580000551,None,None,1,,,,,,,,,,,,,,130,27,Male,2022-05-11_14h12.13.806,Parachute,2022.1.1,59.95250562632551,
negative,blue,1,None,k,,,,,,,,,0,182,182,182,,,,,,,,,,,,,,,,,,,,,,,,,,,,,,,,,,,,,main,None,None,1,1.4981985999038443,628.5830609000986,None,None,1,,,,,,,,,,,,,,130,27,Male,2022-05-11_14h12.13.806,Parachute,2022.1.1,59.95250562632551,
negative,yellow,2,k,None,,,,,,,,,0,183,183,183,,,,,,,,,,,,,,,,,,,,,,,,,,,,,,,,,,,,,main,k,k,1,0.8495040000416338,631.0832831000444,None,None,0,,,,,,,,,,,,,,130,27,Male,2022-05-11_14h12.13.806,Parachute,2022.1.1,59.95250562632551,
positive,yellow,2,None,k,,,,,,,,,0,184,184,184,,,,,,,,,,,,,,,,,,,,,,,,,,,,,,,,,,,,,main,None,None,1,1.4970179999945685,632.9347709000576,None,None,1,,,,,,,,,,,,,,130,27,Male,2022-05-11_14h12.13.806,Parachute,2022.1.1,59.95250562632551,
positive,yellow,1,None,k,,,,,,,,,0,185,185,185,,,,,,,,,,,,,,,,,,,,,,,,,,,,,,,,,,,,,main,None,None,1,1.4988901000469923,635.432843400049,None,None,1,,,,,,,,,,,,,,130,27,Male,2022-05-11_14h12.13.806,Parachute,2022.1.1,59.95250562632551,
positive,red,2,None,None,,,,,,,,,0,186,186,186,,,,,,,,,,,,,,,,,,,,,,,,,,,,,,,,,,,,,main,None,None,1,1.4984804999548942,637.9334810000146,None,None,1,,,,,,,,,,,,,,130,27,Male,2022-05-11_14h12.13.806,Parachute,2022.1.1,59.95250562632551,
positive,blue,1,k,None,,,,,,,,,0,187,187,187,,,,,,,,,,,,,,,,,,,,,,,,,,,,,,,,,,,,,main,k,k,1,1.2519774000393227,640.433540900005,None,None,0,,,,,,,,,,,,,,130,27,Male,2022-05-11_14h12.13.806,Parachute,2022.1.1,59.95250562632551,
negative,yellow,1,k,None,,,,,,,,,0,188,188,188,,,,,,,,,,,,,,,,,,,,,,,,,,,,,,,,,,,,,main,k,k,1,1.1625486999982968,642.6875679000514,None,None,0,,,,,,,,,,,,,,130,27,Male,2022-05-11_14h12.13.806,Parachute,2022.1.1,59.95250562632551,
positive,yellow,2,None,k,,,,,,,,,0,189,189,189,,,,,,,,,,,,,,,,,,,,,,,,,,,,,,,,,,,,,main,None,None,1,1.4981230000266805,644.8508798000403,None,None,1,,,,,,,,,,,,,,130,27,Male,2022-05-11_14h12.13.806,Parachute,2022.1.1,59.95250562632551,
negative,yellow,2,k,None,,,,,,,,,0,190,190,190,,,,,,,,,,,,,,,,,,,,,,,,,,,,,,,,,,,,,main,k,k,1,0.8989384999731556,647.3504344000248,None,None,0,,,,,,,,,,,,,,130,27,Male,2022-05-11_14h12.13.806,Parachute,2022.1.1,59.95250562632551,
negative,yellow,1,k,None,,,,,,,,,0,191,191,191,,,,,,,,,,,,,,,,,,,,,,,,,,,,,,,,,,,,,main,k,k,1,0.9491255000466481,649.2510801000753,None,None,0,,,,,,,,,,,,,,130,27,Male,2022-05-11_14h12.13.806,Parachute,2022.1.1,59.95250562632551,
positive,blue,2,k,None,,,,,,,,,0,192,192,192,,,,,,,,,,,,,,,,,,,,,,,,,,,,,,,,,,,,,main,k,k,1,1.0155392000451684,651.2026743000606,None,None,0,,,,,,,,,,,,,,130,27,Male,2022-05-11_14h12.13.806,Parachute,2022.1.1,59.95250562632551,
positive,yellow,1,None,k,,,,,,,,,0,193,193,193,,,,,,,,,,,,,,,,,,,,,,,,,,,,,,,,,,,,,main,None,None,1,1.4962354999734089,653.2194788000779,None,None,1,,,,,,,,,,,,,,130,27,Male,2022-05-11_14h12.13.806,Parachute,2022.1.1,59.95250562632551,
negative,red,2,None,None,,,,,,,,,0,194,194,194,,,,,,,,,,,,,,,,,,,,,,,,,,,,,,,,,,,,,main,None,None,1,1.4984210999682546,655.7171297000023,None,None,1,,,,,,,,,,,,,,130,27,Male,2022-05-11_14h12.13.806,Parachute,2022.1.1,59.95250562632551,
positive,red,1,None,None,,,,,,,,,0,195,195,195,,,,,,,,,,,,,,,,,,,,,,,,,,,,,,,,,,,,,main,None,None,1,1.4990499999839813,658.2164081000956,None,None,1,,,,,,,,,,,,,,130,27,Male,2022-05-11_14h12.13.806,Parachute,2022.1.1,59.95250562632551,
negative,blue,1,None,k,,,,,,,,,0,196,196,196,,,,,,,,,,,,,,,,,,,,,,,,,,,,,,,,,,,,,main,None,None,1,1.4984282000223175,660.7176958000055,None,None,1,,,,,,,,,,,,,,130,27,Male,2022-05-11_14h12.13.806,Parachute,2022.1.1,59.95250562632551,
positive,blue,2,k,None,,,,,,,,,0,197,197,197,,,,,,,,,,,,,,,,,,,,,,,,,,,,,,,,,,,,,main,k,k,1,1.4171346999937668,663.2192720000166,None,None,0,,,,,,,,,,,,,,130,27,Male,2022-05-11_14h12.13.806,Parachute,2022.1.1,59.95250562632551,
negative,blue,2,None,k,,,,,,,,,0,198,198,198,,,,,,,,,,,,,,,,,,,,,,,,,,,,,,,,,,,,,main,None,None,1,1.4960147000383586,665.6373656000942,None,None,1,,,,,,,,,,,,,,130,27,Male,2022-05-11_14h12.13.806,Parachute,2022.1.1,59.95250562632551,
negative,blue,2,None,k,,,,,,,,,0,199,199,199,,,,,,,,,,,,,,,,,,,,,,,,,,,,,,,,,,,,,main,None,None,1,1.4985911999829113,668.1338631000835,None,None,1,,,,,,,,,,,,,,130,27,Male,2022-05-11_14h12.13.806,Parachute,2022.1.1,59.95250562632551,
positive,blue,2,k,None,,,,,,,,,0,200,200,200,,,,,,,,,,,,,,,,,,,,,,,,,,,,,,,,,,,,,main,k,k,1,0.6826611999422312,670.6339140000055,None,None,0,,,,,,,,,,,,,,130,27,Male,2022-05-11_14h12.13.806,Parachute,2022.1.1,59.95250562632551,
positive,blue,2,k,None,,,,,,,,,0,201,201,201,,,,,,,,,,,,,,,,,,,,,,,,,,,,,,,,,,,,,main,k,k,1,0.632251999923028,672.3184044000227,None,None,0,,,,,,,,,,,,,,130,27,Male,2022-05-11_14h12.13.806,Parachute,2022.1.1,59.95250562632551,
negative,yellow,2,k,None,,,,,,,,,0,202,202,202,,,,,,,,,,,,,,,,,,,,,,,,,,,,,,,,,,,,,main,k,k,1,0.7667057999642566,673.9522663000971,None,None,0,,,,,,,,,,,,,,130,27,Male,2022-05-11_14h12.13.806,Parachute,2022.1.1,59.95250562632551,
positive,red,1,None,None,,,,,,,,,0,203,203,203,,,,,,,,,,,,,,,,,,,,,,,,,,,,,,,,,,,,,main,None,None,1,1.4971514000790194,675.7206680000527,None,None,1,,,,,,,,,,,,,,130,27,Male,2022-05-11_14h12.13.806,Parachute,2022.1.1,59.95250562632551,
negative,blue,2,None,k,,,,,,,,,0,204,204,204,,,,,,,,,,,,,,,,,,,,,,,,,,,,,,,,,,,,,main,None,None,1,1.4973650999600068,678.2195610000053,None,None,1,,,,,,,,,,,,,,130,27,Male,2022-05-11_14h12.13.806,Parachute,2022.1.1,59.95250562632551,
negative,red,1,None,None,,,,,,,,,0,205,205,205,,,,,,,,,,,,,,,,,,,,,,,,,,,,,,,,,,,,,main,None,None,1,1.4988253000192344,680.7175299000228,None,None,1,,,,,,,,,,,,,,130,27,Male,2022-05-11_14h12.13.806,Parachute,2022.1.1,59.95250562632551,
negative,blue,2,None,k,,,,,,,,,0,206,206,206,,,,,,,,,,,,,,,,,,,,,,,,,,,,,,,,,,,,,main,None,None,1,1.498293900047429,683.2181025000755,None,None,1,,,,,,,,,,,,,,130,27,Male,2022-05-11_14h12.13.806,Parachute,2022.1.1,59.95250562632551,
negative,yellow,2,k,None,,,,,,,,,0,207,207,207,,,,,,,,,,,,,,,,,,,,,,,,,,,,,,,,,,,,,main,k,k,1,0.8490803999593481,685.7178250000579,None,None,0,,,,,,,,,,,,,,130,27,Male,2022-05-11_14h12.13.806,Parachute,2022.1.1,59.95250562632551,
positive,yellow,2,None,k,,,,,,,,,0,208,208,208,,,,,,,,,,,,,,,,,,,,,,,,,,,,,,,,,,,,,main,None,None,1,1.4974215000402182,687.5689023000887,None,None,1,,,,,,,,,,,,,,130,27,Male,2022-05-11_14h12.13.806,Parachute,2022.1.1,59.95250562632551,
negative,yellow,1,k,None,,,,,,,,,0,209,209,209,,,,,,,,,,,,,,,,,,,,,,,,,,,,,,,,,,,,,main,k,k,1,0.9837533999234438,690.0681570000015,None,None,0,,,,,,,,,,,,,,130,27,Male,2022-05-11_14h12.13.806,Parachute,2022.1.1,59.95250562632551,
negative,red,2,None,None,,,,,,,,,0,210,210,210,,,,,,,,,,,,,,,,,,,,,,,,,,,,,,,,,,,,,main,None,None,1,1.4963032000232488,692.0541973999934,None,None,1,,,,,,,,,,,,,,130,27,Male,2022-05-11_14h12.13.806,Parachute,2022.1.1,59.95250562632551,
negative,blue,1,None,k,,,,,,,,,0,211,211,211,,,,,,,,,,,,,,,,,,,,,,,,,,,,,,,,,,,,,main,None,None,1,1.4984208999667317,694.5512960000196,None,None,1,,,,,,,,,,,,,,130,27,Male,2022-05-11_14h12.13.806,Parachute,2022.1.1,59.95250562632551,
negative,yellow,1,k,None,,,,,,,,,0,212,212,212,,,,,,,,,,,,,,,,,,,,,,,,,,,,,,,,,,,,,main,k,k,1,0.8699970999732614,697.0509722999996,None,None,0,,,,,,,,,,,,,,130,27,Male,2022-05-11_14h12.13.806,Parachute,2022.1.1,59.95250562632551,
positive,blue,1,k,None,,,,,,,,,0,213,213,213,,,,,,,,,,,,,,,,,,,,,,,,,,,,,,,,,,,,,main,k,k,1,0.9109706999734044,698.9234740000684,None,None,0,,,,,,,,,,,,,,130,27,Male,2022-05-11_14h12.13.806,Parachute,2022.1.1,59.95250562632551,
positive,blue,1,k,None,,,,,,,,,0,214,214,214,,,,,,,,,,,,,,,,,,,,,,,,,,,,,,,,,,,,,main,k,k,1,0.7820661999285221,700.8356804000214,None,None,0,,,,,,,,,,,,,,130,27,Male,2022-05-11_14h12.13.806,Parachute,2022.1.1,59.95250562632551,
positive,yellow,1,None,k,,,,,,,,,0,215,215,215,,,,,,,,,,,,,,,,,,,,,,,,,,,,,,,,,,,,,main,None,None,1,1.4972803000127897,702.6194811000023,None,None,1,,,,,,,,,,,,,,130,27,Male,2022-05-11_14h12.13.806,Parachute,2022.1.1,59.95250562632551,
positive,yellow,1,None,k,,,,,,,,,0,216,216,216,,,,,,,,,,,,,,,,,,,,,,,,,,,,,,,,,,,,,main,None,None,1,1.4982951999409124,705.118260200019,None,None,1,,,,,,,,,,,,,,130,27,Male,2022-05-11_14h12.13.806,Parachute,2022.1.1,59.95250562632551,
positive,yellow,2,None,k,,,,,,,,,0,217,217,217,,,,,,,,,,,,,,,,,,,,,,,,,,,,,,,,,,,,,main,None,None,1,1.498842200031504,707.6178315000143,None,None,1,,,,,,,,,,,,,,130,27,Male,2022-05-11_14h12.13.806,Parachute,2022.1.1,59.95250562632551,
negative,blue,1,None,k,,,,,,,,,0,218,218,218,,,,,,,,,,,,,,,,,,,,,,,,,,,,,,,,,,,,,main,None,None,1,1.4985775999957696,710.118198000011,None,None,1,,,,,,,,,,,,,,130,27,Male,2022-05-11_14h12.13.806,Parachute,2022.1.1,59.95250562632551,
positive,red,2,None,None,,,,,,,,,0,219,219,219,,,,,,,,,,,,,,,,,,,,,,,,,,,,,,,,,,,,,main,None,None,1,1.4983396000461653,712.6186261000112,None,None,1,,,,,,,,,,,,,,130,27,Male,2022-05-11_14h12.13.806,Parachute,2022.1.1,59.95250562632551,
positive,yellow,1,None,k,,,,,,,,,0,220,220,220,,,,,,,,,,,,,,,,,,,,,,,,,,,,,,,,,,,,,main,None,None,1,1.4986278999131173,715.1182080000872,None,None,1,,,,,,,,,,,,,,130,27,Male,2022-05-11_14h12.13.806,Parachute,2022.1.1,59.95250562632551,
positive,blue,1,k,None,,,,,,,,,0,221,221,221,,,,,,,,,,,,,,,,,,,,,,,,,,,,,,,,,,,,,main,k,k,1,0.8665546000702307,717.618525100057,None,None,0,,,,,,,,,,,,,,130,27,Male,2022-05-11_14h12.13.806,Parachute,2022.1.1,59.95250562632551,
positive,yellow,2,None,k,,,,,,,,,0,222,222,222,,,,,,,,,,,,,,,,,,,,,,,,,,,,,,,,,,,,,main,None,None,1,1.497167499968782,719.48642630002,None,None,1,,,,,,,,,,,,,,130,27,Male,2022-05-11_14h12.13.806,Parachute,2022.1.1,59.95250562632551,
negative,yellow,1,k,None,,,,,,,,,0,223,223,223,,,,,,,,,,,,,,,,,,,,,,,,,,,,,,,,,,,,,main,k,k,1,0.8188539000693709,721.984958200017,None,None,0,,,,,,,,,,,,,,130,27,Male,2022-05-11_14h12.13.806,Parachute,2022.1.1,59.95250562632551,
positive,yellow,2,None,k,,,,,,,,,0,224,224,224,,,,,,,,,,,,,,,,,,,,,,,,,,,,,,,,,,,,,main,None,None,1,1.4948772999923676,723.8059828000842,None,None,1,,,,,,,,,,,,,,130,27,Male,2022-05-11_14h12.13.806,Parachute,2022.1.1,59.95250562632551,
negative,yellow,2,k,None,,,,,,,,,0,225,225,225,,,,,,,,,,,,,,,,,,,,,,,,,,,,,,,,,,,,,main,k,k,1,0.799410100094974,726.3020931000356,None,None,0,,,,,,,,,,,,,,130,27,Male,2022-05-11_14h12.13.806,Parachute,2022.1.1,59.95250562632551,
negative,blue,2,None,k,,,,,,,,,0,226,226,226,,,,,,,,,,,,,,,,,,,,,,,,,,,,,,,,,,,,,main,None,None,1,1.4975751000456512,728.1030973000452,None,None,1,,,,,,,,,,,,,,130,27,Male,2022-05-11_14h12.13.806,Parachute,2022.1.1,59.95250562632551,
positive,red,2,None,None,,,,,,,,,0,227,227,227,,,,,,,,,,,,,,,,,,,,,,,,,,,,,,,,,,,,,main,None,None,1,1.4987641000188887,730.6032261000946,None,None,1,,,,,,,,,,,,,,130,27,Male,2022-05-11_14h12.13.806,Parachute,2022.1.1,59.95250562632551,
positive,blue,2,k,None,,,,,,,,,0,228,228,228,,,,,,,,,,,,,,,,,,,,,,,,,,,,,,,,,,,,,main,k,k,1,1.03275080001913,733.1022897000657,None,None,0,,,,,,,,,,,,,,130,27,Male,2022-05-11_14h12.13.806,Parachute,2022.1.1,59.95250562632551,
negative,blue,1,None,k,,,,,,,,,0,229,229,229,,,,,,,,,,,,,,,,,,,,,,,,,,,,,,,,,,,,,main,None,None,1,1.4974144999869168,735.1366496999981,None,None,1,,,,,,,,,,,,,,130,27,Male,2022-05-11_14h12.13.806,Parachute,2022.1.1,59.95250562632551,
positive,yellow,1,None,k,,,,,,,,,0,230,230,230,,,,,,,,,,,,,,,,,,,,,,,,,,,,,,,,,,,,,main,None,None,1,1.498656600015238,737.6352378000738,None,None,1,,,,,,,,,,,,,,130,27,Male,2022-05-11_14h12.13.806,Parachute,2022.1.1,59.95250562632551,
negative,blue,2,None,k,,,,,,,,,0,231,231,231,,,,,,,,,,,,,,,,,,,,,,,,,,,,,,,,,,,,,main,None,None,1,1.498406899976544,740.1353427000577,None,None,1,,,,,,,,,,,,,,130,27,Male,2022-05-11_14h12.13.806,Parachute,2022.1.1,59.95250562632551,
negative,red,1,None,None,,,,,,,,,0,232,232,232,,,,,,,,,,,,,,,,,,,,,,,,,,,,,,,,,,,,,main,None,None,1,1.4986464000539854,742.6354518000735,None,None,1,,,,,,,,,,,,,,130,27,Male,2022-05-11_14h12.13.806,Parachute,2022.1.1,59.95250562632551,
positive,blue,2,k,None,,,,,,,,,0,233,233,233,,,,,,,,,,,,,,,,,,,,,,,,,,,,,,,,,,,,,main,k,k,1,1.1165603999979794,745.135783100035,None,None,0,,,,,,,,,,,,,,130,27,Male,2022-05-11_14h12.13.806,Parachute,2022.1.1,59.95250562632551,
negative,yellow,1,k,None,,,,,,,,,0,234,234,234,,,,,,,,,,,,,,,,,,,,,,,,,,,,,,,,,,,,,main,k,k,1,0.8981199000263587,747.2543107999954,None,None,0,,,,,,,,,,,,,,130,27,Male,2022-05-11_14h12.13.806,Parachute,2022.1.1,59.95250562632551,
negative,yellow,2,k,None,,,,,,,,,0,235,235,235,,,,,,,,,,,,,,,,,,,,,,,,,,,,,,,,,,,,,main,k,k,1,3.331275300006382,749.1536635000957,None,None,0,,,,,,,,,,,,,,130,27,Male,2022-05-11_14h12.13.806,Parachute,2022.1.1,59.95250562632551,
positive,red,1,None,None,,,,,,,,,0,236,236,236,,,,,,,,,,,,,,,,,,,,,,,,,,,,,,,,,,,,,main,None,None,1,1.502364099957049,754.5019244001014,None,None,1,,,,,,,,,,,,,,130,27,Male,2022-05-11_14h12.13.806,Parachute,2022.1.1,59.95250562632551,
negative,red,2,None,None,,,,,,,,,0,237,237,237,,,,,,,,,,,,,,,,,,,,,,,,,,,,,,,,,,,,,main,None,None,1,1.4981378999073058,757.0034491000697,None,None,1,,,,,,,,,,,,,,130,27,Male,2022-05-11_14h12.13.806,Parachute,2022.1.1,59.95250562632551,
negative,blue,1,None,k,,,,,,,,,0,238,238,238,,,,,,,,,,,,,,,,,,,,,,,,,,,,,,,,,,,,,main,None,None,1,1.4979014000855386,759.5037279000971,None,None,1,,,,,,,,,,,,,,130,27,Male,2022-05-11_14h12.13.806,Parachute,2022.1.1,59.95250562632551,
positive,blue,1,k,None,,,,,,,,,0,239,239,239,,,,,,,,,,,,,,,,,,,,,,,,,,,,,,,,,,,,,main,k,k,1,0.9162080999230966,762.0049244000111,None,None,0,,,,,,,,,,,,,,130,27,Male,2022-05-11_14h12.13.806,Parachute,2022.1.1,59.95250562632551,
,,,,,,,,,,,,,,,,,,,,,,,,,,,,,,,,,,,,,,,,,,,,,,,,,,,,,,,,,,,,,,,,,,,,,,,,,763.9190443000989,None,,,,,,,,
