distractor,target,set,ans1,ans2,rep_loop4.thisRepN,rep_loop4.thisTrialN,rep_loop4.thisN,rep_loop4.thisIndex,st2_prac_loop.thisRepN,st2_prac_loop.thisTrialN,st2_prac_loop.thisN,st2_prac_loop.thisIndex,st2_main_loop.thisRepN,st2_main_loop.thisTrialN,st2_main_loop.thisN,st2_main_loop.thisIndex,image_4.started,image_4.stopped,mouse_7.x,mouse_7.y,mouse_7.leftButton,mouse_7.midButton,mouse_7.rightButton,sound_2.started,sound_2.stopped,key_resp_3.keys,mouse_5.x,mouse_5.y,mouse_5.leftButton,mouse_5.midButton,mouse_5.rightButton,mouse_5.started,mouse_5.stopped,yes_text2.started,yes_text2.stopped,no_text2.started,no_text2.stopped,mouse_3.x,mouse_3.y,mouse_3.leftButton,mouse_3.midButton,mouse_3.rightButton,mouse_3.started,mouse_3.stopped,st_prac_back.started,st_prac_back.stopped,st_prac_text.started,st_prac_text.stopped,st_fix_back.started,st_fix_back.stopped,st_fix_2.started,st_fix_2.stopped,main_prac,st_ans,st_res,st_corr,st_rt,st_back.started,st_back.stopped,st2_resp.keys,st2_resp.corr,st_main_back.started,st_main_back.stopped,st_main_text.started,st_main_text.stopped,mouse_4.x,mouse_4.y,mouse_4.leftButton,mouse_4.midButton,mouse_4.rightButton,mouse_4.started,mouse_4.stopped,text_2.started,text_2.stopped,id*,age*,gender*,date,expName,psychopyVersion,frameRate,
,,,,,,,,,,,,,,,,,35.4184447999578,None,-0.7185185,-0.10925926,0,0,0,,,,,,,,,,,,,,,,,,,,,,,,,,,,,,,,,,,,,,,,,,,,,,,,,,,,131,27,Female,2022-05-23_18h15.36.329,Parachute,2022.1.1,59.76996928418069,
negative,yellow,1,k,None,,,,,0,0,0,0,,,,,,,,,,,,40.11224358007312,None,None,0.14907408,0.18333334,0,0,0,1.0108326999470592,None,94.86319940001704,None,94.86319940001704,None,-0.10555556,-0.08425926,0,0,0,0.012428880203515291,None,97.96656850003637,None,97.96656850003637,None,99.98230629996397,None,99.98230629996397,None,prac,None,None,1,1.5105941998772323,102.00053860014305,None,None,1,,,,,,,,,,,,,,131,27,Female,2022-05-23_18h15.36.329,Parachute,2022.1.1,59.76996928418069,
positive,red,2,None,None,,,,,0,1,1,1,,,,,,,,,,,,,,,,,,,,,,,,,,,,,,,,,,,,,,,,,prac,None,None,1,1.4986515000928193,104.4812980000861,None,None,1,,,,,,,,,,,,,,131,27,Female,2022-05-23_18h15.36.329,Parachute,2022.1.1,59.76996928418069,
negative,blue,2,None,k,,,,,0,2,2,2,,,,,,,,,,,,,,,,,,,,,,,,,,,,,,,,,,,,,,,,,prac,k,k,1,-0.7630469999276102,106.9813562000636,None,None,0,,,,,,,,,,,,,,131,27,Female,2022-05-23_18h15.36.329,Parachute,2022.1.1,59.76996928418069,
positive,yellow,1,None,k,,,,,0,3,3,3,,,,,,,,,,,,,,,,,,,,,,,,,,,,,,,,,,,,,,,,,prac,k,k,1,23.718056099954993,110.26474680006504,None,None,0,,,,,,,,,,,,,,131,27,Female,2022-05-23_18h15.36.329,Parachute,2022.1.1,59.76996928418069,
negative,blue,2,None,k,,,,,0,4,4,4,,,,,,,,,,,,,,,,,,,,,,,,,,,,,,,,,,,,,,,,,prac,k,k,1,2.874232100090012,136.003122900147,None,None,0,,,,,,,,,,,,,,131,27,Female,2022-05-23_18h15.36.329,Parachute,2022.1.1,59.76996928418069,
negative,blue,1,None,k,,,,,0,5,5,5,,,,,,,,,,,,,,,,,,,,,,,,,,,,,,,,,,,,,,,,,prac,k,k,1,2.440647700103,140.88079770002514,None,None,0,,,,,,,,,,,,,,131,27,Female,2022-05-23_18h15.36.329,Parachute,2022.1.1,59.76996928418069,
negative,yellow,2,k,None,,,,,0,6,6,6,,,,,,,,,,,,,,,,,,,,,,,,,,,,,,,,,,,,,,,,,prac,None,None,1,1.501569899963215,145.33091240003705,None,None,1,,,,,,,,,,,,,,131,27,Female,2022-05-23_18h15.36.329,Parachute,2022.1.1,59.76996928418069,
negative,red,1,None,None,,,,,0,7,7,7,,,,,,,,,,,,,,,,,,,,,,,,,,,,,,,,,,,,,,,,,prac,None,None,1,1.4983137999661267,147.8325694000814,None,None,1,,,,,,,,,,,,,,131,27,Female,2022-05-23_18h15.36.329,Parachute,2022.1.1,59.76996928418069,
positive,yellow,2,None,k,,,,,0,8,8,8,,,,,,,,,,,,,,,,,,,,,,,,,,,,,,,,,,,,,,,,,prac,k,k,1,1.0199911000672728,150.3394151001703,None,None,0,,,,,,,,,,,,,,131,27,Female,2022-05-23_18h15.36.329,Parachute,2022.1.1,59.76996928418069,
negative,yellow,1,k,None,,,,,0,9,9,9,,,,,,,,,,,,,,,,,,,,,,,,,,,,,,,,,,,,,,,,,prac,None,None,1,1.4942586000543088,152.35288539994508,None,None,1,,,,,,,,,,,,,,131,27,Female,2022-05-23_18h15.36.329,Parachute,2022.1.1,59.76996928418069,
positive,yellow,2,None,k,,,,,0,10,10,10,,,,,,,,,,,,,,,,,,,,,,,,,,,,,,,,,,,,,,,,,prac,k,k,1,1.4368026999291033,154.8491398000624,None,None,0,,,,,,,,,,,,,,131,27,Female,2022-05-23_18h15.36.329,Parachute,2022.1.1,59.76996928418069,
negative,yellow,2,k,None,,,,,0,11,11,11,,,,,,,,,,,,,,,,,,,,,,,,,,,,,,,,,,,,,,,,,prac,None,None,1,1.4942797000985593,157.29636340006255,None,None,1,,,,,,,,,,,,,,131,27,Female,2022-05-23_18h15.36.329,Parachute,2022.1.1,59.76996928418069,
negative,red,2,None,None,,,,,0,12,12,12,,,,,,,,,,,,,,,,,,,,,,,,,,,,,,,,,,,,,,,,,prac,None,None,1,1.4978553999681026,159.7836422000546,None,None,1,,,,,,,,,,,,,,131,27,Female,2022-05-23_18h15.36.329,Parachute,2022.1.1,59.76996928418069,
positive,red,1,None,None,,,,,0,13,13,13,,,,,,,,,,,,,,,,,,,,,,,,,,,,,,,,,,,,,,,,,prac,None,None,1,1.4990434001665562,162.2826946999412,None,None,1,,,,,,,,,,,,,,131,27,Female,2022-05-23_18h15.36.329,Parachute,2022.1.1,59.76996928418069,
positive,blue,2,k,None,,,,,0,14,14,14,,,,,,,,,,,,,,,,,,,,,,,,,,,,,,,,,,,,,,,,,prac,None,None,1,1.4985784001182765,164.7827721000649,None,None,1,,,,,,,,,,,,,,131,27,Female,2022-05-23_18h15.36.329,Parachute,2022.1.1,59.76996928418069,
positive,blue,1,k,None,,,,,0,15,15,15,,,,,,,,,,,,,,,,,,,,,,,,,,,,,,,,,,,,,,,,,prac,None,None,1,1.4980389000847936,167.28412750014104,None,None,1,,,,,,,,,,,,,,131,27,Female,2022-05-23_18h15.36.329,Parachute,2022.1.1,59.76996928418069,
negative,blue,1,None,k,,,,,0,16,16,16,,,,,,,,,,,,,,,,,,,,,,,,,,,,,,,,,,,,,,,,,prac,k,k,1,1.6187321001198143,169.78203040012158,None,None,0,,,,,,,,,,,,,,131,27,Female,2022-05-23_18h15.36.329,Parachute,2022.1.1,59.76996928418069,
positive,blue,2,k,None,,,,,0,17,17,17,,,,,,,,,,,,,,,,,,,,,,,,,,,,,,,,,,,,,,,,,prac,None,None,1,1.502137699862942,173.4156754000578,None,None,1,,,,,,,,,,,,,,131,27,Female,2022-05-23_18h15.36.329,Parachute,2022.1.1,59.76996928418069,
positive,blue,1,k,None,,,,,0,18,18,18,,,,,,,,,,,,,,,,,,,,,,,,,,,,,,,,,,,,,,,,,prac,None,None,1,1.498400199925527,175.91681080008857,None,None,1,,,,,,,,,,,,,,131,27,Female,2022-05-23_18h15.36.329,Parachute,2022.1.1,59.76996928418069,
positive,yellow,1,None,k,,,,,0,19,19,19,,,,,,,,,,,,,,,,,,,,,,,,,,,,,,,,,,,,,,,,,prac,k,k,1,0.8697245998773724,178.41657670005225,None,None,0,,,,,,,,,,,,,,131,27,Female,2022-05-23_18h15.36.329,Parachute,2022.1.1,59.76996928418069,
negative,yellow,1,k,None,,,,,1,0,20,0,,,,,,,,,,,,,,,,,,,,,,,,,,,,,,,,,,,,,,,,,prac,None,None,1,1.4938085998874158,180.2869539000094,None,None,1,,,,,,,,,,,,,,131,27,Female,2022-05-23_18h15.36.329,Parachute,2022.1.1,59.76996928418069,
positive,red,2,None,None,,,,,1,1,21,1,,,,,,,,,,,,,,,,,,,,,,,,,,,,,,,,,,,,,,,,,prac,None,None,1,1.499006099998951,182.78293960005976,None,None,1,,,,,,,,,,,,,,131,27,Female,2022-05-23_18h15.36.329,Parachute,2022.1.1,59.76996928418069,
negative,blue,2,None,k,,,,,1,2,22,2,,,,,,,,,,,,,,,,,,,,,,,,,,,,,,,,,,,,,,,,,prac,k,k,1,1.2189577999524772,185.28320479998365,None,None,0,,,,,,,,,,,,,,131,27,Female,2022-05-23_18h15.36.329,Parachute,2022.1.1,59.76996928418069,
positive,yellow,1,None,k,,,,,1,3,23,3,,,,,,,,,,,,,,,,,,,,,,,,,,,,,,,,,,,,,,,,,prac,k,k,1,1.0632972999010235,187.50405520014465,None,None,0,,,,,,,,,,,,,,131,27,Female,2022-05-23_18h15.36.329,Parachute,2022.1.1,59.76996928418069,
negative,blue,2,None,k,,,,,1,4,24,4,,,,,,,,,,,,,,,,,,,,,,,,,,,,,,,,,,,,,,,,,prac,k,k,1,1.0021303000394255,189.5682802000083,None,None,0,,,,,,,,,,,,,,131,27,Female,2022-05-23_18h15.36.329,Parachute,2022.1.1,59.76996928418069,
negative,blue,1,None,k,,,,,1,5,25,5,,,,,,,,,,,,,,,,,,,,,,,,,,,,,,,,,,,,,,,,,prac,k,k,1,1.1987034999765456,191.5808176000137,None,None,0,,,,,,,,,,,,,,131,27,Female,2022-05-23_18h15.36.329,Parachute,2022.1.1,59.76996928418069,
negative,yellow,2,k,None,,,,,1,6,26,6,,,,,,,,,,,,,,,,,,,,,,,,,,,,,,,,,,,,,,,,,prac,None,None,1,1.493452399969101,193.78082570014521,None,None,1,,,,,,,,,,,,,,131,27,Female,2022-05-23_18h15.36.329,Parachute,2022.1.1,59.76996928418069,
negative,red,1,None,None,,,,,1,7,27,7,,,,,,,,,,,,,,,,,,,,,,,,,,,,,,,,,,,,,,,,,prac,None,None,1,1.4989259000867605,196.26663680002093,None,None,1,,,,,,,,,,,,,,131,27,Female,2022-05-23_18h15.36.329,Parachute,2022.1.1,59.76996928418069,
positive,yellow,2,None,k,,,,,1,8,28,8,,,,,,,,,,,,,,,,,,,,,,,,,,,,,,,,,,,,,,,,,prac,k,k,1,0.7207611999474466,198.76757999998517,None,None,0,,,,,,,,,,,,,,131,27,Female,2022-05-23_18h15.36.329,Parachute,2022.1.1,59.76996928418069,
negative,yellow,1,k,None,,,,,1,9,29,9,,,,,,,,,,,,,,,,,,,,,,,,,,,,,,,,,,,,,,,,,prac,None,None,1,1.5089992000721395,200.48860269994475,None,None,1,,,,,,,,,,,,,,131,27,Female,2022-05-23_18h15.36.329,Parachute,2022.1.1,59.76996928418069,
positive,yellow,2,None,k,,,,,1,10,30,10,,,,,,,,,,,,,,,,,,,,,,,,,,,,,,,,,,,,,,,,,prac,k,k,1,0.935239200014621,202.999858800089,None,None,0,,,,,,,,,,,,,,131,27,Female,2022-05-23_18h15.36.329,Parachute,2022.1.1,59.76996928418069,
negative,yellow,2,k,None,,,,,1,11,31,11,,,,,,,,,,,,,,,,,,,,,,,,,,,,,,,,,,,,,,,,,prac,None,None,1,1.4954672998283058,204.93709290004335,None,None,1,,,,,,,,,,,,,,131,27,Female,2022-05-23_18h15.36.329,Parachute,2022.1.1,59.76996928418069,
negative,red,2,None,None,,,,,1,12,32,12,,,,,,,,,,,,,,,,,,,,,,,,,,,,,,,,,,,,,,,,,prac,None,None,1,1.4989322999026626,207.43340079998598,None,None,1,,,,,,,,,,,,,,131,27,Female,2022-05-23_18h15.36.329,Parachute,2022.1.1,59.76996928418069,
positive,red,1,None,None,,,,,1,13,33,13,,,,,,,,,,,,,,,,,,,,,,,,,,,,,,,,,,,,,,,,,prac,None,None,1,1.4984844999853522,209.9339143000543,None,None,1,,,,,,,,,,,,,,131,27,Female,2022-05-23_18h15.36.329,Parachute,2022.1.1,59.76996928418069,
positive,blue,2,k,None,,,,,1,14,34,14,,,,,,,,,,,,,,,,,,,,,,,,,,,,,,,,,,,,,,,,,prac,None,None,1,1.499066999880597,212.43468800000846,None,None,1,,,,,,,,,,,,,,131,27,Female,2022-05-23_18h15.36.329,Parachute,2022.1.1,59.76996928418069,
positive,blue,1,k,None,,,,,1,15,35,15,,,,,,,,,,,,,,,,,,,,,,,,,,,,,,,,,,,,,,,,,prac,None,None,1,1.4983700001612306,214.9340450000018,None,None,1,,,,,,,,,,,,,,131,27,Female,2022-05-23_18h15.36.329,Parachute,2022.1.1,59.76996928418069,
negative,blue,1,None,k,,,,,1,16,36,16,,,,,,,,,,,,,,,,,,,,,,,,,,,,,,,,,,,,,,,,,prac,k,k,1,0.9372698999941349,217.43408080004156,None,None,0,,,,,,,,,,,,,,131,27,Female,2022-05-23_18h15.36.329,Parachute,2022.1.1,59.76996928418069,
positive,blue,2,k,None,,,,,1,17,37,17,,,,,,,,,,,,,,,,,,,,,,,,,,,,,,,,,,,,,,,,,prac,None,None,1,1.4937201000284404,219.37171670002863,None,None,1,,,,,,,,,,,,,,131,27,Female,2022-05-23_18h15.36.329,Parachute,2022.1.1,59.76996928418069,
positive,blue,1,k,None,,,,,1,18,38,18,,,,,,,,,,,,,,,,,,,,,,,,,,,,,,,,,,,,,,,,,prac,None,None,1,1.4985022000037134,221.86789890006185,None,None,1,,,,,,,,,,,,,,131,27,Female,2022-05-23_18h15.36.329,Parachute,2022.1.1,59.76996928418069,
positive,yellow,1,None,k,,,,,1,19,39,19,,,,,,,,,,,,,,,,,,,,,,,,,,,,,,,,,,,,,,,,,prac,k,k,1,1.1867698000278324,224.36784299998544,None,None,0,,,,,,,,,,,,,,131,27,Female,2022-05-23_18h15.36.329,Parachute,2022.1.1,59.76996928418069,
,,,,,,,,,,,,,,,,,,,,,,,,,,,,,,,,,,,,,,,,,,,,,,,,,,,,,,,,,,,,,,226.57734509999864,None,226.57734509999864,None,-0.017592592,-0.025,0,0,0,0.012255180161446333,None,,,131,27,Female,2022-05-23_18h15.36.329,Parachute,2022.1.1,59.76996928418069,
negative,yellow,2,k,None,,,,,,,,,0,0,0,0,,,,,,,,,,,,,,,,,,,,,,,,,,,,,,,,,235.9500710000284,None,235.9500710000284,None,main,None,None,1,1.5009630999993533,237.9987217001617,None,None,1,,,,,,,,,,,,,,131,27,Female,2022-05-23_18h15.36.329,Parachute,2022.1.1,59.76996928418069,
positive,red,1,None,None,,,,,,,,,0,1,1,1,,,,,,,,,,,,,,,,,,,,,,,,,,,,,,,,,,,,,main,None,None,1,1.4984387999866158,240.50121950008906,None,None,1,,,,,,,,,,,,,,131,27,Female,2022-05-23_18h15.36.329,Parachute,2022.1.1,59.76996928418069,
positive,blue,2,k,None,,,,,,,,,0,2,2,2,,,,,,,,,,,,,,,,,,,,,,,,,,,,,,,,,,,,,main,None,None,1,1.4991087999660522,243.0009998001624,None,None,1,,,,,,,,,,,,,,131,27,Female,2022-05-23_18h15.36.329,Parachute,2022.1.1,59.76996928418069,
positive,blue,1,k,None,,,,,,,,,0,3,3,3,,,,,,,,,,,,,,,,,,,,,,,,,,,,,,,,,,,,,main,None,None,1,1.4983588000759482,245.50135130016133,None,None,1,,,,,,,,,,,,,,131,27,Female,2022-05-23_18h15.36.329,Parachute,2022.1.1,59.76996928418069,
negative,yellow,2,k,None,,,,,,,,,0,4,4,4,,,,,,,,,,,,,,,,,,,,,,,,,,,,,,,,,,,,,main,None,None,1,1.4987475001253188,248.0009435999673,None,None,1,,,,,,,,,,,,,,131,27,Female,2022-05-23_18h15.36.329,Parachute,2022.1.1,59.76996928418069,
positive,yellow,2,None,k,,,,,,,,,0,5,5,5,,,,,,,,,,,,,,,,,,,,,,,,,,,,,,,,,,,,,main,k,k,1,0.8536181000526994,250.5010469001718,None,None,0,,,,,,,,,,,,,,131,27,Female,2022-05-23_18h15.36.329,Parachute,2022.1.1,59.76996928418069,
negative,blue,2,None,k,,,,,,,,,0,6,6,6,,,,,,,,,,,,,,,,,,,,,,,,,,,,,,,,,,,,,main,k,k,1,0.9653881001286209,252.3650825000368,None,None,0,,,,,,,,,,,,,,131,27,Female,2022-05-23_18h15.36.329,Parachute,2022.1.1,59.76996928418069,
positive,red,2,None,None,,,,,,,,,0,7,7,7,,,,,,,,,,,,,,,,,,,,,,,,,,,,,,,,,,,,,main,None,None,1,1.4935507997870445,254.32265390013345,None,None,1,,,,,,,,,,,,,,131,27,Female,2022-05-23_18h15.36.329,Parachute,2022.1.1,59.76996928418069,
positive,yellow,1,None,k,,,,,,,,,0,8,8,8,,,,,,,,,,,,,,,,,,,,,,,,,,,,,,,,,,,,,main,k,k,1,1.0041277001146227,256.8180517000146,None,None,0,,,,,,,,,,,,,,131,27,Female,2022-05-23_18h15.36.329,Parachute,2022.1.1,59.76996928418069,
negative,red,1,None,None,,,,,,,,,0,9,9,9,,,,,,,,,,,,,,,,,,,,,,,,,,,,,,,,,,,,,main,None,None,1,1.4934806998353451,258.8221943001263,None,None,1,,,,,,,,,,,,,,131,27,Female,2022-05-23_18h15.36.329,Parachute,2022.1.1,59.76996928418069,
positive,yellow,1,None,k,,,,,,,,,0,10,10,10,,,,,,,,,,,,,,,,,,,,,,,,,,,,,,,,,,,,,main,k,k,1,0.9702790000010282,261.31817189999856,None,None,0,,,,,,,,,,,,,,131,27,Female,2022-05-23_18h15.36.329,Parachute,2022.1.1,59.76996928418069,
negative,yellow,1,k,None,,,,,,,,,0,11,11,11,,,,,,,,,,,,,,,,,,,,,,,,,,,,,,,,,,,,,main,None,None,1,1.4940946998540312,263.2886743999552,None,None,1,,,,,,,,,,,,,,131,27,Female,2022-05-23_18h15.36.329,Parachute,2022.1.1,59.76996928418069,
negative,yellow,1,k,None,,,,,,,,,0,12,12,12,,,,,,,,,,,,,,,,,,,,,,,,,,,,,,,,,,,,,main,None,None,1,1.4983485999982804,265.78682489995845,None,None,1,,,,,,,,,,,,,,131,27,Female,2022-05-23_18h15.36.329,Parachute,2022.1.1,59.76996928418069,
negative,red,2,None,None,,,,,,,,,0,13,13,13,,,,,,,,,,,,,,,,,,,,,,,,,,,,,,,,,,,,,main,None,None,1,1.499438100028783,268.28579750005156,None,None,1,,,,,,,,,,,,,,131,27,Female,2022-05-23_18h15.36.329,Parachute,2022.1.1,59.76996928418069,
positive,yellow,2,None,k,,,,,,,,,0,14,14,14,,,,,,,,,,,,,,,,,,,,,,,,,,,,,,,,,,,,,main,k,k,1,0.7369556999765337,270.78756360011175,None,None,0,,,,,,,,,,,,,,131,27,Female,2022-05-23_18h15.36.329,Parachute,2022.1.1,59.76996928418069,
positive,blue,1,k,None,,,,,,,,,0,15,15,15,,,,,,,,,,,,,,,,,,,,,,,,,,,,,,,,,,,,,main,None,None,1,1.4929079001303762,272.52284520003013,None,None,1,,,,,,,,,,,,,,131,27,Female,2022-05-23_18h15.36.329,Parachute,2022.1.1,59.76996928418069,
negative,blue,1,None,k,,,,,,,,,0,16,16,16,,,,,,,,,,,,,,,,,,,,,,,,,,,,,,,,,,,,,main,k,k,1,1.05429989984259,275.0190381000284,None,None,0,,,,,,,,,,,,,,131,27,Female,2022-05-23_18h15.36.329,Parachute,2022.1.1,59.76996928418069,
positive,blue,2,k,None,,,,,,,,,0,17,17,17,,,,,,,,,,,,,,,,,,,,,,,,,,,,,,,,,,,,,main,None,None,1,1.4934125000145286,277.0734465001151,None,None,1,,,,,,,,,,,,,,131,27,Female,2022-05-23_18h15.36.329,Parachute,2022.1.1,59.76996928418069,
negative,blue,2,None,k,,,,,,,,,0,18,18,18,,,,,,,,,,,,,,,,,,,,,,,,,,,,,,,,,,,,,main,k,k,1,1.401589300017804,279.5687953000888,None,None,0,,,,,,,,,,,,,,131,27,Female,2022-05-23_18h15.36.329,Parachute,2022.1.1,59.76996928418069,
negative,blue,1,None,k,,,,,,,,,0,19,19,19,,,,,,,,,,,,,,,,,,,,,,,,,,,,,,,,,,,,,main,k,k,1,1.4990261998027563,281.97185850003734,None,None,0,,,,,,,,,,,,,,131,27,Female,2022-05-23_18h15.36.329,Parachute,2022.1.1,59.76996928418069,
negative,blue,1,None,k,,,,,,,,,0,20,20,20,,,,,,,,,,,,,,,,,,,,,,,,,,,,,,,,,,,,,main,k,k,1,1.3166245000902563,284.47229359997436,None,None,0,,,,,,,,,,,,,,131,27,Female,2022-05-23_18h15.36.329,Parachute,2022.1.1,59.76996928418069,
negative,blue,2,None,k,,,,,,,,,0,21,21,21,,,,,,,,,,,,,,,,,,,,,,,,,,,,,,,,,,,,,main,k,k,1,1.1362967998720706,286.789461000124,None,None,0,,,,,,,,,,,,,,131,27,Female,2022-05-23_18h15.36.329,Parachute,2022.1.1,59.76996928418069,
negative,red,1,None,None,,,,,,,,,0,22,22,22,,,,,,,,,,,,,,,,,,,,,,,,,,,,,,,,,,,,,main,None,None,1,1.5047098998911679,288.9268575999886,None,None,1,,,,,,,,,,,,,,131,27,Female,2022-05-23_18h15.36.329,Parachute,2022.1.1,59.76996928418069,
positive,red,2,None,None,,,,,,,,,0,23,23,23,,,,,,,,,,,,,,,,,,,,,,,,,,,,,,,,,,,,,main,None,None,1,1.4989740001037717,291.43523810012266,None,None,1,,,,,,,,,,,,,,131,27,Female,2022-05-23_18h15.36.329,Parachute,2022.1.1,59.76996928418069,
negative,red,2,None,None,,,,,,,,,0,24,24,24,,,,,,,,,,,,,,,,,,,,,,,,,,,,,,,,,,,,,main,None,None,1,1.4983664001338184,293.93537140008993,None,None,1,,,,,,,,,,,,,,131,27,Female,2022-05-23_18h15.36.329,Parachute,2022.1.1,59.76996928418069,
positive,blue,2,k,None,,,,,,,,,0,25,25,25,,,,,,,,,,,,,,,,,,,,,,,,,,,,,,,,,,,,,main,None,None,1,1.4987800000235438,296.43558289995417,None,None,1,,,,,,,,,,,,,,131,27,Female,2022-05-23_18h15.36.329,Parachute,2022.1.1,59.76996928418069,
negative,yellow,1,k,None,,,,,,,,,0,26,26,26,,,,,,,,,,,,,,,,,,,,,,,,,,,,,,,,,,,,,main,None,None,1,1.4989064000546932,298.9356746999547,None,None,1,,,,,,,,,,,,,,131,27,Female,2022-05-23_18h15.36.329,Parachute,2022.1.1,59.76996928418069,
positive,blue,2,k,None,,,,,,,,,0,27,27,27,,,,,,,,,,,,,,,,,,,,,,,,,,,,,,,,,,,,,main,None,None,1,1.4990600999444723,301.43507000012323,None,None,1,,,,,,,,,,,,,,131,27,Female,2022-05-23_18h15.36.329,Parachute,2022.1.1,59.76996928418069,
negative,blue,2,None,k,,,,,,,,,0,28,28,28,,,,,,,,,,,,,,,,,,,,,,,,,,,,,,,,,,,,,main,k,k,1,1.5366379001643509,303.93633719999343,None,None,0,,,,,,,,,,,,,,131,27,Female,2022-05-23_18h15.36.329,Parachute,2022.1.1,59.76996928418069,
positive,red,1,None,None,,,,,,,,,0,29,29,29,,,,,,,,,,,,,,,,,,,,,,,,,,,,,,,,,,,,,main,None,None,1,1.5018272001761943,307.48464859998785,None,None,1,,,,,,,,,,,,,,131,27,Female,2022-05-23_18h15.36.329,Parachute,2022.1.1,59.76996928418069,
positive,blue,1,k,None,,,,,,,,,0,30,30,30,,,,,,,,,,,,,,,,,,,,,,,,,,,,,,,,,,,,,main,None,None,1,1.498139400035143,309.98677089996636,None,None,1,,,,,,,,,,,,,,131,27,Female,2022-05-23_18h15.36.329,Parachute,2022.1.1,59.76996928418069,
positive,yellow,1,None,k,,,,,,,,,0,31,31,31,,,,,,,,,,,,,,,,,,,,,,,,,,,,,,,,,,,,,main,k,k,1,0.8141487999819219,312.4856141000055,None,None,0,,,,,,,,,,,,,,131,27,Female,2022-05-23_18h15.36.329,Parachute,2022.1.1,59.76996928418069,
negative,yellow,2,k,None,,,,,,,,,0,32,32,32,,,,,,,,,,,,,,,,,,,,,,,,,,,,,,,,,,,,,main,None,None,1,1.500456599984318,314.30156509997323,None,None,1,,,,,,,,,,,,,,131,27,Female,2022-05-23_18h15.36.329,Parachute,2022.1.1,59.76996928418069,
negative,blue,1,None,k,,,,,,,,,0,33,33,33,,,,,,,,,,,,,,,,,,,,,,,,,,,,,,,,,,,,,main,k,k,1,0.8363824000116438,316.8033879001159,None,None,0,,,,,,,,,,,,,,131,27,Female,2022-05-23_18h15.36.329,Parachute,2022.1.1,59.76996928418069,
positive,blue,1,k,None,,,,,,,,,0,34,34,34,,,,,,,,,,,,,,,,,,,,,,,,,,,,,,,,,,,,,main,None,None,1,1.4938319998327643,318.65184760000557,None,None,1,,,,,,,,,,,,,,131,27,Female,2022-05-23_18h15.36.329,Parachute,2022.1.1,59.76996928418069,
negative,yellow,1,k,None,,,,,,,,,0,35,35,35,,,,,,,,,,,,,,,,,,,,,,,,,,,,,,,,,,,,,main,None,None,1,1.4989733002148569,321.1360241000075,None,None,1,,,,,,,,,,,,,,131,27,Female,2022-05-23_18h15.36.329,Parachute,2022.1.1,59.76996928418069,
positive,yellow,2,None,k,,,,,,,,,0,36,36,36,,,,,,,,,,,,,,,,,,,,,,,,,,,,,,,,,,,,,main,k,k,1,1.4026392998639494,323.6382127001416,None,None,0,,,,,,,,,,,,,,131,27,Female,2022-05-23_18h15.36.329,Parachute,2022.1.1,59.76996928418069,
positive,yellow,2,None,k,,,,,,,,,0,37,37,37,,,,,,,,,,,,,,,,,,,,,,,,,,,,,,,,,,,,,main,k,k,1,0.9965582999866456,326.04073760006577,None,None,0,,,,,,,,,,,,,,131,27,Female,2022-05-23_18h15.36.329,Parachute,2022.1.1,59.76996928418069,
negative,yellow,2,k,None,,,,,,,,,0,38,38,38,,,,,,,,,,,,,,,,,,,,,,,,,,,,,,,,,,,,,main,None,None,1,1.4964568999130279,328.0389221000951,None,None,1,,,,,,,,,,,,,,131,27,Female,2022-05-23_18h15.36.329,Parachute,2022.1.1,59.76996928418069,
positive,yellow,1,None,k,,,,,,,,,0,39,39,39,,,,,,,,,,,,,,,,,,,,,,,,,,,,,,,,,,,,,main,k,k,1,0.7697174998465925,330.53685620008036,None,None,0,,,,,,,,,,,,,,131,27,Female,2022-05-23_18h15.36.329,Parachute,2022.1.1,59.76996928418069,
negative,yellow,2,k,None,,,,,,,,,0,40,40,40,,,,,,,,,,,,,,,,,,,,,,,,,,,,,,,,,,,,,main,None,None,1,1.4933899000752717,332.3076989999972,None,None,1,,,,,,,,,,,,,,131,27,Female,2022-05-23_18h15.36.329,Parachute,2022.1.1,59.76996928418069,
positive,blue,2,k,None,,,,,,,,,0,41,41,41,,,,,,,,,,,,,,,,,,,,,,,,,,,,,,,,,,,,,main,None,None,1,1.4990875001531094,334.80370709998533,None,None,1,,,,,,,,,,,,,,131,27,Female,2022-05-23_18h15.36.329,Parachute,2022.1.1,59.76996928418069,
positive,blue,2,k,None,,,,,,,,,0,42,42,42,,,,,,,,,,,,,,,,,,,,,,,,,,,,,,,,,,,,,main,None,None,1,1.4987846999429166,337.30411200015806,None,None,1,,,,,,,,,,,,,,131,27,Female,2022-05-23_18h15.36.329,Parachute,2022.1.1,59.76996928418069,
negative,blue,2,None,k,,,,,,,,,0,43,43,43,,,,,,,,,,,,,,,,,,,,,,,,,,,,,,,,,,,,,main,k,k,1,1.0037267999723554,339.80401600012556,None,None,0,,,,,,,,,,,,,,131,27,Female,2022-05-23_18h15.36.329,Parachute,2022.1.1,59.76996928418069,
negative,red,1,None,None,,,,,,,,,0,44,44,44,,,,,,,,,,,,,,,,,,,,,,,,,,,,,,,,,,,,,main,None,None,1,1.4935258000623435,341.8076681001112,None,None,1,,,,,,,,,,,,,,131,27,Female,2022-05-23_18h15.36.329,Parachute,2022.1.1,59.76996928418069,
negative,yellow,1,k,None,,,,,,,,,0,45,45,45,,,,,,,,,,,,,,,,,,,,,,,,,,,,,,,,,,,,,main,None,None,1,1.4987889998592436,344.3026553001255,None,None,1,,,,,,,,,,,,,,131,27,Female,2022-05-23_18h15.36.329,Parachute,2022.1.1,59.76996928418069,
negative,yellow,1,k,None,,,,,,,,,0,46,46,46,,,,,,,,,,,,,,,,,,,,,,,,,,,,,,,,,,,,,main,None,None,1,1.4986938999500126,346.8028394000139,None,None,1,,,,,,,,,,,,,,131,27,Female,2022-05-23_18h15.36.329,Parachute,2022.1.1,59.76996928418069,
positive,red,1,None,None,,,,,,,,,0,47,47,47,,,,,,,,,,,,,,,,,,,,,,,,,,,,,,,,,,,,,main,None,None,1,1.4987914999946952,349.30315960012376,None,None,1,,,,,,,,,,,,,,131,27,Female,2022-05-23_18h15.36.329,Parachute,2022.1.1,59.76996928418069,
positive,yellow,1,None,k,,,,,,,,,0,48,48,48,,,,,,,,,,,,,,,,,,,,,,,,,,,,,,,,,,,,,main,k,k,1,0.9710081999655813,351.80328280013055,None,None,0,,,,,,,,,,,,,,131,27,Female,2022-05-23_18h15.36.329,Parachute,2022.1.1,59.76996928418069,
negative,blue,1,None,k,,,,,,,,,0,49,49,49,,,,,,,,,,,,,,,,,,,,,,,,,,,,,,,,,,,,,main,k,k,1,1.1653104000724852,353.77517400006764,None,None,0,,,,,,,,,,,,,,131,27,Female,2022-05-23_18h15.36.329,Parachute,2022.1.1,59.76996928418069,
positive,yellow,2,None,k,,,,,,,,,0,50,50,50,,,,,,,,,,,,,,,,,,,,,,,,,,,,,,,,,,,,,main,k,k,1,0.9144926001317799,355.94094010000117,None,None,0,,,,,,,,,,,,,,131,27,Female,2022-05-23_18h15.36.329,Parachute,2022.1.1,59.76996928418069,
negative,blue,1,None,k,,,,,,,,,0,51,51,51,,,,,,,,,,,,,,,,,,,,,,,,,,,,,,,,,,,,,main,k,k,1,0.7133009000681341,357.8577877001371,None,None,0,,,,,,,,,,,,,,131,27,Female,2022-05-23_18h15.36.329,Parachute,2022.1.1,59.76996928418069,
positive,red,2,None,None,,,,,,,,,0,52,52,52,,,,,,,,,,,,,,,,,,,,,,,,,,,,,,,,,,,,,main,None,None,1,1.496300800004974,359.5734431000892,None,None,1,,,,,,,,,,,,,,131,27,Female,2022-05-23_18h15.36.329,Parachute,2022.1.1,59.76996928418069,
positive,yellow,2,None,k,,,,,,,,,0,53,53,53,,,,,,,,,,,,,,,,,,,,,,,,,,,,,,,,,,,,,main,k,k,1,0.652759299846366,362.0710537999403,None,None,0,,,,,,,,,,,,,,131,27,Female,2022-05-23_18h15.36.329,Parachute,2022.1.1,59.76996928418069,
negative,red,2,None,None,,,,,,,,,0,54,54,54,,,,,,,,,,,,,,,,,,,,,,,,,,,,,,,,,,,,,main,None,None,1,1.4944312998559326,363.7247009000275,None,None,1,,,,,,,,,,,,,,131,27,Female,2022-05-23_18h15.36.329,Parachute,2022.1.1,59.76996928418069,
positive,yellow,1,None,k,,,,,,,,,0,55,55,55,,,,,,,,,,,,,,,,,,,,,,,,,,,,,,,,,,,,,main,k,k,1,2.436095300130546,366.22044300008565,None,None,0,,,,,,,,,,,,,,131,27,Female,2022-05-23_18h15.36.329,Parachute,2022.1.1,59.76996928418069,
negative,blue,2,None,k,,,,,,,,,0,56,56,56,,,,,,,,,,,,,,,,,,,,,,,,,,,,,,,,,,,,,main,k,k,1,0.8062686000484973,370.6699332999997,None,None,0,,,,,,,,,,,,,,131,27,Female,2022-05-23_18h15.36.329,Parachute,2022.1.1,59.76996928418069,
positive,blue,1,k,None,,,,,,,,,0,57,57,57,,,,,,,,,,,,,,,,,,,,,,,,,,,,,,,,,,,,,main,None,None,1,1.494282400002703,372.47503670002334,None,None,1,,,,,,,,,,,,,,131,27,Female,2022-05-23_18h15.36.329,Parachute,2022.1.1,59.76996928418069,
positive,blue,1,k,None,,,,,,,,,0,58,58,58,,,,,,,,,,,,,,,,,,,,,,,,,,,,,,,,,,,,,main,None,None,1,1.4981082999147475,374.97096180007793,None,None,1,,,,,,,,,,,,,,131,27,Female,2022-05-23_18h15.36.329,Parachute,2022.1.1,59.76996928418069,
negative,yellow,2,k,None,,,,,,,,,0,59,59,59,,,,,,,,,,,,,,,,,,,,,,,,,,,,,,,,,,,,,main,None,k,0,0.8202609000727534,377.4701774001587,None,None,1,,,,,,,,,,,,,,131,27,Female,2022-05-23_18h15.36.329,Parachute,2022.1.1,59.76996928418069,
positive,red,2,None,None,,,,,,,,,0,60,60,60,,,,,,,,,,,,,,,,,,,,,,,,,,,,,,,,,,,,,main,None,None,1,1.5021627999376506,380.30349020008,None,None,1,,,,,,,,,,,,,,131,27,Female,2022-05-23_18h15.36.329,Parachute,2022.1.1,59.76996928418069,
negative,yellow,1,k,None,,,,,,,,,0,61,61,61,,,,,,,,,,,,,,,,,,,,,,,,,,,,,,,,,,,,,main,None,None,1,1.497480799909681,382.8057646001689,None,None,1,,,,,,,,,,,,,,131,27,Female,2022-05-23_18h15.36.329,Parachute,2022.1.1,59.76996928418069,
negative,red,1,None,None,,,,,,,,,0,62,62,62,,,,,,,,,,,,,,,,,,,,,,,,,,,,,,,,,,,,,main,None,None,1,1.4989807999227196,385.30393110006116,None,None,1,,,,,,,,,,,,,,131,27,Female,2022-05-23_18h15.36.329,Parachute,2022.1.1,59.76996928418069,
negative,blue,1,None,k,,,,,,,,,0,63,63,63,,,,,,,,,,,,,,,,,,,,,,,,,,,,,,,,,,,,,main,k,k,1,0.9206481999717653,387.80478230002336,None,None,0,,,,,,,,,,,,,,131,27,Female,2022-05-23_18h15.36.329,Parachute,2022.1.1,59.76996928418069,
positive,blue,2,k,None,,,,,,,,,0,64,64,64,,,,,,,,,,,,,,,,,,,,,,,,,,,,,,,,,,,,,main,None,None,1,1.4935178000014275,389.72488300013356,None,None,1,,,,,,,,,,,,,,131,27,Female,2022-05-23_18h15.36.329,Parachute,2022.1.1,59.76996928418069,
negative,yellow,2,k,None,,,,,,,,,0,65,65,65,,,,,,,,,,,,,,,,,,,,,,,,,,,,,,,,,,,,,main,None,None,1,1.4990102001465857,392.22134060016833,None,None,1,,,,,,,,,,,,,,131,27,Female,2022-05-23_18h15.36.329,Parachute,2022.1.1,59.76996928418069,
positive,yellow,2,None,k,,,,,,,,,0,66,66,66,,,,,,,,,,,,,,,,,,,,,,,,,,,,,,,,,,,,,main,k,k,1,0.768956399988383,394.7217459001113,None,None,0,,,,,,,,,,,,,,131,27,Female,2022-05-23_18h15.36.329,Parachute,2022.1.1,59.76996928418069,
positive,yellow,2,None,k,,,,,,,,,0,67,67,67,,,,,,,,,,,,,,,,,,,,,,,,,,,,,,,,,,,,,main,k,k,1,0.7161200998816639,396.50164719996974,None,None,0,,,,,,,,,,,,,,131,27,Female,2022-05-23_18h15.36.329,Parachute,2022.1.1,59.76996928418069,
positive,red,1,None,None,,,,,,,,,0,68,68,68,,,,,,,,,,,,,,,,,,,,,,,,,,,,,,,,,,,,,main,None,None,1,1.49336940003559,398.2094302000478,None,None,1,,,,,,,,,,,,,,131,27,Female,2022-05-23_18h15.36.329,Parachute,2022.1.1,59.76996928418069,
positive,yellow,1,None,k,,,,,,,,,0,69,69,69,,,,,,,,,,,,,,,,,,,,,,,,,,,,,,,,,,,,,main,k,k,1,0.7538862999062985,400.70517270010896,None,None,0,,,,,,,,,,,,,,131,27,Female,2022-05-23_18h15.36.329,Parachute,2022.1.1,59.76996928418069,
negative,yellow,2,k,None,,,,,,,,,0,70,70,70,,,,,,,,,,,,,,,,,,,,,,,,,,,,,,,,,,,,,main,None,None,1,1.4935241001658142,402.45912729995325,None,None,1,,,,,,,,,,,,,,131,27,Female,2022-05-23_18h15.36.329,Parachute,2022.1.1,59.76996928418069,
positive,yellow,1,None,k,,,,,,,,,0,71,71,71,,,,,,,,,,,,,,,,,,,,,,,,,,,,,,,,,,,,,main,k,k,1,1.0362253999337554,404.9549152001273,None,None,0,,,,,,,,,,,,,,131,27,Female,2022-05-23_18h15.36.329,Parachute,2022.1.1,59.76996928418069,
negative,blue,1,None,k,,,,,,,,,0,72,72,72,,,,,,,,,,,,,,,,,,,,,,,,,,,,,,,,,,,,,main,k,k,1,0.9158302000723779,406.992040600162,None,None,0,,,,,,,,,,,,,,131,27,Female,2022-05-23_18h15.36.329,Parachute,2022.1.1,59.76996928418069,
negative,red,2,None,None,,,,,,,,,0,73,73,73,,,,,,,,,,,,,,,,,,,,,,,,,,,,,,,,,,,,,main,None,None,1,1.4937670000363141,408.91874360013753,None,None,1,,,,,,,,,,,,,,131,27,Female,2022-05-23_18h15.36.329,Parachute,2022.1.1,59.76996928418069,
positive,blue,2,k,None,,,,,,,,,0,74,74,74,,,,,,,,,,,,,,,,,,,,,,,,,,,,,,,,,,,,,main,None,None,1,1.49820589995943,411.4053978000302,None,None,1,,,,,,,,,,,,,,131,27,Female,2022-05-23_18h15.36.329,Parachute,2022.1.1,59.76996928418069,
negative,blue,2,None,k,,,,,,,,,0,75,75,75,,,,,,,,,,,,,,,,,,,,,,,,,,,,,,,,,,,,,main,k,k,1,0.8367566000670195,413.90458710002713,None,None,0,,,,,,,,,,,,,,131,27,Female,2022-05-23_18h15.36.329,Parachute,2022.1.1,59.76996928418069,
negative,blue,2,None,k,,,,,,,,,0,76,76,76,,,,,,,,,,,,,,,,,,,,,,,,,,,,,,,,,,,,,main,k,k,1,0.8494186999741942,415.741834100103,None,None,0,,,,,,,,,,,,,,131,27,Female,2022-05-23_18h15.36.329,Parachute,2022.1.1,59.76996928418069,
negative,yellow,1,k,None,,,,,,,,,0,77,77,77,,,,,,,,,,,,,,,,,,,,,,,,,,,,,,,,,,,,,main,None,None,1,1.4932660998310894,417.5924380000215,None,None,1,,,,,,,,,,,,,,131,27,Female,2022-05-23_18h15.36.329,Parachute,2022.1.1,59.76996928418069,
positive,blue,1,k,None,,,,,,,,,0,78,78,78,,,,,,,,,,,,,,,,,,,,,,,,,,,,,,,,,,,,,main,None,None,1,1.499072500038892,420.0887778000906,None,None,1,,,,,,,,,,,,,,131,27,Female,2022-05-23_18h15.36.329,Parachute,2022.1.1,59.76996928418069,
positive,blue,1,k,None,,,,,,,,,0,79,79,79,,,,,,,,,,,,,,,,,,,,,,,,,,,,,,,,,,,,,main,None,None,1,1.4982412001118064,422.58932589995675,None,None,1,,,,,,,,,,,,,,131,27,Female,2022-05-23_18h15.36.329,Parachute,2022.1.1,59.76996928418069,
positive,red,2,None,None,,,,,,,,,0,80,80,80,,,,,,,,,,,,,,,,,,,,,,,,,,,,,,,,,,,,,main,None,None,1,1.498381899902597,425.08846290013753,None,None,1,,,,,,,,,,,,,,131,27,Female,2022-05-23_18h15.36.329,Parachute,2022.1.1,59.76996928418069,
positive,yellow,2,None,k,,,,,,,,,0,81,81,81,,,,,,,,,,,,,,,,,,,,,,,,,,,,,,,,,,,,,main,k,k,1,0.6034735001157969,427.58867600001395,None,None,0,,,,,,,,,,,,,,131,27,Female,2022-05-23_18h15.36.329,Parachute,2022.1.1,59.76996928418069,
positive,blue,1,k,None,,,,,,,,,0,82,82,82,,,,,,,,,,,,,,,,,,,,,,,,,,,,,,,,,,,,,main,None,None,1,1.4936077001038939,429.19254170008935,None,None,1,,,,,,,,,,,,,,131,27,Female,2022-05-23_18h15.36.329,Parachute,2022.1.1,59.76996928418069,
negative,yellow,2,k,None,,,,,,,,,0,83,83,83,,,,,,,,,,,,,,,,,,,,,,,,,,,,,,,,,,,,,main,None,None,1,1.4991993999574333,431.68861940014176,None,None,1,,,,,,,,,,,,,,131,27,Female,2022-05-23_18h15.36.329,Parachute,2022.1.1,59.76996928418069,
positive,blue,2,k,None,,,,,,,,,0,84,84,84,,,,,,,,,,,,,,,,,,,,,,,,,,,,,,,,,,,,,main,None,k,0,0.7870189000386745,434.1886030000169,None,None,1,,,,,,,,,,,,,,131,27,Female,2022-05-23_18h15.36.329,Parachute,2022.1.1,59.76996928418069,
positive,yellow,1,None,k,,,,,,,,,0,85,85,85,,,,,,,,,,,,,,,,,,,,,,,,,,,,,,,,,,,,,main,k,k,1,1.375555600039661,436.9873884001281,None,None,0,,,,,,,,,,,,,,131,27,Female,2022-05-23_18h15.36.329,Parachute,2022.1.1,59.76996928418069,
positive,blue,2,k,None,,,,,,,,,0,86,86,86,,,,,,,,,,,,,,,,,,,,,,,,,,,,,,,,,,,,,main,None,k,0,0.9125500000081956,439.3614410001319,None,None,1,,,,,,,,,,,,,,131,27,Female,2022-05-23_18h15.36.329,Parachute,2022.1.1,59.76996928418069,
positive,blue,1,k,None,,,,,,,,,0,87,87,87,,,,,,,,,,,,,,,,,,,,,,,,,,,,,,,,,,,,,main,None,None,1,1.501945500029251,442.28887950000353,None,None,1,,,,,,,,,,,,,,131,27,Female,2022-05-23_18h15.36.329,Parachute,2022.1.1,59.76996928418069,
negative,yellow,2,k,None,,,,,,,,,0,88,88,88,,,,,,,,,,,,,,,,,,,,,,,,,,,,,,,,,,,,,main,None,k,0,0.646859799977392,444.78917080000974,None,None,1,,,,,,,,,,,,,,131,27,Female,2022-05-23_18h15.36.329,Parachute,2022.1.1,59.76996928418069,
negative,blue,2,None,k,,,,,,,,,0,89,89,89,,,,,,,,,,,,,,,,,,,,,,,,,,,,,,,,,,,,,main,k,k,1,1.0403172997757792,447.455247099977,None,None,0,,,,,,,,,,,,,,131,27,Female,2022-05-23_18h15.36.329,Parachute,2022.1.1,59.76996928418069,
positive,yellow,2,None,k,,,,,,,,,0,90,90,90,,,,,,,,,,,,,,,,,,,,,,,,,,,,,,,,,,,,,main,k,k,1,0.865353399887681,449.4934587001335,None,None,0,,,,,,,,,,,,,,131,27,Female,2022-05-23_18h15.36.329,Parachute,2022.1.1,59.76996928418069,
negative,yellow,1,k,None,,,,,,,,,0,91,91,91,,,,,,,,,,,,,,,,,,,,,,,,,,,,,,,,,,,,,main,None,k,0,0.898193100001663,451.35985360015184,None,None,1,,,,,,,,,,,,,,131,27,Female,2022-05-23_18h15.36.329,Parachute,2022.1.1,59.76996928418069,
negative,red,2,None,None,,,,,,,,,0,92,92,92,,,,,,,,,,,,,,,,,,,,,,,,,,,,,,,,,,,,,main,None,None,1,1.502157700015232,454.2718114000745,None,None,1,,,,,,,,,,,,,,131,27,Female,2022-05-23_18h15.36.329,Parachute,2022.1.1,59.76996928418069,
negative,blue,2,None,k,,,,,,,,,0,93,93,93,,,,,,,,,,,,,,,,,,,,,,,,,,,,,,,,,,,,,main,k,k,1,0.8834344998467714,456.7734575001523,None,None,0,,,,,,,,,,,,,,131,27,Female,2022-05-23_18h15.36.329,Parachute,2022.1.1,59.76996928418069,
negative,blue,1,None,k,,,,,,,,,0,94,94,94,,,,,,,,,,,,,,,,,,,,,,,,,,,,,,,,,,,,,main,k,k,1,1.2677414999343455,458.65851350012235,None,None,0,,,,,,,,,,,,,,131,27,Female,2022-05-23_18h15.36.329,Parachute,2022.1.1,59.76996928418069,
negative,blue,1,None,k,,,,,,,,,0,95,95,95,,,,,,,,,,,,,,,,,,,,,,,,,,,,,,,,,,,,,main,k,k,1,0.6493279000278562,460.9385848999955,None,None,0,,,,,,,,,,,,,,131,27,Female,2022-05-23_18h15.36.329,Parachute,2022.1.1,59.76996928418069,
negative,red,1,None,None,,,,,,,,,0,96,96,96,,,,,,,,,,,,,,,,,,,,,,,,,,,,,,,,,,,,,main,None,None,1,1.4938816998619586,462.5769485000055,None,None,1,,,,,,,,,,,,,,131,27,Female,2022-05-23_18h15.36.329,Parachute,2022.1.1,59.76996928418069,
positive,yellow,1,None,k,,,,,,,,,0,97,97,97,,,,,,,,,,,,,,,,,,,,,,,,,,,,,,,,,,,,,main,k,k,1,0.6362987998872995,465.0733099000063,None,None,0,,,,,,,,,,,,,,131,27,Female,2022-05-23_18h15.36.329,Parachute,2022.1.1,59.76996928418069,
negative,yellow,1,k,None,,,,,,,,,0,98,98,98,,,,,,,,,,,,,,,,,,,,,,,,,,,,,,,,,,,,,main,None,None,1,1.4933807000052184,466.70993939996697,None,None,1,,,,,,,,,,,,,,131,27,Female,2022-05-23_18h15.36.329,Parachute,2022.1.1,59.76996928418069,
positive,red,1,None,None,,,,,,,,,0,99,99,99,,,,,,,,,,,,,,,,,,,,,,,,,,,,,,,,,,,,,main,None,None,1,1.4994732001796365,469.2054616000969,None,None,1,,,,,,,,,,,,,,131,27,Female,2022-05-23_18h15.36.329,Parachute,2022.1.1,59.76996928418069,
positive,blue,1,k,None,,,,,,,,,0,100,100,100,,,,,,,,,,,,,,,,,,,,,,,,,,,,,,,,,,,,,main,None,None,1,1.1041602999903262,471.7068892000243,None,None,1,,,,,,,,,,,,,,131,27,Female,2022-05-23_18h15.36.329,Parachute,2022.1.1,59.76996928418069,
negative,yellow,1,k,None,,,,,,,,,0,101,101,101,,,,,,,,,,,,,,,,,,,,,,,,,,,,,,,,,,,,,main,None,k,0,1.509323300095275,473.810395100154,None,None,1,,,,,,,,,,,,,,131,27,Female,2022-05-23_18h15.36.329,Parachute,2022.1.1,59.76996928418069,
negative,blue,2,None,k,,,,,,,,,0,102,102,102,,,,,,,,,,,,,,,,,,,,,,,,,,,,,,,,,,,,,main,k,k,1,0.8581693000160158,477.3222586000338,None,None,0,,,,,,,,,,,,,,131,27,Female,2022-05-23_18h15.36.329,Parachute,2022.1.1,59.76996928418069,
negative,yellow,2,k,None,,,,,,,,,0,103,103,103,,,,,,,,,,,,,,,,,,,,,,,,,,,,,,,,,,,,,main,None,None,1,1.5096056000329554,479.1784097000491,None,None,1,,,,,,,,,,,,,,131,27,Female,2022-05-23_18h15.36.329,Parachute,2022.1.1,59.76996928418069,
positive,yellow,2,None,k,,,,,,,,,0,104,104,104,,,,,,,,,,,,,,,,,,,,,,,,,,,,,,,,,,,,,main,k,k,1,1.2022416000254452,481.69118750002235,None,None,0,,,,,,,,,,,,,,131,27,Female,2022-05-23_18h15.36.329,Parachute,2022.1.1,59.76996928418069,
positive,blue,1,k,None,,,,,,,,,0,105,105,105,,,,,,,,,,,,,,,,,,,,,,,,,,,,,,,,,,,,,main,None,None,1,1.494734900072217,483.894227999961,None,None,1,,,,,,,,,,,,,,131,27,Female,2022-05-23_18h15.36.329,Parachute,2022.1.1,59.76996928418069,
positive,blue,2,k,None,,,,,,,,,0,106,106,106,,,,,,,,,,,,,,,,,,,,,,,,,,,,,,,,,,,,,main,None,None,1,1.4981964000035077,486.39020240004174,None,None,1,,,,,,,,,,,,,,131,27,Female,2022-05-23_18h15.36.329,Parachute,2022.1.1,59.76996928418069,
negative,blue,1,None,k,,,,,,,,,0,107,107,107,,,,,,,,,,,,,,,,,,,,,,,,,,,,,,,,,,,,,main,k,k,1,1.1715728999115527,488.8901736000553,None,None,0,,,,,,,,,,,,,,131,27,Female,2022-05-23_18h15.36.329,Parachute,2022.1.1,59.76996928418069,
positive,yellow,2,None,k,,,,,,,,,0,108,108,108,,,,,,,,,,,,,,,,,,,,,,,,,,,,,,,,,,,,,main,k,k,1,0.63117800001055,491.06239900016226,None,None,0,,,,,,,,,,,,,,131,27,Female,2022-05-23_18h15.36.329,Parachute,2022.1.1,59.76996928418069,
negative,yellow,1,k,None,,,,,,,,,0,109,109,109,,,,,,,,,,,,,,,,,,,,,,,,,,,,,,,,,,,,,main,None,k,0,1.0642140000127256,492.69422599999234,None,None,1,,,,,,,,,,,,,,131,27,Female,2022-05-23_18h15.36.329,Parachute,2022.1.1,59.76996928418069,
negative,blue,2,None,k,,,,,,,,,0,110,110,110,,,,,,,,,,,,,,,,,,,,,,,,,,,,,,,,,,,,,main,k,k,1,1.1238188999705017,495.7725361001212,None,None,0,,,,,,,,,,,,,,131,27,Female,2022-05-23_18h15.36.329,Parachute,2022.1.1,59.76996928418069,
positive,blue,2,k,None,,,,,,,,,0,111,111,111,,,,,,,,,,,,,,,,,,,,,,,,,,,,,,,,,,,,,main,None,None,1,1.4931403999216855,497.89421420008875,None,None,1,,,,,,,,,,,,,,131,27,Female,2022-05-23_18h15.36.329,Parachute,2022.1.1,59.76996928418069,
negative,blue,1,None,k,,,,,,,,,0,112,112,112,,,,,,,,,,,,,,,,,,,,,,,,,,,,,,,,,,,,,main,k,k,1,1.670794399920851,500.3902078999672,None,None,0,,,,,,,,,,,,,,131,27,Female,2022-05-23_18h15.36.329,Parachute,2022.1.1,59.76996928418069,
positive,yellow,1,None,k,,,,,,,,,0,113,113,113,,,,,,,,,,,,,,,,,,,,,,,,,,,,,,,,,,,,,main,k,k,1,0.823747199960053,504.0726463000756,None,None,0,,,,,,,,,,,,,,131,27,Female,2022-05-23_18h15.36.329,Parachute,2022.1.1,59.76996928418069,
negative,red,1,None,None,,,,,,,,,0,114,114,114,,,,,,,,,,,,,,,,,,,,,,,,,,,,,,,,,,,,,main,None,None,1,1.4941002998966724,505.9039654000662,None,None,1,,,,,,,,,,,,,,131,27,Female,2022-05-23_18h15.36.329,Parachute,2022.1.1,59.76996928418069,
positive,red,1,None,None,,,,,,,,,0,115,115,115,,,,,,,,,,,,,,,,,,,,,,,,,,,,,,,,,,,,,main,None,None,1,1.4984452000353485,508.39047250011936,None,None,1,,,,,,,,,,,,,,131,27,Female,2022-05-23_18h15.36.329,Parachute,2022.1.1,59.76996928418069,
negative,red,2,None,None,,,,,,,,,0,116,116,116,,,,,,,,,,,,,,,,,,,,,,,,,,,,,,,,,,,,,main,None,None,1,1.4979585998225957,510.89051000005566,None,None,1,,,,,,,,,,,,,,131,27,Female,2022-05-23_18h15.36.329,Parachute,2022.1.1,59.76996928418069,
negative,yellow,2,k,None,,,,,,,,,0,117,117,117,,,,,,,,,,,,,,,,,,,,,,,,,,,,,,,,,,,,,main,None,None,1,1.4990827001165599,513.3901444999501,None,None,1,,,,,,,,,,,,,,131,27,Female,2022-05-23_18h15.36.329,Parachute,2022.1.1,59.76996928418069,
positive,yellow,1,None,k,,,,,,,,,0,118,118,118,,,,,,,,,,,,,,,,,,,,,,,,,,,,,,,,,,,,,main,k,k,1,0.6847314001061022,515.8906386999879,None,None,0,,,,,,,,,,,,,,131,27,Female,2022-05-23_18h15.36.329,Parachute,2022.1.1,59.76996928418069,
positive,red,2,None,None,,,,,,,,,0,119,119,119,,,,,,,,,,,,,,,,,,,,,,,,,,,,,,,,,,,,,main,None,None,1,1.496143199969083,517.5770984000992,None,None,1,,,,,,,,,,,,,,131,27,Female,2022-05-23_18h15.36.329,Parachute,2022.1.1,59.76996928418069,
positive,blue,2,k,None,,,,,,,,,0,120,120,120,,,,,,,,,,,,,,,,,,,,,,,,,,,,,,,,,,,,,main,None,k,0,0.8365324998740107,520.0739861000329,None,None,1,,,,,,,,,,,,,,131,27,Female,2022-05-23_18h15.36.329,Parachute,2022.1.1,59.76996928418069,
negative,red,1,None,None,,,,,,,,,0,121,121,121,,,,,,,,,,,,,,,,,,,,,,,,,,,,,,,,,,,,,main,None,None,1,1.501058999914676,522.9232012000866,None,None,1,,,,,,,,,,,,,,131,27,Female,2022-05-23_18h15.36.329,Parachute,2022.1.1,59.76996928418069,
positive,yellow,2,None,k,,,,,,,,,0,122,122,122,,,,,,,,,,,,,,,,,,,,,,,,,,,,,,,,,,,,,main,k,k,1,0.719873100053519,525.4240323000122,None,None,0,,,,,,,,,,,,,,131,27,Female,2022-05-23_18h15.36.329,Parachute,2022.1.1,59.76996928418069,
negative,red,2,None,None,,,,,,,,,0,123,123,123,,,,,,,,,,,,,,,,,,,,,,,,,,,,,,,,,,,,,main,None,None,1,1.4944865999277681,527.1548874999862,None,None,1,,,,,,,,,,,,,,131,27,Female,2022-05-23_18h15.36.329,Parachute,2022.1.1,59.76996928418069,
negative,yellow,2,k,None,,,,,,,,,0,124,124,124,,,,,,,,,,,,,,,,,,,,,,,,,,,,,,,,,,,,,main,None,None,1,1.4988714999053627,529.6415909000207,None,None,1,,,,,,,,,,,,,,131,27,Female,2022-05-23_18h15.36.329,Parachute,2022.1.1,59.76996928418069,
positive,red,1,None,None,,,,,,,,,0,125,125,125,,,,,,,,,,,,,,,,,,,,,,,,,,,,,,,,,,,,,main,None,None,1,1.4974977998062968,532.1418411999475,None,None,1,,,,,,,,,,,,,,131,27,Female,2022-05-23_18h15.36.329,Parachute,2022.1.1,59.76996928418069,
negative,blue,2,None,k,,,,,,,,,0,126,126,126,,,,,,,,,,,,,,,,,,,,,,,,,,,,,,,,,,,,,main,k,k,1,0.6369587001390755,534.6402955001686,None,None,0,,,,,,,,,,,,,,131,27,Female,2022-05-23_18h15.36.329,Parachute,2022.1.1,59.76996928418069,
negative,blue,1,None,k,,,,,,,,,0,127,127,127,,,,,,,,,,,,,,,,,,,,,,,,,,,,,,,,,,,,,main,k,k,1,1.232968300115317,536.2782483000774,None,None,0,,,,,,,,,,,,,,131,27,Female,2022-05-23_18h15.36.329,Parachute,2022.1.1,59.76996928418069,
negative,yellow,1,k,None,,,,,,,,,0,128,128,128,,,,,,,,,,,,,,,,,,,,,,,,,,,,,,,,,,,,,main,None,None,1,1.4932734000030905,538.5120491001289,None,None,1,,,,,,,,,,,,,,131,27,Female,2022-05-23_18h15.36.329,Parachute,2022.1.1,59.76996928418069,
negative,yellow,1,k,None,,,,,,,,,0,129,129,129,,,,,,,,,,,,,,,,,,,,,,,,,,,,,,,,,,,,,main,None,None,1,1.4982708999887109,541.0076022001449,None,None,1,,,,,,,,,,,,,,131,27,Female,2022-05-23_18h15.36.329,Parachute,2022.1.1,59.76996928418069,
positive,blue,1,k,None,,,,,,,,,0,130,130,130,,,,,,,,,,,,,,,,,,,,,,,,,,,,,,,,,,,,,main,None,None,1,1.4987691999413073,543.5080012001563,None,None,1,,,,,,,,,,,,,,131,27,Female,2022-05-23_18h15.36.329,Parachute,2022.1.1,59.76996928418069,
negative,blue,1,None,k,,,,,,,,,0,131,131,131,,,,,,,,,,,,,,,,,,,,,,,,,,,,,,,,,,,,,main,k,k,1,0.9872112001758069,546.008034599945,None,None,0,,,,,,,,,,,,,,131,27,Female,2022-05-23_18h15.36.329,Parachute,2022.1.1,59.76996928418069,
negative,blue,2,None,k,,,,,,,,,0,132,132,132,,,,,,,,,,,,,,,,,,,,,,,,,,,,,,,,,,,,,main,k,k,1,0.8481635998468846,548.0070285000838,None,None,0,,,,,,,,,,,,,,131,27,Female,2022-05-23_18h15.36.329,Parachute,2022.1.1,59.76996928418069,
positive,blue,2,k,None,,,,,,,,,0,133,133,133,,,,,,,,,,,,,,,,,,,,,,,,,,,,,,,,,,,,,main,None,None,1,1.494882500031963,549.8458386999555,None,None,1,,,,,,,,,,,,,,131,27,Female,2022-05-23_18h15.36.329,Parachute,2022.1.1,59.76996928418069,
positive,red,2,None,None,,,,,,,,,0,134,134,134,,,,,,,,,,,,,,,,,,,,,,,,,,,,,,,,,,,,,main,None,None,1,1.498302600113675,552.3420182999689,None,None,1,,,,,,,,,,,,,,131,27,Female,2022-05-23_18h15.36.329,Parachute,2022.1.1,59.76996928418069,
negative,yellow,2,k,None,,,,,,,,,0,135,135,135,,,,,,,,,,,,,,,,,,,,,,,,,,,,,,,,,,,,,main,None,None,1,1.4985499000176787,554.8416337000672,None,None,1,,,,,,,,,,,,,,131,27,Female,2022-05-23_18h15.36.329,Parachute,2022.1.1,59.76996928418069,
positive,yellow,2,None,k,,,,,,,,,0,136,136,136,,,,,,,,,,,,,,,,,,,,,,,,,,,,,,,,,,,,,main,k,k,1,0.7701067999005318,557.3412139001302,None,None,0,,,,,,,,,,,,,,131,27,Female,2022-05-23_18h15.36.329,Parachute,2022.1.1,59.76996928418069,
positive,blue,1,k,None,,,,,,,,,0,137,137,137,,,,,,,,,,,,,,,,,,,,,,,,,,,,,,,,,,,,,main,None,None,1,1.4936210999730974,559.1121006000321,None,None,1,,,,,,,,,,,,,,131,27,Female,2022-05-23_18h15.36.329,Parachute,2022.1.1,59.76996928418069,
positive,yellow,1,None,k,,,,,,,,,0,138,138,138,,,,,,,,,,,,,,,,,,,,,,,,,,,,,,,,,,,,,main,k,k,1,0.7972649000585079,561.6082307000179,None,None,0,,,,,,,,,,,,,,131,27,Female,2022-05-23_18h15.36.329,Parachute,2022.1.1,59.76996928418069,
positive,yellow,1,None,k,,,,,,,,,0,139,139,139,,,,,,,,,,,,,,,,,,,,,,,,,,,,,,,,,,,,,main,k,k,1,0.7219653001520783,563.4071579000447,None,None,0,,,,,,,,,,,,,,131,27,Female,2022-05-23_18h15.36.329,Parachute,2022.1.1,59.76996928418069,
positive,yellow,1,None,k,,,,,,,,,0,140,140,140,,,,,,,,,,,,,,,,,,,,,,,,,,,,,,,,,,,,,main,k,k,1,0.6975981998257339,565.1288531001192,None,None,0,,,,,,,,,,,,,,131,27,Female,2022-05-23_18h15.36.329,Parachute,2022.1.1,59.76996928418069,
positive,blue,1,k,None,,,,,,,,,0,141,141,141,,,,,,,,,,,,,,,,,,,,,,,,,,,,,,,,,,,,,main,None,None,1,1.4944190999958664,566.8293499001302,None,None,1,,,,,,,,,,,,,,131,27,Female,2022-05-23_18h15.36.329,Parachute,2022.1.1,59.76996928418069,
positive,blue,2,k,None,,,,,,,,,0,142,142,142,,,,,,,,,,,,,,,,,,,,,,,,,,,,,,,,,,,,,main,None,None,1,1.4990960999857634,569.3248436001595,None,None,1,,,,,,,,,,,,,,131,27,Female,2022-05-23_18h15.36.329,Parachute,2022.1.1,59.76996928418069,
positive,yellow,2,None,k,,,,,,,,,0,143,143,143,,,,,,,,,,,,,,,,,,,,,,,,,,,,,,,,,,,,,main,k,k,1,1.2358610001392663,571.8255982000846,None,None,0,,,,,,,,,,,,,,131,27,Female,2022-05-23_18h15.36.329,Parachute,2022.1.1,59.76996928418069,
negative,yellow,2,k,None,,,,,,,,,0,144,144,144,,,,,,,,,,,,,,,,,,,,,,,,,,,,,,,,,,,,,main,None,None,1,1.4945590998977423,574.0627766000107,None,None,1,,,,,,,,,,,,,,131,27,Female,2022-05-23_18h15.36.329,Parachute,2022.1.1,59.76996928418069,
negative,blue,2,None,k,,,,,,,,,0,145,145,145,,,,,,,,,,,,,,,,,,,,,,,,,,,,,,,,,,,,,main,k,k,1,1.1016129001509398,576.5596181000583,None,None,0,,,,,,,,,,,,,,131,27,Female,2022-05-23_18h15.36.329,Parachute,2022.1.1,59.76996928418069,
negative,red,1,None,None,,,,,,,,,0,146,146,146,,,,,,,,,,,,,,,,,,,,,,,,,,,,,,,,,,,,,main,None,None,1,1.495880899950862,578.6620420999825,None,None,1,,,,,,,,,,,,,,131,27,Female,2022-05-23_18h15.36.329,Parachute,2022.1.1,59.76996928418069,
positive,blue,1,k,None,,,,,,,,,0,147,147,147,,,,,,,,,,,,,,,,,,,,,,,,,,,,,,,,,,,,,main,None,None,1,1.4981813000049442,581.1595079000108,None,None,1,,,,,,,,,,,,,,131,27,Female,2022-05-23_18h15.36.329,Parachute,2022.1.1,59.76996928418069,
positive,yellow,1,None,k,,,,,,,,,0,148,148,148,,,,,,,,,,,,,,,,,,,,,,,,,,,,,,,,,,,,,main,k,k,1,0.7367070999462157,583.6584863001481,None,None,0,,,,,,,,,,,,,,131,27,Female,2022-05-23_18h15.36.329,Parachute,2022.1.1,59.76996928418069,
negative,red,2,None,None,,,,,,,,,0,149,149,149,,,,,,,,,,,,,,,,,,,,,,,,,,,,,,,,,,,,,main,None,None,1,1.49390250002034,585.3957993001677,None,None,1,,,,,,,,,,,,,,131,27,Female,2022-05-23_18h15.36.329,Parachute,2022.1.1,59.76996928418069,
negative,blue,1,None,k,,,,,,,,,0,150,150,150,,,,,,,,,,,,,,,,,,,,,,,,,,,,,,,,,,,,,main,k,k,1,0.9699389999732375,587.892693700036,None,None,0,,,,,,,,,,,,,,131,27,Female,2022-05-23_18h15.36.329,Parachute,2022.1.1,59.76996928418069,
negative,yellow,2,k,None,,,,,,,,,0,151,151,151,,,,,,,,,,,,,,,,,,,,,,,,,,,,,,,,,,,,,main,None,None,1,1.4936083999928087,589.8632191000506,None,None,1,,,,,,,,,,,,,,131,27,Female,2022-05-23_18h15.36.329,Parachute,2022.1.1,59.76996928418069,
negative,blue,2,None,k,,,,,,,,,0,152,152,152,,,,,,,,,,,,,,,,,,,,,,,,,,,,,,,,,,,,,main,k,k,1,0.8663151001092046,592.3589405999519,None,None,0,,,,,,,,,,,,,,131,27,Female,2022-05-23_18h15.36.329,Parachute,2022.1.1,59.76996928418069,
negative,yellow,1,k,None,,,,,,,,,0,153,153,153,,,,,,,,,,,,,,,,,,,,,,,,,,,,,,,,,,,,,main,None,None,1,1.498254399979487,594.2263313999865,None,None,1,,,,,,,,,,,,,,131,27,Female,2022-05-23_18h15.36.329,Parachute,2022.1.1,59.76996928418069,
negative,blue,1,None,k,,,,,,,,,0,154,154,154,,,,,,,,,,,,,,,,,,,,,,,,,,,,,,,,,,,,,main,k,k,1,1.0692871999926865,596.7256321001332,None,None,0,,,,,,,,,,,,,,131,27,Female,2022-05-23_18h15.36.329,Parachute,2022.1.1,59.76996928418069,
positive,yellow,2,None,k,,,,,,,,,0,155,155,155,,,,,,,,,,,,,,,,,,,,,,,,,,,,,,,,,,,,,main,k,k,1,0.9327471998985857,598.7963747000322,None,None,0,,,,,,,,,,,,,,131,27,Female,2022-05-23_18h15.36.329,Parachute,2022.1.1,59.76996928418069,
positive,red,2,None,None,,,,,,,,,0,156,156,156,,,,,,,,,,,,,,,,,,,,,,,,,,,,,,,,,,,,,main,None,None,1,1.4939528000541031,600.7398409999441,None,None,1,,,,,,,,,,,,,,131,27,Female,2022-05-23_18h15.36.329,Parachute,2022.1.1,59.76996928418069,
positive,red,1,None,None,,,,,,,,,0,157,157,157,,,,,,,,,,,,,,,,,,,,,,,,,,,,,,,,,,,,,main,None,None,1,1.498729000100866,603.2260543000884,None,None,1,,,,,,,,,,,,,,131,27,Female,2022-05-23_18h15.36.329,Parachute,2022.1.1,59.76996928418069,
positive,blue,2,k,None,,,,,,,,,0,158,158,158,,,,,,,,,,,,,,,,,,,,,,,,,,,,,,,,,,,,,main,None,k,0,0.8698765998706222,605.7263730000705,None,None,1,,,,,,,,,,,,,,131,27,Female,2022-05-23_18h15.36.329,Parachute,2022.1.1,59.76996928418069,
negative,yellow,1,k,None,,,,,,,,,0,159,159,159,,,,,,,,,,,,,,,,,,,,,,,,,,,,,,,,,,,,,main,None,None,1,1.5017890001181513,608.6081771000754,None,None,1,,,,,,,,,,,,,,131,27,Female,2022-05-23_18h15.36.329,Parachute,2022.1.1,59.76996928418069,
negative,red,2,None,None,,,,,,,,,0,160,160,160,,,,,,,,,,,,,,,,,,,,,,,,,,,,,,,,,,,,,main,None,None,1,1.4985344999004155,611.1095078000799,None,None,1,,,,,,,,,,,,,,131,27,Female,2022-05-23_18h15.36.329,Parachute,2022.1.1,59.76996928418069,
negative,blue,1,None,k,,,,,,,,,0,161,161,161,,,,,,,,,,,,,,,,,,,,,,,,,,,,,,,,,,,,,main,k,k,1,0.9524603001773357,613.6094941999763,None,None,0,,,,,,,,,,,,,,131,27,Female,2022-05-23_18h15.36.329,Parachute,2022.1.1,59.76996928418069,
negative,blue,1,None,k,,,,,,,,,0,162,162,162,,,,,,,,,,,,,,,,,,,,,,,,,,,,,,,,,,,,,main,k,k,1,5.966612699907273,615.5633479000535,None,None,0,,,,,,,,,,,,,,131,27,Female,2022-05-23_18h15.36.329,Parachute,2022.1.1,59.76996928418069,
negative,yellow,1,k,None,,,,,,,,,0,163,163,163,,,,,,,,,,,,,,,,,,,,,,,,,,,,,,,,,,,,,main,None,None,1,1.5020358997862786,623.5423624999821,None,None,1,,,,,,,,,,,,,,131,27,Female,2022-05-23_18h15.36.329,Parachute,2022.1.1,59.76996928418069,
negative,yellow,1,k,None,,,,,,,,,0,164,164,164,,,,,,,,,,,,,,,,,,,,,,,,,,,,,,,,,,,,,main,None,None,1,1.4984025999438018,626.0428711001296,None,None,1,,,,,,,,,,,,,,131,27,Female,2022-05-23_18h15.36.329,Parachute,2022.1.1,59.76996928418069,
positive,yellow,1,None,k,,,,,,,,,0,165,165,165,,,,,,,,,,,,,,,,,,,,,,,,,,,,,,,,,,,,,main,k,k,1,0.8037563001271337,628.5432748999447,None,None,0,,,,,,,,,,,,,,131,27,Female,2022-05-23_18h15.36.329,Parachute,2022.1.1,59.76996928418069,
negative,red,1,None,None,,,,,,,,,0,166,166,166,,,,,,,,,,,,,,,,,,,,,,,,,,,,,,,,,,,,,main,None,None,1,1.4934358999598771,630.3472727001645,None,None,1,,,,,,,,,,,,,,131,27,Female,2022-05-23_18h15.36.329,Parachute,2022.1.1,59.76996928418069,
negative,yellow,2,k,None,,,,,,,,,0,167,167,167,,,,,,,,,,,,,,,,,,,,,,,,,,,,,,,,,,,,,main,None,None,1,1.4983880000654608,632.8435146000702,None,None,1,,,,,,,,,,,,,,131,27,Female,2022-05-23_18h15.36.329,Parachute,2022.1.1,59.76996928418069,
positive,blue,2,k,None,,,,,,,,,0,168,168,168,,,,,,,,,,,,,,,,,,,,,,,,,,,,,,,,,,,,,main,None,None,1,1.4989060999359936,635.3430898999795,None,None,1,,,,,,,,,,,,,,131,27,Female,2022-05-23_18h15.36.329,Parachute,2022.1.1,59.76996928418069,
positive,red,2,None,None,,,,,,,,,0,169,169,169,,,,,,,,,,,,,,,,,,,,,,,,,,,,,,,,,,,,,main,None,None,1,1.4986223001033068,637.8429694001097,None,None,1,,,,,,,,,,,,,,131,27,Female,2022-05-23_18h15.36.329,Parachute,2022.1.1,59.76996928418069,
positive,red,1,None,None,,,,,,,,,0,170,170,170,,,,,,,,,,,,,,,,,,,,,,,,,,,,,,,,,,,,,main,None,None,1,1.4984534999821335,640.3438622001559,None,None,1,,,,,,,,,,,,,,131,27,Female,2022-05-23_18h15.36.329,Parachute,2022.1.1,59.76996928418069,
negative,blue,2,None,k,,,,,,,,,0,171,171,171,,,,,,,,,,,,,,,,,,,,,,,,,,,,,,,,,,,,,main,k,k,1,0.913171400083229,642.8432414000854,None,None,0,,,,,,,,,,,,,,131,27,Female,2022-05-23_18h15.36.329,Parachute,2022.1.1,59.76996928418069,
positive,blue,2,k,None,,,,,,,,,0,172,172,172,,,,,,,,,,,,,,,,,,,,,,,,,,,,,,,,,,,,,main,None,None,1,1.5008693002164364,644.7593119000085,None,None,1,,,,,,,,,,,,,,131,27,Female,2022-05-23_18h15.36.329,Parachute,2022.1.1,59.76996928418069,
negative,yellow,2,k,None,,,,,,,,,0,173,173,173,,,,,,,,,,,,,,,,,,,,,,,,,,,,,,,,,,,,,main,None,None,1,1.4987830999307334,647.2604811000638,None,None,1,,,,,,,,,,,,,,131,27,Female,2022-05-23_18h15.36.329,Parachute,2022.1.1,59.76996928418069,
positive,yellow,2,None,k,,,,,,,,,0,174,174,174,,,,,,,,,,,,,,,,,,,,,,,,,,,,,,,,,,,,,main,k,k,1,0.8352090001571923,649.7604801999405,None,None,0,,,,,,,,,,,,,,131,27,Female,2022-05-23_18h15.36.329,Parachute,2022.1.1,59.76996928418069,
negative,blue,2,None,k,,,,,,,,,0,175,175,175,,,,,,,,,,,,,,,,,,,,,,,,,,,,,,,,,,,,,main,k,k,1,1.067054099868983,651.5969777000137,None,None,0,,,,,,,,,,,,,,131,27,Female,2022-05-23_18h15.36.329,Parachute,2022.1.1,59.76996928418069,
positive,blue,1,k,None,,,,,,,,,0,176,176,176,,,,,,,,,,,,,,,,,,,,,,,,,,,,,,,,,,,,,main,None,None,1,1.493559000082314,653.674129200168,None,None,1,,,,,,,,,,,,,,131,27,Female,2022-05-23_18h15.36.329,Parachute,2022.1.1,59.76996928418069,
positive,yellow,1,None,k,,,,,,,,,0,177,177,177,,,,,,,,,,,,,,,,,,,,,,,,,,,,,,,,,,,,,main,k,k,1,1.0702612998429686,656.1606813999824,None,None,0,,,,,,,,,,,,,,131,27,Female,2022-05-23_18h15.36.329,Parachute,2022.1.1,59.76996928418069,
positive,blue,1,k,None,,,,,,,,,0,178,178,178,,,,,,,,,,,,,,,,,,,,,,,,,,,,,,,,,,,,,main,None,None,1,1.4933644998818636,658.231723099947,None,None,1,,,,,,,,,,,,,,131,27,Female,2022-05-23_18h15.36.329,Parachute,2022.1.1,59.76996928418069,
positive,yellow,2,None,k,,,,,,,,,0,179,179,179,,,,,,,,,,,,,,,,,,,,,,,,,,,,,,,,,,,,,main,k,k,1,0.870856299996376,660.7282645001542,None,None,0,,,,,,,,,,,,,,131,27,Female,2022-05-23_18h15.36.329,Parachute,2022.1.1,59.76996928418069,
positive,blue,1,k,None,,,,,,,,,0,180,180,180,,,,,,,,,,,,,,,,,,,,,,,,,,,,,,,,,,,,,main,None,None,1,1.493216299917549,662.5997798000462,None,None,1,,,,,,,,,,,,,,131,27,Female,2022-05-23_18h15.36.329,Parachute,2022.1.1,59.76996928418069,
negative,red,1,None,None,,,,,,,,,0,181,181,181,,,,,,,,,,,,,,,,,,,,,,,,,,,,,,,,,,,,,main,None,None,1,1.4984528999775648,665.0953583000228,None,None,1,,,,,,,,,,,,,,131,27,Female,2022-05-23_18h15.36.329,Parachute,2022.1.1,59.76996928418069,
negative,blue,1,None,k,,,,,,,,,0,182,182,182,,,,,,,,,,,,,,,,,,,,,,,,,,,,,,,,,,,,,main,k,k,1,1.1039962000213563,667.5950128000695,None,None,0,,,,,,,,,,,,,,131,27,Female,2022-05-23_18h15.36.329,Parachute,2022.1.1,59.76996928418069,
negative,yellow,2,k,None,,,,,,,,,0,183,183,183,,,,,,,,,,,,,,,,,,,,,,,,,,,,,,,,,,,,,main,None,None,1,1.4930706000886858,669.6981041999534,None,None,1,,,,,,,,,,,,,,131,27,Female,2022-05-23_18h15.36.329,Parachute,2022.1.1,59.76996928418069,
positive,yellow,2,None,k,,,,,,,,,0,184,184,184,,,,,,,,,,,,,,,,,,,,,,,,,,,,,,,,,,,,,main,k,k,1,0.7374185998924077,672.193581199972,None,None,0,,,,,,,,,,,,,,131,27,Female,2022-05-23_18h15.36.329,Parachute,2022.1.1,59.76996928418069,
positive,yellow,1,None,k,,,,,,,,,0,185,185,185,,,,,,,,,,,,,,,,,,,,,,,,,,,,,,,,,,,,,main,k,k,1,0.6823926998768002,673.9415490000974,None,None,0,,,,,,,,,,,,,,131,27,Female,2022-05-23_18h15.36.329,Parachute,2022.1.1,59.76996928418069,
positive,red,2,None,None,,,,,,,,,0,186,186,186,,,,,,,,,,,,,,,,,,,,,,,,,,,,,,,,,,,,,main,None,None,1,1.4938638000749052,675.6149673000909,None,None,1,,,,,,,,,,,,,,131,27,Female,2022-05-23_18h15.36.329,Parachute,2022.1.1,59.76996928418069,
positive,blue,1,k,None,,,,,,,,,0,187,187,187,,,,,,,,,,,,,,,,,,,,,,,,,,,,,,,,,,,,,main,None,None,1,1.498234499944374,678.111173100071,None,None,1,,,,,,,,,,,,,,131,27,Female,2022-05-23_18h15.36.329,Parachute,2022.1.1,59.76996928418069,
negative,yellow,1,k,None,,,,,,,,,0,188,188,188,,,,,,,,,,,,,,,,,,,,,,,,,,,,,,,,,,,,,main,None,None,1,1.4979952999856323,680.6111328999978,None,None,1,,,,,,,,,,,,,,131,27,Female,2022-05-23_18h15.36.329,Parachute,2022.1.1,59.76996928418069,
positive,yellow,2,None,k,,,,,,,,,0,189,189,189,,,,,,,,,,,,,,,,,,,,,,,,,,,,,,,,,,,,,main,k,k,1,0.7716812000144273,683.1105257000308,None,None,0,,,,,,,,,,,,,,131,27,Female,2022-05-23_18h15.36.329,Parachute,2022.1.1,59.76996928418069,
negative,yellow,2,k,None,,,,,,,,,0,190,190,190,,,,,,,,,,,,,,,,,,,,,,,,,,,,,,,,,,,,,main,None,None,1,1.493221600074321,684.8823363000993,None,None,1,,,,,,,,,,,,,,131,27,Female,2022-05-23_18h15.36.329,Parachute,2022.1.1,59.76996928418069,
negative,yellow,1,k,None,,,,,,,,,0,191,191,191,,,,,,,,,,,,,,,,,,,,,,,,,,,,,,,,,,,,,main,None,None,1,1.4983441999647766,687.3784156001639,None,None,1,,,,,,,,,,,,,,131,27,Female,2022-05-23_18h15.36.329,Parachute,2022.1.1,59.76996928418069,
positive,blue,2,k,None,,,,,,,,,0,192,192,192,,,,,,,,,,,,,,,,,,,,,,,,,,,,,,,,,,,,,main,None,None,1,1.4991518000606447,689.877420200035,None,None,1,,,,,,,,,,,,,,131,27,Female,2022-05-23_18h15.36.329,Parachute,2022.1.1,59.76996928418069,
positive,yellow,1,None,k,,,,,,,,,0,193,193,193,,,,,,,,,,,,,,,,,,,,,,,,,,,,,,,,,,,,,main,k,k,1,1.1712088999338448,692.3784533001017,None,None,0,,,,,,,,,,,,,,131,27,Female,2022-05-23_18h15.36.329,Parachute,2022.1.1,59.76996928418069,
negative,red,2,None,None,,,,,,,,,0,194,194,194,,,,,,,,,,,,,,,,,,,,,,,,,,,,,,,,,,,,,main,None,None,1,1.508539600064978,694.551556300139,None,None,1,,,,,,,,,,,,,,131,27,Female,2022-05-23_18h15.36.329,Parachute,2022.1.1,59.76996928418069,
positive,red,1,None,None,,,,,,,,,0,195,195,195,,,,,,,,,,,,,,,,,,,,,,,,,,,,,,,,,,,,,main,None,None,1,1.4983723999466747,697.0610988000408,None,None,1,,,,,,,,,,,,,,131,27,Female,2022-05-23_18h15.36.329,Parachute,2022.1.1,59.76996928418069,
negative,blue,1,None,k,,,,,,,,,0,196,196,196,,,,,,,,,,,,,,,,,,,,,,,,,,,,,,,,,,,,,main,k,k,1,1.0036890001501888,699.560846599983,None,None,0,,,,,,,,,,,,,,131,27,Female,2022-05-23_18h15.36.329,Parachute,2022.1.1,59.76996928418069,
positive,blue,2,k,None,,,,,,,,,0,197,197,197,,,,,,,,,,,,,,,,,,,,,,,,,,,,,,,,,,,,,main,None,None,1,1.4934184001758695,701.5651718000881,None,None,1,,,,,,,,,,,,,,131,27,Female,2022-05-23_18h15.36.329,Parachute,2022.1.1,59.76996928418069,
negative,blue,2,None,k,,,,,,,,,0,198,198,198,,,,,,,,,,,,,,,,,,,,,,,,,,,,,,,,,,,,,main,k,k,1,1.0369974998757243,704.0609784000553,None,None,0,,,,,,,,,,,,,,131,27,Female,2022-05-23_18h15.36.329,Parachute,2022.1.1,59.76996928418069,
negative,blue,2,None,k,,,,,,,,,0,199,199,199,,,,,,,,,,,,,,,,,,,,,,,,,,,,,,,,,,,,,main,k,k,1,0.69848099979572,706.0984390999656,None,None,0,,,,,,,,,,,,,,131,27,Female,2022-05-23_18h15.36.329,Parachute,2022.1.1,59.76996928418069,
positive,blue,2,k,None,,,,,,,,,0,200,200,200,,,,,,,,,,,,,,,,,,,,,,,,,,,,,,,,,,,,,main,None,None,1,1.4933703001588583,707.7985634000506,None,None,1,,,,,,,,,,,,,,131,27,Female,2022-05-23_18h15.36.329,Parachute,2022.1.1,59.76996928418069,
positive,blue,2,k,None,,,,,,,,,0,201,201,201,,,,,,,,,,,,,,,,,,,,,,,,,,,,,,,,,,,,,main,None,None,1,1.4989527999423444,710.294179999968,None,None,1,,,,,,,,,,,,,,131,27,Female,2022-05-23_18h15.36.329,Parachute,2022.1.1,59.76996928418069,
negative,yellow,2,k,None,,,,,,,,,0,202,202,202,,,,,,,,,,,,,,,,,,,,,,,,,,,,,,,,,,,,,main,None,None,1,1.498545999871567,712.7948573001195,None,None,1,,,,,,,,,,,,,,131,27,Female,2022-05-23_18h15.36.329,Parachute,2022.1.1,59.76996928418069,
positive,red,1,None,None,,,,,,,,,0,203,203,203,,,,,,,,,,,,,,,,,,,,,,,,,,,,,,,,,,,,,main,None,None,1,1.4985158001072705,715.2944108000956,None,None,1,,,,,,,,,,,,,,131,27,Female,2022-05-23_18h15.36.329,Parachute,2022.1.1,59.76996928418069,
negative,blue,2,None,k,,,,,,,,,0,204,204,204,,,,,,,,,,,,,,,,,,,,,,,,,,,,,,,,,,,,,main,k,k,1,2.8374722998123616,717.7947255000472,None,None,0,,,,,,,,,,,,,,131,27,Female,2022-05-23_18h15.36.329,Parachute,2022.1.1,59.76996928418069,
negative,red,1,None,None,,,,,,,,,0,205,205,205,,,,,,,,,,,,,,,,,,,,,,,,,,,,,,,,,,,,,main,None,None,1,1.5012008000630885,722.6441792000551,None,None,1,,,,,,,,,,,,,,131,27,Female,2022-05-23_18h15.36.329,Parachute,2022.1.1,59.76996928418069,
negative,blue,2,None,k,,,,,,,,,0,206,206,206,,,,,,,,,,,,,,,,,,,,,,,,,,,,,,,,,,,,,main,k,k,1,1.220137500204146,725.1454465000425,None,None,0,,,,,,,,,,,,,,131,27,Female,2022-05-23_18h15.36.329,Parachute,2022.1.1,59.76996928418069,
negative,yellow,2,k,None,,,,,,,,,0,207,207,207,,,,,,,,,,,,,,,,,,,,,,,,,,,,,,,,,,,,,main,None,None,1,1.4934797999449074,727.3657901000697,None,None,1,,,,,,,,,,,,,,131,27,Female,2022-05-23_18h15.36.329,Parachute,2022.1.1,59.76996928418069,
positive,yellow,2,None,k,,,,,,,,,0,208,208,208,,,,,,,,,,,,,,,,,,,,,,,,,,,,,,,,,,,,,main,k,k,1,0.7703204001300037,729.8621873001102,None,None,0,,,,,,,,,,,,,,131,27,Female,2022-05-23_18h15.36.329,Parachute,2022.1.1,59.76996928418069,
negative,yellow,1,k,None,,,,,,,,,0,209,209,209,,,,,,,,,,,,,,,,,,,,,,,,,,,,,,,,,,,,,main,None,None,1,1.5104217999614775,731.6346504001413,None,None,1,,,,,,,,,,,,,,131,27,Female,2022-05-23_18h15.36.329,Parachute,2022.1.1,59.76996928418069,
negative,red,2,None,None,,,,,,,,,0,210,210,210,,,,,,,,,,,,,,,,,,,,,,,,,,,,,,,,,,,,,main,None,None,1,1.4983953000046313,734.1470942001324,None,None,1,,,,,,,,,,,,,,131,27,Female,2022-05-23_18h15.36.329,Parachute,2022.1.1,59.76996928418069,
negative,blue,1,None,k,,,,,,,,,0,211,211,211,,,,,,,,,,,,,,,,,,,,,,,,,,,,,,,,,,,,,main,k,k,1,2.218929700087756,736.6473132001702,None,None,0,,,,,,,,,,,,,,131,27,Female,2022-05-23_18h15.36.329,Parachute,2022.1.1,59.76996928418069,
negative,yellow,1,k,None,,,,,,,,,0,212,212,212,,,,,,,,,,,,,,,,,,,,,,,,,,,,,,,,,,,,,main,None,None,1,1.5023909998126328,740.8775105001405,None,None,1,,,,,,,,,,,,,,131,27,Female,2022-05-23_18h15.36.329,Parachute,2022.1.1,59.76996928418069,
positive,blue,1,k,None,,,,,,,,,0,213,213,213,,,,,,,,,,,,,,,,,,,,,,,,,,,,,,,,,,,,,main,None,None,1,1.4983550000470132,743.379900299944,None,None,1,,,,,,,,,,,,,,131,27,Female,2022-05-23_18h15.36.329,Parachute,2022.1.1,59.76996928418069,
positive,blue,1,k,None,,,,,,,,,0,214,214,214,,,,,,,,,,,,,,,,,,,,,,,,,,,,,,,,,,,,,main,None,None,1,1.4981236001476645,745.8789654001594,None,None,1,,,,,,,,,,,,,,131,27,Female,2022-05-23_18h15.36.329,Parachute,2022.1.1,59.76996928418069,
positive,yellow,1,None,k,,,,,,,,,0,215,215,215,,,,,,,,,,,,,,,,,,,,,,,,,,,,,,,,,,,,,main,k,k,1,1.06869180011563,748.3787249999586,None,None,0,,,,,,,,,,,,,,131,27,Female,2022-05-23_18h15.36.329,Parachute,2022.1.1,59.76996928418069,
positive,yellow,1,None,k,,,,,,,,,0,216,216,216,,,,,,,,,,,,,,,,,,,,,,,,,,,,,,,,,,,,,main,k,k,1,0.6811710000038147,750.4494586000219,None,None,0,,,,,,,,,,,,,,131,27,Female,2022-05-23_18h15.36.329,Parachute,2022.1.1,59.76996928418069,
positive,yellow,2,None,k,,,,,,,,,0,217,217,217,,,,,,,,,,,,,,,,,,,,,,,,,,,,,,,,,,,,,main,k,k,1,0.8345071000512689,752.1319926001597,None,None,0,,,,,,,,,,,,,,131,27,Female,2022-05-23_18h15.36.329,Parachute,2022.1.1,59.76996928418069,
negative,blue,1,None,k,,,,,,,,,0,218,218,218,,,,,,,,,,,,,,,,,,,,,,,,,,,,,,,,,,,,,main,k,k,1,1.0653386998455971,753.9665555001702,None,None,0,,,,,,,,,,,,,,131,27,Female,2022-05-23_18h15.36.329,Parachute,2022.1.1,59.76996928418069,
positive,red,2,None,None,,,,,,,,,0,219,219,219,,,,,,,,,,,,,,,,,,,,,,,,,,,,,,,,,,,,,main,None,None,1,1.4933237000368536,756.0330807999708,None,None,1,,,,,,,,,,,,,,131,27,Female,2022-05-23_18h15.36.329,Parachute,2022.1.1,59.76996928418069,
positive,yellow,1,None,k,,,,,,,,,0,220,220,220,,,,,,,,,,,,,,,,,,,,,,,,,,,,,,,,,,,,,main,k,k,1,0.6704380000010133,758.5288315999787,None,None,0,,,,,,,,,,,,,,131,27,Female,2022-05-23_18h15.36.329,Parachute,2022.1.1,59.76996928418069,
positive,blue,1,k,None,,,,,,,,,0,221,221,221,,,,,,,,,,,,,,,,,,,,,,,,,,,,,,,,,,,,,main,None,None,1,1.4937275999691337,760.1994710001163,None,None,1,,,,,,,,,,,,,,131,27,Female,2022-05-23_18h15.36.329,Parachute,2022.1.1,59.76996928418069,
positive,yellow,2,None,k,,,,,,,,,0,222,222,222,,,,,,,,,,,,,,,,,,,,,,,,,,,,,,,,,,,,,main,k,k,1,0.8205692998599261,762.6957539001014,None,None,0,,,,,,,,,,,,,,131,27,Female,2022-05-23_18h15.36.329,Parachute,2022.1.1,59.76996928418069,
negative,yellow,1,k,None,,,,,,,,,0,223,223,223,,,,,,,,,,,,,,,,,,,,,,,,,,,,,,,,,,,,,main,None,None,1,1.4932432000059634,764.5170416999608,None,None,1,,,,,,,,,,,,,,131,27,Female,2022-05-23_18h15.36.329,Parachute,2022.1.1,59.76996928418069,
positive,yellow,2,None,k,,,,,,,,,0,224,224,224,,,,,,,,,,,,,,,,,,,,,,,,,,,,,,,,,,,,,main,k,k,1,1.620241500204429,767.0127982001286,None,None,0,,,,,,,,,,,,,,131,27,Female,2022-05-23_18h15.36.329,Parachute,2022.1.1,59.76996928418069,
negative,yellow,2,k,None,,,,,,,,,0,225,225,225,,,,,,,,,,,,,,,,,,,,,,,,,,,,,,,,,,,,,main,None,None,1,1.5017265998758376,770.6452959999442,None,None,1,,,,,,,,,,,,,,131,27,Female,2022-05-23_18h15.36.329,Parachute,2022.1.1,59.76996928418069,
negative,blue,2,None,k,,,,,,,,,0,226,226,226,,,,,,,,,,,,,,,,,,,,,,,,,,,,,,,,,,,,,main,k,k,1,0.8857875000685453,773.1461128001101,None,None,0,,,,,,,,,,,,,,131,27,Female,2022-05-23_18h15.36.329,Parachute,2022.1.1,59.76996928418069,
positive,red,2,None,None,,,,,,,,,0,227,227,227,,,,,,,,,,,,,,,,,,,,,,,,,,,,,,,,,,,,,main,None,None,1,1.4947144000325352,775.0338403000496,None,None,1,,,,,,,,,,,,,,131,27,Female,2022-05-23_18h15.36.329,Parachute,2022.1.1,59.76996928418069,
positive,blue,2,k,None,,,,,,,,,0,228,228,228,,,,,,,,,,,,,,,,,,,,,,,,,,,,,,,,,,,,,main,None,None,1,1.498345300089568,777.5295617999509,None,None,1,,,,,,,,,,,,,,131,27,Female,2022-05-23_18h15.36.329,Parachute,2022.1.1,59.76996928418069,
negative,blue,1,None,k,,,,,,,,,0,229,229,229,,,,,,,,,,,,,,,,,,,,,,,,,,,,,,,,,,,,,main,k,k,1,1.4368942000437528,780.0295857000165,None,None,0,,,,,,,,,,,,,,131,27,Female,2022-05-23_18h15.36.329,Parachute,2022.1.1,59.76996928418069,
positive,yellow,1,None,k,,,,,,,,,0,230,230,230,,,,,,,,,,,,,,,,,,,,,,,,,,,,,,,,,,,,,main,k,k,1,0.9159395999740809,782.4676071000285,None,None,0,,,,,,,,,,,,,,131,27,Female,2022-05-23_18h15.36.329,Parachute,2022.1.1,59.76996928418069,
negative,blue,2,None,k,,,,,,,,,0,231,231,231,,,,,,,,,,,,,,,,,,,,,,,,,,,,,,,,,,,,,main,k,k,1,0.9488226000685245,784.383998000063,None,None,0,,,,,,,,,,,,,,131,27,Female,2022-05-23_18h15.36.329,Parachute,2022.1.1,59.76996928418069,
negative,red,1,None,None,,,,,,,,,0,232,232,232,,,,,,,,,,,,,,,,,,,,,,,,,,,,,,,,,,,,,main,None,None,1,1.4932444000151008,786.3342281000223,None,None,1,,,,,,,,,,,,,,131,27,Female,2022-05-23_18h15.36.329,Parachute,2022.1.1,59.76996928418069,
positive,blue,2,k,None,,,,,,,,,0,233,233,233,,,,,,,,,,,,,,,,,,,,,,,,,,,,,,,,,,,,,main,None,None,1,1.4984581999015063,788.8299555999693,None,None,1,,,,,,,,,,,,,,131,27,Female,2022-05-23_18h15.36.329,Parachute,2022.1.1,59.76996928418069,
negative,yellow,1,k,None,,,,,,,,,0,234,234,234,,,,,,,,,,,,,,,,,,,,,,,,,,,,,,,,,,,,,main,None,None,1,1.498708999948576,791.3295511000324,None,None,1,,,,,,,,,,,,,,131,27,Female,2022-05-23_18h15.36.329,Parachute,2022.1.1,59.76996928418069,
negative,yellow,2,k,None,,,,,,,,,0,235,235,235,,,,,,,,,,,,,,,,,,,,,,,,,,,,,,,,,,,,,main,None,None,1,1.4987545001786202,793.8300165000837,None,None,1,,,,,,,,,,,,,,131,27,Female,2022-05-23_18h15.36.329,Parachute,2022.1.1,59.76996928418069,
positive,red,1,None,None,,,,,,,,,0,236,236,236,,,,,,,,,,,,,,,,,,,,,,,,,,,,,,,,,,,,,main,None,None,1,1.498113000066951,796.3307122001424,None,None,1,,,,,,,,,,,,,,131,27,Female,2022-05-23_18h15.36.329,Parachute,2022.1.1,59.76996928418069,
negative,red,2,None,None,,,,,,,,,0,237,237,237,,,,,,,,,,,,,,,,,,,,,,,,,,,,,,,,,,,,,main,None,None,1,1.498991300119087,798.8302240001503,None,None,1,,,,,,,,,,,,,,131,27,Female,2022-05-23_18h15.36.329,Parachute,2022.1.1,59.76996928418069,
negative,blue,1,None,k,,,,,,,,,0,238,238,238,,,,,,,,,,,,,,,,,,,,,,,,,,,,,,,,,,,,,main,k,k,1,0.9201464001089334,801.3304358001333,None,None,0,,,,,,,,,,,,,,131,27,Female,2022-05-23_18h15.36.329,Parachute,2022.1.1,59.76996928418069,
positive,blue,1,k,None,,,,,,,,,0,239,239,239,,,,,,,,,,,,,,,,,,,,,,,,,,,,,,,,,,,,,main,None,None,1,1.4934220998547971,803.2508132001385,None,None,1,,,,,,,,,,,,,,131,27,Female,2022-05-23_18h15.36.329,Parachute,2022.1.1,59.76996928418069,
,,,,,,,,,,,,,,,,,,,,,,,,,,,,,,,,,,,,,,,,,,,,,,,,,,,,,,,,,,,,,,,,,,,,,,,,,805.7458818000741,None,,,,,,,,
