distractor,target,set,ans1,ans2,rep_loop4.thisRepN,rep_loop4.thisTrialN,rep_loop4.thisN,rep_loop4.thisIndex,st2_prac_loop.thisRepN,st2_prac_loop.thisTrialN,st2_prac_loop.thisN,st2_prac_loop.thisIndex,st2_main_loop.thisRepN,st2_main_loop.thisTrialN,st2_main_loop.thisN,st2_main_loop.thisIndex,image_4.started,image_4.stopped,mouse_7.x,mouse_7.y,mouse_7.leftButton,mouse_7.midButton,mouse_7.rightButton,mouse_7.clicked_name,sound_2.started,sound_2.stopped,key_resp_3.keys,mouse_5.x,mouse_5.y,mouse_5.leftButton,mouse_5.midButton,mouse_5.rightButton,mouse_5.started,mouse_5.stopped,yes_text2.started,yes_text2.stopped,no_text2.started,no_text2.stopped,mouse_3.x,mouse_3.y,mouse_3.leftButton,mouse_3.midButton,mouse_3.rightButton,mouse_3.started,mouse_3.stopped,st_prac_back.started,st_prac_back.stopped,st_prac_text.started,st_prac_text.stopped,st_fix_back.started,st_fix_back.stopped,st_fix_2.started,st_fix_2.stopped,main_prac,st_ans,st_res,st_corr,st_rt,st_back.started,st_back.stopped,st2_resp.keys,st2_resp.corr,st_main_back.started,st_main_back.stopped,st_main_text.started,st_main_text.stopped,mouse_4.x,mouse_4.y,mouse_4.leftButton,mouse_4.midButton,mouse_4.rightButton,mouse_4.started,mouse_4.stopped,text_2.started,text_2.stopped,id*,age*,gender*,date,expName,psychopyVersion,frameRate,
,,,,,,,,,,,,,,,,,38.19602539995685,None,-0.11481482,0.094444446,1,0,0,image_4,,,,,,,,,,,,,,,,,,,,,,,,,,,,,,,,,,,,,,,,,,,,,,,,,,,,132,24,Female,2022-05-17_17h22.22.177,Parachute,2022.1.1,60.02880185674705,
negative,yellow,1,k,None,,,,,0,0,0,0,,,,,,,,,,,,,43.38904749006033,None,None,0.107407406,-0.36944443,0,0,0,1.006442730082199,None,100.29023190005682,None,100.29023190005682,None,-0.14814815,-0.10462963,0,0,0,0.0127050899900496,None,105.26068449998274,None,105.26068449998274,None,107.27163550001569,None,107.27163550001569,None,prac,k,k,1,3.210644300095737,109.29007120011374,None,None,0,,,,,,,,,,,,,,132,24,Female,2022-05-17_17h22.22.177,Parachute,2022.1.1,60.02880185674705,
positive,red,2,None,None,,,,,0,1,1,1,,,,,,,,,,,,,,,,,,,,,,,,,,,,,,,,,,,,,,,,,,prac,None,None,1,1.5022240998223424,114.51270910003223,None,None,1,,,,,,,,,,,,,,132,24,Female,2022-05-17_17h22.22.177,Parachute,2022.1.1,60.02880185674705,
negative,blue,2,None,k,,,,,0,2,2,2,,,,,,,,,,,,,,,,,,,,,,,,,,,,,,,,,,,,,,,,,,prac,None,None,1,1.4977918998338282,117.01639280002564,None,None,1,,,,,,,,,,,,,,132,24,Female,2022-05-17_17h22.22.177,Parachute,2022.1.1,60.02880185674705,
positive,yellow,1,None,k,,,,,0,3,3,3,,,,,,,,,,,,,,,,,,,,,,,,,,,,,,,,,,,,,,,,,,prac,None,None,1,1.4982006000354886,119.5151953001041,None,None,1,,,,,,,,,,,,,,132,24,Female,2022-05-17_17h22.22.177,Parachute,2022.1.1,60.02880185674705,
negative,blue,2,None,k,,,,,0,4,4,4,,,,,,,,,,,,,,,,,,,,,,,,,,,,,,,,,,,,,,,,,,prac,None,None,1,1.4983300999738276,122.00795460003428,None,None,1,,,,,,,,,,,,,,132,24,Female,2022-05-17_17h22.22.177,Parachute,2022.1.1,60.02880185674705,
negative,blue,1,None,k,,,,,0,5,5,5,,,,,,,,,,,,,,,,,,,,,,,,,,,,,,,,,,,,,,,,,,prac,None,None,1,1.4986147000454366,124.50802329997532,None,None,1,,,,,,,,,,,,,,132,24,Female,2022-05-17_17h22.22.177,Parachute,2022.1.1,60.02880185674705,
negative,yellow,2,k,None,,,,,0,6,6,6,,,,,,,,,,,,,,,,,,,,,,,,,,,,,,,,,,,,,,,,,,prac,k,k,1,1.1662634999956936,127.01584449992515,None,None,0,,,,,,,,,,,,,,132,24,Female,2022-05-17_17h22.22.177,Parachute,2022.1.1,60.02880185674705,
negative,red,1,None,None,,,,,0,7,7,7,,,,,,,,,,,,,,,,,,,,,,,,,,,,,,,,,,,,,,,,,,prac,None,None,1,1.4973643000703305,129.176267700037,None,None,1,,,,,,,,,,,,,,132,24,Female,2022-05-17_17h22.22.177,Parachute,2022.1.1,60.02880185674705,
positive,yellow,2,None,k,,,,,0,8,8,8,,,,,,,,,,,,,,,,,,,,,,,,,,,,,,,,,,,,,,,,,,prac,None,None,1,1.4987674998119473,131.68147310009226,None,None,1,,,,,,,,,,,,,,132,24,Female,2022-05-17_17h22.22.177,Parachute,2022.1.1,60.02880185674705,
negative,yellow,1,k,None,,,,,0,9,9,9,,,,,,,,,,,,,,,,,,,,,,,,,,,,,,,,,,,,,,,,,,prac,k,k,1,1.3826043999288231,134.1821779999882,None,None,0,,,,,,,,,,,,,,132,24,Female,2022-05-17_17h22.22.177,Parachute,2022.1.1,60.02880185674705,
positive,yellow,2,None,k,,,,,0,10,10,10,,,,,,,,,,,,,,,,,,,,,,,,,,,,,,,,,,,,,,,,,,prac,None,None,1,1.4977334002032876,136.55924399988726,None,None,1,,,,,,,,,,,,,,132,24,Female,2022-05-17_17h22.22.177,Parachute,2022.1.1,60.02880185674705,
negative,yellow,2,k,None,,,,,0,11,11,11,,,,,,,,,,,,,,,,,,,,,,,,,,,,,,,,,,,,,,,,,,prac,k,k,1,1.4507772999349982,139.05847269995138,None,None,0,,,,,,,,,,,,,,132,24,Female,2022-05-17_17h22.22.177,Parachute,2022.1.1,60.02880185674705,
negative,red,2,None,None,,,,,0,12,12,12,,,,,,,,,,,,,,,,,,,,,,,,,,,,,,,,,,,,,,,,,,prac,None,None,1,1.4960982999764383,141.51123689999804,None,None,1,,,,,,,,,,,,,,132,24,Female,2022-05-17_17h22.22.177,Parachute,2022.1.1,60.02880185674705,
positive,red,1,None,None,,,,,0,13,13,13,,,,,,,,,,,,,,,,,,,,,,,,,,,,,,,,,,,,,,,,,,prac,None,None,1,1.498503299895674,144.00957249989733,None,None,1,,,,,,,,,,,,,,132,24,Female,2022-05-17_17h22.22.177,Parachute,2022.1.1,60.02880185674705,
positive,blue,2,k,None,,,,,0,14,14,14,,,,,,,,,,,,,,,,,,,,,,,,,,,,,,,,,,,,,,,,,,prac,k,k,1,0.6505083001684397,146.50855990010314,None,None,0,,,,,,,,,,,,,,132,24,Female,2022-05-17_17h22.22.177,Parachute,2022.1.1,60.02880185674705,
positive,blue,1,k,None,,,,,0,15,15,15,,,,,,,,,,,,,,,,,,,,,,,,,,,,,,,,,,,,,,,,,,prac,k,k,1,1.9148087999783456,148.1612005000934,None,None,0,,,,,,,,,,,,,,132,24,Female,2022-05-17_17h22.22.177,Parachute,2022.1.1,60.02880185674705,
negative,blue,1,None,k,,,,,0,16,16,16,,,,,,,,,,,,,,,,,,,,,,,,,,,,,,,,,,,,,,,,,,prac,None,None,1,1.502234200015664,152.09136729990132,None,None,1,,,,,,,,,,,,,,132,24,Female,2022-05-17_17h22.22.177,Parachute,2022.1.1,60.02880185674705,
positive,blue,2,k,None,,,,,0,17,17,17,,,,,,,,,,,,,,,,,,,,,,,,,,,,,,,,,,,,,,,,,,prac,k,k,1,0.9188377999234945,154.5931235998869,None,None,0,,,,,,,,,,,,,,132,24,Female,2022-05-17_17h22.22.177,Parachute,2022.1.1,60.02880185674705,
positive,blue,1,k,None,,,,,0,18,18,18,,,,,,,,,,,,,,,,,,,,,,,,,,,,,,,,,,,,,,,,,,prac,k,k,1,2.51406960003078,156.52515590004623,None,None,0,,,,,,,,,,,,,,132,24,Female,2022-05-17_17h22.22.177,Parachute,2022.1.1,60.02880185674705,
positive,yellow,1,None,k,,,,,0,19,19,19,,,,,,,,,,,,,,,,,,,,,,,,,,,,,,,,,,,,,,,,,,prac,None,None,1,1.5021262001246214,161.04148819996044,None,None,1,,,,,,,,,,,,,,132,24,Female,2022-05-17_17h22.22.177,Parachute,2022.1.1,60.02880185674705,
negative,yellow,1,k,None,,,,,1,0,20,0,,,,,,,,,,,,,,,,,,,,,,,,,,,,,,,,,,,,,,,,,,prac,k,k,1,0.8673312999308109,163.54262829991058,None,None,0,,,,,,,,,,,,,,132,24,Female,2022-05-17_17h22.22.177,Parachute,2022.1.1,60.02880185674705,
positive,red,2,None,None,,,,,1,1,21,1,,,,,,,,,,,,,,,,,,,,,,,,,,,,,,,,,,,,,,,,,,prac,None,None,1,1.4963449998758733,165.4123857000377,None,None,1,,,,,,,,,,,,,,132,24,Female,2022-05-17_17h22.22.177,Parachute,2022.1.1,60.02880185674705,
negative,blue,2,None,k,,,,,1,2,22,2,,,,,,,,,,,,,,,,,,,,,,,,,,,,,,,,,,,,,,,,,,prac,None,None,1,1.4980750000104308,167.909611399984,None,None,1,,,,,,,,,,,,,,132,24,Female,2022-05-17_17h22.22.177,Parachute,2022.1.1,60.02880185674705,
positive,yellow,1,None,k,,,,,1,3,23,3,,,,,,,,,,,,,,,,,,,,,,,,,,,,,,,,,,,,,,,,,,prac,None,None,1,1.4986270999070257,170.40910429996438,None,None,1,,,,,,,,,,,,,,132,24,Female,2022-05-17_17h22.22.177,Parachute,2022.1.1,60.02880185674705,
negative,blue,2,None,k,,,,,1,4,24,4,,,,,,,,,,,,,,,,,,,,,,,,,,,,,,,,,,,,,,,,,,prac,None,None,1,1.4985589999705553,172.90929330000654,None,None,1,,,,,,,,,,,,,,132,24,Female,2022-05-17_17h22.22.177,Parachute,2022.1.1,60.02880185674705,
negative,blue,1,None,k,,,,,1,5,25,5,,,,,,,,,,,,,,,,,,,,,,,,,,,,,,,,,,,,,,,,,,prac,None,None,1,1.4994477999862283,175.40962309995666,None,None,1,,,,,,,,,,,,,,132,24,Female,2022-05-17_17h22.22.177,Parachute,2022.1.1,60.02880185674705,
negative,yellow,2,k,None,,,,,1,6,26,6,,,,,,,,,,,,,,,,,,,,,,,,,,,,,,,,,,,,,,,,,,prac,k,k,1,1.0990901999175549,177.91161710000597,None,None,0,,,,,,,,,,,,,,132,24,Female,2022-05-17_17h22.22.177,Parachute,2022.1.1,60.02880185674705,
negative,red,1,None,None,,,,,1,7,27,7,,,,,,,,,,,,,,,,,,,,,,,,,,,,,,,,,,,,,,,,,,prac,None,None,1,1.4964962000958622,180.01161210006103,None,None,1,,,,,,,,,,,,,,132,24,Female,2022-05-17_17h22.22.177,Parachute,2022.1.1,60.02880185674705,
positive,yellow,2,None,k,,,,,1,8,28,8,,,,,,,,,,,,,,,,,,,,,,,,,,,,,,,,,,,,,,,,,,prac,None,None,1,1.4988000001758337,182.50923549989238,None,None,1,,,,,,,,,,,,,,132,24,Female,2022-05-17_17h22.22.177,Parachute,2022.1.1,60.02880185674705,
negative,yellow,1,k,None,,,,,1,9,29,9,,,,,,,,,,,,,,,,,,,,,,,,,,,,,,,,,,,,,,,,,,prac,k,k,1,1.3672999998088926,185.00981179997325,None,None,0,,,,,,,,,,,,,,132,24,Female,2022-05-17_17h22.22.177,Parachute,2022.1.1,60.02880185674705,
positive,yellow,2,None,k,,,,,1,10,30,10,,,,,,,,,,,,,,,,,,,,,,,,,,,,,,,,,,,,,,,,,,prac,None,None,1,1.4967263999860734,187.3794021999929,None,None,1,,,,,,,,,,,,,,132,24,Female,2022-05-17_17h22.22.177,Parachute,2022.1.1,60.02880185674705,
negative,yellow,2,k,None,,,,,1,11,31,11,,,,,,,,,,,,,,,,,,,,,,,,,,,,,,,,,,,,,,,,,,prac,k,k,1,0.9999612998217344,189.87715919991024,None,None,0,,,,,,,,,,,,,,132,24,Female,2022-05-17_17h22.22.177,Parachute,2022.1.1,60.02880185674705,
negative,red,2,None,None,,,,,1,12,32,12,,,,,,,,,,,,,,,,,,,,,,,,,,,,,,,,,,,,,,,,,,prac,None,None,1,1.496440000133589,191.87887610006146,None,None,1,,,,,,,,,,,,,,132,24,Female,2022-05-17_17h22.22.177,Parachute,2022.1.1,60.02880185674705,
positive,red,1,None,None,,,,,1,13,33,13,,,,,,,,,,,,,,,,,,,,,,,,,,,,,,,,,,,,,,,,,,prac,None,None,1,1.4985724000725895,194.37662549992092,None,None,1,,,,,,,,,,,,,,132,24,Female,2022-05-17_17h22.22.177,Parachute,2022.1.1,60.02880185674705,
positive,blue,2,k,None,,,,,1,14,34,14,,,,,,,,,,,,,,,,,,,,,,,,,,,,,,,,,,,,,,,,,,prac,k,k,1,0.8008292000740767,196.8761366000399,None,None,0,,,,,,,,,,,,,,132,24,Female,2022-05-17_17h22.22.177,Parachute,2022.1.1,60.02880185674705,
positive,blue,1,k,None,,,,,1,15,35,15,,,,,,,,,,,,,,,,,,,,,,,,,,,,,,,,,,,,,,,,,,prac,k,k,1,0.9138944000005722,198.679351599887,None,None,0,,,,,,,,,,,,,,132,24,Female,2022-05-17_17h22.22.177,Parachute,2022.1.1,60.02880185674705,
negative,blue,1,None,k,,,,,1,16,36,16,,,,,,,,,,,,,,,,,,,,,,,,,,,,,,,,,,,,,,,,,,prac,None,None,1,1.4974843000527471,200.59564399998635,None,None,1,,,,,,,,,,,,,,132,24,Female,2022-05-17_17h22.22.177,Parachute,2022.1.1,60.02880185674705,
positive,blue,2,k,None,,,,,1,17,37,17,,,,,,,,,,,,,,,,,,,,,,,,,,,,,,,,,,,,,,,,,,prac,k,k,1,0.9171631999779493,203.09318479988724,None,None,0,,,,,,,,,,,,,,132,24,Female,2022-05-17_17h22.22.177,Parachute,2022.1.1,60.02880185674705,
positive,blue,1,k,None,,,,,1,18,38,18,,,,,,,,,,,,,,,,,,,,,,,,,,,,,,,,,,,,,,,,,,prac,k,k,1,1.1983133000321686,205.01247849990614,None,None,0,,,,,,,,,,,,,,132,24,Female,2022-05-17_17h22.22.177,Parachute,2022.1.1,60.02880185674705,
positive,yellow,1,None,k,,,,,1,19,39,19,,,,,,,,,,,,,,,,,,,,,,,,,,,,,,,,,,,,,,,,,,prac,None,None,1,1.4967503999359906,207.21224489994347,None,None,1,,,,,,,,,,,,,,132,24,Female,2022-05-17_17h22.22.177,Parachute,2022.1.1,60.02880185674705,
,,,,,,,,,,,,,,,,,,,,,,,,,,,,,,,,,,,,,,,,,,,,,,,,,,,,,,,,,,,,,,,209.72891369997524,None,209.72891369997524,None,0.05277778,-0.062962964,0,0,0,0.01213178993202746,None,,,132,24,Female,2022-05-17_17h22.22.177,Parachute,2022.1.1,60.02880185674705,
negative,yellow,2,k,None,,,,,,,,,0,0,0,0,,,,,,,,,,,,,,,,,,,,,,,,,,,,,,,,,,225.89319660002366,None,225.89319660002366,None,main,k,k,1,1.1321954999584705,227.94453259999864,None,None,0,,,,,,,,,,,,,,132,24,Female,2022-05-17_17h22.22.177,Parachute,2022.1.1,60.02880185674705,
positive,red,1,None,None,,,,,,,,,0,1,1,1,,,,,,,,,,,,,,,,,,,,,,,,,,,,,,,,,,,,,,main,None,None,1,1.4965282999910414,230.08132059988566,None,None,1,,,,,,,,,,,,,,132,24,Female,2022-05-17_17h22.22.177,Parachute,2022.1.1,60.02880185674705,
positive,blue,2,k,None,,,,,,,,,0,2,2,2,,,,,,,,,,,,,,,,,,,,,,,,,,,,,,,,,,,,,,main,k,k,1,1.0335017000325024,232.57703970000148,None,None,0,,,,,,,,,,,,,,132,24,Female,2022-05-17_17h22.22.177,Parachute,2022.1.1,60.02880185674705,
positive,blue,1,k,None,,,,,,,,,0,3,3,3,,,,,,,,,,,,,,,,,,,,,,,,,,,,,,,,,,,,,,main,k,k,1,1.0654945001006126,234.6124557000585,None,None,0,,,,,,,,,,,,,,132,24,Female,2022-05-17_17h22.22.177,Parachute,2022.1.1,60.02880185674705,
negative,yellow,2,k,None,,,,,,,,,0,4,4,4,,,,,,,,,,,,,,,,,,,,,,,,,,,,,,,,,,,,,,main,k,k,1,0.8977978001348674,236.67967079998925,None,None,0,,,,,,,,,,,,,,132,24,Female,2022-05-17_17h22.22.177,Parachute,2022.1.1,60.02880185674705,
positive,yellow,2,None,k,,,,,,,,,0,5,5,5,,,,,,,,,,,,,,,,,,,,,,,,,,,,,,,,,,,,,,main,None,None,1,1.4972822000272572,238.5788281999994,None,None,1,,,,,,,,,,,,,,132,24,Female,2022-05-17_17h22.22.177,Parachute,2022.1.1,60.02880185674705,
negative,blue,2,None,k,,,,,,,,,0,6,6,6,,,,,,,,,,,,,,,,,,,,,,,,,,,,,,,,,,,,,,main,None,None,1,1.4984091999940574,241.07740839989856,None,None,1,,,,,,,,,,,,,,132,24,Female,2022-05-17_17h22.22.177,Parachute,2022.1.1,60.02880185674705,
positive,red,2,None,None,,,,,,,,,0,7,7,7,,,,,,,,,,,,,,,,,,,,,,,,,,,,,,,,,,,,,,main,None,None,1,1.4985641001258045,243.57751310011372,None,None,1,,,,,,,,,,,,,,132,24,Female,2022-05-17_17h22.22.177,Parachute,2022.1.1,60.02880185674705,
positive,yellow,1,None,k,,,,,,,,,0,8,8,8,,,,,,,,,,,,,,,,,,,,,,,,,,,,,,,,,,,,,,main,None,None,1,1.4982714999932796,246.07763969991356,None,None,1,,,,,,,,,,,,,,132,24,Female,2022-05-17_17h22.22.177,Parachute,2022.1.1,60.02880185674705,
negative,red,1,None,None,,,,,,,,,0,9,9,9,,,,,,,,,,,,,,,,,,,,,,,,,,,,,,,,,,,,,,main,None,None,1,1.498539000051096,248.57723070005886,None,None,1,,,,,,,,,,,,,,132,24,Female,2022-05-17_17h22.22.177,Parachute,2022.1.1,60.02880185674705,
positive,yellow,1,None,k,,,,,,,,,0,10,10,10,,,,,,,,,,,,,,,,,,,,,,,,,,,,,,,,,,,,,,main,None,None,1,1.4987846999429166,251.07758360006846,None,None,1,,,,,,,,,,,,,,132,24,Female,2022-05-17_17h22.22.177,Parachute,2022.1.1,60.02880185674705,
negative,yellow,1,k,None,,,,,,,,,0,11,11,11,,,,,,,,,,,,,,,,,,,,,,,,,,,,,,,,,,,,,,main,k,k,1,1.2996752001345158,253.57839419995435,None,None,0,,,,,,,,,,,,,,132,24,Female,2022-05-17_17h22.22.177,Parachute,2022.1.1,60.02880185674705,
negative,yellow,1,k,None,,,,,,,,,0,12,12,12,,,,,,,,,,,,,,,,,,,,,,,,,,,,,,,,,,,,,,main,k,k,1,0.8982628001831472,255.8800180000253,None,None,0,,,,,,,,,,,,,,132,24,Female,2022-05-17_17h22.22.177,Parachute,2022.1.1,60.02880185674705,
negative,red,2,None,None,,,,,,,,,0,13,13,13,,,,,,,,,,,,,,,,,,,,,,,,,,,,,,,,,,,,,,main,None,None,1,1.4968092998024076,257.7795452000573,None,None,1,,,,,,,,,,,,,,132,24,Female,2022-05-17_17h22.22.177,Parachute,2022.1.1,60.02880185674705,
positive,yellow,2,None,k,,,,,,,,,0,14,14,14,,,,,,,,,,,,,,,,,,,,,,,,,,,,,,,,,,,,,,main,None,None,1,1.498739699833095,260.2777464000974,None,None,1,,,,,,,,,,,,,,132,24,Female,2022-05-17_17h22.22.177,Parachute,2022.1.1,60.02880185674705,
positive,blue,1,k,None,,,,,,,,,0,15,15,15,,,,,,,,,,,,,,,,,,,,,,,,,,,,,,,,,,,,,,main,k,k,1,0.9166112998500466,262.7779878000729,None,None,0,,,,,,,,,,,,,,132,24,Female,2022-05-17_17h22.22.177,Parachute,2022.1.1,60.02880185674705,
negative,blue,1,None,k,,,,,,,,,0,16,16,16,,,,,,,,,,,,,,,,,,,,,,,,,,,,,,,,,,,,,,main,None,None,1,1.496738700196147,264.696869000094,None,None,1,,,,,,,,,,,,,,132,24,Female,2022-05-17_17h22.22.177,Parachute,2022.1.1,60.02880185674705,
positive,blue,2,k,None,,,,,,,,,0,17,17,17,,,,,,,,,,,,,,,,,,,,,,,,,,,,,,,,,,,,,,main,k,k,1,1.3673904999159276,267.19456600002013,None,None,0,,,,,,,,,,,,,,132,24,Female,2022-05-17_17h22.22.177,Parachute,2022.1.1,60.02880185674705,
negative,blue,2,None,k,,,,,,,,,0,18,18,18,,,,,,,,,,,,,,,,,,,,,,,,,,,,,,,,,,,,,,main,None,None,1,1.496478500077501,269.5641264000442,None,None,1,,,,,,,,,,,,,,132,24,Female,2022-05-17_17h22.22.177,Parachute,2022.1.1,60.02880185674705,
negative,blue,1,None,k,,,,,,,,,0,19,19,19,,,,,,,,,,,,,,,,,,,,,,,,,,,,,,,,,,,,,,main,None,None,1,1.4984862999990582,272.0613605999388,None,None,1,,,,,,,,,,,,,,132,24,Female,2022-05-17_17h22.22.177,Parachute,2022.1.1,60.02880185674705,
negative,blue,1,None,k,,,,,,,,,0,20,20,20,,,,,,,,,,,,,,,,,,,,,,,,,,,,,,,,,,,,,,main,None,None,1,1.4985187000129372,274.56113040004857,None,None,1,,,,,,,,,,,,,,132,24,Female,2022-05-17_17h22.22.177,Parachute,2022.1.1,60.02880185674705,
negative,blue,2,None,k,,,,,,,,,0,21,21,21,,,,,,,,,,,,,,,,,,,,,,,,,,,,,,,,,,,,,,main,None,None,1,1.4996577000711113,277.06118909991346,None,None,1,,,,,,,,,,,,,,132,24,Female,2022-05-17_17h22.22.177,Parachute,2022.1.1,60.02880185674705,
negative,red,1,None,None,,,,,,,,,0,22,22,22,,,,,,,,,,,,,,,,,,,,,,,,,,,,,,,,,,,,,,main,None,None,1,1.49693589983508,279.56513400003314,None,None,1,,,,,,,,,,,,,,132,24,Female,2022-05-17_17h22.22.177,Parachute,2022.1.1,60.02880185674705,
positive,red,2,None,None,,,,,,,,,0,23,23,23,,,,,,,,,,,,,,,,,,,,,,,,,,,,,,,,,,,,,,main,None,None,1,1.5006581000052392,282.0613581999205,None,None,1,,,,,,,,,,,,,,132,24,Female,2022-05-17_17h22.22.177,Parachute,2022.1.1,60.02880185674705,
negative,red,2,None,None,,,,,,,,,0,24,24,24,,,,,,,,,,,,,,,,,,,,,,,,,,,,,,,,,,,,,,main,None,None,1,1.4958979999646544,284.5664727999829,None,None,1,,,,,,,,,,,,,,132,24,Female,2022-05-17_17h22.22.177,Parachute,2022.1.1,60.02880185674705,
positive,blue,2,k,None,,,,,,,,,0,25,25,25,,,,,,,,,,,,,,,,,,,,,,,,,,,,,,,,,,,,,,main,k,k,1,0.9169944999739528,287.0611437999178,None,None,0,,,,,,,,,,,,,,132,24,Female,2022-05-17_17h22.22.177,Parachute,2022.1.1,60.02880185674705,
negative,yellow,1,k,None,,,,,,,,,0,26,26,26,,,,,,,,,,,,,,,,,,,,,,,,,,,,,,,,,,,,,,main,k,k,1,1.0149822998791933,288.9802691000514,None,None,0,,,,,,,,,,,,,,132,24,Female,2022-05-17_17h22.22.177,Parachute,2022.1.1,60.02880185674705,
positive,blue,2,k,None,,,,,,,,,0,27,27,27,,,,,,,,,,,,,,,,,,,,,,,,,,,,,,,,,,,,,,main,k,k,1,1.0150242000818253,290.996965700062,None,None,0,,,,,,,,,,,,,,132,24,Female,2022-05-17_17h22.22.177,Parachute,2022.1.1,60.02880185674705,
negative,blue,2,None,k,,,,,,,,,0,28,28,28,,,,,,,,,,,,,,,,,,,,,,,,,,,,,,,,,,,,,,main,None,None,1,1.4969811998307705,293.0149769000709,None,None,1,,,,,,,,,,,,,,132,24,Female,2022-05-17_17h22.22.177,Parachute,2022.1.1,60.02880185674705,
positive,red,1,None,None,,,,,,,,,0,29,29,29,,,,,,,,,,,,,,,,,,,,,,,,,,,,,,,,,,,,,,main,None,None,1,1.4985418999567628,295.51184429996647,None,None,1,,,,,,,,,,,,,,132,24,Female,2022-05-17_17h22.22.177,Parachute,2022.1.1,60.02880185674705,
positive,blue,1,k,None,,,,,,,,,0,30,30,30,,,,,,,,,,,,,,,,,,,,,,,,,,,,,,,,,,,,,,main,k,k,1,1.06823920016177,298.01193940010853,None,None,0,,,,,,,,,,,,,,132,24,Female,2022-05-17_17h22.22.177,Parachute,2022.1.1,60.02880185674705,
positive,yellow,1,None,k,,,,,,,,,0,31,31,31,,,,,,,,,,,,,,,,,,,,,,,,,,,,,,,,,,,,,,main,None,None,1,1.4958752000238746,300.08229640009813,None,None,1,,,,,,,,,,,,,,132,24,Female,2022-05-17_17h22.22.177,Parachute,2022.1.1,60.02880185674705,
negative,yellow,2,k,None,,,,,,,,,0,32,32,32,,,,,,,,,,,,,,,,,,,,,,,,,,,,,,,,,,,,,,main,k,k,1,0.9818801998626441,302.5795072000474,None,None,0,,,,,,,,,,,,,,132,24,Female,2022-05-17_17h22.22.177,Parachute,2022.1.1,60.02880185674705,
negative,blue,1,None,k,,,,,,,,,0,33,33,33,,,,,,,,,,,,,,,,,,,,,,,,,,,,,,,,,,,,,,main,None,None,1,1.4977200999855995,304.5642218000721,None,None,1,,,,,,,,,,,,,,132,24,Female,2022-05-17_17h22.22.177,Parachute,2022.1.1,60.02880185674705,
positive,blue,1,k,None,,,,,,,,,0,34,34,34,,,,,,,,,,,,,,,,,,,,,,,,,,,,,,,,,,,,,,main,k,k,1,0.8167215001303703,307.06198920006864,None,None,0,,,,,,,,,,,,,,132,24,Female,2022-05-17_17h22.22.177,Parachute,2022.1.1,60.02880185674705,
negative,yellow,1,k,None,,,,,,,,,0,35,35,35,,,,,,,,,,,,,,,,,,,,,,,,,,,,,,,,,,,,,,main,k,k,1,0.915496899979189,308.88054949999787,None,None,0,,,,,,,,,,,,,,132,24,Female,2022-05-17_17h22.22.177,Parachute,2022.1.1,60.02880185674705,
positive,yellow,2,None,k,,,,,,,,,0,36,36,36,,,,,,,,,,,,,,,,,,,,,,,,,,,,,,,,,,,,,,main,None,None,1,1.4967529999557883,310.7979623998981,None,None,1,,,,,,,,,,,,,,132,24,Female,2022-05-17_17h22.22.177,Parachute,2022.1.1,60.02880185674705,
positive,yellow,2,None,k,,,,,,,,,0,37,37,37,,,,,,,,,,,,,,,,,,,,,,,,,,,,,,,,,,,,,,main,None,None,1,1.4984158999286592,313.29614209989086,None,None,1,,,,,,,,,,,,,,132,24,Female,2022-05-17_17h22.22.177,Parachute,2022.1.1,60.02880185674705,
negative,yellow,2,k,None,,,,,,,,,0,38,38,38,,,,,,,,,,,,,,,,,,,,,,,,,,,,,,,,,,,,,,main,k,k,1,0.9171726000495255,315.7956425000448,None,None,0,,,,,,,,,,,,,,132,24,Female,2022-05-17_17h22.22.177,Parachute,2022.1.1,60.02880185674705,
positive,yellow,1,None,k,,,,,,,,,0,39,39,39,,,,,,,,,,,,,,,,,,,,,,,,,,,,,,,,,,,,,,main,None,None,1,1.4965001000091434,317.7151220999658,None,None,1,,,,,,,,,,,,,,132,24,Female,2022-05-17_17h22.22.177,Parachute,2022.1.1,60.02880185674705,
negative,yellow,2,k,None,,,,,,,,,0,40,40,40,,,,,,,,,,,,,,,,,,,,,,,,,,,,,,,,,,,,,,main,k,k,1,0.8832439000252634,320.2125091999769,None,None,0,,,,,,,,,,,,,,132,24,Female,2022-05-17_17h22.22.177,Parachute,2022.1.1,60.02880185674705,
positive,blue,2,k,None,,,,,,,,,0,41,41,41,,,,,,,,,,,,,,,,,,,,,,,,,,,,,,,,,,,,,,main,k,k,1,0.8990408999379724,322.09763689991087,None,None,0,,,,,,,,,,,,,,132,24,Female,2022-05-17_17h22.22.177,Parachute,2022.1.1,60.02880185674705,
positive,blue,2,k,None,,,,,,,,,0,42,42,42,,,,,,,,,,,,,,,,,,,,,,,,,,,,,,,,,,,,,,main,k,k,1,0.6515850001014769,323.9985950998962,None,None,0,,,,,,,,,,,,,,132,24,Female,2022-05-17_17h22.22.177,Parachute,2022.1.1,60.02880185674705,
negative,blue,2,None,k,,,,,,,,,0,43,43,43,,,,,,,,,,,,,,,,,,,,,,,,,,,,,,,,,,,,,,main,None,None,1,1.4934148001484573,325.6502652000636,None,None,1,,,,,,,,,,,,,,132,24,Female,2022-05-17_17h22.22.177,Parachute,2022.1.1,60.02880185674705,
negative,red,1,None,None,,,,,,,,,0,44,44,44,,,,,,,,,,,,,,,,,,,,,,,,,,,,,,,,,,,,,,main,None,None,1,1.4983981000259519,328.1457062999252,None,None,1,,,,,,,,,,,,,,132,24,Female,2022-05-17_17h22.22.177,Parachute,2022.1.1,60.02880185674705,
negative,yellow,1,k,None,,,,,,,,,0,45,45,45,,,,,,,,,,,,,,,,,,,,,,,,,,,,,,,,,,,,,,main,k,k,1,1.1835394999943674,330.6459137001075,None,None,0,,,,,,,,,,,,,,132,24,Female,2022-05-17_17h22.22.177,Parachute,2022.1.1,60.02880185674705,
negative,yellow,1,k,None,,,,,,,,,0,46,46,46,,,,,,,,,,,,,,,,,,,,,,,,,,,,,,,,,,,,,,main,k,k,1,1.064512399956584,332.83139519998804,None,None,0,,,,,,,,,,,,,,132,24,Female,2022-05-17_17h22.22.177,Parachute,2022.1.1,60.02880185674705,
positive,red,1,None,None,,,,,,,,,0,47,47,47,,,,,,,,,,,,,,,,,,,,,,,,,,,,,,,,,,,,,,main,None,None,1,1.4974762999918312,334.89779240009375,None,None,1,,,,,,,,,,,,,,132,24,Female,2022-05-17_17h22.22.177,Parachute,2022.1.1,60.02880185674705,
positive,yellow,1,None,k,,,,,,,,,0,48,48,48,,,,,,,,,,,,,,,,,,,,,,,,,,,,,,,,,,,,,,main,None,None,1,1.4984675000887364,337.39609390008263,None,None,1,,,,,,,,,,,,,,132,24,Female,2022-05-17_17h22.22.177,Parachute,2022.1.1,60.02880185674705,
negative,blue,1,None,k,,,,,,,,,0,49,49,49,,,,,,,,,,,,,,,,,,,,,,,,,,,,,,,,,,,,,,main,None,None,1,1.4984693999867886,339.89601180003956,None,None,1,,,,,,,,,,,,,,132,24,Female,2022-05-17_17h22.22.177,Parachute,2022.1.1,60.02880185674705,
positive,yellow,2,None,k,,,,,,,,,0,50,50,50,,,,,,,,,,,,,,,,,,,,,,,,,,,,,,,,,,,,,,main,None,None,1,1.49867679993622,342.3959796000272,None,None,1,,,,,,,,,,,,,,132,24,Female,2022-05-17_17h22.22.177,Parachute,2022.1.1,60.02880185674705,
negative,blue,1,None,k,,,,,,,,,0,51,51,51,,,,,,,,,,,,,,,,,,,,,,,,,,,,,,,,,,,,,,main,None,None,1,1.4985009001102298,344.89606789988466,None,None,1,,,,,,,,,,,,,,132,24,Female,2022-05-17_17h22.22.177,Parachute,2022.1.1,60.02880185674705,
positive,red,2,None,None,,,,,,,,,0,52,52,52,,,,,,,,,,,,,,,,,,,,,,,,,,,,,,,,,,,,,,main,None,None,1,1.4986028999555856,347.39603969990276,None,None,1,,,,,,,,,,,,,,132,24,Female,2022-05-17_17h22.22.177,Parachute,2022.1.1,60.02880185674705,
positive,yellow,2,None,k,,,,,,,,,0,53,53,53,,,,,,,,,,,,,,,,,,,,,,,,,,,,,,,,,,,,,,main,None,None,1,1.4985021001193672,349.89646789990366,None,None,1,,,,,,,,,,,,,,132,24,Female,2022-05-17_17h22.22.177,Parachute,2022.1.1,60.02880185674705,
negative,red,2,None,None,,,,,,,,,0,54,54,54,,,,,,,,,,,,,,,,,,,,,,,,,,,,,,,,,,,,,,main,None,None,1,1.498580199899152,352.3968382999301,None,None,1,,,,,,,,,,,,,,132,24,Female,2022-05-17_17h22.22.177,Parachute,2022.1.1,60.02880185674705,
positive,yellow,1,None,k,,,,,,,,,0,55,55,55,,,,,,,,,,,,,,,,,,,,,,,,,,,,,,,,,,,,,,main,None,None,1,1.4981909999623895,354.89677380002104,None,None,1,,,,,,,,,,,,,,132,24,Female,2022-05-17_17h22.22.177,Parachute,2022.1.1,60.02880185674705,
negative,blue,2,None,k,,,,,,,,,0,56,56,56,,,,,,,,,,,,,,,,,,,,,,,,,,,,,,,,,,,,,,main,None,None,1,1.4987629000097513,357.39687149995007,None,None,1,,,,,,,,,,,,,,132,24,Female,2022-05-17_17h22.22.177,Parachute,2022.1.1,60.02880185674705,
positive,blue,1,k,None,,,,,,,,,0,57,57,57,,,,,,,,,,,,,,,,,,,,,,,,,,,,,,,,,,,,,,main,k,k,1,0.7341424999758601,359.8966787001118,None,None,0,,,,,,,,,,,,,,132,24,Female,2022-05-17_17h22.22.177,Parachute,2022.1.1,60.02880185674705,
positive,blue,1,k,None,,,,,,,,,0,58,58,58,,,,,,,,,,,,,,,,,,,,,,,,,,,,,,,,,,,,,,main,k,k,1,0.6982879000715911,361.63278539991006,None,None,0,,,,,,,,,,,,,,132,24,Female,2022-05-17_17h22.22.177,Parachute,2022.1.1,60.02880185674705,
negative,yellow,2,k,None,,,,,,,,,0,59,59,59,,,,,,,,,,,,,,,,,,,,,,,,,,,,,,,,,,,,,,main,k,k,1,0.8321156001184136,363.33407399989665,None,None,0,,,,,,,,,,,,,,132,24,Female,2022-05-17_17h22.22.177,Parachute,2022.1.1,60.02880185674705,
positive,red,2,None,None,,,,,,,,,0,60,60,60,,,,,,,,,,,,,,,,,,,,,,,,,,,,,,,,,,,,,,main,None,None,1,1.4962367999833077,365.1663518999703,None,None,1,,,,,,,,,,,,,,132,24,Female,2022-05-17_17h22.22.177,Parachute,2022.1.1,60.02880185674705,
negative,yellow,1,k,None,,,,,,,,,0,61,61,61,,,,,,,,,,,,,,,,,,,,,,,,,,,,,,,,,,,,,,main,k,k,1,1.266477899858728,367.66318659996614,None,None,0,,,,,,,,,,,,,,132,24,Female,2022-05-17_17h22.22.177,Parachute,2022.1.1,60.02880185674705,
negative,red,1,None,None,,,,,,,,,0,62,62,62,,,,,,,,,,,,,,,,,,,,,,,,,,,,,,,,,,,,,,main,None,None,1,1.495930999983102,369.9334946000017,None,None,1,,,,,,,,,,,,,,132,24,Female,2022-05-17_17h22.22.177,Parachute,2022.1.1,60.02880185674705,
negative,blue,1,None,k,,,,,,,,,0,63,63,63,,,,,,,,,,,,,,,,,,,,,,,,,,,,,,,,,,,,,,main,None,None,1,1.4975258000195026,372.4320926000364,None,None,1,,,,,,,,,,,,,,132,24,Female,2022-05-17_17h22.22.177,Parachute,2022.1.1,60.02880185674705,
positive,blue,2,k,None,,,,,,,,,0,64,64,64,,,,,,,,,,,,,,,,,,,,,,,,,,,,,,,,,,,,,,main,k,k,1,0.7991526999976486,374.93066899990663,None,None,0,,,,,,,,,,,,,,132,24,Female,2022-05-17_17h22.22.177,Parachute,2022.1.1,60.02880185674705,
negative,yellow,2,k,None,,,,,,,,,0,65,65,65,,,,,,,,,,,,,,,,,,,,,,,,,,,,,,,,,,,,,,main,k,k,1,0.7489465000107884,376.73139200010337,None,None,0,,,,,,,,,,,,,,132,24,Female,2022-05-17_17h22.22.177,Parachute,2022.1.1,60.02880185674705,
positive,yellow,2,None,k,,,,,,,,,0,66,66,66,,,,,,,,,,,,,,,,,,,,,,,,,,,,,,,,,,,,,,main,None,None,1,1.4968187999911606,378.48254769993946,None,None,1,,,,,,,,,,,,,,132,24,Female,2022-05-17_17h22.22.177,Parachute,2022.1.1,60.02880185674705,
positive,yellow,2,None,k,,,,,,,,,0,67,67,67,,,,,,,,,,,,,,,,,,,,,,,,,,,,,,,,,,,,,,main,None,None,1,1.4986127000302076,380.9821826000698,None,None,1,,,,,,,,,,,,,,132,24,Female,2022-05-17_17h22.22.177,Parachute,2022.1.1,60.02880185674705,
positive,red,1,None,None,,,,,,,,,0,68,68,68,,,,,,,,,,,,,,,,,,,,,,,,,,,,,,,,,,,,,,main,None,None,1,1.498484400101006,383.4805542998947,None,None,1,,,,,,,,,,,,,,132,24,Female,2022-05-17_17h22.22.177,Parachute,2022.1.1,60.02880185674705,
positive,yellow,1,None,k,,,,,,,,,0,69,69,69,,,,,,,,,,,,,,,,,,,,,,,,,,,,,,,,,,,,,,main,None,None,1,1.4988965999800712,385.98030130006373,None,None,1,,,,,,,,,,,,,,132,24,Female,2022-05-17_17h22.22.177,Parachute,2022.1.1,60.02880185674705,
negative,yellow,2,k,None,,,,,,,,,0,70,70,70,,,,,,,,,,,,,,,,,,,,,,,,,,,,,,,,,,,,,,main,k,k,1,0.8662131999153644,388.4806242000777,None,None,0,,,,,,,,,,,,,,132,24,Female,2022-05-17_17h22.22.177,Parachute,2022.1.1,60.02880185674705,
positive,yellow,1,None,k,,,,,,,,,0,71,71,71,,,,,,,,,,,,,,,,,,,,,,,,,,,,,,,,,,,,,,main,None,k,0,0.8151350999251008,390.34894949989393,None,None,1,,,,,,,,,,,,,,132,24,Female,2022-05-17_17h22.22.177,Parachute,2022.1.1,60.02880185674705,
negative,blue,1,None,k,,,,,,,,,0,72,72,72,,,,,,,,,,,,,,,,,,,,,,,,,,,,,,,,,,,,,,main,None,None,1,1.5022215999197215,393.17998769995756,None,None,1,,,,,,,,,,,,,,132,24,Female,2022-05-17_17h22.22.177,Parachute,2022.1.1,60.02880185674705,
negative,red,2,None,None,,,,,,,,,0,73,73,73,,,,,,,,,,,,,,,,,,,,,,,,,,,,,,,,,,,,,,main,None,None,1,1.498019800055772,395.68129720003344,None,None,1,,,,,,,,,,,,,,132,24,Female,2022-05-17_17h22.22.177,Parachute,2022.1.1,60.02880185674705,
positive,blue,2,k,None,,,,,,,,,0,74,74,74,,,,,,,,,,,,,,,,,,,,,,,,,,,,,,,,,,,,,,main,k,k,1,1.000902600120753,398.1806296999566,None,None,0,,,,,,,,,,,,,,132,24,Female,2022-05-17_17h22.22.177,Parachute,2022.1.1,60.02880185674705,
negative,blue,2,None,k,,,,,,,,,0,75,75,75,,,,,,,,,,,,,,,,,,,,,,,,,,,,,,,,,,,,,,main,None,None,1,1.4965339000336826,400.1837166999467,None,None,1,,,,,,,,,,,,,,132,24,Female,2022-05-17_17h22.22.177,Parachute,2022.1.1,60.02880185674705,
negative,blue,2,None,k,,,,,,,,,0,76,76,76,,,,,,,,,,,,,,,,,,,,,,,,,,,,,,,,,,,,,,main,None,None,1,1.4983296000864357,402.6818878001068,None,None,1,,,,,,,,,,,,,,132,24,Female,2022-05-17_17h22.22.177,Parachute,2022.1.1,60.02880185674705,
negative,yellow,1,k,None,,,,,,,,,0,77,77,77,,,,,,,,,,,,,,,,,,,,,,,,,,,,,,,,,,,,,,main,k,k,1,1.2656587997917086,405.1816531000659,None,None,0,,,,,,,,,,,,,,132,24,Female,2022-05-17_17h22.22.177,Parachute,2022.1.1,60.02880185674705,
positive,blue,1,k,None,,,,,,,,,0,78,78,78,,,,,,,,,,,,,,,,,,,,,,,,,,,,,,,,,,,,,,main,k,k,1,1.2319902998860925,407.44939250010066,None,None,0,,,,,,,,,,,,,,132,24,Female,2022-05-17_17h22.22.177,Parachute,2022.1.1,60.02880185674705,
positive,blue,1,k,None,,,,,,,,,0,79,79,79,,,,,,,,,,,,,,,,,,,,,,,,,,,,,,,,,,,,,,main,k,k,1,0.716339600039646,409.6827565000858,None,None,0,,,,,,,,,,,,,,132,24,Female,2022-05-17_17h22.22.177,Parachute,2022.1.1,60.02880185674705,
positive,red,2,None,None,,,,,,,,,0,80,80,80,,,,,,,,,,,,,,,,,,,,,,,,,,,,,,,,,,,,,,main,None,None,1,1.4966204999946058,411.40078789996915,None,None,1,,,,,,,,,,,,,,132,24,Female,2022-05-17_17h22.22.177,Parachute,2022.1.1,60.02880185674705,
positive,yellow,2,None,k,,,,,,,,,0,81,81,81,,,,,,,,,,,,,,,,,,,,,,,,,,,,,,,,,,,,,,main,None,None,1,1.4991848999634385,413.8983058000449,None,None,1,,,,,,,,,,,,,,132,24,Female,2022-05-17_17h22.22.177,Parachute,2022.1.1,60.02880185674705,
positive,blue,1,k,None,,,,,,,,,0,82,82,82,,,,,,,,,,,,,,,,,,,,,,,,,,,,,,,,,,,,,,main,k,k,1,1.165577600011602,416.3999284999445,None,None,0,,,,,,,,,,,,,,132,24,Female,2022-05-17_17h22.22.177,Parachute,2022.1.1,60.02880185674705,
negative,yellow,2,k,None,,,,,,,,,0,83,83,83,,,,,,,,,,,,,,,,,,,,,,,,,,,,,,,,,,,,,,main,k,k,1,0.8982052998617291,418.5666046999395,None,None,0,,,,,,,,,,,,,,132,24,Female,2022-05-17_17h22.22.177,Parachute,2022.1.1,60.02880185674705,
positive,blue,2,k,None,,,,,,,,,0,84,84,84,,,,,,,,,,,,,,,,,,,,,,,,,,,,,,,,,,,,,,main,k,k,1,0.7654192999470979,420.4661095999181,None,None,0,,,,,,,,,,,,,,132,24,Female,2022-05-17_17h22.22.177,Parachute,2022.1.1,60.02880185674705,
positive,yellow,1,None,k,,,,,,,,,0,85,85,85,,,,,,,,,,,,,,,,,,,,,,,,,,,,,,,,,,,,,,main,None,None,1,1.4970308998599648,422.23296350007877,None,None,1,,,,,,,,,,,,,,132,24,Female,2022-05-17_17h22.22.177,Parachute,2022.1.1,60.02880185674705,
positive,blue,2,k,None,,,,,,,,,0,86,86,86,,,,,,,,,,,,,,,,,,,,,,,,,,,,,,,,,,,,,,main,k,k,1,0.7502772000152618,424.7311448000837,None,None,0,,,,,,,,,,,,,,132,24,Female,2022-05-17_17h22.22.177,Parachute,2022.1.1,60.02880185674705,
positive,blue,1,k,None,,,,,,,,,0,87,87,87,,,,,,,,,,,,,,,,,,,,,,,,,,,,,,,,,,,,,,main,k,k,1,0.7994564000982791,426.4838396999985,None,None,0,,,,,,,,,,,,,,132,24,Female,2022-05-17_17h22.22.177,Parachute,2022.1.1,60.02880185674705,
negative,yellow,2,k,None,,,,,,,,,0,88,88,88,,,,,,,,,,,,,,,,,,,,,,,,,,,,,,,,,,,,,,main,k,k,1,0.8165451001841575,428.2850003000349,None,None,0,,,,,,,,,,,,,,132,24,Female,2022-05-17_17h22.22.177,Parachute,2022.1.1,60.02880185674705,
negative,blue,2,None,k,,,,,,,,,0,89,89,89,,,,,,,,,,,,,,,,,,,,,,,,,,,,,,,,,,,,,,main,None,None,1,1.4941817000508308,430.1025839999784,None,None,1,,,,,,,,,,,,,,132,24,Female,2022-05-17_17h22.22.177,Parachute,2022.1.1,60.02880185674705,
positive,yellow,2,None,k,,,,,,,,,0,90,90,90,,,,,,,,,,,,,,,,,,,,,,,,,,,,,,,,,,,,,,main,None,None,1,1.4986010000575334,432.597603400005,None,None,1,,,,,,,,,,,,,,132,24,Female,2022-05-17_17h22.22.177,Parachute,2022.1.1,60.02880185674705,
negative,yellow,1,k,None,,,,,,,,,0,91,91,91,,,,,,,,,,,,,,,,,,,,,,,,,,,,,,,,,,,,,,main,k,k,1,0.8847920999396592,435.09783539990894,None,None,0,,,,,,,,,,,,,,132,24,Female,2022-05-17_17h22.22.177,Parachute,2022.1.1,60.02880185674705,
negative,red,2,None,None,,,,,,,,,0,92,92,92,,,,,,,,,,,,,,,,,,,,,,,,,,,,,,,,,,,,,,main,None,None,1,1.4960936999414116,436.98513079993427,None,None,1,,,,,,,,,,,,,,132,24,Female,2022-05-17_17h22.22.177,Parachute,2022.1.1,60.02880185674705,
negative,blue,2,None,k,,,,,,,,,0,93,93,93,,,,,,,,,,,,,,,,,,,,,,,,,,,,,,,,,,,,,,main,None,None,1,1.4985122999642044,439.481833799975,None,None,1,,,,,,,,,,,,,,132,24,Female,2022-05-17_17h22.22.177,Parachute,2022.1.1,60.02880185674705,
negative,blue,1,None,k,,,,,,,,,0,94,94,94,,,,,,,,,,,,,,,,,,,,,,,,,,,,,,,,,,,,,,main,None,None,1,1.4985466001089662,441.9815803999081,None,None,1,,,,,,,,,,,,,,132,24,Female,2022-05-17_17h22.22.177,Parachute,2022.1.1,60.02880185674705,
negative,blue,1,None,k,,,,,,,,,0,95,95,95,,,,,,,,,,,,,,,,,,,,,,,,,,,,,,,,,,,,,,main,None,None,1,1.4982386000920087,444.48190460004844,None,None,1,,,,,,,,,,,,,,132,24,Female,2022-05-17_17h22.22.177,Parachute,2022.1.1,60.02880185674705,
negative,red,1,None,None,,,,,,,,,0,96,96,96,,,,,,,,,,,,,,,,,,,,,,,,,,,,,,,,,,,,,,main,None,None,1,1.4988190000876784,446.98159980005585,None,None,1,,,,,,,,,,,,,,132,24,Female,2022-05-17_17h22.22.177,Parachute,2022.1.1,60.02880185674705,
positive,yellow,1,None,k,,,,,,,,,0,97,97,97,,,,,,,,,,,,,,,,,,,,,,,,,,,,,,,,,,,,,,main,None,None,1,1.4985984000377357,449.48217569990084,None,None,1,,,,,,,,,,,,,,132,24,Female,2022-05-17_17h22.22.177,Parachute,2022.1.1,60.02880185674705,
negative,yellow,1,k,None,,,,,,,,,0,98,98,98,,,,,,,,,,,,,,,,,,,,,,,,,,,,,,,,,,,,,,main,k,k,1,0.915444300044328,451.9827411000151,None,None,0,,,,,,,,,,,,,,132,24,Female,2022-05-17_17h22.22.177,Parachute,2022.1.1,60.02880185674705,
positive,red,1,None,None,,,,,,,,,0,99,99,99,,,,,,,,,,,,,,,,,,,,,,,,,,,,,,,,,,,,,,main,None,None,1,1.497840299969539,453.89934189990163,None,None,1,,,,,,,,,,,,,,132,24,Female,2022-05-17_17h22.22.177,Parachute,2022.1.1,60.02880185674705,
positive,blue,1,k,None,,,,,,,,,0,100,100,100,,,,,,,,,,,,,,,,,,,,,,,,,,,,,,,,,,,,,,main,k,k,1,1.9169681000057608,456.3989842000883,None,None,0,,,,,,,,,,,,,,132,24,Female,2022-05-17_17h22.22.177,Parachute,2022.1.1,60.02880185674705,
negative,yellow,1,k,None,,,,,,,,,0,101,101,101,,,,,,,,,,,,,,,,,,,,,,,,,,,,,,,,,,,,,,main,k,k,1,1.2363573999609798,460.331515799975,None,None,0,,,,,,,,,,,,,,132,24,Female,2022-05-17_17h22.22.177,Parachute,2022.1.1,60.02880185674705,
negative,blue,2,None,k,,,,,,,,,0,102,102,102,,,,,,,,,,,,,,,,,,,,,,,,,,,,,,,,,,,,,,main,None,None,1,1.4972070001531392,462.5669428000692,None,None,1,,,,,,,,,,,,,,132,24,Female,2022-05-17_17h22.22.177,Parachute,2022.1.1,60.02880185674705,
negative,yellow,2,k,None,,,,,,,,,0,103,103,103,,,,,,,,,,,,,,,,,,,,,,,,,,,,,,,,,,,,,,main,k,k,1,0.799008899834007,465.06548919994384,None,None,0,,,,,,,,,,,,,,132,24,Female,2022-05-17_17h22.22.177,Parachute,2022.1.1,60.02880185674705,
positive,yellow,2,None,k,,,,,,,,,0,104,104,104,,,,,,,,,,,,,,,,,,,,,,,,,,,,,,,,,,,,,,main,None,None,1,1.4981968000065535,466.865933699999,None,None,1,,,,,,,,,,,,,,132,24,Female,2022-05-17_17h22.22.177,Parachute,2022.1.1,60.02880185674705,
positive,blue,1,k,None,,,,,,,,,0,105,105,105,,,,,,,,,,,,,,,,,,,,,,,,,,,,,,,,,,,,,,main,k,k,1,0.700779200065881,469.3656931000296,None,None,0,,,,,,,,,,,,,,132,24,Female,2022-05-17_17h22.22.177,Parachute,2022.1.1,60.02880185674705,
positive,blue,2,k,None,,,,,,,,,0,106,106,106,,,,,,,,,,,,,,,,,,,,,,,,,,,,,,,,,,,,,,main,k,k,1,0.7158796999137849,471.0688489000313,None,None,0,,,,,,,,,,,,,,132,24,Female,2022-05-17_17h22.22.177,Parachute,2022.1.1,60.02880185674705,
negative,blue,1,None,k,,,,,,,,,0,107,107,107,,,,,,,,,,,,,,,,,,,,,,,,,,,,,,,,,,,,,,main,None,None,1,1.4954737999942154,472.78623480000533,None,None,1,,,,,,,,,,,,,,132,24,Female,2022-05-17_17h22.22.177,Parachute,2022.1.1,60.02880185674705,
positive,yellow,2,None,k,,,,,,,,,0,108,108,108,,,,,,,,,,,,,,,,,,,,,,,,,,,,,,,,,,,,,,main,None,None,1,1.4985330000054091,475.2826704001054,None,None,1,,,,,,,,,,,,,,132,24,Female,2022-05-17_17h22.22.177,Parachute,2022.1.1,60.02880185674705,
negative,yellow,1,k,None,,,,,,,,,0,109,109,109,,,,,,,,,,,,,,,,,,,,,,,,,,,,,,,,,,,,,,main,k,k,1,0.6828641002066433,477.78525860002264,None,None,0,,,,,,,,,,,,,,132,24,Female,2022-05-17_17h22.22.177,Parachute,2022.1.1,60.02880185674705,
negative,blue,2,None,k,,,,,,,,,0,110,110,110,,,,,,,,,,,,,,,,,,,,,,,,,,,,,,,,,,,,,,main,None,None,1,1.497412399854511,479.46715919999406,None,None,1,,,,,,,,,,,,,,132,24,Female,2022-05-17_17h22.22.177,Parachute,2022.1.1,60.02880185674705,
positive,blue,2,k,None,,,,,,,,,0,111,111,111,,,,,,,,,,,,,,,,,,,,,,,,,,,,,,,,,,,,,,main,k,k,1,0.9341279999352992,481.96580939996056,None,None,0,,,,,,,,,,,,,,132,24,Female,2022-05-17_17h22.22.177,Parachute,2022.1.1,60.02880185674705,
negative,blue,1,None,k,,,,,,,,,0,112,112,112,,,,,,,,,,,,,,,,,,,,,,,,,,,,,,,,,,,,,,main,None,None,1,1.496505299815908,483.9019073001109,None,None,1,,,,,,,,,,,,,,132,24,Female,2022-05-17_17h22.22.177,Parachute,2022.1.1,60.02880185674705,
positive,yellow,1,None,k,,,,,,,,,0,113,113,113,,,,,,,,,,,,,,,,,,,,,,,,,,,,,,,,,,,,,,main,None,None,1,1.4982594000175595,486.3995781999547,None,None,1,,,,,,,,,,,,,,132,24,Female,2022-05-17_17h22.22.177,Parachute,2022.1.1,60.02880185674705,
negative,red,1,None,None,,,,,,,,,0,114,114,114,,,,,,,,,,,,,,,,,,,,,,,,,,,,,,,,,,,,,,main,None,None,1,1.498581500025466,488.89923399989493,None,None,1,,,,,,,,,,,,,,132,24,Female,2022-05-17_17h22.22.177,Parachute,2022.1.1,60.02880185674705,
positive,red,1,None,None,,,,,,,,,0,115,115,115,,,,,,,,,,,,,,,,,,,,,,,,,,,,,,,,,,,,,,main,None,None,1,1.4985963001381606,491.399324900005,None,None,1,,,,,,,,,,,,,,132,24,Female,2022-05-17_17h22.22.177,Parachute,2022.1.1,60.02880185674705,
negative,red,2,None,None,,,,,,,,,0,116,116,116,,,,,,,,,,,,,,,,,,,,,,,,,,,,,,,,,,,,,,main,None,None,1,1.4986006999388337,493.89960159990005,None,None,1,,,,,,,,,,,,,,132,24,Female,2022-05-17_17h22.22.177,Parachute,2022.1.1,60.02880185674705,
negative,yellow,2,k,None,,,,,,,,,0,117,117,117,,,,,,,,,,,,,,,,,,,,,,,,,,,,,,,,,,,,,,main,k,k,1,0.9495383999310434,496.3996707999613,None,None,0,,,,,,,,,,,,,,132,24,Female,2022-05-17_17h22.22.177,Parachute,2022.1.1,60.02880185674705,
positive,yellow,1,None,k,,,,,,,,,0,118,118,118,,,,,,,,,,,,,,,,,,,,,,,,,,,,,,,,,,,,,,main,None,None,1,1.4975415000226349,498.3510328999255,None,None,1,,,,,,,,,,,,,,132,24,Female,2022-05-17_17h22.22.177,Parachute,2022.1.1,60.02880185674705,
positive,red,2,None,None,,,,,,,,,0,119,119,119,,,,,,,,,,,,,,,,,,,,,,,,,,,,,,,,,,,,,,main,None,None,1,1.49842009996064,500.8499771000352,None,None,1,,,,,,,,,,,,,,132,24,Female,2022-05-17_17h22.22.177,Parachute,2022.1.1,60.02880185674705,
positive,blue,2,k,None,,,,,,,,,0,120,120,120,,,,,,,,,,,,,,,,,,,,,,,,,,,,,,,,,,,,,,main,k,k,1,0.8177198998164386,503.3496654999908,None,None,0,,,,,,,,,,,,,,132,24,Female,2022-05-17_17h22.22.177,Parachute,2022.1.1,60.02880185674705,
negative,red,1,None,None,,,,,,,,,0,121,121,121,,,,,,,,,,,,,,,,,,,,,,,,,,,,,,,,,,,,,,main,None,None,1,1.4960322000551969,505.16953959991224,None,None,1,,,,,,,,,,,,,,132,24,Female,2022-05-17_17h22.22.177,Parachute,2022.1.1,60.02880185674705,
positive,yellow,2,None,k,,,,,,,,,0,122,122,122,,,,,,,,,,,,,,,,,,,,,,,,,,,,,,,,,,,,,,main,None,None,1,1.4984065000899136,507.6665169999469,None,None,1,,,,,,,,,,,,,,132,24,Female,2022-05-17_17h22.22.177,Parachute,2022.1.1,60.02880185674705,
negative,red,2,None,None,,,,,,,,,0,123,123,123,,,,,,,,,,,,,,,,,,,,,,,,,,,,,,,,,,,,,,main,None,None,1,1.4984899000264704,510.1677566000726,None,None,1,,,,,,,,,,,,,,132,24,Female,2022-05-17_17h22.22.177,Parachute,2022.1.1,60.02880185674705,
negative,yellow,2,k,None,,,,,,,,,0,124,124,124,,,,,,,,,,,,,,,,,,,,,,,,,,,,,,,,,,,,,,main,k,k,1,0.9504331999924034,512.6666661000345,None,None,0,,,,,,,,,,,,,,132,24,Female,2022-05-17_17h22.22.177,Parachute,2022.1.1,60.02880185674705,
positive,red,1,None,None,,,,,,,,,0,125,125,125,,,,,,,,,,,,,,,,,,,,,,,,,,,,,,,,,,,,,,main,None,None,1,1.496508500073105,514.618918000022,None,None,1,,,,,,,,,,,,,,132,24,Female,2022-05-17_17h22.22.177,Parachute,2022.1.1,60.02880185674705,
negative,blue,2,None,k,,,,,,,,,0,126,126,126,,,,,,,,,,,,,,,,,,,,,,,,,,,,,,,,,,,,,,main,None,None,1,1.4986457000486553,517.116497799987,None,None,1,,,,,,,,,,,,,,132,24,Female,2022-05-17_17h22.22.177,Parachute,2022.1.1,60.02880185674705,
negative,blue,1,None,k,,,,,,,,,0,127,127,127,,,,,,,,,,,,,,,,,,,,,,,,,,,,,,,,,,,,,,main,None,None,1,1.4985450999811292,519.6164746999275,None,None,1,,,,,,,,,,,,,,132,24,Female,2022-05-17_17h22.22.177,Parachute,2022.1.1,60.02880185674705,
negative,yellow,1,k,None,,,,,,,,,0,128,128,128,,,,,,,,,,,,,,,,,,,,,,,,,,,,,,,,,,,,,,main,k,k,1,1.3676175998989493,522.1166135999374,None,None,0,,,,,,,,,,,,,,132,24,Female,2022-05-17_17h22.22.177,Parachute,2022.1.1,60.02880185674705,
negative,yellow,1,k,None,,,,,,,,,0,129,129,129,,,,,,,,,,,,,,,,,,,,,,,,,,,,,,,,,,,,,,main,k,k,1,0.74792500003241,524.4865866999608,None,None,0,,,,,,,,,,,,,,132,24,Female,2022-05-17_17h22.22.177,Parachute,2022.1.1,60.02880185674705,
positive,blue,1,k,None,,,,,,,,,0,130,130,130,,,,,,,,,,,,,,,,,,,,,,,,,,,,,,,,,,,,,,main,k,k,1,0.7978149000555277,526.2355996000115,None,None,0,,,,,,,,,,,,,,132,24,Female,2022-05-17_17h22.22.177,Parachute,2022.1.1,60.02880185674705,
negative,blue,1,None,k,,,,,,,,,0,131,131,131,,,,,,,,,,,,,,,,,,,,,,,,,,,,,,,,,,,,,,main,None,None,1,1.4975644999649376,528.034921299899,None,None,1,,,,,,,,,,,,,,132,24,Female,2022-05-17_17h22.22.177,Parachute,2022.1.1,60.02880185674705,
negative,blue,2,None,k,,,,,,,,,0,132,132,132,,,,,,,,,,,,,,,,,,,,,,,,,,,,,,,,,,,,,,main,None,None,1,1.4985979001503438,530.5336809998844,None,None,1,,,,,,,,,,,,,,132,24,Female,2022-05-17_17h22.22.177,Parachute,2022.1.1,60.02880185674705,
positive,blue,2,k,None,,,,,,,,,0,133,133,133,,,,,,,,,,,,,,,,,,,,,,,,,,,,,,,,,,,,,,main,k,k,1,1.166250899899751,533.0337209999561,None,None,0,,,,,,,,,,,,,,132,24,Female,2022-05-17_17h22.22.177,Parachute,2022.1.1,60.02880185674705,
positive,red,2,None,None,,,,,,,,,0,134,134,134,,,,,,,,,,,,,,,,,,,,,,,,,,,,,,,,,,,,,,main,None,None,1,1.4977941999677569,535.2020787000656,None,None,1,,,,,,,,,,,,,,132,24,Female,2022-05-17_17h22.22.177,Parachute,2022.1.1,60.02880185674705,
negative,yellow,2,k,None,,,,,,,,,0,135,135,135,,,,,,,,,,,,,,,,,,,,,,,,,,,,,,,,,,,,,,main,k,k,1,0.9660757998935878,537.7004885999486,None,None,0,,,,,,,,,,,,,,132,24,Female,2022-05-17_17h22.22.177,Parachute,2022.1.1,60.02880185674705,
positive,yellow,2,None,k,,,,,,,,,0,136,136,136,,,,,,,,,,,,,,,,,,,,,,,,,,,,,,,,,,,,,,main,None,None,1,1.4971568998880684,539.6693702999037,None,None,1,,,,,,,,,,,,,,132,24,Female,2022-05-17_17h22.22.177,Parachute,2022.1.1,60.02880185674705,
positive,blue,1,k,None,,,,,,,,,0,137,137,137,,,,,,,,,,,,,,,,,,,,,,,,,,,,,,,,,,,,,,main,k,k,1,1.0836600000038743,542.1674049999565,None,None,0,,,,,,,,,,,,,,132,24,Female,2022-05-17_17h22.22.177,Parachute,2022.1.1,60.02880185674705,
positive,yellow,1,None,k,,,,,,,,,0,138,138,138,,,,,,,,,,,,,,,,,,,,,,,,,,,,,,,,,,,,,,main,None,None,1,1.4968776998575777,544.2528993000742,None,None,1,,,,,,,,,,,,,,132,24,Female,2022-05-17_17h22.22.177,Parachute,2022.1.1,60.02880185674705,
positive,yellow,1,None,k,,,,,,,,,0,139,139,139,,,,,,,,,,,,,,,,,,,,,,,,,,,,,,,,,,,,,,main,None,None,1,1.4983822999056429,546.7513194000348,None,None,1,,,,,,,,,,,,,,132,24,Female,2022-05-17_17h22.22.177,Parachute,2022.1.1,60.02880185674705,
positive,yellow,1,None,k,,,,,,,,,0,140,140,140,,,,,,,,,,,,,,,,,,,,,,,,,,,,,,,,,,,,,,main,None,None,1,1.4983021998777986,549.251385099953,None,None,1,,,,,,,,,,,,,,132,24,Female,2022-05-17_17h22.22.177,Parachute,2022.1.1,60.02880185674705,
positive,blue,1,k,None,,,,,,,,,0,141,141,141,,,,,,,,,,,,,,,,,,,,,,,,,,,,,,,,,,,,,,main,k,k,1,1.1997279999777675,551.7504499000497,None,None,0,,,,,,,,,,,,,,132,24,Female,2022-05-17_17h22.22.177,Parachute,2022.1.1,60.02880185674705,
positive,blue,2,k,None,,,,,,,,,0,142,142,142,,,,,,,,,,,,,,,,,,,,,,,,,,,,,,,,,,,,,,main,k,k,1,0.7983637999277562,553.9518430999015,None,None,0,,,,,,,,,,,,,,132,24,Female,2022-05-17_17h22.22.177,Parachute,2022.1.1,60.02880185674705,
positive,yellow,2,None,k,,,,,,,,,0,143,143,143,,,,,,,,,,,,,,,,,,,,,,,,,,,,,,,,,,,,,,main,None,None,1,1.4975950999651104,555.7518503000028,None,None,1,,,,,,,,,,,,,,132,24,Female,2022-05-17_17h22.22.177,Parachute,2022.1.1,60.02880185674705,
negative,yellow,2,k,None,,,,,,,,,0,144,144,144,,,,,,,,,,,,,,,,,,,,,,,,,,,,,,,,,,,,,,main,k,k,1,1.0162500999867916,558.2515499000438,None,None,0,,,,,,,,,,,,,,132,24,Female,2022-05-17_17h22.22.177,Parachute,2022.1.1,60.02880185674705,
negative,blue,2,None,k,,,,,,,,,0,145,145,145,,,,,,,,,,,,,,,,,,,,,,,,,,,,,,,,,,,,,,main,None,None,1,1.497294400120154,560.2689261001069,None,None,1,,,,,,,,,,,,,,132,24,Female,2022-05-17_17h22.22.177,Parachute,2022.1.1,60.02880185674705,
negative,red,1,None,None,,,,,,,,,0,146,146,146,,,,,,,,,,,,,,,,,,,,,,,,,,,,,,,,,,,,,,main,None,None,1,1.4985626998823136,562.7676045999397,None,None,1,,,,,,,,,,,,,,132,24,Female,2022-05-17_17h22.22.177,Parachute,2022.1.1,60.02880185674705,
positive,blue,1,k,None,,,,,,,,,0,147,147,147,,,,,,,,,,,,,,,,,,,,,,,,,,,,,,,,,,,,,,main,k,k,1,1.0002554999664426,565.2675922999624,None,None,0,,,,,,,,,,,,,,132,24,Female,2022-05-17_17h22.22.177,Parachute,2022.1.1,60.02880185674705,
positive,yellow,1,None,k,,,,,,,,,0,148,148,148,,,,,,,,,,,,,,,,,,,,,,,,,,,,,,,,,,,,,,main,None,None,1,1.4968377000186592,567.2697805999778,None,None,1,,,,,,,,,,,,,,132,24,Female,2022-05-17_17h22.22.177,Parachute,2022.1.1,60.02880185674705,
negative,red,2,None,None,,,,,,,,,0,149,149,149,,,,,,,,,,,,,,,,,,,,,,,,,,,,,,,,,,,,,,main,None,None,1,1.4988133998122066,569.7676532999612,None,None,1,,,,,,,,,,,,,,132,24,Female,2022-05-17_17h22.22.177,Parachute,2022.1.1,60.02880185674705,
negative,blue,1,None,k,,,,,,,,,0,150,150,150,,,,,,,,,,,,,,,,,,,,,,,,,,,,,,,,,,,,,,main,None,None,1,1.4983950001187623,572.2680081001017,None,None,1,,,,,,,,,,,,,,132,24,Female,2022-05-17_17h22.22.177,Parachute,2022.1.1,60.02880185674705,
negative,yellow,2,k,None,,,,,,,,,0,151,151,151,,,,,,,,,,,,,,,,,,,,,,,,,,,,,,,,,,,,,,main,k,k,1,0.7696179000195116,574.7678785000462,None,None,0,,,,,,,,,,,,,,132,24,Female,2022-05-17_17h22.22.177,Parachute,2022.1.1,60.02880185674705,
negative,blue,2,None,k,,,,,,,,,0,152,152,152,,,,,,,,,,,,,,,,,,,,,,,,,,,,,,,,,,,,,,main,None,None,1,1.4941265999805182,576.5489109000191,None,None,1,,,,,,,,,,,,,,132,24,Female,2022-05-17_17h22.22.177,Parachute,2022.1.1,60.02880185674705,
negative,yellow,1,k,None,,,,,,,,,0,153,153,153,,,,,,,,,,,,,,,,,,,,,,,,,,,,,,,,,,,,,,main,k,k,1,0.8995556000154465,579.034817900043,None,None,0,,,,,,,,,,,,,,132,24,Female,2022-05-17_17h22.22.177,Parachute,2022.1.1,60.02880185674705,
negative,blue,1,None,k,,,,,,,,,0,154,154,154,,,,,,,,,,,,,,,,,,,,,,,,,,,,,,,,,,,,,,main,None,None,1,1.497216199990362,580.935981699964,None,None,1,,,,,,,,,,,,,,132,24,Female,2022-05-17_17h22.22.177,Parachute,2022.1.1,60.02880185674705,
positive,yellow,2,None,k,,,,,,,,,0,155,155,155,,,,,,,,,,,,,,,,,,,,,,,,,,,,,,,,,,,,,,main,None,None,1,1.498753200052306,583.4346376999747,None,None,1,,,,,,,,,,,,,,132,24,Female,2022-05-17_17h22.22.177,Parachute,2022.1.1,60.02880185674705,
positive,red,2,None,None,,,,,,,,,0,156,156,156,,,,,,,,,,,,,,,,,,,,,,,,,,,,,,,,,,,,,,main,None,None,1,1.4982236998621374,585.9349491000175,None,None,1,,,,,,,,,,,,,,132,24,Female,2022-05-17_17h22.22.177,Parachute,2022.1.1,60.02880185674705,
positive,red,1,None,None,,,,,,,,,0,157,157,157,,,,,,,,,,,,,,,,,,,,,,,,,,,,,,,,,,,,,,main,None,None,1,1.4987996998243034,588.4345380999148,None,None,1,,,,,,,,,,,,,,132,24,Female,2022-05-17_17h22.22.177,Parachute,2022.1.1,60.02880185674705,
positive,blue,2,k,None,,,,,,,,,0,158,158,158,,,,,,,,,,,,,,,,,,,,,,,,,,,,,,,,,,,,,,main,k,k,1,1.0489789999555796,590.9351210000459,None,None,0,,,,,,,,,,,,,,132,24,Female,2022-05-17_17h22.22.177,Parachute,2022.1.1,60.02880185674705,
negative,yellow,1,k,None,,,,,,,,,0,159,159,159,,,,,,,,,,,,,,,,,,,,,,,,,,,,,,,,,,,,,,main,k,k,1,1.0825225000735372,592.9855031999759,None,None,0,,,,,,,,,,,,,,132,24,Female,2022-05-17_17h22.22.177,Parachute,2022.1.1,60.02880185674705,
negative,red,2,None,None,,,,,,,,,0,160,160,160,,,,,,,,,,,,,,,,,,,,,,,,,,,,,,,,,,,,,,main,None,None,1,1.4972393000498414,595.0694806000683,None,None,1,,,,,,,,,,,,,,132,24,Female,2022-05-17_17h22.22.177,Parachute,2022.1.1,60.02880185674705,
negative,blue,1,None,k,,,,,,,,,0,161,161,161,,,,,,,,,,,,,,,,,,,,,,,,,,,,,,,,,,,,,,main,None,None,1,1.4986925998236984,597.5680088000372,None,None,1,,,,,,,,,,,,,,132,24,Female,2022-05-17_17h22.22.177,Parachute,2022.1.1,60.02880185674705,
negative,blue,1,None,k,,,,,,,,,0,162,162,162,,,,,,,,,,,,,,,,,,,,,,,,,,,,,,,,,,,,,,main,None,None,1,1.4984127001371235,600.0685109000187,None,None,1,,,,,,,,,,,,,,132,24,Female,2022-05-17_17h22.22.177,Parachute,2022.1.1,60.02880185674705,
negative,yellow,1,k,None,,,,,,,,,0,163,163,163,,,,,,,,,,,,,,,,,,,,,,,,,,,,,,,,,,,,,,main,k,k,1,0.8663576999679208,602.5682898999657,None,None,0,,,,,,,,,,,,,,132,24,Female,2022-05-17_17h22.22.177,Parachute,2022.1.1,60.02880185674705,
negative,yellow,1,k,None,,,,,,,,,0,164,164,164,,,,,,,,,,,,,,,,,,,,,,,,,,,,,,,,,,,,,,main,k,k,1,0.9831884999293834,604.436483199941,None,None,0,,,,,,,,,,,,,,132,24,Female,2022-05-17_17h22.22.177,Parachute,2022.1.1,60.02880185674705,
positive,yellow,1,None,k,,,,,,,,,0,165,165,165,,,,,,,,,,,,,,,,,,,,,,,,,,,,,,,,,,,,,,main,None,None,1,1.496480000205338,606.421556700021,None,None,1,,,,,,,,,,,,,,132,24,Female,2022-05-17_17h22.22.177,Parachute,2022.1.1,60.02880185674705,
negative,red,1,None,None,,,,,,,,,0,166,166,166,,,,,,,,,,,,,,,,,,,,,,,,,,,,,,,,,,,,,,main,None,None,1,1.4985282002016902,608.9189909000415,None,None,1,,,,,,,,,,,,,,132,24,Female,2022-05-17_17h22.22.177,Parachute,2022.1.1,60.02880185674705,
negative,yellow,2,k,None,,,,,,,,,0,167,167,167,,,,,,,,,,,,,,,,,,,,,,,,,,,,,,,,,,,,,,main,k,k,1,0.9516318999230862,611.4190859000664,None,None,0,,,,,,,,,,,,,,132,24,Female,2022-05-17_17h22.22.177,Parachute,2022.1.1,60.02880185674705,
positive,blue,2,k,None,,,,,,,,,0,168,168,168,,,,,,,,,,,,,,,,,,,,,,,,,,,,,,,,,,,,,,main,k,k,1,1.0130507999565452,613.3726218999363,None,None,0,,,,,,,,,,,,,,132,24,Female,2022-05-17_17h22.22.177,Parachute,2022.1.1,60.02880185674705,
positive,red,2,None,None,,,,,,,,,0,169,169,169,,,,,,,,,,,,,,,,,,,,,,,,,,,,,,,,,,,,,,main,None,None,1,1.4974274998530746,615.387176600052,None,None,1,,,,,,,,,,,,,,132,24,Female,2022-05-17_17h22.22.177,Parachute,2022.1.1,60.02880185674705,
positive,red,1,None,None,,,,,,,,,0,170,170,170,,,,,,,,,,,,,,,,,,,,,,,,,,,,,,,,,,,,,,main,None,None,1,1.4984545998740941,617.8857883000746,None,None,1,,,,,,,,,,,,,,132,24,Female,2022-05-17_17h22.22.177,Parachute,2022.1.1,60.02880185674705,
negative,blue,2,None,k,,,,,,,,,0,171,171,171,,,,,,,,,,,,,,,,,,,,,,,,,,,,,,,,,,,,,,main,None,None,1,1.4984436999075115,620.3858698001131,None,None,1,,,,,,,,,,,,,,132,24,Female,2022-05-17_17h22.22.177,Parachute,2022.1.1,60.02880185674705,
positive,blue,2,k,None,,,,,,,,,0,172,172,172,,,,,,,,,,,,,,,,,,,,,,,,,,,,,,,,,,,,,,main,k,k,1,1.1671585999429226,622.8857843999285,None,None,0,,,,,,,,,,,,,,132,24,Female,2022-05-17_17h22.22.177,Parachute,2022.1.1,60.02880185674705,
negative,yellow,2,k,None,,,,,,,,,0,173,173,173,,,,,,,,,,,,,,,,,,,,,,,,,,,,,,,,,,,,,,main,k,k,1,0.7482470001559705,625.056135199964,None,None,0,,,,,,,,,,,,,,132,24,Female,2022-05-17_17h22.22.177,Parachute,2022.1.1,60.02880185674705,
positive,yellow,2,None,k,,,,,,,,,0,174,174,174,,,,,,,,,,,,,,,,,,,,,,,,,,,,,,,,,,,,,,main,None,None,1,1.49564029998146,626.8061154999305,None,None,1,,,,,,,,,,,,,,132,24,Female,2022-05-17_17h22.22.177,Parachute,2022.1.1,60.02880185674705,
negative,blue,2,None,k,,,,,,,,,0,175,175,175,,,,,,,,,,,,,,,,,,,,,,,,,,,,,,,,,,,,,,main,None,None,1,1.4985076999291778,629.3022972999606,None,None,1,,,,,,,,,,,,,,132,24,Female,2022-05-17_17h22.22.177,Parachute,2022.1.1,60.02880185674705,
positive,blue,1,k,None,,,,,,,,,0,176,176,176,,,,,,,,,,,,,,,,,,,,,,,,,,,,,,,,,,,,,,main,k,k,1,1.0324792000465095,631.8026850000024,None,None,0,,,,,,,,,,,,,,132,24,Female,2022-05-17_17h22.22.177,Parachute,2022.1.1,60.02880185674705,
positive,yellow,1,None,k,,,,,,,,,0,177,177,177,,,,,,,,,,,,,,,,,,,,,,,,,,,,,,,,,,,,,,main,None,None,1,1.4978392000775784,633.8367157001048,None,None,1,,,,,,,,,,,,,,132,24,Female,2022-05-17_17h22.22.177,Parachute,2022.1.1,60.02880185674705,
positive,blue,1,k,None,,,,,,,,,0,178,178,178,,,,,,,,,,,,,,,,,,,,,,,,,,,,,,,,,,,,,,main,k,k,1,1.0336841999087483,636.3362461000215,None,None,0,,,,,,,,,,,,,,132,24,Female,2022-05-17_17h22.22.177,Parachute,2022.1.1,60.02880185674705,
positive,yellow,2,None,k,,,,,,,,,0,179,179,179,,,,,,,,,,,,,,,,,,,,,,,,,,,,,,,,,,,,,,main,None,None,1,1.4966551000252366,638.3716450000647,None,None,1,,,,,,,,,,,,,,132,24,Female,2022-05-17_17h22.22.177,Parachute,2022.1.1,60.02880185674705,
positive,blue,1,k,None,,,,,,,,,0,180,180,180,,,,,,,,,,,,,,,,,,,,,,,,,,,,,,,,,,,,,,main,k,k,1,0.7665171001572162,640.8692785999738,None,None,0,,,,,,,,,,,,,,132,24,Female,2022-05-17_17h22.22.177,Parachute,2022.1.1,60.02880185674705,
negative,red,1,None,None,,,,,,,,,0,181,181,181,,,,,,,,,,,,,,,,,,,,,,,,,,,,,,,,,,,,,,main,None,None,1,1.4972756998613477,642.6373473999556,None,None,1,,,,,,,,,,,,,,132,24,Female,2022-05-17_17h22.22.177,Parachute,2022.1.1,60.02880185674705,
negative,blue,1,None,k,,,,,,,,,0,182,182,182,,,,,,,,,,,,,,,,,,,,,,,,,,,,,,,,,,,,,,main,None,None,1,1.4985042000189424,645.1362314999569,None,None,1,,,,,,,,,,,,,,132,24,Female,2022-05-17_17h22.22.177,Parachute,2022.1.1,60.02880185674705,
negative,yellow,2,k,None,,,,,,,,,0,183,183,183,,,,,,,,,,,,,,,,,,,,,,,,,,,,,,,,,,,,,,main,k,k,1,1.0162697997875512,647.6359979999252,None,None,0,,,,,,,,,,,,,,132,24,Female,2022-05-17_17h22.22.177,Parachute,2022.1.1,60.02880185674705,
positive,yellow,2,None,k,,,,,,,,,0,184,184,184,,,,,,,,,,,,,,,,,,,,,,,,,,,,,,,,,,,,,,main,None,None,1,1.4973528999835253,649.65459619998,None,None,1,,,,,,,,,,,,,,132,24,Female,2022-05-17_17h22.22.177,Parachute,2022.1.1,60.02880185674705,
positive,yellow,1,None,k,,,,,,,,,0,185,185,185,,,,,,,,,,,,,,,,,,,,,,,,,,,,,,,,,,,,,,main,None,None,1,1.498872600030154,652.1526420998853,None,None,1,,,,,,,,,,,,,,132,24,Female,2022-05-17_17h22.22.177,Parachute,2022.1.1,60.02880185674705,
positive,red,2,None,None,,,,,,,,,0,186,186,186,,,,,,,,,,,,,,,,,,,,,,,,,,,,,,,,,,,,,,main,None,None,1,1.4987369000446051,654.6530673000962,None,None,1,,,,,,,,,,,,,,132,24,Female,2022-05-17_17h22.22.177,Parachute,2022.1.1,60.02880185674705,
positive,blue,1,k,None,,,,,,,,,0,187,187,187,,,,,,,,,,,,,,,,,,,,,,,,,,,,,,,,,,,,,,main,k,k,1,0.9668146001640707,657.1534682998899,None,None,0,,,,,,,,,,,,,,132,24,Female,2022-05-17_17h22.22.177,Parachute,2022.1.1,60.02880185674705,
negative,yellow,1,k,None,,,,,,,,,0,188,188,188,,,,,,,,,,,,,,,,,,,,,,,,,,,,,,,,,,,,,,main,k,k,1,0.9827873001340777,659.1223716998938,None,None,0,,,,,,,,,,,,,,132,24,Female,2022-05-17_17h22.22.177,Parachute,2022.1.1,60.02880185674705,
positive,yellow,2,None,k,,,,,,,,,0,189,189,189,,,,,,,,,,,,,,,,,,,,,,,,,,,,,,,,,,,,,,main,None,None,1,1.495827900012955,661.1063920001034,None,None,1,,,,,,,,,,,,,,132,24,Female,2022-05-17_17h22.22.177,Parachute,2022.1.1,60.02880185674705,
negative,yellow,2,k,None,,,,,,,,,0,190,190,190,,,,,,,,,,,,,,,,,,,,,,,,,,,,,,,,,,,,,,main,k,k,1,0.7498931000009179,663.6032662999351,None,None,0,,,,,,,,,,,,,,132,24,Female,2022-05-17_17h22.22.177,Parachute,2022.1.1,60.02880185674705,
negative,yellow,1,k,None,,,,,,,,,0,191,191,191,,,,,,,,,,,,,,,,,,,,,,,,,,,,,,,,,,,,,,main,k,k,1,0.7481980000156909,665.3554279000964,None,None,0,,,,,,,,,,,,,,132,24,Female,2022-05-17_17h22.22.177,Parachute,2022.1.1,60.02880185674705,
positive,blue,2,k,None,,,,,,,,,0,192,192,192,,,,,,,,,,,,,,,,,,,,,,,,,,,,,,,,,,,,,,main,k,k,1,0.6665856000036001,667.1047648999374,None,None,0,,,,,,,,,,,,,,132,24,Female,2022-05-17_17h22.22.177,Parachute,2022.1.1,60.02880185674705,
positive,yellow,1,None,k,,,,,,,,,0,193,193,193,,,,,,,,,,,,,,,,,,,,,,,,,,,,,,,,,,,,,,main,None,None,1,1.495912600075826,668.7733382999431,None,None,1,,,,,,,,,,,,,,132,24,Female,2022-05-17_17h22.22.177,Parachute,2022.1.1,60.02880185674705,
negative,red,2,None,None,,,,,,,,,0,194,194,194,,,,,,,,,,,,,,,,,,,,,,,,,,,,,,,,,,,,,,main,None,None,1,1.4987365999259055,671.2698894001078,None,None,1,,,,,,,,,,,,,,132,24,Female,2022-05-17_17h22.22.177,Parachute,2022.1.1,60.02880185674705,
positive,red,1,None,None,,,,,,,,,0,195,195,195,,,,,,,,,,,,,,,,,,,,,,,,,,,,,,,,,,,,,,main,None,None,1,1.4985539000481367,673.77020550007,None,None,1,,,,,,,,,,,,,,132,24,Female,2022-05-17_17h22.22.177,Parachute,2022.1.1,60.02880185674705,
negative,blue,1,None,k,,,,,,,,,0,196,196,196,,,,,,,,,,,,,,,,,,,,,,,,,,,,,,,,,,,,,,main,None,None,1,1.4987392998300493,676.2702327000443,None,None,1,,,,,,,,,,,,,,132,24,Female,2022-05-17_17h22.22.177,Parachute,2022.1.1,60.02880185674705,
positive,blue,2,k,None,,,,,,,,,0,197,197,197,,,,,,,,,,,,,,,,,,,,,,,,,,,,,,,,,,,,,,main,k,k,1,1.082094700075686,678.7709727000911,None,None,0,,,,,,,,,,,,,,132,24,Female,2022-05-17_17h22.22.177,Parachute,2022.1.1,60.02880185674705,
negative,blue,2,None,k,,,,,,,,,0,198,198,198,,,,,,,,,,,,,,,,,,,,,,,,,,,,,,,,,,,,,,main,None,None,1,1.4980950001627207,680.854142599972,None,None,1,,,,,,,,,,,,,,132,24,Female,2022-05-17_17h22.22.177,Parachute,2022.1.1,60.02880185674705,
negative,blue,2,None,k,,,,,,,,,0,199,199,199,,,,,,,,,,,,,,,,,,,,,,,,,,,,,,,,,,,,,,main,None,None,1,1.498543599853292,683.3537196000107,None,None,1,,,,,,,,,,,,,,132,24,Female,2022-05-17_17h22.22.177,Parachute,2022.1.1,60.02880185674705,
positive,blue,2,k,None,,,,,,,,,0,200,200,200,,,,,,,,,,,,,,,,,,,,,,,,,,,,,,,,,,,,,,main,k,k,1,1.2661756000015885,685.8539742000867,None,None,0,,,,,,,,,,,,,,132,24,Female,2022-05-17_17h22.22.177,Parachute,2022.1.1,60.02880185674705,
positive,blue,2,k,None,,,,,,,,,0,201,201,201,,,,,,,,,,,,,,,,,,,,,,,,,,,,,,,,,,,,,,main,k,k,1,1.0314582998398691,688.1216678000055,None,None,0,,,,,,,,,,,,,,132,24,Female,2022-05-17_17h22.22.177,Parachute,2022.1.1,60.02880185674705,
negative,yellow,2,k,None,,,,,,,,,0,202,202,202,,,,,,,,,,,,,,,,,,,,,,,,,,,,,,,,,,,,,,main,k,k,1,0.9991548999678344,690.1542571999598,None,None,0,,,,,,,,,,,,,,132,24,Female,2022-05-17_17h22.22.177,Parachute,2022.1.1,60.02880185674705,
positive,red,1,None,None,,,,,,,,,0,203,203,203,,,,,,,,,,,,,,,,,,,,,,,,,,,,,,,,,,,,,,main,None,None,1,1.4975257001351565,692.1550865001045,None,None,1,,,,,,,,,,,,,,132,24,Female,2022-05-17_17h22.22.177,Parachute,2022.1.1,60.02880185674705,
negative,blue,2,None,k,,,,,,,,,0,204,204,204,,,,,,,,,,,,,,,,,,,,,,,,,,,,,,,,,,,,,,main,None,None,1,1.498666100203991,694.653748499928,None,None,1,,,,,,,,,,,,,,132,24,Female,2022-05-17_17h22.22.177,Parachute,2022.1.1,60.02880185674705,
negative,red,1,None,None,,,,,,,,,0,205,205,205,,,,,,,,,,,,,,,,,,,,,,,,,,,,,,,,,,,,,,main,None,None,1,1.4986414001323283,697.1543964999728,None,None,1,,,,,,,,,,,,,,132,24,Female,2022-05-17_17h22.22.177,Parachute,2022.1.1,60.02880185674705,
negative,blue,2,None,k,,,,,,,,,0,206,206,206,,,,,,,,,,,,,,,,,,,,,,,,,,,,,,,,,,,,,,main,None,None,1,1.4987211001571268,699.6543872000184,None,None,1,,,,,,,,,,,,,,132,24,Female,2022-05-17_17h22.22.177,Parachute,2022.1.1,60.02880185674705,
negative,yellow,2,k,None,,,,,,,,,0,207,207,207,,,,,,,,,,,,,,,,,,,,,,,,,,,,,,,,,,,,,,main,k,k,1,0.9488396001979709,702.1565974000841,None,None,0,,,,,,,,,,,,,,132,24,Female,2022-05-17_17h22.22.177,Parachute,2022.1.1,60.02880185674705,
positive,yellow,2,None,k,,,,,,,,,0,208,208,208,,,,,,,,,,,,,,,,,,,,,,,,,,,,,,,,,,,,,,main,None,None,1,1.497953200014308,704.1052806000225,None,None,1,,,,,,,,,,,,,,132,24,Female,2022-05-17_17h22.22.177,Parachute,2022.1.1,60.02880185674705,
negative,yellow,1,k,None,,,,,,,,,0,209,209,209,,,,,,,,,,,,,,,,,,,,,,,,,,,,,,,,,,,,,,main,k,k,1,0.9999993999954313,706.6054406000767,None,None,0,,,,,,,,,,,,,,132,24,Female,2022-05-17_17h22.22.177,Parachute,2022.1.1,60.02880185674705,
negative,red,2,None,None,,,,,,,,,0,210,210,210,,,,,,,,,,,,,,,,,,,,,,,,,,,,,,,,,,,,,,main,None,None,1,1.4963266998529434,708.6071275998838,None,None,1,,,,,,,,,,,,,,132,24,Female,2022-05-17_17h22.22.177,Parachute,2022.1.1,60.02880185674705,
negative,blue,1,None,k,,,,,,,,,0,211,211,211,,,,,,,,,,,,,,,,,,,,,,,,,,,,,,,,,,,,,,main,None,None,1,1.4988808000925928,711.1044848999009,None,None,1,,,,,,,,,,,,,,132,24,Female,2022-05-17_17h22.22.177,Parachute,2022.1.1,60.02880185674705,
negative,yellow,1,k,None,,,,,,,,,0,212,212,212,,,,,,,,,,,,,,,,,,,,,,,,,,,,,,,,,,,,,,main,k,k,1,1.136200699955225,713.6055228998885,None,None,0,,,,,,,,,,,,,,132,24,Female,2022-05-17_17h22.22.177,Parachute,2022.1.1,60.02880185674705,
positive,blue,1,k,None,,,,,,,,,0,213,213,213,,,,,,,,,,,,,,,,,,,,,,,,,,,,,,,,,,,,,,main,k,k,1,1.7632333999499679,715.7425112999044,None,None,0,,,,,,,,,,,,,,132,24,Female,2022-05-17_17h22.22.177,Parachute,2022.1.1,60.02880185674705,
positive,blue,1,k,None,,,,,,,,,0,214,214,214,,,,,,,,,,,,,,,,,,,,,,,,,,,,,,,,,,,,,,main,k,k,1,0.8387609000783414,719.520582200028,None,None,0,,,,,,,,,,,,,,132,24,Female,2022-05-17_17h22.22.177,Parachute,2022.1.1,60.02880185674705,
positive,yellow,1,None,k,,,,,,,,,0,215,215,215,,,,,,,,,,,,,,,,,,,,,,,,,,,,,,,,,,,,,,main,None,None,1,1.496058200020343,721.3688238000032,None,None,1,,,,,,,,,,,,,,132,24,Female,2022-05-17_17h22.22.177,Parachute,2022.1.1,60.02880185674705,
positive,yellow,1,None,k,,,,,,,,,0,216,216,216,,,,,,,,,,,,,,,,,,,,,,,,,,,,,,,,,,,,,,main,None,None,1,1.4967159000225365,723.8580370000564,None,None,1,,,,,,,,,,,,,,132,24,Female,2022-05-17_17h22.22.177,Parachute,2022.1.1,60.02880185674705,
positive,yellow,2,None,k,,,,,,,,,0,217,217,217,,,,,,,,,,,,,,,,,,,,,,,,,,,,,,,,,,,,,,main,None,None,1,1.4982863999903202,726.3554475998972,None,None,1,,,,,,,,,,,,,,132,24,Female,2022-05-17_17h22.22.177,Parachute,2022.1.1,60.02880185674705,
negative,blue,1,None,k,,,,,,,,,0,218,218,218,,,,,,,,,,,,,,,,,,,,,,,,,,,,,,,,,,,,,,main,None,None,1,1.498545200098306,728.8551382999867,None,None,1,,,,,,,,,,,,,,132,24,Female,2022-05-17_17h22.22.177,Parachute,2022.1.1,60.02880185674705,
positive,red,2,None,None,,,,,,,,,0,219,219,219,,,,,,,,,,,,,,,,,,,,,,,,,,,,,,,,,,,,,,main,None,None,1,1.4987103000748903,731.3552538000513,None,None,1,,,,,,,,,,,,,,132,24,Female,2022-05-17_17h22.22.177,Parachute,2022.1.1,60.02880185674705,
positive,yellow,1,None,k,,,,,,,,,0,220,220,220,,,,,,,,,,,,,,,,,,,,,,,,,,,,,,,,,,,,,,main,None,None,1,1.498541999841109,733.8561885999516,None,None,1,,,,,,,,,,,,,,132,24,Female,2022-05-17_17h22.22.177,Parachute,2022.1.1,60.02880185674705,
positive,blue,1,k,None,,,,,,,,,0,221,221,221,,,,,,,,,,,,,,,,,,,,,,,,,,,,,,,,,,,,,,main,k,k,1,0.833993700100109,736.3563618001062,None,None,0,,,,,,,,,,,,,,132,24,Female,2022-05-17_17h22.22.177,Parachute,2022.1.1,60.02880185674705,
positive,yellow,2,None,k,,,,,,,,,0,222,222,222,,,,,,,,,,,,,,,,,,,,,,,,,,,,,,,,,,,,,,main,None,None,1,1.4957886999472976,738.1921695000492,None,None,1,,,,,,,,,,,,,,132,24,Female,2022-05-17_17h22.22.177,Parachute,2022.1.1,60.02880185674705,
negative,yellow,1,k,None,,,,,,,,,0,223,223,223,,,,,,,,,,,,,,,,,,,,,,,,,,,,,,,,,,,,,,main,k,k,1,1.3154243000317365,740.6886394999456,None,None,0,,,,,,,,,,,,,,132,24,Female,2022-05-17_17h22.22.177,Parachute,2022.1.1,60.02880185674705,
positive,yellow,2,None,k,,,,,,,,,0,224,224,224,,,,,,,,,,,,,,,,,,,,,,,,,,,,,,,,,,,,,,main,None,None,1,1.49812989984639,743.0056455000304,None,None,1,,,,,,,,,,,,,,132,24,Female,2022-05-17_17h22.22.177,Parachute,2022.1.1,60.02880185674705,
negative,yellow,2,k,None,,,,,,,,,0,225,225,225,,,,,,,,,,,,,,,,,,,,,,,,,,,,,,,,,,,,,,main,k,k,1,1.3008890999481082,745.5050399000756,None,None,0,,,,,,,,,,,,,,132,24,Female,2022-05-17_17h22.22.177,Parachute,2022.1.1,60.02880185674705,
negative,blue,2,None,k,,,,,,,,,0,226,226,226,,,,,,,,,,,,,,,,,,,,,,,,,,,,,,,,,,,,,,main,None,None,1,1.4964954000897706,747.8096725998912,None,None,1,,,,,,,,,,,,,,132,24,Female,2022-05-17_17h22.22.177,Parachute,2022.1.1,60.02880185674705,
positive,red,2,None,None,,,,,,,,,0,227,227,227,,,,,,,,,,,,,,,,,,,,,,,,,,,,,,,,,,,,,,main,None,None,1,1.4990085000172257,750.3061281000264,None,None,1,,,,,,,,,,,,,,132,24,Female,2022-05-17_17h22.22.177,Parachute,2022.1.1,60.02880185674705,
positive,blue,2,k,None,,,,,,,,,0,228,228,228,,,,,,,,,,,,,,,,,,,,,,,,,,,,,,,,,,,,,,main,k,k,1,0.8823863998986781,752.8062154001091,None,None,0,,,,,,,,,,,,,,132,24,Female,2022-05-17_17h22.22.177,Parachute,2022.1.1,60.02880185674705,
negative,blue,1,None,k,,,,,,,,,0,229,229,229,,,,,,,,,,,,,,,,,,,,,,,,,,,,,,,,,,,,,,main,None,None,1,1.497519699856639,754.6897857000586,None,None,1,,,,,,,,,,,,,,132,24,Female,2022-05-17_17h22.22.177,Parachute,2022.1.1,60.02880185674705,
positive,yellow,1,None,k,,,,,,,,,0,230,230,230,,,,,,,,,,,,,,,,,,,,,,,,,,,,,,,,,,,,,,main,None,None,1,1.498757400084287,757.1889476000797,None,None,1,,,,,,,,,,,,,,132,24,Female,2022-05-17_17h22.22.177,Parachute,2022.1.1,60.02880185674705,
negative,blue,2,None,k,,,,,,,,,0,231,231,231,,,,,,,,,,,,,,,,,,,,,,,,,,,,,,,,,,,,,,main,None,None,1,1.498074100119993,759.6890110999811,None,None,1,,,,,,,,,,,,,,132,24,Female,2022-05-17_17h22.22.177,Parachute,2022.1.1,60.02880185674705,
negative,red,1,None,None,,,,,,,,,0,232,232,232,,,,,,,,,,,,,,,,,,,,,,,,,,,,,,,,,,,,,,main,None,None,1,1.4988141998182982,762.1882950998843,None,None,1,,,,,,,,,,,,,,132,24,Female,2022-05-17_17h22.22.177,Parachute,2022.1.1,60.02880185674705,
positive,blue,2,k,None,,,,,,,,,0,233,233,233,,,,,,,,,,,,,,,,,,,,,,,,,,,,,,,,,,,,,,main,k,k,1,1.0010384998749942,764.6895282999612,None,None,0,,,,,,,,,,,,,,132,24,Female,2022-05-17_17h22.22.177,Parachute,2022.1.1,60.02880185674705,
negative,yellow,1,k,None,,,,,,,,,0,234,234,234,,,,,,,,,,,,,,,,,,,,,,,,,,,,,,,,,,,,,,main,k,k,1,1.4139492998365313,766.6920549999923,None,None,0,,,,,,,,,,,,,,132,24,Female,2022-05-17_17h22.22.177,Parachute,2022.1.1,60.02880185674705,
negative,yellow,2,k,None,,,,,,,,,0,235,235,235,,,,,,,,,,,,,,,,,,,,,,,,,,,,,,,,,,,,,,main,k,k,1,0.8328209000173956,769.1071617000271,None,None,0,,,,,,,,,,,,,,132,24,Female,2022-05-17_17h22.22.177,Parachute,2022.1.1,60.02880185674705,
positive,red,1,None,None,,,,,,,,,0,236,236,236,,,,,,,,,,,,,,,,,,,,,,,,,,,,,,,,,,,,,,main,None,None,1,1.4960621998179704,770.9418905999046,None,None,1,,,,,,,,,,,,,,132,24,Female,2022-05-17_17h22.22.177,Parachute,2022.1.1,60.02880185674705,
negative,red,2,None,None,,,,,,,,,0,237,237,237,,,,,,,,,,,,,,,,,,,,,,,,,,,,,,,,,,,,,,main,None,None,1,1.4984035999514163,773.4392121001147,None,None,1,,,,,,,,,,,,,,132,24,Female,2022-05-17_17h22.22.177,Parachute,2022.1.1,60.02880185674705,
negative,blue,1,None,k,,,,,,,,,0,238,238,238,,,,,,,,,,,,,,,,,,,,,,,,,,,,,,,,,,,,,,main,None,None,1,1.4984961000736803,775.9389549000189,None,None,1,,,,,,,,,,,,,,132,24,Female,2022-05-17_17h22.22.177,Parachute,2022.1.1,60.02880185674705,
positive,blue,1,k,None,,,,,,,,,0,239,239,239,,,,,,,,,,,,,,,,,,,,,,,,,,,,,,,,,,,,,,main,k,k,1,1.433348200051114,778.4389064998832,None,None,0,,,,,,,,,,,,,,132,24,Female,2022-05-17_17h22.22.177,Parachute,2022.1.1,60.02880185674705,
,,,,,,,,,,,,,,,,,,,,,,,,,,,,,,,,,,,,,,,,,,,,,,,,,,,,,,,,,,,,,,,,,,,,,,,,,,780.8719949999359,None,,,,,,,,
