distractor,target,set,ans1,ans2,rep_loop4.thisRepN,rep_loop4.thisTrialN,rep_loop4.thisN,rep_loop4.thisIndex,st2_prac_loop.thisRepN,st2_prac_loop.thisTrialN,st2_prac_loop.thisN,st2_prac_loop.thisIndex,st2_main_loop.thisRepN,st2_main_loop.thisTrialN,st2_main_loop.thisN,st2_main_loop.thisIndex,image_4.started,image_4.stopped,mouse_7.x,mouse_7.y,mouse_7.leftButton,mouse_7.midButton,mouse_7.rightButton,sound_2.started,sound_2.stopped,key_resp_3.keys,mouse_5.x,mouse_5.y,mouse_5.leftButton,mouse_5.midButton,mouse_5.rightButton,mouse_5.started,mouse_5.stopped,yes_text2.started,yes_text2.stopped,no_text2.started,no_text2.stopped,mouse_3.x,mouse_3.y,mouse_3.leftButton,mouse_3.midButton,mouse_3.rightButton,mouse_3.started,mouse_3.stopped,st_prac_back.started,st_prac_back.stopped,st_prac_text.started,st_prac_text.stopped,st_fix_back.started,st_fix_back.stopped,st_fix_2.started,st_fix_2.stopped,main_prac,st_ans,st_res,st_corr,st_rt,st_back.started,st_back.stopped,st2_resp.keys,st2_resp.corr,st_main_back.started,st_main_back.stopped,st_main_text.started,st_main_text.stopped,mouse_4.x,mouse_4.y,mouse_4.leftButton,mouse_4.midButton,mouse_4.rightButton,mouse_4.started,mouse_4.stopped,text_2.started,text_2.stopped,id*,age*,gender*,date,expName,psychopyVersion,frameRate,
,,,,,,,,,,,,,,,,,35.87767759989947,None,-0.42037037,-0.30925927,0,0,0,,,,,,,,,,,,,,,,,,,,,,,,,,,,,,,,,,,,,,,,,,,,,,,,,,,,133,22,Female,2022-05-31_16h10.12.402,Parachute,2022.1.1,60.00121210356404,
negative,yellow,1,k,None,,,,,0,0,0,0,,,,,,,,,,,,98.49851777004078,None,None,0.15833333,-0.3398148,0,0,0,0.9997380501590669,None,153.76603229995817,None,153.76603229995817,None,-0.10185185,-0.06851852,0,0,0,0.01368656987324357,None,155.80407120008022,None,155.80407120008022,None,157.81688200030476,None,157.81688200030476,None,prac,None,None,1,1.5090670003555715,159.84351300029084,None,None,1,,,,,,,,,,,,,,133,22,Female,2022-05-31_16h10.12.402,Parachute,2022.1.1,60.00121210356404,
positive,red,2,None,None,,,,,0,1,1,1,,,,,,,,,,,,,,,,,,,,,,,,,,,,,,,,,,,,,,,,,prac,None,None,1,1.4982388000935316,162.32560139987618,None,None,1,,,,,,,,,,,,,,133,22,Female,2022-05-31_16h10.12.402,Parachute,2022.1.1,60.00121210356404,
negative,blue,2,None,k,,,,,0,2,2,2,,,,,,,,,,,,,,,,,,,,,,,,,,,,,,,,,,,,,,,,,prac,k,k,1,0.7870953995734453,164.8252846999094,None,None,0,,,,,,,,,,,,,,133,22,Female,2022-05-31_16h10.12.402,Parachute,2022.1.1,60.00121210356404,
positive,yellow,1,None,k,,,,,0,3,3,3,,,,,,,,,,,,,,,,,,,,,,,,,,,,,,,,,,,,,,,,,prac,k,k,1,0.6641552001237869,166.6120633003302,None,None,0,,,,,,,,,,,,,,133,22,Female,2022-05-31_16h10.12.402,Parachute,2022.1.1,60.00121210356404,
negative,blue,2,None,k,,,,,0,4,4,4,,,,,,,,,,,,,,,,,,,,,,,,,,,,,,,,,,,,,,,,,prac,k,k,1,0.7340498003177345,168.2775286999531,None,None,0,,,,,,,,,,,,,,133,22,Female,2022-05-31_16h10.12.402,Parachute,2022.1.1,60.00121210356404,
negative,blue,1,None,k,,,,,0,5,5,5,,,,,,,,,,,,,,,,,,,,,,,,,,,,,,,,,,,,,,,,,prac,k,k,1,1.0326367001980543,170.0057081002742,None,None,0,,,,,,,,,,,,,,133,22,Female,2022-05-31_16h10.12.402,Parachute,2022.1.1,60.00121210356404,
negative,yellow,2,k,None,,,,,0,6,6,6,,,,,,,,,,,,,,,,,,,,,,,,,,,,,,,,,,,,,,,,,prac,None,None,1,1.5087202000431716,172.03929120022804,None,None,1,,,,,,,,,,,,,,133,22,Female,2022-05-31_16h10.12.402,Parachute,2022.1.1,60.00121210356404,
negative,red,1,None,None,,,,,0,7,7,7,,,,,,,,,,,,,,,,,,,,,,,,,,,,,,,,,,,,,,,,,prac,None,None,1,1.4988309000618756,174.55178810004145,None,None,1,,,,,,,,,,,,,,133,22,Female,2022-05-31_16h10.12.402,Parachute,2022.1.1,60.00121210356404,
positive,yellow,2,None,k,,,,,0,8,8,8,,,,,,,,,,,,,,,,,,,,,,,,,,,,,,,,,,,,,,,,,prac,k,k,1,0.8846407001838088,177.0499986000359,None,None,0,,,,,,,,,,,,,,133,22,Female,2022-05-31_16h10.12.402,Parachute,2022.1.1,60.00121210356404,
negative,yellow,1,k,None,,,,,0,9,9,9,,,,,,,,,,,,,,,,,,,,,,,,,,,,,,,,,,,,,,,,,prac,None,None,1,1.4961632997728884,178.93754240032285,None,None,1,,,,,,,,,,,,,,133,22,Female,2022-05-31_16h10.12.402,Parachute,2022.1.1,60.00121210356404,
positive,yellow,2,None,k,,,,,0,10,10,10,,,,,,,,,,,,,,,,,,,,,,,,,,,,,,,,,,,,,,,,,prac,k,k,1,0.9874971001408994,181.44126110011712,None,None,0,,,,,,,,,,,,,,133,22,Female,2022-05-31_16h10.12.402,Parachute,2022.1.1,60.00121210356404,
negative,yellow,2,k,None,,,,,0,11,11,11,,,,,,,,,,,,,,,,,,,,,,,,,,,,,,,,,,,,,,,,,prac,None,None,1,1.4924111003056169,183.42177420016378,None,None,1,,,,,,,,,,,,,,133,22,Female,2022-05-31_16h10.12.402,Parachute,2022.1.1,60.00121210356404,
negative,red,2,None,None,,,,,0,12,12,12,,,,,,,,,,,,,,,,,,,,,,,,,,,,,,,,,,,,,,,,,prac,None,None,1,1.499264100100845,185.91729500005022,None,None,1,,,,,,,,,,,,,,133,22,Female,2022-05-31_16h10.12.402,Parachute,2022.1.1,60.00121210356404,
positive,red,1,None,None,,,,,0,13,13,13,,,,,,,,,,,,,,,,,,,,,,,,,,,,,,,,,,,,,,,,,prac,None,None,1,1.4987945002503693,188.41846340009943,None,None,1,,,,,,,,,,,,,,133,22,Female,2022-05-31_16h10.12.402,Parachute,2022.1.1,60.00121210356404,
positive,blue,2,k,None,,,,,0,14,14,14,,,,,,,,,,,,,,,,,,,,,,,,,,,,,,,,,,,,,,,,,prac,None,None,1,1.4982064999639988,190.91747059999034,None,None,1,,,,,,,,,,,,,,133,22,Female,2022-05-31_16h10.12.402,Parachute,2022.1.1,60.00121210356404,
positive,blue,1,k,None,,,,,0,15,15,15,,,,,,,,,,,,,,,,,,,,,,,,,,,,,,,,,,,,,,,,,prac,None,None,1,1.4989609001204371,193.41714840009809,None,None,1,,,,,,,,,,,,,,133,22,Female,2022-05-31_16h10.12.402,Parachute,2022.1.1,60.00121210356404,
negative,blue,1,None,k,,,,,0,16,16,16,,,,,,,,,,,,,,,,,,,,,,,,,,,,,,,,,,,,,,,,,prac,k,k,1,0.7709431000985205,195.91802059998736,None,None,0,,,,,,,,,,,,,,133,22,Female,2022-05-31_16h10.12.402,Parachute,2022.1.1,60.00121210356404,
positive,blue,2,k,None,,,,,0,17,17,17,,,,,,,,,,,,,,,,,,,,,,,,,,,,,,,,,,,,,,,,,prac,None,None,1,1.4935457999818027,197.68884680001065,None,None,1,,,,,,,,,,,,,,133,22,Female,2022-05-31_16h10.12.402,Parachute,2022.1.1,60.00121210356404,
positive,blue,1,k,None,,,,,0,18,18,18,,,,,,,,,,,,,,,,,,,,,,,,,,,,,,,,,,,,,,,,,prac,None,None,1,1.4978669998236,200.1922325002961,None,None,1,,,,,,,,,,,,,,133,22,Female,2022-05-31_16h10.12.402,Parachute,2022.1.1,60.00121210356404,
positive,yellow,1,None,k,,,,,0,19,19,19,,,,,,,,,,,,,,,,,,,,,,,,,,,,,,,,,,,,,,,,,prac,k,k,1,1.1204422996379435,202.68397110002115,None,None,0,,,,,,,,,,,,,,133,22,Female,2022-05-31_16h10.12.402,Parachute,2022.1.1,60.00121210356404,
negative,yellow,1,k,None,,,,,1,0,20,0,,,,,,,,,,,,,,,,,,,,,,,,,,,,,,,,,,,,,,,,,prac,None,None,1,1.494225800037384,204.8058508001268,None,None,1,,,,,,,,,,,,,,133,22,Female,2022-05-31_16h10.12.402,Parachute,2022.1.1,60.00121210356404,
positive,red,2,None,None,,,,,1,1,21,1,,,,,,,,,,,,,,,,,,,,,,,,,,,,,,,,,,,,,,,,,prac,None,None,1,1.4983826000243425,207.30146710015833,None,None,1,,,,,,,,,,,,,,133,22,Female,2022-05-31_16h10.12.402,Parachute,2022.1.1,60.00121210356404,
negative,blue,2,None,k,,,,,1,2,22,2,,,,,,,,,,,,,,,,,,,,,,,,,,,,,,,,,,,,,,,,,prac,k,k,1,0.6641846001148224,209.8010062999092,None,None,0,,,,,,,,,,,,,,133,22,Female,2022-05-31_16h10.12.402,Parachute,2022.1.1,60.00121210356404,
positive,yellow,1,None,k,,,,,1,3,23,3,,,,,,,,,,,,,,,,,,,,,,,,,,,,,,,,,,,,,,,,,prac,k,k,1,0.5049533001147211,211.46753810020164,None,None,0,,,,,,,,,,,,,,133,22,Female,2022-05-31_16h10.12.402,Parachute,2022.1.1,60.00121210356404,
negative,blue,2,None,k,,,,,1,4,24,4,,,,,,,,,,,,,,,,,,,,,,,,,,,,,,,,,,,,,,,,,prac,k,k,1,0.6078975000418723,212.9727101000026,None,None,0,,,,,,,,,,,,,,133,22,Female,2022-05-31_16h10.12.402,Parachute,2022.1.1,60.00121210356404,
negative,blue,1,None,k,,,,,1,5,25,5,,,,,,,,,,,,,,,,,,,,,,,,,,,,,,,,,,,,,,,,,prac,k,k,1,0.753420100081712,214.5845190999098,None,None,0,,,,,,,,,,,,,,133,22,Female,2022-05-31_16h10.12.402,Parachute,2022.1.1,60.00121210356404,
negative,yellow,2,k,None,,,,,1,6,26,6,,,,,,,,,,,,,,,,,,,,,,,,,,,,,,,,,,,,,,,,,prac,None,None,1,1.4956804998219013,216.33803070010617,None,None,1,,,,,,,,,,,,,,133,22,Female,2022-05-31_16h10.12.402,Parachute,2022.1.1,60.00121210356404,
negative,red,1,None,None,,,,,1,7,27,7,,,,,,,,,,,,,,,,,,,,,,,,,,,,,,,,,,,,,,,,,prac,None,None,1,1.4989255000837147,218.83521110005677,None,None,1,,,,,,,,,,,,,,133,22,Female,2022-05-31_16h10.12.402,Parachute,2022.1.1,60.00121210356404,
positive,yellow,2,None,k,,,,,1,8,28,8,,,,,,,,,,,,,,,,,,,,,,,,,,,,,,,,,,,,,,,,,prac,k,k,1,0.8199538998305798,221.33540620002896,None,None,0,,,,,,,,,,,,,,133,22,Female,2022-05-31_16h10.12.402,Parachute,2022.1.1,60.00121210356404,
negative,yellow,1,k,None,,,,,1,9,29,9,,,,,,,,,,,,,,,,,,,,,,,,,,,,,,,,,,,,,,,,,prac,None,None,1,1.4940272001549602,223.15600479999557,None,None,1,,,,,,,,,,,,,,133,22,Female,2022-05-31_16h10.12.402,Parachute,2022.1.1,60.00121210356404,
positive,yellow,2,None,k,,,,,1,10,30,10,,,,,,,,,,,,,,,,,,,,,,,,,,,,,,,,,,,,,,,,,prac,k,k,1,0.70379350008443,225.65216069994494,None,None,0,,,,,,,,,,,,,,133,22,Female,2022-05-31_16h10.12.402,Parachute,2022.1.1,60.00121210356404,
negative,yellow,2,k,None,,,,,1,11,31,11,,,,,,,,,,,,,,,,,,,,,,,,,,,,,,,,,,,,,,,,,prac,None,None,1,1.493298599962145,227.36615250026807,None,None,1,,,,,,,,,,,,,,133,22,Female,2022-05-31_16h10.12.402,Parachute,2022.1.1,60.00121210356404,
negative,red,2,None,None,,,,,1,12,32,12,,,,,,,,,,,,,,,,,,,,,,,,,,,,,,,,,,,,,,,,,prac,None,None,1,1.4989899997599423,229.85187090002,None,None,1,,,,,,,,,,,,,,133,22,Female,2022-05-31_16h10.12.402,Parachute,2022.1.1,60.00121210356404,
positive,red,1,None,None,,,,,1,13,33,13,,,,,,,,,,,,,,,,,,,,,,,,,,,,,,,,,,,,,,,,,prac,None,None,1,1.4987889998592436,232.35216129990295,None,None,1,,,,,,,,,,,,,,133,22,Female,2022-05-31_16h10.12.402,Parachute,2022.1.1,60.00121210356404,
positive,blue,2,k,None,,,,,1,14,34,14,,,,,,,,,,,,,,,,,,,,,,,,,,,,,,,,,,,,,,,,,prac,None,None,1,1.4985355003736913,234.85209900001064,None,None,1,,,,,,,,,,,,,,133,22,Female,2022-05-31_16h10.12.402,Parachute,2022.1.1,60.00121210356404,
positive,blue,1,k,None,,,,,1,15,35,15,,,,,,,,,,,,,,,,,,,,,,,,,,,,,,,,,,,,,,,,,prac,None,k,0,0.5204893001355231,237.351862099953,None,None,1,,,,,,,,,,,,,,133,22,Female,2022-05-31_16h10.12.402,Parachute,2022.1.1,60.00121210356404,
negative,blue,1,None,k,,,,,1,16,36,16,,,,,,,,,,,,,,,,,,,,,,,,,,,,,,,,,,,,,,,,,prac,k,k,1,0.6895769000984728,239.91792020015419,None,None,0,,,,,,,,,,,,,,133,22,Female,2022-05-31_16h10.12.402,Parachute,2022.1.1,60.00121210356404,
positive,blue,2,k,None,,,,,1,17,37,17,,,,,,,,,,,,,,,,,,,,,,,,,,,,,,,,,,,,,,,,,prac,None,None,1,1.493686200119555,241.60657959990203,None,None,1,,,,,,,,,,,,,,133,22,Female,2022-05-31_16h10.12.402,Parachute,2022.1.1,60.00121210356404,
positive,blue,1,k,None,,,,,1,18,38,18,,,,,,,,,,,,,,,,,,,,,,,,,,,,,,,,,,,,,,,,,prac,None,None,1,1.4984772000461817,244.1021193000488,None,None,1,,,,,,,,,,,,,,133,22,Female,2022-05-31_16h10.12.402,Parachute,2022.1.1,60.00121210356404,
positive,yellow,1,None,k,,,,,1,19,39,19,,,,,,,,,,,,,,,,,,,,,,,,,,,,,,,,,,,,,,,,,prac,k,k,1,1.0472213998436928,246.60151829989627,None,None,0,,,,,,,,,,,,,,133,22,Female,2022-05-31_16h10.12.402,Parachute,2022.1.1,60.00121210356404,
,,,,,,,,,,,,,,,,,,,,,,,,,,,,,,,,,,,,,,,,,,,,,,,,,,,,,,,,,,,,,,248.671275800094,None,248.671275800094,None,0.16481481,-0.18703704,0,0,0,0.012598969507962465,None,,,133,22,Female,2022-05-31_16h10.12.402,Parachute,2022.1.1,60.00121210356404,
negative,yellow,2,k,None,,,,,,,,,0,0,0,0,,,,,,,,,,,,,,,,,,,,,,,,,,,,,,,,,265.8025274001993,None,265.8025274001993,None,main,None,None,1,1.5056191999465227,267.8442718000151,None,None,1,,,,,,,,,,,,,,133,22,Female,2022-05-31_16h10.12.402,Parachute,2022.1.1,60.00121210356404,
positive,red,1,None,None,,,,,,,,,0,1,1,1,,,,,,,,,,,,,,,,,,,,,,,,,,,,,,,,,,,,,main,None,None,1,1.4986339998431504,270.3537274999544,None,None,1,,,,,,,,,,,,,,133,22,Female,2022-05-31_16h10.12.402,Parachute,2022.1.1,60.00121210356404,
positive,blue,2,k,None,,,,,,,,,0,2,2,2,,,,,,,,,,,,,,,,,,,,,,,,,,,,,,,,,,,,,main,None,None,1,1.4982205000706017,272.8528156001121,None,None,1,,,,,,,,,,,,,,133,22,Female,2022-05-31_16h10.12.402,Parachute,2022.1.1,60.00121210356404,
positive,blue,1,k,None,,,,,,,,,0,3,3,3,,,,,,,,,,,,,,,,,,,,,,,,,,,,,,,,,,,,,main,None,None,1,1.49905820004642,275.3522713999264,None,None,1,,,,,,,,,,,,,,133,22,Female,2022-05-31_16h10.12.402,Parachute,2022.1.1,60.00121210356404,
negative,yellow,2,k,None,,,,,,,,,0,4,4,4,,,,,,,,,,,,,,,,,,,,,,,,,,,,,,,,,,,,,main,None,None,1,1.4981332002207637,277.8531980998814,None,None,1,,,,,,,,,,,,,,133,22,Female,2022-05-31_16h10.12.402,Parachute,2022.1.1,60.00121210356404,
positive,yellow,2,None,k,,,,,,,,,0,5,5,5,,,,,,,,,,,,,,,,,,,,,,,,,,,,,,,,,,,,,main,k,k,1,0.6555401999503374,280.352428200189,None,None,0,,,,,,,,,,,,,,133,22,Female,2022-05-31_16h10.12.402,Parachute,2022.1.1,60.00121210356404,
negative,blue,2,None,k,,,,,,,,,0,6,6,6,,,,,,,,,,,,,,,,,,,,,,,,,,,,,,,,,,,,,main,k,k,1,0.49746960029006004,282.00853729993105,None,None,0,,,,,,,,,,,,,,133,22,Female,2022-05-31_16h10.12.402,Parachute,2022.1.1,60.00121210356404,
positive,red,2,None,None,,,,,,,,,0,7,7,7,,,,,,,,,,,,,,,,,,,,,,,,,,,,,,,,,,,,,main,None,None,1,1.49405109975487,283.5073422999121,None,None,1,,,,,,,,,,,,,,133,22,Female,2022-05-31_16h10.12.402,Parachute,2022.1.1,60.00121210356404,
positive,yellow,1,None,k,,,,,,,,,0,8,8,8,,,,,,,,,,,,,,,,,,,,,,,,,,,,,,,,,,,,,main,k,k,1,0.7361110001802444,286.00374760013074,None,None,0,,,,,,,,,,,,,,133,22,Female,2022-05-31_16h10.12.402,Parachute,2022.1.1,60.00121210356404,
negative,red,1,None,None,,,,,,,,,0,9,9,9,,,,,,,,,,,,,,,,,,,,,,,,,,,,,,,,,,,,,main,None,None,1,1.493739000055939,287.7409506002441,None,None,1,,,,,,,,,,,,,,133,22,Female,2022-05-31_16h10.12.402,Parachute,2022.1.1,60.00121210356404,
positive,yellow,1,None,k,,,,,,,,,0,10,10,10,,,,,,,,,,,,,,,,,,,,,,,,,,,,,,,,,,,,,main,k,k,1,0.7548120999708772,290.2358405003324,None,None,0,,,,,,,,,,,,,,133,22,Female,2022-05-31_16h10.12.402,Parachute,2022.1.1,60.00121210356404,
negative,yellow,1,k,None,,,,,,,,,0,11,11,11,,,,,,,,,,,,,,,,,,,,,,,,,,,,,,,,,,,,,main,None,None,1,1.493367999792099,292.0008898000233,None,None,1,,,,,,,,,,,,,,133,22,Female,2022-05-31_16h10.12.402,Parachute,2022.1.1,60.00121210356404,
negative,yellow,1,k,None,,,,,,,,,0,12,12,12,,,,,,,,,,,,,,,,,,,,,,,,,,,,,,,,,,,,,main,None,None,1,1.4981777998618782,294.48764420021325,None,None,1,,,,,,,,,,,,,,133,22,Female,2022-05-31_16h10.12.402,Parachute,2022.1.1,60.00121210356404,
negative,red,2,None,None,,,,,,,,,0,13,13,13,,,,,,,,,,,,,,,,,,,,,,,,,,,,,,,,,,,,,main,None,None,1,1.4990655002184212,296.9861638001166,None,None,1,,,,,,,,,,,,,,133,22,Female,2022-05-31_16h10.12.402,Parachute,2022.1.1,60.00121210356404,
positive,yellow,2,None,k,,,,,,,,,0,14,14,14,,,,,,,,,,,,,,,,,,,,,,,,,,,,,,,,,,,,,main,k,k,1,0.7875826000235975,299.48673229990527,None,None,0,,,,,,,,,,,,,,133,22,Female,2022-05-31_16h10.12.402,Parachute,2022.1.1,60.00121210356404,
positive,blue,1,k,None,,,,,,,,,0,15,15,15,,,,,,,,,,,,,,,,,,,,,,,,,,,,,,,,,,,,,main,None,None,1,1.492571400012821,301.27470800001174,None,None,1,,,,,,,,,,,,,,133,22,Female,2022-05-31_16h10.12.402,Parachute,2022.1.1,60.00121210356404,
negative,blue,1,None,k,,,,,,,,,0,16,16,16,,,,,,,,,,,,,,,,,,,,,,,,,,,,,,,,,,,,,main,k,k,1,0.5176629000343382,303.7698065000586,None,None,0,,,,,,,,,,,,,,133,22,Female,2022-05-31_16h10.12.402,Parachute,2022.1.1,60.00121210356404,
positive,blue,2,k,None,,,,,,,,,0,17,17,17,,,,,,,,,,,,,,,,,,,,,,,,,,,,,,,,,,,,,main,None,None,1,1.4968985002487898,305.2892153998837,None,None,1,,,,,,,,,,,,,,133,22,Female,2022-05-31_16h10.12.402,Parachute,2022.1.1,60.00121210356404,
negative,blue,2,None,k,,,,,,,,,0,18,18,18,,,,,,,,,,,,,,,,,,,,,,,,,,,,,,,,,,,,,main,k,k,1,0.7344601997174323,307.7869263999164,None,None,0,,,,,,,,,,,,,,133,22,Female,2022-05-31_16h10.12.402,Parachute,2022.1.1,60.00121210356404,
negative,blue,1,None,k,,,,,,,,,0,19,19,19,,,,,,,,,,,,,,,,,,,,,,,,,,,,,,,,,,,,,main,k,k,1,0.8015005001798272,309.5236789002083,None,None,0,,,,,,,,,,,,,,133,22,Female,2022-05-31_16h10.12.402,Parachute,2022.1.1,60.00121210356404,
negative,blue,1,None,k,,,,,,,,,0,20,20,20,,,,,,,,,,,,,,,,,,,,,,,,,,,,,,,,,,,,,main,k,k,1,0.5979320998303592,311.3248565001413,None,None,0,,,,,,,,,,,,,,133,22,Female,2022-05-31_16h10.12.402,Parachute,2022.1.1,60.00121210356404,
negative,blue,2,None,k,,,,,,,,,0,21,21,21,,,,,,,,,,,,,,,,,,,,,,,,,,,,,,,,,,,,,main,k,k,1,0.6158106001093984,312.924971899949,None,None,0,,,,,,,,,,,,,,133,22,Female,2022-05-31_16h10.12.402,Parachute,2022.1.1,60.00121210356404,
negative,red,1,None,None,,,,,,,,,0,22,22,22,,,,,,,,,,,,,,,,,,,,,,,,,,,,,,,,,,,,,main,None,None,1,1.4934413000009954,314.5409369999543,None,None,1,,,,,,,,,,,,,,133,22,Female,2022-05-31_16h10.12.402,Parachute,2022.1.1,60.00121210356404,
positive,red,2,None,None,,,,,,,,,0,23,23,23,,,,,,,,,,,,,,,,,,,,,,,,,,,,,,,,,,,,,main,None,None,1,1.4988531996496022,317.03722129995003,None,None,1,,,,,,,,,,,,,,133,22,Female,2022-05-31_16h10.12.402,Parachute,2022.1.1,60.00121210356404,
negative,red,2,None,None,,,,,,,,,0,24,24,24,,,,,,,,,,,,,,,,,,,,,,,,,,,,,,,,,,,,,main,None,None,1,1.4985398999415338,319.53706900030375,None,None,1,,,,,,,,,,,,,,133,22,Female,2022-05-31_16h10.12.402,Parachute,2022.1.1,60.00121210356404,
positive,blue,2,k,None,,,,,,,,,0,25,25,25,,,,,,,,,,,,,,,,,,,,,,,,,,,,,,,,,,,,,main,None,None,1,1.4984130999073386,322.03702910011634,None,None,1,,,,,,,,,,,,,,133,22,Female,2022-05-31_16h10.12.402,Parachute,2022.1.1,60.00121210356404,
negative,yellow,1,k,None,,,,,,,,,0,26,26,26,,,,,,,,,,,,,,,,,,,,,,,,,,,,,,,,,,,,,main,None,None,1,1.4985481998883188,324.53687410010025,None,None,1,,,,,,,,,,,,,,133,22,Female,2022-05-31_16h10.12.402,Parachute,2022.1.1,60.00121210356404,
positive,blue,2,k,None,,,,,,,,,0,27,27,27,,,,,,,,,,,,,,,,,,,,,,,,,,,,,,,,,,,,,main,None,None,1,1.4990524998866022,327.0365023999475,None,None,1,,,,,,,,,,,,,,133,22,Female,2022-05-31_16h10.12.402,Parachute,2022.1.1,60.00121210356404,
negative,blue,2,None,k,,,,,,,,,0,28,28,28,,,,,,,,,,,,,,,,,,,,,,,,,,,,,,,,,,,,,main,k,k,1,1.0041211997158825,329.5367574002594,None,None,0,,,,,,,,,,,,,,133,22,Female,2022-05-31_16h10.12.402,Parachute,2022.1.1,60.00121210356404,
positive,red,1,None,None,,,,,,,,,0,29,29,29,,,,,,,,,,,,,,,,,,,,,,,,,,,,,,,,,,,,,main,None,None,1,1.4928307002410293,331.541636900045,None,None,1,,,,,,,,,,,,,,133,22,Female,2022-05-31_16h10.12.402,Parachute,2022.1.1,60.00121210356404,
positive,blue,1,k,None,,,,,,,,,0,30,30,30,,,,,,,,,,,,,,,,,,,,,,,,,,,,,,,,,,,,,main,None,None,1,1.4992732997052372,334.03739030007273,None,None,1,,,,,,,,,,,,,,133,22,Female,2022-05-31_16h10.12.402,Parachute,2022.1.1,60.00121210356404,
positive,yellow,1,None,k,,,,,,,,,0,31,31,31,,,,,,,,,,,,,,,,,,,,,,,,,,,,,,,,,,,,,main,k,k,1,0.7011724999174476,336.53736700024456,None,None,0,,,,,,,,,,,,,,133,22,Female,2022-05-31_16h10.12.402,Parachute,2022.1.1,60.00121210356404,
negative,yellow,2,k,None,,,,,,,,,0,32,32,32,,,,,,,,,,,,,,,,,,,,,,,,,,,,,,,,,,,,,main,None,None,1,1.496308000292629,338.24063140014187,None,None,1,,,,,,,,,,,,,,133,22,Female,2022-05-31_16h10.12.402,Parachute,2022.1.1,60.00121210356404,
negative,blue,1,None,k,,,,,,,,,0,33,33,33,,,,,,,,,,,,,,,,,,,,,,,,,,,,,,,,,,,,,main,k,k,1,0.7705417997203767,340.7381910001859,None,None,0,,,,,,,,,,,,,,133,22,Female,2022-05-31_16h10.12.402,Parachute,2022.1.1,60.00121210356404,
positive,blue,1,k,None,,,,,,,,,0,34,34,34,,,,,,,,,,,,,,,,,,,,,,,,,,,,,,,,,,,,,main,None,None,1,1.4930678000673652,342.50910940021276,None,None,1,,,,,,,,,,,,,,133,22,Female,2022-05-31_16h10.12.402,Parachute,2022.1.1,60.00121210356404,
negative,yellow,1,k,None,,,,,,,,,0,35,35,35,,,,,,,,,,,,,,,,,,,,,,,,,,,,,,,,,,,,,main,None,None,1,1.4991864003241062,345.0039798999205,None,None,1,,,,,,,,,,,,,,133,22,Female,2022-05-31_16h10.12.402,Parachute,2022.1.1,60.00121210356404,
positive,yellow,2,None,k,,,,,,,,,0,36,36,36,,,,,,,,,,,,,,,,,,,,,,,,,,,,,,,,,,,,,main,k,k,1,0.7530372003093362,347.5052531999536,None,None,0,,,,,,,,,,,,,,133,22,Female,2022-05-31_16h10.12.402,Parachute,2022.1.1,60.00121210356404,
positive,yellow,2,None,k,,,,,,,,,0,37,37,37,,,,,,,,,,,,,,,,,,,,,,,,,,,,,,,,,,,,,main,k,k,1,0.6985482000745833,349.25858050026,None,None,0,,,,,,,,,,,,,,133,22,Female,2022-05-31_16h10.12.402,Parachute,2022.1.1,60.00121210356404,
negative,yellow,2,k,None,,,,,,,,,0,38,38,38,,,,,,,,,,,,,,,,,,,,,,,,,,,,,,,,,,,,,main,None,None,1,1.4941420000977814,350.95886450028047,None,None,1,,,,,,,,,,,,,,133,22,Female,2022-05-31_16h10.12.402,Parachute,2022.1.1,60.00121210356404,
positive,yellow,1,None,k,,,,,,,,,0,39,39,39,,,,,,,,,,,,,,,,,,,,,,,,,,,,,,,,,,,,,main,k,k,1,0.6868038000538945,353.45452430006117,None,None,0,,,,,,,,,,,,,,133,22,Female,2022-05-31_16h10.12.402,Parachute,2022.1.1,60.00121210356404,
negative,yellow,2,k,None,,,,,,,,,0,40,40,40,,,,,,,,,,,,,,,,,,,,,,,,,,,,,,,,,,,,,main,None,None,1,1.4932798999361694,355.1522328001447,None,None,1,,,,,,,,,,,,,,133,22,Female,2022-05-31_16h10.12.402,Parachute,2022.1.1,60.00121210356404,
positive,blue,2,k,None,,,,,,,,,0,41,41,41,,,,,,,,,,,,,,,,,,,,,,,,,,,,,,,,,,,,,main,None,None,1,1.4986091000027955,357.6378788999282,None,None,1,,,,,,,,,,,,,,133,22,Female,2022-05-31_16h10.12.402,Parachute,2022.1.1,60.00121210356404,
positive,blue,2,k,None,,,,,,,,,0,42,42,42,,,,,,,,,,,,,,,,,,,,,,,,,,,,,,,,,,,,,main,None,None,1,1.4989879000931978,360.1380675002001,None,None,1,,,,,,,,,,,,,,133,22,Female,2022-05-31_16h10.12.402,Parachute,2022.1.1,60.00121210356404,
negative,blue,2,None,k,,,,,,,,,0,43,43,43,,,,,,,,,,,,,,,,,,,,,,,,,,,,,,,,,,,,,main,k,k,1,1.0037644999101758,362.6378911002539,None,None,0,,,,,,,,,,,,,,133,22,Female,2022-05-31_16h10.12.402,Parachute,2022.1.1,60.00121210356404,
negative,red,1,None,None,,,,,,,,,0,44,44,44,,,,,,,,,,,,,,,,,,,,,,,,,,,,,,,,,,,,,main,None,None,1,1.4931226000189781,364.64229110023007,None,None,1,,,,,,,,,,,,,,133,22,Female,2022-05-31_16h10.12.402,Parachute,2022.1.1,60.00121210356404,
negative,yellow,1,k,None,,,,,,,,,0,45,45,45,,,,,,,,,,,,,,,,,,,,,,,,,,,,,,,,,,,,,main,None,None,1,1.4992166999727488,367.1377842002548,None,None,1,,,,,,,,,,,,,,133,22,Female,2022-05-31_16h10.12.402,Parachute,2022.1.1,60.00121210356404,
negative,yellow,1,k,None,,,,,,,,,0,46,46,46,,,,,,,,,,,,,,,,,,,,,,,,,,,,,,,,,,,,,main,None,None,1,1.4985408000648022,369.6383901000954,None,None,1,,,,,,,,,,,,,,133,22,Female,2022-05-31_16h10.12.402,Parachute,2022.1.1,60.00121210356404,
positive,red,1,None,None,,,,,,,,,0,47,47,47,,,,,,,,,,,,,,,,,,,,,,,,,,,,,,,,,,,,,main,None,None,1,1.4988637999631464,372.13776240032166,None,None,1,,,,,,,,,,,,,,133,22,Female,2022-05-31_16h10.12.402,Parachute,2022.1.1,60.00121210356404,
positive,yellow,1,None,k,,,,,,,,,0,48,48,48,,,,,,,,,,,,,,,,,,,,,,,,,,,,,,,,,,,,,main,k,k,1,1.0863230000250041,374.6385172000155,None,None,0,,,,,,,,,,,,,,133,22,Female,2022-05-31_16h10.12.402,Parachute,2022.1.1,60.00121210356404,
negative,blue,1,None,k,,,,,,,,,0,49,49,49,,,,,,,,,,,,,,,,,,,,,,,,,,,,,,,,,,,,,main,k,k,1,0.6153305997140706,376.72587569989264,None,None,0,,,,,,,,,,,,,,133,22,Female,2022-05-31_16h10.12.402,Parachute,2022.1.1,60.00121210356404,
positive,yellow,2,None,k,,,,,,,,,0,50,50,50,,,,,,,,,,,,,,,,,,,,,,,,,,,,,,,,,,,,,main,k,k,1,0.816384400241077,378.3429286000319,None,None,0,,,,,,,,,,,,,,133,22,Female,2022-05-31_16h10.12.402,Parachute,2022.1.1,60.00121210356404,
negative,blue,1,None,k,,,,,,,,,0,51,51,51,,,,,,,,,,,,,,,,,,,,,,,,,,,,,,,,,,,,,main,k,k,1,0.6257966998964548,380.1594084003009,None,None,0,,,,,,,,,,,,,,133,22,Female,2022-05-31_16h10.12.402,Parachute,2022.1.1,60.00121210356404,
positive,red,2,None,None,,,,,,,,,0,52,52,52,,,,,,,,,,,,,,,,,,,,,,,,,,,,,,,,,,,,,main,None,None,1,1.4997798004187644,381.78813529992476,None,None,1,,,,,,,,,,,,,,133,22,Female,2022-05-31_16h10.12.402,Parachute,2022.1.1,60.00121210356404,
positive,yellow,2,None,k,,,,,,,,,0,53,53,53,,,,,,,,,,,,,,,,,,,,,,,,,,,,,,,,,,,,,main,k,k,1,1.1542337001301348,384.28810860030353,None,None,0,,,,,,,,,,,,,,133,22,Female,2022-05-31_16h10.12.402,Parachute,2022.1.1,60.00121210356404,
negative,red,2,None,None,,,,,,,,,0,54,54,54,,,,,,,,,,,,,,,,,,,,,,,,,,,,,,,,,,,,,main,None,None,1,1.4937639995478094,386.4529134002514,None,None,1,,,,,,,,,,,,,,133,22,Female,2022-05-31_16h10.12.402,Parachute,2022.1.1,60.00121210356404,
positive,yellow,1,None,k,,,,,,,,,0,55,55,55,,,,,,,,,,,,,,,,,,,,,,,,,,,,,,,,,,,,,main,k,k,1,0.7349629998207092,388.93957279995084,None,None,0,,,,,,,,,,,,,,133,22,Female,2022-05-31_16h10.12.402,Parachute,2022.1.1,60.00121210356404,
negative,blue,2,None,k,,,,,,,,,0,56,56,56,,,,,,,,,,,,,,,,,,,,,,,,,,,,,,,,,,,,,main,k,k,1,0.6332192998379469,390.6762121003121,None,None,0,,,,,,,,,,,,,,133,22,Female,2022-05-31_16h10.12.402,Parachute,2022.1.1,60.00121210356404,
positive,blue,1,k,None,,,,,,,,,0,57,57,57,,,,,,,,,,,,,,,,,,,,,,,,,,,,,,,,,,,,,main,None,None,1,1.0337276002392173,392.30949839996174,None,None,1,,,,,,,,,,,,,,133,22,Female,2022-05-31_16h10.12.402,Parachute,2022.1.1,60.00121210356404,
positive,blue,1,k,None,,,,,,,,,0,58,58,58,,,,,,,,,,,,,,,,,,,,,,,,,,,,,,,,,,,,,main,None,k,0,1.5091542000882328,394.3458724003285,None,None,1,,,,,,,,,,,,,,133,22,Female,2022-05-31_16h10.12.402,Parachute,2022.1.1,60.00121210356404,
negative,yellow,2,k,None,,,,,,,,,0,59,59,59,,,,,,,,,,,,,,,,,,,,,,,,,,,,,,,,,,,,,main,None,None,1,1.5027695000171661,397.85497129987925,None,None,1,,,,,,,,,,,,,,133,22,Female,2022-05-31_16h10.12.402,Parachute,2022.1.1,60.00121210356404,
positive,red,2,None,None,,,,,,,,,0,60,60,60,,,,,,,,,,,,,,,,,,,,,,,,,,,,,,,,,,,,,main,None,None,1,1.497618599794805,400.3571759001352,None,None,1,,,,,,,,,,,,,,133,22,Female,2022-05-31_16h10.12.402,Parachute,2022.1.1,60.00121210356404,
negative,yellow,1,k,None,,,,,,,,,0,61,61,61,,,,,,,,,,,,,,,,,,,,,,,,,,,,,,,,,,,,,main,None,None,1,1.498830699827522,402.855025799945,None,None,1,,,,,,,,,,,,,,133,22,Female,2022-05-31_16h10.12.402,Parachute,2022.1.1,60.00121210356404,
negative,red,1,None,None,,,,,,,,,0,62,62,62,,,,,,,,,,,,,,,,,,,,,,,,,,,,,,,,,,,,,main,None,None,1,1.4991283002309501,405.3554179999046,None,None,1,,,,,,,,,,,,,,133,22,Female,2022-05-31_16h10.12.402,Parachute,2022.1.1,60.00121210356404,
negative,blue,1,None,k,,,,,,,,,0,63,63,63,,,,,,,,,,,,,,,,,,,,,,,,,,,,,,,,,,,,,main,k,k,1,1.0847825999371707,407.85595800029114,None,None,0,,,,,,,,,,,,,,133,22,Female,2022-05-31_16h10.12.402,Parachute,2022.1.1,60.00121210356404,
positive,blue,2,k,None,,,,,,,,,0,64,64,64,,,,,,,,,,,,,,,,,,,,,,,,,,,,,,,,,,,,,main,None,None,1,1.4959040000103414,409.9429449001327,None,None,1,,,,,,,,,,,,,,133,22,Female,2022-05-31_16h10.12.402,Parachute,2022.1.1,60.00121210356404,
negative,yellow,2,k,None,,,,,,,,,0,65,65,65,,,,,,,,,,,,,,,,,,,,,,,,,,,,,,,,,,,,,main,None,None,1,1.4983341000042856,412.43924059998244,None,None,1,,,,,,,,,,,,,,133,22,Female,2022-05-31_16h10.12.402,Parachute,2022.1.1,60.00121210356404,
positive,yellow,2,None,k,,,,,,,,,0,66,66,66,,,,,,,,,,,,,,,,,,,,,,,,,,,,,,,,,,,,,main,k,k,1,0.8033386999741197,414.9397064000368,None,None,0,,,,,,,,,,,,,,133,22,Female,2022-05-31_16h10.12.402,Parachute,2022.1.1,60.00121210356404,
positive,yellow,2,None,k,,,,,,,,,0,67,67,67,,,,,,,,,,,,,,,,,,,,,,,,,,,,,,,,,,,,,main,k,k,1,0.8321862001903355,416.7439410001971,None,None,0,,,,,,,,,,,,,,133,22,Female,2022-05-31_16h10.12.402,Parachute,2022.1.1,60.00121210356404,
positive,red,1,None,None,,,,,,,,,0,68,68,68,,,,,,,,,,,,,,,,,,,,,,,,,,,,,,,,,,,,,main,None,None,1,1.4935146998614073,418.58674379996955,None,None,1,,,,,,,,,,,,,,133,22,Female,2022-05-31_16h10.12.402,Parachute,2022.1.1,60.00121210356404,
positive,yellow,1,None,k,,,,,,,,,0,69,69,69,,,,,,,,,,,,,,,,,,,,,,,,,,,,,,,,,,,,,main,k,k,1,0.8868847996927798,421.07247250014916,None,None,0,,,,,,,,,,,,,,133,22,Female,2022-05-31_16h10.12.402,Parachute,2022.1.1,60.00121210356404,
negative,yellow,2,k,None,,,,,,,,,0,70,70,70,,,,,,,,,,,,,,,,,,,,,,,,,,,,,,,,,,,,,main,None,None,1,1.4935944001190364,422.96078879991546,None,None,1,,,,,,,,,,,,,,133,22,Female,2022-05-31_16h10.12.402,Parachute,2022.1.1,60.00121210356404,
positive,yellow,1,None,k,,,,,,,,,0,71,71,71,,,,,,,,,,,,,,,,,,,,,,,,,,,,,,,,,,,,,main,k,k,1,0.7364353002049029,425.45692740008235,None,None,0,,,,,,,,,,,,,,133,22,Female,2022-05-31_16h10.12.402,Parachute,2022.1.1,60.00121210356404,
negative,blue,1,None,k,,,,,,,,,0,72,72,72,,,,,,,,,,,,,,,,,,,,,,,,,,,,,,,,,,,,,main,k,k,1,0.7816357999108732,427.1941692000255,None,None,0,,,,,,,,,,,,,,133,22,Female,2022-05-31_16h10.12.402,Parachute,2022.1.1,60.00121210356404,
negative,red,2,None,None,,,,,,,,,0,73,73,73,,,,,,,,,,,,,,,,,,,,,,,,,,,,,,,,,,,,,main,None,None,1,1.494594800285995,428.9770316001959,None,None,1,,,,,,,,,,,,,,133,22,Female,2022-05-31_16h10.12.402,Parachute,2022.1.1,60.00121210356404,
positive,blue,2,k,None,,,,,,,,,0,74,74,74,,,,,,,,,,,,,,,,,,,,,,,,,,,,,,,,,,,,,main,None,None,1,1.4990330003201962,431.4740281999111,None,None,1,,,,,,,,,,,,,,133,22,Female,2022-05-31_16h10.12.402,Parachute,2022.1.1,60.00121210356404,
negative,blue,2,None,k,,,,,,,,,0,75,75,75,,,,,,,,,,,,,,,,,,,,,,,,,,,,,,,,,,,,,main,k,k,1,0.96887920005247,433.97305720020086,None,None,0,,,,,,,,,,,,,,133,22,Female,2022-05-31_16h10.12.402,Parachute,2022.1.1,60.00121210356404,
negative,blue,2,None,k,,,,,,,,,0,76,76,76,,,,,,,,,,,,,,,,,,,,,,,,,,,,,,,,,,,,,main,k,k,1,1.1102495002560318,435.94374740030617,None,None,0,,,,,,,,,,,,,,133,22,Female,2022-05-31_16h10.12.402,Parachute,2022.1.1,60.00121210356404,
negative,yellow,1,k,None,,,,,,,,,0,77,77,77,,,,,,,,,,,,,,,,,,,,,,,,,,,,,,,,,,,,,main,None,None,1,1.4996815002523363,438.05582940019667,None,None,1,,,,,,,,,,,,,,133,22,Female,2022-05-31_16h10.12.402,Parachute,2022.1.1,60.00121210356404,
positive,blue,1,k,None,,,,,,,,,0,78,78,78,,,,,,,,,,,,,,,,,,,,,,,,,,,,,,,,,,,,,main,None,None,1,1.4988780999556184,440.55593840032816,None,None,1,,,,,,,,,,,,,,133,22,Female,2022-05-31_16h10.12.402,Parachute,2022.1.1,60.00121210356404,
positive,blue,1,k,None,,,,,,,,,0,79,79,79,,,,,,,,,,,,,,,,,,,,,,,,,,,,,,,,,,,,,main,None,None,1,1.4989117002114654,443.05580520024523,None,None,1,,,,,,,,,,,,,,133,22,Female,2022-05-31_16h10.12.402,Parachute,2022.1.1,60.00121210356404,
positive,red,2,None,None,,,,,,,,,0,80,80,80,,,,,,,,,,,,,,,,,,,,,,,,,,,,,,,,,,,,,main,None,None,1,1.4985275999642909,445.55633730022237,None,None,1,,,,,,,,,,,,,,133,22,Female,2022-05-31_16h10.12.402,Parachute,2022.1.1,60.00121210356404,
positive,yellow,2,None,k,,,,,,,,,0,81,81,81,,,,,,,,,,,,,,,,,,,,,,,,,,,,,,,,,,,,,main,k,k,1,0.8356260000728071,448.05654740007594,None,None,0,,,,,,,,,,,,,,133,22,Female,2022-05-31_16h10.12.402,Parachute,2022.1.1,60.00121210356404,
positive,blue,1,k,None,,,,,,,,,0,82,82,82,,,,,,,,,,,,,,,,,,,,,,,,,,,,,,,,,,,,,main,None,None,1,1.4951063003391027,449.89365850016475,None,None,1,,,,,,,,,,,,,,133,22,Female,2022-05-31_16h10.12.402,Parachute,2022.1.1,60.00121210356404,
negative,yellow,2,k,None,,,,,,,,,0,83,83,83,,,,,,,,,,,,,,,,,,,,,,,,,,,,,,,,,,,,,main,None,None,1,1.4988987003453076,452.39033000031486,None,None,1,,,,,,,,,,,,,,133,22,Female,2022-05-31_16h10.12.402,Parachute,2022.1.1,60.00121210356404,
positive,blue,2,k,None,,,,,,,,,0,84,84,84,,,,,,,,,,,,,,,,,,,,,,,,,,,,,,,,,,,,,main,None,None,1,1.4990626997314394,454.8898724000901,None,None,1,,,,,,,,,,,,,,133,22,Female,2022-05-31_16h10.12.402,Parachute,2022.1.1,60.00121210356404,
positive,yellow,1,None,k,,,,,,,,,0,85,85,85,,,,,,,,,,,,,,,,,,,,,,,,,,,,,,,,,,,,,main,k,k,1,1.187098199967295,457.3901876001619,None,None,0,,,,,,,,,,,,,,133,22,Female,2022-05-31_16h10.12.402,Parachute,2022.1.1,60.00121210356404,
positive,blue,2,k,None,,,,,,,,,0,86,86,86,,,,,,,,,,,,,,,,,,,,,,,,,,,,,,,,,,,,,main,None,None,1,1.4930819999426603,459.5880474001169,None,None,1,,,,,,,,,,,,,,133,22,Female,2022-05-31_16h10.12.402,Parachute,2022.1.1,60.00121210356404,
positive,blue,1,k,None,,,,,,,,,0,87,87,87,,,,,,,,,,,,,,,,,,,,,,,,,,,,,,,,,,,,,main,None,None,1,1.499476999975741,462.07331490004435,None,None,1,,,,,,,,,,,,,,133,22,Female,2022-05-31_16h10.12.402,Parachute,2022.1.1,60.00121210356404,
negative,yellow,2,k,None,,,,,,,,,0,88,88,88,,,,,,,,,,,,,,,,,,,,,,,,,,,,,,,,,,,,,main,None,None,1,1.4982139002531767,464.57444870006293,None,None,1,,,,,,,,,,,,,,133,22,Female,2022-05-31_16h10.12.402,Parachute,2022.1.1,60.00121210356404,
negative,blue,2,None,k,,,,,,,,,0,89,89,89,,,,,,,,,,,,,,,,,,,,,,,,,,,,,,,,,,,,,main,k,k,1,0.8366423002444208,467.07414240017533,None,None,0,,,,,,,,,,,,,,133,22,Female,2022-05-31_16h10.12.402,Parachute,2022.1.1,60.00121210356404,
positive,yellow,2,None,k,,,,,,,,,0,90,90,90,,,,,,,,,,,,,,,,,,,,,,,,,,,,,,,,,,,,,main,k,k,1,0.6989854001440108,468.9115949003026,None,None,0,,,,,,,,,,,,,,133,22,Female,2022-05-31_16h10.12.402,Parachute,2022.1.1,60.00121210356404,
negative,yellow,1,k,None,,,,,,,,,0,91,91,91,,,,,,,,,,,,,,,,,,,,,,,,,,,,,,,,,,,,,main,None,None,1,1.493248200044036,470.6213752999902,None,None,1,,,,,,,,,,,,,,133,22,Female,2022-05-31_16h10.12.402,Parachute,2022.1.1,60.00121210356404,
negative,red,2,None,None,,,,,,,,,0,92,92,92,,,,,,,,,,,,,,,,,,,,,,,,,,,,,,,,,,,,,main,None,None,1,1.4992386000230908,473.10654830001295,None,None,1,,,,,,,,,,,,,,133,22,Female,2022-05-31_16h10.12.402,Parachute,2022.1.1,60.00121210356404,
negative,blue,2,None,k,,,,,,,,,0,93,93,93,,,,,,,,,,,,,,,,,,,,,,,,,,,,,,,,,,,,,main,k,k,1,1.001537499949336,475.60709320008755,None,None,0,,,,,,,,,,,,,,133,22,Female,2022-05-31_16h10.12.402,Parachute,2022.1.1,60.00121210356404,
negative,blue,1,None,k,,,,,,,,,0,94,94,94,,,,,,,,,,,,,,,,,,,,,,,,,,,,,,,,,,,,,main,k,k,1,0.7979231998324394,477.61119939992204,None,None,0,,,,,,,,,,,,,,133,22,Female,2022-05-31_16h10.12.402,Parachute,2022.1.1,60.00121210356404,
negative,blue,1,None,k,,,,,,,,,0,95,95,95,,,,,,,,,,,,,,,,,,,,,,,,,,,,,,,,,,,,,main,k,k,1,0.567132799886167,479.411040100269,None,None,0,,,,,,,,,,,,,,133,22,Female,2022-05-31_16h10.12.402,Parachute,2022.1.1,60.00121210356404,
negative,red,1,None,None,,,,,,,,,0,96,96,96,,,,,,,,,,,,,,,,,,,,,,,,,,,,,,,,,,,,,main,None,None,1,1.4935863995924592,480.9787844000384,None,None,1,,,,,,,,,,,,,,133,22,Female,2022-05-31_16h10.12.402,Parachute,2022.1.1,60.00121210356404,
positive,yellow,1,None,k,,,,,,,,,0,97,97,97,,,,,,,,,,,,,,,,,,,,,,,,,,,,,,,,,,,,,main,k,k,1,0.7209724001586437,483.4745717002079,None,None,0,,,,,,,,,,,,,,133,22,Female,2022-05-31_16h10.12.402,Parachute,2022.1.1,60.00121210356404,
negative,yellow,1,k,None,,,,,,,,,0,98,98,98,,,,,,,,,,,,,,,,,,,,,,,,,,,,,,,,,,,,,main,None,None,1,1.493665900081396,485.2052178001031,None,None,1,,,,,,,,,,,,,,133,22,Female,2022-05-31_16h10.12.402,Parachute,2022.1.1,60.00121210356404,
positive,red,1,None,None,,,,,,,,,0,99,99,99,,,,,,,,,,,,,,,,,,,,,,,,,,,,,,,,,,,,,main,None,None,1,1.498671599663794,487.6906628999859,None,None,1,,,,,,,,,,,,,,133,22,Female,2022-05-31_16h10.12.402,Parachute,2022.1.1,60.00121210356404,
positive,blue,1,k,None,,,,,,,,,0,100,100,100,,,,,,,,,,,,,,,,,,,,,,,,,,,,,,,,,,,,,main,None,None,1,1.4984820997342467,490.1907317000441,None,None,1,,,,,,,,,,,,,,133,22,Female,2022-05-31_16h10.12.402,Parachute,2022.1.1,60.00121210356404,
negative,yellow,1,k,None,,,,,,,,,0,101,101,101,,,,,,,,,,,,,,,,,,,,,,,,,,,,,,,,,,,,,main,None,k,0,0.8206428997218609,492.69034310011193,None,None,1,,,,,,,,,,,,,,133,22,Female,2022-05-31_16h10.12.402,Parachute,2022.1.1,60.00121210356404,
negative,blue,2,None,k,,,,,,,,,0,102,102,102,,,,,,,,,,,,,,,,,,,,,,,,,,,,,,,,,,,,,main,k,k,1,0.6337268003262579,495.5239893998951,None,None,0,,,,,,,,,,,,,,133,22,Female,2022-05-31_16h10.12.402,Parachute,2022.1.1,60.00121210356404,
negative,yellow,2,k,None,,,,,,,,,0,103,103,103,,,,,,,,,,,,,,,,,,,,,,,,,,,,,,,,,,,,,main,None,None,1,1.4997185999527574,497.1567673999816,None,None,1,,,,,,,,,,,,,,133,22,Female,2022-05-31_16h10.12.402,Parachute,2022.1.1,60.00121210356404,
positive,yellow,2,None,k,,,,,,,,,0,104,104,104,,,,,,,,,,,,,,,,,,,,,,,,,,,,,,,,,,,,,main,k,k,1,0.7534617003984749,499.65710599999875,None,None,0,,,,,,,,,,,,,,133,22,Female,2022-05-31_16h10.12.402,Parachute,2022.1.1,60.00121210356404,
positive,blue,1,k,None,,,,,,,,,0,105,105,105,,,,,,,,,,,,,,,,,,,,,,,,,,,,,,,,,,,,,main,None,None,1,1.4937966000288725,501.4126232000999,None,None,1,,,,,,,,,,,,,,133,22,Female,2022-05-31_16h10.12.402,Parachute,2022.1.1,60.00121210356404,
positive,blue,2,k,None,,,,,,,,,0,106,106,106,,,,,,,,,,,,,,,,,,,,,,,,,,,,,,,,,,,,,main,None,None,1,1.4988349000923336,503.907156100031,None,None,1,,,,,,,,,,,,,,133,22,Female,2022-05-31_16h10.12.402,Parachute,2022.1.1,60.00121210356404,
negative,blue,1,None,k,,,,,,,,,0,107,107,107,,,,,,,,,,,,,,,,,,,,,,,,,,,,,,,,,,,,,main,k,k,1,0.6806573998183012,506.4072555000894,None,None,0,,,,,,,,,,,,,,133,22,Female,2022-05-31_16h10.12.402,Parachute,2022.1.1,60.00121210356404,
positive,yellow,2,None,k,,,,,,,,,0,108,108,108,,,,,,,,,,,,,,,,,,,,,,,,,,,,,,,,,,,,,main,k,k,1,0.7055367003194988,508.09039080003276,None,None,0,,,,,,,,,,,,,,133,22,Female,2022-05-31_16h10.12.402,Parachute,2022.1.1,60.00121210356404,
negative,yellow,1,k,None,,,,,,,,,0,109,109,109,,,,,,,,,,,,,,,,,,,,,,,,,,,,,,,,,,,,,main,None,None,1,1.4938960997387767,509.79625830007717,None,None,1,,,,,,,,,,,,,,133,22,Female,2022-05-31_16h10.12.402,Parachute,2022.1.1,60.00121210356404,
negative,blue,2,None,k,,,,,,,,,0,110,110,110,,,,,,,,,,,,,,,,,,,,,,,,,,,,,,,,,,,,,main,k,k,1,0.6968302000313997,512.2918433002196,None,None,0,,,,,,,,,,,,,,133,22,Female,2022-05-31_16h10.12.402,Parachute,2022.1.1,60.00121210356404,
positive,blue,2,k,None,,,,,,,,,0,111,111,111,,,,,,,,,,,,,,,,,,,,,,,,,,,,,,,,,,,,,main,None,None,1,1.5004114997573197,513.9906449001282,None,None,1,,,,,,,,,,,,,,133,22,Female,2022-05-31_16h10.12.402,Parachute,2022.1.1,60.00121210356404,
negative,blue,1,None,k,,,,,,,,,0,112,112,112,,,,,,,,,,,,,,,,,,,,,,,,,,,,,,,,,,,,,main,k,k,1,0.7369569996371865,516.4918142999522,None,None,0,,,,,,,,,,,,,,133,22,Female,2022-05-31_16h10.12.402,Parachute,2022.1.1,60.00121210356404,
positive,yellow,1,None,k,,,,,,,,,0,113,113,113,,,,,,,,,,,,,,,,,,,,,,,,,,,,,,,,,,,,,main,k,k,1,0.6491492995992303,518.2293314002454,None,None,0,,,,,,,,,,,,,,133,22,Female,2022-05-31_16h10.12.402,Parachute,2022.1.1,60.00121210356404,
negative,red,1,None,None,,,,,,,,,0,114,114,114,,,,,,,,,,,,,,,,,,,,,,,,,,,,,,,,,,,,,main,None,None,1,1.492858299985528,519.8890049001202,None,None,1,,,,,,,,,,,,,,133,22,Female,2022-05-31_16h10.12.402,Parachute,2022.1.1,60.00121210356404,
positive,red,1,None,None,,,,,,,,,0,115,115,115,,,,,,,,,,,,,,,,,,,,,,,,,,,,,,,,,,,,,main,None,None,1,1.498461399693042,522.3749788999557,None,None,1,,,,,,,,,,,,,,133,22,Female,2022-05-31_16h10.12.402,Parachute,2022.1.1,60.00121210356404,
negative,red,2,None,None,,,,,,,,,0,116,116,116,,,,,,,,,,,,,,,,,,,,,,,,,,,,,,,,,,,,,main,None,None,1,1.4993796003982425,524.874498500023,None,None,1,,,,,,,,,,,,,,133,22,Female,2022-05-31_16h10.12.402,Parachute,2022.1.1,60.00121210356404,
negative,yellow,2,k,None,,,,,,,,,0,117,117,117,,,,,,,,,,,,,,,,,,,,,,,,,,,,,,,,,,,,,main,None,None,1,1.498143299948424,527.3756597000174,None,None,1,,,,,,,,,,,,,,133,22,Female,2022-05-31_16h10.12.402,Parachute,2022.1.1,60.00121210356404,
positive,yellow,1,None,k,,,,,,,,,0,118,118,118,,,,,,,,,,,,,,,,,,,,,,,,,,,,,,,,,,,,,main,k,k,1,0.7872128002345562,529.874912600033,None,None,0,,,,,,,,,,,,,,133,22,Female,2022-05-31_16h10.12.402,Parachute,2022.1.1,60.00121210356404,
positive,red,2,None,None,,,,,,,,,0,119,119,119,,,,,,,,,,,,,,,,,,,,,,,,,,,,,,,,,,,,,main,None,None,1,1.4938154998235404,531.6629838002846,None,None,1,,,,,,,,,,,,,,133,22,Female,2022-05-31_16h10.12.402,Parachute,2022.1.1,60.00121210356404,
positive,blue,2,k,None,,,,,,,,,0,120,120,120,,,,,,,,,,,,,,,,,,,,,,,,,,,,,,,,,,,,,main,None,None,1,1.4984983000904322,534.1589069999754,None,None,1,,,,,,,,,,,,,,133,22,Female,2022-05-31_16h10.12.402,Parachute,2022.1.1,60.00121210356404,
negative,red,1,None,None,,,,,,,,,0,121,121,121,,,,,,,,,,,,,,,,,,,,,,,,,,,,,,,,,,,,,main,None,None,1,1.499618100002408,536.6577991000377,None,None,1,,,,,,,,,,,,,,133,22,Female,2022-05-31_16h10.12.402,Parachute,2022.1.1,60.00121210356404,
positive,yellow,2,None,k,,,,,,,,,0,122,122,122,,,,,,,,,,,,,,,,,,,,,,,,,,,,,,,,,,,,,main,k,k,1,0.7694470998831093,539.1596003999002,None,None,0,,,,,,,,,,,,,,133,22,Female,2022-05-31_16h10.12.402,Parachute,2022.1.1,60.00121210356404,
negative,red,2,None,None,,,,,,,,,0,123,123,123,,,,,,,,,,,,,,,,,,,,,,,,,,,,,,,,,,,,,main,None,None,1,1.4940446997061372,540.9296339000575,None,None,1,,,,,,,,,,,,,,133,22,Female,2022-05-31_16h10.12.402,Parachute,2022.1.1,60.00121210356404,
negative,yellow,2,k,None,,,,,,,,,0,124,124,124,,,,,,,,,,,,,,,,,,,,,,,,,,,,,,,,,,,,,main,None,None,1,1.4987764996476471,543.425280299969,None,None,1,,,,,,,,,,,,,,133,22,Female,2022-05-31_16h10.12.402,Parachute,2022.1.1,60.00121210356404,
positive,red,1,None,None,,,,,,,,,0,125,125,125,,,,,,,,,,,,,,,,,,,,,,,,,,,,,,,,,,,,,main,None,None,1,1.4979449999518692,545.926028800197,None,None,1,,,,,,,,,,,,,,133,22,Female,2022-05-31_16h10.12.402,Parachute,2022.1.1,60.00121210356404,
negative,blue,2,None,k,,,,,,,,,0,126,126,126,,,,,,,,,,,,,,,,,,,,,,,,,,,,,,,,,,,,,main,k,k,1,0.719758199993521,548.4255126002245,None,None,0,,,,,,,,,,,,,,133,22,Female,2022-05-31_16h10.12.402,Parachute,2022.1.1,60.00121210356404,
negative,blue,1,None,k,,,,,,,,,0,127,127,127,,,,,,,,,,,,,,,,,,,,,,,,,,,,,,,,,,,,,main,k,k,1,0.7656245999969542,550.1469676000997,None,None,0,,,,,,,,,,,,,,133,22,Female,2022-05-31_16h10.12.402,Parachute,2022.1.1,60.00121210356404,
negative,yellow,1,k,None,,,,,,,,,0,128,128,128,,,,,,,,,,,,,,,,,,,,,,,,,,,,,,,,,,,,,main,None,None,1,0.883703799918294,551.9134851000272,None,None,1,,,,,,,,,,,,,,133,22,Female,2022-05-31_16h10.12.402,Parachute,2022.1.1,60.00121210356404,
negative,yellow,1,k,None,,,,,,,,,0,129,129,129,,,,,,,,,,,,,,,,,,,,,,,,,,,,,,,,,,,,,main,None,k,0,1.5093764998018742,553.7969380998984,None,None,1,,,,,,,,,,,,,,133,22,Female,2022-05-31_16h10.12.402,Parachute,2022.1.1,60.00121210356404,
positive,blue,1,k,None,,,,,,,,,0,130,130,130,,,,,,,,,,,,,,,,,,,,,,,,,,,,,,,,,,,,,main,None,None,1,1.5024163997732103,557.3086294000968,None,None,1,,,,,,,,,,,,,,133,22,Female,2022-05-31_16h10.12.402,Parachute,2022.1.1,60.00121210356404,
negative,blue,1,None,k,,,,,,,,,0,131,131,131,,,,,,,,,,,,,,,,,,,,,,,,,,,,,,,,,,,,,main,k,k,1,0.7531856000423431,559.8101399000734,None,None,0,,,,,,,,,,,,,,133,22,Female,2022-05-31_16h10.12.402,Parachute,2022.1.1,60.00121210356404,
negative,blue,2,None,k,,,,,,,,,0,132,132,132,,,,,,,,,,,,,,,,,,,,,,,,,,,,,,,,,,,,,main,k,k,1,0.6992409997619689,561.5635810000822,None,None,0,,,,,,,,,,,,,,133,22,Female,2022-05-31_16h10.12.402,Parachute,2022.1.1,60.00121210356404,
positive,blue,2,k,None,,,,,,,,,0,133,133,133,,,,,,,,,,,,,,,,,,,,,,,,,,,,,,,,,,,,,main,None,None,1,1.4924055999144912,563.2641954999417,None,None,1,,,,,,,,,,,,,,133,22,Female,2022-05-31_16h10.12.402,Parachute,2022.1.1,60.00121210356404,
positive,red,2,None,None,,,,,,,,,0,134,134,134,,,,,,,,,,,,,,,,,,,,,,,,,,,,,,,,,,,,,main,None,None,1,1.4988247002474964,565.7589316000231,None,None,1,,,,,,,,,,,,,,133,22,Female,2022-05-31_16h10.12.402,Parachute,2022.1.1,60.00121210356404,
negative,yellow,2,k,None,,,,,,,,,0,135,135,135,,,,,,,,,,,,,,,,,,,,,,,,,,,,,,,,,,,,,main,None,None,1,1.4989243997260928,568.2584815002047,None,None,1,,,,,,,,,,,,,,133,22,Female,2022-05-31_16h10.12.402,Parachute,2022.1.1,60.00121210356404,
positive,yellow,2,None,k,,,,,,,,,0,136,136,136,,,,,,,,,,,,,,,,,,,,,,,,,,,,,,,,,,,,,main,k,k,1,3.847211899701506,570.7593307001516,None,None,0,,,,,,,,,,,,,,133,22,Female,2022-05-31_16h10.12.402,Parachute,2022.1.1,60.00121210356404,
positive,blue,1,k,None,,,,,,,,,0,137,137,137,,,,,,,,,,,,,,,,,,,,,,,,,,,,,,,,,,,,,main,None,None,1,1.5014261002652347,576.6259240000509,None,None,1,,,,,,,,,,,,,,133,22,Female,2022-05-31_16h10.12.402,Parachute,2022.1.1,60.00121210356404,
positive,yellow,1,None,k,,,,,,,,,0,138,138,138,,,,,,,,,,,,,,,,,,,,,,,,,,,,,,,,,,,,,main,k,k,1,0.8029847000725567,579.126524799969,None,None,0,,,,,,,,,,,,,,133,22,Female,2022-05-31_16h10.12.402,Parachute,2022.1.1,60.00121210356404,
positive,yellow,1,None,k,,,,,,,,,0,139,139,139,,,,,,,,,,,,,,,,,,,,,,,,,,,,,,,,,,,,,main,k,k,1,0.5980953997932374,580.9303787001409,None,None,0,,,,,,,,,,,,,,133,22,Female,2022-05-31_16h10.12.402,Parachute,2022.1.1,60.00121210356404,
positive,yellow,1,None,k,,,,,,,,,0,140,140,140,,,,,,,,,,,,,,,,,,,,,,,,,,,,,,,,,,,,,main,k,k,1,0.5431756000034511,582.5308048003353,None,None,0,,,,,,,,,,,,,,133,22,Female,2022-05-31_16h10.12.402,Parachute,2022.1.1,60.00121210356404,
positive,blue,1,k,None,,,,,,,,,0,141,141,141,,,,,,,,,,,,,,,,,,,,,,,,,,,,,,,,,,,,,main,None,None,1,0.7896450003609061,584.0754677001387,None,None,1,,,,,,,,,,,,,,133,22,Female,2022-05-31_16h10.12.402,Parachute,2022.1.1,60.00121210356404,
positive,blue,2,k,None,,,,,,,,,0,142,142,142,,,,,,,,,,,,,,,,,,,,,,,,,,,,,,,,,,,,,main,None,k,0,1.5093609001487494,585.8648820002563,None,None,1,,,,,,,,,,,,,,133,22,Female,2022-05-31_16h10.12.402,Parachute,2022.1.1,60.00121210356404,
positive,yellow,2,None,k,,,,,,,,,0,143,143,143,,,,,,,,,,,,,,,,,,,,,,,,,,,,,,,,,,,,,main,k,k,1,0.7905274997465312,589.3762143002823,None,None,0,,,,,,,,,,,,,,133,22,Female,2022-05-31_16h10.12.402,Parachute,2022.1.1,60.00121210356404,
negative,yellow,2,k,None,,,,,,,,,0,144,144,144,,,,,,,,,,,,,,,,,,,,,,,,,,,,,,,,,,,,,main,None,None,1,0.9502844996750355,591.1640302003361,None,None,1,,,,,,,,,,,,,,133,22,Female,2022-05-31_16h10.12.402,Parachute,2022.1.1,60.00121210356404,
negative,blue,2,None,k,,,,,,,,,0,145,145,145,,,,,,,,,,,,,,,,,,,,,,,,,,,,,,,,,,,,,main,k,k,1,0.8470816002227366,593.1165327001363,None,None,0,,,,,,,,,,,,,,133,22,Female,2022-05-31_16h10.12.402,Parachute,2022.1.1,60.00121210356404,
negative,red,1,None,None,,,,,,,,,0,146,146,146,,,,,,,,,,,,,,,,,,,,,,,,,,,,,,,,,,,,,main,None,None,1,1.4935709000565112,594.9644802003168,None,None,1,,,,,,,,,,,,,,133,22,Female,2022-05-31_16h10.12.402,Parachute,2022.1.1,60.00121210356404,
positive,blue,1,k,None,,,,,,,,,0,147,147,147,,,,,,,,,,,,,,,,,,,,,,,,,,,,,,,,,,,,,main,None,None,1,1.4987043999135494,597.4599195001647,None,None,1,,,,,,,,,,,,,,133,22,Female,2022-05-31_16h10.12.402,Parachute,2022.1.1,60.00121210356404,
positive,yellow,1,None,k,,,,,,,,,0,148,148,148,,,,,,,,,,,,,,,,,,,,,,,,,,,,,,,,,,,,,main,k,k,1,1.2201073998585343,599.959988700226,None,None,0,,,,,,,,,,,,,,133,22,Female,2022-05-31_16h10.12.402,Parachute,2022.1.1,60.00121210356404,
negative,red,2,None,None,,,,,,,,,0,149,149,149,,,,,,,,,,,,,,,,,,,,,,,,,,,,,,,,,,,,,main,None,k,0,1.4320037001743913,602.1810242999345,None,None,1,,,,,,,,,,,,,,133,22,Female,2022-05-31_16h10.12.402,Parachute,2022.1.1,60.00121210356404,
negative,blue,1,None,k,,,,,,,,,0,150,150,150,,,,,,,,,,,,,,,,,,,,,,,,,,,,,,,,,,,,,main,k,k,1,1.1375171998515725,605.6263235001825,None,None,0,,,,,,,,,,,,,,133,22,Female,2022-05-31_16h10.12.402,Parachute,2022.1.1,60.00121210356404,
negative,yellow,2,k,None,,,,,,,,,0,151,151,151,,,,,,,,,,,,,,,,,,,,,,,,,,,,,,,,,,,,,main,None,None,1,1.497099599801004,607.7628840003163,None,None,1,,,,,,,,,,,,,,133,22,Female,2022-05-31_16h10.12.402,Parachute,2022.1.1,60.00121210356404,
negative,blue,2,None,k,,,,,,,,,0,152,152,152,,,,,,,,,,,,,,,,,,,,,,,,,,,,,,,,,,,,,main,k,k,1,1.936427399981767,610.2612204998732,None,None,0,,,,,,,,,,,,,,133,22,Female,2022-05-31_16h10.12.402,Parachute,2022.1.1,60.00121210356404,
negative,yellow,1,k,None,,,,,,,,,0,153,153,153,,,,,,,,,,,,,,,,,,,,,,,,,,,,,,,,,,,,,main,None,None,1,1.5027697999030352,614.209681800101,None,None,1,,,,,,,,,,,,,,133,22,Female,2022-05-31_16h10.12.402,Parachute,2022.1.1,60.00121210356404,
negative,blue,1,None,k,,,,,,,,,0,154,154,154,,,,,,,,,,,,,,,,,,,,,,,,,,,,,,,,,,,,,main,k,k,1,2.6518682995811105,616.7120898002759,None,None,0,,,,,,,,,,,,,,133,22,Female,2022-05-31_16h10.12.402,Parachute,2022.1.1,60.00121210356404,
positive,yellow,2,None,k,,,,,,,,,0,155,155,155,,,,,,,,,,,,,,,,,,,,,,,,,,,,,,,,,,,,,main,k,k,1,0.7239469001069665,621.3766242000274,None,None,0,,,,,,,,,,,,,,133,22,Female,2022-05-31_16h10.12.402,Parachute,2022.1.1,60.00121210356404,
positive,red,2,None,None,,,,,,,,,0,156,156,156,,,,,,,,,,,,,,,,,,,,,,,,,,,,,,,,,,,,,main,None,None,1,1.4926156997680664,623.0980773000047,None,None,1,,,,,,,,,,,,,,133,22,Female,2022-05-31_16h10.12.402,Parachute,2022.1.1,60.00121210356404,
positive,red,1,None,None,,,,,,,,,0,157,157,157,,,,,,,,,,,,,,,,,,,,,,,,,,,,,,,,,,,,,main,None,None,1,1.4991747001186013,625.5938996002078,None,None,1,,,,,,,,,,,,,,133,22,Female,2022-05-31_16h10.12.402,Parachute,2022.1.1,60.00121210356404,
positive,blue,2,k,None,,,,,,,,,0,158,158,158,,,,,,,,,,,,,,,,,,,,,,,,,,,,,,,,,,,,,main,None,None,1,1.498593700118363,628.0943501000293,None,None,1,,,,,,,,,,,,,,133,22,Female,2022-05-31_16h10.12.402,Parachute,2022.1.1,60.00121210356404,
negative,yellow,1,k,None,,,,,,,,,0,159,159,159,,,,,,,,,,,,,,,,,,,,,,,,,,,,,,,,,,,,,main,None,None,1,1.498665299732238,630.5940602002665,None,None,1,,,,,,,,,,,,,,133,22,Female,2022-05-31_16h10.12.402,Parachute,2022.1.1,60.00121210356404,
negative,red,2,None,None,,,,,,,,,0,160,160,160,,,,,,,,,,,,,,,,,,,,,,,,,,,,,,,,,,,,,main,None,None,1,1.4976224000565708,633.0942595000379,None,None,1,,,,,,,,,,,,,,133,22,Female,2022-05-31_16h10.12.402,Parachute,2022.1.1,60.00121210356404,
negative,blue,1,None,k,,,,,,,,,0,161,161,161,,,,,,,,,,,,,,,,,,,,,,,,,,,,,,,,,,,,,main,k,k,1,0.7382324999198318,635.5938675999641,None,None,0,,,,,,,,,,,,,,133,22,Female,2022-05-31_16h10.12.402,Parachute,2022.1.1,60.00121210356404,
negative,blue,1,None,k,,,,,,,,,0,162,162,162,,,,,,,,,,,,,,,,,,,,,,,,,,,,,,,,,,,,,main,k,k,1,1.2981393998488784,637.3320384002291,None,None,0,,,,,,,,,,,,,,133,22,Female,2022-05-31_16h10.12.402,Parachute,2022.1.1,60.00121210356404,
negative,yellow,1,k,None,,,,,,,,,0,163,163,163,,,,,,,,,,,,,,,,,,,,,,,,,,,,,,,,,,,,,main,None,None,1,1.4933198001235723,639.6316852001473,None,None,1,,,,,,,,,,,,,,133,22,Female,2022-05-31_16h10.12.402,Parachute,2022.1.1,60.00121210356404,
negative,yellow,1,k,None,,,,,,,,,0,164,164,164,,,,,,,,,,,,,,,,,,,,,,,,,,,,,,,,,,,,,main,None,None,1,1.4986123996786773,642.1273723999038,None,None,1,,,,,,,,,,,,,,133,22,Female,2022-05-31_16h10.12.402,Parachute,2022.1.1,60.00121210356404,
positive,yellow,1,None,k,,,,,,,,,0,165,165,165,,,,,,,,,,,,,,,,,,,,,,,,,,,,,,,,,,,,,main,k,k,1,0.8037296002730727,644.6276132999919,None,None,0,,,,,,,,,,,,,,133,22,Female,2022-05-31_16h10.12.402,Parachute,2022.1.1,60.00121210356404,
negative,red,1,None,None,,,,,,,,,0,166,166,166,,,,,,,,,,,,,,,,,,,,,,,,,,,,,,,,,,,,,main,None,None,1,1.4933495000004768,646.4318377003074,None,None,1,,,,,,,,,,,,,,133,22,Female,2022-05-31_16h10.12.402,Parachute,2022.1.1,60.00121210356404,
negative,yellow,2,k,None,,,,,,,,,0,167,167,167,,,,,,,,,,,,,,,,,,,,,,,,,,,,,,,,,,,,,main,None,None,1,1.4989144997671247,648.92703599995,None,None,1,,,,,,,,,,,,,,133,22,Female,2022-05-31_16h10.12.402,Parachute,2022.1.1,60.00121210356404,
positive,blue,2,k,None,,,,,,,,,0,168,168,168,,,,,,,,,,,,,,,,,,,,,,,,,,,,,,,,,,,,,main,None,None,1,1.4985972000285983,651.4274575999007,None,None,1,,,,,,,,,,,,,,133,22,Female,2022-05-31_16h10.12.402,Parachute,2022.1.1,60.00121210356404,
positive,red,2,None,None,,,,,,,,,0,169,169,169,,,,,,,,,,,,,,,,,,,,,,,,,,,,,,,,,,,,,main,None,None,1,1.5072872997261584,653.9275205000304,None,None,1,,,,,,,,,,,,,,133,22,Female,2022-05-31_16h10.12.402,Parachute,2022.1.1,60.00121210356404,
positive,red,1,None,None,,,,,,,,,0,170,170,170,,,,,,,,,,,,,,,,,,,,,,,,,,,,,,,,,,,,,main,None,None,1,1.5036688004620373,656.4429597998969,None,None,1,,,,,,,,,,,,,,133,22,Female,2022-05-31_16h10.12.402,Parachute,2022.1.1,60.00121210356404,
negative,blue,2,None,k,,,,,,,,,0,171,171,171,,,,,,,,,,,,,,,,,,,,,,,,,,,,,,,,,,,,,main,k,k,1,0.7433430999517441,658.9454981000163,None,None,0,,,,,,,,,,,,,,133,22,Female,2022-05-31_16h10.12.402,Parachute,2022.1.1,60.00121210356404,
positive,blue,2,k,None,,,,,,,,,0,172,172,172,,,,,,,,,,,,,,,,,,,,,,,,,,,,,,,,,,,,,main,None,None,1,1.502526399679482,660.6911690002307,None,None,1,,,,,,,,,,,,,,133,22,Female,2022-05-31_16h10.12.402,Parachute,2022.1.1,60.00121210356404,
negative,yellow,2,k,None,,,,,,,,,0,173,173,173,,,,,,,,,,,,,,,,,,,,,,,,,,,,,,,,,,,,,main,None,None,1,1.4974452001042664,663.1968634002842,None,None,1,,,,,,,,,,,,,,133,22,Female,2022-05-31_16h10.12.402,Parachute,2022.1.1,60.00121210356404,
positive,yellow,2,None,k,,,,,,,,,0,174,174,174,,,,,,,,,,,,,,,,,,,,,,,,,,,,,,,,,,,,,main,k,k,1,1.019954000134021,665.6947460998781,None,None,0,,,,,,,,,,,,,,133,22,Female,2022-05-31_16h10.12.402,Parachute,2022.1.1,60.00121210356404,
negative,blue,2,None,k,,,,,,,,,0,175,175,175,,,,,,,,,,,,,,,,,,,,,,,,,,,,,,,,,,,,,main,k,k,1,0.6592672001570463,667.7159939003177,None,None,0,,,,,,,,,,,,,,133,22,Female,2022-05-31_16h10.12.402,Parachute,2022.1.1,60.00121210356404,
positive,blue,1,k,None,,,,,,,,,0,176,176,176,,,,,,,,,,,,,,,,,,,,,,,,,,,,,,,,,,,,,main,None,None,1,1.5015082000754774,669.3773556002416,None,None,1,,,,,,,,,,,,,,133,22,Female,2022-05-31_16h10.12.402,Parachute,2022.1.1,60.00121210356404,
positive,yellow,1,None,k,,,,,,,,,0,177,177,177,,,,,,,,,,,,,,,,,,,,,,,,,,,,,,,,,,,,,main,k,k,1,0.6655504000373185,671.8811507001519,None,None,0,,,,,,,,,,,,,,133,22,Female,2022-05-31_16h10.12.402,Parachute,2022.1.1,60.00121210356404,
positive,blue,1,k,None,,,,,,,,,0,178,178,178,,,,,,,,,,,,,,,,,,,,,,,,,,,,,,,,,,,,,main,None,None,1,1.4964219997636974,673.5482172002085,None,None,1,,,,,,,,,,,,,,133,22,Female,2022-05-31_16h10.12.402,Parachute,2022.1.1,60.00121210356404,
positive,yellow,2,None,k,,,,,,,,,0,179,179,179,,,,,,,,,,,,,,,,,,,,,,,,,,,,,,,,,,,,,main,k,k,1,0.9049736997112632,676.0451851999387,None,None,0,,,,,,,,,,,,,,133,22,Female,2022-05-31_16h10.12.402,Parachute,2022.1.1,60.00121210356404,
positive,blue,1,k,None,,,,,,,,,0,180,180,180,,,,,,,,,,,,,,,,,,,,,,,,,,,,,,,,,,,,,main,None,None,1,1.5085271000862122,677.9531320002861,None,None,1,,,,,,,,,,,,,,133,22,Female,2022-05-31_16h10.12.402,Parachute,2022.1.1,60.00121210356404,
negative,red,1,None,None,,,,,,,,,0,181,181,181,,,,,,,,,,,,,,,,,,,,,,,,,,,,,,,,,,,,,main,None,None,1,1.4984621000476182,680.46158439992,None,None,1,,,,,,,,,,,,,,133,22,Female,2022-05-31_16h10.12.402,Parachute,2022.1.1,60.00121210356404,
negative,blue,1,None,k,,,,,,,,,0,182,182,182,,,,,,,,,,,,,,,,,,,,,,,,,,,,,,,,,,,,,main,k,k,1,1.420521799940616,682.9617312001064,None,None,0,,,,,,,,,,,,,,133,22,Female,2022-05-31_16h10.12.402,Parachute,2022.1.1,60.00121210356404,
negative,yellow,2,k,None,,,,,,,,,0,183,183,183,,,,,,,,,,,,,,,,,,,,,,,,,,,,,,,,,,,,,main,None,None,1,1.493551699910313,685.3829167000949,None,None,1,,,,,,,,,,,,,,133,22,Female,2022-05-31_16h10.12.402,Parachute,2022.1.1,60.00121210356404,
positive,yellow,2,None,k,,,,,,,,,0,184,184,184,,,,,,,,,,,,,,,,,,,,,,,,,,,,,,,,,,,,,main,k,k,1,0.6165836998261511,687.8783968002535,None,None,0,,,,,,,,,,,,,,133,22,Female,2022-05-31_16h10.12.402,Parachute,2022.1.1,60.00121210356404,
positive,yellow,1,None,k,,,,,,,,,0,185,185,185,,,,,,,,,,,,,,,,,,,,,,,,,,,,,,,,,,,,,main,k,k,1,1.1123007000423968,689.4969983999617,None,None,0,,,,,,,,,,,,,,133,22,Female,2022-05-31_16h10.12.402,Parachute,2022.1.1,60.00121210356404,
positive,red,2,None,None,,,,,,,,,0,186,186,186,,,,,,,,,,,,,,,,,,,,,,,,,,,,,,,,,,,,,main,None,None,1,1.5001209997572005,691.6110343001783,None,None,1,,,,,,,,,,,,,,133,22,Female,2022-05-31_16h10.12.402,Parachute,2022.1.1,60.00121210356404,
positive,blue,1,k,None,,,,,,,,,0,187,187,187,,,,,,,,,,,,,,,,,,,,,,,,,,,,,,,,,,,,,main,None,None,1,1.4988894001580775,694.1119790999219,None,None,1,,,,,,,,,,,,,,133,22,Female,2022-05-31_16h10.12.402,Parachute,2022.1.1,60.00121210356404,
negative,yellow,1,k,None,,,,,,,,,0,188,188,188,,,,,,,,,,,,,,,,,,,,,,,,,,,,,,,,,,,,,main,None,None,1,1.498531499877572,696.6122590000741,None,None,1,,,,,,,,,,,,,,133,22,Female,2022-05-31_16h10.12.402,Parachute,2022.1.1,60.00121210356404,
positive,yellow,2,None,k,,,,,,,,,0,189,189,189,,,,,,,,,,,,,,,,,,,,,,,,,,,,,,,,,,,,,main,k,k,1,0.836780299898237,699.1119997003116,None,None,0,,,,,,,,,,,,,,133,22,Female,2022-05-31_16h10.12.402,Parachute,2022.1.1,60.00121210356404,
negative,yellow,2,k,None,,,,,,,,,0,190,190,190,,,,,,,,,,,,,,,,,,,,,,,,,,,,,,,,,,,,,main,None,None,1,1.4936877000145614,700.9497194001451,None,None,1,,,,,,,,,,,,,,133,22,Female,2022-05-31_16h10.12.402,Parachute,2022.1.1,60.00121210356404,
negative,yellow,1,k,None,,,,,,,,,0,191,191,191,,,,,,,,,,,,,,,,,,,,,,,,,,,,,,,,,,,,,main,None,None,1,1.4991379999555647,703.4454522002488,None,None,1,,,,,,,,,,,,,,133,22,Female,2022-05-31_16h10.12.402,Parachute,2022.1.1,60.00121210356404,
positive,blue,2,k,None,,,,,,,,,0,192,192,192,,,,,,,,,,,,,,,,,,,,,,,,,,,,,,,,,,,,,main,None,None,1,1.4984837998636067,705.9460272002034,None,None,1,,,,,,,,,,,,,,133,22,Female,2022-05-31_16h10.12.402,Parachute,2022.1.1,60.00121210356404,
positive,yellow,1,None,k,,,,,,,,,0,193,193,193,,,,,,,,,,,,,,,,,,,,,,,,,,,,,,,,,,,,,main,k,k,1,1.0867709000594914,708.4455730002373,None,None,0,,,,,,,,,,,,,,133,22,Female,2022-05-31_16h10.12.402,Parachute,2022.1.1,60.00121210356404,
negative,red,2,None,None,,,,,,,,,0,194,194,194,,,,,,,,,,,,,,,,,,,,,,,,,,,,,,,,,,,,,main,None,None,1,1.493968800175935,710.5339974001981,None,None,1,,,,,,,,,,,,,,133,22,Female,2022-05-31_16h10.12.402,Parachute,2022.1.1,60.00121210356404,
positive,red,1,None,None,,,,,,,,,0,195,195,195,,,,,,,,,,,,,,,,,,,,,,,,,,,,,,,,,,,,,main,None,None,1,1.4986394001170993,713.0284592001699,None,None,1,,,,,,,,,,,,,,133,22,Female,2022-05-31_16h10.12.402,Parachute,2022.1.1,60.00121210356404,
negative,blue,1,None,k,,,,,,,,,0,196,196,196,,,,,,,,,,,,,,,,,,,,,,,,,,,,,,,,,,,,,main,k,k,1,0.8030757000669837,715.5286477003247,None,None,0,,,,,,,,,,,,,,133,22,Female,2022-05-31_16h10.12.402,Parachute,2022.1.1,60.00121210356404,
positive,blue,2,k,None,,,,,,,,,0,197,197,197,,,,,,,,,,,,,,,,,,,,,,,,,,,,,,,,,,,,,main,None,None,1,1.4948786003515124,717.3337217001244,None,None,1,,,,,,,,,,,,,,133,22,Female,2022-05-31_16h10.12.402,Parachute,2022.1.1,60.00121210356404,
negative,blue,2,None,k,,,,,,,,,0,198,198,198,,,,,,,,,,,,,,,,,,,,,,,,,,,,,,,,,,,,,main,k,k,1,0.8544187000952661,719.8294422002509,None,None,0,,,,,,,,,,,,,,133,22,Female,2022-05-31_16h10.12.402,Parachute,2022.1.1,60.00121210356404,
negative,blue,2,None,k,,,,,,,,,0,199,199,199,,,,,,,,,,,,,,,,,,,,,,,,,,,,,,,,,,,,,main,k,k,1,0.6656194003298879,721.6838763998821,None,None,0,,,,,,,,,,,,,,133,22,Female,2022-05-31_16h10.12.402,Parachute,2022.1.1,60.00121210356404,
positive,blue,2,k,None,,,,,,,,,0,200,200,200,,,,,,,,,,,,,,,,,,,,,,,,,,,,,,,,,,,,,main,None,None,1,1.5088904001750052,723.3514018002898,None,None,1,,,,,,,,,,,,,,133,22,Female,2022-05-31_16h10.12.402,Parachute,2022.1.1,60.00121210356404,
positive,blue,2,k,None,,,,,,,,,0,201,201,201,,,,,,,,,,,,,,,,,,,,,,,,,,,,,,,,,,,,,main,None,None,1,1.498550500255078,725.863500200212,None,None,1,,,,,,,,,,,,,,133,22,Female,2022-05-31_16h10.12.402,Parachute,2022.1.1,60.00121210356404,
negative,yellow,2,k,None,,,,,,,,,0,202,202,202,,,,,,,,,,,,,,,,,,,,,,,,,,,,,,,,,,,,,main,None,None,1,1.498567400034517,728.3618958001025,None,None,1,,,,,,,,,,,,,,133,22,Female,2022-05-31_16h10.12.402,Parachute,2022.1.1,60.00121210356404,
positive,red,1,None,None,,,,,,,,,0,203,203,203,,,,,,,,,,,,,,,,,,,,,,,,,,,,,,,,,,,,,main,None,None,1,1.4988792999647558,730.8624181002378,None,None,1,,,,,,,,,,,,,,133,22,Female,2022-05-31_16h10.12.402,Parachute,2022.1.1,60.00121210356404,
negative,blue,2,None,k,,,,,,,,,0,204,204,204,,,,,,,,,,,,,,,,,,,,,,,,,,,,,,,,,,,,,main,k,k,1,1.104093199595809,733.3626564000733,None,None,0,,,,,,,,,,,,,,133,22,Female,2022-05-31_16h10.12.402,Parachute,2022.1.1,60.00121210356404,
negative,red,1,None,None,,,,,,,,,0,205,205,205,,,,,,,,,,,,,,,,,,,,,,,,,,,,,,,,,,,,,main,None,None,1,1.4933740999549627,735.4672314999625,None,None,1,,,,,,,,,,,,,,133,22,Female,2022-05-31_16h10.12.402,Parachute,2022.1.1,60.00121210356404,
negative,blue,2,None,k,,,,,,,,,0,206,206,206,,,,,,,,,,,,,,,,,,,,,,,,,,,,,,,,,,,,,main,k,k,1,0.7360551999881864,737.9626482999884,None,None,0,,,,,,,,,,,,,,133,22,Female,2022-05-31_16h10.12.402,Parachute,2022.1.1,60.00121210356404,
negative,yellow,2,k,None,,,,,,,,,0,207,207,207,,,,,,,,,,,,,,,,,,,,,,,,,,,,,,,,,,,,,main,None,None,1,1.4948645001277328,739.7008568001911,None,None,1,,,,,,,,,,,,,,133,22,Female,2022-05-31_16h10.12.402,Parachute,2022.1.1,60.00121210356404,
positive,yellow,2,None,k,,,,,,,,,0,208,208,208,,,,,,,,,,,,,,,,,,,,,,,,,,,,,,,,,,,,,main,k,k,1,0.7564439997076988,742.1958838999271,None,None,0,,,,,,,,,,,,,,133,22,Female,2022-05-31_16h10.12.402,Parachute,2022.1.1,60.00121210356404,
negative,yellow,1,k,None,,,,,,,,,0,209,209,209,,,,,,,,,,,,,,,,,,,,,,,,,,,,,,,,,,,,,main,None,None,1,1.5075552999041975,743.9533417001367,None,None,1,,,,,,,,,,,,,,133,22,Female,2022-05-31_16h10.12.402,Parachute,2022.1.1,60.00121210356404,
negative,red,2,None,None,,,,,,,,,0,210,210,210,,,,,,,,,,,,,,,,,,,,,,,,,,,,,,,,,,,,,main,None,None,1,1.49853720003739,746.4626957001165,None,None,1,,,,,,,,,,,,,,133,22,Female,2022-05-31_16h10.12.402,Parachute,2022.1.1,60.00121210356404,
negative,blue,1,None,k,,,,,,,,,0,211,211,211,,,,,,,,,,,,,,,,,,,,,,,,,,,,,,,,,,,,,main,k,k,1,0.5171399000100791,748.9628906999715,None,None,0,,,,,,,,,,,,,,133,22,Female,2022-05-31_16h10.12.402,Parachute,2022.1.1,60.00121210356404,
negative,yellow,1,k,None,,,,,,,,,0,212,212,212,,,,,,,,,,,,,,,,,,,,,,,,,,,,,,,,,,,,,main,None,None,1,1.497248699888587,750.4812970003113,None,None,1,,,,,,,,,,,,,,133,22,Female,2022-05-31_16h10.12.402,Parachute,2022.1.1,60.00121210356404,
positive,blue,1,k,None,,,,,,,,,0,213,213,213,,,,,,,,,,,,,,,,,,,,,,,,,,,,,,,,,,,,,main,None,None,1,1.4989410997368395,752.9796465002,None,None,1,,,,,,,,,,,,,,133,22,Female,2022-05-31_16h10.12.402,Parachute,2022.1.1,60.00121210356404,
positive,blue,1,k,None,,,,,,,,,0,214,214,214,,,,,,,,,,,,,,,,,,,,,,,,,,,,,,,,,,,,,main,None,None,1,1.4991902001202106,755.4801233001053,None,None,1,,,,,,,,,,,,,,133,22,Female,2022-05-31_16h10.12.402,Parachute,2022.1.1,60.00121210356404,
positive,yellow,1,None,k,,,,,,,,,0,215,215,215,,,,,,,,,,,,,,,,,,,,,,,,,,,,,,,,,,,,,main,k,k,1,0.6839239001274109,757.9806841001846,None,None,0,,,,,,,,,,,,,,133,22,Female,2022-05-31_16h10.12.402,Parachute,2022.1.1,60.00121210356404,
positive,yellow,1,None,k,,,,,,,,,0,216,216,216,,,,,,,,,,,,,,,,,,,,,,,,,,,,,,,,,,,,,main,k,k,1,0.6000304999761283,759.6662727002986,None,None,0,,,,,,,,,,,,,,133,22,Female,2022-05-31_16h10.12.402,Parachute,2022.1.1,60.00121210356404,
positive,yellow,2,None,k,,,,,,,,,0,217,217,217,,,,,,,,,,,,,,,,,,,,,,,,,,,,,,,,,,,,,main,k,k,1,0.7993644000962377,761.2679632999934,None,None,0,,,,,,,,,,,,,,133,22,Female,2022-05-31_16h10.12.402,Parachute,2022.1.1,60.00121210356404,
negative,blue,1,None,k,,,,,,,,,0,218,218,218,,,,,,,,,,,,,,,,,,,,,,,,,,,,,,,,,,,,,main,k,k,1,0.7307299003005028,763.067940399982,None,None,0,,,,,,,,,,,,,,133,22,Female,2022-05-31_16h10.12.402,Parachute,2022.1.1,60.00121210356404,
positive,red,2,None,None,,,,,,,,,0,219,219,219,,,,,,,,,,,,,,,,,,,,,,,,,,,,,,,,,,,,,main,None,None,1,1.4960039998404682,764.8004764001817,None,None,1,,,,,,,,,,,,,,133,22,Female,2022-05-31_16h10.12.402,Parachute,2022.1.1,60.00121210356404,
positive,yellow,1,None,k,,,,,,,,,0,220,220,220,,,,,,,,,,,,,,,,,,,,,,,,,,,,,,,,,,,,,main,k,k,1,1.3677946999669075,767.2972912001424,None,None,0,,,,,,,,,,,,,,133,22,Female,2022-05-31_16h10.12.402,Parachute,2022.1.1,60.00121210356404,
positive,blue,1,k,None,,,,,,,,,0,221,221,221,,,,,,,,,,,,,,,,,,,,,,,,,,,,,,,,,,,,,main,None,None,1,1.4960676999762654,769.6675674999133,None,None,1,,,,,,,,,,,,,,133,22,Female,2022-05-31_16h10.12.402,Parachute,2022.1.1,60.00121210356404,
positive,yellow,2,None,k,,,,,,,,,0,222,222,222,,,,,,,,,,,,,,,,,,,,,,,,,,,,,,,,,,,,,main,k,k,1,0.8708203001879156,772.1642228001729,None,None,0,,,,,,,,,,,,,,133,22,Female,2022-05-31_16h10.12.402,Parachute,2022.1.1,60.00121210356404,
negative,yellow,1,k,None,,,,,,,,,0,223,223,223,,,,,,,,,,,,,,,,,,,,,,,,,,,,,,,,,,,,,main,None,None,1,1.4928935999050736,774.0350410998799,None,None,1,,,,,,,,,,,,,,133,22,Female,2022-05-31_16h10.12.402,Parachute,2022.1.1,60.00121210356404,
positive,yellow,2,None,k,,,,,,,,,0,224,224,224,,,,,,,,,,,,,,,,,,,,,,,,,,,,,,,,,,,,,main,k,k,1,1.6509378999471664,776.530435600318,None,None,0,,,,,,,,,,,,,,133,22,Female,2022-05-31_16h10.12.402,Parachute,2022.1.1,60.00121210356404,
negative,yellow,2,k,None,,,,,,,,,0,225,225,225,,,,,,,,,,,,,,,,,,,,,,,,,,,,,,,,,,,,,main,None,None,1,1.502658300101757,780.1971468999982,None,None,1,,,,,,,,,,,,,,133,22,Female,2022-05-31_16h10.12.402,Parachute,2022.1.1,60.00121210356404,
negative,blue,2,None,k,,,,,,,,,0,226,226,226,,,,,,,,,,,,,,,,,,,,,,,,,,,,,,,,,,,,,main,k,k,1,3.1847751000896096,782.6977810999379,None,None,0,,,,,,,,,,,,,,133,22,Female,2022-05-31_16h10.12.402,Parachute,2022.1.1,60.00121210356404,
positive,red,2,None,None,,,,,,,,,0,227,227,227,,,,,,,,,,,,,,,,,,,,,,,,,,,,,,,,,,,,,main,None,None,1,1.501474100165069,787.8964860001579,None,None,1,,,,,,,,,,,,,,133,22,Female,2022-05-31_16h10.12.402,Parachute,2022.1.1,60.00121210356404,
positive,blue,2,k,None,,,,,,,,,0,228,228,228,,,,,,,,,,,,,,,,,,,,,,,,,,,,,,,,,,,,,main,None,None,1,1.4986076997593045,790.396990600042,None,None,1,,,,,,,,,,,,,,133,22,Female,2022-05-31_16h10.12.402,Parachute,2022.1.1,60.00121210356404,
negative,blue,1,None,k,,,,,,,,,0,229,229,229,,,,,,,,,,,,,,,,,,,,,,,,,,,,,,,,,,,,,main,k,k,1,0.6880181999877095,792.8975130999461,None,None,0,,,,,,,,,,,,,,133,22,Female,2022-05-31_16h10.12.402,Parachute,2022.1.1,60.00121210356404,
positive,yellow,1,None,k,,,,,,,,,0,230,230,230,,,,,,,,,,,,,,,,,,,,,,,,,,,,,,,,,,,,,main,k,k,1,0.5974782002158463,794.5858972002752,None,None,0,,,,,,,,,,,,,,133,22,Female,2022-05-31_16h10.12.402,Parachute,2022.1.1,60.00121210356404,
negative,blue,2,None,k,,,,,,,,,0,231,231,231,,,,,,,,,,,,,,,,,,,,,,,,,,,,,,,,,,,,,main,k,k,1,0.5966312000527978,796.1860385001637,None,None,0,,,,,,,,,,,,,,133,22,Female,2022-05-31_16h10.12.402,Parachute,2022.1.1,60.00121210356404,
negative,red,1,None,None,,,,,,,,,0,232,232,232,,,,,,,,,,,,,,,,,,,,,,,,,,,,,,,,,,,,,main,None,None,1,1.4963227999396622,797.784386199899,None,None,1,,,,,,,,,,,,,,133,22,Female,2022-05-31_16h10.12.402,Parachute,2022.1.1,60.00121210356404,
positive,blue,2,k,None,,,,,,,,,0,233,233,233,,,,,,,,,,,,,,,,,,,,,,,,,,,,,,,,,,,,,main,None,None,1,1.4988136999309063,800.280969100073,None,None,1,,,,,,,,,,,,,,133,22,Female,2022-05-31_16h10.12.402,Parachute,2022.1.1,60.00121210356404,
negative,yellow,1,k,None,,,,,,,,,0,234,234,234,,,,,,,,,,,,,,,,,,,,,,,,,,,,,,,,,,,,,main,None,None,1,1.49799960013479,802.7818531002849,None,None,1,,,,,,,,,,,,,,133,22,Female,2022-05-31_16h10.12.402,Parachute,2022.1.1,60.00121210356404,
negative,yellow,2,k,None,,,,,,,,,0,235,235,235,,,,,,,,,,,,,,,,,,,,,,,,,,,,,,,,,,,,,main,None,k,0,0.7040399997495115,805.280804600101,None,None,1,,,,,,,,,,,,,,133,22,Female,2022-05-31_16h10.12.402,Parachute,2022.1.1,60.00121210356404,
positive,red,1,None,None,,,,,,,,,0,236,236,236,,,,,,,,,,,,,,,,,,,,,,,,,,,,,,,,,,,,,main,None,None,1,1.5019005998037755,807.9969530003145,None,None,1,,,,,,,,,,,,,,133,22,Female,2022-05-31_16h10.12.402,Parachute,2022.1.1,60.00121210356404,
negative,red,2,None,None,,,,,,,,,0,237,237,237,,,,,,,,,,,,,,,,,,,,,,,,,,,,,,,,,,,,,main,None,None,1,1.498783899936825,810.4990936000831,None,None,1,,,,,,,,,,,,,,133,22,Female,2022-05-31_16h10.12.402,Parachute,2022.1.1,60.00121210356404,
negative,blue,1,None,k,,,,,,,,,0,238,238,238,,,,,,,,,,,,,,,,,,,,,,,,,,,,,,,,,,,,,main,k,k,1,0.6368034998886287,812.9990341002122,None,None,0,,,,,,,,,,,,,,133,22,Female,2022-05-31_16h10.12.402,Parachute,2022.1.1,60.00121210356404,
positive,blue,1,k,None,,,,,,,,,0,239,239,239,,,,,,,,,,,,,,,,,,,,,,,,,,,,,,,,,,,,,main,None,None,1,0.9319679997861385,814.6355075002648,None,None,1,,,,,,,,,,,,,,133,22,Female,2022-05-31_16h10.12.402,Parachute,2022.1.1,60.00121210356404,
,,,,,,,,,,,,,,,,,,,,,,,,,,,,,,,,,,,,,,,,,,,,,,,,,,,,,,,,,,,,,,,,,,,,,,,,,816.5661239000037,None,,,,,,,,
