distractor,target,set,ans1,ans2,rep_loop4.thisRepN,rep_loop4.thisTrialN,rep_loop4.thisN,rep_loop4.thisIndex,st2_prac_loop.thisRepN,st2_prac_loop.thisTrialN,st2_prac_loop.thisN,st2_prac_loop.thisIndex,st2_main_loop.thisRepN,st2_main_loop.thisTrialN,st2_main_loop.thisN,st2_main_loop.thisIndex,image_4.started,image_4.stopped,mouse_7.x,mouse_7.y,mouse_7.leftButton,mouse_7.midButton,mouse_7.rightButton,sound_2.started,sound_2.stopped,key_resp_3.keys,mouse_5.x,mouse_5.y,mouse_5.leftButton,mouse_5.midButton,mouse_5.rightButton,mouse_5.started,mouse_5.stopped,yes_text2.started,yes_text2.stopped,no_text2.started,no_text2.stopped,mouse_3.x,mouse_3.y,mouse_3.leftButton,mouse_3.midButton,mouse_3.rightButton,mouse_3.started,mouse_3.stopped,st_prac_back.started,st_prac_back.stopped,st_prac_text.started,st_prac_text.stopped,st_fix_back.started,st_fix_back.stopped,st_fix_2.started,st_fix_2.stopped,main_prac,st_ans,st_res,st_corr,st_rt,st_back.started,st_back.stopped,st2_resp.keys,st2_resp.corr,st_main_back.started,st_main_back.stopped,st_main_text.started,st_main_text.stopped,mouse_4.x,mouse_4.y,mouse_4.leftButton,mouse_4.midButton,mouse_4.rightButton,mouse_4.started,mouse_4.stopped,text_2.started,text_2.stopped,id*,age*,gender*,date,expName,psychopyVersion,frameRate,
,,,,,,,,,,,,,,,,,33.120402799999965,None,0.075,-0.45277777,0,0,0,,,,,,,,,,,,,,,,,,,,,,,,,,,,,,,,,,,,,,,,,,,,,,,,,,,,201,24,Female,2022-04-26_13h26.51.964,Main,2022.1.1,60.00870126165415,
negative,yellow,1,k,None,,,,,0,0,0,0,,,,,,,,,,,,38.55625133000005,None,None,0.037037037,-0.41574073,0,0,0,1.006907430000183,None,93.74956959999986,None,93.74956959999986,None,-0.08240741,-0.085185185,0,0,0,0.012765829999807465,None,96.65634720000003,None,96.65634720000003,None,98.66534380000007,None,98.66534380000007,None,prac,None,None,1,1.5033118999999715,100.71165880000012,None,None,1,,,,,,,,,,,,,,201,24,Female,2022-04-26_13h26.51.964,Main,2022.1.1,60.00870126165415,
positive,red,2,None,None,,,,,0,1,1,1,,,,,,,,,,,,,,,,,,,,,,,,,,,,,,,,,,,,,,,,,prac,None,None,1,1.5090789000000768,103.20472899999982,None,None,1,,,,,,,,,,,,,,201,24,Female,2022-04-26_13h26.51.964,Main,2022.1.1,60.00870126165415,
negative,blue,2,None,k,,,,,0,2,2,2,,,,,,,,,,,,,,,,,,,,,,,,,,,,,,,,,,,,,,,,,prac,k,k,1,2.5615579000000253,105.71443849999991,None,None,0,,,,,,,,,,,,,,201,24,Female,2022-04-26_13h26.51.964,Main,2022.1.1,60.00870126165415,
positive,yellow,1,None,k,,,,,0,3,3,3,,,,,,,,,,,,,,,,,,,,,,,,,,,,,,,,,,,,,,,,,prac,k,k,1,1.3323123000000123,110.32633779999992,None,None,0,,,,,,,,,,,,,,201,24,Female,2022-04-26_13h26.51.964,Main,2022.1.1,60.00870126165415,
negative,blue,2,None,k,,,,,0,4,4,4,,,,,,,,,,,,,,,,,,,,,,,,,,,,,,,,,,,,,,,,,prac,k,k,1,1.4197206999997434,112.6597276,None,None,0,,,,,,,,,,,,,,201,24,Female,2022-04-26_13h26.51.964,Main,2022.1.1,60.00870126165415,
negative,blue,1,None,k,,,,,0,5,5,5,,,,,,,,,,,,,,,,,,,,,,,,,,,,,,,,,,,,,,,,,prac,k,k,1,1.6340635000001384,115.07236529999977,None,None,0,,,,,,,,,,,,,,201,24,Female,2022-04-26_13h26.51.964,Main,2022.1.1,60.00870126165415,
negative,yellow,2,k,None,,,,,0,6,6,6,,,,,,,,,,,,,,,,,,,,,,,,,,,,,,,,,,,,,,,,,prac,None,None,1,1.5029326000003493,118.71430059999989,None,None,1,,,,,,,,,,,,,,201,24,Female,2022-04-26_13h26.51.964,Main,2022.1.1,60.00870126165415,
negative,red,1,None,None,,,,,0,7,7,7,,,,,,,,,,,,,,,,,,,,,,,,,,,,,,,,,,,,,,,,,prac,None,None,1,1.496893099999852,121.2195205999999,None,None,1,,,,,,,,,,,,,,201,24,Female,2022-04-26_13h26.51.964,Main,2022.1.1,60.00870126165415,
positive,yellow,2,None,k,,,,,0,8,8,8,,,,,,,,,,,,,,,,,,,,,,,,,,,,,,,,,,,,,,,,,prac,k,k,1,1.0446925999999621,123.71802259999981,None,None,0,,,,,,,,,,,,,,201,24,Female,2022-04-26_13h26.51.964,Main,2022.1.1,60.00870126165415,
negative,yellow,1,k,None,,,,,0,9,9,9,,,,,,,,,,,,,,,,,,,,,,,,,,,,,,,,,,,,,,,,,prac,None,None,1,1.4994491999996171,125.76509980000014,None,None,1,,,,,,,,,,,,,,201,24,Female,2022-04-26_13h26.51.964,Main,2022.1.1,60.00870126165415,
positive,yellow,2,None,k,,,,,0,10,10,10,,,,,,,,,,,,,,,,,,,,,,,,,,,,,,,,,,,,,,,,,prac,k,k,1,1.035908699999709,128.2631205,None,None,0,,,,,,,,,,,,,,201,24,Female,2022-04-26_13h26.51.964,Main,2022.1.1,60.00870126165415,
negative,yellow,2,k,None,,,,,0,11,11,11,,,,,,,,,,,,,,,,,,,,,,,,,,,,,,,,,,,,,,,,,prac,None,None,1,1.5095922999998947,130.30326589999981,None,None,1,,,,,,,,,,,,,,201,24,Female,2022-04-26_13h26.51.964,Main,2022.1.1,60.00870126165415,
negative,red,2,None,None,,,,,0,12,12,12,,,,,,,,,,,,,,,,,,,,,,,,,,,,,,,,,,,,,,,,,prac,None,None,1,1.4990090000001146,132.81112800000005,None,None,1,,,,,,,,,,,,,,201,24,Female,2022-04-26_13h26.51.964,Main,2022.1.1,60.00870126165415,
positive,red,1,None,None,,,,,0,13,13,13,,,,,,,,,,,,,,,,,,,,,,,,,,,,,,,,,,,,,,,,,prac,None,None,1,1.5069316999997682,135.32544519999988,None,None,1,,,,,,,,,,,,,,201,24,Female,2022-04-26_13h26.51.964,Main,2022.1.1,60.00870126165415,
positive,blue,2,k,None,,,,,0,14,14,14,,,,,,,,,,,,,,,,,,,,,,,,,,,,,,,,,,,,,,,,,prac,None,None,1,1.5003050999998777,137.8225074999998,None,None,1,,,,,,,,,,,,,,201,24,Female,2022-04-26_13h26.51.964,Main,2022.1.1,60.00870126165415,
positive,blue,1,k,None,,,,,0,15,15,15,,,,,,,,,,,,,,,,,,,,,,,,,,,,,,,,,,,,,,,,,prac,None,None,1,1.5095776000002843,140.32411789999992,None,None,1,,,,,,,,,,,,,,201,24,Female,2022-04-26_13h26.51.964,Main,2022.1.1,60.00870126165415,
negative,blue,1,None,k,,,,,0,16,16,16,,,,,,,,,,,,,,,,,,,,,,,,,,,,,,,,,,,,,,,,,prac,k,k,1,1.1618677999999818,142.83720209999979,None,None,0,,,,,,,,,,,,,,201,24,Female,2022-04-26_13h26.51.964,Main,2022.1.1,60.00870126165415,
positive,blue,2,k,None,,,,,0,17,17,17,,,,,,,,,,,,,,,,,,,,,,,,,,,,,,,,,,,,,,,,,prac,None,None,1,1.5032692000004317,145.00093649999985,None,None,1,,,,,,,,,,,,,,201,24,Female,2022-04-26_13h26.51.964,Main,2022.1.1,60.00870126165415,
positive,blue,1,k,None,,,,,0,18,18,18,,,,,,,,,,,,,,,,,,,,,,,,,,,,,,,,,,,,,,,,,prac,None,None,1,1.5026480000001357,147.50595450000014,None,None,1,,,,,,,,,,,,,,201,24,Female,2022-04-26_13h26.51.964,Main,2022.1.1,60.00870126165415,
positive,yellow,1,None,k,,,,,0,19,19,19,,,,,,,,,,,,,,,,,,,,,,,,,,,,,,,,,,,,,,,,,prac,k,k,1,1.1849252000001798,150.0086546,None,None,0,,,,,,,,,,,,,,201,24,Female,2022-04-26_13h26.51.964,Main,2022.1.1,60.00870126165415,
negative,yellow,1,k,None,,,,,1,0,20,0,,,,,,,,,,,,,,,,,,,,,,,,,,,,,,,,,,,,,,,,,prac,None,None,1,1.5067165000000386,152.19695130000014,None,None,1,,,,,,,,,,,,,,201,24,Female,2022-04-26_13h26.51.964,Main,2022.1.1,60.00870126165415,
positive,red,2,None,None,,,,,1,1,21,1,,,,,,,,,,,,,,,,,,,,,,,,,,,,,,,,,,,,,,,,,prac,None,None,1,1.4970561000000089,154.7162440999998,None,None,1,,,,,,,,,,,,,,201,24,Female,2022-04-26_13h26.51.964,Main,2022.1.1,60.00870126165415,
negative,blue,2,None,k,,,,,1,2,22,2,,,,,,,,,,,,,,,,,,,,,,,,,,,,,,,,,,,,,,,,,prac,k,k,1,1.0745320000000902,157.2038574999999,None,None,0,,,,,,,,,,,,,,201,24,Female,2022-04-26_13h26.51.964,Main,2022.1.1,60.00870126165415,
positive,yellow,1,None,k,,,,,1,3,23,3,,,,,,,,,,,,,,,,,,,,,,,,,,,,,,,,,,,,,,,,,prac,k,k,1,1.0466222000000016,159.28119429999992,None,None,0,,,,,,,,,,,,,,201,24,Female,2022-04-26_13h26.51.964,Main,2022.1.1,60.00870126165415,
negative,blue,2,None,k,,,,,1,4,24,4,,,,,,,,,,,,,,,,,,,,,,,,,,,,,,,,,,,,,,,,,prac,k,k,1,1.1312544000002163,161.32884450000006,None,None,0,,,,,,,,,,,,,,201,24,Female,2022-04-26_13h26.51.964,Main,2022.1.1,60.00870126165415,
negative,blue,1,None,k,,,,,1,5,25,5,,,,,,,,,,,,,,,,,,,,,,,,,,,,,,,,,,,,,,,,,prac,k,k,1,1.4599044999999933,163.47215530000017,None,None,0,,,,,,,,,,,,,,201,24,Female,2022-04-26_13h26.51.964,Main,2022.1.1,60.00870126165415,
negative,yellow,2,k,None,,,,,1,6,26,6,,,,,,,,,,,,,,,,,,,,,,,,,,,,,,,,,,,,,,,,,prac,None,None,1,1.5100007999999434,165.9219925,None,None,1,,,,,,,,,,,,,,201,24,Female,2022-04-26_13h26.51.964,Main,2022.1.1,60.00870126165415,
negative,red,1,None,None,,,,,1,7,27,7,,,,,,,,,,,,,,,,,,,,,,,,,,,,,,,,,,,,,,,,,prac,None,None,1,1.5099179999997432,168.4355238999999,None,None,1,,,,,,,,,,,,,,201,24,Female,2022-04-26_13h26.51.964,Main,2022.1.1,60.00870126165415,
positive,yellow,2,None,k,,,,,1,8,28,8,,,,,,,,,,,,,,,,,,,,,,,,,,,,,,,,,,,,,,,,,prac,k,k,1,1.0459227000001192,170.9477975000002,None,None,0,,,,,,,,,,,,,,201,24,Female,2022-04-26_13h26.51.964,Main,2022.1.1,60.00870126165415,
negative,yellow,1,k,None,,,,,1,9,29,9,,,,,,,,,,,,,,,,,,,,,,,,,,,,,,,,,,,,,,,,,prac,None,None,1,1.4958432999997058,172.99512519999985,None,None,1,,,,,,,,,,,,,,201,24,Female,2022-04-26_13h26.51.964,Main,2022.1.1,60.00870126165415,
positive,yellow,2,None,k,,,,,1,10,30,10,,,,,,,,,,,,,,,,,,,,,,,,,,,,,,,,,,,,,,,,,prac,k,k,1,1.0735608999998476,175.49004230000014,None,None,0,,,,,,,,,,,,,,201,24,Female,2022-04-26_13h26.51.964,Main,2022.1.1,60.00870126165415,
negative,yellow,2,k,None,,,,,1,11,31,11,,,,,,,,,,,,,,,,,,,,,,,,,,,,,,,,,,,,,,,,,prac,None,None,1,1.5047614999998586,177.56818529999987,None,None,1,,,,,,,,,,,,,,201,24,Female,2022-04-26_13h26.51.964,Main,2022.1.1,60.00870126165415,
negative,red,2,None,None,,,,,1,12,32,12,,,,,,,,,,,,,,,,,,,,,,,,,,,,,,,,,,,,,,,,,prac,None,None,1,1.498003400000016,180.0729646000002,None,None,1,,,,,,,,,,,,,,201,24,Female,2022-04-26_13h26.51.964,Main,2022.1.1,60.00870126165415,
positive,red,1,None,None,,,,,1,13,33,13,,,,,,,,,,,,,,,,,,,,,,,,,,,,,,,,,,,,,,,,,prac,None,None,1,1.498171000000184,182.57481489999986,None,None,1,,,,,,,,,,,,,,201,24,Female,2022-04-26_13h26.51.964,Main,2022.1.1,60.00870126165415,
positive,blue,2,k,None,,,,,1,14,34,14,,,,,,,,,,,,,,,,,,,,,,,,,,,,,,,,,,,,,,,,,prac,None,None,1,1.5076028000003134,185.07200579999994,None,None,1,,,,,,,,,,,,,,201,24,Female,2022-04-26_13h26.51.964,Main,2022.1.1,60.00870126165415,
positive,blue,1,k,None,,,,,1,15,35,15,,,,,,,,,,,,,,,,,,,,,,,,,,,,,,,,,,,,,,,,,prac,None,None,1,1.5041756000000532,187.5834467000002,None,None,1,,,,,,,,,,,,,,201,24,Female,2022-04-26_13h26.51.964,Main,2022.1.1,60.00870126165415,
negative,blue,1,None,k,,,,,1,16,36,16,,,,,,,,,,,,,,,,,,,,,,,,,,,,,,,,,,,,,,,,,prac,k,k,1,1.0721801999998206,190.0871694,None,None,0,,,,,,,,,,,,,,201,24,Female,2022-04-26_13h26.51.964,Main,2022.1.1,60.00870126165415,
positive,blue,2,k,None,,,,,1,17,37,17,,,,,,,,,,,,,,,,,,,,,,,,,,,,,,,,,,,,,,,,,prac,None,None,1,1.4942251000002216,192.16378499999996,None,None,1,,,,,,,,,,,,,,201,24,Female,2022-04-26_13h26.51.964,Main,2022.1.1,60.00870126165415,
positive,blue,1,k,None,,,,,1,18,38,18,,,,,,,,,,,,,,,,,,,,,,,,,,,,,,,,,,,,,,,,,prac,None,None,1,1.5089106999998876,194.65824839999982,None,None,1,,,,,,,,,,,,,,201,24,Female,2022-04-26_13h26.51.964,Main,2022.1.1,60.00870126165415,
positive,yellow,1,None,k,,,,,1,19,39,19,,,,,,,,,,,,,,,,,,,,,,,,,,,,,,,,,,,,,,,,,prac,k,k,1,1.1597321999997803,197.16828120000014,None,None,0,,,,,,,,,,,,,,201,24,Female,2022-04-26_13h26.51.964,Main,2022.1.1,60.00870126165415,
,,,,,,,,,,,,,,,,,,,,,,,,,,,,,,,,,,,,,,,,,,,,,,,,,,,,,,,,,,,,,,199.34566539999992,None,199.34566539999992,None,0.06759259,-0.32685184,0,0,0,0.011442730000453594,None,,,201,24,Female,2022-04-26_13h26.51.964,Main,2022.1.1,60.00870126165415,
negative,yellow,2,k,None,,,,,,,,,0,0,0,0,,,,,,,,,,,,,,,,,,,,,,,,,,,,,,,,,207.50202379999996,None,207.50202379999996,None,main,None,None,1,1.4970056000001932,209.57406049999986,None,None,1,,,,,,,,,,,,,,201,24,Female,2022-04-26_13h26.51.964,Main,2022.1.1,60.00870126165415,
positive,red,1,None,None,,,,,,,,,0,1,1,1,,,,,,,,,,,,,,,,,,,,,,,,,,,,,,,,,,,,,main,None,None,1,1.5032944999998108,212.07501119999984,None,None,1,,,,,,,,,,,,,,201,24,Female,2022-04-26_13h26.51.964,Main,2022.1.1,60.00870126165415,
positive,blue,2,k,None,,,,,,,,,0,2,2,2,,,,,,,,,,,,,,,,,,,,,,,,,,,,,,,,,,,,,main,None,None,1,1.5011614000000009,214.57899139999995,None,None,1,,,,,,,,,,,,,,201,24,Female,2022-04-26_13h26.51.964,Main,2022.1.1,60.00870126165415,
positive,blue,1,k,None,,,,,,,,,0,3,3,3,,,,,,,,,,,,,,,,,,,,,,,,,,,,,,,,,,,,,main,None,None,1,1.509353899999951,217.0814625999999,None,None,1,,,,,,,,,,,,,,201,24,Female,2022-04-26_13h26.51.964,Main,2022.1.1,60.00870126165415,
negative,yellow,2,k,None,,,,,,,,,0,4,4,4,,,,,,,,,,,,,,,,,,,,,,,,,,,,,,,,,,,,,main,None,None,1,1.5019517000000633,219.5944009000002,None,None,1,,,,,,,,,,,,,,201,24,Female,2022-04-26_13h26.51.964,Main,2022.1.1,60.00870126165415,
positive,yellow,2,None,k,,,,,,,,,0,5,5,5,,,,,,,,,,,,,,,,,,,,,,,,,,,,,,,,,,,,,main,k,k,1,1.5621759999999085,222.09746340000015,None,None,0,,,,,,,,,,,,,,201,24,Female,2022-04-26_13h26.51.964,Main,2022.1.1,60.00870126165415,
negative,blue,2,None,k,,,,,,,,,0,6,6,6,,,,,,,,,,,,,,,,,,,,,,,,,,,,,,,,,,,,,main,k,k,1,0.9197540000000117,225.6710489999998,None,None,0,,,,,,,,,,,,,,201,24,Female,2022-04-26_13h26.51.964,Main,2022.1.1,60.00870126165415,
positive,red,2,None,None,,,,,,,,,0,7,7,7,,,,,,,,,,,,,,,,,,,,,,,,,,,,,,,,,,,,,main,None,None,1,1.5062748999998803,227.58971910000014,None,None,1,,,,,,,,,,,,,,201,24,Female,2022-04-26_13h26.51.964,Main,2022.1.1,60.00870126165415,
positive,yellow,1,None,k,,,,,,,,,0,8,8,8,,,,,,,,,,,,,,,,,,,,,,,,,,,,,,,,,,,,,main,k,k,1,0.9341436999998223,230.09649239999976,None,None,0,,,,,,,,,,,,,,201,24,Female,2022-04-26_13h26.51.964,Main,2022.1.1,60.00870126165415,
negative,red,1,None,None,,,,,,,,,0,9,9,9,,,,,,,,,,,,,,,,,,,,,,,,,,,,,,,,,,,,,main,None,None,1,1.498424299999897,232.0324323000002,None,None,1,,,,,,,,,,,,,,201,24,Female,2022-04-26_13h26.51.964,Main,2022.1.1,60.00870126165415,
positive,yellow,1,None,k,,,,,,,,,0,10,10,10,,,,,,,,,,,,,,,,,,,,,,,,,,,,,,,,,,,,,main,k,k,1,0.8307542999996258,234.53255280000008,None,None,0,,,,,,,,,,,,,,201,24,Female,2022-04-26_13h26.51.964,Main,2022.1.1,60.00870126165415,
negative,yellow,1,k,None,,,,,,,,,0,11,11,11,,,,,,,,,,,,,,,,,,,,,,,,,,,,,,,,,,,,,main,None,None,1,1.503235499999846,236.36728259999995,None,None,1,,,,,,,,,,,,,,201,24,Female,2022-04-26_13h26.51.964,Main,2022.1.1,60.00870126165415,
negative,yellow,1,k,None,,,,,,,,,0,12,12,12,,,,,,,,,,,,,,,,,,,,,,,,,,,,,,,,,,,,,main,None,None,1,1.512940399999934,238.87219960000016,None,None,1,,,,,,,,,,,,,,201,24,Female,2022-04-26_13h26.51.964,Main,2022.1.1,60.00870126165415,
negative,red,2,None,None,,,,,,,,,0,13,13,13,,,,,,,,,,,,,,,,,,,,,,,,,,,,,,,,,,,,,main,None,None,1,1.4987065999998777,241.38570400000003,None,None,1,,,,,,,,,,,,,,201,24,Female,2022-04-26_13h26.51.964,Main,2022.1.1,60.00870126165415,
positive,yellow,2,None,k,,,,,,,,,0,14,14,14,,,,,,,,,,,,,,,,,,,,,,,,,,,,,,,,,,,,,main,k,k,1,0.8771161999998185,243.8861291999999,None,None,0,,,,,,,,,,,,,,201,24,Female,2022-04-26_13h26.51.964,Main,2022.1.1,60.00870126165415,
positive,blue,1,k,None,,,,,,,,,0,15,15,15,,,,,,,,,,,,,,,,,,,,,,,,,,,,,,,,,,,,,main,None,None,1,1.5028493999998318,245.76304249999998,None,None,1,,,,,,,,,,,,,,201,24,Female,2022-04-26_13h26.51.964,Main,2022.1.1,60.00870126165415,
negative,blue,1,None,k,,,,,,,,,0,16,16,16,,,,,,,,,,,,,,,,,,,,,,,,,,,,,,,,,,,,,main,k,k,1,0.8471660999998676,248.2690968999998,None,None,0,,,,,,,,,,,,,,201,24,Female,2022-04-26_13h26.51.964,Main,2022.1.1,60.00870126165415,
positive,blue,2,k,None,,,,,,,,,0,17,17,17,,,,,,,,,,,,,,,,,,,,,,,,,,,,,,,,,,,,,main,None,None,1,1.5030526999998983,250.11862339999993,None,None,1,,,,,,,,,,,,,,201,24,Female,2022-04-26_13h26.51.964,Main,2022.1.1,60.00870126165415,
negative,blue,2,None,k,,,,,,,,,0,18,18,18,,,,,,,,,,,,,,,,,,,,,,,,,,,,,,,,,,,,,main,k,k,1,0.9966057999999975,252.62184559999992,None,None,0,,,,,,,,,,,,,,201,24,Female,2022-04-26_13h26.51.964,Main,2022.1.1,60.00870126165415,
negative,blue,1,None,k,,,,,,,,,0,19,19,19,,,,,,,,,,,,,,,,,,,,,,,,,,,,,,,,,,,,,main,k,k,1,1.2638920999997936,254.62184390000016,None,None,0,,,,,,,,,,,,,,201,24,Female,2022-04-26_13h26.51.964,Main,2022.1.1,60.00870126165415,
negative,blue,1,None,k,,,,,,,,,0,20,20,20,,,,,,,,,,,,,,,,,,,,,,,,,,,,,,,,,,,,,main,k,k,1,0.9956876000001103,256.8869354000001,None,None,0,,,,,,,,,,,,,,201,24,Female,2022-04-26_13h26.51.964,Main,2022.1.1,60.00870126165415,
negative,blue,2,None,k,,,,,,,,,0,21,21,21,,,,,,,,,,,,,,,,,,,,,,,,,,,,,,,,,,,,,main,k,k,1,1.2158667999997306,258.8841239000001,None,None,0,,,,,,,,,,,,,,201,24,Female,2022-04-26_13h26.51.964,Main,2022.1.1,60.00870126165415,
negative,red,1,None,None,,,,,,,,,0,22,22,22,,,,,,,,,,,,,,,,,,,,,,,,,,,,,,,,,,,,,main,None,None,1,1.5027952999998888,261.1011040000001,None,None,1,,,,,,,,,,,,,,201,24,Female,2022-04-26_13h26.51.964,Main,2022.1.1,60.00870126165415,
positive,red,2,None,None,,,,,,,,,0,23,23,23,,,,,,,,,,,,,,,,,,,,,,,,,,,,,,,,,,,,,main,None,None,1,1.5069225000002007,263.6054569999999,None,None,1,,,,,,,,,,,,,,201,24,Female,2022-04-26_13h26.51.964,Main,2022.1.1,60.00870126165415,
negative,red,2,None,None,,,,,,,,,0,24,24,24,,,,,,,,,,,,,,,,,,,,,,,,,,,,,,,,,,,,,main,None,None,1,1.498154599999907,266.1120183999999,None,None,1,,,,,,,,,,,,,,201,24,Female,2022-04-26_13h26.51.964,Main,2022.1.1,60.00870126165415,
positive,blue,2,k,None,,,,,,,,,0,25,25,25,,,,,,,,,,,,,,,,,,,,,,,,,,,,,,,,,,,,,main,None,None,1,1.5128710000003593,268.6117320999999,None,None,1,,,,,,,,,,,,,,201,24,Female,2022-04-26_13h26.51.964,Main,2022.1.1,60.00870126165415,
negative,yellow,1,k,None,,,,,,,,,0,26,26,26,,,,,,,,,,,,,,,,,,,,,,,,,,,,,,,,,,,,,main,None,None,1,1.5075211000003037,271.12524229999985,None,None,1,,,,,,,,,,,,,,201,24,Female,2022-04-26_13h26.51.964,Main,2022.1.1,60.00870126165415,
positive,blue,2,k,None,,,,,,,,,0,27,27,27,,,,,,,,,,,,,,,,,,,,,,,,,,,,,,,,,,,,,main,None,None,1,1.4985891999999694,273.6365451999998,None,None,1,,,,,,,,,,,,,,201,24,Female,2022-04-26_13h26.51.964,Main,2022.1.1,60.00870126165415,
negative,blue,2,None,k,,,,,,,,,0,28,28,28,,,,,,,,,,,,,,,,,,,,,,,,,,,,,,,,,,,,,main,k,k,1,0.8188323000003948,276.1367794,None,None,0,,,,,,,,,,,,,,201,24,Female,2022-04-26_13h26.51.964,Main,2022.1.1,60.00870126165415,
positive,red,1,None,None,,,,,,,,,0,29,29,29,,,,,,,,,,,,,,,,,,,,,,,,,,,,,,,,,,,,,main,None,None,1,1.5038285999999061,277.95671659999994,None,None,1,,,,,,,,,,,,,,201,24,Female,2022-04-26_13h26.51.964,Main,2022.1.1,60.00870126165415,
positive,blue,1,k,None,,,,,,,,,0,30,30,30,,,,,,,,,,,,,,,,,,,,,,,,,,,,,,,,,,,,,main,None,None,1,1.5017617999997128,280.4651293999998,None,None,1,,,,,,,,,,,,,,201,24,Female,2022-04-26_13h26.51.964,Main,2022.1.1,60.00870126165415,
positive,yellow,1,None,k,,,,,,,,,0,31,31,31,,,,,,,,,,,,,,,,,,,,,,,,,,,,,,,,,,,,,main,k,k,1,0.8584479000001011,282.9681624000002,None,None,0,,,,,,,,,,,,,,201,24,Female,2022-04-26_13h26.51.964,Main,2022.1.1,60.00870126165415,
negative,yellow,2,k,None,,,,,,,,,0,32,32,32,,,,,,,,,,,,,,,,,,,,,,,,,,,,,,,,,,,,,main,None,None,1,1.5097855999997591,284.82590289999985,None,None,1,,,,,,,,,,,,,,201,24,Female,2022-04-26_13h26.51.964,Main,2022.1.1,60.00870126165415,
negative,blue,1,None,k,,,,,,,,,0,33,33,33,,,,,,,,,,,,,,,,,,,,,,,,,,,,,,,,,,,,,main,k,k,1,0.9529099999999744,287.3393858000002,None,None,0,,,,,,,,,,,,,,201,24,Female,2022-04-26_13h26.51.964,Main,2022.1.1,60.00870126165415,
positive,blue,1,k,None,,,,,,,,,0,34,34,34,,,,,,,,,,,,,,,,,,,,,,,,,,,,,,,,,,,,,main,None,None,1,1.5005806000003759,289.2982252999998,None,None,1,,,,,,,,,,,,,,201,24,Female,2022-04-26_13h26.51.964,Main,2022.1.1,60.00870126165415,
negative,yellow,1,k,None,,,,,,,,,0,35,35,35,,,,,,,,,,,,,,,,,,,,,,,,,,,,,,,,,,,,,main,None,None,1,1.4990266999998312,291.7995358999999,None,None,1,,,,,,,,,,,,,,201,24,Female,2022-04-26_13h26.51.964,Main,2022.1.1,60.00870126165415,
positive,yellow,2,None,k,,,,,,,,,0,36,36,36,,,,,,,,,,,,,,,,,,,,,,,,,,,,,,,,,,,,,main,k,k,1,0.9353197999998883,294.2989722,None,None,0,,,,,,,,,,,,,,201,24,Female,2022-04-26_13h26.51.964,Main,2022.1.1,60.00870126165415,
positive,yellow,2,None,k,,,,,,,,,0,37,37,37,,,,,,,,,,,,,,,,,,,,,,,,,,,,,,,,,,,,,main,k,k,1,0.9569954999997208,296.23948099999984,None,None,0,,,,,,,,,,,,,,201,24,Female,2022-04-26_13h26.51.964,Main,2022.1.1,60.00870126165415,
negative,yellow,2,k,None,,,,,,,,,0,38,38,38,,,,,,,,,,,,,,,,,,,,,,,,,,,,,,,,,,,,,main,None,None,1,1.4986395999999331,298.19650119999983,None,None,1,,,,,,,,,,,,,,201,24,Female,2022-04-26_13h26.51.964,Main,2022.1.1,60.00870126165415,
positive,yellow,1,None,k,,,,,,,,,0,39,39,39,,,,,,,,,,,,,,,,,,,,,,,,,,,,,,,,,,,,,main,k,k,1,1.003439999999955,300.6964091000002,None,None,0,,,,,,,,,,,,,,201,24,Female,2022-04-26_13h26.51.964,Main,2022.1.1,60.00870126165415,
negative,yellow,2,k,None,,,,,,,,,0,40,40,40,,,,,,,,,,,,,,,,,,,,,,,,,,,,,,,,,,,,,main,None,None,1,1.5104990999998336,302.70122349999997,None,None,1,,,,,,,,,,,,,,201,24,Female,2022-04-26_13h26.51.964,Main,2022.1.1,60.00870126165415,
positive,blue,2,k,None,,,,,,,,,0,41,41,41,,,,,,,,,,,,,,,,,,,,,,,,,,,,,,,,,,,,,main,None,None,1,1.5084020999997847,305.2131919000001,None,None,1,,,,,,,,,,,,,,201,24,Female,2022-04-26_13h26.51.964,Main,2022.1.1,60.00870126165415,
positive,blue,2,k,None,,,,,,,,,0,42,42,42,,,,,,,,,,,,,,,,,,,,,,,,,,,,,,,,,,,,,main,None,None,1,1.502748800000063,307.7208705999999,None,None,1,,,,,,,,,,,,,,201,24,Female,2022-04-26_13h26.51.964,Main,2022.1.1,60.00870126165415,
negative,blue,2,None,k,,,,,,,,,0,43,43,43,,,,,,,,,,,,,,,,,,,,,,,,,,,,,,,,,,,,,main,k,k,1,0.8967665000000125,310.2270449,None,None,0,,,,,,,,,,,,,,201,24,Female,2022-04-26_13h26.51.964,Main,2022.1.1,60.00870126165415,
negative,red,1,None,None,,,,,,,,,0,44,44,44,,,,,,,,,,,,,,,,,,,,,,,,,,,,,,,,,,,,,main,None,None,1,1.5008261000002676,312.1255394000002,None,None,1,,,,,,,,,,,,,,201,24,Female,2022-04-26_13h26.51.964,Main,2022.1.1,60.00870126165415,
negative,yellow,1,k,None,,,,,,,,,0,45,45,45,,,,,,,,,,,,,,,,,,,,,,,,,,,,,,,,,,,,,main,None,None,1,1.5022825000000921,314.6287043,None,None,1,,,,,,,,,,,,,,201,24,Female,2022-04-26_13h26.51.964,Main,2022.1.1,60.00870126165415,
negative,yellow,1,k,None,,,,,,,,,0,46,46,46,,,,,,,,,,,,,,,,,,,,,,,,,,,,,,,,,,,,,main,None,None,1,1.5014406999998755,317.13211190000015,None,None,1,,,,,,,,,,,,,,201,24,Female,2022-04-26_13h26.51.964,Main,2022.1.1,60.00870126165415,
positive,red,1,None,None,,,,,,,,,0,47,47,47,,,,,,,,,,,,,,,,,,,,,,,,,,,,,,,,,,,,,main,None,None,1,1.5042616000000635,319.6346996999998,None,None,1,,,,,,,,,,,,,,201,24,Female,2022-04-26_13h26.51.964,Main,2022.1.1,60.00870126165415,
positive,yellow,1,None,k,,,,,,,,,0,48,48,48,,,,,,,,,,,,,,,,,,,,,,,,,,,,,,,,,,,,,main,k,k,1,0.9634529999998449,322.14308559999995,None,None,0,,,,,,,,,,,,,,201,24,Female,2022-04-26_13h26.51.964,Main,2022.1.1,60.00870126165415,
negative,blue,1,None,k,,,,,,,,,0,49,49,49,,,,,,,,,,,,,,,,,,,,,,,,,,,,,,,,,,,,,main,k,k,1,1.0127318999998352,324.1071989999998,None,None,0,,,,,,,,,,,,,,201,24,Female,2022-04-26_13h26.51.964,Main,2022.1.1,60.00870126165415,
positive,yellow,2,None,k,,,,,,,,,0,50,50,50,,,,,,,,,,,,,,,,,,,,,,,,,,,,,,,,,,,,,main,k,k,1,1.0027970999999525,326.11967040000013,None,None,0,,,,,,,,,,,,,,201,24,Female,2022-04-26_13h26.51.964,Main,2022.1.1,60.00870126165415,
negative,blue,1,None,k,,,,,,,,,0,51,51,51,,,,,,,,,,,,,,,,,,,,,,,,,,,,,,,,,,,,,main,k,k,1,0.8811662000002798,328.12638630000015,None,None,0,,,,,,,,,,,,,,201,24,Female,2022-04-26_13h26.51.964,Main,2022.1.1,60.00870126165415,
positive,red,2,None,None,,,,,,,,,0,52,52,52,,,,,,,,,,,,,,,,,,,,,,,,,,,,,,,,,,,,,main,None,None,1,1.5020390999998199,330.0084714000002,None,None,1,,,,,,,,,,,,,,201,24,Female,2022-04-26_13h26.51.964,Main,2022.1.1,60.00870126165415,
positive,yellow,2,None,k,,,,,,,,,0,53,53,53,,,,,,,,,,,,,,,,,,,,,,,,,,,,,,,,,,,,,main,k,k,1,0.990580300000147,332.51161579999984,None,None,0,,,,,,,,,,,,,,201,24,Female,2022-04-26_13h26.51.964,Main,2022.1.1,60.00870126165415,
negative,red,2,None,None,,,,,,,,,0,54,54,54,,,,,,,,,,,,,,,,,,,,,,,,,,,,,,,,,,,,,main,None,None,1,1.4973150999999234,334.50532309999994,None,None,1,,,,,,,,,,,,,,201,24,Female,2022-04-26_13h26.51.964,Main,2022.1.1,60.00870126165415,
positive,yellow,1,None,k,,,,,,,,,0,55,55,55,,,,,,,,,,,,,,,,,,,,,,,,,,,,,,,,,,,,,main,k,k,1,0.9485179999996944,337.0011244,None,None,0,,,,,,,,,,,,,,201,24,Female,2022-04-26_13h26.51.964,Main,2022.1.1,60.00870126165415,
negative,blue,2,None,k,,,,,,,,,0,56,56,56,,,,,,,,,,,,,,,,,,,,,,,,,,,,,,,,,,,,,main,k,k,1,0.9174714000000677,338.95170040000016,None,None,0,,,,,,,,,,,,,,201,24,Female,2022-04-26_13h26.51.964,Main,2022.1.1,60.00870126165415,
positive,blue,1,k,None,,,,,,,,,0,57,57,57,,,,,,,,,,,,,,,,,,,,,,,,,,,,,,,,,,,,,main,None,None,1,1.5117639000000054,340.87303069999984,None,None,1,,,,,,,,,,,,,,201,24,Female,2022-04-26_13h26.51.964,Main,2022.1.1,60.00870126165415,
positive,blue,1,k,None,,,,,,,,,0,58,58,58,,,,,,,,,,,,,,,,,,,,,,,,,,,,,,,,,,,,,main,None,None,1,1.497562900000048,343.3836592,None,None,1,,,,,,,,,,,,,,201,24,Female,2022-04-26_13h26.51.964,Main,2022.1.1,60.00870126165415,
negative,yellow,2,k,None,,,,,,,,,0,59,59,59,,,,,,,,,,,,,,,,,,,,,,,,,,,,,,,,,,,,,main,None,None,1,1.511236000000281,345.88212709999993,None,None,1,,,,,,,,,,,,,,201,24,Female,2022-04-26_13h26.51.964,Main,2022.1.1,60.00870126165415,
positive,red,2,None,None,,,,,,,,,0,60,60,60,,,,,,,,,,,,,,,,,,,,,,,,,,,,,,,,,,,,,main,None,None,1,1.5071501999996144,348.3987562,None,None,1,,,,,,,,,,,,,,201,24,Female,2022-04-26_13h26.51.964,Main,2022.1.1,60.00870126165415,
negative,yellow,1,k,None,,,,,,,,,0,61,61,61,,,,,,,,,,,,,,,,,,,,,,,,,,,,,,,,,,,,,main,None,None,1,1.4961202999998022,350.9086500000001,None,None,1,,,,,,,,,,,,,,201,24,Female,2022-04-26_13h26.51.964,Main,2022.1.1,60.00870126165415,
negative,red,1,None,None,,,,,,,,,0,62,62,62,,,,,,,,,,,,,,,,,,,,,,,,,,,,,,,,,,,,,main,None,None,1,1.5111109999998007,353.4060781999999,None,None,1,,,,,,,,,,,,,,201,24,Female,2022-04-26_13h26.51.964,Main,2022.1.1,60.00870126165415,
negative,blue,1,None,k,,,,,,,,,0,63,63,63,,,,,,,,,,,,,,,,,,,,,,,,,,,,,,,,,,,,,main,k,k,1,0.98365960000001,355.9161732,None,None,0,,,,,,,,,,,,,,201,24,Female,2022-04-26_13h26.51.964,Main,2022.1.1,60.00870126165415,
positive,blue,2,k,None,,,,,,,,,0,64,64,64,,,,,,,,,,,,,,,,,,,,,,,,,,,,,,,,,,,,,main,None,None,1,1.498785200000384,357.9044612,None,None,1,,,,,,,,,,,,,,201,24,Female,2022-04-26_13h26.51.964,Main,2022.1.1,60.00870126165415,
negative,yellow,2,k,None,,,,,,,,,0,65,65,65,,,,,,,,,,,,,,,,,,,,,,,,,,,,,,,,,,,,,main,None,None,1,1.4998193000001265,360.4035876999999,None,None,1,,,,,,,,,,,,,,201,24,Female,2022-04-26_13h26.51.964,Main,2022.1.1,60.00870126165415,
positive,yellow,2,None,k,,,,,,,,,0,66,66,66,,,,,,,,,,,,,,,,,,,,,,,,,,,,,,,,,,,,,main,k,k,1,0.9811815000002753,362.90515089999985,None,None,0,,,,,,,,,,,,,,201,24,Female,2022-04-26_13h26.51.964,Main,2022.1.1,60.00870126165415,
positive,yellow,2,None,k,,,,,,,,,0,67,67,67,,,,,,,,,,,,,,,,,,,,,,,,,,,,,,,,,,,,,main,k,k,1,0.9237579000000551,364.8878781000001,None,None,0,,,,,,,,,,,,,,201,24,Female,2022-04-26_13h26.51.964,Main,2022.1.1,60.00870126165415,
positive,red,1,None,None,,,,,,,,,0,68,68,68,,,,,,,,,,,,,,,,,,,,,,,,,,,,,,,,,,,,,main,None,None,1,1.5003145999999106,366.8127379,None,None,1,,,,,,,,,,,,,,201,24,Female,2022-04-26_13h26.51.964,Main,2022.1.1,60.00870126165415,
positive,yellow,1,None,k,,,,,,,,,0,69,69,69,,,,,,,,,,,,,,,,,,,,,,,,,,,,,,,,,,,,,main,k,k,1,1.0221301000001404,369.31459629999995,None,None,0,,,,,,,,,,,,,,201,24,Female,2022-04-26_13h26.51.964,Main,2022.1.1,60.00870126165415,
negative,yellow,2,k,None,,,,,,,,,0,70,70,70,,,,,,,,,,,,,,,,,,,,,,,,,,,,,,,,,,,,,main,None,None,1,1.4979572000002008,371.33967259999986,None,None,1,,,,,,,,,,,,,,201,24,Female,2022-04-26_13h26.51.964,Main,2022.1.1,60.00870126165415,
positive,yellow,1,None,k,,,,,,,,,0,71,71,71,,,,,,,,,,,,,,,,,,,,,,,,,,,,,,,,,,,,,main,k,k,1,0.984839600000214,373.83967860000007,None,None,0,,,,,,,,,,,,,,201,24,Female,2022-04-26_13h26.51.964,Main,2022.1.1,60.00870126165415,
negative,blue,1,None,k,,,,,,,,,0,72,72,72,,,,,,,,,,,,,,,,,,,,,,,,,,,,,,,,,,,,,main,k,k,1,1.0430083000001105,375.8259300000002,None,None,0,,,,,,,,,,,,,,201,24,Female,2022-04-26_13h26.51.964,Main,2022.1.1,60.00870126165415,
negative,red,2,None,None,,,,,,,,,0,73,73,73,,,,,,,,,,,,,,,,,,,,,,,,,,,,,,,,,,,,,main,None,None,1,1.502641500000209,377.87095939999995,None,None,1,,,,,,,,,,,,,,201,24,Female,2022-04-26_13h26.51.964,Main,2022.1.1,60.00870126165415,
positive,blue,2,k,None,,,,,,,,,0,74,74,74,,,,,,,,,,,,,,,,,,,,,,,,,,,,,,,,,,,,,main,None,None,1,1.5031690999999228,380.37469510000005,None,None,1,,,,,,,,,,,,,,201,24,Female,2022-04-26_13h26.51.964,Main,2022.1.1,60.00870126165415,
negative,blue,2,None,k,,,,,,,,,0,75,75,75,,,,,,,,,,,,,,,,,,,,,,,,,,,,,,,,,,,,,main,k,k,1,0.8953129000001354,382.87770539999997,None,None,0,,,,,,,,,,,,,,201,24,Female,2022-04-26_13h26.51.964,Main,2022.1.1,60.00870126165415,
negative,blue,2,None,k,,,,,,,,,0,76,76,76,,,,,,,,,,,,,,,,,,,,,,,,,,,,,,,,,,,,,main,k,k,1,4.011082999999871,384.7760403,None,None,0,,,,,,,,,,,,,,201,24,Female,2022-04-26_13h26.51.964,Main,2022.1.1,60.00870126165415,
negative,yellow,1,k,None,,,,,,,,,0,77,77,77,,,,,,,,,,,,,,,,,,,,,,,,,,,,,,,,,,,,,main,None,None,1,1.5061486999998124,390.79577529999983,None,None,1,,,,,,,,,,,,,,201,24,Female,2022-04-26_13h26.51.964,Main,2022.1.1,60.00870126165415,
positive,blue,1,k,None,,,,,,,,,0,78,78,78,,,,,,,,,,,,,,,,,,,,,,,,,,,,,,,,,,,,,main,None,None,1,1.4946234000003642,393.30389880000007,None,None,1,,,,,,,,,,,,,,201,24,Female,2022-04-26_13h26.51.964,Main,2022.1.1,60.00870126165415,
positive,blue,1,k,None,,,,,,,,,0,79,79,79,,,,,,,,,,,,,,,,,,,,,,,,,,,,,,,,,,,,,main,None,None,1,1.4981901999999536,395.80022440000016,None,None,1,,,,,,,,,,,,,,201,24,Female,2022-04-26_13h26.51.964,Main,2022.1.1,60.00870126165415,
positive,red,2,None,None,,,,,,,,,0,80,80,80,,,,,,,,,,,,,,,,,,,,,,,,,,,,,,,,,,,,,main,None,None,1,1.5095252000000983,398.30049699999995,None,None,1,,,,,,,,,,,,,,201,24,Female,2022-04-26_13h26.51.964,Main,2022.1.1,60.00870126165415,
positive,yellow,2,None,k,,,,,,,,,0,81,81,81,,,,,,,,,,,,,,,,,,,,,,,,,,,,,,,,,,,,,main,k,k,1,0.9980096999997841,400.80927259999976,None,None,0,,,,,,,,,,,,,,201,24,Female,2022-04-26_13h26.51.964,Main,2022.1.1,60.00870126165415,
positive,blue,1,k,None,,,,,,,,,0,82,82,82,,,,,,,,,,,,,,,,,,,,,,,,,,,,,,,,,,,,,main,None,None,1,1.5071917000000212,402.80942029999983,None,None,1,,,,,,,,,,,,,,201,24,Female,2022-04-26_13h26.51.964,Main,2022.1.1,60.00870126165415,
negative,yellow,2,k,None,,,,,,,,,0,83,83,83,,,,,,,,,,,,,,,,,,,,,,,,,,,,,,,,,,,,,main,None,None,1,1.5090327000002617,405.31918040000005,None,None,1,,,,,,,,,,,,,,201,24,Female,2022-04-26_13h26.51.964,Main,2022.1.1,60.00870126165415,
positive,blue,2,k,None,,,,,,,,,0,84,84,84,,,,,,,,,,,,,,,,,,,,,,,,,,,,,,,,,,,,,main,None,None,1,1.5083286999997654,407.82808199999977,None,None,1,,,,,,,,,,,,,,201,24,Female,2022-04-26_13h26.51.964,Main,2022.1.1,60.00870126165415,
positive,yellow,1,None,k,,,,,,,,,0,85,85,85,,,,,,,,,,,,,,,,,,,,,,,,,,,,,,,,,,,,,main,k,k,1,1.2284775999996782,410.3395533999999,None,None,0,,,,,,,,,,,,,,201,24,Female,2022-04-26_13h26.51.964,Main,2022.1.1,60.00870126165415,
positive,blue,2,k,None,,,,,,,,,0,86,86,86,,,,,,,,,,,,,,,,,,,,,,,,,,,,,,,,,,,,,main,None,None,1,1.5109440999999606,412.57149319999985,None,None,1,,,,,,,,,,,,,,201,24,Female,2022-04-26_13h26.51.964,Main,2022.1.1,60.00870126165415,
positive,blue,1,k,None,,,,,,,,,0,87,87,87,,,,,,,,,,,,,,,,,,,,,,,,,,,,,,,,,,,,,main,None,None,1,1.4968149000001176,415.0858695999998,None,None,1,,,,,,,,,,,,,,201,24,Female,2022-04-26_13h26.51.964,Main,2022.1.1,60.00870126165415,
negative,yellow,2,k,None,,,,,,,,,0,88,88,88,,,,,,,,,,,,,,,,,,,,,,,,,,,,,,,,,,,,,main,None,None,1,1.509584200000063,417.58528679999995,None,None,1,,,,,,,,,,,,,,201,24,Female,2022-04-26_13h26.51.964,Main,2022.1.1,60.00870126165415,
negative,blue,2,None,k,,,,,,,,,0,89,89,89,,,,,,,,,,,,,,,,,,,,,,,,,,,,,,,,,,,,,main,k,k,1,0.9277278999998089,420.09694160000004,None,None,0,,,,,,,,,,,,,,201,24,Female,2022-04-26_13h26.51.964,Main,2022.1.1,60.00870126165415,
positive,yellow,2,None,k,,,,,,,,,0,90,90,90,,,,,,,,,,,,,,,,,,,,,,,,,,,,,,,,,,,,,main,k,k,1,1.0275800999997955,422.0247803999998,None,None,0,,,,,,,,,,,,,,201,24,Female,2022-04-26_13h26.51.964,Main,2022.1.1,60.00870126165415,
negative,yellow,1,k,None,,,,,,,,,0,91,91,91,,,,,,,,,,,,,,,,,,,,,,,,,,,,,,,,,,,,,main,None,None,1,1.506326899999749,424.05534150000017,None,None,1,,,,,,,,,,,,,,201,24,Female,2022-04-26_13h26.51.964,Main,2022.1.1,60.00870126165415,
negative,red,2,None,None,,,,,,,,,0,92,92,92,,,,,,,,,,,,,,,,,,,,,,,,,,,,,,,,,,,,,main,None,None,1,1.5086397000000034,426.5659125999998,None,None,1,,,,,,,,,,,,,,201,24,Female,2022-04-26_13h26.51.964,Main,2022.1.1,60.00870126165415,
negative,blue,2,None,k,,,,,,,,,0,93,93,93,,,,,,,,,,,,,,,,,,,,,,,,,,,,,,,,,,,,,main,k,k,1,0.8259965000002012,429.07402339999976,None,None,0,,,,,,,,,,,,,,201,24,Female,2022-04-26_13h26.51.964,Main,2022.1.1,60.00870126165415,
negative,blue,1,None,k,,,,,,,,,0,94,94,94,,,,,,,,,,,,,,,,,,,,,,,,,,,,,,,,,,,,,main,k,k,1,1.0005559000001085,430.9049862999998,None,None,0,,,,,,,,,,,,,,201,24,Female,2022-04-26_13h26.51.964,Main,2022.1.1,60.00870126165415,
negative,blue,1,None,k,,,,,,,,,0,95,95,95,,,,,,,,,,,,,,,,,,,,,,,,,,,,,,,,,,,,,main,k,k,1,0.9696506999998746,432.9102470999999,None,None,0,,,,,,,,,,,,,,201,24,Female,2022-04-26_13h26.51.964,Main,2022.1.1,60.00870126165415,
negative,red,1,None,None,,,,,,,,,0,96,96,96,,,,,,,,,,,,,,,,,,,,,,,,,,,,,,,,,,,,,main,None,None,1,1.4979185000001962,434.8815790000001,None,None,1,,,,,,,,,,,,,,201,24,Female,2022-04-26_13h26.51.964,Main,2022.1.1,60.00870126165415,
positive,yellow,1,None,k,,,,,,,,,0,97,97,97,,,,,,,,,,,,,,,,,,,,,,,,,,,,,,,,,,,,,main,k,k,1,1.308487000000241,437.3801206999999,None,None,0,,,,,,,,,,,,,,201,24,Female,2022-04-26_13h26.51.964,Main,2022.1.1,60.00870126165415,
negative,yellow,1,k,None,,,,,,,,,0,98,98,98,,,,,,,,,,,,,,,,,,,,,,,,,,,,,,,,,,,,,main,None,None,1,1.5020681999999397,439.6875999000001,None,None,1,,,,,,,,,,,,,,201,24,Female,2022-04-26_13h26.51.964,Main,2022.1.1,60.00870126165415,
positive,red,1,None,None,,,,,,,,,0,99,99,99,,,,,,,,,,,,,,,,,,,,,,,,,,,,,,,,,,,,,main,None,None,1,1.4950206999997135,442.1955058000001,None,None,1,,,,,,,,,,,,,,201,24,Female,2022-04-26_13h26.51.964,Main,2022.1.1,60.00870126165415,
positive,blue,1,k,None,,,,,,,,,0,100,100,100,,,,,,,,,,,,,,,,,,,,,,,,,,,,,,,,,,,,,main,None,None,1,1.4968811999997342,444.6886514,None,None,1,,,,,,,,,,,,,,201,24,Female,2022-04-26_13h26.51.964,Main,2022.1.1,60.00870126165415,
negative,yellow,1,k,None,,,,,,,,,0,101,101,101,,,,,,,,,,,,,,,,,,,,,,,,,,,,,,,,,,,,,main,None,None,1,1.4948789000000033,447.1868579999998,None,None,1,,,,,,,,,,,,,,201,24,Female,2022-04-26_13h26.51.964,Main,2022.1.1,60.00870126165415,
negative,blue,2,None,k,,,,,,,,,0,102,102,102,,,,,,,,,,,,,,,,,,,,,,,,,,,,,,,,,,,,,main,k,k,1,0.9763652000001457,449.6854801000002,None,None,0,,,,,,,,,,,,,,201,24,Female,2022-04-26_13h26.51.964,Main,2022.1.1,60.00870126165415,
negative,yellow,2,k,None,,,,,,,,,0,103,103,103,,,,,,,,,,,,,,,,,,,,,,,,,,,,,,,,,,,,,main,None,None,1,1.4940326000000823,451.66543979999983,None,None,1,,,,,,,,,,,,,,201,24,Female,2022-04-26_13h26.51.964,Main,2022.1.1,60.00870126165415,
positive,yellow,2,None,k,,,,,,,,,0,104,104,104,,,,,,,,,,,,,,,,,,,,,,,,,,,,,,,,,,,,,main,k,k,1,1.1130631999999423,454.1617125999999,None,None,0,,,,,,,,,,,,,,201,24,Female,2022-04-26_13h26.51.964,Main,2022.1.1,60.00870126165415,
positive,blue,1,k,None,,,,,,,,,0,105,105,105,,,,,,,,,,,,,,,,,,,,,,,,,,,,,,,,,,,,,main,None,None,1,1.5059205999996266,456.27564000000007,None,None,1,,,,,,,,,,,,,,201,24,Female,2022-04-26_13h26.51.964,Main,2022.1.1,60.00870126165415,
positive,blue,2,k,None,,,,,,,,,0,106,106,106,,,,,,,,,,,,,,,,,,,,,,,,,,,,,,,,,,,,,main,None,None,1,1.5075903000001745,458.78231489999985,None,None,1,,,,,,,,,,,,,,201,24,Female,2022-04-26_13h26.51.964,Main,2022.1.1,60.00870126165415,
negative,blue,1,None,k,,,,,,,,,0,107,107,107,,,,,,,,,,,,,,,,,,,,,,,,,,,,,,,,,,,,,main,k,k,1,0.9710061999999198,461.29234139999994,None,None,0,,,,,,,,,,,,,,201,24,Female,2022-04-26_13h26.51.964,Main,2022.1.1,60.00870126165415,
positive,yellow,2,None,k,,,,,,,,,0,108,108,108,,,,,,,,,,,,,,,,,,,,,,,,,,,,,,,,,,,,,main,k,k,1,1.0079844000001685,463.2649078000002,None,None,0,,,,,,,,,,,,,,201,24,Female,2022-04-26_13h26.51.964,Main,2022.1.1,60.00870126165415,
negative,yellow,1,k,None,,,,,,,,,0,109,109,109,,,,,,,,,,,,,,,,,,,,,,,,,,,,,,,,,,,,,main,None,None,1,1.5052378000000317,465.2745811000002,None,None,1,,,,,,,,,,,,,,201,24,Female,2022-04-26_13h26.51.964,Main,2022.1.1,60.00870126165415,
negative,blue,2,None,k,,,,,,,,,0,110,110,110,,,,,,,,,,,,,,,,,,,,,,,,,,,,,,,,,,,,,main,k,k,1,1.3565762999996878,467.78046759999984,None,None,0,,,,,,,,,,,,,,201,24,Female,2022-04-26_13h26.51.964,Main,2022.1.1,60.00870126165415,
positive,blue,2,k,None,,,,,,,,,0,111,111,111,,,,,,,,,,,,,,,,,,,,,,,,,,,,,,,,,,,,,main,None,None,1,1.509838899999977,470.1418547999999,None,None,1,,,,,,,,,,,,,,201,24,Female,2022-04-26_13h26.51.964,Main,2022.1.1,60.00870126165415,
negative,blue,1,None,k,,,,,,,,,0,112,112,112,,,,,,,,,,,,,,,,,,,,,,,,,,,,,,,,,,,,,main,k,k,1,1.0003105999999207,472.6505507999998,None,None,0,,,,,,,,,,,,,,201,24,Female,2022-04-26_13h26.51.964,Main,2022.1.1,60.00870126165415,
positive,yellow,1,None,k,,,,,,,,,0,113,113,113,,,,,,,,,,,,,,,,,,,,,,,,,,,,,,,,,,,,,main,k,k,1,1.0365170000000035,474.65565660000016,None,None,0,,,,,,,,,,,,,,201,24,Female,2022-04-26_13h26.51.964,Main,2022.1.1,60.00870126165415,
negative,red,1,None,None,,,,,,,,,0,114,114,114,,,,,,,,,,,,,,,,,,,,,,,,,,,,,,,,,,,,,main,None,None,1,1.502361899999869,476.69304369999986,None,None,1,,,,,,,,,,,,,,201,24,Female,2022-04-26_13h26.51.964,Main,2022.1.1,60.00870126165415,
positive,red,1,None,None,,,,,,,,,0,115,115,115,,,,,,,,,,,,,,,,,,,,,,,,,,,,,,,,,,,,,main,None,None,1,1.4997957999999016,479.19486930000016,None,None,1,,,,,,,,,,,,,,201,24,Female,2022-04-26_13h26.51.964,Main,2022.1.1,60.00870126165415,
negative,red,2,None,None,,,,,,,,,0,116,116,116,,,,,,,,,,,,,,,,,,,,,,,,,,,,,,,,,,,,,main,None,None,1,1.5090164000002915,481.69672030000015,None,None,1,,,,,,,,,,,,,,201,24,Female,2022-04-26_13h26.51.964,Main,2022.1.1,60.00870126165415,
negative,yellow,2,k,None,,,,,,,,,0,117,117,117,,,,,,,,,,,,,,,,,,,,,,,,,,,,,,,,,,,,,main,None,None,1,1.4967716999999539,484.2091573,None,None,1,,,,,,,,,,,,,,201,24,Female,2022-04-26_13h26.51.964,Main,2022.1.1,60.00870126165415,
positive,yellow,1,None,k,,,,,,,,,0,118,118,118,,,,,,,,,,,,,,,,,,,,,,,,,,,,,,,,,,,,,main,k,k,1,1.070552300000145,486.7126617000001,None,None,0,,,,,,,,,,,,,,201,24,Female,2022-04-26_13h26.51.964,Main,2022.1.1,60.00870126165415,
positive,red,2,None,None,,,,,,,,,0,119,119,119,,,,,,,,,,,,,,,,,,,,,,,,,,,,,,,,,,,,,main,None,None,1,1.496857000000091,488.78127100000006,None,None,1,,,,,,,,,,,,,,201,24,Female,2022-04-26_13h26.51.964,Main,2022.1.1,60.00870126165415,
positive,blue,2,k,None,,,,,,,,,0,120,120,120,,,,,,,,,,,,,,,,,,,,,,,,,,,,,,,,,,,,,main,None,None,1,1.5002660000000105,491.2798369999998,None,None,1,,,,,,,,,,,,,,201,24,Female,2022-04-26_13h26.51.964,Main,2022.1.1,60.00870126165415,
negative,red,1,None,None,,,,,,,,,0,121,121,121,,,,,,,,,,,,,,,,,,,,,,,,,,,,,,,,,,,,,main,None,None,1,1.5037536999998338,493.78498449999984,None,None,1,,,,,,,,,,,,,,201,24,Female,2022-04-26_13h26.51.964,Main,2022.1.1,60.00870126165415,
positive,yellow,2,None,k,,,,,,,,,0,122,122,122,,,,,,,,,,,,,,,,,,,,,,,,,,,,,,,,,,,,,main,k,k,1,1.0485625999999684,496.2890482999999,None,None,0,,,,,,,,,,,,,,201,24,Female,2022-04-26_13h26.51.964,Main,2022.1.1,60.00870126165415,
negative,red,2,None,None,,,,,,,,,0,123,123,123,,,,,,,,,,,,,,,,,,,,,,,,,,,,,,,,,,,,,main,None,None,1,1.5096843999999692,498.33904719999987,None,None,1,,,,,,,,,,,,,,201,24,Female,2022-04-26_13h26.51.964,Main,2022.1.1,60.00870126165415,
negative,yellow,2,k,None,,,,,,,,,0,124,124,124,,,,,,,,,,,,,,,,,,,,,,,,,,,,,,,,,,,,,main,None,None,1,1.495627499999955,500.85023149999984,None,None,1,,,,,,,,,,,,,,201,24,Female,2022-04-26_13h26.51.964,Main,2022.1.1,60.00870126165415,
positive,red,1,None,None,,,,,,,,,0,125,125,125,,,,,,,,,,,,,,,,,,,,,,,,,,,,,,,,,,,,,main,None,None,1,1.4991813999999977,503.34632510000006,None,None,1,,,,,,,,,,,,,,201,24,Female,2022-04-26_13h26.51.964,Main,2022.1.1,60.00870126165415,
negative,blue,2,None,k,,,,,,,,,0,126,126,126,,,,,,,,,,,,,,,,,,,,,,,,,,,,,,,,,,,,,main,k,k,1,1.0461785000002237,505.84600160000014,None,None,0,,,,,,,,,,,,,,201,24,Female,2022-04-26_13h26.51.964,Main,2022.1.1,60.00870126165415,
negative,blue,1,None,k,,,,,,,,,0,127,127,127,,,,,,,,,,,,,,,,,,,,,,,,,,,,,,,,,,,,,main,k,k,1,1.0177144999997836,507.89401840000005,None,None,0,,,,,,,,,,,,,,201,24,Female,2022-04-26_13h26.51.964,Main,2022.1.1,60.00870126165415,
negative,yellow,1,k,None,,,,,,,,,0,128,128,128,,,,,,,,,,,,,,,,,,,,,,,,,,,,,,,,,,,,,main,None,None,1,1.5004149999999754,509.9140338999998,None,None,1,,,,,,,,,,,,,,201,24,Female,2022-04-26_13h26.51.964,Main,2022.1.1,60.00870126165415,
negative,yellow,1,k,None,,,,,,,,,0,129,129,129,,,,,,,,,,,,,,,,,,,,,,,,,,,,,,,,,,,,,main,None,None,1,1.5108992999998918,512.4179404999998,None,None,1,,,,,,,,,,,,,,201,24,Female,2022-04-26_13h26.51.964,Main,2022.1.1,60.00870126165415,
positive,blue,1,k,None,,,,,,,,,0,130,130,130,,,,,,,,,,,,,,,,,,,,,,,,,,,,,,,,,,,,,main,None,None,1,1.4985572000000502,514.9273642999999,None,None,1,,,,,,,,,,,,,,201,24,Female,2022-04-26_13h26.51.964,Main,2022.1.1,60.00870126165415,
negative,blue,1,None,k,,,,,,,,,0,131,131,131,,,,,,,,,,,,,,,,,,,,,,,,,,,,,,,,,,,,,main,k,k,1,1.0032859000002645,517.4275540000001,None,None,0,,,,,,,,,,,,,,201,24,Female,2022-04-26_13h26.51.964,Main,2022.1.1,60.00870126165415,
negative,blue,2,None,k,,,,,,,,,0,132,132,132,,,,,,,,,,,,,,,,,,,,,,,,,,,,,,,,,,,,,main,k,k,1,0.9878003000003446,519.4344279,None,None,0,,,,,,,,,,,,,,201,24,Female,2022-04-26_13h26.51.964,Main,2022.1.1,60.00870126165415,
positive,blue,2,k,None,,,,,,,,,0,133,133,133,,,,,,,,,,,,,,,,,,,,,,,,,,,,,,,,,,,,,main,None,None,1,1.507718400000158,521.4232755999999,None,None,1,,,,,,,,,,,,,,201,24,Female,2022-04-26_13h26.51.964,Main,2022.1.1,60.00870126165415,
positive,red,2,None,None,,,,,,,,,0,134,134,134,,,,,,,,,,,,,,,,,,,,,,,,,,,,,,,,,,,,,main,None,None,1,1.5055208000003404,523.9334032999998,None,None,1,,,,,,,,,,,,,,201,24,Female,2022-04-26_13h26.51.964,Main,2022.1.1,60.00870126165415,
negative,yellow,2,k,None,,,,,,,,,0,135,135,135,,,,,,,,,,,,,,,,,,,,,,,,,,,,,,,,,,,,,main,None,None,1,1.4977177999999185,526.4414737999998,None,None,1,,,,,,,,,,,,,,201,24,Female,2022-04-26_13h26.51.964,Main,2022.1.1,60.00870126165415,
positive,yellow,2,None,k,,,,,,,,,0,136,136,136,,,,,,,,,,,,,,,,,,,,,,,,,,,,,,,,,,,,,main,k,k,1,1.0779771000002256,528.9397369999999,None,None,0,,,,,,,,,,,,,,201,24,Female,2022-04-26_13h26.51.964,Main,2022.1.1,60.00870126165415,
positive,blue,1,k,None,,,,,,,,,0,137,137,137,,,,,,,,,,,,,,,,,,,,,,,,,,,,,,,,,,,,,main,None,None,1,1.499381699999958,531.0217283999998,None,None,1,,,,,,,,,,,,,,201,24,Female,2022-04-26_13h26.51.964,Main,2022.1.1,60.00870126165415,
positive,yellow,1,None,k,,,,,,,,,0,138,138,138,,,,,,,,,,,,,,,,,,,,,,,,,,,,,,,,,,,,,main,k,k,1,1.3388543999999456,533.5214936,None,None,0,,,,,,,,,,,,,,201,24,Female,2022-04-26_13h26.51.964,Main,2022.1.1,60.00870126165415,
positive,yellow,1,None,k,,,,,,,,,0,139,139,139,,,,,,,,,,,,,,,,,,,,,,,,,,,,,,,,,,,,,main,k,k,1,0.9407960000003186,535.8621098000001,None,None,0,,,,,,,,,,,,,,201,24,Female,2022-04-26_13h26.51.964,Main,2022.1.1,60.00870126165415,
positive,yellow,1,None,k,,,,,,,,,0,140,140,140,,,,,,,,,,,,,,,,,,,,,,,,,,,,,,,,,,,,,main,k,k,1,1.1369512000001123,537.8045341,None,None,0,,,,,,,,,,,,,,201,24,Female,2022-04-26_13h26.51.964,Main,2022.1.1,60.00870126165415,
positive,blue,1,k,None,,,,,,,,,0,141,141,141,,,,,,,,,,,,,,,,,,,,,,,,,,,,,,,,,,,,,main,None,None,1,1.4995670999996946,539.9408986999999,None,None,1,,,,,,,,,,,,,,201,24,Female,2022-04-26_13h26.51.964,Main,2022.1.1,60.00870126165415,
positive,blue,2,k,None,,,,,,,,,0,142,142,142,,,,,,,,,,,,,,,,,,,,,,,,,,,,,,,,,,,,,main,None,None,1,1.507802200000242,542.4421774999998,None,None,1,,,,,,,,,,,,,,201,24,Female,2022-04-26_13h26.51.964,Main,2022.1.1,60.00870126165415,
positive,yellow,2,None,k,,,,,,,,,0,143,143,143,,,,,,,,,,,,,,,,,,,,,,,,,,,,,,,,,,,,,main,k,k,1,1.1543502000004082,544.9531420000001,None,None,0,,,,,,,,,,,,,,201,24,Female,2022-04-26_13h26.51.964,Main,2022.1.1,60.00870126165415,
negative,yellow,2,k,None,,,,,,,,,0,144,144,144,,,,,,,,,,,,,,,,,,,,,,,,,,,,,,,,,,,,,main,None,None,1,1.5120092000001932,547.1076796,None,None,1,,,,,,,,,,,,,,201,24,Female,2022-04-26_13h26.51.964,Main,2022.1.1,60.00870126165415,
negative,blue,2,None,k,,,,,,,,,0,145,145,145,,,,,,,,,,,,,,,,,,,,,,,,,,,,,,,,,,,,,main,k,k,1,1.1367353999999068,549.6217165999999,None,None,0,,,,,,,,,,,,,,201,24,Female,2022-04-26_13h26.51.964,Main,2022.1.1,60.00870126165415,
negative,red,1,None,None,,,,,,,,,0,146,146,146,,,,,,,,,,,,,,,,,,,,,,,,,,,,,,,,,,,,,main,None,None,1,1.508955700000115,551.7631512,None,None,1,,,,,,,,,,,,,,201,24,Female,2022-04-26_13h26.51.964,Main,2022.1.1,60.00870126165415,
positive,blue,1,k,None,,,,,,,,,0,147,147,147,,,,,,,,,,,,,,,,,,,,,,,,,,,,,,,,,,,,,main,None,None,1,1.4992999999999483,554.2713633000001,None,None,1,,,,,,,,,,,,,,201,24,Female,2022-04-26_13h26.51.964,Main,2022.1.1,60.00870126165415,
positive,yellow,1,None,k,,,,,,,,,0,148,148,148,,,,,,,,,,,,,,,,,,,,,,,,,,,,,,,,,,,,,main,k,k,1,1.0253430000002481,556.7727938,None,None,0,,,,,,,,,,,,,,201,24,Female,2022-04-26_13h26.51.964,Main,2022.1.1,60.00870126165415,
negative,red,2,None,None,,,,,,,,,0,149,149,149,,,,,,,,,,,,,,,,,,,,,,,,,,,,,,,,,,,,,main,None,None,1,1.5098801999997704,558.8005308999998,None,None,1,,,,,,,,,,,,,,201,24,Female,2022-04-26_13h26.51.964,Main,2022.1.1,60.00870126165415,
negative,blue,1,None,k,,,,,,,,,0,150,150,150,,,,,,,,,,,,,,,,,,,,,,,,,,,,,,,,,,,,,main,k,k,1,1.0364043999998103,561.3135165000001,None,None,0,,,,,,,,,,,,,,201,24,Female,2022-04-26_13h26.51.964,Main,2022.1.1,60.00870126165415,
negative,yellow,2,k,None,,,,,,,,,0,151,151,151,,,,,,,,,,,,,,,,,,,,,,,,,,,,,,,,,,,,,main,None,None,1,1.4947658999999476,563.3500200000001,None,None,1,,,,,,,,,,,,,,201,24,Female,2022-04-26_13h26.51.964,Main,2022.1.1,60.00870126165415,
negative,blue,2,None,k,,,,,,,,,0,152,152,152,,,,,,,,,,,,,,,,,,,,,,,,,,,,,,,,,,,,,main,k,k,1,0.9294218000000001,565.8477621,None,None,0,,,,,,,,,,,,,,201,24,Female,2022-04-26_13h26.51.964,Main,2022.1.1,60.00870126165415,
negative,yellow,1,k,None,,,,,,,,,0,153,153,153,,,,,,,,,,,,,,,,,,,,,,,,,,,,,,,,,,,,,main,None,None,1,1.5044057000000066,567.7779079,None,None,1,,,,,,,,,,,,,,201,24,Female,2022-04-26_13h26.51.964,Main,2022.1.1,60.00870126165415,
negative,blue,1,None,k,,,,,,,,,0,154,154,154,,,,,,,,,,,,,,,,,,,,,,,,,,,,,,,,,,,,,main,k,k,1,1.0218723000002683,570.2837044,None,None,0,,,,,,,,,,,,,,201,24,Female,2022-04-26_13h26.51.964,Main,2022.1.1,60.00870126165415,
positive,yellow,2,None,k,,,,,,,,,0,155,155,155,,,,,,,,,,,,,,,,,,,,,,,,,,,,,,,,,,,,,main,k,k,1,1.414177699999982,572.3081501999998,None,None,0,,,,,,,,,,,,,,201,24,Female,2022-04-26_13h26.51.964,Main,2022.1.1,60.00870126165415,
positive,red,2,None,None,,,,,,,,,0,156,156,156,,,,,,,,,,,,,,,,,,,,,,,,,,,,,,,,,,,,,main,None,None,1,1.4985008999997262,574.7216986000001,None,None,1,,,,,,,,,,,,,,201,24,Female,2022-04-26_13h26.51.964,Main,2022.1.1,60.00870126165415,
positive,red,1,None,None,,,,,,,,,0,157,157,157,,,,,,,,,,,,,,,,,,,,,,,,,,,,,,,,,,,,,main,None,None,1,1.5015536000000793,577.2209851999999,None,None,1,,,,,,,,,,,,,,201,24,Female,2022-04-26_13h26.51.964,Main,2022.1.1,60.00870126165415,
positive,blue,2,k,None,,,,,,,,,0,158,158,158,,,,,,,,,,,,,,,,,,,,,,,,,,,,,,,,,,,,,main,None,None,1,1.5108276999999362,579.7268660000002,None,None,1,,,,,,,,,,,,,,201,24,Female,2022-04-26_13h26.51.964,Main,2022.1.1,60.00870126165415,
negative,yellow,1,k,None,,,,,,,,,0,159,159,159,,,,,,,,,,,,,,,,,,,,,,,,,,,,,,,,,,,,,main,None,None,1,1.5019542000000001,582.2365169000002,None,None,1,,,,,,,,,,,,,,201,24,Female,2022-04-26_13h26.51.964,Main,2022.1.1,60.00870126165415,
negative,red,2,None,None,,,,,,,,,0,160,160,160,,,,,,,,,,,,,,,,,,,,,,,,,,,,,,,,,,,,,main,None,None,1,1.506065000000035,584.7421673000001,None,None,1,,,,,,,,,,,,,,201,24,Female,2022-04-26_13h26.51.964,Main,2022.1.1,60.00870126165415,
negative,blue,1,None,k,,,,,,,,,0,161,161,161,,,,,,,,,,,,,,,,,,,,,,,,,,,,,,,,,,,,,main,k,k,1,1.0895438000002287,587.2491139000001,None,None,0,,,,,,,,,,,,,,201,24,Female,2022-04-26_13h26.51.964,Main,2022.1.1,60.00870126165415,
negative,blue,1,None,k,,,,,,,,,0,162,162,162,,,,,,,,,,,,,,,,,,,,,,,,,,,,,,,,,,,,,main,k,k,1,1.0207581999998183,589.3433532000001,None,None,0,,,,,,,,,,,,,,201,24,Female,2022-04-26_13h26.51.964,Main,2022.1.1,60.00870126165415,
negative,yellow,1,k,None,,,,,,,,,0,163,163,163,,,,,,,,,,,,,,,,,,,,,,,,,,,,,,,,,,,,,main,None,None,1,1.5079169999999067,591.3641672000001,None,None,1,,,,,,,,,,,,,,201,24,Female,2022-04-26_13h26.51.964,Main,2022.1.1,60.00870126165415,
negative,yellow,1,k,None,,,,,,,,,0,164,164,164,,,,,,,,,,,,,,,,,,,,,,,,,,,,,,,,,,,,,main,None,None,1,1.4961852999999792,593.8743225000001,None,None,1,,,,,,,,,,,,,,201,24,Female,2022-04-26_13h26.51.964,Main,2022.1.1,60.00870126165415,
positive,yellow,1,None,k,,,,,,,,,0,165,165,165,,,,,,,,,,,,,,,,,,,,,,,,,,,,,,,,,,,,,main,k,k,1,1.0058686000002126,596.3705769999999,None,None,0,,,,,,,,,,,,,,201,24,Female,2022-04-26_13h26.51.964,Main,2022.1.1,60.00870126165415,
negative,red,1,None,None,,,,,,,,,0,166,166,166,,,,,,,,,,,,,,,,,,,,,,,,,,,,,,,,,,,,,main,None,None,1,1.5080270999997083,598.3836954000001,None,None,1,,,,,,,,,,,,,,201,24,Female,2022-04-26_13h26.51.964,Main,2022.1.1,60.00870126165415,
negative,yellow,2,k,None,,,,,,,,,0,167,167,167,,,,,,,,,,,,,,,,,,,,,,,,,,,,,,,,,,,,,main,None,None,1,1.5113498999999138,600.8892671000001,None,None,1,,,,,,,,,,,,,,201,24,Female,2022-04-26_13h26.51.964,Main,2022.1.1,60.00870126165415,
positive,blue,2,k,None,,,,,,,,,0,168,168,168,,,,,,,,,,,,,,,,,,,,,,,,,,,,,,,,,,,,,main,None,None,1,1.5018714000002547,603.3998376000002,None,None,1,,,,,,,,,,,,,,201,24,Female,2022-04-26_13h26.51.964,Main,2022.1.1,60.00870126165415,
positive,red,2,None,None,,,,,,,,,0,169,169,169,,,,,,,,,,,,,,,,,,,,,,,,,,,,,,,,,,,,,main,None,None,1,1.5118570999998155,605.9056294999998,None,None,1,,,,,,,,,,,,,,201,24,Female,2022-04-26_13h26.51.964,Main,2022.1.1,60.00870126165415,
positive,red,1,None,None,,,,,,,,,0,170,170,170,,,,,,,,,,,,,,,,,,,,,,,,,,,,,,,,,,,,,main,None,None,1,1.5120201999998244,608.4170038999998,None,None,1,,,,,,,,,,,,,,201,24,Female,2022-04-26_13h26.51.964,Main,2022.1.1,60.00870126165415,
negative,blue,2,None,k,,,,,,,,,0,171,171,171,,,,,,,,,,,,,,,,,,,,,,,,,,,,,,,,,,,,,main,k,k,1,1.5674715999998625,610.9306027,None,None,0,,,,,,,,,,,,,,201,24,Female,2022-04-26_13h26.51.964,Main,2022.1.1,60.00870126165415,
positive,blue,2,k,None,,,,,,,,,0,172,172,172,,,,,,,,,,,,,,,,,,,,,,,,,,,,,,,,,,,,,main,None,None,1,1.4949523000000227,614.516797,None,None,1,,,,,,,,,,,,,,201,24,Female,2022-04-26_13h26.51.964,Main,2022.1.1,60.00870126165415,
negative,yellow,2,k,None,,,,,,,,,0,173,173,173,,,,,,,,,,,,,,,,,,,,,,,,,,,,,,,,,,,,,main,None,None,1,1.5036850999999842,617.0138456000002,None,None,1,,,,,,,,,,,,,,201,24,Female,2022-04-26_13h26.51.964,Main,2022.1.1,60.00870126165415,
positive,yellow,2,None,k,,,,,,,,,0,174,174,174,,,,,,,,,,,,,,,,,,,,,,,,,,,,,,,,,,,,,main,k,k,1,0.9518957000000228,619.5207610999998,None,None,0,,,,,,,,,,,,,,201,24,Female,2022-04-26_13h26.51.964,Main,2022.1.1,60.00870126165415,
negative,blue,2,None,k,,,,,,,,,0,175,175,175,,,,,,,,,,,,,,,,,,,,,,,,,,,,,,,,,,,,,main,k,k,1,0.8953702000003432,621.4743645000001,None,None,0,,,,,,,,,,,,,,201,24,Female,2022-04-26_13h26.51.964,Main,2022.1.1,60.00870126165415,
positive,blue,1,k,None,,,,,,,,,0,176,176,176,,,,,,,,,,,,,,,,,,,,,,,,,,,,,,,,,,,,,main,None,None,1,1.4993626000000404,623.3716778,None,None,1,,,,,,,,,,,,,,201,24,Female,2022-04-26_13h26.51.964,Main,2022.1.1,60.00870126165415,
positive,yellow,1,None,k,,,,,,,,,0,177,177,177,,,,,,,,,,,,,,,,,,,,,,,,,,,,,,,,,,,,,main,k,k,1,0.9432823000001918,625.871911,None,None,0,,,,,,,,,,,,,,201,24,Female,2022-04-26_13h26.51.964,Main,2022.1.1,60.00870126165415,
positive,blue,1,k,None,,,,,,,,,0,178,178,178,,,,,,,,,,,,,,,,,,,,,,,,,,,,,,,,,,,,,main,None,None,1,1.5004322999998294,627.8151535999998,None,None,1,,,,,,,,,,,,,,201,24,Female,2022-04-26_13h26.51.964,Main,2022.1.1,60.00870126165415,
positive,yellow,2,None,k,,,,,,,,,0,179,179,179,,,,,,,,,,,,,,,,,,,,,,,,,,,,,,,,,,,,,main,k,k,1,1.0625506999999743,630.3188707000002,None,None,0,,,,,,,,,,,,,,201,24,Female,2022-04-26_13h26.51.964,Main,2022.1.1,60.00870126165415,
positive,blue,1,k,None,,,,,,,,,0,180,180,180,,,,,,,,,,,,,,,,,,,,,,,,,,,,,,,,,,,,,main,None,None,1,1.5008253000000877,632.3837732,None,None,1,,,,,,,,,,,,,,201,24,Female,2022-04-26_13h26.51.964,Main,2022.1.1,60.00870126165415,
negative,red,1,None,None,,,,,,,,,0,181,181,181,,,,,,,,,,,,,,,,,,,,,,,,,,,,,,,,,,,,,main,None,None,1,1.5007243999998536,634.8855898999998,None,None,1,,,,,,,,,,,,,,201,24,Female,2022-04-26_13h26.51.964,Main,2022.1.1,60.00870126165415,
negative,blue,1,None,k,,,,,,,,,0,182,182,182,,,,,,,,,,,,,,,,,,,,,,,,,,,,,,,,,,,,,main,k,k,1,0.8424383000001399,637.3878326000001,None,None,0,,,,,,,,,,,,,,201,24,Female,2022-04-26_13h26.51.964,Main,2022.1.1,60.00870126165415,
negative,yellow,2,k,None,,,,,,,,,0,183,183,183,,,,,,,,,,,,,,,,,,,,,,,,,,,,,,,,,,,,,main,None,None,1,1.5013764000000265,639.2315953999998,None,None,1,,,,,,,,,,,,,,201,24,Female,2022-04-26_13h26.51.964,Main,2022.1.1,60.00870126165415,
positive,yellow,2,None,k,,,,,,,,,0,184,184,184,,,,,,,,,,,,,,,,,,,,,,,,,,,,,,,,,,,,,main,k,k,1,0.8447636000000784,641.7345968000002,None,None,0,,,,,,,,,,,,,,201,24,Female,2022-04-26_13h26.51.964,Main,2022.1.1,60.00870126165415,
positive,yellow,1,None,k,,,,,,,,,0,185,185,185,,,,,,,,,,,,,,,,,,,,,,,,,,,,,,,,,,,,,main,k,k,1,1.117837000000236,643.5788469000001,None,None,0,,,,,,,,,,,,,,201,24,Female,2022-04-26_13h26.51.964,Main,2022.1.1,60.00870126165415,
positive,red,2,None,None,,,,,,,,,0,186,186,186,,,,,,,,,,,,,,,,,,,,,,,,,,,,,,,,,,,,,main,None,None,1,1.5046629999997094,645.7005866000002,None,None,1,,,,,,,,,,,,,,201,24,Female,2022-04-26_13h26.51.964,Main,2022.1.1,60.00870126165415,
positive,blue,1,k,None,,,,,,,,,0,187,187,187,,,,,,,,,,,,,,,,,,,,,,,,,,,,,,,,,,,,,main,None,None,1,1.4984263999999712,648.2057763,None,None,1,,,,,,,,,,,,,,201,24,Female,2022-04-26_13h26.51.964,Main,2022.1.1,60.00870126165415,
negative,yellow,1,k,None,,,,,,,,,0,188,188,188,,,,,,,,,,,,,,,,,,,,,,,,,,,,,,,,,,,,,main,None,None,1,1.4987600999997994,650.7064856,None,None,1,,,,,,,,,,,,,,201,24,Female,2022-04-26_13h26.51.964,Main,2022.1.1,60.00870126165415,
positive,yellow,2,None,k,,,,,,,,,0,189,189,189,,,,,,,,,,,,,,,,,,,,,,,,,,,,,,,,,,,,,main,k,k,1,1.0219723000000158,653.2060979999999,None,None,0,,,,,,,,,,,,,,201,24,Female,2022-04-26_13h26.51.964,Main,2022.1.1,60.00870126165415,
negative,yellow,2,k,None,,,,,,,,,0,190,190,190,,,,,,,,,,,,,,,,,,,,,,,,,,,,,,,,,,,,,main,None,None,1,1.4969052000001284,655.2298456000001,None,None,1,,,,,,,,,,,,,,201,24,Female,2022-04-26_13h26.51.964,Main,2022.1.1,60.00870126165415,
negative,yellow,1,k,None,,,,,,,,,0,191,191,191,,,,,,,,,,,,,,,,,,,,,,,,,,,,,,,,,,,,,main,None,None,1,1.5029178999998294,657.7259084999998,None,None,1,,,,,,,,,,,,,,201,24,Female,2022-04-26_13h26.51.964,Main,2022.1.1,60.00870126165415,
positive,blue,2,k,None,,,,,,,,,0,192,192,192,,,,,,,,,,,,,,,,,,,,,,,,,,,,,,,,,,,,,main,None,None,1,1.5099930000001223,660.2332288999999,None,None,1,,,,,,,,,,,,,,201,24,Female,2022-04-26_13h26.51.964,Main,2022.1.1,60.00870126165415,
positive,yellow,1,None,k,,,,,,,,,0,193,193,193,,,,,,,,,,,,,,,,,,,,,,,,,,,,,,,,,,,,,main,k,k,1,1.1650614999998652,662.7425879,None,None,0,,,,,,,,,,,,,,201,24,Female,2022-04-26_13h26.51.964,Main,2022.1.1,60.00870126165415,
negative,red,2,None,None,,,,,,,,,0,194,194,194,,,,,,,,,,,,,,,,,,,,,,,,,,,,,,,,,,,,,main,None,None,1,1.5067506000000321,664.9092588999999,None,None,1,,,,,,,,,,,,,,201,24,Female,2022-04-26_13h26.51.964,Main,2022.1.1,60.00870126165415,
positive,red,1,None,None,,,,,,,,,0,195,195,195,,,,,,,,,,,,,,,,,,,,,,,,,,,,,,,,,,,,,main,None,None,1,1.49796570000035,667.4193776999998,None,None,1,,,,,,,,,,,,,,201,24,Female,2022-04-26_13h26.51.964,Main,2022.1.1,60.00870126165415,
negative,blue,1,None,k,,,,,,,,,0,196,196,196,,,,,,,,,,,,,,,,,,,,,,,,,,,,,,,,,,,,,main,k,k,1,1.5301687000001039,669.9181775999998,None,None,0,,,,,,,,,,,,,,201,24,Female,2022-04-26_13h26.51.964,Main,2022.1.1,60.00870126165415,
positive,blue,2,k,None,,,,,,,,,0,197,197,197,,,,,,,,,,,,,,,,,,,,,,,,,,,,,,,,,,,,,main,None,None,1,1.5037829000002603,673.4596964,None,None,1,,,,,,,,,,,,,,201,24,Female,2022-04-26_13h26.51.964,Main,2022.1.1,60.00870126165415,
negative,blue,2,None,k,,,,,,,,,0,198,198,198,,,,,,,,,,,,,,,,,,,,,,,,,,,,,,,,,,,,,main,k,k,1,0.9691296999999395,675.964898,None,None,0,,,,,,,,,,,,,,201,24,Female,2022-04-26_13h26.51.964,Main,2022.1.1,60.00870126165415,
negative,blue,2,None,k,,,,,,,,,0,199,199,199,,,,,,,,,,,,,,,,,,,,,,,,,,,,,,,,,,,,,main,k,k,1,0.9165434000001369,677.9350431,None,None,0,,,,,,,,,,,,,,201,24,Female,2022-04-26_13h26.51.964,Main,2022.1.1,60.00870126165415,
positive,blue,2,k,None,,,,,,,,,0,200,200,200,,,,,,,,,,,,,,,,,,,,,,,,,,,,,,,,,,,,,main,None,None,1,1.5041274000000158,679.8537128,None,None,1,,,,,,,,,,,,,,201,24,Female,2022-04-26_13h26.51.964,Main,2022.1.1,60.00870126165415,
positive,blue,2,k,None,,,,,,,,,0,201,201,201,,,,,,,,,,,,,,,,,,,,,,,,,,,,,,,,,,,,,main,None,None,1,1.5010087000000567,682.3576780999999,None,None,1,,,,,,,,,,,,,,201,24,Female,2022-04-26_13h26.51.964,Main,2022.1.1,60.00870126165415,
negative,yellow,2,k,None,,,,,,,,,0,202,202,202,,,,,,,,,,,,,,,,,,,,,,,,,,,,,,,,,,,,,main,None,None,1,1.505496199999925,684.8620755,None,None,1,,,,,,,,,,,,,,201,24,Female,2022-04-26_13h26.51.964,Main,2022.1.1,60.00870126165415,
positive,red,1,None,None,,,,,,,,,0,203,203,203,,,,,,,,,,,,,,,,,,,,,,,,,,,,,,,,,,,,,main,None,None,1,1.5111090000000331,687.3693291000002,None,None,1,,,,,,,,,,,,,,201,24,Female,2022-04-26_13h26.51.964,Main,2022.1.1,60.00870126165415,
negative,blue,2,None,k,,,,,,,,,0,204,204,204,,,,,,,,,,,,,,,,,,,,,,,,,,,,,,,,,,,,,main,k,k,1,1.034652300000289,689.8814945000001,None,None,0,,,,,,,,,,,,,,201,24,Female,2022-04-26_13h26.51.964,Main,2022.1.1,60.00870126165415,
negative,red,1,None,None,,,,,,,,,0,205,205,205,,,,,,,,,,,,,,,,,,,,,,,,,,,,,,,,,,,,,main,None,None,1,1.5070353000000978,691.9208164999998,None,None,1,,,,,,,,,,,,,,201,24,Female,2022-04-26_13h26.51.964,Main,2022.1.1,60.00870126165415,
negative,blue,2,None,k,,,,,,,,,0,206,206,206,,,,,,,,,,,,,,,,,,,,,,,,,,,,,,,,,,,,,main,k,k,1,1.0280649000001176,694.4267514999999,None,None,0,,,,,,,,,,,,,,201,24,Female,2022-04-26_13h26.51.964,Main,2022.1.1,60.00870126165415,
negative,yellow,2,k,None,,,,,,,,,0,207,207,207,,,,,,,,,,,,,,,,,,,,,,,,,,,,,,,,,,,,,main,None,None,1,1.5116966999999022,696.4547859000002,None,None,1,,,,,,,,,,,,,,201,24,Female,2022-04-26_13h26.51.964,Main,2022.1.1,60.00870126165415,
positive,yellow,2,None,k,,,,,,,,,0,208,208,208,,,,,,,,,,,,,,,,,,,,,,,,,,,,,,,,,,,,,main,k,k,1,1.055624500000249,698.9689847000002,None,None,0,,,,,,,,,,,,,,201,24,Female,2022-04-26_13h26.51.964,Main,2022.1.1,60.00870126165415,
negative,yellow,1,k,None,,,,,,,,,0,209,209,209,,,,,,,,,,,,,,,,,,,,,,,,,,,,,,,,,,,,,main,None,None,1,1.5123974000002818,701.0291455999998,None,None,1,,,,,,,,,,,,,,201,24,Female,2022-04-26_13h26.51.964,Main,2022.1.1,60.00870126165415,
negative,red,2,None,None,,,,,,,,,0,210,210,210,,,,,,,,,,,,,,,,,,,,,,,,,,,,,,,,,,,,,main,None,None,1,1.4988181999997323,703.5424550999999,None,None,1,,,,,,,,,,,,,,201,24,Female,2022-04-26_13h26.51.964,Main,2022.1.1,60.00870126165415,
negative,blue,1,None,k,,,,,,,,,0,211,211,211,,,,,,,,,,,,,,,,,,,,,,,,,,,,,,,,,,,,,main,k,k,1,0.9948905999999624,706.0440004999998,None,None,0,,,,,,,,,,,,,,201,24,Female,2022-04-26_13h26.51.964,Main,2022.1.1,60.00870126165415,
negative,yellow,1,k,None,,,,,,,,,0,212,212,212,,,,,,,,,,,,,,,,,,,,,,,,,,,,,,,,,,,,,main,None,None,1,1.5071984000001066,708.0404089000001,None,None,1,,,,,,,,,,,,,,201,24,Female,2022-04-26_13h26.51.964,Main,2022.1.1,60.00870126165415,
positive,blue,1,k,None,,,,,,,,,0,213,213,213,,,,,,,,,,,,,,,,,,,,,,,,,,,,,,,,,,,,,main,None,None,1,1.4944423000001734,710.5479794,None,None,1,,,,,,,,,,,,,,201,24,Female,2022-04-26_13h26.51.964,Main,2022.1.1,60.00870126165415,
positive,blue,1,k,None,,,,,,,,,0,214,214,214,,,,,,,,,,,,,,,,,,,,,,,,,,,,,,,,,,,,,main,None,None,1,1.5048132000001715,713.044341,None,None,1,,,,,,,,,,,,,,201,24,Female,2022-04-26_13h26.51.964,Main,2022.1.1,60.00870126165415,
positive,yellow,1,None,k,,,,,,,,,0,215,215,215,,,,,,,,,,,,,,,,,,,,,,,,,,,,,,,,,,,,,main,k,k,1,1.1611257999998088,715.5508041,None,None,0,,,,,,,,,,,,,,201,24,Female,2022-04-26_13h26.51.964,Main,2022.1.1,60.00870126165415,
positive,yellow,1,None,k,,,,,,,,,0,216,216,216,,,,,,,,,,,,,,,,,,,,,,,,,,,,,,,,,,,,,main,k,k,1,0.9267052000000149,717.7144793,None,None,0,,,,,,,,,,,,,,201,24,Female,2022-04-26_13h26.51.964,Main,2022.1.1,60.00870126165415,
positive,yellow,2,None,k,,,,,,,,,0,217,217,217,,,,,,,,,,,,,,,,,,,,,,,,,,,,,,,,,,,,,main,k,k,1,1.1658618999999817,719.6441708,None,None,0,,,,,,,,,,,,,,201,24,Female,2022-04-26_13h26.51.964,Main,2022.1.1,60.00870126165415,
negative,blue,1,None,k,,,,,,,,,0,218,218,218,,,,,,,,,,,,,,,,,,,,,,,,,,,,,,,,,,,,,main,k,k,1,1.0063614000000598,721.8111302999998,None,None,0,,,,,,,,,,,,,,201,24,Female,2022-04-26_13h26.51.964,Main,2022.1.1,60.00870126165415,
positive,red,2,None,None,,,,,,,,,0,219,219,219,,,,,,,,,,,,,,,,,,,,,,,,,,,,,,,,,,,,,main,None,None,1,1.4981290999999146,723.8177557000001,None,None,1,,,,,,,,,,,,,,201,24,Female,2022-04-26_13h26.51.964,Main,2022.1.1,60.00870126165415,
positive,yellow,1,None,k,,,,,,,,,0,220,220,220,,,,,,,,,,,,,,,,,,,,,,,,,,,,,,,,,,,,,main,k,k,1,1.0438828000001195,726.3170335000002,None,None,0,,,,,,,,,,,,,,201,24,Female,2022-04-26_13h26.51.964,Main,2022.1.1,60.00870126165415,
positive,blue,1,k,None,,,,,,,,,0,221,221,221,,,,,,,,,,,,,,,,,,,,,,,,,,,,,,,,,,,,,main,None,None,1,1.513031100000262,728.3638425000001,None,None,1,,,,,,,,,,,,,,201,24,Female,2022-04-26_13h26.51.964,Main,2022.1.1,60.00870126165415,
positive,yellow,2,None,k,,,,,,,,,0,222,222,222,,,,,,,,,,,,,,,,,,,,,,,,,,,,,,,,,,,,,main,k,k,1,0.9459114999999656,730.8800353999998,None,None,0,,,,,,,,,,,,,,201,24,Female,2022-04-26_13h26.51.964,Main,2022.1.1,60.00870126165415,
negative,yellow,1,k,None,,,,,,,,,0,223,223,223,,,,,,,,,,,,,,,,,,,,,,,,,,,,,,,,,,,,,main,None,None,1,1.5045451999999386,732.8283743999998,None,None,1,,,,,,,,,,,,,,201,24,Female,2022-04-26_13h26.51.964,Main,2022.1.1,60.00870126165415,
positive,yellow,2,None,k,,,,,,,,,0,224,224,224,,,,,,,,,,,,,,,,,,,,,,,,,,,,,,,,,,,,,main,k,k,1,0.9847136000003047,735.3333750999998,None,None,0,,,,,,,,,,,,,,201,24,Female,2022-04-26_13h26.51.964,Main,2022.1.1,60.00870126165415,
negative,yellow,2,k,None,,,,,,,,,0,225,225,225,,,,,,,,,,,,,,,,,,,,,,,,,,,,,,,,,,,,,main,None,None,1,1.4984003999998095,737.3215490999999,None,None,1,,,,,,,,,,,,,,201,24,Female,2022-04-26_13h26.51.964,Main,2022.1.1,60.00870126165415,
negative,blue,2,None,k,,,,,,,,,0,226,226,226,,,,,,,,,,,,,,,,,,,,,,,,,,,,,,,,,,,,,main,k,k,1,0.912261099999796,739.8207964999999,None,None,0,,,,,,,,,,,,,,201,24,Female,2022-04-26_13h26.51.964,Main,2022.1.1,60.00870126165415,
positive,red,2,None,None,,,,,,,,,0,227,227,227,,,,,,,,,,,,,,,,,,,,,,,,,,,,,,,,,,,,,main,None,None,1,1.498437499999909,741.7356880999998,None,None,1,,,,,,,,,,,,,,201,24,Female,2022-04-26_13h26.51.964,Main,2022.1.1,60.00870126165415,
positive,blue,2,k,None,,,,,,,,,0,228,228,228,,,,,,,,,,,,,,,,,,,,,,,,,,,,,,,,,,,,,main,None,None,1,1.4980516999999054,744.2330656000001,None,None,1,,,,,,,,,,,,,,201,24,Female,2022-04-26_13h26.51.964,Main,2022.1.1,60.00870126165415,
negative,blue,1,None,k,,,,,,,,,0,229,229,229,,,,,,,,,,,,,,,,,,,,,,,,,,,,,,,,,,,,,main,k,k,1,0.8151201999999103,746.7326618,None,None,0,,,,,,,,,,,,,,201,24,Female,2022-04-26_13h26.51.964,Main,2022.1.1,60.00870126165415,
positive,yellow,1,None,k,,,,,,,,,0,230,230,230,,,,,,,,,,,,,,,,,,,,,,,,,,,,,,,,,,,,,main,k,k,1,1.0018753000003926,748.5534868000002,None,None,0,,,,,,,,,,,,,,201,24,Female,2022-04-26_13h26.51.964,Main,2022.1.1,60.00870126165415,
negative,blue,2,None,k,,,,,,,,,0,231,231,231,,,,,,,,,,,,,,,,,,,,,,,,,,,,,,,,,,,,,main,k,k,1,0.915711999999985,750.5566244999998,None,None,0,,,,,,,,,,,,,,201,24,Female,2022-04-26_13h26.51.964,Main,2022.1.1,60.00870126165415,
negative,red,1,None,None,,,,,,,,,0,232,232,232,,,,,,,,,,,,,,,,,,,,,,,,,,,,,,,,,,,,,main,None,None,1,1.4978839999998854,752.473436,None,None,1,,,,,,,,,,,,,,201,24,Female,2022-04-26_13h26.51.964,Main,2022.1.1,60.00870126165415,
positive,blue,2,k,None,,,,,,,,,0,233,233,233,,,,,,,,,,,,,,,,,,,,,,,,,,,,,,,,,,,,,main,None,None,1,1.5079442000001109,754.9725786000001,None,None,1,,,,,,,,,,,,,,201,24,Female,2022-04-26_13h26.51.964,Main,2022.1.1,60.00870126165415,
negative,yellow,1,k,None,,,,,,,,,0,234,234,234,,,,,,,,,,,,,,,,,,,,,,,,,,,,,,,,,,,,,main,None,None,1,1.4999167999999372,757.4802588,None,None,1,,,,,,,,,,,,,,201,24,Female,2022-04-26_13h26.51.964,Main,2022.1.1,60.00870126165415,
negative,yellow,2,k,None,,,,,,,,,0,235,235,235,,,,,,,,,,,,,,,,,,,,,,,,,,,,,,,,,,,,,main,None,None,1,1.4968652000002294,759.9819396999999,None,None,1,,,,,,,,,,,,,,201,24,Female,2022-04-26_13h26.51.964,Main,2022.1.1,60.00870126165415,
positive,red,1,None,None,,,,,,,,,0,236,236,236,,,,,,,,,,,,,,,,,,,,,,,,,,,,,,,,,,,,,main,None,None,1,1.5091201000000183,762.4800253000001,None,None,1,,,,,,,,,,,,,,201,24,Female,2022-04-26_13h26.51.964,Main,2022.1.1,60.00870126165415,
negative,red,2,None,None,,,,,,,,,0,237,237,237,,,,,,,,,,,,,,,,,,,,,,,,,,,,,,,,,,,,,main,None,None,1,1.5045329999998103,764.9919069,None,None,1,,,,,,,,,,,,,,201,24,Female,2022-04-26_13h26.51.964,Main,2022.1.1,60.00870126165415,
negative,blue,1,None,k,,,,,,,,,0,238,238,238,,,,,,,,,,,,,,,,,,,,,,,,,,,,,,,,,,,,,main,k,k,1,0.9012362999997094,767.4963971999998,None,None,0,,,,,,,,,,,,,,201,24,Female,2022-04-26_13h26.51.964,Main,2022.1.1,60.00870126165415,
positive,blue,1,k,None,,,,,,,,,0,239,239,239,,,,,,,,,,,,,,,,,,,,,,,,,,,,,,,,,,,,,main,None,None,1,1.4993078000002242,769.4021741999998,None,None,1,,,,,,,,,,,,,,201,24,Female,2022-04-26_13h26.51.964,Main,2022.1.1,60.00870126165415,
,,,,,,,,,,,,,,,,,,,,,,,,,,,,,,,,,,,,,,,,,,,,,,,,,,,,,,,,,,,,,,,,,,,,,,,,,771.8943863000002,None,,,,,,,,
