distractor,target,set,ans1,ans2,rep_loop4.thisRepN,rep_loop4.thisTrialN,rep_loop4.thisN,rep_loop4.thisIndex,st2_prac_loop.thisRepN,st2_prac_loop.thisTrialN,st2_prac_loop.thisN,st2_prac_loop.thisIndex,st2_main_loop.thisRepN,st2_main_loop.thisTrialN,st2_main_loop.thisN,st2_main_loop.thisIndex,image_4.started,image_4.stopped,mouse_7.x,mouse_7.y,mouse_7.leftButton,mouse_7.midButton,mouse_7.rightButton,sound_2.started,sound_2.stopped,key_resp_3.keys,mouse_5.x,mouse_5.y,mouse_5.leftButton,mouse_5.midButton,mouse_5.rightButton,mouse_5.started,mouse_5.stopped,yes_text2.started,yes_text2.stopped,no_text2.started,no_text2.stopped,mouse_3.x,mouse_3.y,mouse_3.leftButton,mouse_3.midButton,mouse_3.rightButton,mouse_3.started,mouse_3.stopped,st_prac_back.started,st_prac_back.stopped,st_prac_text.started,st_prac_text.stopped,st_fix_back.started,st_fix_back.stopped,st_fix_2.started,st_fix_2.stopped,main_prac,st_ans,st_res,st_corr,st_rt,st_back.started,st_back.stopped,st2_resp.keys,st2_resp.corr,st_main_back.started,st_main_back.stopped,st_main_text.started,st_main_text.stopped,mouse_4.x,mouse_4.y,mouse_4.leftButton,mouse_4.midButton,mouse_4.rightButton,mouse_4.started,mouse_4.stopped,text_2.started,text_2.stopped,id*,age*,gender*,date,expName,psychopyVersion,frameRate,
,,,,,,,,,,,,,,,,,48.12934680000035,None,0.2212963,-0.06666667,0,0,0,,,,,,,,,,,,,,,,,,,,,,,,,,,,,,,,,,,,,,,,,,,,,,,,,,,,202,28,Male,2022-04-26_16h14.46.985,Main,2022.1.1,60.030639638317595,
negative,yellow,1,k,None,,,,,0,0,0,0,,,,,,,,,,,,58.85167431000082,None,None,0.44074073,0.027777778,0,0,0,1.0092949999980192,None,124.74340350000057,None,124.74340350000057,None,-0.07962963,-0.08425926,0,0,0,0.01293740999790316,None,127.63194099999964,None,127.63194099999964,None,129.6422333999999,None,129.6422333999999,None,prac,k,k,1,45.93910820000019,131.66753750000134,None,None,0,,,,,,,,,,,,,,202,28,Male,2022-04-26_16h14.46.985,Main,2022.1.1,60.030639638317595,
positive,red,2,None,None,,,,,0,1,1,1,,,,,,,,,,,,,,,,,,,,,,,,,,,,,,,,,,,,,,,,,prac,None,None,1,1.493764300001203,179.64534790000107,None,None,1,,,,,,,,,,,,,,202,28,Male,2022-04-26_16h14.46.985,Main,2022.1.1,60.030639638317595,
negative,blue,2,None,k,,,,,0,2,2,2,,,,,,,,,,,,,,,,,,,,,,,,,,,,,,,,,,,,,,,,,prac,None,None,1,1.5019941999998991,182.14120739999998,None,None,1,,,,,,,,,,,,,,202,28,Male,2022-04-26_16h14.46.985,Main,2022.1.1,60.030639638317595,
positive,yellow,1,None,k,,,,,0,3,3,3,,,,,,,,,,,,,,,,,,,,,,,,,,,,,,,,,,,,,,,,,prac,None,None,1,1.5051063999999315,184.6452035000002,None,None,1,,,,,,,,,,,,,,202,28,Male,2022-04-26_16h14.46.985,Main,2022.1.1,60.030639638317595,
negative,blue,2,None,k,,,,,0,4,4,4,,,,,,,,,,,,,,,,,,,,,,,,,,,,,,,,,,,,,,,,,prac,None,None,1,1.4959475000014208,187.14467500000137,None,None,1,,,,,,,,,,,,,,202,28,Male,2022-04-26_16h14.46.985,Main,2022.1.1,60.030639638317595,
negative,blue,1,None,k,,,,,0,5,5,5,,,,,,,,,,,,,,,,,,,,,,,,,,,,,,,,,,,,,,,,,prac,None,None,1,1.4997536999999284,189.6427660999998,None,None,1,,,,,,,,,,,,,,202,28,Male,2022-04-26_16h14.46.985,Main,2022.1.1,60.030639638317595,
negative,yellow,2,k,None,,,,,0,6,6,6,,,,,,,,,,,,,,,,,,,,,,,,,,,,,,,,,,,,,,,,,prac,k,k,1,1.57580710000002,192.14348059999975,None,None,0,,,,,,,,,,,,,,202,28,Male,2022-04-26_16h14.46.985,Main,2022.1.1,60.030639638317595,
negative,red,1,None,None,,,,,0,7,7,7,,,,,,,,,,,,,,,,,,,,,,,,,,,,,,,,,,,,,,,,,prac,None,None,1,1.4901644000001397,195.74312889999965,None,None,1,,,,,,,,,,,,,,202,28,Male,2022-04-26_16h14.46.985,Main,2022.1.1,60.030639638317595,
positive,yellow,2,None,k,,,,,0,8,8,8,,,,,,,,,,,,,,,,,,,,,,,,,,,,,,,,,,,,,,,,,prac,None,None,1,1.5068083999994997,198.22733119999975,None,None,1,,,,,,,,,,,,,,202,28,Male,2022-04-26_16h14.46.985,Main,2022.1.1,60.030639638317595,
negative,yellow,1,k,None,,,,,0,9,9,9,,,,,,,,,,,,,,,,,,,,,,,,,,,,,,,,,,,,,,,,,prac,k,k,1,5.019064199999775,200.73544519999996,None,None,0,,,,,,,,,,,,,,202,28,Male,2022-04-26_16h14.46.985,Main,2022.1.1,60.030639638317595,
positive,yellow,2,None,k,,,,,0,10,10,10,,,,,,,,,,,,,,,,,,,,,,,,,,,,,,,,,,,,,,,,,prac,None,None,1,1.4984677999982523,207.77472450000096,None,None,1,,,,,,,,,,,,,,202,28,Male,2022-04-26_16h14.46.985,Main,2022.1.1,60.030639638317595,
negative,yellow,2,k,None,,,,,0,11,11,11,,,,,,,,,,,,,,,,,,,,,,,,,,,,,,,,,,,,,,,,,prac,k,k,1,1.391171099998246,210.27288039999985,None,None,0,,,,,,,,,,,,,,202,28,Male,2022-04-26_16h14.46.985,Main,2022.1.1,60.030639638317595,
negative,red,2,None,None,,,,,0,12,12,12,,,,,,,,,,,,,,,,,,,,,,,,,,,,,,,,,,,,,,,,,prac,None,None,1,1.5048600999998598,212.6600424999997,None,None,1,,,,,,,,,,,,,,202,28,Male,2022-04-26_16h14.46.985,Main,2022.1.1,60.030639638317595,
positive,red,1,None,None,,,,,0,13,13,13,,,,,,,,,,,,,,,,,,,,,,,,,,,,,,,,,,,,,,,,,prac,None,None,1,1.5081573000006756,215.17373849999967,None,None,1,,,,,,,,,,,,,,202,28,Male,2022-04-26_16h14.46.985,Main,2022.1.1,60.030639638317595,
positive,blue,2,k,None,,,,,0,14,14,14,,,,,,,,,,,,,,,,,,,,,,,,,,,,,,,,,,,,,,,,,prac,k,k,1,1.0272543000010046,217.67576180000106,None,None,0,,,,,,,,,,,,,,202,28,Male,2022-04-26_16h14.46.985,Main,2022.1.1,60.030639638317595,
positive,blue,1,k,None,,,,,0,15,15,15,,,,,,,,,,,,,,,,,,,,,,,,,,,,,,,,,,,,,,,,,prac,k,k,1,2.5925315000004048,219.70531130000018,None,None,0,,,,,,,,,,,,,,202,28,Male,2022-04-26_16h14.46.985,Main,2022.1.1,60.030639638317595,
negative,blue,1,None,k,,,,,0,16,16,16,,,,,,,,,,,,,,,,,,,,,,,,,,,,,,,,,,,,,,,,,prac,None,None,1,1.5047854999993433,224.3152700999999,None,None,1,,,,,,,,,,,,,,202,28,Male,2022-04-26_16h14.46.985,Main,2022.1.1,60.030639638317595,
positive,blue,2,k,None,,,,,0,17,17,17,,,,,,,,,,,,,,,,,,,,,,,,,,,,,,,,,,,,,,,,,prac,k,k,1,1.189218499999697,226.8222182999998,None,None,0,,,,,,,,,,,,,,202,28,Male,2022-04-26_16h14.46.985,Main,2022.1.1,60.030639638317595,
positive,blue,1,k,None,,,,,0,18,18,18,,,,,,,,,,,,,,,,,,,,,,,,,,,,,,,,,,,,,,,,,prac,k,k,1,0.9898670999991737,229.01370420000057,None,None,0,,,,,,,,,,,,,,202,28,Male,2022-04-26_16h14.46.985,Main,2022.1.1,60.030639638317595,
positive,yellow,1,None,k,,,,,0,19,19,19,,,,,,,,,,,,,,,,,,,,,,,,,,,,,,,,,,,,,,,,,prac,None,None,1,1.502503700001398,231.00560380000024,None,None,1,,,,,,,,,,,,,,202,28,Male,2022-04-26_16h14.46.985,Main,2022.1.1,60.030639638317595,
negative,yellow,1,k,None,,,,,1,0,20,0,,,,,,,,,,,,,,,,,,,,,,,,,,,,,,,,,,,,,,,,,prac,k,k,1,0.984237700000449,233.50857650000034,None,None,0,,,,,,,,,,,,,,202,28,Male,2022-04-26_16h14.46.985,Main,2022.1.1,60.030639638317595,
positive,red,2,None,None,,,,,1,1,21,1,,,,,,,,,,,,,,,,,,,,,,,,,,,,,,,,,,,,,,,,,prac,None,None,1,1.4985443000005034,235.49689500000022,None,None,1,,,,,,,,,,,,,,202,28,Male,2022-04-26_16h14.46.985,Main,2022.1.1,60.030639638317595,
negative,blue,2,None,k,,,,,1,2,22,2,,,,,,,,,,,,,,,,,,,,,,,,,,,,,,,,,,,,,,,,,prac,None,None,1,1.4977844999993977,237.99380200000087,None,None,1,,,,,,,,,,,,,,202,28,Male,2022-04-26_16h14.46.985,Main,2022.1.1,60.030639638317595,
positive,yellow,1,None,k,,,,,1,3,23,3,,,,,,,,,,,,,,,,,,,,,,,,,,,,,,,,,,,,,,,,,prac,None,None,1,1.5092132999998285,240.49332550000145,None,None,1,,,,,,,,,,,,,,202,28,Male,2022-04-26_16h14.46.985,Main,2022.1.1,60.030639638317595,
negative,blue,2,None,k,,,,,1,4,24,4,,,,,,,,,,,,,,,,,,,,,,,,,,,,,,,,,,,,,,,,,prac,None,None,1,1.5041638999991847,243.0060811000003,None,None,1,,,,,,,,,,,,,,202,28,Male,2022-04-26_16h14.46.985,Main,2022.1.1,60.030639638317595,
negative,blue,1,None,k,,,,,1,5,25,5,,,,,,,,,,,,,,,,,,,,,,,,,,,,,,,,,,,,,,,,,prac,None,None,1,1.507246999999552,245.50984470000003,None,None,1,,,,,,,,,,,,,,202,28,Male,2022-04-26_16h14.46.985,Main,2022.1.1,60.030639638317595,
negative,yellow,2,k,None,,,,,1,6,26,6,,,,,,,,,,,,,,,,,,,,,,,,,,,,,,,,,,,,,,,,,prac,k,k,1,2.048425599999973,248.02024210000127,None,None,0,,,,,,,,,,,,,,202,28,Male,2022-04-26_16h14.46.985,Main,2022.1.1,60.030639638317595,
negative,red,1,None,None,,,,,1,7,27,7,,,,,,,,,,,,,,,,,,,,,,,,,,,,,,,,,,,,,,,,,prac,None,None,1,1.5028438999997888,252.07800570000109,None,None,1,,,,,,,,,,,,,,202,28,Male,2022-04-26_16h14.46.985,Main,2022.1.1,60.030639638317595,
positive,yellow,2,None,k,,,,,1,8,28,8,,,,,,,,,,,,,,,,,,,,,,,,,,,,,,,,,,,,,,,,,prac,None,None,1,1.5019566000009945,254.58333529999982,None,None,1,,,,,,,,,,,,,,202,28,Male,2022-04-26_16h14.46.985,Main,2022.1.1,60.030639638317595,
negative,yellow,1,k,None,,,,,1,9,29,9,,,,,,,,,,,,,,,,,,,,,,,,,,,,,,,,,,,,,,,,,prac,k,k,1,1.1558794000011403,257.0857175000001,None,None,0,,,,,,,,,,,,,,202,28,Male,2022-04-26_16h14.46.985,Main,2022.1.1,60.030639638317595,
positive,yellow,2,None,k,,,,,1,10,30,10,,,,,,,,,,,,,,,,,,,,,,,,,,,,,,,,,,,,,,,,,prac,None,None,1,1.5066392999997333,259.24412380000103,None,None,1,,,,,,,,,,,,,,202,28,Male,2022-04-26_16h14.46.985,Main,2022.1.1,60.030639638317595,
negative,yellow,2,k,None,,,,,1,11,31,11,,,,,,,,,,,,,,,,,,,,,,,,,,,,,,,,,,,,,,,,,prac,k,k,1,1.0297700999999506,261.75137560000076,None,None,0,,,,,,,,,,,,,,202,28,Male,2022-04-26_16h14.46.985,Main,2022.1.1,60.030639638317595,
negative,red,2,None,None,,,,,1,12,32,12,,,,,,,,,,,,,,,,,,,,,,,,,,,,,,,,,,,,,,,,,prac,None,None,1,1.508246399998825,263.78329029999986,None,None,1,,,,,,,,,,,,,,202,28,Male,2022-04-26_16h14.46.985,Main,2022.1.1,60.030639638317595,
positive,red,1,None,None,,,,,1,13,33,13,,,,,,,,,,,,,,,,,,,,,,,,,,,,,,,,,,,,,,,,,prac,None,None,1,1.5141696999999112,266.2904440000002,None,None,1,,,,,,,,,,,,,,202,28,Male,2022-04-26_16h14.46.985,Main,2022.1.1,60.030639638317595,
positive,blue,2,k,None,,,,,1,14,34,14,,,,,,,,,,,,,,,,,,,,,,,,,,,,,,,,,,,,,,,,,prac,k,k,1,9.1702279000001,268.80639260000135,None,None,0,,,,,,,,,,,,,,202,28,Male,2022-04-26_16h14.46.985,Main,2022.1.1,60.030639638317595,
positive,blue,1,k,None,,,,,1,15,35,15,,,,,,,,,,,,,,,,,,,,,,,,,,,,,,,,,,,,,,,,,prac,k,k,1,0.9608676000007108,279.99139620000096,None,None,0,,,,,,,,,,,,,,202,28,Male,2022-04-26_16h14.46.985,Main,2022.1.1,60.030639638317595,
negative,blue,1,None,k,,,,,1,16,36,16,,,,,,,,,,,,,,,,,,,,,,,,,,,,,,,,,,,,,,,,,prac,None,None,1,1.5102662000008422,281.95679089999976,None,None,1,,,,,,,,,,,,,,202,28,Male,2022-04-26_16h14.46.985,Main,2022.1.1,60.030639638317595,
positive,blue,2,k,None,,,,,1,17,37,17,,,,,,,,,,,,,,,,,,,,,,,,,,,,,,,,,,,,,,,,,prac,k,k,1,0.7441528999988805,284.4675416000009,None,None,0,,,,,,,,,,,,,,202,28,Male,2022-04-26_16h14.46.985,Main,2022.1.1,60.030639638317595,
positive,blue,1,k,None,,,,,1,18,38,18,,,,,,,,,,,,,,,,,,,,,,,,,,,,,,,,,,,,,,,,,prac,k,k,1,0.7517265999995288,286.2139963999998,None,None,0,,,,,,,,,,,,,,202,28,Male,2022-04-26_16h14.46.985,Main,2022.1.1,60.030639638317595,
positive,yellow,1,None,k,,,,,1,19,39,19,,,,,,,,,,,,,,,,,,,,,,,,,,,,,,,,,,,,,,,,,prac,None,None,1,1.4929909000002226,287.9663251000002,None,None,1,,,,,,,,,,,,,,202,28,Male,2022-04-26_16h14.46.985,Main,2022.1.1,60.030639638317595,
,,,,,,,,,,,,,,,,,,,,,,,,,,,,,,,,,,,,,,,,,,,,,,,,,,,,,,,,,,,,,,290.47638460000053,None,290.47638460000053,None,0.015740741,-0.12962963,0,0,0,0.011963810000452213,None,,,202,28,Male,2022-04-26_16h14.46.985,Main,2022.1.1,60.030639638317595,
negative,yellow,2,k,None,,,,,,,,,0,0,0,0,,,,,,,,,,,,,,,,,,,,,,,,,,,,,,,,,293.64178080000056,None,293.64178080000056,None,main,k,k,1,0.9018852999997762,295.7010906000014,None,None,0,,,,,,,,,,,,,,202,28,Male,2022-04-26_16h14.46.985,Main,2022.1.1,60.030639638317595,
positive,red,1,None,None,,,,,,,,,0,1,1,1,,,,,,,,,,,,,,,,,,,,,,,,,,,,,,,,,,,,,main,None,None,1,1.503077099998336,297.60525680000137,None,None,1,,,,,,,,,,,,,,202,28,Male,2022-04-26_16h14.46.985,Main,2022.1.1,60.030639638317595,
positive,blue,2,k,None,,,,,,,,,0,2,2,2,,,,,,,,,,,,,,,,,,,,,,,,,,,,,,,,,,,,,main,k,k,1,0.6617198999992979,300.11206350000066,None,None,0,,,,,,,,,,,,,,202,28,Male,2022-04-26_16h14.46.985,Main,2022.1.1,60.030639638317595,
positive,blue,1,k,None,,,,,,,,,0,3,3,3,,,,,,,,,,,,,,,,,,,,,,,,,,,,,,,,,,,,,main,k,k,1,0.7880844999999681,301.77497680000124,None,None,0,,,,,,,,,,,,,,202,28,Male,2022-04-26_16h14.46.985,Main,2022.1.1,60.030639638317595,
negative,yellow,2,k,None,,,,,,,,,0,4,4,4,,,,,,,,,,,,,,,,,,,,,,,,,,,,,,,,,,,,,main,k,k,1,0.6725596000014775,303.56518420000066,None,None,0,,,,,,,,,,,,,,202,28,Male,2022-04-26_16h14.46.985,Main,2022.1.1,60.030639638317595,
positive,yellow,2,None,k,,,,,,,,,0,5,5,5,,,,,,,,,,,,,,,,,,,,,,,,,,,,,,,,,,,,,main,None,None,1,1.4970553000002838,305.2384892000009,None,None,1,,,,,,,,,,,,,,202,28,Male,2022-04-26_16h14.46.985,Main,2022.1.1,60.030639638317595,
negative,blue,2,None,k,,,,,,,,,0,6,6,6,,,,,,,,,,,,,,,,,,,,,,,,,,,,,,,,,,,,,main,None,None,1,1.5053791999998793,307.7346759000011,None,None,1,,,,,,,,,,,,,,202,28,Male,2022-04-26_16h14.46.985,Main,2022.1.1,60.030639638317595,
positive,red,2,None,None,,,,,,,,,0,7,7,7,,,,,,,,,,,,,,,,,,,,,,,,,,,,,,,,,,,,,main,None,None,1,1.5102033999992273,310.24383110000053,None,None,1,,,,,,,,,,,,,,202,28,Male,2022-04-26_16h14.46.985,Main,2022.1.1,60.030639638317595,
positive,yellow,1,None,k,,,,,,,,,0,8,8,8,,,,,,,,,,,,,,,,,,,,,,,,,,,,,,,,,,,,,main,None,None,1,1.503049099999771,312.756255100001,None,None,1,,,,,,,,,,,,,,202,28,Male,2022-04-26_16h14.46.985,Main,2022.1.1,60.030639638317595,
negative,red,1,None,None,,,,,,,,,0,9,9,9,,,,,,,,,,,,,,,,,,,,,,,,,,,,,,,,,,,,,main,None,None,1,1.4957336999996187,315.2599654000005,None,None,1,,,,,,,,,,,,,,202,28,Male,2022-04-26_16h14.46.985,Main,2022.1.1,60.030639638317595,
positive,yellow,1,None,k,,,,,,,,,0,10,10,10,,,,,,,,,,,,,,,,,,,,,,,,,,,,,,,,,,,,,main,None,None,1,1.5072763999996823,317.7570366,None,None,1,,,,,,,,,,,,,,202,28,Male,2022-04-26_16h14.46.985,Main,2022.1.1,60.030639638317595,
negative,yellow,1,k,None,,,,,,,,,0,11,11,11,,,,,,,,,,,,,,,,,,,,,,,,,,,,,,,,,,,,,main,k,k,1,1.4234924000011233,320.2655235000002,None,None,0,,,,,,,,,,,,,,202,28,Male,2022-04-26_16h14.46.985,Main,2022.1.1,60.030639638317595,
negative,yellow,1,k,None,,,,,,,,,0,12,12,12,,,,,,,,,,,,,,,,,,,,,,,,,,,,,,,,,,,,,main,k,k,1,0.817705699999351,322.692573100001,None,None,0,,,,,,,,,,,,,,202,28,Male,2022-04-26_16h14.46.985,Main,2022.1.1,60.030639638317595,
negative,red,2,None,None,,,,,,,,,0,13,13,13,,,,,,,,,,,,,,,,,,,,,,,,,,,,,,,,,,,,,main,None,None,1,1.4963944999999512,324.51120400000036,None,None,1,,,,,,,,,,,,,,202,28,Male,2022-04-26_16h14.46.985,Main,2022.1.1,60.030639638317595,
positive,yellow,2,None,k,,,,,,,,,0,14,14,14,,,,,,,,,,,,,,,,,,,,,,,,,,,,,,,,,,,,,main,None,None,1,1.496106400001736,327.0095538000005,None,None,1,,,,,,,,,,,,,,202,28,Male,2022-04-26_16h14.46.985,Main,2022.1.1,60.030639638317595,
positive,blue,1,k,None,,,,,,,,,0,15,15,15,,,,,,,,,,,,,,,,,,,,,,,,,,,,,,,,,,,,,main,k,k,1,0.7754554999992251,329.5076590000008,None,None,0,,,,,,,,,,,,,,202,28,Male,2022-04-26_16h14.46.985,Main,2022.1.1,60.030639638317595,
negative,blue,1,None,k,,,,,,,,,0,16,16,16,,,,,,,,,,,,,,,,,,,,,,,,,,,,,,,,,,,,,main,None,None,1,1.4984062999992602,331.28182259999994,None,None,1,,,,,,,,,,,,,,202,28,Male,2022-04-26_16h14.46.985,Main,2022.1.1,60.030639638317595,
positive,blue,2,k,None,,,,,,,,,0,17,17,17,,,,,,,,,,,,,,,,,,,,,,,,,,,,,,,,,,,,,main,k,k,1,0.7111413000002358,333.78184970000075,None,None,0,,,,,,,,,,,,,,202,28,Male,2022-04-26_16h14.46.985,Main,2022.1.1,60.030639638317595,
negative,blue,2,None,k,,,,,,,,,0,18,18,18,,,,,,,,,,,,,,,,,,,,,,,,,,,,,,,,,,,,,main,None,None,1,1.5019353000006959,335.4963019000006,None,None,1,,,,,,,,,,,,,,202,28,Male,2022-04-26_16h14.46.985,Main,2022.1.1,60.030639638317595,
negative,blue,1,None,k,,,,,,,,,0,19,19,19,,,,,,,,,,,,,,,,,,,,,,,,,,,,,,,,,,,,,main,None,k,0,0.8243342999994638,337.9998553000005,None,None,1,,,,,,,,,,,,,,202,28,Male,2022-04-26_16h14.46.985,Main,2022.1.1,60.030639638317595,
negative,blue,1,None,k,,,,,,,,,0,20,20,20,,,,,,,,,,,,,,,,,,,,,,,,,,,,,,,,,,,,,main,None,None,1,1.490940199999386,340.83366399999977,None,None,1,,,,,,,,,,,,,,202,28,Male,2022-04-26_16h14.46.985,Main,2022.1.1,60.030639638317595,
negative,blue,2,None,k,,,,,,,,,0,21,21,21,,,,,,,,,,,,,,,,,,,,,,,,,,,,,,,,,,,,,main,None,None,1,1.4934558000004472,343.32572580000124,None,None,1,,,,,,,,,,,,,,202,28,Male,2022-04-26_16h14.46.985,Main,2022.1.1,60.030639638317595,
negative,red,1,None,None,,,,,,,,,0,22,22,22,,,,,,,,,,,,,,,,,,,,,,,,,,,,,,,,,,,,,main,None,None,1,1.5065260999999737,345.82112750000124,None,None,1,,,,,,,,,,,,,,202,28,Male,2022-04-26_16h14.46.985,Main,2022.1.1,60.030639638317595,
positive,red,2,None,None,,,,,,,,,0,23,23,23,,,,,,,,,,,,,,,,,,,,,,,,,,,,,,,,,,,,,main,None,None,1,1.4972397000001365,348.328919900001,None,None,1,,,,,,,,,,,,,,202,28,Male,2022-04-26_16h14.46.985,Main,2022.1.1,60.030639638317595,
negative,red,2,None,None,,,,,,,,,0,24,24,24,,,,,,,,,,,,,,,,,,,,,,,,,,,,,,,,,,,,,main,None,None,1,1.506557900000189,350.8286834999999,None,None,1,,,,,,,,,,,,,,202,28,Male,2022-04-26_16h14.46.985,Main,2022.1.1,60.030639638317595,
positive,blue,2,k,None,,,,,,,,,0,25,25,25,,,,,,,,,,,,,,,,,,,,,,,,,,,,,,,,,,,,,main,k,k,1,0.9246230000007927,353.3390076000014,None,None,0,,,,,,,,,,,,,,202,28,Male,2022-04-26_16h14.46.985,Main,2022.1.1,60.030639638317595,
negative,yellow,1,k,None,,,,,,,,,0,26,26,26,,,,,,,,,,,,,,,,,,,,,,,,,,,,,,,,,,,,,main,k,k,1,1.009244699998817,355.2627572000001,None,None,0,,,,,,,,,,,,,,202,28,Male,2022-04-26_16h14.46.985,Main,2022.1.1,60.030639638317595,
positive,blue,2,k,None,,,,,,,,,0,27,27,27,,,,,,,,,,,,,,,,,,,,,,,,,,,,,,,,,,,,,main,k,k,1,0.8510176999989199,357.2751537000004,None,None,0,,,,,,,,,,,,,,202,28,Male,2022-04-26_16h14.46.985,Main,2022.1.1,60.030639638317595,
negative,blue,2,None,k,,,,,,,,,0,28,28,28,,,,,,,,,,,,,,,,,,,,,,,,,,,,,,,,,,,,,main,None,None,1,1.5046972000000096,359.1288153000005,None,None,1,,,,,,,,,,,,,,202,28,Male,2022-04-26_16h14.46.985,Main,2022.1.1,60.030639638317595,
positive,red,1,None,None,,,,,,,,,0,29,29,29,,,,,,,,,,,,,,,,,,,,,,,,,,,,,,,,,,,,,main,None,None,1,1.499084999999468,361.6370915000007,None,None,1,,,,,,,,,,,,,,202,28,Male,2022-04-26_16h14.46.985,Main,2022.1.1,60.030639638317595,
positive,blue,1,k,None,,,,,,,,,0,30,30,30,,,,,,,,,,,,,,,,,,,,,,,,,,,,,,,,,,,,,main,k,k,1,0.8362066999998206,364.1378583000005,None,None,0,,,,,,,,,,,,,,202,28,Male,2022-04-26_16h14.46.985,Main,2022.1.1,60.030639638317595,
positive,yellow,1,None,k,,,,,,,,,0,31,31,31,,,,,,,,,,,,,,,,,,,,,,,,,,,,,,,,,,,,,main,None,None,1,1.498907600000166,365.97507750000113,None,None,1,,,,,,,,,,,,,,202,28,Male,2022-04-26_16h14.46.985,Main,2022.1.1,60.030639638317595,
negative,yellow,2,k,None,,,,,,,,,0,32,32,32,,,,,,,,,,,,,,,,,,,,,,,,,,,,,,,,,,,,,main,k,k,1,1.0866344999994908,368.47621810000055,None,None,0,,,,,,,,,,,,,,202,28,Male,2022-04-26_16h14.46.985,Main,2022.1.1,60.030639638317595,
negative,blue,1,None,k,,,,,,,,,0,33,33,33,,,,,,,,,,,,,,,,,,,,,,,,,,,,,,,,,,,,,main,None,None,1,1.5016613000007055,370.5665792,None,None,1,,,,,,,,,,,,,,202,28,Male,2022-04-26_16h14.46.985,Main,2022.1.1,60.030639638317595,
positive,blue,1,k,None,,,,,,,,,0,34,34,34,,,,,,,,,,,,,,,,,,,,,,,,,,,,,,,,,,,,,main,k,k,1,0.8738293000005797,373.06984620000003,None,None,0,,,,,,,,,,,,,,202,28,Male,2022-04-26_16h14.46.985,Main,2022.1.1,60.030639638317595,
negative,yellow,1,k,None,,,,,,,,,0,35,35,35,,,,,,,,,,,,,,,,,,,,,,,,,,,,,,,,,,,,,main,k,k,1,0.8622604000011052,374.94295000000056,None,None,0,,,,,,,,,,,,,,202,28,Male,2022-04-26_16h14.46.985,Main,2022.1.1,60.030639638317595,
positive,yellow,2,None,k,,,,,,,,,0,36,36,36,,,,,,,,,,,,,,,,,,,,,,,,,,,,,,,,,,,,,main,None,None,1,1.5094841000009183,376.8080828000002,None,None,1,,,,,,,,,,,,,,202,28,Male,2022-04-26_16h14.46.985,Main,2022.1.1,60.030639638317595,
positive,yellow,2,None,k,,,,,,,,,0,37,37,37,,,,,,,,,,,,,,,,,,,,,,,,,,,,,,,,,,,,,main,None,None,1,1.5052767000015592,379.3210412999997,None,None,1,,,,,,,,,,,,,,202,28,Male,2022-04-26_16h14.46.985,Main,2022.1.1,60.030639638317595,
negative,yellow,2,k,None,,,,,,,,,0,38,38,38,,,,,,,,,,,,,,,,,,,,,,,,,,,,,,,,,,,,,main,k,k,1,0.94977420000032,381.82593050000105,None,None,0,,,,,,,,,,,,,,202,28,Male,2022-04-26_16h14.46.985,Main,2022.1.1,60.030639638317595,
positive,yellow,1,None,k,,,,,,,,,0,39,39,39,,,,,,,,,,,,,,,,,,,,,,,,,,,,,,,,,,,,,main,None,None,1,1.5005164000012883,383.77729610000097,None,None,1,,,,,,,,,,,,,,202,28,Male,2022-04-26_16h14.46.985,Main,2022.1.1,60.030639638317595,
negative,yellow,2,k,None,,,,,,,,,0,40,40,40,,,,,,,,,,,,,,,,,,,,,,,,,,,,,,,,,,,,,main,k,k,1,0.7470388999990973,386.2813471999998,None,None,0,,,,,,,,,,,,,,202,28,Male,2022-04-26_16h14.46.985,Main,2022.1.1,60.030639638317595,
positive,blue,2,k,None,,,,,,,,,0,41,41,41,,,,,,,,,,,,,,,,,,,,,,,,,,,,,,,,,,,,,main,k,k,1,0.8223419999994803,388.028103300001,None,None,0,,,,,,,,,,,,,,202,28,Male,2022-04-26_16h14.46.985,Main,2022.1.1,60.030639638317595,
positive,blue,2,k,None,,,,,,,,,0,42,42,42,,,,,,,,,,,,,,,,,,,,,,,,,,,,,,,,,,,,,main,k,k,1,0.7898422999987815,389.85346220000065,None,None,0,,,,,,,,,,,,,,202,28,Male,2022-04-26_16h14.46.985,Main,2022.1.1,60.030639638317595,
negative,blue,2,None,k,,,,,,,,,0,43,43,43,,,,,,,,,,,,,,,,,,,,,,,,,,,,,,,,,,,,,main,None,None,1,1.5004521000009845,391.64275970000017,None,None,1,,,,,,,,,,,,,,202,28,Male,2022-04-26_16h14.46.985,Main,2022.1.1,60.030639638317595,
negative,red,1,None,None,,,,,,,,,0,44,44,44,,,,,,,,,,,,,,,,,,,,,,,,,,,,,,,,,,,,,main,None,None,1,1.5008266000004369,394.14713420000044,None,None,1,,,,,,,,,,,,,,202,28,Male,2022-04-26_16h14.46.985,Main,2022.1.1,60.030639638317595,
negative,yellow,1,k,None,,,,,,,,,0,45,45,45,,,,,,,,,,,,,,,,,,,,,,,,,,,,,,,,,,,,,main,k,k,1,0.9551647999996931,396.64968039999985,None,None,0,,,,,,,,,,,,,,202,28,Male,2022-04-26_16h14.46.985,Main,2022.1.1,60.030639638317595,
negative,yellow,1,k,None,,,,,,,,,0,46,46,46,,,,,,,,,,,,,,,,,,,,,,,,,,,,,,,,,,,,,main,k,k,1,0.9034513000005973,398.66714110000066,None,None,0,,,,,,,,,,,,,,202,28,Male,2022-04-26_16h14.46.985,Main,2022.1.1,60.030639638317595,
positive,red,1,None,None,,,,,,,,,0,47,47,47,,,,,,,,,,,,,,,,,,,,,,,,,,,,,,,,,,,,,main,None,None,1,1.4966540999994322,400.5745466999997,None,None,1,,,,,,,,,,,,,,202,28,Male,2022-04-26_16h14.46.985,Main,2022.1.1,60.030639638317595,
positive,yellow,1,None,k,,,,,,,,,0,48,48,48,,,,,,,,,,,,,,,,,,,,,,,,,,,,,,,,,,,,,main,None,None,1,1.4960711000003357,403.07186120000006,None,None,1,,,,,,,,,,,,,,202,28,Male,2022-04-26_16h14.46.985,Main,2022.1.1,60.030639638317595,
negative,blue,1,None,k,,,,,,,,,0,49,49,49,,,,,,,,,,,,,,,,,,,,,,,,,,,,,,,,,,,,,main,None,None,1,1.5054572000008193,405.5727334000003,None,None,1,,,,,,,,,,,,,,202,28,Male,2022-04-26_16h14.46.985,Main,2022.1.1,60.030639638317595,
positive,yellow,2,None,k,,,,,,,,,0,50,50,50,,,,,,,,,,,,,,,,,,,,,,,,,,,,,,,,,,,,,main,None,None,1,1.4950922000007267,408.0816912999999,None,None,1,,,,,,,,,,,,,,202,28,Male,2022-04-26_16h14.46.985,Main,2022.1.1,60.030639638317595,
negative,blue,1,None,k,,,,,,,,,0,51,51,51,,,,,,,,,,,,,,,,,,,,,,,,,,,,,,,,,,,,,main,None,None,1,1.49557619999905,410.5782285000005,None,None,1,,,,,,,,,,,,,,202,28,Male,2022-04-26_16h14.46.985,Main,2022.1.1,60.030639638317595,
positive,red,2,None,None,,,,,,,,,0,52,52,52,,,,,,,,,,,,,,,,,,,,,,,,,,,,,,,,,,,,,main,None,None,1,1.5095282000002044,413.07311610000033,None,None,1,,,,,,,,,,,,,,202,28,Male,2022-04-26_16h14.46.985,Main,2022.1.1,60.030639638317595,
positive,yellow,2,None,k,,,,,,,,,0,53,53,53,,,,,,,,,,,,,,,,,,,,,,,,,,,,,,,,,,,,,main,None,None,1,1.5061311999997997,415.5857995000006,None,None,1,,,,,,,,,,,,,,202,28,Male,2022-04-26_16h14.46.985,Main,2022.1.1,60.030639638317595,
negative,red,2,None,None,,,,,,,,,0,54,54,54,,,,,,,,,,,,,,,,,,,,,,,,,,,,,,,,,,,,,main,None,None,1,1.496859900000345,418.09583040000143,None,None,1,,,,,,,,,,,,,,202,28,Male,2022-04-26_16h14.46.985,Main,2022.1.1,60.030639638317595,
positive,yellow,1,None,k,,,,,,,,,0,55,55,55,,,,,,,,,,,,,,,,,,,,,,,,,,,,,,,,,,,,,main,None,None,1,1.5001938999994309,420.5941171000013,None,None,1,,,,,,,,,,,,,,202,28,Male,2022-04-26_16h14.46.985,Main,2022.1.1,60.030639638317595,
negative,blue,2,None,k,,,,,,,,,0,56,56,56,,,,,,,,,,,,,,,,,,,,,,,,,,,,,,,,,,,,,main,None,None,1,1.5100530999989132,423.0958784000013,None,None,1,,,,,,,,,,,,,,202,28,Male,2022-04-26_16h14.46.985,Main,2022.1.1,60.030639638317595,
positive,blue,1,k,None,,,,,,,,,0,57,57,57,,,,,,,,,,,,,,,,,,,,,,,,,,,,,,,,,,,,,main,k,k,1,0.8829568000001018,425.6053225000014,None,None,0,,,,,,,,,,,,,,202,28,Male,2022-04-26_16h14.46.985,Main,2022.1.1,60.030639638317595,
positive,blue,1,k,None,,,,,,,,,0,58,58,58,,,,,,,,,,,,,,,,,,,,,,,,,,,,,,,,,,,,,main,k,k,1,0.8726040999990801,427.49191470000005,None,None,0,,,,,,,,,,,,,,202,28,Male,2022-04-26_16h14.46.985,Main,2022.1.1,60.030639638317595,
negative,yellow,2,k,None,,,,,,,,,0,59,59,59,,,,,,,,,,,,,,,,,,,,,,,,,,,,,,,,,,,,,main,k,k,1,0.8475436999997328,429.36557809999977,None,None,0,,,,,,,,,,,,,,202,28,Male,2022-04-26_16h14.46.985,Main,2022.1.1,60.030639638317595,
positive,red,2,None,None,,,,,,,,,0,60,60,60,,,,,,,,,,,,,,,,,,,,,,,,,,,,,,,,,,,,,main,None,None,1,1.5050450000017008,431.21453740000106,None,None,1,,,,,,,,,,,,,,202,28,Male,2022-04-26_16h14.46.985,Main,2022.1.1,60.030639638317595,
negative,yellow,1,k,None,,,,,,,,,0,61,61,61,,,,,,,,,,,,,,,,,,,,,,,,,,,,,,,,,,,,,main,k,k,1,0.9000016999998479,433.71929530000125,None,None,0,,,,,,,,,,,,,,202,28,Male,2022-04-26_16h14.46.985,Main,2022.1.1,60.030639638317595,
negative,red,1,None,None,,,,,,,,,0,62,62,62,,,,,,,,,,,,,,,,,,,,,,,,,,,,,,,,,,,,,main,None,None,1,1.5019928999990952,435.6205200000004,None,None,1,,,,,,,,,,,,,,202,28,Male,2022-04-26_16h14.46.985,Main,2022.1.1,60.030639638317595,
negative,blue,1,None,k,,,,,,,,,0,63,63,63,,,,,,,,,,,,,,,,,,,,,,,,,,,,,,,,,,,,,main,None,None,1,1.5061412999984896,438.1277657999999,None,None,1,,,,,,,,,,,,,,202,28,Male,2022-04-26_16h14.46.985,Main,2022.1.1,60.030639638317595,
positive,blue,2,k,None,,,,,,,,,0,64,64,64,,,,,,,,,,,,,,,,,,,,,,,,,,,,,,,,,,,,,main,k,k,1,0.7198628000005556,440.63393480000013,None,None,0,,,,,,,,,,,,,,202,28,Male,2022-04-26_16h14.46.985,Main,2022.1.1,60.030639638317595,
negative,yellow,2,k,None,,,,,,,,,0,65,65,65,,,,,,,,,,,,,,,,,,,,,,,,,,,,,,,,,,,,,main,k,k,1,1.033224799999516,442.3572714000002,None,None,0,,,,,,,,,,,,,,202,28,Male,2022-04-26_16h14.46.985,Main,2022.1.1,60.030639638317595,
positive,yellow,2,None,k,,,,,,,,,0,66,66,66,,,,,,,,,,,,,,,,,,,,,,,,,,,,,,,,,,,,,main,None,None,1,1.493304999999964,444.39200750000055,None,None,1,,,,,,,,,,,,,,202,28,Male,2022-04-26_16h14.46.985,Main,2022.1.1,60.030639638317595,
positive,yellow,2,None,k,,,,,,,,,0,67,67,67,,,,,,,,,,,,,,,,,,,,,,,,,,,,,,,,,,,,,main,None,None,1,1.4983487999998033,446.8868233000012,None,None,1,,,,,,,,,,,,,,202,28,Male,2022-04-26_16h14.46.985,Main,2022.1.1,60.030639638317595,
positive,red,1,None,None,,,,,,,,,0,68,68,68,,,,,,,,,,,,,,,,,,,,,,,,,,,,,,,,,,,,,main,None,None,1,1.5024560999991081,449.3845801000007,None,None,1,,,,,,,,,,,,,,202,28,Male,2022-04-26_16h14.46.985,Main,2022.1.1,60.030639638317595,
positive,yellow,1,None,k,,,,,,,,,0,69,69,69,,,,,,,,,,,,,,,,,,,,,,,,,,,,,,,,,,,,,main,None,None,1,1.501885100000436,451.8904921000012,None,None,1,,,,,,,,,,,,,,202,28,Male,2022-04-26_16h14.46.985,Main,2022.1.1,60.030639638317595,
negative,yellow,2,k,None,,,,,,,,,0,70,70,70,,,,,,,,,,,,,,,,,,,,,,,,,,,,,,,,,,,,,main,k,k,1,0.8474158000008174,454.39334150000104,None,None,0,,,,,,,,,,,,,,202,28,Male,2022-04-26_16h14.46.985,Main,2022.1.1,60.030639638317595,
positive,yellow,1,None,k,,,,,,,,,0,71,71,71,,,,,,,,,,,,,,,,,,,,,,,,,,,,,,,,,,,,,main,None,None,1,1.4976814999990893,456.2431047000009,None,None,1,,,,,,,,,,,,,,202,28,Male,2022-04-26_16h14.46.985,Main,2022.1.1,60.030639638317595,
negative,blue,1,None,k,,,,,,,,,0,72,72,72,,,,,,,,,,,,,,,,,,,,,,,,,,,,,,,,,,,,,main,None,None,1,1.5006775000001653,458.7424047000004,None,None,1,,,,,,,,,,,,,,202,28,Male,2022-04-26_16h14.46.985,Main,2022.1.1,60.030639638317595,
negative,red,2,None,None,,,,,,,,,0,73,73,73,,,,,,,,,,,,,,,,,,,,,,,,,,,,,,,,,,,,,main,None,None,1,1.4945220999998128,461.2434976000004,None,None,1,,,,,,,,,,,,,,202,28,Male,2022-04-26_16h14.46.985,Main,2022.1.1,60.030639638317595,
positive,blue,2,k,None,,,,,,,,,0,74,74,74,,,,,,,,,,,,,,,,,,,,,,,,,,,,,,,,,,,,,main,k,k,1,0.610627599999134,463.7403305000007,None,None,0,,,,,,,,,,,,,,202,28,Male,2022-04-26_16h14.46.985,Main,2022.1.1,60.030639638317595,
negative,blue,2,None,k,,,,,,,,,0,75,75,75,,,,,,,,,,,,,,,,,,,,,,,,,,,,,,,,,,,,,main,None,None,1,1.5048120000010385,465.35001139999986,None,None,1,,,,,,,,,,,,,,202,28,Male,2022-04-26_16h14.46.985,Main,2022.1.1,60.030639638317595,
negative,blue,2,None,k,,,,,,,,,0,76,76,76,,,,,,,,,,,,,,,,,,,,,,,,,,,,,,,,,,,,,main,None,None,1,1.4971452999998291,467.85800759999984,None,None,1,,,,,,,,,,,,,,202,28,Male,2022-04-26_16h14.46.985,Main,2022.1.1,60.030639638317595,
negative,yellow,1,k,None,,,,,,,,,0,77,77,77,,,,,,,,,,,,,,,,,,,,,,,,,,,,,,,,,,,,,main,k,k,1,1.1514781000005314,470.35686590000114,None,None,0,,,,,,,,,,,,,,202,28,Male,2022-04-26_16h14.46.985,Main,2022.1.1,60.030639638317595,
positive,blue,1,k,None,,,,,,,,,0,78,78,78,,,,,,,,,,,,,,,,,,,,,,,,,,,,,,,,,,,,,main,k,k,1,0.9902047000014136,472.5095431000009,None,None,0,,,,,,,,,,,,,,202,28,Male,2022-04-26_16h14.46.985,Main,2022.1.1,60.030639638317595,
positive,blue,1,k,None,,,,,,,,,0,79,79,79,,,,,,,,,,,,,,,,,,,,,,,,,,,,,,,,,,,,,main,k,k,1,0.7856398000003537,474.50003749999996,None,None,0,,,,,,,,,,,,,,202,28,Male,2022-04-26_16h14.46.985,Main,2022.1.1,60.030639638317595,
positive,red,2,None,None,,,,,,,,,0,80,80,80,,,,,,,,,,,,,,,,,,,,,,,,,,,,,,,,,,,,,main,None,None,1,1.5016880000002857,476.2889242000001,None,None,1,,,,,,,,,,,,,,202,28,Male,2022-04-26_16h14.46.985,Main,2022.1.1,60.030639638317595,
positive,yellow,2,None,k,,,,,,,,,0,81,81,81,,,,,,,,,,,,,,,,,,,,,,,,,,,,,,,,,,,,,main,None,None,1,1.5068651999990834,478.7915671999999,None,None,1,,,,,,,,,,,,,,202,28,Male,2022-04-26_16h14.46.985,Main,2022.1.1,60.030639638317595,
positive,blue,1,k,None,,,,,,,,,0,82,82,82,,,,,,,,,,,,,,,,,,,,,,,,,,,,,,,,,,,,,main,k,k,1,0.8234550000015588,481.29817510000066,None,None,0,,,,,,,,,,,,,,202,28,Male,2022-04-26_16h14.46.985,Main,2022.1.1,60.030639638317595,
negative,yellow,2,k,None,,,,,,,,,0,83,83,83,,,,,,,,,,,,,,,,,,,,,,,,,,,,,,,,,,,,,main,k,k,1,0.9000348999998096,483.12542589999975,None,None,0,,,,,,,,,,,,,,202,28,Male,2022-04-26_16h14.46.985,Main,2022.1.1,60.030639638317595,
positive,blue,2,k,None,,,,,,,,,0,84,84,84,,,,,,,,,,,,,,,,,,,,,,,,,,,,,,,,,,,,,main,k,k,1,0.7476868000012473,485.02651979999973,None,None,0,,,,,,,,,,,,,,202,28,Male,2022-04-26_16h14.46.985,Main,2022.1.1,60.030639638317595,
positive,yellow,1,None,k,,,,,,,,,0,85,85,85,,,,,,,,,,,,,,,,,,,,,,,,,,,,,,,,,,,,,main,None,None,1,1.502771200001007,486.77613270000074,None,None,1,,,,,,,,,,,,,,202,28,Male,2022-04-26_16h14.46.985,Main,2022.1.1,60.030639638317595,
positive,blue,2,k,None,,,,,,,,,0,86,86,86,,,,,,,,,,,,,,,,,,,,,,,,,,,,,,,,,,,,,main,k,k,1,0.7910048999983701,489.27940560000025,None,None,0,,,,,,,,,,,,,,202,28,Male,2022-04-26_16h14.46.985,Main,2022.1.1,60.030639638317595,
positive,blue,1,k,None,,,,,,,,,0,87,87,87,,,,,,,,,,,,,,,,,,,,,,,,,,,,,,,,,,,,,main,k,k,1,0.7660347000000911,491.07482230000096,None,None,0,,,,,,,,,,,,,,202,28,Male,2022-04-26_16h14.46.985,Main,2022.1.1,60.030639638317595,
negative,yellow,2,k,None,,,,,,,,,0,88,88,88,,,,,,,,,,,,,,,,,,,,,,,,,,,,,,,,,,,,,main,k,k,1,0.847555199999988,492.84160390000034,None,None,0,,,,,,,,,,,,,,202,28,Male,2022-04-26_16h14.46.985,Main,2022.1.1,60.030639638317595,
negative,blue,2,None,k,,,,,,,,,0,89,89,89,,,,,,,,,,,,,,,,,,,,,,,,,,,,,,,,,,,,,main,None,None,1,1.5093502999989141,494.69040250000035,None,None,1,,,,,,,,,,,,,,202,28,Male,2022-04-26_16h14.46.985,Main,2022.1.1,60.030639638317595,
positive,yellow,2,None,k,,,,,,,,,0,90,90,90,,,,,,,,,,,,,,,,,,,,,,,,,,,,,,,,,,,,,main,None,None,1,1.4944969000007404,497.20188360000066,None,None,1,,,,,,,,,,,,,,202,28,Male,2022-04-26_16h14.46.985,Main,2022.1.1,60.030639638317595,
negative,yellow,1,k,None,,,,,,,,,0,91,91,91,,,,,,,,,,,,,,,,,,,,,,,,,,,,,,,,,,,,,main,k,k,1,0.7711792999998579,499.69573950000085,None,None,0,,,,,,,,,,,,,,202,28,Male,2022-04-26_16h14.46.985,Main,2022.1.1,60.030639638317595,
negative,red,2,None,None,,,,,,,,,0,92,92,92,,,,,,,,,,,,,,,,,,,,,,,,,,,,,,,,,,,,,main,None,None,1,1.509195999999065,501.4711165000008,None,None,1,,,,,,,,,,,,,,202,28,Male,2022-04-26_16h14.46.985,Main,2022.1.1,60.030639638317595,
negative,blue,2,None,k,,,,,,,,,0,93,93,93,,,,,,,,,,,,,,,,,,,,,,,,,,,,,,,,,,,,,main,None,None,1,1.5020975999996153,503.9794993000014,None,None,1,,,,,,,,,,,,,,202,28,Male,2022-04-26_16h14.46.985,Main,2022.1.1,60.030639638317595,
negative,blue,1,None,k,,,,,,,,,0,94,94,94,,,,,,,,,,,,,,,,,,,,,,,,,,,,,,,,,,,,,main,None,None,1,1.509998200001064,506.48511119999966,None,None,1,,,,,,,,,,,,,,202,28,Male,2022-04-26_16h14.46.985,Main,2022.1.1,60.030639638317595,
negative,blue,1,None,k,,,,,,,,,0,95,95,95,,,,,,,,,,,,,,,,,,,,,,,,,,,,,,,,,,,,,main,None,None,1,1.5151083999990078,508.9943215000003,None,None,1,,,,,,,,,,,,,,202,28,Male,2022-04-26_16h14.46.985,Main,2022.1.1,60.030639638317595,
negative,red,1,None,None,,,,,,,,,0,96,96,96,,,,,,,,,,,,,,,,,,,,,,,,,,,,,,,,,,,,,main,None,None,1,1.5068147000001773,511.51301710000007,None,None,1,,,,,,,,,,,,,,202,28,Male,2022-04-26_16h14.46.985,Main,2022.1.1,60.030639638317595,
positive,yellow,1,None,k,,,,,,,,,0,97,97,97,,,,,,,,,,,,,,,,,,,,,,,,,,,,,,,,,,,,,main,None,None,1,1.5086059999994177,514.0208110000003,None,None,1,,,,,,,,,,,,,,202,28,Male,2022-04-26_16h14.46.985,Main,2022.1.1,60.030639638317595,
negative,yellow,1,k,None,,,,,,,,,0,98,98,98,,,,,,,,,,,,,,,,,,,,,,,,,,,,,,,,,,,,,main,k,k,1,0.8872255999995105,516.5314175000003,None,None,0,,,,,,,,,,,,,,202,28,Male,2022-04-26_16h14.46.985,Main,2022.1.1,60.030639638317595,
positive,red,1,None,None,,,,,,,,,0,99,99,99,,,,,,,,,,,,,,,,,,,,,,,,,,,,,,,,,,,,,main,None,None,1,1.50908359999994,518.4193894,None,None,1,,,,,,,,,,,,,,202,28,Male,2022-04-26_16h14.46.985,Main,2022.1.1,60.030639638317595,
positive,blue,1,k,None,,,,,,,,,0,100,100,100,,,,,,,,,,,,,,,,,,,,,,,,,,,,,,,,,,,,,main,k,k,1,0.7989171000008355,520.9306338000006,None,None,0,,,,,,,,,,,,,,202,28,Male,2022-04-26_16h14.46.985,Main,2022.1.1,60.030639638317595,
negative,yellow,1,k,None,,,,,,,,,0,101,101,101,,,,,,,,,,,,,,,,,,,,,,,,,,,,,,,,,,,,,main,k,k,1,0.9276810999999725,522.7308752000008,None,None,0,,,,,,,,,,,,,,202,28,Male,2022-04-26_16h14.46.985,Main,2022.1.1,60.030639638317595,
negative,blue,2,None,k,,,,,,,,,0,102,102,102,,,,,,,,,,,,,,,,,,,,,,,,,,,,,,,,,,,,,main,None,None,1,1.499326099999962,524.6602922000002,None,None,1,,,,,,,,,,,,,,202,28,Male,2022-04-26_16h14.46.985,Main,2022.1.1,60.030639638317595,
negative,yellow,2,k,None,,,,,,,,,0,103,103,103,,,,,,,,,,,,,,,,,,,,,,,,,,,,,,,,,,,,,main,k,k,1,0.7847483999994438,527.1584106999999,None,None,0,,,,,,,,,,,,,,202,28,Male,2022-04-26_16h14.46.985,Main,2022.1.1,60.030639638317595,
positive,yellow,2,None,k,,,,,,,,,0,104,104,104,,,,,,,,,,,,,,,,,,,,,,,,,,,,,,,,,,,,,main,None,None,1,1.5068050000008952,528.9466697999997,None,None,1,,,,,,,,,,,,,,202,28,Male,2022-04-26_16h14.46.985,Main,2022.1.1,60.030639638317595,
positive,blue,1,k,None,,,,,,,,,0,105,105,105,,,,,,,,,,,,,,,,,,,,,,,,,,,,,,,,,,,,,main,k,k,1,0.7545245999990584,531.4546294000011,None,None,0,,,,,,,,,,,,,,202,28,Male,2022-04-26_16h14.46.985,Main,2022.1.1,60.030639638317595,
positive,blue,2,k,None,,,,,,,,,0,106,106,106,,,,,,,,,,,,,,,,,,,,,,,,,,,,,,,,,,,,,main,k,k,1,0.7291461000004347,533.2133787000002,None,None,0,,,,,,,,,,,,,,202,28,Male,2022-04-26_16h14.46.985,Main,2022.1.1,60.030639638317595,
negative,blue,1,None,k,,,,,,,,,0,107,107,107,,,,,,,,,,,,,,,,,,,,,,,,,,,,,,,,,,,,,main,None,None,1,1.5065032000002248,534.9416693000003,None,None,1,,,,,,,,,,,,,,202,28,Male,2022-04-26_16h14.46.985,Main,2022.1.1,60.030639638317595,
positive,yellow,2,None,k,,,,,,,,,0,108,108,108,,,,,,,,,,,,,,,,,,,,,,,,,,,,,,,,,,,,,main,None,None,1,1.5086752000006527,537.451759900001,None,None,1,,,,,,,,,,,,,,202,28,Male,2022-04-26_16h14.46.985,Main,2022.1.1,60.030639638317595,
negative,yellow,1,k,None,,,,,,,,,0,109,109,109,,,,,,,,,,,,,,,,,,,,,,,,,,,,,,,,,,,,,main,k,k,1,0.6576788000002125,539.9617298000012,None,None,0,,,,,,,,,,,,,,202,28,Male,2022-04-26_16h14.46.985,Main,2022.1.1,60.030639638317595,
negative,blue,2,None,k,,,,,,,,,0,110,110,110,,,,,,,,,,,,,,,,,,,,,,,,,,,,,,,,,,,,,main,None,None,1,1.5076356999998097,541.6209287000001,None,None,1,,,,,,,,,,,,,,202,28,Male,2022-04-26_16h14.46.985,Main,2022.1.1,60.030639638317595,
positive,blue,2,k,None,,,,,,,,,0,111,111,111,,,,,,,,,,,,,,,,,,,,,,,,,,,,,,,,,,,,,main,k,k,1,0.8004012999990664,544.1322935999997,None,None,0,,,,,,,,,,,,,,202,28,Male,2022-04-26_16h14.46.985,Main,2022.1.1,60.030639638317595,
negative,blue,1,None,k,,,,,,,,,0,112,112,112,,,,,,,,,,,,,,,,,,,,,,,,,,,,,,,,,,,,,main,None,None,1,1.503631999999925,545.9334975000002,None,None,1,,,,,,,,,,,,,,202,28,Male,2022-04-26_16h14.46.985,Main,2022.1.1,60.030639638317595,
positive,yellow,1,None,k,,,,,,,,,0,113,113,113,,,,,,,,,,,,,,,,,,,,,,,,,,,,,,,,,,,,,main,None,None,1,1.4957006000004185,548.4364705999997,None,None,1,,,,,,,,,,,,,,202,28,Male,2022-04-26_16h14.46.985,Main,2022.1.1,60.030639638317595,
negative,red,1,None,None,,,,,,,,,0,114,114,114,,,,,,,,,,,,,,,,,,,,,,,,,,,,,,,,,,,,,main,None,None,1,1.4949286999999458,550.9354604,None,None,1,,,,,,,,,,,,,,202,28,Male,2022-04-26_16h14.46.985,Main,2022.1.1,60.030639638317595,
positive,red,1,None,None,,,,,,,,,0,115,115,115,,,,,,,,,,,,,,,,,,,,,,,,,,,,,,,,,,,,,main,None,None,1,1.507195000000138,553.4335917999997,None,None,1,,,,,,,,,,,,,,202,28,Male,2022-04-26_16h14.46.985,Main,2022.1.1,60.030639638317595,
negative,red,2,None,None,,,,,,,,,0,116,116,116,,,,,,,,,,,,,,,,,,,,,,,,,,,,,,,,,,,,,main,None,None,1,1.504511299999649,555.9429118999997,None,None,1,,,,,,,,,,,,,,202,28,Male,2022-04-26_16h14.46.985,Main,2022.1.1,60.030639638317595,
negative,yellow,2,k,None,,,,,,,,,0,117,117,117,,,,,,,,,,,,,,,,,,,,,,,,,,,,,,,,,,,,,main,k,k,1,1.4106450999988738,558.4483680000012,None,None,0,,,,,,,,,,,,,,202,28,Male,2022-04-26_16h14.46.985,Main,2022.1.1,60.030639638317595,
positive,yellow,1,None,k,,,,,,,,,0,118,118,118,,,,,,,,,,,,,,,,,,,,,,,,,,,,,,,,,,,,,main,None,k,0,-0.69042459999946,560.861090800001,None,None,1,,,,,,,,,,,,,,202,28,Male,2022-04-26_16h14.46.985,Main,2022.1.1,60.030639638317595,
positive,red,2,None,None,,,,,,,,,0,119,119,119,,,,,,,,,,,,,,,,,,,,,,,,,,,,,,,,,,,,,main,None,None,1,1.4893781000009767,564.188055300001,None,None,1,,,,,,,,,,,,,,202,28,Male,2022-04-26_16h14.46.985,Main,2022.1.1,60.030639638317595,
positive,blue,2,k,None,,,,,,,,,0,120,120,120,,,,,,,,,,,,,,,,,,,,,,,,,,,,,,,,,,,,,main,k,k,1,1.3621179999991,566.6785529999997,None,None,0,,,,,,,,,,,,,,202,28,Male,2022-04-26_16h14.46.985,Main,2022.1.1,60.030639638317595,
negative,red,1,None,None,,,,,,,,,0,121,121,121,,,,,,,,,,,,,,,,,,,,,,,,,,,,,,,,,,,,,main,None,None,1,1.5109818000000814,569.0425931000009,None,None,1,,,,,,,,,,,,,,202,28,Male,2022-04-26_16h14.46.985,Main,2022.1.1,60.030639638317595,
positive,yellow,2,None,k,,,,,,,,,0,122,122,122,,,,,,,,,,,,,,,,,,,,,,,,,,,,,,,,,,,,,main,None,None,1,1.502344799999264,571.5527382,None,None,1,,,,,,,,,,,,,,202,28,Male,2022-04-26_16h14.46.985,Main,2022.1.1,60.030639638317595,
negative,red,2,None,None,,,,,,,,,0,123,123,123,,,,,,,,,,,,,,,,,,,,,,,,,,,,,,,,,,,,,main,None,None,1,1.5101838000009593,574.0589438000006,None,None,1,,,,,,,,,,,,,,202,28,Male,2022-04-26_16h14.46.985,Main,2022.1.1,60.030639638317595,
negative,yellow,2,k,None,,,,,,,,,0,124,124,124,,,,,,,,,,,,,,,,,,,,,,,,,,,,,,,,,,,,,main,k,k,1,0.8851283999993029,576.5683230000013,None,None,0,,,,,,,,,,,,,,202,28,Male,2022-04-26_16h14.46.985,Main,2022.1.1,60.030639638317595,
positive,red,1,None,None,,,,,,,,,0,125,125,125,,,,,,,,,,,,,,,,,,,,,,,,,,,,,,,,,,,,,main,None,None,1,1.498730400000568,578.4573211000006,None,None,1,,,,,,,,,,,,,,202,28,Male,2022-04-26_16h14.46.985,Main,2022.1.1,60.030639638317595,
negative,blue,2,None,k,,,,,,,,,0,126,126,126,,,,,,,,,,,,,,,,,,,,,,,,,,,,,,,,,,,,,main,None,None,1,1.4942344000010053,580.9577800000006,None,None,1,,,,,,,,,,,,,,202,28,Male,2022-04-26_16h14.46.985,Main,2022.1.1,60.030639638317595,
negative,blue,1,None,k,,,,,,,,,0,127,127,127,,,,,,,,,,,,,,,,,,,,,,,,,,,,,,,,,,,,,main,None,None,1,1.50458400000025,583.4511748000004,None,None,1,,,,,,,,,,,,,,202,28,Male,2022-04-26_16h14.46.985,Main,2022.1.1,60.030639638317595,
negative,yellow,1,k,None,,,,,,,,,0,128,128,128,,,,,,,,,,,,,,,,,,,,,,,,,,,,,,,,,,,,,main,k,k,1,1.0679759000013291,585.9594729,None,None,0,,,,,,,,,,,,,,202,28,Male,2022-04-26_16h14.46.985,Main,2022.1.1,60.030639638317595,
negative,yellow,1,k,None,,,,,,,,,0,129,129,129,,,,,,,,,,,,,,,,,,,,,,,,,,,,,,,,,,,,,main,k,k,1,0.9235439999993105,588.028209600001,None,None,0,,,,,,,,,,,,,,202,28,Male,2022-04-26_16h14.46.985,Main,2022.1.1,60.030639638317595,
positive,blue,1,k,None,,,,,,,,,0,130,130,130,,,,,,,,,,,,,,,,,,,,,,,,,,,,,,,,,,,,,main,k,k,1,1.0313140999987809,589.9537864000013,None,None,0,,,,,,,,,,,,,,202,28,Male,2022-04-26_16h14.46.985,Main,2022.1.1,60.030639638317595,
negative,blue,1,None,k,,,,,,,,,0,131,131,131,,,,,,,,,,,,,,,,,,,,,,,,,,,,,,,,,,,,,main,None,None,1,1.4976898999993864,591.9865531000014,None,None,1,,,,,,,,,,,,,,202,28,Male,2022-04-26_16h14.46.985,Main,2022.1.1,60.030639638317595,
negative,blue,2,None,k,,,,,,,,,0,132,132,132,,,,,,,,,,,,,,,,,,,,,,,,,,,,,,,,,,,,,main,None,None,1,1.494675299998562,594.4854979000011,None,None,1,,,,,,,,,,,,,,202,28,Male,2022-04-26_16h14.46.985,Main,2022.1.1,60.030639638317595,
positive,blue,2,k,None,,,,,,,,,0,133,133,133,,,,,,,,,,,,,,,,,,,,,,,,,,,,,,,,,,,,,main,k,k,1,0.8424630000008619,596.9801060999998,None,None,0,,,,,,,,,,,,,,202,28,Male,2022-04-26_16h14.46.985,Main,2022.1.1,60.030639638317595,
positive,red,2,None,None,,,,,,,,,0,134,134,134,,,,,,,,,,,,,,,,,,,,,,,,,,,,,,,,,,,,,main,None,None,1,1.4979963999994652,598.8256933000011,None,None,1,,,,,,,,,,,,,,202,28,Male,2022-04-26_16h14.46.985,Main,2022.1.1,60.030639638317595,
negative,yellow,2,k,None,,,,,,,,,0,135,135,135,,,,,,,,,,,,,,,,,,,,,,,,,,,,,,,,,,,,,main,k,k,1,0.9239737999996578,601.3253080000013,None,None,0,,,,,,,,,,,,,,202,28,Male,2022-04-26_16h14.46.985,Main,2022.1.1,60.030639638317595,
positive,yellow,2,None,k,,,,,,,,,0,136,136,136,,,,,,,,,,,,,,,,,,,,,,,,,,,,,,,,,,,,,main,None,None,1,1.4980978999992658,603.2489995000014,None,None,1,,,,,,,,,,,,,,202,28,Male,2022-04-26_16h14.46.985,Main,2022.1.1,60.030639638317595,
positive,blue,1,k,None,,,,,,,,,0,137,137,137,,,,,,,,,,,,,,,,,,,,,,,,,,,,,,,,,,,,,main,k,k,1,0.8980886000008468,605.748474,None,None,0,,,,,,,,,,,,,,202,28,Male,2022-04-26_16h14.46.985,Main,2022.1.1,60.030639638317595,
positive,yellow,1,None,k,,,,,,,,,0,138,138,138,,,,,,,,,,,,,,,,,,,,,,,,,,,,,,,,,,,,,main,None,None,1,1.5094805999997334,607.6501927999998,None,None,1,,,,,,,,,,,,,,202,28,Male,2022-04-26_16h14.46.985,Main,2022.1.1,60.030639638317595,
positive,yellow,1,None,k,,,,,,,,,0,139,139,139,,,,,,,,,,,,,,,,,,,,,,,,,,,,,,,,,,,,,main,None,None,1,1.5064120999995794,610.1608828999997,None,None,1,,,,,,,,,,,,,,202,28,Male,2022-04-26_16h14.46.985,Main,2022.1.1,60.030639638317595,
positive,yellow,1,None,k,,,,,,,,,0,140,140,140,,,,,,,,,,,,,,,,,,,,,,,,,,,,,,,,,,,,,main,None,None,1,1.5088761999995768,612.6711114000009,None,None,1,,,,,,,,,,,,,,202,28,Male,2022-04-26_16h14.46.985,Main,2022.1.1,60.030639638317595,
positive,blue,1,k,None,,,,,,,,,0,141,141,141,,,,,,,,,,,,,,,,,,,,,,,,,,,,,,,,,,,,,main,k,k,1,0.8255781000007119,615.1790453000012,None,None,0,,,,,,,,,,,,,,202,28,Male,2022-04-26_16h14.46.985,Main,2022.1.1,60.030639638317595,
positive,blue,2,k,None,,,,,,,,,0,142,142,142,,,,,,,,,,,,,,,,,,,,,,,,,,,,,,,,,,,,,main,k,k,1,0.7767409000007319,617.0079103000007,None,None,0,,,,,,,,,,,,,,202,28,Male,2022-04-26_16h14.46.985,Main,2022.1.1,60.030639638317595,
positive,yellow,2,None,k,,,,,,,,,0,143,143,143,,,,,,,,,,,,,,,,,,,,,,,,,,,,,,,,,,,,,main,None,None,1,1.5009912000004988,618.7864449999997,None,None,1,,,,,,,,,,,,,,202,28,Male,2022-04-26_16h14.46.985,Main,2022.1.1,60.030639638317595,
negative,yellow,2,k,None,,,,,,,,,0,144,144,144,,,,,,,,,,,,,,,,,,,,,,,,,,,,,,,,,,,,,main,k,k,1,0.7435504999994009,621.2883156000007,None,None,0,,,,,,,,,,,,,,202,28,Male,2022-04-26_16h14.46.985,Main,2022.1.1,60.030639638317595,
negative,blue,2,None,k,,,,,,,,,0,145,145,145,,,,,,,,,,,,,,,,,,,,,,,,,,,,,,,,,,,,,main,None,None,1,1.498307300000306,623.0338655000014,None,None,1,,,,,,,,,,,,,,202,28,Male,2022-04-26_16h14.46.985,Main,2022.1.1,60.030639638317595,
negative,red,1,None,None,,,,,,,,,0,146,146,146,,,,,,,,,,,,,,,,,,,,,,,,,,,,,,,,,,,,,main,None,None,1,1.49936709999929,625.5334977000002,None,None,1,,,,,,,,,,,,,,202,28,Male,2022-04-26_16h14.46.985,Main,2022.1.1,60.030639638317595,
positive,blue,1,k,None,,,,,,,,,0,147,147,147,,,,,,,,,,,,,,,,,,,,,,,,,,,,,,,,,,,,,main,k,k,1,0.7272447000013926,628.0342692000013,None,None,0,,,,,,,,,,,,,,202,28,Male,2022-04-26_16h14.46.985,Main,2022.1.1,60.030639638317595,
positive,yellow,1,None,k,,,,,,,,,0,148,148,148,,,,,,,,,,,,,,,,,,,,,,,,,,,,,,,,,,,,,main,None,None,1,1.5045150999994803,629.7604882000014,None,None,1,,,,,,,,,,,,,,202,28,Male,2022-04-26_16h14.46.985,Main,2022.1.1,60.030639638317595,
negative,red,2,None,None,,,,,,,,,0,149,149,149,,,,,,,,,,,,,,,,,,,,,,,,,,,,,,,,,,,,,main,None,None,1,1.5026247000005242,632.2690386000013,None,None,1,,,,,,,,,,,,,,202,28,Male,2022-04-26_16h14.46.985,Main,2022.1.1,60.030639638317595,
negative,blue,1,None,k,,,,,,,,,0,150,150,150,,,,,,,,,,,,,,,,,,,,,,,,,,,,,,,,,,,,,main,None,None,1,1.4939391000007163,634.7725468000008,None,None,1,,,,,,,,,,,,,,202,28,Male,2022-04-26_16h14.46.985,Main,2022.1.1,60.030639638317595,
negative,yellow,2,k,None,,,,,,,,,0,151,151,151,,,,,,,,,,,,,,,,,,,,,,,,,,,,,,,,,,,,,main,k,k,1,0.7642415999998775,637.2682010000008,None,None,0,,,,,,,,,,,,,,202,28,Male,2022-04-26_16h14.46.985,Main,2022.1.1,60.030639638317595,
negative,blue,2,None,k,,,,,,,,,0,152,152,152,,,,,,,,,,,,,,,,,,,,,,,,,,,,,,,,,,,,,main,None,None,1,1.4959734999993088,639.0339936,None,None,1,,,,,,,,,,,,,,202,28,Male,2022-04-26_16h14.46.985,Main,2022.1.1,60.030639638317595,
negative,yellow,1,k,None,,,,,,,,,0,153,153,153,,,,,,,,,,,,,,,,,,,,,,,,,,,,,,,,,,,,,main,k,k,1,0.8285863000000973,641.5311013999999,None,None,0,,,,,,,,,,,,,,202,28,Male,2022-04-26_16h14.46.985,Main,2022.1.1,60.030639638317595,
negative,blue,1,None,k,,,,,,,,,0,154,154,154,,,,,,,,,,,,,,,,,,,,,,,,,,,,,,,,,,,,,main,None,None,1,1.5025093000003835,643.3590370000002,None,None,1,,,,,,,,,,,,,,202,28,Male,2022-04-26_16h14.46.985,Main,2022.1.1,60.030639638317595,
positive,yellow,2,None,k,,,,,,,,,0,155,155,155,,,,,,,,,,,,,,,,,,,,,,,,,,,,,,,,,,,,,main,None,None,1,1.5062146999989636,645.8652626000003,None,None,1,,,,,,,,,,,,,,202,28,Male,2022-04-26_16h14.46.985,Main,2022.1.1,60.030639638317595,
positive,red,2,None,None,,,,,,,,,0,156,156,156,,,,,,,,,,,,,,,,,,,,,,,,,,,,,,,,,,,,,main,None,None,1,1.4995232000001124,648.3726880000013,None,None,1,,,,,,,,,,,,,,202,28,Male,2022-04-26_16h14.46.985,Main,2022.1.1,60.030639638317595,
positive,red,1,None,None,,,,,,,,,0,157,157,157,,,,,,,,,,,,,,,,,,,,,,,,,,,,,,,,,,,,,main,None,None,1,1.5085957999999664,650.873313600001,None,None,1,,,,,,,,,,,,,,202,28,Male,2022-04-26_16h14.46.985,Main,2022.1.1,60.030639638317595,
positive,blue,2,k,None,,,,,,,,,0,158,158,158,,,,,,,,,,,,,,,,,,,,,,,,,,,,,,,,,,,,,main,k,k,1,0.7259709000009025,653.386021100001,None,None,0,,,,,,,,,,,,,,202,28,Male,2022-04-26_16h14.46.985,Main,2022.1.1,60.030639638317595,
negative,yellow,1,k,None,,,,,,,,,0,159,159,159,,,,,,,,,,,,,,,,,,,,,,,,,,,,,,,,,,,,,main,k,k,1,0.8291057000005821,655.1131707000004,None,None,0,,,,,,,,,,,,,,202,28,Male,2022-04-26_16h14.46.985,Main,2022.1.1,60.030639638317595,
negative,red,2,None,None,,,,,,,,,0,160,160,160,,,,,,,,,,,,,,,,,,,,,,,,,,,,,,,,,,,,,main,None,None,1,1.506247200000871,656.9413065000008,None,None,1,,,,,,,,,,,,,,202,28,Male,2022-04-26_16h14.46.985,Main,2022.1.1,60.030639638317595,
negative,blue,1,None,k,,,,,,,,,0,161,161,161,,,,,,,,,,,,,,,,,,,,,,,,,,,,,,,,,,,,,main,None,None,1,1.4988867000010941,659.4508209000014,None,None,1,,,,,,,,,,,,,,202,28,Male,2022-04-26_16h14.46.985,Main,2022.1.1,60.030639638317595,
negative,blue,1,None,k,,,,,,,,,0,162,162,162,,,,,,,,,,,,,,,,,,,,,,,,,,,,,,,,,,,,,main,None,None,1,1.4982906000004732,661.9508856000011,None,None,1,,,,,,,,,,,,,,202,28,Male,2022-04-26_16h14.46.985,Main,2022.1.1,60.030639638317595,
negative,yellow,1,k,None,,,,,,,,,0,163,163,163,,,,,,,,,,,,,,,,,,,,,,,,,,,,,,,,,,,,,main,k,k,1,0.7854809000000387,664.4506058000006,None,None,0,,,,,,,,,,,,,,202,28,Male,2022-04-26_16h14.46.985,Main,2022.1.1,60.030639638317595,
negative,yellow,1,k,None,,,,,,,,,0,164,164,164,,,,,,,,,,,,,,,,,,,,,,,,,,,,,,,,,,,,,main,k,k,1,0.8798096999998961,666.2374579000007,None,None,0,,,,,,,,,,,,,,202,28,Male,2022-04-26_16h14.46.985,Main,2022.1.1,60.030639638317595,
positive,yellow,1,None,k,,,,,,,,,0,165,165,165,,,,,,,,,,,,,,,,,,,,,,,,,,,,,,,,,,,,,main,None,None,1,1.5033160999992106,668.1206965000001,None,None,1,,,,,,,,,,,,,,202,28,Male,2022-04-26_16h14.46.985,Main,2022.1.1,60.030639638317595,
negative,red,1,None,None,,,,,,,,,0,166,166,166,,,,,,,,,,,,,,,,,,,,,,,,,,,,,,,,,,,,,main,None,None,1,1.500085499999841,670.6275685,None,None,1,,,,,,,,,,,,,,202,28,Male,2022-04-26_16h14.46.985,Main,2022.1.1,60.030639638317595,
negative,yellow,2,k,None,,,,,,,,,0,167,167,167,,,,,,,,,,,,,,,,,,,,,,,,,,,,,,,,,,,,,main,k,k,1,0.9103606000007858,673.1292360000007,None,None,0,,,,,,,,,,,,,,202,28,Male,2022-04-26_16h14.46.985,Main,2022.1.1,60.030639638317595,
positive,blue,2,k,None,,,,,,,,,0,168,168,168,,,,,,,,,,,,,,,,,,,,,,,,,,,,,,,,,,,,,main,k,k,1,0.7519845999995596,675.0385741000009,None,None,0,,,,,,,,,,,,,,202,28,Male,2022-04-26_16h14.46.985,Main,2022.1.1,60.030639638317595,
positive,red,2,None,None,,,,,,,,,0,169,169,169,,,,,,,,,,,,,,,,,,,,,,,,,,,,,,,,,,,,,main,None,None,1,1.495464899999206,676.7942045,None,None,1,,,,,,,,,,,,,,202,28,Male,2022-04-26_16h14.46.985,Main,2022.1.1,60.030639638317595,
positive,red,1,None,None,,,,,,,,,0,170,170,170,,,,,,,,,,,,,,,,,,,,,,,,,,,,,,,,,,,,,main,None,None,1,1.5112807000004977,679.2924756000011,None,None,1,,,,,,,,,,,,,,202,28,Male,2022-04-26_16h14.46.985,Main,2022.1.1,60.030639638317595,
negative,blue,2,None,k,,,,,,,,,0,171,171,171,,,,,,,,,,,,,,,,,,,,,,,,,,,,,,,,,,,,,main,None,None,1,1.4984580000000278,681.8026675000001,None,None,1,,,,,,,,,,,,,,202,28,Male,2022-04-26_16h14.46.985,Main,2022.1.1,60.030639638317595,
positive,blue,2,k,None,,,,,,,,,0,172,172,172,,,,,,,,,,,,,,,,,,,,,,,,,,,,,,,,,,,,,main,k,k,1,0.8525784999983443,684.3027524999998,None,None,0,,,,,,,,,,,,,,202,28,Male,2022-04-26_16h14.46.985,Main,2022.1.1,60.030639638317595,
negative,yellow,2,k,None,,,,,,,,,0,173,173,173,,,,,,,,,,,,,,,,,,,,,,,,,,,,,,,,,,,,,main,k,k,1,0.9413162999990163,686.1590002000012,None,None,0,,,,,,,,,,,,,,202,28,Male,2022-04-26_16h14.46.985,Main,2022.1.1,60.030639638317595,
positive,yellow,2,None,k,,,,,,,,,0,174,174,174,,,,,,,,,,,,,,,,,,,,,,,,,,,,,,,,,,,,,main,None,None,1,1.4978221000001213,688.1014277000013,None,None,1,,,,,,,,,,,,,,202,28,Male,2022-04-26_16h14.46.985,Main,2022.1.1,60.030639638317595,
negative,blue,2,None,k,,,,,,,,,0,175,175,175,,,,,,,,,,,,,,,,,,,,,,,,,,,,,,,,,,,,,main,None,None,1,1.5004375000007713,690.6014806000003,None,None,1,,,,,,,,,,,,,,202,28,Male,2022-04-26_16h14.46.985,Main,2022.1.1,60.030639638317595,
positive,blue,1,k,None,,,,,,,,,0,176,176,176,,,,,,,,,,,,,,,,,,,,,,,,,,,,,,,,,,,,,main,k,k,1,0.7242203999994672,693.1042058000003,None,None,0,,,,,,,,,,,,,,202,28,Male,2022-04-26_16h14.46.985,Main,2022.1.1,60.030639638317595,
positive,yellow,1,None,k,,,,,,,,,0,177,177,177,,,,,,,,,,,,,,,,,,,,,,,,,,,,,,,,,,,,,main,None,None,1,1.4978477000004204,694.8308745000013,None,None,1,,,,,,,,,,,,,,202,28,Male,2022-04-26_16h14.46.985,Main,2022.1.1,60.030639638317595,
positive,blue,1,k,None,,,,,,,,,0,178,178,178,,,,,,,,,,,,,,,,,,,,,,,,,,,,,,,,,,,,,main,k,k,1,0.7986541999998735,697.3297419999999,None,None,0,,,,,,,,,,,,,,202,28,Male,2022-04-26_16h14.46.985,Main,2022.1.1,60.030639638317595,
positive,yellow,2,None,k,,,,,,,,,0,179,179,179,,,,,,,,,,,,,,,,,,,,,,,,,,,,,,,,,,,,,main,None,None,1,1.5017948999993678,699.1296251000003,None,None,1,,,,,,,,,,,,,,202,28,Male,2022-04-26_16h14.46.985,Main,2022.1.1,60.030639638317595,
positive,blue,1,k,None,,,,,,,,,0,180,180,180,,,,,,,,,,,,,,,,,,,,,,,,,,,,,,,,,,,,,main,k,k,1,0.7375558999992791,701.6330806000005,None,None,0,,,,,,,,,,,,,,202,28,Male,2022-04-26_16h14.46.985,Main,2022.1.1,60.030639638317595,
negative,red,1,None,None,,,,,,,,,0,181,181,181,,,,,,,,,,,,,,,,,,,,,,,,,,,,,,,,,,,,,main,None,k,0,-0.7442439000005834,703.3747142000011,None,None,1,,,,,,,,,,,,,,202,28,Male,2022-04-26_16h14.46.985,Main,2022.1.1,60.030639638317595,
negative,blue,1,None,k,,,,,,,,,0,182,182,182,,,,,,,,,,,,,,,,,,,,,,,,,,,,,,,,,,,,,main,None,None,1,1.499160800000027,706.6530579000009,None,None,1,,,,,,,,,,,,,,202,28,Male,2022-04-26_16h14.46.985,Main,2022.1.1,60.030639638317595,
negative,yellow,2,k,None,,,,,,,,,0,183,183,183,,,,,,,,,,,,,,,,,,,,,,,,,,,,,,,,,,,,,main,k,k,1,0.8318505000006553,709.1515450000006,None,None,0,,,,,,,,,,,,,,202,28,Male,2022-04-26_16h14.46.985,Main,2022.1.1,60.030639638317595,
positive,yellow,2,None,k,,,,,,,,,0,184,184,184,,,,,,,,,,,,,,,,,,,,,,,,,,,,,,,,,,,,,main,None,None,1,1.5123340999998618,710.9848526000005,None,None,1,,,,,,,,,,,,,,202,28,Male,2022-04-26_16h14.46.985,Main,2022.1.1,60.030639638317595,
positive,yellow,1,None,k,,,,,,,,,0,185,185,185,,,,,,,,,,,,,,,,,,,,,,,,,,,,,,,,,,,,,main,None,None,1,1.4976585999993404,713.4986602000008,None,None,1,,,,,,,,,,,,,,202,28,Male,2022-04-26_16h14.46.985,Main,2022.1.1,60.030639638317595,
positive,red,2,None,None,,,,,,,,,0,186,186,186,,,,,,,,,,,,,,,,,,,,,,,,,,,,,,,,,,,,,main,None,None,1,1.4995173000006616,715.998108400001,None,None,1,,,,,,,,,,,,,,202,28,Male,2022-04-26_16h14.46.985,Main,2022.1.1,60.030639638317595,
positive,blue,1,k,None,,,,,,,,,0,187,187,187,,,,,,,,,,,,,,,,,,,,,,,,,,,,,,,,,,,,,main,k,k,1,0.7432114999992336,718.4990341000012,None,None,0,,,,,,,,,,,,,,202,28,Male,2022-04-26_16h14.46.985,Main,2022.1.1,60.030639638317595,
negative,yellow,1,k,None,,,,,,,,,0,188,188,188,,,,,,,,,,,,,,,,,,,,,,,,,,,,,,,,,,,,,main,k,k,1,0.8760801999997057,720.2527637000003,None,None,0,,,,,,,,,,,,,,202,28,Male,2022-04-26_16h14.46.985,Main,2022.1.1,60.030639638317595,
positive,yellow,2,None,k,,,,,,,,,0,189,189,189,,,,,,,,,,,,,,,,,,,,,,,,,,,,,,,,,,,,,main,None,None,1,1.5010128000012628,722.1257193000001,None,None,1,,,,,,,,,,,,,,202,28,Male,2022-04-26_16h14.46.985,Main,2022.1.1,60.030639638317595,
negative,yellow,2,k,None,,,,,,,,,0,190,190,190,,,,,,,,,,,,,,,,,,,,,,,,,,,,,,,,,,,,,main,k,k,1,0.7339279999996506,724.6280517000014,None,None,0,,,,,,,,,,,,,,202,28,Male,2022-04-26_16h14.46.985,Main,2022.1.1,60.030639638317595,
negative,yellow,1,k,None,,,,,,,,,0,191,191,191,,,,,,,,,,,,,,,,,,,,,,,,,,,,,,,,,,,,,main,k,k,1,1.0436437000007572,726.3633630000004,None,None,0,,,,,,,,,,,,,,202,28,Male,2022-04-26_16h14.46.985,Main,2022.1.1,60.030639638317595,
positive,blue,2,k,None,,,,,,,,,0,192,192,192,,,,,,,,,,,,,,,,,,,,,,,,,,,,,,,,,,,,,main,k,k,1,0.7485876000009739,728.4102894999996,None,None,0,,,,,,,,,,,,,,202,28,Male,2022-04-26_16h14.46.985,Main,2022.1.1,60.030639638317595,
positive,yellow,1,None,k,,,,,,,,,0,193,193,193,,,,,,,,,,,,,,,,,,,,,,,,,,,,,,,,,,,,,main,None,None,1,1.4947814000006474,730.1601132000014,None,None,1,,,,,,,,,,,,,,202,28,Male,2022-04-26_16h14.46.985,Main,2022.1.1,60.030639638317595,
negative,red,2,None,None,,,,,,,,,0,194,194,194,,,,,,,,,,,,,,,,,,,,,,,,,,,,,,,,,,,,,main,None,None,1,1.4943760000005568,732.6567422999997,None,None,1,,,,,,,,,,,,,,202,28,Male,2022-04-26_16h14.46.985,Main,2022.1.1,60.030639638317595,
positive,red,1,None,None,,,,,,,,,0,195,195,195,,,,,,,,,,,,,,,,,,,,,,,,,,,,,,,,,,,,,main,None,None,1,1.494943300000159,735.152521,None,None,1,,,,,,,,,,,,,,202,28,Male,2022-04-26_16h14.46.985,Main,2022.1.1,60.030639638317595,
negative,blue,1,None,k,,,,,,,,,0,196,196,196,,,,,,,,,,,,,,,,,,,,,,,,,,,,,,,,,,,,,main,None,None,1,1.4975216999991972,737.6492113000004,None,None,1,,,,,,,,,,,,,,202,28,Male,2022-04-26_16h14.46.985,Main,2022.1.1,60.030639638317595,
positive,blue,2,k,None,,,,,,,,,0,197,197,197,,,,,,,,,,,,,,,,,,,,,,,,,,,,,,,,,,,,,main,k,k,1,0.7867636999999377,740.1465258999997,None,None,0,,,,,,,,,,,,,,202,28,Male,2022-04-26_16h14.46.985,Main,2022.1.1,60.030639638317595,
negative,blue,2,None,k,,,,,,,,,0,198,198,198,,,,,,,,,,,,,,,,,,,,,,,,,,,,,,,,,,,,,main,None,None,1,1.5092712000005122,741.9360460000007,None,None,1,,,,,,,,,,,,,,202,28,Male,2022-04-26_16h14.46.985,Main,2022.1.1,60.030639638317595,
negative,blue,2,None,k,,,,,,,,,0,199,199,199,,,,,,,,,,,,,,,,,,,,,,,,,,,,,,,,,,,,,main,None,None,1,1.5059442000001582,744.4447994000002,None,None,1,,,,,,,,,,,,,,202,28,Male,2022-04-26_16h14.46.985,Main,2022.1.1,60.030639638317595,
positive,blue,2,k,None,,,,,,,,,0,200,200,200,,,,,,,,,,,,,,,,,,,,,,,,,,,,,,,,,,,,,main,k,k,1,0.6778023999995639,746.9545272000014,None,None,0,,,,,,,,,,,,,,202,28,Male,2022-04-26_16h14.46.985,Main,2022.1.1,60.030639638317595,
positive,blue,2,k,None,,,,,,,,,0,201,201,201,,,,,,,,,,,,,,,,,,,,,,,,,,,,,,,,,,,,,main,k,k,1,0.7247713999986445,748.6334248000003,None,None,0,,,,,,,,,,,,,,202,28,Male,2022-04-26_16h14.46.985,Main,2022.1.1,60.030639638317595,
negative,yellow,2,k,None,,,,,,,,,0,202,202,202,,,,,,,,,,,,,,,,,,,,,,,,,,,,,,,,,,,,,main,k,k,1,0.9520480999999563,750.359286500001,None,None,0,,,,,,,,,,,,,,202,28,Male,2022-04-26_16h14.46.985,Main,2022.1.1,60.030639638317595,
positive,red,1,None,None,,,,,,,,,0,203,203,203,,,,,,,,,,,,,,,,,,,,,,,,,,,,,,,,,,,,,main,None,None,1,1.5123084000006202,752.3130484000012,None,None,1,,,,,,,,,,,,,,202,28,Male,2022-04-26_16h14.46.985,Main,2022.1.1,60.030639638317595,
negative,blue,2,None,k,,,,,,,,,0,204,204,204,,,,,,,,,,,,,,,,,,,,,,,,,,,,,,,,,,,,,main,None,None,1,1.504661599999963,754.8265515000003,None,None,1,,,,,,,,,,,,,,202,28,Male,2022-04-26_16h14.46.985,Main,2022.1.1,60.030639638317595,
negative,red,1,None,None,,,,,,,,,0,205,205,205,,,,,,,,,,,,,,,,,,,,,,,,,,,,,,,,,,,,,main,None,None,1,1.5104420999996364,757.3352395000002,None,None,1,,,,,,,,,,,,,,202,28,Male,2022-04-26_16h14.46.985,Main,2022.1.1,60.030639638317595,
negative,blue,2,None,k,,,,,,,,,0,206,206,206,,,,,,,,,,,,,,,,,,,,,,,,,,,,,,,,,,,,,main,None,None,1,1.5008116999997583,759.8445348000005,None,None,1,,,,,,,,,,,,,,202,28,Male,2022-04-26_16h14.46.985,Main,2022.1.1,60.030639638317595,
negative,yellow,2,k,None,,,,,,,,,0,207,207,207,,,,,,,,,,,,,,,,,,,,,,,,,,,,,,,,,,,,,main,k,k,1,0.7260538000009547,762.3492830000014,None,None,0,,,,,,,,,,,,,,202,28,Male,2022-04-26_16h14.46.985,Main,2022.1.1,60.030639638317595,
positive,yellow,2,None,k,,,,,,,,,0,208,208,208,,,,,,,,,,,,,,,,,,,,,,,,,,,,,,,,,,,,,main,None,None,1,1.4993468999982724,764.0751869000014,None,None,1,,,,,,,,,,,,,,202,28,Male,2022-04-26_16h14.46.985,Main,2022.1.1,60.030639638317595,
negative,yellow,1,k,None,,,,,,,,,0,209,209,209,,,,,,,,,,,,,,,,,,,,,,,,,,,,,,,,,,,,,main,k,k,1,0.9504481999993004,766.5760713,None,None,0,,,,,,,,,,,,,,202,28,Male,2022-04-26_16h14.46.985,Main,2022.1.1,60.030639638317595,
negative,red,2,None,None,,,,,,,,,0,210,210,210,,,,,,,,,,,,,,,,,,,,,,,,,,,,,,,,,,,,,main,None,None,1,1.5009530000006635,768.5280065000006,None,None,1,,,,,,,,,,,,,,202,28,Male,2022-04-26_16h14.46.985,Main,2022.1.1,60.030639638317595,
negative,blue,1,None,k,,,,,,,,,0,211,211,211,,,,,,,,,,,,,,,,,,,,,,,,,,,,,,,,,,,,,main,None,None,1,1.4979305000015302,771.032718800001,None,None,1,,,,,,,,,,,,,,202,28,Male,2022-04-26_16h14.46.985,Main,2022.1.1,60.030639638317595,
negative,yellow,1,k,None,,,,,,,,,0,212,212,212,,,,,,,,,,,,,,,,,,,,,,,,,,,,,,,,,,,,,main,k,k,1,0.8292700000001787,773.5320831999998,None,None,0,,,,,,,,,,,,,,202,28,Male,2022-04-26_16h14.46.985,Main,2022.1.1,60.030639638317595,
positive,blue,1,k,None,,,,,,,,,0,213,213,213,,,,,,,,,,,,,,,,,,,,,,,,,,,,,,,,,,,,,main,k,k,1,0.7889876999997796,775.3627210000013,None,None,0,,,,,,,,,,,,,,202,28,Male,2022-04-26_16h14.46.985,Main,2022.1.1,60.030639638317595,
positive,blue,1,k,None,,,,,,,,,0,214,214,214,,,,,,,,,,,,,,,,,,,,,,,,,,,,,,,,,,,,,main,k,k,1,1.1253410999997868,777.1526247000002,None,None,0,,,,,,,,,,,,,,202,28,Male,2022-04-26_16h14.46.985,Main,2022.1.1,60.030639638317595,
positive,yellow,1,None,k,,,,,,,,,0,215,215,215,,,,,,,,,,,,,,,,,,,,,,,,,,,,,,,,,,,,,main,None,None,1,1.509959600000002,779.279708600001,None,None,1,,,,,,,,,,,,,,202,28,Male,2022-04-26_16h14.46.985,Main,2022.1.1,60.030639638317595,
positive,yellow,1,None,k,,,,,,,,,0,216,216,216,,,,,,,,,,,,,,,,,,,,,,,,,,,,,,,,,,,,,main,None,None,1,1.5075066999997944,781.7897393000003,None,None,1,,,,,,,,,,,,,,202,28,Male,2022-04-26_16h14.46.985,Main,2022.1.1,60.030639638317595,
positive,yellow,2,None,k,,,,,,,,,0,217,217,217,,,,,,,,,,,,,,,,,,,,,,,,,,,,,,,,,,,,,main,None,None,1,1.5010624999995343,784.3008055999999,None,None,1,,,,,,,,,,,,,,202,28,Male,2022-04-26_16h14.46.985,Main,2022.1.1,60.030639638317595,
negative,blue,1,None,k,,,,,,,,,0,218,218,218,,,,,,,,,,,,,,,,,,,,,,,,,,,,,,,,,,,,,main,None,None,1,1.4957551000006788,786.8026537000005,None,None,1,,,,,,,,,,,,,,202,28,Male,2022-04-26_16h14.46.985,Main,2022.1.1,60.030639638317595,
positive,red,2,None,None,,,,,,,,,0,219,219,219,,,,,,,,,,,,,,,,,,,,,,,,,,,,,,,,,,,,,main,None,None,1,1.4972670999995898,789.3000368000012,None,None,1,,,,,,,,,,,,,,202,28,Male,2022-04-26_16h14.46.985,Main,2022.1.1,60.030639638317595,
positive,yellow,1,None,k,,,,,,,,,0,220,220,220,,,,,,,,,,,,,,,,,,,,,,,,,,,,,,,,,,,,,main,None,None,1,1.4962104000005638,791.7992786000013,None,None,1,,,,,,,,,,,,,,202,28,Male,2022-04-26_16h14.46.985,Main,2022.1.1,60.030639638317595,
positive,blue,1,k,None,,,,,,,,,0,221,221,221,,,,,,,,,,,,,,,,,,,,,,,,,,,,,,,,,,,,,main,k,k,1,1.2781083000008948,794.2968900000014,None,None,0,,,,,,,,,,,,,,202,28,Male,2022-04-26_16h14.46.985,Main,2022.1.1,60.030639638317595,
positive,yellow,2,None,k,,,,,,,,,0,222,222,222,,,,,,,,,,,,,,,,,,,,,,,,,,,,,,,,,,,,,main,None,None,1,1.4962496000007377,796.5740624000009,None,None,1,,,,,,,,,,,,,,202,28,Male,2022-04-26_16h14.46.985,Main,2022.1.1,60.030639638317595,
negative,yellow,1,k,None,,,,,,,,,0,223,223,223,,,,,,,,,,,,,,,,,,,,,,,,,,,,,,,,,,,,,main,k,k,1,0.8432855999999447,799.0718023999998,None,None,0,,,,,,,,,,,,,,202,28,Male,2022-04-26_16h14.46.985,Main,2022.1.1,60.030639638317595,
positive,yellow,2,None,k,,,,,,,,,0,224,224,224,,,,,,,,,,,,,,,,,,,,,,,,,,,,,,,,,,,,,main,None,None,1,1.502779600001304,800.9193847000006,None,None,1,,,,,,,,,,,,,,202,28,Male,2022-04-26_16h14.46.985,Main,2022.1.1,60.030639638317595,
negative,yellow,2,k,None,,,,,,,,,0,225,225,225,,,,,,,,,,,,,,,,,,,,,,,,,,,,,,,,,,,,,main,k,k,1,0.7683383000003232,803.4212379,None,None,0,,,,,,,,,,,,,,202,28,Male,2022-04-26_16h14.46.985,Main,2022.1.1,60.030639638317595,
negative,blue,2,None,k,,,,,,,,,0,226,226,226,,,,,,,,,,,,,,,,,,,,,,,,,,,,,,,,,,,,,main,None,None,1,1.510896400001002,805.1930554999999,None,None,1,,,,,,,,,,,,,,202,28,Male,2022-04-26_16h14.46.985,Main,2022.1.1,60.030639638317595,
positive,red,2,None,None,,,,,,,,,0,227,227,227,,,,,,,,,,,,,,,,,,,,,,,,,,,,,,,,,,,,,main,None,None,1,1.4983054999993328,807.7032947000007,None,None,1,,,,,,,,,,,,,,202,28,Male,2022-04-26_16h14.46.985,Main,2022.1.1,60.030639638317595,
positive,blue,2,k,None,,,,,,,,,0,228,228,228,,,,,,,,,,,,,,,,,,,,,,,,,,,,,,,,,,,,,main,k,k,1,0.9174301999992167,810.2032346000015,None,None,0,,,,,,,,,,,,,,202,28,Male,2022-04-26_16h14.46.985,Main,2022.1.1,60.030639638317595,
negative,blue,1,None,k,,,,,,,,,0,229,229,229,,,,,,,,,,,,,,,,,,,,,,,,,,,,,,,,,,,,,main,None,None,1,1.5001952999991772,812.124769600001,None,None,1,,,,,,,,,,,,,,202,28,Male,2022-04-26_16h14.46.985,Main,2022.1.1,60.030639638317595,
positive,yellow,1,None,k,,,,,,,,,0,230,230,230,,,,,,,,,,,,,,,,,,,,,,,,,,,,,,,,,,,,,main,None,None,1,1.4986296000006405,814.6262707000005,None,None,1,,,,,,,,,,,,,,202,28,Male,2022-04-26_16h14.46.985,Main,2022.1.1,60.030639638317595,
negative,blue,2,None,k,,,,,,,,,0,231,231,231,,,,,,,,,,,,,,,,,,,,,,,,,,,,,,,,,,,,,main,None,None,1,1.496001499999693,817.125740200001,None,None,1,,,,,,,,,,,,,,202,28,Male,2022-04-26_16h14.46.985,Main,2022.1.1,60.030639638317595,
negative,red,1,None,None,,,,,,,,,0,232,232,232,,,,,,,,,,,,,,,,,,,,,,,,,,,,,,,,,,,,,main,None,None,1,1.49646759999996,819.6216471000007,None,None,1,,,,,,,,,,,,,,202,28,Male,2022-04-26_16h14.46.985,Main,2022.1.1,60.030639638317595,
positive,blue,2,k,None,,,,,,,,,0,233,233,233,,,,,,,,,,,,,,,,,,,,,,,,,,,,,,,,,,,,,main,k,k,1,0.616177300000345,822.1188844999997,None,None,0,,,,,,,,,,,,,,202,28,Male,2022-04-26_16h14.46.985,Main,2022.1.1,60.030639638317595,
negative,yellow,1,k,None,,,,,,,,,0,234,234,234,,,,,,,,,,,,,,,,,,,,,,,,,,,,,,,,,,,,,main,k,k,1,0.7349438000001101,823.7386745000003,None,None,0,,,,,,,,,,,,,,202,28,Male,2022-04-26_16h14.46.985,Main,2022.1.1,60.030639638317595,
negative,yellow,2,k,None,,,,,,,,,0,235,235,235,,,,,,,,,,,,,,,,,,,,,,,,,,,,,,,,,,,,,main,k,k,1,0.7614420000008977,825.4749580000007,None,None,0,,,,,,,,,,,,,,202,28,Male,2022-04-26_16h14.46.985,Main,2022.1.1,60.030639638317595,
positive,red,1,None,None,,,,,,,,,0,236,236,236,,,,,,,,,,,,,,,,,,,,,,,,,,,,,,,,,,,,,main,None,None,1,1.5019252999991295,827.2380522000003,None,None,1,,,,,,,,,,,,,,202,28,Male,2022-04-26_16h14.46.985,Main,2022.1.1,60.030639638317595,
negative,red,2,None,None,,,,,,,,,0,237,237,237,,,,,,,,,,,,,,,,,,,,,,,,,,,,,,,,,,,,,main,None,None,1,1.4992789999996603,829.7411896000012,None,None,1,,,,,,,,,,,,,,202,28,Male,2022-04-26_16h14.46.985,Main,2022.1.1,60.030639638317595,
negative,blue,1,None,k,,,,,,,,,0,238,238,238,,,,,,,,,,,,,,,,,,,,,,,,,,,,,,,,,,,,,main,None,None,1,1.5015743999992992,832.2419991000006,None,None,1,,,,,,,,,,,,,,202,28,Male,2022-04-26_16h14.46.985,Main,2022.1.1,60.030639638317595,
positive,blue,1,k,None,,,,,,,,,0,239,239,239,,,,,,,,,,,,,,,,,,,,,,,,,,,,,,,,,,,,,main,k,k,1,0.6896763999993709,834.7443667000007,None,None,0,,,,,,,,,,,,,,202,28,Male,2022-04-26_16h14.46.985,Main,2022.1.1,60.030639638317595,
,,,,,,,,,,,,,,,,,,,,,,,,,,,,,,,,,,,,,,,,,,,,,,,,,,,,,,,,,,,,,,,,,,,,,,,,,836.4231159999999,None,,,,,,,,
