distractor,target,set,ans1,ans2,rep_loop4.thisRepN,rep_loop4.thisTrialN,rep_loop4.thisN,rep_loop4.thisIndex,st2_prac_loop.thisRepN,st2_prac_loop.thisTrialN,st2_prac_loop.thisN,st2_prac_loop.thisIndex,st2_main_loop.thisRepN,st2_main_loop.thisTrialN,st2_main_loop.thisN,st2_main_loop.thisIndex,image_4.started,image_4.stopped,mouse_7.x,mouse_7.y,mouse_7.leftButton,mouse_7.midButton,mouse_7.rightButton,sound_2.started,sound_2.stopped,key_resp_3.keys,mouse_5.x,mouse_5.y,mouse_5.leftButton,mouse_5.midButton,mouse_5.rightButton,mouse_5.started,mouse_5.stopped,yes_text2.started,yes_text2.stopped,no_text2.started,no_text2.stopped,mouse_3.x,mouse_3.y,mouse_3.leftButton,mouse_3.midButton,mouse_3.rightButton,mouse_3.started,mouse_3.stopped,st_prac_back.started,st_prac_back.stopped,st_prac_text.started,st_prac_text.stopped,st_fix_back.started,st_fix_back.stopped,st_fix_2.started,st_fix_2.stopped,main_prac,st_ans,st_res,st_corr,st_rt,st_back.started,st_back.stopped,st2_resp.keys,st2_resp.corr,st_main_back.started,st_main_back.stopped,st_main_text.started,st_main_text.stopped,mouse_4.x,mouse_4.y,mouse_4.leftButton,mouse_4.midButton,mouse_4.rightButton,mouse_4.started,mouse_4.stopped,text_2.started,text_2.stopped,id*,age*,gender*,date,expName,psychopyVersion,frameRate,
,,,,,,,,,,,,,,,,,57.62198750000016,None,0.1675926,-0.21944444,0,0,0,,,,,,,,,,,,,,,,,,,,,,,,,,,,,,,,,,,,,,,,,,,,,,,,,,,,203,24,Male,2022-04-27_10h52.41.715,Main,2022.1.1,59.98458396183116,
negative,yellow,1,k,None,,,,,0,0,0,0,,,,,,,,,,,,63.18491807,None,None,0.57685184,-0.34166667,0,0,0,1.0077163399996607,None,120.86124719999998,None,120.86124719999998,None,-0.11203704,-0.106481485,0,0,0,0.012893869999516028,None,125.74903899999981,None,125.74903899999981,None,127.75937729999987,None,127.75937729999987,None,prac,None,None,1,1.4982794000002286,129.80534499999976,None,None,1,,,,,,,,,,,,,,203,24,Male,2022-04-27_10h52.41.715,Main,2022.1.1,59.98458396183116,
positive,red,2,None,None,,,,,0,1,1,1,,,,,,,,,,,,,,,,,,,,,,,,,,,,,,,,,,,,,,,,,prac,None,None,1,1.4987304000001131,132.2942938000001,None,None,1,,,,,,,,,,,,,,203,24,Male,2022-04-27_10h52.41.715,Main,2022.1.1,59.98458396183116,
negative,blue,2,None,k,,,,,0,2,2,2,,,,,,,,,,,,,,,,,,,,,,,,,,,,,,,,,,,,,,,,,prac,k,k,1,2.9162060999997266,134.79335790000005,None,None,0,,,,,,,,,,,,,,203,24,Male,2022-04-27_10h52.41.715,Main,2022.1.1,59.98458396183116,
positive,yellow,1,None,k,,,,,0,3,3,3,,,,,,,,,,,,,,,,,,,,,,,,,,,,,,,,,,,,,,,,,prac,k,k,1,1.6353125999999065,139.7375232999998,None,None,0,,,,,,,,,,,,,,203,24,Male,2022-04-27_10h52.41.715,Main,2022.1.1,59.98458396183116,
negative,blue,2,None,k,,,,,0,4,4,4,,,,,,,,,,,,,,,,,,,,,,,,,,,,,,,,,,,,,,,,,prac,k,k,1,3.2949867000002087,143.37736749999976,None,None,0,,,,,,,,,,,,,,203,24,Male,2022-04-27_10h52.41.715,Main,2022.1.1,59.98458396183116,
negative,blue,1,None,k,,,,,0,5,5,5,,,,,,,,,,,,,,,,,,,,,,,,,,,,,,,,,,,,,,,,,prac,k,k,1,8.999478300000192,148.6757047000001,None,None,0,,,,,,,,,,,,,,203,24,Male,2022-04-27_10h52.41.715,Main,2022.1.1,59.98458396183116,
negative,yellow,2,k,None,,,,,0,6,6,6,,,,,,,,,,,,,,,,,,,,,,,,,,,,,,,,,,,,,,,,,prac,None,None,1,1.4983836000001247,159.67433859999983,None,None,1,,,,,,,,,,,,,,203,24,Male,2022-04-27_10h52.41.715,Main,2022.1.1,59.98458396183116,
negative,red,1,None,None,,,,,0,7,7,7,,,,,,,,,,,,,,,,,,,,,,,,,,,,,,,,,,,,,,,,,prac,None,None,1,1.4990238000000318,162.18399360000012,None,None,1,,,,,,,,,,,,,,203,24,Male,2022-04-27_10h52.41.715,Main,2022.1.1,59.98458396183116,
positive,yellow,2,None,k,,,,,0,8,8,8,,,,,,,,,,,,,,,,,,,,,,,,,,,,,,,,,,,,,,,,,prac,k,k,1,1.4101605999999265,164.6731122000001,None,None,0,,,,,,,,,,,,,,203,24,Male,2022-04-27_10h52.41.715,Main,2022.1.1,59.98458396183116,
negative,yellow,1,k,None,,,,,0,9,9,9,,,,,,,,,,,,,,,,,,,,,,,,,,,,,,,,,,,,,,,,,prac,None,None,1,1.4994188000000577,167.08647800000017,None,None,1,,,,,,,,,,,,,,203,24,Male,2022-04-27_10h52.41.715,Main,2022.1.1,59.98458396183116,
positive,yellow,2,None,k,,,,,0,10,10,10,,,,,,,,,,,,,,,,,,,,,,,,,,,,,,,,,,,,,,,,,prac,k,k,1,1.952163599999949,169.58758390000003,None,None,0,,,,,,,,,,,,,,203,24,Male,2022-04-27_10h52.41.715,Main,2022.1.1,59.98458396183116,
negative,yellow,2,k,None,,,,,0,11,11,11,,,,,,,,,,,,,,,,,,,,,,,,,,,,,,,,,,,,,,,,,prac,None,None,1,1.491595899999993,173.5560486999998,None,None,1,,,,,,,,,,,,,,203,24,Male,2022-04-27_10h52.41.715,Main,2022.1.1,59.98458396183116,
negative,red,2,None,None,,,,,0,12,12,12,,,,,,,,,,,,,,,,,,,,,,,,,,,,,,,,,,,,,,,,,prac,None,None,1,1.5052261999999246,176.05817500000012,None,None,1,,,,,,,,,,,,,,203,24,Male,2022-04-27_10h52.41.715,Main,2022.1.1,59.98458396183116,
positive,red,1,None,None,,,,,0,13,13,13,,,,,,,,,,,,,,,,,,,,,,,,,,,,,,,,,,,,,,,,,prac,None,None,1,1.4975278000001708,178.5544232000002,None,None,1,,,,,,,,,,,,,,203,24,Male,2022-04-27_10h52.41.715,Main,2022.1.1,59.98458396183116,
positive,blue,2,k,None,,,,,0,14,14,14,,,,,,,,,,,,,,,,,,,,,,,,,,,,,,,,,,,,,,,,,prac,None,None,1,1.5073563000000831,181.05349320000005,None,None,1,,,,,,,,,,,,,,203,24,Male,2022-04-27_10h52.41.715,Main,2022.1.1,59.98458396183116,
positive,blue,1,k,None,,,,,0,15,15,15,,,,,,,,,,,,,,,,,,,,,,,,,,,,,,,,,,,,,,,,,prac,None,None,1,1.5058445999998185,183.57310879999977,None,None,1,,,,,,,,,,,,,,203,24,Male,2022-04-27_10h52.41.715,Main,2022.1.1,59.98458396183116,
negative,blue,1,None,k,,,,,0,16,16,16,,,,,,,,,,,,,,,,,,,,,,,,,,,,,,,,,,,,,,,,,prac,k,k,1,2.0854880000001685,186.07165440000017,None,None,0,,,,,,,,,,,,,,203,24,Male,2022-04-27_10h52.41.715,Main,2022.1.1,59.98458396183116,
positive,blue,2,k,None,,,,,0,17,17,17,,,,,,,,,,,,,,,,,,,,,,,,,,,,,,,,,,,,,,,,,prac,None,None,1,1.4980812999997397,190.1710748999999,None,None,1,,,,,,,,,,,,,,203,24,Male,2022-04-27_10h52.41.715,Main,2022.1.1,59.98458396183116,
positive,blue,1,k,None,,,,,0,18,18,18,,,,,,,,,,,,,,,,,,,,,,,,,,,,,,,,,,,,,,,,,prac,None,None,1,1.504722700000002,192.6694152,None,None,1,,,,,,,,,,,,,,203,24,Male,2022-04-27_10h52.41.715,Main,2022.1.1,59.98458396183116,
positive,yellow,1,None,k,,,,,0,19,19,19,,,,,,,,,,,,,,,,,,,,,,,,,,,,,,,,,,,,,,,,,prac,k,k,1,1.5916760000000068,195.17716440000004,None,None,0,,,,,,,,,,,,,,203,24,Male,2022-04-27_10h52.41.715,Main,2022.1.1,59.98458396183116,
negative,yellow,1,k,None,,,,,1,0,20,0,,,,,,,,,,,,,,,,,,,,,,,,,,,,,,,,,,,,,,,,,prac,None,None,1,1.49066509999966,198.76915550000012,None,None,1,,,,,,,,,,,,,,203,24,Male,2022-04-27_10h52.41.715,Main,2022.1.1,59.98458396183116,
positive,red,2,None,None,,,,,1,1,21,1,,,,,,,,,,,,,,,,,,,,,,,,,,,,,,,,,,,,,,,,,prac,None,None,1,1.5107560999999805,201.26233850000017,None,None,1,,,,,,,,,,,,,,203,24,Male,2022-04-27_10h52.41.715,Main,2022.1.1,59.98458396183116,
negative,blue,2,None,k,,,,,1,2,22,2,,,,,,,,,,,,,,,,,,,,,,,,,,,,,,,,,,,,,,,,,prac,k,k,1,1.3596616999998332,203.77563759999975,None,None,0,,,,,,,,,,,,,,203,24,Male,2022-04-27_10h52.41.715,Main,2022.1.1,59.98458396183116,
positive,yellow,1,None,k,,,,,1,3,23,3,,,,,,,,,,,,,,,,,,,,,,,,,,,,,,,,,,,,,,,,,prac,k,k,1,2.2679798000003757,206.13692809999975,None,None,0,,,,,,,,,,,,,,203,24,Male,2022-04-27_10h52.41.715,Main,2022.1.1,59.98458396183116,
negative,blue,2,None,k,,,,,1,4,24,4,,,,,,,,,,,,,,,,,,,,,,,,,,,,,,,,,,,,,,,,,prac,k,k,1,1.7148833000001105,210.41811989999997,None,None,0,,,,,,,,,,,,,,203,24,Male,2022-04-27_10h52.41.715,Main,2022.1.1,59.98458396183116,
negative,blue,1,None,k,,,,,1,5,25,5,,,,,,,,,,,,,,,,,,,,,,,,,,,,,,,,,,,,,,,,,prac,k,k,1,4.507504099999551,214.13381679999975,None,None,0,,,,,,,,,,,,,,203,24,Male,2022-04-27_10h52.41.715,Main,2022.1.1,59.98458396183116,
negative,yellow,2,k,None,,,,,1,6,26,6,,,,,,,,,,,,,,,,,,,,,,,,,,,,,,,,,,,,,,,,,prac,None,None,1,1.4973015999999006,220.6504943,None,None,1,,,,,,,,,,,,,,203,24,Male,2022-04-27_10h52.41.715,Main,2022.1.1,59.98458396183116,
negative,red,1,None,None,,,,,1,7,27,7,,,,,,,,,,,,,,,,,,,,,,,,,,,,,,,,,,,,,,,,,prac,None,None,1,1.4985034999999698,223.1477101999999,None,None,1,,,,,,,,,,,,,,203,24,Male,2022-04-27_10h52.41.715,Main,2022.1.1,59.98458396183116,
positive,yellow,2,None,k,,,,,1,8,28,8,,,,,,,,,,,,,,,,,,,,,,,,,,,,,,,,,,,,,,,,,prac,k,k,1,1.0094144999998207,225.6473633999999,None,None,0,,,,,,,,,,,,,,203,24,Male,2022-04-27_10h52.41.715,Main,2022.1.1,59.98458396183116,
negative,yellow,1,k,None,,,,,1,9,29,9,,,,,,,,,,,,,,,,,,,,,,,,,,,,,,,,,,,,,,,,,prac,None,None,1,1.4978227000001425,227.66012629999977,None,None,1,,,,,,,,,,,,,,203,24,Male,2022-04-27_10h52.41.715,Main,2022.1.1,59.98458396183116,
positive,yellow,2,None,k,,,,,1,10,30,10,,,,,,,,,,,,,,,,,,,,,,,,,,,,,,,,,,,,,,,,,prac,k,k,1,1.2154015000000982,230.16922569999997,None,None,0,,,,,,,,,,,,,,203,24,Male,2022-04-27_10h52.41.715,Main,2022.1.1,59.98458396183116,
negative,yellow,2,k,None,,,,,1,11,31,11,,,,,,,,,,,,,,,,,,,,,,,,,,,,,,,,,,,,,,,,,prac,None,None,1,1.4936668000000282,232.37581790000013,None,None,1,,,,,,,,,,,,,,203,24,Male,2022-04-27_10h52.41.715,Main,2022.1.1,59.98458396183116,
negative,red,2,None,None,,,,,1,12,32,12,,,,,,,,,,,,,,,,,,,,,,,,,,,,,,,,,,,,,,,,,prac,None,None,1,1.5038652999996884,234.87295640000002,None,None,1,,,,,,,,,,,,,,203,24,Male,2022-04-27_10h52.41.715,Main,2022.1.1,59.98458396183116,
positive,red,1,None,None,,,,,1,13,33,13,,,,,,,,,,,,,,,,,,,,,,,,,,,,,,,,,,,,,,,,,prac,None,None,1,1.4988850999998249,237.37753350000003,None,None,1,,,,,,,,,,,,,,203,24,Male,2022-04-27_10h52.41.715,Main,2022.1.1,59.98458396183116,
positive,blue,2,k,None,,,,,1,14,34,14,,,,,,,,,,,,,,,,,,,,,,,,,,,,,,,,,,,,,,,,,prac,None,None,1,1.4995977999997194,239.87872100000004,None,None,1,,,,,,,,,,,,,,203,24,Male,2022-04-27_10h52.41.715,Main,2022.1.1,59.98458396183116,
positive,blue,1,k,None,,,,,1,15,35,15,,,,,,,,,,,,,,,,,,,,,,,,,,,,,,,,,,,,,,,,,prac,None,None,1,1.4975493000001734,242.3799829999998,None,None,1,,,,,,,,,,,,,,203,24,Male,2022-04-27_10h52.41.715,Main,2022.1.1,59.98458396183116,
negative,blue,1,None,k,,,,,1,16,36,16,,,,,,,,,,,,,,,,,,,,,,,,,,,,,,,,,,,,,,,,,prac,k,k,1,1.20011280000017,244.87899900000002,None,None,0,,,,,,,,,,,,,,203,24,Male,2022-04-27_10h52.41.715,Main,2022.1.1,59.98458396183116,
positive,blue,2,k,None,,,,,1,17,37,17,,,,,,,,,,,,,,,,,,,,,,,,,,,,,,,,,,,,,,,,,prac,None,None,1,1.5068362000001798,247.08298639999975,None,None,1,,,,,,,,,,,,,,203,24,Male,2022-04-27_10h52.41.715,Main,2022.1.1,59.98458396183116,
positive,blue,1,k,None,,,,,1,18,38,18,,,,,,,,,,,,,,,,,,,,,,,,,,,,,,,,,,,,,,,,,prac,None,None,1,1.50500269999975,249.58996930000012,None,None,1,,,,,,,,,,,,,,203,24,Male,2022-04-27_10h52.41.715,Main,2022.1.1,59.98458396183116,
positive,yellow,1,None,k,,,,,1,19,39,19,,,,,,,,,,,,,,,,,,,,,,,,,,,,,,,,,,,,,,,,,prac,k,k,1,0.9985091000003194,252.09590560000015,None,None,0,,,,,,,,,,,,,,203,24,Male,2022-04-27_10h52.41.715,Main,2022.1.1,59.98458396183116,
,,,,,,,,,,,,,,,,,,,,,,,,,,,,,,,,,,,,,,,,,,,,,,,,,,,,,,,,,,,,,,254.1086808,None,254.1086808,None,0.26296297,0.03888889,0,0,0,0.00986527000031856,None,,,203,24,Male,2022-04-27_10h52.41.715,Main,2022.1.1,59.98458396183116,
negative,yellow,2,k,None,,,,,,,,,0,0,0,0,,,,,,,,,,,,,,,,,,,,,,,,,,,,,,,,,257.62972690000015,None,257.62972690000015,None,main,None,None,1,1.5090783999999076,259.6981615999998,None,None,1,,,,,,,,,,,,,,203,24,Male,2022-04-27_10h52.41.715,Main,2022.1.1,59.98458396183116,
positive,red,1,None,None,,,,,,,,,0,1,1,1,,,,,,,,,,,,,,,,,,,,,,,,,,,,,,,,,,,,,main,None,None,1,1.4983932000000095,262.2095639999998,None,None,1,,,,,,,,,,,,,,203,24,Male,2022-04-27_10h52.41.715,Main,2022.1.1,59.98458396183116,
positive,blue,2,k,None,,,,,,,,,0,2,2,2,,,,,,,,,,,,,,,,,,,,,,,,,,,,,,,,,,,,,main,None,None,1,1.5055789000002733,264.7093715000001,None,None,1,,,,,,,,,,,,,,203,24,Male,2022-04-27_10h52.41.715,Main,2022.1.1,59.98458396183116,
positive,blue,1,k,None,,,,,,,,,0,3,3,3,,,,,,,,,,,,,,,,,,,,,,,,,,,,,,,,,,,,,main,None,None,1,1.504285500000151,267.2188663000002,None,None,1,,,,,,,,,,,,,,203,24,Male,2022-04-27_10h52.41.715,Main,2022.1.1,59.98458396183116,
negative,yellow,2,k,None,,,,,,,,,0,4,4,4,,,,,,,,,,,,,,,,,,,,,,,,,,,,,,,,,,,,,main,None,None,1,1.4991604000001644,269.7237841000001,None,None,1,,,,,,,,,,,,,,203,24,Male,2022-04-27_10h52.41.715,Main,2022.1.1,59.98458396183116,
positive,yellow,2,None,k,,,,,,,,,0,5,5,5,,,,,,,,,,,,,,,,,,,,,,,,,,,,,,,,,,,,,main,k,k,1,0.9361565000003793,272.2244532999998,None,None,0,,,,,,,,,,,,,,203,24,Male,2022-04-27_10h52.41.715,Main,2022.1.1,59.98458396183116,
negative,blue,2,None,k,,,,,,,,,0,6,6,6,,,,,,,,,,,,,,,,,,,,,,,,,,,,,,,,,,,,,main,k,k,1,1.0321475999999166,274.1637446,None,None,0,,,,,,,,,,,,,,203,24,Male,2022-04-27_10h52.41.715,Main,2022.1.1,59.98458396183116,
positive,red,2,None,None,,,,,,,,,0,7,7,7,,,,,,,,,,,,,,,,,,,,,,,,,,,,,,,,,,,,,main,None,None,1,1.5066897000001518,276.1977585999998,None,None,1,,,,,,,,,,,,,,203,24,Male,2022-04-27_10h52.41.715,Main,2022.1.1,59.98458396183116,
positive,yellow,1,None,k,,,,,,,,,0,8,8,8,,,,,,,,,,,,,,,,,,,,,,,,,,,,,,,,,,,,,main,k,k,1,1.1769059000002926,278.70546650000006,None,None,0,,,,,,,,,,,,,,203,24,Male,2022-04-27_10h52.41.715,Main,2022.1.1,59.98458396183116,
negative,red,1,None,None,,,,,,,,,0,9,9,9,,,,,,,,,,,,,,,,,,,,,,,,,,,,,,,,,,,,,main,None,None,1,1.5021366000000853,280.88540220000004,None,None,1,,,,,,,,,,,,,,203,24,Male,2022-04-27_10h52.41.715,Main,2022.1.1,59.98458396183116,
positive,yellow,1,None,k,,,,,,,,,0,10,10,10,,,,,,,,,,,,,,,,,,,,,,,,,,,,,,,,,,,,,main,k,k,1,1.2502395999999862,283.3888019000001,None,None,0,,,,,,,,,,,,,,203,24,Male,2022-04-27_10h52.41.715,Main,2022.1.1,59.98458396183116,
negative,yellow,1,k,None,,,,,,,,,0,11,11,11,,,,,,,,,,,,,,,,,,,,,,,,,,,,,,,,,,,,,main,None,None,1,1.5024444000000585,285.6432842999998,None,None,1,,,,,,,,,,,,,,203,24,Male,2022-04-27_10h52.41.715,Main,2022.1.1,59.98458396183116,
negative,yellow,1,k,None,,,,,,,,,0,12,12,12,,,,,,,,,,,,,,,,,,,,,,,,,,,,,,,,,,,,,main,None,None,1,1.5016673000000083,288.1460972,None,None,1,,,,,,,,,,,,,,203,24,Male,2022-04-27_10h52.41.715,Main,2022.1.1,59.98458396183116,
negative,red,2,None,None,,,,,,,,,0,13,13,13,,,,,,,,,,,,,,,,,,,,,,,,,,,,,,,,,,,,,main,None,None,1,1.4968051000000742,290.64878640000006,None,None,1,,,,,,,,,,,,,,203,24,Male,2022-04-27_10h52.41.715,Main,2022.1.1,59.98458396183116,
positive,yellow,2,None,k,,,,,,,,,0,14,14,14,,,,,,,,,,,,,,,,,,,,,,,,,,,,,,,,,,,,,main,k,k,1,1.2763563999997132,293.1480283000001,None,None,0,,,,,,,,,,,,,,203,24,Male,2022-04-27_10h52.41.715,Main,2022.1.1,59.98458396183116,
positive,blue,1,k,None,,,,,,,,,0,15,15,15,,,,,,,,,,,,,,,,,,,,,,,,,,,,,,,,,,,,,main,None,None,1,1.5126310000000558,295.4256353999999,None,None,1,,,,,,,,,,,,,,203,24,Male,2022-04-27_10h52.41.715,Main,2022.1.1,59.98458396183116,
negative,blue,1,None,k,,,,,,,,,0,16,16,16,,,,,,,,,,,,,,,,,,,,,,,,,,,,,,,,,,,,,main,k,k,1,1.4598304000001008,297.9399214,None,None,0,,,,,,,,,,,,,,203,24,Male,2022-04-27_10h52.41.715,Main,2022.1.1,59.98458396183116,
positive,blue,2,k,None,,,,,,,,,0,17,17,17,,,,,,,,,,,,,,,,,,,,,,,,,,,,,,,,,,,,,main,None,None,1,1.5005261999999675,300.4031452999998,None,None,1,,,,,,,,,,,,,,203,24,Male,2022-04-27_10h52.41.715,Main,2022.1.1,59.98458396183116,
negative,blue,2,None,k,,,,,,,,,0,18,18,18,,,,,,,,,,,,,,,,,,,,,,,,,,,,,,,,,,,,,main,k,k,1,1.7011302999999316,302.9053124000002,None,None,0,,,,,,,,,,,,,,203,24,Male,2022-04-27_10h52.41.715,Main,2022.1.1,59.98458396183116,
negative,blue,1,None,k,,,,,,,,,0,19,19,19,,,,,,,,,,,,,,,,,,,,,,,,,,,,,,,,,,,,,main,k,k,1,1.4347082999997838,306.6224916000001,None,None,0,,,,,,,,,,,,,,203,24,Male,2022-04-27_10h52.41.715,Main,2022.1.1,59.98458396183116,
negative,blue,1,None,k,,,,,,,,,0,20,20,20,,,,,,,,,,,,,,,,,,,,,,,,,,,,,,,,,,,,,main,k,k,1,1.024000999999771,309.0598879999998,None,None,0,,,,,,,,,,,,,,203,24,Male,2022-04-27_10h52.41.715,Main,2022.1.1,59.98458396183116,
negative,blue,2,None,k,,,,,,,,,0,21,21,21,,,,,,,,,,,,,,,,,,,,,,,,,,,,,,,,,,,,,main,k,k,1,0.978695499999958,311.0841111,None,None,0,,,,,,,,,,,,,,203,24,Male,2022-04-27_10h52.41.715,Main,2022.1.1,59.98458396183116,
negative,red,1,None,None,,,,,,,,,0,22,22,22,,,,,,,,,,,,,,,,,,,,,,,,,,,,,,,,,,,,,main,None,None,1,1.510113199999978,313.0666554999998,None,None,1,,,,,,,,,,,,,,203,24,Male,2022-04-27_10h52.41.715,Main,2022.1.1,59.98458396183116,
positive,red,2,None,None,,,,,,,,,0,23,23,23,,,,,,,,,,,,,,,,,,,,,,,,,,,,,,,,,,,,,main,None,None,1,1.5114143000000695,315.57943479999994,None,None,1,,,,,,,,,,,,,,203,24,Male,2022-04-27_10h52.41.715,Main,2022.1.1,59.98458396183116,
negative,red,2,None,None,,,,,,,,,0,24,24,24,,,,,,,,,,,,,,,,,,,,,,,,,,,,,,,,,,,,,main,None,None,1,1.5116595999998026,318.09107670000003,None,None,1,,,,,,,,,,,,,,203,24,Male,2022-04-27_10h52.41.715,Main,2022.1.1,59.98458396183116,
positive,blue,2,k,None,,,,,,,,,0,25,25,25,,,,,,,,,,,,,,,,,,,,,,,,,,,,,,,,,,,,,main,None,None,1,1.507299299999886,320.6028464000001,None,None,1,,,,,,,,,,,,,,203,24,Male,2022-04-27_10h52.41.715,Main,2022.1.1,59.98458396183116,
negative,yellow,1,k,None,,,,,,,,,0,26,26,26,,,,,,,,,,,,,,,,,,,,,,,,,,,,,,,,,,,,,main,None,None,1,1.5068647999996756,323.1125685000002,None,None,1,,,,,,,,,,,,,,203,24,Male,2022-04-27_10h52.41.715,Main,2022.1.1,59.98458396183116,
positive,blue,2,k,None,,,,,,,,,0,27,27,27,,,,,,,,,,,,,,,,,,,,,,,,,,,,,,,,,,,,,main,None,None,1,1.5135537999999542,325.6211091,None,None,1,,,,,,,,,,,,,,203,24,Male,2022-04-27_10h52.41.715,Main,2022.1.1,59.98458396183116,
negative,blue,2,None,k,,,,,,,,,0,28,28,28,,,,,,,,,,,,,,,,,,,,,,,,,,,,,,,,,,,,,main,k,k,1,0.9078986999998051,328.13543819999995,None,None,0,,,,,,,,,,,,,,203,24,Male,2022-04-27_10h52.41.715,Main,2022.1.1,59.98458396183116,
positive,red,1,None,None,,,,,,,,,0,29,29,29,,,,,,,,,,,,,,,,,,,,,,,,,,,,,,,,,,,,,main,None,None,1,1.4986103000001094,330.0464247,None,None,1,,,,,,,,,,,,,,203,24,Male,2022-04-27_10h52.41.715,Main,2022.1.1,59.98458396183116,
positive,blue,1,k,None,,,,,,,,,0,30,30,30,,,,,,,,,,,,,,,,,,,,,,,,,,,,,,,,,,,,,main,None,None,1,1.5088900999999169,332.5459933000002,None,None,1,,,,,,,,,,,,,,203,24,Male,2022-04-27_10h52.41.715,Main,2022.1.1,59.98458396183116,
positive,yellow,1,None,k,,,,,,,,,0,31,31,31,,,,,,,,,,,,,,,,,,,,,,,,,,,,,,,,,,,,,main,k,k,1,1.4987077000000681,335.0573018,None,None,0,,,,,,,,,,,,,,203,24,Male,2022-04-27_10h52.41.715,Main,2022.1.1,59.98458396183116,
negative,yellow,2,k,None,,,,,,,,,0,32,32,32,,,,,,,,,,,,,,,,,,,,,,,,,,,,,,,,,,,,,main,None,None,1,1.4971295999998802,337.55800640000007,None,None,1,,,,,,,,,,,,,,203,24,Male,2022-04-27_10h52.41.715,Main,2022.1.1,59.98458396183116,
negative,blue,1,None,k,,,,,,,,,0,33,33,33,,,,,,,,,,,,,,,,,,,,,,,,,,,,,,,,,,,,,main,k,k,1,1.6011731000003238,340.05697210000017,None,None,0,,,,,,,,,,,,,,203,24,Male,2022-04-27_10h52.41.715,Main,2022.1.1,59.98458396183116,
positive,blue,1,k,None,,,,,,,,,0,34,34,34,,,,,,,,,,,,,,,,,,,,,,,,,,,,,,,,,,,,,main,None,None,1,1.5037039999997432,343.6674131,None,None,1,,,,,,,,,,,,,,203,24,Male,2022-04-27_10h52.41.715,Main,2022.1.1,59.98458396183116,
negative,yellow,1,k,None,,,,,,,,,0,35,35,35,,,,,,,,,,,,,,,,,,,,,,,,,,,,,,,,,,,,,main,None,None,1,1.5037523000000874,346.1733370000002,None,None,1,,,,,,,,,,,,,,203,24,Male,2022-04-27_10h52.41.715,Main,2022.1.1,59.98458396183116,
positive,yellow,2,None,k,,,,,,,,,0,36,36,36,,,,,,,,,,,,,,,,,,,,,,,,,,,,,,,,,,,,,main,k,k,1,1.2815817000000607,348.6778730000001,None,None,0,,,,,,,,,,,,,,203,24,Male,2022-04-27_10h52.41.715,Main,2022.1.1,59.98458396183116,
positive,yellow,2,None,k,,,,,,,,,0,37,37,37,,,,,,,,,,,,,,,,,,,,,,,,,,,,,,,,,,,,,main,k,k,1,1.1028354999998555,350.96111930000006,None,None,0,,,,,,,,,,,,,,203,24,Male,2022-04-27_10h52.41.715,Main,2022.1.1,59.98458396183116,
negative,yellow,2,k,None,,,,,,,,,0,38,38,38,,,,,,,,,,,,,,,,,,,,,,,,,,,,,,,,,,,,,main,None,None,1,1.4997434000001704,353.06423159999986,None,None,1,,,,,,,,,,,,,,203,24,Male,2022-04-27_10h52.41.715,Main,2022.1.1,59.98458396183116,
positive,yellow,1,None,k,,,,,,,,,0,39,39,39,,,,,,,,,,,,,,,,,,,,,,,,,,,,,,,,,,,,,main,k,k,1,1.5232363999998597,355.5654383000001,None,None,0,,,,,,,,,,,,,,203,24,Male,2022-04-27_10h52.41.715,Main,2022.1.1,59.98458396183116,
negative,yellow,2,k,None,,,,,,,,,0,40,40,40,,,,,,,,,,,,,,,,,,,,,,,,,,,,,,,,,,,,,main,None,None,1,1.4938063999998121,359.098888,None,None,1,,,,,,,,,,,,,,203,24,Male,2022-04-27_10h52.41.715,Main,2022.1.1,59.98458396183116,
positive,blue,2,k,None,,,,,,,,,0,41,41,41,,,,,,,,,,,,,,,,,,,,,,,,,,,,,,,,,,,,,main,None,None,1,1.5085597999996025,361.5943425999999,None,None,1,,,,,,,,,,,,,,203,24,Male,2022-04-27_10h52.41.715,Main,2022.1.1,59.98458396183116,
positive,blue,2,k,None,,,,,,,,,0,42,42,42,,,,,,,,,,,,,,,,,,,,,,,,,,,,,,,,,,,,,main,None,None,1,1.5056737999998404,364.1063924,None,None,1,,,,,,,,,,,,,,203,24,Male,2022-04-27_10h52.41.715,Main,2022.1.1,59.98458396183116,
negative,blue,2,None,k,,,,,,,,,0,43,43,43,,,,,,,,,,,,,,,,,,,,,,,,,,,,,,,,,,,,,main,k,k,1,4.066160500000024,366.6136157000001,None,None,0,,,,,,,,,,,,,,203,24,Male,2022-04-27_10h52.41.715,Main,2022.1.1,59.98458396183116,
negative,red,1,None,None,,,,,,,,,0,44,44,44,,,,,,,,,,,,,,,,,,,,,,,,,,,,,,,,,,,,,main,None,None,1,1.4908880999996654,372.69787210000004,None,None,1,,,,,,,,,,,,,,203,24,Male,2022-04-27_10h52.41.715,Main,2022.1.1,59.98458396183116,
negative,yellow,1,k,None,,,,,,,,,0,45,45,45,,,,,,,,,,,,,,,,,,,,,,,,,,,,,,,,,,,,,main,None,None,1,1.5095989000001282,375.1896442000002,None,None,1,,,,,,,,,,,,,,203,24,Male,2022-04-27_10h52.41.715,Main,2022.1.1,59.98458396183116,
negative,yellow,1,k,None,,,,,,,,,0,46,46,46,,,,,,,,,,,,,,,,,,,,,,,,,,,,,,,,,,,,,main,None,None,1,1.5084664000000885,377.7019805,None,None,1,,,,,,,,,,,,,,203,24,Male,2022-04-27_10h52.41.715,Main,2022.1.1,59.98458396183116,
positive,red,1,None,None,,,,,,,,,0,47,47,47,,,,,,,,,,,,,,,,,,,,,,,,,,,,,,,,,,,,,main,None,None,1,1.5031321000001299,380.20961309999984,None,None,1,,,,,,,,,,,,,,203,24,Male,2022-04-27_10h52.41.715,Main,2022.1.1,59.98458396183116,
positive,yellow,1,None,k,,,,,,,,,0,48,48,48,,,,,,,,,,,,,,,,,,,,,,,,,,,,,,,,,,,,,main,k,k,1,1.079587800000354,382.7179563999998,None,None,0,,,,,,,,,,,,,,203,24,Male,2022-04-27_10h52.41.715,Main,2022.1.1,59.98458396183116,
negative,blue,1,None,k,,,,,,,,,0,49,49,49,,,,,,,,,,,,,,,,,,,,,,,,,,,,,,,,,,,,,main,k,k,1,3.2868391000001793,384.79505979999976,None,None,0,,,,,,,,,,,,,,203,24,Male,2022-04-27_10h52.41.715,Main,2022.1.1,59.98458396183116,
positive,yellow,2,None,k,,,,,,,,,0,50,50,50,,,,,,,,,,,,,,,,,,,,,,,,,,,,,,,,,,,,,main,k,k,1,0.8773155999997471,390.09469709999985,None,None,0,,,,,,,,,,,,,,203,24,Male,2022-04-27_10h52.41.715,Main,2022.1.1,59.98458396183116,
negative,blue,1,None,k,,,,,,,,,0,51,51,51,,,,,,,,,,,,,,,,,,,,,,,,,,,,,,,,,,,,,main,k,k,1,1.3767415999996047,391.97788230000015,None,None,0,,,,,,,,,,,,,,203,24,Male,2022-04-27_10h52.41.715,Main,2022.1.1,59.98458396183116,
positive,red,2,None,None,,,,,,,,,0,52,52,52,,,,,,,,,,,,,,,,,,,,,,,,,,,,,,,,,,,,,main,None,None,1,1.493679599999723,394.35474269999986,None,None,1,,,,,,,,,,,,,,203,24,Male,2022-04-27_10h52.41.715,Main,2022.1.1,59.98458396183116,
positive,yellow,2,None,k,,,,,,,,,0,53,53,53,,,,,,,,,,,,,,,,,,,,,,,,,,,,,,,,,,,,,main,k,k,1,0.8274330999997801,396.85100299999976,None,None,0,,,,,,,,,,,,,,203,24,Male,2022-04-27_10h52.41.715,Main,2022.1.1,59.98458396183116,
negative,red,2,None,None,,,,,,,,,0,54,54,54,,,,,,,,,,,,,,,,,,,,,,,,,,,,,,,,,,,,,main,None,None,1,1.5092561999999816,398.6806968000001,None,None,1,,,,,,,,,,,,,,203,24,Male,2022-04-27_10h52.41.715,Main,2022.1.1,59.98458396183116,
positive,yellow,1,None,k,,,,,,,,,0,55,55,55,,,,,,,,,,,,,,,,,,,,,,,,,,,,,,,,,,,,,main,k,k,1,0.8925035000002026,401.18928019999976,None,None,0,,,,,,,,,,,,,,203,24,Male,2022-04-27_10h52.41.715,Main,2022.1.1,59.98458396183116,
negative,blue,2,None,k,,,,,,,,,0,56,56,56,,,,,,,,,,,,,,,,,,,,,,,,,,,,,,,,,,,,,main,k,k,1,1.1936209000000417,403.0850885,None,None,0,,,,,,,,,,,,,,203,24,Male,2022-04-27_10h52.41.715,Main,2022.1.1,59.98458396183116,
positive,blue,1,k,None,,,,,,,,,0,57,57,57,,,,,,,,,,,,,,,,,,,,,,,,,,,,,,,,,,,,,main,None,None,1,1.5001756999999998,405.2807883999999,None,None,1,,,,,,,,,,,,,,203,24,Male,2022-04-27_10h52.41.715,Main,2022.1.1,59.98458396183116,
positive,blue,1,k,None,,,,,,,,,0,58,58,58,,,,,,,,,,,,,,,,,,,,,,,,,,,,,,,,,,,,,main,None,None,1,1.497561399999995,407.78374970000004,None,None,1,,,,,,,,,,,,,,203,24,Male,2022-04-27_10h52.41.715,Main,2022.1.1,59.98458396183116,
negative,yellow,2,k,None,,,,,,,,,0,59,59,59,,,,,,,,,,,,,,,,,,,,,,,,,,,,,,,,,,,,,main,None,None,1,1.5052943999999115,410.2820250999998,None,None,1,,,,,,,,,,,,,,203,24,Male,2022-04-27_10h52.41.715,Main,2022.1.1,59.98458396183116,
positive,red,2,None,None,,,,,,,,,0,60,60,60,,,,,,,,,,,,,,,,,,,,,,,,,,,,,,,,,,,,,main,None,None,1,1.5042309000000387,412.78880500000014,None,None,1,,,,,,,,,,,,,,203,24,Male,2022-04-27_10h52.41.715,Main,2022.1.1,59.98458396183116,
negative,yellow,1,k,None,,,,,,,,,0,61,61,61,,,,,,,,,,,,,,,,,,,,,,,,,,,,,,,,,,,,,main,None,None,1,1.49773789999972,415.2988055999999,None,None,1,,,,,,,,,,,,,,203,24,Male,2022-04-27_10h52.41.715,Main,2022.1.1,59.98458396183116,
negative,red,1,None,None,,,,,,,,,0,62,62,62,,,,,,,,,,,,,,,,,,,,,,,,,,,,,,,,,,,,,main,None,None,1,1.509170499999982,417.79751769999984,None,None,1,,,,,,,,,,,,,,203,24,Male,2022-04-27_10h52.41.715,Main,2022.1.1,59.98458396183116,
negative,blue,1,None,k,,,,,,,,,0,63,63,63,,,,,,,,,,,,,,,,,,,,,,,,,,,,,,,,,,,,,main,k,k,1,2.2167073999999047,420.30598310000005,None,None,0,,,,,,,,,,,,,,203,24,Male,2022-04-27_10h52.41.715,Main,2022.1.1,59.98458396183116,
positive,blue,2,k,None,,,,,,,,,0,64,64,64,,,,,,,,,,,,,,,,,,,,,,,,,,,,,,,,,,,,,main,None,None,1,1.5021059000000605,424.5401952000002,None,None,1,,,,,,,,,,,,,,203,24,Male,2022-04-27_10h52.41.715,Main,2022.1.1,59.98458396183116,
negative,yellow,2,k,None,,,,,,,,,0,65,65,65,,,,,,,,,,,,,,,,,,,,,,,,,,,,,,,,,,,,,main,None,None,1,1.5070752000001448,427.04445639999994,None,None,1,,,,,,,,,,,,,,203,24,Male,2022-04-27_10h52.41.715,Main,2022.1.1,59.98458396183116,
positive,yellow,2,None,k,,,,,,,,,0,66,66,66,,,,,,,,,,,,,,,,,,,,,,,,,,,,,,,,,,,,,main,k,k,1,1.1220352999998795,429.55320679999977,None,None,0,,,,,,,,,,,,,,203,24,Male,2022-04-27_10h52.41.715,Main,2022.1.1,59.98458396183116,
positive,yellow,2,None,k,,,,,,,,,0,67,67,67,,,,,,,,,,,,,,,,,,,,,,,,,,,,,,,,,,,,,main,k,k,1,1.2062140000002728,431.67931580000004,None,None,0,,,,,,,,,,,,,,203,24,Male,2022-04-27_10h52.41.715,Main,2022.1.1,59.98458396183116,
positive,red,1,None,None,,,,,,,,,0,68,68,68,,,,,,,,,,,,,,,,,,,,,,,,,,,,,,,,,,,,,main,None,None,1,1.498668500000349,433.886219,None,None,1,,,,,,,,,,,,,,203,24,Male,2022-04-27_10h52.41.715,Main,2022.1.1,59.98458396183116,
positive,yellow,1,None,k,,,,,,,,,0,69,69,69,,,,,,,,,,,,,,,,,,,,,,,,,,,,,,,,,,,,,main,k,k,1,0.9550569000002724,436.3864054999999,None,None,0,,,,,,,,,,,,,,203,24,Male,2022-04-27_10h52.41.715,Main,2022.1.1,59.98458396183116,
negative,yellow,2,k,None,,,,,,,,,0,70,70,70,,,,,,,,,,,,,,,,,,,,,,,,,,,,,,,,,,,,,main,None,None,1,1.5094101999998202,438.3457067999998,None,None,1,,,,,,,,,,,,,,203,24,Male,2022-04-27_10h52.41.715,Main,2022.1.1,59.98458396183116,
positive,yellow,1,None,k,,,,,,,,,0,71,71,71,,,,,,,,,,,,,,,,,,,,,,,,,,,,,,,,,,,,,main,k,k,1,0.9760372000000643,440.85372929999994,None,None,0,,,,,,,,,,,,,,203,24,Male,2022-04-27_10h52.41.715,Main,2022.1.1,59.98458396183116,
negative,blue,1,None,k,,,,,,,,,0,72,72,72,,,,,,,,,,,,,,,,,,,,,,,,,,,,,,,,,,,,,main,k,k,1,1.016357799999696,442.8328160000001,None,None,0,,,,,,,,,,,,,,203,24,Male,2022-04-27_10h52.41.715,Main,2022.1.1,59.98458396183116,
negative,red,2,None,None,,,,,,,,,0,73,73,73,,,,,,,,,,,,,,,,,,,,,,,,,,,,,,,,,,,,,main,None,None,1,1.5042493999999351,444.85448989999986,None,None,1,,,,,,,,,,,,,,203,24,Male,2022-04-27_10h52.41.715,Main,2022.1.1,59.98458396183116,
positive,blue,2,k,None,,,,,,,,,0,74,74,74,,,,,,,,,,,,,,,,,,,,,,,,,,,,,,,,,,,,,main,None,None,1,1.5111283000001094,447.359199,None,None,1,,,,,,,,,,,,,,203,24,Male,2022-04-27_10h52.41.715,Main,2022.1.1,59.98458396183116,
negative,blue,2,None,k,,,,,,,,,0,75,75,75,,,,,,,,,,,,,,,,,,,,,,,,,,,,,,,,,,,,,main,k,k,1,0.9301353999999264,449.87065359999997,None,None,0,,,,,,,,,,,,,,203,24,Male,2022-04-27_10h52.41.715,Main,2022.1.1,59.98458396183116,
negative,blue,2,None,k,,,,,,,,,0,76,76,76,,,,,,,,,,,,,,,,,,,,,,,,,,,,,,,,,,,,,main,k,k,1,0.8693137000000206,451.80212140000003,None,None,0,,,,,,,,,,,,,,203,24,Male,2022-04-27_10h52.41.715,Main,2022.1.1,59.98458396183116,
negative,yellow,1,k,None,,,,,,,,,0,77,77,77,,,,,,,,,,,,,,,,,,,,,,,,,,,,,,,,,,,,,main,None,None,1,1.497521499999948,453.6745698,None,None,1,,,,,,,,,,,,,,203,24,Male,2022-04-27_10h52.41.715,Main,2022.1.1,59.98458396183116,
positive,blue,1,k,None,,,,,,,,,0,78,78,78,,,,,,,,,,,,,,,,,,,,,,,,,,,,,,,,,,,,,main,None,None,1,1.495784900000217,456.17350290000013,None,None,1,,,,,,,,,,,,,,203,24,Male,2022-04-27_10h52.41.715,Main,2022.1.1,59.98458396183116,
positive,blue,1,k,None,,,,,,,,,0,79,79,79,,,,,,,,,,,,,,,,,,,,,,,,,,,,,,,,,,,,,main,None,None,1,1.510977300000377,458.6689615,None,None,1,,,,,,,,,,,,,,203,24,Male,2022-04-27_10h52.41.715,Main,2022.1.1,59.98458396183116,
positive,red,2,None,None,,,,,,,,,0,80,80,80,,,,,,,,,,,,,,,,,,,,,,,,,,,,,,,,,,,,,main,None,None,1,1.5118011999998089,461.1831487999998,None,None,1,,,,,,,,,,,,,,203,24,Male,2022-04-27_10h52.41.715,Main,2022.1.1,59.98458396183116,
positive,yellow,2,None,k,,,,,,,,,0,81,81,81,,,,,,,,,,,,,,,,,,,,,,,,,,,,,,,,,,,,,main,k,k,1,0.9751777999999831,463.6973358,None,None,0,,,,,,,,,,,,,,203,24,Male,2022-04-27_10h52.41.715,Main,2022.1.1,59.98458396183116,
positive,blue,1,k,None,,,,,,,,,0,82,82,82,,,,,,,,,,,,,,,,,,,,,,,,,,,,,,,,,,,,,main,None,None,1,1.5068264000001363,465.67621069999996,None,None,1,,,,,,,,,,,,,,203,24,Male,2022-04-27_10h52.41.715,Main,2022.1.1,59.98458396183116,
negative,yellow,2,k,None,,,,,,,,,0,83,83,83,,,,,,,,,,,,,,,,,,,,,,,,,,,,,,,,,,,,,main,None,None,1,1.4975244000002021,468.1824059999999,None,None,1,,,,,,,,,,,,,,203,24,Male,2022-04-27_10h52.41.715,Main,2022.1.1,59.98458396183116,
positive,blue,2,k,None,,,,,,,,,0,84,84,84,,,,,,,,,,,,,,,,,,,,,,,,,,,,,,,,,,,,,main,None,None,1,1.4998163999998724,470.6819498,None,None,1,,,,,,,,,,,,,,203,24,Male,2022-04-27_10h52.41.715,Main,2022.1.1,59.98458396183116,
positive,yellow,1,None,k,,,,,,,,,0,85,85,85,,,,,,,,,,,,,,,,,,,,,,,,,,,,,,,,,,,,,main,k,k,1,1.282024900000124,473.1828724000002,None,None,0,,,,,,,,,,,,,,203,24,Male,2022-04-27_10h52.41.715,Main,2022.1.1,59.98458396183116,
positive,blue,2,k,None,,,,,,,,,0,86,86,86,,,,,,,,,,,,,,,,,,,,,,,,,,,,,,,,,,,,,main,None,None,1,1.5056706999998823,475.4668376999998,None,None,1,,,,,,,,,,,,,,203,24,Male,2022-04-27_10h52.41.715,Main,2022.1.1,59.98458396183116,
positive,blue,1,k,None,,,,,,,,,0,87,87,87,,,,,,,,,,,,,,,,,,,,,,,,,,,,,,,,,,,,,main,None,None,1,1.4981887999997525,477.9759666,None,None,1,,,,,,,,,,,,,,203,24,Male,2022-04-27_10h52.41.715,Main,2022.1.1,59.98458396183116,
negative,yellow,2,k,None,,,,,,,,,0,88,88,88,,,,,,,,,,,,,,,,,,,,,,,,,,,,,,,,,,,,,main,None,None,1,1.5062143000000106,480.4761309999999,None,None,1,,,,,,,,,,,,,,203,24,Male,2022-04-27_10h52.41.715,Main,2022.1.1,59.98458396183116,
negative,blue,2,None,k,,,,,,,,,0,89,89,89,,,,,,,,,,,,,,,,,,,,,,,,,,,,,,,,,,,,,main,k,k,1,2.562824399999954,482.9808444999999,None,None,0,,,,,,,,,,,,,,203,24,Male,2022-04-27_10h52.41.715,Main,2022.1.1,59.98458396183116,
positive,yellow,2,None,k,,,,,,,,,0,90,90,90,,,,,,,,,,,,,,,,,,,,,,,,,,,,,,,,,,,,,main,k,k,1,1.0756598000002668,487.5489911999998,None,None,0,,,,,,,,,,,,,,203,24,Male,2022-04-27_10h52.41.715,Main,2022.1.1,59.98458396183116,
negative,yellow,1,k,None,,,,,,,,,0,91,91,91,,,,,,,,,,,,,,,,,,,,,,,,,,,,,,,,,,,,,main,None,None,1,1.5032415999999102,489.62635120000004,None,None,1,,,,,,,,,,,,,,203,24,Male,2022-04-27_10h52.41.715,Main,2022.1.1,59.98458396183116,
negative,red,2,None,None,,,,,,,,,0,92,92,92,,,,,,,,,,,,,,,,,,,,,,,,,,,,,,,,,,,,,main,None,None,1,1.4987545999997565,492.1292208,None,None,1,,,,,,,,,,,,,,203,24,Male,2022-04-27_10h52.41.715,Main,2022.1.1,59.98458396183116,
negative,blue,2,None,k,,,,,,,,,0,93,93,93,,,,,,,,,,,,,,,,,,,,,,,,,,,,,,,,,,,,,main,k,k,1,1.7148025000001326,494.6302995000001,None,None,0,,,,,,,,,,,,,,203,24,Male,2022-04-27_10h52.41.715,Main,2022.1.1,59.98458396183116,
negative,blue,1,None,k,,,,,,,,,0,94,94,94,,,,,,,,,,,,,,,,,,,,,,,,,,,,,,,,,,,,,main,k,k,1,1.6223555999999917,498.3643514999999,None,None,0,,,,,,,,,,,,,,203,24,Male,2022-04-27_10h52.41.715,Main,2022.1.1,59.98458396183116,
negative,blue,1,None,k,,,,,,,,,0,95,95,95,,,,,,,,,,,,,,,,,,,,,,,,,,,,,,,,,,,,,main,k,k,1,0.9387274000000616,501.99700789999997,None,None,0,,,,,,,,,,,,,,203,24,Male,2022-04-27_10h52.41.715,Main,2022.1.1,59.98458396183116,
negative,red,1,None,None,,,,,,,,,0,96,96,96,,,,,,,,,,,,,,,,,,,,,,,,,,,,,,,,,,,,,main,None,None,1,1.5035680999999386,503.93832539999994,None,None,1,,,,,,,,,,,,,,203,24,Male,2022-04-27_10h52.41.715,Main,2022.1.1,59.98458396183116,
positive,yellow,1,None,k,,,,,,,,,0,97,97,97,,,,,,,,,,,,,,,,,,,,,,,,,,,,,,,,,,,,,main,k,k,1,0.8963528999997834,506.44291969999995,None,None,0,,,,,,,,,,,,,,203,24,Male,2022-04-27_10h52.41.715,Main,2022.1.1,59.98458396183116,
negative,yellow,1,k,None,,,,,,,,,0,98,98,98,,,,,,,,,,,,,,,,,,,,,,,,,,,,,,,,,,,,,main,None,k,0,0.7178407999999763,508.34289579999995,None,None,1,,,,,,,,,,,,,,203,24,Male,2022-04-27_10h52.41.715,Main,2022.1.1,59.98458396183116,
positive,red,1,None,None,,,,,,,,,0,99,99,99,,,,,,,,,,,,,,,,,,,,,,,,,,,,,,,,,,,,,main,None,None,1,1.5031920999999784,511.0790178000002,None,None,1,,,,,,,,,,,,,,203,24,Male,2022-04-27_10h52.41.715,Main,2022.1.1,59.98458396183116,
positive,blue,1,k,None,,,,,,,,,0,100,100,100,,,,,,,,,,,,,,,,,,,,,,,,,,,,,,,,,,,,,main,None,None,1,1.508084499999768,513.5845531,None,None,1,,,,,,,,,,,,,,203,24,Male,2022-04-27_10h52.41.715,Main,2022.1.1,59.98458396183116,
negative,yellow,1,k,None,,,,,,,,,0,101,101,101,,,,,,,,,,,,,,,,,,,,,,,,,,,,,,,,,,,,,main,None,None,1,1.4994030000002567,516.0923649000001,None,None,1,,,,,,,,,,,,,,203,24,Male,2022-04-27_10h52.41.715,Main,2022.1.1,59.98458396183116,
negative,blue,2,None,k,,,,,,,,,0,102,102,102,,,,,,,,,,,,,,,,,,,,,,,,,,,,,,,,,,,,,main,k,k,1,0.7688236000003599,518.5931756,None,None,0,,,,,,,,,,,,,,203,24,Male,2022-04-27_10h52.41.715,Main,2022.1.1,59.98458396183116,
negative,yellow,2,k,None,,,,,,,,,0,103,103,103,,,,,,,,,,,,,,,,,,,,,,,,,,,,,,,,,,,,,main,None,None,1,1.5001548999998704,520.3672329000001,None,None,1,,,,,,,,,,,,,,203,24,Male,2022-04-27_10h52.41.715,Main,2022.1.1,59.98458396183116,
positive,yellow,2,None,k,,,,,,,,,0,104,104,104,,,,,,,,,,,,,,,,,,,,,,,,,,,,,,,,,,,,,main,k,k,1,0.8341593999998622,522.8683289,None,None,0,,,,,,,,,,,,,,203,24,Male,2022-04-27_10h52.41.715,Main,2022.1.1,59.98458396183116,
positive,blue,1,k,None,,,,,,,,,0,105,105,105,,,,,,,,,,,,,,,,,,,,,,,,,,,,,,,,,,,,,main,None,None,1,1.500096400000075,524.7038868,None,None,1,,,,,,,,,,,,,,203,24,Male,2022-04-27_10h52.41.715,Main,2022.1.1,59.98458396183116,
positive,blue,2,k,None,,,,,,,,,0,106,106,106,,,,,,,,,,,,,,,,,,,,,,,,,,,,,,,,,,,,,main,None,None,1,1.511442999999872,527.2056585999999,None,None,1,,,,,,,,,,,,,,203,24,Male,2022-04-27_10h52.41.715,Main,2022.1.1,59.98458396183116,
negative,blue,1,None,k,,,,,,,,,0,107,107,107,,,,,,,,,,,,,,,,,,,,,,,,,,,,,,,,,,,,,main,k,k,1,2.039902699999857,529.7189570999999,None,None,0,,,,,,,,,,,,,,203,24,Male,2022-04-27_10h52.41.715,Main,2022.1.1,59.98458396183116,
positive,yellow,2,None,k,,,,,,,,,0,108,108,108,,,,,,,,,,,,,,,,,,,,,,,,,,,,,,,,,,,,,main,k,k,1,1.0196391000004041,533.7765822000001,None,None,0,,,,,,,,,,,,,,203,24,Male,2022-04-27_10h52.41.715,Main,2022.1.1,59.98458396183116,
negative,yellow,1,k,None,,,,,,,,,0,109,109,109,,,,,,,,,,,,,,,,,,,,,,,,,,,,,,,,,,,,,main,None,None,1,1.5062057000000095,535.7981627999998,None,None,1,,,,,,,,,,,,,,203,24,Male,2022-04-27_10h52.41.715,Main,2022.1.1,59.98458396183116,
negative,blue,2,None,k,,,,,,,,,0,110,110,110,,,,,,,,,,,,,,,,,,,,,,,,,,,,,,,,,,,,,main,k,k,1,1.0401881000002504,538.3052441999998,None,None,0,,,,,,,,,,,,,,203,24,Male,2022-04-27_10h52.41.715,Main,2022.1.1,59.98458396183116,
positive,blue,2,k,None,,,,,,,,,0,111,111,111,,,,,,,,,,,,,,,,,,,,,,,,,,,,,,,,,,,,,main,None,None,1,1.5074060000001737,540.3491463,None,None,1,,,,,,,,,,,,,,203,24,Male,2022-04-27_10h52.41.715,Main,2022.1.1,59.98458396183116,
negative,blue,1,None,k,,,,,,,,,0,112,112,112,,,,,,,,,,,,,,,,,,,,,,,,,,,,,,,,,,,,,main,k,k,1,1.7838262000000213,542.8563174000001,None,None,0,,,,,,,,,,,,,,203,24,Male,2022-04-27_10h52.41.715,Main,2022.1.1,59.98458396183116,
positive,yellow,1,None,k,,,,,,,,,0,113,113,113,,,,,,,,,,,,,,,,,,,,,,,,,,,,,,,,,,,,,main,k,k,1,0.8870709000002535,546.6580895000002,None,None,0,,,,,,,,,,,,,,203,24,Male,2022-04-27_10h52.41.715,Main,2022.1.1,59.98458396183116,
negative,red,1,None,None,,,,,,,,,0,114,114,114,,,,,,,,,,,,,,,,,,,,,,,,,,,,,,,,,,,,,main,None,None,1,1.5041775999998208,548.5479925999998,None,None,1,,,,,,,,,,,,,,203,24,Male,2022-04-27_10h52.41.715,Main,2022.1.1,59.98458396183116,
positive,red,1,None,None,,,,,,,,,0,115,115,115,,,,,,,,,,,,,,,,,,,,,,,,,,,,,,,,,,,,,main,None,None,1,1.504404699999668,551.0525641999998,None,None,1,,,,,,,,,,,,,,203,24,Male,2022-04-27_10h52.41.715,Main,2022.1.1,59.98458396183116,
negative,red,2,None,None,,,,,,,,,0,116,116,116,,,,,,,,,,,,,,,,,,,,,,,,,,,,,,,,,,,,,main,None,None,1,1.5052844000001642,553.5599237000001,None,None,1,,,,,,,,,,,,,,203,24,Male,2022-04-27_10h52.41.715,Main,2022.1.1,59.98458396183116,
negative,yellow,2,k,None,,,,,,,,,0,117,117,117,,,,,,,,,,,,,,,,,,,,,,,,,,,,,,,,,,,,,main,None,None,1,1.4975592999999208,556.0659744,None,None,1,,,,,,,,,,,,,,203,24,Male,2022-04-27_10h52.41.715,Main,2022.1.1,59.98458396183116,
positive,yellow,1,None,k,,,,,,,,,0,118,118,118,,,,,,,,,,,,,,,,,,,,,,,,,,,,,,,,,,,,,main,k,k,1,0.9780760999997256,558.5645721000001,None,None,0,,,,,,,,,,,,,,203,24,Male,2022-04-27_10h52.41.715,Main,2022.1.1,59.98458396183116,
positive,red,2,None,None,,,,,,,,,0,119,119,119,,,,,,,,,,,,,,,,,,,,,,,,,,,,,,,,,,,,,main,None,None,1,1.5021973000002617,560.5445761000001,None,None,1,,,,,,,,,,,,,,203,24,Male,2022-04-27_10h52.41.715,Main,2022.1.1,59.98458396183116,
positive,blue,2,k,None,,,,,,,,,0,120,120,120,,,,,,,,,,,,,,,,,,,,,,,,,,,,,,,,,,,,,main,None,None,1,1.5016664999998284,563.0484606,None,None,1,,,,,,,,,,,,,,203,24,Male,2022-04-27_10h52.41.715,Main,2022.1.1,59.98458396183116,
negative,red,1,None,None,,,,,,,,,0,121,121,121,,,,,,,,,,,,,,,,,,,,,,,,,,,,,,,,,,,,,main,None,None,1,1.5019330000000082,565.5515764000002,None,None,1,,,,,,,,,,,,,,203,24,Male,2022-04-27_10h52.41.715,Main,2022.1.1,59.98458396183116,
positive,yellow,2,None,k,,,,,,,,,0,122,122,122,,,,,,,,,,,,,,,,,,,,,,,,,,,,,,,,,,,,,main,k,k,1,3.7496031000000585,568.0554111000001,None,None,0,,,,,,,,,,,,,,203,24,Male,2022-04-27_10h52.41.715,Main,2022.1.1,59.98458396183116,
negative,red,2,None,None,,,,,,,,,0,123,123,123,,,,,,,,,,,,,,,,,,,,,,,,,,,,,,,,,,,,,main,None,None,1,1.4949563999998645,573.8217154999998,None,None,1,,,,,,,,,,,,,,203,24,Male,2022-04-27_10h52.41.715,Main,2022.1.1,59.98458396183116,
negative,yellow,2,k,None,,,,,,,,,0,124,124,124,,,,,,,,,,,,,,,,,,,,,,,,,,,,,,,,,,,,,main,None,None,1,1.503642800000307,576.3182823000002,None,None,1,,,,,,,,,,,,,,203,24,Male,2022-04-27_10h52.41.715,Main,2022.1.1,59.98458396183116,
positive,red,1,None,None,,,,,,,,,0,125,125,125,,,,,,,,,,,,,,,,,,,,,,,,,,,,,,,,,,,,,main,None,None,1,1.5028096000000915,578.8251126999999,None,None,1,,,,,,,,,,,,,,203,24,Male,2022-04-27_10h52.41.715,Main,2022.1.1,59.98458396183116,
negative,blue,2,None,k,,,,,,,,,0,126,126,126,,,,,,,,,,,,,,,,,,,,,,,,,,,,,,,,,,,,,main,k,k,1,0.9628877000000102,581.3297404999998,None,None,0,,,,,,,,,,,,,,203,24,Male,2022-04-27_10h52.41.715,Main,2022.1.1,59.98458396183116,
negative,blue,1,None,k,,,,,,,,,0,127,127,127,,,,,,,,,,,,,,,,,,,,,,,,,,,,,,,,,,,,,main,k,k,1,1.3413682000000335,583.2938513999998,None,None,0,,,,,,,,,,,,,,203,24,Male,2022-04-27_10h52.41.715,Main,2022.1.1,59.98458396183116,
negative,yellow,1,k,None,,,,,,,,,0,128,128,128,,,,,,,,,,,,,,,,,,,,,,,,,,,,,,,,,,,,,main,None,None,1,1.4979933999998138,585.6344294,None,None,1,,,,,,,,,,,,,,203,24,Male,2022-04-27_10h52.41.715,Main,2022.1.1,59.98458396183116,
negative,yellow,1,k,None,,,,,,,,,0,129,129,129,,,,,,,,,,,,,,,,,,,,,,,,,,,,,,,,,,,,,main,None,None,1,1.5096447000000808,588.1343172000002,None,None,1,,,,,,,,,,,,,,203,24,Male,2022-04-27_10h52.41.715,Main,2022.1.1,59.98458396183116,
positive,blue,1,k,None,,,,,,,,,0,130,130,130,,,,,,,,,,,,,,,,,,,,,,,,,,,,,,,,,,,,,main,None,None,1,1.4980235999996694,590.6461510999998,None,None,1,,,,,,,,,,,,,,203,24,Male,2022-04-27_10h52.41.715,Main,2022.1.1,59.98458396183116,
negative,blue,1,None,k,,,,,,,,,0,131,131,131,,,,,,,,,,,,,,,,,,,,,,,,,,,,,,,,,,,,,main,k,k,1,1.233427600000141,593.1467644999998,None,None,0,,,,,,,,,,,,,,203,24,Male,2022-04-27_10h52.41.715,Main,2022.1.1,59.98458396183116,
negative,blue,2,None,k,,,,,,,,,0,132,132,132,,,,,,,,,,,,,,,,,,,,,,,,,,,,,,,,,,,,,main,k,k,1,1.0177161999999953,595.3822059999998,None,None,0,,,,,,,,,,,,,,203,24,Male,2022-04-27_10h52.41.715,Main,2022.1.1,59.98458396183116,
positive,blue,2,k,None,,,,,,,,,0,133,133,133,,,,,,,,,,,,,,,,,,,,,,,,,,,,,,,,,,,,,main,None,None,1,1.5066051999997399,597.4052614000002,None,None,1,,,,,,,,,,,,,,203,24,Male,2022-04-27_10h52.41.715,Main,2022.1.1,59.98458396183116,
positive,red,2,None,None,,,,,,,,,0,134,134,134,,,,,,,,,,,,,,,,,,,,,,,,,,,,,,,,,,,,,main,None,None,1,1.5086780999999974,599.9108803999998,None,None,1,,,,,,,,,,,,,,203,24,Male,2022-04-27_10h52.41.715,Main,2022.1.1,59.98458396183116,
negative,yellow,2,k,None,,,,,,,,,0,135,135,135,,,,,,,,,,,,,,,,,,,,,,,,,,,,,,,,,,,,,main,None,None,1,1.50146629999972,602.4215841999999,None,None,1,,,,,,,,,,,,,,203,24,Male,2022-04-27_10h52.41.715,Main,2022.1.1,59.98458396183116,
positive,yellow,2,None,k,,,,,,,,,0,136,136,136,,,,,,,,,,,,,,,,,,,,,,,,,,,,,,,,,,,,,main,k,k,1,0.9821342000000186,604.9245814000001,None,None,0,,,,,,,,,,,,,,203,24,Male,2022-04-27_10h52.41.715,Main,2022.1.1,59.98458396183116,
positive,blue,1,k,None,,,,,,,,,0,137,137,137,,,,,,,,,,,,,,,,,,,,,,,,,,,,,,,,,,,,,main,None,None,1,1.5065151999997397,606.9088616999998,None,None,1,,,,,,,,,,,,,,203,24,Male,2022-04-27_10h52.41.715,Main,2022.1.1,59.98458396183116,
positive,yellow,1,None,k,,,,,,,,,0,138,138,138,,,,,,,,,,,,,,,,,,,,,,,,,,,,,,,,,,,,,main,k,k,1,1.0049244000001636,609.4140253,None,None,0,,,,,,,,,,,,,,203,24,Male,2022-04-27_10h52.41.715,Main,2022.1.1,59.98458396183116,
positive,yellow,1,None,k,,,,,,,,,0,139,139,139,,,,,,,,,,,,,,,,,,,,,,,,,,,,,,,,,,,,,main,k,k,1,1.161851900000329,611.4234654000002,None,None,0,,,,,,,,,,,,,,203,24,Male,2022-04-27_10h52.41.715,Main,2022.1.1,59.98458396183116,
positive,yellow,1,None,k,,,,,,,,,0,140,140,140,,,,,,,,,,,,,,,,,,,,,,,,,,,,,,,,,,,,,main,k,k,1,0.9341715000000477,613.5870280999998,None,None,0,,,,,,,,,,,,,,203,24,Male,2022-04-27_10h52.41.715,Main,2022.1.1,59.98458396183116,
positive,blue,1,k,None,,,,,,,,,0,141,141,141,,,,,,,,,,,,,,,,,,,,,,,,,,,,,,,,,,,,,main,None,None,1,1.5099669000001086,615.5221734000002,None,None,1,,,,,,,,,,,,,,203,24,Male,2022-04-27_10h52.41.715,Main,2022.1.1,59.98458396183116,
positive,blue,2,k,None,,,,,,,,,0,142,142,142,,,,,,,,,,,,,,,,,,,,,,,,,,,,,,,,,,,,,main,None,None,1,1.51213719999987,618.0314843000001,None,None,1,,,,,,,,,,,,,,203,24,Male,2022-04-27_10h52.41.715,Main,2022.1.1,59.98458396183116,
positive,yellow,2,None,k,,,,,,,,,0,143,143,143,,,,,,,,,,,,,,,,,,,,,,,,,,,,,,,,,,,,,main,k,k,1,1.750340099999903,620.5456251,None,None,0,,,,,,,,,,,,,,203,24,Male,2022-04-27_10h52.41.715,Main,2022.1.1,59.98458396183116,
negative,yellow,2,k,None,,,,,,,,,0,144,144,144,,,,,,,,,,,,,,,,,,,,,,,,,,,,,,,,,,,,,main,None,None,1,1.4908743999999388,624.2981135,None,None,1,,,,,,,,,,,,,,203,24,Male,2022-04-27_10h52.41.715,Main,2022.1.1,59.98458396183116,
negative,blue,2,None,k,,,,,,,,,0,145,145,145,,,,,,,,,,,,,,,,,,,,,,,,,,,,,,,,,,,,,main,k,k,1,1.304799600000024,626.7905016,None,None,0,,,,,,,,,,,,,,203,24,Male,2022-04-27_10h52.41.715,Main,2022.1.1,59.98458396183116,
negative,red,1,None,None,,,,,,,,,0,146,146,146,,,,,,,,,,,,,,,,,,,,,,,,,,,,,,,,,,,,,main,None,None,1,1.5004948999999215,629.0963864,None,None,1,,,,,,,,,,,,,,203,24,Male,2022-04-27_10h52.41.715,Main,2022.1.1,59.98458396183116,
positive,blue,1,k,None,,,,,,,,,0,147,147,147,,,,,,,,,,,,,,,,,,,,,,,,,,,,,,,,,,,,,main,None,None,1,1.4995358000001033,631.6005043999999,None,None,1,,,,,,,,,,,,,,203,24,Male,2022-04-27_10h52.41.715,Main,2022.1.1,59.98458396183116,
positive,yellow,1,None,k,,,,,,,,,0,148,148,148,,,,,,,,,,,,,,,,,,,,,,,,,,,,,,,,,,,,,main,k,k,1,0.9958888999999544,634.1006189999998,None,None,0,,,,,,,,,,,,,,203,24,Male,2022-04-27_10h52.41.715,Main,2022.1.1,59.98458396183116,
negative,red,2,None,None,,,,,,,,,0,149,149,149,,,,,,,,,,,,,,,,,,,,,,,,,,,,,,,,,,,,,main,None,None,1,1.4962319000001116,636.0991174000001,None,None,1,,,,,,,,,,,,,,203,24,Male,2022-04-27_10h52.41.715,Main,2022.1.1,59.98458396183116,
negative,blue,1,None,k,,,,,,,,,0,150,150,150,,,,,,,,,,,,,,,,,,,,,,,,,,,,,,,,,,,,,main,k,k,1,1.247699399999874,638.5942365000001,None,None,0,,,,,,,,,,,,,,203,24,Male,2022-04-27_10h52.41.715,Main,2022.1.1,59.98458396183116,
negative,yellow,2,k,None,,,,,,,,,0,151,151,151,,,,,,,,,,,,,,,,,,,,,,,,,,,,,,,,,,,,,main,None,None,1,1.498309099999915,640.8435473,None,None,1,,,,,,,,,,,,,,203,24,Male,2022-04-27_10h52.41.715,Main,2022.1.1,59.98458396183116,
negative,blue,2,None,k,,,,,,,,,0,152,152,152,,,,,,,,,,,,,,,,,,,,,,,,,,,,,,,,,,,,,main,k,k,1,0.9422116999999162,643.3426687000001,None,None,0,,,,,,,,,,,,,,203,24,Male,2022-04-27_10h52.41.715,Main,2022.1.1,59.98458396183116,
negative,yellow,1,k,None,,,,,,,,,0,153,153,153,,,,,,,,,,,,,,,,,,,,,,,,,,,,,,,,,,,,,main,None,None,1,1.4954640999999356,645.2886096000002,None,None,1,,,,,,,,,,,,,,203,24,Male,2022-04-27_10h52.41.715,Main,2022.1.1,59.98458396183116,
negative,blue,1,None,k,,,,,,,,,0,154,154,154,,,,,,,,,,,,,,,,,,,,,,,,,,,,,,,,,,,,,main,k,k,1,0.9526762999998937,647.7857816000001,None,None,0,,,,,,,,,,,,,,203,24,Male,2022-04-27_10h52.41.715,Main,2022.1.1,59.98458396183116,
positive,yellow,2,None,k,,,,,,,,,0,155,155,155,,,,,,,,,,,,,,,,,,,,,,,,,,,,,,,,,,,,,main,k,k,1,3.2033643999998276,649.7394748000002,None,None,0,,,,,,,,,,,,,,203,24,Male,2022-04-27_10h52.41.715,Main,2022.1.1,59.98458396183116,
positive,red,2,None,None,,,,,,,,,0,156,156,156,,,,,,,,,,,,,,,,,,,,,,,,,,,,,,,,,,,,,main,None,None,1,1.5020810999999412,654.9441621999999,None,None,1,,,,,,,,,,,,,,203,24,Male,2022-04-27_10h52.41.715,Main,2022.1.1,59.98458396183116,
positive,red,1,None,None,,,,,,,,,0,157,157,157,,,,,,,,,,,,,,,,,,,,,,,,,,,,,,,,,,,,,main,None,None,1,1.5002190000000155,657.4479772,None,None,1,,,,,,,,,,,,,,203,24,Male,2022-04-27_10h52.41.715,Main,2022.1.1,59.98458396183116,
positive,blue,2,k,None,,,,,,,,,0,158,158,158,,,,,,,,,,,,,,,,,,,,,,,,,,,,,,,,,,,,,main,None,None,1,1.4963339000000815,659.9500167000001,None,None,1,,,,,,,,,,,,,,203,24,Male,2022-04-27_10h52.41.715,Main,2022.1.1,59.98458396183116,
negative,yellow,1,k,None,,,,,,,,,0,159,159,159,,,,,,,,,,,,,,,,,,,,,,,,,,,,,,,,,,,,,main,None,None,1,1.5080347000002803,662.4484007000001,None,None,1,,,,,,,,,,,,,,203,24,Male,2022-04-27_10h52.41.715,Main,2022.1.1,59.98458396183116,
negative,red,2,None,None,,,,,,,,,0,160,160,160,,,,,,,,,,,,,,,,,,,,,,,,,,,,,,,,,,,,,main,None,None,1,1.5004681999998866,664.9563831,None,None,1,,,,,,,,,,,,,,203,24,Male,2022-04-27_10h52.41.715,Main,2022.1.1,59.98458396183116,
negative,blue,1,None,k,,,,,,,,,0,161,161,161,,,,,,,,,,,,,,,,,,,,,,,,,,,,,,,,,,,,,main,k,k,1,1.0596207000003233,667.4586479,None,None,0,,,,,,,,,,,,,,203,24,Male,2022-04-27_10h52.41.715,Main,2022.1.1,59.98458396183116,
negative,blue,1,None,k,,,,,,,,,0,162,162,162,,,,,,,,,,,,,,,,,,,,,,,,,,,,,,,,,,,,,main,k,k,1,0.8062640999996802,669.5237106999998,None,None,0,,,,,,,,,,,,,,203,24,Male,2022-04-27_10h52.41.715,Main,2022.1.1,59.98458396183116,
negative,yellow,1,k,None,,,,,,,,,0,163,163,163,,,,,,,,,,,,,,,,,,,,,,,,,,,,,,,,,,,,,main,None,None,1,1.4997213999999985,671.3321596000001,None,None,1,,,,,,,,,,,,,,203,24,Male,2022-04-27_10h52.41.715,Main,2022.1.1,59.98458396183116,
negative,yellow,1,k,None,,,,,,,,,0,164,164,164,,,,,,,,,,,,,,,,,,,,,,,,,,,,,,,,,,,,,main,None,None,1,1.4957039999999324,673.8330391999998,None,None,1,,,,,,,,,,,,,,203,24,Male,2022-04-27_10h52.41.715,Main,2022.1.1,59.98458396183116,
positive,yellow,1,None,k,,,,,,,,,0,165,165,165,,,,,,,,,,,,,,,,,,,,,,,,,,,,,,,,,,,,,main,k,k,1,0.7213026000003993,676.3300629999999,None,None,0,,,,,,,,,,,,,,203,24,Male,2022-04-27_10h52.41.715,Main,2022.1.1,59.98458396183116,
negative,red,1,None,None,,,,,,,,,0,166,166,166,,,,,,,,,,,,,,,,,,,,,,,,,,,,,,,,,,,,,main,None,None,1,1.5030465999998341,678.0526436,None,None,1,,,,,,,,,,,,,,203,24,Male,2022-04-27_10h52.41.715,Main,2022.1.1,59.98458396183116,
negative,yellow,2,k,None,,,,,,,,,0,167,167,167,,,,,,,,,,,,,,,,,,,,,,,,,,,,,,,,,,,,,main,None,None,1,1.503150800000185,680.5561520000001,None,None,1,,,,,,,,,,,,,,203,24,Male,2022-04-27_10h52.41.715,Main,2022.1.1,59.98458396183116,
positive,blue,2,k,None,,,,,,,,,0,168,168,168,,,,,,,,,,,,,,,,,,,,,,,,,,,,,,,,,,,,,main,None,None,1,1.499324699999761,683.0624981999999,None,None,1,,,,,,,,,,,,,,203,24,Male,2022-04-27_10h52.41.715,Main,2022.1.1,59.98458396183116,
positive,red,2,None,None,,,,,,,,,0,169,169,169,,,,,,,,,,,,,,,,,,,,,,,,,,,,,,,,,,,,,main,None,None,1,1.5050275999997211,685.5640090000002,None,None,1,,,,,,,,,,,,,,203,24,Male,2022-04-27_10h52.41.715,Main,2022.1.1,59.98458396183116,
positive,red,1,None,None,,,,,,,,,0,170,170,170,,,,,,,,,,,,,,,,,,,,,,,,,,,,,,,,,,,,,main,None,None,1,1.5005565999999817,688.0698677,None,None,1,,,,,,,,,,,,,,203,24,Male,2022-04-27_10h52.41.715,Main,2022.1.1,59.98458396183116,
negative,blue,2,None,k,,,,,,,,,0,171,171,171,,,,,,,,,,,,,,,,,,,,,,,,,,,,,,,,,,,,,main,k,k,1,1.4980405000001156,690.5735918,None,None,0,,,,,,,,,,,,,,203,24,Male,2022-04-27_10h52.41.715,Main,2022.1.1,59.98458396183116,
positive,blue,2,k,None,,,,,,,,,0,172,172,172,,,,,,,,,,,,,,,,,,,,,,,,,,,,,,,,,,,,,main,None,None,1,1.498460299999806,693.0745486000001,None,None,1,,,,,,,,,,,,,,203,24,Male,2022-04-27_10h52.41.715,Main,2022.1.1,59.98458396183116,
negative,yellow,2,k,None,,,,,,,,,0,173,173,173,,,,,,,,,,,,,,,,,,,,,,,,,,,,,,,,,,,,,main,None,None,1,1.5081153999999515,695.5717558000001,None,None,1,,,,,,,,,,,,,,203,24,Male,2022-04-27_10h52.41.715,Main,2022.1.1,59.98458396183116,
positive,yellow,2,None,k,,,,,,,,,0,174,174,174,,,,,,,,,,,,,,,,,,,,,,,,,,,,,,,,,,,,,main,k,k,1,0.7714414000001852,698.0823992,None,None,0,,,,,,,,,,,,,,203,24,Male,2022-04-27_10h52.41.715,Main,2022.1.1,59.98458396183116,
negative,blue,2,None,k,,,,,,,,,0,175,175,175,,,,,,,,,,,,,,,,,,,,,,,,,,,,,,,,,,,,,main,k,k,1,1.0234323999998196,699.8544388,None,None,0,,,,,,,,,,,,,,203,24,Male,2022-04-27_10h52.41.715,Main,2022.1.1,59.98458396183116,
positive,blue,1,k,None,,,,,,,,,0,176,176,176,,,,,,,,,,,,,,,,,,,,,,,,,,,,,,,,,,,,,main,None,None,1,1.5009082999999919,701.8806432000001,None,None,1,,,,,,,,,,,,,,203,24,Male,2022-04-27_10h52.41.715,Main,2022.1.1,59.98458396183116,
positive,yellow,1,None,k,,,,,,,,,0,177,177,177,,,,,,,,,,,,,,,,,,,,,,,,,,,,,,,,,,,,,main,k,k,1,1.1700283000000127,704.3834778999999,None,None,0,,,,,,,,,,,,,,203,24,Male,2022-04-27_10h52.41.715,Main,2022.1.1,59.98458396183116,
positive,blue,1,k,None,,,,,,,,,0,178,178,178,,,,,,,,,,,,,,,,,,,,,,,,,,,,,,,,,,,,,main,None,None,1,1.5129001000000244,706.5547440999999,None,None,1,,,,,,,,,,,,,,203,24,Male,2022-04-27_10h52.41.715,Main,2022.1.1,59.98458396183116,
positive,yellow,2,None,k,,,,,,,,,0,179,179,179,,,,,,,,,,,,,,,,,,,,,,,,,,,,,,,,,,,,,main,k,k,1,0.815298200000143,709.0685760000001,None,None,0,,,,,,,,,,,,,,203,24,Male,2022-04-27_10h52.41.715,Main,2022.1.1,59.98458396183116,
positive,blue,1,k,None,,,,,,,,,0,180,180,180,,,,,,,,,,,,,,,,,,,,,,,,,,,,,,,,,,,,,main,None,None,1,1.498903899999732,710.8857296000001,None,None,1,,,,,,,,,,,,,,203,24,Male,2022-04-27_10h52.41.715,Main,2022.1.1,59.98458396183116,
negative,red,1,None,None,,,,,,,,,0,181,181,181,,,,,,,,,,,,,,,,,,,,,,,,,,,,,,,,,,,,,main,None,None,1,1.5111219999998866,713.3859686999999,None,None,1,,,,,,,,,,,,,,203,24,Male,2022-04-27_10h52.41.715,Main,2022.1.1,59.98458396183116,
negative,blue,1,None,k,,,,,,,,,0,182,182,182,,,,,,,,,,,,,,,,,,,,,,,,,,,,,,,,,,,,,main,k,k,1,1.4944454999999834,715.9002016,None,None,0,,,,,,,,,,,,,,203,24,Male,2022-04-27_10h52.41.715,Main,2022.1.1,59.98458396183116,
negative,yellow,2,k,None,,,,,,,,,0,183,183,183,,,,,,,,,,,,,,,,,,,,,,,,,,,,,,,,,,,,,main,None,None,1,1.5028309999997873,718.3972896,None,None,1,,,,,,,,,,,,,,203,24,Male,2022-04-27_10h52.41.715,Main,2022.1.1,59.98458396183116,
positive,yellow,2,None,k,,,,,,,,,0,184,184,184,,,,,,,,,,,,,,,,,,,,,,,,,,,,,,,,,,,,,main,k,k,1,0.8632348999999522,720.8998366999999,None,None,0,,,,,,,,,,,,,,203,24,Male,2022-04-27_10h52.41.715,Main,2022.1.1,59.98458396183116,
positive,yellow,1,None,k,,,,,,,,,0,185,185,185,,,,,,,,,,,,,,,,,,,,,,,,,,,,,,,,,,,,,main,k,k,1,1.0889197000001332,722.766161,None,None,0,,,,,,,,,,,,,,203,24,Male,2022-04-27_10h52.41.715,Main,2022.1.1,59.98458396183116,
positive,red,2,None,None,,,,,,,,,0,186,186,186,,,,,,,,,,,,,,,,,,,,,,,,,,,,,,,,,,,,,main,None,None,1,1.50958189999983,724.8589489000001,None,None,1,,,,,,,,,,,,,,203,24,Male,2022-04-27_10h52.41.715,Main,2022.1.1,59.98458396183116,
positive,blue,1,k,None,,,,,,,,,0,187,187,187,,,,,,,,,,,,,,,,,,,,,,,,,,,,,,,,,,,,,main,None,None,1,1.4942411000001812,727.3703286999998,None,None,1,,,,,,,,,,,,,,203,24,Male,2022-04-27_10h52.41.715,Main,2022.1.1,59.98458396183116,
negative,yellow,1,k,None,,,,,,,,,0,188,188,188,,,,,,,,,,,,,,,,,,,,,,,,,,,,,,,,,,,,,main,None,None,1,1.4992938999998842,729.8641615000001,None,None,1,,,,,,,,,,,,,,203,24,Male,2022-04-27_10h52.41.715,Main,2022.1.1,59.98458396183116,
positive,yellow,2,None,k,,,,,,,,,0,189,189,189,,,,,,,,,,,,,,,,,,,,,,,,,,,,,,,,,,,,,main,k,k,1,0.9945529000001443,732.3655048,None,None,0,,,,,,,,,,,,,,203,24,Male,2022-04-27_10h52.41.715,Main,2022.1.1,59.98458396183116,
negative,yellow,2,k,None,,,,,,,,,0,190,190,190,,,,,,,,,,,,,,,,,,,,,,,,,,,,,,,,,,,,,main,None,None,1,1.5132100999999238,734.3640002000002,None,None,1,,,,,,,,,,,,,,203,24,Male,2022-04-27_10h52.41.715,Main,2022.1.1,59.98458396183116,
negative,yellow,1,k,None,,,,,,,,,0,191,191,191,,,,,,,,,,,,,,,,,,,,,,,,,,,,,,,,,,,,,main,None,None,1,1.506061900000077,736.8799927999999,None,None,1,,,,,,,,,,,,,,203,24,Male,2022-04-27_10h52.41.715,Main,2022.1.1,59.98458396183116,
positive,blue,2,k,None,,,,,,,,,0,192,192,192,,,,,,,,,,,,,,,,,,,,,,,,,,,,,,,,,,,,,main,None,None,1,1.5016200000000026,739.3897028000001,None,None,1,,,,,,,,,,,,,,203,24,Male,2022-04-27_10h52.41.715,Main,2022.1.1,59.98458396183116,
positive,yellow,1,None,k,,,,,,,,,0,193,193,193,,,,,,,,,,,,,,,,,,,,,,,,,,,,,,,,,,,,,main,k,k,1,1.6746942999998282,741.892402,None,None,0,,,,,,,,,,,,,,203,24,Male,2022-04-27_10h52.41.715,Main,2022.1.1,59.98458396183116,
negative,red,2,None,None,,,,,,,,,0,194,194,194,,,,,,,,,,,,,,,,,,,,,,,,,,,,,,,,,,,,,main,None,None,1,1.4941823999997723,745.5825193000001,None,None,1,,,,,,,,,,,,,,203,24,Male,2022-04-27_10h52.41.715,Main,2022.1.1,59.98458396183116,
positive,red,1,None,None,,,,,,,,,0,195,195,195,,,,,,,,,,,,,,,,,,,,,,,,,,,,,,,,,,,,,main,None,None,1,1.511591199999657,748.0791777999998,None,None,1,,,,,,,,,,,,,,203,24,Male,2022-04-27_10h52.41.715,Main,2022.1.1,59.98458396183116,
negative,blue,1,None,k,,,,,,,,,0,196,196,196,,,,,,,,,,,,,,,,,,,,,,,,,,,,,,,,,,,,,main,k,k,1,1.2628773999999794,750.5935076999999,None,None,0,,,,,,,,,,,,,,203,24,Male,2022-04-27_10h52.41.715,Main,2022.1.1,59.98458396183116,
positive,blue,2,k,None,,,,,,,,,0,197,197,197,,,,,,,,,,,,,,,,,,,,,,,,,,,,,,,,,,,,,main,None,None,1,1.5024937999996837,752.8589204,None,None,1,,,,,,,,,,,,,,203,24,Male,2022-04-27_10h52.41.715,Main,2022.1.1,59.98458396183116,
negative,blue,2,None,k,,,,,,,,,0,198,198,198,,,,,,,,,,,,,,,,,,,,,,,,,,,,,,,,,,,,,main,k,k,1,0.9620041000002857,755.3625655000001,None,None,0,,,,,,,,,,,,,,203,24,Male,2022-04-27_10h52.41.715,Main,2022.1.1,59.98458396183116,
negative,blue,2,None,k,,,,,,,,,0,199,199,199,,,,,,,,,,,,,,,,,,,,,,,,,,,,,,,,,,,,,main,k,k,1,0.7457666999998764,757.3271329999998,None,None,0,,,,,,,,,,,,,,203,24,Male,2022-04-27_10h52.41.715,Main,2022.1.1,59.98458396183116,
positive,blue,2,k,None,,,,,,,,,0,200,200,200,,,,,,,,,,,,,,,,,,,,,,,,,,,,,,,,,,,,,main,None,None,1,1.506903300000431,759.0763013000001,None,None,1,,,,,,,,,,,,,,203,24,Male,2022-04-27_10h52.41.715,Main,2022.1.1,59.98458396183116,
positive,blue,2,k,None,,,,,,,,,0,201,201,201,,,,,,,,,,,,,,,,,,,,,,,,,,,,,,,,,,,,,main,None,None,1,1.5021221000001788,761.588436,None,None,1,,,,,,,,,,,,,,203,24,Male,2022-04-27_10h52.41.715,Main,2022.1.1,59.98458396183116,
negative,yellow,2,k,None,,,,,,,,,0,202,202,202,,,,,,,,,,,,,,,,,,,,,,,,,,,,,,,,,,,,,main,None,None,1,1.4923916999996436,764.0907280000001,None,None,1,,,,,,,,,,,,,,203,24,Male,2022-04-27_10h52.41.715,Main,2022.1.1,59.98458396183116,
positive,red,1,None,None,,,,,,,,,0,203,203,203,,,,,,,,,,,,,,,,,,,,,,,,,,,,,,,,,,,,,main,None,k,0,1.5029488000000129,766.587446,None,None,1,,,,,,,,,,,,,,203,24,Male,2022-04-27_10h52.41.715,Main,2022.1.1,59.98458396183116,
negative,blue,2,None,k,,,,,,,,,0,204,204,204,,,,,,,,,,,,,,,,,,,,,,,,,,,,,,,,,,,,,main,k,k,1,1.9327596000002814,770.0958547,None,None,0,,,,,,,,,,,,,,203,24,Male,2022-04-27_10h52.41.715,Main,2022.1.1,59.98458396183116,
negative,red,1,None,None,,,,,,,,,0,205,205,205,,,,,,,,,,,,,,,,,,,,,,,,,,,,,,,,,,,,,main,None,None,1,1.4983652000000802,774.0288215,None,None,1,,,,,,,,,,,,,,203,24,Male,2022-04-27_10h52.41.715,Main,2022.1.1,59.98458396183116,
negative,blue,2,None,k,,,,,,,,,0,206,206,206,,,,,,,,,,,,,,,,,,,,,,,,,,,,,,,,,,,,,main,k,k,1,1.7610945000001266,776.5278634000001,None,None,0,,,,,,,,,,,,,,203,24,Male,2022-04-27_10h52.41.715,Main,2022.1.1,59.98458396183116,
negative,yellow,2,k,None,,,,,,,,,0,207,207,207,,,,,,,,,,,,,,,,,,,,,,,,,,,,,,,,,,,,,main,None,None,1,1.4973768999998356,780.2946456999998,None,None,1,,,,,,,,,,,,,,203,24,Male,2022-04-27_10h52.41.715,Main,2022.1.1,59.98458396183116,
positive,yellow,2,None,k,,,,,,,,,0,208,208,208,,,,,,,,,,,,,,,,,,,,,,,,,,,,,,,,,,,,,main,k,k,1,0.7087455999999293,782.7921993999998,None,None,0,,,,,,,,,,,,,,203,24,Male,2022-04-27_10h52.41.715,Main,2022.1.1,59.98458396183116,
negative,yellow,1,k,None,,,,,,,,,0,209,209,209,,,,,,,,,,,,,,,,,,,,,,,,,,,,,,,,,,,,,main,None,None,1,1.4976963000003707,784.5041127999998,None,None,1,,,,,,,,,,,,,,203,24,Male,2022-04-27_10h52.41.715,Main,2022.1.1,59.98458396183116,
negative,red,2,None,None,,,,,,,,,0,210,210,210,,,,,,,,,,,,,,,,,,,,,,,,,,,,,,,,,,,,,main,None,None,1,1.4955282999999326,787.0029794000002,None,None,1,,,,,,,,,,,,,,203,24,Male,2022-04-27_10h52.41.715,Main,2022.1.1,59.98458396183116,
negative,blue,1,None,k,,,,,,,,,0,211,211,211,,,,,,,,,,,,,,,,,,,,,,,,,,,,,,,,,,,,,main,k,k,1,1.1789811999997255,789.5017210000001,None,None,0,,,,,,,,,,,,,,203,24,Male,2022-04-27_10h52.41.715,Main,2022.1.1,59.98458396183116,
negative,yellow,1,k,None,,,,,,,,,0,212,212,212,,,,,,,,,,,,,,,,,,,,,,,,,,,,,,,,,,,,,main,None,None,1,1.5032406000000265,791.6813262000001,None,None,1,,,,,,,,,,,,,,203,24,Male,2022-04-27_10h52.41.715,Main,2022.1.1,59.98458396183116,
positive,blue,1,k,None,,,,,,,,,0,213,213,213,,,,,,,,,,,,,,,,,,,,,,,,,,,,,,,,,,,,,main,None,None,1,1.5044103999998697,794.1857718000001,None,None,1,,,,,,,,,,,,,,203,24,Male,2022-04-27_10h52.41.715,Main,2022.1.1,59.98458396183116,
positive,blue,1,k,None,,,,,,,,,0,214,214,214,,,,,,,,,,,,,,,,,,,,,,,,,,,,,,,,,,,,,main,None,None,1,1.4988419000001159,796.6902375,None,None,1,,,,,,,,,,,,,,203,24,Male,2022-04-27_10h52.41.715,Main,2022.1.1,59.98458396183116,
positive,yellow,1,None,k,,,,,,,,,0,215,215,215,,,,,,,,,,,,,,,,,,,,,,,,,,,,,,,,,,,,,main,k,k,1,0.9534591999999975,799.1906887,None,None,0,,,,,,,,,,,,,,203,24,Male,2022-04-27_10h52.41.715,Main,2022.1.1,59.98458396183116,
positive,yellow,1,None,k,,,,,,,,,0,216,216,216,,,,,,,,,,,,,,,,,,,,,,,,,,,,,,,,,,,,,main,k,k,1,0.8280272000001787,801.1488994000001,None,None,0,,,,,,,,,,,,,,203,24,Male,2022-04-27_10h52.41.715,Main,2022.1.1,59.98458396183116,
positive,yellow,2,None,k,,,,,,,,,0,217,217,217,,,,,,,,,,,,,,,,,,,,,,,,,,,,,,,,,,,,,main,k,k,1,0.9254834000003029,802.9781951999998,None,None,0,,,,,,,,,,,,,,203,24,Male,2022-04-27_10h52.41.715,Main,2022.1.1,59.98458396183116,
negative,blue,1,None,k,,,,,,,,,0,218,218,218,,,,,,,,,,,,,,,,,,,,,,,,,,,,,,,,,,,,,main,k,k,1,1.167768299999807,804.9055947000002,None,None,0,,,,,,,,,,,,,,203,24,Male,2022-04-27_10h52.41.715,Main,2022.1.1,59.98458396183116,
positive,red,2,None,None,,,,,,,,,0,219,219,219,,,,,,,,,,,,,,,,,,,,,,,,,,,,,,,,,,,,,main,None,None,1,1.4956806999998662,807.0772827999999,None,None,1,,,,,,,,,,,,,,203,24,Male,2022-04-27_10h52.41.715,Main,2022.1.1,59.98458396183116,
positive,yellow,1,None,k,,,,,,,,,0,220,220,220,,,,,,,,,,,,,,,,,,,,,,,,,,,,,,,,,,,,,main,k,k,1,1.4611883000002308,809.5710954000001,None,None,0,,,,,,,,,,,,,,203,24,Male,2022-04-27_10h52.41.715,Main,2022.1.1,59.98458396183116,
positive,blue,1,k,None,,,,,,,,,0,221,221,221,,,,,,,,,,,,,,,,,,,,,,,,,,,,,,,,,,,,,main,None,None,1,1.5052823999999418,812.0390192999998,None,None,1,,,,,,,,,,,,,,203,24,Male,2022-04-27_10h52.41.715,Main,2022.1.1,59.98458396183116,
positive,yellow,2,None,k,,,,,,,,,0,222,222,222,,,,,,,,,,,,,,,,,,,,,,,,,,,,,,,,,,,,,main,k,k,1,1.0749413000003187,814.5444886,None,None,0,,,,,,,,,,,,,,203,24,Male,2022-04-27_10h52.41.715,Main,2022.1.1,59.98458396183116,
negative,yellow,1,k,None,,,,,,,,,0,223,223,223,,,,,,,,,,,,,,,,,,,,,,,,,,,,,,,,,,,,,main,None,None,1,1.5004705000001195,816.6208023999998,None,None,1,,,,,,,,,,,,,,203,24,Male,2022-04-27_10h52.41.715,Main,2022.1.1,59.98458396183116,
positive,yellow,2,None,k,,,,,,,,,0,224,224,224,,,,,,,,,,,,,,,,,,,,,,,,,,,,,,,,,,,,,main,k,k,1,0.9594339000000218,819.1222785,None,None,0,,,,,,,,,,,,,,203,24,Male,2022-04-27_10h52.41.715,Main,2022.1.1,59.98458396183116,
negative,yellow,2,k,None,,,,,,,,,0,225,225,225,,,,,,,,,,,,,,,,,,,,,,,,,,,,,,,,,,,,,main,None,None,1,1.5060773000000154,821.0888962999998,None,None,1,,,,,,,,,,,,,,203,24,Male,2022-04-27_10h52.41.715,Main,2022.1.1,59.98458396183116,
negative,blue,2,None,k,,,,,,,,,0,226,226,226,,,,,,,,,,,,,,,,,,,,,,,,,,,,,,,,,,,,,main,k,k,1,0.9766011000001527,823.5959205999998,None,None,0,,,,,,,,,,,,,,203,24,Male,2022-04-27_10h52.41.715,Main,2022.1.1,59.98458396183116,
positive,red,2,None,None,,,,,,,,,0,227,227,227,,,,,,,,,,,,,,,,,,,,,,,,,,,,,,,,,,,,,main,None,None,1,1.511924800000088,825.5714638,None,None,1,,,,,,,,,,,,,,203,24,Male,2022-04-27_10h52.41.715,Main,2022.1.1,59.98458396183116,
positive,blue,2,k,None,,,,,,,,,0,228,228,228,,,,,,,,,,,,,,,,,,,,,,,,,,,,,,,,,,,,,main,None,None,1,1.4990546999997605,828.0855212000001,None,None,1,,,,,,,,,,,,,,203,24,Male,2022-04-27_10h52.41.715,Main,2022.1.1,59.98458396183116,
negative,blue,1,None,k,,,,,,,,,0,229,229,229,,,,,,,,,,,,,,,,,,,,,,,,,,,,,,,,,,,,,main,k,k,1,1.1159252000002198,830.5868338999999,None,None,0,,,,,,,,,,,,,,203,24,Male,2022-04-27_10h52.41.715,Main,2022.1.1,59.98458396183116,
positive,yellow,1,None,k,,,,,,,,,0,230,230,230,,,,,,,,,,,,,,,,,,,,,,,,,,,,,,,,,,,,,main,k,k,1,0.8398334999997132,832.7067599000002,None,None,0,,,,,,,,,,,,,,203,24,Male,2022-04-27_10h52.41.715,Main,2022.1.1,59.98458396183116,
negative,blue,2,None,k,,,,,,,,,0,231,231,231,,,,,,,,,,,,,,,,,,,,,,,,,,,,,,,,,,,,,main,k,k,1,1.7294031999999788,834.5468301000001,None,None,0,,,,,,,,,,,,,,203,24,Male,2022-04-27_10h52.41.715,Main,2022.1.1,59.98458396183116,
negative,red,1,None,None,,,,,,,,,0,232,232,232,,,,,,,,,,,,,,,,,,,,,,,,,,,,,,,,,,,,,main,None,None,1,1.4984647000001132,838.2872336999999,None,None,1,,,,,,,,,,,,,,203,24,Male,2022-04-27_10h52.41.715,Main,2022.1.1,59.98458396183116,
positive,blue,2,k,None,,,,,,,,,0,233,233,233,,,,,,,,,,,,,,,,,,,,,,,,,,,,,,,,,,,,,main,None,None,1,1.5011543999999049,840.7861414999998,None,None,1,,,,,,,,,,,,,,203,24,Male,2022-04-27_10h52.41.715,Main,2022.1.1,59.98458396183116,
negative,yellow,1,k,None,,,,,,,,,0,234,234,234,,,,,,,,,,,,,,,,,,,,,,,,,,,,,,,,,,,,,main,None,None,1,1.4992394999999306,843.2905688999999,None,None,1,,,,,,,,,,,,,,203,24,Male,2022-04-27_10h52.41.715,Main,2022.1.1,59.98458396183116,
negative,yellow,2,k,None,,,,,,,,,0,235,235,235,,,,,,,,,,,,,,,,,,,,,,,,,,,,,,,,,,,,,main,None,None,1,1.4784728999998151,845.7929242999999,None,None,1,,,,,,,,,,,,,,203,24,Male,2022-04-27_10h52.41.715,Main,2022.1.1,59.98458396183116,
positive,red,1,None,None,,,,,,,,,0,236,236,236,,,,,,,,,,,,,,,,,,,,,,,,,,,,,,,,,,,,,main,None,k,0,1.5143692999999985,848.2749552999999,None,None,1,,,,,,,,,,,,,,203,24,Male,2022-04-27_10h52.41.715,Main,2022.1.1,59.98458396183116,
negative,red,2,None,None,,,,,,,,,0,237,237,237,,,,,,,,,,,,,,,,,,,,,,,,,,,,,,,,,,,,,main,None,None,1,1.5046258000002126,851.7854942999998,None,None,1,,,,,,,,,,,,,,203,24,Male,2022-04-27_10h52.41.715,Main,2022.1.1,59.98458396183116,
negative,blue,1,None,k,,,,,,,,,0,238,238,238,,,,,,,,,,,,,,,,,,,,,,,,,,,,,,,,,,,,,main,k,k,1,1.3467467000000397,854.2924634000001,None,None,0,,,,,,,,,,,,,,203,24,Male,2022-04-27_10h52.41.715,Main,2022.1.1,59.98458396183116,
positive,blue,1,k,None,,,,,,,,,0,239,239,239,,,,,,,,,,,,,,,,,,,,,,,,,,,,,,,,,,,,,main,None,None,1,1.498956299999918,856.6413391000001,None,None,1,,,,,,,,,,,,,,203,24,Male,2022-04-27_10h52.41.715,Main,2022.1.1,59.98458396183116,
,,,,,,,,,,,,,,,,,,,,,,,,,,,,,,,,,,,,,,,,,,,,,,,,,,,,,,,,,,,,,,,,,,,,,,,,,859.1327962,None,,,,,,,,
