distractor,target,set,ans1,ans2,rep_loop4.thisRepN,rep_loop4.thisTrialN,rep_loop4.thisN,rep_loop4.thisIndex,st2_prac_loop.thisRepN,st2_prac_loop.thisTrialN,st2_prac_loop.thisN,st2_prac_loop.thisIndex,st2_main_loop.thisRepN,st2_main_loop.thisTrialN,st2_main_loop.thisN,st2_main_loop.thisIndex,image_4.started,image_4.stopped,mouse_7.x,mouse_7.y,mouse_7.leftButton,mouse_7.midButton,mouse_7.rightButton,sound_2.started,sound_2.stopped,key_resp_3.keys,mouse_5.x,mouse_5.y,mouse_5.leftButton,mouse_5.midButton,mouse_5.rightButton,mouse_5.started,mouse_5.stopped,yes_text2.started,yes_text2.stopped,no_text2.started,no_text2.stopped,mouse_3.x,mouse_3.y,mouse_3.leftButton,mouse_3.midButton,mouse_3.rightButton,mouse_3.started,mouse_3.stopped,st_prac_back.started,st_prac_back.stopped,st_prac_text.started,st_prac_text.stopped,st_fix_back.started,st_fix_back.stopped,st_fix_2.started,st_fix_2.stopped,main_prac,st_ans,st_res,st_corr,st_rt,st_back.started,st_back.stopped,st2_resp.keys,st2_resp.corr,st_main_back.started,st_main_back.stopped,st_main_text.started,st_main_text.stopped,mouse_4.x,mouse_4.y,mouse_4.leftButton,mouse_4.midButton,mouse_4.rightButton,mouse_4.started,mouse_4.stopped,text_2.started,text_2.stopped,id*,age*,gender*,date,expName,psychopyVersion,frameRate,
,,,,,,,,,,,,,,,,,31.089511700000003,None,-0.11018518,0.08148148,0,0,0,,,,,,,,,,,,,,,,,,,,,,,,,,,,,,,,,,,,,,,,,,,,,,,,,,,,204,24,Male,2022-04-27_12h49.59.901,Main,2022.1.1,59.98987370933252,
negative,yellow,1,k,None,,,,,0,0,0,0,,,,,,,,,,,,39.34184908000002,None,None,0.021296296,-0.2361111,0,0,0,1.0022449000000506,None,96.50154970000017,None,96.50154970000017,None,-0.075,-0.08888889,0,0,0,0.013299780000124883,None,97.98792690000005,None,97.98792690000005,None,99.99991130000012,None,99.99991130000012,None,prac,k,k,1,2.8811133999997764,102.04853860000026,None,None,0,,,,,,,,,,,,,,204,24,Male,2022-04-27_12h49.59.901,Main,2022.1.1,59.98987370933252,
positive,red,2,None,None,,,,,0,1,1,1,,,,,,,,,,,,,,,,,,,,,,,,,,,,,,,,,,,,,,,,,prac,None,None,1,1.5041469000002508,106.95140040000001,None,None,1,,,,,,,,,,,,,,204,24,Male,2022-04-27_12h49.59.901,Main,2022.1.1,59.98987370933252,
negative,blue,2,None,k,,,,,0,2,2,2,,,,,,,,,,,,,,,,,,,,,,,,,,,,,,,,,,,,,,,,,prac,None,None,1,1.495662799999991,109.45572939999988,None,None,1,,,,,,,,,,,,,,204,24,Male,2022-04-27_12h49.59.901,Main,2022.1.1,59.98987370933252,
positive,yellow,1,None,k,,,,,0,3,3,3,,,,,,,,,,,,,,,,,,,,,,,,,,,,,,,,,,,,,,,,,prac,None,None,1,1.4950071000002936,111.94329080000011,None,None,1,,,,,,,,,,,,,,204,24,Male,2022-04-27_12h49.59.901,Main,2022.1.1,59.98987370933252,
negative,blue,2,None,k,,,,,0,4,4,4,,,,,,,,,,,,,,,,,,,,,,,,,,,,,,,,,,,,,,,,,prac,None,None,1,1.5094428000002154,114.43363250000016,None,None,1,,,,,,,,,,,,,,204,24,Male,2022-04-27_12h49.59.901,Main,2022.1.1,59.98987370933252,
negative,blue,1,None,k,,,,,0,5,5,5,,,,,,,,,,,,,,,,,,,,,,,,,,,,,,,,,,,,,,,,,prac,None,None,1,1.4976961999996092,116.94613240000012,None,None,1,,,,,,,,,,,,,,204,24,Male,2022-04-27_12h49.59.901,Main,2022.1.1,59.98987370933252,
negative,yellow,2,k,None,,,,,0,6,6,6,,,,,,,,,,,,,,,,,,,,,,,,,,,,,,,,,,,,,,,,,prac,k,k,1,2.838810100000046,119.45855450000022,None,None,0,,,,,,,,,,,,,,204,24,Male,2022-04-27_12h49.59.901,Main,2022.1.1,59.98987370933252,
negative,red,1,None,None,,,,,0,7,7,7,,,,,,,,,,,,,,,,,,,,,,,,,,,,,,,,,,,,,,,,,prac,None,None,1,1.498575300000084,124.30487890000018,None,None,1,,,,,,,,,,,,,,204,24,Male,2022-04-27_12h49.59.901,Main,2022.1.1,59.98987370933252,
positive,yellow,2,None,k,,,,,0,8,8,8,,,,,,,,,,,,,,,,,,,,,,,,,,,,,,,,,,,,,,,,,prac,None,None,1,1.5032218000001194,126.80029709999985,None,None,1,,,,,,,,,,,,,,204,24,Male,2022-04-27_12h49.59.901,Main,2022.1.1,59.98987370933252,
negative,yellow,1,k,None,,,,,0,9,9,9,,,,,,,,,,,,,,,,,,,,,,,,,,,,,,,,,,,,,,,,,prac,k,k,1,1.3247326999999132,129.3058008999999,None,None,0,,,,,,,,,,,,,,204,24,Male,2022-04-27_12h49.59.901,Main,2022.1.1,59.98987370933252,
positive,yellow,2,None,k,,,,,0,10,10,10,,,,,,,,,,,,,,,,,,,,,,,,,,,,,,,,,,,,,,,,,prac,None,None,1,1.4989807000001747,131.64040099999988,None,None,1,,,,,,,,,,,,,,204,24,Male,2022-04-27_12h49.59.901,Main,2022.1.1,59.98987370933252,
negative,yellow,2,k,None,,,,,0,11,11,11,,,,,,,,,,,,,,,,,,,,,,,,,,,,,,,,,,,,,,,,,prac,k,k,1,1.865002099999856,134.13050559999988,None,None,0,,,,,,,,,,,,,,204,24,Male,2022-04-27_12h49.59.901,Main,2022.1.1,59.98987370933252,
negative,red,2,None,None,,,,,0,12,12,12,,,,,,,,,,,,,,,,,,,,,,,,,,,,,,,,,,,,,,,,,prac,None,None,1,1.4992018999996617,138.01493159999995,None,None,1,,,,,,,,,,,,,,204,24,Male,2022-04-27_12h49.59.901,Main,2022.1.1,59.98987370933252,
positive,red,1,None,None,,,,,0,13,13,13,,,,,,,,,,,,,,,,,,,,,,,,,,,,,,,,,,,,,,,,,prac,None,None,1,1.4971292000000176,140.52509470000018,None,None,1,,,,,,,,,,,,,,204,24,Male,2022-04-27_12h49.59.901,Main,2022.1.1,59.98987370933252,
positive,blue,2,k,None,,,,,0,14,14,14,,,,,,,,,,,,,,,,,,,,,,,,,,,,,,,,,,,,,,,,,prac,k,k,1,0.9618908999996165,143.0149131999999,None,None,0,,,,,,,,,,,,,,204,24,Male,2022-04-27_12h49.59.901,Main,2022.1.1,59.98987370933252,
positive,blue,1,k,None,,,,,0,15,15,15,,,,,,,,,,,,,,,,,,,,,,,,,,,,,,,,,,,,,,,,,prac,k,k,1,1.1756422000003113,144.97967429999994,None,None,0,,,,,,,,,,,,,,204,24,Male,2022-04-27_12h49.59.901,Main,2022.1.1,59.98987370933252,
negative,blue,1,None,k,,,,,0,16,16,16,,,,,,,,,,,,,,,,,,,,,,,,,,,,,,,,,,,,,,,,,prac,None,None,1,1.5047477999996772,147.15617380000026,None,None,1,,,,,,,,,,,,,,204,24,Male,2022-04-27_12h49.59.901,Main,2022.1.1,59.98987370933252,
positive,blue,2,k,None,,,,,0,17,17,17,,,,,,,,,,,,,,,,,,,,,,,,,,,,,,,,,,,,,,,,,prac,k,k,1,0.916964900000039,149.66128300000014,None,None,0,,,,,,,,,,,,,,204,24,Male,2022-04-27_12h49.59.901,Main,2022.1.1,59.98987370933252,
positive,blue,1,k,None,,,,,0,18,18,18,,,,,,,,,,,,,,,,,,,,,,,,,,,,,,,,,,,,,,,,,prac,k,k,1,1.2197978999997758,151.5794782999999,None,None,0,,,,,,,,,,,,,,204,24,Male,2022-04-27_12h49.59.901,Main,2022.1.1,59.98987370933252,
positive,yellow,1,None,k,,,,,0,19,19,19,,,,,,,,,,,,,,,,,,,,,,,,,,,,,,,,,,,,,,,,,prac,None,None,1,1.4970886999999493,153.80370730000027,None,None,1,,,,,,,,,,,,,,204,24,Male,2022-04-27_12h49.59.901,Main,2022.1.1,59.98987370933252,
negative,yellow,1,k,None,,,,,1,0,20,0,,,,,,,,,,,,,,,,,,,,,,,,,,,,,,,,,,,,,,,,,prac,k,k,1,0.8285261000000901,156.30217730000027,None,None,0,,,,,,,,,,,,,,204,24,Male,2022-04-27_12h49.59.901,Main,2022.1.1,59.98987370933252,
positive,red,2,None,None,,,,,1,1,21,1,,,,,,,,,,,,,,,,,,,,,,,,,,,,,,,,,,,,,,,,,prac,None,None,1,1.5130942000000687,158.13303470000005,None,None,1,,,,,,,,,,,,,,204,24,Male,2022-04-27_12h49.59.901,Main,2022.1.1,59.98987370933252,
negative,blue,2,None,k,,,,,1,2,22,2,,,,,,,,,,,,,,,,,,,,,,,,,,,,,,,,,,,,,,,,,prac,None,None,1,1.5096771999997145,160.64495490000013,None,None,1,,,,,,,,,,,,,,204,24,Male,2022-04-27_12h49.59.901,Main,2022.1.1,59.98987370933252,
positive,yellow,1,None,k,,,,,1,3,23,3,,,,,,,,,,,,,,,,,,,,,,,,,,,,,,,,,,,,,,,,,prac,None,None,1,1.4965148999999656,163.15811559999997,None,None,1,,,,,,,,,,,,,,204,24,Male,2022-04-27_12h49.59.901,Main,2022.1.1,59.98987370933252,
negative,blue,2,None,k,,,,,1,4,24,4,,,,,,,,,,,,,,,,,,,,,,,,,,,,,,,,,,,,,,,,,prac,None,None,1,1.498895900000207,165.6578049000002,None,None,1,,,,,,,,,,,,,,204,24,Male,2022-04-27_12h49.59.901,Main,2022.1.1,59.98987370933252,
negative,blue,1,None,k,,,,,1,5,25,5,,,,,,,,,,,,,,,,,,,,,,,,,,,,,,,,,,,,,,,,,prac,None,None,1,1.5090190999999322,168.15848960000017,None,None,1,,,,,,,,,,,,,,204,24,Male,2022-04-27_12h49.59.901,Main,2022.1.1,59.98987370933252,
negative,yellow,2,k,None,,,,,1,6,26,6,,,,,,,,,,,,,,,,,,,,,,,,,,,,,,,,,,,,,,,,,prac,k,k,1,1.1983156000001145,170.67043219999982,None,None,0,,,,,,,,,,,,,,204,24,Male,2022-04-27_12h49.59.901,Main,2022.1.1,59.98987370933252,
negative,red,1,None,None,,,,,1,7,27,7,,,,,,,,,,,,,,,,,,,,,,,,,,,,,,,,,,,,,,,,,prac,None,None,1,1.504836399999931,172.86993730000017,None,None,1,,,,,,,,,,,,,,204,24,Male,2022-04-27_12h49.59.901,Main,2022.1.1,59.98987370933252,
positive,yellow,2,None,k,,,,,1,8,28,8,,,,,,,,,,,,,,,,,,,,,,,,,,,,,,,,,,,,,,,,,prac,None,None,1,1.5038927999999032,175.37568699999997,None,None,1,,,,,,,,,,,,,,204,24,Male,2022-04-27_12h49.59.901,Main,2022.1.1,59.98987370933252,
negative,yellow,1,k,None,,,,,1,9,29,9,,,,,,,,,,,,,,,,,,,,,,,,,,,,,,,,,,,,,,,,,prac,k,k,1,0.8649927000001298,177.8835034000001,None,None,0,,,,,,,,,,,,,,204,24,Male,2022-04-27_12h49.59.901,Main,2022.1.1,59.98987370933252,
positive,yellow,2,None,k,,,,,1,10,30,10,,,,,,,,,,,,,,,,,,,,,,,,,,,,,,,,,,,,,,,,,prac,None,None,1,1.5075586000002659,179.75040700000022,None,None,1,,,,,,,,,,,,,,204,24,Male,2022-04-27_12h49.59.901,Main,2022.1.1,59.98987370933252,
negative,yellow,2,k,None,,,,,1,11,31,11,,,,,,,,,,,,,,,,,,,,,,,,,,,,,,,,,,,,,,,,,prac,k,k,1,0.9654399999999441,182.25614689999998,None,None,0,,,,,,,,,,,,,,204,24,Male,2022-04-27_12h49.59.901,Main,2022.1.1,59.98987370933252,
negative,red,2,None,None,,,,,1,12,32,12,,,,,,,,,,,,,,,,,,,,,,,,,,,,,,,,,,,,,,,,,prac,None,None,1,1.5103649999996378,184.22270670000012,None,None,1,,,,,,,,,,,,,,204,24,Male,2022-04-27_12h49.59.901,Main,2022.1.1,59.98987370933252,
positive,red,1,None,None,,,,,1,13,33,13,,,,,,,,,,,,,,,,,,,,,,,,,,,,,,,,,,,,,,,,,prac,None,None,1,1.5032667000000401,186.73635720000016,None,None,1,,,,,,,,,,,,,,204,24,Male,2022-04-27_12h49.59.901,Main,2022.1.1,59.98987370933252,
positive,blue,2,k,None,,,,,1,14,34,14,,,,,,,,,,,,,,,,,,,,,,,,,,,,,,,,,,,,,,,,,prac,k,k,1,0.7991436000002068,189.24343590000012,None,None,0,,,,,,,,,,,,,,204,24,Male,2022-04-27_12h49.59.901,Main,2022.1.1,59.98987370933252,
positive,blue,1,k,None,,,,,1,15,35,15,,,,,,,,,,,,,,,,,,,,,,,,,,,,,,,,,,,,,,,,,prac,k,k,1,0.9329882000001817,191.04168719999984,None,None,0,,,,,,,,,,,,,,204,24,Male,2022-04-27_12h49.59.901,Main,2022.1.1,59.98987370933252,
negative,blue,1,None,k,,,,,1,16,36,16,,,,,,,,,,,,,,,,,,,,,,,,,,,,,,,,,,,,,,,,,prac,None,None,1,1.5113591000003908,192.9800286000002,None,None,1,,,,,,,,,,,,,,204,24,Male,2022-04-27_12h49.59.901,Main,2022.1.1,59.98987370933252,
positive,blue,2,k,None,,,,,1,17,37,17,,,,,,,,,,,,,,,,,,,,,,,,,,,,,,,,,,,,,,,,,prac,k,k,1,0.9651615000002494,195.4883983000002,None,None,0,,,,,,,,,,,,,,204,24,Male,2022-04-27_12h49.59.901,Main,2022.1.1,59.98987370933252,
positive,blue,1,k,None,,,,,1,18,38,18,,,,,,,,,,,,,,,,,,,,,,,,,,,,,,,,,,,,,,,,,prac,k,k,1,1.036639599999944,197.45565150000016,None,None,0,,,,,,,,,,,,,,204,24,Male,2022-04-27_12h49.59.901,Main,2022.1.1,59.98987370933252,
positive,yellow,1,None,k,,,,,1,19,39,19,,,,,,,,,,,,,,,,,,,,,,,,,,,,,,,,,,,,,,,,,prac,None,None,1,1.5007901999997557,199.49631280000017,None,None,1,,,,,,,,,,,,,,204,24,Male,2022-04-27_12h49.59.901,Main,2022.1.1,59.98987370933252,
,,,,,,,,,,,,,,,,,,,,,,,,,,,,,,,,,,,,,,,,,,,,,,,,,,,,,,,,,,,,,,202.0112114000001,None,202.0112114000001,None,0.0018518518,-0.16851851,0,0,0,0.012026979999973264,None,,,204,24,Male,2022-04-27_12h49.59.901,Main,2022.1.1,59.98987370933252,
negative,yellow,2,k,None,,,,,,,,,0,0,0,0,,,,,,,,,,,,,,,,,,,,,,,,,,,,,,,,,211.75421829999982,None,211.75421829999982,None,main,k,k,1,0.9290633000000525,213.82775400000014,None,None,0,,,,,,,,,,,,,,204,24,Male,2022-04-27_12h49.59.901,Main,2022.1.1,59.98987370933252,
positive,red,1,None,None,,,,,,,,,0,1,1,1,,,,,,,,,,,,,,,,,,,,,,,,,,,,,,,,,,,,,main,None,None,1,1.5114002999998775,215.75984549999998,None,None,1,,,,,,,,,,,,,,204,24,Male,2022-04-27_12h49.59.901,Main,2022.1.1,59.98987370933252,
positive,blue,2,k,None,,,,,,,,,0,2,2,2,,,,,,,,,,,,,,,,,,,,,,,,,,,,,,,,,,,,,main,k,k,1,0.7973715999996784,218.2708338,None,None,0,,,,,,,,,,,,,,204,24,Male,2022-04-27_12h49.59.901,Main,2022.1.1,59.98987370933252,
positive,blue,1,k,None,,,,,,,,,0,3,3,3,,,,,,,,,,,,,,,,,,,,,,,,,,,,,,,,,,,,,main,k,k,1,0.7840000999999575,220.0716192000002,None,None,0,,,,,,,,,,,,,,204,24,Male,2022-04-27_12h49.59.901,Main,2022.1.1,59.98987370933252,
negative,yellow,2,k,None,,,,,,,,,0,4,4,4,,,,,,,,,,,,,,,,,,,,,,,,,,,,,,,,,,,,,main,k,k,1,0.8960744000000886,221.8572299,None,None,0,,,,,,,,,,,,,,204,24,Male,2022-04-27_12h49.59.901,Main,2022.1.1,59.98987370933252,
positive,yellow,2,None,k,,,,,,,,,0,5,5,5,,,,,,,,,,,,,,,,,,,,,,,,,,,,,,,,,,,,,main,None,None,1,1.511549500000001,223.75308229999996,None,None,1,,,,,,,,,,,,,,204,24,Male,2022-04-27_12h49.59.901,Main,2022.1.1,59.98987370933252,
negative,blue,2,None,k,,,,,,,,,0,6,6,6,,,,,,,,,,,,,,,,,,,,,,,,,,,,,,,,,,,,,main,None,None,1,1.509854599999926,226.2675726,None,None,1,,,,,,,,,,,,,,204,24,Male,2022-04-27_12h49.59.901,Main,2022.1.1,59.98987370933252,
positive,red,2,None,None,,,,,,,,,0,7,7,7,,,,,,,,,,,,,,,,,,,,,,,,,,,,,,,,,,,,,main,None,None,1,1.5054850999999871,228.77979500000015,None,None,1,,,,,,,,,,,,,,204,24,Male,2022-04-27_12h49.59.901,Main,2022.1.1,59.98987370933252,
positive,yellow,1,None,k,,,,,,,,,0,8,8,8,,,,,,,,,,,,,,,,,,,,,,,,,,,,,,,,,,,,,main,None,None,1,1.498880200000258,231.28471550000017,None,None,1,,,,,,,,,,,,,,204,24,Male,2022-04-27_12h49.59.901,Main,2022.1.1,59.98987370933252,
negative,red,1,None,None,,,,,,,,,0,9,9,9,,,,,,,,,,,,,,,,,,,,,,,,,,,,,,,,,,,,,main,None,None,1,1.4955175000000054,233.7874921,None,None,1,,,,,,,,,,,,,,204,24,Male,2022-04-27_12h49.59.901,Main,2022.1.1,59.98987370933252,
positive,yellow,1,None,k,,,,,,,,,0,10,10,10,,,,,,,,,,,,,,,,,,,,,,,,,,,,,,,,,,,,,main,None,None,1,1.5099749000000884,236.28236949999996,None,None,1,,,,,,,,,,,,,,204,24,Male,2022-04-27_12h49.59.901,Main,2022.1.1,59.98987370933252,
negative,yellow,1,k,None,,,,,,,,,0,11,11,11,,,,,,,,,,,,,,,,,,,,,,,,,,,,,,,,,,,,,main,k,k,1,0.8113296000001355,238.79513370000018,None,None,0,,,,,,,,,,,,,,204,24,Male,2022-04-27_12h49.59.901,Main,2022.1.1,59.98987370933252,
negative,yellow,1,k,None,,,,,,,,,0,12,12,12,,,,,,,,,,,,,,,,,,,,,,,,,,,,,,,,,,,,,main,k,k,1,1.1753358000000844,240.6088569000001,None,None,0,,,,,,,,,,,,,,204,24,Male,2022-04-27_12h49.59.901,Main,2022.1.1,59.98987370933252,
negative,red,2,None,None,,,,,,,,,0,13,13,13,,,,,,,,,,,,,,,,,,,,,,,,,,,,,,,,,,,,,main,None,None,1,1.5008996999999908,242.78505299999983,None,None,1,,,,,,,,,,,,,,204,24,Male,2022-04-27_12h49.59.901,Main,2022.1.1,59.98987370933252,
positive,yellow,2,None,k,,,,,,,,,0,14,14,14,,,,,,,,,,,,,,,,,,,,,,,,,,,,,,,,,,,,,main,None,None,1,1.4975710000003346,245.28899639999986,None,None,1,,,,,,,,,,,,,,204,24,Male,2022-04-27_12h49.59.901,Main,2022.1.1,59.98987370933252,
positive,blue,1,k,None,,,,,,,,,0,15,15,15,,,,,,,,,,,,,,,,,,,,,,,,,,,,,,,,,,,,,main,k,k,1,0.7688294999998107,247.78821949999997,None,None,0,,,,,,,,,,,,,,204,24,Male,2022-04-27_12h49.59.901,Main,2022.1.1,59.98987370933252,
negative,blue,1,None,k,,,,,,,,,0,16,16,16,,,,,,,,,,,,,,,,,,,,,,,,,,,,,,,,,,,,,main,None,None,1,1.4952214999998432,249.5582826000002,None,None,1,,,,,,,,,,,,,,204,24,Male,2022-04-27_12h49.59.901,Main,2022.1.1,59.98987370933252,
positive,blue,2,k,None,,,,,,,,,0,17,17,17,,,,,,,,,,,,,,,,,,,,,,,,,,,,,,,,,,,,,main,k,k,1,0.7488870000001953,252.05468739999992,None,None,0,,,,,,,,,,,,,,204,24,Male,2022-04-27_12h49.59.901,Main,2022.1.1,59.98987370933252,
negative,blue,2,None,k,,,,,,,,,0,18,18,18,,,,,,,,,,,,,,,,,,,,,,,,,,,,,,,,,,,,,main,None,None,1,1.49911689999999,253.80755079999994,None,None,1,,,,,,,,,,,,,,204,24,Male,2022-04-27_12h49.59.901,Main,2022.1.1,59.98987370933252,
negative,blue,1,None,k,,,,,,,,,0,19,19,19,,,,,,,,,,,,,,,,,,,,,,,,,,,,,,,,,,,,,main,None,None,1,1.4979178999997202,256.30613289999997,None,None,1,,,,,,,,,,,,,,204,24,Male,2022-04-27_12h49.59.901,Main,2022.1.1,59.98987370933252,
negative,blue,1,None,k,,,,,,,,,0,20,20,20,,,,,,,,,,,,,,,,,,,,,,,,,,,,,,,,,,,,,main,None,None,1,1.5075897000001532,258.80591770000024,None,None,1,,,,,,,,,,,,,,204,24,Male,2022-04-27_12h49.59.901,Main,2022.1.1,59.98987370933252,
negative,blue,2,None,k,,,,,,,,,0,21,21,21,,,,,,,,,,,,,,,,,,,,,,,,,,,,,,,,,,,,,main,None,None,1,1.4954367000000275,261.31258980000007,None,None,1,,,,,,,,,,,,,,204,24,Male,2022-04-27_12h49.59.901,Main,2022.1.1,59.98987370933252,
negative,red,1,None,None,,,,,,,,,0,22,22,22,,,,,,,,,,,,,,,,,,,,,,,,,,,,,,,,,,,,,main,None,None,1,1.5054291999999805,263.81158849999997,None,None,1,,,,,,,,,,,,,,204,24,Male,2022-04-27_12h49.59.901,Main,2022.1.1,59.98987370933252,
positive,red,2,None,None,,,,,,,,,0,23,23,23,,,,,,,,,,,,,,,,,,,,,,,,,,,,,,,,,,,,,main,None,None,1,1.5106485999999677,266.320066,None,None,1,,,,,,,,,,,,,,204,24,Male,2022-04-27_12h49.59.901,Main,2022.1.1,59.98987370933252,
negative,red,2,None,None,,,,,,,,,0,24,24,24,,,,,,,,,,,,,,,,,,,,,,,,,,,,,,,,,,,,,main,None,None,1,1.4966586000000461,268.8301809000002,None,None,1,,,,,,,,,,,,,,204,24,Male,2022-04-27_12h49.59.901,Main,2022.1.1,59.98987370933252,
positive,blue,2,k,None,,,,,,,,,0,25,25,25,,,,,,,,,,,,,,,,,,,,,,,,,,,,,,,,,,,,,main,k,k,1,0.8169369000002007,271.3288808,None,None,0,,,,,,,,,,,,,,204,24,Male,2022-04-27_12h49.59.901,Main,2022.1.1,59.98987370933252,
negative,yellow,1,k,None,,,,,,,,,0,26,26,26,,,,,,,,,,,,,,,,,,,,,,,,,,,,,,,,,,,,,main,k,k,1,0.823337199999969,273.1479563999999,None,None,0,,,,,,,,,,,,,,204,24,Male,2022-04-27_12h49.59.901,Main,2022.1.1,59.98987370933252,
positive,blue,2,k,None,,,,,,,,,0,27,27,27,,,,,,,,,,,,,,,,,,,,,,,,,,,,,,,,,,,,,main,k,k,1,0.7929502000001776,274.9745135999999,None,None,0,,,,,,,,,,,,,,204,24,Male,2022-04-27_12h49.59.901,Main,2022.1.1,59.98987370933252,
negative,blue,2,None,k,,,,,,,,,0,28,28,28,,,,,,,,,,,,,,,,,,,,,,,,,,,,,,,,,,,,,main,None,None,1,1.504854300000261,276.7697553999999,None,None,1,,,,,,,,,,,,,,204,24,Male,2022-04-27_12h49.59.901,Main,2022.1.1,59.98987370933252,
positive,red,1,None,None,,,,,,,,,0,29,29,29,,,,,,,,,,,,,,,,,,,,,,,,,,,,,,,,,,,,,main,None,None,1,1.5051354000001993,279.27531410000006,None,None,1,,,,,,,,,,,,,,204,24,Male,2022-04-27_12h49.59.901,Main,2022.1.1,59.98987370933252,
positive,blue,1,k,None,,,,,,,,,0,30,30,30,,,,,,,,,,,,,,,,,,,,,,,,,,,,,,,,,,,,,main,k,k,1,0.7627739999998084,281.7842800000001,None,None,0,,,,,,,,,,,,,,204,24,Male,2022-04-27_12h49.59.901,Main,2022.1.1,59.98987370933252,
positive,yellow,1,None,k,,,,,,,,,0,31,31,31,,,,,,,,,,,,,,,,,,,,,,,,,,,,,,,,,,,,,main,None,None,1,1.5123014000000694,283.55027270000005,None,None,1,,,,,,,,,,,,,,204,24,Male,2022-04-27_12h49.59.901,Main,2022.1.1,59.98987370933252,
negative,yellow,2,k,None,,,,,,,,,0,32,32,32,,,,,,,,,,,,,,,,,,,,,,,,,,,,,,,,,,,,,main,k,k,1,0.94161559999975,286.0640122000002,None,None,0,,,,,,,,,,,,,,204,24,Male,2022-04-27_12h49.59.901,Main,2022.1.1,59.98987370933252,
negative,blue,1,None,k,,,,,,,,,0,33,33,33,,,,,,,,,,,,,,,,,,,,,,,,,,,,,,,,,,,,,main,None,None,1,1.4957213000002412,288.0063412000002,None,None,1,,,,,,,,,,,,,,204,24,Male,2022-04-27_12h49.59.901,Main,2022.1.1,59.98987370933252,
positive,blue,1,k,None,,,,,,,,,0,34,34,34,,,,,,,,,,,,,,,,,,,,,,,,,,,,,,,,,,,,,main,k,k,1,0.7891545000002225,290.5031123000001,None,None,0,,,,,,,,,,,,,,204,24,Male,2022-04-27_12h49.59.901,Main,2022.1.1,59.98987370933252,
negative,yellow,1,k,None,,,,,,,,,0,35,35,35,,,,,,,,,,,,,,,,,,,,,,,,,,,,,,,,,,,,,main,k,k,1,0.7386664000000565,292.2921862999999,None,None,0,,,,,,,,,,,,,,204,24,Male,2022-04-27_12h49.59.901,Main,2022.1.1,59.98987370933252,
positive,yellow,2,None,k,,,,,,,,,0,36,36,36,,,,,,,,,,,,,,,,,,,,,,,,,,,,,,,,,,,,,main,None,None,1,1.511784599999828,294.0354227,None,None,1,,,,,,,,,,,,,,204,24,Male,2022-04-27_12h49.59.901,Main,2022.1.1,59.98987370933252,
positive,yellow,2,None,k,,,,,,,,,0,37,37,37,,,,,,,,,,,,,,,,,,,,,,,,,,,,,,,,,,,,,main,None,None,1,1.4951660000001539,296.54881420000015,None,None,1,,,,,,,,,,,,,,204,24,Male,2022-04-27_12h49.59.901,Main,2022.1.1,59.98987370933252,
negative,yellow,2,k,None,,,,,,,,,0,38,38,38,,,,,,,,,,,,,,,,,,,,,,,,,,,,,,,,,,,,,main,k,k,1,0.8684250000001157,299.04310850000024,None,None,0,,,,,,,,,,,,,,204,24,Male,2022-04-27_12h49.59.901,Main,2022.1.1,59.98987370933252,
positive,yellow,1,None,k,,,,,,,,,0,39,39,39,,,,,,,,,,,,,,,,,,,,,,,,,,,,,,,,,,,,,main,None,None,1,1.5068249999999352,300.9154946000001,None,None,1,,,,,,,,,,,,,,204,24,Male,2022-04-27_12h49.59.901,Main,2022.1.1,59.98987370933252,
negative,yellow,2,k,None,,,,,,,,,0,40,40,40,,,,,,,,,,,,,,,,,,,,,,,,,,,,,,,,,,,,,main,k,k,1,0.8700411000004351,303.42305999999985,None,None,0,,,,,,,,,,,,,,204,24,Male,2022-04-27_12h49.59.901,Main,2022.1.1,59.98987370933252,
positive,blue,2,k,None,,,,,,,,,0,41,41,41,,,,,,,,,,,,,,,,,,,,,,,,,,,,,,,,,,,,,main,k,k,1,0.8212474000001748,305.29489979999994,None,None,0,,,,,,,,,,,,,,204,24,Male,2022-04-27_12h49.59.901,Main,2022.1.1,59.98987370933252,
positive,blue,2,k,None,,,,,,,,,0,42,42,42,,,,,,,,,,,,,,,,,,,,,,,,,,,,,,,,,,,,,main,k,k,1,0.7253123000000414,307.1192543999998,None,None,0,,,,,,,,,,,,,,204,24,Male,2022-04-27_12h49.59.901,Main,2022.1.1,59.98987370933252,
negative,blue,2,None,k,,,,,,,,,0,43,43,43,,,,,,,,,,,,,,,,,,,,,,,,,,,,,,,,,,,,,main,None,None,1,1.5096195999999509,308.84727020000014,None,None,1,,,,,,,,,,,,,,204,24,Male,2022-04-27_12h49.59.901,Main,2022.1.1,59.98987370933252,
negative,red,1,None,None,,,,,,,,,0,44,44,44,,,,,,,,,,,,,,,,,,,,,,,,,,,,,,,,,,,,,main,None,None,1,1.5015097000000424,311.3563956999999,None,None,1,,,,,,,,,,,,,,204,24,Male,2022-04-27_12h49.59.901,Main,2022.1.1,59.98987370933252,
negative,yellow,1,k,None,,,,,,,,,0,45,45,45,,,,,,,,,,,,,,,,,,,,,,,,,,,,,,,,,,,,,main,k,k,1,0.7676369999999224,313.8616721000001,None,None,0,,,,,,,,,,,,,,204,24,Male,2022-04-27_12h49.59.901,Main,2022.1.1,59.98987370933252,
negative,yellow,1,k,None,,,,,,,,,0,46,46,46,,,,,,,,,,,,,,,,,,,,,,,,,,,,,,,,,,,,,main,k,k,1,0.7495272000001023,315.6311297,None,None,0,,,,,,,,,,,,,,204,24,Male,2022-04-27_12h49.59.901,Main,2022.1.1,59.98987370933252,
positive,red,1,None,None,,,,,,,,,0,47,47,47,,,,,,,,,,,,,,,,,,,,,,,,,,,,,,,,,,,,,main,None,None,1,1.4967114000000947,317.3824926,None,None,1,,,,,,,,,,,,,,204,24,Male,2022-04-27_12h49.59.901,Main,2022.1.1,59.98987370933252,
positive,yellow,1,None,k,,,,,,,,,0,48,48,48,,,,,,,,,,,,,,,,,,,,,,,,,,,,,,,,,,,,,main,None,None,1,1.5036780999998882,319.88001770000005,None,None,1,,,,,,,,,,,,,,204,24,Male,2022-04-27_12h49.59.901,Main,2022.1.1,59.98987370933252,
negative,blue,1,None,k,,,,,,,,,0,49,49,49,,,,,,,,,,,,,,,,,,,,,,,,,,,,,,,,,,,,,main,None,None,1,1.496650800000225,322.38578459999985,None,None,1,,,,,,,,,,,,,,204,24,Male,2022-04-27_12h49.59.901,Main,2022.1.1,59.98987370933252,
positive,yellow,2,None,k,,,,,,,,,0,50,50,50,,,,,,,,,,,,,,,,,,,,,,,,,,,,,,,,,,,,,main,None,None,1,1.5018411999999444,324.88358059999996,None,None,1,,,,,,,,,,,,,,204,24,Male,2022-04-27_12h49.59.901,Main,2022.1.1,59.98987370933252,
negative,blue,1,None,k,,,,,,,,,0,51,51,51,,,,,,,,,,,,,,,,,,,,,,,,,,,,,,,,,,,,,main,None,None,1,1.5071051999998417,327.3862799000001,None,None,1,,,,,,,,,,,,,,204,24,Male,2022-04-27_12h49.59.901,Main,2022.1.1,59.98987370933252,
positive,red,2,None,None,,,,,,,,,0,52,52,52,,,,,,,,,,,,,,,,,,,,,,,,,,,,,,,,,,,,,main,None,None,1,1.4966106000001673,329.89700730000027,None,None,1,,,,,,,,,,,,,,204,24,Male,2022-04-27_12h49.59.901,Main,2022.1.1,59.98987370933252,
positive,yellow,2,None,k,,,,,,,,,0,53,53,53,,,,,,,,,,,,,,,,,,,,,,,,,,,,,,,,,,,,,main,None,None,1,1.504658400000153,332.3949562,None,None,1,,,,,,,,,,,,,,204,24,Male,2022-04-27_12h49.59.901,Main,2022.1.1,59.98987370933252,
negative,red,2,None,None,,,,,,,,,0,54,54,54,,,,,,,,,,,,,,,,,,,,,,,,,,,,,,,,,,,,,main,None,None,1,1.5044385000001057,334.90153140000007,None,None,1,,,,,,,,,,,,,,204,24,Male,2022-04-27_12h49.59.901,Main,2022.1.1,59.98987370933252,
positive,yellow,1,None,k,,,,,,,,,0,55,55,55,,,,,,,,,,,,,,,,,,,,,,,,,,,,,,,,,,,,,main,None,None,1,1.49469739999995,337.4092412000002,None,None,1,,,,,,,,,,,,,,204,24,Male,2022-04-27_12h49.59.901,Main,2022.1.1,59.98987370933252,
negative,blue,2,None,k,,,,,,,,,0,56,56,56,,,,,,,,,,,,,,,,,,,,,,,,,,,,,,,,,,,,,main,None,None,1,1.5114211999998588,339.9037214000002,None,None,1,,,,,,,,,,,,,,204,24,Male,2022-04-27_12h49.59.901,Main,2022.1.1,59.98987370933252,
positive,blue,1,k,None,,,,,,,,,0,57,57,57,,,,,,,,,,,,,,,,,,,,,,,,,,,,,,,,,,,,,main,k,k,1,0.7097933999998531,342.41987429999995,None,None,0,,,,,,,,,,,,,,204,24,Male,2022-04-27_12h49.59.901,Main,2022.1.1,59.98987370933252,
positive,blue,1,k,None,,,,,,,,,0,58,58,58,,,,,,,,,,,,,,,,,,,,,,,,,,,,,,,,,,,,,main,k,k,1,1.2057338999998137,344.1331974000002,None,None,0,,,,,,,,,,,,,,204,24,Male,2022-04-27_12h49.59.901,Main,2022.1.1,59.98987370933252,
negative,yellow,2,k,None,,,,,,,,,0,59,59,59,,,,,,,,,,,,,,,,,,,,,,,,,,,,,,,,,,,,,main,k,k,1,0.8241009000003032,346.34171070000025,None,None,0,,,,,,,,,,,,,,204,24,Male,2022-04-27_12h49.59.901,Main,2022.1.1,59.98987370933252,
positive,red,2,None,None,,,,,,,,,0,60,60,60,,,,,,,,,,,,,,,,,,,,,,,,,,,,,,,,,,,,,main,None,None,1,1.5074853000000985,348.1693026999999,None,None,1,,,,,,,,,,,,,,204,24,Male,2022-04-27_12h49.59.901,Main,2022.1.1,59.98987370933252,
negative,yellow,1,k,None,,,,,,,,,0,61,61,61,,,,,,,,,,,,,,,,,,,,,,,,,,,,,,,,,,,,,main,k,k,1,0.8445857000001524,350.67749770000023,None,None,0,,,,,,,,,,,,,,204,24,Male,2022-04-27_12h49.59.901,Main,2022.1.1,59.98987370933252,
negative,red,1,None,None,,,,,,,,,0,62,62,62,,,,,,,,,,,,,,,,,,,,,,,,,,,,,,,,,,,,,main,None,None,1,1.501528700000108,352.5235642,None,None,1,,,,,,,,,,,,,,204,24,Male,2022-04-27_12h49.59.901,Main,2022.1.1,59.98987370933252,
negative,blue,1,None,k,,,,,,,,,0,63,63,63,,,,,,,,,,,,,,,,,,,,,,,,,,,,,,,,,,,,,main,None,None,1,1.5107692999999927,355.02667399999996,None,None,1,,,,,,,,,,,,,,204,24,Male,2022-04-27_12h49.59.901,Main,2022.1.1,59.98987370933252,
positive,blue,2,k,None,,,,,,,,,0,64,64,64,,,,,,,,,,,,,,,,,,,,,,,,,,,,,,,,,,,,,main,k,k,1,0.8075659999999516,357.53811199999996,None,None,0,,,,,,,,,,,,,,204,24,Male,2022-04-27_12h49.59.901,Main,2022.1.1,59.98987370933252,
negative,yellow,2,k,None,,,,,,,,,0,65,65,65,,,,,,,,,,,,,,,,,,,,,,,,,,,,,,,,,,,,,main,k,k,1,0.8143529999997554,359.3469032999999,None,None,0,,,,,,,,,,,,,,204,24,Male,2022-04-27_12h49.59.901,Main,2022.1.1,59.98987370933252,
positive,yellow,2,None,k,,,,,,,,,0,66,66,66,,,,,,,,,,,,,,,,,,,,,,,,,,,,,,,,,,,,,main,None,None,1,1.504345999999714,361.1628143999999,None,None,1,,,,,,,,,,,,,,204,24,Male,2022-04-27_12h49.59.901,Main,2022.1.1,59.98987370933252,
positive,yellow,2,None,k,,,,,,,,,0,67,67,67,,,,,,,,,,,,,,,,,,,,,,,,,,,,,,,,,,,,,main,None,None,1,1.5071289000002253,363.6675195,None,None,1,,,,,,,,,,,,,,204,24,Male,2022-04-27_12h49.59.901,Main,2022.1.1,59.98987370933252,
positive,red,1,None,None,,,,,,,,,0,68,68,68,,,,,,,,,,,,,,,,,,,,,,,,,,,,,,,,,,,,,main,None,None,1,1.4929859999997461,366.17782680000005,None,None,1,,,,,,,,,,,,,,204,24,Male,2022-04-27_12h49.59.901,Main,2022.1.1,59.98987370933252,
positive,yellow,1,None,k,,,,,,,,,0,69,69,69,,,,,,,,,,,,,,,,,,,,,,,,,,,,,,,,,,,,,main,None,None,1,1.49500530000023,368.6721850000001,None,None,1,,,,,,,,,,,,,,204,24,Male,2022-04-27_12h49.59.901,Main,2022.1.1,59.98987370933252,
negative,yellow,2,k,None,,,,,,,,,0,70,70,70,,,,,,,,,,,,,,,,,,,,,,,,,,,,,,,,,,,,,main,k,k,1,0.820001499999762,371.1674909000001,None,None,0,,,,,,,,,,,,,,204,24,Male,2022-04-27_12h49.59.901,Main,2022.1.1,59.98987370933252,
positive,yellow,1,None,k,,,,,,,,,0,71,71,71,,,,,,,,,,,,,,,,,,,,,,,,,,,,,,,,,,,,,main,None,None,1,1.509303700000146,372.99121309999987,None,None,1,,,,,,,,,,,,,,204,24,Male,2022-04-27_12h49.59.901,Main,2022.1.1,59.98987370933252,
negative,blue,1,None,k,,,,,,,,,0,72,72,72,,,,,,,,,,,,,,,,,,,,,,,,,,,,,,,,,,,,,main,None,None,1,1.5047153000000435,375.50189179999984,None,None,1,,,,,,,,,,,,,,204,24,Male,2022-04-27_12h49.59.901,Main,2022.1.1,59.98987370933252,
negative,red,2,None,None,,,,,,,,,0,73,73,73,,,,,,,,,,,,,,,,,,,,,,,,,,,,,,,,,,,,,main,None,None,1,1.5066538999999466,378.00830120000023,None,None,1,,,,,,,,,,,,,,204,24,Male,2022-04-27_12h49.59.901,Main,2022.1.1,59.98987370933252,
positive,blue,2,k,None,,,,,,,,,0,74,74,74,,,,,,,,,,,,,,,,,,,,,,,,,,,,,,,,,,,,,main,k,k,1,0.7253977999998824,380.51468150000005,None,None,0,,,,,,,,,,,,,,204,24,Male,2022-04-27_12h49.59.901,Main,2022.1.1,59.98987370933252,
negative,blue,2,None,k,,,,,,,,,0,75,75,75,,,,,,,,,,,,,,,,,,,,,,,,,,,,,,,,,,,,,main,None,None,1,1.4993371999999,382.24190780000004,None,None,1,,,,,,,,,,,,,,204,24,Male,2022-04-27_12h49.59.901,Main,2022.1.1,59.98987370933252,
negative,blue,2,None,k,,,,,,,,,0,76,76,76,,,,,,,,,,,,,,,,,,,,,,,,,,,,,,,,,,,,,main,None,None,1,1.5122021999995923,384.7447909,None,None,1,,,,,,,,,,,,,,204,24,Male,2022-04-27_12h49.59.901,Main,2022.1.1,59.98987370933252,
negative,yellow,1,k,None,,,,,,,,,0,77,77,77,,,,,,,,,,,,,,,,,,,,,,,,,,,,,,,,,,,,,main,k,k,1,0.8055325999998786,387.2569780000001,None,None,0,,,,,,,,,,,,,,204,24,Male,2022-04-27_12h49.59.901,Main,2022.1.1,59.98987370933252,
positive,blue,1,k,None,,,,,,,,,0,78,78,78,,,,,,,,,,,,,,,,,,,,,,,,,,,,,,,,,,,,,main,k,k,1,0.9596828999997342,389.06275660000006,None,None,0,,,,,,,,,,,,,,204,24,Male,2022-04-27_12h49.59.901,Main,2022.1.1,59.98987370933252,
positive,blue,1,k,None,,,,,,,,,0,79,79,79,,,,,,,,,,,,,,,,,,,,,,,,,,,,,,,,,,,,,main,k,k,1,0.7296022000000448,391.0258709000002,None,None,0,,,,,,,,,,,,,,204,24,Male,2022-04-27_12h49.59.901,Main,2022.1.1,59.98987370933252,
positive,red,2,None,None,,,,,,,,,0,80,80,80,,,,,,,,,,,,,,,,,,,,,,,,,,,,,,,,,,,,,main,None,None,1,1.5111942999997154,392.75721069999986,None,None,1,,,,,,,,,,,,,,204,24,Male,2022-04-27_12h49.59.901,Main,2022.1.1,59.98987370933252,
positive,yellow,2,None,k,,,,,,,,,0,81,81,81,,,,,,,,,,,,,,,,,,,,,,,,,,,,,,,,,,,,,main,None,None,1,1.5063736000001882,395.27058390000025,None,None,1,,,,,,,,,,,,,,204,24,Male,2022-04-27_12h49.59.901,Main,2022.1.1,59.98987370933252,
positive,blue,1,k,None,,,,,,,,,0,82,82,82,,,,,,,,,,,,,,,,,,,,,,,,,,,,,,,,,,,,,main,k,k,1,0.8166234999998778,397.7781553000002,None,None,0,,,,,,,,,,,,,,204,24,Male,2022-04-27_12h49.59.901,Main,2022.1.1,59.98987370933252,
negative,yellow,2,k,None,,,,,,,,,0,83,83,83,,,,,,,,,,,,,,,,,,,,,,,,,,,,,,,,,,,,,main,k,k,1,0.916963399999986,399.5962618000001,None,None,0,,,,,,,,,,,,,,204,24,Male,2022-04-27_12h49.59.901,Main,2022.1.1,59.98987370933252,
positive,blue,2,k,None,,,,,,,,,0,84,84,84,,,,,,,,,,,,,,,,,,,,,,,,,,,,,,,,,,,,,main,k,k,1,0.8034284000000298,401.5168731000001,None,None,0,,,,,,,,,,,,,,204,24,Male,2022-04-27_12h49.59.901,Main,2022.1.1,59.98987370933252,
positive,yellow,1,None,k,,,,,,,,,0,85,85,85,,,,,,,,,,,,,,,,,,,,,,,,,,,,,,,,,,,,,main,None,None,1,1.4996793999998772,403.32094230000007,None,None,1,,,,,,,,,,,,,,204,24,Male,2022-04-27_12h49.59.901,Main,2022.1.1,59.98987370933252,
positive,blue,2,k,None,,,,,,,,,0,86,86,86,,,,,,,,,,,,,,,,,,,,,,,,,,,,,,,,,,,,,main,k,k,1,0.7248479999998381,405.82163079999987,None,None,0,,,,,,,,,,,,,,204,24,Male,2022-04-27_12h49.59.901,Main,2022.1.1,59.98987370933252,
positive,blue,1,k,None,,,,,,,,,0,87,87,87,,,,,,,,,,,,,,,,,,,,,,,,,,,,,,,,,,,,,main,k,k,1,1.2141774000001533,407.54919369999993,None,None,0,,,,,,,,,,,,,,204,24,Male,2022-04-27_12h49.59.901,Main,2022.1.1,59.98987370933252,
negative,yellow,2,k,None,,,,,,,,,0,88,88,88,,,,,,,,,,,,,,,,,,,,,,,,,,,,,,,,,,,,,main,k,k,1,0.7947260000000824,409.7649606000002,None,None,0,,,,,,,,,,,,,,204,24,Male,2022-04-27_12h49.59.901,Main,2022.1.1,59.98987370933252,
negative,blue,2,None,k,,,,,,,,,0,89,89,89,,,,,,,,,,,,,,,,,,,,,,,,,,,,,,,,,,,,,main,None,None,1,1.4998473999999078,411.55913859999987,None,None,1,,,,,,,,,,,,,,204,24,Male,2022-04-27_12h49.59.901,Main,2022.1.1,59.98987370933252,
positive,yellow,2,None,k,,,,,,,,,0,90,90,90,,,,,,,,,,,,,,,,,,,,,,,,,,,,,,,,,,,,,main,None,None,1,1.5127173000000766,414.0636182999999,None,None,1,,,,,,,,,,,,,,204,24,Male,2022-04-27_12h49.59.901,Main,2022.1.1,59.98987370933252,
negative,yellow,1,k,None,,,,,,,,,0,91,91,91,,,,,,,,,,,,,,,,,,,,,,,,,,,,,,,,,,,,,main,k,k,1,0.6840411999996832,416.5754709,None,None,0,,,,,,,,,,,,,,204,24,Male,2022-04-27_12h49.59.901,Main,2022.1.1,59.98987370933252,
negative,red,2,None,None,,,,,,,,,0,92,92,92,,,,,,,,,,,,,,,,,,,,,,,,,,,,,,,,,,,,,main,None,None,1,1.5040635000000293,418.2610493999998,None,None,1,,,,,,,,,,,,,,204,24,Male,2022-04-27_12h49.59.901,Main,2022.1.1,59.98987370933252,
negative,blue,2,None,k,,,,,,,,,0,93,93,93,,,,,,,,,,,,,,,,,,,,,,,,,,,,,,,,,,,,,main,None,None,1,1.5052694999999403,420.76925270000015,None,None,1,,,,,,,,,,,,,,204,24,Male,2022-04-27_12h49.59.901,Main,2022.1.1,59.98987370933252,
negative,blue,1,None,k,,,,,,,,,0,94,94,94,,,,,,,,,,,,,,,,,,,,,,,,,,,,,,,,,,,,,main,None,None,1,1.5075913000000583,423.27424940000014,None,None,1,,,,,,,,,,,,,,204,24,Male,2022-04-27_12h49.59.901,Main,2022.1.1,59.98987370933252,
negative,blue,1,None,k,,,,,,,,,0,95,95,95,,,,,,,,,,,,,,,,,,,,,,,,,,,,,,,,,,,,,main,None,None,1,1.506173100000069,425.7880425000001,None,None,1,,,,,,,,,,,,,,204,24,Male,2022-04-27_12h49.59.901,Main,2022.1.1,59.98987370933252,
negative,red,1,None,None,,,,,,,,,0,96,96,96,,,,,,,,,,,,,,,,,,,,,,,,,,,,,,,,,,,,,main,None,None,1,1.5108922999997958,428.29213140000024,None,None,1,,,,,,,,,,,,,,204,24,Male,2022-04-27_12h49.59.901,Main,2022.1.1,59.98987370933252,
positive,yellow,1,None,k,,,,,,,,,0,97,97,97,,,,,,,,,,,,,,,,,,,,,,,,,,,,,,,,,,,,,main,None,None,1,1.5068781999998464,430.80692909999993,None,None,1,,,,,,,,,,,,,,204,24,Male,2022-04-27_12h49.59.901,Main,2022.1.1,59.98987370933252,
negative,yellow,1,k,None,,,,,,,,,0,98,98,98,,,,,,,,,,,,,,,,,,,,,,,,,,,,,,,,,,,,,main,k,k,1,0.9748885000003611,433.3169412,None,None,0,,,,,,,,,,,,,,204,24,Male,2022-04-27_12h49.59.901,Main,2022.1.1,59.98987370933252,
positive,red,1,None,None,,,,,,,,,0,99,99,99,,,,,,,,,,,,,,,,,,,,,,,,,,,,,,,,,,,,,main,None,None,1,1.4984254999999393,435.2915352000002,None,None,1,,,,,,,,,,,,,,204,24,Male,2022-04-27_12h49.59.901,Main,2022.1.1,59.98987370933252,
positive,blue,1,k,None,,,,,,,,,0,100,100,100,,,,,,,,,,,,,,,,,,,,,,,,,,,,,,,,,,,,,main,k,k,1,0.65911240000014,437.7937693000001,None,None,0,,,,,,,,,,,,,,204,24,Male,2022-04-27_12h49.59.901,Main,2022.1.1,59.98987370933252,
negative,yellow,1,k,None,,,,,,,,,0,101,101,101,,,,,,,,,,,,,,,,,,,,,,,,,,,,,,,,,,,,,main,k,k,1,0.7148884000002909,439.4533465000002,None,None,0,,,,,,,,,,,,,,204,24,Male,2022-04-27_12h49.59.901,Main,2022.1.1,59.98987370933252,
negative,blue,2,None,k,,,,,,,,,0,102,102,102,,,,,,,,,,,,,,,,,,,,,,,,,,,,,,,,,,,,,main,None,None,1,1.51065060000019,441.16990250000003,None,None,1,,,,,,,,,,,,,,204,24,Male,2022-04-27_12h49.59.901,Main,2022.1.1,59.98987370933252,
negative,yellow,2,k,None,,,,,,,,,0,103,103,103,,,,,,,,,,,,,,,,,,,,,,,,,,,,,,,,,,,,,main,k,k,1,0.6975132000002304,443.68258279999986,None,None,0,,,,,,,,,,,,,,204,24,Male,2022-04-27_12h49.59.901,Main,2022.1.1,59.98987370933252,
positive,yellow,2,None,k,,,,,,,,,0,104,104,104,,,,,,,,,,,,,,,,,,,,,,,,,,,,,,,,,,,,,main,None,None,1,1.5118413000000146,445.3821052999999,None,None,1,,,,,,,,,,,,,,204,24,Male,2022-04-27_12h49.59.901,Main,2022.1.1,59.98987370933252,
positive,blue,1,k,None,,,,,,,,,0,105,105,105,,,,,,,,,,,,,,,,,,,,,,,,,,,,,,,,,,,,,main,k,k,1,0.7288518000000295,447.8951082000001,None,None,0,,,,,,,,,,,,,,204,24,Male,2022-04-27_12h49.59.901,Main,2022.1.1,59.98987370933252,
positive,blue,2,k,None,,,,,,,,,0,106,106,106,,,,,,,,,,,,,,,,,,,,,,,,,,,,,,,,,,,,,main,k,k,1,0.6865192000000206,449.6260500000001,None,None,0,,,,,,,,,,,,,,204,24,Male,2022-04-27_12h49.59.901,Main,2022.1.1,59.98987370933252,
negative,blue,1,None,k,,,,,,,,,0,107,107,107,,,,,,,,,,,,,,,,,,,,,,,,,,,,,,,,,,,,,main,None,None,1,1.5099771999998666,451.3143155999999,None,None,1,,,,,,,,,,,,,,204,24,Male,2022-04-27_12h49.59.901,Main,2022.1.1,59.98987370933252,
positive,yellow,2,None,k,,,,,,,,,0,108,108,108,,,,,,,,,,,,,,,,,,,,,,,,,,,,,,,,,,,,,main,None,None,1,1.5087816999998722,453.8262473000002,None,None,1,,,,,,,,,,,,,,204,24,Male,2022-04-27_12h49.59.901,Main,2022.1.1,59.98987370933252,
negative,yellow,1,k,None,,,,,,,,,0,109,109,109,,,,,,,,,,,,,,,,,,,,,,,,,,,,,,,,,,,,,main,k,k,1,0.5871447999998054,456.33536849999996,None,None,0,,,,,,,,,,,,,,204,24,Male,2022-04-27_12h49.59.901,Main,2022.1.1,59.98987370933252,
negative,blue,2,None,k,,,,,,,,,0,110,110,110,,,,,,,,,,,,,,,,,,,,,,,,,,,,,,,,,,,,,main,None,None,1,1.498331700000108,457.92347799999993,None,None,1,,,,,,,,,,,,,,204,24,Male,2022-04-27_12h49.59.901,Main,2022.1.1,59.98987370933252,
positive,blue,2,k,None,,,,,,,,,0,111,111,111,,,,,,,,,,,,,,,,,,,,,,,,,,,,,,,,,,,,,main,k,k,1,0.7008485000001201,460.4248977,None,None,0,,,,,,,,,,,,,,204,24,Male,2022-04-27_12h49.59.901,Main,2022.1.1,59.98987370933252,
negative,blue,1,None,k,,,,,,,,,0,112,112,112,,,,,,,,,,,,,,,,,,,,,,,,,,,,,,,,,,,,,main,None,None,1,1.4994811000001391,462.1285316000001,None,None,1,,,,,,,,,,,,,,204,24,Male,2022-04-27_12h49.59.901,Main,2022.1.1,59.98987370933252,
positive,yellow,1,None,k,,,,,,,,,0,113,113,113,,,,,,,,,,,,,,,,,,,,,,,,,,,,,,,,,,,,,main,None,None,1,1.509004300000015,464.62851939999996,None,None,1,,,,,,,,,,,,,,204,24,Male,2022-04-27_12h49.59.901,Main,2022.1.1,59.98987370933252,
negative,red,1,None,None,,,,,,,,,0,114,114,114,,,,,,,,,,,,,,,,,,,,,,,,,,,,,,,,,,,,,main,None,None,1,1.5046731000002183,467.13777270000014,None,None,1,,,,,,,,,,,,,,204,24,Male,2022-04-27_12h49.59.901,Main,2022.1.1,59.98987370933252,
positive,red,1,None,None,,,,,,,,,0,115,115,115,,,,,,,,,,,,,,,,,,,,,,,,,,,,,,,,,,,,,main,None,None,1,1.5076255999997557,469.64461959999994,None,None,1,,,,,,,,,,,,,,204,24,Male,2022-04-27_12h49.59.901,Main,2022.1.1,59.98987370933252,
negative,red,2,None,None,,,,,,,,,0,116,116,116,,,,,,,,,,,,,,,,,,,,,,,,,,,,,,,,,,,,,main,None,None,1,1.5090409999997974,472.1521620000001,None,None,1,,,,,,,,,,,,,,204,24,Male,2022-04-27_12h49.59.901,Main,2022.1.1,59.98987370933252,
negative,yellow,2,k,None,,,,,,,,,0,117,117,117,,,,,,,,,,,,,,,,,,,,,,,,,,,,,,,,,,,,,main,k,k,1,0.7877994999998919,474.6646483000002,None,None,0,,,,,,,,,,,,,,204,24,Male,2022-04-27_12h49.59.901,Main,2022.1.1,59.98987370933252,
positive,yellow,1,None,k,,,,,,,,,0,118,118,118,,,,,,,,,,,,,,,,,,,,,,,,,,,,,,,,,,,,,main,None,None,1,1.5002527000001464,476.45250340000007,None,None,1,,,,,,,,,,,,,,204,24,Male,2022-04-27_12h49.59.901,Main,2022.1.1,59.98987370933252,
positive,red,2,None,None,,,,,,,,,0,119,119,119,,,,,,,,,,,,,,,,,,,,,,,,,,,,,,,,,,,,,main,None,None,1,1.4974575999999615,478.9558877000002,None,None,1,,,,,,,,,,,,,,204,24,Male,2022-04-27_12h49.59.901,Main,2022.1.1,59.98987370933252,
positive,blue,2,k,None,,,,,,,,,0,120,120,120,,,,,,,,,,,,,,,,,,,,,,,,,,,,,,,,,,,,,main,k,k,1,0.7235743000001094,481.4558546999999,None,None,0,,,,,,,,,,,,,,204,24,Male,2022-04-27_12h49.59.901,Main,2022.1.1,59.98987370933252,
negative,red,1,None,None,,,,,,,,,0,121,121,121,,,,,,,,,,,,,,,,,,,,,,,,,,,,,,,,,,,,,main,None,None,1,1.5057214999997086,483.1801845000002,None,None,1,,,,,,,,,,,,,,204,24,Male,2022-04-27_12h49.59.901,Main,2022.1.1,59.98987370933252,
positive,yellow,2,None,k,,,,,,,,,0,122,122,122,,,,,,,,,,,,,,,,,,,,,,,,,,,,,,,,,,,,,main,None,None,1,1.498715600000196,485.68546189999984,None,None,1,,,,,,,,,,,,,,204,24,Male,2022-04-27_12h49.59.901,Main,2022.1.1,59.98987370933252,
negative,red,2,None,None,,,,,,,,,0,123,123,123,,,,,,,,,,,,,,,,,,,,,,,,,,,,,,,,,,,,,main,None,None,1,1.4989534999999705,488.18604800000026,None,None,1,,,,,,,,,,,,,,204,24,Male,2022-04-27_12h49.59.901,Main,2022.1.1,59.98987370933252,
negative,yellow,2,k,None,,,,,,,,,0,124,124,124,,,,,,,,,,,,,,,,,,,,,,,,,,,,,,,,,,,,,main,k,k,1,0.7114670000000842,490.68843820000006,None,None,0,,,,,,,,,,,,,,204,24,Male,2022-04-27_12h49.59.901,Main,2022.1.1,59.98987370933252,
positive,red,1,None,None,,,,,,,,,0,125,125,125,,,,,,,,,,,,,,,,,,,,,,,,,,,,,,,,,,,,,main,None,None,1,1.5014633000000686,492.40060670000025,None,None,1,,,,,,,,,,,,,,204,24,Male,2022-04-27_12h49.59.901,Main,2022.1.1,59.98987370933252,
negative,blue,2,None,k,,,,,,,,,0,126,126,126,,,,,,,,,,,,,,,,,,,,,,,,,,,,,,,,,,,,,main,None,None,1,1.5103478999999425,494.90628790000005,None,None,1,,,,,,,,,,,,,,204,24,Male,2022-04-27_12h49.59.901,Main,2022.1.1,59.98987370933252,
negative,blue,1,None,k,,,,,,,,,0,127,127,127,,,,,,,,,,,,,,,,,,,,,,,,,,,,,,,,,,,,,main,None,None,1,1.5147204999998394,497.4156094000002,None,None,1,,,,,,,,,,,,,,204,24,Male,2022-04-27_12h49.59.901,Main,2022.1.1,59.98987370933252,
negative,yellow,1,k,None,,,,,,,,,0,128,128,128,,,,,,,,,,,,,,,,,,,,,,,,,,,,,,,,,,,,,main,k,k,1,0.6792748999996547,499.9324382000002,None,None,0,,,,,,,,,,,,,,204,24,Male,2022-04-27_12h49.59.901,Main,2022.1.1,59.98987370933252,
negative,yellow,1,k,None,,,,,,,,,0,129,129,129,,,,,,,,,,,,,,,,,,,,,,,,,,,,,,,,,,,,,main,k,k,1,0.6995651000001999,501.61503300000027,None,None,0,,,,,,,,,,,,,,204,24,Male,2022-04-27_12h49.59.901,Main,2022.1.1,59.98987370933252,
positive,blue,1,k,None,,,,,,,,,0,130,130,130,,,,,,,,,,,,,,,,,,,,,,,,,,,,,,,,,,,,,main,k,k,1,1.1869669000002432,503.3157592,None,None,0,,,,,,,,,,,,,,204,24,Male,2022-04-27_12h49.59.901,Main,2022.1.1,59.98987370933252,
negative,blue,1,None,k,,,,,,,,,0,131,131,131,,,,,,,,,,,,,,,,,,,,,,,,,,,,,,,,,,,,,main,None,None,1,1.5022491999998238,505.50645499999996,None,None,1,,,,,,,,,,,,,,204,24,Male,2022-04-27_12h49.59.901,Main,2022.1.1,59.98987370933252,
negative,blue,2,None,k,,,,,,,,,0,132,132,132,,,,,,,,,,,,,,,,,,,,,,,,,,,,,,,,,,,,,main,None,None,1,1.50540060000003,508.0095300999999,None,None,1,,,,,,,,,,,,,,204,24,Male,2022-04-27_12h49.59.901,Main,2022.1.1,59.98987370933252,
positive,blue,2,k,None,,,,,,,,,0,133,133,133,,,,,,,,,,,,,,,,,,,,,,,,,,,,,,,,,,,,,main,k,k,1,0.7615277999998398,510.51420059999987,None,None,0,,,,,,,,,,,,,,204,24,Male,2022-04-27_12h49.59.901,Main,2022.1.1,59.98987370933252,
positive,red,2,None,None,,,,,,,,,0,134,134,134,,,,,,,,,,,,,,,,,,,,,,,,,,,,,,,,,,,,,main,None,None,1,1.5020270999998502,512.2818628000002,None,None,1,,,,,,,,,,,,,,204,24,Male,2022-04-27_12h49.59.901,Main,2022.1.1,59.98987370933252,
negative,yellow,2,k,None,,,,,,,,,0,135,135,135,,,,,,,,,,,,,,,,,,,,,,,,,,,,,,,,,,,,,main,k,k,1,0.8464652000002388,514.7851972999999,None,None,0,,,,,,,,,,,,,,204,24,Male,2022-04-27_12h49.59.901,Main,2022.1.1,59.98987370933252,
positive,yellow,2,None,k,,,,,,,,,0,136,136,136,,,,,,,,,,,,,,,,,,,,,,,,,,,,,,,,,,,,,main,None,None,1,1.5113341999999648,516.6309678,None,None,1,,,,,,,,,,,,,,204,24,Male,2022-04-27_12h49.59.901,Main,2022.1.1,59.98987370933252,
positive,blue,1,k,None,,,,,,,,,0,137,137,137,,,,,,,,,,,,,,,,,,,,,,,,,,,,,,,,,,,,,main,k,k,1,0.7534594999997353,519.1457258000003,None,None,0,,,,,,,,,,,,,,204,24,Male,2022-04-27_12h49.59.901,Main,2022.1.1,59.98987370933252,
positive,yellow,1,None,k,,,,,,,,,0,138,138,138,,,,,,,,,,,,,,,,,,,,,,,,,,,,,,,,,,,,,main,None,None,1,1.5001567000003888,520.9023863999998,None,None,1,,,,,,,,,,,,,,204,24,Male,2022-04-27_12h49.59.901,Main,2022.1.1,59.98987370933252,
positive,yellow,1,None,k,,,,,,,,,0,139,139,139,,,,,,,,,,,,,,,,,,,,,,,,,,,,,,,,,,,,,main,None,None,1,1.5107827000001635,523.4043616000001,None,None,1,,,,,,,,,,,,,,204,24,Male,2022-04-27_12h49.59.901,Main,2022.1.1,59.98987370933252,
positive,yellow,1,None,k,,,,,,,,,0,140,140,140,,,,,,,,,,,,,,,,,,,,,,,,,,,,,,,,,,,,,main,None,None,1,1.5132865000000493,525.9139158999999,None,None,1,,,,,,,,,,,,,,204,24,Male,2022-04-27_12h49.59.901,Main,2022.1.1,59.98987370933252,
positive,blue,1,k,None,,,,,,,,,0,141,141,141,,,,,,,,,,,,,,,,,,,,,,,,,,,,,,,,,,,,,main,k,k,1,0.6984889999998813,528.4296744999999,None,None,0,,,,,,,,,,,,,,204,24,Male,2022-04-27_12h49.59.901,Main,2022.1.1,59.98987370933252,
positive,blue,2,k,None,,,,,,,,,0,142,142,142,,,,,,,,,,,,,,,,,,,,,,,,,,,,,,,,,,,,,main,k,k,1,0.8853782000001047,530.1290215000001,None,None,0,,,,,,,,,,,,,,204,24,Male,2022-04-27_12h49.59.901,Main,2022.1.1,59.98987370933252,
positive,yellow,2,None,k,,,,,,,,,0,143,143,143,,,,,,,,,,,,,,,,,,,,,,,,,,,,,,,,,,,,,main,None,None,1,1.5071351999999933,532.0183359999999,None,None,1,,,,,,,,,,,,,,204,24,Male,2022-04-27_12h49.59.901,Main,2022.1.1,59.98987370933252,
negative,yellow,2,k,None,,,,,,,,,0,144,144,144,,,,,,,,,,,,,,,,,,,,,,,,,,,,,,,,,,,,,main,k,k,1,0.9025208000002749,534.5273181999999,None,None,0,,,,,,,,,,,,,,204,24,Male,2022-04-27_12h49.59.901,Main,2022.1.1,59.98987370933252,
negative,blue,2,None,k,,,,,,,,,0,145,145,145,,,,,,,,,,,,,,,,,,,,,,,,,,,,,,,,,,,,,main,None,None,1,1.5041621999998824,536.4327300000002,None,None,1,,,,,,,,,,,,,,204,24,Male,2022-04-27_12h49.59.901,Main,2022.1.1,59.98987370933252,
negative,red,1,None,None,,,,,,,,,0,146,146,146,,,,,,,,,,,,,,,,,,,,,,,,,,,,,,,,,,,,,main,None,None,1,1.498863799999981,538.9385614,None,None,1,,,,,,,,,,,,,,204,24,Male,2022-04-27_12h49.59.901,Main,2022.1.1,59.98987370933252,
positive,blue,1,k,None,,,,,,,,,0,147,147,147,,,,,,,,,,,,,,,,,,,,,,,,,,,,,,,,,,,,,main,k,k,1,0.908632900000157,541.4383739000002,None,None,0,,,,,,,,,,,,,,204,24,Male,2022-04-27_12h49.59.901,Main,2022.1.1,59.98987370933252,
positive,yellow,1,None,k,,,,,,,,,0,148,148,148,,,,,,,,,,,,,,,,,,,,,,,,,,,,,,,,,,,,,main,None,None,1,1.5054417000001195,543.3488768,None,None,1,,,,,,,,,,,,,,204,24,Male,2022-04-27_12h49.59.901,Main,2022.1.1,59.98987370933252,
negative,red,2,None,None,,,,,,,,,0,149,149,149,,,,,,,,,,,,,,,,,,,,,,,,,,,,,,,,,,,,,main,None,None,1,1.50209760000007,545.8555586,None,None,1,,,,,,,,,,,,,,204,24,Male,2022-04-27_12h49.59.901,Main,2022.1.1,59.98987370933252,
negative,blue,1,None,k,,,,,,,,,0,150,150,150,,,,,,,,,,,,,,,,,,,,,,,,,,,,,,,,,,,,,main,None,None,1,1.4985860000001594,548.3586191000002,None,None,1,,,,,,,,,,,,,,204,24,Male,2022-04-27_12h49.59.901,Main,2022.1.1,59.98987370933252,
negative,yellow,2,k,None,,,,,,,,,0,151,151,151,,,,,,,,,,,,,,,,,,,,,,,,,,,,,,,,,,,,,main,k,k,1,1.0151682999999139,550.8596866,None,None,0,,,,,,,,,,,,,,204,24,Male,2022-04-27_12h49.59.901,Main,2022.1.1,59.98987370933252,
negative,blue,2,None,k,,,,,,,,,0,152,152,152,,,,,,,,,,,,,,,,,,,,,,,,,,,,,,,,,,,,,main,None,None,1,1.4989205000001675,552.8756461999999,None,None,1,,,,,,,,,,,,,,204,24,Male,2022-04-27_12h49.59.901,Main,2022.1.1,59.98987370933252,
negative,yellow,1,k,None,,,,,,,,,0,153,153,153,,,,,,,,,,,,,,,,,,,,,,,,,,,,,,,,,,,,,main,k,k,1,1.0830516000000898,555.3763181000002,None,None,0,,,,,,,,,,,,,,204,24,Male,2022-04-27_12h49.59.901,Main,2022.1.1,59.98987370933252,
negative,blue,1,None,k,,,,,,,,,0,154,154,154,,,,,,,,,,,,,,,,,,,,,,,,,,,,,,,,,,,,,main,None,None,1,1.5136849999998958,557.4643088,None,None,1,,,,,,,,,,,,,,204,24,Male,2022-04-27_12h49.59.901,Main,2022.1.1,59.98987370933252,
positive,yellow,2,None,k,,,,,,,,,0,155,155,155,,,,,,,,,,,,,,,,,,,,,,,,,,,,,,,,,,,,,main,None,None,1,1.4983955999996397,559.9757477,None,None,1,,,,,,,,,,,,,,204,24,Male,2022-04-27_12h49.59.901,Main,2022.1.1,59.98987370933252,
positive,red,2,None,None,,,,,,,,,0,156,156,156,,,,,,,,,,,,,,,,,,,,,,,,,,,,,,,,,,,,,main,None,None,1,1.496125299999676,562.4764321,None,None,1,,,,,,,,,,,,,,204,24,Male,2022-04-27_12h49.59.901,Main,2022.1.1,59.98987370933252,
positive,red,1,None,None,,,,,,,,,0,157,157,157,,,,,,,,,,,,,,,,,,,,,,,,,,,,,,,,,,,,,main,None,None,1,1.509079500000098,564.9740680000002,None,None,1,,,,,,,,,,,,,,204,24,Male,2022-04-27_12h49.59.901,Main,2022.1.1,59.98987370933252,
positive,blue,2,k,None,,,,,,,,,0,158,158,158,,,,,,,,,,,,,,,,,,,,,,,,,,,,,,,,,,,,,main,k,k,1,0.9343701999996483,567.4867574000002,None,None,0,,,,,,,,,,,,,,204,24,Male,2022-04-27_12h49.59.901,Main,2022.1.1,59.98987370933252,
negative,yellow,1,k,None,,,,,,,,,0,159,159,159,,,,,,,,,,,,,,,,,,,,,,,,,,,,,,,,,,,,,main,k,k,1,0.9779865000000427,569.4243119999999,None,None,0,,,,,,,,,,,,,,204,24,Male,2022-04-27_12h49.59.901,Main,2022.1.1,59.98987370933252,
negative,red,2,None,None,,,,,,,,,0,160,160,160,,,,,,,,,,,,,,,,,,,,,,,,,,,,,,,,,,,,,main,None,None,1,1.5080307000002904,571.4030393,None,None,1,,,,,,,,,,,,,,204,24,Male,2022-04-27_12h49.59.901,Main,2022.1.1,59.98987370933252,
negative,blue,1,None,k,,,,,,,,,0,161,161,161,,,,,,,,,,,,,,,,,,,,,,,,,,,,,,,,,,,,,main,None,None,1,1.4938892000000124,573.9138108,None,None,1,,,,,,,,,,,,,,204,24,Male,2022-04-27_12h49.59.901,Main,2022.1.1,59.98987370933252,
negative,blue,1,None,k,,,,,,,,,0,162,162,162,,,,,,,,,,,,,,,,,,,,,,,,,,,,,,,,,,,,,main,None,None,1,1.496982300000127,576.4089716000001,None,None,1,,,,,,,,,,,,,,204,24,Male,2022-04-27_12h49.59.901,Main,2022.1.1,59.98987370933252,
negative,yellow,1,k,None,,,,,,,,,0,163,163,163,,,,,,,,,,,,,,,,,,,,,,,,,,,,,,,,,,,,,main,k,k,1,0.6696821000000455,578.9050900999998,None,None,0,,,,,,,,,,,,,,204,24,Male,2022-04-27_12h49.59.901,Main,2022.1.1,59.98987370933252,
negative,yellow,1,k,None,,,,,,,,,0,164,164,164,,,,,,,,,,,,,,,,,,,,,,,,,,,,,,,,,,,,,main,k,k,1,1.1452029000001858,580.5794099000002,None,None,0,,,,,,,,,,,,,,204,24,Male,2022-04-27_12h49.59.901,Main,2022.1.1,59.98987370933252,
positive,yellow,1,None,k,,,,,,,,,0,165,165,165,,,,,,,,,,,,,,,,,,,,,,,,,,,,,,,,,,,,,main,None,None,1,1.5103007000002435,582.7235254999998,None,None,1,,,,,,,,,,,,,,204,24,Male,2022-04-27_12h49.59.901,Main,2022.1.1,59.98987370933252,
negative,red,1,None,None,,,,,,,,,0,166,166,166,,,,,,,,,,,,,,,,,,,,,,,,,,,,,,,,,,,,,main,None,None,1,1.4991534000000684,585.2365066999998,None,None,1,,,,,,,,,,,,,,204,24,Male,2022-04-27_12h49.59.901,Main,2022.1.1,59.98987370933252,
negative,yellow,2,k,None,,,,,,,,,0,167,167,167,,,,,,,,,,,,,,,,,,,,,,,,,,,,,,,,,,,,,main,k,k,1,0.8539675000001807,587.7382153000001,None,None,0,,,,,,,,,,,,,,204,24,Male,2022-04-27_12h49.59.901,Main,2022.1.1,59.98987370933252,
positive,blue,2,k,None,,,,,,,,,0,168,168,168,,,,,,,,,,,,,,,,,,,,,,,,,,,,,,,,,,,,,main,k,k,1,0.9345756000002439,589.5951048,None,None,0,,,,,,,,,,,,,,204,24,Male,2022-04-27_12h49.59.901,Main,2022.1.1,59.98987370933252,
positive,red,2,None,None,,,,,,,,,0,169,169,169,,,,,,,,,,,,,,,,,,,,,,,,,,,,,,,,,,,,,main,None,None,1,1.4967053000000305,591.5310737000002,None,None,1,,,,,,,,,,,,,,204,24,Male,2022-04-27_12h49.59.901,Main,2022.1.1,59.98987370933252,
positive,red,1,None,None,,,,,,,,,0,170,170,170,,,,,,,,,,,,,,,,,,,,,,,,,,,,,,,,,,,,,main,None,None,1,1.5010419000000184,594.0297164000001,None,None,1,,,,,,,,,,,,,,204,24,Male,2022-04-27_12h49.59.901,Main,2022.1.1,59.98987370933252,
negative,blue,2,None,k,,,,,,,,,0,171,171,171,,,,,,,,,,,,,,,,,,,,,,,,,,,,,,,,,,,,,main,None,None,1,1.498087299999952,596.5311048000001,None,None,1,,,,,,,,,,,,,,204,24,Male,2022-04-27_12h49.59.901,Main,2022.1.1,59.98987370933252,
positive,blue,2,k,None,,,,,,,,,0,172,172,172,,,,,,,,,,,,,,,,,,,,,,,,,,,,,,,,,,,,,main,k,k,1,0.7545924999999443,599.0315951999999,None,None,0,,,,,,,,,,,,,,204,24,Male,2022-04-27_12h49.59.901,Main,2022.1.1,59.98987370933252,
negative,yellow,2,k,None,,,,,,,,,0,173,173,173,,,,,,,,,,,,,,,,,,,,,,,,,,,,,,,,,,,,,main,k,k,1,0.5888155999996343,600.7860506,None,None,0,,,,,,,,,,,,,,204,24,Male,2022-04-27_12h49.59.901,Main,2022.1.1,59.98987370933252,
positive,yellow,2,None,k,,,,,,,,,0,174,174,174,,,,,,,,,,,,,,,,,,,,,,,,,,,,,,,,,,,,,main,None,None,1,1.4992941999998948,602.3783784,None,None,1,,,,,,,,,,,,,,204,24,Male,2022-04-27_12h49.59.901,Main,2022.1.1,59.98987370933252,
negative,blue,2,None,k,,,,,,,,,0,175,175,175,,,,,,,,,,,,,,,,,,,,,,,,,,,,,,,,,,,,,main,None,None,1,1.507013100000222,604.8841365999999,None,None,1,,,,,,,,,,,,,,204,24,Male,2022-04-27_12h49.59.901,Main,2022.1.1,59.98987370933252,
positive,blue,1,k,None,,,,,,,,,0,176,176,176,,,,,,,,,,,,,,,,,,,,,,,,,,,,,,,,,,,,,main,k,k,1,0.6998163999996905,607.3859592000001,None,None,0,,,,,,,,,,,,,,204,24,Male,2022-04-27_12h49.59.901,Main,2022.1.1,59.98987370933252,
positive,yellow,1,None,k,,,,,,,,,0,177,177,177,,,,,,,,,,,,,,,,,,,,,,,,,,,,,,,,,,,,,main,None,None,1,1.4978378000000703,609.0866167000001,None,None,1,,,,,,,,,,,,,,204,24,Male,2022-04-27_12h49.59.901,Main,2022.1.1,59.98987370933252,
positive,blue,1,k,None,,,,,,,,,0,178,178,178,,,,,,,,,,,,,,,,,,,,,,,,,,,,,,,,,,,,,main,k,k,1,0.7700098000000253,611.5865624,None,None,0,,,,,,,,,,,,,,204,24,Male,2022-04-27_12h49.59.901,Main,2022.1.1,59.98987370933252,
positive,yellow,2,None,k,,,,,,,,,0,179,179,179,,,,,,,,,,,,,,,,,,,,,,,,,,,,,,,,,,,,,main,None,None,1,1.5008015999997042,613.3605687000002,None,None,1,,,,,,,,,,,,,,204,24,Male,2022-04-27_12h49.59.901,Main,2022.1.1,59.98987370933252,
positive,blue,1,k,None,,,,,,,,,0,180,180,180,,,,,,,,,,,,,,,,,,,,,,,,,,,,,,,,,,,,,main,k,k,1,0.751119000000017,615.8637105999999,None,None,0,,,,,,,,,,,,,,204,24,Male,2022-04-27_12h49.59.901,Main,2022.1.1,59.98987370933252,
negative,red,1,None,None,,,,,,,,,0,181,181,181,,,,,,,,,,,,,,,,,,,,,,,,,,,,,,,,,,,,,main,None,None,1,1.4971520000003693,617.6153969,None,None,1,,,,,,,,,,,,,,204,24,Male,2022-04-27_12h49.59.901,Main,2022.1.1,59.98987370933252,
negative,blue,1,None,k,,,,,,,,,0,182,182,182,,,,,,,,,,,,,,,,,,,,,,,,,,,,,,,,,,,,,main,None,None,1,1.5027341999998498,620.1147493000001,None,None,1,,,,,,,,,,,,,,204,24,Male,2022-04-27_12h49.59.901,Main,2022.1.1,59.98987370933252,
negative,yellow,2,k,None,,,,,,,,,0,183,183,183,,,,,,,,,,,,,,,,,,,,,,,,,,,,,,,,,,,,,main,k,k,1,0.897786399999859,622.6189127999999,None,None,0,,,,,,,,,,,,,,204,24,Male,2022-04-27_12h49.59.901,Main,2022.1.1,59.98987370933252,
positive,yellow,2,None,k,,,,,,,,,0,184,184,184,,,,,,,,,,,,,,,,,,,,,,,,,,,,,,,,,,,,,main,None,None,1,1.5008364999998776,624.5188965,None,None,1,,,,,,,,,,,,,,204,24,Male,2022-04-27_12h49.59.901,Main,2022.1.1,59.98987370933252,
positive,yellow,1,None,k,,,,,,,,,0,185,185,185,,,,,,,,,,,,,,,,,,,,,,,,,,,,,,,,,,,,,main,None,None,1,1.5105306000000382,627.0227335000002,None,None,1,,,,,,,,,,,,,,204,24,Male,2022-04-27_12h49.59.901,Main,2022.1.1,59.98987370933252,
positive,red,2,None,None,,,,,,,,,0,186,186,186,,,,,,,,,,,,,,,,,,,,,,,,,,,,,,,,,,,,,main,None,None,1,1.5053522000002886,629.5330873999999,None,None,1,,,,,,,,,,,,,,204,24,Male,2022-04-27_12h49.59.901,Main,2022.1.1,59.98987370933252,
positive,blue,1,k,None,,,,,,,,,0,187,187,187,,,,,,,,,,,,,,,,,,,,,,,,,,,,,,,,,,,,,main,k,k,1,0.7925282999999581,632.0414711000001,None,None,0,,,,,,,,,,,,,,204,24,Male,2022-04-27_12h49.59.901,Main,2022.1.1,59.98987370933252,
negative,yellow,1,k,None,,,,,,,,,0,188,188,188,,,,,,,,,,,,,,,,,,,,,,,,,,,,,,,,,,,,,main,k,k,1,0.8360751000000164,633.8361866000002,None,None,0,,,,,,,,,,,,,,204,24,Male,2022-04-27_12h49.59.901,Main,2022.1.1,59.98987370933252,
positive,yellow,2,None,k,,,,,,,,,0,189,189,189,,,,,,,,,,,,,,,,,,,,,,,,,,,,,,,,,,,,,main,None,None,1,1.511491400000068,635.6756766999999,None,None,1,,,,,,,,,,,,,,204,24,Male,2022-04-27_12h49.59.901,Main,2022.1.1,59.98987370933252,
negative,yellow,2,k,None,,,,,,,,,0,190,190,190,,,,,,,,,,,,,,,,,,,,,,,,,,,,,,,,,,,,,main,k,k,1,0.9557947999996941,638.1881225,None,None,0,,,,,,,,,,,,,,204,24,Male,2022-04-27_12h49.59.901,Main,2022.1.1,59.98987370933252,
negative,yellow,1,k,None,,,,,,,,,0,191,191,191,,,,,,,,,,,,,,,,,,,,,,,,,,,,,,,,,,,,,main,k,k,1,0.6916191000000254,640.1478602999998,None,None,0,,,,,,,,,,,,,,204,24,Male,2022-04-27_12h49.59.901,Main,2022.1.1,59.98987370933252,
positive,blue,2,k,None,,,,,,,,,0,192,192,192,,,,,,,,,,,,,,,,,,,,,,,,,,,,,,,,,,,,,main,k,k,1,0.8535657000002175,641.8389442,None,None,0,,,,,,,,,,,,,,204,24,Male,2022-04-27_12h49.59.901,Main,2022.1.1,59.98987370933252,
positive,yellow,1,None,k,,,,,,,,,0,193,193,193,,,,,,,,,,,,,,,,,,,,,,,,,,,,,,,,,,,,,main,None,None,1,1.5050186000003123,643.6937958999999,None,None,1,,,,,,,,,,,,,,204,24,Male,2022-04-27_12h49.59.901,Main,2022.1.1,59.98987370933252,
negative,red,2,None,None,,,,,,,,,0,194,194,194,,,,,,,,,,,,,,,,,,,,,,,,,,,,,,,,,,,,,main,None,None,1,1.5101367000002028,646.1984743,None,None,1,,,,,,,,,,,,,,204,24,Male,2022-04-27_12h49.59.901,Main,2022.1.1,59.98987370933252,
positive,red,1,None,None,,,,,,,,,0,195,195,195,,,,,,,,,,,,,,,,,,,,,,,,,,,,,,,,,,,,,main,None,None,1,1.5078676000002815,648.7123144999998,None,None,1,,,,,,,,,,,,,,204,24,Male,2022-04-27_12h49.59.901,Main,2022.1.1,59.98987370933252,
negative,blue,1,None,k,,,,,,,,,0,196,196,196,,,,,,,,,,,,,,,,,,,,,,,,,,,,,,,,,,,,,main,None,None,1,1.4952832000003582,651.2224733999999,None,None,1,,,,,,,,,,,,,,204,24,Male,2022-04-27_12h49.59.901,Main,2022.1.1,59.98987370933252,
positive,blue,2,k,None,,,,,,,,,0,197,197,197,,,,,,,,,,,,,,,,,,,,,,,,,,,,,,,,,,,,,main,k,k,1,0.8691361000001052,653.7205775,None,None,0,,,,,,,,,,,,,,204,24,Male,2022-04-27_12h49.59.901,Main,2022.1.1,59.98987370933252,
negative,blue,2,None,k,,,,,,,,,0,198,198,198,,,,,,,,,,,,,,,,,,,,,,,,,,,,,,,,,,,,,main,None,None,1,1.5047254999999495,655.5910121,None,None,1,,,,,,,,,,,,,,204,24,Male,2022-04-27_12h49.59.901,Main,2022.1.1,59.98987370933252,
negative,blue,2,None,k,,,,,,,,,0,199,199,199,,,,,,,,,,,,,,,,,,,,,,,,,,,,,,,,,,,,,main,None,None,1,1.4998168000001897,658.0953967000003,None,None,1,,,,,,,,,,,,,,204,24,Male,2022-04-27_12h49.59.901,Main,2022.1.1,59.98987370933252,
positive,blue,2,k,None,,,,,,,,,0,200,200,200,,,,,,,,,,,,,,,,,,,,,,,,,,,,,,,,,,,,,main,k,k,1,0.7763471000002937,660.5975657000001,None,None,0,,,,,,,,,,,,,,204,24,Male,2022-04-27_12h49.59.901,Main,2022.1.1,59.98987370933252,
positive,blue,2,k,None,,,,,,,,,0,201,201,201,,,,,,,,,,,,,,,,,,,,,,,,,,,,,,,,,,,,,main,k,k,1,0.6708740999997644,662.3790145,None,None,0,,,,,,,,,,,,,,204,24,Male,2022-04-27_12h49.59.901,Main,2022.1.1,59.98987370933252,
negative,yellow,2,k,None,,,,,,,,,0,202,202,202,,,,,,,,,,,,,,,,,,,,,,,,,,,,,,,,,,,,,main,k,k,1,0.7867822999996861,664.0510661000001,None,None,0,,,,,,,,,,,,,,204,24,Male,2022-04-27_12h49.59.901,Main,2022.1.1,59.98987370933252,
positive,red,1,None,None,,,,,,,,,0,203,203,203,,,,,,,,,,,,,,,,,,,,,,,,,,,,,,,,,,,,,main,None,None,1,1.5044118999999228,665.8393904000002,None,None,1,,,,,,,,,,,,,,204,24,Male,2022-04-27_12h49.59.901,Main,2022.1.1,59.98987370933252,
negative,blue,2,None,k,,,,,,,,,0,204,204,204,,,,,,,,,,,,,,,,,,,,,,,,,,,,,,,,,,,,,main,None,None,1,1.5050473999999667,668.3435188999999,None,None,1,,,,,,,,,,,,,,204,24,Male,2022-04-27_12h49.59.901,Main,2022.1.1,59.98987370933252,
negative,red,1,None,None,,,,,,,,,0,205,205,205,,,,,,,,,,,,,,,,,,,,,,,,,,,,,,,,,,,,,main,None,None,1,1.5013741000002483,670.8525197000001,None,None,1,,,,,,,,,,,,,,204,24,Male,2022-04-27_12h49.59.901,Main,2022.1.1,59.98987370933252,
negative,blue,2,None,k,,,,,,,,,0,206,206,206,,,,,,,,,,,,,,,,,,,,,,,,,,,,,,,,,,,,,main,None,None,1,1.5094100000001163,673.3571463999999,None,None,1,,,,,,,,,,,,,,204,24,Male,2022-04-27_12h49.59.901,Main,2022.1.1,59.98987370933252,
negative,yellow,2,k,None,,,,,,,,,0,207,207,207,,,,,,,,,,,,,,,,,,,,,,,,,,,,,,,,,,,,,main,k,k,1,1.2997276000000966,675.8685212000003,None,None,0,,,,,,,,,,,,,,204,24,Male,2022-04-27_12h49.59.901,Main,2022.1.1,59.98987370933252,
positive,yellow,2,None,k,,,,,,,,,0,208,208,208,,,,,,,,,,,,,,,,,,,,,,,,,,,,,,,,,,,,,main,None,None,1,1.4962497999999869,678.1693533999999,None,None,1,,,,,,,,,,,,,,204,24,Male,2022-04-27_12h49.59.901,Main,2022.1.1,59.98987370933252,
negative,yellow,1,k,None,,,,,,,,,0,209,209,209,,,,,,,,,,,,,,,,,,,,,,,,,,,,,,,,,,,,,main,k,k,1,0.7779120999998668,680.6675069999999,None,None,0,,,,,,,,,,,,,,204,24,Male,2022-04-27_12h49.59.901,Main,2022.1.1,59.98987370933252,
negative,red,2,None,None,,,,,,,,,0,210,210,210,,,,,,,,,,,,,,,,,,,,,,,,,,,,,,,,,,,,,main,None,None,1,1.5089378000002398,682.4441537,None,None,1,,,,,,,,,,,,,,204,24,Male,2022-04-27_12h49.59.901,Main,2022.1.1,59.98987370933252,
negative,blue,1,None,k,,,,,,,,,0,211,211,211,,,,,,,,,,,,,,,,,,,,,,,,,,,,,,,,,,,,,main,None,None,1,1.5021464999999807,684.9568009000002,None,None,1,,,,,,,,,,,,,,204,24,Male,2022-04-27_12h49.59.901,Main,2022.1.1,59.98987370933252,
negative,yellow,1,k,None,,,,,,,,,0,212,212,212,,,,,,,,,,,,,,,,,,,,,,,,,,,,,,,,,,,,,main,k,k,1,0.6532627999999931,687.4623445999998,None,None,0,,,,,,,,,,,,,,204,24,Male,2022-04-27_12h49.59.901,Main,2022.1.1,59.98987370933252,
positive,blue,1,k,None,,,,,,,,,0,213,213,213,,,,,,,,,,,,,,,,,,,,,,,,,,,,,,,,,,,,,main,k,k,1,0.8426657999998497,689.1170543000001,None,None,0,,,,,,,,,,,,,,204,24,Male,2022-04-27_12h49.59.901,Main,2022.1.1,59.98987370933252,
positive,blue,1,k,None,,,,,,,,,0,214,214,214,,,,,,,,,,,,,,,,,,,,,,,,,,,,,,,,,,,,,main,k,k,1,0.5717128000001139,690.9617483,None,None,0,,,,,,,,,,,,,,204,24,Male,2022-04-27_12h49.59.901,Main,2022.1.1,59.98987370933252,
positive,yellow,1,None,k,,,,,,,,,0,215,215,215,,,,,,,,,,,,,,,,,,,,,,,,,,,,,,,,,,,,,main,None,None,1,1.5060897000003024,692.5335751999999,None,None,1,,,,,,,,,,,,,,204,24,Male,2022-04-27_12h49.59.901,Main,2022.1.1,59.98987370933252,
positive,yellow,1,None,k,,,,,,,,,0,216,216,216,,,,,,,,,,,,,,,,,,,,,,,,,,,,,,,,,,,,,main,None,None,1,1.5035500000003594,695.0394306000001,None,None,1,,,,,,,,,,,,,,204,24,Male,2022-04-27_12h49.59.901,Main,2022.1.1,59.98987370933252,
positive,yellow,2,None,k,,,,,,,,,0,217,217,217,,,,,,,,,,,,,,,,,,,,,,,,,,,,,,,,,,,,,main,None,k,0,0.7926308000000972,697.5475297999999,None,None,1,,,,,,,,,,,,,,204,24,Male,2022-04-27_12h49.59.901,Main,2022.1.1,59.98987370933252,
negative,blue,1,None,k,,,,,,,,,0,218,218,218,,,,,,,,,,,,,,,,,,,,,,,,,,,,,,,,,,,,,main,None,None,1,1.4933387000000948,700.3591005000001,None,None,1,,,,,,,,,,,,,,204,24,Male,2022-04-27_12h49.59.901,Main,2022.1.1,59.98987370933252,
positive,red,2,None,None,,,,,,,,,0,219,219,219,,,,,,,,,,,,,,,,,,,,,,,,,,,,,,,,,,,,,main,None,None,1,1.5033407000000807,702.8542893000001,None,None,1,,,,,,,,,,,,,,204,24,Male,2022-04-27_12h49.59.901,Main,2022.1.1,59.98987370933252,
positive,yellow,1,None,k,,,,,,,,,0,220,220,220,,,,,,,,,,,,,,,,,,,,,,,,,,,,,,,,,,,,,main,None,None,1,1.5066106999997828,705.3613513000003,None,None,1,,,,,,,,,,,,,,204,24,Male,2022-04-27_12h49.59.901,Main,2022.1.1,59.98987370933252,
positive,blue,1,k,None,,,,,,,,,0,221,221,221,,,,,,,,,,,,,,,,,,,,,,,,,,,,,,,,,,,,,main,k,k,1,0.6917369999996481,707.86905,None,None,0,,,,,,,,,,,,,,204,24,Male,2022-04-27_12h49.59.901,Main,2022.1.1,59.98987370933252,
positive,yellow,2,None,k,,,,,,,,,0,222,222,222,,,,,,,,,,,,,,,,,,,,,,,,,,,,,,,,,,,,,main,None,None,1,1.5115409,709.5622903999999,None,None,1,,,,,,,,,,,,,,204,24,Male,2022-04-27_12h49.59.901,Main,2022.1.1,59.98987370933252,
negative,yellow,1,k,None,,,,,,,,,0,223,223,223,,,,,,,,,,,,,,,,,,,,,,,,,,,,,,,,,,,,,main,k,k,1,0.8488659000004191,712.0741487000003,None,None,0,,,,,,,,,,,,,,204,24,Male,2022-04-27_12h49.59.901,Main,2022.1.1,59.98987370933252,
positive,yellow,2,None,k,,,,,,,,,0,224,224,224,,,,,,,,,,,,,,,,,,,,,,,,,,,,,,,,,,,,,main,None,None,1,1.496841300000142,713.9240335000002,None,None,1,,,,,,,,,,,,,,204,24,Male,2022-04-27_12h49.59.901,Main,2022.1.1,59.98987370933252,
negative,yellow,2,k,None,,,,,,,,,0,225,225,225,,,,,,,,,,,,,,,,,,,,,,,,,,,,,,,,,,,,,main,k,k,1,1.0583354999998846,716.4247505999999,None,None,0,,,,,,,,,,,,,,204,24,Male,2022-04-27_12h49.59.901,Main,2022.1.1,59.98987370933252,
negative,blue,2,None,k,,,,,,,,,0,226,226,226,,,,,,,,,,,,,,,,,,,,,,,,,,,,,,,,,,,,,main,None,None,1,1.5079709999999977,718.4841896999999,None,None,1,,,,,,,,,,,,,,204,24,Male,2022-04-27_12h49.59.901,Main,2022.1.1,59.98987370933252,
positive,red,2,None,None,,,,,,,,,0,227,227,227,,,,,,,,,,,,,,,,,,,,,,,,,,,,,,,,,,,,,main,None,None,1,1.4948663999998644,720.9935105000002,None,None,1,,,,,,,,,,,,,,204,24,Male,2022-04-27_12h49.59.901,Main,2022.1.1,59.98987370933252,
positive,blue,2,k,None,,,,,,,,,0,228,228,228,,,,,,,,,,,,,,,,,,,,,,,,,,,,,,,,,,,,,main,k,k,1,0.7113595000000714,723.4902242000001,None,None,0,,,,,,,,,,,,,,204,24,Male,2022-04-27_12h49.59.901,Main,2022.1.1,59.98987370933252,
negative,blue,1,None,k,,,,,,,,,0,229,229,229,,,,,,,,,,,,,,,,,,,,,,,,,,,,,,,,,,,,,main,None,None,1,1.5059712000002037,725.2057264000002,None,None,1,,,,,,,,,,,,,,204,24,Male,2022-04-27_12h49.59.901,Main,2022.1.1,59.98987370933252,
positive,yellow,1,None,k,,,,,,,,,0,230,230,230,,,,,,,,,,,,,,,,,,,,,,,,,,,,,,,,,,,,,main,None,None,1,1.5083975000002283,727.7125343,None,None,1,,,,,,,,,,,,,,204,24,Male,2022-04-27_12h49.59.901,Main,2022.1.1,59.98987370933252,
negative,blue,2,None,k,,,,,,,,,0,231,231,231,,,,,,,,,,,,,,,,,,,,,,,,,,,,,,,,,,,,,main,None,None,1,1.4992400000000998,730.2208898000001,None,None,1,,,,,,,,,,,,,,204,24,Male,2022-04-27_12h49.59.901,Main,2022.1.1,59.98987370933252,
negative,red,1,None,None,,,,,,,,,0,232,232,232,,,,,,,,,,,,,,,,,,,,,,,,,,,,,,,,,,,,,main,None,None,1,1.5029331999999158,732.7218493000003,None,None,1,,,,,,,,,,,,,,204,24,Male,2022-04-27_12h49.59.901,Main,2022.1.1,59.98987370933252,
positive,blue,2,k,None,,,,,,,,,0,233,233,233,,,,,,,,,,,,,,,,,,,,,,,,,,,,,,,,,,,,,main,k,k,1,0.816524599999866,735.2292220000002,None,None,0,,,,,,,,,,,,,,204,24,Male,2022-04-27_12h49.59.901,Main,2022.1.1,59.98987370933252,
negative,yellow,1,k,None,,,,,,,,,0,234,234,234,,,,,,,,,,,,,,,,,,,,,,,,,,,,,,,,,,,,,main,k,k,1,1.0600045999999566,737.0460381999999,None,None,0,,,,,,,,,,,,,,204,24,Male,2022-04-27_12h49.59.901,Main,2022.1.1,59.98987370933252,
negative,yellow,2,k,None,,,,,,,,,0,235,235,235,,,,,,,,,,,,,,,,,,,,,,,,,,,,,,,,,,,,,main,k,k,1,0.9814096000000063,739.1076478000002,None,None,0,,,,,,,,,,,,,,204,24,Male,2022-04-27_12h49.59.901,Main,2022.1.1,59.98987370933252,
positive,red,1,None,None,,,,,,,,,0,236,236,236,,,,,,,,,,,,,,,,,,,,,,,,,,,,,,,,,,,,,main,None,None,1,1.511003399999936,741.0905177000002,None,None,1,,,,,,,,,,,,,,204,24,Male,2022-04-27_12h49.59.901,Main,2022.1.1,59.98987370933252,
negative,red,2,None,None,,,,,,,,,0,237,237,237,,,,,,,,,,,,,,,,,,,,,,,,,,,,,,,,,,,,,main,None,None,1,1.497296600000027,743.6027688000001,None,None,1,,,,,,,,,,,,,,204,24,Male,2022-04-27_12h49.59.901,Main,2022.1.1,59.98987370933252,
negative,blue,1,None,k,,,,,,,,,0,238,238,238,,,,,,,,,,,,,,,,,,,,,,,,,,,,,,,,,,,,,main,None,None,1,1.505080700000235,746.1004361000003,None,None,1,,,,,,,,,,,,,,204,24,Male,2022-04-27_12h49.59.901,Main,2022.1.1,59.98987370933252,
positive,blue,1,k,None,,,,,,,,,0,239,239,239,,,,,,,,,,,,,,,,,,,,,,,,,,,,,,,,,,,,,main,k,k,1,0.6486715000000913,748.6094378999999,None,None,0,,,,,,,,,,,,,,204,24,Male,2022-04-27_12h49.59.901,Main,2022.1.1,59.98987370933252,
,,,,,,,,,,,,,,,,,,,,,,,,,,,,,,,,,,,,,,,,,,,,,,,,,,,,,,,,,,,,,,,,,,,,,,,,,750.2471289000002,None,,,,,,,,
