distractor,target,set,ans1,ans2,rep_loop4.thisRepN,rep_loop4.thisTrialN,rep_loop4.thisN,rep_loop4.thisIndex,st2_prac_loop.thisRepN,st2_prac_loop.thisTrialN,st2_prac_loop.thisN,st2_prac_loop.thisIndex,st2_main_loop.thisRepN,st2_main_loop.thisTrialN,st2_main_loop.thisN,st2_main_loop.thisIndex,image_4.started,image_4.stopped,mouse_7.x,mouse_7.y,mouse_7.leftButton,mouse_7.midButton,mouse_7.rightButton,sound_2.started,sound_2.stopped,key_resp_3.keys,mouse_5.x,mouse_5.y,mouse_5.leftButton,mouse_5.midButton,mouse_5.rightButton,mouse_5.started,mouse_5.stopped,yes_text2.started,yes_text2.stopped,no_text2.started,no_text2.stopped,mouse_3.x,mouse_3.y,mouse_3.leftButton,mouse_3.midButton,mouse_3.rightButton,mouse_3.started,mouse_3.stopped,st_prac_back.started,st_prac_back.stopped,st_prac_text.started,st_prac_text.stopped,st_fix_back.started,st_fix_back.stopped,st_fix_2.started,st_fix_2.stopped,main_prac,st_ans,st_res,st_corr,st_rt,st_back.started,st_back.stopped,st2_resp.keys,st2_resp.corr,st_main_back.started,st_main_back.stopped,st_main_text.started,st_main_text.stopped,mouse_4.x,mouse_4.y,mouse_4.leftButton,mouse_4.midButton,mouse_4.rightButton,mouse_4.started,mouse_4.stopped,text_2.started,text_2.stopped,id*,age*,gender*,date,expName,psychopyVersion,frameRate,
,,,,,,,,,,,,,,,,,68.56706810000014,None,0.19907407,-0.22870371,0,0,0,,,,,,,,,,,,,,,,,,,,,,,,,,,,,,,,,,,,,,,,,,,,,,,,,,,,205,24,Female,2022-04-28_11h29.12.944,Main,2022.1.1,60.04087582836279,
negative,yellow,1,k,None,,,,,0,0,0,0,,,,,,,,,,,,73.18931323999959,None,None,0.19259259,-0.3148148,0,0,0,1.0107556800003294,None,128.18242439999995,None,128.18242439999995,None,-0.10462963,-0.073148146,0,0,0,0.01259933999972418,None,132.85663039999963,None,132.85663039999963,None,134.86592589999964,None,134.86592589999964,None,prac,None,None,1,1.5146537999999055,136.9024661000003,None,None,1,,,,,,,,,,,,,,205,24,Female,2022-04-28_11h29.12.944,Main,2022.1.1,60.04087582836279,
positive,red,2,None,None,,,,,0,1,1,1,,,,,,,,,,,,,,,,,,,,,,,,,,,,,,,,,,,,,,,,,prac,None,None,1,1.4938533999993524,139.40614970000024,None,None,1,,,,,,,,,,,,,,205,24,Female,2022-04-28_11h29.12.944,Main,2022.1.1,60.04087582836279,
negative,blue,2,None,k,,,,,0,2,2,2,,,,,,,,,,,,,,,,,,,,,,,,,,,,,,,,,,,,,,,,,prac,k,k,1,2.737003100000038,141.9020191999998,None,None,0,,,,,,,,,,,,,,205,24,Female,2022-04-28_11h29.12.944,Main,2022.1.1,60.04087582836279,
positive,yellow,1,None,k,,,,,0,3,3,3,,,,,,,,,,,,,,,,,,,,,,,,,,,,,,,,,,,,,,,,,prac,k,k,1,1.873176500000227,146.67545989999962,None,None,0,,,,,,,,,,,,,,205,24,Female,2022-04-28_11h29.12.944,Main,2022.1.1,60.04087582836279,
negative,blue,2,None,k,,,,,0,4,4,4,,,,,,,,,,,,,,,,,,,,,,,,,,,,,,,,,,,,,,,,,prac,k,k,1,1.1173777999993035,150.54813790000026,None,None,0,,,,,,,,,,,,,,205,24,Female,2022-04-28_11h29.12.944,Main,2022.1.1,60.04087582836279,
negative,blue,1,None,k,,,,,0,5,5,5,,,,,,,,,,,,,,,,,,,,,,,,,,,,,,,,,,,,,,,,,prac,k,k,1,1.067968600000313,152.6677166999998,None,None,0,,,,,,,,,,,,,,205,24,Female,2022-04-28_11h29.12.944,Main,2022.1.1,60.04087582836279,
negative,yellow,2,k,None,,,,,0,6,6,6,,,,,,,,,,,,,,,,,,,,,,,,,,,,,,,,,,,,,,,,,prac,None,None,1,1.5126594000003024,154.74563500000022,None,None,1,,,,,,,,,,,,,,205,24,Female,2022-04-28_11h29.12.944,Main,2022.1.1,60.04087582836279,
negative,red,1,None,None,,,,,0,7,7,7,,,,,,,,,,,,,,,,,,,,,,,,,,,,,,,,,,,,,,,,,prac,None,None,1,1.5002136000002793,157.26454110000032,None,None,1,,,,,,,,,,,,,,205,24,Female,2022-04-28_11h29.12.944,Main,2022.1.1,60.04087582836279,
positive,yellow,2,None,k,,,,,0,8,8,8,,,,,,,,,,,,,,,,,,,,,,,,,,,,,,,,,,,,,,,,,prac,k,k,1,1.13195369999994,159.76249219999954,None,None,0,,,,,,,,,,,,,,205,24,Female,2022-04-28_11h29.12.944,Main,2022.1.1,60.04087582836279,
negative,yellow,1,k,None,,,,,0,9,9,9,,,,,,,,,,,,,,,,,,,,,,,,,,,,,,,,,,,,,,,,,prac,None,None,1,1.5126000999998723,161.88726359999964,None,None,1,,,,,,,,,,,,,,205,24,Female,2022-04-28_11h29.12.944,Main,2022.1.1,60.04087582836279,
positive,yellow,2,None,k,,,,,0,10,10,10,,,,,,,,,,,,,,,,,,,,,,,,,,,,,,,,,,,,,,,,,prac,k,k,1,1.2273439000000508,164.40120879999995,None,None,0,,,,,,,,,,,,,,205,24,Female,2022-04-28_11h29.12.944,Main,2022.1.1,60.04087582836279,
negative,yellow,2,k,None,,,,,0,11,11,11,,,,,,,,,,,,,,,,,,,,,,,,,,,,,,,,,,,,,,,,,prac,None,None,1,1.5139732000006916,166.6280667000001,None,None,1,,,,,,,,,,,,,,205,24,Female,2022-04-28_11h29.12.944,Main,2022.1.1,60.04087582836279,
negative,red,2,None,None,,,,,0,12,12,12,,,,,,,,,,,,,,,,,,,,,,,,,,,,,,,,,,,,,,,,,prac,None,None,1,1.5048603999994157,169.1426750999999,None,None,1,,,,,,,,,,,,,,205,24,Female,2022-04-28_11h29.12.944,Main,2022.1.1,60.04087582836279,
positive,red,1,None,None,,,,,0,13,13,13,,,,,,,,,,,,,,,,,,,,,,,,,,,,,,,,,,,,,,,,,prac,None,None,1,1.5001413999998476,171.65115789999982,None,None,1,,,,,,,,,,,,,,205,24,Female,2022-04-28_11h29.12.944,Main,2022.1.1,60.04087582836279,
positive,blue,2,k,None,,,,,0,14,14,14,,,,,,,,,,,,,,,,,,,,,,,,,,,,,,,,,,,,,,,,,prac,None,None,1,1.506242999999813,174.15252189999956,None,None,1,,,,,,,,,,,,,,205,24,Female,2022-04-28_11h29.12.944,Main,2022.1.1,60.04087582836279,
positive,blue,1,k,None,,,,,0,15,15,15,,,,,,,,,,,,,,,,,,,,,,,,,,,,,,,,,,,,,,,,,prac,None,None,1,1.4987244000003557,176.65934610000022,None,None,1,,,,,,,,,,,,,,205,24,Female,2022-04-28_11h29.12.944,Main,2022.1.1,60.04087582836279,
negative,blue,1,None,k,,,,,0,16,16,16,,,,,,,,,,,,,,,,,,,,,,,,,,,,,,,,,,,,,,,,,prac,k,k,1,1.7993413000003784,179.16141619999962,None,None,0,,,,,,,,,,,,,,205,24,Female,2022-04-28_11h29.12.944,Main,2022.1.1,60.04087582836279,
positive,blue,2,k,None,,,,,0,17,17,17,,,,,,,,,,,,,,,,,,,,,,,,,,,,,,,,,,,,,,,,,prac,None,None,1,1.5036350000000311,182.96039139999993,None,None,1,,,,,,,,,,,,,,205,24,Female,2022-04-28_11h29.12.944,Main,2022.1.1,60.04087582836279,
positive,blue,1,k,None,,,,,0,18,18,18,,,,,,,,,,,,,,,,,,,,,,,,,,,,,,,,,,,,,,,,,prac,None,None,1,1.5090735000003406,185.46660749999955,None,None,1,,,,,,,,,,,,,,205,24,Female,2022-04-28_11h29.12.944,Main,2022.1.1,60.04087582836279,
positive,yellow,1,None,k,,,,,0,19,19,19,,,,,,,,,,,,,,,,,,,,,,,,,,,,,,,,,,,,,,,,,prac,k,k,1,1.1986627999995108,187.97471459999997,None,None,0,,,,,,,,,,,,,,205,24,Female,2022-04-28_11h29.12.944,Main,2022.1.1,60.04087582836279,
negative,yellow,1,k,None,,,,,1,0,20,0,,,,,,,,,,,,,,,,,,,,,,,,,,,,,,,,,,,,,,,,,prac,None,None,1,1.5094122000000425,190.17676029999984,None,None,1,,,,,,,,,,,,,,205,24,Female,2022-04-28_11h29.12.944,Main,2022.1.1,60.04087582836279,
positive,red,2,None,None,,,,,1,1,21,1,,,,,,,,,,,,,,,,,,,,,,,,,,,,,,,,,,,,,,,,,prac,None,None,1,1.5082130000000689,192.68762779999997,None,None,1,,,,,,,,,,,,,,205,24,Female,2022-04-28_11h29.12.944,Main,2022.1.1,60.04087582836279,
negative,blue,2,None,k,,,,,1,2,22,2,,,,,,,,,,,,,,,,,,,,,,,,,,,,,,,,,,,,,,,,,prac,k,k,1,1.3780311000000438,195.19839740000043,None,None,0,,,,,,,,,,,,,,205,24,Female,2022-04-28_11h29.12.944,Main,2022.1.1,60.04087582836279,
positive,yellow,1,None,k,,,,,1,3,23,3,,,,,,,,,,,,,,,,,,,,,,,,,,,,,,,,,,,,,,,,,prac,k,k,1,1.6366820000002917,197.57844709999972,None,None,0,,,,,,,,,,,,,,205,24,Female,2022-04-28_11h29.12.944,Main,2022.1.1,60.04087582836279,
negative,blue,2,None,k,,,,,1,4,24,4,,,,,,,,,,,,,,,,,,,,,,,,,,,,,,,,,,,,,,,,,prac,k,k,1,1.5175586999994266,201.22474460000012,None,None,0,,,,,,,,,,,,,,205,24,Female,2022-04-28_11h29.12.944,Main,2022.1.1,60.04087582836279,
negative,blue,1,None,k,,,,,1,5,25,5,,,,,,,,,,,,,,,,,,,,,,,,,,,,,,,,,,,,,,,,,prac,k,k,1,1.1855083000000377,204.7578480000002,None,None,0,,,,,,,,,,,,,,205,24,Female,2022-04-28_11h29.12.944,Main,2022.1.1,60.04087582836279,
negative,yellow,2,k,None,,,,,1,6,26,6,,,,,,,,,,,,,,,,,,,,,,,,,,,,,,,,,,,,,,,,,prac,None,None,1,1.4973311999992802,206.9452179,None,None,1,,,,,,,,,,,,,,205,24,Female,2022-04-28_11h29.12.944,Main,2022.1.1,60.04087582836279,
negative,red,1,None,None,,,,,1,7,27,7,,,,,,,,,,,,,,,,,,,,,,,,,,,,,,,,,,,,,,,,,prac,None,None,1,1.5135261000004903,209.4457554999999,None,None,1,,,,,,,,,,,,,,205,24,Female,2022-04-28_11h29.12.944,Main,2022.1.1,60.04087582836279,
positive,yellow,2,None,k,,,,,1,8,28,8,,,,,,,,,,,,,,,,,,,,,,,,,,,,,,,,,,,,,,,,,prac,k,k,1,0.848582599999645,211.96020549999957,None,None,0,,,,,,,,,,,,,,205,24,Female,2022-04-28_11h29.12.944,Main,2022.1.1,60.04087582836279,
negative,yellow,1,k,None,,,,,1,9,29,9,,,,,,,,,,,,,,,,,,,,,,,,,,,,,,,,,,,,,,,,,prac,None,None,1,1.5111054000008153,213.81020590000026,None,None,1,,,,,,,,,,,,,,205,24,Female,2022-04-28_11h29.12.944,Main,2022.1.1,60.04087582836279,
positive,yellow,2,None,k,,,,,1,10,30,10,,,,,,,,,,,,,,,,,,,,,,,,,,,,,,,,,,,,,,,,,prac,k,k,1,0.8427211999996871,216.3207665,None,None,0,,,,,,,,,,,,,,205,24,Female,2022-04-28_11h29.12.944,Main,2022.1.1,60.04087582836279,
negative,yellow,2,k,None,,,,,1,11,31,11,,,,,,,,,,,,,,,,,,,,,,,,,,,,,,,,,,,,,,,,,prac,None,None,1,1.5042016999996122,218.16704000000027,None,None,1,,,,,,,,,,,,,,205,24,Female,2022-04-28_11h29.12.944,Main,2022.1.1,60.04087582836279,
negative,red,2,None,None,,,,,1,12,32,12,,,,,,,,,,,,,,,,,,,,,,,,,,,,,,,,,,,,,,,,,prac,None,None,1,1.4966884999994363,220.67372830000022,None,None,1,,,,,,,,,,,,,,205,24,Female,2022-04-28_11h29.12.944,Main,2022.1.1,60.04087582836279,
positive,red,1,None,None,,,,,1,13,33,13,,,,,,,,,,,,,,,,,,,,,,,,,,,,,,,,,,,,,,,,,prac,None,None,1,1.5099817999998777,223.1817471000004,None,None,1,,,,,,,,,,,,,,205,24,Female,2022-04-28_11h29.12.944,Main,2022.1.1,60.04087582836279,
positive,blue,2,k,None,,,,,1,14,34,14,,,,,,,,,,,,,,,,,,,,,,,,,,,,,,,,,,,,,,,,,prac,None,k,0,0.8927764999998544,225.68252140000004,None,None,1,,,,,,,,,,,,,,205,24,Female,2022-04-28_11h29.12.944,Main,2022.1.1,60.04087582836279,
positive,blue,1,k,None,,,,,1,15,35,15,,,,,,,,,,,,,,,,,,,,,,,,,,,,,,,,,,,,,,,,,prac,None,None,1,1.506736500000443,228.58804059999966,None,None,1,,,,,,,,,,,,,,205,24,Female,2022-04-28_11h29.12.944,Main,2022.1.1,60.04087582836279,
negative,blue,1,None,k,,,,,1,16,36,16,,,,,,,,,,,,,,,,,,,,,,,,,,,,,,,,,,,,,,,,,prac,k,k,1,1.2011186999998245,231.09602110000014,None,None,0,,,,,,,,,,,,,,205,24,Female,2022-04-28_11h29.12.944,Main,2022.1.1,60.04087582836279,
positive,blue,2,k,None,,,,,1,17,37,17,,,,,,,,,,,,,,,,,,,,,,,,,,,,,,,,,,,,,,,,,prac,None,None,1,1.5058052000003954,233.2994219000002,None,None,1,,,,,,,,,,,,,,205,24,Female,2022-04-28_11h29.12.944,Main,2022.1.1,60.04087582836279,
positive,blue,1,k,None,,,,,1,18,38,18,,,,,,,,,,,,,,,,,,,,,,,,,,,,,,,,,,,,,,,,,prac,None,None,1,1.4986756999996942,235.80776419999984,None,None,1,,,,,,,,,,,,,,205,24,Female,2022-04-28_11h29.12.944,Main,2022.1.1,60.04087582836279,
positive,yellow,1,None,k,,,,,1,19,39,19,,,,,,,,,,,,,,,,,,,,,,,,,,,,,,,,,,,,,,,,,prac,k,k,1,1.2489284000002954,238.30780760000016,None,None,0,,,,,,,,,,,,,,205,24,Female,2022-04-28_11h29.12.944,Main,2022.1.1,60.04087582836279,
,,,,,,,,,,,,,,,,,,,,,,,,,,,,,,,,,,,,,,,,,,,,,,,,,,,,,,,,,,,,,,240.5730437000002,None,240.5730437000002,None,0.039814815,-0.097222224,0,0,0,0.011901439999746799,None,,,205,24,Female,2022-04-28_11h29.12.944,Main,2022.1.1,60.04087582836279,
negative,yellow,2,k,None,,,,,,,,,0,0,0,0,,,,,,,,,,,,,,,,,,,,,,,,,,,,,,,,,242.45182589999968,None,242.45182589999968,None,main,None,None,1,1.5065678999999363,244.52055269999983,None,None,1,,,,,,,,,,,,,,205,24,Female,2022-04-28_11h29.12.944,Main,2022.1.1,60.04087582836279,
positive,red,1,None,None,,,,,,,,,0,1,1,1,,,,,,,,,,,,,,,,,,,,,,,,,,,,,,,,,,,,,main,None,None,1,1.5114923999999519,247.0319741000003,None,None,1,,,,,,,,,,,,,,205,24,Female,2022-04-28_11h29.12.944,Main,2022.1.1,60.04087582836279,
positive,blue,2,k,None,,,,,,,,,0,2,2,2,,,,,,,,,,,,,,,,,,,,,,,,,,,,,,,,,,,,,main,None,None,1,1.5012054999997417,249.54779390000022,None,None,1,,,,,,,,,,,,,,205,24,Female,2022-04-28_11h29.12.944,Main,2022.1.1,60.04087582836279,
positive,blue,1,k,None,,,,,,,,,0,3,3,3,,,,,,,,,,,,,,,,,,,,,,,,,,,,,,,,,,,,,main,None,None,1,1.4976715999991939,252.05276289999983,None,None,1,,,,,,,,,,,,,,205,24,Female,2022-04-28_11h29.12.944,Main,2022.1.1,60.04087582836279,
negative,yellow,2,k,None,,,,,,,,,0,4,4,4,,,,,,,,,,,,,,,,,,,,,,,,,,,,,,,,,,,,,main,None,None,1,1.4967491999996128,254.55258570000024,None,None,1,,,,,,,,,,,,,,205,24,Female,2022-04-28_11h29.12.944,Main,2022.1.1,60.04087582836279,
positive,yellow,2,None,k,,,,,,,,,0,5,5,5,,,,,,,,,,,,,,,,,,,,,,,,,,,,,,,,,,,,,main,k,k,1,1.8082409999997253,257.04829249999966,None,None,0,,,,,,,,,,,,,,205,24,Female,2022-04-28_11h29.12.944,Main,2022.1.1,60.04087582836279,
negative,blue,2,None,k,,,,,,,,,0,6,6,6,,,,,,,,,,,,,,,,,,,,,,,,,,,,,,,,,,,,,main,k,k,1,1.1677263000001403,260.8670718000003,None,None,0,,,,,,,,,,,,,,205,24,Female,2022-04-28_11h29.12.944,Main,2022.1.1,60.04087582836279,
positive,red,2,None,None,,,,,,,,,0,7,7,7,,,,,,,,,,,,,,,,,,,,,,,,,,,,,,,,,,,,,main,None,None,1,1.5042038000001412,263.0372983999996,None,None,1,,,,,,,,,,,,,,205,24,Female,2022-04-28_11h29.12.944,Main,2022.1.1,60.04087582836279,
positive,yellow,1,None,k,,,,,,,,,0,8,8,8,,,,,,,,,,,,,,,,,,,,,,,,,,,,,,,,,,,,,main,k,k,1,1.0303180000000793,265.54219120000016,None,None,0,,,,,,,,,,,,,,205,24,Female,2022-04-28_11h29.12.944,Main,2022.1.1,60.04087582836279,
negative,red,1,None,None,,,,,,,,,0,9,9,9,,,,,,,,,,,,,,,,,,,,,,,,,,,,,,,,,,,,,main,None,None,1,1.494303200000104,267.5740702000003,None,None,1,,,,,,,,,,,,,,205,24,Female,2022-04-28_11h29.12.944,Main,2022.1.1,60.04087582836279,
positive,yellow,1,None,k,,,,,,,,,0,10,10,10,,,,,,,,,,,,,,,,,,,,,,,,,,,,,,,,,,,,,main,k,k,1,1.0639534000001731,270.0703421999997,None,None,0,,,,,,,,,,,,,,205,24,Female,2022-04-28_11h29.12.944,Main,2022.1.1,60.04087582836279,
negative,yellow,1,k,None,,,,,,,,,0,11,11,11,,,,,,,,,,,,,,,,,,,,,,,,,,,,,,,,,,,,,main,None,None,1,1.5040249000003314,272.13636289999977,None,None,1,,,,,,,,,,,,,,205,24,Female,2022-04-28_11h29.12.944,Main,2022.1.1,60.04087582836279,
negative,yellow,1,k,None,,,,,,,,,0,12,12,12,,,,,,,,,,,,,,,,,,,,,,,,,,,,,,,,,,,,,main,None,None,1,1.498077799999919,274.6409918999998,None,None,1,,,,,,,,,,,,,,205,24,Female,2022-04-28_11h29.12.944,Main,2022.1.1,60.04087582836279,
negative,red,2,None,None,,,,,,,,,0,13,13,13,,,,,,,,,,,,,,,,,,,,,,,,,,,,,,,,,,,,,main,None,None,1,1.5092428000007203,277.14067840000007,None,None,1,,,,,,,,,,,,,,205,24,Female,2022-04-28_11h29.12.944,Main,2022.1.1,60.04087582836279,
positive,yellow,2,None,k,,,,,,,,,0,14,14,14,,,,,,,,,,,,,,,,,,,,,,,,,,,,,,,,,,,,,main,k,k,1,1.2343895000003613,279.65234059999966,None,None,0,,,,,,,,,,,,,,205,24,Female,2022-04-28_11h29.12.944,Main,2022.1.1,60.04087582836279,
positive,blue,1,k,None,,,,,,,,,0,15,15,15,,,,,,,,,,,,,,,,,,,,,,,,,,,,,,,,,,,,,main,None,None,1,1.507876500000748,281.88823030000003,None,None,1,,,,,,,,,,,,,,205,24,Female,2022-04-28_11h29.12.944,Main,2022.1.1,60.04087582836279,
negative,blue,1,None,k,,,,,,,,,0,16,16,16,,,,,,,,,,,,,,,,,,,,,,,,,,,,,,,,,,,,,main,k,k,1,0.7766124999998283,284.3973511000004,None,None,0,,,,,,,,,,,,,,205,24,Female,2022-04-28_11h29.12.944,Main,2022.1.1,60.04087582836279,
positive,blue,2,k,None,,,,,,,,,0,17,17,17,,,,,,,,,,,,,,,,,,,,,,,,,,,,,,,,,,,,,main,None,None,1,1.5120194000000993,286.17834440000024,None,None,1,,,,,,,,,,,,,,205,24,Female,2022-04-28_11h29.12.944,Main,2022.1.1,60.04087582836279,
negative,blue,2,None,k,,,,,,,,,0,18,18,18,,,,,,,,,,,,,,,,,,,,,,,,,,,,,,,,,,,,,main,k,k,1,1.0165863000001991,288.68986419999965,None,None,0,,,,,,,,,,,,,,205,24,Female,2022-04-28_11h29.12.944,Main,2022.1.1,60.04087582836279,
negative,blue,1,None,k,,,,,,,,,0,19,19,19,,,,,,,,,,,,,,,,,,,,,,,,,,,,,,,,,,,,,main,k,k,1,1.0959530000000086,290.7111821999997,None,None,0,,,,,,,,,,,,,,205,24,Female,2022-04-28_11h29.12.944,Main,2022.1.1,60.04087582836279,
negative,blue,1,None,k,,,,,,,,,0,20,20,20,,,,,,,,,,,,,,,,,,,,,,,,,,,,,,,,,,,,,main,k,k,1,1.2644019999997909,292.80672289999984,None,None,0,,,,,,,,,,,,,,205,24,Female,2022-04-28_11h29.12.944,Main,2022.1.1,60.04087582836279,
negative,blue,2,None,k,,,,,,,,,0,21,21,21,,,,,,,,,,,,,,,,,,,,,,,,,,,,,,,,,,,,,main,k,k,1,1.3007932000000437,295.0723638999998,None,None,0,,,,,,,,,,,,,,205,24,Female,2022-04-28_11h29.12.944,Main,2022.1.1,60.04087582836279,
negative,red,1,None,None,,,,,,,,,0,22,22,22,,,,,,,,,,,,,,,,,,,,,,,,,,,,,,,,,,,,,main,None,None,1,1.5016146999996636,297.37671390000014,None,None,1,,,,,,,,,,,,,,205,24,Female,2022-04-28_11h29.12.944,Main,2022.1.1,60.04087582836279,
positive,red,2,None,None,,,,,,,,,0,23,23,23,,,,,,,,,,,,,,,,,,,,,,,,,,,,,,,,,,,,,main,None,None,1,1.5032836999998835,299.87721930000043,None,None,1,,,,,,,,,,,,,,205,24,Female,2022-04-28_11h29.12.944,Main,2022.1.1,60.04087582836279,
negative,red,2,None,None,,,,,,,,,0,24,24,24,,,,,,,,,,,,,,,,,,,,,,,,,,,,,,,,,,,,,main,None,None,1,1.5081752999994933,302.3841844999997,None,None,1,,,,,,,,,,,,,,205,24,Female,2022-04-28_11h29.12.944,Main,2022.1.1,60.04087582836279,
positive,blue,2,k,None,,,,,,,,,0,25,25,25,,,,,,,,,,,,,,,,,,,,,,,,,,,,,,,,,,,,,main,None,None,1,1.4991008000006332,304.89217480000025,None,None,1,,,,,,,,,,,,,,205,24,Female,2022-04-28_11h29.12.944,Main,2022.1.1,60.04087582836279,
negative,yellow,1,k,None,,,,,,,,,0,26,26,26,,,,,,,,,,,,,,,,,,,,,,,,,,,,,,,,,,,,,main,None,None,1,1.5067730000000665,307.39319720000003,None,None,1,,,,,,,,,,,,,,205,24,Female,2022-04-28_11h29.12.944,Main,2022.1.1,60.04087582836279,
positive,blue,2,k,None,,,,,,,,,0,27,27,27,,,,,,,,,,,,,,,,,,,,,,,,,,,,,,,,,,,,,main,None,None,1,1.5095038999997996,309.90271310000026,None,None,1,,,,,,,,,,,,,,205,24,Female,2022-04-28_11h29.12.944,Main,2022.1.1,60.04087582836279,
negative,blue,2,None,k,,,,,,,,,0,28,28,28,,,,,,,,,,,,,,,,,,,,,,,,,,,,,,,,,,,,,main,k,k,1,1.261261700000432,312.4147988000004,None,None,0,,,,,,,,,,,,,,205,24,Female,2022-04-28_11h29.12.944,Main,2022.1.1,60.04087582836279,
positive,red,1,None,None,,,,,,,,,0,29,29,29,,,,,,,,,,,,,,,,,,,,,,,,,,,,,,,,,,,,,main,None,None,1,1.5154807999997502,314.67590889999974,None,None,1,,,,,,,,,,,,,,205,24,Female,2022-04-28_11h29.12.944,Main,2022.1.1,60.04087582836279,
positive,blue,1,k,None,,,,,,,,,0,30,30,30,,,,,,,,,,,,,,,,,,,,,,,,,,,,,,,,,,,,,main,None,None,1,1.5042532999996183,317.19293480000033,None,None,1,,,,,,,,,,,,,,205,24,Female,2022-04-28_11h29.12.944,Main,2022.1.1,60.04087582836279,
positive,yellow,1,None,k,,,,,,,,,0,31,31,31,,,,,,,,,,,,,,,,,,,,,,,,,,,,,,,,,,,,,main,k,k,1,0.9578043000001344,319.6999015000001,None,None,0,,,,,,,,,,,,,,205,24,Female,2022-04-28_11h29.12.944,Main,2022.1.1,60.04087582836279,
negative,yellow,2,k,None,,,,,,,,,0,32,32,32,,,,,,,,,,,,,,,,,,,,,,,,,,,,,,,,,,,,,main,None,None,1,1.504873900000348,321.66080859999965,None,None,1,,,,,,,,,,,,,,205,24,Female,2022-04-28_11h29.12.944,Main,2022.1.1,60.04087582836279,
negative,blue,1,None,k,,,,,,,,,0,33,33,33,,,,,,,,,,,,,,,,,,,,,,,,,,,,,,,,,,,,,main,k,k,1,1.2542049000003317,324.1662692,None,None,0,,,,,,,,,,,,,,205,24,Female,2022-04-28_11h29.12.944,Main,2022.1.1,60.04087582836279,
positive,blue,1,k,None,,,,,,,,,0,34,34,34,,,,,,,,,,,,,,,,,,,,,,,,,,,,,,,,,,,,,main,None,None,1,1.4953496999996787,326.4219839999996,None,None,1,,,,,,,,,,,,,,205,24,Female,2022-04-28_11h29.12.944,Main,2022.1.1,60.04087582836279,
negative,yellow,1,k,None,,,,,,,,,0,35,35,35,,,,,,,,,,,,,,,,,,,,,,,,,,,,,,,,,,,,,main,None,None,1,1.5004332999997132,328.92114310000034,None,None,1,,,,,,,,,,,,,,205,24,Female,2022-04-28_11h29.12.944,Main,2022.1.1,60.04087582836279,
positive,yellow,2,None,k,,,,,,,,,0,36,36,36,,,,,,,,,,,,,,,,,,,,,,,,,,,,,,,,,,,,,main,k,k,1,0.8997620999998617,331.42268049999984,None,None,0,,,,,,,,,,,,,,205,24,Female,2022-04-28_11h29.12.944,Main,2022.1.1,60.04087582836279,
positive,yellow,2,None,k,,,,,,,,,0,37,37,37,,,,,,,,,,,,,,,,,,,,,,,,,,,,,,,,,,,,,main,k,k,1,0.7931993000001967,333.3264602999998,None,None,0,,,,,,,,,,,,,,205,24,Female,2022-04-28_11h29.12.944,Main,2022.1.1,60.04087582836279,
negative,yellow,2,k,None,,,,,,,,,0,38,38,38,,,,,,,,,,,,,,,,,,,,,,,,,,,,,,,,,,,,,main,None,None,1,1.5079807000001892,335.1207360999997,None,None,1,,,,,,,,,,,,,,205,24,Female,2022-04-28_11h29.12.944,Main,2022.1.1,60.04087582836279,
positive,yellow,1,None,k,,,,,,,,,0,39,39,39,,,,,,,,,,,,,,,,,,,,,,,,,,,,,,,,,,,,,main,k,k,1,0.841536900000392,337.6321412999996,None,None,0,,,,,,,,,,,,,,205,24,Female,2022-04-28_11h29.12.944,Main,2022.1.1,60.04087582836279,
negative,yellow,2,k,None,,,,,,,,,0,40,40,40,,,,,,,,,,,,,,,,,,,,,,,,,,,,,,,,,,,,,main,None,None,1,1.4977700999997978,339.4739221,None,None,1,,,,,,,,,,,,,,205,24,Female,2022-04-28_11h29.12.944,Main,2022.1.1,60.04087582836279,
positive,blue,2,k,None,,,,,,,,,0,41,41,41,,,,,,,,,,,,,,,,,,,,,,,,,,,,,,,,,,,,,main,None,None,1,1.5020672999999078,341.97241759999997,None,None,1,,,,,,,,,,,,,,205,24,Female,2022-04-28_11h29.12.944,Main,2022.1.1,60.04087582836279,
positive,blue,2,k,None,,,,,,,,,0,42,42,42,,,,,,,,,,,,,,,,,,,,,,,,,,,,,,,,,,,,,main,None,None,1,1.4986932000001616,344.4772898000001,None,None,1,,,,,,,,,,,,,,205,24,Female,2022-04-28_11h29.12.944,Main,2022.1.1,60.04087582836279,
negative,blue,2,None,k,,,,,,,,,0,43,43,43,,,,,,,,,,,,,,,,,,,,,,,,,,,,,,,,,,,,,main,k,k,1,1.0878393000002688,346.9786862000001,None,None,0,,,,,,,,,,,,,,205,24,Female,2022-04-28_11h29.12.944,Main,2022.1.1,60.04087582836279,
negative,red,1,None,None,,,,,,,,,0,44,44,44,,,,,,,,,,,,,,,,,,,,,,,,,,,,,,,,,,,,,main,None,None,1,1.497357600000214,349.06821409999975,None,None,1,,,,,,,,,,,,,,205,24,Female,2022-04-28_11h29.12.944,Main,2022.1.1,60.04087582836279,
negative,yellow,1,k,None,,,,,,,,,0,45,45,45,,,,,,,,,,,,,,,,,,,,,,,,,,,,,,,,,,,,,main,None,None,1,1.502071399999295,351.56891369999994,None,None,1,,,,,,,,,,,,,,205,24,Female,2022-04-28_11h29.12.944,Main,2022.1.1,60.04087582836279,
negative,yellow,1,k,None,,,,,,,,,0,46,46,46,,,,,,,,,,,,,,,,,,,,,,,,,,,,,,,,,,,,,main,None,None,1,1.5064394000000902,354.0751682,None,None,1,,,,,,,,,,,,,,205,24,Female,2022-04-28_11h29.12.944,Main,2022.1.1,60.04087582836279,
positive,red,1,None,None,,,,,,,,,0,47,47,47,,,,,,,,,,,,,,,,,,,,,,,,,,,,,,,,,,,,,main,None,None,1,1.509762700000465,356.58181160000004,None,None,1,,,,,,,,,,,,,,205,24,Female,2022-04-28_11h29.12.944,Main,2022.1.1,60.04087582836279,
positive,yellow,1,None,k,,,,,,,,,0,48,48,48,,,,,,,,,,,,,,,,,,,,,,,,,,,,,,,,,,,,,main,k,k,1,1.0706811000000016,359.09371759999976,None,None,0,,,,,,,,,,,,,,205,24,Female,2022-04-28_11h29.12.944,Main,2022.1.1,60.04087582836279,
negative,blue,1,None,k,,,,,,,,,0,49,49,49,,,,,,,,,,,,,,,,,,,,,,,,,,,,,,,,,,,,,main,k,k,1,1.100822700000208,361.1658944999999,None,None,0,,,,,,,,,,,,,,205,24,Female,2022-04-28_11h29.12.944,Main,2022.1.1,60.04087582836279,
positive,yellow,2,None,k,,,,,,,,,0,50,50,50,,,,,,,,,,,,,,,,,,,,,,,,,,,,,,,,,,,,,main,k,k,1,0.8850170999994589,363.2677117000003,None,None,0,,,,,,,,,,,,,,205,24,Female,2022-04-28_11h29.12.944,Main,2022.1.1,60.04087582836279,
negative,blue,1,None,k,,,,,,,,,0,51,51,51,,,,,,,,,,,,,,,,,,,,,,,,,,,,,,,,,,,,,main,k,k,1,0.8760256000005029,365.15630989999954,None,None,0,,,,,,,,,,,,,,205,24,Female,2022-04-28_11h29.12.944,Main,2022.1.1,60.04087582836279,
positive,red,2,None,None,,,,,,,,,0,52,52,52,,,,,,,,,,,,,,,,,,,,,,,,,,,,,,,,,,,,,main,None,None,1,1.5044041999999536,367.0338855,None,None,1,,,,,,,,,,,,,,205,24,Female,2022-04-28_11h29.12.944,Main,2022.1.1,60.04087582836279,
positive,yellow,2,None,k,,,,,,,,,0,53,53,53,,,,,,,,,,,,,,,,,,,,,,,,,,,,,,,,,,,,,main,k,k,1,0.8423061000003145,369.5415899999998,None,None,0,,,,,,,,,,,,,,205,24,Female,2022-04-28_11h29.12.944,Main,2022.1.1,60.04087582836279,
negative,red,2,None,None,,,,,,,,,0,54,54,54,,,,,,,,,,,,,,,,,,,,,,,,,,,,,,,,,,,,,main,None,None,1,1.4961178000003201,371.38408569999956,None,None,1,,,,,,,,,,,,,,205,24,Female,2022-04-28_11h29.12.944,Main,2022.1.1,60.04087582836279,
positive,yellow,1,None,k,,,,,,,,,0,55,55,55,,,,,,,,,,,,,,,,,,,,,,,,,,,,,,,,,,,,,main,k,k,1,0.8046988999994937,373.8820477999998,None,None,0,,,,,,,,,,,,,,205,24,Female,2022-04-28_11h29.12.944,Main,2022.1.1,60.04087582836279,
negative,blue,2,None,k,,,,,,,,,0,56,56,56,,,,,,,,,,,,,,,,,,,,,,,,,,,,,,,,,,,,,main,k,k,1,0.7499879000006331,375.69086229999994,None,None,0,,,,,,,,,,,,,,205,24,Female,2022-04-28_11h29.12.944,Main,2022.1.1,60.04087582836279,
positive,blue,1,k,None,,,,,,,,,0,57,57,57,,,,,,,,,,,,,,,,,,,,,,,,,,,,,,,,,,,,,main,None,None,1,1.4995571999997992,377.4417119,None,None,1,,,,,,,,,,,,,,205,24,Female,2022-04-28_11h29.12.944,Main,2022.1.1,60.04087582836279,
positive,blue,1,k,None,,,,,,,,,0,58,58,58,,,,,,,,,,,,,,,,,,,,,,,,,,,,,,,,,,,,,main,None,None,1,1.5076381999997466,379.9423794000004,None,None,1,,,,,,,,,,,,,,205,24,Female,2022-04-28_11h29.12.944,Main,2022.1.1,60.04087582836279,
negative,yellow,2,k,None,,,,,,,,,0,59,59,59,,,,,,,,,,,,,,,,,,,,,,,,,,,,,,,,,,,,,main,None,None,1,1.5028992999996262,382.4521525,None,None,1,,,,,,,,,,,,,,205,24,Female,2022-04-28_11h29.12.944,Main,2022.1.1,60.04087582836279,
positive,red,2,None,None,,,,,,,,,0,60,60,60,,,,,,,,,,,,,,,,,,,,,,,,,,,,,,,,,,,,,main,None,None,1,1.4972036999997727,384.95718510000006,None,None,1,,,,,,,,,,,,,,205,24,Female,2022-04-28_11h29.12.944,Main,2022.1.1,60.04087582836279,
negative,yellow,1,k,None,,,,,,,,,0,61,61,61,,,,,,,,,,,,,,,,,,,,,,,,,,,,,,,,,,,,,main,None,None,1,1.5027382999996917,387.45580599999994,None,None,1,,,,,,,,,,,,,,205,24,Female,2022-04-28_11h29.12.944,Main,2022.1.1,60.04087582836279,
negative,red,1,None,None,,,,,,,,,0,62,62,62,,,,,,,,,,,,,,,,,,,,,,,,,,,,,,,,,,,,,main,None,None,1,1.5063356000000567,389.95952769999985,None,None,1,,,,,,,,,,,,,,205,24,Female,2022-04-28_11h29.12.944,Main,2022.1.1,60.04087582836279,
negative,blue,1,None,k,,,,,,,,,0,63,63,63,,,,,,,,,,,,,,,,,,,,,,,,,,,,,,,,,,,,,main,k,k,1,0.8554775000002337,392.4648851000002,None,None,0,,,,,,,,,,,,,,205,24,Female,2022-04-28_11h29.12.944,Main,2022.1.1,60.04087582836279,
positive,blue,2,k,None,,,,,,,,,0,64,64,64,,,,,,,,,,,,,,,,,,,,,,,,,,,,,,,,,,,,,main,None,None,1,1.4956296999998813,394.3234046999996,None,None,1,,,,,,,,,,,,,,205,24,Female,2022-04-28_11h29.12.944,Main,2022.1.1,60.04087582836279,
negative,yellow,2,k,None,,,,,,,,,0,65,65,65,,,,,,,,,,,,,,,,,,,,,,,,,,,,,,,,,,,,,main,None,None,1,1.4993344999993496,396.8222249999999,None,None,1,,,,,,,,,,,,,,205,24,Female,2022-04-28_11h29.12.944,Main,2022.1.1,60.04087582836279,
positive,yellow,2,None,k,,,,,,,,,0,66,66,66,,,,,,,,,,,,,,,,,,,,,,,,,,,,,,,,,,,,,main,k,k,1,0.9030917999998564,399.32270809999955,None,None,0,,,,,,,,,,,,,,205,24,Female,2022-04-28_11h29.12.944,Main,2022.1.1,60.04087582836279,
positive,yellow,2,None,k,,,,,,,,,0,67,67,67,,,,,,,,,,,,,,,,,,,,,,,,,,,,,,,,,,,,,main,k,k,1,0.8702320000002146,401.22664050000003,None,None,0,,,,,,,,,,,,,,205,24,Female,2022-04-28_11h29.12.944,Main,2022.1.1,60.04087582836279,
positive,red,1,None,None,,,,,,,,,0,68,68,68,,,,,,,,,,,,,,,,,,,,,,,,,,,,,,,,,,,,,main,None,None,1,1.5068501000005199,403.0974825000003,None,None,1,,,,,,,,,,,,,,205,24,Female,2022-04-28_11h29.12.944,Main,2022.1.1,60.04087582836279,
positive,yellow,1,None,k,,,,,,,,,0,69,69,69,,,,,,,,,,,,,,,,,,,,,,,,,,,,,,,,,,,,,main,k,k,1,1.2045798999997714,405.6064828999997,None,None,0,,,,,,,,,,,,,,205,24,Female,2022-04-28_11h29.12.944,Main,2022.1.1,60.04087582836279,
negative,yellow,2,k,None,,,,,,,,,0,70,70,70,,,,,,,,,,,,,,,,,,,,,,,,,,,,,,,,,,,,,main,None,None,1,1.5036096000003454,407.8109894999998,None,None,1,,,,,,,,,,,,,,205,24,Female,2022-04-28_11h29.12.944,Main,2022.1.1,60.04087582836279,
positive,yellow,1,None,k,,,,,,,,,0,71,71,71,,,,,,,,,,,,,,,,,,,,,,,,,,,,,,,,,,,,,main,k,k,1,0.850820399999975,410.3192316000004,None,None,0,,,,,,,,,,,,,,205,24,Female,2022-04-28_11h29.12.944,Main,2022.1.1,60.04087582836279,
negative,blue,1,None,k,,,,,,,,,0,72,72,72,,,,,,,,,,,,,,,,,,,,,,,,,,,,,,,,,,,,,main,k,k,1,1.2243617999993148,412.1711140999996,None,None,0,,,,,,,,,,,,,,205,24,Female,2022-04-28_11h29.12.944,Main,2022.1.1,60.04087582836279,
negative,red,2,None,None,,,,,,,,,0,73,73,73,,,,,,,,,,,,,,,,,,,,,,,,,,,,,,,,,,,,,main,None,None,1,1.5020176000007268,414.3948680000003,None,None,1,,,,,,,,,,,,,,205,24,Female,2022-04-28_11h29.12.944,Main,2022.1.1,60.04087582836279,
positive,blue,2,k,None,,,,,,,,,0,74,74,74,,,,,,,,,,,,,,,,,,,,,,,,,,,,,,,,,,,,,main,None,None,1,1.4957125999999334,416.9009076000002,None,None,1,,,,,,,,,,,,,,205,24,Female,2022-04-28_11h29.12.944,Main,2022.1.1,60.04087582836279,
negative,blue,2,None,k,,,,,,,,,0,75,75,75,,,,,,,,,,,,,,,,,,,,,,,,,,,,,,,,,,,,,main,k,k,1,1.023033999999825,419.3952153,None,None,0,,,,,,,,,,,,,,205,24,Female,2022-04-28_11h29.12.944,Main,2022.1.1,60.04087582836279,
negative,blue,2,None,k,,,,,,,,,0,76,76,76,,,,,,,,,,,,,,,,,,,,,,,,,,,,,,,,,,,,,main,k,k,1,0.8337000000001353,421.42216279999957,None,None,0,,,,,,,,,,,,,,205,24,Female,2022-04-28_11h29.12.944,Main,2022.1.1,60.04087582836279,
negative,yellow,1,k,None,,,,,,,,,0,77,77,77,,,,,,,,,,,,,,,,,,,,,,,,,,,,,,,,,,,,,main,None,None,1,1.503435399999944,423.2574639000004,None,None,1,,,,,,,,,,,,,,205,24,Female,2022-04-28_11h29.12.944,Main,2022.1.1,60.04087582836279,
positive,blue,1,k,None,,,,,,,,,0,78,78,78,,,,,,,,,,,,,,,,,,,,,,,,,,,,,,,,,,,,,main,None,None,1,1.5015440999995917,425.7617005000002,None,None,1,,,,,,,,,,,,,,205,24,Female,2022-04-28_11h29.12.944,Main,2022.1.1,60.04087582836279,
positive,blue,1,k,None,,,,,,,,,0,79,79,79,,,,,,,,,,,,,,,,,,,,,,,,,,,,,,,,,,,,,main,None,None,1,1.508691799999724,428.26729239999986,None,None,1,,,,,,,,,,,,,,205,24,Female,2022-04-28_11h29.12.944,Main,2022.1.1,60.04087582836279,
positive,red,2,None,None,,,,,,,,,0,80,80,80,,,,,,,,,,,,,,,,,,,,,,,,,,,,,,,,,,,,,main,None,None,1,1.4994510999995327,430.77627500000017,None,None,1,,,,,,,,,,,,,,205,24,Female,2022-04-28_11h29.12.944,Main,2022.1.1,60.04087582836279,
positive,yellow,2,None,k,,,,,,,,,0,81,81,81,,,,,,,,,,,,,,,,,,,,,,,,,,,,,,,,,,,,,main,k,k,1,1.0695188999998209,433.2762910000001,None,None,0,,,,,,,,,,,,,,205,24,Female,2022-04-28_11h29.12.944,Main,2022.1.1,60.04087582836279,
positive,blue,1,k,None,,,,,,,,,0,82,82,82,,,,,,,,,,,,,,,,,,,,,,,,,,,,,,,,,,,,,main,None,None,1,1.5115686999997706,435.3494172999999,None,None,1,,,,,,,,,,,,,,205,24,Female,2022-04-28_11h29.12.944,Main,2022.1.1,60.04087582836279,
negative,yellow,2,k,None,,,,,,,,,0,83,83,83,,,,,,,,,,,,,,,,,,,,,,,,,,,,,,,,,,,,,main,None,None,1,1.5098386999998183,437.86086499999965,None,None,1,,,,,,,,,,,,,,205,24,Female,2022-04-28_11h29.12.944,Main,2022.1.1,60.04087582836279,
positive,blue,2,k,None,,,,,,,,,0,84,84,84,,,,,,,,,,,,,,,,,,,,,,,,,,,,,,,,,,,,,main,None,None,1,1.509664100000009,440.3734311999997,None,None,1,,,,,,,,,,,,,,205,24,Female,2022-04-28_11h29.12.944,Main,2022.1.1,60.04087582836279,
positive,yellow,1,None,k,,,,,,,,,0,85,85,85,,,,,,,,,,,,,,,,,,,,,,,,,,,,,,,,,,,,,main,k,k,1,1.0160946999994849,442.88630360000025,None,None,0,,,,,,,,,,,,,,205,24,Female,2022-04-28_11h29.12.944,Main,2022.1.1,60.04087582836279,
positive,blue,2,k,None,,,,,,,,,0,86,86,86,,,,,,,,,,,,,,,,,,,,,,,,,,,,,,,,,,,,,main,None,None,1,1.5110415999997713,444.90443330000016,None,None,1,,,,,,,,,,,,,,205,24,Female,2022-04-28_11h29.12.944,Main,2022.1.1,60.04087582836279,
positive,blue,1,k,None,,,,,,,,,0,87,87,87,,,,,,,,,,,,,,,,,,,,,,,,,,,,,,,,,,,,,main,None,None,1,1.499170199999753,447.4177083000004,None,None,1,,,,,,,,,,,,,,205,24,Female,2022-04-28_11h29.12.944,Main,2022.1.1,60.04087582836279,
negative,yellow,2,k,None,,,,,,,,,0,88,88,88,,,,,,,,,,,,,,,,,,,,,,,,,,,,,,,,,,,,,main,None,None,1,1.5102174000003288,449.9175912999999,None,None,1,,,,,,,,,,,,,,205,24,Female,2022-04-28_11h29.12.944,Main,2022.1.1,60.04087582836279,
negative,blue,2,None,k,,,,,,,,,0,89,89,89,,,,,,,,,,,,,,,,,,,,,,,,,,,,,,,,,,,,,main,k,k,1,0.6628225000004022,452.4298381999997,None,None,0,,,,,,,,,,,,,,205,24,Female,2022-04-28_11h29.12.944,Main,2022.1.1,60.04087582836279,
positive,yellow,2,None,k,,,,,,,,,0,90,90,90,,,,,,,,,,,,,,,,,,,,,,,,,,,,,,,,,,,,,main,k,k,1,1.5016583999995419,454.0923743000003,None,None,0,,,,,,,,,,,,,,205,24,Female,2022-04-28_11h29.12.944,Main,2022.1.1,60.04087582836279,
negative,yellow,1,k,None,,,,,,,,,0,91,91,91,,,,,,,,,,,,,,,,,,,,,,,,,,,,,,,,,,,,,main,None,None,1,1.4989292000000205,457.6082623000002,None,None,1,,,,,,,,,,,,,,205,24,Female,2022-04-28_11h29.12.944,Main,2022.1.1,60.04087582836279,
negative,red,2,None,None,,,,,,,,,0,92,92,92,,,,,,,,,,,,,,,,,,,,,,,,,,,,,,,,,,,,,main,None,None,1,1.5063656000002084,460.10998649999965,None,None,1,,,,,,,,,,,,,,205,24,Female,2022-04-28_11h29.12.944,Main,2022.1.1,60.04087582836279,
negative,blue,2,None,k,,,,,,,,,0,93,93,93,,,,,,,,,,,,,,,,,,,,,,,,,,,,,,,,,,,,,main,k,k,1,0.9009196999995766,462.6163935000004,None,None,0,,,,,,,,,,,,,,205,24,Female,2022-04-28_11h29.12.944,Main,2022.1.1,60.04087582836279,
negative,blue,1,None,k,,,,,,,,,0,94,94,94,,,,,,,,,,,,,,,,,,,,,,,,,,,,,,,,,,,,,main,k,k,1,0.8018055000002278,464.52245930000026,None,None,0,,,,,,,,,,,,,,205,24,Female,2022-04-28_11h29.12.944,Main,2022.1.1,60.04087582836279,
negative,blue,1,None,k,,,,,,,,,0,95,95,95,,,,,,,,,,,,,,,,,,,,,,,,,,,,,,,,,,,,,main,k,k,1,0.6594002999991062,466.3217629999999,None,None,0,,,,,,,,,,,,,,205,24,Female,2022-04-28_11h29.12.944,Main,2022.1.1,60.04087582836279,
negative,red,1,None,None,,,,,,,,,0,96,96,96,,,,,,,,,,,,,,,,,,,,,,,,,,,,,,,,,,,,,main,None,None,1,1.4992137999997794,467.9836588999997,None,None,1,,,,,,,,,,,,,,205,24,Female,2022-04-28_11h29.12.944,Main,2022.1.1,60.04087582836279,
positive,yellow,1,None,k,,,,,,,,,0,97,97,97,,,,,,,,,,,,,,,,,,,,,,,,,,,,,,,,,,,,,main,k,k,1,0.9347735999999713,470.48507080000036,None,None,0,,,,,,,,,,,,,,205,24,Female,2022-04-28_11h29.12.944,Main,2022.1.1,60.04087582836279,
negative,yellow,1,k,None,,,,,,,,,0,98,98,98,,,,,,,,,,,,,,,,,,,,,,,,,,,,,,,,,,,,,main,None,None,1,1.5017702000004647,472.4220038000003,None,None,1,,,,,,,,,,,,,,205,24,Female,2022-04-28_11h29.12.944,Main,2022.1.1,60.04087582836279,
positive,red,1,None,None,,,,,,,,,0,99,99,99,,,,,,,,,,,,,,,,,,,,,,,,,,,,,,,,,,,,,main,None,None,1,1.5115921999995408,474.92755810000017,None,None,1,,,,,,,,,,,,,,205,24,Female,2022-04-28_11h29.12.944,Main,2022.1.1,60.04087582836279,
positive,blue,1,k,None,,,,,,,,,0,100,100,100,,,,,,,,,,,,,,,,,,,,,,,,,,,,,,,,,,,,,main,None,None,1,1.4973682999998346,477.4385130999999,None,None,1,,,,,,,,,,,,,,205,24,Female,2022-04-28_11h29.12.944,Main,2022.1.1,60.04087582836279,
negative,yellow,1,k,None,,,,,,,,,0,101,101,101,,,,,,,,,,,,,,,,,,,,,,,,,,,,,,,,,,,,,main,None,None,1,1.5067756999997073,479.9370821000002,None,None,1,,,,,,,,,,,,,,205,24,Female,2022-04-28_11h29.12.944,Main,2022.1.1,60.04087582836279,
negative,blue,2,None,k,,,,,,,,,0,102,102,102,,,,,,,,,,,,,,,,,,,,,,,,,,,,,,,,,,,,,main,k,k,1,0.9392029000000548,482.44838569999956,None,None,0,,,,,,,,,,,,,,205,24,Female,2022-04-28_11h29.12.944,Main,2022.1.1,60.04087582836279,
negative,yellow,2,k,None,,,,,,,,,0,103,103,103,,,,,,,,,,,,,,,,,,,,,,,,,,,,,,,,,,,,,main,None,None,1,1.4953094000002238,484.38545479999993,None,None,1,,,,,,,,,,,,,,205,24,Female,2022-04-28_11h29.12.944,Main,2022.1.1,60.04087582836279,
positive,yellow,2,None,k,,,,,,,,,0,104,104,104,,,,,,,,,,,,,,,,,,,,,,,,,,,,,,,,,,,,,main,k,k,1,1.0371789999999237,486.8841172000002,None,None,0,,,,,,,,,,,,,,205,24,Female,2022-04-28_11h29.12.944,Main,2022.1.1,60.04087582836279,
positive,blue,1,k,None,,,,,,,,,0,105,105,105,,,,,,,,,,,,,,,,,,,,,,,,,,,,,,,,,,,,,main,None,None,1,1.5040838999993866,488.9260089999998,None,None,1,,,,,,,,,,,,,,205,24,Female,2022-04-28_11h29.12.944,Main,2022.1.1,60.04087582836279,
positive,blue,2,k,None,,,,,,,,,0,106,106,106,,,,,,,,,,,,,,,,,,,,,,,,,,,,,,,,,,,,,main,None,None,1,1.493658399999731,491.43038979999983,None,None,1,,,,,,,,,,,,,,205,24,Female,2022-04-28_11h29.12.944,Main,2022.1.1,60.04087582836279,
negative,blue,1,None,k,,,,,,,,,0,107,107,107,,,,,,,,,,,,,,,,,,,,,,,,,,,,,,,,,,,,,main,k,k,1,0.9985202000007121,493.9258767000001,None,None,0,,,,,,,,,,,,,,205,24,Female,2022-04-28_11h29.12.944,Main,2022.1.1,60.04087582836279,
positive,yellow,2,None,k,,,,,,,,,0,108,108,108,,,,,,,,,,,,,,,,,,,,,,,,,,,,,,,,,,,,,main,k,k,1,1.0519006000004083,495.9263235999997,None,None,0,,,,,,,,,,,,,,205,24,Female,2022-04-28_11h29.12.944,Main,2022.1.1,60.04087582836279,
negative,yellow,1,k,None,,,,,,,,,0,109,109,109,,,,,,,,,,,,,,,,,,,,,,,,,,,,,,,,,,,,,main,None,None,1,1.5012126999999964,497.9787004,None,None,1,,,,,,,,,,,,,,205,24,Female,2022-04-28_11h29.12.944,Main,2022.1.1,60.04087582836279,
negative,blue,2,None,k,,,,,,,,,0,110,110,110,,,,,,,,,,,,,,,,,,,,,,,,,,,,,,,,,,,,,main,k,k,1,0.8791164000003846,500.48312819999956,None,None,0,,,,,,,,,,,,,,205,24,Female,2022-04-28_11h29.12.944,Main,2022.1.1,60.04087582836279,
positive,blue,2,k,None,,,,,,,,,0,111,111,111,,,,,,,,,,,,,,,,,,,,,,,,,,,,,,,,,,,,,main,None,None,1,1.4968724000000293,502.36711579999974,None,None,1,,,,,,,,,,,,,,205,24,Female,2022-04-28_11h29.12.944,Main,2022.1.1,60.04087582836279,
negative,blue,1,None,k,,,,,,,,,0,112,112,112,,,,,,,,,,,,,,,,,,,,,,,,,,,,,,,,,,,,,main,k,k,1,0.8012224000003698,504.86456629999975,None,None,0,,,,,,,,,,,,,,205,24,Female,2022-04-28_11h29.12.944,Main,2022.1.1,60.04087582836279,
positive,yellow,1,None,k,,,,,,,,,0,113,113,113,,,,,,,,,,,,,,,,,,,,,,,,,,,,,,,,,,,,,main,k,k,1,0.9581234999996013,506.6700787,None,None,0,,,,,,,,,,,,,,205,24,Female,2022-04-28_11h29.12.944,Main,2022.1.1,60.04087582836279,
negative,red,1,None,None,,,,,,,,,0,114,114,114,,,,,,,,,,,,,,,,,,,,,,,,,,,,,,,,,,,,,main,None,None,1,1.504180500000075,508.62870120000025,None,None,1,,,,,,,,,,,,,,205,24,Female,2022-04-28_11h29.12.944,Main,2022.1.1,60.04087582836279,
positive,red,1,None,None,,,,,,,,,0,115,115,115,,,,,,,,,,,,,,,,,,,,,,,,,,,,,,,,,,,,,main,None,None,1,1.501604999999472,511.1327223999997,None,None,1,,,,,,,,,,,,,,205,24,Female,2022-04-28_11h29.12.944,Main,2022.1.1,60.04087582836279,
negative,red,2,None,None,,,,,,,,,0,116,116,116,,,,,,,,,,,,,,,,,,,,,,,,,,,,,,,,,,,,,main,None,None,1,1.5112568000004103,513.6376963000002,None,None,1,,,,,,,,,,,,,,205,24,Female,2022-04-28_11h29.12.944,Main,2022.1.1,60.04087582836279,
negative,yellow,2,k,None,,,,,,,,,0,117,117,117,,,,,,,,,,,,,,,,,,,,,,,,,,,,,,,,,,,,,main,None,None,1,1.510076200000185,516.1487581000001,None,None,1,,,,,,,,,,,,,,205,24,Female,2022-04-28_11h29.12.944,Main,2022.1.1,60.04087582836279,
positive,yellow,1,None,k,,,,,,,,,0,118,118,118,,,,,,,,,,,,,,,,,,,,,,,,,,,,,,,,,,,,,main,k,k,1,1.4025885999999446,518.6617872999996,None,None,0,,,,,,,,,,,,,,205,24,Female,2022-04-28_11h29.12.944,Main,2022.1.1,60.04087582836279,
positive,red,2,None,None,,,,,,,,,0,119,119,119,,,,,,,,,,,,,,,,,,,,,,,,,,,,,,,,,,,,,main,None,None,1,1.50516239999979,521.0659769000004,None,None,1,,,,,,,,,,,,,,205,24,Female,2022-04-28_11h29.12.944,Main,2022.1.1,60.04087582836279,
positive,blue,2,k,None,,,,,,,,,0,120,120,120,,,,,,,,,,,,,,,,,,,,,,,,,,,,,,,,,,,,,main,None,None,1,1.5033518999998705,523.5749124000004,None,None,1,,,,,,,,,,,,,,205,24,Female,2022-04-28_11h29.12.944,Main,2022.1.1,60.04087582836279,
negative,red,1,None,None,,,,,,,,,0,121,121,121,,,,,,,,,,,,,,,,,,,,,,,,,,,,,,,,,,,,,main,None,None,1,1.4998340999991342,526.0786887000004,None,None,1,,,,,,,,,,,,,,205,24,Female,2022-04-28_11h29.12.944,Main,2022.1.1,60.04087582836279,
positive,yellow,2,None,k,,,,,,,,,0,122,122,122,,,,,,,,,,,,,,,,,,,,,,,,,,,,,,,,,,,,,main,k,k,1,1.2486398999999437,528.5810140000003,None,None,0,,,,,,,,,,,,,,205,24,Female,2022-04-28_11h29.12.944,Main,2022.1.1,60.04087582836279,
negative,red,2,None,None,,,,,,,,,0,123,123,123,,,,,,,,,,,,,,,,,,,,,,,,,,,,,,,,,,,,,main,None,None,1,1.4971543000001475,530.8338491000004,None,None,1,,,,,,,,,,,,,,205,24,Female,2022-04-28_11h29.12.944,Main,2022.1.1,60.04087582836279,
negative,yellow,2,k,None,,,,,,,,,0,124,124,124,,,,,,,,,,,,,,,,,,,,,,,,,,,,,,,,,,,,,main,None,None,1,1.4991382999996858,533.3297032,None,None,1,,,,,,,,,,,,,,205,24,Female,2022-04-28_11h29.12.944,Main,2022.1.1,60.04087582836279,
positive,red,1,None,None,,,,,,,,,0,125,125,125,,,,,,,,,,,,,,,,,,,,,,,,,,,,,,,,,,,,,main,None,None,1,1.5124323000000004,535.8299540999997,None,None,1,,,,,,,,,,,,,,205,24,Female,2022-04-28_11h29.12.944,Main,2022.1.1,60.04087582836279,
negative,blue,2,None,k,,,,,,,,,0,126,126,126,,,,,,,,,,,,,,,,,,,,,,,,,,,,,,,,,,,,,main,k,k,1,0.8994806999999128,538.3448330000001,None,None,0,,,,,,,,,,,,,,205,24,Female,2022-04-28_11h29.12.944,Main,2022.1.1,60.04087582836279,
negative,blue,1,None,k,,,,,,,,,0,127,127,127,,,,,,,,,,,,,,,,,,,,,,,,,,,,,,,,,,,,,main,k,k,1,0.9029646999997567,540.2461856,None,None,0,,,,,,,,,,,,,,205,24,Female,2022-04-28_11h29.12.944,Main,2022.1.1,60.04087582836279,
negative,yellow,1,k,None,,,,,,,,,0,128,128,128,,,,,,,,,,,,,,,,,,,,,,,,,,,,,,,,,,,,,main,None,None,1,1.5100239000003057,542.1528173999995,None,None,1,,,,,,,,,,,,,,205,24,Female,2022-04-28_11h29.12.944,Main,2022.1.1,60.04087582836279,
negative,yellow,1,k,None,,,,,,,,,0,129,129,129,,,,,,,,,,,,,,,,,,,,,,,,,,,,,,,,,,,,,main,None,None,1,1.5025243000000046,544.6616868000001,None,None,1,,,,,,,,,,,,,,205,24,Female,2022-04-28_11h29.12.944,Main,2022.1.1,60.04087582836279,
positive,blue,1,k,None,,,,,,,,,0,130,130,130,,,,,,,,,,,,,,,,,,,,,,,,,,,,,,,,,,,,,main,None,None,1,1.5112632999998823,547.1687984,None,None,1,,,,,,,,,,,,,,205,24,Female,2022-04-28_11h29.12.944,Main,2022.1.1,60.04087582836279,
negative,blue,1,None,k,,,,,,,,,0,131,131,131,,,,,,,,,,,,,,,,,,,,,,,,,,,,,,,,,,,,,main,k,k,1,3.3818389999996725,549.6786687000003,None,None,0,,,,,,,,,,,,,,205,24,Female,2022-04-28_11h29.12.944,Main,2022.1.1,60.04087582836279,
negative,blue,2,None,k,,,,,,,,,0,132,132,132,,,,,,,,,,,,,,,,,,,,,,,,,,,,,,,,,,,,,main,k,k,1,1.0655614999996033,555.0617398000004,None,None,0,,,,,,,,,,,,,,205,24,Female,2022-04-28_11h29.12.944,Main,2022.1.1,60.04087582836279,
positive,blue,2,k,None,,,,,,,,,0,133,133,133,,,,,,,,,,,,,,,,,,,,,,,,,,,,,,,,,,,,,main,None,None,1,1.5022712999998475,557.1278429000004,None,None,1,,,,,,,,,,,,,,205,24,Female,2022-04-28_11h29.12.944,Main,2022.1.1,60.04087582836279,
positive,red,2,None,None,,,,,,,,,0,134,134,134,,,,,,,,,,,,,,,,,,,,,,,,,,,,,,,,,,,,,main,None,None,1,1.4977200000002995,559.6335931000003,None,None,1,,,,,,,,,,,,,,205,24,Female,2022-04-28_11h29.12.944,Main,2022.1.1,60.04087582836279,
negative,yellow,2,k,None,,,,,,,,,0,135,135,135,,,,,,,,,,,,,,,,,,,,,,,,,,,,,,,,,,,,,main,None,None,1,1.5106798000006165,562.1324693999995,None,None,1,,,,,,,,,,,,,,205,24,Female,2022-04-28_11h29.12.944,Main,2022.1.1,60.04087582836279,
positive,yellow,2,None,k,,,,,,,,,0,136,136,136,,,,,,,,,,,,,,,,,,,,,,,,,,,,,,,,,,,,,main,k,k,1,0.8831860999998753,564.6448916999998,None,None,0,,,,,,,,,,,,,,205,24,Female,2022-04-28_11h29.12.944,Main,2022.1.1,60.04087582836279,
positive,blue,1,k,None,,,,,,,,,0,137,137,137,,,,,,,,,,,,,,,,,,,,,,,,,,,,,,,,,,,,,main,None,None,1,1.4974012000002404,566.5300547999996,None,None,1,,,,,,,,,,,,,,205,24,Female,2022-04-28_11h29.12.944,Main,2022.1.1,60.04087582836279,
positive,yellow,1,None,k,,,,,,,,,0,138,138,138,,,,,,,,,,,,,,,,,,,,,,,,,,,,,,,,,,,,,main,k,k,1,1.1044254999997065,569.0268064000002,None,None,0,,,,,,,,,,,,,,205,24,Female,2022-04-28_11h29.12.944,Main,2022.1.1,60.04087582836279,
positive,yellow,1,None,k,,,,,,,,,0,139,139,139,,,,,,,,,,,,,,,,,,,,,,,,,,,,,,,,,,,,,main,k,k,1,0.8993249000004653,571.1340472000002,None,None,0,,,,,,,,,,,,,,205,24,Female,2022-04-28_11h29.12.944,Main,2022.1.1,60.04087582836279,
positive,yellow,1,None,k,,,,,,,,,0,140,140,140,,,,,,,,,,,,,,,,,,,,,,,,,,,,,,,,,,,,,main,k,k,1,0.9099427999999534,573.0348862000001,None,None,0,,,,,,,,,,,,,,205,24,Female,2022-04-28_11h29.12.944,Main,2022.1.1,60.04087582836279,
positive,blue,1,k,None,,,,,,,,,0,141,141,141,,,,,,,,,,,,,,,,,,,,,,,,,,,,,,,,,,,,,main,None,None,1,1.4994976999996652,574.9466602000002,None,None,1,,,,,,,,,,,,,,205,24,Female,2022-04-28_11h29.12.944,Main,2022.1.1,60.04087582836279,
positive,blue,2,k,None,,,,,,,,,0,142,142,142,,,,,,,,,,,,,,,,,,,,,,,,,,,,,,,,,,,,,main,None,None,1,1.502030100000411,577.4478996999997,None,None,1,,,,,,,,,,,,,,205,24,Female,2022-04-28_11h29.12.944,Main,2022.1.1,60.04087582836279,
positive,yellow,2,None,k,,,,,,,,,0,143,143,143,,,,,,,,,,,,,,,,,,,,,,,,,,,,,,,,,,,,,main,k,k,1,2.106209399999898,579.9508286,None,None,0,,,,,,,,,,,,,,205,24,Female,2022-04-28_11h29.12.944,Main,2022.1.1,60.04087582836279,
negative,yellow,2,k,None,,,,,,,,,0,144,144,144,,,,,,,,,,,,,,,,,,,,,,,,,,,,,,,,,,,,,main,None,None,1,1.5000760000002629,584.0589884000001,None,None,1,,,,,,,,,,,,,,205,24,Female,2022-04-28_11h29.12.944,Main,2022.1.1,60.04087582836279,
negative,blue,2,None,k,,,,,,,,,0,145,145,145,,,,,,,,,,,,,,,,,,,,,,,,,,,,,,,,,,,,,main,k,k,1,0.8717937999999776,586.5613153000004,None,None,0,,,,,,,,,,,,,,205,24,Female,2022-04-28_11h29.12.944,Main,2022.1.1,60.04087582836279,
negative,red,1,None,None,,,,,,,,,0,146,146,146,,,,,,,,,,,,,,,,,,,,,,,,,,,,,,,,,,,,,main,None,None,1,1.5002340000000913,588.4338343,None,None,1,,,,,,,,,,,,,,205,24,Female,2022-04-28_11h29.12.944,Main,2022.1.1,60.04087582836279,
positive,blue,1,k,None,,,,,,,,,0,147,147,147,,,,,,,,,,,,,,,,,,,,,,,,,,,,,,,,,,,,,main,None,None,1,1.5071148999995785,590.9353631000004,None,None,1,,,,,,,,,,,,,,205,24,Female,2022-04-28_11h29.12.944,Main,2022.1.1,60.04087582836279,
positive,yellow,1,None,k,,,,,,,,,0,148,148,148,,,,,,,,,,,,,,,,,,,,,,,,,,,,,,,,,,,,,main,k,k,1,0.9443844999996145,593.4448742000004,None,None,0,,,,,,,,,,,,,,205,24,Female,2022-04-28_11h29.12.944,Main,2022.1.1,60.04087582836279,
negative,red,2,None,None,,,,,,,,,0,149,149,149,,,,,,,,,,,,,,,,,,,,,,,,,,,,,,,,,,,,,main,None,None,1,1.5083584000003611,595.3888540999997,None,None,1,,,,,,,,,,,,,,205,24,Female,2022-04-28_11h29.12.944,Main,2022.1.1,60.04087582836279,
negative,blue,1,None,k,,,,,,,,,0,150,150,150,,,,,,,,,,,,,,,,,,,,,,,,,,,,,,,,,,,,,main,k,k,1,1.0727606000000378,597.8998277999999,None,None,0,,,,,,,,,,,,,,205,24,Female,2022-04-28_11h29.12.944,Main,2022.1.1,60.04087582836279,
negative,yellow,2,k,None,,,,,,,,,0,151,151,151,,,,,,,,,,,,,,,,,,,,,,,,,,,,,,,,,,,,,main,None,None,1,1.5079866000005495,599.9732795,None,None,1,,,,,,,,,,,,,,205,24,Female,2022-04-28_11h29.12.944,Main,2022.1.1,60.04087582836279,
negative,blue,2,None,k,,,,,,,,,0,152,152,152,,,,,,,,,,,,,,,,,,,,,,,,,,,,,,,,,,,,,main,k,k,1,0.9634765999999217,602.4827890999995,None,None,0,,,,,,,,,,,,,,205,24,Female,2022-04-28_11h29.12.944,Main,2022.1.1,60.04087582836279,
negative,yellow,1,k,None,,,,,,,,,0,153,153,153,,,,,,,,,,,,,,,,,,,,,,,,,,,,,,,,,,,,,main,None,None,1,1.4938503999992463,604.4485753999998,None,None,1,,,,,,,,,,,,,,205,24,Female,2022-04-28_11h29.12.944,Main,2022.1.1,60.04087582836279,
negative,blue,1,None,k,,,,,,,,,0,154,154,154,,,,,,,,,,,,,,,,,,,,,,,,,,,,,,,,,,,,,main,k,k,1,0.8823552000003474,606.9449573000002,None,None,0,,,,,,,,,,,,,,205,24,Female,2022-04-28_11h29.12.944,Main,2022.1.1,60.04087582836279,
positive,yellow,2,None,k,,,,,,,,,0,155,155,155,,,,,,,,,,,,,,,,,,,,,,,,,,,,,,,,,,,,,main,k,k,1,0.9208926000001156,608.8292326000001,None,None,0,,,,,,,,,,,,,,205,24,Female,2022-04-28_11h29.12.944,Main,2022.1.1,60.04087582836279,
positive,red,2,None,None,,,,,,,,,0,156,156,156,,,,,,,,,,,,,,,,,,,,,,,,,,,,,,,,,,,,,main,None,None,1,1.4994673000001058,610.7526888000002,None,None,1,,,,,,,,,,,,,,205,24,Female,2022-04-28_11h29.12.944,Main,2022.1.1,60.04087582836279,
positive,red,1,None,None,,,,,,,,,0,157,157,157,,,,,,,,,,,,,,,,,,,,,,,,,,,,,,,,,,,,,main,None,None,1,1.5135163000004468,613.2515641,None,None,1,,,,,,,,,,,,,,205,24,Female,2022-04-28_11h29.12.944,Main,2022.1.1,60.04087582836279,
positive,blue,2,k,None,,,,,,,,,0,158,158,158,,,,,,,,,,,,,,,,,,,,,,,,,,,,,,,,,,,,,main,None,None,1,1.4997679000007338,615.7675510999998,None,None,1,,,,,,,,,,,,,,205,24,Female,2022-04-28_11h29.12.944,Main,2022.1.1,60.04087582836279,
negative,yellow,1,k,None,,,,,,,,,0,159,159,159,,,,,,,,,,,,,,,,,,,,,,,,,,,,,,,,,,,,,main,None,None,1,1.5120163999999932,618.2692256999999,None,None,1,,,,,,,,,,,,,,205,24,Female,2022-04-28_11h29.12.944,Main,2022.1.1,60.04087582836279,
negative,red,2,None,None,,,,,,,,,0,160,160,160,,,,,,,,,,,,,,,,,,,,,,,,,,,,,,,,,,,,,main,None,None,1,1.5107388999995237,620.7839787000003,None,None,1,,,,,,,,,,,,,,205,24,Female,2022-04-28_11h29.12.944,Main,2022.1.1,60.04087582836279,
negative,blue,1,None,k,,,,,,,,,0,161,161,161,,,,,,,,,,,,,,,,,,,,,,,,,,,,,,,,,,,,,main,k,k,1,0.8886356000002706,623.2973689999999,None,None,0,,,,,,,,,,,,,,205,24,Female,2022-04-28_11h29.12.944,Main,2022.1.1,60.04087582836279,
negative,blue,1,None,k,,,,,,,,,0,162,162,162,,,,,,,,,,,,,,,,,,,,,,,,,,,,,,,,,,,,,main,k,k,1,0.8206539000002522,625.1886892000002,None,None,0,,,,,,,,,,,,,,205,24,Female,2022-04-28_11h29.12.944,Main,2022.1.1,60.04087582836279,
negative,yellow,1,k,None,,,,,,,,,0,163,163,163,,,,,,,,,,,,,,,,,,,,,,,,,,,,,,,,,,,,,main,None,None,1,1.5111939999997048,627.0099651,None,None,1,,,,,,,,,,,,,,205,24,Female,2022-04-28_11h29.12.944,Main,2022.1.1,60.04087582836279,
negative,yellow,1,k,None,,,,,,,,,0,164,164,164,,,,,,,,,,,,,,,,,,,,,,,,,,,,,,,,,,,,,main,None,None,1,1.5004330000001573,629.5230066000004,None,None,1,,,,,,,,,,,,,,205,24,Female,2022-04-28_11h29.12.944,Main,2022.1.1,60.04087582836279,
positive,yellow,1,None,k,,,,,,,,,0,165,165,165,,,,,,,,,,,,,,,,,,,,,,,,,,,,,,,,,,,,,main,k,k,1,0.81739430000016,632.0246870999999,None,None,0,,,,,,,,,,,,,,205,24,Female,2022-04-28_11h29.12.944,Main,2022.1.1,60.04087582836279,
negative,red,1,None,None,,,,,,,,,0,166,166,166,,,,,,,,,,,,,,,,,,,,,,,,,,,,,,,,,,,,,main,None,None,1,1.493535399999928,633.8431916999998,None,None,1,,,,,,,,,,,,,,205,24,Female,2022-04-28_11h29.12.944,Main,2022.1.1,60.04087582836279,
negative,yellow,2,k,None,,,,,,,,,0,167,167,167,,,,,,,,,,,,,,,,,,,,,,,,,,,,,,,,,,,,,main,None,None,1,1.5119684000001143,636.3385318999999,None,None,1,,,,,,,,,,,,,,205,24,Female,2022-04-28_11h29.12.944,Main,2022.1.1,60.04087582836279,
positive,blue,2,k,None,,,,,,,,,0,168,168,168,,,,,,,,,,,,,,,,,,,,,,,,,,,,,,,,,,,,,main,None,None,1,1.4966432000001078,638.8500716999997,None,None,1,,,,,,,,,,,,,,205,24,Female,2022-04-28_11h29.12.944,Main,2022.1.1,60.04087582836279,
positive,red,2,None,None,,,,,,,,,0,169,169,169,,,,,,,,,,,,,,,,,,,,,,,,,,,,,,,,,,,,,main,None,None,1,1.498695399999633,641.3484454,None,None,1,,,,,,,,,,,,,,205,24,Female,2022-04-28_11h29.12.944,Main,2022.1.1,60.04087582836279,
positive,red,1,None,None,,,,,,,,,0,170,170,170,,,,,,,,,,,,,,,,,,,,,,,,,,,,,,,,,,,,,main,None,None,1,1.5082683000000543,643.8488378000002,None,None,1,,,,,,,,,,,,,,205,24,Female,2022-04-28_11h29.12.944,Main,2022.1.1,60.04087582836279,
negative,blue,2,None,k,,,,,,,,,0,171,171,171,,,,,,,,,,,,,,,,,,,,,,,,,,,,,,,,,,,,,main,k,k,1,0.9725824000006469,646.3609619999997,None,None,0,,,,,,,,,,,,,,205,24,Female,2022-04-28_11h29.12.944,Main,2022.1.1,60.04087582836279,
positive,blue,2,k,None,,,,,,,,,0,172,172,172,,,,,,,,,,,,,,,,,,,,,,,,,,,,,,,,,,,,,main,None,None,1,1.513702899999771,648.3358345999995,None,None,1,,,,,,,,,,,,,,205,24,Female,2022-04-28_11h29.12.944,Main,2022.1.1,60.04087582836279,
negative,yellow,2,k,None,,,,,,,,,0,173,173,173,,,,,,,,,,,,,,,,,,,,,,,,,,,,,,,,,,,,,main,None,None,1,1.5133788999992248,650.8488708000004,None,None,1,,,,,,,,,,,,,,205,24,Female,2022-04-28_11h29.12.944,Main,2022.1.1,60.04087582836279,
positive,yellow,2,None,k,,,,,,,,,0,174,174,174,,,,,,,,,,,,,,,,,,,,,,,,,,,,,,,,,,,,,main,k,k,1,0.7605704999996306,653.3635400000003,None,None,0,,,,,,,,,,,,,,205,24,Female,2022-04-28_11h29.12.944,Main,2022.1.1,60.04087582836279,
negative,blue,2,None,k,,,,,,,,,0,175,175,175,,,,,,,,,,,,,,,,,,,,,,,,,,,,,,,,,,,,,main,k,k,1,1.4422891000003801,655.1274647,None,None,0,,,,,,,,,,,,,,205,24,Female,2022-04-28_11h29.12.944,Main,2022.1.1,60.04087582836279,
positive,blue,1,k,None,,,,,,,,,0,176,176,176,,,,,,,,,,,,,,,,,,,,,,,,,,,,,,,,,,,,,main,None,None,1,1.5092211999999563,657.5723717999999,None,None,1,,,,,,,,,,,,,,205,24,Female,2022-04-28_11h29.12.944,Main,2022.1.1,60.04087582836279,
positive,yellow,1,None,k,,,,,,,,,0,177,177,177,,,,,,,,,,,,,,,,,,,,,,,,,,,,,,,,,,,,,main,k,k,1,1.001988199999687,660.0821317,None,None,0,,,,,,,,,,,,,,205,24,Female,2022-04-28_11h29.12.944,Main,2022.1.1,60.04087582836279,
positive,blue,1,k,None,,,,,,,,,0,178,178,178,,,,,,,,,,,,,,,,,,,,,,,,,,,,,,,,,,,,,main,None,None,1,1.4949295000005804,662.0865950999996,None,None,1,,,,,,,,,,,,,,205,24,Female,2022-04-28_11h29.12.944,Main,2022.1.1,60.04087582836279,
positive,yellow,2,None,k,,,,,,,,,0,179,179,179,,,,,,,,,,,,,,,,,,,,,,,,,,,,,,,,,,,,,main,k,k,1,1.331684600000699,664.5803200999999,None,None,0,,,,,,,,,,,,,,205,24,Female,2022-04-28_11h29.12.944,Main,2022.1.1,60.04087582836279,
positive,blue,1,k,None,,,,,,,,,0,180,180,180,,,,,,,,,,,,,,,,,,,,,,,,,,,,,,,,,,,,,main,None,None,1,1.497943700000178,666.9138236999997,None,None,1,,,,,,,,,,,,,,205,24,Female,2022-04-28_11h29.12.944,Main,2022.1.1,60.04087582836279,
negative,red,1,None,None,,,,,,,,,0,181,181,181,,,,,,,,,,,,,,,,,,,,,,,,,,,,,,,,,,,,,main,None,None,1,1.5018693000001804,669.4130605,None,None,1,,,,,,,,,,,,,,205,24,Female,2022-04-28_11h29.12.944,Main,2022.1.1,60.04087582836279,
negative,blue,1,None,k,,,,,,,,,0,182,182,182,,,,,,,,,,,,,,,,,,,,,,,,,,,,,,,,,,,,,main,k,k,1,1.0069692999995823,671.9192139999996,None,None,0,,,,,,,,,,,,,,205,24,Female,2022-04-28_11h29.12.944,Main,2022.1.1,60.04087582836279,
negative,yellow,2,k,None,,,,,,,,,0,183,183,183,,,,,,,,,,,,,,,,,,,,,,,,,,,,,,,,,,,,,main,None,None,1,1.498651400000199,673.9266832000003,None,None,1,,,,,,,,,,,,,,205,24,Female,2022-04-28_11h29.12.944,Main,2022.1.1,60.04087582836279,
positive,yellow,2,None,k,,,,,,,,,0,184,184,184,,,,,,,,,,,,,,,,,,,,,,,,,,,,,,,,,,,,,main,k,k,1,1.2013048000007984,676.4268419999999,None,None,0,,,,,,,,,,,,,,205,24,Female,2022-04-28_11h29.12.944,Main,2022.1.1,60.04087582836279,
positive,yellow,1,None,k,,,,,,,,,0,185,185,185,,,,,,,,,,,,,,,,,,,,,,,,,,,,,,,,,,,,,main,k,k,1,1.9049870999997438,678.6298299,None,None,0,,,,,,,,,,,,,,205,24,Female,2022-04-28_11h29.12.944,Main,2022.1.1,60.04087582836279,
positive,red,2,None,None,,,,,,,,,0,186,186,186,,,,,,,,,,,,,,,,,,,,,,,,,,,,,,,,,,,,,main,None,None,1,1.506129299999884,682.5452115999997,None,None,1,,,,,,,,,,,,,,205,24,Female,2022-04-28_11h29.12.944,Main,2022.1.1,60.04087582836279,
positive,blue,1,k,None,,,,,,,,,0,187,187,187,,,,,,,,,,,,,,,,,,,,,,,,,,,,,,,,,,,,,main,None,None,1,1.500168499999745,685.0530474999996,None,None,1,,,,,,,,,,,,,,205,24,Female,2022-04-28_11h29.12.944,Main,2022.1.1,60.04087582836279,
negative,yellow,1,k,None,,,,,,,,,0,188,188,188,,,,,,,,,,,,,,,,,,,,,,,,,,,,,,,,,,,,,main,None,None,1,1.5041811000000962,687.5552466999998,None,None,1,,,,,,,,,,,,,,205,24,Female,2022-04-28_11h29.12.944,Main,2022.1.1,60.04087582836279,
positive,yellow,2,None,k,,,,,,,,,0,189,189,189,,,,,,,,,,,,,,,,,,,,,,,,,,,,,,,,,,,,,main,k,k,1,1.0503014999994775,690.0586660999998,None,None,0,,,,,,,,,,,,,,205,24,Female,2022-04-28_11h29.12.944,Main,2022.1.1,60.04087582836279,
negative,yellow,2,k,None,,,,,,,,,0,190,190,190,,,,,,,,,,,,,,,,,,,,,,,,,,,,,,,,,,,,,main,None,None,1,1.5064851000006456,692.1114533999998,None,None,1,,,,,,,,,,,,,,205,24,Female,2022-04-28_11h29.12.944,Main,2022.1.1,60.04087582836279,
negative,yellow,1,k,None,,,,,,,,,0,191,191,191,,,,,,,,,,,,,,,,,,,,,,,,,,,,,,,,,,,,,main,None,None,1,1.4935802999998486,694.6212653000002,None,None,1,,,,,,,,,,,,,,205,24,Female,2022-04-28_11h29.12.944,Main,2022.1.1,60.04087582836279,
positive,blue,2,k,None,,,,,,,,,0,192,192,192,,,,,,,,,,,,,,,,,,,,,,,,,,,,,,,,,,,,,main,None,None,1,1.5012974000001122,697.1168199000003,None,None,1,,,,,,,,,,,,,,205,24,Female,2022-04-28_11h29.12.944,Main,2022.1.1,60.04087582836279,
positive,yellow,1,None,k,,,,,,,,,0,193,193,193,,,,,,,,,,,,,,,,,,,,,,,,,,,,,,,,,,,,,main,k,k,1,0.9454913999998098,699.6201676000001,None,None,0,,,,,,,,,,,,,,205,24,Female,2022-04-28_11h29.12.944,Main,2022.1.1,60.04087582836279,
negative,red,2,None,None,,,,,,,,,0,194,194,194,,,,,,,,,,,,,,,,,,,,,,,,,,,,,,,,,,,,,main,None,None,1,1.5053718000008303,701.5660264999997,None,None,1,,,,,,,,,,,,,,205,24,Female,2022-04-28_11h29.12.944,Main,2022.1.1,60.04087582836279,
positive,red,1,None,None,,,,,,,,,0,195,195,195,,,,,,,,,,,,,,,,,,,,,,,,,,,,,,,,,,,,,main,None,None,1,1.5060560000001715,704.0726174000001,None,None,1,,,,,,,,,,,,,,205,24,Female,2022-04-28_11h29.12.944,Main,2022.1.1,60.04087582836279,
negative,blue,1,None,k,,,,,,,,,0,196,196,196,,,,,,,,,,,,,,,,,,,,,,,,,,,,,,,,,,,,,main,k,k,1,1.7919648000006418,706.5832653999996,None,None,0,,,,,,,,,,,,,,205,24,Female,2022-04-28_11h29.12.944,Main,2022.1.1,60.04087582836279,
positive,blue,2,k,None,,,,,,,,,0,197,197,197,,,,,,,,,,,,,,,,,,,,,,,,,,,,,,,,,,,,,main,None,None,1,1.4995600000002014,710.3922310999997,None,None,1,,,,,,,,,,,,,,205,24,Female,2022-04-28_11h29.12.944,Main,2022.1.1,60.04087582836279,
negative,blue,2,None,k,,,,,,,,,0,198,198,198,,,,,,,,,,,,,,,,,,,,,,,,,,,,,,,,,,,,,main,k,k,1,1.1674036999993405,712.8913811000002,None,None,0,,,,,,,,,,,,,,205,24,Female,2022-04-28_11h29.12.944,Main,2022.1.1,60.04087582836279,
negative,blue,2,None,k,,,,,,,,,0,199,199,199,,,,,,,,,,,,,,,,,,,,,,,,,,,,,,,,,,,,,main,k,k,1,0.9345374000004085,715.0624336999999,None,None,0,,,,,,,,,,,,,,205,24,Female,2022-04-28_11h29.12.944,Main,2022.1.1,60.04087582836279,
positive,blue,2,k,None,,,,,,,,,0,200,200,200,,,,,,,,,,,,,,,,,,,,,,,,,,,,,,,,,,,,,main,None,None,1,1.5068615000000136,716.9987952000001,None,None,1,,,,,,,,,,,,,,205,24,Female,2022-04-28_11h29.12.944,Main,2022.1.1,60.04087582836279,
positive,blue,2,k,None,,,,,,,,,0,201,201,201,,,,,,,,,,,,,,,,,,,,,,,,,,,,,,,,,,,,,main,None,None,1,1.5024782000000414,719.5050345,None,None,1,,,,,,,,,,,,,,205,24,Female,2022-04-28_11h29.12.944,Main,2022.1.1,60.04087582836279,
negative,yellow,2,k,None,,,,,,,,,0,202,202,202,,,,,,,,,,,,,,,,,,,,,,,,,,,,,,,,,,,,,main,None,None,1,1.5041007999998328,722.0114283000003,None,None,1,,,,,,,,,,,,,,205,24,Female,2022-04-28_11h29.12.944,Main,2022.1.1,60.04087582836279,
positive,red,1,None,None,,,,,,,,,0,203,203,203,,,,,,,,,,,,,,,,,,,,,,,,,,,,,,,,,,,,,main,None,None,1,1.4988299999995434,724.5159101999998,None,None,1,,,,,,,,,,,,,,205,24,Female,2022-04-28_11h29.12.944,Main,2022.1.1,60.04087582836279,
negative,blue,2,None,k,,,,,,,,,0,204,204,204,,,,,,,,,,,,,,,,,,,,,,,,,,,,,,,,,,,,,main,k,k,1,0.9393950000003315,727.0174281999998,None,None,0,,,,,,,,,,,,,,205,24,Female,2022-04-28_11h29.12.944,Main,2022.1.1,60.04087582836279,
negative,red,1,None,None,,,,,,,,,0,205,205,205,,,,,,,,,,,,,,,,,,,,,,,,,,,,,,,,,,,,,main,None,None,1,1.4966963999995642,728.9562159999996,None,None,1,,,,,,,,,,,,,,205,24,Female,2022-04-28_11h29.12.944,Main,2022.1.1,60.04087582836279,
negative,blue,2,None,k,,,,,,,,,0,206,206,206,,,,,,,,,,,,,,,,,,,,,,,,,,,,,,,,,,,,,main,k,k,1,0.8009615999999369,731.4563446000002,None,None,0,,,,,,,,,,,,,,205,24,Female,2022-04-28_11h29.12.944,Main,2022.1.1,60.04087582836279,
negative,yellow,2,k,None,,,,,,,,,0,207,207,207,,,,,,,,,,,,,,,,,,,,,,,,,,,,,,,,,,,,,main,None,None,1,1.495583599999918,733.2590223999996,None,None,1,,,,,,,,,,,,,,205,24,Female,2022-04-28_11h29.12.944,Main,2022.1.1,60.04087582836279,
positive,yellow,2,None,k,,,,,,,,,0,208,208,208,,,,,,,,,,,,,,,,,,,,,,,,,,,,,,,,,,,,,main,k,k,1,0.7428955999994287,735.7542237999996,None,None,0,,,,,,,,,,,,,,205,24,Female,2022-04-28_11h29.12.944,Main,2022.1.1,60.04087582836279,
negative,yellow,1,k,None,,,,,,,,,0,209,209,209,,,,,,,,,,,,,,,,,,,,,,,,,,,,,,,,,,,,,main,None,None,1,1.5118075000000317,737.4996817000001,None,None,1,,,,,,,,,,,,,,205,24,Female,2022-04-28_11h29.12.944,Main,2022.1.1,60.04087582836279,
negative,red,2,None,None,,,,,,,,,0,210,210,210,,,,,,,,,,,,,,,,,,,,,,,,,,,,,,,,,,,,,main,None,None,1,1.5013895000001867,740.0130165999999,None,None,1,,,,,,,,,,,,,,205,24,Female,2022-04-28_11h29.12.944,Main,2022.1.1,60.04087582836279,
negative,blue,1,None,k,,,,,,,,,0,211,211,211,,,,,,,,,,,,,,,,,,,,,,,,,,,,,,,,,,,,,main,k,k,1,0.9038612000003923,742.5158613000003,None,None,0,,,,,,,,,,,,,,205,24,Female,2022-04-28_11h29.12.944,Main,2022.1.1,60.04087582836279,
negative,yellow,1,k,None,,,,,,,,,0,212,212,212,,,,,,,,,,,,,,,,,,,,,,,,,,,,,,,,,,,,,main,None,None,1,1.5010943999996016,744.4224658000003,None,None,1,,,,,,,,,,,,,,205,24,Female,2022-04-28_11h29.12.944,Main,2022.1.1,60.04087582836279,
positive,blue,1,k,None,,,,,,,,,0,213,213,213,,,,,,,,,,,,,,,,,,,,,,,,,,,,,,,,,,,,,main,None,None,1,1.5009620000000723,746.9258610999996,None,None,1,,,,,,,,,,,,,,205,24,Female,2022-04-28_11h29.12.944,Main,2022.1.1,60.04087582836279,
positive,blue,1,k,None,,,,,,,,,0,214,214,214,,,,,,,,,,,,,,,,,,,,,,,,,,,,,,,,,,,,,main,None,None,1,1.5023388999998133,749.4273031000002,None,None,1,,,,,,,,,,,,,,205,24,Female,2022-04-28_11h29.12.944,Main,2022.1.1,60.04087582836279,
positive,yellow,1,None,k,,,,,,,,,0,215,215,215,,,,,,,,,,,,,,,,,,,,,,,,,,,,,,,,,,,,,main,k,k,1,0.8596386999997776,751.9308299000004,None,None,0,,,,,,,,,,,,,,205,24,Female,2022-04-28_11h29.12.944,Main,2022.1.1,60.04087582836279,
positive,yellow,1,None,k,,,,,,,,,0,216,216,216,,,,,,,,,,,,,,,,,,,,,,,,,,,,,,,,,,,,,main,k,k,1,0.6794236000005185,753.7926106000004,None,None,0,,,,,,,,,,,,,,205,24,Female,2022-04-28_11h29.12.944,Main,2022.1.1,60.04087582836279,
positive,yellow,2,None,k,,,,,,,,,0,217,217,217,,,,,,,,,,,,,,,,,,,,,,,,,,,,,,,,,,,,,main,k,k,1,0.9391900999999052,755.4743851000003,None,None,0,,,,,,,,,,,,,,205,24,Female,2022-04-28_11h29.12.944,Main,2022.1.1,60.04087582836279,
negative,blue,1,None,k,,,,,,,,,0,218,218,218,,,,,,,,,,,,,,,,,,,,,,,,,,,,,,,,,,,,,main,k,k,1,1.0962744999997085,757.4170372999997,None,None,0,,,,,,,,,,,,,,205,24,Female,2022-04-28_11h29.12.944,Main,2022.1.1,60.04087582836279,
positive,red,2,None,None,,,,,,,,,0,219,219,219,,,,,,,,,,,,,,,,,,,,,,,,,,,,,,,,,,,,,main,None,None,1,1.5114181999997527,759.5127590000002,None,None,1,,,,,,,,,,,,,,205,24,Female,2022-04-28_11h29.12.944,Main,2022.1.1,60.04087582836279,
positive,yellow,1,None,k,,,,,,,,,0,220,220,220,,,,,,,,,,,,,,,,,,,,,,,,,,,,,,,,,,,,,main,k,k,1,0.9200490999992326,762.0262660999997,None,None,0,,,,,,,,,,,,,,205,24,Female,2022-04-28_11h29.12.944,Main,2022.1.1,60.04087582836279,
positive,blue,1,k,None,,,,,,,,,0,221,221,221,,,,,,,,,,,,,,,,,,,,,,,,,,,,,,,,,,,,,main,None,None,1,1.513021700000536,763.9478302999996,None,None,1,,,,,,,,,,,,,,205,24,Female,2022-04-28_11h29.12.944,Main,2022.1.1,60.04087582836279,
positive,yellow,2,None,k,,,,,,,,,0,222,222,222,,,,,,,,,,,,,,,,,,,,,,,,,,,,,,,,,,,,,main,k,k,1,1.0671944999994594,766.4638631999997,None,None,0,,,,,,,,,,,,,,205,24,Female,2022-04-28_11h29.12.944,Main,2022.1.1,60.04087582836279,
negative,yellow,1,k,None,,,,,,,,,0,223,223,223,,,,,,,,,,,,,,,,,,,,,,,,,,,,,,,,,,,,,main,None,None,1,1.5080349999998361,768.5327000999996,None,None,1,,,,,,,,,,,,,,205,24,Female,2022-04-28_11h29.12.944,Main,2022.1.1,60.04087582836279,
positive,yellow,2,None,k,,,,,,,,,0,224,224,224,,,,,,,,,,,,,,,,,,,,,,,,,,,,,,,,,,,,,main,k,k,1,1.1383224999999584,771.0439886000004,None,None,0,,,,,,,,,,,,,,205,24,Female,2022-04-28_11h29.12.944,Main,2022.1.1,60.04087582836279,
negative,yellow,2,k,None,,,,,,,,,0,225,225,225,,,,,,,,,,,,,,,,,,,,,,,,,,,,,,,,,,,,,main,None,None,1,1.4991946000000098,773.1821819999996,None,None,1,,,,,,,,,,,,,,205,24,Female,2022-04-28_11h29.12.944,Main,2022.1.1,60.04087582836279,
negative,blue,2,None,k,,,,,,,,,0,226,226,226,,,,,,,,,,,,,,,,,,,,,,,,,,,,,,,,,,,,,main,k,k,1,0.827152599999863,775.6830767000001,None,None,0,,,,,,,,,,,,,,205,24,Female,2022-04-28_11h29.12.944,Main,2022.1.1,60.04087582836279,
positive,red,2,None,None,,,,,,,,,0,227,227,227,,,,,,,,,,,,,,,,,,,,,,,,,,,,,,,,,,,,,main,None,None,1,1.5063445000005231,777.5130909,None,None,1,,,,,,,,,,,,,,205,24,Female,2022-04-28_11h29.12.944,Main,2022.1.1,60.04087582836279,
positive,blue,2,k,None,,,,,,,,,0,228,228,228,,,,,,,,,,,,,,,,,,,,,,,,,,,,,,,,,,,,,main,None,None,1,1.4951225999993767,780.0239144999996,None,None,1,,,,,,,,,,,,,,205,24,Female,2022-04-28_11h29.12.944,Main,2022.1.1,60.04087582836279,
negative,blue,1,None,k,,,,,,,,,0,229,229,229,,,,,,,,,,,,,,,,,,,,,,,,,,,,,,,,,,,,,main,k,k,1,0.8952385000002323,782.5198226000002,None,None,0,,,,,,,,,,,,,,205,24,Female,2022-04-28_11h29.12.944,Main,2022.1.1,60.04087582836279,
positive,yellow,1,None,k,,,,,,,,,0,230,230,230,,,,,,,,,,,,,,,,,,,,,,,,,,,,,,,,,,,,,main,k,k,1,1.0189431999997396,784.4145580000004,None,None,0,,,,,,,,,,,,,,205,24,Female,2022-04-28_11h29.12.944,Main,2022.1.1,60.04087582836279,
negative,blue,2,None,k,,,,,,,,,0,231,231,231,,,,,,,,,,,,,,,,,,,,,,,,,,,,,,,,,,,,,main,k,k,1,1.7618851999995968,786.4372034999997,None,None,0,,,,,,,,,,,,,,205,24,Female,2022-04-28_11h29.12.944,Main,2022.1.1,60.04087582836279,
negative,red,1,None,None,,,,,,,,,0,232,232,232,,,,,,,,,,,,,,,,,,,,,,,,,,,,,,,,,,,,,main,None,None,1,1.4985358000003544,790.2144836999996,None,None,1,,,,,,,,,,,,,,205,24,Female,2022-04-28_11h29.12.944,Main,2022.1.1,60.04087582836279,
positive,blue,2,k,None,,,,,,,,,0,233,233,233,,,,,,,,,,,,,,,,,,,,,,,,,,,,,,,,,,,,,main,None,None,1,1.4940494999991643,792.7163750999998,None,None,1,,,,,,,,,,,,,,205,24,Female,2022-04-28_11h29.12.944,Main,2022.1.1,60.04087582836279,
negative,yellow,1,k,None,,,,,,,,,0,234,234,234,,,,,,,,,,,,,,,,,,,,,,,,,,,,,,,,,,,,,main,None,None,1,1.508381499999814,795.2107552999996,None,None,1,,,,,,,,,,,,,,205,24,Female,2022-04-28_11h29.12.944,Main,2022.1.1,60.04087582836279,
negative,yellow,2,k,None,,,,,,,,,0,235,235,235,,,,,,,,,,,,,,,,,,,,,,,,,,,,,,,,,,,,,main,None,None,1,1.5063006999998834,797.7228327000003,None,None,1,,,,,,,,,,,,,,205,24,Female,2022-04-28_11h29.12.944,Main,2022.1.1,60.04087582836279,
positive,red,1,None,None,,,,,,,,,0,236,236,236,,,,,,,,,,,,,,,,,,,,,,,,,,,,,,,,,,,,,main,None,None,1,1.4939758999998958,800.2310513000002,None,None,1,,,,,,,,,,,,,,205,24,Female,2022-04-28_11h29.12.944,Main,2022.1.1,60.04087582836279,
negative,red,2,None,None,,,,,,,,,0,237,237,237,,,,,,,,,,,,,,,,,,,,,,,,,,,,,,,,,,,,,main,None,None,1,1.5036569999992935,802.7261718,None,None,1,,,,,,,,,,,,,,205,24,Female,2022-04-28_11h29.12.944,Main,2022.1.1,60.04087582836279,
negative,blue,1,None,k,,,,,,,,,0,238,238,238,,,,,,,,,,,,,,,,,,,,,,,,,,,,,,,,,,,,,main,k,k,1,1.1825670999996873,805.2336765999999,None,None,0,,,,,,,,,,,,,,205,24,Female,2022-04-28_11h29.12.944,Main,2022.1.1,60.04087582836279,
positive,blue,1,k,None,,,,,,,,,0,239,239,239,,,,,,,,,,,,,,,,,,,,,,,,,,,,,,,,,,,,,main,None,None,1,1.5118561999997837,807.4180281999998,None,None,1,,,,,,,,,,,,,,205,24,Female,2022-04-28_11h29.12.944,Main,2022.1.1,60.04087582836279,
,,,,,,,,,,,,,,,,,,,,,,,,,,,,,,,,,,,,,,,,,,,,,,,,,,,,,,,,,,,,,,,,,,,,,,,,,809.9185515999998,None,,,,,,,,
