distractor,target,set,ans1,ans2,rep_loop4.thisRepN,rep_loop4.thisTrialN,rep_loop4.thisN,rep_loop4.thisIndex,st2_prac_loop.thisRepN,st2_prac_loop.thisTrialN,st2_prac_loop.thisN,st2_prac_loop.thisIndex,st2_main_loop.thisRepN,st2_main_loop.thisTrialN,st2_main_loop.thisN,st2_main_loop.thisIndex,image_4.started,image_4.stopped,mouse_7.x,mouse_7.y,mouse_7.leftButton,mouse_7.midButton,mouse_7.rightButton,sound_2.started,sound_2.stopped,key_resp_3.keys,mouse_5.x,mouse_5.y,mouse_5.leftButton,mouse_5.midButton,mouse_5.rightButton,mouse_5.started,mouse_5.stopped,yes_text2.started,yes_text2.stopped,no_text2.started,no_text2.stopped,mouse_3.x,mouse_3.y,mouse_3.leftButton,mouse_3.midButton,mouse_3.rightButton,mouse_3.started,mouse_3.stopped,st_prac_back.started,st_prac_back.stopped,st_prac_text.started,st_prac_text.stopped,st_fix_back.started,st_fix_back.stopped,st_fix_2.started,st_fix_2.stopped,main_prac,st_ans,st_res,st_corr,st_rt,st_back.started,st_back.stopped,st2_resp.keys,st2_resp.corr,st_main_back.started,st_main_back.stopped,st_main_text.started,st_main_text.stopped,mouse_4.x,mouse_4.y,mouse_4.leftButton,mouse_4.midButton,mouse_4.rightButton,mouse_4.started,mouse_4.stopped,text_2.started,text_2.stopped,id*,age*,gender*,date,expName,psychopyVersion,frameRate,
,,,,,,,,,,,,,,,,,37.08039800000006,None,0.05648148,-0.24074075,0,0,0,,,,,,,,,,,,,,,,,,,,,,,,,,,,,,,,,,,,,,,,,,,,,,,,,,,,206,20,Female,2022-05-02_15h24.16.191,Main,2022.1.1,60.04967308960723,
negative,yellow,1,k,None,,,,,0,0,0,0,,,,,,,,,,,,42.943276429999834,None,None,0.02037037,-0.22037037,0,0,0,1.0110260999995262,None,98.55314210000006,None,98.55314210000006,None,-0.07962963,-0.09537037,0,0,0,0.011450529999819992,None,101.75891820000015,None,101.75891820000015,None,103.76908719999983,None,103.76908719999983,None,prac,k,k,1,6.097978100000091,105.81670020000001,None,None,0,,,,,,,,,,,,,,206,20,Female,2022-05-02_15h24.16.191,Main,2022.1.1,60.04967308960723,
positive,red,2,None,None,,,,,0,1,1,1,,,,,,,,,,,,,,,,,,,,,,,,,,,,,,,,,,,,,,,,,prac,None,None,1,1.5020221999998284,113.95427029999973,None,None,1,,,,,,,,,,,,,,206,20,Female,2022-05-02_15h24.16.191,Main,2022.1.1,60.04967308960723,
negative,blue,2,None,k,,,,,0,2,2,2,,,,,,,,,,,,,,,,,,,,,,,,,,,,,,,,,,,,,,,,,prac,None,None,1,1.5018229000002066,116.45492920000015,None,None,1,,,,,,,,,,,,,,206,20,Female,2022-05-02_15h24.16.191,Main,2022.1.1,60.04967308960723,
positive,yellow,1,None,k,,,,,0,3,3,3,,,,,,,,,,,,,,,,,,,,,,,,,,,,,,,,,,,,,,,,,prac,None,None,1,1.5089862999998331,118.9527508000001,None,None,1,,,,,,,,,,,,,,206,20,Female,2022-05-02_15h24.16.191,Main,2022.1.1,60.04967308960723,
negative,blue,2,None,k,,,,,0,4,4,4,,,,,,,,,,,,,,,,,,,,,,,,,,,,,,,,,,,,,,,,,prac,None,None,1,1.5078155000001061,121.45453279999992,None,None,1,,,,,,,,,,,,,,206,20,Female,2022-05-02_15h24.16.191,Main,2022.1.1,60.04967308960723,
negative,blue,1,None,k,,,,,0,5,5,5,,,,,,,,,,,,,,,,,,,,,,,,,,,,,,,,,,,,,,,,,prac,None,None,1,1.503519899999901,123.96441879999975,None,None,1,,,,,,,,,,,,,,206,20,Female,2022-05-02_15h24.16.191,Main,2022.1.1,60.04967308960723,
negative,yellow,2,k,None,,,,,0,6,6,6,,,,,,,,,,,,,,,,,,,,,,,,,,,,,,,,,,,,,,,,,prac,k,k,1,0.8712484000002405,126.46758910000017,None,None,0,,,,,,,,,,,,,,206,20,Female,2022-05-02_15h24.16.191,Main,2022.1.1,60.04967308960723,
negative,red,1,None,None,,,,,0,7,7,7,,,,,,,,,,,,,,,,,,,,,,,,,,,,,,,,,,,,,,,,,prac,None,None,1,1.5074225999996997,128.3425075,None,None,1,,,,,,,,,,,,,,206,20,Female,2022-05-02_15h24.16.191,Main,2022.1.1,60.04967308960723,
positive,yellow,2,None,k,,,,,0,8,8,8,,,,,,,,,,,,,,,,,,,,,,,,,,,,,,,,,,,,,,,,,prac,None,None,1,1.5087126999997054,130.86151979999977,None,None,1,,,,,,,,,,,,,,206,20,Female,2022-05-02_15h24.16.191,Main,2022.1.1,60.04967308960723,
negative,yellow,1,k,None,,,,,0,9,9,9,,,,,,,,,,,,,,,,,,,,,,,,,,,,,,,,,,,,,,,,,prac,k,k,1,1.415322500000002,133.36172970000007,None,None,0,,,,,,,,,,,,,,206,20,Female,2022-05-02_15h24.16.191,Main,2022.1.1,60.04967308960723,
positive,yellow,2,None,k,,,,,0,10,10,10,,,,,,,,,,,,,,,,,,,,,,,,,,,,,,,,,,,,,,,,,prac,None,None,1,1.507060200000069,135.77917990000014,None,None,1,,,,,,,,,,,,,,206,20,Female,2022-05-02_15h24.16.191,Main,2022.1.1,60.04967308960723,
negative,yellow,2,k,None,,,,,0,11,11,11,,,,,,,,,,,,,,,,,,,,,,,,,,,,,,,,,,,,,,,,,prac,k,k,1,1.4247316000000865,138.28742060000013,None,None,0,,,,,,,,,,,,,,206,20,Female,2022-05-02_15h24.16.191,Main,2022.1.1,60.04967308960723,
negative,red,2,None,None,,,,,0,12,12,12,,,,,,,,,,,,,,,,,,,,,,,,,,,,,,,,,,,,,,,,,prac,None,None,1,1.4967685999999958,140.72474749999992,None,None,1,,,,,,,,,,,,,,206,20,Female,2022-05-02_15h24.16.191,Main,2022.1.1,60.04967308960723,
positive,red,1,None,None,,,,,0,13,13,13,,,,,,,,,,,,,,,,,,,,,,,,,,,,,,,,,,,,,,,,,prac,None,None,1,1.5101416000002246,143.21514290000005,None,None,1,,,,,,,,,,,,,,206,20,Female,2022-05-02_15h24.16.191,Main,2022.1.1,60.04967308960723,
positive,blue,2,k,None,,,,,0,14,14,14,,,,,,,,,,,,,,,,,,,,,,,,,,,,,,,,,,,,,,,,,prac,k,k,1,0.7550225999998474,145.72852749999993,None,None,0,,,,,,,,,,,,,,206,20,Female,2022-05-02_15h24.16.191,Main,2022.1.1,60.04967308960723,
positive,blue,1,k,None,,,,,0,15,15,15,,,,,,,,,,,,,,,,,,,,,,,,,,,,,,,,,,,,,,,,,prac,k,k,1,4.187703699999929,147.49629929999992,None,None,0,,,,,,,,,,,,,,206,20,Female,2022-05-02_15h24.16.191,Main,2022.1.1,60.04967308960723,
negative,blue,1,None,k,,,,,0,16,16,16,,,,,,,,,,,,,,,,,,,,,,,,,,,,,,,,,,,,,,,,,prac,None,None,1,1.5019498000001477,153.6820128999998,None,None,1,,,,,,,,,,,,,,206,20,Female,2022-05-02_15h24.16.191,Main,2022.1.1,60.04967308960723,
positive,blue,2,k,None,,,,,0,17,17,17,,,,,,,,,,,,,,,,,,,,,,,,,,,,,,,,,,,,,,,,,prac,k,k,1,1.2128624000001764,156.18530090000013,None,None,0,,,,,,,,,,,,,,206,20,Female,2022-05-02_15h24.16.191,Main,2022.1.1,60.04967308960723,
positive,blue,1,k,None,,,,,0,18,18,18,,,,,,,,,,,,,,,,,,,,,,,,,,,,,,,,,,,,,,,,,prac,k,k,1,1.3634274999999434,158.39838800000007,None,None,0,,,,,,,,,,,,,,206,20,Female,2022-05-02_15h24.16.191,Main,2022.1.1,60.04967308960723,
positive,yellow,1,None,k,,,,,0,19,19,19,,,,,,,,,,,,,,,,,,,,,,,,,,,,,,,,,,,,,,,,,prac,None,None,1,1.501466000000164,160.76581239999996,None,None,1,,,,,,,,,,,,,,206,20,Female,2022-05-02_15h24.16.191,Main,2022.1.1,60.04967308960723,
negative,yellow,1,k,None,,,,,1,0,20,0,,,,,,,,,,,,,,,,,,,,,,,,,,,,,,,,,,,,,,,,,prac,k,k,1,1.5319539999995868,163.28019619999986,None,None,0,,,,,,,,,,,,,,206,20,Female,2022-05-02_15h24.16.191,Main,2022.1.1,60.04967308960723,
positive,red,2,None,None,,,,,1,1,21,1,,,,,,,,,,,,,,,,,,,,,,,,,,,,,,,,,,,,,,,,,prac,None,None,1,1.4981581000001825,166.8135069,None,None,1,,,,,,,,,,,,,,206,20,Female,2022-05-02_15h24.16.191,Main,2022.1.1,60.04967308960723,
negative,blue,2,None,k,,,,,1,2,22,2,,,,,,,,,,,,,,,,,,,,,,,,,,,,,,,,,,,,,,,,,prac,None,None,1,1.5014523999998346,169.31074940000008,None,None,1,,,,,,,,,,,,,,206,20,Female,2022-05-02_15h24.16.191,Main,2022.1.1,60.04967308960723,
positive,yellow,1,None,k,,,,,1,3,23,3,,,,,,,,,,,,,,,,,,,,,,,,,,,,,,,,,,,,,,,,,prac,None,None,1,1.5065392000001339,171.8161113000001,None,None,1,,,,,,,,,,,,,,206,20,Female,2022-05-02_15h24.16.191,Main,2022.1.1,60.04967308960723,
negative,blue,2,None,k,,,,,1,4,24,4,,,,,,,,,,,,,,,,,,,,,,,,,,,,,,,,,,,,,,,,,prac,None,None,1,1.506826600000295,174.32381350000014,None,None,1,,,,,,,,,,,,,,206,20,Female,2022-05-02_15h24.16.191,Main,2022.1.1,60.04967308960723,
negative,blue,1,None,k,,,,,1,5,25,5,,,,,,,,,,,,,,,,,,,,,,,,,,,,,,,,,,,,,,,,,prac,None,None,1,1.4979668000000856,176.83648619999985,None,None,1,,,,,,,,,,,,,,206,20,Female,2022-05-02_15h24.16.191,Main,2022.1.1,60.04967308960723,
negative,yellow,2,k,None,,,,,1,6,26,6,,,,,,,,,,,,,,,,,,,,,,,,,,,,,,,,,,,,,,,,,prac,k,k,1,1.1442944000000352,179.33568319999995,None,None,0,,,,,,,,,,,,,,206,20,Female,2022-05-02_15h24.16.191,Main,2022.1.1,60.04967308960723,
negative,red,1,None,None,,,,,1,7,27,7,,,,,,,,,,,,,,,,,,,,,,,,,,,,,,,,,,,,,,,,,prac,None,None,1,1.5025362999999743,181.48231309999983,None,None,1,,,,,,,,,,,,,,206,20,Female,2022-05-02_15h24.16.191,Main,2022.1.1,60.04967308960723,
positive,yellow,2,None,k,,,,,1,8,28,8,,,,,,,,,,,,,,,,,,,,,,,,,,,,,,,,,,,,,,,,,prac,None,None,1,1.4993349000001217,183.98571660000016,None,None,1,,,,,,,,,,,,,,206,20,Female,2022-05-02_15h24.16.191,Main,2022.1.1,60.04967308960723,
negative,yellow,1,k,None,,,,,1,9,29,9,,,,,,,,,,,,,,,,,,,,,,,,,,,,,,,,,,,,,,,,,prac,k,k,1,0.8851450000001932,186.48616809999976,None,None,0,,,,,,,,,,,,,,206,20,Female,2022-05-02_15h24.16.191,Main,2022.1.1,60.04967308960723,
positive,yellow,2,None,k,,,,,1,10,30,10,,,,,,,,,,,,,,,,,,,,,,,,,,,,,,,,,,,,,,,,,prac,None,None,1,1.5052967000001445,188.37653659999978,None,None,1,,,,,,,,,,,,,,206,20,Female,2022-05-02_15h24.16.191,Main,2022.1.1,60.04967308960723,
negative,yellow,2,k,None,,,,,1,11,31,11,,,,,,,,,,,,,,,,,,,,,,,,,,,,,,,,,,,,,,,,,prac,k,k,1,1.043874400000277,190.8822129,None,None,0,,,,,,,,,,,,,,206,20,Female,2022-05-02_15h24.16.191,Main,2022.1.1,60.04967308960723,
negative,red,2,None,None,,,,,1,12,32,12,,,,,,,,,,,,,,,,,,,,,,,,,,,,,,,,,,,,,,,,,prac,None,None,1,1.5087305000001834,192.92736609999974,None,None,1,,,,,,,,,,,,,,206,20,Female,2022-05-02_15h24.16.191,Main,2022.1.1,60.04967308960723,
positive,red,1,None,None,,,,,1,13,33,13,,,,,,,,,,,,,,,,,,,,,,,,,,,,,,,,,,,,,,,,,prac,None,None,1,1.5131475999996837,195.43837189999977,None,None,1,,,,,,,,,,,,,,206,20,Female,2022-05-02_15h24.16.191,Main,2022.1.1,60.04967308960723,
positive,blue,2,k,None,,,,,1,14,34,14,,,,,,,,,,,,,,,,,,,,,,,,,,,,,,,,,,,,,,,,,prac,k,k,1,0.7608521999995901,197.95366169999988,None,None,0,,,,,,,,,,,,,,206,20,Female,2022-05-02_15h24.16.191,Main,2022.1.1,60.04967308960723,
positive,blue,1,k,None,,,,,1,15,35,15,,,,,,,,,,,,,,,,,,,,,,,,,,,,,,,,,,,,,,,,,prac,k,k,1,0.9016851000001225,199.71695769999997,None,None,0,,,,,,,,,,,,,,206,20,Female,2022-05-02_15h24.16.191,Main,2022.1.1,60.04967308960723,
negative,blue,1,None,k,,,,,1,16,36,16,,,,,,,,,,,,,,,,,,,,,,,,,,,,,,,,,,,,,,,,,prac,None,None,1,1.4978079000002253,201.61931589999995,None,None,1,,,,,,,,,,,,,,206,20,Female,2022-05-02_15h24.16.191,Main,2022.1.1,60.04967308960723,
positive,blue,2,k,None,,,,,1,17,37,17,,,,,,,,,,,,,,,,,,,,,,,,,,,,,,,,,,,,,,,,,prac,k,k,1,0.6737016000001859,204.1186256000001,None,None,0,,,,,,,,,,,,,,206,20,Female,2022-05-02_15h24.16.191,Main,2022.1.1,60.04967308960723,
positive,blue,1,k,None,,,,,1,18,38,18,,,,,,,,,,,,,,,,,,,,,,,,,,,,,,,,,,,,,,,,,prac,k,k,1,0.8174589000000196,205.7947952999998,None,None,0,,,,,,,,,,,,,,206,20,Female,2022-05-02_15h24.16.191,Main,2022.1.1,60.04967308960723,
positive,yellow,1,None,k,,,,,1,19,39,19,,,,,,,,,,,,,,,,,,,,,,,,,,,,,,,,,,,,,,,,,prac,None,None,1,1.5128764999999476,207.61352699999998,None,None,1,,,,,,,,,,,,,,206,20,Female,2022-05-02_15h24.16.191,Main,2022.1.1,60.04967308960723,
,,,,,,,,,,,,,,,,,,,,,,,,,,,,,,,,,,,,,,,,,,,,,,,,,,,,,,,,,,,,,,210.142511,None,210.142511,None,0.08425926,-0.04537037,0,0,0,0.01201182999966477,None,,,206,20,Female,2022-05-02_15h24.16.191,Main,2022.1.1,60.04967308960723,
negative,yellow,2,k,None,,,,,,,,,0,0,0,0,,,,,,,,,,,,,,,,,,,,,,,,,,,,,,,,,211.5568346,None,211.5568346,None,main,k,k,1,1.0257986000001438,213.6269130999999,None,None,0,,,,,,,,,,,,,,206,20,Female,2022-05-02_15h24.16.191,Main,2022.1.1,60.04967308960723,
positive,red,1,None,None,,,,,,,,,0,1,1,1,,,,,,,,,,,,,,,,,,,,,,,,,,,,,,,,,,,,,main,None,None,1,1.4988207999999759,215.65524300000016,None,None,1,,,,,,,,,,,,,,206,20,Female,2022-05-02_15h24.16.191,Main,2022.1.1,60.04967308960723,
positive,blue,2,k,None,,,,,,,,,0,2,2,2,,,,,,,,,,,,,,,,,,,,,,,,,,,,,,,,,,,,,main,k,k,1,0.7154540000001361,218.15753959999984,None,None,0,,,,,,,,,,,,,,206,20,Female,2022-05-02_15h24.16.191,Main,2022.1.1,60.04967308960723,
positive,blue,1,k,None,,,,,,,,,0,3,3,3,,,,,,,,,,,,,,,,,,,,,,,,,,,,,,,,,,,,,main,k,k,1,0.7910996000000523,219.87281989999974,None,None,0,,,,,,,,,,,,,,206,20,Female,2022-05-02_15h24.16.191,Main,2022.1.1,60.04967308960723,
negative,yellow,2,k,None,,,,,,,,,0,4,4,4,,,,,,,,,,,,,,,,,,,,,,,,,,,,,,,,,,,,,main,k,k,1,0.6480528000001868,221.66720669999995,None,None,0,,,,,,,,,,,,,,206,20,Female,2022-05-02_15h24.16.191,Main,2022.1.1,60.04967308960723,
positive,yellow,2,None,k,,,,,,,,,0,5,5,5,,,,,,,,,,,,,,,,,,,,,,,,,,,,,,,,,,,,,main,None,None,1,1.5041842000000543,223.3163813000001,None,None,1,,,,,,,,,,,,,,206,20,Female,2022-05-02_15h24.16.191,Main,2022.1.1,60.04967308960723,
negative,blue,2,None,k,,,,,,,,,0,6,6,6,,,,,,,,,,,,,,,,,,,,,,,,,,,,,,,,,,,,,main,None,None,1,1.5012068000000909,225.82043720000001,None,None,1,,,,,,,,,,,,,,206,20,Female,2022-05-02_15h24.16.191,Main,2022.1.1,60.04967308960723,
positive,red,2,None,None,,,,,,,,,0,7,7,7,,,,,,,,,,,,,,,,,,,,,,,,,,,,,,,,,,,,,main,None,None,1,1.5112835999998424,228.32566559999987,None,None,1,,,,,,,,,,,,,,206,20,Female,2022-05-02_15h24.16.191,Main,2022.1.1,60.04967308960723,
positive,yellow,1,None,k,,,,,,,,,0,8,8,8,,,,,,,,,,,,,,,,,,,,,,,,,,,,,,,,,,,,,main,None,None,1,1.5145809000000554,230.8362004999999,None,None,1,,,,,,,,,,,,,,206,20,Female,2022-05-02_15h24.16.191,Main,2022.1.1,60.04967308960723,
negative,red,1,None,None,,,,,,,,,0,9,9,9,,,,,,,,,,,,,,,,,,,,,,,,,,,,,,,,,,,,,main,None,None,1,1.5021209000001363,233.35249239999985,None,None,1,,,,,,,,,,,,,,206,20,Female,2022-05-02_15h24.16.191,Main,2022.1.1,60.04967308960723,
positive,yellow,1,None,k,,,,,,,,,0,10,10,10,,,,,,,,,,,,,,,,,,,,,,,,,,,,,,,,,,,,,main,None,None,1,1.510226800000055,235.85886299999993,None,None,1,,,,,,,,,,,,,,206,20,Female,2022-05-02_15h24.16.191,Main,2022.1.1,60.04967308960723,
negative,yellow,1,k,None,,,,,,,,,0,11,11,11,,,,,,,,,,,,,,,,,,,,,,,,,,,,,,,,,,,,,main,k,k,1,0.764882999999827,238.36839359999976,None,None,0,,,,,,,,,,,,,,206,20,Female,2022-05-02_15h24.16.191,Main,2022.1.1,60.04967308960723,
negative,yellow,1,k,None,,,,,,,,,0,12,12,12,,,,,,,,,,,,,,,,,,,,,,,,,,,,,,,,,,,,,main,k,k,1,0.9238820999999007,240.13516100000015,None,None,0,,,,,,,,,,,,,,206,20,Female,2022-05-02_15h24.16.191,Main,2022.1.1,60.04967308960723,
negative,red,2,None,None,,,,,,,,,0,13,13,13,,,,,,,,,,,,,,,,,,,,,,,,,,,,,,,,,,,,,main,None,None,1,1.494685699999991,242.0632360999998,None,None,1,,,,,,,,,,,,,,206,20,Female,2022-05-02_15h24.16.191,Main,2022.1.1,60.04967308960723,
positive,yellow,2,None,k,,,,,,,,,0,14,14,14,,,,,,,,,,,,,,,,,,,,,,,,,,,,,,,,,,,,,main,None,None,1,1.5052686000003632,244.55809069999987,None,None,1,,,,,,,,,,,,,,206,20,Female,2022-05-02_15h24.16.191,Main,2022.1.1,60.04967308960723,
positive,blue,1,k,None,,,,,,,,,0,15,15,15,,,,,,,,,,,,,,,,,,,,,,,,,,,,,,,,,,,,,main,k,k,1,0.7006773000002795,247.06487960000004,None,None,0,,,,,,,,,,,,,,206,20,Female,2022-05-02_15h24.16.191,Main,2022.1.1,60.04967308960723,
negative,blue,1,None,k,,,,,,,,,0,16,16,16,,,,,,,,,,,,,,,,,,,,,,,,,,,,,,,,,,,,,main,None,None,1,1.5019256999999016,248.77056119999997,None,None,1,,,,,,,,,,,,,,206,20,Female,2022-05-02_15h24.16.191,Main,2022.1.1,60.04967308960723,
positive,blue,2,k,None,,,,,,,,,0,17,17,17,,,,,,,,,,,,,,,,,,,,,,,,,,,,,,,,,,,,,main,k,k,1,0.7578220999998848,251.27236119999998,None,None,0,,,,,,,,,,,,,,206,20,Female,2022-05-02_15h24.16.191,Main,2022.1.1,60.04967308960723,
negative,blue,2,None,k,,,,,,,,,0,18,18,18,,,,,,,,,,,,,,,,,,,,,,,,,,,,,,,,,,,,,main,None,None,1,1.4990689000001112,253.03274329999977,None,None,1,,,,,,,,,,,,,,206,20,Female,2022-05-02_15h24.16.191,Main,2022.1.1,60.04967308960723,
negative,blue,1,None,k,,,,,,,,,0,19,19,19,,,,,,,,,,,,,,,,,,,,,,,,,,,,,,,,,,,,,main,None,None,1,1.5000357000003532,255.5323613999999,None,None,1,,,,,,,,,,,,,,206,20,Female,2022-05-02_15h24.16.191,Main,2022.1.1,60.04967308960723,
negative,blue,1,None,k,,,,,,,,,0,20,20,20,,,,,,,,,,,,,,,,,,,,,,,,,,,,,,,,,,,,,main,None,None,1,1.5072699000002103,258.0336947999999,None,None,1,,,,,,,,,,,,,,206,20,Female,2022-05-02_15h24.16.191,Main,2022.1.1,60.04967308960723,
negative,blue,2,None,k,,,,,,,,,0,21,21,21,,,,,,,,,,,,,,,,,,,,,,,,,,,,,,,,,,,,,main,None,None,1,1.497742499999731,260.5456389000001,None,None,1,,,,,,,,,,,,,,206,20,Female,2022-05-02_15h24.16.191,Main,2022.1.1,60.04967308960723,
negative,red,1,None,None,,,,,,,,,0,22,22,22,,,,,,,,,,,,,,,,,,,,,,,,,,,,,,,,,,,,,main,None,None,1,1.5064293000000362,263.0446885000001,None,None,1,,,,,,,,,,,,,,206,20,Female,2022-05-02_15h24.16.191,Main,2022.1.1,60.04967308960723,
positive,red,2,None,None,,,,,,,,,0,23,23,23,,,,,,,,,,,,,,,,,,,,,,,,,,,,,,,,,,,,,main,None,None,1,1.5084318999997777,265.5499838999999,None,None,1,,,,,,,,,,,,,,206,20,Female,2022-05-02_15h24.16.191,Main,2022.1.1,60.04967308960723,
negative,red,2,None,None,,,,,,,,,0,24,24,24,,,,,,,,,,,,,,,,,,,,,,,,,,,,,,,,,,,,,main,None,None,1,1.5110781000003044,268.06235560000005,None,None,1,,,,,,,,,,,,,,206,20,Female,2022-05-02_15h24.16.191,Main,2022.1.1,60.04967308960723,
positive,blue,2,k,None,,,,,,,,,0,25,25,25,,,,,,,,,,,,,,,,,,,,,,,,,,,,,,,,,,,,,main,k,k,1,0.8721020000002682,270.57576169999993,None,None,0,,,,,,,,,,,,,,206,20,Female,2022-05-02_15h24.16.191,Main,2022.1.1,60.04967308960723,
negative,yellow,1,k,None,,,,,,,,,0,26,26,26,,,,,,,,,,,,,,,,,,,,,,,,,,,,,,,,,,,,,main,k,k,1,0.811185900000055,272.4482588000001,None,None,0,,,,,,,,,,,,,,206,20,Female,2022-05-02_15h24.16.191,Main,2022.1.1,60.04967308960723,
positive,blue,2,k,None,,,,,,,,,0,27,27,27,,,,,,,,,,,,,,,,,,,,,,,,,,,,,,,,,,,,,main,k,k,1,0.90533540000024,274.26607509999985,None,None,0,,,,,,,,,,,,,,206,20,Female,2022-05-02_15h24.16.191,Main,2022.1.1,60.04967308960723,
negative,blue,2,None,k,,,,,,,,,0,28,28,28,,,,,,,,,,,,,,,,,,,,,,,,,,,,,,,,,,,,,main,None,None,1,1.5050661000000218,276.17214680000006,None,None,1,,,,,,,,,,,,,,206,20,Female,2022-05-02_15h24.16.191,Main,2022.1.1,60.04967308960723,
positive,red,1,None,None,,,,,,,,,0,29,29,29,,,,,,,,,,,,,,,,,,,,,,,,,,,,,,,,,,,,,main,None,None,1,1.5097437999997965,278.67759350000006,None,None,1,,,,,,,,,,,,,,206,20,Female,2022-05-02_15h24.16.191,Main,2022.1.1,60.04967308960723,
positive,blue,1,k,None,,,,,,,,,0,30,30,30,,,,,,,,,,,,,,,,,,,,,,,,,,,,,,,,,,,,,main,k,k,1,0.7842333999997209,281.19122259999995,None,None,0,,,,,,,,,,,,,,206,20,Female,2022-05-02_15h24.16.191,Main,2022.1.1,60.04967308960723,
positive,yellow,1,None,k,,,,,,,,,0,31,31,31,,,,,,,,,,,,,,,,,,,,,,,,,,,,,,,,,,,,,main,None,None,1,1.5016402999999627,282.9777297999999,None,None,1,,,,,,,,,,,,,,206,20,Female,2022-05-02_15h24.16.191,Main,2022.1.1,60.04967308960723,
negative,yellow,2,k,None,,,,,,,,,0,32,32,32,,,,,,,,,,,,,,,,,,,,,,,,,,,,,,,,,,,,,main,k,k,1,0.7551202999998168,285.48120930000005,None,None,0,,,,,,,,,,,,,,206,20,Female,2022-05-02_15h24.16.191,Main,2022.1.1,60.04967308960723,
negative,blue,1,None,k,,,,,,,,,0,33,33,33,,,,,,,,,,,,,,,,,,,,,,,,,,,,,,,,,,,,,main,None,None,1,1.5054541999998037,287.23912740000014,None,None,1,,,,,,,,,,,,,,206,20,Female,2022-05-02_15h24.16.191,Main,2022.1.1,60.04967308960723,
positive,blue,1,k,None,,,,,,,,,0,34,34,34,,,,,,,,,,,,,,,,,,,,,,,,,,,,,,,,,,,,,main,k,k,1,0.8074624999999287,289.7447901999999,None,None,0,,,,,,,,,,,,,,206,20,Female,2022-05-02_15h24.16.191,Main,2022.1.1,60.04967308960723,
negative,yellow,1,k,None,,,,,,,,,0,35,35,35,,,,,,,,,,,,,,,,,,,,,,,,,,,,,,,,,,,,,main,k,k,1,1.0999964000002365,291.55541829999993,None,None,0,,,,,,,,,,,,,,206,20,Female,2022-05-02_15h24.16.191,Main,2022.1.1,60.04967308960723,
positive,yellow,2,None,k,,,,,,,,,0,36,36,36,,,,,,,,,,,,,,,,,,,,,,,,,,,,,,,,,,,,,main,None,None,1,1.5036666999999397,293.6574885,None,None,1,,,,,,,,,,,,,,206,20,Female,2022-05-02_15h24.16.191,Main,2022.1.1,60.04967308960723,
positive,yellow,2,None,k,,,,,,,,,0,37,37,37,,,,,,,,,,,,,,,,,,,,,,,,,,,,,,,,,,,,,main,None,None,1,1.4996765000000778,296.1600973999998,None,None,1,,,,,,,,,,,,,,206,20,Female,2022-05-02_15h24.16.191,Main,2022.1.1,60.04967308960723,
negative,yellow,2,k,None,,,,,,,,,0,38,38,38,,,,,,,,,,,,,,,,,,,,,,,,,,,,,,,,,,,,,main,k,k,1,0.5963699000003544,298.66215090000014,None,None,0,,,,,,,,,,,,,,206,20,Female,2022-05-02_15h24.16.191,Main,2022.1.1,60.04967308960723,
positive,yellow,1,None,k,,,,,,,,,0,39,39,39,,,,,,,,,,,,,,,,,,,,,,,,,,,,,,,,,,,,,main,None,None,1,1.5090003000000252,300.2616253000001,None,None,1,,,,,,,,,,,,,,206,20,Female,2022-05-02_15h24.16.191,Main,2022.1.1,60.04967308960723,
negative,yellow,2,k,None,,,,,,,,,0,40,40,40,,,,,,,,,,,,,,,,,,,,,,,,,,,,,,,,,,,,,main,k,k,1,0.7395197999999255,302.7721200000001,None,None,0,,,,,,,,,,,,,,206,20,Female,2022-05-02_15h24.16.191,Main,2022.1.1,60.04967308960723,
positive,blue,2,k,None,,,,,,,,,0,41,41,41,,,,,,,,,,,,,,,,,,,,,,,,,,,,,,,,,,,,,main,k,k,1,0.5393685999997615,304.5143797999999,None,None,0,,,,,,,,,,,,,,206,20,Female,2022-05-02_15h24.16.191,Main,2022.1.1,60.04967308960723,
positive,blue,2,k,None,,,,,,,,,0,42,42,42,,,,,,,,,,,,,,,,,,,,,,,,,,,,,,,,,,,,,main,k,k,1,0.5796024000001125,306.05434190000005,None,None,0,,,,,,,,,,,,,,206,20,Female,2022-05-02_15h24.16.191,Main,2022.1.1,60.04967308960723,
negative,blue,2,None,k,,,,,,,,,0,43,43,43,,,,,,,,,,,,,,,,,,,,,,,,,,,,,,,,,,,,,main,None,None,1,1.5006837000000814,307.6355828999999,None,None,1,,,,,,,,,,,,,,206,20,Female,2022-05-02_15h24.16.191,Main,2022.1.1,60.04967308960723,
negative,red,1,None,None,,,,,,,,,0,44,44,44,,,,,,,,,,,,,,,,,,,,,,,,,,,,,,,,,,,,,main,None,None,1,1.4949550000001182,310.1374092000001,None,None,1,,,,,,,,,,,,,,206,20,Female,2022-05-02_15h24.16.191,Main,2022.1.1,60.04967308960723,
negative,yellow,1,k,None,,,,,,,,,0,45,45,45,,,,,,,,,,,,,,,,,,,,,,,,,,,,,,,,,,,,,main,k,k,1,0.6437203000000409,312.635045,None,None,0,,,,,,,,,,,,,,206,20,Female,2022-05-02_15h24.16.191,Main,2022.1.1,60.04967308960723,
negative,yellow,1,k,None,,,,,,,,,0,46,46,46,,,,,,,,,,,,,,,,,,,,,,,,,,,,,,,,,,,,,main,k,k,1,0.5539069000001291,314.27902429999995,None,None,0,,,,,,,,,,,,,,206,20,Female,2022-05-02_15h24.16.191,Main,2022.1.1,60.04967308960723,
positive,red,1,None,None,,,,,,,,,0,47,47,47,,,,,,,,,,,,,,,,,,,,,,,,,,,,,,,,,,,,,main,None,None,1,1.5111335000001418,315.83519220000017,None,None,1,,,,,,,,,,,,,,206,20,Female,2022-05-02_15h24.16.191,Main,2022.1.1,60.04967308960723,
positive,yellow,1,None,k,,,,,,,,,0,48,48,48,,,,,,,,,,,,,,,,,,,,,,,,,,,,,,,,,,,,,main,None,None,1,1.506326700000045,318.3478645,None,None,1,,,,,,,,,,,,,,206,20,Female,2022-05-02_15h24.16.191,Main,2022.1.1,60.04967308960723,
negative,blue,1,None,k,,,,,,,,,0,49,49,49,,,,,,,,,,,,,,,,,,,,,,,,,,,,,,,,,,,,,main,None,None,1,1.4974950999999237,320.85566310000013,None,None,1,,,,,,,,,,,,,,206,20,Female,2022-05-02_15h24.16.191,Main,2022.1.1,60.04967308960723,
positive,yellow,2,None,k,,,,,,,,,0,50,50,50,,,,,,,,,,,,,,,,,,,,,,,,,,,,,,,,,,,,,main,None,None,1,1.5044498000002022,323.3557589000002,None,None,1,,,,,,,,,,,,,,206,20,Female,2022-05-02_15h24.16.191,Main,2022.1.1,60.04967308960723,
negative,blue,1,None,k,,,,,,,,,0,51,51,51,,,,,,,,,,,,,,,,,,,,,,,,,,,,,,,,,,,,,main,None,None,1,1.4945645999996486,325.86433380000017,None,None,1,,,,,,,,,,,,,,206,20,Female,2022-05-02_15h24.16.191,Main,2022.1.1,60.04967308960723,
positive,red,2,None,None,,,,,,,,,0,52,52,52,,,,,,,,,,,,,,,,,,,,,,,,,,,,,,,,,,,,,main,None,None,1,1.5005695999998352,328.36251390000007,None,None,1,,,,,,,,,,,,,,206,20,Female,2022-05-02_15h24.16.191,Main,2022.1.1,60.04967308960723,
positive,yellow,2,None,k,,,,,,,,,0,53,53,53,,,,,,,,,,,,,,,,,,,,,,,,,,,,,,,,,,,,,main,None,None,1,1.5102474999998776,330.86360639999975,None,None,1,,,,,,,,,,,,,,206,20,Female,2022-05-02_15h24.16.191,Main,2022.1.1,60.04967308960723,
negative,red,2,None,None,,,,,,,,,0,54,54,54,,,,,,,,,,,,,,,,,,,,,,,,,,,,,,,,,,,,,main,None,None,1,1.4973301999998512,333.37367159999985,None,None,1,,,,,,,,,,,,,,206,20,Female,2022-05-02_15h24.16.191,Main,2022.1.1,60.04967308960723,
positive,yellow,1,None,k,,,,,,,,,0,55,55,55,,,,,,,,,,,,,,,,,,,,,,,,,,,,,,,,,,,,,main,None,None,1,1.4946862000001602,335.8722766000001,None,None,1,,,,,,,,,,,,,,206,20,Female,2022-05-02_15h24.16.191,Main,2022.1.1,60.04967308960723,
negative,blue,2,None,k,,,,,,,,,0,56,56,56,,,,,,,,,,,,,,,,,,,,,,,,,,,,,,,,,,,,,main,None,None,1,1.4998929000003045,338.36966570000004,None,None,1,,,,,,,,,,,,,,206,20,Female,2022-05-02_15h24.16.191,Main,2022.1.1,60.04967308960723,
positive,blue,1,k,None,,,,,,,,,0,57,57,57,,,,,,,,,,,,,,,,,,,,,,,,,,,,,,,,,,,,,main,k,k,1,0.8380671999998413,340.87137380000013,None,None,0,,,,,,,,,,,,,,206,20,Female,2022-05-02_15h24.16.191,Main,2022.1.1,60.04967308960723,
positive,blue,1,k,None,,,,,,,,,0,58,58,58,,,,,,,,,,,,,,,,,,,,,,,,,,,,,,,,,,,,,main,k,k,1,0.5923282999997355,342.71350829999983,None,None,0,,,,,,,,,,,,,,206,20,Female,2022-05-02_15h24.16.191,Main,2022.1.1,60.04967308960723,
negative,yellow,2,k,None,,,,,,,,,0,59,59,59,,,,,,,,,,,,,,,,,,,,,,,,,,,,,,,,,,,,,main,k,k,1,0.6484159000001455,344.30570499999976,None,None,0,,,,,,,,,,,,,,206,20,Female,2022-05-02_15h24.16.191,Main,2022.1.1,60.04967308960723,
positive,red,2,None,None,,,,,,,,,0,60,60,60,,,,,,,,,,,,,,,,,,,,,,,,,,,,,,,,,,,,,main,None,None,1,1.4987802000000556,345.9546793999998,None,None,1,,,,,,,,,,,,,,206,20,Female,2022-05-02_15h24.16.191,Main,2022.1.1,60.04967308960723,
negative,yellow,1,k,None,,,,,,,,,0,61,61,61,,,,,,,,,,,,,,,,,,,,,,,,,,,,,,,,,,,,,main,k,k,1,0.8941749000000527,348.4559356999998,None,None,0,,,,,,,,,,,,,,206,20,Female,2022-05-02_15h24.16.191,Main,2022.1.1,60.04967308960723,
negative,red,1,None,None,,,,,,,,,0,62,62,62,,,,,,,,,,,,,,,,,,,,,,,,,,,,,,,,,,,,,main,None,None,1,1.5010104999996656,350.3534620999999,None,None,1,,,,,,,,,,,,,,206,20,Female,2022-05-02_15h24.16.191,Main,2022.1.1,60.04967308960723,
negative,blue,1,None,k,,,,,,,,,0,63,63,63,,,,,,,,,,,,,,,,,,,,,,,,,,,,,,,,,,,,,main,None,None,1,1.5005123999999341,352.8560606000001,None,None,1,,,,,,,,,,,,,,206,20,Female,2022-05-02_15h24.16.191,Main,2022.1.1,60.04967308960723,
positive,blue,2,k,None,,,,,,,,,0,64,64,64,,,,,,,,,,,,,,,,,,,,,,,,,,,,,,,,,,,,,main,k,k,1,0.6136222999998608,355.3595752000001,None,None,0,,,,,,,,,,,,,,206,20,Female,2022-05-02_15h24.16.191,Main,2022.1.1,60.04967308960723,
negative,yellow,2,k,None,,,,,,,,,0,65,65,65,,,,,,,,,,,,,,,,,,,,,,,,,,,,,,,,,,,,,main,k,k,1,0.6970990999998321,356.9758348999999,None,None,0,,,,,,,,,,,,,,206,20,Female,2022-05-02_15h24.16.191,Main,2022.1.1,60.04967308960723,
positive,yellow,2,None,k,,,,,,,,,0,66,66,66,,,,,,,,,,,,,,,,,,,,,,,,,,,,,,,,,,,,,main,None,None,1,1.5098673000002236,358.67197320000014,None,None,1,,,,,,,,,,,,,,206,20,Female,2022-05-02_15h24.16.191,Main,2022.1.1,60.04967308960723,
positive,yellow,2,None,k,,,,,,,,,0,67,67,67,,,,,,,,,,,,,,,,,,,,,,,,,,,,,,,,,,,,,main,None,None,1,1.504012800000055,361.18492100000003,None,None,1,,,,,,,,,,,,,,206,20,Female,2022-05-02_15h24.16.191,Main,2022.1.1,60.04967308960723,
positive,red,1,None,None,,,,,,,,,0,68,68,68,,,,,,,,,,,,,,,,,,,,,,,,,,,,,,,,,,,,,main,None,None,1,1.5056287000002158,363.6923953999999,None,None,1,,,,,,,,,,,,,,206,20,Female,2022-05-02_15h24.16.191,Main,2022.1.1,60.04967308960723,
positive,yellow,1,None,k,,,,,,,,,0,69,69,69,,,,,,,,,,,,,,,,,,,,,,,,,,,,,,,,,,,,,main,None,None,1,1.509994000000006,366.19886080000015,None,None,1,,,,,,,,,,,,,,206,20,Female,2022-05-02_15h24.16.191,Main,2022.1.1,60.04967308960723,
negative,yellow,2,k,None,,,,,,,,,0,70,70,70,,,,,,,,,,,,,,,,,,,,,,,,,,,,,,,,,,,,,main,k,k,1,1.124742999999853,368.7110560000001,None,None,0,,,,,,,,,,,,,,206,20,Female,2022-05-02_15h24.16.191,Main,2022.1.1,60.04967308960723,
positive,yellow,1,None,k,,,,,,,,,0,71,71,71,,,,,,,,,,,,,,,,,,,,,,,,,,,,,,,,,,,,,main,None,None,1,1.49772750000011,370.83525180000015,None,None,1,,,,,,,,,,,,,,206,20,Female,2022-05-02_15h24.16.191,Main,2022.1.1,60.04967308960723,
negative,blue,1,None,k,,,,,,,,,0,72,72,72,,,,,,,,,,,,,,,,,,,,,,,,,,,,,,,,,,,,,main,None,None,1,1.5028778000000784,373.3352021999999,None,None,1,,,,,,,,,,,,,,206,20,Female,2022-05-02_15h24.16.191,Main,2022.1.1,60.04967308960723,
negative,red,2,None,None,,,,,,,,,0,73,73,73,,,,,,,,,,,,,,,,,,,,,,,,,,,,,,,,,,,,,main,None,None,1,1.5074196000000484,375.8413479000001,None,None,1,,,,,,,,,,,,,,206,20,Female,2022-05-02_15h24.16.191,Main,2022.1.1,60.04967308960723,
positive,blue,2,k,None,,,,,,,,,0,74,74,74,,,,,,,,,,,,,,,,,,,,,,,,,,,,,,,,,,,,,main,k,k,1,0.6711810000001606,378.3489633999998,None,None,0,,,,,,,,,,,,,,206,20,Female,2022-05-02_15h24.16.191,Main,2022.1.1,60.04967308960723,
negative,blue,2,None,k,,,,,,,,,0,75,75,75,,,,,,,,,,,,,,,,,,,,,,,,,,,,,,,,,,,,,main,None,None,1,1.5004526999996415,380.0246468,None,None,1,,,,,,,,,,,,,,206,20,Female,2022-05-02_15h24.16.191,Main,2022.1.1,60.04967308960723,
negative,blue,2,None,k,,,,,,,,,0,76,76,76,,,,,,,,,,,,,,,,,,,,,,,,,,,,,,,,,,,,,main,None,None,1,1.5041415999999117,382.52596029999995,None,None,1,,,,,,,,,,,,,,206,20,Female,2022-05-02_15h24.16.191,Main,2022.1.1,60.04967308960723,
negative,yellow,1,k,None,,,,,,,,,0,77,77,77,,,,,,,,,,,,,,,,,,,,,,,,,,,,,,,,,,,,,main,k,k,1,0.8007213000000775,385.0314580999998,None,None,0,,,,,,,,,,,,,,206,20,Female,2022-05-02_15h24.16.191,Main,2022.1.1,60.04967308960723,
positive,blue,1,k,None,,,,,,,,,0,78,78,78,,,,,,,,,,,,,,,,,,,,,,,,,,,,,,,,,,,,,main,k,k,1,0.6516617000002043,386.8362557999999,None,None,0,,,,,,,,,,,,,,206,20,Female,2022-05-02_15h24.16.191,Main,2022.1.1,60.04967308960723,
positive,blue,1,k,None,,,,,,,,,0,79,79,79,,,,,,,,,,,,,,,,,,,,,,,,,,,,,,,,,,,,,main,k,k,1,0.5315756999998484,388.490045,None,None,0,,,,,,,,,,,,,,206,20,Female,2022-05-02_15h24.16.191,Main,2022.1.1,60.04967308960723,
positive,red,2,None,None,,,,,,,,,0,80,80,80,,,,,,,,,,,,,,,,,,,,,,,,,,,,,,,,,,,,,main,None,None,1,1.5106430999999247,390.02340490000006,None,None,1,,,,,,,,,,,,,,206,20,Female,2022-05-02_15h24.16.191,Main,2022.1.1,60.04967308960723,
positive,yellow,2,None,k,,,,,,,,,0,81,81,81,,,,,,,,,,,,,,,,,,,,,,,,,,,,,,,,,,,,,main,None,None,1,1.5016289999998662,392.5340590999999,None,None,1,,,,,,,,,,,,,,206,20,Female,2022-05-02_15h24.16.191,Main,2022.1.1,60.04967308960723,
positive,blue,1,k,None,,,,,,,,,0,82,82,82,,,,,,,,,,,,,,,,,,,,,,,,,,,,,,,,,,,,,main,k,k,1,0.7672791999998481,395.03904169999987,None,None,0,,,,,,,,,,,,,,206,20,Female,2022-05-02_15h24.16.191,Main,2022.1.1,60.04967308960723,
negative,yellow,2,k,None,,,,,,,,,0,83,83,83,,,,,,,,,,,,,,,,,,,,,,,,,,,,,,,,,,,,,main,k,k,1,0.7936040999998113,396.80707089999987,None,None,0,,,,,,,,,,,,,,206,20,Female,2022-05-02_15h24.16.191,Main,2022.1.1,60.04967308960723,
positive,blue,2,k,None,,,,,,,,,0,84,84,84,,,,,,,,,,,,,,,,,,,,,,,,,,,,,,,,,,,,,main,k,k,1,0.6726046999997379,398.60104939999974,None,None,0,,,,,,,,,,,,,,206,20,Female,2022-05-02_15h24.16.191,Main,2022.1.1,60.04967308960723,
positive,yellow,1,None,k,,,,,,,,,0,85,85,85,,,,,,,,,,,,,,,,,,,,,,,,,,,,,,,,,,,,,main,None,None,1,1.5043094000002384,400.2761750999998,None,None,1,,,,,,,,,,,,,,206,20,Female,2022-05-02_15h24.16.191,Main,2022.1.1,60.04967308960723,
positive,blue,2,k,None,,,,,,,,,0,86,86,86,,,,,,,,,,,,,,,,,,,,,,,,,,,,,,,,,,,,,main,k,k,1,0.7174196000000848,402.78017899999986,None,None,0,,,,,,,,,,,,,,206,20,Female,2022-05-02_15h24.16.191,Main,2022.1.1,60.04967308960723,
positive,blue,1,k,None,,,,,,,,,0,87,87,87,,,,,,,,,,,,,,,,,,,,,,,,,,,,,,,,,,,,,main,k,k,1,0.6731829000000289,404.50110689999974,None,None,0,,,,,,,,,,,,,,206,20,Female,2022-05-02_15h24.16.191,Main,2022.1.1,60.04967308960723,
negative,yellow,2,k,None,,,,,,,,,0,88,88,88,,,,,,,,,,,,,,,,,,,,,,,,,,,,,,,,,,,,,main,k,k,1,0.9230641999997715,406.17786179999985,None,None,0,,,,,,,,,,,,,,206,20,Female,2022-05-02_15h24.16.191,Main,2022.1.1,60.04967308960723,
negative,blue,2,None,k,,,,,,,,,0,89,89,89,,,,,,,,,,,,,,,,,,,,,,,,,,,,,,,,,,,,,main,None,None,1,1.5082735999999386,408.10277199999973,None,None,1,,,,,,,,,,,,,,206,20,Female,2022-05-02_15h24.16.191,Main,2022.1.1,60.04967308960723,
positive,yellow,2,None,k,,,,,,,,,0,90,90,90,,,,,,,,,,,,,,,,,,,,,,,,,,,,,,,,,,,,,main,None,None,1,1.5121994999999515,410.6120498,None,None,1,,,,,,,,,,,,,,206,20,Female,2022-05-02_15h24.16.191,Main,2022.1.1,60.04967308960723,
negative,yellow,1,k,None,,,,,,,,,0,91,91,91,,,,,,,,,,,,,,,,,,,,,,,,,,,,,,,,,,,,,main,k,k,1,0.7235001000003649,413.12713959999974,None,None,0,,,,,,,,,,,,,,206,20,Female,2022-05-02_15h24.16.191,Main,2022.1.1,60.04967308960723,
negative,red,2,None,None,,,,,,,,,0,92,92,92,,,,,,,,,,,,,,,,,,,,,,,,,,,,,,,,,,,,,main,None,None,1,1.508096999999907,414.85498899999993,None,None,1,,,,,,,,,,,,,,206,20,Female,2022-05-02_15h24.16.191,Main,2022.1.1,60.04967308960723,
negative,blue,2,None,k,,,,,,,,,0,93,93,93,,,,,,,,,,,,,,,,,,,,,,,,,,,,,,,,,,,,,main,None,None,1,1.502926799999841,417.3625984,None,None,1,,,,,,,,,,,,,,206,20,Female,2022-05-02_15h24.16.191,Main,2022.1.1,60.04967308960723,
negative,blue,1,None,k,,,,,,,,,0,94,94,94,,,,,,,,,,,,,,,,,,,,,,,,,,,,,,,,,,,,,main,None,None,1,1.5016280999998344,419.8695045999998,None,None,1,,,,,,,,,,,,,,206,20,Female,2022-05-02_15h24.16.191,Main,2022.1.1,60.04967308960723,
negative,blue,1,None,k,,,,,,,,,0,95,95,95,,,,,,,,,,,,,,,,,,,,,,,,,,,,,,,,,,,,,main,None,None,1,1.497363899999982,422.3720202999998,None,None,1,,,,,,,,,,,,,,206,20,Female,2022-05-02_15h24.16.191,Main,2022.1.1,60.04967308960723,
negative,red,1,None,None,,,,,,,,,0,96,96,96,,,,,,,,,,,,,,,,,,,,,,,,,,,,,,,,,,,,,main,None,None,1,1.497232300000178,424.8707568,None,None,1,,,,,,,,,,,,,,206,20,Female,2022-05-02_15h24.16.191,Main,2022.1.1,60.04967308960723,
positive,yellow,1,None,k,,,,,,,,,0,97,97,97,,,,,,,,,,,,,,,,,,,,,,,,,,,,,,,,,,,,,main,None,None,1,1.5033834999999272,427.36960120000003,None,None,1,,,,,,,,,,,,,,206,20,Female,2022-05-02_15h24.16.191,Main,2022.1.1,60.04967308960723,
negative,yellow,1,k,None,,,,,,,,,0,98,98,98,,,,,,,,,,,,,,,,,,,,,,,,,,,,,,,,,,,,,main,k,k,1,0.8528489000000263,429.87519969999994,None,None,0,,,,,,,,,,,,,,206,20,Female,2022-05-02_15h24.16.191,Main,2022.1.1,60.04967308960723,
positive,red,1,None,None,,,,,,,,,0,99,99,99,,,,,,,,,,,,,,,,,,,,,,,,,,,,,,,,,,,,,main,None,None,1,1.5000763000002735,431.72696570000016,None,None,1,,,,,,,,,,,,,,206,20,Female,2022-05-02_15h24.16.191,Main,2022.1.1,60.04967308960723,
positive,blue,1,k,None,,,,,,,,,0,100,100,100,,,,,,,,,,,,,,,,,,,,,,,,,,,,,,,,,,,,,main,k,k,1,0.6641320000003361,434.22845959999995,None,None,0,,,,,,,,,,,,,,206,20,Female,2022-05-02_15h24.16.191,Main,2022.1.1,60.04967308960723,
negative,yellow,1,k,None,,,,,,,,,0,101,101,101,,,,,,,,,,,,,,,,,,,,,,,,,,,,,,,,,,,,,main,k,k,1,0.9340343999997458,435.8988946999998,None,None,0,,,,,,,,,,,,,,206,20,Female,2022-05-02_15h24.16.191,Main,2022.1.1,60.04967308960723,
negative,blue,2,None,k,,,,,,,,,0,102,102,102,,,,,,,,,,,,,,,,,,,,,,,,,,,,,,,,,,,,,main,None,None,1,1.5014925999998923,437.8327638999999,None,None,1,,,,,,,,,,,,,,206,20,Female,2022-05-02_15h24.16.191,Main,2022.1.1,60.04967308960723,
negative,yellow,2,k,None,,,,,,,,,0,103,103,103,,,,,,,,,,,,,,,,,,,,,,,,,,,,,,,,,,,,,main,k,k,1,1.1073194999999032,440.33640479999985,None,None,0,,,,,,,,,,,,,,206,20,Female,2022-05-02_15h24.16.191,Main,2022.1.1,60.04967308960723,
positive,yellow,2,None,k,,,,,,,,,0,104,104,104,,,,,,,,,,,,,,,,,,,,,,,,,,,,,,,,,,,,,main,None,None,1,1.4972659000000021,442.44281,None,None,1,,,,,,,,,,,,,,206,20,Female,2022-05-02_15h24.16.191,Main,2022.1.1,60.04967308960723,
positive,blue,1,k,None,,,,,,,,,0,105,105,105,,,,,,,,,,,,,,,,,,,,,,,,,,,,,,,,,,,,,main,k,k,1,0.6749047000002975,444.9417785999999,None,None,0,,,,,,,,,,,,,,206,20,Female,2022-05-02_15h24.16.191,Main,2022.1.1,60.04967308960723,
positive,blue,2,k,None,,,,,,,,,0,106,106,106,,,,,,,,,,,,,,,,,,,,,,,,,,,,,,,,,,,,,main,k,k,1,0.7754227999998875,446.61961340000016,None,None,0,,,,,,,,,,,,,,206,20,Female,2022-05-02_15h24.16.191,Main,2022.1.1,60.04967308960723,
negative,blue,1,None,k,,,,,,,,,0,107,107,107,,,,,,,,,,,,,,,,,,,,,,,,,,,,,,,,,,,,,main,None,None,1,1.511616199999935,448.3970767999999,None,None,1,,,,,,,,,,,,,,206,20,Female,2022-05-02_15h24.16.191,Main,2022.1.1,60.04967308960723,
positive,yellow,2,None,k,,,,,,,,,0,108,108,108,,,,,,,,,,,,,,,,,,,,,,,,,,,,,,,,,,,,,main,None,None,1,1.5069048000000294,450.9077987999999,None,None,1,,,,,,,,,,,,,,206,20,Female,2022-05-02_15h24.16.191,Main,2022.1.1,60.04967308960723,
negative,yellow,1,k,None,,,,,,,,,0,109,109,109,,,,,,,,,,,,,,,,,,,,,,,,,,,,,,,,,,,,,main,k,k,1,0.6727487000002839,453.4187879000001,None,None,0,,,,,,,,,,,,,,206,20,Female,2022-05-02_15h24.16.191,Main,2022.1.1,60.04967308960723,
negative,blue,2,None,k,,,,,,,,,0,110,110,110,,,,,,,,,,,,,,,,,,,,,,,,,,,,,,,,,,,,,main,None,None,1,1.5104691000001367,455.09042309999995,None,None,1,,,,,,,,,,,,,,206,20,Female,2022-05-02_15h24.16.191,Main,2022.1.1,60.04967308960723,
positive,blue,2,k,None,,,,,,,,,0,111,111,111,,,,,,,,,,,,,,,,,,,,,,,,,,,,,,,,,,,,,main,k,k,1,0.7202049999996234,457.6044317000001,None,None,0,,,,,,,,,,,,,,206,20,Female,2022-05-02_15h24.16.191,Main,2022.1.1,60.04967308960723,
negative,blue,1,None,k,,,,,,,,,0,112,112,112,,,,,,,,,,,,,,,,,,,,,,,,,,,,,,,,,,,,,main,None,None,1,1.4970024000003832,459.32885129999977,None,None,1,,,,,,,,,,,,,,206,20,Female,2022-05-02_15h24.16.191,Main,2022.1.1,60.04967308960723,
positive,yellow,1,None,k,,,,,,,,,0,113,113,113,,,,,,,,,,,,,,,,,,,,,,,,,,,,,,,,,,,,,main,None,None,1,1.4980719000000136,461.82486560000007,None,None,1,,,,,,,,,,,,,,206,20,Female,2022-05-02_15h24.16.191,Main,2022.1.1,60.04967308960723,
negative,red,1,None,None,,,,,,,,,0,114,114,114,,,,,,,,,,,,,,,,,,,,,,,,,,,,,,,,,,,,,main,None,None,1,1.4975232000001597,464.3244371999999,None,None,1,,,,,,,,,,,,,,206,20,Female,2022-05-02_15h24.16.191,Main,2022.1.1,60.04967308960723,
positive,red,1,None,None,,,,,,,,,0,115,115,115,,,,,,,,,,,,,,,,,,,,,,,,,,,,,,,,,,,,,main,None,None,1,1.4988408999997773,466.8264101,None,None,1,,,,,,,,,,,,,,206,20,Female,2022-05-02_15h24.16.191,Main,2022.1.1,60.04967308960723,
negative,red,2,None,None,,,,,,,,,0,116,116,116,,,,,,,,,,,,,,,,,,,,,,,,,,,,,,,,,,,,,main,None,None,1,1.4977936000000227,469.32402330000014,None,None,1,,,,,,,,,,,,,,206,20,Female,2022-05-02_15h24.16.191,Main,2022.1.1,60.04967308960723,
negative,yellow,2,k,None,,,,,,,,,0,117,117,117,,,,,,,,,,,,,,,,,,,,,,,,,,,,,,,,,,,,,main,k,k,1,0.9986327999999958,471.82327369999985,None,None,0,,,,,,,,,,,,,,206,20,Female,2022-05-02_15h24.16.191,Main,2022.1.1,60.04967308960723,
positive,yellow,1,None,k,,,,,,,,,0,118,118,118,,,,,,,,,,,,,,,,,,,,,,,,,,,,,,,,,,,,,main,None,None,1,1.4982193999999254,473.82609909999974,None,None,1,,,,,,,,,,,,,,206,20,Female,2022-05-02_15h24.16.191,Main,2022.1.1,60.04967308960723,
positive,red,2,None,None,,,,,,,,,0,119,119,119,,,,,,,,,,,,,,,,,,,,,,,,,,,,,,,,,,,,,main,None,None,1,1.5027405999999246,476.3228687000001,None,None,1,,,,,,,,,,,,,,206,20,Female,2022-05-02_15h24.16.191,Main,2022.1.1,60.04967308960723,
positive,blue,2,k,None,,,,,,,,,0,120,120,120,,,,,,,,,,,,,,,,,,,,,,,,,,,,,,,,,,,,,main,k,k,1,0.6213638999997784,478.82942779999985,None,None,0,,,,,,,,,,,,,,206,20,Female,2022-05-02_15h24.16.191,Main,2022.1.1,60.04967308960723,
negative,red,1,None,None,,,,,,,,,0,121,121,121,,,,,,,,,,,,,,,,,,,,,,,,,,,,,,,,,,,,,main,None,None,1,1.5011783999998443,480.4526815999998,None,None,1,,,,,,,,,,,,,,206,20,Female,2022-05-02_15h24.16.191,Main,2022.1.1,60.04967308960723,
positive,yellow,2,None,k,,,,,,,,,0,122,122,122,,,,,,,,,,,,,,,,,,,,,,,,,,,,,,,,,,,,,main,None,None,1,1.5028535999999804,482.9583652000001,None,None,1,,,,,,,,,,,,,,206,20,Female,2022-05-02_15h24.16.191,Main,2022.1.1,60.04967308960723,
negative,red,2,None,None,,,,,,,,,0,123,123,123,,,,,,,,,,,,,,,,,,,,,,,,,,,,,,,,,,,,,main,None,None,1,1.5040174000000661,485.46248509999987,None,None,1,,,,,,,,,,,,,,206,20,Female,2022-05-02_15h24.16.191,Main,2022.1.1,60.04967308960723,
negative,yellow,2,k,None,,,,,,,,,0,124,124,124,,,,,,,,,,,,,,,,,,,,,,,,,,,,,,,,,,,,,main,k,k,1,0.8773182999998426,487.96713880000016,None,None,0,,,,,,,,,,,,,,206,20,Female,2022-05-02_15h24.16.191,Main,2022.1.1,60.04967308960723,
positive,red,1,None,None,,,,,,,,,0,125,125,125,,,,,,,,,,,,,,,,,,,,,,,,,,,,,,,,,,,,,main,None,None,1,1.500193599999875,489.8461421000002,None,None,1,,,,,,,,,,,,,,206,20,Female,2022-05-02_15h24.16.191,Main,2022.1.1,60.04967308960723,
negative,blue,2,None,k,,,,,,,,,0,126,126,126,,,,,,,,,,,,,,,,,,,,,,,,,,,,,,,,,,,,,main,None,None,1,1.4942646999998033,492.348207,None,None,1,,,,,,,,,,,,,,206,20,Female,2022-05-02_15h24.16.191,Main,2022.1.1,60.04967308960723,
negative,blue,1,None,k,,,,,,,,,0,127,127,127,,,,,,,,,,,,,,,,,,,,,,,,,,,,,,,,,,,,,main,None,None,1,1.498273500000323,494.8450852000001,None,None,1,,,,,,,,,,,,,,206,20,Female,2022-05-02_15h24.16.191,Main,2022.1.1,60.04967308960723,
negative,yellow,1,k,None,,,,,,,,,0,128,128,128,,,,,,,,,,,,,,,,,,,,,,,,,,,,,,,,,,,,,main,k,k,1,0.814077499999712,497.3449492,None,None,0,,,,,,,,,,,,,,206,20,Female,2022-05-02_15h24.16.191,Main,2022.1.1,60.04967308960723,
negative,yellow,1,k,None,,,,,,,,,0,129,129,129,,,,,,,,,,,,,,,,,,,,,,,,,,,,,,,,,,,,,main,k,k,1,0.6665756000002148,499.15939750000007,None,None,0,,,,,,,,,,,,,,206,20,Female,2022-05-02_15h24.16.191,Main,2022.1.1,60.04967308960723,
positive,blue,1,k,None,,,,,,,,,0,130,130,130,,,,,,,,,,,,,,,,,,,,,,,,,,,,,,,,,,,,,main,k,k,1,0.6778451000000132,500.82820249999986,None,None,0,,,,,,,,,,,,,,206,20,Female,2022-05-02_15h24.16.191,Main,2022.1.1,60.04967308960723,
negative,blue,1,None,k,,,,,,,,,0,131,131,131,,,,,,,,,,,,,,,,,,,,,,,,,,,,,,,,,,,,,main,None,None,1,1.504159399999935,502.50666679999995,None,None,1,,,,,,,,,,,,,,206,20,Female,2022-05-02_15h24.16.191,Main,2022.1.1,60.04967308960723,
negative,blue,2,None,k,,,,,,,,,0,132,132,132,,,,,,,,,,,,,,,,,,,,,,,,,,,,,,,,,,,,,main,None,None,1,1.5063673999998173,505.0122710999999,None,None,1,,,,,,,,,,,,,,206,20,Female,2022-05-02_15h24.16.191,Main,2022.1.1,60.04967308960723,
positive,blue,2,k,None,,,,,,,,,0,133,133,133,,,,,,,,,,,,,,,,,,,,,,,,,,,,,,,,,,,,,main,k,k,1,0.7552896000001965,507.5213439999998,None,None,0,,,,,,,,,,,,,,206,20,Female,2022-05-02_15h24.16.191,Main,2022.1.1,60.04967308960723,
positive,red,2,None,None,,,,,,,,,0,134,134,134,,,,,,,,,,,,,,,,,,,,,,,,,,,,,,,,,,,,,main,None,None,1,1.5034922999998344,509.2766471,None,None,1,,,,,,,,,,,,,,206,20,Female,2022-05-02_15h24.16.191,Main,2022.1.1,60.04967308960723,
negative,yellow,2,k,None,,,,,,,,,0,135,135,135,,,,,,,,,,,,,,,,,,,,,,,,,,,,,,,,,,,,,main,k,k,1,0.7111462999996547,511.78207710000015,None,None,0,,,,,,,,,,,,,,206,20,Female,2022-05-02_15h24.16.191,Main,2022.1.1,60.04967308960723,
positive,yellow,2,None,k,,,,,,,,,0,136,136,136,,,,,,,,,,,,,,,,,,,,,,,,,,,,,,,,,,,,,main,None,None,1,1.4963510000002316,513.4976781999999,None,None,1,,,,,,,,,,,,,,206,20,Female,2022-05-02_15h24.16.191,Main,2022.1.1,60.04967308960723,
positive,blue,1,k,None,,,,,,,,,0,137,137,137,,,,,,,,,,,,,,,,,,,,,,,,,,,,,,,,,,,,,main,k,k,1,0.9397220000000743,515.9943004000002,None,None,0,,,,,,,,,,,,,,206,20,Female,2022-05-02_15h24.16.191,Main,2022.1.1,60.04967308960723,
positive,yellow,1,None,k,,,,,,,,,0,138,138,138,,,,,,,,,,,,,,,,,,,,,,,,,,,,,,,,,,,,,main,None,None,1,1.5006219000001693,517.9341801999999,None,None,1,,,,,,,,,,,,,,206,20,Female,2022-05-02_15h24.16.191,Main,2022.1.1,60.04967308960723,
positive,yellow,1,None,k,,,,,,,,,0,139,139,139,,,,,,,,,,,,,,,,,,,,,,,,,,,,,,,,,,,,,main,None,None,1,1.4947729000000436,520.4383127000001,None,None,1,,,,,,,,,,,,,,206,20,Female,2022-05-02_15h24.16.191,Main,2022.1.1,60.04967308960723,
positive,yellow,1,None,k,,,,,,,,,0,140,140,140,,,,,,,,,,,,,,,,,,,,,,,,,,,,,,,,,,,,,main,None,None,1,1.4988478999998733,522.9358333,None,None,1,,,,,,,,,,,,,,206,20,Female,2022-05-02_15h24.16.191,Main,2022.1.1,60.04967308960723,
positive,blue,1,k,None,,,,,,,,,0,141,141,141,,,,,,,,,,,,,,,,,,,,,,,,,,,,,,,,,,,,,main,k,k,1,0.7146655000001374,525.4332346000001,None,None,0,,,,,,,,,,,,,,206,20,Female,2022-05-02_15h24.16.191,Main,2022.1.1,60.04967308960723,
positive,blue,2,k,None,,,,,,,,,0,142,142,142,,,,,,,,,,,,,,,,,,,,,,,,,,,,,,,,,,,,,main,k,k,1,0.7441999000002397,527.1521213000001,None,None,0,,,,,,,,,,,,,,206,20,Female,2022-05-02_15h24.16.191,Main,2022.1.1,60.04967308960723,
positive,yellow,2,None,k,,,,,,,,,0,143,143,143,,,,,,,,,,,,,,,,,,,,,,,,,,,,,,,,,,,,,main,None,None,1,1.5005158999997548,528.9003631,None,None,1,,,,,,,,,,,,,,206,20,Female,2022-05-02_15h24.16.191,Main,2022.1.1,60.04967308960723,
negative,yellow,2,k,None,,,,,,,,,0,144,144,144,,,,,,,,,,,,,,,,,,,,,,,,,,,,,,,,,,,,,main,k,k,1,0.7820434000000205,531.3996692000001,None,None,0,,,,,,,,,,,,,,206,20,Female,2022-05-02_15h24.16.191,Main,2022.1.1,60.04967308960723,
negative,blue,2,None,k,,,,,,,,,0,145,145,145,,,,,,,,,,,,,,,,,,,,,,,,,,,,,,,,,,,,,main,None,None,1,1.4960304999999607,533.1854804,None,None,1,,,,,,,,,,,,,,206,20,Female,2022-05-02_15h24.16.191,Main,2022.1.1,60.04967308960723,
negative,red,1,None,None,,,,,,,,,0,146,146,146,,,,,,,,,,,,,,,,,,,,,,,,,,,,,,,,,,,,,main,None,None,1,1.4999417999997604,535.6802653,None,None,1,,,,,,,,,,,,,,206,20,Female,2022-05-02_15h24.16.191,Main,2022.1.1,60.04967308960723,
positive,blue,1,k,None,,,,,,,,,0,147,147,147,,,,,,,,,,,,,,,,,,,,,,,,,,,,,,,,,,,,,main,k,k,1,0.7678795000001628,538.1823639999998,None,None,0,,,,,,,,,,,,,,206,20,Female,2022-05-02_15h24.16.191,Main,2022.1.1,60.04967308960723,
positive,yellow,1,None,k,,,,,,,,,0,148,148,148,,,,,,,,,,,,,,,,,,,,,,,,,,,,,,,,,,,,,main,None,None,1,1.4986645999997563,539.9539449999997,None,None,1,,,,,,,,,,,,,,206,20,Female,2022-05-02_15h24.16.191,Main,2022.1.1,60.04967308960723,
negative,red,2,None,None,,,,,,,,,0,149,149,149,,,,,,,,,,,,,,,,,,,,,,,,,,,,,,,,,,,,,main,None,None,1,1.504840399999921,542.4542701999999,None,None,1,,,,,,,,,,,,,,206,20,Female,2022-05-02_15h24.16.191,Main,2022.1.1,60.04967308960723,
negative,blue,1,None,k,,,,,,,,,0,150,150,150,,,,,,,,,,,,,,,,,,,,,,,,,,,,,,,,,,,,,main,None,None,1,1.4996767000002365,544.9587538999999,None,None,1,,,,,,,,,,,,,,206,20,Female,2022-05-02_15h24.16.191,Main,2022.1.1,60.04967308960723,
negative,yellow,2,k,None,,,,,,,,,0,151,151,151,,,,,,,,,,,,,,,,,,,,,,,,,,,,,,,,,,,,,main,k,k,1,0.7627152000000024,547.4604654999998,None,None,0,,,,,,,,,,,,,,206,20,Female,2022-05-02_15h24.16.191,Main,2022.1.1,60.04967308960723,
negative,blue,2,None,k,,,,,,,,,0,152,152,152,,,,,,,,,,,,,,,,,,,,,,,,,,,,,,,,,,,,,main,None,None,1,1.5118016000001262,549.2308088,None,None,1,,,,,,,,,,,,,,206,20,Female,2022-05-02_15h24.16.191,Main,2022.1.1,60.04967308960723,
negative,yellow,1,k,None,,,,,,,,,0,153,153,153,,,,,,,,,,,,,,,,,,,,,,,,,,,,,,,,,,,,,main,k,k,1,1.1055814000001192,551.7425210000001,None,None,0,,,,,,,,,,,,,,206,20,Female,2022-05-02_15h24.16.191,Main,2022.1.1,60.04967308960723,
negative,blue,1,None,k,,,,,,,,,0,154,154,154,,,,,,,,,,,,,,,,,,,,,,,,,,,,,,,,,,,,,main,None,None,1,1.5047464000003856,553.8518017000001,None,None,1,,,,,,,,,,,,,,206,20,Female,2022-05-02_15h24.16.191,Main,2022.1.1,60.04967308960723,
positive,yellow,2,None,k,,,,,,,,,0,155,155,155,,,,,,,,,,,,,,,,,,,,,,,,,,,,,,,,,,,,,main,None,None,1,1.4969043000000966,556.3572168999999,None,None,1,,,,,,,,,,,,,,206,20,Female,2022-05-02_15h24.16.191,Main,2022.1.1,60.04967308960723,
positive,red,2,None,None,,,,,,,,,0,156,156,156,,,,,,,,,,,,,,,,,,,,,,,,,,,,,,,,,,,,,main,None,None,1,1.498319199999969,558.8559366,None,None,1,,,,,,,,,,,,,,206,20,Female,2022-05-02_15h24.16.191,Main,2022.1.1,60.04967308960723,
positive,red,1,None,None,,,,,,,,,0,157,157,157,,,,,,,,,,,,,,,,,,,,,,,,,,,,,,,,,,,,,main,None,None,1,1.5048735999998826,561.3550679999998,None,None,1,,,,,,,,,,,,,,206,20,Female,2022-05-02_15h24.16.191,Main,2022.1.1,60.04967308960723,
positive,blue,2,k,None,,,,,,,,,0,158,158,158,,,,,,,,,,,,,,,,,,,,,,,,,,,,,,,,,,,,,main,k,k,1,0.8218290999998317,563.8602787,None,None,0,,,,,,,,,,,,,,206,20,Female,2022-05-02_15h24.16.191,Main,2022.1.1,60.04967308960723,
negative,yellow,1,k,None,,,,,,,,,0,159,159,159,,,,,,,,,,,,,,,,,,,,,,,,,,,,,,,,,,,,,main,k,k,1,0.9076886999996532,565.6855259999998,None,None,0,,,,,,,,,,,,,,206,20,Female,2022-05-02_15h24.16.191,Main,2022.1.1,60.04967308960723,
negative,red,2,None,None,,,,,,,,,0,160,160,160,,,,,,,,,,,,,,,,,,,,,,,,,,,,,,,,,,,,,main,None,None,1,1.5060362000003806,567.5944940999998,None,None,1,,,,,,,,,,,,,,206,20,Female,2022-05-02_15h24.16.191,Main,2022.1.1,60.04967308960723,
negative,blue,1,None,k,,,,,,,,,0,161,161,161,,,,,,,,,,,,,,,,,,,,,,,,,,,,,,,,,,,,,main,None,None,1,1.4959687000000486,570.1029481999999,None,None,1,,,,,,,,,,,,,,206,20,Female,2022-05-02_15h24.16.191,Main,2022.1.1,60.04967308960723,
negative,blue,1,None,k,,,,,,,,,0,162,162,162,,,,,,,,,,,,,,,,,,,,,,,,,,,,,,,,,,,,,main,None,None,1,1.5081814000000122,572.6012120999999,None,None,1,,,,,,,,,,,,,,206,20,Female,2022-05-02_15h24.16.191,Main,2022.1.1,60.04967308960723,
negative,yellow,1,k,None,,,,,,,,,0,163,163,163,,,,,,,,,,,,,,,,,,,,,,,,,,,,,,,,,,,,,main,k,k,1,0.6952267000001484,575.1087234000001,None,None,0,,,,,,,,,,,,,,206,20,Female,2022-05-02_15h24.16.191,Main,2022.1.1,60.04967308960723,
negative,yellow,1,k,None,,,,,,,,,0,164,164,164,,,,,,,,,,,,,,,,,,,,,,,,,,,,,,,,,,,,,main,k,k,1,0.6840694000002259,576.8075620999998,None,None,0,,,,,,,,,,,,,,206,20,Female,2022-05-02_15h24.16.191,Main,2022.1.1,60.04967308960723,
positive,yellow,1,None,k,,,,,,,,,0,165,165,165,,,,,,,,,,,,,,,,,,,,,,,,,,,,,,,,,,,,,main,None,None,1,1.5114002999998775,578.4957168999999,None,None,1,,,,,,,,,,,,,,206,20,Female,2022-05-02_15h24.16.191,Main,2022.1.1,60.04967308960723,
negative,red,1,None,None,,,,,,,,,0,166,166,166,,,,,,,,,,,,,,,,,,,,,,,,,,,,,,,,,,,,,main,None,None,1,1.5123813000000155,581.0074249999998,None,None,1,,,,,,,,,,,,,,206,20,Female,2022-05-02_15h24.16.191,Main,2022.1.1,60.04967308960723,
negative,yellow,2,k,None,,,,,,,,,0,167,167,167,,,,,,,,,,,,,,,,,,,,,,,,,,,,,,,,,,,,,main,k,k,1,0.9451463000000331,583.5231508000002,None,None,0,,,,,,,,,,,,,,206,20,Female,2022-05-02_15h24.16.191,Main,2022.1.1,60.04967308960723,
positive,blue,2,k,None,,,,,,,,,0,168,168,168,,,,,,,,,,,,,,,,,,,,,,,,,,,,,,,,,,,,,main,k,k,1,0.8769075999998677,585.4715538999999,None,None,0,,,,,,,,,,,,,,206,20,Female,2022-05-02_15h24.16.191,Main,2022.1.1,60.04967308960723,
positive,red,2,None,None,,,,,,,,,0,169,169,169,,,,,,,,,,,,,,,,,,,,,,,,,,,,,,,,,,,,,main,None,None,1,1.508044400000017,587.3501664999999,None,None,1,,,,,,,,,,,,,,206,20,Female,2022-05-02_15h24.16.191,Main,2022.1.1,60.04967308960723,
positive,red,1,None,None,,,,,,,,,0,170,170,170,,,,,,,,,,,,,,,,,,,,,,,,,,,,,,,,,,,,,main,None,None,1,1.5018162999999731,589.8570476,None,None,1,,,,,,,,,,,,,,206,20,Female,2022-05-02_15h24.16.191,Main,2022.1.1,60.04967308960723,
negative,blue,2,None,k,,,,,,,,,0,171,171,171,,,,,,,,,,,,,,,,,,,,,,,,,,,,,,,,,,,,,main,None,None,1,1.497771300000295,592.3652447,None,None,1,,,,,,,,,,,,,,206,20,Female,2022-05-02_15h24.16.191,Main,2022.1.1,60.04967308960723,
positive,blue,2,k,None,,,,,,,,,0,172,172,172,,,,,,,,,,,,,,,,,,,,,,,,,,,,,,,,,,,,,main,k,k,1,0.7449480000000221,594.8631025,None,None,0,,,,,,,,,,,,,,206,20,Female,2022-05-02_15h24.16.191,Main,2022.1.1,60.04967308960723,
negative,yellow,2,k,None,,,,,,,,,0,173,173,173,,,,,,,,,,,,,,,,,,,,,,,,,,,,,,,,,,,,,main,k,k,1,0.8240590999998858,596.6078112999999,None,None,0,,,,,,,,,,,,,,206,20,Female,2022-05-02_15h24.16.191,Main,2022.1.1,60.04967308960723,
positive,yellow,2,None,k,,,,,,,,,0,174,174,174,,,,,,,,,,,,,,,,,,,,,,,,,,,,,,,,,,,,,main,None,None,1,1.4980188999998063,598.4360643999999,None,None,1,,,,,,,,,,,,,,206,20,Female,2022-05-02_15h24.16.191,Main,2022.1.1,60.04967308960723,
negative,blue,2,None,k,,,,,,,,,0,175,175,175,,,,,,,,,,,,,,,,,,,,,,,,,,,,,,,,,,,,,main,None,None,1,1.4939432999999553,600.9342846,None,None,1,,,,,,,,,,,,,,206,20,Female,2022-05-02_15h24.16.191,Main,2022.1.1,60.04967308960723,
positive,blue,1,k,None,,,,,,,,,0,176,176,176,,,,,,,,,,,,,,,,,,,,,,,,,,,,,,,,,,,,,main,k,k,1,0.8928215000000819,603.4303187,None,None,0,,,,,,,,,,,,,,206,20,Female,2022-05-02_15h24.16.191,Main,2022.1.1,60.04967308960723,
positive,yellow,1,None,k,,,,,,,,,0,177,177,177,,,,,,,,,,,,,,,,,,,,,,,,,,,,,,,,,,,,,main,None,None,1,1.5051416999999674,605.3228426999999,None,None,1,,,,,,,,,,,,,,206,20,Female,2022-05-02_15h24.16.191,Main,2022.1.1,60.04967308960723,
positive,blue,1,k,None,,,,,,,,,0,178,178,178,,,,,,,,,,,,,,,,,,,,,,,,,,,,,,,,,,,,,main,k,k,1,0.8747254999998404,607.8310261000001,None,None,0,,,,,,,,,,,,,,206,20,Female,2022-05-02_15h24.16.191,Main,2022.1.1,60.04967308960723,
positive,yellow,2,None,k,,,,,,,,,0,179,179,179,,,,,,,,,,,,,,,,,,,,,,,,,,,,,,,,,,,,,main,None,None,1,1.5019661999999698,609.7059143000001,None,None,1,,,,,,,,,,,,,,206,20,Female,2022-05-02_15h24.16.191,Main,2022.1.1,60.04967308960723,
positive,blue,1,k,None,,,,,,,,,0,180,180,180,,,,,,,,,,,,,,,,,,,,,,,,,,,,,,,,,,,,,main,k,k,1,0.9342248999996627,612.2110782,None,None,0,,,,,,,,,,,,,,206,20,Female,2022-05-02_15h24.16.191,Main,2022.1.1,60.04967308960723,
negative,red,1,None,None,,,,,,,,,0,181,181,181,,,,,,,,,,,,,,,,,,,,,,,,,,,,,,,,,,,,,main,None,None,1,1.5020543999999063,614.1466968,None,None,1,,,,,,,,,,,,,,206,20,Female,2022-05-02_15h24.16.191,Main,2022.1.1,60.04967308960723,
negative,blue,1,None,k,,,,,,,,,0,182,182,182,,,,,,,,,,,,,,,,,,,,,,,,,,,,,,,,,,,,,main,None,None,1,1.5045379000002868,616.6509102999999,None,None,1,,,,,,,,,,,,,,206,20,Female,2022-05-02_15h24.16.191,Main,2022.1.1,60.04967308960723,
negative,yellow,2,k,None,,,,,,,,,0,183,183,183,,,,,,,,,,,,,,,,,,,,,,,,,,,,,,,,,,,,,main,k,k,1,0.7501858000000539,619.1556593999999,None,None,0,,,,,,,,,,,,,,206,20,Female,2022-05-02_15h24.16.191,Main,2022.1.1,60.04967308960723,
positive,yellow,2,None,k,,,,,,,,,0,184,184,184,,,,,,,,,,,,,,,,,,,,,,,,,,,,,,,,,,,,,main,None,None,1,1.499769699999888,620.9094642,None,None,1,,,,,,,,,,,,,,206,20,Female,2022-05-02_15h24.16.191,Main,2022.1.1,60.04967308960723,
positive,yellow,1,None,k,,,,,,,,,0,185,185,185,,,,,,,,,,,,,,,,,,,,,,,,,,,,,,,,,,,,,main,None,None,1,1.5029133999996702,623.4100735000002,None,None,1,,,,,,,,,,,,,,206,20,Female,2022-05-02_15h24.16.191,Main,2022.1.1,60.04967308960723,
positive,red,2,None,None,,,,,,,,,0,186,186,186,,,,,,,,,,,,,,,,,,,,,,,,,,,,,,,,,,,,,main,None,None,1,1.4937890000001062,625.9146753,None,None,1,,,,,,,,,,,,,,206,20,Female,2022-05-02_15h24.16.191,Main,2022.1.1,60.04967308960723,
positive,blue,1,k,None,,,,,,,,,0,187,187,187,,,,,,,,,,,,,,,,,,,,,,,,,,,,,,,,,,,,,main,k,k,1,0.7288428000001659,628.4096531,None,None,0,,,,,,,,,,,,,,206,20,Female,2022-05-02_15h24.16.191,Main,2022.1.1,60.04967308960723,
negative,yellow,1,k,None,,,,,,,,,0,188,188,188,,,,,,,,,,,,,,,,,,,,,,,,,,,,,,,,,,,,,main,k,k,1,0.7142071000002943,630.1402364999999,None,None,0,,,,,,,,,,,,,,206,20,Female,2022-05-02_15h24.16.191,Main,2022.1.1,60.04967308960723,
positive,yellow,2,None,k,,,,,,,,,0,189,189,189,,,,,,,,,,,,,,,,,,,,,,,,,,,,,,,,,,,,,main,None,None,1,1.5106692999997904,631.8565981000002,None,None,1,,,,,,,,,,,,,,206,20,Female,2022-05-02_15h24.16.191,Main,2022.1.1,60.04967308960723,
negative,yellow,2,k,None,,,,,,,,,0,190,190,190,,,,,,,,,,,,,,,,,,,,,,,,,,,,,,,,,,,,,main,k,k,1,0.6671713999999156,634.3669752000001,None,None,0,,,,,,,,,,,,,,206,20,Female,2022-05-02_15h24.16.191,Main,2022.1.1,60.04967308960723,
negative,yellow,1,k,None,,,,,,,,,0,191,191,191,,,,,,,,,,,,,,,,,,,,,,,,,,,,,,,,,,,,,main,k,k,1,0.7356224000000111,636.0353347,None,None,0,,,,,,,,,,,,,,206,20,Female,2022-05-02_15h24.16.191,Main,2022.1.1,60.04967308960723,
positive,blue,2,k,None,,,,,,,,,0,192,192,192,,,,,,,,,,,,,,,,,,,,,,,,,,,,,,,,,,,,,main,k,k,1,0.7279094999998961,637.7758696999999,None,None,0,,,,,,,,,,,,,,206,20,Female,2022-05-02_15h24.16.191,Main,2022.1.1,60.04967308960723,
positive,yellow,1,None,k,,,,,,,,,0,193,193,193,,,,,,,,,,,,,,,,,,,,,,,,,,,,,,,,,,,,,main,None,None,1,1.4980302999997548,639.5027347999999,None,None,1,,,,,,,,,,,,,,206,20,Female,2022-05-02_15h24.16.191,Main,2022.1.1,60.04967308960723,
negative,red,2,None,None,,,,,,,,,0,194,194,194,,,,,,,,,,,,,,,,,,,,,,,,,,,,,,,,,,,,,main,None,None,1,1.496534899999915,642.0023749000002,None,None,1,,,,,,,,,,,,,,206,20,Female,2022-05-02_15h24.16.191,Main,2022.1.1,60.04967308960723,
positive,red,1,None,None,,,,,,,,,0,195,195,195,,,,,,,,,,,,,,,,,,,,,,,,,,,,,,,,,,,,,main,None,None,1,1.4987845000000561,644.5001717,None,None,1,,,,,,,,,,,,,,206,20,Female,2022-05-02_15h24.16.191,Main,2022.1.1,60.04967308960723,
negative,blue,1,None,k,,,,,,,,,0,196,196,196,,,,,,,,,,,,,,,,,,,,,,,,,,,,,,,,,,,,,main,None,None,1,1.5135927999999694,647.0003054999997,None,None,1,,,,,,,,,,,,,,206,20,Female,2022-05-02_15h24.16.191,Main,2022.1.1,60.04967308960723,
positive,blue,2,k,None,,,,,,,,,0,197,197,197,,,,,,,,,,,,,,,,,,,,,,,,,,,,,,,,,,,,,main,k,k,1,0.6286497999999483,649.5153043,None,None,0,,,,,,,,,,,,,,206,20,Female,2022-05-02_15h24.16.191,Main,2022.1.1,60.04967308960723,
negative,blue,2,None,k,,,,,,,,,0,198,198,198,,,,,,,,,,,,,,,,,,,,,,,,,,,,,,,,,,,,,main,None,None,1,1.5038383000000977,651.1481287000001,None,None,1,,,,,,,,,,,,,,206,20,Female,2022-05-02_15h24.16.191,Main,2022.1.1,60.04967308960723,
negative,blue,2,None,k,,,,,,,,,0,199,199,199,,,,,,,,,,,,,,,,,,,,,,,,,,,,,,,,,,,,,main,None,None,1,1.5030406999999286,653.6557554999999,None,None,1,,,,,,,,,,,,,,206,20,Female,2022-05-02_15h24.16.191,Main,2022.1.1,60.04967308960723,
positive,blue,2,k,None,,,,,,,,,0,200,200,200,,,,,,,,,,,,,,,,,,,,,,,,,,,,,,,,,,,,,main,k,k,1,0.7238035999998829,656.1593981000001,None,None,0,,,,,,,,,,,,,,206,20,Female,2022-05-02_15h24.16.191,Main,2022.1.1,60.04967308960723,
positive,blue,2,k,None,,,,,,,,,0,201,201,201,,,,,,,,,,,,,,,,,,,,,,,,,,,,,,,,,,,,,main,k,k,1,0.66494560000001,657.8860621999997,None,None,0,,,,,,,,,,,,,,206,20,Female,2022-05-02_15h24.16.191,Main,2022.1.1,60.04967308960723,
negative,yellow,2,k,None,,,,,,,,,0,202,202,202,,,,,,,,,,,,,,,,,,,,,,,,,,,,,,,,,,,,,main,k,k,1,0.8212680000001455,659.5501350999998,None,None,0,,,,,,,,,,,,,,206,20,Female,2022-05-02_15h24.16.191,Main,2022.1.1,60.04967308960723,
positive,red,1,None,None,,,,,,,,,0,203,203,203,,,,,,,,,,,,,,,,,,,,,,,,,,,,,,,,,,,,,main,None,None,1,1.4964270000000397,661.3744182999999,None,None,1,,,,,,,,,,,,,,206,20,Female,2022-05-02_15h24.16.191,Main,2022.1.1,60.04967308960723,
negative,blue,2,None,k,,,,,,,,,0,204,204,204,,,,,,,,,,,,,,,,,,,,,,,,,,,,,,,,,,,,,main,None,None,1,1.4968768999997337,663.8725728,None,None,1,,,,,,,,,,,,,,206,20,Female,2022-05-02_15h24.16.191,Main,2022.1.1,60.04967308960723,
negative,red,1,None,None,,,,,,,,,0,205,205,205,,,,,,,,,,,,,,,,,,,,,,,,,,,,,,,,,,,,,main,None,None,1,1.5105854999997064,666.3702118000001,None,None,1,,,,,,,,,,,,,,206,20,Female,2022-05-02_15h24.16.191,Main,2022.1.1,60.04967308960723,
negative,blue,2,None,k,,,,,,,,,0,206,206,206,,,,,,,,,,,,,,,,,,,,,,,,,,,,,,,,,,,,,main,None,None,1,1.4990921999997227,668.8806304,None,None,1,,,,,,,,,,,,,,206,20,Female,2022-05-02_15h24.16.191,Main,2022.1.1,60.04967308960723,
negative,yellow,2,k,None,,,,,,,,,0,207,207,207,,,,,,,,,,,,,,,,,,,,,,,,,,,,,,,,,,,,,main,k,k,1,0.6493109000002733,671.3820114,None,None,0,,,,,,,,,,,,,,206,20,Female,2022-05-02_15h24.16.191,Main,2022.1.1,60.04967308960723,
positive,yellow,2,None,k,,,,,,,,,0,208,208,208,,,,,,,,,,,,,,,,,,,,,,,,,,,,,,,,,,,,,main,None,None,1,1.5045571999999083,673.0350856999999,None,None,1,,,,,,,,,,,,,,206,20,Female,2022-05-02_15h24.16.191,Main,2022.1.1,60.04967308960723,
negative,yellow,1,k,None,,,,,,,,,0,209,209,209,,,,,,,,,,,,,,,,,,,,,,,,,,,,,,,,,,,,,main,k,k,1,0.778338900000108,675.5410867999999,None,None,0,,,,,,,,,,,,,,206,20,Female,2022-05-02_15h24.16.191,Main,2022.1.1,60.04967308960723,
negative,red,2,None,None,,,,,,,,,0,210,210,210,,,,,,,,,,,,,,,,,,,,,,,,,,,,,,,,,,,,,main,None,None,1,1.509396100000231,677.3212380999998,None,None,1,,,,,,,,,,,,,,206,20,Female,2022-05-02_15h24.16.191,Main,2022.1.1,60.04967308960723,
negative,blue,1,None,k,,,,,,,,,0,211,211,211,,,,,,,,,,,,,,,,,,,,,,,,,,,,,,,,,,,,,main,None,None,1,1.5095092999999906,679.8290687999997,None,None,1,,,,,,,,,,,,,,206,20,Female,2022-05-02_15h24.16.191,Main,2022.1.1,60.04967308960723,
negative,yellow,1,k,None,,,,,,,,,0,212,212,212,,,,,,,,,,,,,,,,,,,,,,,,,,,,,,,,,,,,,main,k,k,1,0.6819193999999698,682.3419202999999,None,None,0,,,,,,,,,,,,,,206,20,Female,2022-05-02_15h24.16.191,Main,2022.1.1,60.04967308960723,
positive,blue,1,k,None,,,,,,,,,0,213,213,213,,,,,,,,,,,,,,,,,,,,,,,,,,,,,,,,,,,,,main,k,k,1,0.7143382999997812,684.0255619,None,None,0,,,,,,,,,,,,,,206,20,Female,2022-05-02_15h24.16.191,Main,2022.1.1,60.04967308960723,
positive,blue,1,k,None,,,,,,,,,0,214,214,214,,,,,,,,,,,,,,,,,,,,,,,,,,,,,,,,,,,,,main,k,k,1,0.5682074999999713,685.7438066999998,None,None,0,,,,,,,,,,,,,,206,20,Female,2022-05-02_15h24.16.191,Main,2022.1.1,60.04967308960723,
positive,yellow,1,None,k,,,,,,,,,0,215,215,215,,,,,,,,,,,,,,,,,,,,,,,,,,,,,,,,,,,,,main,None,None,1,1.5124973000001773,687.3129147,None,None,1,,,,,,,,,,,,,,206,20,Female,2022-05-02_15h24.16.191,Main,2022.1.1,60.04967308960723,
positive,yellow,1,None,k,,,,,,,,,0,216,216,216,,,,,,,,,,,,,,,,,,,,,,,,,,,,,,,,,,,,,main,None,None,1,1.5089981999999509,689.8280847999999,None,None,1,,,,,,,,,,,,,,206,20,Female,2022-05-02_15h24.16.191,Main,2022.1.1,60.04967308960723,
positive,yellow,2,None,k,,,,,,,,,0,217,217,217,,,,,,,,,,,,,,,,,,,,,,,,,,,,,,,,,,,,,main,None,None,1,1.5095031000000745,692.3397418,None,None,1,,,,,,,,,,,,,,206,20,Female,2022-05-02_15h24.16.191,Main,2022.1.1,60.04967308960723,
negative,blue,1,None,k,,,,,,,,,0,218,218,218,,,,,,,,,,,,,,,,,,,,,,,,,,,,,,,,,,,,,main,None,None,1,1.5101016999997228,694.8521842999999,None,None,1,,,,,,,,,,,,,,206,20,Female,2022-05-02_15h24.16.191,Main,2022.1.1,60.04967308960723,
positive,red,2,None,None,,,,,,,,,0,219,219,219,,,,,,,,,,,,,,,,,,,,,,,,,,,,,,,,,,,,,main,None,None,1,1.502546700000039,697.3617770000001,None,None,1,,,,,,,,,,,,,,206,20,Female,2022-05-02_15h24.16.191,Main,2022.1.1,60.04967308960723,
positive,yellow,1,None,k,,,,,,,,,0,220,220,220,,,,,,,,,,,,,,,,,,,,,,,,,,,,,,,,,,,,,main,None,None,1,1.5053016000001662,699.8676784999998,None,None,1,,,,,,,,,,,,,,206,20,Female,2022-05-02_15h24.16.191,Main,2022.1.1,60.04967308960723,
positive,blue,1,k,None,,,,,,,,,0,221,221,221,,,,,,,,,,,,,,,,,,,,,,,,,,,,,,,,,,,,,main,k,k,1,0.8279093000001012,702.3737731000001,None,None,0,,,,,,,,,,,,,,206,20,Female,2022-05-02_15h24.16.191,Main,2022.1.1,60.04967308960723,
positive,yellow,2,None,k,,,,,,,,,0,222,222,222,,,,,,,,,,,,,,,,,,,,,,,,,,,,,,,,,,,,,main,None,None,1,1.5085196999998516,704.2057887999999,None,None,1,,,,,,,,,,,,,,206,20,Female,2022-05-02_15h24.16.191,Main,2022.1.1,60.04967308960723,
negative,yellow,1,k,None,,,,,,,,,0,223,223,223,,,,,,,,,,,,,,,,,,,,,,,,,,,,,,,,,,,,,main,k,k,1,0.7484448000000157,706.7164828999998,None,None,0,,,,,,,,,,,,,,206,20,Female,2022-05-02_15h24.16.191,Main,2022.1.1,60.04967308960723,
positive,yellow,2,None,k,,,,,,,,,0,224,224,224,,,,,,,,,,,,,,,,,,,,,,,,,,,,,,,,,,,,,main,None,None,1,1.5103001999996195,708.4665126,None,None,1,,,,,,,,,,,,,,206,20,Female,2022-05-02_15h24.16.191,Main,2022.1.1,60.04967308960723,
negative,yellow,2,k,None,,,,,,,,,0,225,225,225,,,,,,,,,,,,,,,,,,,,,,,,,,,,,,,,,,,,,main,k,k,1,0.7008823999999549,710.9750383999999,None,None,0,,,,,,,,,,,,,,206,20,Female,2022-05-02_15h24.16.191,Main,2022.1.1,60.04967308960723,
negative,blue,2,None,k,,,,,,,,,0,226,226,226,,,,,,,,,,,,,,,,,,,,,,,,,,,,,,,,,,,,,main,None,None,1,1.5006751000000804,712.6797151000001,None,None,1,,,,,,,,,,,,,,206,20,Female,2022-05-02_15h24.16.191,Main,2022.1.1,60.04967308960723,
positive,red,2,None,None,,,,,,,,,0,227,227,227,,,,,,,,,,,,,,,,,,,,,,,,,,,,,,,,,,,,,main,None,None,1,1.5016406999998253,715.1818671999999,None,None,1,,,,,,,,,,,,,,206,20,Female,2022-05-02_15h24.16.191,Main,2022.1.1,60.04967308960723,
positive,blue,2,k,None,,,,,,,,,0,228,228,228,,,,,,,,,,,,,,,,,,,,,,,,,,,,,,,,,,,,,main,k,k,1,0.9564402000000882,717.6846280999998,None,None,0,,,,,,,,,,,,,,206,20,Female,2022-05-02_15h24.16.191,Main,2022.1.1,60.04967308960723,
negative,blue,1,None,k,,,,,,,,,0,229,229,229,,,,,,,,,,,,,,,,,,,,,,,,,,,,,,,,,,,,,main,None,None,1,1.5015035000001262,719.6416976999999,None,None,1,,,,,,,,,,,,,,206,20,Female,2022-05-02_15h24.16.191,Main,2022.1.1,60.04967308960723,
positive,yellow,1,None,k,,,,,,,,,0,230,230,230,,,,,,,,,,,,,,,,,,,,,,,,,,,,,,,,,,,,,main,None,None,1,1.5065561999999773,722.1461725999998,None,None,1,,,,,,,,,,,,,,206,20,Female,2022-05-02_15h24.16.191,Main,2022.1.1,60.04967308960723,
negative,blue,2,None,k,,,,,,,,,0,231,231,231,,,,,,,,,,,,,,,,,,,,,,,,,,,,,,,,,,,,,main,None,None,1,1.5099120999998377,724.6554631999998,None,None,1,,,,,,,,,,,,,,206,20,Female,2022-05-02_15h24.16.191,Main,2022.1.1,60.04967308960723,
negative,red,1,None,None,,,,,,,,,0,232,232,232,,,,,,,,,,,,,,,,,,,,,,,,,,,,,,,,,,,,,main,None,None,1,1.5027505000002748,727.1680388999998,None,None,1,,,,,,,,,,,,,,206,20,Female,2022-05-02_15h24.16.191,Main,2022.1.1,60.04967308960723,
positive,blue,2,k,None,,,,,,,,,0,233,233,233,,,,,,,,,,,,,,,,,,,,,,,,,,,,,,,,,,,,,main,k,k,1,0.7592607000001408,729.6711150000001,None,None,0,,,,,,,,,,,,,,206,20,Female,2022-05-02_15h24.16.191,Main,2022.1.1,60.04967308960723,
negative,yellow,1,k,None,,,,,,,,,0,234,234,234,,,,,,,,,,,,,,,,,,,,,,,,,,,,,,,,,,,,,main,k,k,1,0.8613973000001351,731.4341718000001,None,None,0,,,,,,,,,,,,,,206,20,Female,2022-05-02_15h24.16.191,Main,2022.1.1,60.04967308960723,
negative,yellow,2,k,None,,,,,,,,,0,235,235,235,,,,,,,,,,,,,,,,,,,,,,,,,,,,,,,,,,,,,main,k,k,1,0.7124220999999125,733.2970571999999,None,None,0,,,,,,,,,,,,,,206,20,Female,2022-05-02_15h24.16.191,Main,2022.1.1,60.04967308960723,
positive,red,1,None,None,,,,,,,,,0,236,236,236,,,,,,,,,,,,,,,,,,,,,,,,,,,,,,,,,,,,,main,None,None,1,1.502853800000139,735.0120296999999,None,None,1,,,,,,,,,,,,,,206,20,Female,2022-05-02_15h24.16.191,Main,2022.1.1,60.04967308960723,
negative,red,2,None,None,,,,,,,,,0,237,237,237,,,,,,,,,,,,,,,,,,,,,,,,,,,,,,,,,,,,,main,None,None,1,1.5098809999999503,737.5166816999999,None,None,1,,,,,,,,,,,,,,206,20,Female,2022-05-02_15h24.16.191,Main,2022.1.1,60.04967308960723,
negative,blue,1,None,k,,,,,,,,,0,238,238,238,,,,,,,,,,,,,,,,,,,,,,,,,,,,,,,,,,,,,main,None,None,1,1.5118287000000237,740.0284750000001,None,None,1,,,,,,,,,,,,,,206,20,Female,2022-05-02_15h24.16.191,Main,2022.1.1,60.04967308960723,
positive,blue,1,k,None,,,,,,,,,0,239,239,239,,,,,,,,,,,,,,,,,,,,,,,,,,,,,,,,,,,,,main,k,k,1,1.167520500000137,742.5388024999997,None,None,0,,,,,,,,,,,,,,206,20,Female,2022-05-02_15h24.16.191,Main,2022.1.1,60.04967308960723,
,,,,,,,,,,,,,,,,,,,,,,,,,,,,,,,,,,,,,,,,,,,,,,,,,,,,,,,,,,,,,,,,,,,,,,,,,744.6982438999999,None,,,,,,,,
