distractor,target,set,ans1,ans2,rep_loop4.thisRepN,rep_loop4.thisTrialN,rep_loop4.thisN,rep_loop4.thisIndex,st2_prac_loop.thisRepN,st2_prac_loop.thisTrialN,st2_prac_loop.thisN,st2_prac_loop.thisIndex,st2_main_loop.thisRepN,st2_main_loop.thisTrialN,st2_main_loop.thisN,st2_main_loop.thisIndex,image_4.started,image_4.stopped,mouse_7.x,mouse_7.y,mouse_7.leftButton,mouse_7.midButton,mouse_7.rightButton,sound_2.started,sound_2.stopped,key_resp_3.keys,mouse_5.x,mouse_5.y,mouse_5.leftButton,mouse_5.midButton,mouse_5.rightButton,mouse_5.started,mouse_5.stopped,yes_text2.started,yes_text2.stopped,no_text2.started,no_text2.stopped,mouse_3.x,mouse_3.y,mouse_3.leftButton,mouse_3.midButton,mouse_3.rightButton,mouse_3.started,mouse_3.stopped,st_prac_back.started,st_prac_back.stopped,st_prac_text.started,st_prac_text.stopped,st_fix_back.started,st_fix_back.stopped,st_fix_2.started,st_fix_2.stopped,main_prac,st_ans,st_res,st_corr,st_rt,st_back.started,st_back.stopped,st2_resp.keys,st2_resp.corr,st_main_back.started,st_main_back.stopped,st_main_text.started,st_main_text.stopped,mouse_4.x,mouse_4.y,mouse_4.leftButton,mouse_4.midButton,mouse_4.rightButton,mouse_4.started,mouse_4.stopped,text_2.started,text_2.stopped,id*,age*,gender*,date,expName,psychopyVersion,frameRate,
,,,,,,,,,,,,,,,,,28.5052083999999,None,0.0018518518,-0.0027777778,0,0,0,,,,,,,,,,,,,,,,,,,,,,,,,,,,,,,,,,,,,,,,,,,,,,,,,,,,207,22,Male,2022-05-03_11h06.49.526,Main,2022.1.1,60.00913339000659,
negative,yellow,1,k,None,,,,,0,0,0,0,,,,,,,,,,,,33.470635979999955,None,None,-0.09074074,-0.3537037,0,0,0,1.0091448799998943,None,82.81439230000024,None,82.81439230000024,None,-0.10555556,-0.094444446,0,0,0,0.01262137999992774,None,83.50396170000022,None,83.50396170000022,None,85.51438020000023,None,85.51438020000023,None,prac,None,None,1,1.5064565000002403,87.5288885,None,None,1,,,,,,,,,,,,,,207,22,Male,2022-05-03_11h06.49.526,Main,2022.1.1,60.00913339000659,
positive,red,2,None,None,,,,,0,1,1,1,,,,,,,,,,,,,,,,,,,,,,,,,,,,,,,,,,,,,,,,,prac,None,None,1,1.4978765999999268,90.01679700000022,None,None,1,,,,,,,,,,,,,,207,22,Male,2022-05-03_11h06.49.526,Main,2022.1.1,60.00913339000659,
negative,blue,2,None,k,,,,,0,2,2,2,,,,,,,,,,,,,,,,,,,,,,,,,,,,,,,,,,,,,,,,,prac,k,k,1,22.477501200000006,92.51587440000003,None,None,0,,,,,,,,,,,,,,207,22,Male,2022-05-03_11h06.49.526,Main,2022.1.1,60.00913339000659,
positive,yellow,1,None,k,,,,,0,3,3,3,,,,,,,,,,,,,,,,,,,,,,,,,,,,,,,,,,,,,,,,,prac,k,k,1,3.0828953999998703,117.0285544000003,None,None,0,,,,,,,,,,,,,,207,22,Male,2022-05-03_11h06.49.526,Main,2022.1.1,60.00913339000659,
negative,blue,2,None,k,,,,,0,4,4,4,,,,,,,,,,,,,,,,,,,,,,,,,,,,,,,,,,,,,,,,,prac,k,k,1,2.8149266000000353,122.11094950000006,None,None,0,,,,,,,,,,,,,,207,22,Male,2022-05-03_11h06.49.526,Main,2022.1.1,60.00913339000659,
negative,blue,1,None,k,,,,,0,5,5,5,,,,,,,,,,,,,,,,,,,,,,,,,,,,,,,,,,,,,,,,,prac,k,k,1,10.264494800000193,126.92709500000001,None,None,0,,,,,,,,,,,,,,207,22,Male,2022-05-03_11h06.49.526,Main,2022.1.1,60.00913339000659,
negative,yellow,2,k,None,,,,,0,6,6,6,,,,,,,,,,,,,,,,,,,,,,,,,,,,,,,,,,,,,,,,,prac,None,None,1,1.4976480000000265,139.19219500000008,None,None,1,,,,,,,,,,,,,,207,22,Male,2022-05-03_11h06.49.526,Main,2022.1.1,60.00913339000659,
negative,red,1,None,None,,,,,0,7,7,7,,,,,,,,,,,,,,,,,,,,,,,,,,,,,,,,,,,,,,,,,prac,None,None,1,1.5097083000000566,141.69089170000007,None,None,1,,,,,,,,,,,,,,207,22,Male,2022-05-03_11h06.49.526,Main,2022.1.1,60.00913339000659,
positive,yellow,2,None,k,,,,,0,8,8,8,,,,,,,,,,,,,,,,,,,,,,,,,,,,,,,,,,,,,,,,,prac,k,k,1,1.340323299999909,144.21432970000023,None,None,0,,,,,,,,,,,,,,207,22,Male,2022-05-03_11h06.49.526,Main,2022.1.1,60.00913339000659,
negative,yellow,1,k,None,,,,,0,9,9,9,,,,,,,,,,,,,,,,,,,,,,,,,,,,,,,,,,,,,,,,,prac,None,None,1,1.4962506000001667,146.56102499999997,None,None,1,,,,,,,,,,,,,,207,22,Male,2022-05-03_11h06.49.526,Main,2022.1.1,60.00913339000659,
positive,yellow,2,None,k,,,,,0,10,10,10,,,,,,,,,,,,,,,,,,,,,,,,,,,,,,,,,,,,,,,,,prac,k,k,1,0.850274200000058,149.0436049,None,None,0,,,,,,,,,,,,,,207,22,Male,2022-05-03_11h06.49.526,Main,2022.1.1,60.00913339000659,
negative,yellow,2,k,None,,,,,0,11,11,11,,,,,,,,,,,,,,,,,,,,,,,,,,,,,,,,,,,,,,,,,prac,None,None,1,1.4981011999998373,150.8958321,None,None,1,,,,,,,,,,,,,,207,22,Male,2022-05-03_11h06.49.526,Main,2022.1.1,60.00913339000659,
negative,red,2,None,None,,,,,0,12,12,12,,,,,,,,,,,,,,,,,,,,,,,,,,,,,,,,,,,,,,,,,prac,None,None,1,1.5062668000000485,153.39562560000013,None,None,1,,,,,,,,,,,,,,207,22,Male,2022-05-03_11h06.49.526,Main,2022.1.1,60.00913339000659,
positive,red,1,None,None,,,,,0,13,13,13,,,,,,,,,,,,,,,,,,,,,,,,,,,,,,,,,,,,,,,,,prac,None,None,1,1.50040190000027,155.91298929999994,None,None,1,,,,,,,,,,,,,,207,22,Male,2022-05-03_11h06.49.526,Main,2022.1.1,60.00913339000659,
positive,blue,2,k,None,,,,,0,14,14,14,,,,,,,,,,,,,,,,,,,,,,,,,,,,,,,,,,,,,,,,,prac,None,None,1,1.4999551999999312,158.4049570000002,None,None,1,,,,,,,,,,,,,,207,22,Male,2022-05-03_11h06.49.526,Main,2022.1.1,60.00913339000659,
positive,blue,1,k,None,,,,,0,15,15,15,,,,,,,,,,,,,,,,,,,,,,,,,,,,,,,,,,,,,,,,,prac,None,None,1,1.5100007000000915,160.9059188000001,None,None,1,,,,,,,,,,,,,,207,22,Male,2022-05-03_11h06.49.526,Main,2022.1.1,60.00913339000659,
negative,blue,1,None,k,,,,,0,16,16,16,,,,,,,,,,,,,,,,,,,,,,,,,,,,,,,,,,,,,,,,,prac,k,k,1,1.3698829999998452,163.41966690000027,None,None,0,,,,,,,,,,,,,,207,22,Male,2022-05-03_11h06.49.526,Main,2022.1.1,60.00913339000659,
positive,blue,2,k,None,,,,,0,17,17,17,,,,,,,,,,,,,,,,,,,,,,,,,,,,,,,,,,,,,,,,,prac,None,None,1,1.5078063000000839,165.7933105000002,None,None,1,,,,,,,,,,,,,,207,22,Male,2022-05-03_11h06.49.526,Main,2022.1.1,60.00913339000659,
positive,blue,1,k,None,,,,,0,18,18,18,,,,,,,,,,,,,,,,,,,,,,,,,,,,,,,,,,,,,,,,,prac,None,None,1,1.499759499999982,168.3023750000002,None,None,1,,,,,,,,,,,,,,207,22,Male,2022-05-03_11h06.49.526,Main,2022.1.1,60.00913339000659,
positive,yellow,1,None,k,,,,,0,19,19,19,,,,,,,,,,,,,,,,,,,,,,,,,,,,,,,,,,,,,,,,,prac,k,k,1,0.9831443999996736,170.80368690000023,None,None,0,,,,,,,,,,,,,,207,22,Male,2022-05-03_11h06.49.526,Main,2022.1.1,60.00913339000659,
negative,yellow,1,k,None,,,,,1,0,20,0,,,,,,,,,,,,,,,,,,,,,,,,,,,,,,,,,,,,,,,,,prac,None,None,1,1.5125750000001972,172.79099760000008,None,None,1,,,,,,,,,,,,,,207,22,Male,2022-05-03_11h06.49.526,Main,2022.1.1,60.00913339000659,
positive,red,2,None,None,,,,,1,1,21,1,,,,,,,,,,,,,,,,,,,,,,,,,,,,,,,,,,,,,,,,,prac,None,None,1,1.5115883999997095,175.30277710000018,None,None,1,,,,,,,,,,,,,,207,22,Male,2022-05-03_11h06.49.526,Main,2022.1.1,60.00913339000659,
negative,blue,2,None,k,,,,,1,2,22,2,,,,,,,,,,,,,,,,,,,,,,,,,,,,,,,,,,,,,,,,,prac,k,k,1,1.0186149999999543,177.81759850000026,None,None,0,,,,,,,,,,,,,,207,22,Male,2022-05-03_11h06.49.526,Main,2022.1.1,60.00913339000659,
positive,yellow,1,None,k,,,,,1,3,23,3,,,,,,,,,,,,,,,,,,,,,,,,,,,,,,,,,,,,,,,,,prac,k,k,1,0.9910924999999224,179.83987260000004,None,None,0,,,,,,,,,,,,,,207,22,Male,2022-05-03_11h06.49.526,Main,2022.1.1,60.00913339000659,
negative,blue,2,None,k,,,,,1,4,24,4,,,,,,,,,,,,,,,,,,,,,,,,,,,,,,,,,,,,,,,,,prac,k,k,1,0.7697696999998698,181.8322048,None,None,0,,,,,,,,,,,,,,207,22,Male,2022-05-03_11h06.49.526,Main,2022.1.1,60.00913339000659,
negative,blue,1,None,k,,,,,1,5,25,5,,,,,,,,,,,,,,,,,,,,,,,,,,,,,,,,,,,,,,,,,prac,k,k,1,3.3489088000001175,183.60512289999997,None,None,0,,,,,,,,,,,,,,207,22,Male,2022-05-03_11h06.49.526,Main,2022.1.1,60.00913339000659,
negative,yellow,2,k,None,,,,,1,6,26,6,,,,,,,,,,,,,,,,,,,,,,,,,,,,,,,,,,,,,,,,,prac,None,None,1,1.5022867000002407,188.9691828,None,None,1,,,,,,,,,,,,,,207,22,Male,2022-05-03_11h06.49.526,Main,2022.1.1,60.00913339000659,
negative,red,1,None,None,,,,,1,7,27,7,,,,,,,,,,,,,,,,,,,,,,,,,,,,,,,,,,,,,,,,,prac,None,None,1,1.502923600000031,191.4746454000001,None,None,1,,,,,,,,,,,,,,207,22,Male,2022-05-03_11h06.49.526,Main,2022.1.1,60.00913339000659,
positive,yellow,2,None,k,,,,,1,8,28,8,,,,,,,,,,,,,,,,,,,,,,,,,,,,,,,,,,,,,,,,,prac,k,k,1,1.2807152000000315,193.9782210000003,None,None,0,,,,,,,,,,,,,,207,22,Male,2022-05-03_11h06.49.526,Main,2022.1.1,60.00913339000659,
negative,yellow,1,k,None,,,,,1,9,29,9,,,,,,,,,,,,,,,,,,,,,,,,,,,,,,,,,,,,,,,,,prac,None,None,1,1.51055340000039,196.26053000000002,None,None,1,,,,,,,,,,,,,,207,22,Male,2022-05-03_11h06.49.526,Main,2022.1.1,60.00913339000659,
positive,yellow,2,None,k,,,,,1,10,30,10,,,,,,,,,,,,,,,,,,,,,,,,,,,,,,,,,,,,,,,,,prac,k,k,1,0.7733290999999554,198.7733360000002,None,None,0,,,,,,,,,,,,,,207,22,Male,2022-05-03_11h06.49.526,Main,2022.1.1,60.00913339000659,
negative,yellow,2,k,None,,,,,1,11,31,11,,,,,,,,,,,,,,,,,,,,,,,,,,,,,,,,,,,,,,,,,prac,None,None,1,1.5000306000001729,200.55026350000026,None,None,1,,,,,,,,,,,,,,207,22,Male,2022-05-03_11h06.49.526,Main,2022.1.1,60.00913339000659,
negative,red,2,None,None,,,,,1,12,32,12,,,,,,,,,,,,,,,,,,,,,,,,,,,,,,,,,,,,,,,,,prac,None,None,1,1.5049262000002273,203.0505462000001,None,None,1,,,,,,,,,,,,,,207,22,Male,2022-05-03_11h06.49.526,Main,2022.1.1,60.00913339000659,
positive,red,1,None,None,,,,,1,13,33,13,,,,,,,,,,,,,,,,,,,,,,,,,,,,,,,,,,,,,,,,,prac,None,None,1,1.5073569999999563,205.55839000000014,None,None,1,,,,,,,,,,,,,,207,22,Male,2022-05-03_11h06.49.526,Main,2022.1.1,60.00913339000659,
positive,blue,2,k,None,,,,,1,14,34,14,,,,,,,,,,,,,,,,,,,,,,,,,,,,,,,,,,,,,,,,,prac,None,None,1,1.5041658999998617,208.0661485999999,None,None,1,,,,,,,,,,,,,,207,22,Male,2022-05-03_11h06.49.526,Main,2022.1.1,60.00913339000659,
positive,blue,1,k,None,,,,,1,15,35,15,,,,,,,,,,,,,,,,,,,,,,,,,,,,,,,,,,,,,,,,,prac,None,None,1,1.5009460000001127,210.57416760000024,None,None,1,,,,,,,,,,,,,,207,22,Male,2022-05-03_11h06.49.526,Main,2022.1.1,60.00913339000659,
negative,blue,1,None,k,,,,,1,16,36,16,,,,,,,,,,,,,,,,,,,,,,,,,,,,,,,,,,,,,,,,,prac,k,k,1,0.854440600000089,213.07590930000015,None,None,0,,,,,,,,,,,,,,207,22,Male,2022-05-03_11h06.49.526,Main,2022.1.1,60.00913339000659,
positive,blue,2,k,None,,,,,1,17,37,17,,,,,,,,,,,,,,,,,,,,,,,,,,,,,,,,,,,,,,,,,prac,None,None,1,1.5051002000000153,214.92954700000018,None,None,1,,,,,,,,,,,,,,207,22,Male,2022-05-03_11h06.49.526,Main,2022.1.1,60.00913339000659,
positive,blue,1,k,None,,,,,1,18,38,18,,,,,,,,,,,,,,,,,,,,,,,,,,,,,,,,,,,,,,,,,prac,None,k,0,0.8496319000000767,217.43940169999996,None,None,1,,,,,,,,,,,,,,207,22,Male,2022-05-03_11h06.49.526,Main,2022.1.1,60.00913339000659,
positive,yellow,1,None,k,,,,,1,19,39,19,,,,,,,,,,,,,,,,,,,,,,,,,,,,,,,,,,,,,,,,,prac,k,k,1,0.7598620999997365,220.29902489999995,None,None,0,,,,,,,,,,,,,,207,22,Male,2022-05-03_11h06.49.526,Main,2022.1.1,60.00913339000659,
,,,,,,,,,,,,,,,,,,,,,,,,,,,,,,,,,,,,,,,,,,,,,,,,,,,,,,,,,,,,,,222.0748461000003,None,222.0748461000003,None,-0.023148147,-0.06851852,0,0,0,0.011092380000263802,None,,,207,22,Male,2022-05-03_11h06.49.526,Main,2022.1.1,60.00913339000659,
negative,yellow,2,k,None,,,,,,,,,0,0,0,0,,,,,,,,,,,,,,,,,,,,,,,,,,,,,,,,,236.11312720000024,None,236.11312720000024,None,main,None,None,1,1.4959749999998166,238.18511239999998,None,None,1,,,,,,,,,,,,,,207,22,Male,2022-05-03_11h06.49.526,Main,2022.1.1,60.00913339000659,
positive,red,1,None,None,,,,,,,,,0,1,1,1,,,,,,,,,,,,,,,,,,,,,,,,,,,,,,,,,,,,,main,None,None,1,1.5112925000003088,240.68504380000013,None,None,1,,,,,,,,,,,,,,207,22,Male,2022-05-03_11h06.49.526,Main,2022.1.1,60.00913339000659,
positive,blue,2,k,None,,,,,,,,,0,2,2,2,,,,,,,,,,,,,,,,,,,,,,,,,,,,,,,,,,,,,main,None,None,1,1.4969019000000117,243.19607570000016,None,None,1,,,,,,,,,,,,,,207,22,Male,2022-05-03_11h06.49.526,Main,2022.1.1,60.00913339000659,
positive,blue,1,k,None,,,,,,,,,0,3,3,3,,,,,,,,,,,,,,,,,,,,,,,,,,,,,,,,,,,,,main,None,None,1,1.4982460000001083,245.6942111000003,None,None,1,,,,,,,,,,,,,,207,22,Male,2022-05-03_11h06.49.526,Main,2022.1.1,60.00913339000659,
negative,yellow,2,k,None,,,,,,,,,0,4,4,4,,,,,,,,,,,,,,,,,,,,,,,,,,,,,,,,,,,,,main,None,None,1,1.5094214000000648,248.19408310000017,None,None,1,,,,,,,,,,,,,,207,22,Male,2022-05-03_11h06.49.526,Main,2022.1.1,60.00913339000659,
positive,yellow,2,None,k,,,,,,,,,0,5,5,5,,,,,,,,,,,,,,,,,,,,,,,,,,,,,,,,,,,,,main,k,k,1,0.8281258999995771,250.70651380000027,None,None,0,,,,,,,,,,,,,,207,22,Male,2022-05-03_11h06.49.526,Main,2022.1.1,60.00913339000659,
negative,blue,2,None,k,,,,,,,,,0,6,6,6,,,,,,,,,,,,,,,,,,,,,,,,,,,,,,,,,,,,,main,k,k,1,0.984938499999771,252.53565210000033,None,None,0,,,,,,,,,,,,,,207,22,Male,2022-05-03_11h06.49.526,Main,2022.1.1,60.00913339000659,
positive,red,2,None,None,,,,,,,,,0,7,7,7,,,,,,,,,,,,,,,,,,,,,,,,,,,,,,,,,,,,,main,None,None,1,1.49819910000042,254.52283220000027,None,None,1,,,,,,,,,,,,,,207,22,Male,2022-05-03_11h06.49.526,Main,2022.1.1,60.00913339000659,
positive,yellow,1,None,k,,,,,,,,,0,8,8,8,,,,,,,,,,,,,,,,,,,,,,,,,,,,,,,,,,,,,main,k,k,1,0.9140050999999403,257.0227463000001,None,None,0,,,,,,,,,,,,,,207,22,Male,2022-05-03_11h06.49.526,Main,2022.1.1,60.00913339000659,
negative,red,1,None,None,,,,,,,,,0,9,9,9,,,,,,,,,,,,,,,,,,,,,,,,,,,,,,,,,,,,,main,None,None,1,1.4941957999999431,258.93795230000023,None,None,1,,,,,,,,,,,,,,207,22,Male,2022-05-03_11h06.49.526,Main,2022.1.1,60.00913339000659,
positive,yellow,1,None,k,,,,,,,,,0,10,10,10,,,,,,,,,,,,,,,,,,,,,,,,,,,,,,,,,,,,,main,k,k,1,0.8248078999999962,261.43449009999995,None,None,0,,,,,,,,,,,,,,207,22,Male,2022-05-03_11h06.49.526,Main,2022.1.1,60.00913339000659,
negative,yellow,1,k,None,,,,,,,,,0,11,11,11,,,,,,,,,,,,,,,,,,,,,,,,,,,,,,,,,,,,,main,None,None,1,1.499011800000062,263.26095320000013,None,None,1,,,,,,,,,,,,,,207,22,Male,2022-05-03_11h06.49.526,Main,2022.1.1,60.00913339000659,
negative,yellow,1,k,None,,,,,,,,,0,12,12,12,,,,,,,,,,,,,,,,,,,,,,,,,,,,,,,,,,,,,main,None,None,1,1.499078400000144,265.7594326000003,None,None,1,,,,,,,,,,,,,,207,22,Male,2022-05-03_11h06.49.526,Main,2022.1.1,60.00913339000659,
negative,red,2,None,None,,,,,,,,,0,13,13,13,,,,,,,,,,,,,,,,,,,,,,,,,,,,,,,,,,,,,main,None,None,1,1.500272799999948,268.26198190000014,None,None,1,,,,,,,,,,,,,,207,22,Male,2022-05-03_11h06.49.526,Main,2022.1.1,60.00913339000659,
positive,yellow,2,None,k,,,,,,,,,0,14,14,14,,,,,,,,,,,,,,,,,,,,,,,,,,,,,,,,,,,,,main,k,k,1,0.8048162000000048,270.76426420000007,None,None,0,,,,,,,,,,,,,,207,22,Male,2022-05-03_11h06.49.526,Main,2022.1.1,60.00913339000659,
positive,blue,1,k,None,,,,,,,,,0,15,15,15,,,,,,,,,,,,,,,,,,,,,,,,,,,,,,,,,,,,,main,None,None,1,1.508228500000314,272.56947519999994,None,None,1,,,,,,,,,,,,,,207,22,Male,2022-05-03_11h06.49.526,Main,2022.1.1,60.00913339000659,
negative,blue,1,None,k,,,,,,,,,0,16,16,16,,,,,,,,,,,,,,,,,,,,,,,,,,,,,,,,,,,,,main,k,k,1,0.9712095999998382,275.0799148000001,None,None,0,,,,,,,,,,,,,,207,22,Male,2022-05-03_11h06.49.526,Main,2022.1.1,60.00913339000659,
positive,blue,2,k,None,,,,,,,,,0,17,17,17,,,,,,,,,,,,,,,,,,,,,,,,,,,,,,,,,,,,,main,None,None,1,1.5005519000001186,277.0516838000003,None,None,1,,,,,,,,,,,,,,207,22,Male,2022-05-03_11h06.49.526,Main,2022.1.1,60.00913339000659,
negative,blue,2,None,k,,,,,,,,,0,18,18,18,,,,,,,,,,,,,,,,,,,,,,,,,,,,,,,,,,,,,main,k,k,1,0.8251213999997162,279.55397519999997,None,None,0,,,,,,,,,,,,,,207,22,Male,2022-05-03_11h06.49.526,Main,2022.1.1,60.00913339000659,
negative,blue,1,None,k,,,,,,,,,0,19,19,19,,,,,,,,,,,,,,,,,,,,,,,,,,,,,,,,,,,,,main,k,k,1,1.5185194999999112,281.38369550000016,None,None,0,,,,,,,,,,,,,,207,22,Male,2022-05-03_11h06.49.526,Main,2022.1.1,60.00913339000659,
negative,blue,1,None,k,,,,,,,,,0,20,20,20,,,,,,,,,,,,,,,,,,,,,,,,,,,,,,,,,,,,,main,k,k,1,1.2037101000000803,284.9071245,None,None,0,,,,,,,,,,,,,,207,22,Male,2022-05-03_11h06.49.526,Main,2022.1.1,60.00913339000659,
negative,blue,2,None,k,,,,,,,,,0,21,21,21,,,,,,,,,,,,,,,,,,,,,,,,,,,,,,,,,,,,,main,k,k,1,0.8317336999998588,287.11374650000016,None,None,0,,,,,,,,,,,,,,207,22,Male,2022-05-03_11h06.49.526,Main,2022.1.1,60.00913339000659,
negative,red,1,None,None,,,,,,,,,0,22,22,22,,,,,,,,,,,,,,,,,,,,,,,,,,,,,,,,,,,,,main,None,None,1,1.4988290999999663,288.9470811000001,None,None,1,,,,,,,,,,,,,,207,22,Male,2022-05-03_11h06.49.526,Main,2022.1.1,60.00913339000659,
positive,red,2,None,None,,,,,,,,,0,23,23,23,,,,,,,,,,,,,,,,,,,,,,,,,,,,,,,,,,,,,main,None,None,1,1.4953684000001886,291.44740619999993,None,None,1,,,,,,,,,,,,,,207,22,Male,2022-05-03_11h06.49.526,Main,2022.1.1,60.00913339000659,
negative,red,2,None,None,,,,,,,,,0,24,24,24,,,,,,,,,,,,,,,,,,,,,,,,,,,,,,,,,,,,,main,None,None,1,1.496359400000074,293.94474549999995,None,None,1,,,,,,,,,,,,,,207,22,Male,2022-05-03_11h06.49.526,Main,2022.1.1,60.00913339000659,
positive,blue,2,k,None,,,,,,,,,0,25,25,25,,,,,,,,,,,,,,,,,,,,,,,,,,,,,,,,,,,,,main,None,None,1,1.5025368000001436,296.4429567000002,None,None,1,,,,,,,,,,,,,,207,22,Male,2022-05-03_11h06.49.526,Main,2022.1.1,60.00913339000659,
negative,yellow,1,k,None,,,,,,,,,0,26,26,26,,,,,,,,,,,,,,,,,,,,,,,,,,,,,,,,,,,,,main,None,k,0,0.8459578000001784,298.94669810000005,None,None,1,,,,,,,,,,,,,,207,22,Male,2022-05-03_11h06.49.526,Main,2022.1.1,60.00913339000659,
positive,blue,2,k,None,,,,,,,,,0,27,27,27,,,,,,,,,,,,,,,,,,,,,,,,,,,,,,,,,,,,,main,None,None,1,1.4906840999997257,301.80539510000017,None,None,1,,,,,,,,,,,,,,207,22,Male,2022-05-03_11h06.49.526,Main,2022.1.1,60.00913339000659,
negative,blue,2,None,k,,,,,,,,,0,28,28,28,,,,,,,,,,,,,,,,,,,,,,,,,,,,,,,,,,,,,main,k,k,1,0.7418194000001677,304.29771690000007,None,None,0,,,,,,,,,,,,,,207,22,Male,2022-05-03_11h06.49.526,Main,2022.1.1,60.00913339000659,
positive,red,1,None,None,,,,,,,,,0,29,29,29,,,,,,,,,,,,,,,,,,,,,,,,,,,,,,,,,,,,,main,None,None,1,1.5025720999997247,306.0438371,None,None,1,,,,,,,,,,,,,,207,22,Male,2022-05-03_11h06.49.526,Main,2022.1.1,60.00913339000659,
positive,blue,1,k,None,,,,,,,,,0,30,30,30,,,,,,,,,,,,,,,,,,,,,,,,,,,,,,,,,,,,,main,None,None,1,1.5097442999999657,308.5471875000003,None,None,1,,,,,,,,,,,,,,207,22,Male,2022-05-03_11h06.49.526,Main,2022.1.1,60.00913339000659,
positive,yellow,1,None,k,,,,,,,,,0,31,31,31,,,,,,,,,,,,,,,,,,,,,,,,,,,,,,,,,,,,,main,k,k,1,0.7895797000001039,311.05874900000026,None,None,0,,,,,,,,,,,,,,207,22,Male,2022-05-03_11h06.49.526,Main,2022.1.1,60.00913339000659,
negative,yellow,2,k,None,,,,,,,,,0,32,32,32,,,,,,,,,,,,,,,,,,,,,,,,,,,,,,,,,,,,,main,None,None,1,1.5102508999998463,312.8494599999999,None,None,1,,,,,,,,,,,,,,207,22,Male,2022-05-03_11h06.49.526,Main,2022.1.1,60.00913339000659,
negative,blue,1,None,k,,,,,,,,,0,33,33,33,,,,,,,,,,,,,,,,,,,,,,,,,,,,,,,,,,,,,main,k,k,1,0.9284210999999232,315.36302720000003,None,None,0,,,,,,,,,,,,,,207,22,Male,2022-05-03_11h06.49.526,Main,2022.1.1,60.00913339000659,
positive,blue,1,k,None,,,,,,,,,0,34,34,34,,,,,,,,,,,,,,,,,,,,,,,,,,,,,,,,,,,,,main,None,None,1,1.5123310000003585,317.29368350000004,None,None,1,,,,,,,,,,,,,,207,22,Male,2022-05-03_11h06.49.526,Main,2022.1.1,60.00913339000659,
negative,yellow,1,k,None,,,,,,,,,0,35,35,35,,,,,,,,,,,,,,,,,,,,,,,,,,,,,,,,,,,,,main,None,None,1,1.5102030000002742,319.8071150999999,None,None,1,,,,,,,,,,,,,,207,22,Male,2022-05-03_11h06.49.526,Main,2022.1.1,60.00913339000659,
positive,yellow,2,None,k,,,,,,,,,0,36,36,36,,,,,,,,,,,,,,,,,,,,,,,,,,,,,,,,,,,,,main,k,k,1,0.9254722000000584,322.3163328999999,None,None,0,,,,,,,,,,,,,,207,22,Male,2022-05-03_11h06.49.526,Main,2022.1.1,60.00913339000659,
positive,yellow,2,None,k,,,,,,,,,0,37,37,37,,,,,,,,,,,,,,,,,,,,,,,,,,,,,,,,,,,,,main,k,k,1,0.6735289000002922,324.24526960000003,None,None,0,,,,,,,,,,,,,,207,22,Male,2022-05-03_11h06.49.526,Main,2022.1.1,60.00913339000659,
negative,yellow,2,k,None,,,,,,,,,0,38,38,38,,,,,,,,,,,,,,,,,,,,,,,,,,,,,,,,,,,,,main,None,None,1,1.496992500000033,325.91832350000004,None,None,1,,,,,,,,,,,,,,207,22,Male,2022-05-03_11h06.49.526,Main,2022.1.1,60.00913339000659,
positive,yellow,1,None,k,,,,,,,,,0,39,39,39,,,,,,,,,,,,,,,,,,,,,,,,,,,,,,,,,,,,,main,k,k,1,0.7701738999999179,328.4191787,None,None,0,,,,,,,,,,,,,,207,22,Male,2022-05-03_11h06.49.526,Main,2022.1.1,60.00913339000659,
negative,yellow,2,k,None,,,,,,,,,0,40,40,40,,,,,,,,,,,,,,,,,,,,,,,,,,,,,,,,,,,,,main,None,None,1,1.5010355999997955,330.19145290000006,None,None,1,,,,,,,,,,,,,,207,22,Male,2022-05-03_11h06.49.526,Main,2022.1.1,60.00913339000659,
positive,blue,2,k,None,,,,,,,,,0,41,41,41,,,,,,,,,,,,,,,,,,,,,,,,,,,,,,,,,,,,,main,None,None,1,1.500801600000159,332.69369860000006,None,None,1,,,,,,,,,,,,,,207,22,Male,2022-05-03_11h06.49.526,Main,2022.1.1,60.00913339000659,
positive,blue,2,k,None,,,,,,,,,0,42,42,42,,,,,,,,,,,,,,,,,,,,,,,,,,,,,,,,,,,,,main,None,None,1,1.511730499999885,335.1960448,None,None,1,,,,,,,,,,,,,,207,22,Male,2022-05-03_11h06.49.526,Main,2022.1.1,60.00913339000659,
negative,blue,2,None,k,,,,,,,,,0,43,43,43,,,,,,,,,,,,,,,,,,,,,,,,,,,,,,,,,,,,,main,k,k,1,0.8737840999997388,337.70915730000024,None,None,0,,,,,,,,,,,,,,207,22,Male,2022-05-03_11h06.49.526,Main,2022.1.1,60.00913339000659,
negative,red,1,None,None,,,,,,,,,0,44,44,44,,,,,,,,,,,,,,,,,,,,,,,,,,,,,,,,,,,,,main,None,k,0,0.9154353999997511,339.58473730000014,None,None,1,,,,,,,,,,,,,,207,22,Male,2022-05-03_11h06.49.526,Main,2022.1.1,60.00913339000659,
negative,yellow,1,k,None,,,,,,,,,0,45,45,45,,,,,,,,,,,,,,,,,,,,,,,,,,,,,,,,,,,,,main,None,k,0,1.4950372000002972,342.5165943000002,None,None,1,,,,,,,,,,,,,,207,22,Male,2022-05-03_11h06.49.526,Main,2022.1.1,60.00913339000659,
negative,yellow,1,k,None,,,,,,,,,0,46,46,46,,,,,,,,,,,,,,,,,,,,,,,,,,,,,,,,,,,,,main,None,None,1,1.5041776000002756,346.0160707,None,None,1,,,,,,,,,,,,,,207,22,Male,2022-05-03_11h06.49.526,Main,2022.1.1,60.00913339000659,
positive,red,1,None,None,,,,,,,,,0,47,47,47,,,,,,,,,,,,,,,,,,,,,,,,,,,,,,,,,,,,,main,None,None,1,1.5075512999997045,348.52311469999995,None,None,1,,,,,,,,,,,,,,207,22,Male,2022-05-03_11h06.49.526,Main,2022.1.1,60.00913339000659,
positive,yellow,1,None,k,,,,,,,,,0,48,48,48,,,,,,,,,,,,,,,,,,,,,,,,,,,,,,,,,,,,,main,k,k,1,1.0820780000003651,351.0296383,None,None,0,,,,,,,,,,,,,,207,22,Male,2022-05-03_11h06.49.526,Main,2022.1.1,60.00913339000659,
negative,blue,1,None,k,,,,,,,,,0,49,49,49,,,,,,,,,,,,,,,,,,,,,,,,,,,,,,,,,,,,,main,k,k,1,0.9174828000000161,353.1135039999999,None,None,0,,,,,,,,,,,,,,207,22,Male,2022-05-03_11h06.49.526,Main,2022.1.1,60.00913339000659,
positive,yellow,2,None,k,,,,,,,,,0,50,50,50,,,,,,,,,,,,,,,,,,,,,,,,,,,,,,,,,,,,,main,k,k,1,0.8009740000002239,355.03491520000034,None,None,0,,,,,,,,,,,,,,207,22,Male,2022-05-03_11h06.49.526,Main,2022.1.1,60.00913339000659,
negative,blue,1,None,k,,,,,,,,,0,51,51,51,,,,,,,,,,,,,,,,,,,,,,,,,,,,,,,,,,,,,main,k,k,1,0.8615059999997356,356.83633770000006,None,None,0,,,,,,,,,,,,,,207,22,Male,2022-05-03_11h06.49.526,Main,2022.1.1,60.00913339000659,
positive,red,2,None,None,,,,,,,,,0,52,52,52,,,,,,,,,,,,,,,,,,,,,,,,,,,,,,,,,,,,,main,None,None,1,1.5028717000000142,358.7005061,None,None,1,,,,,,,,,,,,,,207,22,Male,2022-05-03_11h06.49.526,Main,2022.1.1,60.00913339000659,
positive,yellow,2,None,k,,,,,,,,,0,53,53,53,,,,,,,,,,,,,,,,,,,,,,,,,,,,,,,,,,,,,main,k,k,1,1.1170109999998203,361.2050941000002,None,None,0,,,,,,,,,,,,,,207,22,Male,2022-05-03_11h06.49.526,Main,2022.1.1,60.00913339000659,
negative,red,2,None,None,,,,,,,,,0,54,54,54,,,,,,,,,,,,,,,,,,,,,,,,,,,,,,,,,,,,,main,None,None,1,1.5024946000003183,363.32283320000033,None,None,1,,,,,,,,,,,,,,207,22,Male,2022-05-03_11h06.49.526,Main,2022.1.1,60.00913339000659,
positive,yellow,1,None,k,,,,,,,,,0,55,55,55,,,,,,,,,,,,,,,,,,,,,,,,,,,,,,,,,,,,,main,k,k,1,0.8226236999998946,365.82684659999995,None,None,0,,,,,,,,,,,,,,207,22,Male,2022-05-03_11h06.49.526,Main,2022.1.1,60.00913339000659,
negative,blue,2,None,k,,,,,,,,,0,56,56,56,,,,,,,,,,,,,,,,,,,,,,,,,,,,,,,,,,,,,main,k,k,1,0.99603100000013,367.6540779000002,None,None,0,,,,,,,,,,,,,,207,22,Male,2022-05-03_11h06.49.526,Main,2022.1.1,60.00913339000659,
positive,blue,1,k,None,,,,,,,,,0,57,57,57,,,,,,,,,,,,,,,,,,,,,,,,,,,,,,,,,,,,,main,None,None,1,1.5025267999999414,369.6510896,None,None,1,,,,,,,,,,,,,,207,22,Male,2022-05-03_11h06.49.526,Main,2022.1.1,60.00913339000659,
positive,blue,1,k,None,,,,,,,,,0,58,58,58,,,,,,,,,,,,,,,,,,,,,,,,,,,,,,,,,,,,,main,None,None,1,1.5028072000000066,372.15510540000014,None,None,1,,,,,,,,,,,,,,207,22,Male,2022-05-03_11h06.49.526,Main,2022.1.1,60.00913339000659,
negative,yellow,2,k,None,,,,,,,,,0,59,59,59,,,,,,,,,,,,,,,,,,,,,,,,,,,,,,,,,,,,,main,None,None,1,1.505071499999758,374.65966400000025,None,None,1,,,,,,,,,,,,,,207,22,Male,2022-05-03_11h06.49.526,Main,2022.1.1,60.00913339000659,
positive,red,2,None,None,,,,,,,,,0,60,60,60,,,,,,,,,,,,,,,,,,,,,,,,,,,,,,,,,,,,,main,None,None,1,1.5074006999998346,377.1682642999999,None,None,1,,,,,,,,,,,,,,207,22,Male,2022-05-03_11h06.49.526,Main,2022.1.1,60.00913339000659,
negative,yellow,1,k,None,,,,,,,,,0,61,61,61,,,,,,,,,,,,,,,,,,,,,,,,,,,,,,,,,,,,,main,None,None,1,1.5053213000001051,379.6770568000002,None,None,1,,,,,,,,,,,,,,207,22,Male,2022-05-03_11h06.49.526,Main,2022.1.1,60.00913339000659,
negative,red,1,None,None,,,,,,,,,0,62,62,62,,,,,,,,,,,,,,,,,,,,,,,,,,,,,,,,,,,,,main,None,None,1,1.5082692000000861,382.18525679999993,None,None,1,,,,,,,,,,,,,,207,22,Male,2022-05-03_11h06.49.526,Main,2022.1.1,60.00913339000659,
negative,blue,1,None,k,,,,,,,,,0,63,63,63,,,,,,,,,,,,,,,,,,,,,,,,,,,,,,,,,,,,,main,k,k,1,0.7715178999997079,384.69374659999994,None,None,0,,,,,,,,,,,,,,207,22,Male,2022-05-03_11h06.49.526,Main,2022.1.1,60.00913339000659,
positive,blue,2,k,None,,,,,,,,,0,64,64,64,,,,,,,,,,,,,,,,,,,,,,,,,,,,,,,,,,,,,main,None,None,1,1.4969952000001285,386.4685536000002,None,None,1,,,,,,,,,,,,,,207,22,Male,2022-05-03_11h06.49.526,Main,2022.1.1,60.00913339000659,
negative,yellow,2,k,None,,,,,,,,,0,65,65,65,,,,,,,,,,,,,,,,,,,,,,,,,,,,,,,,,,,,,main,None,None,1,1.4955418999998074,388.96752689999994,None,None,1,,,,,,,,,,,,,,207,22,Male,2022-05-03_11h06.49.526,Main,2022.1.1,60.00913339000659,
positive,yellow,2,None,k,,,,,,,,,0,66,66,66,,,,,,,,,,,,,,,,,,,,,,,,,,,,,,,,,,,,,main,k,k,1,0.9555393000000549,391.4652023000003,None,None,0,,,,,,,,,,,,,,207,22,Male,2022-05-03_11h06.49.526,Main,2022.1.1,60.00913339000659,
positive,yellow,2,None,k,,,,,,,,,0,67,67,67,,,,,,,,,,,,,,,,,,,,,,,,,,,,,,,,,,,,,main,k,k,1,0.9189934999999423,393.4219226,None,None,0,,,,,,,,,,,,,,207,22,Male,2022-05-03_11h06.49.526,Main,2022.1.1,60.00913339000659,
positive,red,1,None,None,,,,,,,,,0,68,68,68,,,,,,,,,,,,,,,,,,,,,,,,,,,,,,,,,,,,,main,None,None,1,1.504962599999999,395.34046050000006,None,None,1,,,,,,,,,,,,,,207,22,Male,2022-05-03_11h06.49.526,Main,2022.1.1,60.00913339000659,
positive,yellow,1,None,k,,,,,,,,,0,69,69,69,,,,,,,,,,,,,,,,,,,,,,,,,,,,,,,,,,,,,main,k,k,1,1.2605404000000817,397.84969420000016,None,None,0,,,,,,,,,,,,,,207,22,Male,2022-05-03_11h06.49.526,Main,2022.1.1,60.00913339000659,
negative,yellow,2,k,None,,,,,,,,,0,70,70,70,,,,,,,,,,,,,,,,,,,,,,,,,,,,,,,,,,,,,main,None,None,1,1.498213400000168,400.1087709000003,None,None,1,,,,,,,,,,,,,,207,22,Male,2022-05-03_11h06.49.526,Main,2022.1.1,60.00913339000659,
positive,yellow,1,None,k,,,,,,,,,0,71,71,71,,,,,,,,,,,,,,,,,,,,,,,,,,,,,,,,,,,,,main,k,k,1,1.5119274000003315,402.6112581000002,None,None,0,,,,,,,,,,,,,,207,22,Male,2022-05-03_11h06.49.526,Main,2022.1.1,60.00913339000659,
negative,blue,1,None,k,,,,,,,,,0,72,72,72,,,,,,,,,,,,,,,,,,,,,,,,,,,,,,,,,,,,,main,k,k,1,0.8935867000000144,406.1247983000003,None,None,0,,,,,,,,,,,,,,207,22,Male,2022-05-03_11h06.49.526,Main,2022.1.1,60.00913339000659,
negative,red,2,None,None,,,,,,,,,0,73,73,73,,,,,,,,,,,,,,,,,,,,,,,,,,,,,,,,,,,,,main,None,None,1,1.501737999999932,408.02338009999994,None,None,1,,,,,,,,,,,,,,207,22,Male,2022-05-03_11h06.49.526,Main,2022.1.1,60.00913339000659,
positive,blue,2,k,None,,,,,,,,,0,74,74,74,,,,,,,,,,,,,,,,,,,,,,,,,,,,,,,,,,,,,main,None,None,1,1.5046323000001394,410.5243338,None,None,1,,,,,,,,,,,,,,207,22,Male,2022-05-03_11h06.49.526,Main,2022.1.1,60.00913339000659,
negative,blue,2,None,k,,,,,,,,,0,75,75,75,,,,,,,,,,,,,,,,,,,,,,,,,,,,,,,,,,,,,main,k,k,1,1.4702401999998074,413.0325092000003,None,None,0,,,,,,,,,,,,,,207,22,Male,2022-05-03_11h06.49.526,Main,2022.1.1,60.00913339000659,
negative,blue,2,None,k,,,,,,,,,0,76,76,76,,,,,,,,,,,,,,,,,,,,,,,,,,,,,,,,,,,,,main,k,k,1,0.7828309000001354,415.50366570000006,None,None,0,,,,,,,,,,,,,,207,22,Male,2022-05-03_11h06.49.526,Main,2022.1.1,60.00913339000659,
negative,yellow,1,k,None,,,,,,,,,0,77,77,77,,,,,,,,,,,,,,,,,,,,,,,,,,,,,,,,,,,,,main,None,None,1,1.4991743000000497,417.2885523,None,None,1,,,,,,,,,,,,,,207,22,Male,2022-05-03_11h06.49.526,Main,2022.1.1,60.00913339000659,
positive,blue,1,k,None,,,,,,,,,0,78,78,78,,,,,,,,,,,,,,,,,,,,,,,,,,,,,,,,,,,,,main,None,None,1,1.5102302999998756,419.7916952999999,None,None,1,,,,,,,,,,,,,,207,22,Male,2022-05-03_11h06.49.526,Main,2022.1.1,60.00913339000659,
positive,blue,1,k,None,,,,,,,,,0,79,79,79,,,,,,,,,,,,,,,,,,,,,,,,,,,,,,,,,,,,,main,None,None,1,1.500384600000416,422.30327000000034,None,None,1,,,,,,,,,,,,,,207,22,Male,2022-05-03_11h06.49.526,Main,2022.1.1,60.00913339000659,
positive,red,2,None,None,,,,,,,,,0,80,80,80,,,,,,,,,,,,,,,,,,,,,,,,,,,,,,,,,,,,,main,None,None,1,1.5126897999998619,424.80584290000024,None,None,1,,,,,,,,,,,,,,207,22,Male,2022-05-03_11h06.49.526,Main,2022.1.1,60.00913339000659,
positive,yellow,2,None,k,,,,,,,,,0,81,81,81,,,,,,,,,,,,,,,,,,,,,,,,,,,,,,,,,,,,,main,k,k,1,0.848785399999997,427.3205574000003,None,None,0,,,,,,,,,,,,,,207,22,Male,2022-05-03_11h06.49.526,Main,2022.1.1,60.00913339000659,
positive,blue,1,k,None,,,,,,,,,0,82,82,82,,,,,,,,,,,,,,,,,,,,,,,,,,,,,,,,,,,,,main,None,None,1,1.499394299999949,429.1707977000001,None,None,1,,,,,,,,,,,,,,207,22,Male,2022-05-03_11h06.49.526,Main,2022.1.1,60.00913339000659,
negative,yellow,2,k,None,,,,,,,,,0,83,83,83,,,,,,,,,,,,,,,,,,,,,,,,,,,,,,,,,,,,,main,None,None,1,1.5010909000002357,431.67393440000023,None,None,1,,,,,,,,,,,,,,207,22,Male,2022-05-03_11h06.49.526,Main,2022.1.1,60.00913339000659,
positive,blue,2,k,None,,,,,,,,,0,84,84,84,,,,,,,,,,,,,,,,,,,,,,,,,,,,,,,,,,,,,main,None,None,1,1.504894499999864,434.1763952000001,None,None,1,,,,,,,,,,,,,,207,22,Male,2022-05-03_11h06.49.526,Main,2022.1.1,60.00913339000659,
positive,yellow,1,None,k,,,,,,,,,0,85,85,85,,,,,,,,,,,,,,,,,,,,,,,,,,,,,,,,,,,,,main,k,k,1,2.7104677000002084,436.6825441000001,None,None,0,,,,,,,,,,,,,,207,22,Male,2022-05-03_11h06.49.526,Main,2022.1.1,60.00913339000659,
positive,blue,2,k,None,,,,,,,,,0,86,86,86,,,,,,,,,,,,,,,,,,,,,,,,,,,,,,,,,,,,,main,None,None,1,1.499683399999867,441.4036937000001,None,None,1,,,,,,,,,,,,,,207,22,Male,2022-05-03_11h06.49.526,Main,2022.1.1,60.00913339000659,
positive,blue,1,k,None,,,,,,,,,0,87,87,87,,,,,,,,,,,,,,,,,,,,,,,,,,,,,,,,,,,,,main,None,None,1,1.4976842000000943,443.9041729999999,None,None,1,,,,,,,,,,,,,,207,22,Male,2022-05-03_11h06.49.526,Main,2022.1.1,60.00913339000659,
negative,yellow,2,k,None,,,,,,,,,0,88,88,88,,,,,,,,,,,,,,,,,,,,,,,,,,,,,,,,,,,,,main,None,None,1,1.4974459000000024,446.4030147000003,None,None,1,,,,,,,,,,,,,,207,22,Male,2022-05-03_11h06.49.526,Main,2022.1.1,60.00913339000659,
negative,blue,2,None,k,,,,,,,,,0,89,89,89,,,,,,,,,,,,,,,,,,,,,,,,,,,,,,,,,,,,,main,k,k,1,0.8466483000001972,448.9045392000003,None,None,0,,,,,,,,,,,,,,207,22,Male,2022-05-03_11h06.49.526,Main,2022.1.1,60.00913339000659,
positive,yellow,2,None,k,,,,,,,,,0,90,90,90,,,,,,,,,,,,,,,,,,,,,,,,,,,,,,,,,,,,,main,k,k,1,0.8012149999999565,450.75049020000006,None,None,0,,,,,,,,,,,,,,207,22,Male,2022-05-03_11h06.49.526,Main,2022.1.1,60.00913339000659,
negative,yellow,1,k,None,,,,,,,,,0,91,91,91,,,,,,,,,,,,,,,,,,,,,,,,,,,,,,,,,,,,,main,None,None,1,1.5002755999998953,452.5560519999999,None,None,1,,,,,,,,,,,,,,207,22,Male,2022-05-03_11h06.49.526,Main,2022.1.1,60.00913339000659,
negative,red,2,None,None,,,,,,,,,0,92,92,92,,,,,,,,,,,,,,,,,,,,,,,,,,,,,,,,,,,,,main,None,None,1,1.5116469999998117,455.0570785,None,None,1,,,,,,,,,,,,,,207,22,Male,2022-05-03_11h06.49.526,Main,2022.1.1,60.00913339000659,
negative,blue,2,None,k,,,,,,,,,0,93,93,93,,,,,,,,,,,,,,,,,,,,,,,,,,,,,,,,,,,,,main,k,k,1,0.7475714000001972,457.5680754,None,None,0,,,,,,,,,,,,,,207,22,Male,2022-05-03_11h06.49.526,Main,2022.1.1,60.00913339000659,
negative,blue,1,None,k,,,,,,,,,0,94,94,94,,,,,,,,,,,,,,,,,,,,,,,,,,,,,,,,,,,,,main,k,k,1,0.9553281000003153,459.31754920000003,None,None,0,,,,,,,,,,,,,,207,22,Male,2022-05-03_11h06.49.526,Main,2022.1.1,60.00913339000659,
negative,blue,1,None,k,,,,,,,,,0,95,95,95,,,,,,,,,,,,,,,,,,,,,,,,,,,,,,,,,,,,,main,k,k,1,0.7540778999996292,461.27650140000014,None,None,0,,,,,,,,,,,,,,207,22,Male,2022-05-03_11h06.49.526,Main,2022.1.1,60.00913339000659,
negative,red,1,None,None,,,,,,,,,0,96,96,96,,,,,,,,,,,,,,,,,,,,,,,,,,,,,,,,,,,,,main,None,None,1,1.4998956000004,463.03111160000026,None,None,1,,,,,,,,,,,,,,207,22,Male,2022-05-03_11h06.49.526,Main,2022.1.1,60.00913339000659,
positive,yellow,1,None,k,,,,,,,,,0,97,97,97,,,,,,,,,,,,,,,,,,,,,,,,,,,,,,,,,,,,,main,k,k,1,1.3638114000000314,465.5325206000002,None,None,0,,,,,,,,,,,,,,207,22,Male,2022-05-03_11h06.49.526,Main,2022.1.1,60.00913339000659,
negative,yellow,1,k,None,,,,,,,,,0,98,98,98,,,,,,,,,,,,,,,,,,,,,,,,,,,,,,,,,,,,,main,None,None,1,1.499195200000031,467.89785930000016,None,None,1,,,,,,,,,,,,,,207,22,Male,2022-05-03_11h06.49.526,Main,2022.1.1,60.00913339000659,
positive,red,1,None,None,,,,,,,,,0,99,99,99,,,,,,,,,,,,,,,,,,,,,,,,,,,,,,,,,,,,,main,None,None,1,1.510495600000013,470.39927260000013,None,None,1,,,,,,,,,,,,,,207,22,Male,2022-05-03_11h06.49.526,Main,2022.1.1,60.00913339000659,
positive,blue,1,k,None,,,,,,,,,0,100,100,100,,,,,,,,,,,,,,,,,,,,,,,,,,,,,,,,,,,,,main,None,k,0,1.204305100000056,472.9136979,None,None,1,,,,,,,,,,,,,,207,22,Male,2022-05-03_11h06.49.526,Main,2022.1.1,60.00913339000659,
negative,yellow,1,k,None,,,,,,,,,0,101,101,101,,,,,,,,,,,,,,,,,,,,,,,,,,,,,,,,,,,,,main,None,None,1,1.4977559999997538,476.13336630000003,None,None,1,,,,,,,,,,,,,,207,22,Male,2022-05-03_11h06.49.526,Main,2022.1.1,60.00913339000659,
negative,blue,2,None,k,,,,,,,,,0,102,102,102,,,,,,,,,,,,,,,,,,,,,,,,,,,,,,,,,,,,,main,k,k,1,0.783672900000056,478.6313504,None,None,0,,,,,,,,,,,,,,207,22,Male,2022-05-03_11h06.49.526,Main,2022.1.1,60.00913339000659,
negative,yellow,2,k,None,,,,,,,,,0,103,103,103,,,,,,,,,,,,,,,,,,,,,,,,,,,,,,,,,,,,,main,None,None,1,1.502075800000057,480.41854220000005,None,None,1,,,,,,,,,,,,,,207,22,Male,2022-05-03_11h06.49.526,Main,2022.1.1,60.00913339000659,
positive,yellow,2,None,k,,,,,,,,,0,104,104,104,,,,,,,,,,,,,,,,,,,,,,,,,,,,,,,,,,,,,main,k,k,1,1.3635010999996666,482.9218553999999,None,None,0,,,,,,,,,,,,,,207,22,Male,2022-05-03_11h06.49.526,Main,2022.1.1,60.00913339000659,
positive,blue,1,k,None,,,,,,,,,0,105,105,105,,,,,,,,,,,,,,,,,,,,,,,,,,,,,,,,,,,,,main,None,None,1,1.5108488000000762,485.2872026,None,None,1,,,,,,,,,,,,,,207,22,Male,2022-05-03_11h06.49.526,Main,2022.1.1,60.00913339000659,
positive,blue,2,k,None,,,,,,,,,0,106,106,106,,,,,,,,,,,,,,,,,,,,,,,,,,,,,,,,,,,,,main,None,None,1,1.493612100000064,487.7993510000001,None,None,1,,,,,,,,,,,,,,207,22,Male,2022-05-03_11h06.49.526,Main,2022.1.1,60.00913339000659,
negative,blue,1,None,k,,,,,,,,,0,107,107,107,,,,,,,,,,,,,,,,,,,,,,,,,,,,,,,,,,,,,main,k,k,1,0.8344504000001507,490.29455970000026,None,None,0,,,,,,,,,,,,,,207,22,Male,2022-05-03_11h06.49.526,Main,2022.1.1,60.00913339000659,
positive,yellow,2,None,k,,,,,,,,,0,108,108,108,,,,,,,,,,,,,,,,,,,,,,,,,,,,,,,,,,,,,main,k,k,1,1.2663479999996525,492.13102100000015,None,None,0,,,,,,,,,,,,,,207,22,Male,2022-05-03_11h06.49.526,Main,2022.1.1,60.00913339000659,
negative,yellow,1,k,None,,,,,,,,,0,109,109,109,,,,,,,,,,,,,,,,,,,,,,,,,,,,,,,,,,,,,main,None,None,1,1.5127105999999912,494.40080560000024,None,None,1,,,,,,,,,,,,,,207,22,Male,2022-05-03_11h06.49.526,Main,2022.1.1,60.00913339000659,
negative,blue,2,None,k,,,,,,,,,0,110,110,110,,,,,,,,,,,,,,,,,,,,,,,,,,,,,,,,,,,,,main,k,k,1,0.9573710999998184,496.91420590000007,None,None,0,,,,,,,,,,,,,,207,22,Male,2022-05-03_11h06.49.526,Main,2022.1.1,60.00913339000659,
positive,blue,2,k,None,,,,,,,,,0,111,111,111,,,,,,,,,,,,,,,,,,,,,,,,,,,,,,,,,,,,,main,None,None,1,1.4980142999997952,498.8750464,None,None,1,,,,,,,,,,,,,,207,22,Male,2022-05-03_11h06.49.526,Main,2022.1.1,60.00913339000659,
negative,blue,1,None,k,,,,,,,,,0,112,112,112,,,,,,,,,,,,,,,,,,,,,,,,,,,,,,,,,,,,,main,k,k,1,1.0299549000001207,501.3737798000002,None,None,0,,,,,,,,,,,,,,207,22,Male,2022-05-03_11h06.49.526,Main,2022.1.1,60.00913339000659,
positive,yellow,1,None,k,,,,,,,,,0,113,113,113,,,,,,,,,,,,,,,,,,,,,,,,,,,,,,,,,,,,,main,k,k,1,0.8391617000002043,503.4049944000003,None,None,0,,,,,,,,,,,,,,207,22,Male,2022-05-03_11h06.49.526,Main,2022.1.1,60.00913339000659,
negative,red,1,None,None,,,,,,,,,0,114,114,114,,,,,,,,,,,,,,,,,,,,,,,,,,,,,,,,,,,,,main,None,None,1,1.50955120000026,505.2443407999999,None,None,1,,,,,,,,,,,,,,207,22,Male,2022-05-03_11h06.49.526,Main,2022.1.1,60.00913339000659,
positive,red,1,None,None,,,,,,,,,0,115,115,115,,,,,,,,,,,,,,,,,,,,,,,,,,,,,,,,,,,,,main,None,None,1,1.4996324999997341,507.7570820000001,None,None,1,,,,,,,,,,,,,,207,22,Male,2022-05-03_11h06.49.526,Main,2022.1.1,60.00913339000659,
negative,red,2,None,None,,,,,,,,,0,116,116,116,,,,,,,,,,,,,,,,,,,,,,,,,,,,,,,,,,,,,main,None,None,1,1.5011499000002004,510.2601517000003,None,None,1,,,,,,,,,,,,,,207,22,Male,2022-05-03_11h06.49.526,Main,2022.1.1,60.00913339000659,
negative,yellow,2,k,None,,,,,,,,,0,117,117,117,,,,,,,,,,,,,,,,,,,,,,,,,,,,,,,,,,,,,main,None,None,1,1.4979974999996557,512.7612909,None,None,1,,,,,,,,,,,,,,207,22,Male,2022-05-03_11h06.49.526,Main,2022.1.1,60.00913339000659,
positive,yellow,1,None,k,,,,,,,,,0,118,118,118,,,,,,,,,,,,,,,,,,,,,,,,,,,,,,,,,,,,,main,k,k,1,0.8848625999999058,515.2603961,None,None,0,,,,,,,,,,,,,,207,22,Male,2022-05-03_11h06.49.526,Main,2022.1.1,60.00913339000659,
positive,red,2,None,None,,,,,,,,,0,119,119,119,,,,,,,,,,,,,,,,,,,,,,,,,,,,,,,,,,,,,main,None,None,1,1.513201300000219,517.1497072000002,None,None,1,,,,,,,,,,,,,,207,22,Male,2022-05-03_11h06.49.526,Main,2022.1.1,60.00913339000659,
positive,blue,2,k,None,,,,,,,,,0,120,120,120,,,,,,,,,,,,,,,,,,,,,,,,,,,,,,,,,,,,,main,None,None,1,1.510507299999972,519.6648643000003,None,None,1,,,,,,,,,,,,,,207,22,Male,2022-05-03_11h06.49.526,Main,2022.1.1,60.00913339000659,
negative,red,1,None,None,,,,,,,,,0,121,121,121,,,,,,,,,,,,,,,,,,,,,,,,,,,,,,,,,,,,,main,None,None,1,1.5005395999996836,522.1737458000002,None,None,1,,,,,,,,,,,,,,207,22,Male,2022-05-03_11h06.49.526,Main,2022.1.1,60.00913339000659,
positive,yellow,2,None,k,,,,,,,,,0,122,122,122,,,,,,,,,,,,,,,,,,,,,,,,,,,,,,,,,,,,,main,k,k,1,0.7810153999998874,524.6778146000001,None,None,0,,,,,,,,,,,,,,207,22,Male,2022-05-03_11h06.49.526,Main,2022.1.1,60.00913339000659,
negative,red,2,None,None,,,,,,,,,0,123,123,123,,,,,,,,,,,,,,,,,,,,,,,,,,,,,,,,,,,,,main,None,None,1,1.50823790000004,526.4604992,None,None,1,,,,,,,,,,,,,,207,22,Male,2022-05-03_11h06.49.526,Main,2022.1.1,60.00913339000659,
negative,yellow,2,k,None,,,,,,,,,0,124,124,124,,,,,,,,,,,,,,,,,,,,,,,,,,,,,,,,,,,,,main,None,None,1,1.5043075000003228,528.9710477000003,None,None,1,,,,,,,,,,,,,,207,22,Male,2022-05-03_11h06.49.526,Main,2022.1.1,60.00913339000659,
positive,red,1,None,None,,,,,,,,,0,125,125,125,,,,,,,,,,,,,,,,,,,,,,,,,,,,,,,,,,,,,main,None,None,1,1.498724300000049,531.4742315000003,None,None,1,,,,,,,,,,,,,,207,22,Male,2022-05-03_11h06.49.526,Main,2022.1.1,60.00913339000659,
negative,blue,2,None,k,,,,,,,,,0,126,126,126,,,,,,,,,,,,,,,,,,,,,,,,,,,,,,,,,,,,,main,k,k,1,0.9301206000000093,533.9772183,None,None,0,,,,,,,,,,,,,,207,22,Male,2022-05-03_11h06.49.526,Main,2022.1.1,60.00913339000659,
negative,blue,1,None,k,,,,,,,,,0,127,127,127,,,,,,,,,,,,,,,,,,,,,,,,,,,,,,,,,,,,,main,k,k,1,1.1482019999998556,535.9094324000002,None,None,0,,,,,,,,,,,,,,207,22,Male,2022-05-03_11h06.49.526,Main,2022.1.1,60.00913339000659,
negative,yellow,1,k,None,,,,,,,,,0,128,128,128,,,,,,,,,,,,,,,,,,,,,,,,,,,,,,,,,,,,,main,None,None,1,1.4981144000003042,538.0563965000001,None,None,1,,,,,,,,,,,,,,207,22,Male,2022-05-03_11h06.49.526,Main,2022.1.1,60.00913339000659,
negative,yellow,1,k,None,,,,,,,,,0,129,129,129,,,,,,,,,,,,,,,,,,,,,,,,,,,,,,,,,,,,,main,None,None,1,1.5034388999997645,540.5554433000002,None,None,1,,,,,,,,,,,,,,207,22,Male,2022-05-03_11h06.49.526,Main,2022.1.1,60.00913339000659,
positive,blue,1,k,None,,,,,,,,,0,130,130,130,,,,,,,,,,,,,,,,,,,,,,,,,,,,,,,,,,,,,main,None,None,1,1.4941152999999758,543.0635417000003,None,None,1,,,,,,,,,,,,,,207,22,Male,2022-05-03_11h06.49.526,Main,2022.1.1,60.00913339000659,
negative,blue,1,None,k,,,,,,,,,0,131,131,131,,,,,,,,,,,,,,,,,,,,,,,,,,,,,,,,,,,,,main,k,k,1,0.884066200000234,545.5593293000002,None,None,0,,,,,,,,,,,,,,207,22,Male,2022-05-03_11h06.49.526,Main,2022.1.1,60.00913339000659,
negative,blue,2,None,k,,,,,,,,,0,132,132,132,,,,,,,,,,,,,,,,,,,,,,,,,,,,,,,,,,,,,main,k,k,1,1.0496665000000576,547.4450291000003,None,None,0,,,,,,,,,,,,,,207,22,Male,2022-05-03_11h06.49.526,Main,2022.1.1,60.00913339000659,
positive,blue,2,k,None,,,,,,,,,0,133,133,133,,,,,,,,,,,,,,,,,,,,,,,,,,,,,,,,,,,,,main,None,None,1,1.5117887000001247,549.4961307000003,None,None,1,,,,,,,,,,,,,,207,22,Male,2022-05-03_11h06.49.526,Main,2022.1.1,60.00913339000659,
positive,red,2,None,None,,,,,,,,,0,134,134,134,,,,,,,,,,,,,,,,,,,,,,,,,,,,,,,,,,,,,main,None,None,1,1.5031819000000723,552.0069782,None,None,1,,,,,,,,,,,,,,207,22,Male,2022-05-03_11h06.49.526,Main,2022.1.1,60.00913339000659,
negative,yellow,2,k,None,,,,,,,,,0,135,135,135,,,,,,,,,,,,,,,,,,,,,,,,,,,,,,,,,,,,,main,None,None,1,1.5084218999995755,554.5143743000003,None,None,1,,,,,,,,,,,,,,207,22,Male,2022-05-03_11h06.49.526,Main,2022.1.1,60.00913339000659,
positive,yellow,2,None,k,,,,,,,,,0,136,136,136,,,,,,,,,,,,,,,,,,,,,,,,,,,,,,,,,,,,,main,k,k,1,0.7328539000000092,557.0221206000001,None,None,0,,,,,,,,,,,,,,207,22,Male,2022-05-03_11h06.49.526,Main,2022.1.1,60.00913339000659,
positive,blue,1,k,None,,,,,,,,,0,137,137,137,,,,,,,,,,,,,,,,,,,,,,,,,,,,,,,,,,,,,main,None,None,1,1.4974646999999095,558.7576905999999,None,None,1,,,,,,,,,,,,,,207,22,Male,2022-05-03_11h06.49.526,Main,2022.1.1,60.00913339000659,
positive,yellow,1,None,k,,,,,,,,,0,138,138,138,,,,,,,,,,,,,,,,,,,,,,,,,,,,,,,,,,,,,main,k,k,1,0.8972756999996818,561.2569262000002,None,None,0,,,,,,,,,,,,,,207,22,Male,2022-05-03_11h06.49.526,Main,2022.1.1,60.00913339000659,
positive,yellow,1,None,k,,,,,,,,,0,139,139,139,,,,,,,,,,,,,,,,,,,,,,,,,,,,,,,,,,,,,main,k,k,1,1.1972326999998586,563.1558494999999,None,None,0,,,,,,,,,,,,,,207,22,Male,2022-05-03_11h06.49.526,Main,2022.1.1,60.00913339000659,
positive,yellow,1,None,k,,,,,,,,,0,140,140,140,,,,,,,,,,,,,,,,,,,,,,,,,,,,,,,,,,,,,main,k,k,1,0.9145180999998956,565.3568653000002,None,None,0,,,,,,,,,,,,,,207,22,Male,2022-05-03_11h06.49.526,Main,2022.1.1,60.00913339000659,
positive,blue,1,k,None,,,,,,,,,0,141,141,141,,,,,,,,,,,,,,,,,,,,,,,,,,,,,,,,,,,,,main,None,None,1,1.4985383000002912,567.2735002,None,None,1,,,,,,,,,,,,,,207,22,Male,2022-05-03_11h06.49.526,Main,2022.1.1,60.00913339000659,
positive,blue,2,k,None,,,,,,,,,0,142,142,142,,,,,,,,,,,,,,,,,,,,,,,,,,,,,,,,,,,,,main,None,None,1,1.49808320000011,569.7711311000003,None,None,1,,,,,,,,,,,,,,207,22,Male,2022-05-03_11h06.49.526,Main,2022.1.1,60.00913339000659,
positive,yellow,2,None,k,,,,,,,,,0,143,143,143,,,,,,,,,,,,,,,,,,,,,,,,,,,,,,,,,,,,,main,k,k,1,0.9413420999999289,572.2728117000001,None,None,0,,,,,,,,,,,,,,207,22,Male,2022-05-03_11h06.49.526,Main,2022.1.1,60.00913339000659,
negative,yellow,2,k,None,,,,,,,,,0,144,144,144,,,,,,,,,,,,,,,,,,,,,,,,,,,,,,,,,,,,,main,None,None,1,1.5013398000000961,574.2147783,None,None,1,,,,,,,,,,,,,,207,22,Male,2022-05-03_11h06.49.526,Main,2022.1.1,60.00913339000659,
negative,blue,2,None,k,,,,,,,,,0,145,145,145,,,,,,,,,,,,,,,,,,,,,,,,,,,,,,,,,,,,,main,k,k,1,1.650568800000201,576.7171105000002,None,None,0,,,,,,,,,,,,,,207,22,Male,2022-05-03_11h06.49.526,Main,2022.1.1,60.00913339000659,
negative,red,1,None,None,,,,,,,,,0,146,146,146,,,,,,,,,,,,,,,,,,,,,,,,,,,,,,,,,,,,,main,None,None,1,1.499076099999911,580.3858917000002,None,None,1,,,,,,,,,,,,,,207,22,Male,2022-05-03_11h06.49.526,Main,2022.1.1,60.00913339000659,
positive,blue,1,k,None,,,,,,,,,0,147,147,147,,,,,,,,,,,,,,,,,,,,,,,,,,,,,,,,,,,,,main,None,None,1,1.4975036000000728,582.8856383000002,None,None,1,,,,,,,,,,,,,,207,22,Male,2022-05-03_11h06.49.526,Main,2022.1.1,60.00913339000659,
positive,yellow,1,None,k,,,,,,,,,0,148,148,148,,,,,,,,,,,,,,,,,,,,,,,,,,,,,,,,,,,,,main,k,k,1,0.8002526000000216,585.3854280999999,None,None,0,,,,,,,,,,,,,,207,22,Male,2022-05-03_11h06.49.526,Main,2022.1.1,60.00913339000659,
negative,red,2,None,None,,,,,,,,,0,149,149,149,,,,,,,,,,,,,,,,,,,,,,,,,,,,,,,,,,,,,main,None,None,1,1.4958630999999514,587.1886194000003,None,None,1,,,,,,,,,,,,,,207,22,Male,2022-05-03_11h06.49.526,Main,2022.1.1,60.00913339000659,
negative,blue,1,None,k,,,,,,,,,0,150,150,150,,,,,,,,,,,,,,,,,,,,,,,,,,,,,,,,,,,,,main,k,k,1,0.874250899999879,589.6840224000002,None,None,0,,,,,,,,,,,,,,207,22,Male,2022-05-03_11h06.49.526,Main,2022.1.1,60.00913339000659,
negative,yellow,2,k,None,,,,,,,,,0,151,151,151,,,,,,,,,,,,,,,,,,,,,,,,,,,,,,,,,,,,,main,None,None,1,1.5037178000002314,591.5621691000001,None,None,1,,,,,,,,,,,,,,207,22,Male,2022-05-03_11h06.49.526,Main,2022.1.1,60.00913339000659,
negative,blue,2,None,k,,,,,,,,,0,152,152,152,,,,,,,,,,,,,,,,,,,,,,,,,,,,,,,,,,,,,main,k,k,1,1.0342769999997472,594.0663839000003,None,None,0,,,,,,,,,,,,,,207,22,Male,2022-05-03_11h06.49.526,Main,2022.1.1,60.00913339000659,
negative,yellow,1,k,None,,,,,,,,,0,153,153,153,,,,,,,,,,,,,,,,,,,,,,,,,,,,,,,,,,,,,main,None,None,1,1.5073777000002337,596.1045784000003,None,None,1,,,,,,,,,,,,,,207,22,Male,2022-05-03_11h06.49.526,Main,2022.1.1,60.00913339000659,
negative,blue,1,None,k,,,,,,,,,0,154,154,154,,,,,,,,,,,,,,,,,,,,,,,,,,,,,,,,,,,,,main,k,k,1,4.278350000000046,598.6128338000003,None,None,0,,,,,,,,,,,,,,207,22,Male,2022-05-03_11h06.49.526,Main,2022.1.1,60.00913339000659,
positive,yellow,2,None,k,,,,,,,,,0,155,155,155,,,,,,,,,,,,,,,,,,,,,,,,,,,,,,,,,,,,,main,k,k,1,1.0055182000000968,604.8992949000003,None,None,0,,,,,,,,,,,,,,207,22,Male,2022-05-03_11h06.49.526,Main,2022.1.1,60.00913339000659,
positive,red,2,None,None,,,,,,,,,0,156,156,156,,,,,,,,,,,,,,,,,,,,,,,,,,,,,,,,,,,,,main,None,None,1,1.5118224000002556,606.9072654000001,None,None,1,,,,,,,,,,,,,,207,22,Male,2022-05-03_11h06.49.526,Main,2022.1.1,60.00913339000659,
positive,red,1,None,None,,,,,,,,,0,157,157,157,,,,,,,,,,,,,,,,,,,,,,,,,,,,,,,,,,,,,main,None,None,1,1.5114443999996183,609.4209257000002,None,None,1,,,,,,,,,,,,,,207,22,Male,2022-05-03_11h06.49.526,Main,2022.1.1,60.00913339000659,
positive,blue,2,k,None,,,,,,,,,0,158,158,158,,,,,,,,,,,,,,,,,,,,,,,,,,,,,,,,,,,,,main,None,None,1,1.5134245999997802,611.9321534999999,None,None,1,,,,,,,,,,,,,,207,22,Male,2022-05-03_11h06.49.526,Main,2022.1.1,60.00913339000659,
negative,yellow,1,k,None,,,,,,,,,0,159,159,159,,,,,,,,,,,,,,,,,,,,,,,,,,,,,,,,,,,,,main,None,None,1,1.4988676999996642,614.4461788000003,None,None,1,,,,,,,,,,,,,,207,22,Male,2022-05-03_11h06.49.526,Main,2022.1.1,60.00913339000659,
negative,red,2,None,None,,,,,,,,,0,160,160,160,,,,,,,,,,,,,,,,,,,,,,,,,,,,,,,,,,,,,main,None,None,1,1.499530600000071,616.9485533000002,None,None,1,,,,,,,,,,,,,,207,22,Male,2022-05-03_11h06.49.526,Main,2022.1.1,60.00913339000659,
negative,blue,1,None,k,,,,,,,,,0,161,161,161,,,,,,,,,,,,,,,,,,,,,,,,,,,,,,,,,,,,,main,k,k,1,0.7400707000001603,619.4507653000001,None,None,0,,,,,,,,,,,,,,207,22,Male,2022-05-03_11h06.49.526,Main,2022.1.1,60.00913339000659,
negative,blue,1,None,k,,,,,,,,,0,162,162,162,,,,,,,,,,,,,,,,,,,,,,,,,,,,,,,,,,,,,main,k,k,1,0.8586033999999927,621.1909693000002,None,None,0,,,,,,,,,,,,,,207,22,Male,2022-05-03_11h06.49.526,Main,2022.1.1,60.00913339000659,
negative,yellow,1,k,None,,,,,,,,,0,163,163,163,,,,,,,,,,,,,,,,,,,,,,,,,,,,,,,,,,,,,main,None,None,1,1.5099661999997807,623.0533055000001,None,None,1,,,,,,,,,,,,,,207,22,Male,2022-05-03_11h06.49.526,Main,2022.1.1,60.00913339000659,
negative,yellow,1,k,None,,,,,,,,,0,164,164,164,,,,,,,,,,,,,,,,,,,,,,,,,,,,,,,,,,,,,main,None,None,1,1.499430299999858,625.5619406000001,None,None,1,,,,,,,,,,,,,,207,22,Male,2022-05-03_11h06.49.526,Main,2022.1.1,60.00913339000659,
positive,yellow,1,None,k,,,,,,,,,0,165,165,165,,,,,,,,,,,,,,,,,,,,,,,,,,,,,,,,,,,,,main,k,k,1,0.897143899999719,628.0625303000002,None,None,0,,,,,,,,,,,,,,207,22,Male,2022-05-03_11h06.49.526,Main,2022.1.1,60.00913339000659,
negative,red,1,None,None,,,,,,,,,0,166,166,166,,,,,,,,,,,,,,,,,,,,,,,,,,,,,,,,,,,,,main,None,None,1,1.4976032000004125,629.9607082000002,None,None,1,,,,,,,,,,,,,,207,22,Male,2022-05-03_11h06.49.526,Main,2022.1.1,60.00913339000659,
negative,yellow,2,k,None,,,,,,,,,0,167,167,167,,,,,,,,,,,,,,,,,,,,,,,,,,,,,,,,,,,,,main,None,k,0,1.1277722999998332,632.4599356000003,None,None,1,,,,,,,,,,,,,,207,22,Male,2022-05-03_11h06.49.526,Main,2022.1.1,60.00913339000659,
positive,blue,2,k,None,,,,,,,,,0,168,168,168,,,,,,,,,,,,,,,,,,,,,,,,,,,,,,,,,,,,,main,None,None,1,1.5061339999997472,635.5955881,None,None,1,,,,,,,,,,,,,,207,22,Male,2022-05-03_11h06.49.526,Main,2022.1.1,60.00913339000659,
positive,red,2,None,None,,,,,,,,,0,169,169,169,,,,,,,,,,,,,,,,,,,,,,,,,,,,,,,,,,,,,main,None,None,1,1.5061241000003065,638.1036095,None,None,1,,,,,,,,,,,,,,207,22,Male,2022-05-03_11h06.49.526,Main,2022.1.1,60.00913339000659,
positive,red,1,None,None,,,,,,,,,0,170,170,170,,,,,,,,,,,,,,,,,,,,,,,,,,,,,,,,,,,,,main,None,None,1,1.509735599999658,640.6105737000003,None,None,1,,,,,,,,,,,,,,207,22,Male,2022-05-03_11h06.49.526,Main,2022.1.1,60.00913339000659,
negative,blue,2,None,k,,,,,,,,,0,171,171,171,,,,,,,,,,,,,,,,,,,,,,,,,,,,,,,,,,,,,main,k,k,1,0.8767941000000974,643.1233485000002,None,None,0,,,,,,,,,,,,,,207,22,Male,2022-05-03_11h06.49.526,Main,2022.1.1,60.00913339000659,
positive,blue,2,k,None,,,,,,,,,0,172,172,172,,,,,,,,,,,,,,,,,,,,,,,,,,,,,,,,,,,,,main,None,None,1,1.500343299999713,645.0015237000002,None,None,1,,,,,,,,,,,,,,207,22,Male,2022-05-03_11h06.49.526,Main,2022.1.1,60.00913339000659,
negative,yellow,2,k,None,,,,,,,,,0,173,173,173,,,,,,,,,,,,,,,,,,,,,,,,,,,,,,,,,,,,,main,None,None,1,1.5070872999999665,647.5035892000001,None,None,1,,,,,,,,,,,,,,207,22,Male,2022-05-03_11h06.49.526,Main,2022.1.1,60.00913339000659,
positive,yellow,2,None,k,,,,,,,,,0,174,174,174,,,,,,,,,,,,,,,,,,,,,,,,,,,,,,,,,,,,,main,k,k,1,1.3038523999998688,650.0129976000003,None,None,0,,,,,,,,,,,,,,207,22,Male,2022-05-03_11h06.49.526,Main,2022.1.1,60.00913339000659,
negative,blue,2,None,k,,,,,,,,,0,175,175,175,,,,,,,,,,,,,,,,,,,,,,,,,,,,,,,,,,,,,main,k,k,1,1.040171200000259,652.3182887000003,None,None,0,,,,,,,,,,,,,,207,22,Male,2022-05-03_11h06.49.526,Main,2022.1.1,60.00913339000659,
positive,blue,1,k,None,,,,,,,,,0,176,176,176,,,,,,,,,,,,,,,,,,,,,,,,,,,,,,,,,,,,,main,None,None,1,1.5005930000002081,654.3602089999999,None,None,1,,,,,,,,,,,,,,207,22,Male,2022-05-03_11h06.49.526,Main,2022.1.1,60.00913339000659,
positive,yellow,1,None,k,,,,,,,,,0,177,177,177,,,,,,,,,,,,,,,,,,,,,,,,,,,,,,,,,,,,,main,k,k,1,0.7779003999999077,656.8598134000003,None,None,0,,,,,,,,,,,,,,207,22,Male,2022-05-03_11h06.49.526,Main,2022.1.1,60.00913339000659,
positive,blue,1,k,None,,,,,,,,,0,178,178,178,,,,,,,,,,,,,,,,,,,,,,,,,,,,,,,,,,,,,main,None,None,1,1.5066915000002155,658.6393347000003,None,None,1,,,,,,,,,,,,,,207,22,Male,2022-05-03_11h06.49.526,Main,2022.1.1,60.00913339000659,
positive,yellow,2,None,k,,,,,,,,,0,179,179,179,,,,,,,,,,,,,,,,,,,,,,,,,,,,,,,,,,,,,main,k,k,1,0.7362493000000541,661.1500453000003,None,None,0,,,,,,,,,,,,,,207,22,Male,2022-05-03_11h06.49.526,Main,2022.1.1,60.00913339000659,
positive,blue,1,k,None,,,,,,,,,0,180,180,180,,,,,,,,,,,,,,,,,,,,,,,,,,,,,,,,,,,,,main,None,None,1,1.500949899999796,662.8868947000001,None,None,1,,,,,,,,,,,,,,207,22,Male,2022-05-03_11h06.49.526,Main,2022.1.1,60.00913339000659,
negative,red,1,None,None,,,,,,,,,0,181,181,181,,,,,,,,,,,,,,,,,,,,,,,,,,,,,,,,,,,,,main,None,None,1,1.5029002999999648,665.3899710999999,None,None,1,,,,,,,,,,,,,,207,22,Male,2022-05-03_11h06.49.526,Main,2022.1.1,60.00913339000659,
negative,blue,1,None,k,,,,,,,,,0,182,182,182,,,,,,,,,,,,,,,,,,,,,,,,,,,,,,,,,,,,,main,k,k,1,1.416490099999919,667.8964799,None,None,0,,,,,,,,,,,,,,207,22,Male,2022-05-03_11h06.49.526,Main,2022.1.1,60.00913339000659,
negative,yellow,2,k,None,,,,,,,,,0,183,183,183,,,,,,,,,,,,,,,,,,,,,,,,,,,,,,,,,,,,,main,None,None,1,1.4975323999997272,670.3157587999999,None,None,1,,,,,,,,,,,,,,207,22,Male,2022-05-03_11h06.49.526,Main,2022.1.1,60.00913339000659,
positive,yellow,2,None,k,,,,,,,,,0,184,184,184,,,,,,,,,,,,,,,,,,,,,,,,,,,,,,,,,,,,,main,k,k,1,0.8483433999999761,672.8150199000002,None,None,0,,,,,,,,,,,,,,207,22,Male,2022-05-03_11h06.49.526,Main,2022.1.1,60.00913339000659,
positive,yellow,1,None,k,,,,,,,,,0,185,185,185,,,,,,,,,,,,,,,,,,,,,,,,,,,,,,,,,,,,,main,k,k,1,1.2009118000000853,674.6653652,None,None,0,,,,,,,,,,,,,,207,22,Male,2022-05-03_11h06.49.526,Main,2022.1.1,60.00913339000659,
positive,red,2,None,None,,,,,,,,,0,186,186,186,,,,,,,,,,,,,,,,,,,,,,,,,,,,,,,,,,,,,main,None,None,1,1.4946368999999322,676.8664613000001,None,None,1,,,,,,,,,,,,,,207,22,Male,2022-05-03_11h06.49.526,Main,2022.1.1,60.00913339000659,
positive,blue,1,k,None,,,,,,,,,0,187,187,187,,,,,,,,,,,,,,,,,,,,,,,,,,,,,,,,,,,,,main,None,None,1,1.5096616999999242,679.3634887000003,None,None,1,,,,,,,,,,,,,,207,22,Male,2022-05-03_11h06.49.526,Main,2022.1.1,60.00913339000659,
negative,yellow,1,k,None,,,,,,,,,0,188,188,188,,,,,,,,,,,,,,,,,,,,,,,,,,,,,,,,,,,,,main,None,None,1,1.4970886000000974,681.8727080000003,None,None,1,,,,,,,,,,,,,,207,22,Male,2022-05-03_11h06.49.526,Main,2022.1.1,60.00913339000659,
positive,yellow,2,None,k,,,,,,,,,0,189,189,189,,,,,,,,,,,,,,,,,,,,,,,,,,,,,,,,,,,,,main,k,k,1,0.7509875000000648,684.37293,None,None,0,,,,,,,,,,,,,,207,22,Male,2022-05-03_11h06.49.526,Main,2022.1.1,60.00913339000659,
negative,yellow,2,k,None,,,,,,,,,0,190,190,190,,,,,,,,,,,,,,,,,,,,,,,,,,,,,,,,,,,,,main,None,None,1,1.5064413000000059,686.1275464,None,None,1,,,,,,,,,,,,,,207,22,Male,2022-05-03_11h06.49.526,Main,2022.1.1,60.00913339000659,
negative,yellow,1,k,None,,,,,,,,,0,191,191,191,,,,,,,,,,,,,,,,,,,,,,,,,,,,,,,,,,,,,main,None,None,1,1.5062557999999626,688.6353328,None,None,1,,,,,,,,,,,,,,207,22,Male,2022-05-03_11h06.49.526,Main,2022.1.1,60.00913339000659,
positive,blue,2,k,None,,,,,,,,,0,192,192,192,,,,,,,,,,,,,,,,,,,,,,,,,,,,,,,,,,,,,main,None,None,1,1.5019837999998344,691.1455206999999,None,None,1,,,,,,,,,,,,,,207,22,Male,2022-05-03_11h06.49.526,Main,2022.1.1,60.00913339000659,
positive,yellow,1,None,k,,,,,,,,,0,193,193,193,,,,,,,,,,,,,,,,,,,,,,,,,,,,,,,,,,,,,main,k,k,1,0.7260673999999199,693.6476637000001,None,None,0,,,,,,,,,,,,,,207,22,Male,2022-05-03_11h06.49.526,Main,2022.1.1,60.00913339000659,
negative,red,2,None,None,,,,,,,,,0,194,194,194,,,,,,,,,,,,,,,,,,,,,,,,,,,,,,,,,,,,,main,None,None,1,1.5059896000002482,695.3768989,None,None,1,,,,,,,,,,,,,,207,22,Male,2022-05-03_11h06.49.526,Main,2022.1.1,60.00913339000659,
positive,red,1,None,None,,,,,,,,,0,195,195,195,,,,,,,,,,,,,,,,,,,,,,,,,,,,,,,,,,,,,main,None,None,1,1.5030219999998735,697.8827160000001,None,None,1,,,,,,,,,,,,,,207,22,Male,2022-05-03_11h06.49.526,Main,2022.1.1,60.00913339000659,
negative,blue,1,None,k,,,,,,,,,0,196,196,196,,,,,,,,,,,,,,,,,,,,,,,,,,,,,,,,,,,,,main,k,k,1,0.9009817999999541,700.3867515000002,None,None,0,,,,,,,,,,,,,,207,22,Male,2022-05-03_11h06.49.526,Main,2022.1.1,60.00913339000659,
positive,blue,2,k,None,,,,,,,,,0,197,197,197,,,,,,,,,,,,,,,,,,,,,,,,,,,,,,,,,,,,,main,None,None,1,1.5030954999997448,702.2914618,None,None,1,,,,,,,,,,,,,,207,22,Male,2022-05-03_11h06.49.526,Main,2022.1.1,60.00913339000659,
negative,blue,2,None,k,,,,,,,,,0,198,198,198,,,,,,,,,,,,,,,,,,,,,,,,,,,,,,,,,,,,,main,k,k,1,0.8970451999998659,704.7965293000002,None,None,0,,,,,,,,,,,,,,207,22,Male,2022-05-03_11h06.49.526,Main,2022.1.1,60.00913339000659,
negative,blue,2,None,k,,,,,,,,,0,199,199,199,,,,,,,,,,,,,,,,,,,,,,,,,,,,,,,,,,,,,main,k,k,1,0.7937121999998453,706.6949013000003,None,None,0,,,,,,,,,,,,,,207,22,Male,2022-05-03_11h06.49.526,Main,2022.1.1,60.00913339000659,
positive,blue,2,k,None,,,,,,,,,0,200,200,200,,,,,,,,,,,,,,,,,,,,,,,,,,,,,,,,,,,,,main,None,None,1,1.5011980999997832,708.4908571000001,None,None,1,,,,,,,,,,,,,,207,22,Male,2022-05-03_11h06.49.526,Main,2022.1.1,60.00913339000659,
positive,blue,2,k,None,,,,,,,,,0,201,201,201,,,,,,,,,,,,,,,,,,,,,,,,,,,,,,,,,,,,,main,None,None,1,1.5078084000001581,710.9933444000003,None,None,1,,,,,,,,,,,,,,207,22,Male,2022-05-03_11h06.49.526,Main,2022.1.1,60.00913339000659,
negative,yellow,2,k,None,,,,,,,,,0,202,202,202,,,,,,,,,,,,,,,,,,,,,,,,,,,,,,,,,,,,,main,None,None,1,1.5070071999998618,713.5007917000003,None,None,1,,,,,,,,,,,,,,207,22,Male,2022-05-03_11h06.49.526,Main,2022.1.1,60.00913339000659,
positive,red,1,None,None,,,,,,,,,0,203,203,203,,,,,,,,,,,,,,,,,,,,,,,,,,,,,,,,,,,,,main,None,None,1,1.5003413999997974,716.0110313,None,None,1,,,,,,,,,,,,,,207,22,Male,2022-05-03_11h06.49.526,Main,2022.1.1,60.00913339000659,
negative,blue,2,None,k,,,,,,,,,0,204,204,204,,,,,,,,,,,,,,,,,,,,,,,,,,,,,,,,,,,,,main,k,k,1,0.8179655999997522,718.5135933000001,None,None,0,,,,,,,,,,,,,,207,22,Male,2022-05-03_11h06.49.526,Main,2022.1.1,60.00913339000659,
negative,red,1,None,None,,,,,,,,,0,205,205,205,,,,,,,,,,,,,,,,,,,,,,,,,,,,,,,,,,,,,main,None,None,1,1.5072227999999086,720.3315708,None,None,1,,,,,,,,,,,,,,207,22,Male,2022-05-03_11h06.49.526,Main,2022.1.1,60.00913339000659,
negative,blue,2,None,k,,,,,,,,,0,206,206,206,,,,,,,,,,,,,,,,,,,,,,,,,,,,,,,,,,,,,main,k,k,1,6.591728899999907,722.8427148000001,None,None,0,,,,,,,,,,,,,,207,22,Male,2022-05-03_11h06.49.526,Main,2022.1.1,60.00913339000659,
negative,yellow,2,k,None,,,,,,,,,0,207,207,207,,,,,,,,,,,,,,,,,,,,,,,,,,,,,,,,,,,,,main,None,None,1,1.504874899999777,731.4498068000003,None,None,1,,,,,,,,,,,,,,207,22,Male,2022-05-03_11h06.49.526,Main,2022.1.1,60.00913339000659,
positive,yellow,2,None,k,,,,,,,,,0,208,208,208,,,,,,,,,,,,,,,,,,,,,,,,,,,,,,,,,,,,,main,k,k,1,0.8095278999999209,733.957723,None,None,0,,,,,,,,,,,,,,207,22,Male,2022-05-03_11h06.49.526,Main,2022.1.1,60.00913339000659,
negative,yellow,1,k,None,,,,,,,,,0,209,209,209,,,,,,,,,,,,,,,,,,,,,,,,,,,,,,,,,,,,,main,None,None,1,1.501092399999834,735.7676888999999,None,None,1,,,,,,,,,,,,,,207,22,Male,2022-05-03_11h06.49.526,Main,2022.1.1,60.00913339000659,
negative,red,2,None,None,,,,,,,,,0,210,210,210,,,,,,,,,,,,,,,,,,,,,,,,,,,,,,,,,,,,,main,None,None,1,1.494475799999691,738.2727688,None,None,1,,,,,,,,,,,,,,207,22,Male,2022-05-03_11h06.49.526,Main,2022.1.1,60.00913339000659,
negative,blue,1,None,k,,,,,,,,,0,211,211,211,,,,,,,,,,,,,,,,,,,,,,,,,,,,,,,,,,,,,main,k,k,1,0.7378991000000497,740.7678605000001,None,None,0,,,,,,,,,,,,,,207,22,Male,2022-05-03_11h06.49.526,Main,2022.1.1,60.00913339000659,
negative,yellow,1,k,None,,,,,,,,,0,212,212,212,,,,,,,,,,,,,,,,,,,,,,,,,,,,,,,,,,,,,main,None,None,1,1.4982145000003584,742.5076587000003,None,None,1,,,,,,,,,,,,,,207,22,Male,2022-05-03_11h06.49.526,Main,2022.1.1,60.00913339000659,
positive,blue,1,k,None,,,,,,,,,0,213,213,213,,,,,,,,,,,,,,,,,,,,,,,,,,,,,,,,,,,,,main,None,None,1,1.5041095000001405,745.0084416,None,None,1,,,,,,,,,,,,,,207,22,Male,2022-05-03_11h06.49.526,Main,2022.1.1,60.00913339000659,
positive,blue,1,k,None,,,,,,,,,0,214,214,214,,,,,,,,,,,,,,,,,,,,,,,,,,,,,,,,,,,,,main,None,None,1,1.4999241999998958,747.5120689,None,None,1,,,,,,,,,,,,,,207,22,Male,2022-05-03_11h06.49.526,Main,2022.1.1,60.00913339000659,
positive,yellow,1,None,k,,,,,,,,,0,215,215,215,,,,,,,,,,,,,,,,,,,,,,,,,,,,,,,,,,,,,main,k,k,1,0.8201331999998729,750.0136955000003,None,None,0,,,,,,,,,,,,,,207,22,Male,2022-05-03_11h06.49.526,Main,2022.1.1,60.00913339000659,
positive,yellow,1,None,k,,,,,,,,,0,216,216,216,,,,,,,,,,,,,,,,,,,,,,,,,,,,,,,,,,,,,main,k,k,1,0.787854900000184,751.8369612000001,None,None,0,,,,,,,,,,,,,,207,22,Male,2022-05-03_11h06.49.526,Main,2022.1.1,60.00913339000659,
positive,yellow,2,None,k,,,,,,,,,0,217,217,217,,,,,,,,,,,,,,,,,,,,,,,,,,,,,,,,,,,,,main,k,k,1,0.8603828000000249,753.6260709000003,None,None,0,,,,,,,,,,,,,,207,22,Male,2022-05-03_11h06.49.526,Main,2022.1.1,60.00913339000659,
negative,blue,1,None,k,,,,,,,,,0,218,218,218,,,,,,,,,,,,,,,,,,,,,,,,,,,,,,,,,,,,,main,k,k,1,0.845825700000205,755.4897225,None,None,0,,,,,,,,,,,,,,207,22,Male,2022-05-03_11h06.49.526,Main,2022.1.1,60.00913339000659,
positive,red,2,None,None,,,,,,,,,0,219,219,219,,,,,,,,,,,,,,,,,,,,,,,,,,,,,,,,,,,,,main,None,None,1,1.4997025000002395,757.3377639,None,None,1,,,,,,,,,,,,,,207,22,Male,2022-05-03_11h06.49.526,Main,2022.1.1,60.00913339000659,
positive,yellow,1,None,k,,,,,,,,,0,220,220,220,,,,,,,,,,,,,,,,,,,,,,,,,,,,,,,,,,,,,main,k,k,1,2.0622745999999097,759.8378904000001,None,None,0,,,,,,,,,,,,,,207,22,Male,2022-05-03_11h06.49.526,Main,2022.1.1,60.00913339000659,
positive,blue,1,k,None,,,,,,,,,0,221,221,221,,,,,,,,,,,,,,,,,,,,,,,,,,,,,,,,,,,,,main,None,None,1,1.5035161999999218,763.912327,None,None,1,,,,,,,,,,,,,,207,22,Male,2022-05-03_11h06.49.526,Main,2022.1.1,60.00913339000659,
positive,yellow,2,None,k,,,,,,,,,0,222,222,222,,,,,,,,,,,,,,,,,,,,,,,,,,,,,,,,,,,,,main,k,k,1,0.8105682999998862,766.4189495999999,None,None,0,,,,,,,,,,,,,,207,22,Male,2022-05-03_11h06.49.526,Main,2022.1.1,60.00913339000659,
negative,yellow,1,k,None,,,,,,,,,0,223,223,223,,,,,,,,,,,,,,,,,,,,,,,,,,,,,,,,,,,,,main,None,None,1,1.4964357000003474,768.2311692000003,None,None,1,,,,,,,,,,,,,,207,22,Male,2022-05-03_11h06.49.526,Main,2022.1.1,60.00913339000659,
positive,yellow,2,None,k,,,,,,,,,0,224,224,224,,,,,,,,,,,,,,,,,,,,,,,,,,,,,,,,,,,,,main,k,k,1,0.7942268000001604,770.726866,None,None,0,,,,,,,,,,,,,,207,22,Male,2022-05-03_11h06.49.526,Main,2022.1.1,60.00913339000659,
negative,yellow,2,k,None,,,,,,,,,0,225,225,225,,,,,,,,,,,,,,,,,,,,,,,,,,,,,,,,,,,,,main,None,None,1,1.5010356999996475,772.5236570000002,None,None,1,,,,,,,,,,,,,,207,22,Male,2022-05-03_11h06.49.526,Main,2022.1.1,60.00913339000659,
negative,blue,2,None,k,,,,,,,,,0,226,226,226,,,,,,,,,,,,,,,,,,,,,,,,,,,,,,,,,,,,,main,k,k,1,1.023905300000024,775.0296272999999,None,None,0,,,,,,,,,,,,,,207,22,Male,2022-05-03_11h06.49.526,Main,2022.1.1,60.00913339000659,
positive,red,2,None,None,,,,,,,,,0,227,227,227,,,,,,,,,,,,,,,,,,,,,,,,,,,,,,,,,,,,,main,None,None,1,1.5004094000000805,777.0545707000001,None,None,1,,,,,,,,,,,,,,207,22,Male,2022-05-03_11h06.49.526,Main,2022.1.1,60.00913339000659,
positive,blue,2,k,None,,,,,,,,,0,228,228,228,,,,,,,,,,,,,,,,,,,,,,,,,,,,,,,,,,,,,main,None,None,1,1.5120688000001792,779.5564787000003,None,None,1,,,,,,,,,,,,,,207,22,Male,2022-05-03_11h06.49.526,Main,2022.1.1,60.00913339000659,
negative,blue,1,None,k,,,,,,,,,0,229,229,229,,,,,,,,,,,,,,,,,,,,,,,,,,,,,,,,,,,,,main,k,k,1,0.8394170000001395,782.0719475999999,None,None,0,,,,,,,,,,,,,,207,22,Male,2022-05-03_11h06.49.526,Main,2022.1.1,60.00913339000659,
positive,yellow,1,None,k,,,,,,,,,0,230,230,230,,,,,,,,,,,,,,,,,,,,,,,,,,,,,,,,,,,,,main,k,k,1,0.7475994999999784,783.9136211,None,None,0,,,,,,,,,,,,,,207,22,Male,2022-05-03_11h06.49.526,Main,2022.1.1,60.00913339000659,
negative,blue,2,None,k,,,,,,,,,0,231,231,231,,,,,,,,,,,,,,,,,,,,,,,,,,,,,,,,,,,,,main,k,k,1,1.5124485999999706,785.6591865,None,None,0,,,,,,,,,,,,,,207,22,Male,2022-05-03_11h06.49.526,Main,2022.1.1,60.00913339000659,
negative,red,1,None,None,,,,,,,,,0,232,232,232,,,,,,,,,,,,,,,,,,,,,,,,,,,,,,,,,,,,,main,None,None,1,1.5029740999998467,789.1757835000003,None,None,1,,,,,,,,,,,,,,207,22,Male,2022-05-03_11h06.49.526,Main,2022.1.1,60.00913339000659,
positive,blue,2,k,None,,,,,,,,,0,233,233,233,,,,,,,,,,,,,,,,,,,,,,,,,,,,,,,,,,,,,main,None,None,1,1.507328900000175,791.6831632000003,None,None,1,,,,,,,,,,,,,,207,22,Male,2022-05-03_11h06.49.526,Main,2022.1.1,60.00913339000659,
negative,yellow,1,k,None,,,,,,,,,0,234,234,234,,,,,,,,,,,,,,,,,,,,,,,,,,,,,,,,,,,,,main,None,None,1,1.5005525000001398,794.1895299000003,None,None,1,,,,,,,,,,,,,,207,22,Male,2022-05-03_11h06.49.526,Main,2022.1.1,60.00913339000659,
negative,yellow,2,k,None,,,,,,,,,0,235,235,235,,,,,,,,,,,,,,,,,,,,,,,,,,,,,,,,,,,,,main,None,k,0,-0.4152254000000539,796.6919790000002,None,None,1,,,,,,,,,,,,,,207,22,Male,2022-05-03_11h06.49.526,Main,2022.1.1,60.00913339000659,
positive,red,1,None,None,,,,,,,,,0,236,236,236,,,,,,,,,,,,,,,,,,,,,,,,,,,,,,,,,,,,,main,None,None,1,1.4986299000001964,800.3076503000002,None,None,1,,,,,,,,,,,,,,207,22,Male,2022-05-03_11h06.49.526,Main,2022.1.1,60.00913339000659,
negative,red,2,None,None,,,,,,,,,0,237,237,237,,,,,,,,,,,,,,,,,,,,,,,,,,,,,,,,,,,,,main,None,None,1,1.509437799999887,802.8069534000001,None,None,1,,,,,,,,,,,,,,207,22,Male,2022-05-03_11h06.49.526,Main,2022.1.1,60.00913339000659,
negative,blue,1,None,k,,,,,,,,,0,238,238,238,,,,,,,,,,,,,,,,,,,,,,,,,,,,,,,,,,,,,main,k,k,1,0.9017401999999493,805.3197573000002,None,None,0,,,,,,,,,,,,,,207,22,Male,2022-05-03_11h06.49.526,Main,2022.1.1,60.00913339000659,
positive,blue,1,k,None,,,,,,,,,0,239,239,239,,,,,,,,,,,,,,,,,,,,,,,,,,,,,,,,,,,,,main,None,None,1,1.4986972000001515,807.2226312000003,None,None,1,,,,,,,,,,,,,,207,22,Male,2022-05-03_11h06.49.526,Main,2022.1.1,60.00913339000659,
,,,,,,,,,,,,,,,,,,,,,,,,,,,,,,,,,,,,,,,,,,,,,,,,,,,,,,,,,,,,,,,,,,,,,,,,,809.7119288000004,None,,,,,,,,
