distractor,target,set,ans1,ans2,rep_loop4.thisRepN,rep_loop4.thisTrialN,rep_loop4.thisN,rep_loop4.thisIndex,st2_prac_loop.thisRepN,st2_prac_loop.thisTrialN,st2_prac_loop.thisN,st2_prac_loop.thisIndex,st2_main_loop.thisRepN,st2_main_loop.thisTrialN,st2_main_loop.thisN,st2_main_loop.thisIndex,image_4.started,image_4.stopped,mouse_7.x,mouse_7.y,mouse_7.leftButton,mouse_7.midButton,mouse_7.rightButton,sound_2.started,sound_2.stopped,key_resp_3.keys,mouse_5.x,mouse_5.y,mouse_5.leftButton,mouse_5.midButton,mouse_5.rightButton,mouse_5.started,mouse_5.stopped,yes_text2.started,yes_text2.stopped,no_text2.started,no_text2.stopped,mouse_3.x,mouse_3.y,mouse_3.leftButton,mouse_3.midButton,mouse_3.rightButton,mouse_3.started,mouse_3.stopped,st_prac_back.started,st_prac_back.stopped,st_prac_text.started,st_prac_text.stopped,st_fix_back.started,st_fix_back.stopped,st_fix_2.started,st_fix_2.stopped,main_prac,st_ans,st_res,st_corr,st_rt,st_back.started,st_back.stopped,st2_resp.keys,st2_resp.corr,st_main_back.started,st_main_back.stopped,st_main_text.started,st_main_text.stopped,mouse_4.x,mouse_4.y,mouse_4.leftButton,mouse_4.midButton,mouse_4.rightButton,mouse_4.started,mouse_4.stopped,text_2.started,text_2.stopped,id*,age*,gender*,date,expName,psychopyVersion,frameRate,
,,,,,,,,,,,,,,,,,31.451498399997945,None,-0.10925926,0.083333336,0,0,0,,,,,,,,,,,,,,,,,,,,,,,,,,,,,,,,,,,,,,,,,,,,,,,,,,,,208,23,Male,2022-05-04_14h48.53.657,Main,2022.1.1,59.93500648295789,
negative,yellow,1,k,None,,,,,0,0,0,0,,,,,,,,,,,,62.299938459997065,None,None,0.06111111,-0.05277778,0,0,0,1.015916259988444,None,122.57601889999933,None,122.57601889999933,None,-0.11296296,-0.06111111,0,0,0,0.01324215998465661,None,130.2646922999993,None,130.2646922999993,None,132.27478409999458,None,132.27478409999458,None,prac,k,k,1,14.530835899990052,134.3202794999961,None,None,0,,,,,,,,,,,,,,208,23,Male,2022-05-04_14h48.53.657,Main,2022.1.1,59.93500648295789,
positive,red,2,None,None,,,,,0,1,1,1,,,,,,,,,,,,,,,,,,,,,,,,,,,,,,,,,,,,,,,,,prac,None,None,1,1.4910254999995232,150.8910756999976,None,None,1,,,,,,,,,,,,,,208,23,Male,2022-05-04_14h48.53.657,Main,2022.1.1,59.93500648295789,
negative,blue,2,None,k,,,,,0,2,2,2,,,,,,,,,,,,,,,,,,,,,,,,,,,,,,,,,,,,,,,,,prac,None,None,1,1.5061698999925284,153.3826654000004,None,None,1,,,,,,,,,,,,,,208,23,Male,2022-05-04_14h48.53.657,Main,2022.1.1,59.93500648295789,
positive,yellow,1,None,k,,,,,0,3,3,3,,,,,,,,,,,,,,,,,,,,,,,,,,,,,,,,,,,,,,,,,prac,None,None,1,1.4970327000046382,155.88380890000553,None,None,1,,,,,,,,,,,,,,208,23,Male,2022-05-04_14h48.53.657,Main,2022.1.1,59.93500648295789,
negative,blue,2,None,k,,,,,0,4,4,4,,,,,,,,,,,,,,,,,,,,,,,,,,,,,,,,,,,,,,,,,prac,None,None,1,1.4990457000094466,158.38419699999213,None,None,1,,,,,,,,,,,,,,208,23,Male,2022-05-04_14h48.53.657,Main,2022.1.1,59.93500648295789,
negative,blue,1,None,k,,,,,0,5,5,5,,,,,,,,,,,,,,,,,,,,,,,,,,,,,,,,,,,,,,,,,prac,None,None,1,1.4973792000091635,160.87517630000366,None,None,1,,,,,,,,,,,,,,208,23,Male,2022-05-04_14h48.53.657,Main,2022.1.1,59.93500648295789,
negative,yellow,2,k,None,,,,,0,6,6,6,,,,,,,,,,,,,,,,,,,,,,,,,,,,,,,,,,,,,,,,,prac,k,k,1,1.1297951000015019,163.37415970000438,None,None,0,,,,,,,,,,,,,,208,23,Male,2022-05-04_14h48.53.657,Main,2022.1.1,59.93500648295789,
negative,red,1,None,None,,,,,0,7,7,7,,,,,,,,,,,,,,,,,,,,,,,,,,,,,,,,,,,,,,,,,prac,None,None,1,1.5032215999963228,165.50333140000293,None,None,1,,,,,,,,,,,,,,208,23,Male,2022-05-04_14h48.53.657,Main,2022.1.1,59.93500648295789,
positive,yellow,2,None,k,,,,,0,8,8,8,,,,,,,,,,,,,,,,,,,,,,,,,,,,,,,,,,,,,,,,,prac,None,None,1,1.5113899999996647,168.01067519999924,None,None,1,,,,,,,,,,,,,,208,23,Male,2022-05-04_14h48.53.657,Main,2022.1.1,59.93500648295789,
negative,yellow,1,k,None,,,,,0,9,9,9,,,,,,,,,,,,,,,,,,,,,,,,,,,,,,,,,,,,,,,,,prac,k,k,1,2.164659500005655,170.5217127999931,None,None,0,,,,,,,,,,,,,,208,23,Male,2022-05-04_14h48.53.657,Main,2022.1.1,59.93500648295789,
positive,yellow,2,None,k,,,,,0,10,10,10,,,,,,,,,,,,,,,,,,,,,,,,,,,,,,,,,,,,,,,,,prac,None,None,1,1.4998038999910932,174.69803089999186,None,None,1,,,,,,,,,,,,,,208,23,Male,2022-05-04_14h48.53.657,Main,2022.1.1,59.93500648295789,
negative,yellow,2,k,None,,,,,0,11,11,11,,,,,,,,,,,,,,,,,,,,,,,,,,,,,,,,,,,,,,,,,prac,k,k,1,2.962637500007986,177.18738859999576,None,None,0,,,,,,,,,,,,,,208,23,Male,2022-05-04_14h48.53.657,Main,2022.1.1,59.93500648295789,
negative,red,2,None,None,,,,,0,12,12,12,,,,,,,,,,,,,,,,,,,,,,,,,,,,,,,,,,,,,,,,,prac,None,None,1,1.4993082000000868,182.17026949999854,None,None,1,,,,,,,,,,,,,,208,23,Male,2022-05-04_14h48.53.657,Main,2022.1.1,59.93500648295789,
positive,red,1,None,None,,,,,0,13,13,13,,,,,,,,,,,,,,,,,,,,,,,,,,,,,,,,,,,,,,,,,prac,None,None,1,1.5005459999956656,184.67202149999503,None,None,1,,,,,,,,,,,,,,208,23,Male,2022-05-04_14h48.53.657,Main,2022.1.1,59.93500648295789,
positive,blue,2,k,None,,,,,0,14,14,14,,,,,,,,,,,,,,,,,,,,,,,,,,,,,,,,,,,,,,,,,prac,k,k,1,1.2595920000021579,187.17415079999773,None,None,0,,,,,,,,,,,,,,208,23,Male,2022-05-04_14h48.53.657,Main,2022.1.1,59.93500648295789,
positive,blue,1,k,None,,,,,0,15,15,15,,,,,,,,,,,,,,,,,,,,,,,,,,,,,,,,,,,,,,,,,prac,k,k,1,1.7778648999956204,189.43298300000606,None,None,0,,,,,,,,,,,,,,208,23,Male,2022-05-04_14h48.53.657,Main,2022.1.1,59.93500648295789,
negative,blue,1,None,k,,,,,0,16,16,16,,,,,,,,,,,,,,,,,,,,,,,,,,,,,,,,,,,,,,,,,prac,None,None,1,1.503692400001455,193.23105610000493,None,None,1,,,,,,,,,,,,,,208,23,Male,2022-05-04_14h48.53.657,Main,2022.1.1,59.93500648295789,
positive,blue,2,k,None,,,,,0,17,17,17,,,,,,,,,,,,,,,,,,,,,,,,,,,,,,,,,,,,,,,,,prac,k,k,1,1.41463769999973,195.72554759999912,None,None,0,,,,,,,,,,,,,,208,23,Male,2022-05-04_14h48.53.657,Main,2022.1.1,59.93500648295789,
positive,blue,1,k,None,,,,,0,18,18,18,,,,,,,,,,,,,,,,,,,,,,,,,,,,,,,,,,,,,,,,,prac,k,k,1,2.14344759999949,198.15052379999543,None,None,0,,,,,,,,,,,,,,208,23,Male,2022-05-04_14h48.53.657,Main,2022.1.1,59.93500648295789,
positive,yellow,1,None,k,,,,,0,19,19,19,,,,,,,,,,,,,,,,,,,,,,,,,,,,,,,,,,,,,,,,,prac,None,None,1,1.5027749000000767,202.3026344999962,None,None,1,,,,,,,,,,,,,,208,23,Male,2022-05-04_14h48.53.657,Main,2022.1.1,59.93500648295789,
negative,yellow,1,k,None,,,,,1,0,20,0,,,,,,,,,,,,,,,,,,,,,,,,,,,,,,,,,,,,,,,,,prac,k,k,1,0.931519899997511,204.8065002999938,None,None,0,,,,,,,,,,,,,,208,23,Male,2022-05-04_14h48.53.657,Main,2022.1.1,59.93500648295789,
positive,red,2,None,None,,,,,1,1,21,1,,,,,,,,,,,,,,,,,,,,,,,,,,,,,,,,,,,,,,,,,prac,None,None,1,1.4942227999999886,206.74061999999685,None,None,1,,,,,,,,,,,,,,208,23,Male,2022-05-04_14h48.53.657,Main,2022.1.1,59.93500648295789,
negative,blue,2,None,k,,,,,1,2,22,2,,,,,,,,,,,,,,,,,,,,,,,,,,,,,,,,,,,,,,,,,prac,None,None,1,1.4955980999948224,209.23583079999662,None,None,1,,,,,,,,,,,,,,208,23,Male,2022-05-04_14h48.53.657,Main,2022.1.1,59.93500648295789,
positive,yellow,1,None,k,,,,,1,3,23,3,,,,,,,,,,,,,,,,,,,,,,,,,,,,,,,,,,,,,,,,,prac,None,None,1,1.4989026999974158,211.73246539999673,None,None,1,,,,,,,,,,,,,,208,23,Male,2022-05-04_14h48.53.657,Main,2022.1.1,59.93500648295789,
negative,blue,2,None,k,,,,,1,4,24,4,,,,,,,,,,,,,,,,,,,,,,,,,,,,,,,,,,,,,,,,,prac,None,None,1,1.5055458999995608,214.23108820000198,None,None,1,,,,,,,,,,,,,,208,23,Male,2022-05-04_14h48.53.657,Main,2022.1.1,59.93500648295789,
negative,blue,1,None,k,,,,,1,5,25,5,,,,,,,,,,,,,,,,,,,,,,,,,,,,,,,,,,,,,,,,,prac,None,None,1,1.4985583999950904,216.74035880000156,None,None,1,,,,,,,,,,,,,,208,23,Male,2022-05-04_14h48.53.657,Main,2022.1.1,59.93500648295789,
negative,yellow,2,k,None,,,,,1,6,26,6,,,,,,,,,,,,,,,,,,,,,,,,,,,,,,,,,,,,,,,,,prac,k,k,1,0.8574079999962123,219.23999030000414,None,None,0,,,,,,,,,,,,,,208,23,Male,2022-05-04_14h48.53.657,Main,2022.1.1,59.93500648295789,
negative,red,1,None,None,,,,,1,7,27,7,,,,,,,,,,,,,,,,,,,,,,,,,,,,,,,,,,,,,,,,,prac,None,None,1,1.5069783999933861,221.09717739999178,None,None,1,,,,,,,,,,,,,,208,23,Male,2022-05-04_14h48.53.657,Main,2022.1.1,59.93500648295789,
positive,yellow,2,None,k,,,,,1,8,28,8,,,,,,,,,,,,,,,,,,,,,,,,,,,,,,,,,,,,,,,,,prac,None,None,1,1.5097294000006514,223.60763399999996,None,None,1,,,,,,,,,,,,,,208,23,Male,2022-05-04_14h48.53.657,Main,2022.1.1,59.93500648295789,
negative,yellow,1,k,None,,,,,1,9,29,9,,,,,,,,,,,,,,,,,,,,,,,,,,,,,,,,,,,,,,,,,prac,k,k,1,0.7525762000004761,226.1196440000058,None,None,0,,,,,,,,,,,,,,208,23,Male,2022-05-04_14h48.53.657,Main,2022.1.1,59.93500648295789,
positive,yellow,2,None,k,,,,,1,10,30,10,,,,,,,,,,,,,,,,,,,,,,,,,,,,,,,,,,,,,,,,,prac,None,None,1,1.5033591000101296,227.87196920000133,None,None,1,,,,,,,,,,,,,,208,23,Male,2022-05-04_14h48.53.657,Main,2022.1.1,59.93500648295789,
negative,yellow,2,k,None,,,,,1,11,31,11,,,,,,,,,,,,,,,,,,,,,,,,,,,,,,,,,,,,,,,,,prac,k,k,1,1.048577399997157,230.37748640000063,None,None,0,,,,,,,,,,,,,,208,23,Male,2022-05-04_14h48.53.657,Main,2022.1.1,59.93500648295789,
negative,red,2,None,None,,,,,1,12,32,12,,,,,,,,,,,,,,,,,,,,,,,,,,,,,,,,,,,,,,,,,prac,None,None,1,1.5118625000031898,232.42798009999387,None,None,1,,,,,,,,,,,,,,208,23,Male,2022-05-04_14h48.53.657,Main,2022.1.1,59.93500648295789,
positive,red,1,None,None,,,,,1,13,33,13,,,,,,,,,,,,,,,,,,,,,,,,,,,,,,,,,,,,,,,,,prac,None,None,1,1.5079285999963759,234.94355070000165,None,None,1,,,,,,,,,,,,,,208,23,Male,2022-05-04_14h48.53.657,Main,2022.1.1,59.93500648295789,
positive,blue,2,k,None,,,,,1,14,34,14,,,,,,,,,,,,,,,,,,,,,,,,,,,,,,,,,,,,,,,,,prac,k,k,1,1.4051498000044376,237.45571189999464,None,None,0,,,,,,,,,,,,,,208,23,Male,2022-05-04_14h48.53.657,Main,2022.1.1,59.93500648295789,
positive,blue,1,k,None,,,,,1,15,35,15,,,,,,,,,,,,,,,,,,,,,,,,,,,,,,,,,,,,,,,,,prac,k,k,1,0.8709811999869999,239.86121360000107,None,None,0,,,,,,,,,,,,,,208,23,Male,2022-05-04_14h48.53.657,Main,2022.1.1,59.93500648295789,
negative,blue,1,None,k,,,,,1,16,36,16,,,,,,,,,,,,,,,,,,,,,,,,,,,,,,,,,,,,,,,,,prac,None,None,1,1.509808000002522,241.7366389999952,None,None,1,,,,,,,,,,,,,,208,23,Male,2022-05-04_14h48.53.657,Main,2022.1.1,59.93500648295789,
positive,blue,2,k,None,,,,,1,17,37,17,,,,,,,,,,,,,,,,,,,,,,,,,,,,,,,,,,,,,,,,,prac,k,k,1,1.0148366000066744,244.24687529999937,None,None,0,,,,,,,,,,,,,,208,23,Male,2022-05-04_14h48.53.657,Main,2022.1.1,59.93500648295789,
positive,blue,1,k,None,,,,,1,18,38,18,,,,,,,,,,,,,,,,,,,,,,,,,,,,,,,,,,,,,,,,,prac,k,k,1,0.9985109999979613,246.266512400005,None,None,0,,,,,,,,,,,,,,208,23,Male,2022-05-04_14h48.53.657,Main,2022.1.1,59.93500648295789,
positive,yellow,1,None,k,,,,,1,19,39,19,,,,,,,,,,,,,,,,,,,,,,,,,,,,,,,,,,,,,,,,,prac,None,None,1,1.5127308000082849,248.26219369999308,None,None,1,,,,,,,,,,,,,,208,23,Male,2022-05-04_14h48.53.657,Main,2022.1.1,59.93500648295789,
,,,,,,,,,,,,,,,,,,,,,,,,,,,,,,,,,,,,,,,,,,,,,,,,,,,,,,,,,,,,,,250.79192329999933,None,250.79192329999933,None,0.1287037,-0.08981481,0,0,0,0.009929959996952675,None,,,208,23,Male,2022-05-04_14h48.53.657,Main,2022.1.1,59.93500648295789,
negative,yellow,2,k,None,,,,,,,,,0,0,0,0,,,,,,,,,,,,,,,,,,,,,,,,,,,,,,,,,252.52603549999185,None,252.52603549999185,None,main,k,k,1,0.9613405999989482,254.58200120000402,None,None,0,,,,,,,,,,,,,,208,23,Male,2022-05-04_14h48.53.657,Main,2022.1.1,59.93500648295789,
positive,red,1,None,None,,,,,,,,,0,1,1,1,,,,,,,,,,,,,,,,,,,,,,,,,,,,,,,,,,,,,main,None,None,1,1.5061870000063209,256.5456821999978,None,None,1,,,,,,,,,,,,,,208,23,Male,2022-05-04_14h48.53.657,Main,2022.1.1,59.93500648295789,
positive,blue,2,k,None,,,,,,,,,0,2,2,2,,,,,,,,,,,,,,,,,,,,,,,,,,,,,,,,,,,,,main,k,k,1,0.9608807000040542,259.05531179999525,None,None,0,,,,,,,,,,,,,,208,23,Male,2022-05-04_14h48.53.657,Main,2022.1.1,59.93500648295789,
positive,blue,1,k,None,,,,,,,,,0,3,3,3,,,,,,,,,,,,,,,,,,,,,,,,,,,,,,,,,,,,,main,k,k,1,0.9001049999933457,261.01736680000613,None,None,0,,,,,,,,,,,,,,208,23,Male,2022-05-04_14h48.53.657,Main,2022.1.1,59.93500648295789,
negative,yellow,2,k,None,,,,,,,,,0,4,4,4,,,,,,,,,,,,,,,,,,,,,,,,,,,,,,,,,,,,,main,k,k,1,0.8517867000045953,262.91972550000355,None,None,0,,,,,,,,,,,,,,208,23,Male,2022-05-04_14h48.53.657,Main,2022.1.1,59.93500648295789,
positive,yellow,2,None,k,,,,,,,,,0,5,5,5,,,,,,,,,,,,,,,,,,,,,,,,,,,,,,,,,,,,,main,None,None,1,1.498776699998416,264.7724873999978,None,None,1,,,,,,,,,,,,,,208,23,Male,2022-05-04_14h48.53.657,Main,2022.1.1,59.93500648295789,
negative,blue,2,None,k,,,,,,,,,0,6,6,6,,,,,,,,,,,,,,,,,,,,,,,,,,,,,,,,,,,,,main,None,None,1,1.5035452000010991,267.2733050999959,None,None,1,,,,,,,,,,,,,,208,23,Male,2022-05-04_14h48.53.657,Main,2022.1.1,59.93500648295789,
positive,red,2,None,None,,,,,,,,,0,7,7,7,,,,,,,,,,,,,,,,,,,,,,,,,,,,,,,,,,,,,main,None,None,1,1.498081199999433,269.78108800000336,None,None,1,,,,,,,,,,,,,,208,23,Male,2022-05-04_14h48.53.657,Main,2022.1.1,59.93500648295789,
positive,yellow,1,None,k,,,,,,,,,0,8,8,8,,,,,,,,,,,,,,,,,,,,,,,,,,,,,,,,,,,,,main,None,None,1,1.497898300003726,272.2806542000035,None,None,1,,,,,,,,,,,,,,208,23,Male,2022-05-04_14h48.53.657,Main,2022.1.1,59.93500648295789,
negative,red,1,None,None,,,,,,,,,0,9,9,9,,,,,,,,,,,,,,,,,,,,,,,,,,,,,,,,,,,,,main,None,None,1,1.4950814999901922,274.7798029999976,None,None,1,,,,,,,,,,,,,,208,23,Male,2022-05-04_14h48.53.657,Main,2022.1.1,59.93500648295789,
positive,yellow,1,None,k,,,,,,,,,0,10,10,10,,,,,,,,,,,,,,,,,,,,,,,,,,,,,,,,,,,,,main,None,None,1,1.5101786000013817,277.27414029999636,None,None,1,,,,,,,,,,,,,,208,23,Male,2022-05-04_14h48.53.657,Main,2022.1.1,59.93500648295789,
negative,yellow,1,k,None,,,,,,,,,0,11,11,11,,,,,,,,,,,,,,,,,,,,,,,,,,,,,,,,,,,,,main,k,k,1,1.572790599995642,279.7877662999963,None,None,0,,,,,,,,,,,,,,208,23,Male,2022-05-04_14h48.53.657,Main,2022.1.1,59.93500648295789,
negative,yellow,1,k,None,,,,,,,,,0,12,12,12,,,,,,,,,,,,,,,,,,,,,,,,,,,,,,,,,,,,,main,k,k,1,1.0917385000066133,283.37368449999485,None,None,0,,,,,,,,,,,,,,208,23,Male,2022-05-04_14h48.53.657,Main,2022.1.1,59.93500648295789,
negative,red,2,None,None,,,,,,,,,0,13,13,13,,,,,,,,,,,,,,,,,,,,,,,,,,,,,,,,,,,,,main,None,None,1,1.508975000004284,285.46739279999747,None,None,1,,,,,,,,,,,,,,208,23,Male,2022-05-04_14h48.53.657,Main,2022.1.1,59.93500648295789,
positive,yellow,2,None,k,,,,,,,,,0,14,14,14,,,,,,,,,,,,,,,,,,,,,,,,,,,,,,,,,,,,,main,None,None,1,1.4937116999935824,287.97883710000315,None,None,1,,,,,,,,,,,,,,208,23,Male,2022-05-04_14h48.53.657,Main,2022.1.1,59.93500648295789,
positive,blue,1,k,None,,,,,,,,,0,15,15,15,,,,,,,,,,,,,,,,,,,,,,,,,,,,,,,,,,,,,main,k,k,1,0.7474691999959759,290.47358219999296,None,None,0,,,,,,,,,,,,,,208,23,Male,2022-05-04_14h48.53.657,Main,2022.1.1,59.93500648295789,
negative,blue,1,None,k,,,,,,,,,0,16,16,16,,,,,,,,,,,,,,,,,,,,,,,,,,,,,,,,,,,,,main,None,None,1,1.4968318000028376,292.2213183999993,None,None,1,,,,,,,,,,,,,,208,23,Male,2022-05-04_14h48.53.657,Main,2022.1.1,59.93500648295789,
positive,blue,2,k,None,,,,,,,,,0,17,17,17,,,,,,,,,,,,,,,,,,,,,,,,,,,,,,,,,,,,,main,k,k,1,0.7485163000092143,294.72001259999524,None,None,0,,,,,,,,,,,,,,208,23,Male,2022-05-04_14h48.53.657,Main,2022.1.1,59.93500648295789,
negative,blue,2,None,k,,,,,,,,,0,18,18,18,,,,,,,,,,,,,,,,,,,,,,,,,,,,,,,,,,,,,main,None,None,1,1.513933199996245,296.47225989999424,None,None,1,,,,,,,,,,,,,,208,23,Male,2022-05-04_14h48.53.657,Main,2022.1.1,59.93500648295789,
negative,blue,1,None,k,,,,,,,,,0,19,19,19,,,,,,,,,,,,,,,,,,,,,,,,,,,,,,,,,,,,,main,None,None,1,1.5068611000024248,298.98516409999866,None,None,1,,,,,,,,,,,,,,208,23,Male,2022-05-04_14h48.53.657,Main,2022.1.1,59.93500648295789,
negative,blue,1,None,k,,,,,,,,,0,20,20,20,,,,,,,,,,,,,,,,,,,,,,,,,,,,,,,,,,,,,main,None,None,1,1.5088123000023188,301.4963390000048,None,None,1,,,,,,,,,,,,,,208,23,Male,2022-05-04_14h48.53.657,Main,2022.1.1,59.93500648295789,
negative,blue,2,None,k,,,,,,,,,0,21,21,21,,,,,,,,,,,,,,,,,,,,,,,,,,,,,,,,,,,,,main,None,None,1,1.505082499992568,304.00694120000117,None,None,1,,,,,,,,,,,,,,208,23,Male,2022-05-04_14h48.53.657,Main,2022.1.1,59.93500648295789,
negative,red,1,None,None,,,,,,,,,0,22,22,22,,,,,,,,,,,,,,,,,,,,,,,,,,,,,,,,,,,,,main,None,None,1,1.5075967999873683,306.5121126000013,None,None,1,,,,,,,,,,,,,,208,23,Male,2022-05-04_14h48.53.657,Main,2022.1.1,59.93500648295789,
positive,red,2,None,None,,,,,,,,,0,23,23,23,,,,,,,,,,,,,,,,,,,,,,,,,,,,,,,,,,,,,main,None,None,1,1.503623399999924,309.0203720999998,None,None,1,,,,,,,,,,,,,,208,23,Male,2022-05-04_14h48.53.657,Main,2022.1.1,59.93500648295789,
negative,red,2,None,None,,,,,,,,,0,24,24,24,,,,,,,,,,,,,,,,,,,,,,,,,,,,,,,,,,,,,main,None,None,1,1.511865399996168,311.5276134000014,None,None,1,,,,,,,,,,,,,,208,23,Male,2022-05-04_14h48.53.657,Main,2022.1.1,59.93500648295789,
positive,blue,2,k,None,,,,,,,,,0,25,25,25,,,,,,,,,,,,,,,,,,,,,,,,,,,,,,,,,,,,,main,k,k,1,1.208584799998789,314.0415328999952,None,None,0,,,,,,,,,,,,,,208,23,Male,2022-05-04_14h48.53.657,Main,2022.1.1,59.93500648295789,
negative,yellow,1,k,None,,,,,,,,,0,26,26,26,,,,,,,,,,,,,,,,,,,,,,,,,,,,,,,,,,,,,main,k,k,1,1.0426607999979751,316.2500560000044,None,None,0,,,,,,,,,,,,,,208,23,Male,2022-05-04_14h48.53.657,Main,2022.1.1,59.93500648295789,
positive,blue,2,k,None,,,,,,,,,0,27,27,27,,,,,,,,,,,,,,,,,,,,,,,,,,,,,,,,,,,,,main,k,k,1,0.8889452000003075,318.2964956999931,None,None,0,,,,,,,,,,,,,,208,23,Male,2022-05-04_14h48.53.657,Main,2022.1.1,59.93500648295789,
negative,blue,2,None,k,,,,,,,,,0,28,28,28,,,,,,,,,,,,,,,,,,,,,,,,,,,,,,,,,,,,,main,None,None,1,1.4970097000041278,320.1870656999963,None,None,1,,,,,,,,,,,,,,208,23,Male,2022-05-04_14h48.53.657,Main,2022.1.1,59.93500648295789,
positive,red,1,None,None,,,,,,,,,0,29,29,29,,,,,,,,,,,,,,,,,,,,,,,,,,,,,,,,,,,,,main,None,None,1,1.504780600007507,322.6830997999932,None,None,1,,,,,,,,,,,,,,208,23,Male,2022-05-04_14h48.53.657,Main,2022.1.1,59.93500648295789,
positive,blue,1,k,None,,,,,,,,,0,30,30,30,,,,,,,,,,,,,,,,,,,,,,,,,,,,,,,,,,,,,main,k,k,1,1.0630133999948157,325.19212649999827,None,None,0,,,,,,,,,,,,,,208,23,Male,2022-05-04_14h48.53.657,Main,2022.1.1,59.93500648295789,
positive,yellow,1,None,k,,,,,,,,,0,31,31,31,,,,,,,,,,,,,,,,,,,,,,,,,,,,,,,,,,,,,main,None,None,1,1.5063660000014352,327.2563702000043,None,None,1,,,,,,,,,,,,,,208,23,Male,2022-05-04_14h48.53.657,Main,2022.1.1,59.93500648295789,
negative,yellow,2,k,None,,,,,,,,,0,32,32,32,,,,,,,,,,,,,,,,,,,,,,,,,,,,,,,,,,,,,main,k,k,1,0.8688285999960499,329.76347499999974,None,None,0,,,,,,,,,,,,,,208,23,Male,2022-05-04_14h48.53.657,Main,2022.1.1,59.93500648295789,
negative,blue,1,None,k,,,,,,,,,0,33,33,33,,,,,,,,,,,,,,,,,,,,,,,,,,,,,,,,,,,,,main,None,None,1,1.5034337000106461,331.6354568999959,None,None,1,,,,,,,,,,,,,,208,23,Male,2022-05-04_14h48.53.657,Main,2022.1.1,59.93500648295789,
positive,blue,1,k,None,,,,,,,,,0,34,34,34,,,,,,,,,,,,,,,,,,,,,,,,,,,,,,,,,,,,,main,k,k,1,1.2951635000063106,334.1419973000011,None,None,0,,,,,,,,,,,,,,208,23,Male,2022-05-04_14h48.53.657,Main,2022.1.1,59.93500648295789,
negative,yellow,1,k,None,,,,,,,,,0,35,35,35,,,,,,,,,,,,,,,,,,,,,,,,,,,,,,,,,,,,,main,k,k,1,0.8457065999973565,336.43840090000595,None,None,0,,,,,,,,,,,,,,208,23,Male,2022-05-04_14h48.53.657,Main,2022.1.1,59.93500648295789,
positive,yellow,2,None,k,,,,,,,,,0,36,36,36,,,,,,,,,,,,,,,,,,,,,,,,,,,,,,,,,,,,,main,None,None,1,1.5065118000056827,338.2834794999944,None,None,1,,,,,,,,,,,,,,208,23,Male,2022-05-04_14h48.53.657,Main,2022.1.1,59.93500648295789,
positive,yellow,2,None,k,,,,,,,,,0,37,37,37,,,,,,,,,,,,,,,,,,,,,,,,,,,,,,,,,,,,,main,None,None,1,1.508502899989253,340.7934125000029,None,None,1,,,,,,,,,,,,,,208,23,Male,2022-05-04_14h48.53.657,Main,2022.1.1,59.93500648295789,
negative,yellow,2,k,None,,,,,,,,,0,38,38,38,,,,,,,,,,,,,,,,,,,,,,,,,,,,,,,,,,,,,main,k,k,1,0.7458721000002697,343.30361370000173,None,None,0,,,,,,,,,,,,,,208,23,Male,2022-05-04_14h48.53.657,Main,2022.1.1,59.93500648295789,
positive,yellow,1,None,k,,,,,,,,,0,39,39,39,,,,,,,,,,,,,,,,,,,,,,,,,,,,,,,,,,,,,main,None,None,1,1.5059948999987682,345.0534017000027,None,None,1,,,,,,,,,,,,,,208,23,Male,2022-05-04_14h48.53.657,Main,2022.1.1,59.93500648295789,
negative,yellow,2,k,None,,,,,,,,,0,40,40,40,,,,,,,,,,,,,,,,,,,,,,,,,,,,,,,,,,,,,main,k,k,1,0.7889483000035398,347.55987329999334,None,None,0,,,,,,,,,,,,,,208,23,Male,2022-05-04_14h48.53.657,Main,2022.1.1,59.93500648295789,
positive,blue,2,k,None,,,,,,,,,0,41,41,41,,,,,,,,,,,,,,,,,,,,,,,,,,,,,,,,,,,,,main,k,k,1,0.8499325000011595,349.3512003999931,None,None,0,,,,,,,,,,,,,,208,23,Male,2022-05-04_14h48.53.657,Main,2022.1.1,59.93500648295789,
positive,blue,2,k,None,,,,,,,,,0,42,42,42,,,,,,,,,,,,,,,,,,,,,,,,,,,,,,,,,,,,,main,k,k,1,1.0747552999964682,351.2023868999968,None,None,0,,,,,,,,,,,,,,208,23,Male,2022-05-04_14h48.53.657,Main,2022.1.1,59.93500648295789,
negative,blue,2,None,k,,,,,,,,,0,43,43,43,,,,,,,,,,,,,,,,,,,,,,,,,,,,,,,,,,,,,main,None,None,1,1.5098302999977022,353.28072759999486,None,None,1,,,,,,,,,,,,,,208,23,Male,2022-05-04_14h48.53.657,Main,2022.1.1,59.93500648295789,
negative,red,1,None,None,,,,,,,,,0,44,44,44,,,,,,,,,,,,,,,,,,,,,,,,,,,,,,,,,,,,,main,None,None,1,1.4988441000023158,355.79106899999897,None,None,1,,,,,,,,,,,,,,208,23,Male,2022-05-04_14h48.53.657,Main,2022.1.1,59.93500648295789,
negative,yellow,1,k,None,,,,,,,,,0,45,45,45,,,,,,,,,,,,,,,,,,,,,,,,,,,,,,,,,,,,,main,k,k,1,0.8251214000047185,358.29204119999486,None,None,0,,,,,,,,,,,,,,208,23,Male,2022-05-04_14h48.53.657,Main,2022.1.1,59.93500648295789,
negative,yellow,1,k,None,,,,,,,,,0,46,46,46,,,,,,,,,,,,,,,,,,,,,,,,,,,,,,,,,,,,,main,k,k,1,0.7228172000031918,360.1188703999942,None,None,0,,,,,,,,,,,,,,208,23,Male,2022-05-04_14h48.53.657,Main,2022.1.1,59.93500648295789,
positive,red,1,None,None,,,,,,,,,0,47,47,47,,,,,,,,,,,,,,,,,,,,,,,,,,,,,,,,,,,,,main,None,None,1,1.5113877999974648,361.8426558999927,None,None,1,,,,,,,,,,,,,,208,23,Male,2022-05-04_14h48.53.657,Main,2022.1.1,59.93500648295789,
positive,yellow,1,None,k,,,,,,,,,0,48,48,48,,,,,,,,,,,,,,,,,,,,,,,,,,,,,,,,,,,,,main,None,None,1,1.5056489999988116,364.35660270000517,None,None,1,,,,,,,,,,,,,,208,23,Male,2022-05-04_14h48.53.657,Main,2022.1.1,59.93500648295789,
negative,blue,1,None,k,,,,,,,,,0,49,49,49,,,,,,,,,,,,,,,,,,,,,,,,,,,,,,,,,,,,,main,None,None,1,1.5061565000069095,366.86551289999625,None,None,1,,,,,,,,,,,,,,208,23,Male,2022-05-04_14h48.53.657,Main,2022.1.1,59.93500648295789,
positive,yellow,2,None,k,,,,,,,,,0,50,50,50,,,,,,,,,,,,,,,,,,,,,,,,,,,,,,,,,,,,,main,None,None,1,1.5026309000095353,369.3737887000025,None,None,1,,,,,,,,,,,,,,208,23,Male,2022-05-04_14h48.53.657,Main,2022.1.1,59.93500648295789,
negative,blue,1,None,k,,,,,,,,,0,51,51,51,,,,,,,,,,,,,,,,,,,,,,,,,,,,,,,,,,,,,main,None,None,1,1.4999473000061698,371.8758921999979,None,None,1,,,,,,,,,,,,,,208,23,Male,2022-05-04_14h48.53.657,Main,2022.1.1,59.93500648295789,
positive,red,2,None,None,,,,,,,,,0,52,52,52,,,,,,,,,,,,,,,,,,,,,,,,,,,,,,,,,,,,,main,None,None,1,1.510835599998245,374.37784349999856,None,None,1,,,,,,,,,,,,,,208,23,Male,2022-05-04_14h48.53.657,Main,2022.1.1,59.93500648295789,
positive,yellow,2,None,k,,,,,,,,,0,53,53,53,,,,,,,,,,,,,,,,,,,,,,,,,,,,,,,,,,,,,main,None,None,1,1.5134515999961877,376.89204950000567,None,None,1,,,,,,,,,,,,,,208,23,Male,2022-05-04_14h48.53.657,Main,2022.1.1,59.93500648295789,
negative,red,2,None,None,,,,,,,,,0,54,54,54,,,,,,,,,,,,,,,,,,,,,,,,,,,,,,,,,,,,,main,None,None,1,1.5009456999978283,379.4082478000055,None,None,1,,,,,,,,,,,,,,208,23,Male,2022-05-04_14h48.53.657,Main,2022.1.1,59.93500648295789,
positive,yellow,1,None,k,,,,,,,,,0,55,55,55,,,,,,,,,,,,,,,,,,,,,,,,,,,,,,,,,,,,,main,None,None,1,1.502774299995508,381.91125390000525,None,None,1,,,,,,,,,,,,,,208,23,Male,2022-05-04_14h48.53.657,Main,2022.1.1,59.93500648295789,
negative,blue,2,None,k,,,,,,,,,0,56,56,56,,,,,,,,,,,,,,,,,,,,,,,,,,,,,,,,,,,,,main,None,None,1,1.5072023999964586,384.4175353000028,None,None,1,,,,,,,,,,,,,,208,23,Male,2022-05-04_14h48.53.657,Main,2022.1.1,59.93500648295789,
positive,blue,1,k,None,,,,,,,,,0,57,57,57,,,,,,,,,,,,,,,,,,,,,,,,,,,,,,,,,,,,,main,k,k,1,0.8959711000061361,386.92437249999784,None,None,0,,,,,,,,,,,,,,208,23,Male,2022-05-04_14h48.53.657,Main,2022.1.1,59.93500648295789,
positive,blue,1,k,None,,,,,,,,,0,58,58,58,,,,,,,,,,,,,,,,,,,,,,,,,,,,,,,,,,,,,main,k,k,1,0.6438368000090122,388.8240028,None,None,0,,,,,,,,,,,,,,208,23,Male,2022-05-04_14h48.53.657,Main,2022.1.1,59.93500648295789,
negative,yellow,2,k,None,,,,,,,,,0,59,59,59,,,,,,,,,,,,,,,,,,,,,,,,,,,,,,,,,,,,,main,k,k,1,0.7804087999975309,390.47092839999823,None,None,0,,,,,,,,,,,,,,208,23,Male,2022-05-04_14h48.53.657,Main,2022.1.1,59.93500648295789,
positive,red,2,None,None,,,,,,,,,0,60,60,60,,,,,,,,,,,,,,,,,,,,,,,,,,,,,,,,,,,,,main,None,None,1,1.5065029999968829,392.2532188000041,None,None,1,,,,,,,,,,,,,,208,23,Male,2022-05-04_14h48.53.657,Main,2022.1.1,59.93500648295789,
negative,yellow,1,k,None,,,,,,,,,0,61,61,61,,,,,,,,,,,,,,,,,,,,,,,,,,,,,,,,,,,,,main,k,k,1,0.7804622999974526,394.7601106999937,None,None,0,,,,,,,,,,,,,,208,23,Male,2022-05-04_14h48.53.657,Main,2022.1.1,59.93500648295789,
negative,red,1,None,None,,,,,,,,,0,62,62,62,,,,,,,,,,,,,,,,,,,,,,,,,,,,,,,,,,,,,main,None,None,1,1.50142539999797,396.5416619000025,None,None,1,,,,,,,,,,,,,,208,23,Male,2022-05-04_14h48.53.657,Main,2022.1.1,59.93500648295789,
negative,blue,1,None,k,,,,,,,,,0,63,63,63,,,,,,,,,,,,,,,,,,,,,,,,,,,,,,,,,,,,,main,None,None,1,1.5026633999950718,399.0460866999929,None,None,1,,,,,,,,,,,,,,208,23,Male,2022-05-04_14h48.53.657,Main,2022.1.1,59.93500648295789,
positive,blue,2,k,None,,,,,,,,,0,64,64,64,,,,,,,,,,,,,,,,,,,,,,,,,,,,,,,,,,,,,main,k,k,1,0.6876974000042537,401.5506638999941,None,None,0,,,,,,,,,,,,,,208,23,Male,2022-05-04_14h48.53.657,Main,2022.1.1,59.93500648295789,
negative,yellow,2,k,None,,,,,,,,,0,65,65,65,,,,,,,,,,,,,,,,,,,,,,,,,,,,,,,,,,,,,main,k,k,1,0.7879230999969877,403.24198669999896,None,None,0,,,,,,,,,,,,,,208,23,Male,2022-05-04_14h48.53.657,Main,2022.1.1,59.93500648295789,
positive,yellow,2,None,k,,,,,,,,,0,66,66,66,,,,,,,,,,,,,,,,,,,,,,,,,,,,,,,,,,,,,main,None,None,1,1.5094106000033207,405.0308853000024,None,None,1,,,,,,,,,,,,,,208,23,Male,2022-05-04_14h48.53.657,Main,2022.1.1,59.93500648295789,
positive,yellow,2,None,k,,,,,,,,,0,67,67,67,,,,,,,,,,,,,,,,,,,,,,,,,,,,,,,,,,,,,main,None,None,1,1.4995786999934353,407.5396749999927,None,None,1,,,,,,,,,,,,,,208,23,Male,2022-05-04_14h48.53.657,Main,2022.1.1,59.93500648295789,
positive,red,1,None,None,,,,,,,,,0,68,68,68,,,,,,,,,,,,,,,,,,,,,,,,,,,,,,,,,,,,,main,None,None,1,1.5007649000035599,410.0408951999998,None,None,1,,,,,,,,,,,,,,208,23,Male,2022-05-04_14h48.53.657,Main,2022.1.1,59.93500648295789,
positive,yellow,1,None,k,,,,,,,,,0,69,69,69,,,,,,,,,,,,,,,,,,,,,,,,,,,,,,,,,,,,,main,None,None,1,1.5071047999954317,412.54524110000057,None,None,1,,,,,,,,,,,,,,208,23,Male,2022-05-04_14h48.53.657,Main,2022.1.1,59.93500648295789,
negative,yellow,2,k,None,,,,,,,,,0,70,70,70,,,,,,,,,,,,,,,,,,,,,,,,,,,,,,,,,,,,,main,k,k,1,0.6623147000063909,415.0536587999959,None,None,0,,,,,,,,,,,,,,208,23,Male,2022-05-04_14h48.53.657,Main,2022.1.1,59.93500648295789,
positive,yellow,1,None,k,,,,,,,,,0,71,71,71,,,,,,,,,,,,,,,,,,,,,,,,,,,,,,,,,,,,,main,None,None,1,1.5037510999973165,416.7230286999984,None,None,1,,,,,,,,,,,,,,208,23,Male,2022-05-04_14h48.53.657,Main,2022.1.1,59.93500648295789,
negative,blue,1,None,k,,,,,,,,,0,72,72,72,,,,,,,,,,,,,,,,,,,,,,,,,,,,,,,,,,,,,main,None,None,1,1.4996665000071516,419.22763350000605,None,None,1,,,,,,,,,,,,,,208,23,Male,2022-05-04_14h48.53.657,Main,2022.1.1,59.93500648295789,
negative,red,2,None,None,,,,,,,,,0,73,73,73,,,,,,,,,,,,,,,,,,,,,,,,,,,,,,,,,,,,,main,None,None,1,1.5016271999920718,421.72913989999506,None,None,1,,,,,,,,,,,,,,208,23,Male,2022-05-04_14h48.53.657,Main,2022.1.1,59.93500648295789,
positive,blue,2,k,None,,,,,,,,,0,74,74,74,,,,,,,,,,,,,,,,,,,,,,,,,,,,,,,,,,,,,main,k,k,1,0.9458245999994688,424.2312445999996,None,None,0,,,,,,,,,,,,,,208,23,Male,2022-05-04_14h48.53.657,Main,2022.1.1,59.93500648295789,
negative,blue,2,None,k,,,,,,,,,0,75,75,75,,,,,,,,,,,,,,,,,,,,,,,,,,,,,,,,,,,,,main,None,None,1,1.5005288000102155,426.1794430000009,None,None,1,,,,,,,,,,,,,,208,23,Male,2022-05-04_14h48.53.657,Main,2022.1.1,59.93500648295789,
negative,blue,2,None,k,,,,,,,,,0,76,76,76,,,,,,,,,,,,,,,,,,,,,,,,,,,,,,,,,,,,,main,None,None,1,1.5052996000013081,428.68125639999926,None,None,1,,,,,,,,,,,,,,208,23,Male,2022-05-04_14h48.53.657,Main,2022.1.1,59.93500648295789,
negative,yellow,1,k,None,,,,,,,,,0,77,77,77,,,,,,,,,,,,,,,,,,,,,,,,,,,,,,,,,,,,,main,k,k,1,3.098039999997127,431.18647699999565,None,None,0,,,,,,,,,,,,,,208,23,Male,2022-05-04_14h48.53.657,Main,2022.1.1,59.93500648295789,
positive,blue,1,k,None,,,,,,,,,0,78,78,78,,,,,,,,,,,,,,,,,,,,,,,,,,,,,,,,,,,,,main,k,k,1,0.9161671000038041,436.28745229999186,None,None,0,,,,,,,,,,,,,,208,23,Male,2022-05-04_14h48.53.657,Main,2022.1.1,59.93500648295789,
positive,blue,1,k,None,,,,,,,,,0,79,79,79,,,,,,,,,,,,,,,,,,,,,,,,,,,,,,,,,,,,,main,k,k,1,0.7520363999938127,438.20450999999593,None,None,0,,,,,,,,,,,,,,208,23,Male,2022-05-04_14h48.53.657,Main,2022.1.1,59.93500648295789,
positive,red,2,None,None,,,,,,,,,0,80,80,80,,,,,,,,,,,,,,,,,,,,,,,,,,,,,,,,,,,,,main,None,None,1,1.5082963000022573,439.9607655,None,None,1,,,,,,,,,,,,,,208,23,Male,2022-05-04_14h48.53.657,Main,2022.1.1,59.93500648295789,
positive,yellow,2,None,k,,,,,,,,,0,81,81,81,,,,,,,,,,,,,,,,,,,,,,,,,,,,,,,,,,,,,main,None,None,1,1.4983846999966772,442.4680655999982,None,None,1,,,,,,,,,,,,,,208,23,Male,2022-05-04_14h48.53.657,Main,2022.1.1,59.93500648295789,
positive,blue,1,k,None,,,,,,,,,0,82,82,82,,,,,,,,,,,,,,,,,,,,,,,,,,,,,,,,,,,,,main,k,k,1,0.9733070999936899,444.96783769999456,None,None,0,,,,,,,,,,,,,,208,23,Male,2022-05-04_14h48.53.657,Main,2022.1.1,59.93500648295789,
negative,yellow,2,k,None,,,,,,,,,0,83,83,83,,,,,,,,,,,,,,,,,,,,,,,,,,,,,,,,,,,,,main,k,k,1,0.7318229999946197,446.944416600003,None,None,0,,,,,,,,,,,,,,208,23,Male,2022-05-04_14h48.53.657,Main,2022.1.1,59.93500648295789,
positive,blue,2,k,None,,,,,,,,,0,84,84,84,,,,,,,,,,,,,,,,,,,,,,,,,,,,,,,,,,,,,main,k,k,1,1.1907234999962384,448.677929700003,None,None,0,,,,,,,,,,,,,,208,23,Male,2022-05-04_14h48.53.657,Main,2022.1.1,59.93500648295789,
positive,yellow,1,None,k,,,,,,,,,0,85,85,85,,,,,,,,,,,,,,,,,,,,,,,,,,,,,,,,,,,,,main,None,k,0,0.8535437000100501,450.86870340000314,None,None,1,,,,,,,,,,,,,,208,23,Male,2022-05-04_14h48.53.657,Main,2022.1.1,59.93500648295789,
positive,blue,2,k,None,,,,,,,,,0,86,86,86,,,,,,,,,,,,,,,,,,,,,,,,,,,,,,,,,,,,,main,k,k,1,1.0045818999933545,453.73530709999613,None,None,0,,,,,,,,,,,,,,208,23,Male,2022-05-04_14h48.53.657,Main,2022.1.1,59.93500648295789,
positive,blue,1,k,None,,,,,,,,,0,87,87,87,,,,,,,,,,,,,,,,,,,,,,,,,,,,,,,,,,,,,main,k,k,1,1.16399659999297,455.74265580000065,None,None,0,,,,,,,,,,,,,,208,23,Male,2022-05-04_14h48.53.657,Main,2022.1.1,59.93500648295789,
negative,yellow,2,k,None,,,,,,,,,0,88,88,88,,,,,,,,,,,,,,,,,,,,,,,,,,,,,,,,,,,,,main,k,k,1,0.7474032000027364,457.90801280000596,None,None,0,,,,,,,,,,,,,,208,23,Male,2022-05-04_14h48.53.657,Main,2022.1.1,59.93500648295789,
negative,blue,2,None,k,,,,,,,,,0,89,89,89,,,,,,,,,,,,,,,,,,,,,,,,,,,,,,,,,,,,,main,None,None,1,1.5005429000011645,459.6574959999998,None,None,1,,,,,,,,,,,,,,208,23,Male,2022-05-04_14h48.53.657,Main,2022.1.1,59.93500648295789,
positive,yellow,2,None,k,,,,,,,,,0,90,90,90,,,,,,,,,,,,,,,,,,,,,,,,,,,,,,,,,,,,,main,None,None,1,1.495088299998315,462.1587465000048,None,None,1,,,,,,,,,,,,,,208,23,Male,2022-05-04_14h48.53.657,Main,2022.1.1,59.93500648295789,
negative,yellow,1,k,None,,,,,,,,,0,91,91,91,,,,,,,,,,,,,,,,,,,,,,,,,,,,,,,,,,,,,main,k,k,1,1.3117382999917027,464.65582359999826,None,None,0,,,,,,,,,,,,,,208,23,Male,2022-05-04_14h48.53.657,Main,2022.1.1,59.93500648295789,
negative,red,2,None,None,,,,,,,,,0,92,92,92,,,,,,,,,,,,,,,,,,,,,,,,,,,,,,,,,,,,,main,None,None,1,1.509876299998723,466.9666192000004,None,None,1,,,,,,,,,,,,,,208,23,Male,2022-05-04_14h48.53.657,Main,2022.1.1,59.93500648295789,
negative,blue,2,None,k,,,,,,,,,0,93,93,93,,,,,,,,,,,,,,,,,,,,,,,,,,,,,,,,,,,,,main,None,None,1,1.5072343999927398,469.47973049999564,None,None,1,,,,,,,,,,,,,,208,23,Male,2022-05-04_14h48.53.657,Main,2022.1.1,59.93500648295789,
negative,blue,1,None,k,,,,,,,,,0,94,94,94,,,,,,,,,,,,,,,,,,,,,,,,,,,,,,,,,,,,,main,None,None,1,1.5036685000086436,471.99079789999814,None,None,1,,,,,,,,,,,,,,208,23,Male,2022-05-04_14h48.53.657,Main,2022.1.1,59.93500648295789,
negative,blue,1,None,k,,,,,,,,,0,95,95,95,,,,,,,,,,,,,,,,,,,,,,,,,,,,,,,,,,,,,main,None,None,1,1.5037083999923198,474.4962780999922,None,None,1,,,,,,,,,,,,,,208,23,Male,2022-05-04_14h48.53.657,Main,2022.1.1,59.93500648295789,
negative,red,1,None,None,,,,,,,,,0,96,96,96,,,,,,,,,,,,,,,,,,,,,,,,,,,,,,,,,,,,,main,None,None,1,1.5104076999996323,477.005819900005,None,None,1,,,,,,,,,,,,,,208,23,Male,2022-05-04_14h48.53.657,Main,2022.1.1,59.93500648295789,
positive,yellow,1,None,k,,,,,,,,,0,97,97,97,,,,,,,,,,,,,,,,,,,,,,,,,,,,,,,,,,,,,main,None,None,1,1.4995603999996092,479.5153508999938,None,None,1,,,,,,,,,,,,,,208,23,Male,2022-05-04_14h48.53.657,Main,2022.1.1,59.93500648295789,
negative,yellow,1,k,None,,,,,,,,,0,98,98,98,,,,,,,,,,,,,,,,,,,,,,,,,,,,,,,,,,,,,main,k,k,1,0.8405456999898888,482.0151397000009,None,None,0,,,,,,,,,,,,,,208,23,Male,2022-05-04_14h48.53.657,Main,2022.1.1,59.93500648295789,
positive,red,1,None,None,,,,,,,,,0,99,99,99,,,,,,,,,,,,,,,,,,,,,,,,,,,,,,,,,,,,,main,None,None,1,1.5104736999928718,483.8588773999945,None,None,1,,,,,,,,,,,,,,208,23,Male,2022-05-04_14h48.53.657,Main,2022.1.1,59.93500648295789,
positive,blue,1,k,None,,,,,,,,,0,100,100,100,,,,,,,,,,,,,,,,,,,,,,,,,,,,,,,,,,,,,main,k,k,1,1.1316858000063803,486.37176900000486,None,None,0,,,,,,,,,,,,,,208,23,Male,2022-05-04_14h48.53.657,Main,2022.1.1,59.93500648295789,
negative,yellow,1,k,None,,,,,,,,,0,101,101,101,,,,,,,,,,,,,,,,,,,,,,,,,,,,,,,,,,,,,main,k,k,1,0.7979398999887053,488.5050715999969,None,None,0,,,,,,,,,,,,,,208,23,Male,2022-05-04_14h48.53.657,Main,2022.1.1,59.93500648295789,
negative,blue,2,None,k,,,,,,,,,0,102,102,102,,,,,,,,,,,,,,,,,,,,,,,,,,,,,,,,,,,,,main,None,None,1,1.5101521000033244,490.30412200000137,None,None,1,,,,,,,,,,,,,,208,23,Male,2022-05-04_14h48.53.657,Main,2022.1.1,59.93500648295789,
negative,yellow,2,k,None,,,,,,,,,0,103,103,103,,,,,,,,,,,,,,,,,,,,,,,,,,,,,,,,,,,,,main,k,k,1,0.9066502999921795,492.8135298999987,None,None,0,,,,,,,,,,,,,,208,23,Male,2022-05-04_14h48.53.657,Main,2022.1.1,59.93500648295789,
positive,yellow,2,None,k,,,,,,,,,0,104,104,104,,,,,,,,,,,,,,,,,,,,,,,,,,,,,,,,,,,,,main,None,None,1,1.5010948999988614,494.7237305000017,None,None,1,,,,,,,,,,,,,,208,23,Male,2022-05-04_14h48.53.657,Main,2022.1.1,59.93500648295789,
positive,blue,1,k,None,,,,,,,,,0,105,105,105,,,,,,,,,,,,,,,,,,,,,,,,,,,,,,,,,,,,,main,k,k,1,0.8766190000023926,497.2276358999952,None,None,0,,,,,,,,,,,,,,208,23,Male,2022-05-04_14h48.53.657,Main,2022.1.1,59.93500648295789,
positive,blue,2,k,None,,,,,,,,,0,106,106,106,,,,,,,,,,,,,,,,,,,,,,,,,,,,,,,,,,,,,main,k,k,1,0.8417148000007728,499.111015100003,None,None,0,,,,,,,,,,,,,,208,23,Male,2022-05-04_14h48.53.657,Main,2022.1.1,59.93500648295789,
negative,blue,1,None,k,,,,,,,,,0,107,107,107,,,,,,,,,,,,,,,,,,,,,,,,,,,,,,,,,,,,,main,None,None,1,1.508226599995396,500.9532057000033,None,None,1,,,,,,,,,,,,,,208,23,Male,2022-05-04_14h48.53.657,Main,2022.1.1,59.93500648295789,
positive,yellow,2,None,k,,,,,,,,,0,108,108,108,,,,,,,,,,,,,,,,,,,,,,,,,,,,,,,,,,,,,main,None,None,1,1.508943699998781,503.4613848000008,None,None,1,,,,,,,,,,,,,,208,23,Male,2022-05-04_14h48.53.657,Main,2022.1.1,59.93500648295789,
negative,yellow,1,k,None,,,,,,,,,0,109,109,109,,,,,,,,,,,,,,,,,,,,,,,,,,,,,,,,,,,,,main,k,k,1,0.8223602999933064,505.9729396000039,None,None,0,,,,,,,,,,,,,,208,23,Male,2022-05-04_14h48.53.657,Main,2022.1.1,59.93500648295789,
negative,blue,2,None,k,,,,,,,,,0,110,110,110,,,,,,,,,,,,,,,,,,,,,,,,,,,,,,,,,,,,,main,None,None,1,1.5021744999976363,507.7980230999965,None,None,1,,,,,,,,,,,,,,208,23,Male,2022-05-04_14h48.53.657,Main,2022.1.1,59.93500648295789,
positive,blue,2,k,None,,,,,,,,,0,111,111,111,,,,,,,,,,,,,,,,,,,,,,,,,,,,,,,,,,,,,main,k,k,1,0.7984395999956178,510.30151130000013,None,None,0,,,,,,,,,,,,,,208,23,Male,2022-05-04_14h48.53.657,Main,2022.1.1,59.93500648295789,
negative,blue,1,None,k,,,,,,,,,0,112,112,112,,,,,,,,,,,,,,,,,,,,,,,,,,,,,,,,,,,,,main,None,None,1,1.5092454999976326,512.100935399998,None,None,1,,,,,,,,,,,,,,208,23,Male,2022-05-04_14h48.53.657,Main,2022.1.1,59.93500648295789,
positive,yellow,1,None,k,,,,,,,,,0,113,113,113,,,,,,,,,,,,,,,,,,,,,,,,,,,,,,,,,,,,,main,None,None,1,1.5097071999916807,514.6141208000045,None,None,1,,,,,,,,,,,,,,208,23,Male,2022-05-04_14h48.53.657,Main,2022.1.1,59.93500648295789,
negative,red,1,None,None,,,,,,,,,0,114,114,114,,,,,,,,,,,,,,,,,,,,,,,,,,,,,,,,,,,,,main,None,None,1,1.5106581000000006,517.124556499999,None,None,1,,,,,,,,,,,,,,208,23,Male,2022-05-04_14h48.53.657,Main,2022.1.1,59.93500648295789,
positive,red,1,None,None,,,,,,,,,0,115,115,115,,,,,,,,,,,,,,,,,,,,,,,,,,,,,,,,,,,,,main,None,None,1,1.5047533000033582,519.6374601999996,None,None,1,,,,,,,,,,,,,,208,23,Male,2022-05-04_14h48.53.657,Main,2022.1.1,59.93500648295789,
negative,red,2,None,None,,,,,,,,,0,116,116,116,,,,,,,,,,,,,,,,,,,,,,,,,,,,,,,,,,,,,main,None,None,1,1.5025485000078334,522.1429952000035,None,None,1,,,,,,,,,,,,,,208,23,Male,2022-05-04_14h48.53.657,Main,2022.1.1,59.93500648295789,
negative,yellow,2,k,None,,,,,,,,,0,117,117,117,,,,,,,,,,,,,,,,,,,,,,,,,,,,,,,,,,,,,main,k,k,1,1.0435670000006212,524.6496363000042,None,None,0,,,,,,,,,,,,,,208,23,Male,2022-05-04_14h48.53.657,Main,2022.1.1,59.93500648295789,
positive,yellow,1,None,k,,,,,,,,,0,118,118,118,,,,,,,,,,,,,,,,,,,,,,,,,,,,,,,,,,,,,main,None,None,1,1.5048259000031976,526.6942457999976,None,None,1,,,,,,,,,,,,,,208,23,Male,2022-05-04_14h48.53.657,Main,2022.1.1,59.93500648295789,
positive,red,2,None,None,,,,,,,,,0,119,119,119,,,,,,,,,,,,,,,,,,,,,,,,,,,,,,,,,,,,,main,None,None,1,1.5003272000030847,529.2001916000008,None,None,1,,,,,,,,,,,,,,208,23,Male,2022-05-04_14h48.53.657,Main,2022.1.1,59.93500648295789,
positive,blue,2,k,None,,,,,,,,,0,120,120,120,,,,,,,,,,,,,,,,,,,,,,,,,,,,,,,,,,,,,main,k,k,1,0.9134172000049148,531.7022446000046,None,None,0,,,,,,,,,,,,,,208,23,Male,2022-05-04_14h48.53.657,Main,2022.1.1,59.93500648295789,
negative,red,1,None,None,,,,,,,,,0,121,121,121,,,,,,,,,,,,,,,,,,,,,,,,,,,,,,,,,,,,,main,None,None,1,1.5136719000001904,533.6168135000044,None,None,1,,,,,,,,,,,,,,208,23,Male,2022-05-04_14h48.53.657,Main,2022.1.1,59.93500648295789,
positive,yellow,2,None,k,,,,,,,,,0,122,122,122,,,,,,,,,,,,,,,,,,,,,,,,,,,,,,,,,,,,,main,None,None,1,1.5135317999956897,536.135242599994,None,None,1,,,,,,,,,,,,,,208,23,Male,2022-05-04_14h48.53.657,Main,2022.1.1,59.93500648295789,
negative,red,2,None,None,,,,,,,,,0,123,123,123,,,,,,,,,,,,,,,,,,,,,,,,,,,,,,,,,,,,,main,None,None,1,1.496920699995826,538.6486839999998,None,None,1,,,,,,,,,,,,,,208,23,Male,2022-05-04_14h48.53.657,Main,2022.1.1,59.93500648295789,
negative,yellow,2,k,None,,,,,,,,,0,124,124,124,,,,,,,,,,,,,,,,,,,,,,,,,,,,,,,,,,,,,main,k,k,1,0.891886199999135,541.1474304000003,None,None,0,,,,,,,,,,,,,,208,23,Male,2022-05-04_14h48.53.657,Main,2022.1.1,59.93500648295789,
positive,red,1,None,None,,,,,,,,,0,125,125,125,,,,,,,,,,,,,,,,,,,,,,,,,,,,,,,,,,,,,main,None,None,1,1.4990021999983583,543.0380864000035,None,None,1,,,,,,,,,,,,,,208,23,Male,2022-05-04_14h48.53.657,Main,2022.1.1,59.93500648295789,
negative,blue,2,None,k,,,,,,,,,0,126,126,126,,,,,,,,,,,,,,,,,,,,,,,,,,,,,,,,,,,,,main,None,None,1,1.5081158999964828,545.538870599994,None,None,1,,,,,,,,,,,,,,208,23,Male,2022-05-04_14h48.53.657,Main,2022.1.1,59.93500648295789,
negative,blue,1,None,k,,,,,,,,,0,127,127,127,,,,,,,,,,,,,,,,,,,,,,,,,,,,,,,,,,,,,main,None,None,1,1.5066952999914065,548.050848400002,None,None,1,,,,,,,,,,,,,,208,23,Male,2022-05-04_14h48.53.657,Main,2022.1.1,59.93500648295789,
negative,yellow,1,k,None,,,,,,,,,0,128,128,128,,,,,,,,,,,,,,,,,,,,,,,,,,,,,,,,,,,,,main,k,k,1,0.8637337999971351,550.5600942000019,None,None,0,,,,,,,,,,,,,,208,23,Male,2022-05-04_14h48.53.657,Main,2022.1.1,59.93500648295789,
negative,yellow,1,k,None,,,,,,,,,0,129,129,129,,,,,,,,,,,,,,,,,,,,,,,,,,,,,,,,,,,,,main,k,k,1,1.0087172000057762,552.4249333000043,None,None,0,,,,,,,,,,,,,,208,23,Male,2022-05-04_14h48.53.657,Main,2022.1.1,59.93500648295789,
positive,blue,1,k,None,,,,,,,,,0,130,130,130,,,,,,,,,,,,,,,,,,,,,,,,,,,,,,,,,,,,,main,k,k,1,0.6556837999960408,554.4375005000038,None,None,0,,,,,,,,,,,,,,208,23,Male,2022-05-04_14h48.53.657,Main,2022.1.1,59.93500648295789,
negative,blue,1,None,k,,,,,,,,,0,131,131,131,,,,,,,,,,,,,,,,,,,,,,,,,,,,,,,,,,,,,main,None,None,1,1.5079494000092382,556.0939167000033,None,None,1,,,,,,,,,,,,,,208,23,Male,2022-05-04_14h48.53.657,Main,2022.1.1,59.93500648295789,
negative,blue,2,None,k,,,,,,,,,0,132,132,132,,,,,,,,,,,,,,,,,,,,,,,,,,,,,,,,,,,,,main,None,None,1,1.5007920000061858,558.6034845999966,None,None,1,,,,,,,,,,,,,,208,23,Male,2022-05-04_14h48.53.657,Main,2022.1.1,59.93500648295789,
positive,blue,2,k,None,,,,,,,,,0,133,133,133,,,,,,,,,,,,,,,,,,,,,,,,,,,,,,,,,,,,,main,k,k,1,1.0718974000046728,561.1074607000046,None,None,0,,,,,,,,,,,,,,208,23,Male,2022-05-04_14h48.53.657,Main,2022.1.1,59.93500648295789,
positive,red,2,None,None,,,,,,,,,0,134,134,134,,,,,,,,,,,,,,,,,,,,,,,,,,,,,,,,,,,,,main,None,None,1,1.5100572999945143,563.1798248999985,None,None,1,,,,,,,,,,,,,,208,23,Male,2022-05-04_14h48.53.657,Main,2022.1.1,59.93500648295789,
negative,yellow,2,k,None,,,,,,,,,0,135,135,135,,,,,,,,,,,,,,,,,,,,,,,,,,,,,,,,,,,,,main,k,k,1,0.8975076999922749,565.6926416999922,None,None,0,,,,,,,,,,,,,,208,23,Male,2022-05-04_14h48.53.657,Main,2022.1.1,59.93500648295789,
positive,yellow,2,None,k,,,,,,,,,0,136,136,136,,,,,,,,,,,,,,,,,,,,,,,,,,,,,,,,,,,,,main,None,None,1,1.5118615999963367,567.5911248000048,None,None,1,,,,,,,,,,,,,,208,23,Male,2022-05-04_14h48.53.657,Main,2022.1.1,59.93500648295789,
positive,blue,1,k,None,,,,,,,,,0,137,137,137,,,,,,,,,,,,,,,,,,,,,,,,,,,,,,,,,,,,,main,k,k,1,0.8408722000021953,570.1042101000057,None,None,0,,,,,,,,,,,,,,208,23,Male,2022-05-04_14h48.53.657,Main,2022.1.1,59.93500648295789,
positive,yellow,1,None,k,,,,,,,,,0,138,138,138,,,,,,,,,,,,,,,,,,,,,,,,,,,,,,,,,,,,,main,None,None,1,1.4982768000045326,571.9471560999955,None,None,1,,,,,,,,,,,,,,208,23,Male,2022-05-04_14h48.53.657,Main,2022.1.1,59.93500648295789,
positive,yellow,1,None,k,,,,,,,,,0,139,139,139,,,,,,,,,,,,,,,,,,,,,,,,,,,,,,,,,,,,,main,None,None,1,1.5003546999942046,574.4477582999971,None,None,1,,,,,,,,,,,,,,208,23,Male,2022-05-04_14h48.53.657,Main,2022.1.1,59.93500648295789,
positive,yellow,1,None,k,,,,,,,,,0,140,140,140,,,,,,,,,,,,,,,,,,,,,,,,,,,,,,,,,,,,,main,None,None,1,1.510351000004448,576.9500928000052,None,None,1,,,,,,,,,,,,,,208,23,Male,2022-05-04_14h48.53.657,Main,2022.1.1,59.93500648295789,
positive,blue,1,k,None,,,,,,,,,0,141,141,141,,,,,,,,,,,,,,,,,,,,,,,,,,,,,,,,,,,,,main,k,k,1,0.8544758000061847,579.463239699995,None,None,0,,,,,,,,,,,,,,208,23,Male,2022-05-04_14h48.53.657,Main,2022.1.1,59.93500648295789,
positive,blue,2,k,None,,,,,,,,,0,142,142,142,,,,,,,,,,,,,,,,,,,,,,,,,,,,,,,,,,,,,main,k,k,1,1.2932815000094706,581.317652400001,None,None,0,,,,,,,,,,,,,,208,23,Male,2022-05-04_14h48.53.657,Main,2022.1.1,59.93500648295789,
positive,yellow,2,None,k,,,,,,,,,0,143,143,143,,,,,,,,,,,,,,,,,,,,,,,,,,,,,,,,,,,,,main,None,None,1,1.5004673000075854,583.6149883000035,None,None,1,,,,,,,,,,,,,,208,23,Male,2022-05-04_14h48.53.657,Main,2022.1.1,59.93500648295789,
negative,yellow,2,k,None,,,,,,,,,0,144,144,144,,,,,,,,,,,,,,,,,,,,,,,,,,,,,,,,,,,,,main,k,k,1,0.8326340999919921,586.1195316999947,None,None,0,,,,,,,,,,,,,,208,23,Male,2022-05-04_14h48.53.657,Main,2022.1.1,59.93500648295789,
negative,blue,2,None,k,,,,,,,,,0,145,145,145,,,,,,,,,,,,,,,,,,,,,,,,,,,,,,,,,,,,,main,None,None,1,1.5070463000010932,587.9539801999927,None,None,1,,,,,,,,,,,,,,208,23,Male,2022-05-04_14h48.53.657,Main,2022.1.1,59.93500648295789,
negative,red,1,None,None,,,,,,,,,0,146,146,146,,,,,,,,,,,,,,,,,,,,,,,,,,,,,,,,,,,,,main,None,None,1,1.5050279999995837,590.4620498000004,None,None,1,,,,,,,,,,,,,,208,23,Male,2022-05-04_14h48.53.657,Main,2022.1.1,59.93500648295789,
positive,blue,1,k,None,,,,,,,,,0,147,147,147,,,,,,,,,,,,,,,,,,,,,,,,,,,,,,,,,,,,,main,k,k,1,0.9410284000041429,592.9688354999962,None,None,0,,,,,,,,,,,,,,208,23,Male,2022-05-04_14h48.53.657,Main,2022.1.1,59.93500648295789,
positive,yellow,1,None,k,,,,,,,,,0,148,148,148,,,,,,,,,,,,,,,,,,,,,,,,,,,,,,,,,,,,,main,None,None,1,1.4995299000001978,594.910747899994,None,None,1,,,,,,,,,,,,,,208,23,Male,2022-05-04_14h48.53.657,Main,2022.1.1,59.93500648295789,
negative,red,2,None,None,,,,,,,,,0,149,149,149,,,,,,,,,,,,,,,,,,,,,,,,,,,,,,,,,,,,,main,None,None,1,1.4997713000047952,597.4120770000009,None,None,1,,,,,,,,,,,,,,208,23,Male,2022-05-04_14h48.53.657,Main,2022.1.1,59.93500648295789,
negative,blue,1,None,k,,,,,,,,,0,150,150,150,,,,,,,,,,,,,,,,,,,,,,,,,,,,,,,,,,,,,main,None,None,1,1.503953299994464,599.9133813999943,None,None,1,,,,,,,,,,,,,,208,23,Male,2022-05-04_14h48.53.657,Main,2022.1.1,59.93500648295789,
negative,yellow,2,k,None,,,,,,,,,0,151,151,151,,,,,,,,,,,,,,,,,,,,,,,,,,,,,,,,,,,,,main,k,k,1,1.0397538000106579,602.4225471999962,None,None,0,,,,,,,,,,,,,,208,23,Male,2022-05-04_14h48.53.657,Main,2022.1.1,59.93500648295789,
negative,blue,2,None,k,,,,,,,,,0,152,152,152,,,,,,,,,,,,,,,,,,,,,,,,,,,,,,,,,,,,,main,None,None,1,1.499681100001908,604.4653678000032,None,None,1,,,,,,,,,,,,,,208,23,Male,2022-05-04_14h48.53.657,Main,2022.1.1,59.93500648295789,
negative,yellow,1,k,None,,,,,,,,,0,153,153,153,,,,,,,,,,,,,,,,,,,,,,,,,,,,,,,,,,,,,main,k,k,1,1.3880835000018124,606.9651791999931,None,None,0,,,,,,,,,,,,,,208,23,Male,2022-05-04_14h48.53.657,Main,2022.1.1,59.93500648295789,
negative,blue,1,None,k,,,,,,,,,0,154,154,154,,,,,,,,,,,,,,,,,,,,,,,,,,,,,,,,,,,,,main,None,None,1,1.5088310999999521,609.3564086999977,None,None,1,,,,,,,,,,,,,,208,23,Male,2022-05-04_14h48.53.657,Main,2022.1.1,59.93500648295789,
positive,yellow,2,None,k,,,,,,,,,0,155,155,155,,,,,,,,,,,,,,,,,,,,,,,,,,,,,,,,,,,,,main,None,None,1,1.5059430999972392,611.864905399998,None,None,1,,,,,,,,,,,,,,208,23,Male,2022-05-04_14h48.53.657,Main,2022.1.1,59.93500648295789,
positive,red,2,None,None,,,,,,,,,0,156,156,156,,,,,,,,,,,,,,,,,,,,,,,,,,,,,,,,,,,,,main,None,None,1,1.5057482999982312,614.3735874999984,None,None,1,,,,,,,,,,,,,,208,23,Male,2022-05-04_14h48.53.657,Main,2022.1.1,59.93500648295789,
positive,red,1,None,None,,,,,,,,,0,157,157,157,,,,,,,,,,,,,,,,,,,,,,,,,,,,,,,,,,,,,main,None,None,1,1.4986011000000872,616.8818027999951,None,None,1,,,,,,,,,,,,,,208,23,Male,2022-05-04_14h48.53.657,Main,2022.1.1,59.93500648295789,
positive,blue,2,k,None,,,,,,,,,0,158,158,158,,,,,,,,,,,,,,,,,,,,,,,,,,,,,,,,,,,,,main,k,k,1,0.9420087000034982,619.380255600001,None,None,0,,,,,,,,,,,,,,208,23,Male,2022-05-04_14h48.53.657,Main,2022.1.1,59.93500648295789,
negative,yellow,1,k,None,,,,,,,,,0,159,159,159,,,,,,,,,,,,,,,,,,,,,,,,,,,,,,,,,,,,,main,k,k,1,0.9245226999919396,621.326253399995,None,None,0,,,,,,,,,,,,,,208,23,Male,2022-05-04_14h48.53.657,Main,2022.1.1,59.93500648295789,
negative,red,2,None,None,,,,,,,,,0,160,160,160,,,,,,,,,,,,,,,,,,,,,,,,,,,,,,,,,,,,,main,None,None,1,1.5103785999963293,623.2523878999928,None,None,1,,,,,,,,,,,,,,208,23,Male,2022-05-04_14h48.53.657,Main,2022.1.1,59.93500648295789,
negative,blue,1,None,k,,,,,,,,,0,161,161,161,,,,,,,,,,,,,,,,,,,,,,,,,,,,,,,,,,,,,main,None,None,1,1.4978953000099864,625.7621464999975,None,None,1,,,,,,,,,,,,,,208,23,Male,2022-05-04_14h48.53.657,Main,2022.1.1,59.93500648295789,
negative,blue,1,None,k,,,,,,,,,0,162,162,162,,,,,,,,,,,,,,,,,,,,,,,,,,,,,,,,,,,,,main,None,None,1,1.4977747999946587,628.2628836999938,None,None,1,,,,,,,,,,,,,,208,23,Male,2022-05-04_14h48.53.657,Main,2022.1.1,59.93500648295789,
negative,yellow,1,k,None,,,,,,,,,0,163,163,163,,,,,,,,,,,,,,,,,,,,,,,,,,,,,,,,,,,,,main,k,k,1,1.1654063000023598,630.7611487999966,None,None,0,,,,,,,,,,,,,,208,23,Male,2022-05-04_14h48.53.657,Main,2022.1.1,59.93500648295789,
negative,yellow,1,k,None,,,,,,,,,0,164,164,164,,,,,,,,,,,,,,,,,,,,,,,,,,,,,,,,,,,,,main,k,k,1,0.8479215999977896,632.9268876999995,None,None,0,,,,,,,,,,,,,,208,23,Male,2022-05-04_14h48.53.657,Main,2022.1.1,59.93500648295789,
positive,yellow,1,None,k,,,,,,,,,0,165,165,165,,,,,,,,,,,,,,,,,,,,,,,,,,,,,,,,,,,,,main,None,None,1,1.5024207000096794,634.7774735999992,None,None,1,,,,,,,,,,,,,,208,23,Male,2022-05-04_14h48.53.657,Main,2022.1.1,59.93500648295789,
negative,red,1,None,None,,,,,,,,,0,166,166,166,,,,,,,,,,,,,,,,,,,,,,,,,,,,,,,,,,,,,main,None,None,1,1.5006291000026977,637.2827292000002,None,None,1,,,,,,,,,,,,,,208,23,Male,2022-05-04_14h48.53.657,Main,2022.1.1,59.93500648295789,
negative,yellow,2,k,None,,,,,,,,,0,167,167,167,,,,,,,,,,,,,,,,,,,,,,,,,,,,,,,,,,,,,main,k,k,1,0.8811454000097001,639.7856259999971,None,None,0,,,,,,,,,,,,,,208,23,Male,2022-05-04_14h48.53.657,Main,2022.1.1,59.93500648295789,
positive,blue,2,k,None,,,,,,,,,0,168,168,168,,,,,,,,,,,,,,,,,,,,,,,,,,,,,,,,,,,,,main,k,k,1,0.76386310000089,641.6692458000034,None,None,0,,,,,,,,,,,,,,208,23,Male,2022-05-04_14h48.53.657,Main,2022.1.1,59.93500648295789,
positive,red,2,None,None,,,,,,,,,0,169,169,169,,,,,,,,,,,,,,,,,,,,,,,,,,,,,,,,,,,,,main,None,None,1,1.4996452999912435,643.4343350999989,None,None,1,,,,,,,,,,,,,,208,23,Male,2022-05-04_14h48.53.657,Main,2022.1.1,59.93500648295789,
positive,red,1,None,None,,,,,,,,,0,170,170,170,,,,,,,,,,,,,,,,,,,,,,,,,,,,,,,,,,,,,main,None,None,1,1.4984044000011636,645.9357254999923,None,None,1,,,,,,,,,,,,,,208,23,Male,2022-05-04_14h48.53.657,Main,2022.1.1,59.93500648295789,
negative,blue,2,None,k,,,,,,,,,0,171,171,171,,,,,,,,,,,,,,,,,,,,,,,,,,,,,,,,,,,,,main,None,None,1,1.5048490000044694,648.4344635000016,None,None,1,,,,,,,,,,,,,,208,23,Male,2022-05-04_14h48.53.657,Main,2022.1.1,59.93500648295789,
positive,blue,2,k,None,,,,,,,,,0,172,172,172,,,,,,,,,,,,,,,,,,,,,,,,,,,,,,,,,,,,,main,k,k,1,0.9240014999959385,650.9409167999984,None,None,0,,,,,,,,,,,,,,208,23,Male,2022-05-04_14h48.53.657,Main,2022.1.1,59.93500648295789,
negative,yellow,2,k,None,,,,,,,,,0,173,173,173,,,,,,,,,,,,,,,,,,,,,,,,,,,,,,,,,,,,,main,k,k,1,0.8850630999950226,652.8680019000021,None,None,0,,,,,,,,,,,,,,208,23,Male,2022-05-04_14h48.53.657,Main,2022.1.1,59.93500648295789,
positive,yellow,2,None,k,,,,,,,,,0,174,174,174,,,,,,,,,,,,,,,,,,,,,,,,,,,,,,,,,,,,,main,None,None,1,1.5001912000006996,654.7541606000013,None,None,1,,,,,,,,,,,,,,208,23,Male,2022-05-04_14h48.53.657,Main,2022.1.1,59.93500648295789,
negative,blue,2,None,k,,,,,,,,,0,175,175,175,,,,,,,,,,,,,,,,,,,,,,,,,,,,,,,,,,,,,main,None,None,1,1.5033564000041224,657.256231899999,None,None,1,,,,,,,,,,,,,,208,23,Male,2022-05-04_14h48.53.657,Main,2022.1.1,59.93500648295789,
positive,blue,1,k,None,,,,,,,,,0,176,176,176,,,,,,,,,,,,,,,,,,,,,,,,,,,,,,,,,,,,,main,k,k,1,0.7785442000022158,659.7628445000009,None,None,0,,,,,,,,,,,,,,208,23,Male,2022-05-04_14h48.53.657,Main,2022.1.1,59.93500648295789,
positive,yellow,1,None,k,,,,,,,,,0,177,177,177,,,,,,,,,,,,,,,,,,,,,,,,,,,,,,,,,,,,,main,None,None,1,1.5040491999970982,661.5414775999961,None,None,1,,,,,,,,,,,,,,208,23,Male,2022-05-04_14h48.53.657,Main,2022.1.1,59.93500648295789,
positive,blue,1,k,None,,,,,,,,,0,178,178,178,,,,,,,,,,,,,,,,,,,,,,,,,,,,,,,,,,,,,main,k,k,1,0.6805677000083961,664.0493287999998,None,None,0,,,,,,,,,,,,,,208,23,Male,2022-05-04_14h48.53.657,Main,2022.1.1,59.93500648295789,
positive,yellow,2,None,k,,,,,,,,,0,179,179,179,,,,,,,,,,,,,,,,,,,,,,,,,,,,,,,,,,,,,main,None,None,1,1.496891400005552,665.7312443999981,None,None,1,,,,,,,,,,,,,,208,23,Male,2022-05-04_14h48.53.657,Main,2022.1.1,59.93500648295789,
positive,blue,1,k,None,,,,,,,,,0,180,180,180,,,,,,,,,,,,,,,,,,,,,,,,,,,,,,,,,,,,,main,k,k,1,0.7160981999913929,668.2295726000011,None,None,0,,,,,,,,,,,,,,208,23,Male,2022-05-04_14h48.53.657,Main,2022.1.1,59.93500648295789,
negative,red,1,None,None,,,,,,,,,0,181,181,181,,,,,,,,,,,,,,,,,,,,,,,,,,,,,,,,,,,,,main,None,None,1,1.509464200004004,669.9472203000041,None,None,1,,,,,,,,,,,,,,208,23,Male,2022-05-04_14h48.53.657,Main,2022.1.1,59.93500648295789,
negative,blue,1,None,k,,,,,,,,,0,182,182,182,,,,,,,,,,,,,,,,,,,,,,,,,,,,,,,,,,,,,main,None,None,1,1.4995927999989362,672.455825099998,None,None,1,,,,,,,,,,,,,,208,23,Male,2022-05-04_14h48.53.657,Main,2022.1.1,59.93500648295789,
negative,yellow,2,k,None,,,,,,,,,0,183,183,183,,,,,,,,,,,,,,,,,,,,,,,,,,,,,,,,,,,,,main,k,k,1,1.1243151999951806,674.9571993999998,None,None,0,,,,,,,,,,,,,,208,23,Male,2022-05-04_14h48.53.657,Main,2022.1.1,59.93500648295789,
positive,yellow,2,None,k,,,,,,,,,0,184,184,184,,,,,,,,,,,,,,,,,,,,,,,,,,,,,,,,,,,,,main,None,None,1,1.4970391000097152,677.0877611000033,None,None,1,,,,,,,,,,,,,,208,23,Male,2022-05-04_14h48.53.657,Main,2022.1.1,59.93500648295789,
positive,yellow,1,None,k,,,,,,,,,0,185,185,185,,,,,,,,,,,,,,,,,,,,,,,,,,,,,,,,,,,,,main,None,None,1,1.5031932999991113,679.5850336000003,None,None,1,,,,,,,,,,,,,,208,23,Male,2022-05-04_14h48.53.657,Main,2022.1.1,59.93500648295789,
positive,red,2,None,None,,,,,,,,,0,186,186,186,,,,,,,,,,,,,,,,,,,,,,,,,,,,,,,,,,,,,main,None,None,1,1.510517400005483,682.0873844000016,None,None,1,,,,,,,,,,,,,,208,23,Male,2022-05-04_14h48.53.657,Main,2022.1.1,59.93500648295789,
positive,blue,1,k,None,,,,,,,,,0,187,187,187,,,,,,,,,,,,,,,,,,,,,,,,,,,,,,,,,,,,,main,k,k,1,0.8023806000128388,684.6006743000034,None,None,0,,,,,,,,,,,,,,208,23,Male,2022-05-04_14h48.53.657,Main,2022.1.1,59.93500648295789,
negative,yellow,1,k,None,,,,,,,,,0,188,188,188,,,,,,,,,,,,,,,,,,,,,,,,,,,,,,,,,,,,,main,k,k,1,0.7990524000051664,686.4035195000033,None,None,0,,,,,,,,,,,,,,208,23,Male,2022-05-04_14h48.53.657,Main,2022.1.1,59.93500648295789,
positive,yellow,2,None,k,,,,,,,,,0,189,189,189,,,,,,,,,,,,,,,,,,,,,,,,,,,,,,,,,,,,,main,None,None,1,1.5020816999895032,688.2042045999988,None,None,1,,,,,,,,,,,,,,208,23,Male,2022-05-04_14h48.53.657,Main,2022.1.1,59.93500648295789,
negative,yellow,2,k,None,,,,,,,,,0,190,190,190,,,,,,,,,,,,,,,,,,,,,,,,,,,,,,,,,,,,,main,k,k,1,1.7933608000021195,690.7103776000004,None,None,0,,,,,,,,,,,,,,208,23,Male,2022-05-04_14h48.53.657,Main,2022.1.1,59.93500648295789,
negative,yellow,1,k,None,,,,,,,,,0,191,191,191,,,,,,,,,,,,,,,,,,,,,,,,,,,,,,,,,,,,,main,k,k,1,1.0875146000034874,694.5213152999931,None,None,0,,,,,,,,,,,,,,208,23,Male,2022-05-04_14h48.53.657,Main,2022.1.1,59.93500648295789,
positive,blue,2,k,None,,,,,,,,,0,192,192,192,,,,,,,,,,,,,,,,,,,,,,,,,,,,,,,,,,,,,main,k,k,1,0.7316865999891888,696.6107902999938,None,None,0,,,,,,,,,,,,,,208,23,Male,2022-05-04_14h48.53.657,Main,2022.1.1,59.93500648295789,
positive,yellow,1,None,k,,,,,,,,,0,193,193,193,,,,,,,,,,,,,,,,,,,,,,,,,,,,,,,,,,,,,main,None,None,1,1.5034662000107346,698.3447312999924,None,None,1,,,,,,,,,,,,,,208,23,Male,2022-05-04_14h48.53.657,Main,2022.1.1,59.93500648295789,
negative,red,2,None,None,,,,,,,,,0,194,194,194,,,,,,,,,,,,,,,,,,,,,,,,,,,,,,,,,,,,,main,None,None,1,1.5135100999905262,700.8501806999993,None,None,1,,,,,,,,,,,,,,208,23,Male,2022-05-04_14h48.53.657,Main,2022.1.1,59.93500648295789,
positive,red,1,None,None,,,,,,,,,0,195,195,195,,,,,,,,,,,,,,,,,,,,,,,,,,,,,,,,,,,,,main,None,None,1,1.5057625999907032,703.3668743000017,None,None,1,,,,,,,,,,,,,,208,23,Male,2022-05-04_14h48.53.657,Main,2022.1.1,59.93500648295789,
negative,blue,1,None,k,,,,,,,,,0,196,196,196,,,,,,,,,,,,,,,,,,,,,,,,,,,,,,,,,,,,,main,None,None,1,1.5054034000058891,705.8766985999973,None,None,1,,,,,,,,,,,,,,208,23,Male,2022-05-04_14h48.53.657,Main,2022.1.1,59.93500648295789,
positive,blue,2,k,None,,,,,,,,,0,197,197,197,,,,,,,,,,,,,,,,,,,,,,,,,,,,,,,,,,,,,main,k,k,1,0.6500659999874188,708.3829234000004,None,None,0,,,,,,,,,,,,,,208,23,Male,2022-05-04_14h48.53.657,Main,2022.1.1,59.93500648295789,
negative,blue,2,None,k,,,,,,,,,0,198,198,198,,,,,,,,,,,,,,,,,,,,,,,,,,,,,,,,,,,,,main,None,k,0,0.7299483999959193,710.0347703000007,None,None,1,,,,,,,,,,,,,,208,23,Male,2022-05-04_14h48.53.657,Main,2022.1.1,59.93500648295789,
negative,blue,2,None,k,,,,,,,,,0,199,199,199,,,,,,,,,,,,,,,,,,,,,,,,,,,,,,,,,,,,,main,None,None,1,1.506984100007685,712.7687446000054,None,None,1,,,,,,,,,,,,,,208,23,Male,2022-05-04_14h48.53.657,Main,2022.1.1,59.93500648295789,
positive,blue,2,k,None,,,,,,,,,0,200,200,200,,,,,,,,,,,,,,,,,,,,,,,,,,,,,,,,,,,,,main,k,k,1,1.0238196999998763,715.2779900000023,None,None,0,,,,,,,,,,,,,,208,23,Male,2022-05-04_14h48.53.657,Main,2022.1.1,59.93500648295789,
positive,blue,2,k,None,,,,,,,,,0,201,201,201,,,,,,,,,,,,,,,,,,,,,,,,,,,,,,,,,,,,,main,k,k,1,1.8100629999971716,717.3017370000016,None,None,0,,,,,,,,,,,,,,208,23,Male,2022-05-04_14h48.53.657,Main,2022.1.1,59.93500648295789,
negative,yellow,2,k,None,,,,,,,,,0,202,202,202,,,,,,,,,,,,,,,,,,,,,,,,,,,,,,,,,,,,,main,k,k,1,1.0691627000051085,721.1175739000028,None,None,0,,,,,,,,,,,,,,208,23,Male,2022-05-04_14h48.53.657,Main,2022.1.1,59.93500648295789,
positive,red,1,None,None,,,,,,,,,0,203,203,203,,,,,,,,,,,,,,,,,,,,,,,,,,,,,,,,,,,,,main,None,None,1,1.505943500000285,723.1906923999923,None,None,1,,,,,,,,,,,,,,208,23,Male,2022-05-04_14h48.53.657,Main,2022.1.1,59.93500648295789,
negative,blue,2,None,k,,,,,,,,,0,204,204,204,,,,,,,,,,,,,,,,,,,,,,,,,,,,,,,,,,,,,main,None,None,1,1.5072342999919783,725.696297699993,None,None,1,,,,,,,,,,,,,,208,23,Male,2022-05-04_14h48.53.657,Main,2022.1.1,59.93500648295789,
negative,red,1,None,None,,,,,,,,,0,205,205,205,,,,,,,,,,,,,,,,,,,,,,,,,,,,,,,,,,,,,main,None,None,1,1.4955587000004016,728.2075179999956,None,None,1,,,,,,,,,,,,,,208,23,Male,2022-05-04_14h48.53.657,Main,2022.1.1,59.93500648295789,
negative,blue,2,None,k,,,,,,,,,0,206,206,206,,,,,,,,,,,,,,,,,,,,,,,,,,,,,,,,,,,,,main,None,None,1,1.496287600006326,730.7042302000045,None,None,1,,,,,,,,,,,,,,208,23,Male,2022-05-04_14h48.53.657,Main,2022.1.1,59.93500648295789,
negative,yellow,2,k,None,,,,,,,,,0,207,207,207,,,,,,,,,,,,,,,,,,,,,,,,,,,,,,,,,,,,,main,k,k,1,0.8120255999965593,733.2010570999992,None,None,0,,,,,,,,,,,,,,208,23,Male,2022-05-04_14h48.53.657,Main,2022.1.1,59.93500648295789,
positive,yellow,2,None,k,,,,,,,,,0,208,208,208,,,,,,,,,,,,,,,,,,,,,,,,,,,,,,,,,,,,,main,None,None,1,1.506182600001921,735.0133943999972,None,None,1,,,,,,,,,,,,,,208,23,Male,2022-05-04_14h48.53.657,Main,2022.1.1,59.93500648295789,
negative,yellow,1,k,None,,,,,,,,,0,209,209,209,,,,,,,,,,,,,,,,,,,,,,,,,,,,,,,,,,,,,main,k,k,1,0.8454434000013862,737.5234494000033,None,None,0,,,,,,,,,,,,,,208,23,Male,2022-05-04_14h48.53.657,Main,2022.1.1,59.93500648295789,
negative,red,2,None,None,,,,,,,,,0,210,210,210,,,,,,,,,,,,,,,,,,,,,,,,,,,,,,,,,,,,,main,None,None,1,1.5115989000041736,739.3700815000047,None,None,1,,,,,,,,,,,,,,208,23,Male,2022-05-04_14h48.53.657,Main,2022.1.1,59.93500648295789,
negative,blue,1,None,k,,,,,,,,,0,211,211,211,,,,,,,,,,,,,,,,,,,,,,,,,,,,,,,,,,,,,main,None,None,1,1.5050936000043293,741.881266700002,None,None,1,,,,,,,,,,,,,,208,23,Male,2022-05-04_14h48.53.657,Main,2022.1.1,59.93500648295789,
negative,yellow,1,k,None,,,,,,,,,0,212,212,212,,,,,,,,,,,,,,,,,,,,,,,,,,,,,,,,,,,,,main,k,k,1,1.4815267000085441,744.3893903999997,None,None,0,,,,,,,,,,,,,,208,23,Male,2022-05-04_14h48.53.657,Main,2022.1.1,59.93500648295789,
positive,blue,1,k,None,,,,,,,,,0,213,213,213,,,,,,,,,,,,,,,,,,,,,,,,,,,,,,,,,,,,,main,k,k,1,1.058876600000076,746.872611800005,None,None,0,,,,,,,,,,,,,,208,23,Male,2022-05-04_14h48.53.657,Main,2022.1.1,59.93500648295789,
positive,blue,1,k,None,,,,,,,,,0,214,214,214,,,,,,,,,,,,,,,,,,,,,,,,,,,,,,,,,,,,,main,k,k,1,0.786794400002691,748.933426699994,None,None,0,,,,,,,,,,,,,,208,23,Male,2022-05-04_14h48.53.657,Main,2022.1.1,59.93500648295789,
positive,yellow,1,None,k,,,,,,,,,0,215,215,215,,,,,,,,,,,,,,,,,,,,,,,,,,,,,,,,,,,,,main,None,None,1,1.495005199991283,750.7230202999926,None,None,1,,,,,,,,,,,,,,208,23,Male,2022-05-04_14h48.53.657,Main,2022.1.1,59.93500648295789,
positive,yellow,1,None,k,,,,,,,,,0,216,216,216,,,,,,,,,,,,,,,,,,,,,,,,,,,,,,,,,,,,,main,None,None,1,1.50327849999303,753.2199534999963,None,None,1,,,,,,,,,,,,,,208,23,Male,2022-05-04_14h48.53.657,Main,2022.1.1,59.93500648295789,
positive,yellow,2,None,k,,,,,,,,,0,217,217,217,,,,,,,,,,,,,,,,,,,,,,,,,,,,,,,,,,,,,main,None,None,1,1.5034973000001628,755.724003299998,None,None,1,,,,,,,,,,,,,,208,23,Male,2022-05-04_14h48.53.657,Main,2022.1.1,59.93500648295789,
negative,blue,1,None,k,,,,,,,,,0,218,218,218,,,,,,,,,,,,,,,,,,,,,,,,,,,,,,,,,,,,,main,None,None,1,1.498311500006821,758.2273009000055,None,None,1,,,,,,,,,,,,,,208,23,Male,2022-05-04_14h48.53.657,Main,2022.1.1,59.93500648295789,
positive,red,2,None,None,,,,,,,,,0,219,219,219,,,,,,,,,,,,,,,,,,,,,,,,,,,,,,,,,,,,,main,None,None,1,1.4994609999994282,760.7270145999937,None,None,1,,,,,,,,,,,,,,208,23,Male,2022-05-04_14h48.53.657,Main,2022.1.1,59.93500648295789,
positive,yellow,1,None,k,,,,,,,,,0,220,220,220,,,,,,,,,,,,,,,,,,,,,,,,,,,,,,,,,,,,,main,None,None,1,1.5053539000073215,763.2280299999984,None,None,1,,,,,,,,,,,,,,208,23,Male,2022-05-04_14h48.53.657,Main,2022.1.1,59.93500648295789,
positive,blue,1,k,None,,,,,,,,,0,221,221,221,,,,,,,,,,,,,,,,,,,,,,,,,,,,,,,,,,,,,main,k,k,1,0.8552514000039082,765.7370245999919,None,None,0,,,,,,,,,,,,,,208,23,Male,2022-05-04_14h48.53.657,Main,2022.1.1,59.93500648295789,
positive,yellow,2,None,k,,,,,,,,,0,222,222,222,,,,,,,,,,,,,,,,,,,,,,,,,,,,,,,,,,,,,main,None,None,1,1.5103017000074033,767.5922352000052,None,None,1,,,,,,,,,,,,,,208,23,Male,2022-05-04_14h48.53.657,Main,2022.1.1,59.93500648295789,
negative,yellow,1,k,None,,,,,,,,,0,223,223,223,,,,,,,,,,,,,,,,,,,,,,,,,,,,,,,,,,,,,main,k,k,1,0.7968715000024531,770.1053663999919,None,None,0,,,,,,,,,,,,,,208,23,Male,2022-05-04_14h48.53.657,Main,2022.1.1,59.93500648295789,
positive,yellow,2,None,k,,,,,,,,,0,224,224,224,,,,,,,,,,,,,,,,,,,,,,,,,,,,,,,,,,,,,main,None,None,1,1.4991535000008298,771.9042434000003,None,None,1,,,,,,,,,,,,,,208,23,Male,2022-05-04_14h48.53.657,Main,2022.1.1,59.93500648295789,
negative,yellow,2,k,None,,,,,,,,,0,225,225,225,,,,,,,,,,,,,,,,,,,,,,,,,,,,,,,,,,,,,main,k,k,1,0.8812363000033656,774.4064324999927,None,None,0,,,,,,,,,,,,,,208,23,Male,2022-05-04_14h48.53.657,Main,2022.1.1,59.93500648295789,
negative,blue,2,None,k,,,,,,,,,0,226,226,226,,,,,,,,,,,,,,,,,,,,,,,,,,,,,,,,,,,,,main,None,None,1,1.5071058000030462,776.2913403999992,None,None,1,,,,,,,,,,,,,,208,23,Male,2022-05-04_14h48.53.657,Main,2022.1.1,59.93500648295789,
positive,red,2,None,None,,,,,,,,,0,227,227,227,,,,,,,,,,,,,,,,,,,,,,,,,,,,,,,,,,,,,main,None,None,1,1.5085061999998288,778.8017753000022,None,None,1,,,,,,,,,,,,,,208,23,Male,2022-05-04_14h48.53.657,Main,2022.1.1,59.93500648295789,
positive,blue,2,k,None,,,,,,,,,0,228,228,228,,,,,,,,,,,,,,,,,,,,,,,,,,,,,,,,,,,,,main,k,k,1,0.9123487000033492,781.3098585999978,None,None,0,,,,,,,,,,,,,,208,23,Male,2022-05-04_14h48.53.657,Main,2022.1.1,59.93500648295789,
negative,blue,1,None,k,,,,,,,,,0,229,229,229,,,,,,,,,,,,,,,,,,,,,,,,,,,,,,,,,,,,,main,None,None,1,1.5033893999934662,783.2244307999936,None,None,1,,,,,,,,,,,,,,208,23,Male,2022-05-04_14h48.53.657,Main,2022.1.1,59.93500648295789,
positive,yellow,1,None,k,,,,,,,,,0,230,230,230,,,,,,,,,,,,,,,,,,,,,,,,,,,,,,,,,,,,,main,None,None,1,1.495220100012375,785.7313889999932,None,None,1,,,,,,,,,,,,,,208,23,Male,2022-05-04_14h48.53.657,Main,2022.1.1,59.93500648295789,
negative,blue,2,None,k,,,,,,,,,0,231,231,231,,,,,,,,,,,,,,,,,,,,,,,,,,,,,,,,,,,,,main,None,None,1,1.5030452999926638,788.2283215000061,None,None,1,,,,,,,,,,,,,,208,23,Male,2022-05-04_14h48.53.657,Main,2022.1.1,59.93500648295789,
negative,red,1,None,None,,,,,,,,,0,232,232,232,,,,,,,,,,,,,,,,,,,,,,,,,,,,,,,,,,,,,main,None,None,1,1.5092525999934878,790.7329973000014,None,None,1,,,,,,,,,,,,,,208,23,Male,2022-05-04_14h48.53.657,Main,2022.1.1,59.93500648295789,
positive,blue,2,k,None,,,,,,,,,0,233,233,233,,,,,,,,,,,,,,,,,,,,,,,,,,,,,,,,,,,,,main,k,k,1,0.9756364999921061,793.2433986999968,None,None,0,,,,,,,,,,,,,,208,23,Male,2022-05-04_14h48.53.657,Main,2022.1.1,59.93500648295789,
negative,yellow,1,k,None,,,,,,,,,0,234,234,234,,,,,,,,,,,,,,,,,,,,,,,,,,,,,,,,,,,,,main,k,k,1,0.8262549999926705,795.2196597000002,None,None,0,,,,,,,,,,,,,,208,23,Male,2022-05-04_14h48.53.657,Main,2022.1.1,59.93500648295789,
negative,yellow,2,k,None,,,,,,,,,0,235,235,235,,,,,,,,,,,,,,,,,,,,,,,,,,,,,,,,,,,,,main,k,k,1,0.9452766000031261,797.0481327000016,None,None,0,,,,,,,,,,,,,,208,23,Male,2022-05-04_14h48.53.657,Main,2022.1.1,59.93500648295789,
positive,red,1,None,None,,,,,,,,,0,236,236,236,,,,,,,,,,,,,,,,,,,,,,,,,,,,,,,,,,,,,main,None,None,1,1.5063127999892458,798.9954778999963,None,None,1,,,,,,,,,,,,,,208,23,Male,2022-05-04_14h48.53.657,Main,2022.1.1,59.93500648295789,
negative,red,2,None,None,,,,,,,,,0,237,237,237,,,,,,,,,,,,,,,,,,,,,,,,,,,,,,,,,,,,,main,None,None,1,1.4962426999991294,801.5028146999975,None,None,1,,,,,,,,,,,,,,208,23,Male,2022-05-04_14h48.53.657,Main,2022.1.1,59.93500648295789,
negative,blue,1,None,k,,,,,,,,,0,238,238,238,,,,,,,,,,,,,,,,,,,,,,,,,,,,,,,,,,,,,main,None,None,1,1.5058796999946935,804.0014658,None,None,1,,,,,,,,,,,,,,208,23,Male,2022-05-04_14h48.53.657,Main,2022.1.1,59.93500648295789,
positive,blue,1,k,None,,,,,,,,,0,239,239,239,,,,,,,,,,,,,,,,,,,,,,,,,,,,,,,,,,,,,main,k,k,1,0.8931790000060573,806.5098990999977,None,None,0,,,,,,,,,,,,,,208,23,Male,2022-05-04_14h48.53.657,Main,2022.1.1,59.93500648295789,
,,,,,,,,,,,,,,,,,,,,,,,,,,,,,,,,,,,,,,,,,,,,,,,,,,,,,,,,,,,,,,,,,,,,,,,,,808.3928736999951,None,,,,,,,,
