distractor,target,set,ans1,ans2,rep_loop4.thisRepN,rep_loop4.thisTrialN,rep_loop4.thisN,rep_loop4.thisIndex,st2_prac_loop.thisRepN,st2_prac_loop.thisTrialN,st2_prac_loop.thisN,st2_prac_loop.thisIndex,st2_main_loop.thisRepN,st2_main_loop.thisTrialN,st2_main_loop.thisN,st2_main_loop.thisIndex,image_4.started,image_4.stopped,mouse_7.x,mouse_7.y,mouse_7.leftButton,mouse_7.midButton,mouse_7.rightButton,sound_2.started,sound_2.stopped,key_resp_3.keys,mouse_5.x,mouse_5.y,mouse_5.leftButton,mouse_5.midButton,mouse_5.rightButton,mouse_5.started,mouse_5.stopped,yes_text2.started,yes_text2.stopped,no_text2.started,no_text2.stopped,mouse_3.x,mouse_3.y,mouse_3.leftButton,mouse_3.midButton,mouse_3.rightButton,mouse_3.started,mouse_3.stopped,st_prac_back.started,st_prac_back.stopped,st_prac_text.started,st_prac_text.stopped,st_fix_back.started,st_fix_back.stopped,st_fix_2.started,st_fix_2.stopped,main_prac,st_ans,st_res,st_corr,st_rt,st_back.started,st_back.stopped,st2_resp.keys,st2_resp.corr,st_main_back.started,st_main_back.stopped,st_main_text.started,st_main_text.stopped,mouse_4.x,mouse_4.y,mouse_4.leftButton,mouse_4.midButton,mouse_4.rightButton,mouse_4.started,mouse_4.stopped,text_2.started,text_2.stopped,id*,age*,gender*,date,expName,psychopyVersion,frameRate,
,,,,,,,,,,,,,,,,,36.976333599999634,None,-0.05740741,-0.21851853,0,0,0,,,,,,,,,,,,,,,,,,,,,,,,,,,,,,,,,,,,,,,,,,,,,,,,,,,,209,25,Female,2022-05-04_14h58.43.981,Main,2022.1.1,60.17292495184139,
negative,yellow,1,k,None,,,,,0,0,0,0,,,,,,,,,,,,106.8411731899997,None,None,0.39074075,-0.08611111,0,0,0,1.0026697400003286,None,114.13939889999983,None,114.13939889999983,None,-0.07962963,-0.06481481,0,0,0,0.010304390000328567,None,115.52936809999983,None,115.52936809999983,None,117.54484419999972,None,117.54484419999972,None,prac,None,None,1,1.5064690999997765,119.58876729999974,None,None,1,,,,,,,,,,,,,,209,25,Female,2022-05-04_14h58.43.981,Main,2022.1.1,60.17292495184139,
positive,red,2,None,None,,,,,0,1,1,1,,,,,,,,,,,,,,,,,,,,,,,,,,,,,,,,,,,,,,,,,prac,None,None,1,1.5099489999997786,122.07134499999984,None,None,1,,,,,,,,,,,,,,209,25,Female,2022-05-04_14h58.43.981,Main,2022.1.1,60.17292495184139,
negative,blue,2,None,k,,,,,0,2,2,2,,,,,,,,,,,,,,,,,,,,,,,,,,,,,,,,,,,,,,,,,prac,k,k,1,1.3451303000001644,124.58135009999978,None,None,0,,,,,,,,,,,,,,209,25,Female,2022-05-04_14h58.43.981,Main,2022.1.1,60.17292495184139,
positive,yellow,1,None,k,,,,,0,3,3,3,,,,,,,,,,,,,,,,,,,,,,,,,,,,,,,,,,,,,,,,,prac,k,k,1,3.9953318000002582,126.92702579999968,None,None,0,,,,,,,,,,,,,,209,25,Female,2022-05-04_14h58.43.981,Main,2022.1.1,60.17292495184139,
negative,blue,2,None,k,,,,,0,4,4,4,,,,,,,,,,,,,,,,,,,,,,,,,,,,,,,,,,,,,,,,,prac,k,k,1,1.3815832999998747,132.96664599999986,None,None,0,,,,,,,,,,,,,,209,25,Female,2022-05-04_14h58.43.981,Main,2022.1.1,60.17292495184139,
negative,blue,1,None,k,,,,,0,5,5,5,,,,,,,,,,,,,,,,,,,,,,,,,,,,,,,,,,,,,,,,,prac,k,k,1,1.201528700000381,135.34919760000002,None,None,0,,,,,,,,,,,,,,209,25,Female,2022-05-04_14h58.43.981,Main,2022.1.1,60.17292495184139,
negative,yellow,2,k,None,,,,,0,6,6,6,,,,,,,,,,,,,,,,,,,,,,,,,,,,,,,,,,,,,,,,,prac,None,k,0,0.8266700999997738,137.55163519999996,None,None,1,,,,,,,,,,,,,,209,25,Female,2022-05-04_14h58.43.981,Main,2022.1.1,60.17292495184139,
negative,red,1,None,None,,,,,0,7,7,7,,,,,,,,,,,,,,,,,,,,,,,,,,,,,,,,,,,,,,,,,prac,None,k,0,1.2177698000000419,140.39541770000005,None,None,1,,,,,,,,,,,,,,209,25,Female,2022-05-04_14h58.43.981,Main,2022.1.1,60.17292495184139,
positive,yellow,2,None,k,,,,,0,8,8,8,,,,,,,,,,,,,,,,,,,,,,,,,,,,,,,,,,,,,,,,,prac,k,k,1,1.2034788999999364,143.62640299999975,None,None,0,,,,,,,,,,,,,,209,25,Female,2022-05-04_14h58.43.981,Main,2022.1.1,60.17292495184139,
negative,yellow,1,k,None,,,,,0,9,9,9,,,,,,,,,,,,,,,,,,,,,,,,,,,,,,,,,,,,,,,,,prac,None,None,1,1.511492999999973,145.8315865999998,None,None,1,,,,,,,,,,,,,,209,25,Female,2022-05-04_14h58.43.981,Main,2022.1.1,60.17292495184139,
positive,yellow,2,None,k,,,,,0,10,10,10,,,,,,,,,,,,,,,,,,,,,,,,,,,,,,,,,,,,,,,,,prac,k,k,1,0.9294531000000461,148.34683419999965,None,None,0,,,,,,,,,,,,,,209,25,Female,2022-05-04_14h58.43.981,Main,2022.1.1,60.17292495184139,
negative,yellow,2,k,None,,,,,0,11,11,11,,,,,,,,,,,,,,,,,,,,,,,,,,,,,,,,,,,,,,,,,prac,None,None,1,1.5117807999999968,150.27652940000007,None,None,1,,,,,,,,,,,,,,209,25,Female,2022-05-04_14h58.43.981,Main,2022.1.1,60.17292495184139,
negative,red,2,None,None,,,,,0,12,12,12,,,,,,,,,,,,,,,,,,,,,,,,,,,,,,,,,,,,,,,,,prac,None,None,1,1.5038146000001689,152.78715879999982,None,None,1,,,,,,,,,,,,,,209,25,Female,2022-05-04_14h58.43.981,Main,2022.1.1,60.17292495184139,
positive,red,1,None,None,,,,,0,13,13,13,,,,,,,,,,,,,,,,,,,,,,,,,,,,,,,,,,,,,,,,,prac,None,None,1,1.512130099999922,155.29658960000006,None,None,1,,,,,,,,,,,,,,209,25,Female,2022-05-04_14h58.43.981,Main,2022.1.1,60.17292495184139,
positive,blue,2,k,None,,,,,0,14,14,14,,,,,,,,,,,,,,,,,,,,,,,,,,,,,,,,,,,,,,,,,prac,None,None,1,1.5018366999997852,157.8135428999999,None,None,1,,,,,,,,,,,,,,209,25,Female,2022-05-04_14h58.43.981,Main,2022.1.1,60.17292495184139,
positive,blue,1,k,None,,,,,0,15,15,15,,,,,,,,,,,,,,,,,,,,,,,,,,,,,,,,,,,,,,,,,prac,None,None,1,1.508299900000111,160.31535080000003,None,None,1,,,,,,,,,,,,,,209,25,Female,2022-05-04_14h58.43.981,Main,2022.1.1,60.17292495184139,
negative,blue,1,None,k,,,,,0,16,16,16,,,,,,,,,,,,,,,,,,,,,,,,,,,,,,,,,,,,,,,,,prac,k,k,1,1.6826689999998052,162.82516299999997,None,None,0,,,,,,,,,,,,,,209,25,Female,2022-05-04_14h58.43.981,Main,2022.1.1,60.17292495184139,
positive,blue,2,k,None,,,,,0,17,17,17,,,,,,,,,,,,,,,,,,,,,,,,,,,,,,,,,,,,,,,,,prac,None,None,1,1.4956560999999056,166.51654139999982,None,None,1,,,,,,,,,,,,,,209,25,Female,2022-05-04_14h58.43.981,Main,2022.1.1,60.17292495184139,
positive,blue,1,k,None,,,,,0,18,18,18,,,,,,,,,,,,,,,,,,,,,,,,,,,,,,,,,,,,,,,,,prac,None,None,1,1.5005309999996825,169.01191459999973,None,None,1,,,,,,,,,,,,,,209,25,Female,2022-05-04_14h58.43.981,Main,2022.1.1,60.17292495184139,
positive,yellow,1,None,k,,,,,0,19,19,19,,,,,,,,,,,,,,,,,,,,,,,,,,,,,,,,,,,,,,,,,prac,k,k,1,1.0121837000001506,171.51664649999975,None,None,0,,,,,,,,,,,,,,209,25,Female,2022-05-04_14h58.43.981,Main,2022.1.1,60.17292495184139,
negative,yellow,1,k,None,,,,,1,0,20,0,,,,,,,,,,,,,,,,,,,,,,,,,,,,,,,,,,,,,,,,,prac,None,None,1,1.5141888999996809,173.52846439999985,None,None,1,,,,,,,,,,,,,,209,25,Female,2022-05-04_14h58.43.981,Main,2022.1.1,60.17292495184139,
positive,red,2,None,None,,,,,1,1,21,1,,,,,,,,,,,,,,,,,,,,,,,,,,,,,,,,,,,,,,,,,prac,None,None,1,1.4965509000003294,176.04438379999965,None,None,1,,,,,,,,,,,,,,209,25,Female,2022-05-04_14h58.43.981,Main,2022.1.1,60.17292495184139,
negative,blue,2,None,k,,,,,1,2,22,2,,,,,,,,,,,,,,,,,,,,,,,,,,,,,,,,,,,,,,,,,prac,k,k,1,3.0808053999999174,178.54477499999985,None,None,0,,,,,,,,,,,,,,209,25,Female,2022-05-04_14h58.43.981,Main,2022.1.1,60.17292495184139,
positive,yellow,1,None,k,,,,,1,3,23,3,,,,,,,,,,,,,,,,,,,,,,,,,,,,,,,,,,,,,,,,,prac,k,k,1,1.328559199999745,183.64134479999984,None,None,0,,,,,,,,,,,,,,209,25,Female,2022-05-04_14h58.43.981,Main,2022.1.1,60.17292495184139,
negative,blue,2,None,k,,,,,1,4,24,4,,,,,,,,,,,,,,,,,,,,,,,,,,,,,,,,,,,,,,,,,prac,k,k,1,1.0311909000001833,185.97043799999983,None,None,0,,,,,,,,,,,,,,209,25,Female,2022-05-04_14h58.43.981,Main,2022.1.1,60.17292495184139,
negative,blue,1,None,k,,,,,1,5,25,5,,,,,,,,,,,,,,,,,,,,,,,,,,,,,,,,,,,,,,,,,prac,k,k,1,1.0174293000000034,188.00328799999988,None,None,0,,,,,,,,,,,,,,209,25,Female,2022-05-04_14h58.43.981,Main,2022.1.1,60.17292495184139,
negative,yellow,2,k,None,,,,,1,6,26,6,,,,,,,,,,,,,,,,,,,,,,,,,,,,,,,,,,,,,,,,,prac,None,None,1,1.503410299999814,190.02408269999978,None,None,1,,,,,,,,,,,,,,209,25,Female,2022-05-04_14h58.43.981,Main,2022.1.1,60.17292495184139,
negative,red,1,None,None,,,,,1,7,27,7,,,,,,,,,,,,,,,,,,,,,,,,,,,,,,,,,,,,,,,,,prac,None,None,1,1.4970342999999957,192.52870069999972,None,None,1,,,,,,,,,,,,,,209,25,Female,2022-05-04_14h58.43.981,Main,2022.1.1,60.17292495184139,
positive,yellow,2,None,k,,,,,1,8,28,8,,,,,,,,,,,,,,,,,,,,,,,,,,,,,,,,,,,,,,,,,prac,k,k,1,0.8536008000000948,195.0273202999997,None,None,0,,,,,,,,,,,,,,209,25,Female,2022-05-04_14h58.43.981,Main,2022.1.1,60.17292495184139,
negative,yellow,1,k,None,,,,,1,9,29,9,,,,,,,,,,,,,,,,,,,,,,,,,,,,,,,,,,,,,,,,,prac,None,None,1,1.5073748999998315,196.88237279999976,None,None,1,,,,,,,,,,,,,,209,25,Female,2022-05-04_14h58.43.981,Main,2022.1.1,60.17292495184139,
positive,yellow,2,None,k,,,,,1,10,30,10,,,,,,,,,,,,,,,,,,,,,,,,,,,,,,,,,,,,,,,,,prac,k,k,1,1.2844037999998363,199.39234080000006,None,None,0,,,,,,,,,,,,,,209,25,Female,2022-05-04_14h58.43.981,Main,2022.1.1,60.17292495184139,
negative,yellow,2,k,None,,,,,1,11,31,11,,,,,,,,,,,,,,,,,,,,,,,,,,,,,,,,,,,,,,,,,prac,None,None,1,1.5004415000003064,201.67924909999965,None,None,1,,,,,,,,,,,,,,209,25,Female,2022-05-04_14h58.43.981,Main,2022.1.1,60.17292495184139,
negative,red,2,None,None,,,,,1,12,32,12,,,,,,,,,,,,,,,,,,,,,,,,,,,,,,,,,,,,,,,,,prac,None,None,1,1.498710000000301,204.17988689999993,None,None,1,,,,,,,,,,,,,,209,25,Female,2022-05-04_14h58.43.981,Main,2022.1.1,60.17292495184139,
positive,red,1,None,None,,,,,1,13,33,13,,,,,,,,,,,,,,,,,,,,,,,,,,,,,,,,,,,,,,,,,prac,None,None,1,1.5141179000002012,206.68651079999972,None,None,1,,,,,,,,,,,,,,209,25,Female,2022-05-04_14h58.43.981,Main,2022.1.1,60.17292495184139,
positive,blue,2,k,None,,,,,1,14,34,14,,,,,,,,,,,,,,,,,,,,,,,,,,,,,,,,,,,,,,,,,prac,None,None,1,1.5025682000000415,209.1971208,None,None,1,,,,,,,,,,,,,,209,25,Female,2022-05-04_14h58.43.981,Main,2022.1.1,60.17292495184139,
positive,blue,1,k,None,,,,,1,15,35,15,,,,,,,,,,,,,,,,,,,,,,,,,,,,,,,,,,,,,,,,,prac,None,None,1,1.497650899999826,211.7035974999999,None,None,1,,,,,,,,,,,,,,209,25,Female,2022-05-04_14h58.43.981,Main,2022.1.1,60.17292495184139,
negative,blue,1,None,k,,,,,1,16,36,16,,,,,,,,,,,,,,,,,,,,,,,,,,,,,,,,,,,,,,,,,prac,k,k,1,1.806670199999644,214.20260559999997,None,None,0,,,,,,,,,,,,,,209,25,Female,2022-05-04_14h58.43.981,Main,2022.1.1,60.17292495184139,
positive,blue,2,k,None,,,,,1,17,37,17,,,,,,,,,,,,,,,,,,,,,,,,,,,,,,,,,,,,,,,,,prac,None,k,0,-0.7714031999998952,218.02642709999964,None,None,1,,,,,,,,,,,,,,209,25,Female,2022-05-04_14h58.43.981,Main,2022.1.1,60.17292495184139,
positive,blue,1,k,None,,,,,1,18,38,18,,,,,,,,,,,,,,,,,,,,,,,,,,,,,,,,,,,,,,,,,prac,None,None,1,1.4984678000000713,221.27492399999983,None,None,1,,,,,,,,,,,,,,209,25,Female,2022-05-04_14h58.43.981,Main,2022.1.1,60.17292495184139,
positive,yellow,1,None,k,,,,,1,19,39,19,,,,,,,,,,,,,,,,,,,,,,,,,,,,,,,,,,,,,,,,,prac,k,k,1,1.2758232000001044,223.7729746,None,None,0,,,,,,,,,,,,,,209,25,Female,2022-05-04_14h58.43.981,Main,2022.1.1,60.17292495184139,
,,,,,,,,,,,,,,,,,,,,,,,,,,,,,,,,,,,,,,,,,,,,,,,,,,,,,,,,,,,,,,226.07424429999992,None,226.07424429999992,None,0.08148148,0.047222223,0,0,0,0.010332589999507036,None,,,209,25,Female,2022-05-04_14h58.43.981,Main,2022.1.1,60.17292495184139,
negative,yellow,2,k,None,,,,,,,,,0,0,0,0,,,,,,,,,,,,,,,,,,,,,,,,,,,,,,,,,227.47709540000005,None,227.47709540000005,None,main,None,None,1,1.5093290999998317,229.53124959999968,None,None,1,,,,,,,,,,,,,,209,25,Female,2022-05-04_14h58.43.981,Main,2022.1.1,60.17292495184139,
positive,red,1,None,None,,,,,,,,,0,1,1,1,,,,,,,,,,,,,,,,,,,,,,,,,,,,,,,,,,,,,main,None,None,1,1.5040140999999494,232.04429779999964,None,None,1,,,,,,,,,,,,,,209,25,Female,2022-05-04_14h58.43.981,Main,2022.1.1,60.17292495184139,
positive,blue,2,k,None,,,,,,,,,0,2,2,2,,,,,,,,,,,,,,,,,,,,,,,,,,,,,,,,,,,,,main,None,None,1,1.4979525000003377,234.54955259999997,None,None,1,,,,,,,,,,,,,,209,25,Female,2022-05-04_14h58.43.981,Main,2022.1.1,60.17292495184139,
positive,blue,1,k,None,,,,,,,,,0,3,3,3,,,,,,,,,,,,,,,,,,,,,,,,,,,,,,,,,,,,,main,None,None,1,1.500900399999864,237.04866889999994,None,None,1,,,,,,,,,,,,,,209,25,Female,2022-05-04_14h58.43.981,Main,2022.1.1,60.17292495184139,
negative,yellow,2,k,None,,,,,,,,,0,4,4,4,,,,,,,,,,,,,,,,,,,,,,,,,,,,,,,,,,,,,main,None,None,1,1.499248500000249,239.55327279999983,None,None,1,,,,,,,,,,,,,,209,25,Female,2022-05-04_14h58.43.981,Main,2022.1.1,60.17292495184139,
positive,yellow,2,None,k,,,,,,,,,0,5,5,5,,,,,,,,,,,,,,,,,,,,,,,,,,,,,,,,,,,,,main,k,k,1,0.9263371000001825,242.05445370000007,None,None,0,,,,,,,,,,,,,,209,25,Female,2022-05-04_14h58.43.981,Main,2022.1.1,60.17292495184139,
negative,blue,2,None,k,,,,,,,,,0,6,6,6,,,,,,,,,,,,,,,,,,,,,,,,,,,,,,,,,,,,,main,k,k,1,0.9852682000000641,243.9799779,None,None,0,,,,,,,,,,,,,,209,25,Female,2022-05-04_14h58.43.981,Main,2022.1.1,60.17292495184139,
positive,red,2,None,None,,,,,,,,,0,7,7,7,,,,,,,,,,,,,,,,,,,,,,,,,,,,,,,,,,,,,main,None,None,1,1.507129900000109,245.97047629999997,None,None,1,,,,,,,,,,,,,,209,25,Female,2022-05-04_14h58.43.981,Main,2022.1.1,60.17292495184139,
positive,yellow,1,None,k,,,,,,,,,0,8,8,8,,,,,,,,,,,,,,,,,,,,,,,,,,,,,,,,,,,,,main,k,k,1,1.6321726999999555,248.47649309999997,None,None,0,,,,,,,,,,,,,,209,25,Female,2022-05-04_14h58.43.981,Main,2022.1.1,60.17292495184139,
negative,red,1,None,None,,,,,,,,,0,9,9,9,,,,,,,,,,,,,,,,,,,,,,,,,,,,,,,,,,,,,main,None,None,1,1.4989935000003243,252.11066439999968,None,None,1,,,,,,,,,,,,,,209,25,Female,2022-05-04_14h58.43.981,Main,2022.1.1,60.17292495184139,
positive,yellow,1,None,k,,,,,,,,,0,10,10,10,,,,,,,,,,,,,,,,,,,,,,,,,,,,,,,,,,,,,main,k,k,1,0.8880612000002657,254.60927589999983,None,None,0,,,,,,,,,,,,,,209,25,Female,2022-05-04_14h58.43.981,Main,2022.1.1,60.17292495184139,
negative,yellow,1,k,None,,,,,,,,,0,11,11,11,,,,,,,,,,,,,,,,,,,,,,,,,,,,,,,,,,,,,main,None,None,1,1.503454900000179,256.50058739999986,None,None,1,,,,,,,,,,,,,,209,25,Female,2022-05-04_14h58.43.981,Main,2022.1.1,60.17292495184139,
negative,yellow,1,k,None,,,,,,,,,0,12,12,12,,,,,,,,,,,,,,,,,,,,,,,,,,,,,,,,,,,,,main,None,None,1,1.4983201000000008,259.0044748,None,None,1,,,,,,,,,,,,,,209,25,Female,2022-05-04_14h58.43.981,Main,2022.1.1,60.17292495184139,
negative,red,2,None,None,,,,,,,,,0,13,13,13,,,,,,,,,,,,,,,,,,,,,,,,,,,,,,,,,,,,,main,None,None,1,1.5053539000000455,261.5045077999998,None,None,1,,,,,,,,,,,,,,209,25,Female,2022-05-04_14h58.43.981,Main,2022.1.1,60.17292495184139,
positive,yellow,2,None,k,,,,,,,,,0,14,14,14,,,,,,,,,,,,,,,,,,,,,,,,,,,,,,,,,,,,,main,k,k,1,0.8400753999999324,264.01430389999996,None,None,0,,,,,,,,,,,,,,209,25,Female,2022-05-04_14h58.43.981,Main,2022.1.1,60.17292495184139,
positive,blue,1,k,None,,,,,,,,,0,15,15,15,,,,,,,,,,,,,,,,,,,,,,,,,,,,,,,,,,,,,main,None,None,1,1.4969365000001744,265.85575489999974,None,None,1,,,,,,,,,,,,,,209,25,Female,2022-05-04_14h58.43.981,Main,2022.1.1,60.17292495184139,
negative,blue,1,None,k,,,,,,,,,0,16,16,16,,,,,,,,,,,,,,,,,,,,,,,,,,,,,,,,,,,,,main,k,k,1,0.9983932999998615,268.35142849999966,None,None,0,,,,,,,,,,,,,,209,25,Female,2022-05-04_14h58.43.981,Main,2022.1.1,60.17292495184139,
positive,blue,2,k,None,,,,,,,,,0,17,17,17,,,,,,,,,,,,,,,,,,,,,,,,,,,,,,,,,,,,,main,None,None,1,1.5062489999995705,270.3520561,None,None,1,,,,,,,,,,,,,,209,25,Female,2022-05-04_14h58.43.981,Main,2022.1.1,60.17292495184139,
negative,blue,2,None,k,,,,,,,,,0,18,18,18,,,,,,,,,,,,,,,,,,,,,,,,,,,,,,,,,,,,,main,k,k,1,1.7700107000000571,272.8608959999997,None,None,0,,,,,,,,,,,,,,209,25,Female,2022-05-04_14h58.43.981,Main,2022.1.1,60.17292495184139,
negative,blue,1,None,k,,,,,,,,,0,19,19,19,,,,,,,,,,,,,,,,,,,,,,,,,,,,,,,,,,,,,main,k,k,1,0.9961217999998553,276.63354119999985,None,None,0,,,,,,,,,,,,,,209,25,Female,2022-05-04_14h58.43.981,Main,2022.1.1,60.17292495184139,
negative,blue,1,None,k,,,,,,,,,0,20,20,20,,,,,,,,,,,,,,,,,,,,,,,,,,,,,,,,,,,,,main,k,k,1,1.083626600000116,278.62952229999973,None,None,0,,,,,,,,,,,,,,209,25,Female,2022-05-04_14h58.43.981,Main,2022.1.1,60.17292495184139,
negative,blue,2,None,k,,,,,,,,,0,21,21,21,,,,,,,,,,,,,,,,,,,,,,,,,,,,,,,,,,,,,main,k,k,1,1.3441587000002073,280.7174299999997,None,None,0,,,,,,,,,,,,,,209,25,Female,2022-05-04_14h58.43.981,Main,2022.1.1,60.17292495184139,
negative,red,1,None,None,,,,,,,,,0,22,22,22,,,,,,,,,,,,,,,,,,,,,,,,,,,,,,,,,,,,,main,None,None,1,1.4989740000000893,283.0612180999997,None,None,1,,,,,,,,,,,,,,209,25,Female,2022-05-04_14h58.43.981,Main,2022.1.1,60.17292495184139,
positive,red,2,None,None,,,,,,,,,0,23,23,23,,,,,,,,,,,,,,,,,,,,,,,,,,,,,,,,,,,,,main,None,None,1,1.5131387000001268,285.5619394999999,None,None,1,,,,,,,,,,,,,,209,25,Female,2022-05-04_14h58.43.981,Main,2022.1.1,60.17292495184139,
negative,red,2,None,None,,,,,,,,,0,24,24,24,,,,,,,,,,,,,,,,,,,,,,,,,,,,,,,,,,,,,main,None,None,1,1.5013009999997848,288.07708699999966,None,None,1,,,,,,,,,,,,,,209,25,Female,2022-05-04_14h58.43.981,Main,2022.1.1,60.17292495184139,
positive,blue,2,k,None,,,,,,,,,0,25,25,25,,,,,,,,,,,,,,,,,,,,,,,,,,,,,,,,,,,,,main,None,None,1,1.5042498000002524,290.58305960000007,None,None,1,,,,,,,,,,,,,,209,25,Female,2022-05-04_14h58.43.981,Main,2022.1.1,60.17292495184139,
negative,yellow,1,k,None,,,,,,,,,0,26,26,26,,,,,,,,,,,,,,,,,,,,,,,,,,,,,,,,,,,,,main,None,None,1,1.5126980999998523,293.0876552,None,None,1,,,,,,,,,,,,,,209,25,Female,2022-05-04_14h58.43.981,Main,2022.1.1,60.17292495184139,
positive,blue,2,k,None,,,,,,,,,0,27,27,27,,,,,,,,,,,,,,,,,,,,,,,,,,,,,,,,,,,,,main,None,None,1,1.5017703000003166,295.60385159999987,None,None,1,,,,,,,,,,,,,,209,25,Female,2022-05-04_14h58.43.981,Main,2022.1.1,60.17292495184139,
negative,blue,2,None,k,,,,,,,,,0,28,28,28,,,,,,,,,,,,,,,,,,,,,,,,,,,,,,,,,,,,,main,k,k,1,1.7367406999997002,298.1090240999997,None,None,0,,,,,,,,,,,,,,209,25,Female,2022-05-04_14h58.43.981,Main,2022.1.1,60.17292495184139,
positive,red,1,None,None,,,,,,,,,0,29,29,29,,,,,,,,,,,,,,,,,,,,,,,,,,,,,,,,,,,,,main,None,None,1,1.5062619000000268,301.85520559999986,None,None,1,,,,,,,,,,,,,,209,25,Female,2022-05-04_14h58.43.981,Main,2022.1.1,60.17292495184139,
positive,blue,1,k,None,,,,,,,,,0,30,30,30,,,,,,,,,,,,,,,,,,,,,,,,,,,,,,,,,,,,,main,None,None,1,1.4999233000003187,304.3622419999997,None,None,1,,,,,,,,,,,,,,209,25,Female,2022-05-04_14h58.43.981,Main,2022.1.1,60.17292495184139,
positive,yellow,1,None,k,,,,,,,,,0,31,31,31,,,,,,,,,,,,,,,,,,,,,,,,,,,,,,,,,,,,,main,k,k,1,0.6706877000001441,306.86369179999974,None,None,0,,,,,,,,,,,,,,209,25,Female,2022-05-04_14h58.43.981,Main,2022.1.1,60.17292495184139,
negative,yellow,2,k,None,,,,,,,,,0,32,32,32,,,,,,,,,,,,,,,,,,,,,,,,,,,,,,,,,,,,,main,None,None,1,1.4991438000001835,308.5389661999998,None,None,1,,,,,,,,,,,,,,209,25,Female,2022-05-04_14h58.43.981,Main,2022.1.1,60.17292495184139,
negative,blue,1,None,k,,,,,,,,,0,33,33,33,,,,,,,,,,,,,,,,,,,,,,,,,,,,,,,,,,,,,main,k,k,1,0.8714421999998194,311.03924069999994,None,None,0,,,,,,,,,,,,,,209,25,Female,2022-05-04_14h58.43.981,Main,2022.1.1,60.17292495184139,
positive,blue,1,k,None,,,,,,,,,0,34,34,34,,,,,,,,,,,,,,,,,,,,,,,,,,,,,,,,,,,,,main,None,None,1,1.5111731000001782,312.9114959999997,None,None,1,,,,,,,,,,,,,,209,25,Female,2022-05-04_14h58.43.981,Main,2022.1.1,60.17292495184139,
negative,yellow,1,k,None,,,,,,,,,0,35,35,35,,,,,,,,,,,,,,,,,,,,,,,,,,,,,,,,,,,,,main,None,None,1,1.4951238000003286,315.4240808999998,None,None,1,,,,,,,,,,,,,,209,25,Female,2022-05-04_14h58.43.981,Main,2022.1.1,60.17292495184139,
positive,yellow,2,None,k,,,,,,,,,0,36,36,36,,,,,,,,,,,,,,,,,,,,,,,,,,,,,,,,,,,,,main,k,k,1,0.7235273999999663,317.92132619999984,None,None,0,,,,,,,,,,,,,,209,25,Female,2022-05-04_14h58.43.981,Main,2022.1.1,60.17292495184139,
positive,yellow,2,None,k,,,,,,,,,0,37,37,37,,,,,,,,,,,,,,,,,,,,,,,,,,,,,,,,,,,,,main,k,k,1,1.0265000999997937,319.64506329999995,None,None,0,,,,,,,,,,,,,,209,25,Female,2022-05-04_14h58.43.981,Main,2022.1.1,60.17292495184139,
negative,yellow,2,k,None,,,,,,,,,0,38,38,38,,,,,,,,,,,,,,,,,,,,,,,,,,,,,,,,,,,,,main,None,None,1,1.5005261000001155,321.67440959999976,None,None,1,,,,,,,,,,,,,,209,25,Female,2022-05-04_14h58.43.981,Main,2022.1.1,60.17292495184139,
positive,yellow,1,None,k,,,,,,,,,0,39,39,39,,,,,,,,,,,,,,,,,,,,,,,,,,,,,,,,,,,,,main,k,k,1,0.9481907999997929,324.17667029999984,None,None,0,,,,,,,,,,,,,,209,25,Female,2022-05-04_14h58.43.981,Main,2022.1.1,60.17292495184139,
negative,yellow,2,k,None,,,,,,,,,0,40,40,40,,,,,,,,,,,,,,,,,,,,,,,,,,,,,,,,,,,,,main,None,None,1,1.5017993999999817,326.12881979999975,None,None,1,,,,,,,,,,,,,,209,25,Female,2022-05-04_14h58.43.981,Main,2022.1.1,60.17292495184139,
positive,blue,2,k,None,,,,,,,,,0,41,41,41,,,,,,,,,,,,,,,,,,,,,,,,,,,,,,,,,,,,,main,None,None,1,1.5002170999996451,328.64039699999967,None,None,1,,,,,,,,,,,,,,209,25,Female,2022-05-04_14h58.43.981,Main,2022.1.1,60.17292495184139,
positive,blue,2,k,None,,,,,,,,,0,42,42,42,,,,,,,,,,,,,,,,,,,,,,,,,,,,,,,,,,,,,main,None,None,1,1.499580700000024,331.1333556999998,None,None,1,,,,,,,,,,,,,,209,25,Female,2022-05-04_14h58.43.981,Main,2022.1.1,60.17292495184139,
negative,blue,2,None,k,,,,,,,,,0,43,43,43,,,,,,,,,,,,,,,,,,,,,,,,,,,,,,,,,,,,,main,k,k,1,0.8540353000003051,333.6338880999997,None,None,0,,,,,,,,,,,,,,209,25,Female,2022-05-04_14h58.43.981,Main,2022.1.1,60.17292495184139,
negative,red,1,None,None,,,,,,,,,0,44,44,44,,,,,,,,,,,,,,,,,,,,,,,,,,,,,,,,,,,,,main,None,None,1,1.512017499999729,335.4890848,None,None,1,,,,,,,,,,,,,,209,25,Female,2022-05-04_14h58.43.981,Main,2022.1.1,60.17292495184139,
negative,yellow,1,k,None,,,,,,,,,0,45,45,45,,,,,,,,,,,,,,,,,,,,,,,,,,,,,,,,,,,,,main,None,None,1,1.5210417999996935,338.0027897,None,None,1,,,,,,,,,,,,,,209,25,Female,2022-05-04_14h58.43.981,Main,2022.1.1,60.17292495184139,
negative,yellow,1,k,None,,,,,,,,,0,46,46,46,,,,,,,,,,,,,,,,,,,,,,,,,,,,,,,,,,,,,main,None,None,1,1.5088169999999081,340.53521169999976,None,None,1,,,,,,,,,,,,,,209,25,Female,2022-05-04_14h58.43.981,Main,2022.1.1,60.17292495184139,
positive,red,1,None,None,,,,,,,,,0,47,47,47,,,,,,,,,,,,,,,,,,,,,,,,,,,,,,,,,,,,,main,None,None,1,1.5075071000001117,343.04136229999995,None,None,1,,,,,,,,,,,,,,209,25,Female,2022-05-04_14h58.43.981,Main,2022.1.1,60.17292495184139,
positive,yellow,1,None,k,,,,,,,,,0,48,48,48,,,,,,,,,,,,,,,,,,,,,,,,,,,,,,,,,,,,,main,k,k,1,0.7310655999999653,345.5482502,None,None,0,,,,,,,,,,,,,,209,25,Female,2022-05-04_14h58.43.981,Main,2022.1.1,60.17292495184139,
negative,blue,1,None,k,,,,,,,,,0,49,49,49,,,,,,,,,,,,,,,,,,,,,,,,,,,,,,,,,,,,,main,k,k,1,1.566936899999746,347.2865877999998,None,None,0,,,,,,,,,,,,,,209,25,Female,2022-05-04_14h58.43.981,Main,2022.1.1,60.17292495184139,
positive,yellow,2,None,k,,,,,,,,,0,50,50,50,,,,,,,,,,,,,,,,,,,,,,,,,,,,,,,,,,,,,main,k,k,1,0.8653665000001638,350.8670112,None,None,0,,,,,,,,,,,,,,209,25,Female,2022-05-04_14h58.43.981,Main,2022.1.1,60.17292495184139,
negative,blue,1,None,k,,,,,,,,,0,51,51,51,,,,,,,,,,,,,,,,,,,,,,,,,,,,,,,,,,,,,main,k,k,1,0.9572570000000269,352.7335063999999,None,None,0,,,,,,,,,,,,,,209,25,Female,2022-05-04_14h58.43.981,Main,2022.1.1,60.17292495184139,
positive,red,2,None,None,,,,,,,,,0,52,52,52,,,,,,,,,,,,,,,,,,,,,,,,,,,,,,,,,,,,,main,None,None,1,1.502576500000032,354.6910330999999,None,None,1,,,,,,,,,,,,,,209,25,Female,2022-05-04_14h58.43.981,Main,2022.1.1,60.17292495184139,
positive,yellow,2,None,k,,,,,,,,,0,53,53,53,,,,,,,,,,,,,,,,,,,,,,,,,,,,,,,,,,,,,main,k,k,1,0.7834520999999768,357.19410070000004,None,None,0,,,,,,,,,,,,,,209,25,Female,2022-05-04_14h58.43.981,Main,2022.1.1,60.17292495184139,
negative,red,2,None,None,,,,,,,,,0,54,54,54,,,,,,,,,,,,,,,,,,,,,,,,,,,,,,,,,,,,,main,None,None,1,1.5125421000002461,358.97907899999973,None,None,1,,,,,,,,,,,,,,209,25,Female,2022-05-04_14h58.43.981,Main,2022.1.1,60.17292495184139,
positive,yellow,1,None,k,,,,,,,,,0,55,55,55,,,,,,,,,,,,,,,,,,,,,,,,,,,,,,,,,,,,,main,k,k,1,0.5181891000001997,361.49338009999974,None,None,0,,,,,,,,,,,,,,209,25,Female,2022-05-04_14h58.43.981,Main,2022.1.1,60.17292495184139,
negative,blue,2,None,k,,,,,,,,,0,56,56,56,,,,,,,,,,,,,,,,,,,,,,,,,,,,,,,,,,,,,main,k,k,1,0.9086803000000145,363.01546359999975,None,None,0,,,,,,,,,,,,,,209,25,Female,2022-05-04_14h58.43.981,Main,2022.1.1,60.17292495184139,
positive,blue,1,k,None,,,,,,,,,0,57,57,57,,,,,,,,,,,,,,,,,,,,,,,,,,,,,,,,,,,,,main,None,None,1,1.4972825000004377,364.92357189999984,None,None,1,,,,,,,,,,,,,,209,25,Female,2022-05-04_14h58.43.981,Main,2022.1.1,60.17292495184139,
positive,blue,1,k,None,,,,,,,,,0,58,58,58,,,,,,,,,,,,,,,,,,,,,,,,,,,,,,,,,,,,,main,None,k,0,0.8814032999998744,367.4223450999998,None,None,1,,,,,,,,,,,,,,209,25,Female,2022-05-04_14h58.43.981,Main,2022.1.1,60.17292495184139,
negative,yellow,2,k,None,,,,,,,,,0,59,59,59,,,,,,,,,,,,,,,,,,,,,,,,,,,,,,,,,,,,,main,None,None,1,1.504884200000106,370.3073316,None,None,1,,,,,,,,,,,,,,209,25,Female,2022-05-04_14h58.43.981,Main,2022.1.1,60.17292495184139,
positive,red,2,None,None,,,,,,,,,0,60,60,60,,,,,,,,,,,,,,,,,,,,,,,,,,,,,,,,,,,,,main,None,None,1,1.5068931000000703,372.81394,None,None,1,,,,,,,,,,,,,,209,25,Female,2022-05-04_14h58.43.981,Main,2022.1.1,60.17292495184139,
negative,yellow,1,k,None,,,,,,,,,0,61,61,61,,,,,,,,,,,,,,,,,,,,,,,,,,,,,,,,,,,,,main,None,None,1,1.509610000000066,375.3205914,None,None,1,,,,,,,,,,,,,,209,25,Female,2022-05-04_14h58.43.981,Main,2022.1.1,60.17292495184139,
negative,red,1,None,None,,,,,,,,,0,62,62,62,,,,,,,,,,,,,,,,,,,,,,,,,,,,,,,,,,,,,main,None,None,1,1.4956108999999742,377.83325779999996,None,None,1,,,,,,,,,,,,,,209,25,Female,2022-05-04_14h58.43.981,Main,2022.1.1,60.17292495184139,
negative,blue,1,None,k,,,,,,,,,0,63,63,63,,,,,,,,,,,,,,,,,,,,,,,,,,,,,,,,,,,,,main,k,k,1,0.7569733000000269,380.3319610999997,None,None,0,,,,,,,,,,,,,,209,25,Female,2022-05-04_14h58.43.981,Main,2022.1.1,60.17292495184139,
positive,blue,2,k,None,,,,,,,,,0,64,64,64,,,,,,,,,,,,,,,,,,,,,,,,,,,,,,,,,,,,,main,None,None,1,1.5051983999996992,382.0942296999997,None,None,1,,,,,,,,,,,,,,209,25,Female,2022-05-04_14h58.43.981,Main,2022.1.1,60.17292495184139,
negative,yellow,2,k,None,,,,,,,,,0,65,65,65,,,,,,,,,,,,,,,,,,,,,,,,,,,,,,,,,,,,,main,None,None,1,1.4955101999998988,384.6014206,None,None,1,,,,,,,,,,,,,,209,25,Female,2022-05-04_14h58.43.981,Main,2022.1.1,60.17292495184139,
positive,yellow,2,None,k,,,,,,,,,0,66,66,66,,,,,,,,,,,,,,,,,,,,,,,,,,,,,,,,,,,,,main,k,k,1,0.8443462999998701,387.0962768999998,None,None,0,,,,,,,,,,,,,,209,25,Female,2022-05-04_14h58.43.981,Main,2022.1.1,60.17292495184139,
positive,yellow,2,None,k,,,,,,,,,0,67,67,67,,,,,,,,,,,,,,,,,,,,,,,,,,,,,,,,,,,,,main,k,k,1,1.3456542000003537,388.9439564999998,None,None,0,,,,,,,,,,,,,,209,25,Female,2022-05-04_14h58.43.981,Main,2022.1.1,60.17292495184139,
positive,red,1,None,None,,,,,,,,,0,68,68,68,,,,,,,,,,,,,,,,,,,,,,,,,,,,,,,,,,,,,main,None,None,1,1.502478599999904,391.2924573,None,None,1,,,,,,,,,,,,,,209,25,Female,2022-05-04_14h58.43.981,Main,2022.1.1,60.17292495184139,
positive,yellow,1,None,k,,,,,,,,,0,69,69,69,,,,,,,,,,,,,,,,,,,,,,,,,,,,,,,,,,,,,main,k,k,1,0.858210599999893,393.7938144,None,None,0,,,,,,,,,,,,,,209,25,Female,2022-05-04_14h58.43.981,Main,2022.1.1,60.17292495184139,
negative,yellow,2,k,None,,,,,,,,,0,70,70,70,,,,,,,,,,,,,,,,,,,,,,,,,,,,,,,,,,,,,main,None,None,1,1.5112939000000551,395.6585732999997,None,None,1,,,,,,,,,,,,,,209,25,Female,2022-05-04_14h58.43.981,Main,2022.1.1,60.17292495184139,
positive,yellow,1,None,k,,,,,,,,,0,71,71,71,,,,,,,,,,,,,,,,,,,,,,,,,,,,,,,,,,,,,main,k,k,1,0.7470685999996931,398.1695348999997,None,None,0,,,,,,,,,,,,,,209,25,Female,2022-05-04_14h58.43.981,Main,2022.1.1,60.17292495184139,
negative,blue,1,None,k,,,,,,,,,0,72,72,72,,,,,,,,,,,,,,,,,,,,,,,,,,,,,,,,,,,,,main,k,k,1,1.0974056999998538,399.9178373999998,None,None,0,,,,,,,,,,,,,,209,25,Female,2022-05-04_14h58.43.981,Main,2022.1.1,60.17292495184139,
negative,red,2,None,None,,,,,,,,,0,73,73,73,,,,,,,,,,,,,,,,,,,,,,,,,,,,,,,,,,,,,main,None,None,1,1.5038187000000107,402.0207373999997,None,None,1,,,,,,,,,,,,,,209,25,Female,2022-05-04_14h58.43.981,Main,2022.1.1,60.17292495184139,
positive,blue,2,k,None,,,,,,,,,0,74,74,74,,,,,,,,,,,,,,,,,,,,,,,,,,,,,,,,,,,,,main,None,None,1,1.5129261000001861,404.5229208999999,None,None,1,,,,,,,,,,,,,,209,25,Female,2022-05-04_14h58.43.981,Main,2022.1.1,60.17292495184139,
negative,blue,2,None,k,,,,,,,,,0,75,75,75,,,,,,,,,,,,,,,,,,,,,,,,,,,,,,,,,,,,,main,k,k,1,1.4691309999998339,407.03743719999966,None,None,0,,,,,,,,,,,,,,209,25,Female,2022-05-04_14h58.43.981,Main,2022.1.1,60.17292495184139,
negative,blue,2,None,k,,,,,,,,,0,76,76,76,,,,,,,,,,,,,,,,,,,,,,,,,,,,,,,,,,,,,main,k,k,1,0.8198379000000386,409.51089520000005,None,None,0,,,,,,,,,,,,,,209,25,Female,2022-05-04_14h58.43.981,Main,2022.1.1,60.17292495184139,
negative,yellow,1,k,None,,,,,,,,,0,77,77,77,,,,,,,,,,,,,,,,,,,,,,,,,,,,,,,,,,,,,main,None,k,0,1.0401891999999862,411.3309280999997,None,None,1,,,,,,,,,,,,,,209,25,Female,2022-05-04_14h58.43.981,Main,2022.1.1,60.17292495184139,
positive,blue,1,k,None,,,,,,,,,0,78,78,78,,,,,,,,,,,,,,,,,,,,,,,,,,,,,,,,,,,,,main,None,None,1,1.491112300000168,414.3885587,None,None,1,,,,,,,,,,,,,,209,25,Female,2022-05-04_14h58.43.981,Main,2022.1.1,60.17292495184139,
positive,blue,1,k,None,,,,,,,,,0,79,79,79,,,,,,,,,,,,,,,,,,,,,,,,,,,,,,,,,,,,,main,None,None,1,1.5106713000000127,416.87960509999994,None,None,1,,,,,,,,,,,,,,209,25,Female,2022-05-04_14h58.43.981,Main,2022.1.1,60.17292495184139,
positive,red,2,None,None,,,,,,,,,0,80,80,80,,,,,,,,,,,,,,,,,,,,,,,,,,,,,,,,,,,,,main,None,None,1,1.4961647999998604,419.3920036999998,None,None,1,,,,,,,,,,,,,,209,25,Female,2022-05-04_14h58.43.981,Main,2022.1.1,60.17292495184139,
positive,yellow,2,None,k,,,,,,,,,0,81,81,81,,,,,,,,,,,,,,,,,,,,,,,,,,,,,,,,,,,,,main,k,k,1,0.8925706999998511,421.89087489999974,None,None,0,,,,,,,,,,,,,,209,25,Female,2022-05-04_14h58.43.981,Main,2022.1.1,60.17292495184139,
positive,blue,1,k,None,,,,,,,,,0,82,82,82,,,,,,,,,,,,,,,,,,,,,,,,,,,,,,,,,,,,,main,None,None,1,1.5282146999998076,423.78586159999986,None,None,1,,,,,,,,,,,,,,209,25,Female,2022-05-04_14h58.43.981,Main,2022.1.1,60.17292495184139,
negative,yellow,2,k,None,,,,,,,,,0,83,83,83,,,,,,,,,,,,,,,,,,,,,,,,,,,,,,,,,,,,,main,None,None,1,1.4973814999998467,426.31934249999995,None,None,1,,,,,,,,,,,,,,209,25,Female,2022-05-04_14h58.43.981,Main,2022.1.1,60.17292495184139,
positive,blue,2,k,None,,,,,,,,,0,84,84,84,,,,,,,,,,,,,,,,,,,,,,,,,,,,,,,,,,,,,main,None,None,1,1.5140286000000742,428.81394669999963,None,None,1,,,,,,,,,,,,,,209,25,Female,2022-05-04_14h58.43.981,Main,2022.1.1,60.17292495184139,
positive,yellow,1,None,k,,,,,,,,,0,85,85,85,,,,,,,,,,,,,,,,,,,,,,,,,,,,,,,,,,,,,main,k,k,1,1.0309362000002693,431.3300039999999,None,None,0,,,,,,,,,,,,,,209,25,Female,2022-05-04_14h58.43.981,Main,2022.1.1,60.17292495184139,
positive,blue,2,k,None,,,,,,,,,0,86,86,86,,,,,,,,,,,,,,,,,,,,,,,,,,,,,,,,,,,,,main,None,None,1,1.4974311000000853,433.36227359999975,None,None,1,,,,,,,,,,,,,,209,25,Female,2022-05-04_14h58.43.981,Main,2022.1.1,60.17292495184139,
positive,blue,1,k,None,,,,,,,,,0,87,87,87,,,,,,,,,,,,,,,,,,,,,,,,,,,,,,,,,,,,,main,None,None,1,1.4958781000000272,435.8642858999997,None,None,1,,,,,,,,,,,,,,209,25,Female,2022-05-04_14h58.43.981,Main,2022.1.1,60.17292495184139,
negative,yellow,2,k,None,,,,,,,,,0,88,88,88,,,,,,,,,,,,,,,,,,,,,,,,,,,,,,,,,,,,,main,None,None,1,1.5091781000000992,438.3586335,None,None,1,,,,,,,,,,,,,,209,25,Female,2022-05-04_14h58.43.981,Main,2022.1.1,60.17292495184139,
negative,blue,2,None,k,,,,,,,,,0,89,89,89,,,,,,,,,,,,,,,,,,,,,,,,,,,,,,,,,,,,,main,k,k,1,0.8301387000001341,440.8710194,None,None,0,,,,,,,,,,,,,,209,25,Female,2022-05-04_14h58.43.981,Main,2022.1.1,60.17292495184139,
positive,yellow,2,None,k,,,,,,,,,0,90,90,90,,,,,,,,,,,,,,,,,,,,,,,,,,,,,,,,,,,,,main,k,k,1,0.9064769000001434,442.70394179999994,None,None,0,,,,,,,,,,,,,,209,25,Female,2022-05-04_14h58.43.981,Main,2022.1.1,60.17292495184139,
negative,yellow,1,k,None,,,,,,,,,0,91,91,91,,,,,,,,,,,,,,,,,,,,,,,,,,,,,,,,,,,,,main,None,None,1,1.5012729000000036,444.6141425999999,None,None,1,,,,,,,,,,,,,,209,25,Female,2022-05-04_14h58.43.981,Main,2022.1.1,60.17292495184139,
negative,red,2,None,None,,,,,,,,,0,92,92,92,,,,,,,,,,,,,,,,,,,,,,,,,,,,,,,,,,,,,main,None,None,1,1.504147600000124,447.117573,None,None,1,,,,,,,,,,,,,,209,25,Female,2022-05-04_14h58.43.981,Main,2022.1.1,60.17292495184139,
negative,blue,2,None,k,,,,,,,,,0,93,93,93,,,,,,,,,,,,,,,,,,,,,,,,,,,,,,,,,,,,,main,k,k,1,1.5410506000002897,449.6213223,None,None,0,,,,,,,,,,,,,,209,25,Female,2022-05-04_14h58.43.981,Main,2022.1.1,60.17292495184139,
negative,blue,1,None,k,,,,,,,,,0,94,94,94,,,,,,,,,,,,,,,,,,,,,,,,,,,,,,,,,,,,,main,k,k,1,1.6147602000000916,453.1743879999999,None,None,0,,,,,,,,,,,,,,209,25,Female,2022-05-04_14h58.43.981,Main,2022.1.1,60.17292495184139,
negative,blue,1,None,k,,,,,,,,,0,95,95,95,,,,,,,,,,,,,,,,,,,,,,,,,,,,,,,,,,,,,main,k,k,1,0.8634428999998818,456.80316700000003,None,None,0,,,,,,,,,,,,,,209,25,Female,2022-05-04_14h58.43.981,Main,2022.1.1,60.17292495184139,
negative,red,1,None,None,,,,,,,,,0,96,96,96,,,,,,,,,,,,,,,,,,,,,,,,,,,,,,,,,,,,,main,None,None,1,1.498895199999879,458.66494429999966,None,None,1,,,,,,,,,,,,,,209,25,Female,2022-05-04_14h58.43.981,Main,2022.1.1,60.17292495184139,
positive,yellow,1,None,k,,,,,,,,,0,97,97,97,,,,,,,,,,,,,,,,,,,,,,,,,,,,,,,,,,,,,main,k,k,1,0.8761219000002711,461.1662529,None,None,0,,,,,,,,,,,,,,209,25,Female,2022-05-04_14h58.43.981,Main,2022.1.1,60.17292495184139,
negative,yellow,1,k,None,,,,,,,,,0,98,98,98,,,,,,,,,,,,,,,,,,,,,,,,,,,,,,,,,,,,,main,None,None,1,1.5067846000001737,463.04730059999974,None,None,1,,,,,,,,,,,,,,209,25,Female,2022-05-04_14h58.43.981,Main,2022.1.1,60.17292495184139,
positive,red,1,None,None,,,,,,,,,0,99,99,99,,,,,,,,,,,,,,,,,,,,,,,,,,,,,,,,,,,,,main,None,None,1,1.4938184000002366,465.56010289999995,None,None,1,,,,,,,,,,,,,,209,25,Female,2022-05-04_14h58.43.981,Main,2022.1.1,60.17292495184139,
positive,blue,1,k,None,,,,,,,,,0,100,100,100,,,,,,,,,,,,,,,,,,,,,,,,,,,,,,,,,,,,,main,None,None,1,1.50337589999981,468.0509020999998,None,None,1,,,,,,,,,,,,,,209,25,Female,2022-05-04_14h58.43.981,Main,2022.1.1,60.17292495184139,
negative,yellow,1,k,None,,,,,,,,,0,101,101,101,,,,,,,,,,,,,,,,,,,,,,,,,,,,,,,,,,,,,main,None,None,1,1.5017688000002636,470.55528920000006,None,None,1,,,,,,,,,,,,,,209,25,Female,2022-05-04_14h58.43.981,Main,2022.1.1,60.17292495184139,
negative,blue,2,None,k,,,,,,,,,0,102,102,102,,,,,,,,,,,,,,,,,,,,,,,,,,,,,,,,,,,,,main,k,k,1,1.5499049000000014,473.05728580000005,None,None,0,,,,,,,,,,,,,,209,25,Female,2022-05-04_14h58.43.981,Main,2022.1.1,60.17292495184139,
negative,yellow,2,k,None,,,,,,,,,0,103,103,103,,,,,,,,,,,,,,,,,,,,,,,,,,,,,,,,,,,,,main,None,k,0,0.9541067000000112,476.62616230000003,None,None,1,,,,,,,,,,,,,,209,25,Female,2022-05-04_14h58.43.981,Main,2022.1.1,60.17292495184139,
positive,yellow,2,None,k,,,,,,,,,0,104,104,104,,,,,,,,,,,,,,,,,,,,,,,,,,,,,,,,,,,,,main,k,k,1,1.5036153000000922,479.5918466999997,None,None,0,,,,,,,,,,,,,,209,25,Female,2022-05-04_14h58.43.981,Main,2022.1.1,60.17292495184139,
positive,blue,1,k,None,,,,,,,,,0,105,105,105,,,,,,,,,,,,,,,,,,,,,,,,,,,,,,,,,,,,,main,None,None,1,1.4981400000001486,483.10906559999967,None,None,1,,,,,,,,,,,,,,209,25,Female,2022-05-04_14h58.43.981,Main,2022.1.1,60.17292495184139,
positive,blue,2,k,None,,,,,,,,,0,106,106,106,,,,,,,,,,,,,,,,,,,,,,,,,,,,,,,,,,,,,main,None,None,1,1.5134631000000809,485.6073398999997,None,None,1,,,,,,,,,,,,,,209,25,Female,2022-05-04_14h58.43.981,Main,2022.1.1,60.17292495184139,
negative,blue,1,None,k,,,,,,,,,0,107,107,107,,,,,,,,,,,,,,,,,,,,,,,,,,,,,,,,,,,,,main,k,k,1,3.365303199999744,488.12075989999994,None,None,0,,,,,,,,,,,,,,209,25,Female,2022-05-04_14h58.43.981,Main,2022.1.1,60.17292495184139,
positive,yellow,2,None,k,,,,,,,,,0,108,108,108,,,,,,,,,,,,,,,,,,,,,,,,,,,,,,,,,,,,,main,k,k,1,1.0363400000001093,493.50191389999964,None,None,0,,,,,,,,,,,,,,209,25,Female,2022-05-04_14h58.43.981,Main,2022.1.1,60.17292495184139,
negative,yellow,1,k,None,,,,,,,,,0,109,109,109,,,,,,,,,,,,,,,,,,,,,,,,,,,,,,,,,,,,,main,None,None,1,1.4990880000000288,495.54026799999974,None,None,1,,,,,,,,,,,,,,209,25,Female,2022-05-04_14h58.43.981,Main,2022.1.1,60.17292495184139,
negative,blue,2,None,k,,,,,,,,,0,110,110,110,,,,,,,,,,,,,,,,,,,,,,,,,,,,,,,,,,,,,main,k,k,1,2.192828400000053,498.0397033999998,None,None,0,,,,,,,,,,,,,,209,25,Female,2022-05-04_14h58.43.981,Main,2022.1.1,60.17292495184139,
positive,blue,2,k,None,,,,,,,,,0,111,111,111,,,,,,,,,,,,,,,,,,,,,,,,,,,,,,,,,,,,,main,None,None,1,1.4984039000000848,502.24835600000006,None,None,1,,,,,,,,,,,,,,209,25,Female,2022-05-04_14h58.43.981,Main,2022.1.1,60.17292495184139,
negative,blue,1,None,k,,,,,,,,,0,112,112,112,,,,,,,,,,,,,,,,,,,,,,,,,,,,,,,,,,,,,main,k,k,1,0.7098374000001968,504.74824149999995,None,None,0,,,,,,,,,,,,,,209,25,Female,2022-05-04_14h58.43.981,Main,2022.1.1,60.17292495184139,
positive,yellow,1,None,k,,,,,,,,,0,113,113,113,,,,,,,,,,,,,,,,,,,,,,,,,,,,,,,,,,,,,main,k,k,1,0.9360176000000138,506.45849899999985,None,None,0,,,,,,,,,,,,,,209,25,Female,2022-05-04_14h58.43.981,Main,2022.1.1,60.17292495184139,
negative,red,1,None,None,,,,,,,,,0,114,114,114,,,,,,,,,,,,,,,,,,,,,,,,,,,,,,,,,,,,,main,None,None,1,1.5081560999997237,508.39840749999985,None,None,1,,,,,,,,,,,,,,209,25,Female,2022-05-04_14h58.43.981,Main,2022.1.1,60.17292495184139,
positive,red,1,None,None,,,,,,,,,0,115,115,115,,,,,,,,,,,,,,,,,,,,,,,,,,,,,,,,,,,,,main,None,None,1,1.4986006999997699,510.90708689999974,None,None,1,,,,,,,,,,,,,,209,25,Female,2022-05-04_14h58.43.981,Main,2022.1.1,60.17292495184139,
negative,red,2,None,None,,,,,,,,,0,116,116,116,,,,,,,,,,,,,,,,,,,,,,,,,,,,,,,,,,,,,main,None,None,1,1.5117677999996886,513.4068775000001,None,None,1,,,,,,,,,,,,,,209,25,Female,2022-05-04_14h58.43.981,Main,2022.1.1,60.17292495184139,
negative,yellow,2,k,None,,,,,,,,,0,117,117,117,,,,,,,,,,,,,,,,,,,,,,,,,,,,,,,,,,,,,main,None,None,1,1.5133937000000515,515.9215712999999,None,None,1,,,,,,,,,,,,,,209,25,Female,2022-05-04_14h58.43.981,Main,2022.1.1,60.17292495184139,
positive,yellow,1,None,k,,,,,,,,,0,118,118,118,,,,,,,,,,,,,,,,,,,,,,,,,,,,,,,,,,,,,main,k,k,1,-0.7969788000000335,518.4367985999997,None,None,0,,,,,,,,,,,,,,209,25,Female,2022-05-04_14h58.43.981,Main,2022.1.1,60.17292495184139,
positive,red,2,None,None,,,,,,,,,0,119,119,119,,,,,,,,,,,,,,,,,,,,,,,,,,,,,,,,,,,,,main,None,None,1,1.503921700000319,521.6557000999996,None,None,1,,,,,,,,,,,,,,209,25,Female,2022-05-04_14h58.43.981,Main,2022.1.1,60.17292495184139,
positive,blue,2,k,None,,,,,,,,,0,120,120,120,,,,,,,,,,,,,,,,,,,,,,,,,,,,,,,,,,,,,main,None,None,1,1.5062020000000302,524.1618490000001,None,None,1,,,,,,,,,,,,,,209,25,Female,2022-05-04_14h58.43.981,Main,2022.1.1,60.17292495184139,
negative,red,1,None,None,,,,,,,,,0,121,121,121,,,,,,,,,,,,,,,,,,,,,,,,,,,,,,,,,,,,,main,None,None,1,1.5110935000002428,526.6673271999998,None,None,1,,,,,,,,,,,,,,209,25,Female,2022-05-04_14h58.43.981,Main,2022.1.1,60.17292495184139,
positive,yellow,2,None,k,,,,,,,,,0,122,122,122,,,,,,,,,,,,,,,,,,,,,,,,,,,,,,,,,,,,,main,k,k,1,1.4368106000001717,529.1806950999999,None,None,0,,,,,,,,,,,,,,209,25,Female,2022-05-04_14h58.43.981,Main,2022.1.1,60.17292495184139,
negative,red,2,None,None,,,,,,,,,0,123,123,123,,,,,,,,,,,,,,,,,,,,,,,,,,,,,,,,,,,,,main,None,None,1,1.4942313000001377,531.6220992999997,None,None,1,,,,,,,,,,,,,,209,25,Female,2022-05-04_14h58.43.981,Main,2022.1.1,60.17292495184139,
negative,yellow,2,k,None,,,,,,,,,0,124,124,124,,,,,,,,,,,,,,,,,,,,,,,,,,,,,,,,,,,,,main,None,None,1,1.5082406999999876,534.1179103999998,None,None,1,,,,,,,,,,,,,,209,25,Female,2022-05-04_14h58.43.981,Main,2022.1.1,60.17292495184139,
positive,red,1,None,None,,,,,,,,,0,125,125,125,,,,,,,,,,,,,,,,,,,,,,,,,,,,,,,,,,,,,main,None,None,1,1.5009632000001147,536.6262558999997,None,None,1,,,,,,,,,,,,,,209,25,Female,2022-05-04_14h58.43.981,Main,2022.1.1,60.17292495184139,
negative,blue,2,None,k,,,,,,,,,0,126,126,126,,,,,,,,,,,,,,,,,,,,,,,,,,,,,,,,,,,,,main,k,k,1,0.701137099999869,539.1276469,None,None,0,,,,,,,,,,,,,,209,25,Female,2022-05-04_14h58.43.981,Main,2022.1.1,60.17292495184139,
negative,blue,1,None,k,,,,,,,,,0,127,127,127,,,,,,,,,,,,,,,,,,,,,,,,,,,,,,,,,,,,,main,k,k,1,1.5929874999997082,540.8327943999998,None,None,0,,,,,,,,,,,,,,209,25,Female,2022-05-04_14h58.43.981,Main,2022.1.1,60.17292495184139,
negative,yellow,1,k,None,,,,,,,,,0,128,128,128,,,,,,,,,,,,,,,,,,,,,,,,,,,,,,,,,,,,,main,None,None,1,1.4944451999999728,544.4295254999997,None,None,1,,,,,,,,,,,,,,209,25,Female,2022-05-04_14h58.43.981,Main,2022.1.1,60.17292495184139,
negative,yellow,1,k,None,,,,,,,,,0,129,129,129,,,,,,,,,,,,,,,,,,,,,,,,,,,,,,,,,,,,,main,None,None,1,1.513600100000076,546.9269982999999,None,None,1,,,,,,,,,,,,,,209,25,Female,2022-05-04_14h58.43.981,Main,2022.1.1,60.17292495184139,
positive,blue,1,k,None,,,,,,,,,0,130,130,130,,,,,,,,,,,,,,,,,,,,,,,,,,,,,,,,,,,,,main,None,None,1,1.5037194999999883,549.4406816000001,None,None,1,,,,,,,,,,,,,,209,25,Female,2022-05-04_14h58.43.981,Main,2022.1.1,60.17292495184139,
negative,blue,1,None,k,,,,,,,,,0,131,131,131,,,,,,,,,,,,,,,,,,,,,,,,,,,,,,,,,,,,,main,k,k,1,1.1998567000000548,551.9481613999997,None,None,0,,,,,,,,,,,,,,209,25,Female,2022-05-04_14h58.43.981,Main,2022.1.1,60.17292495184139,
negative,blue,2,None,k,,,,,,,,,0,132,132,132,,,,,,,,,,,,,,,,,,,,,,,,,,,,,,,,,,,,,main,k,k,1,0.8594954000000143,554.1486333999997,None,None,0,,,,,,,,,,,,,,209,25,Female,2022-05-04_14h58.43.981,Main,2022.1.1,60.17292495184139,
positive,blue,2,k,None,,,,,,,,,0,133,133,133,,,,,,,,,,,,,,,,,,,,,,,,,,,,,,,,,,,,,main,None,None,1,1.503498000000036,556.0108608,None,None,1,,,,,,,,,,,,,,209,25,Female,2022-05-04_14h58.43.981,Main,2022.1.1,60.17292495184139,
positive,red,2,None,None,,,,,,,,,0,134,134,134,,,,,,,,,,,,,,,,,,,,,,,,,,,,,,,,,,,,,main,None,None,1,1.50114880000001,558.5151349999996,None,None,1,,,,,,,,,,,,,,209,25,Female,2022-05-04_14h58.43.981,Main,2022.1.1,60.17292495184139,
negative,yellow,2,k,None,,,,,,,,,0,135,135,135,,,,,,,,,,,,,,,,,,,,,,,,,,,,,,,,,,,,,main,None,None,1,1.505582400000094,561.0178351999998,None,None,1,,,,,,,,,,,,,,209,25,Female,2022-05-04_14h58.43.981,Main,2022.1.1,60.17292495184139,
positive,yellow,2,None,k,,,,,,,,,0,136,136,136,,,,,,,,,,,,,,,,,,,,,,,,,,,,,,,,,,,,,main,k,k,1,2.062022600000091,563.5271174999998,None,None,0,,,,,,,,,,,,,,209,25,Female,2022-05-04_14h58.43.981,Main,2022.1.1,60.17292495184139,
positive,blue,1,k,None,,,,,,,,,0,137,137,137,,,,,,,,,,,,,,,,,,,,,,,,,,,,,,,,,,,,,main,None,None,1,1.4983878000002733,567.6017604999997,None,None,1,,,,,,,,,,,,,,209,25,Female,2022-05-04_14h58.43.981,Main,2022.1.1,60.17292495184139,
positive,yellow,1,None,k,,,,,,,,,0,138,138,138,,,,,,,,,,,,,,,,,,,,,,,,,,,,,,,,,,,,,main,k,k,1,1.2360743999997794,570.1003225999998,None,None,0,,,,,,,,,,,,,,209,25,Female,2022-05-04_14h58.43.981,Main,2022.1.1,60.17292495184139,
positive,yellow,1,None,k,,,,,,,,,0,139,139,139,,,,,,,,,,,,,,,,,,,,,,,,,,,,,,,,,,,,,main,k,k,1,0.9757452000003468,572.3393892999998,None,None,0,,,,,,,,,,,,,,209,25,Female,2022-05-04_14h58.43.981,Main,2022.1.1,60.17292495184139,
positive,yellow,1,None,k,,,,,,,,,0,140,140,140,,,,,,,,,,,,,,,,,,,,,,,,,,,,,,,,,,,,,main,k,k,1,1.1307168999996975,574.3151180999998,None,None,0,,,,,,,,,,,,,,209,25,Female,2022-05-04_14h58.43.981,Main,2022.1.1,60.17292495184139,
positive,blue,1,k,None,,,,,,,,,0,141,141,141,,,,,,,,,,,,,,,,,,,,,,,,,,,,,,,,,,,,,main,None,None,1,1.5160001999997803,576.4480057999999,None,None,1,,,,,,,,,,,,,,209,25,Female,2022-05-04_14h58.43.981,Main,2022.1.1,60.17292495184139,
positive,blue,2,k,None,,,,,,,,,0,142,142,142,,,,,,,,,,,,,,,,,,,,,,,,,,,,,,,,,,,,,main,None,None,1,1.5103914999999688,578.9679812999998,None,None,1,,,,,,,,,,,,,,209,25,Female,2022-05-04_14h58.43.981,Main,2022.1.1,60.17292495184139,
positive,yellow,2,None,k,,,,,,,,,0,143,143,143,,,,,,,,,,,,,,,,,,,,,,,,,,,,,,,,,,,,,main,k,k,1,1.4639615999999478,581.4791104000001,None,None,0,,,,,,,,,,,,,,209,25,Female,2022-05-04_14h58.43.981,Main,2022.1.1,60.17292495184139,
negative,yellow,2,k,None,,,,,,,,,0,144,144,144,,,,,,,,,,,,,,,,,,,,,,,,,,,,,,,,,,,,,main,None,None,1,1.5006203000002643,583.9433642999998,None,None,1,,,,,,,,,,,,,,209,25,Female,2022-05-04_14h58.43.981,Main,2022.1.1,60.17292495184139,
negative,blue,2,None,k,,,,,,,,,0,145,145,145,,,,,,,,,,,,,,,,,,,,,,,,,,,,,,,,,,,,,main,k,k,1,1.386256499999945,586.4471094,None,None,0,,,,,,,,,,,,,,209,25,Female,2022-05-04_14h58.43.981,Main,2022.1.1,60.17292495184139,
negative,red,1,None,None,,,,,,,,,0,146,146,146,,,,,,,,,,,,,,,,,,,,,,,,,,,,,,,,,,,,,main,None,None,1,1.5061845000000176,588.8342481999998,None,None,1,,,,,,,,,,,,,,209,25,Female,2022-05-04_14h58.43.981,Main,2022.1.1,60.17292495184139,
positive,blue,1,k,None,,,,,,,,,0,147,147,147,,,,,,,,,,,,,,,,,,,,,,,,,,,,,,,,,,,,,main,None,None,1,1.5112820999997894,591.3438508999998,None,None,1,,,,,,,,,,,,,,209,25,Female,2022-05-04_14h58.43.981,Main,2022.1.1,60.17292495184139,
positive,yellow,1,None,k,,,,,,,,,0,148,148,148,,,,,,,,,,,,,,,,,,,,,,,,,,,,,,,,,,,,,main,k,k,1,1.0188961000003474,593.8537222999998,None,None,0,,,,,,,,,,,,,,209,25,Female,2022-05-04_14h58.43.981,Main,2022.1.1,60.17292495184139,
negative,red,2,None,None,,,,,,,,,0,149,149,149,,,,,,,,,,,,,,,,,,,,,,,,,,,,,,,,,,,,,main,None,None,1,1.4995293000001766,595.8771924999996,None,None,1,,,,,,,,,,,,,,209,25,Female,2022-05-04_14h58.43.981,Main,2022.1.1,60.17292495184139,
negative,blue,1,None,k,,,,,,,,,0,150,150,150,,,,,,,,,,,,,,,,,,,,,,,,,,,,,,,,,,,,,main,k,k,1,0.9773027000001093,598.3777255,None,None,0,,,,,,,,,,,,,,209,25,Female,2022-05-04_14h58.43.981,Main,2022.1.1,60.17292495184139,
negative,yellow,2,k,None,,,,,,,,,0,151,151,151,,,,,,,,,,,,,,,,,,,,,,,,,,,,,,,,,,,,,main,None,None,1,1.499444399999902,600.3572047999996,None,None,1,,,,,,,,,,,,,,209,25,Female,2022-05-04_14h58.43.981,Main,2022.1.1,60.17292495184139,
negative,blue,2,None,k,,,,,,,,,0,152,152,152,,,,,,,,,,,,,,,,,,,,,,,,,,,,,,,,,,,,,main,k,k,1,0.852679199999784,602.8581850999999,None,None,0,,,,,,,,,,,,,,209,25,Female,2022-05-04_14h58.43.981,Main,2022.1.1,60.17292495184139,
negative,yellow,1,k,None,,,,,,,,,0,153,153,153,,,,,,,,,,,,,,,,,,,,,,,,,,,,,,,,,,,,,main,None,None,1,1.5111010999999053,604.7181655999998,None,None,1,,,,,,,,,,,,,,209,25,Female,2022-05-04_14h58.43.981,Main,2022.1.1,60.17292495184139,
negative,blue,1,None,k,,,,,,,,,0,154,154,154,,,,,,,,,,,,,,,,,,,,,,,,,,,,,,,,,,,,,main,k,k,1,1.9467101999998704,607.2258876999999,None,None,0,,,,,,,,,,,,,,209,25,Female,2022-05-04_14h58.43.981,Main,2022.1.1,60.17292495184139,
positive,yellow,2,None,k,,,,,,,,,0,155,155,155,,,,,,,,,,,,,,,,,,,,,,,,,,,,,,,,,,,,,main,k,k,1,0.8777712000000975,611.1824997999997,None,None,0,,,,,,,,,,,,,,209,25,Female,2022-05-04_14h58.43.981,Main,2022.1.1,60.17292495184139,
positive,red,2,None,None,,,,,,,,,0,156,156,156,,,,,,,,,,,,,,,,,,,,,,,,,,,,,,,,,,,,,main,None,None,1,1.5057438000003458,613.0608244,None,None,1,,,,,,,,,,,,,,209,25,Female,2022-05-04_14h58.43.981,Main,2022.1.1,60.17292495184139,
positive,red,1,None,None,,,,,,,,,0,157,157,157,,,,,,,,,,,,,,,,,,,,,,,,,,,,,,,,,,,,,main,None,None,1,1.502124399999957,615.5754779999997,None,None,1,,,,,,,,,,,,,,209,25,Female,2022-05-04_14h58.43.981,Main,2022.1.1,60.17292495184139,
positive,blue,2,k,None,,,,,,,,,0,158,158,158,,,,,,,,,,,,,,,,,,,,,,,,,,,,,,,,,,,,,main,None,None,1,1.5141148000002431,618.0731935999997,None,None,1,,,,,,,,,,,,,,209,25,Female,2022-05-04_14h58.43.981,Main,2022.1.1,60.17292495184139,
negative,yellow,1,k,None,,,,,,,,,0,159,159,159,,,,,,,,,,,,,,,,,,,,,,,,,,,,,,,,,,,,,main,None,None,1,1.496849099999963,620.5899657999998,None,None,1,,,,,,,,,,,,,,209,25,Female,2022-05-04_14h58.43.981,Main,2022.1.1,60.17292495184139,
negative,red,2,None,None,,,,,,,,,0,160,160,160,,,,,,,,,,,,,,,,,,,,,,,,,,,,,,,,,,,,,main,None,None,1,1.5128654000000097,623.0892626999998,None,None,1,,,,,,,,,,,,,,209,25,Female,2022-05-04_14h58.43.981,Main,2022.1.1,60.17292495184139,
negative,blue,1,None,k,,,,,,,,,0,161,161,161,,,,,,,,,,,,,,,,,,,,,,,,,,,,,,,,,,,,,main,k,k,1,1.447958700000072,625.6054749999998,None,None,0,,,,,,,,,,,,,,209,25,Female,2022-05-04_14h58.43.981,Main,2022.1.1,60.17292495184139,
negative,blue,1,None,k,,,,,,,,,0,162,162,162,,,,,,,,,,,,,,,,,,,,,,,,,,,,,,,,,,,,,main,k,k,1,0.7018657000003259,628.0576639999999,None,None,0,,,,,,,,,,,,,,209,25,Female,2022-05-04_14h58.43.981,Main,2022.1.1,60.17292495184139,
negative,yellow,1,k,None,,,,,,,,,0,163,163,163,,,,,,,,,,,,,,,,,,,,,,,,,,,,,,,,,,,,,main,None,None,1,1.503817600000275,629.7601679999998,None,None,1,,,,,,,,,,,,,,209,25,Female,2022-05-04_14h58.43.981,Main,2022.1.1,60.17292495184139,
negative,yellow,1,k,None,,,,,,,,,0,164,164,164,,,,,,,,,,,,,,,,,,,,,,,,,,,,,,,,,,,,,main,None,None,1,1.5089183000000048,632.2650759999997,None,None,1,,,,,,,,,,,,,,209,25,Female,2022-05-04_14h58.43.981,Main,2022.1.1,60.17292495184139,
positive,yellow,1,None,k,,,,,,,,,0,165,165,165,,,,,,,,,,,,,,,,,,,,,,,,,,,,,,,,,,,,,main,k,k,1,0.8627007999998568,634.7764084999999,None,None,0,,,,,,,,,,,,,,209,25,Female,2022-05-04_14h58.43.981,Main,2022.1.1,60.17292495184139,
negative,red,1,None,None,,,,,,,,,0,166,166,166,,,,,,,,,,,,,,,,,,,,,,,,,,,,,,,,,,,,,main,None,None,1,1.5101371000000654,636.6401355999997,None,None,1,,,,,,,,,,,,,,209,25,Female,2022-05-04_14h58.43.981,Main,2022.1.1,60.17292495184139,
negative,yellow,2,k,None,,,,,,,,,0,167,167,167,,,,,,,,,,,,,,,,,,,,,,,,,,,,,,,,,,,,,main,None,None,1,1.5136107000002994,639.1498843999998,None,None,1,,,,,,,,,,,,,,209,25,Female,2022-05-04_14h58.43.981,Main,2022.1.1,60.17292495184139,
positive,blue,2,k,None,,,,,,,,,0,168,168,168,,,,,,,,,,,,,,,,,,,,,,,,,,,,,,,,,,,,,main,None,None,1,1.5070866999999453,641.665348,None,None,1,,,,,,,,,,,,,,209,25,Female,2022-05-04_14h58.43.981,Main,2022.1.1,60.17292495184139,
positive,red,2,None,None,,,,,,,,,0,169,169,169,,,,,,,,,,,,,,,,,,,,,,,,,,,,,,,,,,,,,main,None,None,1,1.5107806000000892,644.1752824,None,None,1,,,,,,,,,,,,,,209,25,Female,2022-05-04_14h58.43.981,Main,2022.1.1,60.17292495184139,
positive,red,1,None,None,,,,,,,,,0,170,170,170,,,,,,,,,,,,,,,,,,,,,,,,,,,,,,,,,,,,,main,None,None,1,1.5031764000000294,646.6891507999999,None,None,1,,,,,,,,,,,,,,209,25,Female,2022-05-04_14h58.43.981,Main,2022.1.1,60.17292495184139,
negative,blue,2,None,k,,,,,,,,,0,171,171,171,,,,,,,,,,,,,,,,,,,,,,,,,,,,,,,,,,,,,main,k,k,1,1.344863400000122,649.1926423,None,None,0,,,,,,,,,,,,,,209,25,Female,2022-05-04_14h58.43.981,Main,2022.1.1,60.17292495184139,
positive,blue,2,k,None,,,,,,,,,0,172,172,172,,,,,,,,,,,,,,,,,,,,,,,,,,,,,,,,,,,,,main,None,None,1,1.5041182999998455,651.5403661,None,None,1,,,,,,,,,,,,,,209,25,Female,2022-05-04_14h58.43.981,Main,2022.1.1,60.17292495184139,
negative,yellow,2,k,None,,,,,,,,,0,173,173,173,,,,,,,,,,,,,,,,,,,,,,,,,,,,,,,,,,,,,main,None,None,1,1.4965225000000828,654.0479053999998,None,None,1,,,,,,,,,,,,,,209,25,Female,2022-05-04_14h58.43.981,Main,2022.1.1,60.17292495184139,
positive,yellow,2,None,k,,,,,,,,,0,174,174,174,,,,,,,,,,,,,,,,,,,,,,,,,,,,,,,,,,,,,main,k,k,1,0.8156029000001581,656.5429682999998,None,None,0,,,,,,,,,,,,,,209,25,Female,2022-05-04_14h58.43.981,Main,2022.1.1,60.17292495184139,
negative,blue,2,None,k,,,,,,,,,0,175,175,175,,,,,,,,,,,,,,,,,,,,,,,,,,,,,,,,,,,,,main,k,k,1,1.1229277000002185,658.3618435999997,None,None,0,,,,,,,,,,,,,,209,25,Female,2022-05-04_14h58.43.981,Main,2022.1.1,60.17292495184139,
positive,blue,1,k,None,,,,,,,,,0,176,176,176,,,,,,,,,,,,,,,,,,,,,,,,,,,,,,,,,,,,,main,None,None,1,1.5045241000002534,660.4859563,None,None,1,,,,,,,,,,,,,,209,25,Female,2022-05-04_14h58.43.981,Main,2022.1.1,60.17292495184139,
positive,yellow,1,None,k,,,,,,,,,0,177,177,177,,,,,,,,,,,,,,,,,,,,,,,,,,,,,,,,,,,,,main,k,k,1,1.0355525999998463,662.9921067,None,None,0,,,,,,,,,,,,,,209,25,Female,2022-05-04_14h58.43.981,Main,2022.1.1,60.17292495184139,
positive,blue,1,k,None,,,,,,,,,0,178,178,178,,,,,,,,,,,,,,,,,,,,,,,,,,,,,,,,,,,,,main,None,None,1,1.5093305000000328,665.0297769999997,None,None,1,,,,,,,,,,,,,,209,25,Female,2022-05-04_14h58.43.981,Main,2022.1.1,60.17292495184139,
positive,yellow,2,None,k,,,,,,,,,0,179,179,179,,,,,,,,,,,,,,,,,,,,,,,,,,,,,,,,,,,,,main,k,k,1,0.7722124000001713,667.5390214999998,None,None,0,,,,,,,,,,,,,,209,25,Female,2022-05-04_14h58.43.981,Main,2022.1.1,60.17292495184139,
positive,blue,1,k,None,,,,,,,,,0,180,180,180,,,,,,,,,,,,,,,,,,,,,,,,,,,,,,,,,,,,,main,None,None,1,1.4966228000002957,669.3138092999998,None,None,1,,,,,,,,,,,,,,209,25,Female,2022-05-04_14h58.43.981,Main,2022.1.1,60.17292495184139,
negative,red,1,None,None,,,,,,,,,0,181,181,181,,,,,,,,,,,,,,,,,,,,,,,,,,,,,,,,,,,,,main,None,None,1,1.5064322000002903,671.8119247999998,None,None,1,,,,,,,,,,,,,,209,25,Female,2022-05-04_14h58.43.981,Main,2022.1.1,60.17292495184139,
negative,blue,1,None,k,,,,,,,,,0,182,182,182,,,,,,,,,,,,,,,,,,,,,,,,,,,,,,,,,,,,,main,k,k,1,1.0529257000002872,674.3187874,None,None,0,,,,,,,,,,,,,,209,25,Female,2022-05-04_14h58.43.981,Main,2022.1.1,60.17292495184139,
negative,yellow,2,k,None,,,,,,,,,0,183,183,183,,,,,,,,,,,,,,,,,,,,,,,,,,,,,,,,,,,,,main,None,None,1,1.504302700000153,676.3758508000001,None,None,1,,,,,,,,,,,,,,209,25,Female,2022-05-04_14h58.43.981,Main,2022.1.1,60.17292495184139,
positive,yellow,2,None,k,,,,,,,,,0,184,184,184,,,,,,,,,,,,,,,,,,,,,,,,,,,,,,,,,,,,,main,k,k,1,0.8913853999997627,678.8803161999999,None,None,0,,,,,,,,,,,,,,209,25,Female,2022-05-04_14h58.43.981,Main,2022.1.1,60.17292495184139,
positive,yellow,1,None,k,,,,,,,,,0,185,185,185,,,,,,,,,,,,,,,,,,,,,,,,,,,,,,,,,,,,,main,k,k,1,1.1497451999998702,680.7817691999999,None,None,0,,,,,,,,,,,,,,209,25,Female,2022-05-04_14h58.43.981,Main,2022.1.1,60.17292495184139,
positive,red,2,None,None,,,,,,,,,0,186,186,186,,,,,,,,,,,,,,,,,,,,,,,,,,,,,,,,,,,,,main,None,None,1,1.5020698999996966,682.9276603999997,None,None,1,,,,,,,,,,,,,,209,25,Female,2022-05-04_14h58.43.981,Main,2022.1.1,60.17292495184139,
positive,blue,1,k,None,,,,,,,,,0,187,187,187,,,,,,,,,,,,,,,,,,,,,,,,,,,,,,,,,,,,,main,None,None,1,1.4986461000003146,685.4305359,None,None,1,,,,,,,,,,,,,,209,25,Female,2022-05-04_14h58.43.981,Main,2022.1.1,60.17292495184139,
negative,yellow,1,k,None,,,,,,,,,0,188,188,188,,,,,,,,,,,,,,,,,,,,,,,,,,,,,,,,,,,,,main,None,None,1,1.5004942999999002,687.9332393999998,None,None,1,,,,,,,,,,,,,,209,25,Female,2022-05-04_14h58.43.981,Main,2022.1.1,60.17292495184139,
positive,yellow,2,None,k,,,,,,,,,0,189,189,189,,,,,,,,,,,,,,,,,,,,,,,,,,,,,,,,,,,,,main,k,k,1,0.8195808000000397,690.4351438999997,None,None,0,,,,,,,,,,,,,,209,25,Female,2022-05-04_14h58.43.981,Main,2022.1.1,60.17292495184139,
negative,yellow,2,k,None,,,,,,,,,0,190,190,190,,,,,,,,,,,,,,,,,,,,,,,,,,,,,,,,,,,,,main,None,None,1,1.5020335000003797,692.2556145999997,None,None,1,,,,,,,,,,,,,,209,25,Female,2022-05-04_14h58.43.981,Main,2022.1.1,60.17292495184139,
negative,yellow,1,k,None,,,,,,,,,0,191,191,191,,,,,,,,,,,,,,,,,,,,,,,,,,,,,,,,,,,,,main,None,None,1,1.4959198999999899,694.7579044999998,None,None,1,,,,,,,,,,,,,,209,25,Female,2022-05-04_14h58.43.981,Main,2022.1.1,60.17292495184139,
positive,blue,2,k,None,,,,,,,,,0,192,192,192,,,,,,,,,,,,,,,,,,,,,,,,,,,,,,,,,,,,,main,None,None,1,1.5100330000000213,697.2567267999998,None,None,1,,,,,,,,,,,,,,209,25,Female,2022-05-04_14h58.43.981,Main,2022.1.1,60.17292495184139,
positive,yellow,1,None,k,,,,,,,,,0,193,193,193,,,,,,,,,,,,,,,,,,,,,,,,,,,,,,,,,,,,,main,k,k,1,0.9164516000000731,699.7692775,None,None,0,,,,,,,,,,,,,,209,25,Female,2022-05-04_14h58.43.981,Main,2022.1.1,60.17292495184139,
negative,red,2,None,None,,,,,,,,,0,194,194,194,,,,,,,,,,,,,,,,,,,,,,,,,,,,,,,,,,,,,main,None,None,1,1.4961143000000448,701.6892330000001,None,None,1,,,,,,,,,,,,,,209,25,Female,2022-05-04_14h58.43.981,Main,2022.1.1,60.17292495184139,
positive,red,1,None,None,,,,,,,,,0,195,195,195,,,,,,,,,,,,,,,,,,,,,,,,,,,,,,,,,,,,,main,None,None,1,1.4967133999998623,704.1856705999999,None,None,1,,,,,,,,,,,,,,209,25,Female,2022-05-04_14h58.43.981,Main,2022.1.1,60.17292495184139,
negative,blue,1,None,k,,,,,,,,,0,196,196,196,,,,,,,,,,,,,,,,,,,,,,,,,,,,,,,,,,,,,main,k,k,1,0.8629598000002261,706.6853154999999,None,None,0,,,,,,,,,,,,,,209,25,Female,2022-05-04_14h58.43.981,Main,2022.1.1,60.17292495184139,
positive,blue,2,k,None,,,,,,,,,0,197,197,197,,,,,,,,,,,,,,,,,,,,,,,,,,,,,,,,,,,,,main,None,None,1,1.509474599999976,708.5513498999999,None,None,1,,,,,,,,,,,,,,209,25,Female,2022-05-04_14h58.43.981,Main,2022.1.1,60.17292495184139,
negative,blue,2,None,k,,,,,,,,,0,198,198,198,,,,,,,,,,,,,,,,,,,,,,,,,,,,,,,,,,,,,main,k,k,1,1.1453154999999242,711.0637435999997,None,None,0,,,,,,,,,,,,,,209,25,Female,2022-05-04_14h58.43.981,Main,2022.1.1,60.17292495184139,
negative,blue,2,None,k,,,,,,,,,0,199,199,199,,,,,,,,,,,,,,,,,,,,,,,,,,,,,,,,,,,,,main,k,k,1,0.7783057999999983,713.2121620999997,None,None,0,,,,,,,,,,,,,,209,25,Female,2022-05-04_14h58.43.981,Main,2022.1.1,60.17292495184139,
positive,blue,2,k,None,,,,,,,,,0,200,200,200,,,,,,,,,,,,,,,,,,,,,,,,,,,,,,,,,,,,,main,None,None,1,1.5111895000000004,714.9915109999997,None,None,1,,,,,,,,,,,,,,209,25,Female,2022-05-04_14h58.43.981,Main,2022.1.1,60.17292495184139,
positive,blue,2,k,None,,,,,,,,,0,201,201,201,,,,,,,,,,,,,,,,,,,,,,,,,,,,,,,,,,,,,main,None,None,1,1.5054396000000452,717.5050332000001,None,None,1,,,,,,,,,,,,,,209,25,Female,2022-05-04_14h58.43.981,Main,2022.1.1,60.17292495184139,
negative,yellow,2,k,None,,,,,,,,,0,202,202,202,,,,,,,,,,,,,,,,,,,,,,,,,,,,,,,,,,,,,main,None,k,0,0.6199842000000899,720.0114008999999,None,None,1,,,,,,,,,,,,,,209,25,Female,2022-05-04_14h58.43.981,Main,2022.1.1,60.17292495184139,
positive,red,1,None,None,,,,,,,,,0,203,203,203,,,,,,,,,,,,,,,,,,,,,,,,,,,,,,,,,,,,,main,None,k,0,0.9541125000000648,722.6488534999999,None,None,1,,,,,,,,,,,,,,209,25,Female,2022-05-04_14h58.43.981,Main,2022.1.1,60.17292495184139,
negative,blue,2,None,k,,,,,,,,,0,204,204,204,,,,,,,,,,,,,,,,,,,,,,,,,,,,,,,,,,,,,main,k,k,1,1.4474709999999504,725.6134930999997,None,None,0,,,,,,,,,,,,,,209,25,Female,2022-05-04_14h58.43.981,Main,2022.1.1,60.17292495184139,
negative,red,1,None,None,,,,,,,,,0,205,205,205,,,,,,,,,,,,,,,,,,,,,,,,,,,,,,,,,,,,,main,None,None,1,1.5040152999999918,728.0639198999997,None,None,1,,,,,,,,,,,,,,209,25,Female,2022-05-04_14h58.43.981,Main,2022.1.1,60.17292495184139,
negative,blue,2,None,k,,,,,,,,,0,206,206,206,,,,,,,,,,,,,,,,,,,,,,,,,,,,,,,,,,,,,main,k,k,1,0.8366409000000203,730.5683406999997,None,None,0,,,,,,,,,,,,,,209,25,Female,2022-05-04_14h58.43.981,Main,2022.1.1,60.17292495184139,
negative,yellow,2,k,None,,,,,,,,,0,207,207,207,,,,,,,,,,,,,,,,,,,,,,,,,,,,,,,,,,,,,main,None,None,1,1.5033505999999761,732.4091192999999,None,None,1,,,,,,,,,,,,,,209,25,Female,2022-05-04_14h58.43.981,Main,2022.1.1,60.17292495184139,
positive,yellow,2,None,k,,,,,,,,,0,208,208,208,,,,,,,,,,,,,,,,,,,,,,,,,,,,,,,,,,,,,main,k,k,1,0.909254300000157,734.9135762000001,None,None,0,,,,,,,,,,,,,,209,25,Female,2022-05-04_14h58.43.981,Main,2022.1.1,60.17292495184139,
negative,yellow,1,k,None,,,,,,,,,0,209,209,209,,,,,,,,,,,,,,,,,,,,,,,,,,,,,,,,,,,,,main,None,None,1,1.4979068999996343,736.8248030999998,None,None,1,,,,,,,,,,,,,,209,25,Female,2022-05-04_14h58.43.981,Main,2022.1.1,60.17292495184139,
negative,red,2,None,None,,,,,,,,,0,210,210,210,,,,,,,,,,,,,,,,,,,,,,,,,,,,,,,,,,,,,main,None,None,1,1.510389099999884,739.3215029999997,None,None,1,,,,,,,,,,,,,,209,25,Female,2022-05-04_14h58.43.981,Main,2022.1.1,60.17292495184139,
negative,blue,1,None,k,,,,,,,,,0,211,211,211,,,,,,,,,,,,,,,,,,,,,,,,,,,,,,,,,,,,,main,k,k,1,1.3975225999997747,741.8351184999997,None,None,0,,,,,,,,,,,,,,209,25,Female,2022-05-04_14h58.43.981,Main,2022.1.1,60.17292495184139,
negative,yellow,1,k,None,,,,,,,,,0,212,212,212,,,,,,,,,,,,,,,,,,,,,,,,,,,,,,,,,,,,,main,None,None,1,1.5141441999999188,744.2460596999999,None,None,1,,,,,,,,,,,,,,209,25,Female,2022-05-04_14h58.43.981,Main,2022.1.1,60.17292495184139,
positive,blue,1,k,None,,,,,,,,,0,213,213,213,,,,,,,,,,,,,,,,,,,,,,,,,,,,,,,,,,,,,main,None,None,1,1.5122346000002835,746.7552372999999,None,None,1,,,,,,,,,,,,,,209,25,Female,2022-05-04_14h58.43.981,Main,2022.1.1,60.17292495184139,
positive,blue,1,k,None,,,,,,,,,0,214,214,214,,,,,,,,,,,,,,,,,,,,,,,,,,,,,,,,,,,,,main,None,None,1,1.513814700000239,749.2668232999999,None,None,1,,,,,,,,,,,,,,209,25,Female,2022-05-04_14h58.43.981,Main,2022.1.1,60.17292495184139,
positive,yellow,1,None,k,,,,,,,,,0,215,215,215,,,,,,,,,,,,,,,,,,,,,,,,,,,,,,,,,,,,,main,k,k,1,0.9690451999999823,751.7840865999997,None,None,0,,,,,,,,,,,,,,209,25,Female,2022-05-04_14h58.43.981,Main,2022.1.1,60.17292495184139,
positive,yellow,1,None,k,,,,,,,,,0,216,216,216,,,,,,,,,,,,,,,,,,,,,,,,,,,,,,,,,,,,,main,k,k,1,0.8093766000001779,753.7555407999998,None,None,0,,,,,,,,,,,,,,209,25,Female,2022-05-04_14h58.43.981,Main,2022.1.1,60.17292495184139,
positive,yellow,2,None,k,,,,,,,,,0,217,217,217,,,,,,,,,,,,,,,,,,,,,,,,,,,,,,,,,,,,,main,k,k,1,0.8661851000001661,755.5642441,None,None,0,,,,,,,,,,,,,,209,25,Female,2022-05-04_14h58.43.981,Main,2022.1.1,60.17292495184139,
negative,blue,1,None,k,,,,,,,,,0,218,218,218,,,,,,,,,,,,,,,,,,,,,,,,,,,,,,,,,,,,,main,k,k,1,1.970667599999615,757.4320613,None,None,0,,,,,,,,,,,,,,209,25,Female,2022-05-04_14h58.43.981,Main,2022.1.1,60.17292495184139,
positive,red,2,None,None,,,,,,,,,0,219,219,219,,,,,,,,,,,,,,,,,,,,,,,,,,,,,,,,,,,,,main,None,None,1,1.501644099999794,761.4140875999997,None,None,1,,,,,,,,,,,,,,209,25,Female,2022-05-04_14h58.43.981,Main,2022.1.1,60.17292495184139,
positive,yellow,1,None,k,,,,,,,,,0,220,220,220,,,,,,,,,,,,,,,,,,,,,,,,,,,,,,,,,,,,,main,k,k,1,0.730002599999807,763.9186193,None,None,0,,,,,,,,,,,,,,209,25,Female,2022-05-04_14h58.43.981,Main,2022.1.1,60.17292495184139,
positive,blue,1,k,None,,,,,,,,,0,221,221,221,,,,,,,,,,,,,,,,,,,,,,,,,,,,,,,,,,,,,main,None,None,1,1.509237899999789,765.6489151999999,None,None,1,,,,,,,,,,,,,,209,25,Female,2022-05-04_14h58.43.981,Main,2022.1.1,60.17292495184139,
positive,yellow,2,None,k,,,,,,,,,0,222,222,222,,,,,,,,,,,,,,,,,,,,,,,,,,,,,,,,,,,,,main,k,k,1,0.9119839999998476,768.158234,None,None,0,,,,,,,,,,,,,,209,25,Female,2022-05-04_14h58.43.981,Main,2022.1.1,60.17292495184139,
negative,yellow,1,k,None,,,,,,,,,0,223,223,223,,,,,,,,,,,,,,,,,,,,,,,,,,,,,,,,,,,,,main,None,None,1,1.5073190000002796,770.0725686000001,None,None,1,,,,,,,,,,,,,,209,25,Female,2022-05-04_14h58.43.981,Main,2022.1.1,60.17292495184139,
positive,yellow,2,None,k,,,,,,,,,0,224,224,224,,,,,,,,,,,,,,,,,,,,,,,,,,,,,,,,,,,,,main,k,k,1,1.0804226999998718,772.5828303999997,None,None,0,,,,,,,,,,,,,,209,25,Female,2022-05-04_14h58.43.981,Main,2022.1.1,60.17292495184139,
negative,yellow,2,k,None,,,,,,,,,0,225,225,225,,,,,,,,,,,,,,,,,,,,,,,,,,,,,,,,,,,,,main,None,None,1,1.5070507000000362,774.6656121999999,None,None,1,,,,,,,,,,,,,,209,25,Female,2022-05-04_14h58.43.981,Main,2022.1.1,60.17292495184139,
negative,blue,2,None,k,,,,,,,,,0,226,226,226,,,,,,,,,,,,,,,,,,,,,,,,,,,,,,,,,,,,,main,k,k,1,0.8943975000001956,777.1723443999999,None,None,0,,,,,,,,,,,,,,209,25,Female,2022-05-04_14h58.43.981,Main,2022.1.1,60.17292495184139,
positive,red,2,None,None,,,,,,,,,0,227,227,227,,,,,,,,,,,,,,,,,,,,,,,,,,,,,,,,,,,,,main,None,None,1,1.5076939000000493,779.0699692999997,None,None,1,,,,,,,,,,,,,,209,25,Female,2022-05-04_14h58.43.981,Main,2022.1.1,60.17292495184139,
positive,blue,2,k,None,,,,,,,,,0,228,228,228,,,,,,,,,,,,,,,,,,,,,,,,,,,,,,,,,,,,,main,None,None,1,1.5136658000001262,781.5798199000001,None,None,1,,,,,,,,,,,,,,209,25,Female,2022-05-04_14h58.43.981,Main,2022.1.1,60.17292495184139,
negative,blue,1,None,k,,,,,,,,,0,229,229,229,,,,,,,,,,,,,,,,,,,,,,,,,,,,,,,,,,,,,main,k,k,1,0.6276550999996289,784.1023354999998,None,None,0,,,,,,,,,,,,,,209,25,Female,2022-05-04_14h58.43.981,Main,2022.1.1,60.17292495184139,
positive,yellow,1,None,k,,,,,,,,,0,230,230,230,,,,,,,,,,,,,,,,,,,,,,,,,,,,,,,,,,,,,main,k,k,1,0.9046752999997807,785.7263671999999,None,None,0,,,,,,,,,,,,,,209,25,Female,2022-05-04_14h58.43.981,Main,2022.1.1,60.17292495184139,
negative,blue,2,None,k,,,,,,,,,0,231,231,231,,,,,,,,,,,,,,,,,,,,,,,,,,,,,,,,,,,,,main,k,k,1,0.8969535000001088,787.6349700999999,None,None,0,,,,,,,,,,,,,,209,25,Female,2022-05-04_14h58.43.981,Main,2022.1.1,60.17292495184139,
negative,red,1,None,None,,,,,,,,,0,232,232,232,,,,,,,,,,,,,,,,,,,,,,,,,,,,,,,,,,,,,main,None,None,1,1.49588440000025,789.5311717,None,None,1,,,,,,,,,,,,,,209,25,Female,2022-05-04_14h58.43.981,Main,2022.1.1,60.17292495184139,
positive,blue,2,k,None,,,,,,,,,0,233,233,233,,,,,,,,,,,,,,,,,,,,,,,,,,,,,,,,,,,,,main,None,None,1,1.5032857999999578,792.0304100999997,None,None,1,,,,,,,,,,,,,,209,25,Female,2022-05-04_14h58.43.981,Main,2022.1.1,60.17292495184139,
negative,yellow,1,k,None,,,,,,,,,0,234,234,234,,,,,,,,,,,,,,,,,,,,,,,,,,,,,,,,,,,,,main,None,None,1,1.496903100000054,794.5382523999997,None,None,1,,,,,,,,,,,,,,209,25,Female,2022-05-04_14h58.43.981,Main,2022.1.1,60.17292495184139,
negative,yellow,2,k,None,,,,,,,,,0,235,235,235,,,,,,,,,,,,,,,,,,,,,,,,,,,,,,,,,,,,,main,None,None,1,1.4975249000003714,797.0357220000001,None,None,1,,,,,,,,,,,,,,209,25,Female,2022-05-04_14h58.43.981,Main,2022.1.1,60.17292495184139,
positive,red,1,None,None,,,,,,,,,0,236,236,236,,,,,,,,,,,,,,,,,,,,,,,,,,,,,,,,,,,,,main,None,None,1,1.5005141000001458,799.5354408999997,None,None,1,,,,,,,,,,,,,,209,25,Female,2022-05-04_14h58.43.981,Main,2022.1.1,60.17292495184139,
negative,red,2,None,None,,,,,,,,,0,237,237,237,,,,,,,,,,,,,,,,,,,,,,,,,,,,,,,,,,,,,main,None,None,1,1.5126393000000462,802.0432900000001,None,None,1,,,,,,,,,,,,,,209,25,Female,2022-05-04_14h58.43.981,Main,2022.1.1,60.17292495184139,
negative,blue,1,None,k,,,,,,,,,0,238,238,238,,,,,,,,,,,,,,,,,,,,,,,,,,,,,,,,,,,,,main,k,k,1,2.2568922999998904,804.5521610000001,None,None,0,,,,,,,,,,,,,,209,25,Female,2022-05-04_14h58.43.981,Main,2022.1.1,60.17292495184139,
positive,blue,1,k,None,,,,,,,,,0,239,239,239,,,,,,,,,,,,,,,,,,,,,,,,,,,,,,,,,,,,,main,None,None,1,1.4949577000002137,808.8098172,None,None,1,,,,,,,,,,,,,,209,25,Female,2022-05-04_14h58.43.981,Main,2022.1.1,60.17292495184139,
,,,,,,,,,,,,,,,,,,,,,,,,,,,,,,,,,,,,,,,,,,,,,,,,,,,,,,,,,,,,,,,,,,,,,,,,,811.2944904000001,None,,,,,,,,
