distractor,target,set,ans1,ans2,rep_loop4.thisRepN,rep_loop4.thisTrialN,rep_loop4.thisN,rep_loop4.thisIndex,st2_prac_loop.thisRepN,st2_prac_loop.thisTrialN,st2_prac_loop.thisN,st2_prac_loop.thisIndex,st2_main_loop.thisRepN,st2_main_loop.thisTrialN,st2_main_loop.thisN,st2_main_loop.thisIndex,image_4.started,image_4.stopped,mouse_7.x,mouse_7.y,mouse_7.leftButton,mouse_7.midButton,mouse_7.rightButton,sound_2.started,sound_2.stopped,key_resp_3.keys,mouse_5.x,mouse_5.y,mouse_5.leftButton,mouse_5.midButton,mouse_5.rightButton,mouse_5.started,mouse_5.stopped,yes_text2.started,yes_text2.stopped,no_text2.started,no_text2.stopped,mouse_3.x,mouse_3.y,mouse_3.leftButton,mouse_3.midButton,mouse_3.rightButton,mouse_3.started,mouse_3.stopped,st_prac_back.started,st_prac_back.stopped,st_prac_text.started,st_prac_text.stopped,st_fix_back.started,st_fix_back.stopped,st_fix_2.started,st_fix_2.stopped,main_prac,st_ans,st_res,st_corr,st_rt,st_back.started,st_back.stopped,st2_resp.keys,st2_resp.corr,st_main_back.started,st_main_back.stopped,st_main_text.started,st_main_text.stopped,mouse_4.x,mouse_4.y,mouse_4.leftButton,mouse_4.midButton,mouse_4.rightButton,mouse_4.started,mouse_4.stopped,text_2.started,text_2.stopped,id*,age*,gender*,date,expName,psychopyVersion,frameRate,
,,,,,,,,,,,,,,,,,31.451445099999546,None,0.13703704,-0.010185185,0,0,0,,,,,,,,,,,,,,,,,,,,,,,,,,,,,,,,,,,,,,,,,,,,,,,,,,,,210,24,Female,2022-05-04_16h29.05.235,Main,2022.1.1,60.0869458133576,
negative,yellow,1,k,None,,,,,0,0,0,0,,,,,,,,,,,,36.48000061999191,None,None,0.12037037,-0.4398148,0,0,0,1.0009858200064627,None,91.72287250000227,None,91.72287250000227,None,-0.08148148,-0.11296296,0,0,0,0.012141120008891448,None,92.91096369999286,None,92.91096369999286,None,94.92325189999247,None,94.92325189999247,None,prac,k,k,1,1.7071971999976085,96.93663409999863,None,None,0,,,,,,,,,,,,,,210,24,Female,2022-05-04_16h29.05.235,Main,2022.1.1,60.0869458133576,
positive,red,2,None,None,,,,,0,1,1,1,,,,,,,,,,,,,,,,,,,,,,,,,,,,,,,,,,,,,,,,,prac,None,None,1,1.497272000007797,100.67419350000273,None,None,1,,,,,,,,,,,,,,210,24,Female,2022-05-04_16h29.05.235,Main,2022.1.1,60.0869458133576,
negative,blue,2,None,k,,,,,0,2,2,2,,,,,,,,,,,,,,,,,,,,,,,,,,,,,,,,,,,,,,,,,prac,None,None,1,1.4996697000024142,103.17185309999331,None,None,1,,,,,,,,,,,,,,210,24,Female,2022-05-04_16h29.05.235,Main,2022.1.1,60.0869458133576,
positive,yellow,1,None,k,,,,,0,3,3,3,,,,,,,,,,,,,,,,,,,,,,,,,,,,,,,,,,,,,,,,,prac,None,None,1,1.5144141999917338,105.67280359999859,None,None,1,,,,,,,,,,,,,,210,24,Female,2022-05-04_16h29.05.235,Main,2022.1.1,60.0869458133576,
negative,blue,2,None,k,,,,,0,4,4,4,,,,,,,,,,,,,,,,,,,,,,,,,,,,,,,,,,,,,,,,,prac,None,None,1,1.5017471000028308,108.19113219999417,None,None,1,,,,,,,,,,,,,,210,24,Female,2022-05-04_16h29.05.235,Main,2022.1.1,60.0869458133576,
negative,blue,1,None,k,,,,,0,5,5,5,,,,,,,,,,,,,,,,,,,,,,,,,,,,,,,,,,,,,,,,,prac,None,None,1,1.5066281000035815,110.69446250000328,None,None,1,,,,,,,,,,,,,,210,24,Female,2022-05-04_16h29.05.235,Main,2022.1.1,60.0869458133576,
negative,yellow,2,k,None,,,,,0,6,6,6,,,,,,,,,,,,,,,,,,,,,,,,,,,,,,,,,,,,,,,,,prac,k,k,1,2.0360955000069225,113.20247219999146,None,None,0,,,,,,,,,,,,,,210,24,Female,2022-05-04_16h29.05.235,Main,2022.1.1,60.0869458133576,
negative,red,1,None,None,,,,,0,7,7,7,,,,,,,,,,,,,,,,,,,,,,,,,,,,,,,,,,,,,,,,,prac,None,None,1,1.5057502999989083,117.2553959999932,None,None,1,,,,,,,,,,,,,,210,24,Female,2022-05-04_16h29.05.235,Main,2022.1.1,60.0869458133576,
positive,yellow,2,None,k,,,,,0,8,8,8,,,,,,,,,,,,,,,,,,,,,,,,,,,,,,,,,,,,,,,,,prac,None,None,1,1.5058065000048373,119.76309480000054,None,None,1,,,,,,,,,,,,,,210,24,Female,2022-05-04_16h29.05.235,Main,2022.1.1,60.0869458133576,
negative,yellow,1,k,None,,,,,0,9,9,9,,,,,,,,,,,,,,,,,,,,,,,,,,,,,,,,,,,,,,,,,prac,k,k,1,1.0140509000048041,122.26819279999472,None,None,0,,,,,,,,,,,,,,210,24,Female,2022-05-04_16h29.05.235,Main,2022.1.1,60.0869458133576,
positive,yellow,2,None,k,,,,,0,10,10,10,,,,,,,,,,,,,,,,,,,,,,,,,,,,,,,,,,,,,,,,,prac,None,None,1,1.5042131999944104,124.28483979999146,None,None,1,,,,,,,,,,,,,,210,24,Female,2022-05-04_16h29.05.235,Main,2022.1.1,60.0869458133576,
negative,yellow,2,k,None,,,,,0,11,11,11,,,,,,,,,,,,,,,,,,,,,,,,,,,,,,,,,,,,,,,,,prac,k,k,1,0.9134141999966232,126.7955260000017,None,None,0,,,,,,,,,,,,,,210,24,Female,2022-05-04_16h29.05.235,Main,2022.1.1,60.0869458133576,
negative,red,2,None,None,,,,,0,12,12,12,,,,,,,,,,,,,,,,,,,,,,,,,,,,,,,,,,,,,,,,,prac,None,None,1,1.509462000001804,128.7098382999975,None,None,1,,,,,,,,,,,,,,210,24,Female,2022-05-04_16h29.05.235,Main,2022.1.1,60.0869458133576,
positive,red,1,None,None,,,,,0,13,13,13,,,,,,,,,,,,,,,,,,,,,,,,,,,,,,,,,,,,,,,,,prac,None,None,1,1.5051209999946877,131.21853479999118,None,None,1,,,,,,,,,,,,,,210,24,Female,2022-05-04_16h29.05.235,Main,2022.1.1,60.0869458133576,
positive,blue,2,k,None,,,,,0,14,14,14,,,,,,,,,,,,,,,,,,,,,,,,,,,,,,,,,,,,,,,,,prac,k,k,1,0.6092208999907598,133.72753089999605,None,None,0,,,,,,,,,,,,,,210,24,Female,2022-05-04_16h29.05.235,Main,2022.1.1,60.0869458133576,
positive,blue,1,k,None,,,,,0,15,15,15,,,,,,,,,,,,,,,,,,,,,,,,,,,,,,,,,,,,,,,,,prac,k,k,1,0.8057686999964062,135.335837599996,None,None,0,,,,,,,,,,,,,,210,24,Female,2022-05-04_16h29.05.235,Main,2022.1.1,60.0869458133576,
negative,blue,1,None,k,,,,,0,16,16,16,,,,,,,,,,,,,,,,,,,,,,,,,,,,,,,,,,,,,,,,,prac,None,None,1,1.4963532999972813,137.1449078000005,None,None,1,,,,,,,,,,,,,,210,24,Female,2022-05-04_16h29.05.235,Main,2022.1.1,60.0869458133576,
positive,blue,2,k,None,,,,,0,17,17,17,,,,,,,,,,,,,,,,,,,,,,,,,,,,,,,,,,,,,,,,,prac,k,k,1,0.6742704999924172,139.64382689999184,None,None,0,,,,,,,,,,,,,,210,24,Female,2022-05-04_16h29.05.235,Main,2022.1.1,60.0869458133576,
positive,blue,1,k,None,,,,,0,18,18,18,,,,,,,,,,,,,,,,,,,,,,,,,,,,,,,,,,,,,,,,,prac,k,k,1,0.9089039000100456,141.3168519000028,None,None,0,,,,,,,,,,,,,,210,24,Female,2022-05-04_16h29.05.235,Main,2022.1.1,60.0869458133576,
positive,yellow,1,None,k,,,,,0,19,19,19,,,,,,,,,,,,,,,,,,,,,,,,,,,,,,,,,,,,,,,,,prac,None,None,1,1.4951020000007702,143.22977969999192,None,None,1,,,,,,,,,,,,,,210,24,Female,2022-05-04_16h29.05.235,Main,2022.1.1,60.0869458133576,
negative,yellow,1,k,None,,,,,1,0,20,0,,,,,,,,,,,,,,,,,,,,,,,,,,,,,,,,,,,,,,,,,prac,k,k,1,0.7207906999974512,145.72613660000206,None,None,0,,,,,,,,,,,,,,210,24,Female,2022-05-04_16h29.05.235,Main,2022.1.1,60.0869458133576,
positive,red,2,None,None,,,,,1,1,21,1,,,,,,,,,,,,,,,,,,,,,,,,,,,,,,,,,,,,,,,,,prac,None,None,1,1.5096544999978505,147.44820990000153,None,None,1,,,,,,,,,,,,,,210,24,Female,2022-05-04_16h29.05.235,Main,2022.1.1,60.0869458133576,
negative,blue,2,None,k,,,,,1,2,22,2,,,,,,,,,,,,,,,,,,,,,,,,,,,,,,,,,,,,,,,,,prac,None,None,1,1.505011100001866,149.96192940000037,None,None,1,,,,,,,,,,,,,,210,24,Female,2022-05-04_16h29.05.235,Main,2022.1.1,60.0869458133576,
positive,yellow,1,None,k,,,,,1,3,23,3,,,,,,,,,,,,,,,,,,,,,,,,,,,,,,,,,,,,,,,,,prac,None,None,1,1.5085943000012776,152.4659640000027,None,None,1,,,,,,,,,,,,,,210,24,Female,2022-05-04_16h29.05.235,Main,2022.1.1,60.0869458133576,
negative,blue,2,None,k,,,,,1,4,24,4,,,,,,,,,,,,,,,,,,,,,,,,,,,,,,,,,,,,,,,,,prac,None,None,1,1.4939956000016537,154.97771439999633,None,None,1,,,,,,,,,,,,,,210,24,Female,2022-05-04_16h29.05.235,Main,2022.1.1,60.0869458133576,
negative,blue,1,None,k,,,,,1,5,25,5,,,,,,,,,,,,,,,,,,,,,,,,,,,,,,,,,,,,,,,,,prac,None,None,1,1.5032802000059746,157.47429709999415,None,None,1,,,,,,,,,,,,,,210,24,Female,2022-05-04_16h29.05.235,Main,2022.1.1,60.0869458133576,
negative,yellow,2,k,None,,,,,1,6,26,6,,,,,,,,,,,,,,,,,,,,,,,,,,,,,,,,,,,,,,,,,prac,k,k,1,0.8364138000033563,159.97806989999663,None,None,0,,,,,,,,,,,,,,210,24,Female,2022-05-04_16h29.05.235,Main,2022.1.1,60.0869458133576,
negative,red,1,None,None,,,,,1,7,27,7,,,,,,,,,,,,,,,,,,,,,,,,,,,,,,,,,,,,,,,,,prac,None,None,1,1.5078769999963697,161.81654810000327,None,None,1,,,,,,,,,,,,,,210,24,Female,2022-05-04_16h29.05.235,Main,2022.1.1,60.0869458133576,
positive,yellow,2,None,k,,,,,1,8,28,8,,,,,,,,,,,,,,,,,,,,,,,,,,,,,,,,,,,,,,,,,prac,None,None,1,1.505001400000765,164.32733539999754,None,None,1,,,,,,,,,,,,,,210,24,Female,2022-05-04_16h29.05.235,Main,2022.1.1,60.0869458133576,
negative,yellow,1,k,None,,,,,1,9,29,9,,,,,,,,,,,,,,,,,,,,,,,,,,,,,,,,,,,,,,,,,prac,k,k,1,0.6847196000016993,166.8328179999953,None,None,0,,,,,,,,,,,,,,210,24,Female,2022-05-04_16h29.05.235,Main,2022.1.1,60.0869458133576,
positive,yellow,2,None,k,,,,,1,10,30,10,,,,,,,,,,,,,,,,,,,,,,,,,,,,,,,,,,,,,,,,,prac,None,None,1,1.5087375000002794,168.52150889999757,None,None,1,,,,,,,,,,,,,,210,24,Female,2022-05-04_16h29.05.235,Main,2022.1.1,60.0869458133576,
negative,yellow,2,k,None,,,,,1,11,31,11,,,,,,,,,,,,,,,,,,,,,,,,,,,,,,,,,,,,,,,,,prac,k,k,1,0.7991454000002705,171.0292122999963,None,None,0,,,,,,,,,,,,,,210,24,Female,2022-05-04_16h29.05.235,Main,2022.1.1,60.0869458133576,
negative,red,2,None,None,,,,,1,12,32,12,,,,,,,,,,,,,,,,,,,,,,,,,,,,,,,,,,,,,,,,,prac,None,None,1,1.5014885999989929,172.83307929999137,None,None,1,,,,,,,,,,,,,,210,24,Female,2022-05-04_16h29.05.235,Main,2022.1.1,60.0869458133576,
positive,red,1,None,None,,,,,1,13,33,13,,,,,,,,,,,,,,,,,,,,,,,,,,,,,,,,,,,,,,,,,prac,None,None,1,1.4949289999931352,175.33548799999699,None,None,1,,,,,,,,,,,,,,210,24,Female,2022-05-04_16h29.05.235,Main,2022.1.1,60.0869458133576,
positive,blue,2,k,None,,,,,1,14,34,14,,,,,,,,,,,,,,,,,,,,,,,,,,,,,,,,,,,,,,,,,prac,k,k,1,0.83761700001196,177.83221500000218,None,None,0,,,,,,,,,,,,,,210,24,Female,2022-05-04_16h29.05.235,Main,2022.1.1,60.0869458133576,
positive,blue,1,k,None,,,,,1,15,35,15,,,,,,,,,,,,,,,,,,,,,,,,,,,,,,,,,,,,,,,,,prac,k,k,1,0.7304943000053754,179.67119419999653,None,None,0,,,,,,,,,,,,,,210,24,Female,2022-05-04_16h29.05.235,Main,2022.1.1,60.0869458133576,
negative,blue,1,None,k,,,,,1,16,36,16,,,,,,,,,,,,,,,,,,,,,,,,,,,,,,,,,,,,,,,,,prac,None,None,1,1.4948801999998977,181.40337079999154,None,None,1,,,,,,,,,,,,,,210,24,Female,2022-05-04_16h29.05.235,Main,2022.1.1,60.0869458133576,
positive,blue,2,k,None,,,,,1,17,37,17,,,,,,,,,,,,,,,,,,,,,,,,,,,,,,,,,,,,,,,,,prac,k,k,1,0.7069943999958923,183.89950339999632,None,None,0,,,,,,,,,,,,,,210,24,Female,2022-05-04_16h29.05.235,Main,2022.1.1,60.0869458133576,
positive,blue,1,k,None,,,,,1,18,38,18,,,,,,,,,,,,,,,,,,,,,,,,,,,,,,,,,,,,,,,,,prac,k,k,1,0.7626157999911811,185.60781940000015,None,None,0,,,,,,,,,,,,,,210,24,Female,2022-05-04_16h29.05.235,Main,2022.1.1,60.0869458133576,
positive,yellow,1,None,k,,,,,1,19,39,19,,,,,,,,,,,,,,,,,,,,,,,,,,,,,,,,,,,,,,,,,prac,None,k,0,0.6021799000009196,187.37224050000077,None,None,1,,,,,,,,,,,,,,210,24,Female,2022-05-04_16h29.05.235,Main,2022.1.1,60.0869458133576,
,,,,,,,,,,,,,,,,,,,,,,,,,,,,,,,,,,,,,,,,,,,,,,,,,,,,,,,,,,,,,,190.01126790000126,None,190.01126790000126,None,0.037962962,-0.031481482,0,0,0,0.01593242000672035,None,,,210,24,Female,2022-05-04_16h29.05.235,Main,2022.1.1,60.0869458133576,
negative,yellow,2,k,None,,,,,,,,,0,0,0,0,,,,,,,,,,,,,,,,,,,,,,,,,,,,,,,,,191.16272639999806,None,191.16272639999806,None,main,k,k,1,0.828317599996808,193.2190980000014,None,None,0,,,,,,,,,,,,,,210,24,Female,2022-05-04_16h29.05.235,Main,2022.1.1,60.0869458133576,
positive,red,1,None,None,,,,,,,,,0,1,1,1,,,,,,,,,,,,,,,,,,,,,,,,,,,,,,,,,,,,,main,None,None,1,1.5099048000120092,195.0519701000012,None,None,1,,,,,,,,,,,,,,210,24,Female,2022-05-04_16h29.05.235,Main,2022.1.1,60.0869458133576,
positive,blue,2,k,None,,,,,,,,,0,2,2,2,,,,,,,,,,,,,,,,,,,,,,,,,,,,,,,,,,,,,main,k,k,1,0.8691276000026846,197.56319319999602,None,None,0,,,,,,,,,,,,,,210,24,Female,2022-05-04_16h29.05.235,Main,2022.1.1,60.0869458133576,
positive,blue,1,k,None,,,,,,,,,0,3,3,3,,,,,,,,,,,,,,,,,,,,,,,,,,,,,,,,,,,,,main,k,k,1,0.9508956999925431,199.4342348999926,None,None,0,,,,,,,,,,,,,,210,24,Female,2022-05-04_16h29.05.235,Main,2022.1.1,60.0869458133576,
negative,yellow,2,k,None,,,,,,,,,0,4,4,4,,,,,,,,,,,,,,,,,,,,,,,,,,,,,,,,,,,,,main,k,k,1,0.7812265999964438,201.38491239999712,None,None,0,,,,,,,,,,,,,,210,24,Female,2022-05-04_16h29.05.235,Main,2022.1.1,60.0869458133576,
positive,yellow,2,None,k,,,,,,,,,0,5,5,5,,,,,,,,,,,,,,,,,,,,,,,,,,,,,,,,,,,,,main,None,None,1,1.5085223000060068,203.16835110000102,None,None,1,,,,,,,,,,,,,,210,24,Female,2022-05-04_16h29.05.235,Main,2022.1.1,60.0869458133576,
negative,blue,2,None,k,,,,,,,,,0,6,6,6,,,,,,,,,,,,,,,,,,,,,,,,,,,,,,,,,,,,,main,None,None,1,1.5047230999916792,205.6766706000053,None,None,1,,,,,,,,,,,,,,210,24,Female,2022-05-04_16h29.05.235,Main,2022.1.1,60.0869458133576,
positive,red,2,None,None,,,,,,,,,0,7,7,7,,,,,,,,,,,,,,,,,,,,,,,,,,,,,,,,,,,,,main,None,None,1,1.508024299997487,208.18523970000388,None,None,1,,,,,,,,,,,,,,210,24,Female,2022-05-04_16h29.05.235,Main,2022.1.1,60.0869458133576,
positive,yellow,1,None,k,,,,,,,,,0,8,8,8,,,,,,,,,,,,,,,,,,,,,,,,,,,,,,,,,,,,,main,None,None,1,1.498137599992333,210.6940969999996,None,None,1,,,,,,,,,,,,,,210,24,Female,2022-05-04_16h29.05.235,Main,2022.1.1,60.0869458133576,
negative,red,1,None,None,,,,,,,,,0,9,9,9,,,,,,,,,,,,,,,,,,,,,,,,,,,,,,,,,,,,,main,None,None,1,1.5128398000088055,213.19297560000268,None,None,1,,,,,,,,,,,,,,210,24,Female,2022-05-04_16h29.05.235,Main,2022.1.1,60.0869458133576,
positive,yellow,1,None,k,,,,,,,,,0,10,10,10,,,,,,,,,,,,,,,,,,,,,,,,,,,,,,,,,,,,,main,None,None,1,1.4979668000014499,215.70729869999923,None,None,1,,,,,,,,,,,,,,210,24,Female,2022-05-04_16h29.05.235,Main,2022.1.1,60.0869458133576,
negative,yellow,1,k,None,,,,,,,,,0,11,11,11,,,,,,,,,,,,,,,,,,,,,,,,,,,,,,,,,,,,,main,k,k,1,0.8329801999934716,218.20602650000365,None,None,0,,,,,,,,,,,,,,210,24,Female,2022-05-04_16h29.05.235,Main,2022.1.1,60.0869458133576,
negative,yellow,1,k,None,,,,,,,,,0,12,12,12,,,,,,,,,,,,,,,,,,,,,,,,,,,,,,,,,,,,,main,k,k,1,0.8394750000006752,220.04277580000053,None,None,0,,,,,,,,,,,,,,210,24,Female,2022-05-04_16h29.05.235,Main,2022.1.1,60.0869458133576,
negative,red,2,None,None,,,,,,,,,0,13,13,13,,,,,,,,,,,,,,,,,,,,,,,,,,,,,,,,,,,,,main,None,None,1,1.495203999991645,221.88416479999432,None,None,1,,,,,,,,,,,,,,210,24,Female,2022-05-04_16h29.05.235,Main,2022.1.1,60.0869458133576,
positive,yellow,2,None,k,,,,,,,,,0,14,14,14,,,,,,,,,,,,,,,,,,,,,,,,,,,,,,,,,,,,,main,None,None,1,1.5009280999947805,224.38095999999496,None,None,1,,,,,,,,,,,,,,210,24,Female,2022-05-04_16h29.05.235,Main,2022.1.1,60.0869458133576,
positive,blue,1,k,None,,,,,,,,,0,15,15,15,,,,,,,,,,,,,,,,,,,,,,,,,,,,,,,,,,,,,main,k,k,1,0.6752440999989631,226.88447029999224,None,None,0,,,,,,,,,,,,,,210,24,Female,2022-05-04_16h29.05.235,Main,2022.1.1,60.0869458133576,
negative,blue,1,None,k,,,,,,,,,0,16,16,16,,,,,,,,,,,,,,,,,,,,,,,,,,,,,,,,,,,,,main,None,None,1,1.5003247999993619,228.55860329999996,None,None,1,,,,,,,,,,,,,,210,24,Female,2022-05-04_16h29.05.235,Main,2022.1.1,60.0869458133576,
positive,blue,2,k,None,,,,,,,,,0,17,17,17,,,,,,,,,,,,,,,,,,,,,,,,,,,,,,,,,,,,,main,k,k,1,0.6933426000032341,231.06215850000444,None,None,0,,,,,,,,,,,,,,210,24,Female,2022-05-04_16h29.05.235,Main,2022.1.1,60.0869458133576,
negative,blue,2,None,k,,,,,,,,,0,18,18,18,,,,,,,,,,,,,,,,,,,,,,,,,,,,,,,,,,,,,main,None,None,1,1.4999846999999136,232.75483779999195,None,None,1,,,,,,,,,,,,,,210,24,Female,2022-05-04_16h29.05.235,Main,2022.1.1,60.0869458133576,
negative,blue,1,None,k,,,,,,,,,0,19,19,19,,,,,,,,,,,,,,,,,,,,,,,,,,,,,,,,,,,,,main,None,None,1,1.5012967999937246,235.25559590000194,None,None,1,,,,,,,,,,,,,,210,24,Female,2022-05-04_16h29.05.235,Main,2022.1.1,60.0869458133576,
negative,blue,1,None,k,,,,,,,,,0,20,20,20,,,,,,,,,,,,,,,,,,,,,,,,,,,,,,,,,,,,,main,None,None,1,1.5123937000025762,237.7623317999969,None,None,1,,,,,,,,,,,,,,210,24,Female,2022-05-04_16h29.05.235,Main,2022.1.1,60.0869458133576,
negative,blue,2,None,k,,,,,,,,,0,21,21,21,,,,,,,,,,,,,,,,,,,,,,,,,,,,,,,,,,,,,main,None,None,1,1.5119173000130104,240.27797880000435,None,None,1,,,,,,,,,,,,,,210,24,Female,2022-05-04_16h29.05.235,Main,2022.1.1,60.0869458133576,
negative,red,1,None,None,,,,,,,,,0,22,22,22,,,,,,,,,,,,,,,,,,,,,,,,,,,,,,,,,,,,,main,None,None,1,1.5129769999912241,242.7877456999995,None,None,1,,,,,,,,,,,,,,210,24,Female,2022-05-04_16h29.05.235,Main,2022.1.1,60.0869458133576,
positive,red,2,None,None,,,,,,,,,0,23,23,23,,,,,,,,,,,,,,,,,,,,,,,,,,,,,,,,,,,,,main,None,None,1,1.50370469999325,245.30307039999752,None,None,1,,,,,,,,,,,,,,210,24,Female,2022-05-04_16h29.05.235,Main,2022.1.1,60.0869458133576,
negative,red,2,None,None,,,,,,,,,0,24,24,24,,,,,,,,,,,,,,,,,,,,,,,,,,,,,,,,,,,,,main,None,None,1,1.505073899999843,247.8107411999954,None,None,1,,,,,,,,,,,,,,210,24,Female,2022-05-04_16h29.05.235,Main,2022.1.1,60.0869458133576,
positive,blue,2,k,None,,,,,,,,,0,25,25,25,,,,,,,,,,,,,,,,,,,,,,,,,,,,,,,,,,,,,main,k,k,1,1.3050672999961535,250.31729350000387,None,None,0,,,,,,,,,,,,,,210,24,Female,2022-05-04_16h29.05.235,Main,2022.1.1,60.0869458133576,
negative,yellow,1,k,None,,,,,,,,,0,26,26,26,,,,,,,,,,,,,,,,,,,,,,,,,,,,,,,,,,,,,main,k,k,1,0.8687049000000115,252.62103310000384,None,None,0,,,,,,,,,,,,,,210,24,Female,2022-05-04_16h29.05.235,Main,2022.1.1,60.0869458133576,
positive,blue,2,k,None,,,,,,,,,0,27,27,27,,,,,,,,,,,,,,,,,,,,,,,,,,,,,,,,,,,,,main,k,k,1,0.8539331000065431,254.4935695000022,None,None,0,,,,,,,,,,,,,,210,24,Female,2022-05-04_16h29.05.235,Main,2022.1.1,60.0869458133576,
negative,blue,2,None,k,,,,,,,,,0,28,28,28,,,,,,,,,,,,,,,,,,,,,,,,,,,,,,,,,,,,,main,None,None,1,1.5114509999984875,256.34881509999104,None,None,1,,,,,,,,,,,,,,210,24,Female,2022-05-04_16h29.05.235,Main,2022.1.1,60.0869458133576,
positive,red,1,None,None,,,,,,,,,0,29,29,29,,,,,,,,,,,,,,,,,,,,,,,,,,,,,,,,,,,,,main,None,None,1,1.5019770999933826,258.8618406000023,None,None,1,,,,,,,,,,,,,,210,24,Female,2022-05-04_16h29.05.235,Main,2022.1.1,60.0869458133576,
positive,blue,1,k,None,,,,,,,,,0,30,30,30,,,,,,,,,,,,,,,,,,,,,,,,,,,,,,,,,,,,,main,k,k,1,0.8724023999966448,261.3654632999969,None,None,0,,,,,,,,,,,,,,210,24,Female,2022-05-04_16h29.05.235,Main,2022.1.1,60.0869458133576,
positive,yellow,1,None,k,,,,,,,,,0,31,31,31,,,,,,,,,,,,,,,,,,,,,,,,,,,,,,,,,,,,,main,None,None,1,1.5016403999907197,263.24144860000524,None,None,1,,,,,,,,,,,,,,210,24,Female,2022-05-04_16h29.05.235,Main,2022.1.1,60.0869458133576,
negative,yellow,2,k,None,,,,,,,,,0,32,32,32,,,,,,,,,,,,,,,,,,,,,,,,,,,,,,,,,,,,,main,k,k,1,1.026153200000408,265.7451887999923,None,None,0,,,,,,,,,,,,,,210,24,Female,2022-05-04_16h29.05.235,Main,2022.1.1,60.0869458133576,
negative,blue,1,None,k,,,,,,,,,0,33,33,33,,,,,,,,,,,,,,,,,,,,,,,,,,,,,,,,,,,,,main,None,None,1,1.4958418000023812,267.77444199999445,None,None,1,,,,,,,,,,,,,,210,24,Female,2022-05-04_16h29.05.235,Main,2022.1.1,60.0869458133576,
positive,blue,1,k,None,,,,,,,,,0,34,34,34,,,,,,,,,,,,,,,,,,,,,,,,,,,,,,,,,,,,,main,k,k,1,0.7423616999876685,270.2703607000003,None,None,0,,,,,,,,,,,,,,210,24,Female,2022-05-04_16h29.05.235,Main,2022.1.1,60.0869458133576,
negative,yellow,1,k,None,,,,,,,,,0,35,35,35,,,,,,,,,,,,,,,,,,,,,,,,,,,,,,,,,,,,,main,k,k,1,0.9883658999897307,272.0134026000014,None,None,0,,,,,,,,,,,,,,210,24,Female,2022-05-04_16h29.05.235,Main,2022.1.1,60.0869458133576,
positive,yellow,2,None,k,,,,,,,,,0,36,36,36,,,,,,,,,,,,,,,,,,,,,,,,,,,,,,,,,,,,,main,None,None,1,1.4958028999972157,274.0037389999925,None,None,1,,,,,,,,,,,,,,210,24,Female,2022-05-04_16h29.05.235,Main,2022.1.1,60.0869458133576,
positive,yellow,2,None,k,,,,,,,,,0,37,37,37,,,,,,,,,,,,,,,,,,,,,,,,,,,,,,,,,,,,,main,None,None,1,1.5052506999927573,276.49809229999664,None,None,1,,,,,,,,,,,,,,210,24,Female,2022-05-04_16h29.05.235,Main,2022.1.1,60.0869458133576,
negative,yellow,2,k,None,,,,,,,,,0,38,38,38,,,,,,,,,,,,,,,,,,,,,,,,,,,,,,,,,,,,,main,k,k,1,0.7638198000058765,279.0080403000029,None,None,0,,,,,,,,,,,,,,210,24,Female,2022-05-04_16h29.05.235,Main,2022.1.1,60.0869458133576,
positive,yellow,1,None,k,,,,,,,,,0,39,39,39,,,,,,,,,,,,,,,,,,,,,,,,,,,,,,,,,,,,,main,None,None,1,1.5092994000006001,280.7735262999922,None,None,1,,,,,,,,,,,,,,210,24,Female,2022-05-04_16h29.05.235,Main,2022.1.1,60.0869458133576,
negative,yellow,2,k,None,,,,,,,,,0,40,40,40,,,,,,,,,,,,,,,,,,,,,,,,,,,,,,,,,,,,,main,k,k,1,0.8334267000027467,283.28202800000145,None,None,0,,,,,,,,,,,,,,210,24,Female,2022-05-04_16h29.05.235,Main,2022.1.1,60.0869458133576,
positive,blue,2,k,None,,,,,,,,,0,41,41,41,,,,,,,,,,,,,,,,,,,,,,,,,,,,,,,,,,,,,main,k,k,1,0.9170249999879161,285.11682529999234,None,None,0,,,,,,,,,,,,,,210,24,Female,2022-05-04_16h29.05.235,Main,2022.1.1,60.0869458133576,
positive,blue,2,k,None,,,,,,,,,0,42,42,42,,,,,,,,,,,,,,,,,,,,,,,,,,,,,,,,,,,,,main,k,k,1,0.7189711999963038,287.0378472000011,None,None,0,,,,,,,,,,,,,,210,24,Female,2022-05-04_16h29.05.235,Main,2022.1.1,60.0869458133576,
negative,blue,2,None,k,,,,,,,,,0,43,43,43,,,,,,,,,,,,,,,,,,,,,,,,,,,,,,,,,,,,,main,None,None,1,1.4997118000028422,288.75795250000374,None,None,1,,,,,,,,,,,,,,210,24,Female,2022-05-04_16h29.05.235,Main,2022.1.1,60.0869458133576,
negative,red,1,None,None,,,,,,,,,0,44,44,44,,,,,,,,,,,,,,,,,,,,,,,,,,,,,,,,,,,,,main,None,None,1,1.4935987999924691,291.2593659999984,None,None,1,,,,,,,,,,,,,,210,24,Female,2022-05-04_16h29.05.235,Main,2022.1.1,60.0869458133576,
negative,yellow,1,k,None,,,,,,,,,0,45,45,45,,,,,,,,,,,,,,,,,,,,,,,,,,,,,,,,,,,,,main,k,k,1,0.7481914999953005,293.7547491000005,None,None,0,,,,,,,,,,,,,,210,24,Female,2022-05-04_16h29.05.235,Main,2022.1.1,60.0869458133576,
negative,yellow,1,k,None,,,,,,,,,0,46,46,46,,,,,,,,,,,,,,,,,,,,,,,,,,,,,,,,,,,,,main,k,k,1,1.047441799993976,295.5035777000012,None,None,0,,,,,,,,,,,,,,210,24,Female,2022-05-04_16h29.05.235,Main,2022.1.1,60.0869458133576,
positive,red,1,None,None,,,,,,,,,0,47,47,47,,,,,,,,,,,,,,,,,,,,,,,,,,,,,,,,,,,,,main,None,None,1,1.511115700006485,297.55330489999324,None,None,1,,,,,,,,,,,,,,210,24,Female,2022-05-04_16h29.05.235,Main,2022.1.1,60.0869458133576,
positive,yellow,1,None,k,,,,,,,,,0,48,48,48,,,,,,,,,,,,,,,,,,,,,,,,,,,,,,,,,,,,,main,None,None,1,1.4989080999948783,300.0639738000027,None,None,1,,,,,,,,,,,,,,210,24,Female,2022-05-04_16h29.05.235,Main,2022.1.1,60.0869458133576,
negative,blue,1,None,k,,,,,,,,,0,49,49,49,,,,,,,,,,,,,,,,,,,,,,,,,,,,,,,,,,,,,main,None,None,1,1.498226399999112,302.5667652999982,None,None,1,,,,,,,,,,,,,,210,24,Female,2022-05-04_16h29.05.235,Main,2022.1.1,60.0869458133576,
positive,yellow,2,None,k,,,,,,,,,0,50,50,50,,,,,,,,,,,,,,,,,,,,,,,,,,,,,,,,,,,,,main,None,None,1,1.4981353000039235,305.0642911000032,None,None,1,,,,,,,,,,,,,,210,24,Female,2022-05-04_16h29.05.235,Main,2022.1.1,60.0869458133576,
negative,blue,1,None,k,,,,,,,,,0,51,51,51,,,,,,,,,,,,,,,,,,,,,,,,,,,,,,,,,,,,,main,None,None,1,1.5111516999895684,307.56398370000534,None,None,1,,,,,,,,,,,,,,210,24,Female,2022-05-04_16h29.05.235,Main,2022.1.1,60.0869458133576,
positive,red,2,None,None,,,,,,,,,0,52,52,52,,,,,,,,,,,,,,,,,,,,,,,,,,,,,,,,,,,,,main,None,None,1,1.4998148000013316,310.0773709999921,None,None,1,,,,,,,,,,,,,,210,24,Female,2022-05-04_16h29.05.235,Main,2022.1.1,60.0869458133576,
positive,yellow,2,None,k,,,,,,,,,0,53,53,53,,,,,,,,,,,,,,,,,,,,,,,,,,,,,,,,,,,,,main,None,None,1,1.4982222999969963,312.58177299999807,None,None,1,,,,,,,,,,,,,,210,24,Female,2022-05-04_16h29.05.235,Main,2022.1.1,60.0869458133576,
negative,red,2,None,None,,,,,,,,,0,54,54,54,,,,,,,,,,,,,,,,,,,,,,,,,,,,,,,,,,,,,main,None,None,1,1.5077447999938158,315.0786362999934,None,None,1,,,,,,,,,,,,,,210,24,Female,2022-05-04_16h29.05.235,Main,2022.1.1,60.0869458133576,
positive,yellow,1,None,k,,,,,,,,,0,55,55,55,,,,,,,,,,,,,,,,,,,,,,,,,,,,,,,,,,,,,main,None,None,1,1.5108830999961356,317.5903890000045,None,None,1,,,,,,,,,,,,,,210,24,Female,2022-05-04_16h29.05.235,Main,2022.1.1,60.0869458133576,
negative,blue,2,None,k,,,,,,,,,0,56,56,56,,,,,,,,,,,,,,,,,,,,,,,,,,,,,,,,,,,,,main,None,None,1,1.5039690999983577,320.10318740000366,None,None,1,,,,,,,,,,,,,,210,24,Female,2022-05-04_16h29.05.235,Main,2022.1.1,60.0869458133576,
positive,blue,1,k,None,,,,,,,,,0,57,57,57,,,,,,,,,,,,,,,,,,,,,,,,,,,,,,,,,,,,,main,k,k,1,0.7179690999910235,322.60838009999134,None,None,0,,,,,,,,,,,,,,210,24,Female,2022-05-04_16h29.05.235,Main,2022.1.1,60.0869458133576,
positive,blue,1,k,None,,,,,,,,,0,58,58,58,,,,,,,,,,,,,,,,,,,,,,,,,,,,,,,,,,,,,main,k,k,1,0.6654114999982994,324.32906309999817,None,None,0,,,,,,,,,,,,,,210,24,Female,2022-05-04_16h29.05.235,Main,2022.1.1,60.0869458133576,
negative,yellow,2,k,None,,,,,,,,,0,59,59,59,,,,,,,,,,,,,,,,,,,,,,,,,,,,,,,,,,,,,main,k,k,1,0.8291655000066385,325.99833679999574,None,None,0,,,,,,,,,,,,,,210,24,Female,2022-05-04_16h29.05.235,Main,2022.1.1,60.0869458133576,
positive,red,2,None,None,,,,,,,,,0,60,60,60,,,,,,,,,,,,,,,,,,,,,,,,,,,,,,,,,,,,,main,None,None,1,1.5023681000020588,327.82665879999695,None,None,1,,,,,,,,,,,,,,210,24,Female,2022-05-04_16h29.05.235,Main,2022.1.1,60.0869458133576,
negative,yellow,1,k,None,,,,,,,,,0,61,61,61,,,,,,,,,,,,,,,,,,,,,,,,,,,,,,,,,,,,,main,k,k,1,1.003660000002128,330.33316369999375,None,None,0,,,,,,,,,,,,,,210,24,Female,2022-05-04_16h29.05.235,Main,2022.1.1,60.0869458133576,
negative,red,1,None,None,,,,,,,,,0,62,62,62,,,,,,,,,,,,,,,,,,,,,,,,,,,,,,,,,,,,,main,None,None,1,1.4945278999948641,332.3373298999941,None,None,1,,,,,,,,,,,,,,210,24,Female,2022-05-04_16h29.05.235,Main,2022.1.1,60.0869458133576,
negative,blue,1,None,k,,,,,,,,,0,63,63,63,,,,,,,,,,,,,,,,,,,,,,,,,,,,,,,,,,,,,main,None,None,1,1.493582700000843,334.8346562999941,None,None,1,,,,,,,,,,,,,,210,24,Female,2022-05-04_16h29.05.235,Main,2022.1.1,60.0869458133576,
positive,blue,2,k,None,,,,,,,,,0,64,64,64,,,,,,,,,,,,,,,,,,,,,,,,,,,,,,,,,,,,,main,k,k,1,0.7825596000038786,337.32909970000037,None,None,0,,,,,,,,,,,,,,210,24,Female,2022-05-04_16h29.05.235,Main,2022.1.1,60.0869458133576,
negative,yellow,2,k,None,,,,,,,,,0,65,65,65,,,,,,,,,,,,,,,,,,,,,,,,,,,,,,,,,,,,,main,k,k,1,0.9024732999969274,339.1135165000014,None,None,0,,,,,,,,,,,,,,210,24,Female,2022-05-04_16h29.05.235,Main,2022.1.1,60.0869458133576,
positive,yellow,2,None,k,,,,,,,,,0,66,66,66,,,,,,,,,,,,,,,,,,,,,,,,,,,,,,,,,,,,,main,None,None,1,1.5065758999990067,341.01688399999694,None,None,1,,,,,,,,,,,,,,210,24,Female,2022-05-04_16h29.05.235,Main,2022.1.1,60.0869458133576,
positive,yellow,2,None,k,,,,,,,,,0,67,67,67,,,,,,,,,,,,,,,,,,,,,,,,,,,,,,,,,,,,,main,None,None,1,1.499480800004676,343.52359309999156,None,None,1,,,,,,,,,,,,,,210,24,Female,2022-05-04_16h29.05.235,Main,2022.1.1,60.0869458133576,
positive,red,1,None,None,,,,,,,,,0,68,68,68,,,,,,,,,,,,,,,,,,,,,,,,,,,,,,,,,,,,,main,None,None,1,1.5058252000017092,346.0270767000038,None,None,1,,,,,,,,,,,,,,210,24,Female,2022-05-04_16h29.05.235,Main,2022.1.1,60.0869458133576,
positive,yellow,1,None,k,,,,,,,,,0,69,69,69,,,,,,,,,,,,,,,,,,,,,,,,,,,,,,,,,,,,,main,None,None,1,1.5018760000093607,348.5342146000039,None,None,1,,,,,,,,,,,,,,210,24,Female,2022-05-04_16h29.05.235,Main,2022.1.1,60.0869458133576,
negative,yellow,2,k,None,,,,,,,,,0,70,70,70,,,,,,,,,,,,,,,,,,,,,,,,,,,,,,,,,,,,,main,k,k,1,1.0203060999920126,351.03682739999203,None,None,0,,,,,,,,,,,,,,210,24,Female,2022-05-04_16h29.05.235,Main,2022.1.1,60.0869458133576,
positive,yellow,1,None,k,,,,,,,,,0,71,71,71,,,,,,,,,,,,,,,,,,,,,,,,,,,,,,,,,,,,,main,None,None,1,1.5142977999930736,353.0586362000031,None,None,1,,,,,,,,,,,,,,210,24,Female,2022-05-04_16h29.05.235,Main,2022.1.1,60.0869458133576,
negative,blue,1,None,k,,,,,,,,,0,72,72,72,,,,,,,,,,,,,,,,,,,,,,,,,,,,,,,,,,,,,main,None,None,1,1.5089158000046154,355.5745503999933,None,None,1,,,,,,,,,,,,,,210,24,Female,2022-05-04_16h29.05.235,Main,2022.1.1,60.0869458133576,
negative,red,2,None,None,,,,,,,,,0,73,73,73,,,,,,,,,,,,,,,,,,,,,,,,,,,,,,,,,,,,,main,None,None,1,1.5041705000039656,358.08691470000485,None,None,1,,,,,,,,,,,,,,210,24,Female,2022-05-04_16h29.05.235,Main,2022.1.1,60.0869458133576,
positive,blue,2,k,None,,,,,,,,,0,74,74,74,,,,,,,,,,,,,,,,,,,,,,,,,,,,,,,,,,,,,main,k,k,1,0.6640229000040563,360.59579259999737,None,None,0,,,,,,,,,,,,,,210,24,Female,2022-05-04_16h29.05.235,Main,2022.1.1,60.0869458133576,
negative,blue,2,None,k,,,,,,,,,0,75,75,75,,,,,,,,,,,,,,,,,,,,,,,,,,,,,,,,,,,,,main,None,None,1,1.4953066000016406,362.261714799999,None,None,1,,,,,,,,,,,,,,210,24,Female,2022-05-04_16h29.05.235,Main,2022.1.1,60.0869458133576,
negative,blue,2,None,k,,,,,,,,,0,76,76,76,,,,,,,,,,,,,,,,,,,,,,,,,,,,,,,,,,,,,main,None,None,1,1.4982917000015732,364.7582412000047,None,None,1,,,,,,,,,,,,,,210,24,Female,2022-05-04_16h29.05.235,Main,2022.1.1,60.0869458133576,
negative,yellow,1,k,None,,,,,,,,,0,77,77,77,,,,,,,,,,,,,,,,,,,,,,,,,,,,,,,,,,,,,main,k,k,1,0.8655059000011533,367.25483269999677,None,None,0,,,,,,,,,,,,,,210,24,Female,2022-05-04_16h29.05.235,Main,2022.1.1,60.0869458133576,
positive,blue,1,k,None,,,,,,,,,0,78,78,78,,,,,,,,,,,,,,,,,,,,,,,,,,,,,,,,,,,,,main,k,k,1,1.3157097000075737,369.1228829000029,None,None,0,,,,,,,,,,,,,,210,24,Female,2022-05-04_16h29.05.235,Main,2022.1.1,60.0869458133576,
positive,blue,1,k,None,,,,,,,,,0,79,79,79,,,,,,,,,,,,,,,,,,,,,,,,,,,,,,,,,,,,,main,k,k,1,0.6480238000076497,371.44293659999676,None,None,0,,,,,,,,,,,,,,210,24,Female,2022-05-04_16h29.05.235,Main,2022.1.1,60.0869458133576,
positive,red,2,None,None,,,,,,,,,0,80,80,80,,,,,,,,,,,,,,,,,,,,,,,,,,,,,,,,,,,,,main,None,None,1,1.5009290000016335,373.0892501999915,None,None,1,,,,,,,,,,,,,,210,24,Female,2022-05-04_16h29.05.235,Main,2022.1.1,60.0869458133576,
positive,yellow,2,None,k,,,,,,,,,0,81,81,81,,,,,,,,,,,,,,,,,,,,,,,,,,,,,,,,,,,,,main,None,None,1,1.4943124999990687,375.5946181000036,None,None,1,,,,,,,,,,,,,,210,24,Female,2022-05-04_16h29.05.235,Main,2022.1.1,60.0869458133576,
positive,blue,1,k,None,,,,,,,,,0,82,82,82,,,,,,,,,,,,,,,,,,,,,,,,,,,,,,,,,,,,,main,k,k,1,0.9809174000110943,378.09033209999325,None,None,0,,,,,,,,,,,,,,210,24,Female,2022-05-04_16h29.05.235,Main,2022.1.1,60.0869458133576,
negative,yellow,2,k,None,,,,,,,,,0,83,83,83,,,,,,,,,,,,,,,,,,,,,,,,,,,,,,,,,,,,,main,k,k,1,1.105708400005824,380.0702423000039,None,None,0,,,,,,,,,,,,,,210,24,Female,2022-05-04_16h29.05.235,Main,2022.1.1,60.0869458133576,
positive,blue,2,k,None,,,,,,,,,0,84,84,84,,,,,,,,,,,,,,,,,,,,,,,,,,,,,,,,,,,,,main,k,k,1,0.8433397000044351,382.1796004999924,None,None,0,,,,,,,,,,,,,,210,24,Female,2022-05-04_16h29.05.235,Main,2022.1.1,60.0869458133576,
positive,yellow,1,None,k,,,,,,,,,0,85,85,85,,,,,,,,,,,,,,,,,,,,,,,,,,,,,,,,,,,,,main,None,None,1,1.49674019998929,384.02506220000214,None,None,1,,,,,,,,,,,,,,210,24,Female,2022-05-04_16h29.05.235,Main,2022.1.1,60.0869458133576,
positive,blue,2,k,None,,,,,,,,,0,86,86,86,,,,,,,,,,,,,,,,,,,,,,,,,,,,,,,,,,,,,main,k,k,1,0.7816394999972545,386.52070589999494,None,None,0,,,,,,,,,,,,,,210,24,Female,2022-05-04_16h29.05.235,Main,2022.1.1,60.0869458133576,
positive,blue,1,k,None,,,,,,,,,0,87,87,87,,,,,,,,,,,,,,,,,,,,,,,,,,,,,,,,,,,,,main,k,k,1,0.8009231000032742,388.30399839999154,None,None,0,,,,,,,,,,,,,,210,24,Female,2022-05-04_16h29.05.235,Main,2022.1.1,60.0869458133576,
negative,yellow,2,k,None,,,,,,,,,0,88,88,88,,,,,,,,,,,,,,,,,,,,,,,,,,,,,,,,,,,,,main,k,k,1,0.8819495000061579,390.10863839999365,None,None,0,,,,,,,,,,,,,,210,24,Female,2022-05-04_16h29.05.235,Main,2022.1.1,60.0869458133576,
negative,blue,2,None,k,,,,,,,,,0,89,89,89,,,,,,,,,,,,,,,,,,,,,,,,,,,,,,,,,,,,,main,None,None,1,1.4973312999936752,391.99204949999694,None,None,1,,,,,,,,,,,,,,210,24,Female,2022-05-04_16h29.05.235,Main,2022.1.1,60.0869458133576,
positive,yellow,2,None,k,,,,,,,,,0,90,90,90,,,,,,,,,,,,,,,,,,,,,,,,,,,,,,,,,,,,,main,None,k,0,0.7156413000047905,394.49141459999373,None,None,1,,,,,,,,,,,,,,210,24,Female,2022-05-04_16h29.05.235,Main,2022.1.1,60.0869458133576,
negative,yellow,1,k,None,,,,,,,,,0,91,91,91,,,,,,,,,,,,,,,,,,,,,,,,,,,,,,,,,,,,,main,k,k,1,1.1822085000021616,397.2191820000007,None,None,0,,,,,,,,,,,,,,210,24,Female,2022-05-04_16h29.05.235,Main,2022.1.1,60.0869458133576,
negative,red,2,None,None,,,,,,,,,0,92,92,92,,,,,,,,,,,,,,,,,,,,,,,,,,,,,,,,,,,,,main,None,None,1,1.4975985999917611,399.4033977999934,None,None,1,,,,,,,,,,,,,,210,24,Female,2022-05-04_16h29.05.235,Main,2022.1.1,60.0869458133576,
negative,blue,2,None,k,,,,,,,,,0,93,93,93,,,,,,,,,,,,,,,,,,,,,,,,,,,,,,,,,,,,,main,None,None,1,1.50008749999688,401.90075739999884,None,None,1,,,,,,,,,,,,,,210,24,Female,2022-05-04_16h29.05.235,Main,2022.1.1,60.0869458133576,
negative,blue,1,None,k,,,,,,,,,0,94,94,94,,,,,,,,,,,,,,,,,,,,,,,,,,,,,,,,,,,,,main,None,None,1,1.5049284000124317,404.40432780000265,None,None,1,,,,,,,,,,,,,,210,24,Female,2022-05-04_16h29.05.235,Main,2022.1.1,60.0869458133576,
negative,blue,1,None,k,,,,,,,,,0,95,95,95,,,,,,,,,,,,,,,,,,,,,,,,,,,,,,,,,,,,,main,None,None,1,1.5093459000054281,406.91116400000465,None,None,1,,,,,,,,,,,,,,210,24,Female,2022-05-04_16h29.05.235,Main,2022.1.1,60.0869458133576,
negative,red,1,None,None,,,,,,,,,0,96,96,96,,,,,,,,,,,,,,,,,,,,,,,,,,,,,,,,,,,,,main,None,None,1,1.5075308000086807,409.42202119999274,None,None,1,,,,,,,,,,,,,,210,24,Female,2022-05-04_16h29.05.235,Main,2022.1.1,60.0869458133576,
positive,yellow,1,None,k,,,,,,,,,0,97,97,97,,,,,,,,,,,,,,,,,,,,,,,,,,,,,,,,,,,,,main,None,None,1,1.5002069999900414,411.9312082999968,None,None,1,,,,,,,,,,,,,,210,24,Female,2022-05-04_16h29.05.235,Main,2022.1.1,60.0869458133576,
negative,yellow,1,k,None,,,,,,,,,0,98,98,98,,,,,,,,,,,,,,,,,,,,,,,,,,,,,,,,,,,,,main,k,k,1,0.9886179000022821,414.43583149999904,None,None,0,,,,,,,,,,,,,,210,24,Female,2022-05-04_16h29.05.235,Main,2022.1.1,60.0869458133576,
positive,red,1,None,None,,,,,,,,,0,99,99,99,,,,,,,,,,,,,,,,,,,,,,,,,,,,,,,,,,,,,main,None,None,1,1.5062045999948168,416.4256327000039,None,None,1,,,,,,,,,,,,,,210,24,Female,2022-05-04_16h29.05.235,Main,2022.1.1,60.0869458133576,
positive,blue,1,k,None,,,,,,,,,0,100,100,100,,,,,,,,,,,,,,,,,,,,,,,,,,,,,,,,,,,,,main,k,k,1,0.8497932000027504,418.9319860999967,None,None,0,,,,,,,,,,,,,,210,24,Female,2022-05-04_16h29.05.235,Main,2022.1.1,60.0869458133576,
negative,yellow,1,k,None,,,,,,,,,0,101,101,101,,,,,,,,,,,,,,,,,,,,,,,,,,,,,,,,,,,,,main,k,k,1,0.9180962999962503,420.7830670999974,None,None,0,,,,,,,,,,,,,,210,24,Female,2022-05-04_16h29.05.235,Main,2022.1.1,60.0869458133576,
negative,blue,2,None,k,,,,,,,,,0,102,102,102,,,,,,,,,,,,,,,,,,,,,,,,,,,,,,,,,,,,,main,None,None,1,1.505455799997435,422.7052474999946,None,None,1,,,,,,,,,,,,,,210,24,Female,2022-05-04_16h29.05.235,Main,2022.1.1,60.0869458133576,
negative,yellow,2,k,None,,,,,,,,,0,103,103,103,,,,,,,,,,,,,,,,,,,,,,,,,,,,,,,,,,,,,main,k,k,1,0.8685499999992317,425.2124834999995,None,None,0,,,,,,,,,,,,,,210,24,Female,2022-05-04_16h29.05.235,Main,2022.1.1,60.0869458133576,
positive,yellow,2,None,k,,,,,,,,,0,104,104,104,,,,,,,,,,,,,,,,,,,,,,,,,,,,,,,,,,,,,main,None,None,1,1.4981788000004599,427.08444489999965,None,None,1,,,,,,,,,,,,,,210,24,Female,2022-05-04_16h29.05.235,Main,2022.1.1,60.0869458133576,
positive,blue,1,k,None,,,,,,,,,0,105,105,105,,,,,,,,,,,,,,,,,,,,,,,,,,,,,,,,,,,,,main,k,k,1,0.890522299989243,429.58132009999827,None,None,0,,,,,,,,,,,,,,210,24,Female,2022-05-04_16h29.05.235,Main,2022.1.1,60.0869458133576,
positive,blue,2,k,None,,,,,,,,,0,106,106,106,,,,,,,,,,,,,,,,,,,,,,,,,,,,,,,,,,,,,main,k,k,1,0.8389874999993481,431.4754252999992,None,None,0,,,,,,,,,,,,,,210,24,Female,2022-05-04_16h29.05.235,Main,2022.1.1,60.0869458133576,
negative,blue,1,None,k,,,,,,,,,0,107,107,107,,,,,,,,,,,,,,,,,,,,,,,,,,,,,,,,,,,,,main,None,None,1,1.498780000008992,433.31596799999534,None,None,1,,,,,,,,,,,,,,210,24,Female,2022-05-04_16h29.05.235,Main,2022.1.1,60.0869458133576,
positive,yellow,2,None,k,,,,,,,,,0,108,108,108,,,,,,,,,,,,,,,,,,,,,,,,,,,,,,,,,,,,,main,None,None,1,1.5123894999996992,435.81504469999345,None,None,1,,,,,,,,,,,,,,210,24,Female,2022-05-04_16h29.05.235,Main,2022.1.1,60.0869458133576,
negative,yellow,1,k,None,,,,,,,,,0,109,109,109,,,,,,,,,,,,,,,,,,,,,,,,,,,,,,,,,,,,,main,k,k,1,1.029475099989213,438.32868069999677,None,None,0,,,,,,,,,,,,,,210,24,Female,2022-05-04_16h29.05.235,Main,2022.1.1,60.0869458133576,
negative,blue,2,None,k,,,,,,,,,0,110,110,110,,,,,,,,,,,,,,,,,,,,,,,,,,,,,,,,,,,,,main,None,None,1,1.5104027999914251,440.3611823999963,None,None,1,,,,,,,,,,,,,,210,24,Female,2022-05-04_16h29.05.235,Main,2022.1.1,60.0869458133576,
positive,blue,2,k,None,,,,,,,,,0,111,111,111,,,,,,,,,,,,,,,,,,,,,,,,,,,,,,,,,,,,,main,k,k,1,0.8285238999960711,442.8748914000025,None,None,0,,,,,,,,,,,,,,210,24,Female,2022-05-04_16h29.05.235,Main,2022.1.1,60.0869458133576,
negative,blue,1,None,k,,,,,,,,,0,112,112,112,,,,,,,,,,,,,,,,,,,,,,,,,,,,,,,,,,,,,main,None,None,1,1.4950721000059275,444.7047104999947,None,None,1,,,,,,,,,,,,,,210,24,Female,2022-05-04_16h29.05.235,Main,2022.1.1,60.0869458133576,
positive,yellow,1,None,k,,,,,,,,,0,113,113,113,,,,,,,,,,,,,,,,,,,,,,,,,,,,,,,,,,,,,main,None,None,1,1.5049899000005098,447.20242859999416,None,None,1,,,,,,,,,,,,,,210,24,Female,2022-05-04_16h29.05.235,Main,2022.1.1,60.0869458133576,
negative,red,1,None,None,,,,,,,,,0,114,114,114,,,,,,,,,,,,,,,,,,,,,,,,,,,,,,,,,,,,,main,None,None,1,1.501916599998367,449.7081593000039,None,None,1,,,,,,,,,,,,,,210,24,Female,2022-05-04_16h29.05.235,Main,2022.1.1,60.0869458133576,
positive,red,1,None,None,,,,,,,,,0,115,115,115,,,,,,,,,,,,,,,,,,,,,,,,,,,,,,,,,,,,,main,None,None,1,1.5082931999932043,452.21152549999533,None,None,1,,,,,,,,,,,,,,210,24,Female,2022-05-04_16h29.05.235,Main,2022.1.1,60.0869458133576,
negative,red,2,None,None,,,,,,,,,0,116,116,116,,,,,,,,,,,,,,,,,,,,,,,,,,,,,,,,,,,,,main,None,None,1,1.5051222000038251,454.7230421999993,None,None,1,,,,,,,,,,,,,,210,24,Female,2022-05-04_16h29.05.235,Main,2022.1.1,60.0869458133576,
negative,yellow,2,k,None,,,,,,,,,0,117,117,117,,,,,,,,,,,,,,,,,,,,,,,,,,,,,,,,,,,,,main,k,k,1,0.7470118999917759,457.2280516000028,None,None,0,,,,,,,,,,,,,,210,24,Female,2022-05-04_16h29.05.235,Main,2022.1.1,60.0869458133576,
positive,yellow,1,None,k,,,,,,,,,0,118,118,118,,,,,,,,,,,,,,,,,,,,,,,,,,,,,,,,,,,,,main,None,None,1,1.5112755000009201,458.97676910000155,None,None,1,,,,,,,,,,,,,,210,24,Female,2022-05-04_16h29.05.235,Main,2022.1.1,60.0869458133576,
positive,red,2,None,None,,,,,,,,,0,119,119,119,,,,,,,,,,,,,,,,,,,,,,,,,,,,,,,,,,,,,main,None,None,1,1.505031799999415,461.49095439999655,None,None,1,,,,,,,,,,,,,,210,24,Female,2022-05-04_16h29.05.235,Main,2022.1.1,60.0869458133576,
positive,blue,2,k,None,,,,,,,,,0,120,120,120,,,,,,,,,,,,,,,,,,,,,,,,,,,,,,,,,,,,,main,k,k,1,0.7351008000114234,464.0003543999919,None,None,0,,,,,,,,,,,,,,210,24,Female,2022-05-04_16h29.05.235,Main,2022.1.1,60.0869458133576,
negative,red,1,None,None,,,,,,,,,0,121,121,121,,,,,,,,,,,,,,,,,,,,,,,,,,,,,,,,,,,,,main,None,None,1,1.5021592000121018,465.73648569999204,None,None,1,,,,,,,,,,,,,,210,24,Female,2022-05-04_16h29.05.235,Main,2022.1.1,60.0869458133576,
positive,yellow,2,None,k,,,,,,,,,0,122,122,122,,,,,,,,,,,,,,,,,,,,,,,,,,,,,,,,,,,,,main,None,None,1,1.5016668000025675,468.24064059999364,None,None,1,,,,,,,,,,,,,,210,24,Female,2022-05-04_16h29.05.235,Main,2022.1.1,60.0869458133576,
negative,red,2,None,None,,,,,,,,,0,123,123,123,,,,,,,,,,,,,,,,,,,,,,,,,,,,,,,,,,,,,main,None,None,1,1.5136440999922343,470.74379720000434,None,None,1,,,,,,,,,,,,,,210,24,Female,2022-05-04_16h29.05.235,Main,2022.1.1,60.0869458133576,
negative,yellow,2,k,None,,,,,,,,,0,124,124,124,,,,,,,,,,,,,,,,,,,,,,,,,,,,,,,,,,,,,main,k,k,1,1.036927300010575,473.2592197000049,None,None,0,,,,,,,,,,,,,,210,24,Female,2022-05-04_16h29.05.235,Main,2022.1.1,60.0869458133576,
positive,red,1,None,None,,,,,,,,,0,125,125,125,,,,,,,,,,,,,,,,,,,,,,,,,,,,,,,,,,,,,main,None,None,1,1.5101236000045901,475.299829399999,None,None,1,,,,,,,,,,,,,,210,24,Female,2022-05-04_16h29.05.235,Main,2022.1.1,60.0869458133576,
negative,blue,2,None,k,,,,,,,,,0,126,126,126,,,,,,,,,,,,,,,,,,,,,,,,,,,,,,,,,,,,,main,None,None,1,1.5024623000063002,477.8115911999921,None,None,1,,,,,,,,,,,,,,210,24,Female,2022-05-04_16h29.05.235,Main,2022.1.1,60.0869458133576,
negative,blue,1,None,k,,,,,,,,,0,127,127,127,,,,,,,,,,,,,,,,,,,,,,,,,,,,,,,,,,,,,main,None,None,1,1.509893499998725,480.3153275999939,None,None,1,,,,,,,,,,,,,,210,24,Female,2022-05-04_16h29.05.235,Main,2022.1.1,60.0869458133576,
negative,yellow,1,k,None,,,,,,,,,0,128,128,128,,,,,,,,,,,,,,,,,,,,,,,,,,,,,,,,,,,,,main,k,k,1,0.8523589999967953,482.82726760000514,None,None,0,,,,,,,,,,,,,,210,24,Female,2022-05-04_16h29.05.235,Main,2022.1.1,60.0869458133576,
negative,yellow,1,k,None,,,,,,,,,0,129,129,129,,,,,,,,,,,,,,,,,,,,,,,,,,,,,,,,,,,,,main,k,k,1,1.2604251000011573,484.6815990000032,None,None,0,,,,,,,,,,,,,,210,24,Female,2022-05-04_16h29.05.235,Main,2022.1.1,60.0869458133576,
positive,blue,1,k,None,,,,,,,,,0,130,130,130,,,,,,,,,,,,,,,,,,,,,,,,,,,,,,,,,,,,,main,k,k,1,0.7691362000041408,486.9409921000042,None,None,0,,,,,,,,,,,,,,210,24,Female,2022-05-04_16h29.05.235,Main,2022.1.1,60.0869458133576,
negative,blue,1,None,k,,,,,,,,,0,131,131,131,,,,,,,,,,,,,,,,,,,,,,,,,,,,,,,,,,,,,main,None,None,1,1.508127399996738,488.7142174000037,None,None,1,,,,,,,,,,,,,,210,24,Female,2022-05-04_16h29.05.235,Main,2022.1.1,60.0869458133576,
negative,blue,2,None,k,,,,,,,,,0,132,132,132,,,,,,,,,,,,,,,,,,,,,,,,,,,,,,,,,,,,,main,None,None,1,1.4962970999913523,491.2208393000037,None,None,1,,,,,,,,,,,,,,210,24,Female,2022-05-04_16h29.05.235,Main,2022.1.1,60.0869458133576,
positive,blue,2,k,None,,,,,,,,,0,133,133,133,,,,,,,,,,,,,,,,,,,,,,,,,,,,,,,,,,,,,main,k,k,1,1.5658003999997163,493.7208474999934,None,None,0,,,,,,,,,,,,,,210,24,Female,2022-05-04_16h29.05.235,Main,2022.1.1,60.0869458133576,
positive,red,2,None,None,,,,,,,,,0,134,134,134,,,,,,,,,,,,,,,,,,,,,,,,,,,,,,,,,,,,,main,None,None,1,1.4994062000041595,497.2898053999961,None,None,1,,,,,,,,,,,,,,210,24,Female,2022-05-04_16h29.05.235,Main,2022.1.1,60.0869458133576,
negative,yellow,2,k,None,,,,,,,,,0,135,135,135,,,,,,,,,,,,,,,,,,,,,,,,,,,,,,,,,,,,,main,k,k,1,0.9319590000086464,499.79227489999903,None,None,0,,,,,,,,,,,,,,210,24,Female,2022-05-04_16h29.05.235,Main,2022.1.1,60.0869458133576,
positive,yellow,2,None,k,,,,,,,,,0,136,136,136,,,,,,,,,,,,,,,,,,,,,,,,,,,,,,,,,,,,,main,None,None,1,1.497326199998497,501.7256163999991,None,None,1,,,,,,,,,,,,,,210,24,Female,2022-05-04_16h29.05.235,Main,2022.1.1,60.0869458133576,
positive,blue,1,k,None,,,,,,,,,0,137,137,137,,,,,,,,,,,,,,,,,,,,,,,,,,,,,,,,,,,,,main,k,k,1,0.7654341000015847,504.22202950000064,None,None,0,,,,,,,,,,,,,,210,24,Female,2022-05-04_16h29.05.235,Main,2022.1.1,60.0869458133576,
positive,yellow,1,None,k,,,,,,,,,0,138,138,138,,,,,,,,,,,,,,,,,,,,,,,,,,,,,,,,,,,,,main,None,None,1,1.497408399998676,505.9915544999967,None,None,1,,,,,,,,,,,,,,210,24,Female,2022-05-04_16h29.05.235,Main,2022.1.1,60.0869458133576,
positive,yellow,1,None,k,,,,,,,,,0,139,139,139,,,,,,,,,,,,,,,,,,,,,,,,,,,,,,,,,,,,,main,None,None,1,1.5147332000051392,508.48839349999616,None,None,1,,,,,,,,,,,,,,210,24,Female,2022-05-04_16h29.05.235,Main,2022.1.1,60.0869458133576,
positive,yellow,1,None,k,,,,,,,,,0,140,140,140,,,,,,,,,,,,,,,,,,,,,,,,,,,,,,,,,,,,,main,None,None,1,1.5094065000012051,511.00427710000076,None,None,1,,,,,,,,,,,,,,210,24,Female,2022-05-04_16h29.05.235,Main,2022.1.1,60.0869458133576,
positive,blue,1,k,None,,,,,,,,,0,141,141,141,,,,,,,,,,,,,,,,,,,,,,,,,,,,,,,,,,,,,main,k,k,1,0.7870869999896968,513.5172596000048,None,None,0,,,,,,,,,,,,,,210,24,Female,2022-05-04_16h29.05.235,Main,2022.1.1,60.0869458133576,
positive,blue,2,k,None,,,,,,,,,0,142,142,142,,,,,,,,,,,,,,,,,,,,,,,,,,,,,,,,,,,,,main,k,k,1,0.862242499992135,515.3058283999999,None,None,0,,,,,,,,,,,,,,210,24,Female,2022-05-04_16h29.05.235,Main,2022.1.1,60.0869458133576,
positive,yellow,2,None,k,,,,,,,,,0,143,143,143,,,,,,,,,,,,,,,,,,,,,,,,,,,,,,,,,,,,,main,None,None,1,1.5134923000005074,517.1720380000042,None,None,1,,,,,,,,,,,,,,210,24,Female,2022-05-04_16h29.05.235,Main,2022.1.1,60.0869458133576,
negative,yellow,2,k,None,,,,,,,,,0,144,144,144,,,,,,,,,,,,,,,,,,,,,,,,,,,,,,,,,,,,,main,k,k,1,0.6490065999969374,519.6846663000033,None,None,0,,,,,,,,,,,,,,210,24,Female,2022-05-04_16h29.05.235,Main,2022.1.1,60.0869458133576,
negative,blue,2,None,k,,,,,,,,,0,145,145,145,,,,,,,,,,,,,,,,,,,,,,,,,,,,,,,,,,,,,main,None,None,1,1.4989696000120603,521.3351186999935,None,None,1,,,,,,,,,,,,,,210,24,Female,2022-05-04_16h29.05.235,Main,2022.1.1,60.0869458133576,
negative,red,1,None,None,,,,,,,,,0,146,146,146,,,,,,,,,,,,,,,,,,,,,,,,,,,,,,,,,,,,,main,None,None,1,1.50115630000073,523.8384290999966,None,None,1,,,,,,,,,,,,,,210,24,Female,2022-05-04_16h29.05.235,Main,2022.1.1,60.0869458133576,
positive,blue,1,k,None,,,,,,,,,0,147,147,147,,,,,,,,,,,,,,,,,,,,,,,,,,,,,,,,,,,,,main,k,k,1,1.204814600001555,526.3405545999995,None,None,0,,,,,,,,,,,,,,210,24,Female,2022-05-04_16h29.05.235,Main,2022.1.1,60.0869458133576,
positive,yellow,1,None,k,,,,,,,,,0,148,148,148,,,,,,,,,,,,,,,,,,,,,,,,,,,,,,,,,,,,,main,None,None,1,1.4939630000008037,528.5460464999924,None,None,1,,,,,,,,,,,,,,210,24,Female,2022-05-04_16h29.05.235,Main,2022.1.1,60.0869458133576,
negative,red,2,None,None,,,,,,,,,0,149,149,149,,,,,,,,,,,,,,,,,,,,,,,,,,,,,,,,,,,,,main,None,None,1,1.5048831000021892,531.0424825999944,None,None,1,,,,,,,,,,,,,,210,24,Female,2022-05-04_16h29.05.235,Main,2022.1.1,60.0869458133576,
negative,blue,1,None,k,,,,,,,,,0,150,150,150,,,,,,,,,,,,,,,,,,,,,,,,,,,,,,,,,,,,,main,None,None,1,1.5123049999965588,533.5485265000025,None,None,1,,,,,,,,,,,,,,210,24,Female,2022-05-04_16h29.05.235,Main,2022.1.1,60.0869458133576,
negative,yellow,2,k,None,,,,,,,,,0,151,151,151,,,,,,,,,,,,,,,,,,,,,,,,,,,,,,,,,,,,,main,k,k,1,0.8488360999908764,536.0647654999921,None,None,0,,,,,,,,,,,,,,210,24,Female,2022-05-04_16h29.05.235,Main,2022.1.1,60.0869458133576,
negative,blue,2,None,k,,,,,,,,,0,152,152,152,,,,,,,,,,,,,,,,,,,,,,,,,,,,,,,,,,,,,main,None,None,1,1.5030400999967242,537.914829699992,None,None,1,,,,,,,,,,,,,,210,24,Female,2022-05-04_16h29.05.235,Main,2022.1.1,60.0869458133576,
negative,yellow,1,k,None,,,,,,,,,0,153,153,153,,,,,,,,,,,,,,,,,,,,,,,,,,,,,,,,,,,,,main,k,k,1,0.996928199994727,540.4222263999982,None,None,0,,,,,,,,,,,,,,210,24,Female,2022-05-04_16h29.05.235,Main,2022.1.1,60.0869458133576,
negative,blue,1,None,k,,,,,,,,,0,154,154,154,,,,,,,,,,,,,,,,,,,,,,,,,,,,,,,,,,,,,main,None,None,1,1.5048317999899155,542.4208433000022,None,None,1,,,,,,,,,,,,,,210,24,Female,2022-05-04_16h29.05.235,Main,2022.1.1,60.0869458133576,
positive,yellow,2,None,k,,,,,,,,,0,155,155,155,,,,,,,,,,,,,,,,,,,,,,,,,,,,,,,,,,,,,main,None,None,1,1.5058369000034872,544.9259842000029,None,None,1,,,,,,,,,,,,,,210,24,Female,2022-05-04_16h29.05.235,Main,2022.1.1,60.0869458133576,
positive,red,2,None,None,,,,,,,,,0,156,156,156,,,,,,,,,,,,,,,,,,,,,,,,,,,,,,,,,,,,,main,None,None,1,1.5043262999970466,547.4322919999977,None,None,1,,,,,,,,,,,,,,210,24,Female,2022-05-04_16h29.05.235,Main,2022.1.1,60.0869458133576,
positive,red,1,None,None,,,,,,,,,0,157,157,157,,,,,,,,,,,,,,,,,,,,,,,,,,,,,,,,,,,,,main,None,None,1,1.5087466999975732,549.940554899993,None,None,1,,,,,,,,,,,,,,210,24,Female,2022-05-04_16h29.05.235,Main,2022.1.1,60.0869458133576,
positive,blue,2,k,None,,,,,,,,,0,158,158,158,,,,,,,,,,,,,,,,,,,,,,,,,,,,,,,,,,,,,main,k,k,1,0.9985860000015236,552.4484831000009,None,None,0,,,,,,,,,,,,,,210,24,Female,2022-05-04_16h29.05.235,Main,2022.1.1,60.0869458133576,
negative,yellow,1,k,None,,,,,,,,,0,159,159,159,,,,,,,,,,,,,,,,,,,,,,,,,,,,,,,,,,,,,main,k,k,1,0.8156234999914886,554.4484743999928,None,None,0,,,,,,,,,,,,,,210,24,Female,2022-05-04_16h29.05.235,Main,2022.1.1,60.0869458133576,
negative,red,2,None,None,,,,,,,,,0,160,160,160,,,,,,,,,,,,,,,,,,,,,,,,,,,,,,,,,,,,,main,None,None,1,1.5037617000052705,556.268287800005,None,None,1,,,,,,,,,,,,,,210,24,Female,2022-05-04_16h29.05.235,Main,2022.1.1,60.0869458133576,
negative,blue,1,None,k,,,,,,,,,0,161,161,161,,,,,,,,,,,,,,,,,,,,,,,,,,,,,,,,,,,,,main,None,None,1,1.5114242999989074,558.7733446999919,None,None,1,,,,,,,,,,,,,,210,24,Female,2022-05-04_16h29.05.235,Main,2022.1.1,60.0869458133576,
negative,blue,1,None,k,,,,,,,,,0,162,162,162,,,,,,,,,,,,,,,,,,,,,,,,,,,,,,,,,,,,,main,None,None,1,1.5047382000047946,561.2862737999967,None,None,1,,,,,,,,,,,,,,210,24,Female,2022-05-04_16h29.05.235,Main,2022.1.1,60.0869458133576,
negative,yellow,1,k,None,,,,,,,,,0,163,163,163,,,,,,,,,,,,,,,,,,,,,,,,,,,,,,,,,,,,,main,k,k,1,0.8896479999966687,563.792103300002,None,None,0,,,,,,,,,,,,,,210,24,Female,2022-05-04_16h29.05.235,Main,2022.1.1,60.0869458133576,
negative,yellow,1,k,None,,,,,,,,,0,164,164,164,,,,,,,,,,,,,,,,,,,,,,,,,,,,,,,,,,,,,main,k,k,1,1.6570935000054305,565.6818674999959,None,None,0,,,,,,,,,,,,,,210,24,Female,2022-05-04_16h29.05.235,Main,2022.1.1,60.0869458133576,
positive,yellow,1,None,k,,,,,,,,,0,165,165,165,,,,,,,,,,,,,,,,,,,,,,,,,,,,,,,,,,,,,main,None,None,1,1.4899968000099761,569.3473445999989,None,None,1,,,,,,,,,,,,,,210,24,Female,2022-05-04_16h29.05.235,Main,2022.1.1,60.0869458133576,
negative,red,1,None,None,,,,,,,,,0,166,166,166,,,,,,,,,,,,,,,,,,,,,,,,,,,,,,,,,,,,,main,None,None,1,1.5074094000010518,571.839330399991,None,None,1,,,,,,,,,,,,,,210,24,Female,2022-05-04_16h29.05.235,Main,2022.1.1,60.0869458133576,
negative,yellow,2,k,None,,,,,,,,,0,167,167,167,,,,,,,,,,,,,,,,,,,,,,,,,,,,,,,,,,,,,main,k,k,1,1.0653250999894226,574.3494778000022,None,None,0,,,,,,,,,,,,,,210,24,Female,2022-05-04_16h29.05.235,Main,2022.1.1,60.0869458133576,
positive,blue,2,k,None,,,,,,,,,0,168,168,168,,,,,,,,,,,,,,,,,,,,,,,,,,,,,,,,,,,,,main,k,k,1,0.9145781999977771,576.4153455000051,None,None,0,,,,,,,,,,,,,,210,24,Female,2022-05-04_16h29.05.235,Main,2022.1.1,60.0869458133576,
positive,red,2,None,None,,,,,,,,,0,169,169,169,,,,,,,,,,,,,,,,,,,,,,,,,,,,,,,,,,,,,main,None,None,1,1.5012805000005756,578.3297045999934,None,None,1,,,,,,,,,,,,,,210,24,Female,2022-05-04_16h29.05.235,Main,2022.1.1,60.0869458133576,
positive,red,1,None,None,,,,,,,,,0,170,170,170,,,,,,,,,,,,,,,,,,,,,,,,,,,,,,,,,,,,,main,None,None,1,1.5103165000036824,580.8348569999944,None,None,1,,,,,,,,,,,,,,210,24,Female,2022-05-04_16h29.05.235,Main,2022.1.1,60.0869458133576,
negative,blue,2,None,k,,,,,,,,,0,171,171,171,,,,,,,,,,,,,,,,,,,,,,,,,,,,,,,,,,,,,main,None,None,1,1.5057844999973895,583.3444085999945,None,None,1,,,,,,,,,,,,,,210,24,Female,2022-05-04_16h29.05.235,Main,2022.1.1,60.0869458133576,
positive,blue,2,k,None,,,,,,,,,0,172,172,172,,,,,,,,,,,,,,,,,,,,,,,,,,,,,,,,,,,,,main,k,k,1,0.9121979000046849,585.8532613999996,None,None,0,,,,,,,,,,,,,,210,24,Female,2022-05-04_16h29.05.235,Main,2022.1.1,60.0869458133576,
negative,yellow,2,k,None,,,,,,,,,0,173,173,173,,,,,,,,,,,,,,,,,,,,,,,,,,,,,,,,,,,,,main,k,k,1,2.5433519999933196,587.7679695999977,None,None,0,,,,,,,,,,,,,,210,24,Female,2022-05-04_16h29.05.235,Main,2022.1.1,60.0869458133576,
positive,yellow,2,None,k,,,,,,,,,0,174,174,174,,,,,,,,,,,,,,,,,,,,,,,,,,,,,,,,,,,,,main,None,None,1,1.5057366999972146,592.3272788000031,None,None,1,,,,,,,,,,,,,,210,24,Female,2022-05-04_16h29.05.235,Main,2022.1.1,60.0869458133576,
negative,blue,2,None,k,,,,,,,,,0,175,175,175,,,,,,,,,,,,,,,,,,,,,,,,,,,,,,,,,,,,,main,None,None,1,1.5106311999988975,594.834440599996,None,None,1,,,,,,,,,,,,,,210,24,Female,2022-05-04_16h29.05.235,Main,2022.1.1,60.0869458133576,
positive,blue,1,k,None,,,,,,,,,0,176,176,176,,,,,,,,,,,,,,,,,,,,,,,,,,,,,,,,,,,,,main,k,k,1,1.002015999998548,597.3480104000046,None,None,0,,,,,,,,,,,,,,210,24,Female,2022-05-04_16h29.05.235,Main,2022.1.1,60.0869458133576,
positive,yellow,1,None,k,,,,,,,,,0,177,177,177,,,,,,,,,,,,,,,,,,,,,,,,,,,,,,,,,,,,,main,None,None,1,1.5119727999990573,599.3510862999974,None,None,1,,,,,,,,,,,,,,210,24,Female,2022-05-04_16h29.05.235,Main,2022.1.1,60.0869458133576,
positive,blue,1,k,None,,,,,,,,,0,178,178,178,,,,,,,,,,,,,,,,,,,,,,,,,,,,,,,,,,,,,main,k,k,1,0.8207695000019157,601.8655224999966,None,None,0,,,,,,,,,,,,,,210,24,Female,2022-05-04_16h29.05.235,Main,2022.1.1,60.0869458133576,
positive,yellow,2,None,k,,,,,,,,,0,179,179,179,,,,,,,,,,,,,,,,,,,,,,,,,,,,,,,,,,,,,main,None,None,1,1.5042841999966186,603.6863543999934,None,None,1,,,,,,,,,,,,,,210,24,Female,2022-05-04_16h29.05.235,Main,2022.1.1,60.0869458133576,
positive,blue,1,k,None,,,,,,,,,0,180,180,180,,,,,,,,,,,,,,,,,,,,,,,,,,,,,,,,,,,,,main,k,k,1,0.930818900000304,606.1909450999956,None,None,0,,,,,,,,,,,,,,210,24,Female,2022-05-04_16h29.05.235,Main,2022.1.1,60.0869458133576,
negative,red,1,None,None,,,,,,,,,0,181,181,181,,,,,,,,,,,,,,,,,,,,,,,,,,,,,,,,,,,,,main,None,None,1,1.50251579999167,608.1237721999933,None,None,1,,,,,,,,,,,,,,210,24,Female,2022-05-04_16h29.05.235,Main,2022.1.1,60.0869458133576,
negative,blue,1,None,k,,,,,,,,,0,182,182,182,,,,,,,,,,,,,,,,,,,,,,,,,,,,,,,,,,,,,main,None,None,1,1.5108229000034044,610.6301537999971,None,None,1,,,,,,,,,,,,,,210,24,Female,2022-05-04_16h29.05.235,Main,2022.1.1,60.0869458133576,
negative,yellow,2,k,None,,,,,,,,,0,183,183,183,,,,,,,,,,,,,,,,,,,,,,,,,,,,,,,,,,,,,main,k,k,1,0.9729907000000821,613.1399307999964,None,None,0,,,,,,,,,,,,,,210,24,Female,2022-05-04_16h29.05.235,Main,2022.1.1,60.0869458133576,
positive,yellow,2,None,k,,,,,,,,,0,184,184,184,,,,,,,,,,,,,,,,,,,,,,,,,,,,,,,,,,,,,main,None,None,1,1.5101379999978235,615.1167058999999,None,None,1,,,,,,,,,,,,,,210,24,Female,2022-05-04_16h29.05.235,Main,2022.1.1,60.0869458133576,
positive,yellow,1,None,k,,,,,,,,,0,185,185,185,,,,,,,,,,,,,,,,,,,,,,,,,,,,,,,,,,,,,main,None,None,1,1.4984412000048906,617.6283567999926,None,None,1,,,,,,,,,,,,,,210,24,Female,2022-05-04_16h29.05.235,Main,2022.1.1,60.0869458133576,
positive,red,2,None,None,,,,,,,,,0,186,186,186,,,,,,,,,,,,,,,,,,,,,,,,,,,,,,,,,,,,,main,None,None,1,1.4983745000063209,620.1285715999984,None,None,1,,,,,,,,,,,,,,210,24,Female,2022-05-04_16h29.05.235,Main,2022.1.1,60.0869458133576,
positive,blue,1,k,None,,,,,,,,,0,187,187,187,,,,,,,,,,,,,,,,,,,,,,,,,,,,,,,,,,,,,main,k,k,1,0.8954412000020966,622.6289243999927,None,None,0,,,,,,,,,,,,,,210,24,Female,2022-05-04_16h29.05.235,Main,2022.1.1,60.0869458133576,
negative,yellow,1,k,None,,,,,,,,,0,188,188,188,,,,,,,,,,,,,,,,,,,,,,,,,,,,,,,,,,,,,main,k,k,1,0.7150477999966824,624.5272554999974,None,None,0,,,,,,,,,,,,,,210,24,Female,2022-05-04_16h29.05.235,Main,2022.1.1,60.0869458133576,
positive,yellow,2,None,k,,,,,,,,,0,189,189,189,,,,,,,,,,,,,,,,,,,,,,,,,,,,,,,,,,,,,main,None,None,1,1.502883599998313,626.2394623,None,None,1,,,,,,,,,,,,,,210,24,Female,2022-05-04_16h29.05.235,Main,2022.1.1,60.0869458133576,
negative,yellow,2,k,None,,,,,,,,,0,190,190,190,,,,,,,,,,,,,,,,,,,,,,,,,,,,,,,,,,,,,main,k,k,1,0.8969139999971958,628.7470586999989,None,None,0,,,,,,,,,,,,,,210,24,Female,2022-05-04_16h29.05.235,Main,2022.1.1,60.0869458133576,
negative,yellow,1,k,None,,,,,,,,,0,191,191,191,,,,,,,,,,,,,,,,,,,,,,,,,,,,,,,,,,,,,main,k,k,1,0.9129610999953002,630.6469303000049,None,None,0,,,,,,,,,,,,,,210,24,Female,2022-05-04_16h29.05.235,Main,2022.1.1,60.0869458133576,
positive,blue,2,k,None,,,,,,,,,0,192,192,192,,,,,,,,,,,,,,,,,,,,,,,,,,,,,,,,,,,,,main,k,k,1,0.7893063999945298,632.5607716999948,None,None,0,,,,,,,,,,,,,,210,24,Female,2022-05-04_16h29.05.235,Main,2022.1.1,60.0869458133576,
positive,yellow,1,None,k,,,,,,,,,0,193,193,193,,,,,,,,,,,,,,,,,,,,,,,,,,,,,,,,,,,,,main,None,None,1,1.5088672999991104,634.3546648000047,None,None,1,,,,,,,,,,,,,,210,24,Female,2022-05-04_16h29.05.235,Main,2022.1.1,60.0869458133576,
negative,red,2,None,None,,,,,,,,,0,194,194,194,,,,,,,,,,,,,,,,,,,,,,,,,,,,,,,,,,,,,main,None,None,1,1.5077861999889137,636.8640060000034,None,None,1,,,,,,,,,,,,,,210,24,Female,2022-05-04_16h29.05.235,Main,2022.1.1,60.0869458133576,
positive,red,1,None,None,,,,,,,,,0,195,195,195,,,,,,,,,,,,,,,,,,,,,,,,,,,,,,,,,,,,,main,None,None,1,1.4983333999989554,639.3732934,None,None,1,,,,,,,,,,,,,,210,24,Female,2022-05-04_16h29.05.235,Main,2022.1.1,60.0869458133576,
negative,blue,1,None,k,,,,,,,,,0,196,196,196,,,,,,,,,,,,,,,,,,,,,,,,,,,,,,,,,,,,,main,None,None,1,1.5005338999908417,641.8707200999925,None,None,1,,,,,,,,,,,,,,210,24,Female,2022-05-04_16h29.05.235,Main,2022.1.1,60.0869458133576,
positive,blue,2,k,None,,,,,,,,,0,197,197,197,,,,,,,,,,,,,,,,,,,,,,,,,,,,,,,,,,,,,main,k,k,1,0.8167854999919655,644.3748554999911,None,None,0,,,,,,,,,,,,,,210,24,Female,2022-05-04_16h29.05.235,Main,2022.1.1,60.0869458133576,
negative,blue,2,None,k,,,,,,,,,0,198,198,198,,,,,,,,,,,,,,,,,,,,,,,,,,,,,,,,,,,,,main,None,None,1,1.5134525999892503,646.1932668999943,None,None,1,,,,,,,,,,,,,,210,24,Female,2022-05-04_16h29.05.235,Main,2022.1.1,60.0869458133576,
negative,blue,2,None,k,,,,,,,,,0,199,199,199,,,,,,,,,,,,,,,,,,,,,,,,,,,,,,,,,,,,,main,None,None,1,1.5052683999965666,648.7087603999971,None,None,1,,,,,,,,,,,,,,210,24,Female,2022-05-04_16h29.05.235,Main,2022.1.1,60.0869458133576,
positive,blue,2,k,None,,,,,,,,,0,200,200,200,,,,,,,,,,,,,,,,,,,,,,,,,,,,,,,,,,,,,main,k,k,1,0.8700643000047421,651.217860100005,None,None,0,,,,,,,,,,,,,,210,24,Female,2022-05-04_16h29.05.235,Main,2022.1.1,60.0869458133576,
positive,blue,2,k,None,,,,,,,,,0,201,201,201,,,,,,,,,,,,,,,,,,,,,,,,,,,,,,,,,,,,,main,k,k,1,0.8924966000049608,653.0867288000009,None,None,0,,,,,,,,,,,,,,210,24,Female,2022-05-04_16h29.05.235,Main,2022.1.1,60.0869458133576,
negative,yellow,2,k,None,,,,,,,,,0,202,202,202,,,,,,,,,,,,,,,,,,,,,,,,,,,,,,,,,,,,,main,k,k,1,0.7501610000035726,654.9825447000039,None,None,0,,,,,,,,,,,,,,210,24,Female,2022-05-04_16h29.05.235,Main,2022.1.1,60.0869458133576,
positive,red,1,None,None,,,,,,,,,0,203,203,203,,,,,,,,,,,,,,,,,,,,,,,,,,,,,,,,,,,,,main,None,None,1,1.51075889999629,656.7343702999933,None,None,1,,,,,,,,,,,,,,210,24,Female,2022-05-04_16h29.05.235,Main,2022.1.1,60.0869458133576,
negative,blue,2,None,k,,,,,,,,,0,204,204,204,,,,,,,,,,,,,,,,,,,,,,,,,,,,,,,,,,,,,main,None,None,1,1.5078151000052458,659.2495000000054,None,None,1,,,,,,,,,,,,,,210,24,Female,2022-05-04_16h29.05.235,Main,2022.1.1,60.0869458133576,
negative,red,1,None,None,,,,,,,,,0,205,205,205,,,,,,,,,,,,,,,,,,,,,,,,,,,,,,,,,,,,,main,None,None,1,1.4941617000004044,661.7602256999962,None,None,1,,,,,,,,,,,,,,210,24,Female,2022-05-04_16h29.05.235,Main,2022.1.1,60.0869458133576,
negative,blue,2,None,k,,,,,,,,,0,206,206,206,,,,,,,,,,,,,,,,,,,,,,,,,,,,,,,,,,,,,main,None,None,1,1.4989307999931043,664.2558165999944,None,None,1,,,,,,,,,,,,,,210,24,Female,2022-05-04_16h29.05.235,Main,2022.1.1,60.0869458133576,
negative,yellow,2,k,None,,,,,,,,,0,207,207,207,,,,,,,,,,,,,,,,,,,,,,,,,,,,,,,,,,,,,main,k,k,1,0.9320134000008693,666.7562997999921,None,None,0,,,,,,,,,,,,,,210,24,Female,2022-05-04_16h29.05.235,Main,2022.1.1,60.0869458133576,
positive,yellow,2,None,k,,,,,,,,,0,208,208,208,,,,,,,,,,,,,,,,,,,,,,,,,,,,,,,,,,,,,main,None,None,1,1.5097134000097867,668.689612400005,None,None,1,,,,,,,,,,,,,,210,24,Female,2022-05-04_16h29.05.235,Main,2022.1.1,60.0869458133576,
negative,yellow,1,k,None,,,,,,,,,0,209,209,209,,,,,,,,,,,,,,,,,,,,,,,,,,,,,,,,,,,,,main,k,k,1,1.0612136999989161,671.2025756999938,None,None,0,,,,,,,,,,,,,,210,24,Female,2022-05-04_16h29.05.235,Main,2022.1.1,60.0869458133576,
negative,red,2,None,None,,,,,,,,,0,210,210,210,,,,,,,,,,,,,,,,,,,,,,,,,,,,,,,,,,,,,main,None,None,1,1.5002170000079786,673.2672604999971,None,None,1,,,,,,,,,,,,,,210,24,Female,2022-05-04_16h29.05.235,Main,2022.1.1,60.0869458133576,
negative,blue,1,None,k,,,,,,,,,0,211,211,211,,,,,,,,,,,,,,,,,,,,,,,,,,,,,,,,,,,,,main,None,None,1,1.5033457999961684,675.768874500005,None,None,1,,,,,,,,,,,,,,210,24,Female,2022-05-04_16h29.05.235,Main,2022.1.1,60.0869458133576,
negative,yellow,1,k,None,,,,,,,,,0,212,212,212,,,,,,,,,,,,,,,,,,,,,,,,,,,,,,,,,,,,,main,k,k,1,0.9077742000081344,678.2742965999932,None,None,0,,,,,,,,,,,,,,210,24,Female,2022-05-04_16h29.05.235,Main,2022.1.1,60.0869458133576,
positive,blue,1,k,None,,,,,,,,,0,213,213,213,,,,,,,,,,,,,,,,,,,,,,,,,,,,,,,,,,,,,main,k,k,1,0.7987269000004744,680.1835936999996,None,None,0,,,,,,,,,,,,,,210,24,Female,2022-05-04_16h29.05.235,Main,2022.1.1,60.0869458133576,
positive,blue,1,k,None,,,,,,,,,0,214,214,214,,,,,,,,,,,,,,,,,,,,,,,,,,,,,,,,,,,,,main,k,k,1,0.6542539999936707,681.9813313999912,None,None,0,,,,,,,,,,,,,,210,24,Female,2022-05-04_16h29.05.235,Main,2022.1.1,60.0869458133576,
positive,yellow,1,None,k,,,,,,,,,0,215,215,215,,,,,,,,,,,,,,,,,,,,,,,,,,,,,,,,,,,,,main,None,None,1,1.5105203999992227,683.6400946999929,None,None,1,,,,,,,,,,,,,,210,24,Female,2022-05-04_16h29.05.235,Main,2022.1.1,60.0869458133576,
positive,yellow,1,None,k,,,,,,,,,0,216,216,216,,,,,,,,,,,,,,,,,,,,,,,,,,,,,,,,,,,,,main,None,None,1,1.5047021000063978,686.1490889999986,None,None,1,,,,,,,,,,,,,,210,24,Female,2022-05-04_16h29.05.235,Main,2022.1.1,60.0869458133576,
positive,yellow,2,None,k,,,,,,,,,0,217,217,217,,,,,,,,,,,,,,,,,,,,,,,,,,,,,,,,,,,,,main,None,None,1,1.5046799999981886,688.6570703000034,None,None,1,,,,,,,,,,,,,,210,24,Female,2022-05-04_16h29.05.235,Main,2022.1.1,60.0869458133576,
negative,blue,1,None,k,,,,,,,,,0,218,218,218,,,,,,,,,,,,,,,,,,,,,,,,,,,,,,,,,,,,,main,None,None,1,1.5136556000070414,691.1647975999949,None,None,1,,,,,,,,,,,,,,210,24,Female,2022-05-04_16h29.05.235,Main,2022.1.1,60.0869458133576,
positive,red,2,None,None,,,,,,,,,0,219,219,219,,,,,,,,,,,,,,,,,,,,,,,,,,,,,,,,,,,,,main,None,None,1,1.514100000000326,693.6801190999977,None,None,1,,,,,,,,,,,,,,210,24,Female,2022-05-04_16h29.05.235,Main,2022.1.1,60.0869458133576,
positive,yellow,1,None,k,,,,,,,,,0,220,220,220,,,,,,,,,,,,,,,,,,,,,,,,,,,,,,,,,,,,,main,None,None,1,1.512203699996462,696.1957404999994,None,None,1,,,,,,,,,,,,,,210,24,Female,2022-05-04_16h29.05.235,Main,2022.1.1,60.0869458133576,
positive,blue,1,k,None,,,,,,,,,0,221,221,221,,,,,,,,,,,,,,,,,,,,,,,,,,,,,,,,,,,,,main,k,k,1,1.0981372999958694,698.7115635999944,None,None,0,,,,,,,,,,,,,,210,24,Female,2022-05-04_16h29.05.235,Main,2022.1.1,60.0869458133576,
positive,yellow,2,None,k,,,,,,,,,0,222,222,222,,,,,,,,,,,,,,,,,,,,,,,,,,,,,,,,,,,,,main,None,None,1,1.5092761999985669,700.8105412000004,None,None,1,,,,,,,,,,,,,,210,24,Female,2022-05-04_16h29.05.235,Main,2022.1.1,60.0869458133576,
negative,yellow,1,k,None,,,,,,,,,0,223,223,223,,,,,,,,,,,,,,,,,,,,,,,,,,,,,,,,,,,,,main,k,k,1,0.9645177999918815,703.323670999991,None,None,0,,,,,,,,,,,,,,210,24,Female,2022-05-04_16h29.05.235,Main,2022.1.1,60.0869458133576,
positive,yellow,2,None,k,,,,,,,,,0,224,224,224,,,,,,,,,,,,,,,,,,,,,,,,,,,,,,,,,,,,,main,None,None,1,1.506344800000079,705.2890894000011,None,None,1,,,,,,,,,,,,,,210,24,Female,2022-05-04_16h29.05.235,Main,2022.1.1,60.0869458133576,
negative,yellow,2,k,None,,,,,,,,,0,225,225,225,,,,,,,,,,,,,,,,,,,,,,,,,,,,,,,,,,,,,main,k,k,1,0.631130400011898,707.7987933999975,None,None,0,,,,,,,,,,,,,,210,24,Female,2022-05-04_16h29.05.235,Main,2022.1.1,60.0869458133576,
negative,blue,2,None,k,,,,,,,,,0,226,226,226,,,,,,,,,,,,,,,,,,,,,,,,,,,,,,,,,,,,,main,None,None,1,1.5077460000029532,709.4311478000018,None,None,1,,,,,,,,,,,,,,210,24,Female,2022-05-04_16h29.05.235,Main,2022.1.1,60.0869458133576,
positive,red,2,None,None,,,,,,,,,0,227,227,227,,,,,,,,,,,,,,,,,,,,,,,,,,,,,,,,,,,,,main,None,None,1,1.5081632999936119,711.9399454999948,None,None,1,,,,,,,,,,,,,,210,24,Female,2022-05-04_16h29.05.235,Main,2022.1.1,60.0869458133576,
positive,blue,2,k,None,,,,,,,,,0,228,228,228,,,,,,,,,,,,,,,,,,,,,,,,,,,,,,,,,,,,,main,k,k,1,1.0271180999989156,714.4499997999956,None,None,0,,,,,,,,,,,,,,210,24,Female,2022-05-04_16h29.05.235,Main,2022.1.1,60.0869458133576,
negative,blue,1,None,k,,,,,,,,,0,229,229,229,,,,,,,,,,,,,,,,,,,,,,,,,,,,,,,,,,,,,main,None,None,1,1.5087656999967294,716.476058500004,None,None,1,,,,,,,,,,,,,,210,24,Female,2022-05-04_16h29.05.235,Main,2022.1.1,60.0869458133576,
positive,yellow,1,None,k,,,,,,,,,0,230,230,230,,,,,,,,,,,,,,,,,,,,,,,,,,,,,,,,,,,,,main,None,None,1,1.5087915000040084,718.9880743999965,None,None,1,,,,,,,,,,,,,,210,24,Female,2022-05-04_16h29.05.235,Main,2022.1.1,60.0869458133576,
negative,blue,2,None,k,,,,,,,,,0,231,231,231,,,,,,,,,,,,,,,,,,,,,,,,,,,,,,,,,,,,,main,None,None,1,1.5013936000032118,721.4990777999919,None,None,1,,,,,,,,,,,,,,210,24,Female,2022-05-04_16h29.05.235,Main,2022.1.1,60.0869458133576,
negative,red,1,None,None,,,,,,,,,0,232,232,232,,,,,,,,,,,,,,,,,,,,,,,,,,,,,,,,,,,,,main,None,None,1,1.4949877000035485,724.0018360999966,None,None,1,,,,,,,,,,,,,,210,24,Female,2022-05-04_16h29.05.235,Main,2022.1.1,60.0869458133576,
positive,blue,2,k,None,,,,,,,,,0,233,233,233,,,,,,,,,,,,,,,,,,,,,,,,,,,,,,,,,,,,,main,k,k,1,1.2764976000034949,726.4983656999975,None,None,0,,,,,,,,,,,,,,210,24,Female,2022-05-04_16h29.05.235,Main,2022.1.1,60.0869458133576,
negative,yellow,1,k,None,,,,,,,,,0,234,234,234,,,,,,,,,,,,,,,,,,,,,,,,,,,,,,,,,,,,,main,k,k,1,0.7713530000037281,728.7736524999927,None,None,0,,,,,,,,,,,,,,210,24,Female,2022-05-04_16h29.05.235,Main,2022.1.1,60.0869458133576,
negative,yellow,2,k,None,,,,,,,,,0,235,235,235,,,,,,,,,,,,,,,,,,,,,,,,,,,,,,,,,,,,,main,k,k,1,0.693181700000423,730.5492840999941,None,None,0,,,,,,,,,,,,,,210,24,Female,2022-05-04_16h29.05.235,Main,2022.1.1,60.0869458133576,
positive,red,1,None,None,,,,,,,,,0,236,236,236,,,,,,,,,,,,,,,,,,,,,,,,,,,,,,,,,,,,,main,None,None,1,1.5025231999898097,732.2419475999923,None,None,1,,,,,,,,,,,,,,210,24,Female,2022-05-04_16h29.05.235,Main,2022.1.1,60.0869458133576,
negative,red,2,None,None,,,,,,,,,0,237,237,237,,,,,,,,,,,,,,,,,,,,,,,,,,,,,,,,,,,,,main,None,None,1,1.497795400005998,734.7483711999957,None,None,1,,,,,,,,,,,,,,210,24,Female,2022-05-04_16h29.05.235,Main,2022.1.1,60.0869458133576,
negative,blue,1,None,k,,,,,,,,,0,238,238,238,,,,,,,,,,,,,,,,,,,,,,,,,,,,,,,,,,,,,main,None,None,1,1.5109628000063822,737.2467630000028,None,None,1,,,,,,,,,,,,,,210,24,Female,2022-05-04_16h29.05.235,Main,2022.1.1,60.0869458133576,
positive,blue,1,k,None,,,,,,,,,0,239,239,239,,,,,,,,,,,,,,,,,,,,,,,,,,,,,,,,,,,,,main,k,k,1,0.9639059000037378,739.7577439000015,None,None,0,,,,,,,,,,,,,,210,24,Female,2022-05-04_16h29.05.235,Main,2022.1.1,60.0869458133576,
,,,,,,,,,,,,,,,,,,,,,,,,,,,,,,,,,,,,,,,,,,,,,,,,,,,,,,,,,,,,,,,,,,,,,,,,,741.712526999996,None,,,,,,,,
