distractor,target,set,ans1,ans2,rep_loop4.thisRepN,rep_loop4.thisTrialN,rep_loop4.thisN,rep_loop4.thisIndex,st2_prac_loop.thisRepN,st2_prac_loop.thisTrialN,st2_prac_loop.thisN,st2_prac_loop.thisIndex,st2_main_loop.thisRepN,st2_main_loop.thisTrialN,st2_main_loop.thisN,st2_main_loop.thisIndex,image_4.started,image_4.stopped,mouse_7.x,mouse_7.y,mouse_7.leftButton,mouse_7.midButton,mouse_7.rightButton,sound_2.started,sound_2.stopped,key_resp_3.keys,mouse_5.x,mouse_5.y,mouse_5.leftButton,mouse_5.midButton,mouse_5.rightButton,mouse_5.started,mouse_5.stopped,yes_text2.started,yes_text2.stopped,no_text2.started,no_text2.stopped,mouse_3.x,mouse_3.y,mouse_3.leftButton,mouse_3.midButton,mouse_3.rightButton,mouse_3.started,mouse_3.stopped,st_prac_back.started,st_prac_back.stopped,st_prac_text.started,st_prac_text.stopped,st_fix_back.started,st_fix_back.stopped,st_fix_2.started,st_fix_2.stopped,main_prac,st_ans,st_res,st_corr,st_rt,st_back.started,st_back.stopped,st2_resp.keys,st2_resp.corr,st_main_back.started,st_main_back.stopped,st_main_text.started,st_main_text.stopped,mouse_4.x,mouse_4.y,mouse_4.leftButton,mouse_4.midButton,mouse_4.rightButton,mouse_4.started,mouse_4.stopped,text_2.started,text_2.stopped,id*,age*,gender*,date,expName,psychopyVersion,frameRate,
,,,,,,,,,,,,,,,,,30.115802400000575,None,0.5185185,-0.032407407,0,0,0,,,,,,,,,,,,,,,,,,,,,,,,,,,,,,,,,,,,,,,,,,,,,,,,,,,,211,19,Male,2022-05-06_13h55.16.288,Main,2022.1.1,59.987642545598604,
negative,yellow,1,k,None,,,,,0,0,0,0,,,,,,,,,,,,39.625168070000385,None,None,-0.12037037,0.0074074073,0,0,0,1.002496439999959,None,95.95112130000052,None,95.95112130000052,None,-0.107407406,-0.06388889,0,0,0,0.012649370000872295,None,100.4905161000006,None,100.4905161000006,None,102.50000180000006,None,102.50000180000006,None,prac,None,None,1,1.4982524999995803,104.54713700000048,None,None,1,,,,,,,,,,,,,,211,19,Male,2022-05-06_13h55.16.288,Main,2022.1.1,59.987642545598604,
positive,red,2,None,None,,,,,0,1,1,1,,,,,,,,,,,,,,,,,,,,,,,,,,,,,,,,,,,,,,,,,prac,None,k,0,-0.2656310000002122,107.03536930000064,None,None,1,,,,,,,,,,,,,,211,19,Male,2022-05-06_13h55.16.288,Main,2022.1.1,59.987642545598604,
negative,blue,2,None,k,,,,,0,2,2,2,,,,,,,,,,,,,,,,,,,,,,,,,,,,,,,,,,,,,,,,,prac,k,k,1,5.126922100000229,110.8160127000001,None,None,0,,,,,,,,,,,,,,211,19,Male,2022-05-06_13h55.16.288,Main,2022.1.1,59.987642545598604,
positive,yellow,1,None,k,,,,,0,3,3,3,,,,,,,,,,,,,,,,,,,,,,,,,,,,,,,,,,,,,,,,,prac,k,k,1,1.341812800000298,117.96044280000024,None,None,0,,,,,,,,,,,,,,211,19,Male,2022-05-06_13h55.16.288,Main,2022.1.1,59.987642545598604,
negative,blue,2,None,k,,,,,0,4,4,4,,,,,,,,,,,,,,,,,,,,,,,,,,,,,,,,,,,,,,,,,prac,k,k,1,32.484291400000075,120.3054402000007,None,None,0,,,,,,,,,,,,,,211,19,Male,2022-05-06_13h55.16.288,Main,2022.1.1,59.987642545598604,
negative,blue,1,None,k,,,,,0,5,5,5,,,,,,,,,,,,,,,,,,,,,,,,,,,,,,,,,,,,,,,,,prac,k,k,1,1.0490767999999662,154.8058813000007,None,None,0,,,,,,,,,,,,,,211,19,Male,2022-05-06_13h55.16.288,Main,2022.1.1,59.987642545598604,
negative,yellow,2,k,None,,,,,0,6,6,6,,,,,,,,,,,,,,,,,,,,,,,,,,,,,,,,,,,,,,,,,prac,None,None,1,1.5088148000004367,156.8465098000006,None,None,1,,,,,,,,,,,,,,211,19,Male,2022-05-06_13h55.16.288,Main,2022.1.1,59.987642545598604,
negative,red,1,None,None,,,,,0,7,7,7,,,,,,,,,,,,,,,,,,,,,,,,,,,,,,,,,,,,,,,,,prac,None,None,1,1.4961228000001938,159.35779340000045,None,None,1,,,,,,,,,,,,,,211,19,Male,2022-05-06_13h55.16.288,Main,2022.1.1,59.987642545598604,
positive,yellow,2,None,k,,,,,0,8,8,8,,,,,,,,,,,,,,,,,,,,,,,,,,,,,,,,,,,,,,,,,prac,k,k,1,8.527963700000328,161.8572963000006,None,None,0,,,,,,,,,,,,,,211,19,Male,2022-05-06_13h55.16.288,Main,2022.1.1,59.987642545598604,
negative,yellow,1,k,None,,,,,0,9,9,9,,,,,,,,,,,,,,,,,,,,,,,,,,,,,,,,,,,,,,,,,prac,None,None,1,1.4919587000003958,172.3936905999999,None,None,1,,,,,,,,,,,,,,211,19,Male,2022-05-06_13h55.16.288,Main,2022.1.1,59.987642545598604,
positive,yellow,2,None,k,,,,,0,10,10,10,,,,,,,,,,,,,,,,,,,,,,,,,,,,,,,,,,,,,,,,,prac,k,k,1,0.986832399999912,174.89703499999996,None,None,0,,,,,,,,,,,,,,211,19,Male,2022-05-06_13h55.16.288,Main,2022.1.1,59.987642545598604,
negative,yellow,2,k,None,,,,,0,11,11,11,,,,,,,,,,,,,,,,,,,,,,,,,,,,,,,,,,,,,,,,,prac,None,None,1,1.4982540000000881,176.87310120000075,None,None,1,,,,,,,,,,,,,,211,19,Male,2022-05-06_13h55.16.288,Main,2022.1.1,59.987642545598604,
negative,red,2,None,None,,,,,0,12,12,12,,,,,,,,,,,,,,,,,,,,,,,,,,,,,,,,,,,,,,,,,prac,None,None,1,1.5103454000000056,179.37345940000068,None,None,1,,,,,,,,,,,,,,211,19,Male,2022-05-06_13h55.16.288,Main,2022.1.1,59.987642545598604,
positive,red,1,None,None,,,,,0,13,13,13,,,,,,,,,,,,,,,,,,,,,,,,,,,,,,,,,,,,,,,,,prac,None,None,1,1.4998976000006223,181.88696880000043,None,None,1,,,,,,,,,,,,,,211,19,Male,2022-05-06_13h55.16.288,Main,2022.1.1,59.987642545598604,
positive,blue,2,k,None,,,,,0,14,14,14,,,,,,,,,,,,,,,,,,,,,,,,,,,,,,,,,,,,,,,,,prac,None,k,0,1.1729938999997103,184.3882480000002,None,None,1,,,,,,,,,,,,,,211,19,Male,2022-05-06_13h55.16.288,Main,2022.1.1,59.987642545598604,
positive,blue,1,k,None,,,,,0,15,15,15,,,,,,,,,,,,,,,,,,,,,,,,,,,,,,,,,,,,,,,,,prac,None,None,1,1.4920060000004014,187.60128440000062,None,None,1,,,,,,,,,,,,,,211,19,Male,2022-05-06_13h55.16.288,Main,2022.1.1,59.987642545598604,
negative,blue,1,None,k,,,,,0,16,16,16,,,,,,,,,,,,,,,,,,,,,,,,,,,,,,,,,,,,,,,,,prac,k,k,1,0.7107086000005438,190.08451800000057,None,None,0,,,,,,,,,,,,,,211,19,Male,2022-05-06_13h55.16.288,Main,2022.1.1,59.987642545598604,
positive,blue,2,k,None,,,,,0,17,17,17,,,,,,,,,,,,,,,,,,,,,,,,,,,,,,,,,,,,,,,,,prac,None,None,1,1.5059486999998626,191.79763900000034,None,None,1,,,,,,,,,,,,,,211,19,Male,2022-05-06_13h55.16.288,Main,2022.1.1,59.987642545598604,
positive,blue,1,k,None,,,,,0,18,18,18,,,,,,,,,,,,,,,,,,,,,,,,,,,,,,,,,,,,,,,,,prac,None,None,1,1.5032836000000316,194.30348010000034,None,None,1,,,,,,,,,,,,,,211,19,Male,2022-05-06_13h55.16.288,Main,2022.1.1,59.987642545598604,
positive,yellow,1,None,k,,,,,0,19,19,19,,,,,,,,,,,,,,,,,,,,,,,,,,,,,,,,,,,,,,,,,prac,k,k,1,1.0622637999995277,196.81048240000018,None,None,0,,,,,,,,,,,,,,211,19,Male,2022-05-06_13h55.16.288,Main,2022.1.1,59.987642545598604,
negative,yellow,1,k,None,,,,,1,0,20,0,,,,,,,,,,,,,,,,,,,,,,,,,,,,,,,,,,,,,,,,,prac,None,None,1,1.4319150999999692,198.87267930000053,None,None,1,,,,,,,,,,,,,,211,19,Male,2022-05-06_13h55.16.288,Main,2022.1.1,59.987642545598604,
positive,red,2,None,None,,,,,1,1,21,1,,,,,,,,,,,,,,,,,,,,,,,,,,,,,,,,,,,,,,,,,prac,None,k,0,1.5090852000002997,201.30935750000026,None,None,1,,,,,,,,,,,,,,211,19,Male,2022-05-06_13h55.16.288,Main,2022.1.1,59.987642545598604,
negative,blue,2,None,k,,,,,1,2,22,2,,,,,,,,,,,,,,,,,,,,,,,,,,,,,,,,,,,,,,,,,prac,k,k,1,2.011581099999603,204.82232830000066,None,None,0,,,,,,,,,,,,,,211,19,Male,2022-05-06_13h55.16.288,Main,2022.1.1,59.987642545598604,
positive,yellow,1,None,k,,,,,1,3,23,3,,,,,,,,,,,,,,,,,,,,,,,,,,,,,,,,,,,,,,,,,prac,k,k,1,12.120756999999685,208.84056950000013,None,None,0,,,,,,,,,,,,,,211,19,Male,2022-05-06_13h55.16.288,Main,2022.1.1,59.987642545598604,
negative,blue,2,None,k,,,,,1,4,24,4,,,,,,,,,,,,,,,,,,,,,,,,,,,,,,,,,,,,,,,,,prac,k,k,1,1.733174300000428,222.9699602999999,None,None,0,,,,,,,,,,,,,,211,19,Male,2022-05-06_13h55.16.288,Main,2022.1.1,59.987642545598604,
negative,blue,1,None,k,,,,,1,5,25,5,,,,,,,,,,,,,,,,,,,,,,,,,,,,,,,,,,,,,,,,,prac,k,k,1,1.4336262000006172,226.7026020000003,None,None,0,,,,,,,,,,,,,,211,19,Male,2022-05-06_13h55.16.288,Main,2022.1.1,59.987642545598604,
negative,yellow,2,k,None,,,,,1,6,26,6,,,,,,,,,,,,,,,,,,,,,,,,,,,,,,,,,,,,,,,,,prac,None,None,1,1.4965482999996311,229.13821760000064,None,None,1,,,,,,,,,,,,,,211,19,Male,2022-05-06_13h55.16.288,Main,2022.1.1,59.987642545598604,
negative,red,1,None,None,,,,,1,7,27,7,,,,,,,,,,,,,,,,,,,,,,,,,,,,,,,,,,,,,,,,,prac,None,None,1,1.5048985000003086,231.63472810000076,None,None,1,,,,,,,,,,,,,,211,19,Male,2022-05-06_13h55.16.288,Main,2022.1.1,59.987642545598604,
positive,yellow,2,None,k,,,,,1,8,28,8,,,,,,,,,,,,,,,,,,,,,,,,,,,,,,,,,,,,,,,,,prac,k,k,1,0.7768815999997969,234.14232960000027,None,None,0,,,,,,,,,,,,,,211,19,Male,2022-05-06_13h55.16.288,Main,2022.1.1,59.987642545598604,
negative,yellow,1,k,None,,,,,1,9,29,9,,,,,,,,,,,,,,,,,,,,,,,,,,,,,,,,,,,,,,,,,prac,None,None,1,1.507547700000032,235.92205620000004,None,None,1,,,,,,,,,,,,,,211,19,Male,2022-05-06_13h55.16.288,Main,2022.1.1,59.987642545598604,
positive,yellow,2,None,k,,,,,1,10,30,10,,,,,,,,,,,,,,,,,,,,,,,,,,,,,,,,,,,,,,,,,prac,k,k,1,1.4714689000002181,238.43034790000002,None,None,0,,,,,,,,,,,,,,211,19,Male,2022-05-06_13h55.16.288,Main,2022.1.1,59.987642545598604,
negative,yellow,2,k,None,,,,,1,11,31,11,,,,,,,,,,,,,,,,,,,,,,,,,,,,,,,,,,,,,,,,,prac,None,None,1,1.4948106000001644,240.9066143,None,None,1,,,,,,,,,,,,,,211,19,Male,2022-05-06_13h55.16.288,Main,2022.1.1,59.987642545598604,
negative,red,2,None,None,,,,,1,12,32,12,,,,,,,,,,,,,,,,,,,,,,,,,,,,,,,,,,,,,,,,,prac,None,None,1,1.5040521999999328,243.40285140000015,None,None,1,,,,,,,,,,,,,,211,19,Male,2022-05-06_13h55.16.288,Main,2022.1.1,59.987642545598604,
positive,red,1,None,None,,,,,1,13,33,13,,,,,,,,,,,,,,,,,,,,,,,,,,,,,,,,,,,,,,,,,prac,None,None,1,1.5033604999998715,245.91301010000006,None,None,1,,,,,,,,,,,,,,211,19,Male,2022-05-06_13h55.16.288,Main,2022.1.1,59.987642545598604,
positive,blue,2,k,None,,,,,1,14,34,14,,,,,,,,,,,,,,,,,,,,,,,,,,,,,,,,,,,,,,,,,prac,None,None,1,1.4985876000000644,248.41260970000076,None,None,1,,,,,,,,,,,,,,211,19,Male,2022-05-06_13h55.16.288,Main,2022.1.1,59.987642545598604,
positive,blue,1,k,None,,,,,1,15,35,15,,,,,,,,,,,,,,,,,,,,,,,,,,,,,,,,,,,,,,,,,prac,None,None,1,1.4966250999996191,250.9129339000001,None,None,1,,,,,,,,,,,,,,211,19,Male,2022-05-06_13h55.16.288,Main,2022.1.1,59.987642545598604,
negative,blue,1,None,k,,,,,1,16,36,16,,,,,,,,,,,,,,,,,,,,,,,,,,,,,,,,,,,,,,,,,prac,k,k,1,0.7013347000001886,253.41295730000002,None,None,0,,,,,,,,,,,,,,211,19,Male,2022-05-06_13h55.16.288,Main,2022.1.1,59.987642545598604,
positive,blue,2,k,None,,,,,1,17,37,17,,,,,,,,,,,,,,,,,,,,,,,,,,,,,,,,,,,,,,,,,prac,None,None,1,1.4970161999999618,255.11796400000003,None,None,1,,,,,,,,,,,,,,211,19,Male,2022-05-06_13h55.16.288,Main,2022.1.1,59.987642545598604,
positive,blue,1,k,None,,,,,1,18,38,18,,,,,,,,,,,,,,,,,,,,,,,,,,,,,,,,,,,,,,,,,prac,None,None,1,1.5034801000001607,257.61380670000017,None,None,1,,,,,,,,,,,,,,211,19,Male,2022-05-06_13h55.16.288,Main,2022.1.1,59.987642545598604,
positive,yellow,1,None,k,,,,,1,19,39,19,,,,,,,,,,,,,,,,,,,,,,,,,,,,,,,,,,,,,,,,,prac,k,k,1,0.9356156000003466,260.1223460000001,None,None,0,,,,,,,,,,,,,,211,19,Male,2022-05-06_13h55.16.288,Main,2022.1.1,59.987642545598604,
,,,,,,,,,,,,,,,,,,,,,,,,,,,,,,,,,,,,,,,,,,,,,,,,,,,,,,,,,,,,,,262.0752201000005,None,262.0752201000005,None,0.05277778,-0.060185187,0,0,0,0.01148356999965472,None,,,211,19,Male,2022-05-06_13h55.16.288,Main,2022.1.1,59.987642545598604,
negative,yellow,2,k,None,,,,,,,,,0,0,0,0,,,,,,,,,,,,,,,,,,,,,,,,,,,,,,,,,263.4465186000007,None,263.4465186000007,None,main,None,None,1,1.5011374000005162,265.5023547999999,None,None,1,,,,,,,,,,,,,,211,19,Male,2022-05-06_13h55.16.288,Main,2022.1.1,59.987642545598604,
positive,red,1,None,None,,,,,,,,,0,1,1,1,,,,,,,,,,,,,,,,,,,,,,,,,,,,,,,,,,,,,main,None,None,1,1.4946986000004472,268.00662720000037,None,None,1,,,,,,,,,,,,,,211,19,Male,2022-05-06_13h55.16.288,Main,2022.1.1,59.987642545598604,
positive,blue,2,k,None,,,,,,,,,0,2,2,2,,,,,,,,,,,,,,,,,,,,,,,,,,,,,,,,,,,,,main,None,None,1,1.4936892999994598,270.5044267000003,None,None,1,,,,,,,,,,,,,,211,19,Male,2022-05-06_13h55.16.288,Main,2022.1.1,59.987642545598604,
positive,blue,1,k,None,,,,,,,,,0,3,3,3,,,,,,,,,,,,,,,,,,,,,,,,,,,,,,,,,,,,,main,None,None,1,1.4958609000004799,272.99855970000044,None,None,1,,,,,,,,,,,,,,211,19,Male,2022-05-06_13h55.16.288,Main,2022.1.1,59.987642545598604,
negative,yellow,2,k,None,,,,,,,,,0,4,4,4,,,,,,,,,,,,,,,,,,,,,,,,,,,,,,,,,,,,,main,None,None,1,1.4973949000004723,275.4945948000004,None,None,1,,,,,,,,,,,,,,211,19,Male,2022-05-06_13h55.16.288,Main,2022.1.1,59.987642545598604,
positive,yellow,2,None,k,,,,,,,,,0,5,5,5,,,,,,,,,,,,,,,,,,,,,,,,,,,,,,,,,,,,,main,k,k,1,1.194097900000088,277.99373280000054,None,None,0,,,,,,,,,,,,,,211,19,Male,2022-05-06_13h55.16.288,Main,2022.1.1,59.987642545598604,
negative,blue,2,None,k,,,,,,,,,0,6,6,6,,,,,,,,,,,,,,,,,,,,,,,,,,,,,,,,,,,,,main,k,k,1,0.9569914000003337,280.19040940000014,None,None,0,,,,,,,,,,,,,,211,19,Male,2022-05-06_13h55.16.288,Main,2022.1.1,59.987642545598604,
positive,red,2,None,None,,,,,,,,,0,7,7,7,,,,,,,,,,,,,,,,,,,,,,,,,,,,,,,,,,,,,main,None,None,1,1.5102986000001692,282.1503284999999,None,None,1,,,,,,,,,,,,,,211,19,Male,2022-05-06_13h55.16.288,Main,2022.1.1,59.987642545598604,
positive,yellow,1,None,k,,,,,,,,,0,8,8,8,,,,,,,,,,,,,,,,,,,,,,,,,,,,,,,,,,,,,main,k,k,1,1.1544448000004195,284.6598806000002,None,None,0,,,,,,,,,,,,,,211,19,Male,2022-05-06_13h55.16.288,Main,2022.1.1,59.987642545598604,
negative,red,1,None,None,,,,,,,,,0,9,9,9,,,,,,,,,,,,,,,,,,,,,,,,,,,,,,,,,,,,,main,None,None,1,1.5052889999997205,286.8178523000006,None,None,1,,,,,,,,,,,,,,211,19,Male,2022-05-06_13h55.16.288,Main,2022.1.1,59.987642545598604,
positive,yellow,1,None,k,,,,,,,,,0,10,10,10,,,,,,,,,,,,,,,,,,,,,,,,,,,,,,,,,,,,,main,k,k,1,0.9095871999998053,289.3241054,None,None,0,,,,,,,,,,,,,,211,19,Male,2022-05-06_13h55.16.288,Main,2022.1.1,59.987642545598604,
negative,yellow,1,k,None,,,,,,,,,0,11,11,11,,,,,,,,,,,,,,,,,,,,,,,,,,,,,,,,,,,,,main,None,None,1,1.5054486999997607,291.2368853000007,None,None,1,,,,,,,,,,,,,,211,19,Male,2022-05-06_13h55.16.288,Main,2022.1.1,59.987642545598604,
negative,yellow,1,k,None,,,,,,,,,0,12,12,12,,,,,,,,,,,,,,,,,,,,,,,,,,,,,,,,,,,,,main,None,None,1,1.49629989999994,293.74558830000024,None,None,1,,,,,,,,,,,,,,211,19,Male,2022-05-06_13h55.16.288,Main,2022.1.1,59.987642545598604,
negative,red,2,None,None,,,,,,,,,0,13,13,13,,,,,,,,,,,,,,,,,,,,,,,,,,,,,,,,,,,,,main,None,None,1,1.4991448999999193,296.2405217000005,None,None,1,,,,,,,,,,,,,,211,19,Male,2022-05-06_13h55.16.288,Main,2022.1.1,59.987642545598604,
positive,yellow,2,None,k,,,,,,,,,0,14,14,14,,,,,,,,,,,,,,,,,,,,,,,,,,,,,,,,,,,,,main,k,k,1,0.7670625999999174,298.74175640000067,None,None,0,,,,,,,,,,,,,,211,19,Male,2022-05-06_13h55.16.288,Main,2022.1.1,59.987642545598604,
positive,blue,1,k,None,,,,,,,,,0,15,15,15,,,,,,,,,,,,,,,,,,,,,,,,,,,,,,,,,,,,,main,None,None,1,1.5086582000003546,300.51204340000004,None,None,1,,,,,,,,,,,,,,211,19,Male,2022-05-06_13h55.16.288,Main,2022.1.1,59.987642545598604,
negative,blue,1,None,k,,,,,,,,,0,16,16,16,,,,,,,,,,,,,,,,,,,,,,,,,,,,,,,,,,,,,main,k,k,1,0.8764694999999847,303.02308320000066,None,None,0,,,,,,,,,,,,,,211,19,Male,2022-05-06_13h55.16.288,Main,2022.1.1,59.987642545598604,
positive,blue,2,k,None,,,,,,,,,0,17,17,17,,,,,,,,,,,,,,,,,,,,,,,,,,,,,,,,,,,,,main,None,None,1,1.5040337000000363,304.9029251000002,None,None,1,,,,,,,,,,,,,,211,19,Male,2022-05-06_13h55.16.288,Main,2022.1.1,59.987642545598604,
negative,blue,2,None,k,,,,,,,,,0,18,18,18,,,,,,,,,,,,,,,,,,,,,,,,,,,,,,,,,,,,,main,k,k,1,1.3820443000004161,307.4070248000007,None,None,0,,,,,,,,,,,,,,211,19,Male,2022-05-06_13h55.16.288,Main,2022.1.1,59.987642545598604,
negative,blue,1,None,k,,,,,,,,,0,19,19,19,,,,,,,,,,,,,,,,,,,,,,,,,,,,,,,,,,,,,main,k,k,1,1.0996952999994392,309.7911623,None,None,0,,,,,,,,,,,,,,211,19,Male,2022-05-06_13h55.16.288,Main,2022.1.1,59.987642545598604,
negative,blue,1,None,k,,,,,,,,,0,20,20,20,,,,,,,,,,,,,,,,,,,,,,,,,,,,,,,,,,,,,main,k,k,1,0.946165999999721,311.8950175,None,None,0,,,,,,,,,,,,,,211,19,Male,2022-05-06_13h55.16.288,Main,2022.1.1,59.987642545598604,
negative,blue,2,None,k,,,,,,,,,0,21,21,21,,,,,,,,,,,,,,,,,,,,,,,,,,,,,,,,,,,,,main,k,k,1,0.7826499000002514,313.8394661000002,None,None,0,,,,,,,,,,,,,,211,19,Male,2022-05-06_13h55.16.288,Main,2022.1.1,59.987642545598604,
negative,red,1,None,None,,,,,,,,,0,22,22,22,,,,,,,,,,,,,,,,,,,,,,,,,,,,,,,,,,,,,main,None,None,1,1.5133845999998812,315.62551220000023,None,None,1,,,,,,,,,,,,,,211,19,Male,2022-05-06_13h55.16.288,Main,2022.1.1,59.987642545598604,
positive,red,2,None,None,,,,,,,,,0,23,23,23,,,,,,,,,,,,,,,,,,,,,,,,,,,,,,,,,,,,,main,None,None,1,1.4969382999997833,318.1401461000005,None,None,1,,,,,,,,,,,,,,211,19,Male,2022-05-06_13h55.16.288,Main,2022.1.1,59.987642545598604,
negative,red,2,None,None,,,,,,,,,0,24,24,24,,,,,,,,,,,,,,,,,,,,,,,,,,,,,,,,,,,,,main,None,None,1,1.5035806999994747,320.6388239000007,None,None,1,,,,,,,,,,,,,,211,19,Male,2022-05-06_13h55.16.288,Main,2022.1.1,59.987642545598604,
positive,blue,2,k,None,,,,,,,,,0,25,25,25,,,,,,,,,,,,,,,,,,,,,,,,,,,,,,,,,,,,,main,None,None,1,1.4971285000001444,323.14551870000014,None,None,1,,,,,,,,,,,,,,211,19,Male,2022-05-06_13h55.16.288,Main,2022.1.1,59.987642545598604,
negative,yellow,1,k,None,,,,,,,,,0,26,26,26,,,,,,,,,,,,,,,,,,,,,,,,,,,,,,,,,,,,,main,None,None,1,1.509473799999796,325.6443648000004,None,None,1,,,,,,,,,,,,,,211,19,Male,2022-05-06_13h55.16.288,Main,2022.1.1,59.987642545598604,
positive,blue,2,k,None,,,,,,,,,0,27,27,27,,,,,,,,,,,,,,,,,,,,,,,,,,,,,,,,,,,,,main,None,None,1,1.4985486999994464,328.15309720000005,None,None,1,,,,,,,,,,,,,,211,19,Male,2022-05-06_13h55.16.288,Main,2022.1.1,59.987642545598604,
negative,blue,2,None,k,,,,,,,,,0,28,28,28,,,,,,,,,,,,,,,,,,,,,,,,,,,,,,,,,,,,,main,k,k,1,0.865267700000004,330.6552864000005,None,None,0,,,,,,,,,,,,,,211,19,Male,2022-05-06_13h55.16.288,Main,2022.1.1,59.987642545598604,
positive,red,1,None,None,,,,,,,,,0,29,29,29,,,,,,,,,,,,,,,,,,,,,,,,,,,,,,,,,,,,,main,None,None,1,1.498828400000093,332.5212225000005,None,None,1,,,,,,,,,,,,,,211,19,Male,2022-05-06_13h55.16.288,Main,2022.1.1,59.987642545598604,
positive,blue,1,k,None,,,,,,,,,0,30,30,30,,,,,,,,,,,,,,,,,,,,,,,,,,,,,,,,,,,,,main,None,None,1,1.496863200000007,335.02371740000035,None,None,1,,,,,,,,,,,,,,211,19,Male,2022-05-06_13h55.16.288,Main,2022.1.1,59.987642545598604,
positive,yellow,1,None,k,,,,,,,,,0,31,31,31,,,,,,,,,,,,,,,,,,,,,,,,,,,,,,,,,,,,,main,k,k,1,1.266389500000514,337.52072580000004,None,None,0,,,,,,,,,,,,,,211,19,Male,2022-05-06_13h55.16.288,Main,2022.1.1,59.987642545598604,
negative,yellow,2,k,None,,,,,,,,,0,32,32,32,,,,,,,,,,,,,,,,,,,,,,,,,,,,,,,,,,,,,main,None,None,1,1.5103341000003638,339.79257550000057,None,None,1,,,,,,,,,,,,,,211,19,Male,2022-05-06_13h55.16.288,Main,2022.1.1,59.987642545598604,
negative,blue,1,None,k,,,,,,,,,0,33,33,33,,,,,,,,,,,,,,,,,,,,,,,,,,,,,,,,,,,,,main,k,k,1,1.0252876999993532,342.30108090000067,None,None,0,,,,,,,,,,,,,,211,19,Male,2022-05-06_13h55.16.288,Main,2022.1.1,59.987642545598604,
positive,blue,1,k,None,,,,,,,,,0,34,34,34,,,,,,,,,,,,,,,,,,,,,,,,,,,,,,,,,,,,,main,None,None,1,1.5019689999999173,344.3304816,None,None,1,,,,,,,,,,,,,,211,19,Male,2022-05-06_13h55.16.288,Main,2022.1.1,59.987642545598604,
negative,yellow,1,k,None,,,,,,,,,0,35,35,35,,,,,,,,,,,,,,,,,,,,,,,,,,,,,,,,,,,,,main,None,None,1,1.5116798999997627,346.83403570000064,None,None,1,,,,,,,,,,,,,,211,19,Male,2022-05-06_13h55.16.288,Main,2022.1.1,59.987642545598604,
positive,yellow,2,None,k,,,,,,,,,0,36,36,36,,,,,,,,,,,,,,,,,,,,,,,,,,,,,,,,,,,,,main,k,k,1,1.4090747000000192,349.3481864000005,None,None,0,,,,,,,,,,,,,,211,19,Male,2022-05-06_13h55.16.288,Main,2022.1.1,59.987642545598604,
positive,yellow,2,None,k,,,,,,,,,0,37,37,37,,,,,,,,,,,,,,,,,,,,,,,,,,,,,,,,,,,,,main,k,k,1,1.0115346000002319,351.7607740000003,None,None,0,,,,,,,,,,,,,,211,19,Male,2022-05-06_13h55.16.288,Main,2022.1.1,59.987642545598604,
negative,yellow,2,k,None,,,,,,,,,0,38,38,38,,,,,,,,,,,,,,,,,,,,,,,,,,,,,,,,,,,,,main,None,None,1,1.4955951000001733,353.7734186000007,None,None,1,,,,,,,,,,,,,,211,19,Male,2022-05-06_13h55.16.288,Main,2022.1.1,59.987642545598604,
positive,yellow,1,None,k,,,,,,,,,0,39,39,39,,,,,,,,,,,,,,,,,,,,,,,,,,,,,,,,,,,,,main,k,k,1,0.9106619000003775,356.26863850000063,None,None,0,,,,,,,,,,,,,,211,19,Male,2022-05-06_13h55.16.288,Main,2022.1.1,59.987642545598604,
negative,yellow,2,k,None,,,,,,,,,0,40,40,40,,,,,,,,,,,,,,,,,,,,,,,,,,,,,,,,,,,,,main,None,None,1,1.496262800000295,358.18263340000067,None,None,1,,,,,,,,,,,,,,211,19,Male,2022-05-06_13h55.16.288,Main,2022.1.1,59.987642545598604,
positive,blue,2,k,None,,,,,,,,,0,41,41,41,,,,,,,,,,,,,,,,,,,,,,,,,,,,,,,,,,,,,main,None,None,1,1.513815500000419,360.68424030000006,None,None,1,,,,,,,,,,,,,,211,19,Male,2022-05-06_13h55.16.288,Main,2022.1.1,59.987642545598604,
positive,blue,2,k,None,,,,,,,,,0,42,42,42,,,,,,,,,,,,,,,,,,,,,,,,,,,,,,,,,,,,,main,None,None,1,1.4996831999997084,363.1995121,None,None,1,,,,,,,,,,,,,,211,19,Male,2022-05-06_13h55.16.288,Main,2022.1.1,59.987642545598604,
negative,blue,2,None,k,,,,,,,,,0,43,43,43,,,,,,,,,,,,,,,,,,,,,,,,,,,,,,,,,,,,,main,k,k,1,0.7861738999999943,365.7004477999999,None,None,0,,,,,,,,,,,,,,211,19,Male,2022-05-06_13h55.16.288,Main,2022.1.1,59.987642545598604,
negative,red,1,None,None,,,,,,,,,0,44,44,44,,,,,,,,,,,,,,,,,,,,,,,,,,,,,,,,,,,,,main,None,None,1,1.5092247000002317,367.48937410000053,None,None,1,,,,,,,,,,,,,,211,19,Male,2022-05-06_13h55.16.288,Main,2022.1.1,59.987642545598604,
negative,yellow,1,k,None,,,,,,,,,0,45,45,45,,,,,,,,,,,,,,,,,,,,,,,,,,,,,,,,,,,,,main,None,None,1,1.5042106000000786,369.9979438999999,None,None,1,,,,,,,,,,,,,,211,19,Male,2022-05-06_13h55.16.288,Main,2022.1.1,59.987642545598604,
negative,yellow,1,k,None,,,,,,,,,0,46,46,46,,,,,,,,,,,,,,,,,,,,,,,,,,,,,,,,,,,,,main,None,None,1,1.4968180000005304,372.50598340000033,None,None,1,,,,,,,,,,,,,,211,19,Male,2022-05-06_13h55.16.288,Main,2022.1.1,59.987642545598604,
positive,red,1,None,None,,,,,,,,,0,47,47,47,,,,,,,,,,,,,,,,,,,,,,,,,,,,,,,,,,,,,main,None,None,1,1.4958061999996062,375.00509860000057,None,None,1,,,,,,,,,,,,,,211,19,Male,2022-05-06_13h55.16.288,Main,2022.1.1,59.987642545598604,
positive,yellow,1,None,k,,,,,,,,,0,48,48,48,,,,,,,,,,,,,,,,,,,,,,,,,,,,,,,,,,,,,main,k,k,1,0.7360079000000042,377.5018184999999,None,None,0,,,,,,,,,,,,,,211,19,Male,2022-05-06_13h55.16.288,Main,2022.1.1,59.987642545598604,
negative,blue,1,None,k,,,,,,,,,0,49,49,49,,,,,,,,,,,,,,,,,,,,,,,,,,,,,,,,,,,,,main,k,k,1,0.9458928000003652,379.2393517999999,None,None,0,,,,,,,,,,,,,,211,19,Male,2022-05-06_13h55.16.288,Main,2022.1.1,59.987642545598604,
positive,yellow,2,None,k,,,,,,,,,0,50,50,50,,,,,,,,,,,,,,,,,,,,,,,,,,,,,,,,,,,,,main,k,k,1,0.9455202000008285,381.1868021,None,None,0,,,,,,,,,,,,,,211,19,Male,2022-05-06_13h55.16.288,Main,2022.1.1,59.987642545598604,
negative,blue,1,None,k,,,,,,,,,0,51,51,51,,,,,,,,,,,,,,,,,,,,,,,,,,,,,,,,,,,,,main,k,k,1,0.8865931000000273,383.1329022,None,None,0,,,,,,,,,,,,,,211,19,Male,2022-05-06_13h55.16.288,Main,2022.1.1,59.987642545598604,
positive,red,2,None,None,,,,,,,,,0,52,52,52,,,,,,,,,,,,,,,,,,,,,,,,,,,,,,,,,,,,,main,None,None,1,1.500090999999884,385.0230263000003,None,None,1,,,,,,,,,,,,,,211,19,Male,2022-05-06_13h55.16.288,Main,2022.1.1,59.987642545598604,
positive,yellow,2,None,k,,,,,,,,,0,53,53,53,,,,,,,,,,,,,,,,,,,,,,,,,,,,,,,,,,,,,main,k,k,1,0.7741939000006823,387.52330880000045,None,None,0,,,,,,,,,,,,,,211,19,Male,2022-05-06_13h55.16.288,Main,2022.1.1,59.987642545598604,
negative,red,2,None,None,,,,,,,,,0,54,54,54,,,,,,,,,,,,,,,,,,,,,,,,,,,,,,,,,,,,,main,None,None,1,1.5003464999999778,389.29961170000024,None,None,1,,,,,,,,,,,,,,211,19,Male,2022-05-06_13h55.16.288,Main,2022.1.1,59.987642545598604,
positive,yellow,1,None,k,,,,,,,,,0,55,55,55,,,,,,,,,,,,,,,,,,,,,,,,,,,,,,,,,,,,,main,k,k,1,1.3139296999997896,391.8013737000001,None,None,0,,,,,,,,,,,,,,211,19,Male,2022-05-06_13h55.16.288,Main,2022.1.1,59.987642545598604,
negative,blue,2,None,k,,,,,,,,,0,56,56,56,,,,,,,,,,,,,,,,,,,,,,,,,,,,,,,,,,,,,main,k,k,1,0.7657325000000128,394.1173650999999,None,None,0,,,,,,,,,,,,,,211,19,Male,2022-05-06_13h55.16.288,Main,2022.1.1,59.987642545598604,
positive,blue,1,k,None,,,,,,,,,0,57,57,57,,,,,,,,,,,,,,,,,,,,,,,,,,,,,,,,,,,,,main,None,None,1,1.510031099999651,395.88478830000076,None,None,1,,,,,,,,,,,,,,211,19,Male,2022-05-06_13h55.16.288,Main,2022.1.1,59.987642545598604,
positive,blue,1,k,None,,,,,,,,,0,58,58,58,,,,,,,,,,,,,,,,,,,,,,,,,,,,,,,,,,,,,main,None,None,1,1.51113930000065,398.39394660000016,None,None,1,,,,,,,,,,,,,,211,19,Male,2022-05-06_13h55.16.288,Main,2022.1.1,59.987642545598604,
negative,yellow,2,k,None,,,,,,,,,0,59,59,59,,,,,,,,,,,,,,,,,,,,,,,,,,,,,,,,,,,,,main,None,None,1,1.5010769999998956,400.9088959999999,None,None,1,,,,,,,,,,,,,,211,19,Male,2022-05-06_13h55.16.288,Main,2022.1.1,59.987642545598604,
positive,red,2,None,None,,,,,,,,,0,60,60,60,,,,,,,,,,,,,,,,,,,,,,,,,,,,,,,,,,,,,main,None,None,1,1.509587499999725,403.4099947000004,None,None,1,,,,,,,,,,,,,,211,19,Male,2022-05-06_13h55.16.288,Main,2022.1.1,59.987642545598604,
negative,yellow,1,k,None,,,,,,,,,0,61,61,61,,,,,,,,,,,,,,,,,,,,,,,,,,,,,,,,,,,,,main,None,None,1,1.5039279000002352,405.9230172000007,None,None,1,,,,,,,,,,,,,,211,19,Male,2022-05-06_13h55.16.288,Main,2022.1.1,59.987642545598604,
negative,red,1,None,None,,,,,,,,,0,62,62,62,,,,,,,,,,,,,,,,,,,,,,,,,,,,,,,,,,,,,main,None,None,1,1.4977794000005815,408.42644999999993,None,None,1,,,,,,,,,,,,,,211,19,Male,2022-05-06_13h55.16.288,Main,2022.1.1,59.987642545598604,
negative,blue,1,None,k,,,,,,,,,0,63,63,63,,,,,,,,,,,,,,,,,,,,,,,,,,,,,,,,,,,,,main,k,k,1,0.9189250000008542,410.9258026000007,None,None,0,,,,,,,,,,,,,,211,19,Male,2022-05-06_13h55.16.288,Main,2022.1.1,59.987642545598604,
positive,blue,2,k,None,,,,,,,,,0,64,64,64,,,,,,,,,,,,,,,,,,,,,,,,,,,,,,,,,,,,,main,None,None,1,1.4984853000005387,412.8493778000002,None,None,1,,,,,,,,,,,,,,211,19,Male,2022-05-06_13h55.16.288,Main,2022.1.1,59.987642545598604,
negative,yellow,2,k,None,,,,,,,,,0,65,65,65,,,,,,,,,,,,,,,,,,,,,,,,,,,,,,,,,,,,,main,None,None,1,1.4984687999995003,415.3485725999999,None,None,1,,,,,,,,,,,,,,211,19,Male,2022-05-06_13h55.16.288,Main,2022.1.1,59.987642545598604,
positive,yellow,2,None,k,,,,,,,,,0,66,66,66,,,,,,,,,,,,,,,,,,,,,,,,,,,,,,,,,,,,,main,k,k,1,0.8718271999996432,417.8492842000005,None,None,0,,,,,,,,,,,,,,211,19,Male,2022-05-06_13h55.16.288,Main,2022.1.1,59.987642545598604,
positive,yellow,2,None,k,,,,,,,,,0,67,67,67,,,,,,,,,,,,,,,,,,,,,,,,,,,,,,,,,,,,,main,k,k,1,0.9898008999998638,419.7214995000004,None,None,0,,,,,,,,,,,,,,211,19,Male,2022-05-06_13h55.16.288,Main,2022.1.1,59.987642545598604,
positive,red,1,None,None,,,,,,,,,0,68,68,68,,,,,,,,,,,,,,,,,,,,,,,,,,,,,,,,,,,,,main,None,None,1,1.5010698000005505,421.71366880000005,None,None,1,,,,,,,,,,,,,,211,19,Male,2022-05-06_13h55.16.288,Main,2022.1.1,59.987642545598604,
positive,yellow,1,None,k,,,,,,,,,0,69,69,69,,,,,,,,,,,,,,,,,,,,,,,,,,,,,,,,,,,,,main,k,k,1,0.711067400000502,424.2177443999999,None,None,0,,,,,,,,,,,,,,211,19,Male,2022-05-06_13h55.16.288,Main,2022.1.1,59.987642545598604,
negative,yellow,2,k,None,,,,,,,,,0,70,70,70,,,,,,,,,,,,,,,,,,,,,,,,,,,,,,,,,,,,,main,None,None,1,1.4990692000001218,425.9308647000007,None,None,1,,,,,,,,,,,,,,211,19,Male,2022-05-06_13h55.16.288,Main,2022.1.1,59.987642545598604,
positive,yellow,1,None,k,,,,,,,,,0,71,71,71,,,,,,,,,,,,,,,,,,,,,,,,,,,,,,,,,,,,,main,k,k,1,0.8038228999994317,428.4312888000004,None,None,0,,,,,,,,,,,,,,211,19,Male,2022-05-06_13h55.16.288,Main,2022.1.1,59.987642545598604,
negative,blue,1,None,k,,,,,,,,,0,72,72,72,,,,,,,,,,,,,,,,,,,,,,,,,,,,,,,,,,,,,main,k,k,1,1.3439678000004278,430.2356649000003,None,None,0,,,,,,,,,,,,,,211,19,Male,2022-05-06_13h55.16.288,Main,2022.1.1,59.987642545598604,
negative,red,2,None,None,,,,,,,,,0,73,73,73,,,,,,,,,,,,,,,,,,,,,,,,,,,,,,,,,,,,,main,None,None,1,1.5013451999993777,432.5827261000004,None,None,1,,,,,,,,,,,,,,211,19,Male,2022-05-06_13h55.16.288,Main,2022.1.1,59.987642545598604,
positive,blue,2,k,None,,,,,,,,,0,74,74,74,,,,,,,,,,,,,,,,,,,,,,,,,,,,,,,,,,,,,main,None,None,1,1.5068866000001435,435.08414940000057,None,None,1,,,,,,,,,,,,,,211,19,Male,2022-05-06_13h55.16.288,Main,2022.1.1,59.987642545598604,
negative,blue,2,None,k,,,,,,,,,0,75,75,75,,,,,,,,,,,,,,,,,,,,,,,,,,,,,,,,,,,,,main,k,k,1,0.693905399999494,437.5915792000005,None,None,0,,,,,,,,,,,,,,211,19,Male,2022-05-06_13h55.16.288,Main,2022.1.1,59.987642545598604,
negative,blue,2,None,k,,,,,,,,,0,76,76,76,,,,,,,,,,,,,,,,,,,,,,,,,,,,,,,,,,,,,main,k,k,1,0.7873607999999876,439.29142200000024,None,None,0,,,,,,,,,,,,,,211,19,Male,2022-05-06_13h55.16.288,Main,2022.1.1,59.987642545598604,
negative,yellow,1,k,None,,,,,,,,,0,77,77,77,,,,,,,,,,,,,,,,,,,,,,,,,,,,,,,,,,,,,main,None,None,1,1.5096407999999428,441.0797351000001,None,None,1,,,,,,,,,,,,,,211,19,Male,2022-05-06_13h55.16.288,Main,2022.1.1,59.987642545598604,
positive,blue,1,k,None,,,,,,,,,0,78,78,78,,,,,,,,,,,,,,,,,,,,,,,,,,,,,,,,,,,,,main,None,None,1,1.5028190000002724,443.5884581999999,None,None,1,,,,,,,,,,,,,,211,19,Male,2022-05-06_13h55.16.288,Main,2022.1.1,59.987642545598604,
positive,blue,1,k,None,,,,,,,,,0,79,79,79,,,,,,,,,,,,,,,,,,,,,,,,,,,,,,,,,,,,,main,None,None,1,1.4955212000004394,446.0946319000004,None,None,1,,,,,,,,,,,,,,211,19,Male,2022-05-06_13h55.16.288,Main,2022.1.1,59.987642545598604,
positive,red,2,None,None,,,,,,,,,0,80,80,80,,,,,,,,,,,,,,,,,,,,,,,,,,,,,,,,,,,,,main,None,None,1,1.503848199999993,448.5900055000002,None,None,1,,,,,,,,,,,,,,211,19,Male,2022-05-06_13h55.16.288,Main,2022.1.1,59.987642545598604,
positive,yellow,2,None,k,,,,,,,,,0,81,81,81,,,,,,,,,,,,,,,,,,,,,,,,,,,,,,,,,,,,,main,k,k,1,0.904697899999519,451.09712390000004,None,None,0,,,,,,,,,,,,,,211,19,Male,2022-05-06_13h55.16.288,Main,2022.1.1,59.987642545598604,
positive,blue,1,k,None,,,,,,,,,0,82,82,82,,,,,,,,,,,,,,,,,,,,,,,,,,,,,,,,,,,,,main,None,None,1,1.5116806999994878,453.0049560000007,None,None,1,,,,,,,,,,,,,,211,19,Male,2022-05-06_13h55.16.288,Main,2022.1.1,59.987642545598604,
negative,yellow,2,k,None,,,,,,,,,0,83,83,83,,,,,,,,,,,,,,,,,,,,,,,,,,,,,,,,,,,,,main,None,k,0,0.78588579999996,455.51815200000055,None,None,1,,,,,,,,,,,,,,211,19,Male,2022-05-06_13h55.16.288,Main,2022.1.1,59.987642545598604,
positive,blue,2,k,None,,,,,,,,,0,84,84,84,,,,,,,,,,,,,,,,,,,,,,,,,,,,,,,,,,,,,main,None,None,1,1.5042616999999154,458.32240270000057,None,None,1,,,,,,,,,,,,,,211,19,Male,2022-05-06_13h55.16.288,Main,2022.1.1,59.987642545598604,
positive,yellow,1,None,k,,,,,,,,,0,85,85,85,,,,,,,,,,,,,,,,,,,,,,,,,,,,,,,,,,,,,main,k,k,1,1.0042997999998988,460.82922430000053,None,None,0,,,,,,,,,,,,,,211,19,Male,2022-05-06_13h55.16.288,Main,2022.1.1,59.987642545598604,
positive,blue,2,k,None,,,,,,,,,0,86,86,86,,,,,,,,,,,,,,,,,,,,,,,,,,,,,,,,,,,,,main,None,None,1,1.5043478000006871,462.8355896000003,None,None,1,,,,,,,,,,,,,,211,19,Male,2022-05-06_13h55.16.288,Main,2022.1.1,59.987642545598604,
positive,blue,1,k,None,,,,,,,,,0,87,87,87,,,,,,,,,,,,,,,,,,,,,,,,,,,,,,,,,,,,,main,None,None,1,1.505941499999608,465.3432799000002,None,None,1,,,,,,,,,,,,,,211,19,Male,2022-05-06_13h55.16.288,Main,2022.1.1,59.987642545598604,
negative,yellow,2,k,None,,,,,,,,,0,88,88,88,,,,,,,,,,,,,,,,,,,,,,,,,,,,,,,,,,,,,main,None,None,1,1.504155599999649,467.85086990000036,None,None,1,,,,,,,,,,,,,,211,19,Male,2022-05-06_13h55.16.288,Main,2022.1.1,59.987642545598604,
negative,blue,2,None,k,,,,,,,,,0,89,89,89,,,,,,,,,,,,,,,,,,,,,,,,,,,,,,,,,,,,,main,k,k,1,0.8696663000000626,470.3619800000006,None,None,0,,,,,,,,,,,,,,211,19,Male,2022-05-06_13h55.16.288,Main,2022.1.1,59.987642545598604,
positive,yellow,2,None,k,,,,,,,,,0,90,90,90,,,,,,,,,,,,,,,,,,,,,,,,,,,,,,,,,,,,,main,k,k,1,0.8710987000004025,472.23211210000045,None,None,0,,,,,,,,,,,,,,211,19,Male,2022-05-06_13h55.16.288,Main,2022.1.1,59.987642545598604,
negative,yellow,1,k,None,,,,,,,,,0,91,91,91,,,,,,,,,,,,,,,,,,,,,,,,,,,,,,,,,,,,,main,None,None,1,1.507118000000446,474.1023288000006,None,None,1,,,,,,,,,,,,,,211,19,Male,2022-05-06_13h55.16.288,Main,2022.1.1,59.987642545598604,
negative,red,2,None,None,,,,,,,,,0,92,92,92,,,,,,,,,,,,,,,,,,,,,,,,,,,,,,,,,,,,,main,None,None,1,1.5073922999999922,476.6119527000001,None,None,1,,,,,,,,,,,,,,211,19,Male,2022-05-06_13h55.16.288,Main,2022.1.1,59.987642545598604,
negative,blue,2,None,k,,,,,,,,,0,93,93,93,,,,,,,,,,,,,,,,,,,,,,,,,,,,,,,,,,,,,main,k,k,1,0.8560980000002019,479.1216976000005,None,None,0,,,,,,,,,,,,,,211,19,Male,2022-05-06_13h55.16.288,Main,2022.1.1,59.987642545598604,
negative,blue,1,None,k,,,,,,,,,0,94,94,94,,,,,,,,,,,,,,,,,,,,,,,,,,,,,,,,,,,,,main,k,k,1,0.936636799999178,480.9806318000001,None,None,0,,,,,,,,,,,,,,211,19,Male,2022-05-06_13h55.16.288,Main,2022.1.1,59.987642545598604,
negative,blue,1,None,k,,,,,,,,,0,95,95,95,,,,,,,,,,,,,,,,,,,,,,,,,,,,,,,,,,,,,main,k,k,1,0.8331447999999,482.92169100000046,None,None,0,,,,,,,,,,,,,,211,19,Male,2022-05-06_13h55.16.288,Main,2022.1.1,59.987642545598604,
negative,red,1,None,None,,,,,,,,,0,96,96,96,,,,,,,,,,,,,,,,,,,,,,,,,,,,,,,,,,,,,main,None,None,1,1.5117747000003874,484.75567780000074,None,None,1,,,,,,,,,,,,,,211,19,Male,2022-05-06_13h55.16.288,Main,2022.1.1,59.987642545598604,
positive,yellow,1,None,k,,,,,,,,,0,97,97,97,,,,,,,,,,,,,,,,,,,,,,,,,,,,,,,,,,,,,main,k,k,1,0.9229581999998118,487.2692450000004,None,None,0,,,,,,,,,,,,,,211,19,Male,2022-05-06_13h55.16.288,Main,2022.1.1,59.987642545598604,
negative,yellow,1,k,None,,,,,,,,,0,98,98,98,,,,,,,,,,,,,,,,,,,,,,,,,,,,,,,,,,,,,main,None,None,1,1.5067513999993025,489.19420640000044,None,None,1,,,,,,,,,,,,,,211,19,Male,2022-05-06_13h55.16.288,Main,2022.1.1,59.987642545598604,
positive,red,1,None,None,,,,,,,,,0,99,99,99,,,,,,,,,,,,,,,,,,,,,,,,,,,,,,,,,,,,,main,None,None,1,1.507079099999828,491.70111309999993,None,None,1,,,,,,,,,,,,,,211,19,Male,2022-05-06_13h55.16.288,Main,2022.1.1,59.987642545598604,
positive,blue,1,k,None,,,,,,,,,0,100,100,100,,,,,,,,,,,,,,,,,,,,,,,,,,,,,,,,,,,,,main,None,None,1,1.5057047999998758,494.2113038000007,None,None,1,,,,,,,,,,,,,,211,19,Male,2022-05-06_13h55.16.288,Main,2022.1.1,59.987642545598604,
negative,yellow,1,k,None,,,,,,,,,0,101,101,101,,,,,,,,,,,,,,,,,,,,,,,,,,,,,,,,,,,,,main,None,None,1,1.5026562000002741,496.71715530000074,None,None,1,,,,,,,,,,,,,,211,19,Male,2022-05-06_13h55.16.288,Main,2022.1.1,59.987642545598604,
negative,blue,2,None,k,,,,,,,,,0,102,102,102,,,,,,,,,,,,,,,,,,,,,,,,,,,,,,,,,,,,,main,k,k,1,1.0021300000007614,499.22419960000025,None,None,0,,,,,,,,,,,,,,211,19,Male,2022-05-06_13h55.16.288,Main,2022.1.1,59.987642545598604,
negative,yellow,2,k,None,,,,,,,,,0,103,103,103,,,,,,,,,,,,,,,,,,,,,,,,,,,,,,,,,,,,,main,None,None,1,1.4952861000001576,501.22718390000045,None,None,1,,,,,,,,,,,,,,211,19,Male,2022-05-06_13h55.16.288,Main,2022.1.1,59.987642545598604,
positive,yellow,2,None,k,,,,,,,,,0,104,104,104,,,,,,,,,,,,,,,,,,,,,,,,,,,,,,,,,,,,,main,k,k,1,0.7448994999995193,503.72516630000064,None,None,0,,,,,,,,,,,,,,211,19,Male,2022-05-06_13h55.16.288,Main,2022.1.1,59.987642545598604,
positive,blue,1,k,None,,,,,,,,,0,105,105,105,,,,,,,,,,,,,,,,,,,,,,,,,,,,,,,,,,,,,main,None,None,1,1.5044232999998712,505.4722158000004,None,None,1,,,,,,,,,,,,,,211,19,Male,2022-05-06_13h55.16.288,Main,2022.1.1,59.987642545598604,
positive,blue,2,k,None,,,,,,,,,0,106,106,106,,,,,,,,,,,,,,,,,,,,,,,,,,,,,,,,,,,,,main,None,None,1,1.497645499999635,507.9772466000004,None,None,1,,,,,,,,,,,,,,211,19,Male,2022-05-06_13h55.16.288,Main,2022.1.1,59.987642545598604,
negative,blue,1,None,k,,,,,,,,,0,107,107,107,,,,,,,,,,,,,,,,,,,,,,,,,,,,,,,,,,,,,main,k,k,1,0.8841440000005605,510.4759847000005,None,None,0,,,,,,,,,,,,,,211,19,Male,2022-05-06_13h55.16.288,Main,2022.1.1,59.987642545598604,
positive,yellow,2,None,k,,,,,,,,,0,108,108,108,,,,,,,,,,,,,,,,,,,,,,,,,,,,,,,,,,,,,main,k,k,1,0.9864735000001019,512.3628355999999,None,None,0,,,,,,,,,,,,,,211,19,Male,2022-05-06_13h55.16.288,Main,2022.1.1,59.987642545598604,
negative,yellow,1,k,None,,,,,,,,,0,109,109,109,,,,,,,,,,,,,,,,,,,,,,,,,,,,,,,,,,,,,main,None,None,1,1.5079831000002741,514.3526454000003,None,None,1,,,,,,,,,,,,,,211,19,Male,2022-05-06_13h55.16.288,Main,2022.1.1,59.987642545598604,
negative,blue,2,None,k,,,,,,,,,0,110,110,110,,,,,,,,,,,,,,,,,,,,,,,,,,,,,,,,,,,,,main,k,k,1,0.927430099999583,516.8620014000007,None,None,0,,,,,,,,,,,,,,211,19,Male,2022-05-06_13h55.16.288,Main,2022.1.1,59.987642545598604,
positive,blue,2,k,None,,,,,,,,,0,111,111,111,,,,,,,,,,,,,,,,,,,,,,,,,,,,,,,,,,,,,main,None,None,1,1.4999166999996305,518.7927052000005,None,None,1,,,,,,,,,,,,,,211,19,Male,2022-05-06_13h55.16.288,Main,2022.1.1,59.987642545598604,
negative,blue,1,None,k,,,,,,,,,0,112,112,112,,,,,,,,,,,,,,,,,,,,,,,,,,,,,,,,,,,,,main,k,k,1,0.886359199999788,521.2934186000002,None,None,0,,,,,,,,,,,,,,211,19,Male,2022-05-06_13h55.16.288,Main,2022.1.1,59.987642545598604,
positive,yellow,1,None,k,,,,,,,,,0,113,113,113,,,,,,,,,,,,,,,,,,,,,,,,,,,,,,,,,,,,,main,k,k,1,0.8631018999994922,523.1836886000001,None,None,0,,,,,,,,,,,,,,211,19,Male,2022-05-06_13h55.16.288,Main,2022.1.1,59.987642545598604,
negative,red,1,None,None,,,,,,,,,0,114,114,114,,,,,,,,,,,,,,,,,,,,,,,,,,,,,,,,,,,,,main,None,None,1,1.5099097000002075,525.0467038000006,None,None,1,,,,,,,,,,,,,,211,19,Male,2022-05-06_13h55.16.288,Main,2022.1.1,59.987642545598604,
positive,red,1,None,None,,,,,,,,,0,115,115,115,,,,,,,,,,,,,,,,,,,,,,,,,,,,,,,,,,,,,main,None,None,1,1.5017949000002773,527.5596304999999,None,None,1,,,,,,,,,,,,,,211,19,Male,2022-05-06_13h55.16.288,Main,2022.1.1,59.987642545598604,
negative,red,2,None,None,,,,,,,,,0,116,116,116,,,,,,,,,,,,,,,,,,,,,,,,,,,,,,,,,,,,,main,None,None,1,1.4974901999994472,530.0632829000006,None,None,1,,,,,,,,,,,,,,211,19,Male,2022-05-06_13h55.16.288,Main,2022.1.1,59.987642545598604,
negative,yellow,2,k,None,,,,,,,,,0,117,117,117,,,,,,,,,,,,,,,,,,,,,,,,,,,,,,,,,,,,,main,None,None,1,1.5031498999996984,532.5626195000004,None,None,1,,,,,,,,,,,,,,211,19,Male,2022-05-06_13h55.16.288,Main,2022.1.1,59.987642545598604,
positive,yellow,1,None,k,,,,,,,,,0,118,118,118,,,,,,,,,,,,,,,,,,,,,,,,,,,,,,,,,,,,,main,k,k,1,0.8439983999996912,535.0688209,None,None,0,,,,,,,,,,,,,,211,19,Male,2022-05-06_13h55.16.288,Main,2022.1.1,59.987642545598604,
positive,red,2,None,None,,,,,,,,,0,119,119,119,,,,,,,,,,,,,,,,,,,,,,,,,,,,,,,,,,,,,main,None,None,1,1.5139627999997174,536.9154853,None,None,1,,,,,,,,,,,,,,211,19,Male,2022-05-06_13h55.16.288,Main,2022.1.1,59.987642545598604,
positive,blue,2,k,None,,,,,,,,,0,120,120,120,,,,,,,,,,,,,,,,,,,,,,,,,,,,,,,,,,,,,main,None,None,1,1.4975504000003639,539.4281691000006,None,None,1,,,,,,,,,,,,,,211,19,Male,2022-05-06_13h55.16.288,Main,2022.1.1,59.987642545598604,
negative,red,1,None,None,,,,,,,,,0,121,121,121,,,,,,,,,,,,,,,,,,,,,,,,,,,,,,,,,,,,,main,None,None,1,1.4992420999997194,541.9270538999999,None,None,1,,,,,,,,,,,,,,211,19,Male,2022-05-06_13h55.16.288,Main,2022.1.1,59.987642545598604,
positive,yellow,2,None,k,,,,,,,,,0,122,122,122,,,,,,,,,,,,,,,,,,,,,,,,,,,,,,,,,,,,,main,k,k,1,1.180953999999474,544.4273468000001,None,None,0,,,,,,,,,,,,,,211,19,Male,2022-05-06_13h55.16.288,Main,2022.1.1,59.987642545598604,
negative,red,2,None,None,,,,,,,,,0,123,123,123,,,,,,,,,,,,,,,,,,,,,,,,,,,,,,,,,,,,,main,None,None,1,1.5024670000002516,546.6103311000006,None,None,1,,,,,,,,,,,,,,211,19,Male,2022-05-06_13h55.16.288,Main,2022.1.1,59.987642545598604,
negative,yellow,2,k,None,,,,,,,,,0,124,124,124,,,,,,,,,,,,,,,,,,,,,,,,,,,,,,,,,,,,,main,None,None,1,1.5121990999996342,549.1163190000007,None,None,1,,,,,,,,,,,,,,211,19,Male,2022-05-06_13h55.16.288,Main,2022.1.1,59.987642545598604,
positive,red,1,None,None,,,,,,,,,0,125,125,125,,,,,,,,,,,,,,,,,,,,,,,,,,,,,,,,,,,,,main,None,None,1,1.5009156999994957,551.6288637000007,None,None,1,,,,,,,,,,,,,,211,19,Male,2022-05-06_13h55.16.288,Main,2022.1.1,59.987642545598604,
negative,blue,2,None,k,,,,,,,,,0,126,126,126,,,,,,,,,,,,,,,,,,,,,,,,,,,,,,,,,,,,,main,k,k,1,1.177443200000198,554.1329526,None,None,0,,,,,,,,,,,,,,211,19,Male,2022-05-06_13h55.16.288,Main,2022.1.1,59.987642545598604,
negative,blue,1,None,k,,,,,,,,,0,127,127,127,,,,,,,,,,,,,,,,,,,,,,,,,,,,,,,,,,,,,main,k,k,1,0.7812418000003163,556.3120607999999,None,None,0,,,,,,,,,,,,,,211,19,Male,2022-05-06_13h55.16.288,Main,2022.1.1,59.987642545598604,
negative,yellow,1,k,None,,,,,,,,,0,128,128,128,,,,,,,,,,,,,,,,,,,,,,,,,,,,,,,,,,,,,main,None,None,1,1.4976784000000407,558.0948109999999,None,None,1,,,,,,,,,,,,,,211,19,Male,2022-05-06_13h55.16.288,Main,2022.1.1,59.987642545598604,
negative,yellow,1,k,None,,,,,,,,,0,129,129,129,,,,,,,,,,,,,,,,,,,,,,,,,,,,,,,,,,,,,main,None,None,1,1.510608699999466,560.5920393000006,None,None,1,,,,,,,,,,,,,,211,19,Male,2022-05-06_13h55.16.288,Main,2022.1.1,59.987642545598604,
positive,blue,1,k,None,,,,,,,,,0,130,130,130,,,,,,,,,,,,,,,,,,,,,,,,,,,,,,,,,,,,,main,None,None,1,1.501353100000415,563.1054435000005,None,None,1,,,,,,,,,,,,,,211,19,Male,2022-05-06_13h55.16.288,Main,2022.1.1,59.987642545598604,
negative,blue,1,None,k,,,,,,,,,0,131,131,131,,,,,,,,,,,,,,,,,,,,,,,,,,,,,,,,,,,,,main,k,k,1,0.9174973999997746,565.6106743,None,None,0,,,,,,,,,,,,,,211,19,Male,2022-05-06_13h55.16.288,Main,2022.1.1,59.987642545598604,
negative,blue,2,None,k,,,,,,,,,0,132,132,132,,,,,,,,,,,,,,,,,,,,,,,,,,,,,,,,,,,,,main,k,k,1,0.7829627999999502,567.5295700000006,None,None,0,,,,,,,,,,,,,,211,19,Male,2022-05-06_13h55.16.288,Main,2022.1.1,59.987642545598604,
positive,blue,2,k,None,,,,,,,,,0,133,133,133,,,,,,,,,,,,,,,,,,,,,,,,,,,,,,,,,,,,,main,None,None,1,1.4958668999997826,569.3141791000007,None,None,1,,,,,,,,,,,,,,211,19,Male,2022-05-06_13h55.16.288,Main,2022.1.1,59.987642545598604,
positive,red,2,None,None,,,,,,,,,0,134,134,134,,,,,,,,,,,,,,,,,,,,,,,,,,,,,,,,,,,,,main,None,None,1,1.5007999999997992,571.8113788999999,None,None,1,,,,,,,,,,,,,,211,19,Male,2022-05-06_13h55.16.288,Main,2022.1.1,59.987642545598604,
negative,yellow,2,k,None,,,,,,,,,0,135,135,135,,,,,,,,,,,,,,,,,,,,,,,,,,,,,,,,,,,,,main,None,None,1,1.5024078999995254,574.3140454000004,None,None,1,,,,,,,,,,,,,,211,19,Male,2022-05-06_13h55.16.288,Main,2022.1.1,59.987642545598604,
positive,yellow,2,None,k,,,,,,,,,0,136,136,136,,,,,,,,,,,,,,,,,,,,,,,,,,,,,,,,,,,,,main,k,k,1,0.6383937999999034,576.8177768000005,None,None,0,,,,,,,,,,,,,,211,19,Male,2022-05-06_13h55.16.288,Main,2022.1.1,59.987642545598604,
positive,blue,1,k,None,,,,,,,,,0,137,137,137,,,,,,,,,,,,,,,,,,,,,,,,,,,,,,,,,,,,,main,None,None,1,1.4975346000001082,578.4569898,None,None,1,,,,,,,,,,,,,,211,19,Male,2022-05-06_13h55.16.288,Main,2022.1.1,59.987642545598604,
positive,yellow,1,None,k,,,,,,,,,0,138,138,138,,,,,,,,,,,,,,,,,,,,,,,,,,,,,,,,,,,,,main,k,k,1,0.9095267000002423,580.9609628000007,None,None,0,,,,,,,,,,,,,,211,19,Male,2022-05-06_13h55.16.288,Main,2022.1.1,59.987642545598604,
positive,yellow,1,None,k,,,,,,,,,0,139,139,139,,,,,,,,,,,,,,,,,,,,,,,,,,,,,,,,,,,,,main,k,k,1,0.7959257000002253,582.8675039,None,None,0,,,,,,,,,,,,,,211,19,Male,2022-05-06_13h55.16.288,Main,2022.1.1,59.987642545598604,
positive,yellow,1,None,k,,,,,,,,,0,140,140,140,,,,,,,,,,,,,,,,,,,,,,,,,,,,,,,,,,,,,main,k,k,1,0.7413293000008707,584.6656374000004,None,None,0,,,,,,,,,,,,,,211,19,Male,2022-05-06_13h55.16.288,Main,2022.1.1,59.987642545598604,
positive,blue,1,k,None,,,,,,,,,0,141,141,141,,,,,,,,,,,,,,,,,,,,,,,,,,,,,,,,,,,,,main,None,None,1,1.4961879000002227,586.4084846000005,None,None,1,,,,,,,,,,,,,,211,19,Male,2022-05-06_13h55.16.288,Main,2022.1.1,59.987642545598604,
positive,blue,2,k,None,,,,,,,,,0,142,142,142,,,,,,,,,,,,,,,,,,,,,,,,,,,,,,,,,,,,,main,None,None,1,1.4989177999996173,588.9072800000004,None,None,1,,,,,,,,,,,,,,211,19,Male,2022-05-06_13h55.16.288,Main,2022.1.1,59.987642545598604,
positive,yellow,2,None,k,,,,,,,,,0,143,143,143,,,,,,,,,,,,,,,,,,,,,,,,,,,,,,,,,,,,,main,k,k,1,0.9653441000000385,591.4055065000002,None,None,0,,,,,,,,,,,,,,211,19,Male,2022-05-06_13h55.16.288,Main,2022.1.1,59.987642545598604,
negative,yellow,2,k,None,,,,,,,,,0,144,144,144,,,,,,,,,,,,,,,,,,,,,,,,,,,,,,,,,,,,,main,None,None,1,1.5090991000006397,593.3726814000001,None,None,1,,,,,,,,,,,,,,211,19,Male,2022-05-06_13h55.16.288,Main,2022.1.1,59.987642545598604,
negative,blue,2,None,k,,,,,,,,,0,145,145,145,,,,,,,,,,,,,,,,,,,,,,,,,,,,,,,,,,,,,main,k,k,1,0.7203111999997418,595.8842007000003,None,None,0,,,,,,,,,,,,,,211,19,Male,2022-05-06_13h55.16.288,Main,2022.1.1,59.987642545598604,
negative,red,1,None,None,,,,,,,,,0,146,146,146,,,,,,,,,,,,,,,,,,,,,,,,,,,,,,,,,,,,,main,None,None,1,1.5100671999998667,597.6082012000006,None,None,1,,,,,,,,,,,,,,211,19,Male,2022-05-06_13h55.16.288,Main,2022.1.1,59.987642545598604,
positive,blue,1,k,None,,,,,,,,,0,147,147,147,,,,,,,,,,,,,,,,,,,,,,,,,,,,,,,,,,,,,main,None,None,1,1.5010418000001664,600.1177391000001,None,None,1,,,,,,,,,,,,,,211,19,Male,2022-05-06_13h55.16.288,Main,2022.1.1,59.987642545598604,
positive,yellow,1,None,k,,,,,,,,,0,148,148,148,,,,,,,,,,,,,,,,,,,,,,,,,,,,,,,,,,,,,main,k,k,1,0.7939429999996719,602.6222445000003,None,None,0,,,,,,,,,,,,,,211,19,Male,2022-05-06_13h55.16.288,Main,2022.1.1,59.987642545598604,
negative,red,2,None,None,,,,,,,,,0,149,149,149,,,,,,,,,,,,,,,,,,,,,,,,,,,,,,,,,,,,,main,None,None,1,1.5006384999996953,604.4176052000003,None,None,1,,,,,,,,,,,,,,211,19,Male,2022-05-06_13h55.16.288,Main,2022.1.1,59.987642545598604,
negative,blue,1,None,k,,,,,,,,,0,150,150,150,,,,,,,,,,,,,,,,,,,,,,,,,,,,,,,,,,,,,main,k,k,1,0.824461600000177,606.9197291,None,None,0,,,,,,,,,,,,,,211,19,Male,2022-05-06_13h55.16.288,Main,2022.1.1,59.987642545598604,
negative,yellow,2,k,None,,,,,,,,,0,151,151,151,,,,,,,,,,,,,,,,,,,,,,,,,,,,,,,,,,,,,main,None,None,1,1.5082851000006485,608.7466588000007,None,None,1,,,,,,,,,,,,,,211,19,Male,2022-05-06_13h55.16.288,Main,2022.1.1,59.987642545598604,
negative,blue,2,None,k,,,,,,,,,0,152,152,152,,,,,,,,,,,,,,,,,,,,,,,,,,,,,,,,,,,,,main,k,k,1,0.8163920000006328,611.2580359000003,None,None,0,,,,,,,,,,,,,,211,19,Male,2022-05-06_13h55.16.288,Main,2022.1.1,59.987642545598604,
negative,yellow,1,k,None,,,,,,,,,0,153,153,153,,,,,,,,,,,,,,,,,,,,,,,,,,,,,,,,,,,,,main,None,None,1,1.5023258000001078,613.0752269000004,None,None,1,,,,,,,,,,,,,,211,19,Male,2022-05-06_13h55.16.288,Main,2022.1.1,59.987642545598604,
negative,blue,1,None,k,,,,,,,,,0,154,154,154,,,,,,,,,,,,,,,,,,,,,,,,,,,,,,,,,,,,,main,k,k,1,0.723713599999428,615.5791801000005,None,None,0,,,,,,,,,,,,,,211,19,Male,2022-05-06_13h55.16.288,Main,2022.1.1,59.987642545598604,
positive,yellow,2,None,k,,,,,,,,,0,155,155,155,,,,,,,,,,,,,,,,,,,,,,,,,,,,,,,,,,,,,main,k,k,1,0.8556953000006615,617.3096359000001,None,None,0,,,,,,,,,,,,,,211,19,Male,2022-05-06_13h55.16.288,Main,2022.1.1,59.987642545598604,
positive,red,2,None,None,,,,,,,,,0,156,156,156,,,,,,,,,,,,,,,,,,,,,,,,,,,,,,,,,,,,,main,None,None,1,1.49364340000011,619.1609882000002,None,None,1,,,,,,,,,,,,,,211,19,Male,2022-05-06_13h55.16.288,Main,2022.1.1,59.987642545598604,
positive,red,1,None,None,,,,,,,,,0,157,157,157,,,,,,,,,,,,,,,,,,,,,,,,,,,,,,,,,,,,,main,None,None,1,1.5023024000001897,621.6576673,None,None,1,,,,,,,,,,,,,,211,19,Male,2022-05-06_13h55.16.288,Main,2022.1.1,59.987642545598604,
positive,blue,2,k,None,,,,,,,,,0,158,158,158,,,,,,,,,,,,,,,,,,,,,,,,,,,,,,,,,,,,,main,None,None,1,1.5047909000004438,624.1599678000002,None,None,1,,,,,,,,,,,,,,211,19,Male,2022-05-06_13h55.16.288,Main,2022.1.1,59.987642545598604,
negative,yellow,1,k,None,,,,,,,,,0,159,159,159,,,,,,,,,,,,,,,,,,,,,,,,,,,,,,,,,,,,,main,None,None,1,1.5053174999993644,626.6654739000005,None,None,1,,,,,,,,,,,,,,211,19,Male,2022-05-06_13h55.16.288,Main,2022.1.1,59.987642545598604,
negative,red,2,None,None,,,,,,,,,0,160,160,160,,,,,,,,,,,,,,,,,,,,,,,,,,,,,,,,,,,,,main,None,None,1,1.512544600000183,629.1744537000004,None,None,1,,,,,,,,,,,,,,211,19,Male,2022-05-06_13h55.16.288,Main,2022.1.1,59.987642545598604,
negative,blue,1,None,k,,,,,,,,,0,161,161,161,,,,,,,,,,,,,,,,,,,,,,,,,,,,,,,,,,,,,main,k,k,1,1.3137830999994549,631.6878585000004,None,None,0,,,,,,,,,,,,,,211,19,Male,2022-05-06_13h55.16.288,Main,2022.1.1,59.987642545598604,
negative,blue,1,None,k,,,,,,,,,0,162,162,162,,,,,,,,,,,,,,,,,,,,,,,,,,,,,,,,,,,,,main,k,k,1,0.8335407000004125,634.0038225000008,None,None,0,,,,,,,,,,,,,,211,19,Male,2022-05-06_13h55.16.288,Main,2022.1.1,59.987642545598604,
negative,yellow,1,k,None,,,,,,,,,0,163,163,163,,,,,,,,,,,,,,,,,,,,,,,,,,,,,,,,,,,,,main,None,None,1,1.498167800000374,635.8386080999999,None,None,1,,,,,,,,,,,,,,211,19,Male,2022-05-06_13h55.16.288,Main,2022.1.1,59.987642545598604,
negative,yellow,1,k,None,,,,,,,,,0,164,164,164,,,,,,,,,,,,,,,,,,,,,,,,,,,,,,,,,,,,,main,None,None,1,1.4983137000008355,638.3381531000005,None,None,1,,,,,,,,,,,,,,211,19,Male,2022-05-06_13h55.16.288,Main,2022.1.1,59.987642545598604,
positive,yellow,1,None,k,,,,,,,,,0,165,165,165,,,,,,,,,,,,,,,,,,,,,,,,,,,,,,,,,,,,,main,k,k,1,1.2923014999996667,640.8386887000006,None,None,0,,,,,,,,,,,,,,211,19,Male,2022-05-06_13h55.16.288,Main,2022.1.1,59.987642545598604,
negative,red,1,None,None,,,,,,,,,0,166,166,166,,,,,,,,,,,,,,,,,,,,,,,,,,,,,,,,,,,,,main,None,None,1,1.5065001000002667,643.1306654,None,None,1,,,,,,,,,,,,,,211,19,Male,2022-05-06_13h55.16.288,Main,2022.1.1,59.987642545598604,
negative,yellow,2,k,None,,,,,,,,,0,167,167,167,,,,,,,,,,,,,,,,,,,,,,,,,,,,,,,,,,,,,main,None,None,1,1.5027320999997755,645.6401879000005,None,None,1,,,,,,,,,,,,,,211,19,Male,2022-05-06_13h55.16.288,Main,2022.1.1,59.987642545598604,
positive,blue,2,k,None,,,,,,,,,0,168,168,168,,,,,,,,,,,,,,,,,,,,,,,,,,,,,,,,,,,,,main,None,None,1,1.5039052000001902,648.1440587000006,None,None,1,,,,,,,,,,,,,,211,19,Male,2022-05-06_13h55.16.288,Main,2022.1.1,59.987642545598604,
positive,red,2,None,None,,,,,,,,,0,169,169,169,,,,,,,,,,,,,,,,,,,,,,,,,,,,,,,,,,,,,main,None,None,1,1.5101968999997553,650.6516120000006,None,None,1,,,,,,,,,,,,,,211,19,Male,2022-05-06_13h55.16.288,Main,2022.1.1,59.987642545598604,
positive,red,1,None,None,,,,,,,,,0,170,170,170,,,,,,,,,,,,,,,,,,,,,,,,,,,,,,,,,,,,,main,None,None,1,1.507405899999867,653.1625791000006,None,None,1,,,,,,,,,,,,,,211,19,Male,2022-05-06_13h55.16.288,Main,2022.1.1,59.987642545598604,
negative,blue,2,None,k,,,,,,,,,0,171,171,171,,,,,,,,,,,,,,,,,,,,,,,,,,,,,,,,,,,,,main,k,k,1,1.084644799999296,655.6717337,None,None,0,,,,,,,,,,,,,,211,19,Male,2022-05-06_13h55.16.288,Main,2022.1.1,59.987642545598604,
positive,blue,2,k,None,,,,,,,,,0,172,172,172,,,,,,,,,,,,,,,,,,,,,,,,,,,,,,,,,,,,,main,None,None,1,1.496976700000232,657.7619091000006,None,None,1,,,,,,,,,,,,,,211,19,Male,2022-05-06_13h55.16.288,Main,2022.1.1,59.987642545598604,
negative,yellow,2,k,None,,,,,,,,,0,173,173,173,,,,,,,,,,,,,,,,,,,,,,,,,,,,,,,,,,,,,main,None,None,1,1.5049692000002324,660.2564431000001,None,None,1,,,,,,,,,,,,,,211,19,Male,2022-05-06_13h55.16.288,Main,2022.1.1,59.987642545598604,
positive,yellow,2,None,k,,,,,,,,,0,174,174,174,,,,,,,,,,,,,,,,,,,,,,,,,,,,,,,,,,,,,main,k,k,1,0.8995715999999447,662.7703721000007,None,None,0,,,,,,,,,,,,,,211,19,Male,2022-05-06_13h55.16.288,Main,2022.1.1,59.987642545598604,
negative,blue,2,None,k,,,,,,,,,0,175,175,175,,,,,,,,,,,,,,,,,,,,,,,,,,,,,,,,,,,,,main,k,k,1,0.8519634000003862,664.6628630000005,None,None,0,,,,,,,,,,,,,,211,19,Male,2022-05-06_13h55.16.288,Main,2022.1.1,59.987642545598604,
positive,blue,1,k,None,,,,,,,,,0,176,176,176,,,,,,,,,,,,,,,,,,,,,,,,,,,,,,,,,,,,,main,None,None,1,1.5011684000000969,666.5183368000007,None,None,1,,,,,,,,,,,,,,211,19,Male,2022-05-06_13h55.16.288,Main,2022.1.1,59.987642545598604,
positive,yellow,1,None,k,,,,,,,,,0,177,177,177,,,,,,,,,,,,,,,,,,,,,,,,,,,,,,,,,,,,,main,k,k,1,0.8897463000002972,669.0199656000004,None,None,0,,,,,,,,,,,,,,211,19,Male,2022-05-06_13h55.16.288,Main,2022.1.1,59.987642545598604,
positive,blue,1,k,None,,,,,,,,,0,178,178,178,,,,,,,,,,,,,,,,,,,,,,,,,,,,,,,,,,,,,main,None,None,1,1.50533440000072,670.9101466000002,None,None,1,,,,,,,,,,,,,,211,19,Male,2022-05-06_13h55.16.288,Main,2022.1.1,59.987642545598604,
positive,yellow,2,None,k,,,,,,,,,0,179,179,179,,,,,,,,,,,,,,,,,,,,,,,,,,,,,,,,,,,,,main,k,k,1,0.646646299999702,673.4184548000003,None,None,0,,,,,,,,,,,,,,211,19,Male,2022-05-06_13h55.16.288,Main,2022.1.1,59.987642545598604,
positive,blue,1,k,None,,,,,,,,,0,180,180,180,,,,,,,,,,,,,,,,,,,,,,,,,,,,,,,,,,,,,main,None,None,1,1.5114572000002227,675.0676634000001,None,None,1,,,,,,,,,,,,,,211,19,Male,2022-05-06_13h55.16.288,Main,2022.1.1,59.987642545598604,
negative,red,1,None,None,,,,,,,,,0,181,181,181,,,,,,,,,,,,,,,,,,,,,,,,,,,,,,,,,,,,,main,None,None,1,1.4971858999997494,677.5803166000005,None,None,1,,,,,,,,,,,,,,211,19,Male,2022-05-06_13h55.16.288,Main,2022.1.1,59.987642545598604,
negative,blue,1,None,k,,,,,,,,,0,182,182,182,,,,,,,,,,,,,,,,,,,,,,,,,,,,,,,,,,,,,main,k,k,1,0.8700289000007615,680.0766487000001,None,None,0,,,,,,,,,,,,,,211,19,Male,2022-05-06_13h55.16.288,Main,2022.1.1,59.987642545598604,
negative,yellow,2,k,None,,,,,,,,,0,183,183,183,,,,,,,,,,,,,,,,,,,,,,,,,,,,,,,,,,,,,main,None,None,1,1.508713300000636,681.9497982000003,None,None,1,,,,,,,,,,,,,,211,19,Male,2022-05-06_13h55.16.288,Main,2022.1.1,59.987642545598604,
positive,yellow,2,None,k,,,,,,,,,0,184,184,184,,,,,,,,,,,,,,,,,,,,,,,,,,,,,,,,,,,,,main,k,k,1,0.7657577999998466,684.4580911000003,None,None,0,,,,,,,,,,,,,,211,19,Male,2022-05-06_13h55.16.288,Main,2022.1.1,59.987642545598604,
positive,yellow,1,None,k,,,,,,,,,0,185,185,185,,,,,,,,,,,,,,,,,,,,,,,,,,,,,,,,,,,,,main,k,k,1,0.8918250999995507,686.2274858000001,None,None,0,,,,,,,,,,,,,,211,19,Male,2022-05-06_13h55.16.288,Main,2022.1.1,59.987642545598604,
positive,red,2,None,None,,,,,,,,,0,186,186,186,,,,,,,,,,,,,,,,,,,,,,,,,,,,,,,,,,,,,main,None,None,1,1.5082296000000497,688.1209321000006,None,None,1,,,,,,,,,,,,,,211,19,Male,2022-05-06_13h55.16.288,Main,2022.1.1,59.987642545598604,
positive,blue,1,k,None,,,,,,,,,0,187,187,187,,,,,,,,,,,,,,,,,,,,,,,,,,,,,,,,,,,,,main,None,None,1,1.5100488999996742,690.6306275000006,None,None,1,,,,,,,,,,,,,,211,19,Male,2022-05-06_13h55.16.288,Main,2022.1.1,59.987642545598604,
negative,yellow,1,k,None,,,,,,,,,0,188,188,188,,,,,,,,,,,,,,,,,,,,,,,,,,,,,,,,,,,,,main,None,None,1,1.5021795000002385,693.1405808,None,None,1,,,,,,,,,,,,,,211,19,Male,2022-05-06_13h55.16.288,Main,2022.1.1,59.987642545598604,
positive,yellow,2,None,k,,,,,,,,,0,189,189,189,,,,,,,,,,,,,,,,,,,,,,,,,,,,,,,,,,,,,main,k,k,1,0.8330238999997164,695.6459054000006,None,None,0,,,,,,,,,,,,,,211,19,Male,2022-05-06_13h55.16.288,Main,2022.1.1,59.987642545598604,
negative,yellow,2,k,None,,,,,,,,,0,190,190,190,,,,,,,,,,,,,,,,,,,,,,,,,,,,,,,,,,,,,main,None,None,1,1.4973798000000897,697.4813997000001,None,None,1,,,,,,,,,,,,,,211,19,Male,2022-05-06_13h55.16.288,Main,2022.1.1,59.987642545598604,
negative,yellow,1,k,None,,,,,,,,,0,191,191,191,,,,,,,,,,,,,,,,,,,,,,,,,,,,,,,,,,,,,main,None,None,1,1.5109308000000965,699.9801195,None,None,1,,,,,,,,,,,,,,211,19,Male,2022-05-06_13h55.16.288,Main,2022.1.1,59.987642545598604,
positive,blue,2,k,None,,,,,,,,,0,192,192,192,,,,,,,,,,,,,,,,,,,,,,,,,,,,,,,,,,,,,main,None,None,1,1.5006764999998268,702.4903822000006,None,None,1,,,,,,,,,,,,,,211,19,Male,2022-05-06_13h55.16.288,Main,2022.1.1,59.987642545598604,
positive,yellow,1,None,k,,,,,,,,,0,193,193,193,,,,,,,,,,,,,,,,,,,,,,,,,,,,,,,,,,,,,main,k,k,1,1.0665071000003081,704.9944572000004,None,None,0,,,,,,,,,,,,,,211,19,Male,2022-05-06_13h55.16.288,Main,2022.1.1,59.987642545598604,
negative,red,2,None,None,,,,,,,,,0,194,194,194,,,,,,,,,,,,,,,,,,,,,,,,,,,,,,,,,,,,,main,None,None,1,1.5053944999999658,707.0625035000003,None,None,1,,,,,,,,,,,,,,211,19,Male,2022-05-06_13h55.16.288,Main,2022.1.1,59.987642545598604,
positive,red,1,None,None,,,,,,,,,0,195,195,195,,,,,,,,,,,,,,,,,,,,,,,,,,,,,,,,,,,,,main,None,None,1,1.4998501000000033,709.5689634,None,None,1,,,,,,,,,,,,,,211,19,Male,2022-05-06_13h55.16.288,Main,2022.1.1,59.987642545598604,
negative,blue,1,None,k,,,,,,,,,0,196,196,196,,,,,,,,,,,,,,,,,,,,,,,,,,,,,,,,,,,,,main,k,k,1,0.8333834000004572,712.0778968000004,None,None,0,,,,,,,,,,,,,,211,19,Male,2022-05-06_13h55.16.288,Main,2022.1.1,59.987642545598604,
positive,blue,2,k,None,,,,,,,,,0,197,197,197,,,,,,,,,,,,,,,,,,,,,,,,,,,,,,,,,,,,,main,None,None,1,1.5028062999999747,713.9054666000002,None,None,1,,,,,,,,,,,,,,211,19,Male,2022-05-06_13h55.16.288,Main,2022.1.1,59.987642545598604,
negative,blue,2,None,k,,,,,,,,,0,198,198,198,,,,,,,,,,,,,,,,,,,,,,,,,,,,,,,,,,,,,main,k,k,1,0.8095055000003413,716.4117687000007,None,None,0,,,,,,,,,,,,,,211,19,Male,2022-05-06_13h55.16.288,Main,2022.1.1,59.987642545598604,
negative,blue,2,None,k,,,,,,,,,0,199,199,199,,,,,,,,,,,,,,,,,,,,,,,,,,,,,,,,,,,,,main,k,k,1,0.7388649000004079,718.2208359000006,None,None,0,,,,,,,,,,,,,,211,19,Male,2022-05-06_13h55.16.288,Main,2022.1.1,59.987642545598604,
positive,blue,2,k,None,,,,,,,,,0,200,200,200,,,,,,,,,,,,,,,,,,,,,,,,,,,,,,,,,,,,,main,None,None,1,1.4948718999994526,719.9633914000005,None,None,1,,,,,,,,,,,,,,211,19,Male,2022-05-06_13h55.16.288,Main,2022.1.1,59.987642545598604,
positive,blue,2,k,None,,,,,,,,,0,201,201,201,,,,,,,,,,,,,,,,,,,,,,,,,,,,,,,,,,,,,main,None,None,1,1.4997675000004165,722.4602906,None,None,1,,,,,,,,,,,,,,211,19,Male,2022-05-06_13h55.16.288,Main,2022.1.1,59.987642545598604,
negative,yellow,2,k,None,,,,,,,,,0,202,202,202,,,,,,,,,,,,,,,,,,,,,,,,,,,,,,,,,,,,,main,None,None,1,1.4962226999996346,724.9610177000004,None,None,1,,,,,,,,,,,,,,211,19,Male,2022-05-06_13h55.16.288,Main,2022.1.1,59.987642545598604,
positive,red,1,None,None,,,,,,,,,0,203,203,203,,,,,,,,,,,,,,,,,,,,,,,,,,,,,,,,,,,,,main,None,None,1,1.5113638000002538,727.4588111000003,None,None,1,,,,,,,,,,,,,,211,19,Male,2022-05-06_13h55.16.288,Main,2022.1.1,59.987642545598604,
negative,blue,2,None,k,,,,,,,,,0,204,204,204,,,,,,,,,,,,,,,,,,,,,,,,,,,,,,,,,,,,,main,k,k,1,1.3242209000000003,729.9695031000001,None,None,0,,,,,,,,,,,,,,211,19,Male,2022-05-06_13h55.16.288,Main,2022.1.1,59.987642545598604,
negative,red,1,None,None,,,,,,,,,0,205,205,205,,,,,,,,,,,,,,,,,,,,,,,,,,,,,,,,,,,,,main,None,None,1,1.501940199999808,732.2968091000002,None,None,1,,,,,,,,,,,,,,211,19,Male,2022-05-06_13h55.16.288,Main,2022.1.1,59.987642545598604,
negative,blue,2,None,k,,,,,,,,,0,206,206,206,,,,,,,,,,,,,,,,,,,,,,,,,,,,,,,,,,,,,main,k,k,1,0.6724252000003617,734.8000204,None,None,0,,,,,,,,,,,,,,211,19,Male,2022-05-06_13h55.16.288,Main,2022.1.1,59.987642545598604,
negative,yellow,2,k,None,,,,,,,,,0,207,207,207,,,,,,,,,,,,,,,,,,,,,,,,,,,,,,,,,,,,,main,None,None,1,1.5014563000004273,736.4763611000008,None,None,1,,,,,,,,,,,,,,211,19,Male,2022-05-06_13h55.16.288,Main,2022.1.1,59.987642545598604,
positive,yellow,2,None,k,,,,,,,,,0,208,208,208,,,,,,,,,,,,,,,,,,,,,,,,,,,,,,,,,,,,,main,k,k,1,0.5821055999995224,738.9793858000003,None,None,0,,,,,,,,,,,,,,211,19,Male,2022-05-06_13h55.16.288,Main,2022.1.1,59.987642545598604,
negative,yellow,1,k,None,,,,,,,,,0,209,209,209,,,,,,,,,,,,,,,,,,,,,,,,,,,,,,,,,,,,,main,None,None,1,1.4956586999996944,740.5619697000002,None,None,1,,,,,,,,,,,,,,211,19,Male,2022-05-06_13h55.16.288,Main,2022.1.1,59.987642545598604,
negative,red,2,None,None,,,,,,,,,0,210,210,210,,,,,,,,,,,,,,,,,,,,,,,,,,,,,,,,,,,,,main,None,None,1,1.4948875000000044,743.0605347999999,None,None,1,,,,,,,,,,,,,,211,19,Male,2022-05-06_13h55.16.288,Main,2022.1.1,59.987642545598604,
negative,blue,1,None,k,,,,,,,,,0,211,211,211,,,,,,,,,,,,,,,,,,,,,,,,,,,,,,,,,,,,,main,k,k,1,1.0256054999999833,745.5560052000001,None,None,0,,,,,,,,,,,,,,211,19,Male,2022-05-06_13h55.16.288,Main,2022.1.1,59.987642545598604,
negative,yellow,1,k,None,,,,,,,,,0,212,212,212,,,,,,,,,,,,,,,,,,,,,,,,,,,,,,,,,,,,,main,None,None,1,1.508121700000629,747.5848965000005,None,None,1,,,,,,,,,,,,,,211,19,Male,2022-05-06_13h55.16.288,Main,2022.1.1,59.987642545598604,
positive,blue,1,k,None,,,,,,,,,0,213,213,213,,,,,,,,,,,,,,,,,,,,,,,,,,,,,,,,,,,,,main,None,None,1,1.5056606999996802,750.0933450000002,None,None,1,,,,,,,,,,,,,,211,19,Male,2022-05-06_13h55.16.288,Main,2022.1.1,59.987642545598604,
positive,blue,1,k,None,,,,,,,,,0,214,214,214,,,,,,,,,,,,,,,,,,,,,,,,,,,,,,,,,,,,,main,None,None,1,1.507667799999581,752.5988891000006,None,None,1,,,,,,,,,,,,,,211,19,Male,2022-05-06_13h55.16.288,Main,2022.1.1,59.987642545598604,
positive,yellow,1,None,k,,,,,,,,,0,215,215,215,,,,,,,,,,,,,,,,,,,,,,,,,,,,,,,,,,,,,main,k,k,1,1.0487842000002274,755.1098609000001,None,None,0,,,,,,,,,,,,,,211,19,Male,2022-05-06_13h55.16.288,Main,2022.1.1,59.987642545598604,
positive,yellow,1,None,k,,,,,,,,,0,216,216,216,,,,,,,,,,,,,,,,,,,,,,,,,,,,,,,,,,,,,main,k,k,1,1.0290019999993092,757.1599097000008,None,None,0,,,,,,,,,,,,,,211,19,Male,2022-05-06_13h55.16.288,Main,2022.1.1,59.987642545598604,
positive,yellow,2,None,k,,,,,,,,,0,217,217,217,,,,,,,,,,,,,,,,,,,,,,,,,,,,,,,,,,,,,main,k,k,1,0.7350199000002249,759.1906279000004,None,None,0,,,,,,,,,,,,,,211,19,Male,2022-05-06_13h55.16.288,Main,2022.1.1,59.987642545598604,
negative,blue,1,None,k,,,,,,,,,0,218,218,218,,,,,,,,,,,,,,,,,,,,,,,,,,,,,,,,,,,,,main,k,k,1,1.2250786000004155,760.9266446000001,None,None,0,,,,,,,,,,,,,,211,19,Male,2022-05-06_13h55.16.288,Main,2022.1.1,59.987642545598604,
positive,red,2,None,None,,,,,,,,,0,219,219,219,,,,,,,,,,,,,,,,,,,,,,,,,,,,,,,,,,,,,main,None,None,1,1.4954987999999503,763.1546951,None,None,1,,,,,,,,,,,,,,211,19,Male,2022-05-06_13h55.16.288,Main,2022.1.1,59.987642545598604,
positive,yellow,1,None,k,,,,,,,,,0,220,220,220,,,,,,,,,,,,,,,,,,,,,,,,,,,,,,,,,,,,,main,k,k,1,0.6680999000000156,765.6513199999999,None,None,0,,,,,,,,,,,,,,211,19,Male,2022-05-06_13h55.16.288,Main,2022.1.1,59.987642545598604,
positive,blue,1,k,None,,,,,,,,,0,221,221,221,,,,,,,,,,,,,,,,,,,,,,,,,,,,,,,,,,,,,main,None,None,1,1.5134302000005846,767.3217874000002,None,None,1,,,,,,,,,,,,,,211,19,Male,2022-05-06_13h55.16.288,Main,2022.1.1,59.987642545598604,
positive,yellow,2,None,k,,,,,,,,,0,222,222,222,,,,,,,,,,,,,,,,,,,,,,,,,,,,,,,,,,,,,main,k,k,1,0.8653801000000385,769.8355870000005,None,None,0,,,,,,,,,,,,,,211,19,Male,2022-05-06_13h55.16.288,Main,2022.1.1,59.987642545598604,
negative,yellow,1,k,None,,,,,,,,,0,223,223,223,,,,,,,,,,,,,,,,,,,,,,,,,,,,,,,,,,,,,main,None,None,1,1.4992867999999362,771.7038906000007,None,None,1,,,,,,,,,,,,,,211,19,Male,2022-05-06_13h55.16.288,Main,2022.1.1,59.987642545598604,
positive,yellow,2,None,k,,,,,,,,,0,224,224,224,,,,,,,,,,,,,,,,,,,,,,,,,,,,,,,,,,,,,main,k,k,1,0.8172578000003341,774.2041536000006,None,None,0,,,,,,,,,,,,,,211,19,Male,2022-05-06_13h55.16.288,Main,2022.1.1,59.987642545598604,
negative,yellow,2,k,None,,,,,,,,,0,225,225,225,,,,,,,,,,,,,,,,,,,,,,,,,,,,,,,,,,,,,main,None,None,1,1.5022666000004392,776.0227255,None,None,1,,,,,,,,,,,,,,211,19,Male,2022-05-06_13h55.16.288,Main,2022.1.1,59.987642545598604,
negative,blue,2,None,k,,,,,,,,,0,226,226,226,,,,,,,,,,,,,,,,,,,,,,,,,,,,,,,,,,,,,main,k,k,1,0.8740133000001151,778.5254975000007,None,None,0,,,,,,,,,,,,,,211,19,Male,2022-05-06_13h55.16.288,Main,2022.1.1,59.987642545598604,
positive,red,2,None,None,,,,,,,,,0,227,227,227,,,,,,,,,,,,,,,,,,,,,,,,,,,,,,,,,,,,,main,None,None,1,1.5096942000000126,780.4038792000001,None,None,1,,,,,,,,,,,,,,211,19,Male,2022-05-06_13h55.16.288,Main,2022.1.1,59.987642545598604,
positive,blue,2,k,None,,,,,,,,,0,228,228,228,,,,,,,,,,,,,,,,,,,,,,,,,,,,,,,,,,,,,main,None,None,1,1.498496399999567,782.9113740000003,None,None,1,,,,,,,,,,,,,,211,19,Male,2022-05-06_13h55.16.288,Main,2022.1.1,59.987642545598604,
negative,blue,1,None,k,,,,,,,,,0,229,229,229,,,,,,,,,,,,,,,,,,,,,,,,,,,,,,,,,,,,,main,k,k,1,0.6341646000000765,785.4112256000008,None,None,0,,,,,,,,,,,,,,211,19,Male,2022-05-06_13h55.16.288,Main,2022.1.1,59.987642545598604,
positive,yellow,1,None,k,,,,,,,,,0,230,230,230,,,,,,,,,,,,,,,,,,,,,,,,,,,,,,,,,,,,,main,k,k,1,1.0292440000002898,787.0495509000002,None,None,0,,,,,,,,,,,,,,211,19,Male,2022-05-06_13h55.16.288,Main,2022.1.1,59.987642545598604,
negative,blue,2,None,k,,,,,,,,,0,231,231,231,,,,,,,,,,,,,,,,,,,,,,,,,,,,,,,,,,,,,main,k,k,1,0.6673289999998815,789.0776622000003,None,None,0,,,,,,,,,,,,,,211,19,Male,2022-05-06_13h55.16.288,Main,2022.1.1,59.987642545598604,
negative,red,1,None,None,,,,,,,,,0,232,232,232,,,,,,,,,,,,,,,,,,,,,,,,,,,,,,,,,,,,,main,None,None,1,1.4968243000002985,790.7489417000006,None,None,1,,,,,,,,,,,,,,211,19,Male,2022-05-06_13h55.16.288,Main,2022.1.1,59.987642545598604,
positive,blue,2,k,None,,,,,,,,,0,233,233,233,,,,,,,,,,,,,,,,,,,,,,,,,,,,,,,,,,,,,main,None,None,1,1.5074353999998493,793.2469747000005,None,None,1,,,,,,,,,,,,,,211,19,Male,2022-05-06_13h55.16.288,Main,2022.1.1,59.987642545598604,
negative,yellow,1,k,None,,,,,,,,,0,234,234,234,,,,,,,,,,,,,,,,,,,,,,,,,,,,,,,,,,,,,main,None,None,1,1.4977845999992496,795.7553836000006,None,None,1,,,,,,,,,,,,,,211,19,Male,2022-05-06_13h55.16.288,Main,2022.1.1,59.987642545598604,
negative,yellow,2,k,None,,,,,,,,,0,235,235,235,,,,,,,,,,,,,,,,,,,,,,,,,,,,,,,,,,,,,main,None,None,1,1.4952462999999625,798.2539126000001,None,None,1,,,,,,,,,,,,,,211,19,Male,2022-05-06_13h55.16.288,Main,2022.1.1,59.987642545598604,
positive,red,1,None,None,,,,,,,,,0,236,236,236,,,,,,,,,,,,,,,,,,,,,,,,,,,,,,,,,,,,,main,None,None,1,1.5116752000003544,800.7522712,None,None,1,,,,,,,,,,,,,,211,19,Male,2022-05-06_13h55.16.288,Main,2022.1.1,59.987642545598604,
negative,red,2,None,None,,,,,,,,,0,237,237,237,,,,,,,,,,,,,,,,,,,,,,,,,,,,,,,,,,,,,main,None,None,1,1.5097204999992755,803.2653713,None,None,1,,,,,,,,,,,,,,211,19,Male,2022-05-06_13h55.16.288,Main,2022.1.1,59.987642545598604,
negative,blue,1,None,k,,,,,,,,,0,238,238,238,,,,,,,,,,,,,,,,,,,,,,,,,,,,,,,,,,,,,main,k,k,1,0.8472431000000142,805.7743239000001,None,None,0,,,,,,,,,,,,,,211,19,Male,2022-05-06_13h55.16.288,Main,2022.1.1,59.987642545598604,
positive,blue,1,k,None,,,,,,,,,0,239,239,239,,,,,,,,,,,,,,,,,,,,,,,,,,,,,,,,,,,,,main,None,None,1,1.5108667000004061,807.6243433,None,None,1,,,,,,,,,,,,,,211,19,Male,2022-05-06_13h55.16.288,Main,2022.1.1,59.987642545598604,
,,,,,,,,,,,,,,,,,,,,,,,,,,,,,,,,,,,,,,,,,,,,,,,,,,,,,,,,,,,,,,,,,,,,,,,,,810.1277086999999,None,,,,,,,,
