distractor,target,set,ans1,ans2,rep_loop4.thisRepN,rep_loop4.thisTrialN,rep_loop4.thisN,rep_loop4.thisIndex,st2_prac_loop.thisRepN,st2_prac_loop.thisTrialN,st2_prac_loop.thisN,st2_prac_loop.thisIndex,st2_main_loop.thisRepN,st2_main_loop.thisTrialN,st2_main_loop.thisN,st2_main_loop.thisIndex,image_4.started,image_4.stopped,mouse_7.x,mouse_7.y,mouse_7.leftButton,mouse_7.midButton,mouse_7.rightButton,sound_2.started,sound_2.stopped,key_resp_3.keys,mouse_5.x,mouse_5.y,mouse_5.leftButton,mouse_5.midButton,mouse_5.rightButton,mouse_5.started,mouse_5.stopped,yes_text2.started,yes_text2.stopped,no_text2.started,no_text2.stopped,mouse_3.x,mouse_3.y,mouse_3.leftButton,mouse_3.midButton,mouse_3.rightButton,mouse_3.started,mouse_3.stopped,st_prac_back.started,st_prac_back.stopped,st_prac_text.started,st_prac_text.stopped,st_fix_back.started,st_fix_back.stopped,st_fix_2.started,st_fix_2.stopped,main_prac,st_ans,st_res,st_corr,st_rt,st_back.started,st_back.stopped,st2_resp.keys,st2_resp.corr,st_main_back.started,st_main_back.stopped,st_main_text.started,st_main_text.stopped,mouse_4.x,mouse_4.y,mouse_4.leftButton,mouse_4.midButton,mouse_4.rightButton,mouse_4.started,mouse_4.stopped,text_2.started,text_2.stopped,id*,age*,gender*,date,expName,psychopyVersion,frameRate,
,,,,,,,,,,,,,,,,,40.66436520000025,None,0.6148148,-0.31203705,0,0,0,,,,,,,,,,,,,,,,,,,,,,,,,,,,,,,,,,,,,,,,,,,,,,,,,,,,212,23,Female,2022-05-06_15h29.27.515,Main,2022.1.1,59.97059042279817,
negative,yellow,1,k,None,,,,,0,0,0,0,,,,,,,,,,,,46.48380054999925,None,None,0.24259259,-0.39814815,0,0,0,1.000400199998694,None,101.95993819999967,None,101.95993819999967,None,-0.09259259,-0.08425926,0,0,0,0.012961349999386584,None,105.44728369999939,None,105.44728369999939,None,107.4601537999988,None,107.4601537999988,None,prac,k,k,1,2.920347400000537,109.47374200000013,None,None,0,,,,,,,,,,,,,,212,23,Female,2022-05-06_15h29.27.515,Main,2022.1.1,59.97059042279817,
positive,red,2,None,None,,,,,0,1,1,1,,,,,,,,,,,,,,,,,,,,,,,,,,,,,,,,,,,,,,,,,prac,None,None,1,1.5065356000013708,114.41055309999865,None,None,1,,,,,,,,,,,,,,212,23,Female,2022-05-06_15h29.27.515,Main,2022.1.1,59.97059042279817,
negative,blue,2,None,k,,,,,0,2,2,2,,,,,,,,,,,,,,,,,,,,,,,,,,,,,,,,,,,,,,,,,prac,None,None,1,1.5062567000004492,116.91889679999986,None,None,1,,,,,,,,,,,,,,212,23,Female,2022-05-06_15h29.27.515,Main,2022.1.1,59.97059042279817,
positive,yellow,1,None,k,,,,,0,3,3,3,,,,,,,,,,,,,,,,,,,,,,,,,,,,,,,,,,,,,,,,,prac,None,None,1,1.5065248999999312,119.42680819999987,None,None,1,,,,,,,,,,,,,,212,23,Female,2022-05-06_15h29.27.515,Main,2022.1.1,59.97059042279817,
negative,blue,2,None,k,,,,,0,4,4,4,,,,,,,,,,,,,,,,,,,,,,,,,,,,,,,,,,,,,,,,,prac,None,None,1,1.5071353000003,121.93419989999893,None,None,1,,,,,,,,,,,,,,212,23,Female,2022-05-06_15h29.27.515,Main,2022.1.1,59.97059042279817,
negative,blue,1,None,k,,,,,0,5,5,5,,,,,,,,,,,,,,,,,,,,,,,,,,,,,,,,,,,,,,,,,prac,None,None,1,1.513929200000348,124.44403839999904,None,None,1,,,,,,,,,,,,,,212,23,Female,2022-05-06_15h29.27.515,Main,2022.1.1,59.97059042279817,
negative,yellow,2,k,None,,,,,0,6,6,6,,,,,,,,,,,,,,,,,,,,,,,,,,,,,,,,,,,,,,,,,prac,k,k,1,1.5243622999987565,126.9572060999999,None,None,0,,,,,,,,,,,,,,212,23,Female,2022-05-06_15h29.27.515,Main,2022.1.1,59.97059042279817,
negative,red,1,None,None,,,,,0,7,7,7,,,,,,,,,,,,,,,,,,,,,,,,,,,,,,,,,,,,,,,,,prac,None,None,1,1.4936197999995784,130.49154649999946,None,None,1,,,,,,,,,,,,,,212,23,Female,2022-05-06_15h29.27.515,Main,2022.1.1,59.97059042279817,
positive,yellow,2,None,k,,,,,0,8,8,8,,,,,,,,,,,,,,,,,,,,,,,,,,,,,,,,,,,,,,,,,prac,None,None,1,1.5052594000007957,132.98686689999886,None,None,1,,,,,,,,,,,,,,212,23,Female,2022-05-06_15h29.27.515,Main,2022.1.1,59.97059042279817,
negative,yellow,1,k,None,,,,,0,9,9,9,,,,,,,,,,,,,,,,,,,,,,,,,,,,,,,,,,,,,,,,,prac,k,k,1,0.8391176000004634,135.49722199999997,None,None,0,,,,,,,,,,,,,,212,23,Female,2022-05-06_15h29.27.515,Main,2022.1.1,59.97059042279817,
positive,yellow,2,None,k,,,,,0,10,10,10,,,,,,,,,,,,,,,,,,,,,,,,,,,,,,,,,,,,,,,,,prac,None,None,1,1.5055548000000272,137.3411316999991,None,None,1,,,,,,,,,,,,,,212,23,Female,2022-05-06_15h29.27.515,Main,2022.1.1,59.97059042279817,
negative,yellow,2,k,None,,,,,0,11,11,11,,,,,,,,,,,,,,,,,,,,,,,,,,,,,,,,,,,,,,,,,prac,k,k,1,0.9453088999998727,139.84548770000038,None,None,0,,,,,,,,,,,,,,212,23,Female,2022-05-06_15h29.27.515,Main,2022.1.1,59.97059042279817,
negative,red,2,None,None,,,,,0,12,12,12,,,,,,,,,,,,,,,,,,,,,,,,,,,,,,,,,,,,,,,,,prac,None,None,1,1.512668700001086,141.79371079999873,None,None,1,,,,,,,,,,,,,,212,23,Female,2022-05-06_15h29.27.515,Main,2022.1.1,59.97059042279817,
positive,red,1,None,None,,,,,0,13,13,13,,,,,,,,,,,,,,,,,,,,,,,,,,,,,,,,,,,,,,,,,prac,None,None,1,1.4947830999990401,144.3048428000002,None,None,1,,,,,,,,,,,,,,212,23,Female,2022-05-06_15h29.27.515,Main,2022.1.1,59.97059042279817,
positive,blue,2,k,None,,,,,0,14,14,14,,,,,,,,,,,,,,,,,,,,,,,,,,,,,,,,,,,,,,,,,prac,k,k,1,0.8653644000005443,146.80268269999942,None,None,0,,,,,,,,,,,,,,212,23,Female,2022-05-06_15h29.27.515,Main,2022.1.1,59.97059042279817,
positive,blue,1,k,None,,,,,0,15,15,15,,,,,,,,,,,,,,,,,,,,,,,,,,,,,,,,,,,,,,,,,prac,k,k,1,4.022221199998967,148.6730975999999,None,None,0,,,,,,,,,,,,,,212,23,Female,2022-05-06_15h29.27.515,Main,2022.1.1,59.97059042279817,
negative,blue,1,None,k,,,,,0,16,16,16,,,,,,,,,,,,,,,,,,,,,,,,,,,,,,,,,,,,,,,,,prac,None,None,1,1.4912652000002709,154.70516959999986,None,None,1,,,,,,,,,,,,,,212,23,Female,2022-05-06_15h29.27.515,Main,2022.1.1,59.97059042279817,
positive,blue,2,k,None,,,,,0,17,17,17,,,,,,,,,,,,,,,,,,,,,,,,,,,,,,,,,,,,,,,,,prac,k,k,1,0.9469762999997329,157.19863929999883,None,None,0,,,,,,,,,,,,,,212,23,Female,2022-05-06_15h29.27.515,Main,2022.1.1,59.97059042279817,
positive,blue,1,k,None,,,,,0,18,18,18,,,,,,,,,,,,,,,,,,,,,,,,,,,,,,,,,,,,,,,,,prac,k,k,1,1.1579782999997406,159.14713269999993,None,None,0,,,,,,,,,,,,,,212,23,Female,2022-05-06_15h29.27.515,Main,2022.1.1,59.97059042279817,
positive,yellow,1,None,k,,,,,0,19,19,19,,,,,,,,,,,,,,,,,,,,,,,,,,,,,,,,,,,,,,,,,prac,None,None,1,1.509467299998505,161.30709229999957,None,None,1,,,,,,,,,,,,,,212,23,Female,2022-05-06_15h29.27.515,Main,2022.1.1,59.97059042279817,
negative,yellow,1,k,None,,,,,1,0,20,0,,,,,,,,,,,,,,,,,,,,,,,,,,,,,,,,,,,,,,,,,prac,k,k,1,0.9291018999992957,163.81772569999885,None,None,0,,,,,,,,,,,,,,212,23,Female,2022-05-06_15h29.27.515,Main,2022.1.1,59.97059042279817,
positive,red,2,None,None,,,,,1,1,21,1,,,,,,,,,,,,,,,,,,,,,,,,,,,,,,,,,,,,,,,,,prac,None,None,1,1.4994239000006928,165.7549659999986,None,None,1,,,,,,,,,,,,,,212,23,Female,2022-05-06_15h29.27.515,Main,2022.1.1,59.97059042279817,
negative,blue,2,None,k,,,,,1,2,22,2,,,,,,,,,,,,,,,,,,,,,,,,,,,,,,,,,,,,,,,,,prac,None,None,1,1.5044515999998112,168.25064620000012,None,None,1,,,,,,,,,,,,,,212,23,Female,2022-05-06_15h29.27.515,Main,2022.1.1,59.97059042279817,
positive,yellow,1,None,k,,,,,1,3,23,3,,,,,,,,,,,,,,,,,,,,,,,,,,,,,,,,,,,,,,,,,prac,None,None,1,1.498160299999654,170.75904609999998,None,None,1,,,,,,,,,,,,,,212,23,Female,2022-05-06_15h29.27.515,Main,2022.1.1,59.97059042279817,
negative,blue,2,None,k,,,,,1,4,24,4,,,,,,,,,,,,,,,,,,,,,,,,,,,,,,,,,,,,,,,,,prac,None,None,1,1.5062127000001055,173.25943519999964,None,None,1,,,,,,,,,,,,,,212,23,Female,2022-05-06_15h29.27.515,Main,2022.1.1,59.97059042279817,
negative,blue,1,None,k,,,,,1,5,25,5,,,,,,,,,,,,,,,,,,,,,,,,,,,,,,,,,,,,,,,,,prac,None,None,1,1.5089883000000555,175.76616099999956,None,None,1,,,,,,,,,,,,,,212,23,Female,2022-05-06_15h29.27.515,Main,2022.1.1,59.97059042279817,
negative,yellow,2,k,None,,,,,1,6,26,6,,,,,,,,,,,,,,,,,,,,,,,,,,,,,,,,,,,,,,,,,prac,k,k,1,0.7516847999995662,178.27797159999864,None,None,0,,,,,,,,,,,,,,212,23,Female,2022-05-06_15h29.27.515,Main,2022.1.1,59.97059042279817,
negative,red,1,None,None,,,,,1,7,27,7,,,,,,,,,,,,,,,,,,,,,,,,,,,,,,,,,,,,,,,,,prac,None,None,1,1.497793599999568,180.0351310999995,None,None,1,,,,,,,,,,,,,,212,23,Female,2022-05-06_15h29.27.515,Main,2022.1.1,59.97059042279817,
positive,yellow,2,None,k,,,,,1,8,28,8,,,,,,,,,,,,,,,,,,,,,,,,,,,,,,,,,,,,,,,,,prac,None,None,1,1.4999617999983457,182.53139089999968,None,None,1,,,,,,,,,,,,,,212,23,Female,2022-05-06_15h29.27.515,Main,2022.1.1,59.97059042279817,
negative,yellow,1,k,None,,,,,1,9,29,9,,,,,,,,,,,,,,,,,,,,,,,,,,,,,,,,,,,,,,,,,prac,k,k,1,1.0641685999999027,185.0338120999986,None,None,0,,,,,,,,,,,,,,212,23,Female,2022-05-06_15h29.27.515,Main,2022.1.1,59.97059042279817,
positive,yellow,2,None,k,,,,,1,10,30,10,,,,,,,,,,,,,,,,,,,,,,,,,,,,,,,,,,,,,,,,,prac,None,None,1,1.5057071999999607,187.10154499999953,None,None,1,,,,,,,,,,,,,,212,23,Female,2022-05-06_15h29.27.515,Main,2022.1.1,59.97059042279817,
negative,yellow,2,k,None,,,,,1,11,31,11,,,,,,,,,,,,,,,,,,,,,,,,,,,,,,,,,,,,,,,,,prac,k,k,1,0.9203479999996489,189.6082166999986,None,None,0,,,,,,,,,,,,,,212,23,Female,2022-05-06_15h29.27.515,Main,2022.1.1,59.97059042279817,
negative,red,2,None,None,,,,,1,12,32,12,,,,,,,,,,,,,,,,,,,,,,,,,,,,,,,,,,,,,,,,,prac,None,None,1,1.515524300000834,191.53339349999987,None,None,1,,,,,,,,,,,,,,212,23,Female,2022-05-06_15h29.27.515,Main,2022.1.1,59.97059042279817,
positive,red,1,None,None,,,,,1,13,33,13,,,,,,,,,,,,,,,,,,,,,,,,,,,,,,,,,,,,,,,,,prac,None,None,1,1.4983836000010342,194.04808579999917,None,None,1,,,,,,,,,,,,,,212,23,Female,2022-05-06_15h29.27.515,Main,2022.1.1,59.97059042279817,
positive,blue,2,k,None,,,,,1,14,34,14,,,,,,,,,,,,,,,,,,,,,,,,,,,,,,,,,,,,,,,,,prac,k,k,1,0.6964577999988251,196.5481908999991,None,None,0,,,,,,,,,,,,,,212,23,Female,2022-05-06_15h29.27.515,Main,2022.1.1,59.97059042279817,
positive,blue,1,k,None,,,,,1,15,35,15,,,,,,,,,,,,,,,,,,,,,,,,,,,,,,,,,,,,,,,,,prac,k,k,1,1.7439297000000806,198.25011259999883,None,None,0,,,,,,,,,,,,,,212,23,Female,2022-05-06_15h29.27.515,Main,2022.1.1,59.97059042279817,
negative,blue,1,None,k,,,,,1,16,36,16,,,,,,,,,,,,,,,,,,,,,,,,,,,,,,,,,,,,,,,,,prac,None,None,1,1.4988387000012153,201.99904640000022,None,None,1,,,,,,,,,,,,,,212,23,Female,2022-05-06_15h29.27.515,Main,2022.1.1,59.97059042279817,
positive,blue,2,k,None,,,,,1,17,37,17,,,,,,,,,,,,,,,,,,,,,,,,,,,,,,,,,,,,,,,,,prac,k,k,1,1.0602481000005355,204.49983979999888,None,None,0,,,,,,,,,,,,,,212,23,Female,2022-05-06_15h29.27.515,Main,2022.1.1,59.97059042279817,
positive,blue,1,k,None,,,,,1,18,38,18,,,,,,,,,,,,,,,,,,,,,,,,,,,,,,,,,,,,,,,,,prac,k,k,1,1.1306229999991046,206.56525279999914,None,None,0,,,,,,,,,,,,,,212,23,Female,2022-05-06_15h29.27.515,Main,2022.1.1,59.97059042279817,
positive,yellow,1,None,k,,,,,1,19,39,19,,,,,,,,,,,,,,,,,,,,,,,,,,,,,,,,,,,,,,,,,prac,None,None,1,1.5026981000009982,208.698900899999,None,None,1,,,,,,,,,,,,,,212,23,Female,2022-05-06_15h29.27.515,Main,2022.1.1,59.97059042279817,
,,,,,,,,,,,,,,,,,,,,,,,,,,,,,,,,,,,,,,,,,,,,,,,,,,,,,,,,,,,,,,211.2164646000001,None,211.2164646000001,None,0.046296295,0.022222223,0,0,0,0.012019550000331947,None,,,212,23,Female,2022-05-06_15h29.27.515,Main,2022.1.1,59.97059042279817,
negative,yellow,2,k,None,,,,,,,,,0,0,0,0,,,,,,,,,,,,,,,,,,,,,,,,,,,,,,,,,213.00190680000014,None,213.00190680000014,None,main,k,k,1,1.089595500001451,215.05506330000026,None,None,0,,,,,,,,,,,,,,212,23,Female,2022-05-06_15h29.27.515,Main,2022.1.1,59.97059042279817,
positive,red,1,None,None,,,,,,,,,0,1,1,1,,,,,,,,,,,,,,,,,,,,,,,,,,,,,,,,,,,,,main,None,None,1,1.5046635999988212,217.14643869999963,None,None,1,,,,,,,,,,,,,,212,23,Female,2022-05-06_15h29.27.515,Main,2022.1.1,59.97059042279817,
positive,blue,2,k,None,,,,,,,,,0,2,2,2,,,,,,,,,,,,,,,,,,,,,,,,,,,,,,,,,,,,,main,k,k,1,0.6739460000007966,219.65690779999932,None,None,0,,,,,,,,,,,,,,212,23,Female,2022-05-06_15h29.27.515,Main,2022.1.1,59.97059042279817,
positive,blue,1,k,None,,,,,,,,,0,3,3,3,,,,,,,,,,,,,,,,,,,,,,,,,,,,,,,,,,,,,main,k,k,1,0.7504111000016565,221.3320881999989,None,None,0,,,,,,,,,,,,,,212,23,Female,2022-05-06_15h29.27.515,Main,2022.1.1,59.97059042279817,
negative,yellow,2,k,None,,,,,,,,,0,4,4,4,,,,,,,,,,,,,,,,,,,,,,,,,,,,,,,,,,,,,main,k,k,1,0.7639778000011574,223.08341759999894,None,None,0,,,,,,,,,,,,,,212,23,Female,2022-05-06_15h29.27.515,Main,2022.1.1,59.97059042279817,
positive,yellow,2,None,k,,,,,,,,,0,5,5,5,,,,,,,,,,,,,,,,,,,,,,,,,,,,,,,,,,,,,main,None,None,1,1.4962790999998106,224.84894580000037,None,None,1,,,,,,,,,,,,,,212,23,Female,2022-05-06_15h29.27.515,Main,2022.1.1,59.97059042279817,
negative,blue,2,None,k,,,,,,,,,0,6,6,6,,,,,,,,,,,,,,,,,,,,,,,,,,,,,,,,,,,,,main,None,None,1,1.499027500000011,227.34315590000006,None,None,1,,,,,,,,,,,,,,212,23,Female,2022-05-06_15h29.27.515,Main,2022.1.1,59.97059042279817,
positive,red,2,None,None,,,,,,,,,0,7,7,7,,,,,,,,,,,,,,,,,,,,,,,,,,,,,,,,,,,,,main,None,None,1,1.5093016999999236,229.84476919999906,None,None,1,,,,,,,,,,,,,,212,23,Female,2022-05-06_15h29.27.515,Main,2022.1.1,59.97059042279817,
positive,yellow,1,None,k,,,,,,,,,0,8,8,8,,,,,,,,,,,,,,,,,,,,,,,,,,,,,,,,,,,,,main,None,None,1,1.502244299999802,232.3579754000002,None,None,1,,,,,,,,,,,,,,212,23,Female,2022-05-06_15h29.27.515,Main,2022.1.1,59.97059042279817,
negative,red,1,None,None,,,,,,,,,0,9,9,9,,,,,,,,,,,,,,,,,,,,,,,,,,,,,,,,,,,,,main,None,None,1,1.5129549000012048,234.86037450000003,None,None,1,,,,,,,,,,,,,,212,23,Female,2022-05-06_15h29.27.515,Main,2022.1.1,59.97059042279817,
positive,yellow,1,None,k,,,,,,,,,0,10,10,10,,,,,,,,,,,,,,,,,,,,,,,,,,,,,,,,,,,,,main,None,None,1,1.5034304999990127,237.37516200000027,None,None,1,,,,,,,,,,,,,,212,23,Female,2022-05-06_15h29.27.515,Main,2022.1.1,59.97059042279817,
negative,yellow,1,k,None,,,,,,,,,0,11,11,11,,,,,,,,,,,,,,,,,,,,,,,,,,,,,,,,,,,,,main,k,k,1,1.0388000999992073,239.88290140000026,None,None,0,,,,,,,,,,,,,,212,23,Female,2022-05-06_15h29.27.515,Main,2022.1.1,59.97059042279817,
negative,yellow,1,k,None,,,,,,,,,0,12,12,12,,,,,,,,,,,,,,,,,,,,,,,,,,,,,,,,,,,,,main,k,k,1,0.6874830999986443,241.9229188999998,None,None,0,,,,,,,,,,,,,,212,23,Female,2022-05-06_15h29.27.515,Main,2022.1.1,59.97059042279817,
negative,red,2,None,None,,,,,,,,,0,13,13,13,,,,,,,,,,,,,,,,,,,,,,,,,,,,,,,,,,,,,main,None,None,1,1.5093003999991197,243.6102364999988,None,None,1,,,,,,,,,,,,,,212,23,Female,2022-05-06_15h29.27.515,Main,2022.1.1,59.97059042279817,
positive,yellow,2,None,k,,,,,,,,,0,14,14,14,,,,,,,,,,,,,,,,,,,,,,,,,,,,,,,,,,,,,main,None,None,1,1.495272300000579,246.12464509999882,None,None,1,,,,,,,,,,,,,,212,23,Female,2022-05-06_15h29.27.515,Main,2022.1.1,59.97059042279817,
positive,blue,1,k,None,,,,,,,,,0,15,15,15,,,,,,,,,,,,,,,,,,,,,,,,,,,,,,,,,,,,,main,k,k,1,0.8737216999998054,248.62162159999934,None,None,0,,,,,,,,,,,,,,212,23,Female,2022-05-06_15h29.27.515,Main,2022.1.1,59.97059042279817,
negative,blue,1,None,k,,,,,,,,,0,16,16,16,,,,,,,,,,,,,,,,,,,,,,,,,,,,,,,,,,,,,main,None,None,1,1.503399299999728,250.49934909999865,None,None,1,,,,,,,,,,,,,,212,23,Female,2022-05-06_15h29.27.515,Main,2022.1.1,59.97059042279817,
positive,blue,2,k,None,,,,,,,,,0,17,17,17,,,,,,,,,,,,,,,,,,,,,,,,,,,,,,,,,,,,,main,k,k,1,0.9437790999982099,253.004801699999,None,None,0,,,,,,,,,,,,,,212,23,Female,2022-05-06_15h29.27.515,Main,2022.1.1,59.97059042279817,
negative,blue,2,None,k,,,,,,,,,0,18,18,18,,,,,,,,,,,,,,,,,,,,,,,,,,,,,,,,,,,,,main,None,None,1,1.4940787000014097,254.95147410000027,None,None,1,,,,,,,,,,,,,,212,23,Female,2022-05-06_15h29.27.515,Main,2022.1.1,59.97059042279817,
negative,blue,1,None,k,,,,,,,,,0,19,19,19,,,,,,,,,,,,,,,,,,,,,,,,,,,,,,,,,,,,,main,None,None,1,1.5011069000011048,257.4472833,None,None,1,,,,,,,,,,,,,,212,23,Female,2022-05-06_15h29.27.515,Main,2022.1.1,59.97059042279817,
negative,blue,1,None,k,,,,,,,,,0,20,20,20,,,,,,,,,,,,,,,,,,,,,,,,,,,,,,,,,,,,,main,None,None,1,1.4966456000001926,259.94883130000017,None,None,1,,,,,,,,,,,,,,212,23,Female,2022-05-06_15h29.27.515,Main,2022.1.1,59.97059042279817,
negative,blue,2,None,k,,,,,,,,,0,21,21,21,,,,,,,,,,,,,,,,,,,,,,,,,,,,,,,,,,,,,main,None,None,1,1.5090665000006993,262.44701460000033,None,None,1,,,,,,,,,,,,,,212,23,Female,2022-05-06_15h29.27.515,Main,2022.1.1,59.97059042279817,
negative,red,1,None,None,,,,,,,,,0,22,22,22,,,,,,,,,,,,,,,,,,,,,,,,,,,,,,,,,,,,,main,None,None,1,1.5057852999998431,264.9556752999997,None,None,1,,,,,,,,,,,,,,212,23,Female,2022-05-06_15h29.27.515,Main,2022.1.1,59.97059042279817,
positive,red,2,None,None,,,,,,,,,0,23,23,23,,,,,,,,,,,,,,,,,,,,,,,,,,,,,,,,,,,,,main,None,None,1,1.5088990000003832,267.4697630999999,None,None,1,,,,,,,,,,,,,,212,23,Female,2022-05-06_15h29.27.515,Main,2022.1.1,59.97059042279817,
negative,red,2,None,None,,,,,,,,,0,24,24,24,,,,,,,,,,,,,,,,,,,,,,,,,,,,,,,,,,,,,main,None,None,1,1.507133099999919,269.9736904000001,None,None,1,,,,,,,,,,,,,,212,23,Female,2022-05-06_15h29.27.515,Main,2022.1.1,59.97059042279817,
positive,blue,2,k,None,,,,,,,,,0,25,25,25,,,,,,,,,,,,,,,,,,,,,,,,,,,,,,,,,,,,,main,k,k,1,1.0261128000001918,272.4835401,None,None,0,,,,,,,,,,,,,,212,23,Female,2022-05-06_15h29.27.515,Main,2022.1.1,59.97059042279817,
negative,yellow,1,k,None,,,,,,,,,0,26,26,26,,,,,,,,,,,,,,,,,,,,,,,,,,,,,,,,,,,,,main,k,k,1,0.9635257000009005,274.5128840999987,None,None,0,,,,,,,,,,,,,,212,23,Female,2022-05-06_15h29.27.515,Main,2022.1.1,59.97059042279817,
positive,blue,2,k,None,,,,,,,,,0,27,27,27,,,,,,,,,,,,,,,,,,,,,,,,,,,,,,,,,,,,,main,k,k,1,0.8319854999990639,276.4776568999987,None,None,0,,,,,,,,,,,,,,212,23,Female,2022-05-06_15h29.27.515,Main,2022.1.1,59.97059042279817,
negative,blue,2,None,k,,,,,,,,,0,28,28,28,,,,,,,,,,,,,,,,,,,,,,,,,,,,,,,,,,,,,main,None,None,1,1.497223300000769,278.3109738999992,None,None,1,,,,,,,,,,,,,,212,23,Female,2022-05-06_15h29.27.515,Main,2022.1.1,59.97059042279817,
positive,red,1,None,None,,,,,,,,,0,29,29,29,,,,,,,,,,,,,,,,,,,,,,,,,,,,,,,,,,,,,main,None,None,1,1.5063312999991467,280.8098537999995,None,None,1,,,,,,,,,,,,,,212,23,Female,2022-05-06_15h29.27.515,Main,2022.1.1,59.97059042279817,
positive,blue,1,k,None,,,,,,,,,0,30,30,30,,,,,,,,,,,,,,,,,,,,,,,,,,,,,,,,,,,,,main,k,k,1,0.6650432000005821,283.31739480000033,None,None,0,,,,,,,,,,,,,,212,23,Female,2022-05-06_15h29.27.515,Main,2022.1.1,59.97059042279817,
positive,yellow,1,None,k,,,,,,,,,0,31,31,31,,,,,,,,,,,,,,,,,,,,,,,,,,,,,,,,,,,,,main,None,None,1,1.5057343000007677,284.98521749999964,None,None,1,,,,,,,,,,,,,,212,23,Female,2022-05-06_15h29.27.515,Main,2022.1.1,59.97059042279817,
negative,yellow,2,k,None,,,,,,,,,0,32,32,32,,,,,,,,,,,,,,,,,,,,,,,,,,,,,,,,,,,,,main,k,k,1,0.9543119999998453,287.4942175999986,None,None,0,,,,,,,,,,,,,,212,23,Female,2022-05-06_15h29.27.515,Main,2022.1.1,59.97059042279817,
negative,blue,1,None,k,,,,,,,,,0,33,33,33,,,,,,,,,,,,,,,,,,,,,,,,,,,,,,,,,,,,,main,None,None,1,1.499868200000492,289.4496275999991,None,None,1,,,,,,,,,,,,,,212,23,Female,2022-05-06_15h29.27.515,Main,2022.1.1,59.97059042279817,
positive,blue,1,k,None,,,,,,,,,0,34,34,34,,,,,,,,,,,,,,,,,,,,,,,,,,,,,,,,,,,,,main,k,k,1,0.7170647000002646,291.9517175000001,None,None,0,,,,,,,,,,,,,,212,23,Female,2022-05-06_15h29.27.515,Main,2022.1.1,59.97059042279817,
negative,yellow,1,k,None,,,,,,,,,0,35,35,35,,,,,,,,,,,,,,,,,,,,,,,,,,,,,,,,,,,,,main,k,k,1,0.8555892999993375,293.6723340999997,None,None,0,,,,,,,,,,,,,,212,23,Female,2022-05-06_15h29.27.515,Main,2022.1.1,59.97059042279817,
positive,yellow,2,None,k,,,,,,,,,0,36,36,36,,,,,,,,,,,,,,,,,,,,,,,,,,,,,,,,,,,,,main,None,None,1,1.494964900000923,295.5297118999988,None,None,1,,,,,,,,,,,,,,212,23,Female,2022-05-06_15h29.27.515,Main,2022.1.1,59.97059042279817,
positive,yellow,2,None,k,,,,,,,,,0,37,37,37,,,,,,,,,,,,,,,,,,,,,,,,,,,,,,,,,,,,,main,None,None,1,1.5048588999998174,298.0260952999997,None,None,1,,,,,,,,,,,,,,212,23,Female,2022-05-06_15h29.27.515,Main,2022.1.1,59.97059042279817,
negative,yellow,2,k,None,,,,,,,,,0,38,38,38,,,,,,,,,,,,,,,,,,,,,,,,,,,,,,,,,,,,,main,k,k,1,0.7896426999996038,300.5318686999999,None,None,0,,,,,,,,,,,,,,212,23,Female,2022-05-06_15h29.27.515,Main,2022.1.1,59.97059042279817,
positive,yellow,1,None,k,,,,,,,,,0,39,39,39,,,,,,,,,,,,,,,,,,,,,,,,,,,,,,,,,,,,,main,None,None,1,1.50421710000046,302.3263079999997,None,None,1,,,,,,,,,,,,,,212,23,Female,2022-05-06_15h29.27.515,Main,2022.1.1,59.97059042279817,
negative,yellow,2,k,None,,,,,,,,,0,40,40,40,,,,,,,,,,,,,,,,,,,,,,,,,,,,,,,,,,,,,main,k,k,1,0.8581130000002304,304.8312307999986,None,None,0,,,,,,,,,,,,,,212,23,Female,2022-05-06_15h29.27.515,Main,2022.1.1,59.97059042279817,
positive,blue,2,k,None,,,,,,,,,0,41,41,41,,,,,,,,,,,,,,,,,,,,,,,,,,,,,,,,,,,,,main,k,k,1,0.9484808999986853,306.69321879999916,None,None,0,,,,,,,,,,,,,,212,23,Female,2022-05-06_15h29.27.515,Main,2022.1.1,59.97059042279817,
positive,blue,2,k,None,,,,,,,,,0,42,42,42,,,,,,,,,,,,,,,,,,,,,,,,,,,,,,,,,,,,,main,k,k,1,0.7294311000005109,308.64254299999993,None,None,0,,,,,,,,,,,,,,212,23,Female,2022-05-06_15h29.27.515,Main,2022.1.1,59.97059042279817,
negative,blue,2,None,k,,,,,,,,,0,43,43,43,,,,,,,,,,,,,,,,,,,,,,,,,,,,,,,,,,,,,main,None,None,1,1.504888999999821,310.3746687999992,None,None,1,,,,,,,,,,,,,,212,23,Female,2022-05-06_15h29.27.515,Main,2022.1.1,59.97059042279817,
negative,red,1,None,None,,,,,,,,,0,44,44,44,,,,,,,,,,,,,,,,,,,,,,,,,,,,,,,,,,,,,main,None,None,1,1.5152623000012682,312.8823262999995,None,None,1,,,,,,,,,,,,,,212,23,Female,2022-05-06_15h29.27.515,Main,2022.1.1,59.97059042279817,
negative,yellow,1,k,None,,,,,,,,,0,45,45,45,,,,,,,,,,,,,,,,,,,,,,,,,,,,,,,,,,,,,main,k,k,1,0.7487220000002708,315.3993596,None,None,0,,,,,,,,,,,,,,212,23,Female,2022-05-06_15h29.27.515,Main,2022.1.1,59.97059042279817,
negative,yellow,1,k,None,,,,,,,,,0,46,46,46,,,,,,,,,,,,,,,,,,,,,,,,,,,,,,,,,,,,,main,k,k,1,0.8604000999985146,317.1489881999987,None,None,0,,,,,,,,,,,,,,212,23,Female,2022-05-06_15h29.27.515,Main,2022.1.1,59.97059042279817,
positive,red,1,None,None,,,,,,,,,0,47,47,47,,,,,,,,,,,,,,,,,,,,,,,,,,,,,,,,,,,,,main,None,None,1,1.5069135000012466,319.01414999999906,None,None,1,,,,,,,,,,,,,,212,23,Female,2022-05-06_15h29.27.515,Main,2022.1.1,59.97059042279817,
positive,yellow,1,None,k,,,,,,,,,0,48,48,48,,,,,,,,,,,,,,,,,,,,,,,,,,,,,,,,,,,,,main,None,None,1,1.4974912000016047,321.5236460999986,None,None,1,,,,,,,,,,,,,,212,23,Female,2022-05-06_15h29.27.515,Main,2022.1.1,59.97059042279817,
negative,blue,1,None,k,,,,,,,,,0,49,49,49,,,,,,,,,,,,,,,,,,,,,,,,,,,,,,,,,,,,,main,None,None,1,1.508928900000683,324.02366979999897,None,None,1,,,,,,,,,,,,,,212,23,Female,2022-05-06_15h29.27.515,Main,2022.1.1,59.97059042279817,
positive,yellow,2,None,k,,,,,,,,,0,50,50,50,,,,,,,,,,,,,,,,,,,,,,,,,,,,,,,,,,,,,main,None,None,1,1.5058824000007007,326.5302759999995,None,None,1,,,,,,,,,,,,,,212,23,Female,2022-05-06_15h29.27.515,Main,2022.1.1,59.97059042279817,
negative,blue,1,None,k,,,,,,,,,0,51,51,51,,,,,,,,,,,,,,,,,,,,,,,,,,,,,,,,,,,,,main,None,None,1,1.4997038999990764,329.04084650000004,None,None,1,,,,,,,,,,,,,,212,23,Female,2022-05-06_15h29.27.515,Main,2022.1.1,59.97059042279817,
positive,red,2,None,None,,,,,,,,,0,52,52,52,,,,,,,,,,,,,,,,,,,,,,,,,,,,,,,,,,,,,main,None,None,1,1.5090321999996377,331.54138429999875,None,None,1,,,,,,,,,,,,,,212,23,Female,2022-05-06_15h29.27.515,Main,2022.1.1,59.97059042279817,
positive,yellow,2,None,k,,,,,,,,,0,53,53,53,,,,,,,,,,,,,,,,,,,,,,,,,,,,,,,,,,,,,main,None,None,1,1.5021562999991147,334.05253059999995,None,None,1,,,,,,,,,,,,,,212,23,Female,2022-05-06_15h29.27.515,Main,2022.1.1,59.97059042279817,
negative,red,2,None,None,,,,,,,,,0,54,54,54,,,,,,,,,,,,,,,,,,,,,,,,,,,,,,,,,,,,,main,None,None,1,1.508708299999853,336.5556454999987,None,None,1,,,,,,,,,,,,,,212,23,Female,2022-05-06_15h29.27.515,Main,2022.1.1,59.97059042279817,
positive,yellow,1,None,k,,,,,,,,,0,55,55,55,,,,,,,,,,,,,,,,,,,,,,,,,,,,,,,,,,,,,main,None,None,1,1.5099323999984335,339.06626849999884,None,None,1,,,,,,,,,,,,,,212,23,Female,2022-05-06_15h29.27.515,Main,2022.1.1,59.97059042279817,
negative,blue,2,None,k,,,,,,,,,0,56,56,56,,,,,,,,,,,,,,,,,,,,,,,,,,,,,,,,,,,,,main,None,None,1,1.5075278999993316,341.5772724999988,None,None,1,,,,,,,,,,,,,,212,23,Female,2022-05-06_15h29.27.515,Main,2022.1.1,59.97059042279817,
positive,blue,1,k,None,,,,,,,,,0,57,57,57,,,,,,,,,,,,,,,,,,,,,,,,,,,,,,,,,,,,,main,k,k,1,0.9272469000006822,344.0885182000002,None,None,0,,,,,,,,,,,,,,212,23,Female,2022-05-06_15h29.27.515,Main,2022.1.1,59.97059042279817,
positive,blue,1,k,None,,,,,,,,,0,58,58,58,,,,,,,,,,,,,,,,,,,,,,,,,,,,,,,,,,,,,main,k,k,1,0.9511361999993824,346.017984099999,None,None,0,,,,,,,,,,,,,,212,23,Female,2022-05-06_15h29.27.515,Main,2022.1.1,59.97059042279817,
negative,yellow,2,k,None,,,,,,,,,0,59,59,59,,,,,,,,,,,,,,,,,,,,,,,,,,,,,,,,,,,,,main,k,k,1,0.8242850999995426,347.97050619999936,None,None,0,,,,,,,,,,,,,,212,23,Female,2022-05-06_15h29.27.515,Main,2022.1.1,59.97059042279817,
positive,red,2,None,None,,,,,,,,,0,60,60,60,,,,,,,,,,,,,,,,,,,,,,,,,,,,,,,,,,,,,main,None,None,1,1.5018990000007761,349.7957964999987,None,None,1,,,,,,,,,,,,,,212,23,Female,2022-05-06_15h29.27.515,Main,2022.1.1,59.97059042279817,
negative,yellow,1,k,None,,,,,,,,,0,61,61,61,,,,,,,,,,,,,,,,,,,,,,,,,,,,,,,,,,,,,main,k,k,1,0.8842005999995308,352.29989059999934,None,None,0,,,,,,,,,,,,,,212,23,Female,2022-05-06_15h29.27.515,Main,2022.1.1,59.97059042279817,
negative,red,1,None,None,,,,,,,,,0,62,62,62,,,,,,,,,,,,,,,,,,,,,,,,,,,,,,,,,,,,,main,None,None,1,1.5089035000000877,354.1869635999992,None,None,1,,,,,,,,,,,,,,212,23,Female,2022-05-06_15h29.27.515,Main,2022.1.1,59.97059042279817,
negative,blue,1,None,k,,,,,,,,,0,63,63,63,,,,,,,,,,,,,,,,,,,,,,,,,,,,,,,,,,,,,main,None,None,1,1.498580999999831,356.6946019999996,None,None,1,,,,,,,,,,,,,,212,23,Female,2022-05-06_15h29.27.515,Main,2022.1.1,59.97059042279817,
positive,blue,2,k,None,,,,,,,,,0,64,64,64,,,,,,,,,,,,,,,,,,,,,,,,,,,,,,,,,,,,,main,k,k,1,0.725040600000284,359.19414099999995,None,None,0,,,,,,,,,,,,,,212,23,Female,2022-05-06_15h29.27.515,Main,2022.1.1,59.97059042279817,
negative,yellow,2,k,None,,,,,,,,,0,65,65,65,,,,,,,,,,,,,,,,,,,,,,,,,,,,,,,,,,,,,main,k,k,1,0.8216551000004984,360.9224650999986,None,None,0,,,,,,,,,,,,,,212,23,Female,2022-05-06_15h29.27.515,Main,2022.1.1,59.97059042279817,
positive,yellow,2,None,k,,,,,,,,,0,66,66,66,,,,,,,,,,,,,,,,,,,,,,,,,,,,,,,,,,,,,main,None,None,1,1.4970405000003666,362.7463238,None,None,1,,,,,,,,,,,,,,212,23,Female,2022-05-06_15h29.27.515,Main,2022.1.1,59.97059042279817,
positive,yellow,2,None,k,,,,,,,,,0,67,67,67,,,,,,,,,,,,,,,,,,,,,,,,,,,,,,,,,,,,,main,None,None,1,1.5100327000000107,365.2437616999996,None,None,1,,,,,,,,,,,,,,212,23,Female,2022-05-06_15h29.27.515,Main,2022.1.1,59.97059042279817,
positive,red,1,None,None,,,,,,,,,0,68,68,68,,,,,,,,,,,,,,,,,,,,,,,,,,,,,,,,,,,,,main,None,None,1,1.5095204999997804,367.75714399999924,None,None,1,,,,,,,,,,,,,,212,23,Female,2022-05-06_15h29.27.515,Main,2022.1.1,59.97059042279817,
positive,yellow,1,None,k,,,,,,,,,0,69,69,69,,,,,,,,,,,,,,,,,,,,,,,,,,,,,,,,,,,,,main,None,None,1,1.5097594000017125,370.2694556999995,None,None,1,,,,,,,,,,,,,,212,23,Female,2022-05-06_15h29.27.515,Main,2022.1.1,59.97059042279817,
negative,yellow,2,k,None,,,,,,,,,0,70,70,70,,,,,,,,,,,,,,,,,,,,,,,,,,,,,,,,,,,,,main,k,k,1,0.7153361000000587,372.78121629999987,None,None,0,,,,,,,,,,,,,,212,23,Female,2022-05-06_15h29.27.515,Main,2022.1.1,59.97059042279817,
positive,yellow,1,None,k,,,,,,,,,0,71,71,71,,,,,,,,,,,,,,,,,,,,,,,,,,,,,,,,,,,,,main,None,None,1,1.505383099998653,374.4984726999992,None,None,1,,,,,,,,,,,,,,212,23,Female,2022-05-06_15h29.27.515,Main,2022.1.1,59.97059042279817,
negative,blue,1,None,k,,,,,,,,,0,72,72,72,,,,,,,,,,,,,,,,,,,,,,,,,,,,,,,,,,,,,main,None,None,1,1.4948234999992565,377.0043795999991,None,None,1,,,,,,,,,,,,,,212,23,Female,2022-05-06_15h29.27.515,Main,2022.1.1,59.97059042279817,
negative,red,2,None,None,,,,,,,,,0,73,73,73,,,,,,,,,,,,,,,,,,,,,,,,,,,,,,,,,,,,,main,None,None,1,1.505975000000035,379.5007466999996,None,None,1,,,,,,,,,,,,,,212,23,Female,2022-05-06_15h29.27.515,Main,2022.1.1,59.97059042279817,
positive,blue,2,k,None,,,,,,,,,0,74,74,74,,,,,,,,,,,,,,,,,,,,,,,,,,,,,,,,,,,,,main,k,k,1,0.7505606000013358,382.0070416999988,None,None,0,,,,,,,,,,,,,,212,23,Female,2022-05-06_15h29.27.515,Main,2022.1.1,59.97059042279817,
negative,blue,2,None,k,,,,,,,,,0,75,75,75,,,,,,,,,,,,,,,,,,,,,,,,,,,,,,,,,,,,,main,None,None,1,1.5130490999999893,383.7596845999997,None,None,1,,,,,,,,,,,,,,212,23,Female,2022-05-06_15h29.27.515,Main,2022.1.1,59.97059042279817,
negative,blue,2,None,k,,,,,,,,,0,76,76,76,,,,,,,,,,,,,,,,,,,,,,,,,,,,,,,,,,,,,main,None,None,1,1.4937069000006886,386.2758369999992,None,None,1,,,,,,,,,,,,,,212,23,Female,2022-05-06_15h29.27.515,Main,2022.1.1,59.97059042279817,
negative,yellow,1,k,None,,,,,,,,,0,77,77,77,,,,,,,,,,,,,,,,,,,,,,,,,,,,,,,,,,,,,main,k,k,1,0.9440064999998867,388.77073109999947,None,None,0,,,,,,,,,,,,,,212,23,Female,2022-05-06_15h29.27.515,Main,2022.1.1,59.97059042279817,
positive,blue,1,k,None,,,,,,,,,0,78,78,78,,,,,,,,,,,,,,,,,,,,,,,,,,,,,,,,,,,,,main,k,k,1,3.2040297999992617,390.71912410000004,None,None,0,,,,,,,,,,,,,,212,23,Female,2022-05-06_15h29.27.515,Main,2022.1.1,59.97059042279817,
positive,blue,1,k,None,,,,,,,,,0,79,79,79,,,,,,,,,,,,,,,,,,,,,,,,,,,,,,,,,,,,,main,k,k,1,0.8155384999990929,395.9404294999986,None,None,0,,,,,,,,,,,,,,212,23,Female,2022-05-06_15h29.27.515,Main,2022.1.1,59.97059042279817,
positive,red,2,None,None,,,,,,,,,0,80,80,80,,,,,,,,,,,,,,,,,,,,,,,,,,,,,,,,,,,,,main,None,None,1,1.507151600000725,397.7564403999986,None,None,1,,,,,,,,,,,,,,212,23,Female,2022-05-06_15h29.27.515,Main,2022.1.1,59.97059042279817,
positive,yellow,2,None,k,,,,,,,,,0,81,81,81,,,,,,,,,,,,,,,,,,,,,,,,,,,,,,,,,,,,,main,None,None,1,1.5048958999996103,400.26714939999874,None,None,1,,,,,,,,,,,,,,212,23,Female,2022-05-06_15h29.27.515,Main,2022.1.1,59.97059042279817,
positive,blue,1,k,None,,,,,,,,,0,82,82,82,,,,,,,,,,,,,,,,,,,,,,,,,,,,,,,,,,,,,main,k,k,1,0.7699491000003036,402.77153369999905,None,None,0,,,,,,,,,,,,,,212,23,Female,2022-05-06_15h29.27.515,Main,2022.1.1,59.97059042279817,
negative,yellow,2,k,None,,,,,,,,,0,83,83,83,,,,,,,,,,,,,,,,,,,,,,,,,,,,,,,,,,,,,main,k,k,1,0.7267522000001918,404.5458734999993,None,None,0,,,,,,,,,,,,,,212,23,Female,2022-05-06_15h29.27.515,Main,2022.1.1,59.97059042279817,
positive,blue,2,k,None,,,,,,,,,0,84,84,84,,,,,,,,,,,,,,,,,,,,,,,,,,,,,,,,,,,,,main,k,k,1,0.8247954999987996,406.27165649999915,None,None,0,,,,,,,,,,,,,,212,23,Female,2022-05-06_15h29.27.515,Main,2022.1.1,59.97059042279817,
positive,yellow,1,None,k,,,,,,,,,0,85,85,85,,,,,,,,,,,,,,,,,,,,,,,,,,,,,,,,,,,,,main,None,None,1,1.5078217999998742,408.1038063999986,None,None,1,,,,,,,,,,,,,,212,23,Female,2022-05-06_15h29.27.515,Main,2022.1.1,59.97059042279817,
positive,blue,2,k,None,,,,,,,,,0,86,86,86,,,,,,,,,,,,,,,,,,,,,,,,,,,,,,,,,,,,,main,k,k,1,0.7308928000002197,410.6093112999988,None,None,0,,,,,,,,,,,,,,212,23,Female,2022-05-06_15h29.27.515,Main,2022.1.1,59.97059042279817,
positive,blue,1,k,None,,,,,,,,,0,87,87,87,,,,,,,,,,,,,,,,,,,,,,,,,,,,,,,,,,,,,main,k,k,1,0.9284029999998893,412.34306019999894,None,None,0,,,,,,,,,,,,,,212,23,Female,2022-05-06_15h29.27.515,Main,2022.1.1,59.97059042279817,
negative,yellow,2,k,None,,,,,,,,,0,88,88,88,,,,,,,,,,,,,,,,,,,,,,,,,,,,,,,,,,,,,main,k,k,1,0.7736277000003611,414.2703941,None,None,0,,,,,,,,,,,,,,212,23,Female,2022-05-06_15h29.27.515,Main,2022.1.1,59.97059042279817,
negative,blue,2,None,k,,,,,,,,,0,89,89,89,,,,,,,,,,,,,,,,,,,,,,,,,,,,,,,,,,,,,main,None,None,1,1.5070843000012246,416.0468955999986,None,None,1,,,,,,,,,,,,,,212,23,Female,2022-05-06_15h29.27.515,Main,2022.1.1,59.97059042279817,
positive,yellow,2,None,k,,,,,,,,,0,90,90,90,,,,,,,,,,,,,,,,,,,,,,,,,,,,,,,,,,,,,main,None,None,1,1.4974317000014707,418.55435190000026,None,None,1,,,,,,,,,,,,,,212,23,Female,2022-05-06_15h29.27.515,Main,2022.1.1,59.97059042279817,
negative,yellow,1,k,None,,,,,,,,,0,91,91,91,,,,,,,,,,,,,,,,,,,,,,,,,,,,,,,,,,,,,main,k,k,1,0.8650121999999101,421.05346739999914,None,None,0,,,,,,,,,,,,,,212,23,Female,2022-05-06_15h29.27.515,Main,2022.1.1,59.97059042279817,
negative,red,2,None,None,,,,,,,,,0,92,92,92,,,,,,,,,,,,,,,,,,,,,,,,,,,,,,,,,,,,,main,None,None,1,1.506369500000801,422.9226031999988,None,None,1,,,,,,,,,,,,,,212,23,Female,2022-05-06_15h29.27.515,Main,2022.1.1,59.97059042279817,
negative,blue,2,None,k,,,,,,,,,0,93,93,93,,,,,,,,,,,,,,,,,,,,,,,,,,,,,,,,,,,,,main,None,None,1,1.5090872000000672,425.43075379999937,None,None,1,,,,,,,,,,,,,,212,23,Female,2022-05-06_15h29.27.515,Main,2022.1.1,59.97059042279817,
negative,blue,1,None,k,,,,,,,,,0,94,94,94,,,,,,,,,,,,,,,,,,,,,,,,,,,,,,,,,,,,,main,None,None,1,1.502822799999194,427.94023969999944,None,None,1,,,,,,,,,,,,,,212,23,Female,2022-05-06_15h29.27.515,Main,2022.1.1,59.97059042279817,
negative,blue,1,None,k,,,,,,,,,0,95,95,95,,,,,,,,,,,,,,,,,,,,,,,,,,,,,,,,,,,,,main,None,None,1,1.5077634999997827,430.44508700000006,None,None,1,,,,,,,,,,,,,,212,23,Female,2022-05-06_15h29.27.515,Main,2022.1.1,59.97059042279817,
negative,red,1,None,None,,,,,,,,,0,96,96,96,,,,,,,,,,,,,,,,,,,,,,,,,,,,,,,,,,,,,main,None,None,1,1.5126278000007005,432.95197579999876,None,None,1,,,,,,,,,,,,,,212,23,Female,2022-05-06_15h29.27.515,Main,2022.1.1,59.97059042279817,
positive,yellow,1,None,k,,,,,,,,,0,97,97,97,,,,,,,,,,,,,,,,,,,,,,,,,,,,,,,,,,,,,main,None,None,1,1.4978599999994913,435.4673380999993,None,None,1,,,,,,,,,,,,,,212,23,Female,2022-05-06_15h29.27.515,Main,2022.1.1,59.97059042279817,
negative,yellow,1,k,None,,,,,,,,,0,98,98,98,,,,,,,,,,,,,,,,,,,,,,,,,,,,,,,,,,,,,main,k,k,1,1.0384661999996752,437.96545519999927,None,None,0,,,,,,,,,,,,,,212,23,Female,2022-05-06_15h29.27.515,Main,2022.1.1,59.97059042279817,
positive,red,1,None,None,,,,,,,,,0,99,99,99,,,,,,,,,,,,,,,,,,,,,,,,,,,,,,,,,,,,,main,None,None,1,1.5091410000004544,440.00750549999975,None,None,1,,,,,,,,,,,,,,212,23,Female,2022-05-06_15h29.27.515,Main,2022.1.1,59.97059042279817,
positive,blue,1,k,None,,,,,,,,,0,100,100,100,,,,,,,,,,,,,,,,,,,,,,,,,,,,,,,,,,,,,main,k,k,1,0.9275676999986899,442.5192473999996,None,None,0,,,,,,,,,,,,,,212,23,Female,2022-05-06_15h29.27.515,Main,2022.1.1,59.97059042279817,
negative,yellow,1,k,None,,,,,,,,,0,101,101,101,,,,,,,,,,,,,,,,,,,,,,,,,,,,,,,,,,,,,main,k,k,1,0.9232213000013871,444.4470523,None,None,0,,,,,,,,,,,,,,212,23,Female,2022-05-06_15h29.27.515,Main,2022.1.1,59.97059042279817,
negative,blue,2,None,k,,,,,,,,,0,102,102,102,,,,,,,,,,,,,,,,,,,,,,,,,,,,,,,,,,,,,main,None,None,1,1.5100414999997156,446.3740992000003,None,None,1,,,,,,,,,,,,,,212,23,Female,2022-05-06_15h29.27.515,Main,2022.1.1,59.97059042279817,
negative,yellow,2,k,None,,,,,,,,,0,103,103,103,,,,,,,,,,,,,,,,,,,,,,,,,,,,,,,,,,,,,main,k,k,1,0.9334689999996044,448.88691199999994,None,None,0,,,,,,,,,,,,,,212,23,Female,2022-05-06_15h29.27.515,Main,2022.1.1,59.97059042279817,
positive,yellow,2,None,k,,,,,,,,,0,104,104,104,,,,,,,,,,,,,,,,,,,,,,,,,,,,,,,,,,,,,main,None,None,1,1.5116139000001567,450.8207463999988,None,None,1,,,,,,,,,,,,,,212,23,Female,2022-05-06_15h29.27.515,Main,2022.1.1,59.97059042279817,
positive,blue,1,k,None,,,,,,,,,0,105,105,105,,,,,,,,,,,,,,,,,,,,,,,,,,,,,,,,,,,,,main,k,k,1,0.9524638999992021,453.3325578999993,None,None,0,,,,,,,,,,,,,,212,23,Female,2022-05-06_15h29.27.515,Main,2022.1.1,59.97059042279817,
positive,blue,2,k,None,,,,,,,,,0,106,106,106,,,,,,,,,,,,,,,,,,,,,,,,,,,,,,,,,,,,,main,k,k,1,0.7095683000006829,455.2886918999993,None,None,0,,,,,,,,,,,,,,212,23,Female,2022-05-06_15h29.27.515,Main,2022.1.1,59.97059042279817,
negative,blue,1,None,k,,,,,,,,,0,107,107,107,,,,,,,,,,,,,,,,,,,,,,,,,,,,,,,,,,,,,main,None,None,1,1.5017234999995708,456.9977902999999,None,None,1,,,,,,,,,,,,,,212,23,Female,2022-05-06_15h29.27.515,Main,2022.1.1,59.97059042279817,
positive,yellow,2,None,k,,,,,,,,,0,108,108,108,,,,,,,,,,,,,,,,,,,,,,,,,,,,,,,,,,,,,main,None,None,1,1.504821999998967,459.5024635999998,None,None,1,,,,,,,,,,,,,,212,23,Female,2022-05-06_15h29.27.515,Main,2022.1.1,59.97059042279817,
negative,yellow,1,k,None,,,,,,,,,0,109,109,109,,,,,,,,,,,,,,,,,,,,,,,,,,,,,,,,,,,,,main,k,k,1,0.8912165999990975,462.00819539999975,None,None,0,,,,,,,,,,,,,,212,23,Female,2022-05-06_15h29.27.515,Main,2022.1.1,59.97059042279817,
negative,blue,2,None,k,,,,,,,,,0,110,110,110,,,,,,,,,,,,,,,,,,,,,,,,,,,,,,,,,,,,,main,None,None,1,1.5126607000001968,463.9020376999997,None,None,1,,,,,,,,,,,,,,212,23,Female,2022-05-06_15h29.27.515,Main,2022.1.1,59.97059042279817,
positive,blue,2,k,None,,,,,,,,,0,111,111,111,,,,,,,,,,,,,,,,,,,,,,,,,,,,,,,,,,,,,main,k,k,1,0.7808272999991459,466.4142761000003,None,None,0,,,,,,,,,,,,,,212,23,Female,2022-05-06_15h29.27.515,Main,2022.1.1,59.97059042279817,
negative,blue,1,None,k,,,,,,,,,0,112,112,112,,,,,,,,,,,,,,,,,,,,,,,,,,,,,,,,,,,,,main,None,None,1,1.4983367999993789,468.1967590000004,None,None,1,,,,,,,,,,,,,,212,23,Female,2022-05-06_15h29.27.515,Main,2022.1.1,59.97059042279817,
positive,yellow,1,None,k,,,,,,,,,0,113,113,113,,,,,,,,,,,,,,,,,,,,,,,,,,,,,,,,,,,,,main,None,None,1,1.5099285999986023,470.6965172,None,None,1,,,,,,,,,,,,,,212,23,Female,2022-05-06_15h29.27.515,Main,2022.1.1,59.97059042279817,
negative,red,1,None,None,,,,,,,,,0,114,114,114,,,,,,,,,,,,,,,,,,,,,,,,,,,,,,,,,,,,,main,None,None,1,1.5042460000004212,473.20922359999895,None,None,1,,,,,,,,,,,,,,212,23,Female,2022-05-06_15h29.27.515,Main,2022.1.1,59.97059042279817,
positive,red,1,None,None,,,,,,,,,0,115,115,115,,,,,,,,,,,,,,,,,,,,,,,,,,,,,,,,,,,,,main,None,None,1,1.5052941000012652,475.71799719999945,None,None,1,,,,,,,,,,,,,,212,23,Female,2022-05-06_15h29.27.515,Main,2022.1.1,59.97059042279817,
negative,red,2,None,None,,,,,,,,,0,116,116,116,,,,,,,,,,,,,,,,,,,,,,,,,,,,,,,,,,,,,main,None,None,1,1.5058778999991773,478.22419329999866,None,None,1,,,,,,,,,,,,,,212,23,Female,2022-05-06_15h29.27.515,Main,2022.1.1,59.97059042279817,
negative,yellow,2,k,None,,,,,,,,,0,117,117,117,,,,,,,,,,,,,,,,,,,,,,,,,,,,,,,,,,,,,main,k,k,1,0.8075470999992831,480.72901829999864,None,None,0,,,,,,,,,,,,,,212,23,Female,2022-05-06_15h29.27.515,Main,2022.1.1,59.97059042279817,
positive,yellow,1,None,k,,,,,,,,,0,118,118,118,,,,,,,,,,,,,,,,,,,,,,,,,,,,,,,,,,,,,main,None,None,1,1.503666799999337,482.5395411999998,None,None,1,,,,,,,,,,,,,,212,23,Female,2022-05-06_15h29.27.515,Main,2022.1.1,59.97059042279817,
positive,red,2,None,None,,,,,,,,,0,119,119,119,,,,,,,,,,,,,,,,,,,,,,,,,,,,,,,,,,,,,main,None,None,1,1.499454800001331,485.0434374999986,None,None,1,,,,,,,,,,,,,,212,23,Female,2022-05-06_15h29.27.515,Main,2022.1.1,59.97059042279817,
positive,blue,2,k,None,,,,,,,,,0,120,120,120,,,,,,,,,,,,,,,,,,,,,,,,,,,,,,,,,,,,,main,k,k,1,1.0792232000003423,487.5451854999992,None,None,0,,,,,,,,,,,,,,212,23,Female,2022-05-06_15h29.27.515,Main,2022.1.1,59.97059042279817,
negative,red,1,None,None,,,,,,,,,0,121,121,121,,,,,,,,,,,,,,,,,,,,,,,,,,,,,,,,,,,,,main,None,None,1,1.5149292000005516,489.6302703000001,None,None,1,,,,,,,,,,,,,,212,23,Female,2022-05-06_15h29.27.515,Main,2022.1.1,59.97059042279817,
positive,yellow,2,None,k,,,,,,,,,0,122,122,122,,,,,,,,,,,,,,,,,,,,,,,,,,,,,,,,,,,,,main,None,None,1,1.503598700001021,492.1431421999987,None,None,1,,,,,,,,,,,,,,212,23,Female,2022-05-06_15h29.27.515,Main,2022.1.1,59.97059042279817,
negative,red,2,None,None,,,,,,,,,0,123,123,123,,,,,,,,,,,,,,,,,,,,,,,,,,,,,,,,,,,,,main,None,None,1,1.5006791000014346,494.6503756000002,None,None,1,,,,,,,,,,,,,,212,23,Female,2022-05-06_15h29.27.515,Main,2022.1.1,59.97059042279817,
negative,yellow,2,k,None,,,,,,,,,0,124,124,124,,,,,,,,,,,,,,,,,,,,,,,,,,,,,,,,,,,,,main,k,k,1,0.9669725000003382,497.1530776999989,None,None,0,,,,,,,,,,,,,,212,23,Female,2022-05-06_15h29.27.515,Main,2022.1.1,59.97059042279817,
positive,red,1,None,None,,,,,,,,,0,125,125,125,,,,,,,,,,,,,,,,,,,,,,,,,,,,,,,,,,,,,main,None,None,1,1.4948972000001959,499.12068139999974,None,None,1,,,,,,,,,,,,,,212,23,Female,2022-05-06_15h29.27.515,Main,2022.1.1,59.97059042279817,
negative,blue,2,None,k,,,,,,,,,0,126,126,126,,,,,,,,,,,,,,,,,,,,,,,,,,,,,,,,,,,,,main,None,None,1,1.4942160999999032,501.61734780000006,None,None,1,,,,,,,,,,,,,,212,23,Female,2022-05-06_15h29.27.515,Main,2022.1.1,59.97059042279817,
negative,blue,1,None,k,,,,,,,,,0,127,127,127,,,,,,,,,,,,,,,,,,,,,,,,,,,,,,,,,,,,,main,None,None,1,1.4960783999995328,504.1135482999998,None,None,1,,,,,,,,,,,,,,212,23,Female,2022-05-06_15h29.27.515,Main,2022.1.1,59.97059042279817,
negative,yellow,1,k,None,,,,,,,,,0,128,128,128,,,,,,,,,,,,,,,,,,,,,,,,,,,,,,,,,,,,,main,k,k,1,1.100159400000848,506.60878559999946,None,None,0,,,,,,,,,,,,,,212,23,Female,2022-05-06_15h29.27.515,Main,2022.1.1,59.97059042279817,
negative,yellow,1,k,None,,,,,,,,,0,129,129,129,,,,,,,,,,,,,,,,,,,,,,,,,,,,,,,,,,,,,main,k,k,1,0.7780180999998265,508.71398190000036,None,None,0,,,,,,,,,,,,,,212,23,Female,2022-05-06_15h29.27.515,Main,2022.1.1,59.97059042279817,
positive,blue,1,k,None,,,,,,,,,0,130,130,130,,,,,,,,,,,,,,,,,,,,,,,,,,,,,,,,,,,,,main,k,k,1,1.0000567000006413,510.4903634000002,None,None,0,,,,,,,,,,,,,,212,23,Female,2022-05-06_15h29.27.515,Main,2022.1.1,59.97059042279817,
negative,blue,1,None,k,,,,,,,,,0,131,131,131,,,,,,,,,,,,,,,,,,,,,,,,,,,,,,,,,,,,,main,None,None,1,1.5030155000004015,512.4951696999997,None,None,1,,,,,,,,,,,,,,212,23,Female,2022-05-06_15h29.27.515,Main,2022.1.1,59.97059042279817,
negative,blue,2,None,k,,,,,,,,,0,132,132,132,,,,,,,,,,,,,,,,,,,,,,,,,,,,,,,,,,,,,main,None,None,1,1.4987834999992629,515.0003551999998,None,None,1,,,,,,,,,,,,,,212,23,Female,2022-05-06_15h29.27.515,Main,2022.1.1,59.97059042279817,
positive,blue,2,k,None,,,,,,,,,0,133,133,133,,,,,,,,,,,,,,,,,,,,,,,,,,,,,,,,,,,,,main,k,k,1,1.1826897000009922,517.5000301,None,None,0,,,,,,,,,,,,,,212,23,Female,2022-05-06_15h29.27.515,Main,2022.1.1,59.97059042279817,
positive,red,2,None,None,,,,,,,,,0,134,134,134,,,,,,,,,,,,,,,,,,,,,,,,,,,,,,,,,,,,,main,None,None,1,1.5112007999996422,519.6859926999987,None,None,1,,,,,,,,,,,,,,212,23,Female,2022-05-06_15h29.27.515,Main,2022.1.1,59.97059042279817,
negative,yellow,2,k,None,,,,,,,,,0,135,135,135,,,,,,,,,,,,,,,,,,,,,,,,,,,,,,,,,,,,,main,k,k,1,0.9597700000012992,522.1976398999996,None,None,0,,,,,,,,,,,,,,212,23,Female,2022-05-06_15h29.27.515,Main,2022.1.1,59.97059042279817,
positive,yellow,2,None,k,,,,,,,,,0,136,136,136,,,,,,,,,,,,,,,,,,,,,,,,,,,,,,,,,,,,,main,None,None,1,1.5067693000000872,524.1599647999992,None,None,1,,,,,,,,,,,,,,212,23,Female,2022-05-06_15h29.27.515,Main,2022.1.1,59.97059042279817,
positive,blue,1,k,None,,,,,,,,,0,137,137,137,,,,,,,,,,,,,,,,,,,,,,,,,,,,,,,,,,,,,main,k,k,1,1.2935233999996854,526.6678973999988,None,None,0,,,,,,,,,,,,,,212,23,Female,2022-05-06_15h29.27.515,Main,2022.1.1,59.97059042279817,
positive,yellow,1,None,k,,,,,,,,,0,138,138,138,,,,,,,,,,,,,,,,,,,,,,,,,,,,,,,,,,,,,main,None,None,1,1.509084699999221,528.9622860999989,None,None,1,,,,,,,,,,,,,,212,23,Female,2022-05-06_15h29.27.515,Main,2022.1.1,59.97059042279817,
positive,yellow,1,None,k,,,,,,,,,0,139,139,139,,,,,,,,,,,,,,,,,,,,,,,,,,,,,,,,,,,,,main,None,None,1,1.5111282000016217,531.4706115999998,None,None,1,,,,,,,,,,,,,,212,23,Female,2022-05-06_15h29.27.515,Main,2022.1.1,59.97059042279817,
positive,yellow,1,None,k,,,,,,,,,0,140,140,140,,,,,,,,,,,,,,,,,,,,,,,,,,,,,,,,,,,,,main,None,None,1,1.5008280000001832,533.9850748999997,None,None,1,,,,,,,,,,,,,,212,23,Female,2022-05-06_15h29.27.515,Main,2022.1.1,59.97059042279817,
positive,blue,1,k,None,,,,,,,,,0,141,141,141,,,,,,,,,,,,,,,,,,,,,,,,,,,,,,,,,,,,,main,k,k,1,0.979559600000357,536.4903042999995,None,None,0,,,,,,,,,,,,,,212,23,Female,2022-05-06_15h29.27.515,Main,2022.1.1,59.97059042279817,
positive,blue,2,k,None,,,,,,,,,0,142,142,142,,,,,,,,,,,,,,,,,,,,,,,,,,,,,,,,,,,,,main,k,k,1,0.9534669999993639,538.4689429999999,None,None,0,,,,,,,,,,,,,,212,23,Female,2022-05-06_15h29.27.515,Main,2022.1.1,59.97059042279817,
positive,yellow,2,None,k,,,,,,,,,0,143,143,143,,,,,,,,,,,,,,,,,,,,,,,,,,,,,,,,,,,,,main,None,None,1,1.505318100000295,540.4266241999994,None,None,1,,,,,,,,,,,,,,212,23,Female,2022-05-06_15h29.27.515,Main,2022.1.1,59.97059042279817,
negative,yellow,2,k,None,,,,,,,,,0,144,144,144,,,,,,,,,,,,,,,,,,,,,,,,,,,,,,,,,,,,,main,k,k,1,0.6652150999998412,542.9327326000002,None,None,0,,,,,,,,,,,,,,212,23,Female,2022-05-06_15h29.27.515,Main,2022.1.1,59.97059042279817,
negative,blue,2,None,k,,,,,,,,,0,145,145,145,,,,,,,,,,,,,,,,,,,,,,,,,,,,,,,,,,,,,main,None,None,1,1.507587699999931,544.6017664999999,None,None,1,,,,,,,,,,,,,,212,23,Female,2022-05-06_15h29.27.515,Main,2022.1.1,59.97059042279817,
negative,red,1,None,None,,,,,,,,,0,146,146,146,,,,,,,,,,,,,,,,,,,,,,,,,,,,,,,,,,,,,main,None,None,1,1.5015634999999747,547.1122982999987,None,None,1,,,,,,,,,,,,,,212,23,Female,2022-05-06_15h29.27.515,Main,2022.1.1,59.97059042279817,
positive,blue,1,k,None,,,,,,,,,0,147,147,147,,,,,,,,,,,,,,,,,,,,,,,,,,,,,,,,,,,,,main,k,k,1,0.7193714000004547,549.6155464999993,None,None,0,,,,,,,,,,,,,,212,23,Female,2022-05-06_15h29.27.515,Main,2022.1.1,59.97059042279817,
positive,yellow,1,None,k,,,,,,,,,0,148,148,148,,,,,,,,,,,,,,,,,,,,,,,,,,,,,,,,,,,,,main,None,None,1,1.5118082000008144,551.3351862999989,None,None,1,,,,,,,,,,,,,,212,23,Female,2022-05-06_15h29.27.515,Main,2022.1.1,59.97059042279817,
negative,red,2,None,None,,,,,,,,,0,149,149,149,,,,,,,,,,,,,,,,,,,,,,,,,,,,,,,,,,,,,main,None,None,1,1.5023230000006151,553.8501313999986,None,None,1,,,,,,,,,,,,,,212,23,Female,2022-05-06_15h29.27.515,Main,2022.1.1,59.97059042279817,
negative,blue,1,None,k,,,,,,,,,0,150,150,150,,,,,,,,,,,,,,,,,,,,,,,,,,,,,,,,,,,,,main,None,None,1,1.507783400000335,556.3552829,None,None,1,,,,,,,,,,,,,,212,23,Female,2022-05-06_15h29.27.515,Main,2022.1.1,59.97059042279817,
negative,yellow,2,k,None,,,,,,,,,0,151,151,151,,,,,,,,,,,,,,,,,,,,,,,,,,,,,,,,,,,,,main,k,k,1,0.9841665000003559,558.8653703999989,None,None,0,,,,,,,,,,,,,,212,23,Female,2022-05-06_15h29.27.515,Main,2022.1.1,59.97059042279817,
negative,blue,2,None,k,,,,,,,,,0,152,152,152,,,,,,,,,,,,,,,,,,,,,,,,,,,,,,,,,,,,,main,None,None,1,1.4979808000007324,560.8512376999988,None,None,1,,,,,,,,,,,,,,212,23,Female,2022-05-06_15h29.27.515,Main,2022.1.1,59.97059042279817,
negative,yellow,1,k,None,,,,,,,,,0,153,153,153,,,,,,,,,,,,,,,,,,,,,,,,,,,,,,,,,,,,,main,k,k,1,0.8164839000000939,563.3504206999987,None,None,0,,,,,,,,,,,,,,212,23,Female,2022-05-06_15h29.27.515,Main,2022.1.1,59.97059042279817,
negative,blue,1,None,k,,,,,,,,,0,154,154,154,,,,,,,,,,,,,,,,,,,,,,,,,,,,,,,,,,,,,main,None,None,1,1.5003882000000885,565.1686866,None,None,1,,,,,,,,,,,,,,212,23,Female,2022-05-06_15h29.27.515,Main,2022.1.1,59.97059042279817,
positive,yellow,2,None,k,,,,,,,,,0,155,155,155,,,,,,,,,,,,,,,,,,,,,,,,,,,,,,,,,,,,,main,None,None,1,1.4945389999993495,567.674637099999,None,None,1,,,,,,,,,,,,,,212,23,Female,2022-05-06_15h29.27.515,Main,2022.1.1,59.97059042279817,
positive,red,2,None,None,,,,,,,,,0,156,156,156,,,,,,,,,,,,,,,,,,,,,,,,,,,,,,,,,,,,,main,None,None,1,1.5088657000014791,570.1704965999998,None,None,1,,,,,,,,,,,,,,212,23,Female,2022-05-06_15h29.27.515,Main,2022.1.1,59.97059042279817,
positive,red,1,None,None,,,,,,,,,0,157,157,157,,,,,,,,,,,,,,,,,,,,,,,,,,,,,,,,,,,,,main,None,None,1,1.5100715999997192,572.6802288999988,None,None,1,,,,,,,,,,,,,,212,23,Female,2022-05-06_15h29.27.515,Main,2022.1.1,59.97059042279817,
positive,blue,2,k,None,,,,,,,,,0,158,158,158,,,,,,,,,,,,,,,,,,,,,,,,,,,,,,,,,,,,,main,k,k,1,0.6824216000004526,575.1942022999992,None,None,0,,,,,,,,,,,,,,212,23,Female,2022-05-06_15h29.27.515,Main,2022.1.1,59.97059042279817,
negative,yellow,1,k,None,,,,,,,,,0,159,159,159,,,,,,,,,,,,,,,,,,,,,,,,,,,,,,,,,,,,,main,k,k,1,0.7663710999986506,576.8778258999992,None,None,0,,,,,,,,,,,,,,212,23,Female,2022-05-06_15h29.27.515,Main,2022.1.1,59.97059042279817,
negative,red,2,None,None,,,,,,,,,0,160,160,160,,,,,,,,,,,,,,,,,,,,,,,,,,,,,,,,,,,,,main,None,None,1,1.5061447999996744,578.6484655000004,None,None,1,,,,,,,,,,,,,,212,23,Female,2022-05-06_15h29.27.515,Main,2022.1.1,59.97059042279817,
negative,blue,1,None,k,,,,,,,,,0,161,161,161,,,,,,,,,,,,,,,,,,,,,,,,,,,,,,,,,,,,,main,None,None,1,1.51261489999888,581.1556536999997,None,None,1,,,,,,,,,,,,,,212,23,Female,2022-05-06_15h29.27.515,Main,2022.1.1,59.97059042279817,
negative,blue,1,None,k,,,,,,,,,0,162,162,162,,,,,,,,,,,,,,,,,,,,,,,,,,,,,,,,,,,,,main,None,None,1,1.5020380000005389,583.6696061000002,None,None,1,,,,,,,,,,,,,,212,23,Female,2022-05-06_15h29.27.515,Main,2022.1.1,59.97059042279817,
negative,yellow,1,k,None,,,,,,,,,0,163,163,163,,,,,,,,,,,,,,,,,,,,,,,,,,,,,,,,,,,,,main,k,k,1,0.8967565000002651,586.1730236999992,None,None,0,,,,,,,,,,,,,,212,23,Female,2022-05-06_15h29.27.515,Main,2022.1.1,59.97059042279817,
negative,yellow,1,k,None,,,,,,,,,0,164,164,164,,,,,,,,,,,,,,,,,,,,,,,,,,,,,,,,,,,,,main,k,k,1,0.726652200000899,588.0721873000002,None,None,0,,,,,,,,,,,,,,212,23,Female,2022-05-06_15h29.27.515,Main,2022.1.1,59.97059042279817,
positive,yellow,1,None,k,,,,,,,,,0,165,165,165,,,,,,,,,,,,,,,,,,,,,,,,,,,,,,,,,,,,,main,None,None,1,1.5035127999999531,589.800938299999,None,None,1,,,,,,,,,,,,,,212,23,Female,2022-05-06_15h29.27.515,Main,2022.1.1,59.97059042279817,
negative,red,1,None,None,,,,,,,,,0,166,166,166,,,,,,,,,,,,,,,,,,,,,,,,,,,,,,,,,,,,,main,None,None,1,1.4996436000001268,592.3052446999991,None,None,1,,,,,,,,,,,,,,212,23,Female,2022-05-06_15h29.27.515,Main,2022.1.1,59.97059042279817,
negative,yellow,2,k,None,,,,,,,,,0,167,167,167,,,,,,,,,,,,,,,,,,,,,,,,,,,,,,,,,,,,,main,k,k,1,1.5785374999995838,594.8064955999998,None,None,0,,,,,,,,,,,,,,212,23,Female,2022-05-06_15h29.27.515,Main,2022.1.1,59.97059042279817,
positive,blue,2,k,None,,,,,,,,,0,168,168,168,,,,,,,,,,,,,,,,,,,,,,,,,,,,,,,,,,,,,main,k,k,1,0.8871219000011479,598.3976057,None,None,0,,,,,,,,,,,,,,212,23,Female,2022-05-06_15h29.27.515,Main,2022.1.1,59.97059042279817,
positive,red,2,None,None,,,,,,,,,0,169,169,169,,,,,,,,,,,,,,,,,,,,,,,,,,,,,,,,,,,,,main,None,None,1,1.4956516000002011,600.2876780999995,None,None,1,,,,,,,,,,,,,,212,23,Female,2022-05-06_15h29.27.515,Main,2022.1.1,59.97059042279817,
positive,red,1,None,None,,,,,,,,,0,170,170,170,,,,,,,,,,,,,,,,,,,,,,,,,,,,,,,,,,,,,main,None,None,1,1.5081489000003785,602.7841134999999,None,None,1,,,,,,,,,,,,,,212,23,Female,2022-05-06_15h29.27.515,Main,2022.1.1,59.97059042279817,
negative,blue,2,None,k,,,,,,,,,0,171,171,171,,,,,,,,,,,,,,,,,,,,,,,,,,,,,,,,,,,,,main,None,None,1,1.5073355000004085,605.2929162,None,None,1,,,,,,,,,,,,,,212,23,Female,2022-05-06_15h29.27.515,Main,2022.1.1,59.97059042279817,
positive,blue,2,k,None,,,,,,,,,0,172,172,172,,,,,,,,,,,,,,,,,,,,,,,,,,,,,,,,,,,,,main,k,k,1,0.6752992000001541,607.8053215999989,None,None,0,,,,,,,,,,,,,,212,23,Female,2022-05-06_15h29.27.515,Main,2022.1.1,59.97059042279817,
negative,yellow,2,k,None,,,,,,,,,0,173,173,173,,,,,,,,,,,,,,,,,,,,,,,,,,,,,,,,,,,,,main,k,k,1,0.7976144999993267,609.4794129999991,None,None,0,,,,,,,,,,,,,,212,23,Female,2022-05-06_15h29.27.515,Main,2022.1.1,59.97059042279817,
positive,yellow,2,None,k,,,,,,,,,0,174,174,174,,,,,,,,,,,,,,,,,,,,,,,,,,,,,,,,,,,,,main,None,None,1,1.512831099998948,611.2784854999991,None,None,1,,,,,,,,,,,,,,212,23,Female,2022-05-06_15h29.27.515,Main,2022.1.1,59.97059042279817,
negative,blue,2,None,k,,,,,,,,,0,175,175,175,,,,,,,,,,,,,,,,,,,,,,,,,,,,,,,,,,,,,main,None,None,1,1.5037038000009488,613.7930553999995,None,None,1,,,,,,,,,,,,,,212,23,Female,2022-05-06_15h29.27.515,Main,2022.1.1,59.97059042279817,
positive,blue,1,k,None,,,,,,,,,0,176,176,176,,,,,,,,,,,,,,,,,,,,,,,,,,,,,,,,,,,,,main,k,k,1,0.7435612999997829,616.3005186999999,None,None,0,,,,,,,,,,,,,,212,23,Female,2022-05-06_15h29.27.515,Main,2022.1.1,59.97059042279817,
positive,yellow,1,None,k,,,,,,,,,0,177,177,177,,,,,,,,,,,,,,,,,,,,,,,,,,,,,,,,,,,,,main,None,None,1,1.4979791999994632,618.043152799999,None,None,1,,,,,,,,,,,,,,212,23,Female,2022-05-06_15h29.27.515,Main,2022.1.1,59.97059042279817,
positive,blue,1,k,None,,,,,,,,,0,178,178,178,,,,,,,,,,,,,,,,,,,,,,,,,,,,,,,,,,,,,main,k,k,1,0.708700699999099,620.5430015000002,None,None,0,,,,,,,,,,,,,,212,23,Female,2022-05-06_15h29.27.515,Main,2022.1.1,59.97059042279817,
positive,yellow,2,None,k,,,,,,,,,0,179,179,179,,,,,,,,,,,,,,,,,,,,,,,,,,,,,,,,,,,,,main,None,None,1,1.5116133999999875,622.254841599999,None,None,1,,,,,,,,,,,,,,212,23,Female,2022-05-06_15h29.27.515,Main,2022.1.1,59.97059042279817,
positive,blue,1,k,None,,,,,,,,,0,180,180,180,,,,,,,,,,,,,,,,,,,,,,,,,,,,,,,,,,,,,main,k,k,1,0.8368433000014193,624.7680467999999,None,None,0,,,,,,,,,,,,,,212,23,Female,2022-05-06_15h29.27.515,Main,2022.1.1,59.97059042279817,
negative,red,1,None,None,,,,,,,,,0,181,181,181,,,,,,,,,,,,,,,,,,,,,,,,,,,,,,,,,,,,,main,None,None,1,1.5007045999991533,626.6059932999997,None,None,1,,,,,,,,,,,,,,212,23,Female,2022-05-06_15h29.27.515,Main,2022.1.1,59.97059042279817,
negative,blue,1,None,k,,,,,,,,,0,182,182,182,,,,,,,,,,,,,,,,,,,,,,,,,,,,,,,,,,,,,main,None,None,1,1.4982679000004282,629.1109368999987,None,None,1,,,,,,,,,,,,,,212,23,Female,2022-05-06_15h29.27.515,Main,2022.1.1,59.97059042279817,
negative,yellow,2,k,None,,,,,,,,,0,183,183,183,,,,,,,,,,,,,,,,,,,,,,,,,,,,,,,,,,,,,main,k,k,1,0.7312927999992098,631.611670799999,None,None,0,,,,,,,,,,,,,,212,23,Female,2022-05-06_15h29.27.515,Main,2022.1.1,59.97059042279817,
positive,yellow,2,None,k,,,,,,,,,0,184,184,184,,,,,,,,,,,,,,,,,,,,,,,,,,,,,,,,,,,,,main,None,None,1,1.5098050000015064,633.3419278999991,None,None,1,,,,,,,,,,,,,,212,23,Female,2022-05-06_15h29.27.515,Main,2022.1.1,59.97059042279817,
positive,yellow,1,None,k,,,,,,,,,0,185,185,185,,,,,,,,,,,,,,,,,,,,,,,,,,,,,,,,,,,,,main,None,None,1,1.5016510000004928,635.8553281999993,None,None,1,,,,,,,,,,,,,,212,23,Female,2022-05-06_15h29.27.515,Main,2022.1.1,59.97059042279817,
positive,red,2,None,None,,,,,,,,,0,186,186,186,,,,,,,,,,,,,,,,,,,,,,,,,,,,,,,,,,,,,main,None,None,1,1.4963015999983327,638.3605119000003,None,None,1,,,,,,,,,,,,,,212,23,Female,2022-05-06_15h29.27.515,Main,2022.1.1,59.97059042279817,
positive,blue,1,k,None,,,,,,,,,0,187,187,187,,,,,,,,,,,,,,,,,,,,,,,,,,,,,,,,,,,,,main,k,k,1,1.0120010999999067,640.8566601000002,None,None,0,,,,,,,,,,,,,,212,23,Female,2022-05-06_15h29.27.515,Main,2022.1.1,59.97059042279817,
negative,yellow,1,k,None,,,,,,,,,0,188,188,188,,,,,,,,,,,,,,,,,,,,,,,,,,,,,,,,,,,,,main,k,k,1,0.8049952000001213,642.8717805999986,None,None,0,,,,,,,,,,,,,,212,23,Female,2022-05-06_15h29.27.515,Main,2022.1.1,59.97059042279817,
positive,yellow,2,None,k,,,,,,,,,0,189,189,189,,,,,,,,,,,,,,,,,,,,,,,,,,,,,,,,,,,,,main,None,None,1,1.4988362999993114,644.6807224000004,None,None,1,,,,,,,,,,,,,,212,23,Female,2022-05-06_15h29.27.515,Main,2022.1.1,59.97059042279817,
negative,yellow,2,k,None,,,,,,,,,0,190,190,190,,,,,,,,,,,,,,,,,,,,,,,,,,,,,,,,,,,,,main,k,k,1,0.9927277999995567,647.1807155999995,None,None,0,,,,,,,,,,,,,,212,23,Female,2022-05-06_15h29.27.515,Main,2022.1.1,59.97059042279817,
negative,yellow,1,k,None,,,,,,,,,0,191,191,191,,,,,,,,,,,,,,,,,,,,,,,,,,,,,,,,,,,,,main,k,k,1,1.3715733000008186,649.1737760999986,None,None,0,,,,,,,,,,,,,,212,23,Female,2022-05-06_15h29.27.515,Main,2022.1.1,59.97059042279817,
positive,blue,2,k,None,,,,,,,,,0,192,192,192,,,,,,,,,,,,,,,,,,,,,,,,,,,,,,,,,,,,,main,k,k,1,1.4974003999996057,651.5489433000002,None,None,0,,,,,,,,,,,,,,212,23,Female,2022-05-06_15h29.27.515,Main,2022.1.1,59.97059042279817,
positive,yellow,1,None,k,,,,,,,,,0,193,193,193,,,,,,,,,,,,,,,,,,,,,,,,,,,,,,,,,,,,,main,None,None,1,1.496353900000031,654.0479292,None,None,1,,,,,,,,,,,,,,212,23,Female,2022-05-06_15h29.27.515,Main,2022.1.1,59.97059042279817,
negative,red,2,None,None,,,,,,,,,0,194,194,194,,,,,,,,,,,,,,,,,,,,,,,,,,,,,,,,,,,,,main,None,None,1,1.4939262000007147,656.5457021000002,None,None,1,,,,,,,,,,,,,,212,23,Female,2022-05-06_15h29.27.515,Main,2022.1.1,59.97059042279817,
positive,red,1,None,None,,,,,,,,,0,195,195,195,,,,,,,,,,,,,,,,,,,,,,,,,,,,,,,,,,,,,main,None,None,1,1.5047505000002275,659.0403401999993,None,None,1,,,,,,,,,,,,,,212,23,Female,2022-05-06_15h29.27.515,Main,2022.1.1,59.97059042279817,
negative,blue,1,None,k,,,,,,,,,0,196,196,196,,,,,,,,,,,,,,,,,,,,,,,,,,,,,,,,,,,,,main,None,None,1,1.4948388000011619,661.5472215999998,None,None,1,,,,,,,,,,,,,,212,23,Female,2022-05-06_15h29.27.515,Main,2022.1.1,59.97059042279817,
positive,blue,2,k,None,,,,,,,,,0,197,197,197,,,,,,,,,,,,,,,,,,,,,,,,,,,,,,,,,,,,,main,k,k,1,0.6784444000004441,664.0426830999986,None,None,0,,,,,,,,,,,,,,212,23,Female,2022-05-06_15h29.27.515,Main,2022.1.1,59.97059042279817,
negative,blue,2,None,k,,,,,,,,,0,198,198,198,,,,,,,,,,,,,,,,,,,,,,,,,,,,,,,,,,,,,main,None,None,1,1.5012907999989693,665.7204812,None,None,1,,,,,,,,,,,,,,212,23,Female,2022-05-06_15h29.27.515,Main,2022.1.1,59.97059042279817,
negative,blue,2,None,k,,,,,,,,,0,199,199,199,,,,,,,,,,,,,,,,,,,,,,,,,,,,,,,,,,,,,main,None,None,1,1.4950218000012683,668.2262998999995,None,None,1,,,,,,,,,,,,,,212,23,Female,2022-05-06_15h29.27.515,Main,2022.1.1,59.97059042279817,
positive,blue,2,k,None,,,,,,,,,0,200,200,200,,,,,,,,,,,,,,,,,,,,,,,,,,,,,,,,,,,,,main,k,k,1,0.7500746000005165,670.7198845000003,None,None,0,,,,,,,,,,,,,,212,23,Female,2022-05-06_15h29.27.515,Main,2022.1.1,59.97059042279817,
positive,blue,2,k,None,,,,,,,,,0,201,201,201,,,,,,,,,,,,,,,,,,,,,,,,,,,,,,,,,,,,,main,k,k,1,0.9474133999992773,672.4717373000003,None,None,0,,,,,,,,,,,,,,212,23,Female,2022-05-06_15h29.27.515,Main,2022.1.1,59.97059042279817,
negative,yellow,2,k,None,,,,,,,,,0,202,202,202,,,,,,,,,,,,,,,,,,,,,,,,,,,,,,,,,,,,,main,k,k,1,0.8150038000003406,674.4202848999994,None,None,0,,,,,,,,,,,,,,212,23,Female,2022-05-06_15h29.27.515,Main,2022.1.1,59.97059042279817,
positive,red,1,None,None,,,,,,,,,0,203,203,203,,,,,,,,,,,,,,,,,,,,,,,,,,,,,,,,,,,,,main,None,None,1,1.5019775000000664,676.2406441000003,None,None,1,,,,,,,,,,,,,,212,23,Female,2022-05-06_15h29.27.515,Main,2022.1.1,59.97059042279817,
negative,blue,2,None,k,,,,,,,,,0,204,204,204,,,,,,,,,,,,,,,,,,,,,,,,,,,,,,,,,,,,,main,None,None,1,1.4927985000012995,678.743148399999,None,None,1,,,,,,,,,,,,,,212,23,Female,2022-05-06_15h29.27.515,Main,2022.1.1,59.97059042279817,
negative,red,1,None,None,,,,,,,,,0,205,205,205,,,,,,,,,,,,,,,,,,,,,,,,,,,,,,,,,,,,,main,None,None,1,1.4991969000002427,681.2377892999993,None,None,1,,,,,,,,,,,,,,212,23,Female,2022-05-06_15h29.27.515,Main,2022.1.1,59.97059042279817,
negative,blue,2,None,k,,,,,,,,,0,206,206,206,,,,,,,,,,,,,,,,,,,,,,,,,,,,,,,,,,,,,main,None,None,1,1.4970178000003216,683.7361776999987,None,None,1,,,,,,,,,,,,,,212,23,Female,2022-05-06_15h29.27.515,Main,2022.1.1,59.97059042279817,
negative,yellow,2,k,None,,,,,,,,,0,207,207,207,,,,,,,,,,,,,,,,,,,,,,,,,,,,,,,,,,,,,main,k,k,1,0.8766931999998633,686.2347325999999,None,None,0,,,,,,,,,,,,,,212,23,Female,2022-05-06_15h29.27.515,Main,2022.1.1,59.97059042279817,
positive,yellow,2,None,k,,,,,,,,,0,208,208,208,,,,,,,,,,,,,,,,,,,,,,,,,,,,,,,,,,,,,main,None,None,1,1.501182299998618,688.1158546999995,None,None,1,,,,,,,,,,,,,,212,23,Female,2022-05-06_15h29.27.515,Main,2022.1.1,59.97059042279817,
negative,yellow,1,k,None,,,,,,,,,0,209,209,209,,,,,,,,,,,,,,,,,,,,,,,,,,,,,,,,,,,,,main,k,k,1,0.9207105000004958,690.6185822999996,None,None,0,,,,,,,,,,,,,,212,23,Female,2022-05-06_15h29.27.515,Main,2022.1.1,59.97059042279817,
negative,red,2,None,None,,,,,,,,,0,210,210,210,,,,,,,,,,,,,,,,,,,,,,,,,,,,,,,,,,,,,main,None,None,1,1.5076618000002782,692.5437076999988,None,None,1,,,,,,,,,,,,,,212,23,Female,2022-05-06_15h29.27.515,Main,2022.1.1,59.97059042279817,
negative,blue,1,None,k,,,,,,,,,0,211,211,211,,,,,,,,,,,,,,,,,,,,,,,,,,,,,,,,,,,,,main,None,None,1,1.498857800001133,695.0501203000003,None,None,1,,,,,,,,,,,,,,212,23,Female,2022-05-06_15h29.27.515,Main,2022.1.1,59.97059042279817,
negative,yellow,1,k,None,,,,,,,,,0,212,212,212,,,,,,,,,,,,,,,,,,,,,,,,,,,,,,,,,,,,,main,k,k,1,0.9436738999993395,697.5501244999996,None,None,0,,,,,,,,,,,,,,212,23,Female,2022-05-06_15h29.27.515,Main,2022.1.1,59.97059042279817,
positive,blue,1,k,None,,,,,,,,,0,213,213,213,,,,,,,,,,,,,,,,,,,,,,,,,,,,,,,,,,,,,main,k,k,1,0.7848747000007279,699.4974499999989,None,None,0,,,,,,,,,,,,,,212,23,Female,2022-05-06_15h29.27.515,Main,2022.1.1,59.97059042279817,
positive,blue,1,k,None,,,,,,,,,0,214,214,214,,,,,,,,,,,,,,,,,,,,,,,,,,,,,,,,,,,,,main,k,k,1,0.648332599999776,701.2866455000003,None,None,0,,,,,,,,,,,,,,212,23,Female,2022-05-06_15h29.27.515,Main,2022.1.1,59.97059042279817,
positive,yellow,1,None,k,,,,,,,,,0,215,215,215,,,,,,,,,,,,,,,,,,,,,,,,,,,,,,,,,,,,,main,None,None,1,1.4976475999992545,702.9342183999997,None,None,1,,,,,,,,,,,,,,212,23,Female,2022-05-06_15h29.27.515,Main,2022.1.1,59.97059042279817,
positive,yellow,1,None,k,,,,,,,,,0,216,216,216,,,,,,,,,,,,,,,,,,,,,,,,,,,,,,,,,,,,,main,None,None,1,1.5136784999995143,705.4343665999986,None,None,1,,,,,,,,,,,,,,212,23,Female,2022-05-06_15h29.27.515,Main,2022.1.1,59.97059042279817,
positive,yellow,2,None,k,,,,,,,,,0,217,217,217,,,,,,,,,,,,,,,,,,,,,,,,,,,,,,,,,,,,,main,None,None,1,1.4983685999995942,707.9484550999987,None,None,1,,,,,,,,,,,,,,212,23,Female,2022-05-06_15h29.27.515,Main,2022.1.1,59.97059042279817,
negative,blue,1,None,k,,,,,,,,,0,218,218,218,,,,,,,,,,,,,,,,,,,,,,,,,,,,,,,,,,,,,main,None,None,1,1.4991019999997661,710.4508441999988,None,None,1,,,,,,,,,,,,,,212,23,Female,2022-05-06_15h29.27.515,Main,2022.1.1,59.97059042279817,
positive,red,2,None,None,,,,,,,,,0,219,219,219,,,,,,,,,,,,,,,,,,,,,,,,,,,,,,,,,,,,,main,None,None,1,1.5074539999986882,712.9486954999993,None,None,1,,,,,,,,,,,,,,212,23,Female,2022-05-06_15h29.27.515,Main,2022.1.1,59.97059042279817,
positive,yellow,1,None,k,,,,,,,,,0,220,220,220,,,,,,,,,,,,,,,,,,,,,,,,,,,,,,,,,,,,,main,None,None,1,1.5012165000007371,715.4594560999994,None,None,1,,,,,,,,,,,,,,212,23,Female,2022-05-06_15h29.27.515,Main,2022.1.1,59.97059042279817,
positive,blue,1,k,None,,,,,,,,,0,221,221,221,,,,,,,,,,,,,,,,,,,,,,,,,,,,,,,,,,,,,main,k,k,1,1.3665259000008518,717.9623386000003,None,None,0,,,,,,,,,,,,,,212,23,Female,2022-05-06_15h29.27.515,Main,2022.1.1,59.97059042279817,
positive,yellow,2,None,k,,,,,,,,,0,222,222,222,,,,,,,,,,,,,,,,,,,,,,,,,,,,,,,,,,,,,main,None,None,1,1.5038757000002079,720.330372299999,None,None,1,,,,,,,,,,,,,,212,23,Female,2022-05-06_15h29.27.515,Main,2022.1.1,59.97059042279817,
negative,yellow,1,k,None,,,,,,,,,0,223,223,223,,,,,,,,,,,,,,,,,,,,,,,,,,,,,,,,,,,,,main,k,k,1,0.7764231000001018,722.8394757999995,None,None,0,,,,,,,,,,,,,,212,23,Female,2022-05-06_15h29.27.515,Main,2022.1.1,59.97059042279817,
positive,yellow,2,None,k,,,,,,,,,0,224,224,224,,,,,,,,,,,,,,,,,,,,,,,,,,,,,,,,,,,,,main,None,None,1,1.5105722999996942,724.6158130000003,None,None,1,,,,,,,,,,,,,,212,23,Female,2022-05-06_15h29.27.515,Main,2022.1.1,59.97059042279817,
negative,yellow,2,k,None,,,,,,,,,0,225,225,225,,,,,,,,,,,,,,,,,,,,,,,,,,,,,,,,,,,,,main,k,k,1,1.0068900999995094,727.1280981,None,None,0,,,,,,,,,,,,,,212,23,Female,2022-05-06_15h29.27.515,Main,2022.1.1,59.97059042279817,
negative,blue,2,None,k,,,,,,,,,0,226,226,226,,,,,,,,,,,,,,,,,,,,,,,,,,,,,,,,,,,,,main,None,None,1,1.5066409000010026,729.1383100999992,None,None,1,,,,,,,,,,,,,,212,23,Female,2022-05-06_15h29.27.515,Main,2022.1.1,59.97059042279817,
positive,red,2,None,None,,,,,,,,,0,227,227,227,,,,,,,,,,,,,,,,,,,,,,,,,,,,,,,,,,,,,main,None,None,1,1.511978699998508,731.6447642999992,None,None,1,,,,,,,,,,,,,,212,23,Female,2022-05-06_15h29.27.515,Main,2022.1.1,59.97059042279817,
positive,blue,2,k,None,,,,,,,,,0,228,228,228,,,,,,,,,,,,,,,,,,,,,,,,,,,,,,,,,,,,,main,k,k,1,1.3668832999992446,734.1605523999988,None,None,0,,,,,,,,,,,,,,212,23,Female,2022-05-06_15h29.27.515,Main,2022.1.1,59.97059042279817,
negative,blue,1,None,k,,,,,,,,,0,229,229,229,,,,,,,,,,,,,,,,,,,,,,,,,,,,,,,,,,,,,main,None,None,1,1.4983371000016632,736.5309005999989,None,None,1,,,,,,,,,,,,,,212,23,Female,2022-05-06_15h29.27.515,Main,2022.1.1,59.97059042279817,
positive,yellow,1,None,k,,,,,,,,,0,230,230,230,,,,,,,,,,,,,,,,,,,,,,,,,,,,,,,,,,,,,main,None,None,1,1.5129343999997218,739.0313272000003,None,None,1,,,,,,,,,,,,,,212,23,Female,2022-05-06_15h29.27.515,Main,2022.1.1,59.97059042279817,
negative,blue,2,None,k,,,,,,,,,0,231,231,231,,,,,,,,,,,,,,,,,,,,,,,,,,,,,,,,,,,,,main,None,None,1,1.5144514000003255,741.5432727999996,None,None,1,,,,,,,,,,,,,,212,23,Female,2022-05-06_15h29.27.515,Main,2022.1.1,59.97059042279817,
negative,red,1,None,None,,,,,,,,,0,232,232,232,,,,,,,,,,,,,,,,,,,,,,,,,,,,,,,,,,,,,main,None,None,1,1.4983660000016243,744.0585114999994,None,None,1,,,,,,,,,,,,,,212,23,Female,2022-05-06_15h29.27.515,Main,2022.1.1,59.97059042279817,
positive,blue,2,k,None,,,,,,,,,0,233,233,233,,,,,,,,,,,,,,,,,,,,,,,,,,,,,,,,,,,,,main,k,k,1,1.367219899999327,746.5590722999987,None,None,0,,,,,,,,,,,,,,212,23,Female,2022-05-06_15h29.27.515,Main,2022.1.1,59.97059042279817,
negative,yellow,1,k,None,,,,,,,,,0,234,234,234,,,,,,,,,,,,,,,,,,,,,,,,,,,,,,,,,,,,,main,k,k,1,1.1479094000005716,748.928210099999,None,None,0,,,,,,,,,,,,,,212,23,Female,2022-05-06_15h29.27.515,Main,2022.1.1,59.97059042279817,
negative,yellow,2,k,None,,,,,,,,,0,235,235,235,,,,,,,,,,,,,,,,,,,,,,,,,,,,,,,,,,,,,main,k,k,1,0.859298299999864,751.0778312999992,None,None,0,,,,,,,,,,,,,,212,23,Female,2022-05-06_15h29.27.515,Main,2022.1.1,59.97059042279817,
positive,red,1,None,None,,,,,,,,,0,236,236,236,,,,,,,,,,,,,,,,,,,,,,,,,,,,,,,,,,,,,main,None,None,1,1.499747000001662,752.9426511999991,None,None,1,,,,,,,,,,,,,,212,23,Female,2022-05-06_15h29.27.515,Main,2022.1.1,59.97059042279817,
negative,red,2,None,None,,,,,,,,,0,237,237,237,,,,,,,,,,,,,,,,,,,,,,,,,,,,,,,,,,,,,main,None,None,1,1.505280200000925,755.4414951999988,None,None,1,,,,,,,,,,,,,,212,23,Female,2022-05-06_15h29.27.515,Main,2022.1.1,59.97059042279817,
negative,blue,1,None,k,,,,,,,,,0,238,238,238,,,,,,,,,,,,,,,,,,,,,,,,,,,,,,,,,,,,,main,None,None,1,1.501174400000309,757.9503857,None,None,1,,,,,,,,,,,,,,212,23,Female,2022-05-06_15h29.27.515,Main,2022.1.1,59.97059042279817,
positive,blue,1,k,None,,,,,,,,,0,239,239,239,,,,,,,,,,,,,,,,,,,,,,,,,,,,,,,,,,,,,main,k,k,1,1.3731391000001167,760.4527146,None,None,0,,,,,,,,,,,,,,212,23,Female,2022-05-06_15h29.27.515,Main,2022.1.1,59.97059042279817,
,,,,,,,,,,,,,,,,,,,,,,,,,,,,,,,,,,,,,,,,,,,,,,,,,,,,,,,,,,,,,,,,,,,,,,,,,762.8154409999988,None,,,,,,,,
