distractor,target,set,ans1,ans2,rep_loop4.thisRepN,rep_loop4.thisTrialN,rep_loop4.thisN,rep_loop4.thisIndex,st2_prac_loop.thisRepN,st2_prac_loop.thisTrialN,st2_prac_loop.thisN,st2_prac_loop.thisIndex,st2_main_loop.thisRepN,st2_main_loop.thisTrialN,st2_main_loop.thisN,st2_main_loop.thisIndex,image_4.started,image_4.stopped,mouse_7.x,mouse_7.y,mouse_7.leftButton,mouse_7.midButton,mouse_7.rightButton,sound_2.started,sound_2.stopped,key_resp_3.keys,mouse_5.x,mouse_5.y,mouse_5.leftButton,mouse_5.midButton,mouse_5.rightButton,mouse_5.started,mouse_5.stopped,yes_text2.started,yes_text2.stopped,no_text2.started,no_text2.stopped,mouse_3.x,mouse_3.y,mouse_3.leftButton,mouse_3.midButton,mouse_3.rightButton,mouse_3.started,mouse_3.stopped,st_prac_back.started,st_prac_back.stopped,st_prac_text.started,st_prac_text.stopped,st_fix_back.started,st_fix_back.stopped,st_fix_2.started,st_fix_2.stopped,main_prac,st_ans,st_res,st_corr,st_rt,st_back.started,st_back.stopped,st2_resp.keys,st2_resp.corr,st_main_back.started,st_main_back.stopped,st_main_text.started,st_main_text.stopped,mouse_4.x,mouse_4.y,mouse_4.leftButton,mouse_4.midButton,mouse_4.rightButton,mouse_4.started,mouse_4.stopped,text_2.started,text_2.stopped,id*,age*,gender*,date,expName,psychopyVersion,frameRate,
,,,,,,,,,,,,,,,,,32.84211090000008,None,0.08148148,-0.20555556,0,0,0,,,,,,,,,,,,,,,,,,,,,,,,,,,,,,,,,,,,,,,,,,,,,,,,,,,,213,24,Female,2022-05-10_13h52.22.625,Main,2022.1.1,60.028729750110074,
negative,yellow,1,k,None,,,,,0,0,0,0,,,,,,,,,,,,47.05184654999996,None,None,0.015740741,-0.35,0,0,0,1.0084234500000093,None,102.04472009999995,None,102.04472009999995,None,-0.09259259,-0.09351852,0,0,0,0.012503550000246832,None,104.13507920000006,None,104.13507920000006,None,106.14443099999994,None,106.14443099999994,None,prac,None,None,1,1.5032703000001675,108.1893536,None,None,1,,,,,,,,,,,,,,213,24,Female,2022-05-10_13h52.22.625,Main,2022.1.1,60.028729750110074,
positive,red,2,None,None,,,,,0,1,1,1,,,,,,,,,,,,,,,,,,,,,,,,,,,,,,,,,,,,,,,,,prac,None,None,1,1.502271300000075,110.68276059999994,None,None,1,,,,,,,,,,,,,,213,24,Female,2022-05-10_13h52.22.625,Main,2022.1.1,60.028729750110074,
negative,blue,2,None,k,,,,,0,2,2,2,,,,,,,,,,,,,,,,,,,,,,,,,,,,,,,,,,,,,,,,,prac,k,k,1,6.116617500000075,113.18590500000005,None,None,0,,,,,,,,,,,,,,213,24,Female,2022-05-10_13h52.22.625,Main,2022.1.1,60.028729750110074,
positive,yellow,1,None,k,,,,,0,3,3,3,,,,,,,,,,,,,,,,,,,,,,,,,,,,,,,,,,,,,,,,,prac,k,k,1,1.5484232000001157,121.33790590000012,None,None,0,,,,,,,,,,,,,,213,24,Female,2022-05-10_13h52.22.625,Main,2022.1.1,60.028729750110074,
negative,blue,2,None,k,,,,,0,4,4,4,,,,,,,,,,,,,,,,,,,,,,,,,,,,,,,,,,,,,,,,,prac,k,k,1,2.9413079000000835,124.88788990000012,None,None,0,,,,,,,,,,,,,,213,24,Female,2022-05-10_13h52.22.625,Main,2022.1.1,60.028729750110074,
negative,blue,1,None,k,,,,,0,5,5,5,,,,,,,,,,,,,,,,,,,,,,,,,,,,,,,,,,,,,,,,,prac,k,k,1,0.8041449999998349,129.83714499999996,None,None,0,,,,,,,,,,,,,,213,24,Female,2022-05-10_13h52.22.625,Main,2022.1.1,60.028729750110074,
negative,yellow,2,k,None,,,,,0,6,6,6,,,,,,,,,,,,,,,,,,,,,,,,,,,,,,,,,,,,,,,,,prac,None,None,1,1.4994251000000531,131.63351519999992,None,None,1,,,,,,,,,,,,,,213,24,Female,2022-05-10_13h52.22.625,Main,2022.1.1,60.028729750110074,
negative,red,1,None,None,,,,,0,7,7,7,,,,,,,,,,,,,,,,,,,,,,,,,,,,,,,,,,,,,,,,,prac,None,None,1,1.5060521000000335,134.1330809000001,None,None,1,,,,,,,,,,,,,,213,24,Female,2022-05-10_13h52.22.625,Main,2022.1.1,60.028729750110074,
positive,yellow,2,None,k,,,,,0,8,8,8,,,,,,,,,,,,,,,,,,,,,,,,,,,,,,,,,,,,,,,,,prac,k,k,1,0.7728627999999844,136.63934910000012,None,None,0,,,,,,,,,,,,,,213,24,Female,2022-05-10_13h52.22.625,Main,2022.1.1,60.028729750110074,
negative,yellow,1,k,None,,,,,0,9,9,9,,,,,,,,,,,,,,,,,,,,,,,,,,,,,,,,,,,,,,,,,prac,None,None,1,1.4993551000000025,138.41625790000012,None,None,1,,,,,,,,,,,,,,213,24,Female,2022-05-10_13h52.22.625,Main,2022.1.1,60.028729750110074,
positive,yellow,2,None,k,,,,,0,10,10,10,,,,,,,,,,,,,,,,,,,,,,,,,,,,,,,,,,,,,,,,,prac,k,k,1,0.800172300000213,140.9162933,None,None,0,,,,,,,,,,,,,,213,24,Female,2022-05-10_13h52.22.625,Main,2022.1.1,60.028729750110074,
negative,yellow,2,k,None,,,,,0,11,11,11,,,,,,,,,,,,,,,,,,,,,,,,,,,,,,,,,,,,,,,,,prac,None,None,1,1.4989525999999387,142.71822270000007,None,None,1,,,,,,,,,,,,,,213,24,Female,2022-05-10_13h52.22.625,Main,2022.1.1,60.028729750110074,
negative,red,2,None,None,,,,,0,12,12,12,,,,,,,,,,,,,,,,,,,,,,,,,,,,,,,,,,,,,,,,,prac,None,None,1,1.4969265999998242,145.2188982,None,None,1,,,,,,,,,,,,,,213,24,Female,2022-05-10_13h52.22.625,Main,2022.1.1,60.028729750110074,
positive,red,1,None,None,,,,,0,13,13,13,,,,,,,,,,,,,,,,,,,,,,,,,,,,,,,,,,,,,,,,,prac,None,None,1,1.5008050999999796,147.7175697,None,None,1,,,,,,,,,,,,,,213,24,Female,2022-05-10_13h52.22.625,Main,2022.1.1,60.028729750110074,
positive,blue,2,k,None,,,,,0,14,14,14,,,,,,,,,,,,,,,,,,,,,,,,,,,,,,,,,,,,,,,,,prac,None,None,1,1.5011156000000483,150.22031040000002,None,None,1,,,,,,,,,,,,,,213,24,Female,2022-05-10_13h52.22.625,Main,2022.1.1,60.028729750110074,
positive,blue,1,k,None,,,,,0,15,15,15,,,,,,,,,,,,,,,,,,,,,,,,,,,,,,,,,,,,,,,,,prac,None,None,1,1.4963694000000487,152.72310820000007,None,None,1,,,,,,,,,,,,,,213,24,Female,2022-05-10_13h52.22.625,Main,2022.1.1,60.028729750110074,
negative,blue,1,None,k,,,,,0,16,16,16,,,,,,,,,,,,,,,,,,,,,,,,,,,,,,,,,,,,,,,,,prac,k,k,1,0.7061440999998467,155.22112199999992,None,None,0,,,,,,,,,,,,,,213,24,Female,2022-05-10_13h52.22.625,Main,2022.1.1,60.028729750110074,
positive,blue,2,k,None,,,,,0,17,17,17,,,,,,,,,,,,,,,,,,,,,,,,,,,,,,,,,,,,,,,,,prac,None,None,1,1.5030430000001616,156.9308117999999,None,None,1,,,,,,,,,,,,,,213,24,Female,2022-05-10_13h52.22.625,Main,2022.1.1,60.028729750110074,
positive,blue,1,k,None,,,,,0,18,18,18,,,,,,,,,,,,,,,,,,,,,,,,,,,,,,,,,,,,,,,,,prac,None,None,1,1.5042212999999265,159.4450698999999,None,None,1,,,,,,,,,,,,,,213,24,Female,2022-05-10_13h52.22.625,Main,2022.1.1,60.028729750110074,
positive,yellow,1,None,k,,,,,0,19,19,19,,,,,,,,,,,,,,,,,,,,,,,,,,,,,,,,,,,,,,,,,prac,k,k,1,0.8599269999999706,161.94155890000002,None,None,0,,,,,,,,,,,,,,213,24,Female,2022-05-10_13h52.22.625,Main,2022.1.1,60.028729750110074,
negative,yellow,1,k,None,,,,,1,0,20,0,,,,,,,,,,,,,,,,,,,,,,,,,,,,,,,,,,,,,,,,,prac,None,None,1,1.5008252000000084,163.80265409999993,None,None,1,,,,,,,,,,,,,,213,24,Female,2022-05-10_13h52.22.625,Main,2022.1.1,60.028729750110074,
positive,red,2,None,None,,,,,1,1,21,1,,,,,,,,,,,,,,,,,,,,,,,,,,,,,,,,,,,,,,,,,prac,None,None,1,1.511294399999997,166.31561570000008,None,None,1,,,,,,,,,,,,,,213,24,Female,2022-05-10_13h52.22.625,Main,2022.1.1,60.028729750110074,
negative,blue,2,None,k,,,,,1,2,22,2,,,,,,,,,,,,,,,,,,,,,,,,,,,,,,,,,,,,,,,,,prac,k,k,1,0.7905802000000222,168.81799490000003,None,None,0,,,,,,,,,,,,,,213,24,Female,2022-05-10_13h52.22.625,Main,2022.1.1,60.028729750110074,
positive,yellow,1,None,k,,,,,1,3,23,3,,,,,,,,,,,,,,,,,,,,,,,,,,,,,,,,,,,,,,,,,prac,k,k,1,0.7790308999999525,170.6123308000001,None,None,0,,,,,,,,,,,,,,213,24,Female,2022-05-10_13h52.22.625,Main,2022.1.1,60.028729750110074,
negative,blue,2,None,k,,,,,1,4,24,4,,,,,,,,,,,,,,,,,,,,,,,,,,,,,,,,,,,,,,,,,prac,k,k,1,0.7181001999999808,172.39277519999996,None,None,0,,,,,,,,,,,,,,213,24,Female,2022-05-10_13h52.22.625,Main,2022.1.1,60.028729750110074,
negative,blue,1,None,k,,,,,1,5,25,5,,,,,,,,,,,,,,,,,,,,,,,,,,,,,,,,,,,,,,,,,prac,k,k,1,0.8759966000000077,174.11225179999997,None,None,0,,,,,,,,,,,,,,213,24,Female,2022-05-10_13h52.22.625,Main,2022.1.1,60.028729750110074,
negative,yellow,2,k,None,,,,,1,6,26,6,,,,,,,,,,,,,,,,,,,,,,,,,,,,,,,,,,,,,,,,,prac,None,None,1,1.511640099999795,175.99042450000002,None,None,1,,,,,,,,,,,,,,213,24,Female,2022-05-10_13h52.22.625,Main,2022.1.1,60.028729750110074,
negative,red,1,None,None,,,,,1,7,27,7,,,,,,,,,,,,,,,,,,,,,,,,,,,,,,,,,,,,,,,,,prac,None,None,1,1.497535199999902,178.50151899999992,None,None,1,,,,,,,,,,,,,,213,24,Female,2022-05-10_13h52.22.625,Main,2022.1.1,60.028729750110074,
positive,yellow,2,None,k,,,,,1,8,28,8,,,,,,,,,,,,,,,,,,,,,,,,,,,,,,,,,,,,,,,,,prac,k,k,1,0.6596729000000323,181.00019659999998,None,None,0,,,,,,,,,,,,,,213,24,Female,2022-05-10_13h52.22.625,Main,2022.1.1,60.028729750110074,
negative,yellow,1,k,None,,,,,1,9,29,9,,,,,,,,,,,,,,,,,,,,,,,,,,,,,,,,,,,,,,,,,prac,None,None,1,1.4953942999998162,182.66291569999999,None,None,1,,,,,,,,,,,,,,213,24,Female,2022-05-10_13h52.22.625,Main,2022.1.1,60.028729750110074,
positive,yellow,2,None,k,,,,,1,10,30,10,,,,,,,,,,,,,,,,,,,,,,,,,,,,,,,,,,,,,,,,,prac,k,k,1,0.6424211999999443,185.16003760000012,None,None,0,,,,,,,,,,,,,,213,24,Female,2022-05-10_13h52.22.625,Main,2022.1.1,60.028729750110074,
negative,yellow,2,k,None,,,,,1,11,31,11,,,,,,,,,,,,,,,,,,,,,,,,,,,,,,,,,,,,,,,,,prac,None,None,1,1.5064288000000943,186.80279210000003,None,None,1,,,,,,,,,,,,,,213,24,Female,2022-05-10_13h52.22.625,Main,2022.1.1,60.028729750110074,
negative,red,2,None,None,,,,,1,12,32,12,,,,,,,,,,,,,,,,,,,,,,,,,,,,,,,,,,,,,,,,,prac,None,None,1,1.50375310000004,189.31189999999992,None,None,1,,,,,,,,,,,,,,213,24,Female,2022-05-10_13h52.22.625,Main,2022.1.1,60.028729750110074,
positive,red,1,None,None,,,,,1,13,33,13,,,,,,,,,,,,,,,,,,,,,,,,,,,,,,,,,,,,,,,,,prac,None,None,1,1.4998364000000493,191.81618679999997,None,None,1,,,,,,,,,,,,,,213,24,Female,2022-05-10_13h52.22.625,Main,2022.1.1,60.028729750110074,
positive,blue,2,k,None,,,,,1,14,34,14,,,,,,,,,,,,,,,,,,,,,,,,,,,,,,,,,,,,,,,,,prac,None,None,1,1.4968685000001187,194.32008380000002,None,None,1,,,,,,,,,,,,,,213,24,Female,2022-05-10_13h52.22.625,Main,2022.1.1,60.028729750110074,
positive,blue,1,k,None,,,,,1,15,35,15,,,,,,,,,,,,,,,,,,,,,,,,,,,,,,,,,,,,,,,,,prac,None,None,1,1.4985226999999668,196.81573789999993,None,None,1,,,,,,,,,,,,,,213,24,Female,2022-05-10_13h52.22.625,Main,2022.1.1,60.028729750110074,
negative,blue,1,None,k,,,,,1,16,36,16,,,,,,,,,,,,,,,,,,,,,,,,,,,,,,,,,,,,,,,,,prac,k,k,1,0.6418699999999262,199.31669349999993,None,None,0,,,,,,,,,,,,,,213,24,Female,2022-05-10_13h52.22.625,Main,2022.1.1,60.028729750110074,
positive,blue,2,k,None,,,,,1,17,37,17,,,,,,,,,,,,,,,,,,,,,,,,,,,,,,,,,,,,,,,,,prac,None,None,1,1.5001440000000912,200.96095059999993,None,None,1,,,,,,,,,,,,,,213,24,Female,2022-05-10_13h52.22.625,Main,2022.1.1,60.028729750110074,
positive,blue,1,k,None,,,,,1,18,38,18,,,,,,,,,,,,,,,,,,,,,,,,,,,,,,,,,,,,,,,,,prac,None,None,1,1.5007653000000118,203.46276880000005,None,None,1,,,,,,,,,,,,,,213,24,Female,2022-05-10_13h52.22.625,Main,2022.1.1,60.028729750110074,
positive,yellow,1,None,k,,,,,1,19,39,19,,,,,,,,,,,,,,,,,,,,,,,,,,,,,,,,,,,,,,,,,prac,k,k,1,1.6335898999998335,205.96835170000008,None,None,0,,,,,,,,,,,,,,213,24,Female,2022-05-10_13h52.22.625,Main,2022.1.1,60.028729750110074,
,,,,,,,,,,,,,,,,,,,,,,,,,,,,,,,,,,,,,,,,,,,,,,,,,,,,,,,,,,,,,,209.6314096000001,None,209.6314096000001,None,0.09907407,-0.15277778,0,0,0,0.015966450000178156,None,,,213,24,Female,2022-05-10_13h52.22.625,Main,2022.1.1,60.028729750110074,
negative,yellow,2,k,None,,,,,,,,,0,0,0,0,,,,,,,,,,,,,,,,,,,,,,,,,,,,,,,,,212.8010392000001,None,212.8010392000001,None,main,None,None,1,1.5123367999999573,214.87008609999998,None,None,1,,,,,,,,,,,,,,213,24,Female,2022-05-10_13h52.22.625,Main,2022.1.1,60.028729750110074,
positive,red,1,None,None,,,,,,,,,0,1,1,1,,,,,,,,,,,,,,,,,,,,,,,,,,,,,,,,,,,,,main,None,None,1,1.5121745999999803,217.38702390000003,None,None,1,,,,,,,,,,,,,,213,24,Female,2022-05-10_13h52.22.625,Main,2022.1.1,60.028729750110074,
positive,blue,2,k,None,,,,,,,,,0,2,2,2,,,,,,,,,,,,,,,,,,,,,,,,,,,,,,,,,,,,,main,None,None,1,1.500565800000004,219.9009893,None,None,1,,,,,,,,,,,,,,213,24,Female,2022-05-10_13h52.22.625,Main,2022.1.1,60.028729750110074,
positive,blue,1,k,None,,,,,,,,,0,3,3,3,,,,,,,,,,,,,,,,,,,,,,,,,,,,,,,,,,,,,main,None,None,1,1.499195200000031,222.4026237999999,None,None,1,,,,,,,,,,,,,,213,24,Female,2022-05-10_13h52.22.625,Main,2022.1.1,60.028729750110074,
negative,yellow,2,k,None,,,,,,,,,0,4,4,4,,,,,,,,,,,,,,,,,,,,,,,,,,,,,,,,,,,,,main,None,None,1,1.4998542000000725,224.9032185000001,None,None,1,,,,,,,,,,,,,,213,24,Female,2022-05-10_13h52.22.625,Main,2022.1.1,60.028729750110074,
positive,yellow,2,None,k,,,,,,,,,0,5,5,5,,,,,,,,,,,,,,,,,,,,,,,,,,,,,,,,,,,,,main,k,k,1,0.690400999999838,227.404628,None,None,0,,,,,,,,,,,,,,213,24,Female,2022-05-10_13h52.22.625,Main,2022.1.1,60.028729750110074,
negative,blue,2,None,k,,,,,,,,,0,6,6,6,,,,,,,,,,,,,,,,,,,,,,,,,,,,,,,,,,,,,main,k,k,1,0.8210487999999714,229.09601780000003,None,None,0,,,,,,,,,,,,,,213,24,Female,2022-05-10_13h52.22.625,Main,2022.1.1,60.028729750110074,
positive,red,2,None,None,,,,,,,,,0,7,7,7,,,,,,,,,,,,,,,,,,,,,,,,,,,,,,,,,,,,,main,None,None,1,1.4970550000000458,230.92000910000002,None,None,1,,,,,,,,,,,,,,213,24,Female,2022-05-10_13h52.22.625,Main,2022.1.1,60.028729750110074,
positive,yellow,1,None,k,,,,,,,,,0,8,8,8,,,,,,,,,,,,,,,,,,,,,,,,,,,,,,,,,,,,,main,k,k,1,0.8385284999999385,233.41786109999998,None,None,0,,,,,,,,,,,,,,213,24,Female,2022-05-10_13h52.22.625,Main,2022.1.1,60.028729750110074,
negative,red,1,None,None,,,,,,,,,0,9,9,9,,,,,,,,,,,,,,,,,,,,,,,,,,,,,,,,,,,,,main,None,None,1,1.511570699999993,235.2573969,None,None,1,,,,,,,,,,,,,,213,24,Female,2022-05-10_13h52.22.625,Main,2022.1.1,60.028729750110074,
positive,yellow,1,None,k,,,,,,,,,0,10,10,10,,,,,,,,,,,,,,,,,,,,,,,,,,,,,,,,,,,,,main,k,k,1,0.7601213000000371,237.7711749,None,None,0,,,,,,,,,,,,,,213,24,Female,2022-05-10_13h52.22.625,Main,2022.1.1,60.028729750110074,
negative,yellow,1,k,None,,,,,,,,,0,11,11,11,,,,,,,,,,,,,,,,,,,,,,,,,,,,,,,,,,,,,main,None,None,1,1.511465699999917,239.5322767,None,None,1,,,,,,,,,,,,,,213,24,Female,2022-05-10_13h52.22.625,Main,2022.1.1,60.028729750110074,
negative,yellow,1,k,None,,,,,,,,,0,12,12,12,,,,,,,,,,,,,,,,,,,,,,,,,,,,,,,,,,,,,main,None,None,1,1.508595699999887,242.04363590000003,None,None,1,,,,,,,,,,,,,,213,24,Female,2022-05-10_13h52.22.625,Main,2022.1.1,60.028729750110074,
negative,red,2,None,None,,,,,,,,,0,13,13,13,,,,,,,,,,,,,,,,,,,,,,,,,,,,,,,,,,,,,main,None,None,1,1.5003408000000036,244.55582619999996,None,None,1,,,,,,,,,,,,,,213,24,Female,2022-05-10_13h52.22.625,Main,2022.1.1,60.028729750110074,
positive,yellow,2,None,k,,,,,,,,,0,14,14,14,,,,,,,,,,,,,,,,,,,,,,,,,,,,,,,,,,,,,main,k,k,1,0.6530052999999043,247.0578883999999,None,None,0,,,,,,,,,,,,,,213,24,Female,2022-05-10_13h52.22.625,Main,2022.1.1,60.028729750110074,
positive,blue,1,k,None,,,,,,,,,0,15,15,15,,,,,,,,,,,,,,,,,,,,,,,,,,,,,,,,,,,,,main,None,None,1,1.5103873999998996,248.71423290000007,None,None,1,,,,,,,,,,,,,,213,24,Female,2022-05-10_13h52.22.625,Main,2022.1.1,60.028729750110074,
negative,blue,1,None,k,,,,,,,,,0,16,16,16,,,,,,,,,,,,,,,,,,,,,,,,,,,,,,,,,,,,,main,k,k,1,0.6328703000001497,251.2247167999999,None,None,0,,,,,,,,,,,,,,213,24,Female,2022-05-10_13h52.22.625,Main,2022.1.1,60.028729750110074,
positive,blue,2,k,None,,,,,,,,,0,17,17,17,,,,,,,,,,,,,,,,,,,,,,,,,,,,,,,,,,,,,main,None,None,1,1.498073199999908,252.8591894000001,None,None,1,,,,,,,,,,,,,,213,24,Female,2022-05-10_13h52.22.625,Main,2022.1.1,60.028729750110074,
negative,blue,2,None,k,,,,,,,,,0,18,18,18,,,,,,,,,,,,,,,,,,,,,,,,,,,,,,,,,,,,,main,k,k,1,0.7782675999999356,255.35814929999992,None,None,0,,,,,,,,,,,,,,213,24,Female,2022-05-10_13h52.22.625,Main,2022.1.1,60.028729750110074,
negative,blue,1,None,k,,,,,,,,,0,19,19,19,,,,,,,,,,,,,,,,,,,,,,,,,,,,,,,,,,,,,main,k,k,1,0.878527499999791,257.1393485000001,None,None,0,,,,,,,,,,,,,,213,24,Female,2022-05-10_13h52.22.625,Main,2022.1.1,60.028729750110074,
negative,blue,1,None,k,,,,,,,,,0,20,20,20,,,,,,,,,,,,,,,,,,,,,,,,,,,,,,,,,,,,,main,k,k,1,0.6736183999998957,259.0213569,None,None,0,,,,,,,,,,,,,,213,24,Female,2022-05-10_13h52.22.625,Main,2022.1.1,60.028729750110074,
negative,blue,2,None,k,,,,,,,,,0,21,21,21,,,,,,,,,,,,,,,,,,,,,,,,,,,,,,,,,,,,,main,k,k,1,0.7492915000000266,260.6984198,None,None,0,,,,,,,,,,,,,,213,24,Female,2022-05-10_13h52.22.625,Main,2022.1.1,60.028729750110074,
negative,red,1,None,None,,,,,,,,,0,22,22,22,,,,,,,,,,,,,,,,,,,,,,,,,,,,,,,,,,,,,main,None,None,1,1.4962302999999793,262.4480315999999,None,None,1,,,,,,,,,,,,,,213,24,Female,2022-05-10_13h52.22.625,Main,2022.1.1,60.028729750110074,
positive,red,2,None,None,,,,,,,,,0,23,23,23,,,,,,,,,,,,,,,,,,,,,,,,,,,,,,,,,,,,,main,None,None,1,1.5086326999999073,264.9467453,None,None,1,,,,,,,,,,,,,,213,24,Female,2022-05-10_13h52.22.625,Main,2022.1.1,60.028729750110074,
negative,red,2,None,None,,,,,,,,,0,24,24,24,,,,,,,,,,,,,,,,,,,,,,,,,,,,,,,,,,,,,main,None,None,1,1.5036823000000368,267.4559382,None,None,1,,,,,,,,,,,,,,213,24,Female,2022-05-10_13h52.22.625,Main,2022.1.1,60.028729750110074,
positive,blue,2,k,None,,,,,,,,,0,25,25,25,,,,,,,,,,,,,,,,,,,,,,,,,,,,,,,,,,,,,main,None,None,1,1.4994314000000486,269.9628055999999,None,None,1,,,,,,,,,,,,,,213,24,Female,2022-05-10_13h52.22.625,Main,2022.1.1,60.028729750110074,
negative,yellow,1,k,None,,,,,,,,,0,26,26,26,,,,,,,,,,,,,,,,,,,,,,,,,,,,,,,,,,,,,main,None,None,1,1.4976513999999952,272.46367269999996,None,None,1,,,,,,,,,,,,,,213,24,Female,2022-05-10_13h52.22.625,Main,2022.1.1,60.028729750110074,
positive,blue,2,k,None,,,,,,,,,0,27,27,27,,,,,,,,,,,,,,,,,,,,,,,,,,,,,,,,,,,,,main,None,None,1,1.5010744999999588,274.9634268,None,None,1,,,,,,,,,,,,,,213,24,Female,2022-05-10_13h52.22.625,Main,2022.1.1,60.028729750110074,
negative,blue,2,None,k,,,,,,,,,0,28,28,28,,,,,,,,,,,,,,,,,,,,,,,,,,,,,,,,,,,,,main,k,k,1,0.7168189999999868,277.46469690000004,None,None,0,,,,,,,,,,,,,,213,24,Female,2022-05-10_13h52.22.625,Main,2022.1.1,60.028729750110074,
positive,red,1,None,None,,,,,,,,,0,29,29,29,,,,,,,,,,,,,,,,,,,,,,,,,,,,,,,,,,,,,main,None,None,1,1.5069614999999885,279.1833919999999,None,None,1,,,,,,,,,,,,,,213,24,Female,2022-05-10_13h52.22.625,Main,2022.1.1,60.028729750110074,
positive,blue,1,k,None,,,,,,,,,0,30,30,30,,,,,,,,,,,,,,,,,,,,,,,,,,,,,,,,,,,,,main,None,None,1,1.5140701000000263,281.6901831,None,None,1,,,,,,,,,,,,,,213,24,Female,2022-05-10_13h52.22.625,Main,2022.1.1,60.028729750110074,
positive,yellow,1,None,k,,,,,,,,,0,31,31,31,,,,,,,,,,,,,,,,,,,,,,,,,,,,,,,,,,,,,main,k,k,1,0.7327470000000176,284.2060662000001,None,None,0,,,,,,,,,,,,,,213,24,Female,2022-05-10_13h52.22.625,Main,2022.1.1,60.028729750110074,
negative,yellow,2,k,None,,,,,,,,,0,32,32,32,,,,,,,,,,,,,,,,,,,,,,,,,,,,,,,,,,,,,main,None,None,1,1.4957706000000144,285.9427277,None,None,1,,,,,,,,,,,,,,213,24,Female,2022-05-10_13h52.22.625,Main,2022.1.1,60.028729750110074,
negative,blue,1,None,k,,,,,,,,,0,33,33,33,,,,,,,,,,,,,,,,,,,,,,,,,,,,,,,,,,,,,main,k,k,1,0.6995649999998932,288.4379736000001,None,None,0,,,,,,,,,,,,,,213,24,Female,2022-05-10_13h52.22.625,Main,2022.1.1,60.028729750110074,
positive,blue,1,k,None,,,,,,,,,0,34,34,34,,,,,,,,,,,,,,,,,,,,,,,,,,,,,,,,,,,,,main,None,None,1,1.5076309000000947,290.1391679000001,None,None,1,,,,,,,,,,,,,,213,24,Female,2022-05-10_13h52.22.625,Main,2022.1.1,60.028729750110074,
negative,yellow,1,k,None,,,,,,,,,0,35,35,35,,,,,,,,,,,,,,,,,,,,,,,,,,,,,,,,,,,,,main,None,None,1,1.509241700000075,292.6491764,None,None,1,,,,,,,,,,,,,,213,24,Female,2022-05-10_13h52.22.625,Main,2022.1.1,60.028729750110074,
positive,yellow,2,None,k,,,,,,,,,0,36,36,36,,,,,,,,,,,,,,,,,,,,,,,,,,,,,,,,,,,,,main,k,k,1,0.7645639999998366,295.1609768999999,None,None,0,,,,,,,,,,,,,,213,24,Female,2022-05-10_13h52.22.625,Main,2022.1.1,60.028729750110074,
positive,yellow,2,None,k,,,,,,,,,0,37,37,37,,,,,,,,,,,,,,,,,,,,,,,,,,,,,,,,,,,,,main,k,k,1,0.6701273999999557,296.92818839999995,None,None,0,,,,,,,,,,,,,,213,24,Female,2022-05-10_13h52.22.625,Main,2022.1.1,60.028729750110074,
negative,yellow,2,k,None,,,,,,,,,0,38,38,38,,,,,,,,,,,,,,,,,,,,,,,,,,,,,,,,,,,,,main,None,None,1,1.5058217000000695,298.5987225000001,None,None,1,,,,,,,,,,,,,,213,24,Female,2022-05-10_13h52.22.625,Main,2022.1.1,60.028729750110074,
positive,yellow,1,None,k,,,,,,,,,0,39,39,39,,,,,,,,,,,,,,,,,,,,,,,,,,,,,,,,,,,,,main,k,k,1,0.7976650000000518,301.1063263000001,None,None,0,,,,,,,,,,,,,,213,24,Female,2022-05-10_13h52.22.625,Main,2022.1.1,60.028729750110074,
negative,yellow,2,k,None,,,,,,,,,0,40,40,40,,,,,,,,,,,,,,,,,,,,,,,,,,,,,,,,,,,,,main,None,None,1,1.5053067999999712,302.9033053999999,None,None,1,,,,,,,,,,,,,,213,24,Female,2022-05-10_13h52.22.625,Main,2022.1.1,60.028729750110074,
positive,blue,2,k,None,,,,,,,,,0,41,41,41,,,,,,,,,,,,,,,,,,,,,,,,,,,,,,,,,,,,,main,None,None,1,1.5101802000001499,305.4120396999999,None,None,1,,,,,,,,,,,,,,213,24,Female,2022-05-10_13h52.22.625,Main,2022.1.1,60.028729750110074,
positive,blue,2,k,None,,,,,,,,,0,42,42,42,,,,,,,,,,,,,,,,,,,,,,,,,,,,,,,,,,,,,main,None,None,1,1.5023484000000735,307.92457590000004,None,None,1,,,,,,,,,,,,,,213,24,Female,2022-05-10_13h52.22.625,Main,2022.1.1,60.028729750110074,
negative,blue,2,None,k,,,,,,,,,0,43,43,43,,,,,,,,,,,,,,,,,,,,,,,,,,,,,,,,,,,,,main,k,k,1,0.5868174999998246,310.4273344999999,None,None,0,,,,,,,,,,,,,,213,24,Female,2022-05-10_13h52.22.625,Main,2022.1.1,60.028729750110074,
negative,red,1,None,None,,,,,,,,,0,44,44,44,,,,,,,,,,,,,,,,,,,,,,,,,,,,,,,,,,,,,main,None,None,1,1.5001199999999244,312.01595440000006,None,None,1,,,,,,,,,,,,,,213,24,Female,2022-05-10_13h52.22.625,Main,2022.1.1,60.028729750110074,
negative,yellow,1,k,None,,,,,,,,,0,45,45,45,,,,,,,,,,,,,,,,,,,,,,,,,,,,,,,,,,,,,main,None,None,1,1.4968630000000758,314.51804429999993,None,None,1,,,,,,,,,,,,,,213,24,Female,2022-05-10_13h52.22.625,Main,2022.1.1,60.028729750110074,
negative,yellow,1,k,None,,,,,,,,,0,46,46,46,,,,,,,,,,,,,,,,,,,,,,,,,,,,,,,,,,,,,main,None,None,1,1.5099056000001383,317.0156892,None,None,1,,,,,,,,,,,,,,213,24,Female,2022-05-10_13h52.22.625,Main,2022.1.1,60.028729750110074,
positive,red,1,None,None,,,,,,,,,0,47,47,47,,,,,,,,,,,,,,,,,,,,,,,,,,,,,,,,,,,,,main,None,None,1,1.505188999999973,319.52931149999995,None,None,1,,,,,,,,,,,,,,213,24,Female,2022-05-10_13h52.22.625,Main,2022.1.1,60.028729750110074,
positive,yellow,1,None,k,,,,,,,,,0,48,48,48,,,,,,,,,,,,,,,,,,,,,,,,,,,,,,,,,,,,,main,k,k,1,0.6510977000000366,322.0342728999999,None,None,0,,,,,,,,,,,,,,213,24,Female,2022-05-10_13h52.22.625,Main,2022.1.1,60.028729750110074,
negative,blue,1,None,k,,,,,,,,,0,49,49,49,,,,,,,,,,,,,,,,,,,,,,,,,,,,,,,,,,,,,main,k,k,1,0.67921269999988,323.6887541000001,None,None,0,,,,,,,,,,,,,,213,24,Female,2022-05-10_13h52.22.625,Main,2022.1.1,60.028729750110074,
positive,yellow,2,None,k,,,,,,,,,0,50,50,50,,,,,,,,,,,,,,,,,,,,,,,,,,,,,,,,,,,,,main,k,k,1,0.8318080000001373,325.3678643999999,None,None,0,,,,,,,,,,,,,,213,24,Female,2022-05-10_13h52.22.625,Main,2022.1.1,60.028729750110074,
negative,blue,1,None,k,,,,,,,,,0,51,51,51,,,,,,,,,,,,,,,,,,,,,,,,,,,,,,,,,,,,,main,k,k,1,0.6766000000000076,327.2033292000001,None,None,0,,,,,,,,,,,,,,213,24,Female,2022-05-10_13h52.22.625,Main,2022.1.1,60.028729750110074,
positive,red,2,None,None,,,,,,,,,0,52,52,52,,,,,,,,,,,,,,,,,,,,,,,,,,,,,,,,,,,,,main,None,None,1,1.5079359999999724,328.8801896,None,None,1,,,,,,,,,,,,,,213,24,Female,2022-05-10_13h52.22.625,Main,2022.1.1,60.028729750110074,
positive,yellow,2,None,k,,,,,,,,,0,53,53,53,,,,,,,,,,,,,,,,,,,,,,,,,,,,,,,,,,,,,main,k,k,1,0.7790623000000778,331.39193980000005,None,None,0,,,,,,,,,,,,,,213,24,Female,2022-05-10_13h52.22.625,Main,2022.1.1,60.028729750110074,
negative,red,2,None,None,,,,,,,,,0,54,54,54,,,,,,,,,,,,,,,,,,,,,,,,,,,,,,,,,,,,,main,None,None,1,1.5018295999998372,333.1729223,None,None,1,,,,,,,,,,,,,,213,24,Female,2022-05-10_13h52.22.625,Main,2022.1.1,60.028729750110074,
positive,yellow,1,None,k,,,,,,,,,0,55,55,55,,,,,,,,,,,,,,,,,,,,,,,,,,,,,,,,,,,,,main,k,k,1,0.7754718999999568,335.6754691000001,None,None,0,,,,,,,,,,,,,,213,24,Female,2022-05-10_13h52.22.625,Main,2022.1.1,60.028729750110074,
negative,blue,2,None,k,,,,,,,,,0,56,56,56,,,,,,,,,,,,,,,,,,,,,,,,,,,,,,,,,,,,,main,k,k,1,0.7190476999999191,337.4531022000001,None,None,0,,,,,,,,,,,,,,213,24,Female,2022-05-10_13h52.22.625,Main,2022.1.1,60.028729750110074,
positive,blue,1,k,None,,,,,,,,,0,57,57,57,,,,,,,,,,,,,,,,,,,,,,,,,,,,,,,,,,,,,main,None,None,1,1.5081665000000157,339.1734177000001,None,None,1,,,,,,,,,,,,,,213,24,Female,2022-05-10_13h52.22.625,Main,2022.1.1,60.028729750110074,
positive,blue,1,k,None,,,,,,,,,0,58,58,58,,,,,,,,,,,,,,,,,,,,,,,,,,,,,,,,,,,,,main,None,None,1,1.4981138999999075,341.68386710000004,None,None,1,,,,,,,,,,,,,,213,24,Female,2022-05-10_13h52.22.625,Main,2022.1.1,60.028729750110074,
negative,yellow,2,k,None,,,,,,,,,0,59,59,59,,,,,,,,,,,,,,,,,,,,,,,,,,,,,,,,,,,,,main,None,k,0,0.5711963999999625,344.1814684000001,None,None,1,,,,,,,,,,,,,,213,24,Female,2022-05-10_13h52.22.625,Main,2022.1.1,60.028729750110074,
positive,red,2,None,None,,,,,,,,,0,60,60,60,,,,,,,,,,,,,,,,,,,,,,,,,,,,,,,,,,,,,main,None,None,1,1.5059873999998672,346.7649604999999,None,None,1,,,,,,,,,,,,,,213,24,Female,2022-05-10_13h52.22.625,Main,2022.1.1,60.028729750110074,
negative,yellow,1,k,None,,,,,,,,,0,61,61,61,,,,,,,,,,,,,,,,,,,,,,,,,,,,,,,,,,,,,main,None,None,1,1.498292499999934,349.27298599999995,None,None,1,,,,,,,,,,,,,,213,24,Female,2022-05-10_13h52.22.625,Main,2022.1.1,60.028729750110074,
negative,red,1,None,None,,,,,,,,,0,62,62,62,,,,,,,,,,,,,,,,,,,,,,,,,,,,,,,,,,,,,main,None,None,1,1.505341000000044,351.7725001000001,None,None,1,,,,,,,,,,,,,,213,24,Female,2022-05-10_13h52.22.625,Main,2022.1.1,60.028729750110074,
negative,blue,1,None,k,,,,,,,,,0,63,63,63,,,,,,,,,,,,,,,,,,,,,,,,,,,,,,,,,,,,,main,k,k,1,0.7759342000001652,354.2780802,None,None,0,,,,,,,,,,,,,,213,24,Female,2022-05-10_13h52.22.625,Main,2022.1.1,60.028729750110074,
positive,blue,2,k,None,,,,,,,,,0,64,64,64,,,,,,,,,,,,,,,,,,,,,,,,,,,,,,,,,,,,,main,None,None,1,1.5104434999998375,356.0569370999999,None,None,1,,,,,,,,,,,,,,213,24,Female,2022-05-10_13h52.22.625,Main,2022.1.1,60.028729750110074,
negative,yellow,2,k,None,,,,,,,,,0,65,65,65,,,,,,,,,,,,,,,,,,,,,,,,,,,,,,,,,,,,,main,None,None,1,1.493528200000128,358.5696643000001,None,None,1,,,,,,,,,,,,,,213,24,Female,2022-05-10_13h52.22.625,Main,2022.1.1,60.028729750110074,
positive,yellow,2,None,k,,,,,,,,,0,66,66,66,,,,,,,,,,,,,,,,,,,,,,,,,,,,,,,,,,,,,main,k,k,1,0.8420744000000013,361.0644152,None,None,0,,,,,,,,,,,,,,213,24,Female,2022-05-10_13h52.22.625,Main,2022.1.1,60.028729750110074,
positive,yellow,2,None,k,,,,,,,,,0,67,67,67,,,,,,,,,,,,,,,,,,,,,,,,,,,,,,,,,,,,,main,k,k,1,0.7554012000000512,362.9074780000001,None,None,0,,,,,,,,,,,,,,213,24,Female,2022-05-10_13h52.22.625,Main,2022.1.1,60.028729750110074,
positive,red,1,None,None,,,,,,,,,0,68,68,68,,,,,,,,,,,,,,,,,,,,,,,,,,,,,,,,,,,,,main,None,None,1,1.507921099999976,364.66285070000004,None,None,1,,,,,,,,,,,,,,213,24,Female,2022-05-10_13h52.22.625,Main,2022.1.1,60.028729750110074,
positive,yellow,1,None,k,,,,,,,,,0,69,69,69,,,,,,,,,,,,,,,,,,,,,,,,,,,,,,,,,,,,,main,k,k,1,0.743547000000035,367.1741789,None,None,0,,,,,,,,,,,,,,213,24,Female,2022-05-10_13h52.22.625,Main,2022.1.1,60.028729750110074,
negative,yellow,2,k,None,,,,,,,,,0,70,70,70,,,,,,,,,,,,,,,,,,,,,,,,,,,,,,,,,,,,,main,None,None,1,1.5106555999998363,368.92033779999997,None,None,1,,,,,,,,,,,,,,213,24,Female,2022-05-10_13h52.22.625,Main,2022.1.1,60.028729750110074,
positive,yellow,1,None,k,,,,,,,,,0,71,71,71,,,,,,,,,,,,,,,,,,,,,,,,,,,,,,,,,,,,,main,k,k,1,0.7880568000000494,371.43218060000004,None,None,0,,,,,,,,,,,,,,213,24,Female,2022-05-10_13h52.22.625,Main,2022.1.1,60.028729750110074,
negative,blue,1,None,k,,,,,,,,,0,72,72,72,,,,,,,,,,,,,,,,,,,,,,,,,,,,,,,,,,,,,main,k,k,1,0.8072981999998774,373.22147169999994,None,None,0,,,,,,,,,,,,,,213,24,Female,2022-05-10_13h52.22.625,Main,2022.1.1,60.028729750110074,
negative,red,2,None,None,,,,,,,,,0,73,73,73,,,,,,,,,,,,,,,,,,,,,,,,,,,,,,,,,,,,,main,None,None,1,1.4955449999999928,375.0309580999999,None,None,1,,,,,,,,,,,,,,213,24,Female,2022-05-10_13h52.22.625,Main,2022.1.1,60.028729750110074,
positive,blue,2,k,None,,,,,,,,,0,74,74,74,,,,,,,,,,,,,,,,,,,,,,,,,,,,,,,,,,,,,main,None,None,1,1.5022654000001694,377.5252743000001,None,None,1,,,,,,,,,,,,,,213,24,Female,2022-05-10_13h52.22.625,Main,2022.1.1,60.028729750110074,
negative,blue,2,None,k,,,,,,,,,0,75,75,75,,,,,,,,,,,,,,,,,,,,,,,,,,,,,,,,,,,,,main,k,k,1,0.7018204000000878,380.03200330000004,None,None,0,,,,,,,,,,,,,,213,24,Female,2022-05-10_13h52.22.625,Main,2022.1.1,60.028729750110074,
negative,blue,2,None,k,,,,,,,,,0,76,76,76,,,,,,,,,,,,,,,,,,,,,,,,,,,,,,,,,,,,,main,k,k,1,0.7638071000001219,381.7350788000001,None,None,0,,,,,,,,,,,,,,213,24,Female,2022-05-10_13h52.22.625,Main,2022.1.1,60.028729750110074,
negative,yellow,1,k,None,,,,,,,,,0,77,77,77,,,,,,,,,,,,,,,,,,,,,,,,,,,,,,,,,,,,,main,None,None,1,1.5067834999999832,383.5003125999999,None,None,1,,,,,,,,,,,,,,213,24,Female,2022-05-10_13h52.22.625,Main,2022.1.1,60.028729750110074,
positive,blue,1,k,None,,,,,,,,,0,78,78,78,,,,,,,,,,,,,,,,,,,,,,,,,,,,,,,,,,,,,main,None,None,1,1.5075547999999799,386.00673600000005,None,None,1,,,,,,,,,,,,,,213,24,Female,2022-05-10_13h52.22.625,Main,2022.1.1,60.028729750110074,
positive,blue,1,k,None,,,,,,,,,0,79,79,79,,,,,,,,,,,,,,,,,,,,,,,,,,,,,,,,,,,,,main,None,None,1,1.5061527999998816,388.5173313,None,None,1,,,,,,,,,,,,,,213,24,Female,2022-05-10_13h52.22.625,Main,2022.1.1,60.028729750110074,
positive,red,2,None,None,,,,,,,,,0,80,80,80,,,,,,,,,,,,,,,,,,,,,,,,,,,,,,,,,,,,,main,None,None,1,1.5028906999998526,391.0242575,None,None,1,,,,,,,,,,,,,,213,24,Female,2022-05-10_13h52.22.625,Main,2022.1.1,60.028729750110074,
positive,yellow,2,None,k,,,,,,,,,0,81,81,81,,,,,,,,,,,,,,,,,,,,,,,,,,,,,,,,,,,,,main,k,k,1,0.6782923000000665,393.5299870000001,None,None,0,,,,,,,,,,,,,,213,24,Female,2022-05-10_13h52.22.625,Main,2022.1.1,60.028729750110074,
positive,blue,1,k,None,,,,,,,,,0,82,82,82,,,,,,,,,,,,,,,,,,,,,,,,,,,,,,,,,,,,,main,None,None,1,1.4979424000000563,395.21029999999996,None,None,1,,,,,,,,,,,,,,213,24,Female,2022-05-10_13h52.22.625,Main,2022.1.1,60.028729750110074,
negative,yellow,2,k,None,,,,,,,,,0,83,83,83,,,,,,,,,,,,,,,,,,,,,,,,,,,,,,,,,,,,,main,None,None,1,1.506158400000004,397.70710439999993,None,None,1,,,,,,,,,,,,,,213,24,Female,2022-05-10_13h52.22.625,Main,2022.1.1,60.028729750110074,
positive,blue,2,k,None,,,,,,,,,0,84,84,84,,,,,,,,,,,,,,,,,,,,,,,,,,,,,,,,,,,,,main,None,None,1,1.5036943000000065,400.2163104000001,None,None,1,,,,,,,,,,,,,,213,24,Female,2022-05-10_13h52.22.625,Main,2022.1.1,60.028729750110074,
positive,yellow,1,None,k,,,,,,,,,0,85,85,85,,,,,,,,,,,,,,,,,,,,,,,,,,,,,,,,,,,,,main,k,k,1,0.8113367000000835,402.72135879999996,None,None,0,,,,,,,,,,,,,,213,24,Female,2022-05-10_13h52.22.625,Main,2022.1.1,60.028729750110074,
positive,blue,2,k,None,,,,,,,,,0,86,86,86,,,,,,,,,,,,,,,,,,,,,,,,,,,,,,,,,,,,,main,None,None,1,1.4997112999999445,404.5357234999999,None,None,1,,,,,,,,,,,,,,213,24,Female,2022-05-10_13h52.22.625,Main,2022.1.1,60.028729750110074,
positive,blue,1,k,None,,,,,,,,,0,87,87,87,,,,,,,,,,,,,,,,,,,,,,,,,,,,,,,,,,,,,main,None,None,1,1.5003916000000572,407.03794029999995,None,None,1,,,,,,,,,,,,,,213,24,Female,2022-05-10_13h52.22.625,Main,2022.1.1,60.028729750110074,
negative,yellow,2,k,None,,,,,,,,,0,88,88,88,,,,,,,,,,,,,,,,,,,,,,,,,,,,,,,,,,,,,main,None,None,1,1.5040839999999207,409.5415820999999,None,None,1,,,,,,,,,,,,,,213,24,Female,2022-05-10_13h52.22.625,Main,2022.1.1,60.028729750110074,
negative,blue,2,None,k,,,,,,,,,0,89,89,89,,,,,,,,,,,,,,,,,,,,,,,,,,,,,,,,,,,,,main,k,k,1,1.1927157999998599,412.0472333,None,None,0,,,,,,,,,,,,,,213,24,Female,2022-05-10_13h52.22.625,Main,2022.1.1,60.028729750110074,
positive,yellow,2,None,k,,,,,,,,,0,90,90,90,,,,,,,,,,,,,,,,,,,,,,,,,,,,,,,,,,,,,main,k,k,1,0.8640651000000616,414.24051639999993,None,None,0,,,,,,,,,,,,,,213,24,Female,2022-05-10_13h52.22.625,Main,2022.1.1,60.028729750110074,
negative,yellow,1,k,None,,,,,,,,,0,91,91,91,,,,,,,,,,,,,,,,,,,,,,,,,,,,,,,,,,,,,main,None,None,1,1.5068438999999216,416.1046063000001,None,None,1,,,,,,,,,,,,,,213,24,Female,2022-05-10_13h52.22.625,Main,2022.1.1,60.028729750110074,
negative,red,2,None,None,,,,,,,,,0,92,92,92,,,,,,,,,,,,,,,,,,,,,,,,,,,,,,,,,,,,,main,None,None,1,1.5059554999998,418.6157756,None,None,1,,,,,,,,,,,,,,213,24,Female,2022-05-10_13h52.22.625,Main,2022.1.1,60.028729750110074,
negative,blue,2,None,k,,,,,,,,,0,93,93,93,,,,,,,,,,,,,,,,,,,,,,,,,,,,,,,,,,,,,main,k,k,1,0.8035107000000608,421.12171209999997,None,None,0,,,,,,,,,,,,,,213,24,Female,2022-05-10_13h52.22.625,Main,2022.1.1,60.028729750110074,
negative,blue,1,None,k,,,,,,,,,0,94,94,94,,,,,,,,,,,,,,,,,,,,,,,,,,,,,,,,,,,,,main,k,k,1,0.7422183999999561,422.9291025,None,None,0,,,,,,,,,,,,,,213,24,Female,2022-05-10_13h52.22.625,Main,2022.1.1,60.028729750110074,
negative,blue,1,None,k,,,,,,,,,0,95,95,95,,,,,,,,,,,,,,,,,,,,,,,,,,,,,,,,,,,,,main,k,k,1,0.7660168999998405,424.6703293999999,None,None,0,,,,,,,,,,,,,,213,24,Female,2022-05-10_13h52.22.625,Main,2022.1.1,60.028729750110074,
negative,red,1,None,None,,,,,,,,,0,96,96,96,,,,,,,,,,,,,,,,,,,,,,,,,,,,,,,,,,,,,main,None,None,1,1.4970723000001271,426.44095300000004,None,None,1,,,,,,,,,,,,,,213,24,Female,2022-05-10_13h52.22.625,Main,2022.1.1,60.028729750110074,
positive,yellow,1,None,k,,,,,,,,,0,97,97,97,,,,,,,,,,,,,,,,,,,,,,,,,,,,,,,,,,,,,main,k,k,1,0.6713951000001543,428.9371223999999,None,None,0,,,,,,,,,,,,,,213,24,Female,2022-05-10_13h52.22.625,Main,2022.1.1,60.028729750110074,
negative,yellow,1,k,None,,,,,,,,,0,98,98,98,,,,,,,,,,,,,,,,,,,,,,,,,,,,,,,,,,,,,main,None,None,1,1.507426500000065,430.61251070000003,None,None,1,,,,,,,,,,,,,,213,24,Female,2022-05-10_13h52.22.625,Main,2022.1.1,60.028729750110074,
positive,red,1,None,None,,,,,,,,,0,99,99,99,,,,,,,,,,,,,,,,,,,,,,,,,,,,,,,,,,,,,main,None,None,1,1.5109632999999576,433.11919910000006,None,None,1,,,,,,,,,,,,,,213,24,Female,2022-05-10_13h52.22.625,Main,2022.1.1,60.028729750110074,
positive,blue,1,k,None,,,,,,,,,0,100,100,100,,,,,,,,,,,,,,,,,,,,,,,,,,,,,,,,,,,,,main,None,None,1,1.5048850000000584,435.63253669999995,None,None,1,,,,,,,,,,,,,,213,24,Female,2022-05-10_13h52.22.625,Main,2022.1.1,60.028729750110074,
negative,yellow,1,k,None,,,,,,,,,0,101,101,101,,,,,,,,,,,,,,,,,,,,,,,,,,,,,,,,,,,,,main,None,None,1,1.500131300000021,438.1414477999999,None,None,1,,,,,,,,,,,,,,213,24,Female,2022-05-10_13h52.22.625,Main,2022.1.1,60.028729750110074,
negative,blue,2,None,k,,,,,,,,,0,102,102,102,,,,,,,,,,,,,,,,,,,,,,,,,,,,,,,,,,,,,main,k,k,1,0.7424063999999362,440.64392369999996,None,None,0,,,,,,,,,,,,,,213,24,Female,2022-05-10_13h52.22.625,Main,2022.1.1,60.028729750110074,
negative,yellow,2,k,None,,,,,,,,,0,103,103,103,,,,,,,,,,,,,,,,,,,,,,,,,,,,,,,,,,,,,main,None,None,1,1.5079616999998962,442.38610259999996,None,None,1,,,,,,,,,,,,,,213,24,Female,2022-05-10_13h52.22.625,Main,2022.1.1,60.028729750110074,
positive,yellow,2,None,k,,,,,,,,,0,104,104,104,,,,,,,,,,,,,,,,,,,,,,,,,,,,,,,,,,,,,main,k,k,1,0.6393600999999762,444.8970779000001,None,None,0,,,,,,,,,,,,,,213,24,Female,2022-05-10_13h52.22.625,Main,2022.1.1,60.028729750110074,
positive,blue,1,k,None,,,,,,,,,0,105,105,105,,,,,,,,,,,,,,,,,,,,,,,,,,,,,,,,,,,,,main,None,None,1,1.4995358999999553,446.54096619999996,None,None,1,,,,,,,,,,,,,,213,24,Female,2022-05-10_13h52.22.625,Main,2022.1.1,60.028729750110074,
positive,blue,2,k,None,,,,,,,,,0,106,106,106,,,,,,,,,,,,,,,,,,,,,,,,,,,,,,,,,,,,,main,None,None,1,1.4981592999999975,449.0416408000001,None,None,1,,,,,,,,,,,,,,213,24,Female,2022-05-10_13h52.22.625,Main,2022.1.1,60.028729750110074,
negative,blue,1,None,k,,,,,,,,,0,107,107,107,,,,,,,,,,,,,,,,,,,,,,,,,,,,,,,,,,,,,main,k,k,1,0.6640405000000555,451.54144010000005,None,None,0,,,,,,,,,,,,,,213,24,Female,2022-05-10_13h52.22.625,Main,2022.1.1,60.028729750110074,
positive,yellow,2,None,k,,,,,,,,,0,108,108,108,,,,,,,,,,,,,,,,,,,,,,,,,,,,,,,,,,,,,main,k,k,1,0.7309053999999833,453.20730789999993,None,None,0,,,,,,,,,,,,,,213,24,Female,2022-05-10_13h52.22.625,Main,2022.1.1,60.028729750110074,
negative,yellow,1,k,None,,,,,,,,,0,109,109,109,,,,,,,,,,,,,,,,,,,,,,,,,,,,,,,,,,,,,main,None,None,1,1.4994884000000184,454.93898680000007,None,None,1,,,,,,,,,,,,,,213,24,Female,2022-05-10_13h52.22.625,Main,2022.1.1,60.028729750110074,
negative,blue,2,None,k,,,,,,,,,0,110,110,110,,,,,,,,,,,,,,,,,,,,,,,,,,,,,,,,,,,,,main,k,k,1,0.8483585999999832,457.44017140000005,None,None,0,,,,,,,,,,,,,,213,24,Female,2022-05-10_13h52.22.625,Main,2022.1.1,60.028729750110074,
positive,blue,2,k,None,,,,,,,,,0,111,111,111,,,,,,,,,,,,,,,,,,,,,,,,,,,,,,,,,,,,,main,None,None,1,1.5021911999999702,459.2906221999999,None,None,1,,,,,,,,,,,,,,213,24,Female,2022-05-10_13h52.22.625,Main,2022.1.1,60.028729750110074,
negative,blue,1,None,k,,,,,,,,,0,112,112,112,,,,,,,,,,,,,,,,,,,,,,,,,,,,,,,,,,,,,main,k,k,1,0.6888287000001583,461.79308549999996,None,None,0,,,,,,,,,,,,,,213,24,Female,2022-05-10_13h52.22.625,Main,2022.1.1,60.028729750110074,
positive,yellow,1,None,k,,,,,,,,,0,113,113,113,,,,,,,,,,,,,,,,,,,,,,,,,,,,,,,,,,,,,main,k,k,1,0.8252437999999529,463.48179230000005,None,None,0,,,,,,,,,,,,,,213,24,Female,2022-05-10_13h52.22.625,Main,2022.1.1,60.028729750110074,
negative,red,1,None,None,,,,,,,,,0,114,114,114,,,,,,,,,,,,,,,,,,,,,,,,,,,,,,,,,,,,,main,None,None,1,1.505320299999994,465.30993609999996,None,None,1,,,,,,,,,,,,,,213,24,Female,2022-05-10_13h52.22.625,Main,2022.1.1,60.028729750110074,
positive,red,1,None,None,,,,,,,,,0,115,115,115,,,,,,,,,,,,,,,,,,,,,,,,,,,,,,,,,,,,,main,None,None,1,1.5011153000000377,467.8149251,None,None,1,,,,,,,,,,,,,,213,24,Female,2022-05-10_13h52.22.625,Main,2022.1.1,60.028729750110074,
negative,red,2,None,None,,,,,,,,,0,116,116,116,,,,,,,,,,,,,,,,,,,,,,,,,,,,,,,,,,,,,main,None,None,1,1.503615899999886,470.3203016,None,None,1,,,,,,,,,,,,,,213,24,Female,2022-05-10_13h52.22.625,Main,2022.1.1,60.028729750110074,
negative,yellow,2,k,None,,,,,,,,,0,117,117,117,,,,,,,,,,,,,,,,,,,,,,,,,,,,,,,,,,,,,main,None,None,1,1.493819300000041,472.8243588,None,None,1,,,,,,,,,,,,,,213,24,Female,2022-05-10_13h52.22.625,Main,2022.1.1,60.028729750110074,
positive,yellow,1,None,k,,,,,,,,,0,118,118,118,,,,,,,,,,,,,,,,,,,,,,,,,,,,,,,,,,,,,main,k,k,1,0.6220256999999947,475.32035399999995,None,None,0,,,,,,,,,,,,,,213,24,Female,2022-05-10_13h52.22.625,Main,2022.1.1,60.028729750110074,
positive,red,2,None,None,,,,,,,,,0,119,119,119,,,,,,,,,,,,,,,,,,,,,,,,,,,,,,,,,,,,,main,None,None,1,1.5080337000001691,476.9437390999999,None,None,1,,,,,,,,,,,,,,213,24,Female,2022-05-10_13h52.22.625,Main,2022.1.1,60.028729750110074,
positive,blue,2,k,None,,,,,,,,,0,120,120,120,,,,,,,,,,,,,,,,,,,,,,,,,,,,,,,,,,,,,main,None,None,1,1.5054518999997981,479.45588939999993,None,None,1,,,,,,,,,,,,,,213,24,Female,2022-05-10_13h52.22.625,Main,2022.1.1,60.028729750110074,
negative,red,1,None,None,,,,,,,,,0,121,121,121,,,,,,,,,,,,,,,,,,,,,,,,,,,,,,,,,,,,,main,None,None,1,1.5002767000000858,481.9612353,None,None,1,,,,,,,,,,,,,,213,24,Female,2022-05-10_13h52.22.625,Main,2022.1.1,60.028729750110074,
positive,yellow,2,None,k,,,,,,,,,0,122,122,122,,,,,,,,,,,,,,,,,,,,,,,,,,,,,,,,,,,,,main,k,k,1,0.8591212000001178,484.4648583999999,None,None,0,,,,,,,,,,,,,,213,24,Female,2022-05-10_13h52.22.625,Main,2022.1.1,60.028729750110074,
negative,red,2,None,None,,,,,,,,,0,123,123,123,,,,,,,,,,,,,,,,,,,,,,,,,,,,,,,,,,,,,main,None,None,1,1.4952977000000374,486.3248357,None,None,1,,,,,,,,,,,,,,213,24,Female,2022-05-10_13h52.22.625,Main,2022.1.1,60.028729750110074,
negative,yellow,2,k,None,,,,,,,,,0,124,124,124,,,,,,,,,,,,,,,,,,,,,,,,,,,,,,,,,,,,,main,None,None,1,1.495329300000094,488.8215904000001,None,None,1,,,,,,,,,,,,,,213,24,Female,2022-05-10_13h52.22.625,Main,2022.1.1,60.028729750110074,
positive,red,1,None,None,,,,,,,,,0,125,125,125,,,,,,,,,,,,,,,,,,,,,,,,,,,,,,,,,,,,,main,None,None,1,1.4978496999999606,491.3195187000001,None,None,1,,,,,,,,,,,,,,213,24,Female,2022-05-10_13h52.22.625,Main,2022.1.1,60.028729750110074,
negative,blue,2,None,k,,,,,,,,,0,126,126,126,,,,,,,,,,,,,,,,,,,,,,,,,,,,,,,,,,,,,main,k,k,1,0.7334711999999399,493.81825200000003,None,None,0,,,,,,,,,,,,,,213,24,Female,2022-05-10_13h52.22.625,Main,2022.1.1,60.028729750110074,
negative,blue,1,None,k,,,,,,,,,0,127,127,127,,,,,,,,,,,,,,,,,,,,,,,,,,,,,,,,,,,,,main,k,k,1,0.6086568000000625,495.5535145000001,None,None,0,,,,,,,,,,,,,,213,24,Female,2022-05-10_13h52.22.625,Main,2022.1.1,60.028729750110074,
negative,yellow,1,k,None,,,,,,,,,0,128,128,128,,,,,,,,,,,,,,,,,,,,,,,,,,,,,,,,,,,,,main,None,None,1,1.504248700000062,497.1615644000001,None,None,1,,,,,,,,,,,,,,213,24,Female,2022-05-10_13h52.22.625,Main,2022.1.1,60.028729750110074,
negative,yellow,1,k,None,,,,,,,,,0,129,129,129,,,,,,,,,,,,,,,,,,,,,,,,,,,,,,,,,,,,,main,None,None,1,1.4957548000002134,499.66912449999995,None,None,1,,,,,,,,,,,,,,213,24,Female,2022-05-10_13h52.22.625,Main,2022.1.1,60.028729750110074,
positive,blue,1,k,None,,,,,,,,,0,130,130,130,,,,,,,,,,,,,,,,,,,,,,,,,,,,,,,,,,,,,main,None,None,1,1.5043766999999661,502.16645829999993,None,None,1,,,,,,,,,,,,,,213,24,Female,2022-05-10_13h52.22.625,Main,2022.1.1,60.028729750110074,
negative,blue,1,None,k,,,,,,,,,0,131,131,131,,,,,,,,,,,,,,,,,,,,,,,,,,,,,,,,,,,,,main,k,k,1,0.7550854999999501,504.6723466000001,None,None,0,,,,,,,,,,,,,,213,24,Female,2022-05-10_13h52.22.625,Main,2022.1.1,60.028729750110074,
negative,blue,2,None,k,,,,,,,,,0,132,132,132,,,,,,,,,,,,,,,,,,,,,,,,,,,,,,,,,,,,,main,k,k,1,0.7548514000000068,506.43078220000007,None,None,0,,,,,,,,,,,,,,213,24,Female,2022-05-10_13h52.22.625,Main,2022.1.1,60.028729750110074,
positive,blue,2,k,None,,,,,,,,,0,133,133,133,,,,,,,,,,,,,,,,,,,,,,,,,,,,,,,,,,,,,main,None,None,1,1.506368600000087,508.1859799000001,None,None,1,,,,,,,,,,,,,,213,24,Female,2022-05-10_13h52.22.625,Main,2022.1.1,60.028729750110074,
positive,red,2,None,None,,,,,,,,,0,134,134,134,,,,,,,,,,,,,,,,,,,,,,,,,,,,,,,,,,,,,main,None,None,1,1.4975054999999884,510.6946553,None,None,1,,,,,,,,,,,,,,213,24,Female,2022-05-10_13h52.22.625,Main,2022.1.1,60.028729750110074,
negative,yellow,2,k,None,,,,,,,,,0,135,135,135,,,,,,,,,,,,,,,,,,,,,,,,,,,,,,,,,,,,,main,None,None,1,1.508056599999918,513.1920170999999,None,None,1,,,,,,,,,,,,,,213,24,Female,2022-05-10_13h52.22.625,Main,2022.1.1,60.028729750110074,
positive,yellow,2,None,k,,,,,,,,,0,136,136,136,,,,,,,,,,,,,,,,,,,,,,,,,,,,,,,,,,,,,main,k,k,1,0.6850884999998925,515.7026218999999,None,None,0,,,,,,,,,,,,,,213,24,Female,2022-05-10_13h52.22.625,Main,2022.1.1,60.028729750110074,
positive,blue,1,k,None,,,,,,,,,0,137,137,137,,,,,,,,,,,,,,,,,,,,,,,,,,,,,,,,,,,,,main,None,None,1,1.5021444999999858,517.3891087,None,None,1,,,,,,,,,,,,,,213,24,Female,2022-05-10_13h52.22.625,Main,2022.1.1,60.028729750110074,
positive,yellow,1,None,k,,,,,,,,,0,138,138,138,,,,,,,,,,,,,,,,,,,,,,,,,,,,,,,,,,,,,main,k,k,1,1.286228200000096,519.8956641,None,None,0,,,,,,,,,,,,,,213,24,Female,2022-05-10_13h52.22.625,Main,2022.1.1,60.028729750110074,
positive,yellow,1,None,k,,,,,,,,,0,139,139,139,,,,,,,,,,,,,,,,,,,,,,,,,,,,,,,,,,,,,main,k,k,1,0.7312451000000237,522.1832033999999,None,None,0,,,,,,,,,,,,,,213,24,Female,2022-05-10_13h52.22.625,Main,2022.1.1,60.028729750110074,
positive,yellow,1,None,k,,,,,,,,,0,140,140,140,,,,,,,,,,,,,,,,,,,,,,,,,,,,,,,,,,,,,main,k,k,1,0.6584109000000353,523.9162464999999,None,None,0,,,,,,,,,,,,,,213,24,Female,2022-05-10_13h52.22.625,Main,2022.1.1,60.028729750110074,
positive,blue,1,k,None,,,,,,,,,0,141,141,141,,,,,,,,,,,,,,,,,,,,,,,,,,,,,,,,,,,,,main,None,None,1,1.5031427000001258,525.5735706,None,None,1,,,,,,,,,,,,,,213,24,Female,2022-05-10_13h52.22.625,Main,2022.1.1,60.028729750110074,
positive,blue,2,k,None,,,,,,,,,0,142,142,142,,,,,,,,,,,,,,,,,,,,,,,,,,,,,,,,,,,,,main,None,None,1,1.499582600000167,528.0811037999999,None,None,1,,,,,,,,,,,,,,213,24,Female,2022-05-10_13h52.22.625,Main,2022.1.1,60.028729750110074,
positive,yellow,2,None,k,,,,,,,,,0,143,143,143,,,,,,,,,,,,,,,,,,,,,,,,,,,,,,,,,,,,,main,k,k,1,0.9424951999999394,530.5814535,None,None,0,,,,,,,,,,,,,,213,24,Female,2022-05-10_13h52.22.625,Main,2022.1.1,60.028729750110074,
negative,yellow,2,k,None,,,,,,,,,0,144,144,144,,,,,,,,,,,,,,,,,,,,,,,,,,,,,,,,,,,,,main,None,None,1,1.4937368000000788,532.5252642,None,None,1,,,,,,,,,,,,,,213,24,Female,2022-05-10_13h52.22.625,Main,2022.1.1,60.028729750110074,
negative,blue,2,None,k,,,,,,,,,0,145,145,145,,,,,,,,,,,,,,,,,,,,,,,,,,,,,,,,,,,,,main,k,k,1,0.7053851999999097,535.0206645000001,None,None,0,,,,,,,,,,,,,,213,24,Female,2022-05-10_13h52.22.625,Main,2022.1.1,60.028729750110074,
negative,red,1,None,None,,,,,,,,,0,146,146,146,,,,,,,,,,,,,,,,,,,,,,,,,,,,,,,,,,,,,main,None,None,1,1.4982628000000204,536.7294612999999,None,None,1,,,,,,,,,,,,,,213,24,Female,2022-05-10_13h52.22.625,Main,2022.1.1,60.028729750110074,
positive,blue,1,k,None,,,,,,,,,0,147,147,147,,,,,,,,,,,,,,,,,,,,,,,,,,,,,,,,,,,,,main,None,None,1,1.49421899999993,539.2287736000001,None,None,1,,,,,,,,,,,,,,213,24,Female,2022-05-10_13h52.22.625,Main,2022.1.1,60.028729750110074,
positive,yellow,1,None,k,,,,,,,,,0,148,148,148,,,,,,,,,,,,,,,,,,,,,,,,,,,,,,,,,,,,,main,k,k,1,0.6819261000000552,541.7230737,None,None,0,,,,,,,,,,,,,,213,24,Female,2022-05-10_13h52.22.625,Main,2022.1.1,60.028729750110074,
negative,red,2,None,None,,,,,,,,,0,149,149,149,,,,,,,,,,,,,,,,,,,,,,,,,,,,,,,,,,,,,main,None,None,1,1.4968523000000005,543.4055605000001,None,None,1,,,,,,,,,,,,,,213,24,Female,2022-05-10_13h52.22.625,Main,2022.1.1,60.028729750110074,
negative,blue,1,None,k,,,,,,,,,0,150,150,150,,,,,,,,,,,,,,,,,,,,,,,,,,,,,,,,,,,,,main,k,k,1,0.8039854000001014,545.9060023,None,None,0,,,,,,,,,,,,,,213,24,Female,2022-05-10_13h52.22.625,Main,2022.1.1,60.028729750110074,
negative,yellow,2,k,None,,,,,,,,,0,151,151,151,,,,,,,,,,,,,,,,,,,,,,,,,,,,,,,,,,,,,main,None,None,1,1.5088752999999997,547.7135274,None,None,1,,,,,,,,,,,,,,213,24,Female,2022-05-10_13h52.22.625,Main,2022.1.1,60.028729750110074,
negative,blue,2,None,k,,,,,,,,,0,152,152,152,,,,,,,,,,,,,,,,,,,,,,,,,,,,,,,,,,,,,main,k,k,1,0.8342568999999003,550.2223758,None,None,0,,,,,,,,,,,,,,213,24,Female,2022-05-10_13h52.22.625,Main,2022.1.1,60.028729750110074,
negative,yellow,1,k,None,,,,,,,,,0,153,153,153,,,,,,,,,,,,,,,,,,,,,,,,,,,,,,,,,,,,,main,None,None,1,1.5100918999999067,552.0593437,None,None,1,,,,,,,,,,,,,,213,24,Female,2022-05-10_13h52.22.625,Main,2022.1.1,60.028729750110074,
negative,blue,1,None,k,,,,,,,,,0,154,154,154,,,,,,,,,,,,,,,,,,,,,,,,,,,,,,,,,,,,,main,k,k,1,0.743206599999894,554.5693593999999,None,None,0,,,,,,,,,,,,,,213,24,Female,2022-05-10_13h52.22.625,Main,2022.1.1,60.028729750110074,
positive,yellow,2,None,k,,,,,,,,,0,155,155,155,,,,,,,,,,,,,,,,,,,,,,,,,,,,,,,,,,,,,main,k,k,1,0.7726953000001231,556.3150619999999,None,None,0,,,,,,,,,,,,,,213,24,Female,2022-05-10_13h52.22.625,Main,2022.1.1,60.028729750110074,
positive,red,2,None,None,,,,,,,,,0,156,156,156,,,,,,,,,,,,,,,,,,,,,,,,,,,,,,,,,,,,,main,None,None,1,1.503824399999985,558.0881245999999,None,None,1,,,,,,,,,,,,,,213,24,Female,2022-05-10_13h52.22.625,Main,2022.1.1,60.028729750110074,
positive,red,1,None,None,,,,,,,,,0,157,157,157,,,,,,,,,,,,,,,,,,,,,,,,,,,,,,,,,,,,,main,None,None,1,1.5017087999999603,560.5955346999999,None,None,1,,,,,,,,,,,,,,213,24,Female,2022-05-10_13h52.22.625,Main,2022.1.1,60.028729750110074,
positive,blue,2,k,None,,,,,,,,,0,158,158,158,,,,,,,,,,,,,,,,,,,,,,,,,,,,,,,,,,,,,main,None,None,1,1.4955164999998942,563.0976524,None,None,1,,,,,,,,,,,,,,213,24,Female,2022-05-10_13h52.22.625,Main,2022.1.1,60.028729750110074,
negative,yellow,1,k,None,,,,,,,,,0,159,159,159,,,,,,,,,,,,,,,,,,,,,,,,,,,,,,,,,,,,,main,None,None,1,1.5055006000000049,565.5945174000001,None,None,1,,,,,,,,,,,,,,213,24,Female,2022-05-10_13h52.22.625,Main,2022.1.1,60.028729750110074,
negative,red,2,None,None,,,,,,,,,0,160,160,160,,,,,,,,,,,,,,,,,,,,,,,,,,,,,,,,,,,,,main,None,None,1,1.4959625999999844,568.1003406,None,None,1,,,,,,,,,,,,,,213,24,Female,2022-05-10_13h52.22.625,Main,2022.1.1,60.028729750110074,
negative,blue,1,None,k,,,,,,,,,0,161,161,161,,,,,,,,,,,,,,,,,,,,,,,,,,,,,,,,,,,,,main,k,k,1,0.7790324000000055,570.5996566000001,None,None,0,,,,,,,,,,,,,,213,24,Female,2022-05-10_13h52.22.625,Main,2022.1.1,60.028729750110074,
negative,blue,1,None,k,,,,,,,,,0,162,162,162,,,,,,,,,,,,,,,,,,,,,,,,,,,,,,,,,,,,,main,k,k,1,1.6867377000000943,572.3849233000001,None,None,0,,,,,,,,,,,,,,213,24,Female,2022-05-10_13h52.22.625,Main,2022.1.1,60.028729750110074,
negative,yellow,1,k,None,,,,,,,,,0,163,163,163,,,,,,,,,,,,,,,,,,,,,,,,,,,,,,,,,,,,,main,None,None,1,1.4901112000000012,576.0857914999999,None,None,1,,,,,,,,,,,,,,213,24,Female,2022-05-10_13h52.22.625,Main,2022.1.1,60.028729750110074,
negative,yellow,1,k,None,,,,,,,,,0,164,164,164,,,,,,,,,,,,,,,,,,,,,,,,,,,,,,,,,,,,,main,None,None,1,1.4955192999998417,578.577029,None,None,1,,,,,,,,,,,,,,213,24,Female,2022-05-10_13h52.22.625,Main,2022.1.1,60.028729750110074,
positive,yellow,1,None,k,,,,,,,,,0,165,165,165,,,,,,,,,,,,,,,,,,,,,,,,,,,,,,,,,,,,,main,k,k,1,0.7269564000000628,581.0756441999999,None,None,0,,,,,,,,,,,,,,213,24,Female,2022-05-10_13h52.22.625,Main,2022.1.1,60.028729750110074,
negative,red,1,None,None,,,,,,,,,0,166,166,166,,,,,,,,,,,,,,,,,,,,,,,,,,,,,,,,,,,,,main,None,None,1,1.4972912999999153,582.8041826000001,None,None,1,,,,,,,,,,,,,,213,24,Female,2022-05-10_13h52.22.625,Main,2022.1.1,60.028729750110074,
negative,yellow,2,k,None,,,,,,,,,0,167,167,167,,,,,,,,,,,,,,,,,,,,,,,,,,,,,,,,,,,,,main,None,None,1,1.5034886000000824,585.3001707000001,None,None,1,,,,,,,,,,,,,,213,24,Female,2022-05-10_13h52.22.625,Main,2022.1.1,60.028729750110074,
positive,blue,2,k,None,,,,,,,,,0,168,168,168,,,,,,,,,,,,,,,,,,,,,,,,,,,,,,,,,,,,,main,None,None,1,1.5101523999999245,587.8076060000001,None,None,1,,,,,,,,,,,,,,213,24,Female,2022-05-10_13h52.22.625,Main,2022.1.1,60.028729750110074,
positive,red,2,None,None,,,,,,,,,0,169,169,169,,,,,,,,,,,,,,,,,,,,,,,,,,,,,,,,,,,,,main,None,None,1,1.5152714999999262,590.3168109999999,None,None,1,,,,,,,,,,,,,,213,24,Female,2022-05-10_13h52.22.625,Main,2022.1.1,60.028729750110074,
positive,red,1,None,None,,,,,,,,,0,170,170,170,,,,,,,,,,,,,,,,,,,,,,,,,,,,,,,,,,,,,main,None,None,1,1.5032736000000568,592.835296,None,None,1,,,,,,,,,,,,,,213,24,Female,2022-05-10_13h52.22.625,Main,2022.1.1,60.028729750110074,
negative,blue,2,None,k,,,,,,,,,0,171,171,171,,,,,,,,,,,,,,,,,,,,,,,,,,,,,,,,,,,,,main,k,k,1,1.047843999999941,595.3403883999999,None,None,0,,,,,,,,,,,,,,213,24,Female,2022-05-10_13h52.22.625,Main,2022.1.1,60.028729750110074,
positive,blue,2,k,None,,,,,,,,,0,172,172,172,,,,,,,,,,,,,,,,,,,,,,,,,,,,,,,,,,,,,main,None,None,1,1.5035656999998537,597.3904156000001,None,None,1,,,,,,,,,,,,,,213,24,Female,2022-05-10_13h52.22.625,Main,2022.1.1,60.028729750110074,
negative,yellow,2,k,None,,,,,,,,,0,173,173,173,,,,,,,,,,,,,,,,,,,,,,,,,,,,,,,,,,,,,main,None,None,1,1.5005287999999837,599.8943701999999,None,None,1,,,,,,,,,,,,,,213,24,Female,2022-05-10_13h52.22.625,Main,2022.1.1,60.028729750110074,
positive,yellow,2,None,k,,,,,,,,,0,174,174,174,,,,,,,,,,,,,,,,,,,,,,,,,,,,,,,,,,,,,main,k,k,1,0.6676251999999749,602.3961549,None,None,0,,,,,,,,,,,,,,213,24,Female,2022-05-10_13h52.22.625,Main,2022.1.1,60.028729750110074,
negative,blue,2,None,k,,,,,,,,,0,175,175,175,,,,,,,,,,,,,,,,,,,,,,,,,,,,,,,,,,,,,main,k,k,1,0.8340373999999429,604.0659171,None,None,0,,,,,,,,,,,,,,213,24,Female,2022-05-10_13h52.22.625,Main,2022.1.1,60.028729750110074,
positive,blue,1,k,None,,,,,,,,,0,176,176,176,,,,,,,,,,,,,,,,,,,,,,,,,,,,,,,,,,,,,main,None,None,1,1.5097981000001255,605.9032781999999,None,None,1,,,,,,,,,,,,,,213,24,Female,2022-05-10_13h52.22.625,Main,2022.1.1,60.028729750110074,
positive,yellow,1,None,k,,,,,,,,,0,177,177,177,,,,,,,,,,,,,,,,,,,,,,,,,,,,,,,,,,,,,main,k,k,1,0.8833687999999711,608.4125523,None,None,0,,,,,,,,,,,,,,213,24,Female,2022-05-10_13h52.22.625,Main,2022.1.1,60.028729750110074,
positive,blue,1,k,None,,,,,,,,,0,178,178,178,,,,,,,,,,,,,,,,,,,,,,,,,,,,,,,,,,,,,main,None,None,1,1.5098468000001048,610.3004756,None,None,1,,,,,,,,,,,,,,213,24,Female,2022-05-10_13h52.22.625,Main,2022.1.1,60.028729750110074,
positive,yellow,2,None,k,,,,,,,,,0,179,179,179,,,,,,,,,,,,,,,,,,,,,,,,,,,,,,,,,,,,,main,k,k,1,0.6610255999999026,612.8103242,None,None,0,,,,,,,,,,,,,,213,24,Female,2022-05-10_13h52.22.625,Main,2022.1.1,60.028729750110074,
positive,blue,1,k,None,,,,,,,,,0,180,180,180,,,,,,,,,,,,,,,,,,,,,,,,,,,,,,,,,,,,,main,None,None,1,1.5047915999998622,614.4752182,None,None,1,,,,,,,,,,,,,,213,24,Female,2022-05-10_13h52.22.625,Main,2022.1.1,60.028729750110074,
negative,red,1,None,None,,,,,,,,,0,181,181,181,,,,,,,,,,,,,,,,,,,,,,,,,,,,,,,,,,,,,main,None,None,1,1.5035014000000047,616.979272,None,None,1,,,,,,,,,,,,,,213,24,Female,2022-05-10_13h52.22.625,Main,2022.1.1,60.028729750110074,
negative,blue,1,None,k,,,,,,,,,0,182,182,182,,,,,,,,,,,,,,,,,,,,,,,,,,,,,,,,,,,,,main,k,k,1,0.6265518000000156,619.4864084999999,None,None,0,,,,,,,,,,,,,,213,24,Female,2022-05-10_13h52.22.625,Main,2022.1.1,60.028729750110074,
negative,yellow,2,k,None,,,,,,,,,0,183,183,183,,,,,,,,,,,,,,,,,,,,,,,,,,,,,,,,,,,,,main,None,None,1,1.502252100000078,621.1119541,None,None,1,,,,,,,,,,,,,,213,24,Female,2022-05-10_13h52.22.625,Main,2022.1.1,60.028729750110074,
positive,yellow,2,None,k,,,,,,,,,0,184,184,184,,,,,,,,,,,,,,,,,,,,,,,,,,,,,,,,,,,,,main,k,k,1,0.7053358000000571,623.6181217000001,None,None,0,,,,,,,,,,,,,,213,24,Female,2022-05-10_13h52.22.625,Main,2022.1.1,60.028729750110074,
positive,yellow,1,None,k,,,,,,,,,0,185,185,185,,,,,,,,,,,,,,,,,,,,,,,,,,,,,,,,,,,,,main,k,k,1,0.8832423000001199,625.3248145,None,None,0,,,,,,,,,,,,,,213,24,Female,2022-05-10_13h52.22.625,Main,2022.1.1,60.028729750110074,
positive,red,2,None,None,,,,,,,,,0,186,186,186,,,,,,,,,,,,,,,,,,,,,,,,,,,,,,,,,,,,,main,None,None,1,1.504024800000252,627.2095744999999,None,None,1,,,,,,,,,,,,,,213,24,Female,2022-05-10_13h52.22.625,Main,2022.1.1,60.028729750110074,
positive,blue,1,k,None,,,,,,,,,0,187,187,187,,,,,,,,,,,,,,,,,,,,,,,,,,,,,,,,,,,,,main,None,None,1,1.5007873999998083,629.7183004000001,None,None,1,,,,,,,,,,,,,,213,24,Female,2022-05-10_13h52.22.625,Main,2022.1.1,60.028729750110074,
negative,yellow,1,k,None,,,,,,,,,0,188,188,188,,,,,,,,,,,,,,,,,,,,,,,,,,,,,,,,,,,,,main,None,None,1,1.5109141000002637,632.2245614999999,None,None,1,,,,,,,,,,,,,,213,24,Female,2022-05-10_13h52.22.625,Main,2022.1.1,60.028729750110074,
positive,yellow,2,None,k,,,,,,,,,0,189,189,189,,,,,,,,,,,,,,,,,,,,,,,,,,,,,,,,,,,,,main,k,k,1,0.749597100000301,634.7319970000001,None,None,0,,,,,,,,,,,,,,213,24,Female,2022-05-10_13h52.22.625,Main,2022.1.1,60.028729750110074,
negative,yellow,2,k,None,,,,,,,,,0,190,190,190,,,,,,,,,,,,,,,,,,,,,,,,,,,,,,,,,,,,,main,None,None,1,1.5002415999997538,636.4834612000002,None,None,1,,,,,,,,,,,,,,213,24,Female,2022-05-10_13h52.22.625,Main,2022.1.1,60.028729750110074,
negative,yellow,1,k,None,,,,,,,,,0,191,191,191,,,,,,,,,,,,,,,,,,,,,,,,,,,,,,,,,,,,,main,None,None,1,1.501271799999813,638.9846439999999,None,None,1,,,,,,,,,,,,,,213,24,Female,2022-05-10_13h52.22.625,Main,2022.1.1,60.028729750110074,
positive,blue,2,k,None,,,,,,,,,0,192,192,192,,,,,,,,,,,,,,,,,,,,,,,,,,,,,,,,,,,,,main,None,None,1,1.5006045999998605,641.4871258000001,None,None,1,,,,,,,,,,,,,,213,24,Female,2022-05-10_13h52.22.625,Main,2022.1.1,60.028729750110074,
positive,yellow,1,None,k,,,,,,,,,0,193,193,193,,,,,,,,,,,,,,,,,,,,,,,,,,,,,,,,,,,,,main,k,k,1,0.86950539999998,643.9887938999998,None,None,0,,,,,,,,,,,,,,213,24,Female,2022-05-10_13h52.22.625,Main,2022.1.1,60.028729750110074,
negative,red,2,None,None,,,,,,,,,0,194,194,194,,,,,,,,,,,,,,,,,,,,,,,,,,,,,,,,,,,,,main,None,None,1,1.496019300000171,645.8617367999998,None,None,1,,,,,,,,,,,,,,213,24,Female,2022-05-10_13h52.22.625,Main,2022.1.1,60.028729750110074,
positive,red,1,None,None,,,,,,,,,0,195,195,195,,,,,,,,,,,,,,,,,,,,,,,,,,,,,,,,,,,,,main,None,None,1,1.497722800000247,648.3567181000001,None,None,1,,,,,,,,,,,,,,213,24,Female,2022-05-10_13h52.22.625,Main,2022.1.1,60.028729750110074,
negative,blue,1,None,k,,,,,,,,,0,196,196,196,,,,,,,,,,,,,,,,,,,,,,,,,,,,,,,,,,,,,main,k,k,1,0.8780934999999772,650.8566555,None,None,0,,,,,,,,,,,,,,213,24,Female,2022-05-10_13h52.22.625,Main,2022.1.1,60.028729750110074,
positive,blue,2,k,None,,,,,,,,,0,197,197,197,,,,,,,,,,,,,,,,,,,,,,,,,,,,,,,,,,,,,main,None,None,1,1.5095470000001114,652.7392462,None,None,1,,,,,,,,,,,,,,213,24,Female,2022-05-10_13h52.22.625,Main,2022.1.1,60.028729750110074,
negative,blue,2,None,k,,,,,,,,,0,198,198,198,,,,,,,,,,,,,,,,,,,,,,,,,,,,,,,,,,,,,main,k,k,1,0.878087399999913,655.2512491999998,None,None,0,,,,,,,,,,,,,,213,24,Female,2022-05-10_13h52.22.625,Main,2022.1.1,60.028729750110074,
negative,blue,2,None,k,,,,,,,,,0,199,199,199,,,,,,,,,,,,,,,,,,,,,,,,,,,,,,,,,,,,,main,k,k,1,0.7835352999995848,657.1309858000002,None,None,0,,,,,,,,,,,,,,213,24,Female,2022-05-10_13h52.22.625,Main,2022.1.1,60.028729750110074,
positive,blue,2,k,None,,,,,,,,,0,200,200,200,,,,,,,,,,,,,,,,,,,,,,,,,,,,,,,,,,,,,main,None,None,1,1.506700500000079,658.9161366000001,None,None,1,,,,,,,,,,,,,,213,24,Female,2022-05-10_13h52.22.625,Main,2022.1.1,60.028729750110074,
positive,blue,2,k,None,,,,,,,,,0,201,201,201,,,,,,,,,,,,,,,,,,,,,,,,,,,,,,,,,,,,,main,None,None,1,1.5002306000001226,661.4218526000002,None,None,1,,,,,,,,,,,,,,213,24,Female,2022-05-10_13h52.22.625,Main,2022.1.1,60.028729750110074,
negative,yellow,2,k,None,,,,,,,,,0,202,202,202,,,,,,,,,,,,,,,,,,,,,,,,,,,,,,,,,,,,,main,None,None,1,1.4966401000001497,663.9233198999998,None,None,1,,,,,,,,,,,,,,213,24,Female,2022-05-10_13h52.22.625,Main,2022.1.1,60.028729750110074,
positive,red,1,None,None,,,,,,,,,0,203,203,203,,,,,,,,,,,,,,,,,,,,,,,,,,,,,,,,,,,,,main,None,None,1,1.4961482999997315,666.4225972000002,None,None,1,,,,,,,,,,,,,,213,24,Female,2022-05-10_13h52.22.625,Main,2022.1.1,60.028729750110074,
negative,blue,2,None,k,,,,,,,,,0,204,204,204,,,,,,,,,,,,,,,,,,,,,,,,,,,,,,,,,,,,,main,k,k,1,0.9200479000000996,668.9203510999998,None,None,0,,,,,,,,,,,,,,213,24,Female,2022-05-10_13h52.22.625,Main,2022.1.1,60.028729750110074,
negative,red,1,None,None,,,,,,,,,0,205,205,205,,,,,,,,,,,,,,,,,,,,,,,,,,,,,,,,,,,,,main,None,None,1,1.5106213999997635,670.8440453000001,None,None,1,,,,,,,,,,,,,,213,24,Female,2022-05-10_13h52.22.625,Main,2022.1.1,60.028729750110074,
negative,blue,2,None,k,,,,,,,,,0,206,206,206,,,,,,,,,,,,,,,,,,,,,,,,,,,,,,,,,,,,,main,k,k,1,0.9000965000000178,673.3536508999998,None,None,0,,,,,,,,,,,,,,213,24,Female,2022-05-10_13h52.22.625,Main,2022.1.1,60.028729750110074,
negative,yellow,2,k,None,,,,,,,,,0,207,207,207,,,,,,,,,,,,,,,,,,,,,,,,,,,,,,,,,,,,,main,None,None,1,1.4974671999998463,675.2585449000001,None,None,1,,,,,,,,,,,,,,213,24,Female,2022-05-10_13h52.22.625,Main,2022.1.1,60.028729750110074,
positive,yellow,2,None,k,,,,,,,,,0,208,208,208,,,,,,,,,,,,,,,,,,,,,,,,,,,,,,,,,,,,,main,k,k,1,0.9696300999999039,677.7543352,None,None,0,,,,,,,,,,,,,,213,24,Female,2022-05-10_13h52.22.625,Main,2022.1.1,60.028729750110074,
negative,yellow,1,k,None,,,,,,,,,0,209,209,209,,,,,,,,,,,,,,,,,,,,,,,,,,,,,,,,,,,,,main,None,None,1,1.5026484999998502,679.7281627,None,None,1,,,,,,,,,,,,,,213,24,Female,2022-05-10_13h52.22.625,Main,2022.1.1,60.028729750110074,
negative,red,2,None,None,,,,,,,,,0,210,210,210,,,,,,,,,,,,,,,,,,,,,,,,,,,,,,,,,,,,,main,None,None,1,1.495107100000041,682.2316109999999,None,None,1,,,,,,,,,,,,,,213,24,Female,2022-05-10_13h52.22.625,Main,2022.1.1,60.028729750110074,
negative,blue,1,None,k,,,,,,,,,0,211,211,211,,,,,,,,,,,,,,,,,,,,,,,,,,,,,,,,,,,,,main,k,k,1,0.8996167000000241,684.7287801999998,None,None,0,,,,,,,,,,,,,,213,24,Female,2022-05-10_13h52.22.625,Main,2022.1.1,60.028729750110074,
negative,yellow,1,k,None,,,,,,,,,0,212,212,212,,,,,,,,,,,,,,,,,,,,,,,,,,,,,,,,,,,,,main,None,None,1,1.503327200000058,686.6293191000002,None,None,1,,,,,,,,,,,,,,213,24,Female,2022-05-10_13h52.22.625,Main,2022.1.1,60.028729750110074,
positive,blue,1,k,None,,,,,,,,,0,213,213,213,,,,,,,,,,,,,,,,,,,,,,,,,,,,,,,,,,,,,main,None,None,1,1.4993578999997226,689.1343109000002,None,None,1,,,,,,,,,,,,,,213,24,Female,2022-05-10_13h52.22.625,Main,2022.1.1,60.028729750110074,
positive,blue,1,k,None,,,,,,,,,0,214,214,214,,,,,,,,,,,,,,,,,,,,,,,,,,,,,,,,,,,,,main,None,None,1,1.4983565999996244,691.6371996,None,None,1,,,,,,,,,,,,,,213,24,Female,2022-05-10_13h52.22.625,Main,2022.1.1,60.028729750110074,
positive,yellow,1,None,k,,,,,,,,,0,215,215,215,,,,,,,,,,,,,,,,,,,,,,,,,,,,,,,,,,,,,main,k,k,1,0.8303918000001431,694.1365014,None,None,0,,,,,,,,,,,,,,213,24,Female,2022-05-10_13h52.22.625,Main,2022.1.1,60.028729750110074,
positive,yellow,1,None,k,,,,,,,,,0,216,216,216,,,,,,,,,,,,,,,,,,,,,,,,,,,,,,,,,,,,,main,k,k,1,0.7655608999998549,695.9689695999998,None,None,0,,,,,,,,,,,,,,213,24,Female,2022-05-10_13h52.22.625,Main,2022.1.1,60.028729750110074,
positive,yellow,2,None,k,,,,,,,,,0,217,217,217,,,,,,,,,,,,,,,,,,,,,,,,,,,,,,,,,,,,,main,k,k,1,0.8991208000002189,697.7375267,None,None,0,,,,,,,,,,,,,,213,24,Female,2022-05-10_13h52.22.625,Main,2022.1.1,60.028729750110074,
negative,blue,1,None,k,,,,,,,,,0,218,218,218,,,,,,,,,,,,,,,,,,,,,,,,,,,,,,,,,,,,,main,k,k,1,1.2074665999998615,699.6362173,None,None,0,,,,,,,,,,,,,,213,24,Female,2022-05-10_13h52.22.625,Main,2022.1.1,60.028729750110074,
positive,red,2,None,None,,,,,,,,,0,219,219,219,,,,,,,,,,,,,,,,,,,,,,,,,,,,,,,,,,,,,main,None,None,1,1.508694000000105,701.8462591,None,None,1,,,,,,,,,,,,,,213,24,Female,2022-05-10_13h52.22.625,Main,2022.1.1,60.028729750110074,
positive,yellow,1,None,k,,,,,,,,,0,220,220,220,,,,,,,,,,,,,,,,,,,,,,,,,,,,,,,,,,,,,main,k,k,1,1.0709366999999475,704.3574725000001,None,None,0,,,,,,,,,,,,,,213,24,Female,2022-05-10_13h52.22.625,Main,2022.1.1,60.028729750110074,
positive,blue,1,k,None,,,,,,,,,0,221,221,221,,,,,,,,,,,,,,,,,,,,,,,,,,,,,,,,,,,,,main,None,None,1,1.5077620000001843,706.4293365000001,None,None,1,,,,,,,,,,,,,,213,24,Female,2022-05-10_13h52.22.625,Main,2022.1.1,60.028729750110074,
positive,yellow,2,None,k,,,,,,,,,0,222,222,222,,,,,,,,,,,,,,,,,,,,,,,,,,,,,,,,,,,,,main,k,k,1,0.7849078999997801,708.938903,None,None,0,,,,,,,,,,,,,,213,24,Female,2022-05-10_13h52.22.625,Main,2022.1.1,60.028729750110074,
negative,yellow,1,k,None,,,,,,,,,0,223,223,223,,,,,,,,,,,,,,,,,,,,,,,,,,,,,,,,,,,,,main,None,None,1,1.5067956000002596,710.7264490999999,None,None,1,,,,,,,,,,,,,,213,24,Female,2022-05-10_13h52.22.625,Main,2022.1.1,60.028729750110074,
positive,yellow,2,None,k,,,,,,,,,0,224,224,224,,,,,,,,,,,,,,,,,,,,,,,,,,,,,,,,,,,,,main,k,k,1,4.101971000000049,713.2316392,None,None,0,,,,,,,,,,,,,,213,24,Female,2022-05-10_13h52.22.625,Main,2022.1.1,60.028729750110074,
negative,yellow,2,k,None,,,,,,,,,0,225,225,225,,,,,,,,,,,,,,,,,,,,,,,,,,,,,,,,,,,,,main,None,None,1,1.4931020000003628,719.3501087000002,None,None,1,,,,,,,,,,,,,,213,24,Female,2022-05-10_13h52.22.625,Main,2022.1.1,60.028729750110074,
negative,blue,2,None,k,,,,,,,,,0,226,226,226,,,,,,,,,,,,,,,,,,,,,,,,,,,,,,,,,,,,,main,k,k,1,0.6966348000000835,721.8448642000001,None,None,0,,,,,,,,,,,,,,213,24,Female,2022-05-10_13h52.22.625,Main,2022.1.1,60.028729750110074,
positive,red,2,None,None,,,,,,,,,0,227,227,227,,,,,,,,,,,,,,,,,,,,,,,,,,,,,,,,,,,,,main,None,None,1,1.4969463000002179,723.5435758000001,None,None,1,,,,,,,,,,,,,,213,24,Female,2022-05-10_13h52.22.625,Main,2022.1.1,60.028729750110074,
positive,blue,2,k,None,,,,,,,,,0,228,228,228,,,,,,,,,,,,,,,,,,,,,,,,,,,,,,,,,,,,,main,None,None,1,1.4946950000003199,726.0421773,None,None,1,,,,,,,,,,,,,,213,24,Female,2022-05-10_13h52.22.625,Main,2022.1.1,60.028729750110074,
negative,blue,1,None,k,,,,,,,,,0,229,229,229,,,,,,,,,,,,,,,,,,,,,,,,,,,,,,,,,,,,,main,k,k,1,0.6988621999998941,728.5385914000001,None,None,0,,,,,,,,,,,,,,213,24,Female,2022-05-10_13h52.22.625,Main,2022.1.1,60.028729750110074,
positive,yellow,1,None,k,,,,,,,,,0,230,230,230,,,,,,,,,,,,,,,,,,,,,,,,,,,,,,,,,,,,,main,k,k,1,0.6393394000001535,730.2390505000001,None,None,0,,,,,,,,,,,,,,213,24,Female,2022-05-10_13h52.22.625,Main,2022.1.1,60.028729750110074,
negative,blue,2,None,k,,,,,,,,,0,231,231,231,,,,,,,,,,,,,,,,,,,,,,,,,,,,,,,,,,,,,main,k,k,1,0.6851008999997248,731.8793929000001,None,None,0,,,,,,,,,,,,,,213,24,Female,2022-05-10_13h52.22.625,Main,2022.1.1,60.028729750110074,
negative,red,1,None,None,,,,,,,,,0,232,232,232,,,,,,,,,,,,,,,,,,,,,,,,,,,,,,,,,,,,,main,None,None,1,1.4962093999997705,733.5659186,None,None,1,,,,,,,,,,,,,,213,24,Female,2022-05-10_13h52.22.625,Main,2022.1.1,60.028729750110074,
positive,blue,2,k,None,,,,,,,,,0,233,233,233,,,,,,,,,,,,,,,,,,,,,,,,,,,,,,,,,,,,,main,None,None,1,1.4970805000002656,736.0656996,None,None,1,,,,,,,,,,,,,,213,24,Female,2022-05-10_13h52.22.625,Main,2022.1.1,60.028729750110074,
negative,yellow,1,k,None,,,,,,,,,0,234,234,234,,,,,,,,,,,,,,,,,,,,,,,,,,,,,,,,,,,,,main,None,None,1,1.5071953000001486,738.5619419000002,None,None,1,,,,,,,,,,,,,,213,24,Female,2022-05-10_13h52.22.625,Main,2022.1.1,60.028729750110074,
negative,yellow,2,k,None,,,,,,,,,0,235,235,235,,,,,,,,,,,,,,,,,,,,,,,,,,,,,,,,,,,,,main,None,None,1,1.5006099000001996,741.0722520000002,None,None,1,,,,,,,,,,,,,,213,24,Female,2022-05-10_13h52.22.625,Main,2022.1.1,60.028729750110074,
positive,red,1,None,None,,,,,,,,,0,236,236,236,,,,,,,,,,,,,,,,,,,,,,,,,,,,,,,,,,,,,main,None,None,1,1.508057000000008,743.5747457999998,None,None,1,,,,,,,,,,,,,,213,24,Female,2022-05-10_13h52.22.625,Main,2022.1.1,60.028729750110074,
negative,red,2,None,None,,,,,,,,,0,237,237,237,,,,,,,,,,,,,,,,,,,,,,,,,,,,,,,,,,,,,main,None,None,1,1.5020084000002498,746.0846746999998,None,None,1,,,,,,,,,,,,,,213,24,Female,2022-05-10_13h52.22.625,Main,2022.1.1,60.028729750110074,
negative,blue,1,None,k,,,,,,,,,0,238,238,238,,,,,,,,,,,,,,,,,,,,,,,,,,,,,,,,,,,,,main,k,k,1,0.6434040999997706,748.5871479999998,None,None,0,,,,,,,,,,,,,,213,24,Female,2022-05-10_13h52.22.625,Main,2022.1.1,60.028729750110074,
positive,blue,1,k,None,,,,,,,,,0,239,239,239,,,,,,,,,,,,,,,,,,,,,,,,,,,,,,,,,,,,,main,None,None,1,1.5108445999999276,750.2338272,None,None,1,,,,,,,,,,,,,,213,24,Female,2022-05-10_13h52.22.625,Main,2022.1.1,60.028729750110074,
,,,,,,,,,,,,,,,,,,,,,,,,,,,,,,,,,,,,,,,,,,,,,,,,,,,,,,,,,,,,,,,,,,,,,,,,,752.7323998999998,None,,,,,,,,
