distractor,target,set,ans1,ans2,rep_loop4.thisRepN,rep_loop4.thisTrialN,rep_loop4.thisN,rep_loop4.thisIndex,st2_prac_loop.thisRepN,st2_prac_loop.thisTrialN,st2_prac_loop.thisN,st2_prac_loop.thisIndex,st2_main_loop.thisRepN,st2_main_loop.thisTrialN,st2_main_loop.thisN,st2_main_loop.thisIndex,image_4.started,image_4.stopped,mouse_7.x,mouse_7.y,mouse_7.leftButton,mouse_7.midButton,mouse_7.rightButton,sound_2.started,sound_2.stopped,key_resp_3.keys,mouse_5.x,mouse_5.y,mouse_5.leftButton,mouse_5.midButton,mouse_5.rightButton,mouse_5.started,mouse_5.stopped,yes_text2.started,yes_text2.stopped,no_text2.started,no_text2.stopped,mouse_3.x,mouse_3.y,mouse_3.leftButton,mouse_3.midButton,mouse_3.rightButton,mouse_3.started,mouse_3.stopped,st_prac_back.started,st_prac_back.stopped,st_prac_text.started,st_prac_text.stopped,st_fix_back.started,st_fix_back.stopped,st_fix_2.started,st_fix_2.stopped,main_prac,st_ans,st_res,st_corr,st_rt,st_back.started,st_back.stopped,st2_resp.keys,st2_resp.corr,st_main_back.started,st_main_back.stopped,st_main_text.started,st_main_text.stopped,mouse_4.x,mouse_4.y,mouse_4.leftButton,mouse_4.midButton,mouse_4.rightButton,mouse_4.started,mouse_4.stopped,text_2.started,text_2.stopped,id*,age*,gender*,date,expName,psychopyVersion,frameRate,
,,,,,,,,,,,,,,,,,39.23519430000124,None,0.39074075,-0.08425926,0,0,0,,,,,,,,,,,,,,,,,,,,,,,,,,,,,,,,,,,,,,,,,,,,,,,,,,,,214,28,Female,2022-05-10_18h01.32.213,Main,2022.1.1,60.03582938366105,
negative,yellow,1,k,None,,,,,0,0,0,0,,,,,,,,,,,,44.22860594000012,None,None,0.4925926,-0.18240741,0,0,0,1.0055028999995557,None,102.45445429999927,None,102.45445429999927,None,-0.11203704,-0.0712963,0,0,0,0.012201040000945795,None,105.5784795999989,None,105.5784795999989,None,107.5883432999999,None,107.5883432999999,None,prac,k,k,1,5.367259800001193,109.61325740000211,None,None,0,,,,,,,,,,,,,,214,28,Female,2022-05-10_18h01.32.213,Main,2022.1.1,60.03582938366105,
positive,red,2,None,None,,,,,0,1,1,1,,,,,,,,,,,,,,,,,,,,,,,,,,,,,,,,,,,,,,,,,prac,None,None,1,1.5042836000029638,117.01165460000084,None,None,1,,,,,,,,,,,,,,214,28,Female,2022-05-10_18h01.32.213,Main,2022.1.1,60.03582938366105,
negative,blue,2,None,k,,,,,0,2,2,2,,,,,,,,,,,,,,,,,,,,,,,,,,,,,,,,,,,,,,,,,prac,None,None,1,1.5075169000010646,119.51661369999965,None,None,1,,,,,,,,,,,,,,214,28,Female,2022-05-10_18h01.32.213,Main,2022.1.1,60.03582938366105,
positive,yellow,1,None,k,,,,,0,3,3,3,,,,,,,,,,,,,,,,,,,,,,,,,,,,,,,,,,,,,,,,,prac,None,None,1,1.4992173999999068,122.02558379999937,None,None,1,,,,,,,,,,,,,,214,28,Female,2022-05-10_18h01.32.213,Main,2022.1.1,60.03582938366105,
negative,blue,2,None,k,,,,,0,4,4,4,,,,,,,,,,,,,,,,,,,,,,,,,,,,,,,,,,,,,,,,,prac,None,None,1,1.5092383000010159,124.52740110000195,None,None,1,,,,,,,,,,,,,,214,28,Female,2022-05-10_18h01.32.213,Main,2022.1.1,60.03582938366105,
negative,blue,1,None,k,,,,,0,5,5,5,,,,,,,,,,,,,,,,,,,,,,,,,,,,,,,,,,,,,,,,,prac,None,None,1,1.5092850000000908,127.03659879999941,None,None,1,,,,,,,,,,,,,,214,28,Female,2022-05-10_18h01.32.213,Main,2022.1.1,60.03582938366105,
negative,yellow,2,k,None,,,,,0,6,6,6,,,,,,,,,,,,,,,,,,,,,,,,,,,,,,,,,,,,,,,,,prac,k,k,1,2.5045161999987613,129.5424432000018,None,None,0,,,,,,,,,,,,,,214,28,Female,2022-05-10_18h01.32.213,Main,2022.1.1,60.03582938366105,
negative,red,1,None,None,,,,,0,7,7,7,,,,,,,,,,,,,,,,,,,,,,,,,,,,,,,,,,,,,,,,,prac,None,None,1,1.4985851000019466,134.0528144,None,None,1,,,,,,,,,,,,,,214,28,Female,2022-05-10_18h01.32.213,Main,2022.1.1,60.03582938366105,
positive,yellow,2,None,k,,,,,0,8,8,8,,,,,,,,,,,,,,,,,,,,,,,,,,,,,,,,,,,,,,,,,prac,None,None,1,1.4966843000001973,136.56040210000174,None,None,1,,,,,,,,,,,,,,214,28,Female,2022-05-10_18h01.32.213,Main,2022.1.1,60.03582938366105,
negative,yellow,1,k,None,,,,,0,9,9,9,,,,,,,,,,,,,,,,,,,,,,,,,,,,,,,,,,,,,,,,,prac,k,k,1,1.0440512000022864,139.04891550000139,None,None,0,,,,,,,,,,,,,,214,28,Female,2022-05-10_18h01.32.213,Main,2022.1.1,60.03582938366105,
positive,yellow,2,None,k,,,,,0,10,10,10,,,,,,,,,,,,,,,,,,,,,,,,,,,,,,,,,,,,,,,,,prac,None,None,1,1.4964177000001655,141.09732740000072,None,None,1,,,,,,,,,,,,,,214,28,Female,2022-05-10_18h01.32.213,Main,2022.1.1,60.03582938366105,
negative,yellow,2,k,None,,,,,0,11,11,11,,,,,,,,,,,,,,,,,,,,,,,,,,,,,,,,,,,,,,,,,prac,k,k,1,0.8055201999995916,143.59584110000105,None,None,0,,,,,,,,,,,,,,214,28,Female,2022-05-10_18h01.32.213,Main,2022.1.1,60.03582938366105,
negative,red,2,None,None,,,,,0,12,12,12,,,,,,,,,,,,,,,,,,,,,,,,,,,,,,,,,,,,,,,,,prac,None,None,1,1.5000935000025493,145.40399300000172,None,None,1,,,,,,,,,,,,,,214,28,Female,2022-05-10_18h01.32.213,Main,2022.1.1,60.03582938366105,
positive,red,1,None,None,,,,,0,13,13,13,,,,,,,,,,,,,,,,,,,,,,,,,,,,,,,,,,,,,,,,,prac,None,None,1,1.500484799998958,147.91117789999953,None,None,1,,,,,,,,,,,,,,214,28,Female,2022-05-10_18h01.32.213,Main,2022.1.1,60.03582938366105,
positive,blue,2,k,None,,,,,0,14,14,14,,,,,,,,,,,,,,,,,,,,,,,,,,,,,,,,,,,,,,,,,prac,k,k,1,0.6847051000004285,150.40782529999888,None,None,0,,,,,,,,,,,,,,214,28,Female,2022-05-10_18h01.32.213,Main,2022.1.1,60.03582938366105,
positive,blue,1,k,None,,,,,0,15,15,15,,,,,,,,,,,,,,,,,,,,,,,,,,,,,,,,,,,,,,,,,prac,k,k,1,0.7494633000023896,152.0943208000008,None,None,0,,,,,,,,,,,,,,214,28,Female,2022-05-10_18h01.32.213,Main,2022.1.1,60.03582938366105,
negative,blue,1,None,k,,,,,0,16,16,16,,,,,,,,,,,,,,,,,,,,,,,,,,,,,,,,,,,,,,,,,prac,None,None,1,1.5050760000012815,153.84431860000223,None,None,1,,,,,,,,,,,,,,214,28,Female,2022-05-10_18h01.32.213,Main,2022.1.1,60.03582938366105,
positive,blue,2,k,None,,,,,0,17,17,17,,,,,,,,,,,,,,,,,,,,,,,,,,,,,,,,,,,,,,,,,prac,k,k,1,1.45637859999988,156.34897010000168,None,None,0,,,,,,,,,,,,,,214,28,Female,2022-05-10_18h01.32.213,Main,2022.1.1,60.03582938366105,
positive,blue,1,k,None,,,,,0,18,18,18,,,,,,,,,,,,,,,,,,,,,,,,,,,,,,,,,,,,,,,,,prac,k,k,1,0.7421685000008438,158.80831919999946,None,None,0,,,,,,,,,,,,,,214,28,Female,2022-05-10_18h01.32.213,Main,2022.1.1,60.03582938366105,
positive,yellow,1,None,k,,,,,0,19,19,19,,,,,,,,,,,,,,,,,,,,,,,,,,,,,,,,,,,,,,,,,prac,None,None,1,1.5037191000010353,160.55306310000196,None,None,1,,,,,,,,,,,,,,214,28,Female,2022-05-10_18h01.32.213,Main,2022.1.1,60.03582938366105,
negative,yellow,1,k,None,,,,,1,0,20,0,,,,,,,,,,,,,,,,,,,,,,,,,,,,,,,,,,,,,,,,,prac,k,k,1,0.7828456999995979,163.05712550000135,None,None,0,,,,,,,,,,,,,,214,28,Female,2022-05-10_18h01.32.213,Main,2022.1.1,60.03582938366105,
positive,red,2,None,None,,,,,1,1,21,1,,,,,,,,,,,,,,,,,,,,,,,,,,,,,,,,,,,,,,,,,prac,None,None,1,1.503745699999854,164.84241819999988,None,None,1,,,,,,,,,,,,,,214,28,Female,2022-05-10_18h01.32.213,Main,2022.1.1,60.03582938366105,
negative,blue,2,None,k,,,,,1,2,22,2,,,,,,,,,,,,,,,,,,,,,,,,,,,,,,,,,,,,,,,,,prac,None,None,1,1.5086774000010337,167.34575349999977,None,None,1,,,,,,,,,,,,,,214,28,Female,2022-05-10_18h01.32.213,Main,2022.1.1,60.03582938366105,
positive,yellow,1,None,k,,,,,1,3,23,3,,,,,,,,,,,,,,,,,,,,,,,,,,,,,,,,,,,,,,,,,prac,None,None,1,1.5062212999982876,169.85754289999932,None,None,1,,,,,,,,,,,,,,214,28,Female,2022-05-10_18h01.32.213,Main,2022.1.1,60.03582938366105,
negative,blue,2,None,k,,,,,1,4,24,4,,,,,,,,,,,,,,,,,,,,,,,,,,,,,,,,,,,,,,,,,prac,None,None,1,1.4956686000004993,172.3653678999999,None,None,1,,,,,,,,,,,,,,214,28,Female,2022-05-10_18h01.32.213,Main,2022.1.1,60.03582938366105,
negative,blue,1,None,k,,,,,1,5,25,5,,,,,,,,,,,,,,,,,,,,,,,,,,,,,,,,,,,,,,,,,prac,None,None,1,1.5005964999982098,174.86181680000118,None,None,1,,,,,,,,,,,,,,214,28,Female,2022-05-10_18h01.32.213,Main,2022.1.1,60.03582938366105,
negative,yellow,2,k,None,,,,,1,6,26,6,,,,,,,,,,,,,,,,,,,,,,,,,,,,,,,,,,,,,,,,,prac,k,k,1,1.465123300000414,177.3625864000005,None,None,0,,,,,,,,,,,,,,214,28,Female,2022-05-10_18h01.32.213,Main,2022.1.1,60.03582938366105,
negative,red,1,None,None,,,,,1,7,27,7,,,,,,,,,,,,,,,,,,,,,,,,,,,,,,,,,,,,,,,,,prac,None,None,1,1.5127979999997478,179.82962249999946,None,None,1,,,,,,,,,,,,,,214,28,Female,2022-05-10_18h01.32.213,Main,2022.1.1,60.03582938366105,
positive,yellow,2,None,k,,,,,1,8,28,8,,,,,,,,,,,,,,,,,,,,,,,,,,,,,,,,,,,,,,,,,prac,None,None,1,1.5047969999977795,182.34426669999993,None,None,1,,,,,,,,,,,,,,214,28,Female,2022-05-10_18h01.32.213,Main,2022.1.1,60.03582938366105,
negative,yellow,1,k,None,,,,,1,9,29,9,,,,,,,,,,,,,,,,,,,,,,,,,,,,,,,,,,,,,,,,,prac,k,k,1,1.1154610000012326,184.85227029999987,None,None,0,,,,,,,,,,,,,,214,28,Female,2022-05-10_18h01.32.213,Main,2022.1.1,60.03582938366105,
positive,yellow,2,None,k,,,,,1,10,30,10,,,,,,,,,,,,,,,,,,,,,,,,,,,,,,,,,,,,,,,,,prac,None,None,1,1.4991157000004023,186.9695413999998,None,None,1,,,,,,,,,,,,,,214,28,Female,2022-05-10_18h01.32.213,Main,2022.1.1,60.03582938366105,
negative,yellow,2,k,None,,,,,1,11,31,11,,,,,,,,,,,,,,,,,,,,,,,,,,,,,,,,,,,,,,,,,prac,k,k,1,1.1318079999982729,189.4699711000012,None,None,0,,,,,,,,,,,,,,214,28,Female,2022-05-10_18h01.32.213,Main,2022.1.1,60.03582938366105,
negative,red,2,None,None,,,,,1,12,32,12,,,,,,,,,,,,,,,,,,,,,,,,,,,,,,,,,,,,,,,,,prac,None,None,1,1.4999078000000736,191.6035204000018,None,None,1,,,,,,,,,,,,,,214,28,Female,2022-05-10_18h01.32.213,Main,2022.1.1,60.03582938366105,
positive,red,1,None,None,,,,,1,13,33,13,,,,,,,,,,,,,,,,,,,,,,,,,,,,,,,,,,,,,,,,,prac,None,None,1,1.5048980999999912,194.1053735000005,None,None,1,,,,,,,,,,,,,,214,28,Female,2022-05-10_18h01.32.213,Main,2022.1.1,60.03582938366105,
positive,blue,2,k,None,,,,,1,14,34,14,,,,,,,,,,,,,,,,,,,,,,,,,,,,,,,,,,,,,,,,,prac,k,k,1,0.6165840000030585,196.61030930000015,None,None,0,,,,,,,,,,,,,,214,28,Female,2022-05-10_18h01.32.213,Main,2022.1.1,60.03582938366105,
positive,blue,1,k,None,,,,,1,15,35,15,,,,,,,,,,,,,,,,,,,,,,,,,,,,,,,,,,,,,,,,,prac,k,k,1,0.783612200000789,198.23226560000148,None,None,0,,,,,,,,,,,,,,214,28,Female,2022-05-10_18h01.32.213,Main,2022.1.1,60.03582938366105,
negative,blue,1,None,k,,,,,1,16,36,16,,,,,,,,,,,,,,,,,,,,,,,,,,,,,,,,,,,,,,,,,prac,None,None,1,1.5048268999998982,200.01591250000092,None,None,1,,,,,,,,,,,,,,214,28,Female,2022-05-10_18h01.32.213,Main,2022.1.1,60.03582938366105,
positive,blue,2,k,None,,,,,1,17,37,17,,,,,,,,,,,,,,,,,,,,,,,,,,,,,,,,,,,,,,,,,prac,k,k,1,0.8424728999998479,202.52124340000046,None,None,0,,,,,,,,,,,,,,214,28,Female,2022-05-10_18h01.32.213,Main,2022.1.1,60.03582938366105,
positive,blue,1,k,None,,,,,1,18,38,18,,,,,,,,,,,,,,,,,,,,,,,,,,,,,,,,,,,,,,,,,prac,k,k,1,0.744557399997575,204.36612570000034,None,None,0,,,,,,,,,,,,,,214,28,Female,2022-05-10_18h01.32.213,Main,2022.1.1,60.03582938366105,
positive,yellow,1,None,k,,,,,1,19,39,19,,,,,,,,,,,,,,,,,,,,,,,,,,,,,,,,,,,,,,,,,prac,None,None,1,1.5099947000016982,206.11231370000132,None,None,1,,,,,,,,,,,,,,214,28,Female,2022-05-10_18h01.32.213,Main,2022.1.1,60.03582938366105,
,,,,,,,,,,,,,,,,,,,,,,,,,,,,,,,,,,,,,,,,,,,,,,,,,,,,,,,,,,,,,,208.63743860000068,None,208.63743860000068,None,0.10277778,-0.073148146,0,0,0,0.010042339999927208,None,,,214,28,Female,2022-05-10_18h01.32.213,Main,2022.1.1,60.03582938366105,
negative,yellow,2,k,None,,,,,,,,,0,0,0,0,,,,,,,,,,,,,,,,,,,,,,,,,,,,,,,,,213.55758529999912,None,213.55758529999912,None,main,k,k,1,1.1565931999975874,215.62375219999922,None,None,0,,,,,,,,,,,,,,214,28,Female,2022-05-10_18h01.32.213,Main,2022.1.1,60.03582938366105,
positive,red,1,None,None,,,,,,,,,0,1,1,1,,,,,,,,,,,,,,,,,,,,,,,,,,,,,,,,,,,,,main,None,k,0,-0.7791322999983095,217.78363640000134,None,None,1,,,,,,,,,,,,,,214,28,Female,2022-05-10_18h01.32.213,Main,2022.1.1,60.03582938366105,
positive,blue,2,k,None,,,,,,,,,0,2,2,2,,,,,,,,,,,,,,,,,,,,,,,,,,,,,,,,,,,,,main,k,k,1,0.8432133999995131,221.0246793000024,None,None,0,,,,,,,,,,,,,,214,28,Female,2022-05-10_18h01.32.213,Main,2022.1.1,60.03582938366105,
positive,blue,1,k,None,,,,,,,,,0,3,3,3,,,,,,,,,,,,,,,,,,,,,,,,,,,,,,,,,,,,,main,k,k,1,0.7525539999987814,222.87008210000022,None,None,0,,,,,,,,,,,,,,214,28,Female,2022-05-10_18h01.32.213,Main,2022.1.1,60.03582938366105,
negative,yellow,2,k,None,,,,,,,,,0,4,4,4,,,,,,,,,,,,,,,,,,,,,,,,,,,,,,,,,,,,,main,k,k,1,1.5805022999993525,224.62697650000155,None,None,0,,,,,,,,,,,,,,214,28,Female,2022-05-10_18h01.32.213,Main,2022.1.1,60.03582938366105,
positive,yellow,2,None,k,,,,,,,,,0,5,5,5,,,,,,,,,,,,,,,,,,,,,,,,,,,,,,,,,,,,,main,None,None,1,1.5020466999994824,228.2068808999993,None,None,1,,,,,,,,,,,,,,214,28,Female,2022-05-10_18h01.32.213,Main,2022.1.1,60.03582938366105,
negative,blue,2,None,k,,,,,,,,,0,6,6,6,,,,,,,,,,,,,,,,,,,,,,,,,,,,,,,,,,,,,main,None,None,1,1.5034150000028603,230.71169470000132,None,None,1,,,,,,,,,,,,,,214,28,Female,2022-05-10_18h01.32.213,Main,2022.1.1,60.03582938366105,
positive,red,2,None,None,,,,,,,,,0,7,7,7,,,,,,,,,,,,,,,,,,,,,,,,,,,,,,,,,,,,,main,None,None,1,1.5051521000023058,233.21613099999922,None,None,1,,,,,,,,,,,,,,214,28,Female,2022-05-10_18h01.32.213,Main,2022.1.1,60.03582938366105,
positive,yellow,1,None,k,,,,,,,,,0,8,8,8,,,,,,,,,,,,,,,,,,,,,,,,,,,,,,,,,,,,,main,None,None,1,1.50688430000082,235.72030420000192,None,None,1,,,,,,,,,,,,,,214,28,Female,2022-05-10_18h01.32.213,Main,2022.1.1,60.03582938366105,
negative,red,1,None,None,,,,,,,,,0,9,9,9,,,,,,,,,,,,,,,,,,,,,,,,,,,,,,,,,,,,,main,None,None,1,1.5102068000014697,238.23066619999918,None,None,1,,,,,,,,,,,,,,214,28,Female,2022-05-10_18h01.32.213,Main,2022.1.1,60.03582938366105,
positive,yellow,1,None,k,,,,,,,,,0,10,10,10,,,,,,,,,,,,,,,,,,,,,,,,,,,,,,,,,,,,,main,None,None,1,1.5048773000016809,240.74408389999917,None,None,1,,,,,,,,,,,,,,214,28,Female,2022-05-10_18h01.32.213,Main,2022.1.1,60.03582938366105,
negative,yellow,1,k,None,,,,,,,,,0,11,11,11,,,,,,,,,,,,,,,,,,,,,,,,,,,,,,,,,,,,,main,k,k,1,0.6906401000014739,243.24926819999928,None,None,0,,,,,,,,,,,,,,214,28,Female,2022-05-10_18h01.32.213,Main,2022.1.1,60.03582938366105,
negative,yellow,1,k,None,,,,,,,,,0,12,12,12,,,,,,,,,,,,,,,,,,,,,,,,,,,,,,,,,,,,,main,k,k,1,0.6667090000009921,244.9424514000002,None,None,0,,,,,,,,,,,,,,214,28,Female,2022-05-10_18h01.32.213,Main,2022.1.1,60.03582938366105,
negative,red,2,None,None,,,,,,,,,0,13,13,13,,,,,,,,,,,,,,,,,,,,,,,,,,,,,,,,,,,,,main,None,None,1,1.5011210999982723,246.61055210000086,None,None,1,,,,,,,,,,,,,,214,28,Female,2022-05-10_18h01.32.213,Main,2022.1.1,60.03582938366105,
positive,yellow,2,None,k,,,,,,,,,0,14,14,14,,,,,,,,,,,,,,,,,,,,,,,,,,,,,,,,,,,,,main,None,None,1,1.507665500001167,249.1125144000016,None,None,1,,,,,,,,,,,,,,214,28,Female,2022-05-10_18h01.32.213,Main,2022.1.1,60.03582938366105,
positive,blue,1,k,None,,,,,,,,,0,15,15,15,,,,,,,,,,,,,,,,,,,,,,,,,,,,,,,,,,,,,main,k,k,1,0.7110627000001841,251.62268650000078,None,None,0,,,,,,,,,,,,,,214,28,Female,2022-05-10_18h01.32.213,Main,2022.1.1,60.03582938366105,
negative,blue,1,None,k,,,,,,,,,0,16,16,16,,,,,,,,,,,,,,,,,,,,,,,,,,,,,,,,,,,,,main,None,None,1,1.5050171000002592,253.33478060000016,None,None,1,,,,,,,,,,,,,,214,28,Female,2022-05-10_18h01.32.213,Main,2022.1.1,60.03582938366105,
positive,blue,2,k,None,,,,,,,,,0,17,17,17,,,,,,,,,,,,,,,,,,,,,,,,,,,,,,,,,,,,,main,k,k,1,0.6362953999996535,255.8422612000013,None,None,0,,,,,,,,,,,,,,214,28,Female,2022-05-10_18h01.32.213,Main,2022.1.1,60.03582938366105,
negative,blue,2,None,k,,,,,,,,,0,18,18,18,,,,,,,,,,,,,,,,,,,,,,,,,,,,,,,,,,,,,main,None,None,1,1.5108427999984997,257.48044200000186,None,None,1,,,,,,,,,,,,,,214,28,Female,2022-05-10_18h01.32.213,Main,2022.1.1,60.03582938366105,
negative,blue,1,None,k,,,,,,,,,0,19,19,19,,,,,,,,,,,,,,,,,,,,,,,,,,,,,,,,,,,,,main,None,None,1,1.5018459999992047,259.9926558999996,None,None,1,,,,,,,,,,,,,,214,28,Female,2022-05-10_18h01.32.213,Main,2022.1.1,60.03582938366105,
negative,blue,1,None,k,,,,,,,,,0,20,20,20,,,,,,,,,,,,,,,,,,,,,,,,,,,,,,,,,,,,,main,None,None,1,1.4955823999989661,262.4957961000018,None,None,1,,,,,,,,,,,,,,214,28,Female,2022-05-10_18h01.32.213,Main,2022.1.1,60.03582938366105,
negative,blue,2,None,k,,,,,,,,,0,21,21,21,,,,,,,,,,,,,,,,,,,,,,,,,,,,,,,,,,,,,main,None,None,1,1.5089499999994587,264.9934782,None,None,1,,,,,,,,,,,,,,214,28,Female,2022-05-10_18h01.32.213,Main,2022.1.1,60.03582938366105,
negative,red,1,None,None,,,,,,,,,0,22,22,22,,,,,,,,,,,,,,,,,,,,,,,,,,,,,,,,,,,,,main,None,None,1,1.5134450000005018,267.5014444999997,None,None,1,,,,,,,,,,,,,,214,28,Female,2022-05-10_18h01.32.213,Main,2022.1.1,60.03582938366105,
positive,red,2,None,None,,,,,,,,,0,23,23,23,,,,,,,,,,,,,,,,,,,,,,,,,,,,,,,,,,,,,main,None,None,1,1.5005233000010776,270.0186582000006,None,None,1,,,,,,,,,,,,,,214,28,Female,2022-05-10_18h01.32.213,Main,2022.1.1,60.03582938366105,
negative,red,2,None,None,,,,,,,,,0,24,24,24,,,,,,,,,,,,,,,,,,,,,,,,,,,,,,,,,,,,,main,None,None,1,1.500840299999254,272.52166600000237,None,None,1,,,,,,,,,,,,,,214,28,Female,2022-05-10_18h01.32.213,Main,2022.1.1,60.03582938366105,
positive,blue,2,k,None,,,,,,,,,0,25,25,25,,,,,,,,,,,,,,,,,,,,,,,,,,,,,,,,,,,,,main,k,k,1,1.4527672000003804,275.0245397000017,None,None,0,,,,,,,,,,,,,,214,28,Female,2022-05-10_18h01.32.213,Main,2022.1.1,60.03582938366105,
negative,yellow,1,k,None,,,,,,,,,0,26,26,26,,,,,,,,,,,,,,,,,,,,,,,,,,,,,,,,,,,,,main,k,k,1,1.0892334000018309,277.4785025000001,None,None,0,,,,,,,,,,,,,,214,28,Female,2022-05-10_18h01.32.213,Main,2022.1.1,60.03582938366105,
positive,blue,2,k,None,,,,,,,,,0,27,27,27,,,,,,,,,,,,,,,,,,,,,,,,,,,,,,,,,,,,,main,k,k,1,1.4447218000022986,279.56792099999984,None,None,0,,,,,,,,,,,,,,214,28,Female,2022-05-10_18h01.32.213,Main,2022.1.1,60.03582938366105,
negative,blue,2,None,k,,,,,,,,,0,28,28,28,,,,,,,,,,,,,,,,,,,,,,,,,,,,,,,,,,,,,main,None,None,1,1.4990865999970993,282.0141324000015,None,None,1,,,,,,,,,,,,,,214,28,Female,2022-05-10_18h01.32.213,Main,2022.1.1,60.03582938366105,
positive,red,1,None,None,,,,,,,,,0,29,29,29,,,,,,,,,,,,,,,,,,,,,,,,,,,,,,,,,,,,,main,None,None,1,1.4994015999982366,284.5146318999996,None,None,1,,,,,,,,,,,,,,214,28,Female,2022-05-10_18h01.32.213,Main,2022.1.1,60.03582938366105,
positive,blue,1,k,None,,,,,,,,,0,30,30,30,,,,,,,,,,,,,,,,,,,,,,,,,,,,,,,,,,,,,main,k,k,1,0.7816358999989461,287.0177108000007,None,None,0,,,,,,,,,,,,,,214,28,Female,2022-05-10_18h01.32.213,Main,2022.1.1,60.03582938366105,
positive,yellow,1,None,k,,,,,,,,,0,31,31,31,,,,,,,,,,,,,,,,,,,,,,,,,,,,,,,,,,,,,main,None,None,1,1.4978513999994902,288.8027947999999,None,None,1,,,,,,,,,,,,,,214,28,Female,2022-05-10_18h01.32.213,Main,2022.1.1,60.03582938366105,
negative,yellow,2,k,None,,,,,,,,,0,32,32,32,,,,,,,,,,,,,,,,,,,,,,,,,,,,,,,,,,,,,main,k,k,1,0.737964899999497,291.2993585000022,None,None,0,,,,,,,,,,,,,,214,28,Female,2022-05-10_18h01.32.213,Main,2022.1.1,60.03582938366105,
negative,blue,1,None,k,,,,,,,,,0,33,33,33,,,,,,,,,,,,,,,,,,,,,,,,,,,,,,,,,,,,,main,None,None,1,1.5106704999998328,293.0408881000021,None,None,1,,,,,,,,,,,,,,214,28,Female,2022-05-10_18h01.32.213,Main,2022.1.1,60.03582938366105,
positive,blue,1,k,None,,,,,,,,,0,34,34,34,,,,,,,,,,,,,,,,,,,,,,,,,,,,,,,,,,,,,main,k,k,1,0.8287579999996524,295.5548921999998,None,None,0,,,,,,,,,,,,,,214,28,Female,2022-05-10_18h01.32.213,Main,2022.1.1,60.03582938366105,
negative,yellow,1,k,None,,,,,,,,,0,35,35,35,,,,,,,,,,,,,,,,,,,,,,,,,,,,,,,,,,,,,main,k,k,1,0.7144670999987284,297.3838861999993,None,None,0,,,,,,,,,,,,,,214,28,Female,2022-05-10_18h01.32.213,Main,2022.1.1,60.03582938366105,
positive,yellow,2,None,k,,,,,,,,,0,36,36,36,,,,,,,,,,,,,,,,,,,,,,,,,,,,,,,,,,,,,main,None,None,1,1.5094583999998576,299.09796780000215,None,None,1,,,,,,,,,,,,,,214,28,Female,2022-05-10_18h01.32.213,Main,2022.1.1,60.03582938366105,
positive,yellow,2,None,k,,,,,,,,,0,37,37,37,,,,,,,,,,,,,,,,,,,,,,,,,,,,,,,,,,,,,main,None,None,1,1.513287699999637,301.61077380000097,None,None,1,,,,,,,,,,,,,,214,28,Female,2022-05-10_18h01.32.213,Main,2022.1.1,60.03582938366105,
negative,yellow,2,k,None,,,,,,,,,0,38,38,38,,,,,,,,,,,,,,,,,,,,,,,,,,,,,,,,,,,,,main,k,k,1,0.7665023000008659,304.1268362999999,None,None,0,,,,,,,,,,,,,,214,28,Female,2022-05-10_18h01.32.213,Main,2022.1.1,60.03582938366105,
positive,yellow,1,None,k,,,,,,,,,0,39,39,39,,,,,,,,,,,,,,,,,,,,,,,,,,,,,,,,,,,,,main,None,None,1,1.499126200000319,305.8953315000017,None,None,1,,,,,,,,,,,,,,214,28,Female,2022-05-10_18h01.32.213,Main,2022.1.1,60.03582938366105,
negative,yellow,2,k,None,,,,,,,,,0,40,40,40,,,,,,,,,,,,,,,,,,,,,,,,,,,,,,,,,,,,,main,k,k,1,0.7647292000001471,308.39890790000027,None,None,0,,,,,,,,,,,,,,214,28,Female,2022-05-10_18h01.32.213,Main,2022.1.1,60.03582938366105,
positive,blue,2,k,None,,,,,,,,,0,41,41,41,,,,,,,,,,,,,,,,,,,,,,,,,,,,,,,,,,,,,main,k,k,1,0.840777600002184,310.16460670000197,None,None,0,,,,,,,,,,,,,,214,28,Female,2022-05-10_18h01.32.213,Main,2022.1.1,60.03582938366105,
positive,blue,2,k,None,,,,,,,,,0,42,42,42,,,,,,,,,,,,,,,,,,,,,,,,,,,,,,,,,,,,,main,k,k,1,0.5175237000003108,312.005938100001,None,None,0,,,,,,,,,,,,,,214,28,Female,2022-05-10_18h01.32.213,Main,2022.1.1,60.03582938366105,
negative,blue,2,None,k,,,,,,,,,0,43,43,43,,,,,,,,,,,,,,,,,,,,,,,,,,,,,,,,,,,,,main,None,None,1,1.5130890000000363,313.5280131000018,None,None,1,,,,,,,,,,,,,,214,28,Female,2022-05-10_18h01.32.213,Main,2022.1.1,60.03582938366105,
negative,red,1,None,None,,,,,,,,,0,44,44,44,,,,,,,,,,,,,,,,,,,,,,,,,,,,,,,,,,,,,main,None,None,1,1.500190599999769,316.04262850000123,None,None,1,,,,,,,,,,,,,,214,28,Female,2022-05-10_18h01.32.213,Main,2022.1.1,60.03582938366105,
negative,yellow,1,k,None,,,,,,,,,0,45,45,45,,,,,,,,,,,,,,,,,,,,,,,,,,,,,,,,,,,,,main,k,k,1,0.7216735999973025,318.5464168000017,None,None,0,,,,,,,,,,,,,,214,28,Female,2022-05-10_18h01.32.213,Main,2022.1.1,60.03582938366105,
negative,yellow,1,k,None,,,,,,,,,0,46,46,46,,,,,,,,,,,,,,,,,,,,,,,,,,,,,,,,,,,,,main,k,k,1,0.6065030000027036,320.27049870000155,None,None,0,,,,,,,,,,,,,,214,28,Female,2022-05-10_18h01.32.213,Main,2022.1.1,60.03582938366105,
positive,red,1,None,None,,,,,,,,,0,47,47,47,,,,,,,,,,,,,,,,,,,,,,,,,,,,,,,,,,,,,main,None,None,1,1.5020417000014277,321.87709989999894,None,None,1,,,,,,,,,,,,,,214,28,Female,2022-05-10_18h01.32.213,Main,2022.1.1,60.03582938366105,
positive,yellow,1,None,k,,,,,,,,,0,48,48,48,,,,,,,,,,,,,,,,,,,,,,,,,,,,,,,,,,,,,main,None,None,1,1.5020737000013469,324.38276040000164,None,None,1,,,,,,,,,,,,,,214,28,Female,2022-05-10_18h01.32.213,Main,2022.1.1,60.03582938366105,
negative,blue,1,None,k,,,,,,,,,0,49,49,49,,,,,,,,,,,,,,,,,,,,,,,,,,,,,,,,,,,,,main,None,None,1,1.495096900001954,326.88571240000056,None,None,1,,,,,,,,,,,,,,214,28,Female,2022-05-10_18h01.32.213,Main,2022.1.1,60.03582938366105,
positive,yellow,2,None,k,,,,,,,,,0,50,50,50,,,,,,,,,,,,,,,,,,,,,,,,,,,,,,,,,,,,,main,None,None,1,1.4941737999979523,329.3822918999995,None,None,1,,,,,,,,,,,,,,214,28,Female,2022-05-10_18h01.32.213,Main,2022.1.1,60.03582938366105,
negative,blue,1,None,k,,,,,,,,,0,51,51,51,,,,,,,,,,,,,,,,,,,,,,,,,,,,,,,,,,,,,main,None,None,1,1.5036583000000974,331.87847330000113,None,None,1,,,,,,,,,,,,,,214,28,Female,2022-05-10_18h01.32.213,Main,2022.1.1,60.03582938366105,
positive,red,2,None,None,,,,,,,,,0,52,52,52,,,,,,,,,,,,,,,,,,,,,,,,,,,,,,,,,,,,,main,None,None,1,1.509858900000836,334.3838412000023,None,None,1,,,,,,,,,,,,,,214,28,Female,2022-05-10_18h01.32.213,Main,2022.1.1,60.03582938366105,
positive,yellow,2,None,k,,,,,,,,,0,53,53,53,,,,,,,,,,,,,,,,,,,,,,,,,,,,,,,,,,,,,main,None,None,1,1.4979038999990735,336.89287689999946,None,None,1,,,,,,,,,,,,,,214,28,Female,2022-05-10_18h01.32.213,Main,2022.1.1,60.03582938366105,
negative,red,2,None,None,,,,,,,,,0,54,54,54,,,,,,,,,,,,,,,,,,,,,,,,,,,,,,,,,,,,,main,None,None,1,1.5083222000030219,339.39192100000037,None,None,1,,,,,,,,,,,,,,214,28,Female,2022-05-10_18h01.32.213,Main,2022.1.1,60.03582938366105,
positive,yellow,1,None,k,,,,,,,,,0,55,55,55,,,,,,,,,,,,,,,,,,,,,,,,,,,,,,,,,,,,,main,None,None,1,1.5104256000013265,341.9032621000024,None,None,1,,,,,,,,,,,,,,214,28,Female,2022-05-10_18h01.32.213,Main,2022.1.1,60.03582938366105,
negative,blue,2,None,k,,,,,,,,,0,56,56,56,,,,,,,,,,,,,,,,,,,,,,,,,,,,,,,,,,,,,main,None,None,1,1.506858299999294,344.4175634000003,None,None,1,,,,,,,,,,,,,,214,28,Female,2022-05-10_18h01.32.213,Main,2022.1.1,60.03582938366105,
positive,blue,1,k,None,,,,,,,,,0,57,57,57,,,,,,,,,,,,,,,,,,,,,,,,,,,,,,,,,,,,,main,k,k,1,1.23089550000077,346.92446759999984,None,None,0,,,,,,,,,,,,,,214,28,Female,2022-05-10_18h01.32.213,Main,2022.1.1,60.03582938366105,
positive,blue,1,k,None,,,,,,,,,0,58,58,58,,,,,,,,,,,,,,,,,,,,,,,,,,,,,,,,,,,,,main,k,k,1,0.6487498000024061,349.15943549999974,None,None,0,,,,,,,,,,,,,,214,28,Female,2022-05-10_18h01.32.213,Main,2022.1.1,60.03582938366105,
negative,yellow,2,k,None,,,,,,,,,0,59,59,59,,,,,,,,,,,,,,,,,,,,,,,,,,,,,,,,,,,,,main,k,k,1,1.0586901000024227,350.8067654000024,None,None,0,,,,,,,,,,,,,,214,28,Female,2022-05-10_18h01.32.213,Main,2022.1.1,60.03582938366105,
positive,red,2,None,None,,,,,,,,,0,60,60,60,,,,,,,,,,,,,,,,,,,,,,,,,,,,,,,,,,,,,main,None,None,1,1.5117510000018228,352.8691263000019,None,None,1,,,,,,,,,,,,,,214,28,Female,2022-05-10_18h01.32.213,Main,2022.1.1,60.03582938366105,
negative,yellow,1,k,None,,,,,,,,,0,61,61,61,,,,,,,,,,,,,,,,,,,,,,,,,,,,,,,,,,,,,main,k,k,1,1.1103675999984262,355.3822631999992,None,None,0,,,,,,,,,,,,,,214,28,Female,2022-05-10_18h01.32.213,Main,2022.1.1,60.03582938366105,
negative,red,1,None,None,,,,,,,,,0,62,62,62,,,,,,,,,,,,,,,,,,,,,,,,,,,,,,,,,,,,,main,None,None,1,1.4981422999990173,357.4946299000021,None,None,1,,,,,,,,,,,,,,214,28,Female,2022-05-10_18h01.32.213,Main,2022.1.1,60.03582938366105,
negative,blue,1,None,k,,,,,,,,,0,63,63,63,,,,,,,,,,,,,,,,,,,,,,,,,,,,,,,,,,,,,main,None,None,1,1.5115719999994326,359.994743199999,None,None,1,,,,,,,,,,,,,,214,28,Female,2022-05-10_18h01.32.213,Main,2022.1.1,60.03582938366105,
positive,blue,2,k,None,,,,,,,,,0,64,64,64,,,,,,,,,,,,,,,,,,,,,,,,,,,,,,,,,,,,,main,k,k,1,0.7387482000012824,362.50756450000154,None,None,0,,,,,,,,,,,,,,214,28,Female,2022-05-10_18h01.32.213,Main,2022.1.1,60.03582938366105,
negative,yellow,2,k,None,,,,,,,,,0,65,65,65,,,,,,,,,,,,,,,,,,,,,,,,,,,,,,,,,,,,,main,k,k,1,0.8682472000000416,364.2492274000015,None,None,0,,,,,,,,,,,,,,214,28,Female,2022-05-10_18h01.32.213,Main,2022.1.1,60.03582938366105,
positive,yellow,2,None,k,,,,,,,,,0,66,66,66,,,,,,,,,,,,,,,,,,,,,,,,,,,,,,,,,,,,,main,None,None,1,1.499732700001914,366.11962999999923,None,None,1,,,,,,,,,,,,,,214,28,Female,2022-05-10_18h01.32.213,Main,2022.1.1,60.03582938366105,
positive,yellow,2,None,k,,,,,,,,,0,67,67,67,,,,,,,,,,,,,,,,,,,,,,,,,,,,,,,,,,,,,main,None,None,1,1.5051354999995965,368.620882600002,None,None,1,,,,,,,,,,,,,,214,28,Female,2022-05-10_18h01.32.213,Main,2022.1.1,60.03582938366105,
positive,red,1,None,None,,,,,,,,,0,68,68,68,,,,,,,,,,,,,,,,,,,,,,,,,,,,,,,,,,,,,main,None,None,1,1.5038519999980053,371.12902120000035,None,None,1,,,,,,,,,,,,,,214,28,Female,2022-05-10_18h01.32.213,Main,2022.1.1,60.03582938366105,
positive,yellow,1,None,k,,,,,,,,,0,69,69,69,,,,,,,,,,,,,,,,,,,,,,,,,,,,,,,,,,,,,main,None,None,1,1.5122014000007766,373.63461429999916,None,None,1,,,,,,,,,,,,,,214,28,Female,2022-05-10_18h01.32.213,Main,2022.1.1,60.03582938366105,
negative,yellow,2,k,None,,,,,,,,,0,70,70,70,,,,,,,,,,,,,,,,,,,,,,,,,,,,,,,,,,,,,main,k,k,1,0.7012977999984287,376.1502942999996,None,None,0,,,,,,,,,,,,,,214,28,Female,2022-05-10_18h01.32.213,Main,2022.1.1,60.03582938366105,
positive,yellow,1,None,k,,,,,,,,,0,71,71,71,,,,,,,,,,,,,,,,,,,,,,,,,,,,,,,,,,,,,main,None,None,1,1.5011190000004717,377.8573469999992,None,None,1,,,,,,,,,,,,,,214,28,Female,2022-05-10_18h01.32.213,Main,2022.1.1,60.03582938366105,
negative,blue,1,None,k,,,,,,,,,0,72,72,72,,,,,,,,,,,,,,,,,,,,,,,,,,,,,,,,,,,,,main,None,None,1,1.4986974999992526,380.35753840000143,None,None,1,,,,,,,,,,,,,,214,28,Female,2022-05-10_18h01.32.213,Main,2022.1.1,60.03582938366105,
negative,red,2,None,None,,,,,,,,,0,73,73,73,,,,,,,,,,,,,,,,,,,,,,,,,,,,,,,,,,,,,main,None,None,1,1.508363900000404,382.8579288000019,None,None,1,,,,,,,,,,,,,,214,28,Female,2022-05-10_18h01.32.213,Main,2022.1.1,60.03582938366105,
positive,blue,2,k,None,,,,,,,,,0,74,74,74,,,,,,,,,,,,,,,,,,,,,,,,,,,,,,,,,,,,,main,k,k,1,0.8910391000026721,385.3666666000008,None,None,0,,,,,,,,,,,,,,214,28,Female,2022-05-10_18h01.32.213,Main,2022.1.1,60.03582938366105,
negative,blue,2,None,k,,,,,,,,,0,75,75,75,,,,,,,,,,,,,,,,,,,,,,,,,,,,,,,,,,,,,main,None,None,1,1.5120454999996582,387.26364450000074,None,None,1,,,,,,,,,,,,,,214,28,Female,2022-05-10_18h01.32.213,Main,2022.1.1,60.03582938366105,
negative,blue,2,None,k,,,,,,,,,0,76,76,76,,,,,,,,,,,,,,,,,,,,,,,,,,,,,,,,,,,,,main,None,None,1,1.4969115999992937,389.7764259000014,None,None,1,,,,,,,,,,,,,,214,28,Female,2022-05-10_18h01.32.213,Main,2022.1.1,60.03582938366105,
negative,yellow,1,k,None,,,,,,,,,0,77,77,77,,,,,,,,,,,,,,,,,,,,,,,,,,,,,,,,,,,,,main,k,k,1,0.9048701000028814,392.274925300002,None,None,0,,,,,,,,,,,,,,214,28,Female,2022-05-10_18h01.32.213,Main,2022.1.1,60.03582938366105,
positive,blue,1,k,None,,,,,,,,,0,78,78,78,,,,,,,,,,,,,,,,,,,,,,,,,,,,,,,,,,,,,main,k,k,1,0.6864195999987714,394.1834222000016,None,None,0,,,,,,,,,,,,,,214,28,Female,2022-05-10_18h01.32.213,Main,2022.1.1,60.03582938366105,
positive,blue,1,k,None,,,,,,,,,0,79,79,79,,,,,,,,,,,,,,,,,,,,,,,,,,,,,,,,,,,,,main,k,k,1,0.6514151000010315,395.87156530000175,None,None,0,,,,,,,,,,,,,,214,28,Female,2022-05-10_18h01.32.213,Main,2022.1.1,60.03582938366105,
positive,red,2,None,None,,,,,,,,,0,80,80,80,,,,,,,,,,,,,,,,,,,,,,,,,,,,,,,,,,,,,main,None,None,1,1.497398700001213,397.5239195000013,None,None,1,,,,,,,,,,,,,,214,28,Female,2022-05-10_18h01.32.213,Main,2022.1.1,60.03582938366105,
positive,yellow,2,None,k,,,,,,,,,0,81,81,81,,,,,,,,,,,,,,,,,,,,,,,,,,,,,,,,,,,,,main,None,None,1,1.5095532999985153,400.0230896000012,None,None,1,,,,,,,,,,,,,,214,28,Female,2022-05-10_18h01.32.213,Main,2022.1.1,60.03582938366105,
positive,blue,1,k,None,,,,,,,,,0,82,82,82,,,,,,,,,,,,,,,,,,,,,,,,,,,,,,,,,,,,,main,k,k,1,0.6995435000026191,402.53160509999907,None,None,0,,,,,,,,,,,,,,214,28,Female,2022-05-10_18h01.32.213,Main,2022.1.1,60.03582938366105,
negative,yellow,2,k,None,,,,,,,,,0,83,83,83,,,,,,,,,,,,,,,,,,,,,,,,,,,,,,,,,,,,,main,k,k,1,0.9174840000014228,404.2328374000008,None,None,0,,,,,,,,,,,,,,214,28,Female,2022-05-10_18h01.32.213,Main,2022.1.1,60.03582938366105,
positive,blue,2,k,None,,,,,,,,,0,84,84,84,,,,,,,,,,,,,,,,,,,,,,,,,,,,,,,,,,,,,main,k,k,1,0.711290100000042,406.15271570000004,None,None,0,,,,,,,,,,,,,,214,28,Female,2022-05-10_18h01.32.213,Main,2022.1.1,60.03582938366105,
positive,yellow,1,None,k,,,,,,,,,0,85,85,85,,,,,,,,,,,,,,,,,,,,,,,,,,,,,,,,,,,,,main,None,None,1,1.5104700999982015,407.8644614999994,None,None,1,,,,,,,,,,,,,,214,28,Female,2022-05-10_18h01.32.213,Main,2022.1.1,60.03582938366105,
positive,blue,2,k,None,,,,,,,,,0,86,86,86,,,,,,,,,,,,,,,,,,,,,,,,,,,,,,,,,,,,,main,k,k,1,0.7401661000003514,410.37869970000065,None,None,0,,,,,,,,,,,,,,214,28,Female,2022-05-10_18h01.32.213,Main,2022.1.1,60.03582938366105,
positive,blue,1,k,None,,,,,,,,,0,87,87,87,,,,,,,,,,,,,,,,,,,,,,,,,,,,,,,,,,,,,main,k,k,1,0.6219510999981139,412.12075260000165,None,None,0,,,,,,,,,,,,,,214,28,Female,2022-05-10_18h01.32.213,Main,2022.1.1,60.03582938366105,
negative,yellow,2,k,None,,,,,,,,,0,88,88,88,,,,,,,,,,,,,,,,,,,,,,,,,,,,,,,,,,,,,main,k,k,1,0.7724197000025015,413.7440962000019,None,None,0,,,,,,,,,,,,,,214,28,Female,2022-05-10_18h01.32.213,Main,2022.1.1,60.03582938366105,
negative,blue,2,None,k,,,,,,,,,0,89,89,89,,,,,,,,,,,,,,,,,,,,,,,,,,,,,,,,,,,,,main,None,None,1,1.5135616999978083,415.51590469999974,None,None,1,,,,,,,,,,,,,,214,28,Female,2022-05-10_18h01.32.213,Main,2022.1.1,60.03582938366105,
positive,yellow,2,None,k,,,,,,,,,0,90,90,90,,,,,,,,,,,,,,,,,,,,,,,,,,,,,,,,,,,,,main,None,None,1,1.505775800000265,418.03139310000006,None,None,1,,,,,,,,,,,,,,214,28,Female,2022-05-10_18h01.32.213,Main,2022.1.1,60.03582938366105,
negative,yellow,1,k,None,,,,,,,,,0,91,91,91,,,,,,,,,,,,,,,,,,,,,,,,,,,,,,,,,,,,,main,k,k,1,0.9627808000004734,420.5392305000005,None,None,0,,,,,,,,,,,,,,214,28,Female,2022-05-10_18h01.32.213,Main,2022.1.1,60.03582938366105,
negative,red,2,None,None,,,,,,,,,0,92,92,92,,,,,,,,,,,,,,,,,,,,,,,,,,,,,,,,,,,,,main,None,None,1,1.5035505999985617,422.5045759000004,None,None,1,,,,,,,,,,,,,,214,28,Female,2022-05-10_18h01.32.213,Main,2022.1.1,60.03582938366105,
negative,blue,2,None,k,,,,,,,,,0,93,93,93,,,,,,,,,,,,,,,,,,,,,,,,,,,,,,,,,,,,,main,None,None,1,1.4970341000007465,425.0090887999995,None,None,1,,,,,,,,,,,,,,214,28,Female,2022-05-10_18h01.32.213,Main,2022.1.1,60.03582938366105,
negative,blue,1,None,k,,,,,,,,,0,94,94,94,,,,,,,,,,,,,,,,,,,,,,,,,,,,,,,,,,,,,main,None,None,1,1.493794699999853,427.5084874000004,None,None,1,,,,,,,,,,,,,,214,28,Female,2022-05-10_18h01.32.213,Main,2022.1.1,60.03582938366105,
negative,blue,1,None,k,,,,,,,,,0,95,95,95,,,,,,,,,,,,,,,,,,,,,,,,,,,,,,,,,,,,,main,None,None,1,1.4965415999977267,430.0056147000014,None,None,1,,,,,,,,,,,,,,214,28,Female,2022-05-10_18h01.32.213,Main,2022.1.1,60.03582938366105,
negative,red,1,None,None,,,,,,,,,0,96,96,96,,,,,,,,,,,,,,,,,,,,,,,,,,,,,,,,,,,,,main,None,None,1,1.5095760000003793,432.5040123000017,None,None,1,,,,,,,,,,,,,,214,28,Female,2022-05-10_18h01.32.213,Main,2022.1.1,60.03582938366105,
positive,yellow,1,None,k,,,,,,,,,0,97,97,97,,,,,,,,,,,,,,,,,,,,,,,,,,,,,,,,,,,,,main,None,None,1,1.5087634999981674,435.0148147000018,None,None,1,,,,,,,,,,,,,,214,28,Female,2022-05-10_18h01.32.213,Main,2022.1.1,60.03582938366105,
negative,yellow,1,k,None,,,,,,,,,0,98,98,98,,,,,,,,,,,,,,,,,,,,,,,,,,,,,,,,,,,,,main,k,k,1,0.9808699000022898,437.5243375000009,None,None,0,,,,,,,,,,,,,,214,28,Female,2022-05-10_18h01.32.213,Main,2022.1.1,60.03582938366105,
positive,red,1,None,None,,,,,,,,,0,99,99,99,,,,,,,,,,,,,,,,,,,,,,,,,,,,,,,,,,,,,main,None,None,1,1.4972349000017857,439.5061939999996,None,None,1,,,,,,,,,,,,,,214,28,Female,2022-05-10_18h01.32.213,Main,2022.1.1,60.03582938366105,
positive,blue,1,k,None,,,,,,,,,0,100,100,100,,,,,,,,,,,,,,,,,,,,,,,,,,,,,,,,,,,,,main,k,k,1,0.7059711000001698,442.0056530999991,None,None,0,,,,,,,,,,,,,,214,28,Female,2022-05-10_18h01.32.213,Main,2022.1.1,60.03582938366105,
negative,yellow,1,k,None,,,,,,,,,0,101,101,101,,,,,,,,,,,,,,,,,,,,,,,,,,,,,,,,,,,,,main,k,k,1,0.8200861999976041,443.7113733999995,None,None,0,,,,,,,,,,,,,,214,28,Female,2022-05-10_18h01.32.213,Main,2022.1.1,60.03582938366105,
negative,blue,2,None,k,,,,,,,,,0,102,102,102,,,,,,,,,,,,,,,,,,,,,,,,,,,,,,,,,,,,,main,None,None,1,1.510156200001802,445.5352514999995,None,None,1,,,,,,,,,,,,,,214,28,Female,2022-05-10_18h01.32.213,Main,2022.1.1,60.03582938366105,
negative,yellow,2,k,None,,,,,,,,,0,103,103,103,,,,,,,,,,,,,,,,,,,,,,,,,,,,,,,,,,,,,main,k,k,1,1.2478895999993256,448.0480167000005,None,None,0,,,,,,,,,,,,,,214,28,Female,2022-05-10_18h01.32.213,Main,2022.1.1,60.03582938366105,
positive,yellow,2,None,k,,,,,,,,,0,104,104,104,,,,,,,,,,,,,,,,,,,,,,,,,,,,,,,,,,,,,main,None,None,1,1.5018401000015729,450.2949849000015,None,None,1,,,,,,,,,,,,,,214,28,Female,2022-05-10_18h01.32.213,Main,2022.1.1,60.03582938366105,
positive,blue,1,k,None,,,,,,,,,0,105,105,105,,,,,,,,,,,,,,,,,,,,,,,,,,,,,,,,,,,,,main,k,k,1,0.9146040000014182,452.8014443000011,None,None,0,,,,,,,,,,,,,,214,28,Female,2022-05-10_18h01.32.213,Main,2022.1.1,60.03582938366105,
positive,blue,2,k,None,,,,,,,,,0,106,106,106,,,,,,,,,,,,,,,,,,,,,,,,,,,,,,,,,,,,,main,k,k,1,0.7130679999972926,454.71892110000226,None,None,0,,,,,,,,,,,,,,214,28,Female,2022-05-10_18h01.32.213,Main,2022.1.1,60.03582938366105,
negative,blue,1,None,k,,,,,,,,,0,107,107,107,,,,,,,,,,,,,,,,,,,,,,,,,,,,,,,,,,,,,main,None,None,1,1.503253399998357,456.43199529999947,None,None,1,,,,,,,,,,,,,,214,28,Female,2022-05-10_18h01.32.213,Main,2022.1.1,60.03582938366105,
positive,yellow,2,None,k,,,,,,,,,0,108,108,108,,,,,,,,,,,,,,,,,,,,,,,,,,,,,,,,,,,,,main,None,None,1,1.4933315000016592,458.93645149999975,None,None,1,,,,,,,,,,,,,,214,28,Female,2022-05-10_18h01.32.213,Main,2022.1.1,60.03582938366105,
negative,yellow,1,k,None,,,,,,,,,0,109,109,109,,,,,,,,,,,,,,,,,,,,,,,,,,,,,,,,,,,,,main,k,k,1,0.7110868000017945,461.4322301000011,None,None,0,,,,,,,,,,,,,,214,28,Female,2022-05-10_18h01.32.213,Main,2022.1.1,60.03582938366105,
negative,blue,2,None,k,,,,,,,,,0,110,110,110,,,,,,,,,,,,,,,,,,,,,,,,,,,,,,,,,,,,,main,None,None,1,1.5040934999997262,463.1428794000003,None,None,1,,,,,,,,,,,,,,214,28,Female,2022-05-10_18h01.32.213,Main,2022.1.1,60.03582938366105,
positive,blue,2,k,None,,,,,,,,,0,111,111,111,,,,,,,,,,,,,,,,,,,,,,,,,,,,,,,,,,,,,main,k,k,1,0.8523177999995823,465.6502827000022,None,None,0,,,,,,,,,,,,,,214,28,Female,2022-05-10_18h01.32.213,Main,2022.1.1,60.03582938366105,
negative,blue,1,None,k,,,,,,,,,0,112,112,112,,,,,,,,,,,,,,,,,,,,,,,,,,,,,,,,,,,,,main,None,None,1,1.4979827999995905,467.5042579000019,None,None,1,,,,,,,,,,,,,,214,28,Female,2022-05-10_18h01.32.213,Main,2022.1.1,60.03582938366105,
positive,yellow,1,None,k,,,,,,,,,0,113,113,113,,,,,,,,,,,,,,,,,,,,,,,,,,,,,,,,,,,,,main,None,None,1,1.496406600002956,470.0030318000008,None,None,1,,,,,,,,,,,,,,214,28,Female,2022-05-10_18h01.32.213,Main,2022.1.1,60.03582938366105,
negative,red,1,None,None,,,,,,,,,0,114,114,114,,,,,,,,,,,,,,,,,,,,,,,,,,,,,,,,,,,,,main,None,None,1,1.4952224000007845,472.50179469999966,None,None,1,,,,,,,,,,,,,,214,28,Female,2022-05-10_18h01.32.213,Main,2022.1.1,60.03582938366105,
positive,red,1,None,None,,,,,,,,,0,115,115,115,,,,,,,,,,,,,,,,,,,,,,,,,,,,,,,,,,,,,main,None,None,1,1.509891300000163,474.99857370000063,None,None,1,,,,,,,,,,,,,,214,28,Female,2022-05-10_18h01.32.213,Main,2022.1.1,60.03582938366105,
negative,red,2,None,None,,,,,,,,,0,116,116,116,,,,,,,,,,,,,,,,,,,,,,,,,,,,,,,,,,,,,main,None,None,1,1.5131118999997852,477.50748550000026,None,None,1,,,,,,,,,,,,,,214,28,Female,2022-05-10_18h01.32.213,Main,2022.1.1,60.03582938366105,
negative,yellow,2,k,None,,,,,,,,,0,117,117,117,,,,,,,,,,,,,,,,,,,,,,,,,,,,,,,,,,,,,main,k,k,1,1.402716299999156,480.02205810000123,None,None,0,,,,,,,,,,,,,,214,28,Female,2022-05-10_18h01.32.213,Main,2022.1.1,60.03582938366105,
positive,yellow,1,None,k,,,,,,,,,0,118,118,118,,,,,,,,,,,,,,,,,,,,,,,,,,,,,,,,,,,,,main,None,None,1,1.5030298000019684,482.4295906999996,None,None,1,,,,,,,,,,,,,,214,28,Female,2022-05-10_18h01.32.213,Main,2022.1.1,60.03582938366105,
positive,red,2,None,None,,,,,,,,,0,119,119,119,,,,,,,,,,,,,,,,,,,,,,,,,,,,,,,,,,,,,main,None,None,1,1.5083701000003202,484.9348537999995,None,None,1,,,,,,,,,,,,,,214,28,Female,2022-05-10_18h01.32.213,Main,2022.1.1,60.03582938366105,
positive,blue,2,k,None,,,,,,,,,0,120,120,120,,,,,,,,,,,,,,,,,,,,,,,,,,,,,,,,,,,,,main,k,k,1,0.8613441999987117,487.4446536000014,None,None,0,,,,,,,,,,,,,,214,28,Female,2022-05-10_18h01.32.213,Main,2022.1.1,60.03582938366105,
negative,red,1,None,None,,,,,,,,,0,121,121,121,,,,,,,,,,,,,,,,,,,,,,,,,,,,,,,,,,,,,main,None,None,1,1.498290100000304,489.3058227999991,None,None,1,,,,,,,,,,,,,,214,28,Female,2022-05-10_18h01.32.213,Main,2022.1.1,60.03582938366105,
positive,yellow,2,None,k,,,,,,,,,0,122,122,122,,,,,,,,,,,,,,,,,,,,,,,,,,,,,,,,,,,,,main,None,None,1,1.5081118000016431,491.80815880000046,None,None,1,,,,,,,,,,,,,,214,28,Female,2022-05-10_18h01.32.213,Main,2022.1.1,60.03582938366105,
negative,red,2,None,None,,,,,,,,,0,123,123,123,,,,,,,,,,,,,,,,,,,,,,,,,,,,,,,,,,,,,main,None,None,1,1.501708100000542,494.3180530000009,None,None,1,,,,,,,,,,,,,,214,28,Female,2022-05-10_18h01.32.213,Main,2022.1.1,60.03582938366105,
negative,yellow,2,k,None,,,,,,,,,0,124,124,124,,,,,,,,,,,,,,,,,,,,,,,,,,,,,,,,,,,,,main,k,k,1,0.8032832999997481,496.8223211000022,None,None,0,,,,,,,,,,,,,,214,28,Female,2022-05-10_18h01.32.213,Main,2022.1.1,60.03582938366105,
positive,red,1,None,None,,,,,,,,,0,125,125,125,,,,,,,,,,,,,,,,,,,,,,,,,,,,,,,,,,,,,main,None,None,1,1.5090778000012506,498.6283859000014,None,None,1,,,,,,,,,,,,,,214,28,Female,2022-05-10_18h01.32.213,Main,2022.1.1,60.03582938366105,
negative,blue,2,None,k,,,,,,,,,0,126,126,126,,,,,,,,,,,,,,,,,,,,,,,,,,,,,,,,,,,,,main,None,None,1,1.5062132999992173,501.1383695000022,None,None,1,,,,,,,,,,,,,,214,28,Female,2022-05-10_18h01.32.213,Main,2022.1.1,60.03582938366105,
negative,blue,1,None,k,,,,,,,,,0,127,127,127,,,,,,,,,,,,,,,,,,,,,,,,,,,,,,,,,,,,,main,None,None,1,1.5099589000019478,503.6477400999993,None,None,1,,,,,,,,,,,,,,214,28,Female,2022-05-10_18h01.32.213,Main,2022.1.1,60.03582938366105,
negative,yellow,1,k,None,,,,,,,,,0,128,128,128,,,,,,,,,,,,,,,,,,,,,,,,,,,,,,,,,,,,,main,k,k,1,0.8983917000005022,506.1596917000006,None,None,0,,,,,,,,,,,,,,214,28,Female,2022-05-10_18h01.32.213,Main,2022.1.1,60.03582938366105,
negative,yellow,1,k,None,,,,,,,,,0,129,129,129,,,,,,,,,,,,,,,,,,,,,,,,,,,,,,,,,,,,,main,k,k,1,0.6042840000009164,508.0604174000018,None,None,0,,,,,,,,,,,,,,214,28,Female,2022-05-10_18h01.32.213,Main,2022.1.1,60.03582938366105,
positive,blue,1,k,None,,,,,,,,,0,130,130,130,,,,,,,,,,,,,,,,,,,,,,,,,,,,,,,,,,,,,main,k,k,1,0.7375229999997828,509.66479079999954,None,None,0,,,,,,,,,,,,,,214,28,Female,2022-05-10_18h01.32.213,Main,2022.1.1,60.03582938366105,
negative,blue,1,None,k,,,,,,,,,0,131,131,131,,,,,,,,,,,,,,,,,,,,,,,,,,,,,,,,,,,,,main,None,None,1,1.5118507999977737,511.4029582000021,None,None,1,,,,,,,,,,,,,,214,28,Female,2022-05-10_18h01.32.213,Main,2022.1.1,60.03582938366105,
negative,blue,2,None,k,,,,,,,,,0,132,132,132,,,,,,,,,,,,,,,,,,,,,,,,,,,,,,,,,,,,,main,None,None,1,1.5001063999989128,513.9170328000018,None,None,1,,,,,,,,,,,,,,214,28,Female,2022-05-10_18h01.32.213,Main,2022.1.1,60.03582938366105,
positive,blue,2,k,None,,,,,,,,,0,133,133,133,,,,,,,,,,,,,,,,,,,,,,,,,,,,,,,,,,,,,main,k,k,1,0.7144369999987248,516.4186782000015,None,None,0,,,,,,,,,,,,,,214,28,Female,2022-05-10_18h01.32.213,Main,2022.1.1,60.03582938366105,
positive,red,2,None,None,,,,,,,,,0,134,134,134,,,,,,,,,,,,,,,,,,,,,,,,,,,,,,,,,,,,,main,None,None,1,1.5018219000012323,518.1348190000008,None,None,1,,,,,,,,,,,,,,214,28,Female,2022-05-10_18h01.32.213,Main,2022.1.1,60.03582938366105,
negative,yellow,2,k,None,,,,,,,,,0,135,135,135,,,,,,,,,,,,,,,,,,,,,,,,,,,,,,,,,,,,,main,k,k,1,1.241649799998413,520.6399466999992,None,None,0,,,,,,,,,,,,,,214,28,Female,2022-05-10_18h01.32.213,Main,2022.1.1,60.03582938366105,
positive,yellow,2,None,k,,,,,,,,,0,136,136,136,,,,,,,,,,,,,,,,,,,,,,,,,,,,,,,,,,,,,main,None,None,1,1.506821500002843,522.8823873999991,None,None,1,,,,,,,,,,,,,,214,28,Female,2022-05-10_18h01.32.213,Main,2022.1.1,60.03582938366105,
positive,blue,1,k,None,,,,,,,,,0,137,137,137,,,,,,,,,,,,,,,,,,,,,,,,,,,,,,,,,,,,,main,k,k,1,0.7125636999990093,525.3931155000009,None,None,0,,,,,,,,,,,,,,214,28,Female,2022-05-10_18h01.32.213,Main,2022.1.1,60.03582938366105,
positive,yellow,1,None,k,,,,,,,,,0,138,138,138,,,,,,,,,,,,,,,,,,,,,,,,,,,,,,,,,,,,,main,None,None,1,1.5102761999987706,527.1073775999994,None,None,1,,,,,,,,,,,,,,214,28,Female,2022-05-10_18h01.32.213,Main,2022.1.1,60.03582938366105,
positive,yellow,1,None,k,,,,,,,,,0,139,139,139,,,,,,,,,,,,,,,,,,,,,,,,,,,,,,,,,,,,,main,None,None,1,1.4989119000019855,529.618733199999,None,None,1,,,,,,,,,,,,,,214,28,Female,2022-05-10_18h01.32.213,Main,2022.1.1,60.03582938366105,
positive,yellow,1,None,k,,,,,,,,,0,140,140,140,,,,,,,,,,,,,,,,,,,,,,,,,,,,,,,,,,,,,main,None,None,1,1.5007641999982297,532.1192557000013,None,None,1,,,,,,,,,,,,,,214,28,Female,2022-05-10_18h01.32.213,Main,2022.1.1,60.03582938366105,
positive,blue,1,k,None,,,,,,,,,0,141,141,141,,,,,,,,,,,,,,,,,,,,,,,,,,,,,,,,,,,,,main,k,k,1,0.6949438000010559,534.6218376000015,None,None,0,,,,,,,,,,,,,,214,28,Female,2022-05-10_18h01.32.213,Main,2022.1.1,60.03582938366105,
positive,blue,2,k,None,,,,,,,,,0,142,142,142,,,,,,,,,,,,,,,,,,,,,,,,,,,,,,,,,,,,,main,k,k,1,0.6137859999980719,536.315648400001,None,None,0,,,,,,,,,,,,,,214,28,Female,2022-05-10_18h01.32.213,Main,2022.1.1,60.03582938366105,
positive,yellow,2,None,k,,,,,,,,,0,143,143,143,,,,,,,,,,,,,,,,,,,,,,,,,,,,,,,,,,,,,main,None,None,1,1.5036734999994223,537.9315979000003,None,None,1,,,,,,,,,,,,,,214,28,Female,2022-05-10_18h01.32.213,Main,2022.1.1,60.03582938366105,
negative,yellow,2,k,None,,,,,,,,,0,144,144,144,,,,,,,,,,,,,,,,,,,,,,,,,,,,,,,,,,,,,main,k,k,1,0.9277518999988388,540.4395685,None,None,0,,,,,,,,,,,,,,214,28,Female,2022-05-10_18h01.32.213,Main,2022.1.1,60.03582938366105,
negative,blue,2,None,k,,,,,,,,,0,145,145,145,,,,,,,,,,,,,,,,,,,,,,,,,,,,,,,,,,,,,main,None,None,1,1.5138518000021577,542.3658692000008,None,None,1,,,,,,,,,,,,,,214,28,Female,2022-05-10_18h01.32.213,Main,2022.1.1,60.03582938366105,
negative,red,1,None,None,,,,,,,,,0,146,146,146,,,,,,,,,,,,,,,,,,,,,,,,,,,,,,,,,,,,,main,None,None,1,1.498705300000438,544.8810218000017,None,None,1,,,,,,,,,,,,,,214,28,Female,2022-05-10_18h01.32.213,Main,2022.1.1,60.03582938366105,
positive,blue,1,k,None,,,,,,,,,0,147,147,147,,,,,,,,,,,,,,,,,,,,,,,,,,,,,,,,,,,,,main,k,k,1,0.958554600001662,547.3816552000008,None,None,0,,,,,,,,,,,,,,214,28,Female,2022-05-10_18h01.32.213,Main,2022.1.1,60.03582938366105,
positive,yellow,1,None,k,,,,,,,,,0,148,148,148,,,,,,,,,,,,,,,,,,,,,,,,,,,,,,,,,,,,,main,None,None,1,1.494495500002813,549.3435709000023,None,None,1,,,,,,,,,,,,,,214,28,Female,2022-05-10_18h01.32.213,Main,2022.1.1,60.03582938366105,
negative,red,2,None,None,,,,,,,,,0,149,149,149,,,,,,,,,,,,,,,,,,,,,,,,,,,,,,,,,,,,,main,None,None,1,1.50960920000216,551.8412764000004,None,None,1,,,,,,,,,,,,,,214,28,Female,2022-05-10_18h01.32.213,Main,2022.1.1,60.03582938366105,
negative,blue,1,None,k,,,,,,,,,0,150,150,150,,,,,,,,,,,,,,,,,,,,,,,,,,,,,,,,,,,,,main,None,None,1,1.5059962000013911,554.3518623,None,None,1,,,,,,,,,,,,,,214,28,Female,2022-05-10_18h01.32.213,Main,2022.1.1,60.03582938366105,
negative,yellow,2,k,None,,,,,,,,,0,151,151,151,,,,,,,,,,,,,,,,,,,,,,,,,,,,,,,,,,,,,main,k,k,1,0.7499338000015996,556.8596390000002,None,None,0,,,,,,,,,,,,,,214,28,Female,2022-05-10_18h01.32.213,Main,2022.1.1,60.03582938366105,
negative,blue,2,None,k,,,,,,,,,0,152,152,152,,,,,,,,,,,,,,,,,,,,,,,,,,,,,,,,,,,,,main,None,None,1,1.510867100001633,558.6110921999989,None,None,1,,,,,,,,,,,,,,214,28,Female,2022-05-10_18h01.32.213,Main,2022.1.1,60.03582938366105,
negative,yellow,1,k,None,,,,,,,,,0,153,153,153,,,,,,,,,,,,,,,,,,,,,,,,,,,,,,,,,,,,,main,k,k,1,1.7645841000012297,561.1249480999995,None,None,0,,,,,,,,,,,,,,214,28,Female,2022-05-10_18h01.32.213,Main,2022.1.1,60.03582938366105,
negative,blue,1,None,k,,,,,,,,,0,154,154,154,,,,,,,,,,,,,,,,,,,,,,,,,,,,,,,,,,,,,main,None,None,1,1.4895543999991787,564.8974739000023,None,None,1,,,,,,,,,,,,,,214,28,Female,2022-05-10_18h01.32.213,Main,2022.1.1,60.03582938366105,
positive,yellow,2,None,k,,,,,,,,,0,155,155,155,,,,,,,,,,,,,,,,,,,,,,,,,,,,,,,,,,,,,main,None,None,1,1.5010528999991948,567.3880061,None,None,1,,,,,,,,,,,,,,214,28,Female,2022-05-10_18h01.32.213,Main,2022.1.1,60.03582938366105,
positive,red,2,None,None,,,,,,,,,0,156,156,156,,,,,,,,,,,,,,,,,,,,,,,,,,,,,,,,,,,,,main,None,None,1,1.5037437999999383,569.8911542000005,None,None,1,,,,,,,,,,,,,,214,28,Female,2022-05-10_18h01.32.213,Main,2022.1.1,60.03582938366105,
positive,red,1,None,None,,,,,,,,,0,157,157,157,,,,,,,,,,,,,,,,,,,,,,,,,,,,,,,,,,,,,main,None,None,1,1.5088157999998657,572.3951847000008,None,None,1,,,,,,,,,,,,,,214,28,Female,2022-05-10_18h01.32.213,Main,2022.1.1,60.03582938366105,
positive,blue,2,k,None,,,,,,,,,0,158,158,158,,,,,,,,,,,,,,,,,,,,,,,,,,,,,,,,,,,,,main,k,k,1,0.7174527999995917,574.9087125000024,None,None,0,,,,,,,,,,,,,,214,28,Female,2022-05-10_18h01.32.213,Main,2022.1.1,60.03582938366105,
negative,yellow,1,k,None,,,,,,,,,0,159,159,159,,,,,,,,,,,,,,,,,,,,,,,,,,,,,,,,,,,,,main,k,k,1,1.3764420000006794,576.6273925000005,None,None,0,,,,,,,,,,,,,,214,28,Female,2022-05-10_18h01.32.213,Main,2022.1.1,60.03582938366105,
negative,red,2,None,None,,,,,,,,,0,160,160,160,,,,,,,,,,,,,,,,,,,,,,,,,,,,,,,,,,,,,main,None,None,1,1.5007111000013538,579.0100231000015,None,None,1,,,,,,,,,,,,,,214,28,Female,2022-05-10_18h01.32.213,Main,2022.1.1,60.03582938366105,
negative,blue,1,None,k,,,,,,,,,0,161,161,161,,,,,,,,,,,,,,,,,,,,,,,,,,,,,,,,,,,,,main,None,None,1,1.5144918000005418,581.5099609000008,None,None,1,,,,,,,,,,,,,,214,28,Female,2022-05-10_18h01.32.213,Main,2022.1.1,60.03582938366105,
negative,blue,1,None,k,,,,,,,,,0,162,162,162,,,,,,,,,,,,,,,,,,,,,,,,,,,,,,,,,,,,,main,None,None,1,1.5094222000006994,584.0257475000017,None,None,1,,,,,,,,,,,,,,214,28,Female,2022-05-10_18h01.32.213,Main,2022.1.1,60.03582938366105,
negative,yellow,1,k,None,,,,,,,,,0,163,163,163,,,,,,,,,,,,,,,,,,,,,,,,,,,,,,,,,,,,,main,k,k,1,0.7548451000002387,586.5385594000018,None,None,0,,,,,,,,,,,,,,214,28,Female,2022-05-10_18h01.32.213,Main,2022.1.1,60.03582938366105,
negative,yellow,1,k,None,,,,,,,,,0,164,164,164,,,,,,,,,,,,,,,,,,,,,,,,,,,,,,,,,,,,,main,k,k,1,0.8017332999988867,588.2954881999995,None,None,0,,,,,,,,,,,,,,214,28,Female,2022-05-10_18h01.32.213,Main,2022.1.1,60.03582938366105,
positive,yellow,1,None,k,,,,,,,,,0,165,165,165,,,,,,,,,,,,,,,,,,,,,,,,,,,,,,,,,,,,,main,None,None,1,1.500321299998177,590.1006187000003,None,None,1,,,,,,,,,,,,,,214,28,Female,2022-05-10_18h01.32.213,Main,2022.1.1,60.03582938366105,
negative,red,1,None,None,,,,,,,,,0,166,166,166,,,,,,,,,,,,,,,,,,,,,,,,,,,,,,,,,,,,,main,None,None,1,1.4931625000026543,592.6012812999998,None,None,1,,,,,,,,,,,,,,214,28,Female,2022-05-10_18h01.32.213,Main,2022.1.1,60.03582938366105,
negative,yellow,2,k,None,,,,,,,,,0,167,167,167,,,,,,,,,,,,,,,,,,,,,,,,,,,,,,,,,,,,,main,k,k,1,1.0042675000004238,595.0965477000009,None,None,0,,,,,,,,,,,,,,214,28,Female,2022-05-10_18h01.32.213,Main,2022.1.1,60.03582938366105,
positive,blue,2,k,None,,,,,,,,,0,168,168,168,,,,,,,,,,,,,,,,,,,,,,,,,,,,,,,,,,,,,main,k,k,1,0.6392563999979757,597.1022973000017,None,None,0,,,,,,,,,,,,,,214,28,Female,2022-05-10_18h01.32.213,Main,2022.1.1,60.03582938366105,
positive,red,2,None,None,,,,,,,,,0,169,169,169,,,,,,,,,,,,,,,,,,,,,,,,,,,,,,,,,,,,,main,None,None,1,1.505585400002019,598.741961400001,None,None,1,,,,,,,,,,,,,,214,28,Female,2022-05-10_18h01.32.213,Main,2022.1.1,60.03582938366105,
positive,red,1,None,None,,,,,,,,,0,170,170,170,,,,,,,,,,,,,,,,,,,,,,,,,,,,,,,,,,,,,main,None,None,1,1.4952177999984997,601.2498587999999,None,None,1,,,,,,,,,,,,,,214,28,Female,2022-05-10_18h01.32.213,Main,2022.1.1,60.03582938366105,
negative,blue,2,None,k,,,,,,,,,0,171,171,171,,,,,,,,,,,,,,,,,,,,,,,,,,,,,,,,,,,,,main,None,None,1,1.513617599997815,603.7472036000017,None,None,1,,,,,,,,,,,,,,214,28,Female,2022-05-10_18h01.32.213,Main,2022.1.1,60.03582938366105,
positive,blue,2,k,None,,,,,,,,,0,172,172,172,,,,,,,,,,,,,,,,,,,,,,,,,,,,,,,,,,,,,main,k,k,1,0.729374700000335,606.261913700002,None,None,0,,,,,,,,,,,,,,214,28,Female,2022-05-10_18h01.32.213,Main,2022.1.1,60.03582938366105,
negative,yellow,2,k,None,,,,,,,,,0,173,173,173,,,,,,,,,,,,,,,,,,,,,,,,,,,,,,,,,,,,,main,k,k,1,1.0918326999999408,607.9911900999996,None,None,0,,,,,,,,,,,,,,214,28,Female,2022-05-10_18h01.32.213,Main,2022.1.1,60.03582938366105,
positive,yellow,2,None,k,,,,,,,,,0,174,174,174,,,,,,,,,,,,,,,,,,,,,,,,,,,,,,,,,,,,,main,None,None,1,1.5006509000013466,610.0862715999992,None,None,1,,,,,,,,,,,,,,214,28,Female,2022-05-10_18h01.32.213,Main,2022.1.1,60.03582938366105,
negative,blue,2,None,k,,,,,,,,,0,175,175,175,,,,,,,,,,,,,,,,,,,,,,,,,,,,,,,,,,,,,main,None,None,1,1.4994157000000996,612.589323000002,None,None,1,,,,,,,,,,,,,,214,28,Female,2022-05-10_18h01.32.213,Main,2022.1.1,60.03582938366105,
positive,blue,1,k,None,,,,,,,,,0,176,176,176,,,,,,,,,,,,,,,,,,,,,,,,,,,,,,,,,,,,,main,k,k,1,0.8630091000013635,615.0910297999999,None,None,0,,,,,,,,,,,,,,214,28,Female,2022-05-10_18h01.32.213,Main,2022.1.1,60.03582938366105,
positive,yellow,1,None,k,,,,,,,,,0,177,177,177,,,,,,,,,,,,,,,,,,,,,,,,,,,,,,,,,,,,,main,None,None,1,1.501403799997206,616.9564198999997,None,None,1,,,,,,,,,,,,,,214,28,Female,2022-05-10_18h01.32.213,Main,2022.1.1,60.03582938366105,
positive,blue,1,k,None,,,,,,,,,0,178,178,178,,,,,,,,,,,,,,,,,,,,,,,,,,,,,,,,,,,,,main,k,k,1,0.8884646999977122,619.4606464000008,None,None,0,,,,,,,,,,,,,,214,28,Female,2022-05-10_18h01.32.213,Main,2022.1.1,60.03582938366105,
positive,yellow,2,None,k,,,,,,,,,0,179,179,179,,,,,,,,,,,,,,,,,,,,,,,,,,,,,,,,,,,,,main,None,None,1,1.497638900000311,621.350406399999,None,None,1,,,,,,,,,,,,,,214,28,Female,2022-05-10_18h01.32.213,Main,2022.1.1,60.03582938366105,
positive,blue,1,k,None,,,,,,,,,0,180,180,180,,,,,,,,,,,,,,,,,,,,,,,,,,,,,,,,,,,,,main,k,k,1,1.372074099999736,623.8489207000002,None,None,0,,,,,,,,,,,,,,214,28,Female,2022-05-10_18h01.32.213,Main,2022.1.1,60.03582938366105,
negative,red,1,None,None,,,,,,,,,0,181,181,181,,,,,,,,,,,,,,,,,,,,,,,,,,,,,,,,,,,,,main,None,None,1,1.506211500000063,626.2216319999989,None,None,1,,,,,,,,,,,,,,214,28,Female,2022-05-10_18h01.32.213,Main,2022.1.1,60.03582938366105,
negative,blue,1,None,k,,,,,,,,,0,182,182,182,,,,,,,,,,,,,,,,,,,,,,,,,,,,,,,,,,,,,main,None,None,1,1.493210500000714,628.7306298999993,None,None,1,,,,,,,,,,,,,,214,28,Female,2022-05-10_18h01.32.213,Main,2022.1.1,60.03582938366105,
negative,yellow,2,k,None,,,,,,,,,0,183,183,183,,,,,,,,,,,,,,,,,,,,,,,,,,,,,,,,,,,,,main,k,k,1,0.9276001999969594,631.2259482999998,None,None,0,,,,,,,,,,,,,,214,28,Female,2022-05-10_18h01.32.213,Main,2022.1.1,60.03582938366105,
positive,yellow,2,None,k,,,,,,,,,0,184,184,184,,,,,,,,,,,,,,,,,,,,,,,,,,,,,,,,,,,,,main,None,None,1,1.5095870000004652,633.152532500002,None,None,1,,,,,,,,,,,,,,214,28,Female,2022-05-10_18h01.32.213,Main,2022.1.1,60.03582938366105,
positive,yellow,1,None,k,,,,,,,,,0,185,185,185,,,,,,,,,,,,,,,,,,,,,,,,,,,,,,,,,,,,,main,None,None,1,1.4954154000006383,635.6652460999994,None,None,1,,,,,,,,,,,,,,214,28,Female,2022-05-10_18h01.32.213,Main,2022.1.1,60.03582938366105,
positive,red,2,None,None,,,,,,,,,0,186,186,186,,,,,,,,,,,,,,,,,,,,,,,,,,,,,,,,,,,,,main,None,None,1,1.5064372999986517,638.1628951000002,None,None,1,,,,,,,,,,,,,,214,28,Female,2022-05-10_18h01.32.213,Main,2022.1.1,60.03582938366105,
positive,blue,1,k,None,,,,,,,,,0,187,187,187,,,,,,,,,,,,,,,,,,,,,,,,,,,,,,,,,,,,,main,k,k,1,3.574435699996684,640.6686317000003,None,None,0,,,,,,,,,,,,,,214,28,Female,2022-05-10_18h01.32.213,Main,2022.1.1,60.03582938366105,
negative,yellow,1,k,None,,,,,,,,,0,188,188,188,,,,,,,,,,,,,,,,,,,,,,,,,,,,,,,,,,,,,main,k,k,1,0.8331693999971321,646.2532052000006,None,None,0,,,,,,,,,,,,,,214,28,Female,2022-05-10_18h01.32.213,Main,2022.1.1,60.03582938366105,
positive,yellow,2,None,k,,,,,,,,,0,189,189,189,,,,,,,,,,,,,,,,,,,,,,,,,,,,,,,,,,,,,main,None,None,1,1.4968516999979329,648.0857908000016,None,None,1,,,,,,,,,,,,,,214,28,Female,2022-05-10_18h01.32.213,Main,2022.1.1,60.03582938366105,
negative,yellow,2,k,None,,,,,,,,,0,190,190,190,,,,,,,,,,,,,,,,,,,,,,,,,,,,,,,,,,,,,main,k,k,1,0.7990186999995785,650.5872954999995,None,None,0,,,,,,,,,,,,,,214,28,Female,2022-05-10_18h01.32.213,Main,2022.1.1,60.03582938366105,
negative,yellow,1,k,None,,,,,,,,,0,191,191,191,,,,,,,,,,,,,,,,,,,,,,,,,,,,,,,,,,,,,main,k,k,1,0.869133399999555,652.385742299999,None,None,0,,,,,,,,,,,,,,214,28,Female,2022-05-10_18h01.32.213,Main,2022.1.1,60.03582938366105,
positive,blue,2,k,None,,,,,,,,,0,192,192,192,,,,,,,,,,,,,,,,,,,,,,,,,,,,,,,,,,,,,main,k,k,1,0.7146044000000984,654.257864600002,None,None,0,,,,,,,,,,,,,,214,28,Female,2022-05-10_18h01.32.213,Main,2022.1.1,60.03582938366105,
positive,yellow,1,None,k,,,,,,,,,0,193,193,193,,,,,,,,,,,,,,,,,,,,,,,,,,,,,,,,,,,,,main,None,None,1,1.5105409999996482,655.9745386000013,None,None,1,,,,,,,,,,,,,,214,28,Female,2022-05-10_18h01.32.213,Main,2022.1.1,60.03582938366105,
negative,red,2,None,None,,,,,,,,,0,194,194,194,,,,,,,,,,,,,,,,,,,,,,,,,,,,,,,,,,,,,main,None,None,1,1.4980825999991794,658.4840115999996,None,None,1,,,,,,,,,,,,,,214,28,Female,2022-05-10_18h01.32.213,Main,2022.1.1,60.03582938366105,
positive,red,1,None,None,,,,,,,,,0,195,195,195,,,,,,,,,,,,,,,,,,,,,,,,,,,,,,,,,,,,,main,None,None,1,1.4983443999990413,660.9839244000013,None,None,1,,,,,,,,,,,,,,214,28,Female,2022-05-10_18h01.32.213,Main,2022.1.1,60.03582938366105,
negative,blue,1,None,k,,,,,,,,,0,196,196,196,,,,,,,,,,,,,,,,,,,,,,,,,,,,,,,,,,,,,main,None,None,1,1.4980127000017092,663.4834323000014,None,None,1,,,,,,,,,,,,,,214,28,Female,2022-05-10_18h01.32.213,Main,2022.1.1,60.03582938366105,
positive,blue,2,k,None,,,,,,,,,0,197,197,197,,,,,,,,,,,,,,,,,,,,,,,,,,,,,,,,,,,,,main,k,k,1,1.494525900001463,665.9829340000015,None,None,0,,,,,,,,,,,,,,214,28,Female,2022-05-10_18h01.32.213,Main,2022.1.1,60.03582938366105,
negative,blue,2,None,k,,,,,,,,,0,198,198,198,,,,,,,,,,,,,,,,,,,,,,,,,,,,,,,,,,,,,main,None,None,1,1.5077438000007533,668.480572800001,None,None,1,,,,,,,,,,,,,,214,28,Female,2022-05-10_18h01.32.213,Main,2022.1.1,60.03582938366105,
negative,blue,2,None,k,,,,,,,,,0,199,199,199,,,,,,,,,,,,,,,,,,,,,,,,,,,,,,,,,,,,,main,None,None,1,1.5024479999992764,670.9916379000006,None,None,1,,,,,,,,,,,,,,214,28,Female,2022-05-10_18h01.32.213,Main,2022.1.1,60.03582938366105,
positive,blue,2,k,None,,,,,,,,,0,200,200,200,,,,,,,,,,,,,,,,,,,,,,,,,,,,,,,,,,,,,main,k,k,1,1.490313199999946,673.495875300001,None,None,0,,,,,,,,,,,,,,214,28,Female,2022-05-10_18h01.32.213,Main,2022.1.1,60.03582938366105,
positive,blue,2,k,None,,,,,,,,,0,201,201,201,,,,,,,,,,,,,,,,,,,,,,,,,,,,,,,,,,,,,main,k,k,1,0.5476820000003499,675.9894850000001,None,None,0,,,,,,,,,,,,,,214,28,Female,2022-05-10_18h01.32.213,Main,2022.1.1,60.03582938366105,
negative,yellow,2,k,None,,,,,,,,,0,202,202,202,,,,,,,,,,,,,,,,,,,,,,,,,,,,,,,,,,,,,main,k,k,1,0.9654337000029045,677.5385976000016,None,None,0,,,,,,,,,,,,,,214,28,Female,2022-05-10_18h01.32.213,Main,2022.1.1,60.03582938366105,
positive,red,1,None,None,,,,,,,,,0,203,203,203,,,,,,,,,,,,,,,,,,,,,,,,,,,,,,,,,,,,,main,None,None,1,1.4982743000000482,679.5054748999992,None,None,1,,,,,,,,,,,,,,214,28,Female,2022-05-10_18h01.32.213,Main,2022.1.1,60.03582938366105,
negative,blue,2,None,k,,,,,,,,,0,204,204,204,,,,,,,,,,,,,,,,,,,,,,,,,,,,,,,,,,,,,main,None,None,1,1.5094437999978254,682.006501599999,None,None,1,,,,,,,,,,,,,,214,28,Female,2022-05-10_18h01.32.213,Main,2022.1.1,60.03582938366105,
negative,red,1,None,None,,,,,,,,,0,205,205,205,,,,,,,,,,,,,,,,,,,,,,,,,,,,,,,,,,,,,main,None,None,1,1.5034798999986378,684.5150707000012,None,None,1,,,,,,,,,,,,,,214,28,Female,2022-05-10_18h01.32.213,Main,2022.1.1,60.03582938366105,
negative,blue,2,None,k,,,,,,,,,0,206,206,206,,,,,,,,,,,,,,,,,,,,,,,,,,,,,,,,,,,,,main,None,None,1,1.5080523000033281,687.0228144000012,None,None,1,,,,,,,,,,,,,,214,28,Female,2022-05-10_18h01.32.213,Main,2022.1.1,60.03582938366105,
negative,yellow,2,k,None,,,,,,,,,0,207,207,207,,,,,,,,,,,,,,,,,,,,,,,,,,,,,,,,,,,,,main,k,k,1,6.11353180000151,689.5297580999995,None,None,0,,,,,,,,,,,,,,214,28,Female,2022-05-10_18h01.32.213,Main,2022.1.1,60.03582938366105,
positive,yellow,2,None,k,,,,,,,,,0,208,208,208,,,,,,,,,,,,,,,,,,,,,,,,,,,,,,,,,,,,,main,None,None,1,1.4981024000007892,697.6465122999998,None,None,1,,,,,,,,,,,,,,214,28,Female,2022-05-10_18h01.32.213,Main,2022.1.1,60.03582938366105,
negative,yellow,1,k,None,,,,,,,,,0,209,209,209,,,,,,,,,,,,,,,,,,,,,,,,,,,,,,,,,,,,,main,k,k,1,0.8936908000032417,700.1445953999992,None,None,0,,,,,,,,,,,,,,214,28,Female,2022-05-10_18h01.32.213,Main,2022.1.1,60.03582938366105,
negative,red,2,None,None,,,,,,,,,0,210,210,210,,,,,,,,,,,,,,,,,,,,,,,,,,,,,,,,,,,,,main,None,k,0,1.5061042999986967,702.0415584999992,None,None,1,,,,,,,,,,,,,,214,28,Female,2022-05-10_18h01.32.213,Main,2022.1.1,60.03582938366105,
negative,blue,1,None,k,,,,,,,,,0,211,211,211,,,,,,,,,,,,,,,,,,,,,,,,,,,,,,,,,,,,,main,None,None,1,1.5044418999968912,705.561720300002,None,None,1,,,,,,,,,,,,,,214,28,Female,2022-05-10_18h01.32.213,Main,2022.1.1,60.03582938366105,
negative,yellow,1,k,None,,,,,,,,,0,212,212,212,,,,,,,,,,,,,,,,,,,,,,,,,,,,,,,,,,,,,main,k,k,1,1.0889480000005278,708.0684937999995,None,None,0,,,,,,,,,,,,,,214,28,Female,2022-05-10_18h01.32.213,Main,2022.1.1,60.03582938366105,
positive,blue,1,k,None,,,,,,,,,0,213,213,213,,,,,,,,,,,,,,,,,,,,,,,,,,,,,,,,,,,,,main,k,k,1,1.3164218999991135,710.1584337000004,None,None,0,,,,,,,,,,,,,,214,28,Female,2022-05-10_18h01.32.213,Main,2022.1.1,60.03582938366105,
positive,blue,1,k,None,,,,,,,,,0,214,214,214,,,,,,,,,,,,,,,,,,,,,,,,,,,,,,,,,,,,,main,k,k,1,0.8932959000012488,712.4771406000018,None,None,0,,,,,,,,,,,,,,214,28,Female,2022-05-10_18h01.32.213,Main,2022.1.1,60.03582938366105,
positive,yellow,1,None,k,,,,,,,,,0,215,215,215,,,,,,,,,,,,,,,,,,,,,,,,,,,,,,,,,,,,,main,None,None,1,1.5077507000023616,714.3729700999993,None,None,1,,,,,,,,,,,,,,214,28,Female,2022-05-10_18h01.32.213,Main,2022.1.1,60.03582938366105,
positive,yellow,1,None,k,,,,,,,,,0,216,216,216,,,,,,,,,,,,,,,,,,,,,,,,,,,,,,,,,,,,,main,None,None,1,1.4961624999996275,716.8850373000005,None,None,1,,,,,,,,,,,,,,214,28,Female,2022-05-10_18h01.32.213,Main,2022.1.1,60.03582938366105,
positive,yellow,2,None,k,,,,,,,,,0,217,217,217,,,,,,,,,,,,,,,,,,,,,,,,,,,,,,,,,,,,,main,None,None,1,1.5018436999998812,719.3820553000023,None,None,1,,,,,,,,,,,,,,214,28,Female,2022-05-10_18h01.32.213,Main,2022.1.1,60.03582938366105,
negative,blue,1,None,k,,,,,,,,,0,218,218,218,,,,,,,,,,,,,,,,,,,,,,,,,,,,,,,,,,,,,main,None,None,1,1.5101189000015438,721.8852733000003,None,None,1,,,,,,,,,,,,,,214,28,Female,2022-05-10_18h01.32.213,Main,2022.1.1,60.03582938366105,
positive,red,2,None,None,,,,,,,,,0,219,219,219,,,,,,,,,,,,,,,,,,,,,,,,,,,,,,,,,,,,,main,None,None,1,1.511030399997253,724.397460000002,None,None,1,,,,,,,,,,,,,,214,28,Female,2022-05-10_18h01.32.213,Main,2022.1.1,60.03582938366105,
positive,yellow,1,None,k,,,,,,,,,0,220,220,220,,,,,,,,,,,,,,,,,,,,,,,,,,,,,,,,,,,,,main,None,None,1,1.5021541999994952,726.9070298000024,None,None,1,,,,,,,,,,,,,,214,28,Female,2022-05-10_18h01.32.213,Main,2022.1.1,60.03582938366105,
positive,blue,1,k,None,,,,,,,,,0,221,221,221,,,,,,,,,,,,,,,,,,,,,,,,,,,,,,,,,,,,,main,k,k,1,0.7483399999982794,729.4137864999993,None,None,0,,,,,,,,,,,,,,214,28,Female,2022-05-10_18h01.32.213,Main,2022.1.1,60.03582938366105,
positive,yellow,2,None,k,,,,,,,,,0,222,222,222,,,,,,,,,,,,,,,,,,,,,,,,,,,,,,,,,,,,,main,None,None,1,1.5067739000005531,731.1634969000024,None,None,1,,,,,,,,,,,,,,214,28,Female,2022-05-10_18h01.32.213,Main,2022.1.1,60.03582938366105,
negative,yellow,1,k,None,,,,,,,,,0,223,223,223,,,,,,,,,,,,,,,,,,,,,,,,,,,,,,,,,,,,,main,k,k,1,1.2282994000015606,733.6714671999998,None,None,0,,,,,,,,,,,,,,214,28,Female,2022-05-10_18h01.32.213,Main,2022.1.1,60.03582938366105,
positive,yellow,2,None,k,,,,,,,,,0,224,224,224,,,,,,,,,,,,,,,,,,,,,,,,,,,,,,,,,,,,,main,None,None,1,1.4998545999987982,735.9024193000023,None,None,1,,,,,,,,,,,,,,214,28,Female,2022-05-10_18h01.32.213,Main,2022.1.1,60.03582938366105,
negative,yellow,2,k,None,,,,,,,,,0,225,225,225,,,,,,,,,,,,,,,,,,,,,,,,,,,,,,,,,,,,,main,k,k,1,0.9327583999984199,738.4043619000022,None,None,0,,,,,,,,,,,,,,214,28,Female,2022-05-10_18h01.32.213,Main,2022.1.1,60.03582938366105,
negative,blue,2,None,k,,,,,,,,,0,226,226,226,,,,,,,,,,,,,,,,,,,,,,,,,,,,,,,,,,,,,main,None,None,1,1.5060081000010541,740.338676100002,None,None,1,,,,,,,,,,,,,,214,28,Female,2022-05-10_18h01.32.213,Main,2022.1.1,60.03582938366105,
positive,red,2,None,None,,,,,,,,,0,227,227,227,,,,,,,,,,,,,,,,,,,,,,,,,,,,,,,,,,,,,main,None,None,1,1.4990572999995493,742.8480084999992,None,None,1,,,,,,,,,,,,,,214,28,Female,2022-05-10_18h01.32.213,Main,2022.1.1,60.03582938366105,
positive,blue,2,k,None,,,,,,,,,0,228,228,228,,,,,,,,,,,,,,,,,,,,,,,,,,,,,,,,,,,,,main,k,k,1,1.1579721000016434,745.3488385,None,None,0,,,,,,,,,,,,,,214,28,Female,2022-05-10_18h01.32.213,Main,2022.1.1,60.03582938366105,
negative,blue,1,None,k,,,,,,,,,0,229,229,229,,,,,,,,,,,,,,,,,,,,,,,,,,,,,,,,,,,,,main,None,None,1,1.505415699997684,747.5059275000003,None,None,1,,,,,,,,,,,,,,214,28,Female,2022-05-10_18h01.32.213,Main,2022.1.1,60.03582938366105,
positive,yellow,1,None,k,,,,,,,,,0,230,230,230,,,,,,,,,,,,,,,,,,,,,,,,,,,,,,,,,,,,,main,None,None,1,1.5076375999997254,750.014720600002,None,None,1,,,,,,,,,,,,,,214,28,Female,2022-05-10_18h01.32.213,Main,2022.1.1,60.03582938366105,
negative,blue,2,None,k,,,,,,,,,0,231,231,231,,,,,,,,,,,,,,,,,,,,,,,,,,,,,,,,,,,,,main,None,None,1,1.5127978999989864,752.5226015999997,None,None,1,,,,,,,,,,,,,,214,28,Female,2022-05-10_18h01.32.213,Main,2022.1.1,60.03582938366105,
negative,red,1,None,None,,,,,,,,,0,232,232,232,,,,,,,,,,,,,,,,,,,,,,,,,,,,,,,,,,,,,main,None,None,1,1.5085108000021137,755.0362492000004,None,None,1,,,,,,,,,,,,,,214,28,Female,2022-05-10_18h01.32.213,Main,2022.1.1,60.03582938366105,
positive,blue,2,k,None,,,,,,,,,0,233,233,233,,,,,,,,,,,,,,,,,,,,,,,,,,,,,,,,,,,,,main,k,k,1,0.7543374999986554,757.5486991000016,None,None,0,,,,,,,,,,,,,,214,28,Female,2022-05-10_18h01.32.213,Main,2022.1.1,60.03582938366105,
negative,yellow,1,k,None,,,,,,,,,0,234,234,234,,,,,,,,,,,,,,,,,,,,,,,,,,,,,,,,,,,,,main,k,k,1,0.8051039000019955,759.3027655999995,None,None,0,,,,,,,,,,,,,,214,28,Female,2022-05-10_18h01.32.213,Main,2022.1.1,60.03582938366105,
negative,yellow,2,k,None,,,,,,,,,0,235,235,235,,,,,,,,,,,,,,,,,,,,,,,,,,,,,,,,,,,,,main,k,k,1,0.6928473000007216,761.1118499000022,None,None,0,,,,,,,,,,,,,,214,28,Female,2022-05-10_18h01.32.213,Main,2022.1.1,60.03582938366105,
positive,red,1,None,None,,,,,,,,,0,236,236,236,,,,,,,,,,,,,,,,,,,,,,,,,,,,,,,,,,,,,main,None,None,1,1.515048500001285,762.8040224000015,None,None,1,,,,,,,,,,,,,,214,28,Female,2022-05-10_18h01.32.213,Main,2022.1.1,60.03582938366105,
negative,red,2,None,None,,,,,,,,,0,237,237,237,,,,,,,,,,,,,,,,,,,,,,,,,,,,,,,,,,,,,main,None,None,1,1.5070200000009208,765.3197595000001,None,None,1,,,,,,,,,,,,,,214,28,Female,2022-05-10_18h01.32.213,Main,2022.1.1,60.03582938366105,
negative,blue,1,None,k,,,,,,,,,0,238,238,238,,,,,,,,,,,,,,,,,,,,,,,,,,,,,,,,,,,,,main,None,None,1,1.4945045999993454,767.8301630000005,None,None,1,,,,,,,,,,,,,,214,28,Female,2022-05-10_18h01.32.213,Main,2022.1.1,60.03582938366105,
positive,blue,1,k,None,,,,,,,,,0,239,239,239,,,,,,,,,,,,,,,,,,,,,,,,,,,,,,,,,,,,,main,k,k,1,0.8787725000001956,770.3271001000012,None,None,0,,,,,,,,,,,,,,214,28,Female,2022-05-10_18h01.32.213,Main,2022.1.1,60.03582938366105,
,,,,,,,,,,,,,,,,,,,,,,,,,,,,,,,,,,,,,,,,,,,,,,,,,,,,,,,,,,,,,,,,,,,,,,,,,772.194136600001,None,,,,,,,,
