distractor,target,set,ans1,ans2,rep_loop4.thisRepN,rep_loop4.thisTrialN,rep_loop4.thisN,rep_loop4.thisIndex,st2_prac_loop.thisRepN,st2_prac_loop.thisTrialN,st2_prac_loop.thisN,st2_prac_loop.thisIndex,st2_main_loop.thisRepN,st2_main_loop.thisTrialN,st2_main_loop.thisN,st2_main_loop.thisIndex,image_4.started,image_4.stopped,mouse_7.x,mouse_7.y,mouse_7.leftButton,mouse_7.midButton,mouse_7.rightButton,sound_2.started,sound_2.stopped,key_resp_3.keys,mouse_5.x,mouse_5.y,mouse_5.leftButton,mouse_5.midButton,mouse_5.rightButton,mouse_5.started,mouse_5.stopped,yes_text2.started,yes_text2.stopped,no_text2.started,no_text2.stopped,mouse_3.x,mouse_3.y,mouse_3.leftButton,mouse_3.midButton,mouse_3.rightButton,mouse_3.started,mouse_3.stopped,mouse_3.clicked_name,st_prac_back.started,st_prac_back.stopped,st_prac_text.started,st_prac_text.stopped,st_fix_back.started,st_fix_back.stopped,st_fix_2.started,st_fix_2.stopped,main_prac,st_ans,st_res,st_corr,st_rt,st_back.started,st_back.stopped,st2_resp.keys,st2_resp.corr,st_main_back.started,st_main_back.stopped,st_main_text.started,st_main_text.stopped,mouse_4.x,mouse_4.y,mouse_4.leftButton,mouse_4.midButton,mouse_4.rightButton,mouse_4.started,mouse_4.stopped,text_2.started,text_2.stopped,id*,age*,gender*,date,expName,psychopyVersion,frameRate,
,,,,,,,,,,,,,,,,,33.45839490000003,None,-0.2935185,0.15648147,0,0,0,,,,,,,,,,,,,,,,,,,,,,,,,,,,,,,,,,,,,,,,,,,,,,,,,,,,,215,20,Female,2022-05-11_16h22.19.967,Main,2022.1.1,60.0016440450686,
negative,yellow,1,k,None,,,,,0,0,0,0,,,,,,,,,,,,None,None,None,-0.023148147,-0.1037037,0,0,0,None,None,132.2121913000001,None,132.2121913000001,None,-0.042592593,-0.1,0,0,0,0.011090840000406388,None,no_area2,132.8992121000001,None,132.8992121000001,None,134.91075350000006,None,134.91075350000006,None,prac,None,None,1,1.5171225999999933,136.95273220000013,None,None,1,,,,,,,,,,,,,,215,20,Female,2022-05-11_16h22.19.967,Main,2022.1.1,60.0016440450686,
positive,red,2,None,None,,,,,0,1,1,1,,,,,,,,,,,,,,,,,,,,,,,,,,,,,,,,,,,,,,,,,,prac,None,None,1,1.5087435999998888,139.4611311000001,None,None,1,,,,,,,,,,,,,,215,20,Female,2022-05-11_16h22.19.967,Main,2022.1.1,60.0016440450686,
negative,blue,2,None,k,,,,,0,2,2,2,,,,,,,,,,,,,,,,,,,,,,,,,,,,,,,,,,,,,,,,,,prac,k,k,1,117.04276030000005,141.96950949999996,None,None,0,,,,,,,,,,,,,,215,20,Female,2022-05-11_16h22.19.967,Main,2022.1.1,60.0016440450686,
positive,yellow,1,None,k,,,,,0,3,3,3,,,,,,,,,,,,,,,,,,,,,,,,,,,,,,,,,,,,,,,,,,prac,k,k,1,16.08607919999986,261.0561983,None,None,0,,,,,,,,,,,,,,215,20,Female,2022-05-11_16h22.19.967,Main,2022.1.1,60.0016440450686,
negative,blue,2,None,k,,,,,0,4,4,4,,,,,,,,,,,,,,,,,,,,,,,,,,,,,,,,,,,,,,,,,,prac,k,k,1,1.707553599999983,279.14652419999993,None,None,0,,,,,,,,,,,,,,215,20,Female,2022-05-11_16h22.19.967,Main,2022.1.1,60.0016440450686,
negative,blue,1,None,k,,,,,0,5,5,5,,,,,,,,,,,,,,,,,,,,,,,,,,,,,,,,,,,,,,,,,,prac,k,k,1,17.70803819999992,282.86037950000014,None,None,0,,,,,,,,,,,,,,215,20,Female,2022-05-11_16h22.19.967,Main,2022.1.1,60.0016440450686,
negative,yellow,2,k,None,,,,,0,6,6,6,,,,,,,,,,,,,,,,,,,,,,,,,,,,,,,,,,,,,,,,,,prac,None,None,1,1.5025602999999137,302.5859683000001,None,None,1,,,,,,,,,,,,,,215,20,Female,2022-05-11_16h22.19.967,Main,2022.1.1,60.0016440450686,
negative,red,1,None,None,,,,,0,7,7,7,,,,,,,,,,,,,,,,,,,,,,,,,,,,,,,,,,,,,,,,,,prac,None,None,1,1.5118033999999625,305.08973160000005,None,None,1,,,,,,,,,,,,,,215,20,Female,2022-05-11_16h22.19.967,Main,2022.1.1,60.0016440450686,
positive,yellow,2,None,k,,,,,0,8,8,8,,,,,,,,,,,,,,,,,,,,,,,,,,,,,,,,,,,,,,,,,,prac,k,k,1,0.619421500000044,307.60451869999997,None,None,0,,,,,,,,,,,,,,215,20,Female,2022-05-11_16h22.19.967,Main,2022.1.1,60.0016440450686,
negative,yellow,1,k,None,,,,,0,9,9,9,,,,,,,,,,,,,,,,,,,,,,,,,,,,,,,,,,,,,,,,,,prac,None,None,1,1.5009033000001182,309.21516339999994,None,None,1,,,,,,,,,,,,,,215,20,Female,2022-05-11_16h22.19.967,Main,2022.1.1,60.0016440450686,
positive,yellow,2,None,k,,,,,0,10,10,10,,,,,,,,,,,,,,,,,,,,,,,,,,,,,,,,,,,,,,,,,,prac,k,k,1,0.6146817999999712,311.7158343000001,None,None,0,,,,,,,,,,,,,,215,20,Female,2022-05-11_16h22.19.967,Main,2022.1.1,60.0016440450686,
negative,yellow,2,k,None,,,,,0,11,11,11,,,,,,,,,,,,,,,,,,,,,,,,,,,,,,,,,,,,,,,,,,prac,None,None,1,1.500880000000052,313.3325141,None,None,1,,,,,,,,,,,,,,215,20,Female,2022-05-11_16h22.19.967,Main,2022.1.1,60.0016440450686,
negative,red,2,None,None,,,,,0,12,12,12,,,,,,,,,,,,,,,,,,,,,,,,,,,,,,,,,,,,,,,,,,prac,None,None,1,1.4987432000000354,315.83520240000007,None,None,1,,,,,,,,,,,,,,215,20,Female,2022-05-11_16h22.19.967,Main,2022.1.1,60.0016440450686,
positive,red,1,None,None,,,,,0,13,13,13,,,,,,,,,,,,,,,,,,,,,,,,,,,,,,,,,,,,,,,,,,prac,None,None,1,1.4981041000000914,318.33634699999993,None,None,1,,,,,,,,,,,,,,215,20,Female,2022-05-11_16h22.19.967,Main,2022.1.1,60.0016440450686,
positive,blue,2,k,None,,,,,0,14,14,14,,,,,,,,,,,,,,,,,,,,,,,,,,,,,,,,,,,,,,,,,,prac,None,None,1,1.4981284000000414,320.8361886,None,None,1,,,,,,,,,,,,,,215,20,Female,2022-05-11_16h22.19.967,Main,2022.1.1,60.0016440450686,
positive,blue,1,k,None,,,,,0,15,15,15,,,,,,,,,,,,,,,,,,,,,,,,,,,,,,,,,,,,,,,,,,prac,None,None,1,1.5082849000000351,323.3378938000001,None,None,1,,,,,,,,,,,,,,215,20,Female,2022-05-11_16h22.19.967,Main,2022.1.1,60.0016440450686,
negative,blue,1,None,k,,,,,0,16,16,16,,,,,,,,,,,,,,,,,,,,,,,,,,,,,,,,,,,,,,,,,,prac,k,k,1,0.689091899999994,325.8488152,None,None,0,,,,,,,,,,,,,,215,20,Female,2022-05-11_16h22.19.967,Main,2022.1.1,60.0016440450686,
positive,blue,2,k,None,,,,,0,17,17,17,,,,,,,,,,,,,,,,,,,,,,,,,,,,,,,,,,,,,,,,,,prac,None,None,1,1.5128124999998818,327.53835649999996,None,None,1,,,,,,,,,,,,,,215,20,Female,2022-05-11_16h22.19.967,Main,2022.1.1,60.0016440450686,
positive,blue,1,k,None,,,,,0,18,18,18,,,,,,,,,,,,,,,,,,,,,,,,,,,,,,,,,,,,,,,,,,prac,None,None,1,1.5090864999999667,330.05244530000004,None,None,1,,,,,,,,,,,,,,215,20,Female,2022-05-11_16h22.19.967,Main,2022.1.1,60.0016440450686,
positive,yellow,1,None,k,,,,,0,19,19,19,,,,,,,,,,,,,,,,,,,,,,,,,,,,,,,,,,,,,,,,,,prac,k,k,1,0.8062717000000248,332.56448279999995,None,None,0,,,,,,,,,,,,,,215,20,Female,2022-05-11_16h22.19.967,Main,2022.1.1,60.0016440450686,
negative,yellow,1,k,None,,,,,1,0,20,0,,,,,,,,,,,,,,,,,,,,,,,,,,,,,,,,,,,,,,,,,,prac,None,None,1,1.5010959000001094,334.37074370000005,None,None,1,,,,,,,,,,,,,,215,20,Female,2022-05-11_16h22.19.967,Main,2022.1.1,60.0016440450686,
positive,red,2,None,None,,,,,1,1,21,1,,,,,,,,,,,,,,,,,,,,,,,,,,,,,,,,,,,,,,,,,,prac,None,None,1,1.4987370999999712,336.87596239999993,None,None,1,,,,,,,,,,,,,,215,20,Female,2022-05-11_16h22.19.967,Main,2022.1.1,60.0016440450686,
negative,blue,2,None,k,,,,,1,2,22,2,,,,,,,,,,,,,,,,,,,,,,,,,,,,,,,,,,,,,,,,,,prac,k,k,1,0.679298499999959,339.37542529999996,None,None,0,,,,,,,,,,,,,,215,20,Female,2022-05-11_16h22.19.967,Main,2022.1.1,60.0016440450686,
positive,yellow,1,None,k,,,,,1,3,23,3,,,,,,,,,,,,,,,,,,,,,,,,,,,,,,,,,,,,,,,,,,prac,k,k,1,0.9833271999998487,341.0674968000001,None,None,0,,,,,,,,,,,,,,215,20,Female,2022-05-11_16h22.19.967,Main,2022.1.1,60.0016440450686,
negative,blue,2,None,k,,,,,1,4,24,4,,,,,,,,,,,,,,,,,,,,,,,,,,,,,,,,,,,,,,,,,,prac,k,k,1,0.8780693000001065,343.0420094000001,None,None,0,,,,,,,,,,,,,,215,20,Female,2022-05-11_16h22.19.967,Main,2022.1.1,60.0016440450686,
negative,blue,1,None,k,,,,,1,5,25,5,,,,,,,,,,,,,,,,,,,,,,,,,,,,,,,,,,,,,,,,,,prac,k,k,1,1.4735243999998602,344.9189306999999,None,None,0,,,,,,,,,,,,,,215,20,Female,2022-05-11_16h22.19.967,Main,2022.1.1,60.0016440450686,
negative,yellow,2,k,None,,,,,1,6,26,6,,,,,,,,,,,,,,,,,,,,,,,,,,,,,,,,,,,,,,,,,,prac,None,None,1,1.496795599999814,347.3962299,None,None,1,,,,,,,,,,,,,,215,20,Female,2022-05-11_16h22.19.967,Main,2022.1.1,60.0016440450686,
negative,red,1,None,None,,,,,1,7,27,7,,,,,,,,,,,,,,,,,,,,,,,,,,,,,,,,,,,,,,,,,,prac,None,None,1,1.5115375000000313,349.894597,None,None,1,,,,,,,,,,,,,,215,20,Female,2022-05-11_16h22.19.967,Main,2022.1.1,60.0016440450686,
positive,yellow,2,None,k,,,,,1,8,28,8,,,,,,,,,,,,,,,,,,,,,,,,,,,,,,,,,,,,,,,,,,prac,k,k,1,0.6313299999999344,352.4089653000001,None,None,0,,,,,,,,,,,,,,215,20,Female,2022-05-11_16h22.19.967,Main,2022.1.1,60.0016440450686,
negative,yellow,1,k,None,,,,,1,9,29,9,,,,,,,,,,,,,,,,,,,,,,,,,,,,,,,,,,,,,,,,,,prac,None,None,1,1.4998485000000983,354.0414915000001,None,None,1,,,,,,,,,,,,,,215,20,Female,2022-05-11_16h22.19.967,Main,2022.1.1,60.0016440450686,
positive,yellow,2,None,k,,,,,1,10,30,10,,,,,,,,,,,,,,,,,,,,,,,,,,,,,,,,,,,,,,,,,,prac,k,k,1,0.5794838000001619,356.5427535000001,None,None,0,,,,,,,,,,,,,,215,20,Female,2022-05-11_16h22.19.967,Main,2022.1.1,60.0016440450686,
negative,yellow,2,k,None,,,,,1,11,31,11,,,,,,,,,,,,,,,,,,,,,,,,,,,,,,,,,,,,,,,,,,prac,None,None,1,1.4957102999999279,358.124732,None,None,1,,,,,,,,,,,,,,215,20,Female,2022-05-11_16h22.19.967,Main,2022.1.1,60.0016440450686,
negative,red,2,None,None,,,,,1,12,32,12,,,,,,,,,,,,,,,,,,,,,,,,,,,,,,,,,,,,,,,,,,prac,None,None,1,1.5084019999999327,360.62092400000006,None,None,1,,,,,,,,,,,,,,215,20,Female,2022-05-11_16h22.19.967,Main,2022.1.1,60.0016440450686,
positive,red,1,None,None,,,,,1,13,33,13,,,,,,,,,,,,,,,,,,,,,,,,,,,,,,,,,,,,,,,,,,prac,None,None,1,1.4991847999999663,363.13069910000013,None,None,1,,,,,,,,,,,,,,215,20,Female,2022-05-11_16h22.19.967,Main,2022.1.1,60.0016440450686,
positive,blue,2,k,None,,,,,1,14,34,14,,,,,,,,,,,,,,,,,,,,,,,,,,,,,,,,,,,,,,,,,,prac,None,None,1,1.511032699999987,365.63194410000006,None,None,1,,,,,,,,,,,,,,215,20,Female,2022-05-11_16h22.19.967,Main,2022.1.1,60.0016440450686,
positive,blue,1,k,None,,,,,1,15,35,15,,,,,,,,,,,,,,,,,,,,,,,,,,,,,,,,,,,,,,,,,,prac,None,None,1,1.506494900000007,368.14528429999996,None,None,1,,,,,,,,,,,,,,215,20,Female,2022-05-11_16h22.19.967,Main,2022.1.1,60.0016440450686,
negative,blue,1,None,k,,,,,1,16,36,16,,,,,,,,,,,,,,,,,,,,,,,,,,,,,,,,,,,,,,,,,,prac,k,k,1,0.5934205000000929,370.6568085000001,None,None,0,,,,,,,,,,,,,,215,20,Female,2022-05-11_16h22.19.967,Main,2022.1.1,60.0016440450686,
positive,blue,2,k,None,,,,,1,17,37,17,,,,,,,,,,,,,,,,,,,,,,,,,,,,,,,,,,,,,,,,,,prac,None,None,1,1.4931942000000618,372.2514212000001,None,None,1,,,,,,,,,,,,,,215,20,Female,2022-05-11_16h22.19.967,Main,2022.1.1,60.0016440450686,
positive,blue,1,k,None,,,,,1,18,38,18,,,,,,,,,,,,,,,,,,,,,,,,,,,,,,,,,,,,,,,,,,prac,None,None,1,1.5053589999999986,374.7452989000001,None,None,1,,,,,,,,,,,,,,215,20,Female,2022-05-11_16h22.19.967,Main,2022.1.1,60.0016440450686,
positive,yellow,1,None,k,,,,,1,19,39,19,,,,,,,,,,,,,,,,,,,,,,,,,,,,,,,,,,,,,,,,,,prac,k,k,1,0.7224498000000494,377.25561360000006,None,None,0,,,,,,,,,,,,,,215,20,Female,2022-05-11_16h22.19.967,Main,2022.1.1,60.0016440450686,
,,,,,,,,,,,,,,,,,,,,,,,,,,,,,,,,,,,,,,,,,,,,,,,,,,,,,,,,,,,,,,,379.0000456,None,379.0000456,None,0.035185184,-0.035185184,0,0,0,0.008708139999953346,None,,,215,20,Female,2022-05-11_16h22.19.967,Main,2022.1.1,60.0016440450686,
negative,yellow,2,k,None,,,,,,,,,0,0,0,0,,,,,,,,,,,,,,,,,,,,,,,,,,,,,,,,,,381.1847299000001,None,381.1847299000001,None,main,None,None,1,1.511088299999983,383.2550650999999,None,None,1,,,,,,,,,,,,,,215,20,Female,2022-05-11_16h22.19.967,Main,2022.1.1,60.0016440450686,
positive,red,1,None,None,,,,,,,,,0,1,1,1,,,,,,,,,,,,,,,,,,,,,,,,,,,,,,,,,,,,,,main,None,None,1,1.5117091000001892,385.76971619999995,None,None,1,,,,,,,,,,,,,,215,20,Female,2022-05-11_16h22.19.967,Main,2022.1.1,60.0016440450686,
positive,blue,2,k,None,,,,,,,,,0,2,2,2,,,,,,,,,,,,,,,,,,,,,,,,,,,,,,,,,,,,,,main,None,None,1,1.5039839000000939,388.2831056,None,None,1,,,,,,,,,,,,,,215,20,Female,2022-05-11_16h22.19.967,Main,2022.1.1,60.0016440450686,
positive,blue,1,k,None,,,,,,,,,0,3,3,3,,,,,,,,,,,,,,,,,,,,,,,,,,,,,,,,,,,,,,main,None,None,1,1.496575600000142,390.78815780000014,None,None,1,,,,,,,,,,,,,,215,20,Female,2022-05-11_16h22.19.967,Main,2022.1.1,60.0016440450686,
negative,yellow,2,k,None,,,,,,,,,0,4,4,4,,,,,,,,,,,,,,,,,,,,,,,,,,,,,,,,,,,,,,main,None,None,1,1.50812719999999,393.28643880000004,None,None,1,,,,,,,,,,,,,,215,20,Female,2022-05-11_16h22.19.967,Main,2022.1.1,60.0016440450686,
positive,yellow,2,None,k,,,,,,,,,0,5,5,5,,,,,,,,,,,,,,,,,,,,,,,,,,,,,,,,,,,,,,main,k,k,1,0.5883535999998912,395.79399480000006,None,None,0,,,,,,,,,,,,,,215,20,Female,2022-05-11_16h22.19.967,Main,2022.1.1,60.0016440450686,
negative,blue,2,None,k,,,,,,,,,0,6,6,6,,,,,,,,,,,,,,,,,,,,,,,,,,,,,,,,,,,,,,main,k,k,1,0.8359324999998989,397.38664919999997,None,None,0,,,,,,,,,,,,,,215,20,Female,2022-05-11_16h22.19.967,Main,2022.1.1,60.0016440450686,
positive,red,2,None,None,,,,,,,,,0,7,7,7,,,,,,,,,,,,,,,,,,,,,,,,,,,,,,,,,,,,,,main,None,None,1,1.4997769999999946,399.22332800000004,None,None,1,,,,,,,,,,,,,,215,20,Female,2022-05-11_16h22.19.967,Main,2022.1.1,60.0016440450686,
positive,yellow,1,None,k,,,,,,,,,0,8,8,8,,,,,,,,,,,,,,,,,,,,,,,,,,,,,,,,,,,,,,main,k,k,1,0.7923992999999427,401.7252771000001,None,None,0,,,,,,,,,,,,,,215,20,Female,2022-05-11_16h22.19.967,Main,2022.1.1,60.0016440450686,
negative,red,1,None,None,,,,,,,,,0,9,9,9,,,,,,,,,,,,,,,,,,,,,,,,,,,,,,,,,,,,,,main,None,None,1,1.5018996999999672,403.52079070000013,None,None,1,,,,,,,,,,,,,,215,20,Female,2022-05-11_16h22.19.967,Main,2022.1.1,60.0016440450686,
positive,yellow,1,None,k,,,,,,,,,0,10,10,10,,,,,,,,,,,,,,,,,,,,,,,,,,,,,,,,,,,,,,main,k,k,1,0.6109063999999762,406.0247578000001,None,None,0,,,,,,,,,,,,,,215,20,Female,2022-05-11_16h22.19.967,Main,2022.1.1,60.0016440450686,
negative,yellow,1,k,None,,,,,,,,,0,11,11,11,,,,,,,,,,,,,,,,,,,,,,,,,,,,,,,,,,,,,,main,None,None,1,1.5051700999999866,407.6385477000001,None,None,1,,,,,,,,,,,,,,215,20,Female,2022-05-11_16h22.19.967,Main,2022.1.1,60.0016440450686,
negative,yellow,1,k,None,,,,,,,,,0,12,12,12,,,,,,,,,,,,,,,,,,,,,,,,,,,,,,,,,,,,,,main,None,None,1,1.4969515999998748,410.1441153999999,None,None,1,,,,,,,,,,,,,,215,20,Female,2022-05-11_16h22.19.967,Main,2022.1.1,60.0016440450686,
negative,red,2,None,None,,,,,,,,,0,13,13,13,,,,,,,,,,,,,,,,,,,,,,,,,,,,,,,,,,,,,,main,None,None,1,1.4991112000000157,412.64257840000005,None,None,1,,,,,,,,,,,,,,215,20,Female,2022-05-11_16h22.19.967,Main,2022.1.1,60.0016440450686,
positive,yellow,2,None,k,,,,,,,,,0,14,14,14,,,,,,,,,,,,,,,,,,,,,,,,,,,,,,,,,,,,,,main,k,k,1,0.6493289000000004,415.14450179999994,None,None,0,,,,,,,,,,,,,,215,20,Female,2022-05-11_16h22.19.967,Main,2022.1.1,60.0016440450686,
positive,blue,1,k,None,,,,,,,,,0,15,15,15,,,,,,,,,,,,,,,,,,,,,,,,,,,,,,,,,,,,,,main,None,None,1,1.4965895999998793,416.7957094000001,None,None,1,,,,,,,,,,,,,,215,20,Female,2022-05-11_16h22.19.967,Main,2022.1.1,60.0016440450686,
negative,blue,1,None,k,,,,,,,,,0,16,16,16,,,,,,,,,,,,,,,,,,,,,,,,,,,,,,,,,,,,,,main,k,k,1,0.600009,419.2920458000001,None,None,0,,,,,,,,,,,,,,215,20,Female,2022-05-11_16h22.19.967,Main,2022.1.1,60.0016440450686,
positive,blue,2,k,None,,,,,,,,,0,17,17,17,,,,,,,,,,,,,,,,,,,,,,,,,,,,,,,,,,,,,,main,None,None,1,1.5070457000001625,420.8956015000001,None,None,1,,,,,,,,,,,,,,215,20,Female,2022-05-11_16h22.19.967,Main,2022.1.1,60.0016440450686,
negative,blue,2,None,k,,,,,,,,,0,18,18,18,,,,,,,,,,,,,,,,,,,,,,,,,,,,,,,,,,,,,,main,k,k,1,0.6312869000000774,423.40407490000007,None,None,0,,,,,,,,,,,,,,215,20,Female,2022-05-11_16h22.19.967,Main,2022.1.1,60.0016440450686,
negative,blue,1,None,k,,,,,,,,,0,19,19,19,,,,,,,,,,,,,,,,,,,,,,,,,,,,,,,,,,,,,,main,k,k,1,0.8245088000001033,425.03684840000005,None,None,0,,,,,,,,,,,,,,215,20,Female,2022-05-11_16h22.19.967,Main,2022.1.1,60.0016440450686,
negative,blue,1,None,k,,,,,,,,,0,20,20,20,,,,,,,,,,,,,,,,,,,,,,,,,,,,,,,,,,,,,,main,k,k,1,0.8394522999999481,426.86392380000007,None,None,0,,,,,,,,,,,,,,215,20,Female,2022-05-11_16h22.19.967,Main,2022.1.1,60.0016440450686,
negative,blue,2,None,k,,,,,,,,,0,21,21,21,,,,,,,,,,,,,,,,,,,,,,,,,,,,,,,,,,,,,,main,k,k,1,0.7042166999999608,428.7064209,None,None,0,,,,,,,,,,,,,,215,20,Female,2022-05-11_16h22.19.967,Main,2022.1.1,60.0016440450686,
negative,red,1,None,None,,,,,,,,,0,22,22,22,,,,,,,,,,,,,,,,,,,,,,,,,,,,,,,,,,,,,,main,None,None,1,1.496303399999988,430.41190600000004,None,None,1,,,,,,,,,,,,,,215,20,Female,2022-05-11_16h22.19.967,Main,2022.1.1,60.0016440450686,
positive,red,2,None,None,,,,,,,,,0,23,23,23,,,,,,,,,,,,,,,,,,,,,,,,,,,,,,,,,,,,,,main,None,None,1,1.5113420000000133,432.9087227,None,None,1,,,,,,,,,,,,,,215,20,Female,2022-05-11_16h22.19.967,Main,2022.1.1,60.0016440450686,
negative,red,2,None,None,,,,,,,,,0,24,24,24,,,,,,,,,,,,,,,,,,,,,,,,,,,,,,,,,,,,,,main,None,None,1,1.5117147000000841,435.42188910000004,None,None,1,,,,,,,,,,,,,,215,20,Female,2022-05-11_16h22.19.967,Main,2022.1.1,60.0016440450686,
positive,blue,2,k,None,,,,,,,,,0,25,25,25,,,,,,,,,,,,,,,,,,,,,,,,,,,,,,,,,,,,,,main,None,None,1,1.5079694999999447,437.9364072000001,None,None,1,,,,,,,,,,,,,,215,20,Female,2022-05-11_16h22.19.967,Main,2022.1.1,60.0016440450686,
negative,yellow,1,k,None,,,,,,,,,0,26,26,26,,,,,,,,,,,,,,,,,,,,,,,,,,,,,,,,,,,,,,main,None,None,1,1.495666399999891,440.44839960000013,None,None,1,,,,,,,,,,,,,,215,20,Female,2022-05-11_16h22.19.967,Main,2022.1.1,60.0016440450686,
positive,blue,2,k,None,,,,,,,,,0,27,27,27,,,,,,,,,,,,,,,,,,,,,,,,,,,,,,,,,,,,,,main,None,None,1,1.4978166999999303,442.9453174,None,None,1,,,,,,,,,,,,,,215,20,Female,2022-05-11_16h22.19.967,Main,2022.1.1,60.0016440450686,
negative,blue,2,None,k,,,,,,,,,0,28,28,28,,,,,,,,,,,,,,,,,,,,,,,,,,,,,,,,,,,,,,main,k,k,1,0.6863230999999814,445.4457755000001,None,None,0,,,,,,,,,,,,,,215,20,Female,2022-05-11_16h22.19.967,Main,2022.1.1,60.0016440450686,
positive,red,1,None,None,,,,,,,,,0,29,29,29,,,,,,,,,,,,,,,,,,,,,,,,,,,,,,,,,,,,,,main,None,None,1,1.505513300000075,447.13243880000005,None,None,1,,,,,,,,,,,,,,215,20,Female,2022-05-11_16h22.19.967,Main,2022.1.1,60.0016440450686,
positive,blue,1,k,None,,,,,,,,,0,30,30,30,,,,,,,,,,,,,,,,,,,,,,,,,,,,,,,,,,,,,,main,None,None,1,1.499610900000107,449.6373553000001,None,None,1,,,,,,,,,,,,,,215,20,Female,2022-05-11_16h22.19.967,Main,2022.1.1,60.0016440450686,
positive,yellow,1,None,k,,,,,,,,,0,31,31,31,,,,,,,,,,,,,,,,,,,,,,,,,,,,,,,,,,,,,,main,k,k,1,0.6685981000000538,452.1387308999999,None,None,0,,,,,,,,,,,,,,215,20,Female,2022-05-11_16h22.19.967,Main,2022.1.1,60.0016440450686,
negative,yellow,2,k,None,,,,,,,,,0,32,32,32,,,,,,,,,,,,,,,,,,,,,,,,,,,,,,,,,,,,,,main,None,None,1,1.4978994999999031,453.81122690000007,None,None,1,,,,,,,,,,,,,,215,20,Female,2022-05-11_16h22.19.967,Main,2022.1.1,60.0016440450686,
negative,blue,1,None,k,,,,,,,,,0,33,33,33,,,,,,,,,,,,,,,,,,,,,,,,,,,,,,,,,,,,,,main,k,k,1,0.8028224000001956,456.3101683,None,None,0,,,,,,,,,,,,,,215,20,Female,2022-05-11_16h22.19.967,Main,2022.1.1,60.0016440450686,
positive,blue,1,k,None,,,,,,,,,0,34,34,34,,,,,,,,,,,,,,,,,,,,,,,,,,,,,,,,,,,,,,main,None,None,1,1.4938050000000658,458.1139336000001,None,None,1,,,,,,,,,,,,,,215,20,Female,2022-05-11_16h22.19.967,Main,2022.1.1,60.0016440450686,
negative,yellow,1,k,None,,,,,,,,,0,35,35,35,,,,,,,,,,,,,,,,,,,,,,,,,,,,,,,,,,,,,,main,None,None,1,1.5060843000001114,460.61058389999994,None,None,1,,,,,,,,,,,,,,215,20,Female,2022-05-11_16h22.19.967,Main,2022.1.1,60.0016440450686,
positive,yellow,2,None,k,,,,,,,,,0,36,36,36,,,,,,,,,,,,,,,,,,,,,,,,,,,,,,,,,,,,,,main,k,k,1,0.6665237999998226,463.11708569999996,None,None,0,,,,,,,,,,,,,,215,20,Female,2022-05-11_16h22.19.967,Main,2022.1.1,60.0016440450686,
positive,yellow,2,None,k,,,,,,,,,0,37,37,37,,,,,,,,,,,,,,,,,,,,,,,,,,,,,,,,,,,,,,main,k,k,1,0.636833599999818,464.78481490000013,None,None,0,,,,,,,,,,,,,,215,20,Female,2022-05-11_16h22.19.967,Main,2022.1.1,60.0016440450686,
negative,yellow,2,k,None,,,,,,,,,0,38,38,38,,,,,,,,,,,,,,,,,,,,,,,,,,,,,,,,,,,,,,main,None,None,1,1.5105412999998862,466.42744919999996,None,None,1,,,,,,,,,,,,,,215,20,Female,2022-05-11_16h22.19.967,Main,2022.1.1,60.0016440450686,
positive,yellow,1,None,k,,,,,,,,,0,39,39,39,,,,,,,,,,,,,,,,,,,,,,,,,,,,,,,,,,,,,,main,k,k,1,1.0759330999999293,468.93622870000013,None,None,0,,,,,,,,,,,,,,215,20,Female,2022-05-11_16h22.19.967,Main,2022.1.1,60.0016440450686,
negative,yellow,2,k,None,,,,,,,,,0,40,40,40,,,,,,,,,,,,,,,,,,,,,,,,,,,,,,,,,,,,,,main,None,None,1,1.5032697999999982,471.0147122999999,None,None,1,,,,,,,,,,,,,,215,20,Female,2022-05-11_16h22.19.967,Main,2022.1.1,60.0016440450686,
positive,blue,2,k,None,,,,,,,,,0,41,41,41,,,,,,,,,,,,,,,,,,,,,,,,,,,,,,,,,,,,,,main,None,None,1,1.4982273999999052,473.5181013000001,None,None,1,,,,,,,,,,,,,,215,20,Female,2022-05-11_16h22.19.967,Main,2022.1.1,60.0016440450686,
positive,blue,2,k,None,,,,,,,,,0,42,42,42,,,,,,,,,,,,,,,,,,,,,,,,,,,,,,,,,,,,,,main,None,None,1,1.4973787999999786,476.0209946,None,None,1,,,,,,,,,,,,,,215,20,Female,2022-05-11_16h22.19.967,Main,2022.1.1,60.0016440450686,
negative,blue,2,None,k,,,,,,,,,0,43,43,43,,,,,,,,,,,,,,,,,,,,,,,,,,,,,,,,,,,,,,main,k,k,1,0.6027435000000878,478.5170023999999,None,None,0,,,,,,,,,,,,,,215,20,Female,2022-05-11_16h22.19.967,Main,2022.1.1,60.0016440450686,
negative,red,1,None,None,,,,,,,,,0,44,44,44,,,,,,,,,,,,,,,,,,,,,,,,,,,,,,,,,,,,,,main,None,None,1,1.4980917000000318,480.12305820000006,None,None,1,,,,,,,,,,,,,,215,20,Female,2022-05-11_16h22.19.967,Main,2022.1.1,60.0016440450686,
negative,yellow,1,k,None,,,,,,,,,0,45,45,45,,,,,,,,,,,,,,,,,,,,,,,,,,,,,,,,,,,,,,main,None,None,1,1.4995844000000034,482.62457300000005,None,None,1,,,,,,,,,,,,,,215,20,Female,2022-05-11_16h22.19.967,Main,2022.1.1,60.0016440450686,
negative,yellow,1,k,None,,,,,,,,,0,46,46,46,,,,,,,,,,,,,,,,,,,,,,,,,,,,,,,,,,,,,,main,None,None,1,1.5028385999999045,485.12463679999996,None,None,1,,,,,,,,,,,,,,215,20,Female,2022-05-11_16h22.19.967,Main,2022.1.1,60.0016440450686,
positive,red,1,None,None,,,,,,,,,0,47,47,47,,,,,,,,,,,,,,,,,,,,,,,,,,,,,,,,,,,,,,main,None,None,1,1.5047098000000005,487.6283344000001,None,None,1,,,,,,,,,,,,,,215,20,Female,2022-05-11_16h22.19.967,Main,2022.1.1,60.0016440450686,
positive,yellow,1,None,k,,,,,,,,,0,48,48,48,,,,,,,,,,,,,,,,,,,,,,,,,,,,,,,,,,,,,,main,k,k,1,0.6030608000000939,490.1335960000001,None,None,0,,,,,,,,,,,,,,215,20,Female,2022-05-11_16h22.19.967,Main,2022.1.1,60.0016440450686,
negative,blue,1,None,k,,,,,,,,,0,49,49,49,,,,,,,,,,,,,,,,,,,,,,,,,,,,,,,,,,,,,,main,k,k,1,0.7997261999998955,491.7395636000001,None,None,0,,,,,,,,,,,,,,215,20,Female,2022-05-11_16h22.19.967,Main,2022.1.1,60.0016440450686,
positive,yellow,2,None,k,,,,,,,,,0,50,50,50,,,,,,,,,,,,,,,,,,,,,,,,,,,,,,,,,,,,,,main,k,k,1,0.7278776000000562,493.5413834000001,None,None,0,,,,,,,,,,,,,,215,20,Female,2022-05-11_16h22.19.967,Main,2022.1.1,60.0016440450686,
negative,blue,1,None,k,,,,,,,,,0,51,51,51,,,,,,,,,,,,,,,,,,,,,,,,,,,,,,,,,,,,,,main,k,k,1,0.731917600000088,495.27039620000005,None,None,0,,,,,,,,,,,,,,215,20,Female,2022-05-11_16h22.19.967,Main,2022.1.1,60.0016440450686,
positive,red,2,None,None,,,,,,,,,0,52,52,52,,,,,,,,,,,,,,,,,,,,,,,,,,,,,,,,,,,,,,main,None,None,1,1.5054391999999552,497.00428809999994,None,None,1,,,,,,,,,,,,,,215,20,Female,2022-05-11_16h22.19.967,Main,2022.1.1,60.0016440450686,
positive,yellow,2,None,k,,,,,,,,,0,53,53,53,,,,,,,,,,,,,,,,,,,,,,,,,,,,,,,,,,,,,,main,k,k,1,0.6777785999997832,499.51044750000005,None,None,0,,,,,,,,,,,,,,215,20,Female,2022-05-11_16h22.19.967,Main,2022.1.1,60.0016440450686,
negative,red,2,None,None,,,,,,,,,0,54,54,54,,,,,,,,,,,,,,,,,,,,,,,,,,,,,,,,,,,,,,main,None,None,1,1.502658300000121,501.18996070000003,None,None,1,,,,,,,,,,,,,,215,20,Female,2022-05-11_16h22.19.967,Main,2022.1.1,60.0016440450686,
positive,yellow,1,None,k,,,,,,,,,0,55,55,55,,,,,,,,,,,,,,,,,,,,,,,,,,,,,,,,,,,,,,main,k,k,1,0.7170978999999988,503.69340060000013,None,None,0,,,,,,,,,,,,,,215,20,Female,2022-05-11_16h22.19.967,Main,2022.1.1,60.0016440450686,
negative,blue,2,None,k,,,,,,,,,0,56,56,56,,,,,,,,,,,,,,,,,,,,,,,,,,,,,,,,,,,,,,main,k,k,1,0.7591759999997976,505.4150346000001,None,None,0,,,,,,,,,,,,,,215,20,Female,2022-05-11_16h22.19.967,Main,2022.1.1,60.0016440450686,
positive,blue,1,k,None,,,,,,,,,0,57,57,57,,,,,,,,,,,,,,,,,,,,,,,,,,,,,,,,,,,,,,main,None,None,1,1.5089771999998902,507.17467609999994,None,None,1,,,,,,,,,,,,,,215,20,Female,2022-05-11_16h22.19.967,Main,2022.1.1,60.0016440450686,
positive,blue,1,k,None,,,,,,,,,0,58,58,58,,,,,,,,,,,,,,,,,,,,,,,,,,,,,,,,,,,,,,main,None,None,1,1.4943611999999575,509.68572040000004,None,None,1,,,,,,,,,,,,,,215,20,Female,2022-05-11_16h22.19.967,Main,2022.1.1,60.0016440450686,
negative,yellow,2,k,None,,,,,,,,,0,59,59,59,,,,,,,,,,,,,,,,,,,,,,,,,,,,,,,,,,,,,,main,None,None,1,1.498254599999882,512.1791301000001,None,None,1,,,,,,,,,,,,,,215,20,Female,2022-05-11_16h22.19.967,Main,2022.1.1,60.0016440450686,
positive,red,2,None,None,,,,,,,,,0,60,60,60,,,,,,,,,,,,,,,,,,,,,,,,,,,,,,,,,,,,,,main,None,None,1,1.49770680000006,514.6795005000001,None,None,1,,,,,,,,,,,,,,215,20,Female,2022-05-11_16h22.19.967,Main,2022.1.1,60.0016440450686,
negative,yellow,1,k,None,,,,,,,,,0,61,61,61,,,,,,,,,,,,,,,,,,,,,,,,,,,,,,,,,,,,,,main,None,None,1,1.5074706000000333,517.1780023000001,None,None,1,,,,,,,,,,,,,,215,20,Female,2022-05-11_16h22.19.967,Main,2022.1.1,60.0016440450686,
negative,red,1,None,None,,,,,,,,,0,62,62,62,,,,,,,,,,,,,,,,,,,,,,,,,,,,,,,,,,,,,,main,None,None,1,1.5100824999999531,519.6888724,None,None,1,,,,,,,,,,,,,,215,20,Female,2022-05-11_16h22.19.967,Main,2022.1.1,60.0016440450686,
negative,blue,1,None,k,,,,,,,,,0,63,63,63,,,,,,,,,,,,,,,,,,,,,,,,,,,,,,,,,,,,,,main,k,k,1,0.8793218000000707,522.2009034,None,None,0,,,,,,,,,,,,,,215,20,Female,2022-05-11_16h22.19.967,Main,2022.1.1,60.0016440450686,
positive,blue,2,k,None,,,,,,,,,0,64,64,64,,,,,,,,,,,,,,,,,,,,,,,,,,,,,,,,,,,,,,main,None,None,1,1.503340900000012,524.0803252999999,None,None,1,,,,,,,,,,,,,,215,20,Female,2022-05-11_16h22.19.967,Main,2022.1.1,60.0016440450686,
negative,yellow,2,k,None,,,,,,,,,0,65,65,65,,,,,,,,,,,,,,,,,,,,,,,,,,,,,,,,,,,,,,main,None,k,0,0.9868819999999232,526.5868915000001,None,None,1,,,,,,,,,,,,,,215,20,Female,2022-05-11_16h22.19.967,Main,2022.1.1,60.0016440450686,
positive,yellow,2,None,k,,,,,,,,,0,66,66,66,,,,,,,,,,,,,,,,,,,,,,,,,,,,,,,,,,,,,,main,k,k,1,0.9125314999998864,529.5955615,None,None,0,,,,,,,,,,,,,,215,20,Female,2022-05-11_16h22.19.967,Main,2022.1.1,60.0016440450686,
positive,yellow,2,None,k,,,,,,,,,0,67,67,67,,,,,,,,,,,,,,,,,,,,,,,,,,,,,,,,,,,,,,main,k,k,1,0.8168146999998953,531.5096995000001,None,None,0,,,,,,,,,,,,,,215,20,Female,2022-05-11_16h22.19.967,Main,2022.1.1,60.0016440450686,
positive,red,1,None,None,,,,,,,,,0,68,68,68,,,,,,,,,,,,,,,,,,,,,,,,,,,,,,,,,,,,,,main,None,None,1,1.499120800000128,533.3295989999999,None,None,1,,,,,,,,,,,,,,215,20,Female,2022-05-11_16h22.19.967,Main,2022.1.1,60.0016440450686,
positive,yellow,1,None,k,,,,,,,,,0,69,69,69,,,,,,,,,,,,,,,,,,,,,,,,,,,,,,,,,,,,,,main,k,k,1,0.7949569000002157,535.8290842000001,None,None,0,,,,,,,,,,,,,,215,20,Female,2022-05-11_16h22.19.967,Main,2022.1.1,60.0016440450686,
negative,yellow,2,k,None,,,,,,,,,0,70,70,70,,,,,,,,,,,,,,,,,,,,,,,,,,,,,,,,,,,,,,main,None,None,1,1.5111395000001266,537.6281581999999,None,None,1,,,,,,,,,,,,,,215,20,Female,2022-05-11_16h22.19.967,Main,2022.1.1,60.0016440450686,
positive,yellow,1,None,k,,,,,,,,,0,71,71,71,,,,,,,,,,,,,,,,,,,,,,,,,,,,,,,,,,,,,,main,k,k,1,0.7699027999999544,540.1395801000001,None,None,0,,,,,,,,,,,,,,215,20,Female,2022-05-11_16h22.19.967,Main,2022.1.1,60.0016440450686,
negative,blue,1,None,k,,,,,,,,,0,72,72,72,,,,,,,,,,,,,,,,,,,,,,,,,,,,,,,,,,,,,,main,k,k,1,0.8433955999998943,541.9141793000001,None,None,0,,,,,,,,,,,,,,215,20,Female,2022-05-11_16h22.19.967,Main,2022.1.1,60.0016440450686,
negative,red,2,None,None,,,,,,,,,0,73,73,73,,,,,,,,,,,,,,,,,,,,,,,,,,,,,,,,,,,,,,main,None,None,1,1.5080976000001556,543.7568298000001,None,None,1,,,,,,,,,,,,,,215,20,Female,2022-05-11_16h22.19.967,Main,2022.1.1,60.0016440450686,
positive,blue,2,k,None,,,,,,,,,0,74,74,74,,,,,,,,,,,,,,,,,,,,,,,,,,,,,,,,,,,,,,main,None,None,1,1.5077479999999923,546.2684624000001,None,None,1,,,,,,,,,,,,,,215,20,Female,2022-05-11_16h22.19.967,Main,2022.1.1,60.0016440450686,
negative,blue,2,None,k,,,,,,,,,0,75,75,75,,,,,,,,,,,,,,,,,,,,,,,,,,,,,,,,,,,,,,main,k,k,1,0.7270607000000382,548.7758696000001,None,None,0,,,,,,,,,,,,,,215,20,Female,2022-05-11_16h22.19.967,Main,2022.1.1,60.0016440450686,
negative,blue,2,None,k,,,,,,,,,0,76,76,76,,,,,,,,,,,,,,,,,,,,,,,,,,,,,,,,,,,,,,main,k,k,1,1.1758633000001737,550.5060593999999,None,None,0,,,,,,,,,,,,,,215,20,Female,2022-05-11_16h22.19.967,Main,2022.1.1,60.0016440450686,
negative,yellow,1,k,None,,,,,,,,,0,77,77,77,,,,,,,,,,,,,,,,,,,,,,,,,,,,,,,,,,,,,,main,None,None,1,1.5108239999999569,552.6858325999999,None,None,1,,,,,,,,,,,,,,215,20,Female,2022-05-11_16h22.19.967,Main,2022.1.1,60.0016440450686,
positive,blue,1,k,None,,,,,,,,,0,78,78,78,,,,,,,,,,,,,,,,,,,,,,,,,,,,,,,,,,,,,,main,None,None,1,1.5101799999999912,555.1982155999999,None,None,1,,,,,,,,,,,,,,215,20,Female,2022-05-11_16h22.19.967,Main,2022.1.1,60.0016440450686,
positive,blue,1,k,None,,,,,,,,,0,79,79,79,,,,,,,,,,,,,,,,,,,,,,,,,,,,,,,,,,,,,,main,None,None,1,1.5007133000001431,557.7079590999999,None,None,1,,,,,,,,,,,,,,215,20,Female,2022-05-11_16h22.19.967,Main,2022.1.1,60.0016440450686,
positive,red,2,None,None,,,,,,,,,0,80,80,80,,,,,,,,,,,,,,,,,,,,,,,,,,,,,,,,,,,,,,main,None,None,1,1.5036921000000802,560.2119438,None,None,1,,,,,,,,,,,,,,215,20,Female,2022-05-11_16h22.19.967,Main,2022.1.1,60.0016440450686,
positive,yellow,2,None,k,,,,,,,,,0,81,81,81,,,,,,,,,,,,,,,,,,,,,,,,,,,,,,,,,,,,,,main,k,k,1,0.7582718000001023,562.7172071,None,None,0,,,,,,,,,,,,,,215,20,Female,2022-05-11_16h22.19.967,Main,2022.1.1,60.0016440450686,
positive,blue,1,k,None,,,,,,,,,0,82,82,82,,,,,,,,,,,,,,,,,,,,,,,,,,,,,,,,,,,,,,main,None,None,1,1.501658500000076,564.4772459999999,None,None,1,,,,,,,,,,,,,,215,20,Female,2022-05-11_16h22.19.967,Main,2022.1.1,60.0016440450686,
negative,yellow,2,k,None,,,,,,,,,0,83,83,83,,,,,,,,,,,,,,,,,,,,,,,,,,,,,,,,,,,,,,main,None,None,1,1.5014639999999417,566.9807068,None,None,1,,,,,,,,,,,,,,215,20,Female,2022-05-11_16h22.19.967,Main,2022.1.1,60.0016440450686,
positive,blue,2,k,None,,,,,,,,,0,84,84,84,,,,,,,,,,,,,,,,,,,,,,,,,,,,,,,,,,,,,,main,None,None,1,1.5020124000000123,569.4826793,None,None,1,,,,,,,,,,,,,,215,20,Female,2022-05-11_16h22.19.967,Main,2022.1.1,60.0016440450686,
positive,yellow,1,None,k,,,,,,,,,0,85,85,85,,,,,,,,,,,,,,,,,,,,,,,,,,,,,,,,,,,,,,main,k,k,1,1.401004599999851,571.9866994000001,None,None,0,,,,,,,,,,,,,,215,20,Female,2022-05-11_16h22.19.967,Main,2022.1.1,60.0016440450686,
positive,blue,2,k,None,,,,,,,,,0,86,86,86,,,,,,,,,,,,,,,,,,,,,,,,,,,,,,,,,,,,,,main,None,None,1,1.5043694999999389,574.3889315000001,None,None,1,,,,,,,,,,,,,,215,20,Female,2022-05-11_16h22.19.967,Main,2022.1.1,60.0016440450686,
positive,blue,1,k,None,,,,,,,,,0,87,87,87,,,,,,,,,,,,,,,,,,,,,,,,,,,,,,,,,,,,,,main,None,None,1,1.5091617000000497,576.8972066000001,None,None,1,,,,,,,,,,,,,,215,20,Female,2022-05-11_16h22.19.967,Main,2022.1.1,60.0016440450686,
negative,yellow,2,k,None,,,,,,,,,0,88,88,88,,,,,,,,,,,,,,,,,,,,,,,,,,,,,,,,,,,,,,main,None,None,1,1.5152726999999686,579.4076457000001,None,None,1,,,,,,,,,,,,,,215,20,Female,2022-05-11_16h22.19.967,Main,2022.1.1,60.0016440450686,
negative,blue,2,None,k,,,,,,,,,0,89,89,89,,,,,,,,,,,,,,,,,,,,,,,,,,,,,,,,,,,,,,main,k,k,1,0.7833568000000923,581.9257521,None,None,0,,,,,,,,,,,,,,215,20,Female,2022-05-11_16h22.19.967,Main,2022.1.1,60.0016440450686,
positive,yellow,2,None,k,,,,,,,,,0,90,90,90,,,,,,,,,,,,,,,,,,,,,,,,,,,,,,,,,,,,,,main,k,k,1,0.963592700000163,583.710697,None,None,0,,,,,,,,,,,,,,215,20,Female,2022-05-11_16h22.19.967,Main,2022.1.1,60.0016440450686,
negative,yellow,1,k,None,,,,,,,,,0,91,91,91,,,,,,,,,,,,,,,,,,,,,,,,,,,,,,,,,,,,,,main,None,None,1,1.508763899999849,585.6758738999999,None,None,1,,,,,,,,,,,,,,215,20,Female,2022-05-11_16h22.19.967,Main,2022.1.1,60.0016440450686,
negative,red,2,None,None,,,,,,,,,0,92,92,92,,,,,,,,,,,,,,,,,,,,,,,,,,,,,,,,,,,,,,main,None,None,1,1.4961828000000423,588.1854316000001,None,None,1,,,,,,,,,,,,,,215,20,Female,2022-05-11_16h22.19.967,Main,2022.1.1,60.0016440450686,
negative,blue,2,None,k,,,,,,,,,0,93,93,93,,,,,,,,,,,,,,,,,,,,,,,,,,,,,,,,,,,,,,main,k,k,1,0.8348454000001766,590.6849841999999,None,None,0,,,,,,,,,,,,,,215,20,Female,2022-05-11_16h22.19.967,Main,2022.1.1,60.0016440450686,
negative,blue,1,None,k,,,,,,,,,0,94,94,94,,,,,,,,,,,,,,,,,,,,,,,,,,,,,,,,,,,,,,main,k,k,1,0.7679881000001387,592.5233708999999,None,None,0,,,,,,,,,,,,,,215,20,Female,2022-05-11_16h22.19.967,Main,2022.1.1,60.0016440450686,
negative,blue,1,None,k,,,,,,,,,0,95,95,95,,,,,,,,,,,,,,,,,,,,,,,,,,,,,,,,,,,,,,main,k,k,1,1.0254500000000917,594.2933012000001,None,None,0,,,,,,,,,,,,,,215,20,Female,2022-05-11_16h22.19.967,Main,2022.1.1,60.0016440450686,
negative,red,1,None,None,,,,,,,,,0,96,96,96,,,,,,,,,,,,,,,,,,,,,,,,,,,,,,,,,,,,,,main,None,None,1,1.5038687999999638,596.3177681,None,None,1,,,,,,,,,,,,,,215,20,Female,2022-05-11_16h22.19.967,Main,2022.1.1,60.0016440450686,
positive,yellow,1,None,k,,,,,,,,,0,97,97,97,,,,,,,,,,,,,,,,,,,,,,,,,,,,,,,,,,,,,,main,k,k,1,0.7545657000000574,598.8255463,None,None,0,,,,,,,,,,,,,,215,20,Female,2022-05-11_16h22.19.967,Main,2022.1.1,60.0016440450686,
negative,yellow,1,k,None,,,,,,,,,0,98,98,98,,,,,,,,,,,,,,,,,,,,,,,,,,,,,,,,,,,,,,main,None,None,1,1.4974664999999732,600.5809292000001,None,None,1,,,,,,,,,,,,,,215,20,Female,2022-05-11_16h22.19.967,Main,2022.1.1,60.0016440450686,
positive,red,1,None,None,,,,,,,,,0,99,99,99,,,,,,,,,,,,,,,,,,,,,,,,,,,,,,,,,,,,,,main,None,None,1,1.4932011000000784,603.0796395,None,None,1,,,,,,,,,,,,,,215,20,Female,2022-05-11_16h22.19.967,Main,2022.1.1,60.0016440450686,
positive,blue,1,k,None,,,,,,,,,0,100,100,100,,,,,,,,,,,,,,,,,,,,,,,,,,,,,,,,,,,,,,main,None,None,1,1.4994050000000243,605.5754554,None,None,1,,,,,,,,,,,,,,215,20,Female,2022-05-11_16h22.19.967,Main,2022.1.1,60.0016440450686,
negative,yellow,1,k,None,,,,,,,,,0,101,101,101,,,,,,,,,,,,,,,,,,,,,,,,,,,,,,,,,,,,,,main,None,None,1,1.5013533999999709,608.0757186000001,None,None,1,,,,,,,,,,,,,,215,20,Female,2022-05-11_16h22.19.967,Main,2022.1.1,60.0016440450686,
negative,blue,2,None,k,,,,,,,,,0,102,102,102,,,,,,,,,,,,,,,,,,,,,,,,,,,,,,,,,,,,,,main,k,k,1,0.7886228999998366,610.5786365000001,None,None,0,,,,,,,,,,,,,,215,20,Female,2022-05-11_16h22.19.967,Main,2022.1.1,60.0016440450686,
negative,yellow,2,k,None,,,,,,,,,0,103,103,103,,,,,,,,,,,,,,,,,,,,,,,,,,,,,,,,,,,,,,main,None,None,1,1.5003623000000061,612.3687295,None,None,1,,,,,,,,,,,,,,215,20,Female,2022-05-11_16h22.19.967,Main,2022.1.1,60.0016440450686,
positive,yellow,2,None,k,,,,,,,,,0,104,104,104,,,,,,,,,,,,,,,,,,,,,,,,,,,,,,,,,,,,,,main,k,k,1,0.6964015000000927,614.8721213000001,None,None,0,,,,,,,,,,,,,,215,20,Female,2022-05-11_16h22.19.967,Main,2022.1.1,60.0016440450686,
positive,blue,1,k,None,,,,,,,,,0,105,105,105,,,,,,,,,,,,,,,,,,,,,,,,,,,,,,,,,,,,,,main,None,None,1,1.4968901000002006,616.5682704000001,None,None,1,,,,,,,,,,,,,,215,20,Female,2022-05-11_16h22.19.967,Main,2022.1.1,60.0016440450686,
positive,blue,2,k,None,,,,,,,,,0,106,106,106,,,,,,,,,,,,,,,,,,,,,,,,,,,,,,,,,,,,,,main,None,None,1,1.5047730999999658,619.0664686,None,None,1,,,,,,,,,,,,,,215,20,Female,2022-05-11_16h22.19.967,Main,2022.1.1,60.0016440450686,
negative,blue,1,None,k,,,,,,,,,0,107,107,107,,,,,,,,,,,,,,,,,,,,,,,,,,,,,,,,,,,,,,main,k,k,1,0.6571185000000241,621.5750878000001,None,None,0,,,,,,,,,,,,,,215,20,Female,2022-05-11_16h22.19.967,Main,2022.1.1,60.0016440450686,
positive,yellow,2,None,k,,,,,,,,,0,108,108,108,,,,,,,,,,,,,,,,,,,,,,,,,,,,,,,,,,,,,,main,k,k,1,0.7693148000000747,623.2334285,None,None,0,,,,,,,,,,,,,,215,20,Female,2022-05-11_16h22.19.967,Main,2022.1.1,60.0016440450686,
negative,yellow,1,k,None,,,,,,,,,0,109,109,109,,,,,,,,,,,,,,,,,,,,,,,,,,,,,,,,,,,,,,main,None,None,1,1.5108600000000934,625.0043344999999,None,None,1,,,,,,,,,,,,,,215,20,Female,2022-05-11_16h22.19.967,Main,2022.1.1,60.0016440450686,
negative,blue,2,None,k,,,,,,,,,0,110,110,110,,,,,,,,,,,,,,,,,,,,,,,,,,,,,,,,,,,,,,main,k,k,1,1.0102939999999307,627.5158653999999,None,None,0,,,,,,,,,,,,,,215,20,Female,2022-05-11_16h22.19.967,Main,2022.1.1,60.0016440450686,
positive,blue,2,k,None,,,,,,,,,0,111,111,111,,,,,,,,,,,,,,,,,,,,,,,,,,,,,,,,,,,,,,main,None,None,1,1.5079863999999361,629.5269829000001,None,None,1,,,,,,,,,,,,,,215,20,Female,2022-05-11_16h22.19.967,Main,2022.1.1,60.0016440450686,
negative,blue,1,None,k,,,,,,,,,0,112,112,112,,,,,,,,,,,,,,,,,,,,,,,,,,,,,,,,,,,,,,main,k,k,1,0.6998443999998472,632.0377510999999,None,None,0,,,,,,,,,,,,,,215,20,Female,2022-05-11_16h22.19.967,Main,2022.1.1,60.0016440450686,
positive,yellow,1,None,k,,,,,,,,,0,113,113,113,,,,,,,,,,,,,,,,,,,,,,,,,,,,,,,,,,,,,,main,k,k,1,0.7820053000000371,633.7389496999999,None,None,0,,,,,,,,,,,,,,215,20,Female,2022-05-11_16h22.19.967,Main,2022.1.1,60.0016440450686,
negative,red,1,None,None,,,,,,,,,0,114,114,114,,,,,,,,,,,,,,,,,,,,,,,,,,,,,,,,,,,,,,main,None,None,1,1.5088696000000255,635.5225800000001,None,None,1,,,,,,,,,,,,,,215,20,Female,2022-05-11_16h22.19.967,Main,2022.1.1,60.0016440450686,
positive,red,1,None,None,,,,,,,,,0,115,115,115,,,,,,,,,,,,,,,,,,,,,,,,,,,,,,,,,,,,,,main,None,None,1,1.4988510999999107,638.0315938000001,None,None,1,,,,,,,,,,,,,,215,20,Female,2022-05-11_16h22.19.967,Main,2022.1.1,60.0016440450686,
negative,red,2,None,None,,,,,,,,,0,116,116,116,,,,,,,,,,,,,,,,,,,,,,,,,,,,,,,,,,,,,,main,None,None,1,1.5035894000000098,640.5309331999999,None,None,1,,,,,,,,,,,,,,215,20,Female,2022-05-11_16h22.19.967,Main,2022.1.1,60.0016440450686,
negative,yellow,2,k,None,,,,,,,,,0,117,117,117,,,,,,,,,,,,,,,,,,,,,,,,,,,,,,,,,,,,,,main,None,None,1,1.5091322999999193,643.0378963,None,None,1,,,,,,,,,,,,,,215,20,Female,2022-05-11_16h22.19.967,Main,2022.1.1,60.0016440450686,
positive,yellow,1,None,k,,,,,,,,,0,118,118,118,,,,,,,,,,,,,,,,,,,,,,,,,,,,,,,,,,,,,,main,k,k,1,0.6748600000000806,645.5469987000001,None,None,0,,,,,,,,,,,,,,215,20,Female,2022-05-11_16h22.19.967,Main,2022.1.1,60.0016440450686,
positive,red,2,None,None,,,,,,,,,0,119,119,119,,,,,,,,,,,,,,,,,,,,,,,,,,,,,,,,,,,,,,main,None,None,1,1.4939575999999306,647.2255554000001,None,None,1,,,,,,,,,,,,,,215,20,Female,2022-05-11_16h22.19.967,Main,2022.1.1,60.0016440450686,
positive,blue,2,k,None,,,,,,,,,0,120,120,120,,,,,,,,,,,,,,,,,,,,,,,,,,,,,,,,,,,,,,main,None,None,1,1.5070559999999205,649.7205239,None,None,1,,,,,,,,,,,,,,215,20,Female,2022-05-11_16h22.19.967,Main,2022.1.1,60.0016440450686,
negative,red,1,None,None,,,,,,,,,0,121,121,121,,,,,,,,,,,,,,,,,,,,,,,,,,,,,,,,,,,,,,main,None,None,1,1.503103499999952,652.2270302,None,None,1,,,,,,,,,,,,,,215,20,Female,2022-05-11_16h22.19.967,Main,2022.1.1,60.0016440450686,
positive,yellow,2,None,k,,,,,,,,,0,122,122,122,,,,,,,,,,,,,,,,,,,,,,,,,,,,,,,,,,,,,,main,k,k,1,0.6957950999999412,654.734267,None,None,0,,,,,,,,,,,,,,215,20,Female,2022-05-11_16h22.19.967,Main,2022.1.1,60.0016440450686,
negative,red,2,None,None,,,,,,,,,0,123,123,123,,,,,,,,,,,,,,,,,,,,,,,,,,,,,,,,,,,,,,main,None,None,1,1.498258000000078,656.4289140999999,None,None,1,,,,,,,,,,,,,,215,20,Female,2022-05-11_16h22.19.967,Main,2022.1.1,60.0016440450686,
negative,yellow,2,k,None,,,,,,,,,0,124,124,124,,,,,,,,,,,,,,,,,,,,,,,,,,,,,,,,,,,,,,main,None,None,1,1.5015253000001394,658.9304581000001,None,None,1,,,,,,,,,,,,,,215,20,Female,2022-05-11_16h22.19.967,Main,2022.1.1,60.0016440450686,
positive,red,1,None,None,,,,,,,,,0,125,125,125,,,,,,,,,,,,,,,,,,,,,,,,,,,,,,,,,,,,,,main,None,None,1,1.5003093000000263,661.4341633000001,None,None,1,,,,,,,,,,,,,,215,20,Female,2022-05-11_16h22.19.967,Main,2022.1.1,60.0016440450686,
negative,blue,2,None,k,,,,,,,,,0,126,126,126,,,,,,,,,,,,,,,,,,,,,,,,,,,,,,,,,,,,,,main,k,k,1,0.8783971999998812,663.9367021,None,None,0,,,,,,,,,,,,,,215,20,Female,2022-05-11_16h22.19.967,Main,2022.1.1,60.0016440450686,
negative,blue,1,None,k,,,,,,,,,0,127,127,127,,,,,,,,,,,,,,,,,,,,,,,,,,,,,,,,,,,,,,main,k,k,1,0.9247780000000603,665.8157147,None,None,0,,,,,,,,,,,,,,215,20,Female,2022-05-11_16h22.19.967,Main,2022.1.1,60.0016440450686,
negative,yellow,1,k,None,,,,,,,,,0,128,128,128,,,,,,,,,,,,,,,,,,,,,,,,,,,,,,,,,,,,,,main,None,None,1,1.502809599999864,667.7423599000001,None,None,1,,,,,,,,,,,,,,215,20,Female,2022-05-11_16h22.19.967,Main,2022.1.1,60.0016440450686,
negative,yellow,1,k,None,,,,,,,,,0,129,129,129,,,,,,,,,,,,,,,,,,,,,,,,,,,,,,,,,,,,,,main,None,None,1,1.508089499999869,670.2478034000001,None,None,1,,,,,,,,,,,,,,215,20,Female,2022-05-11_16h22.19.967,Main,2022.1.1,60.0016440450686,
positive,blue,1,k,None,,,,,,,,,0,130,130,130,,,,,,,,,,,,,,,,,,,,,,,,,,,,,,,,,,,,,,main,None,None,1,1.5129555000000892,672.7576627999999,None,None,1,,,,,,,,,,,,,,215,20,Female,2022-05-11_16h22.19.967,Main,2022.1.1,60.0016440450686,
negative,blue,1,None,k,,,,,,,,,0,131,131,131,,,,,,,,,,,,,,,,,,,,,,,,,,,,,,,,,,,,,,main,k,k,1,0.8935524999999416,675.2737124,None,None,0,,,,,,,,,,,,,,215,20,Female,2022-05-11_16h22.19.967,Main,2022.1.1,60.0016440450686,
negative,blue,2,None,k,,,,,,,,,0,132,132,132,,,,,,,,,,,,,,,,,,,,,,,,,,,,,,,,,,,,,,main,k,k,1,0.6630930999999691,677.1708636999999,None,None,0,,,,,,,,,,,,,,215,20,Female,2022-05-11_16h22.19.967,Main,2022.1.1,60.0016440450686,
positive,blue,2,k,None,,,,,,,,,0,133,133,133,,,,,,,,,,,,,,,,,,,,,,,,,,,,,,,,,,,,,,main,None,None,1,1.4933103999999275,678.8354048000001,None,None,1,,,,,,,,,,,,,,215,20,Female,2022-05-11_16h22.19.967,Main,2022.1.1,60.0016440450686,
positive,red,2,None,None,,,,,,,,,0,134,134,134,,,,,,,,,,,,,,,,,,,,,,,,,,,,,,,,,,,,,,main,None,None,1,1.5071160999998483,681.3300729,None,None,1,,,,,,,,,,,,,,215,20,Female,2022-05-11_16h22.19.967,Main,2022.1.1,60.0016440450686,
negative,yellow,2,k,None,,,,,,,,,0,135,135,135,,,,,,,,,,,,,,,,,,,,,,,,,,,,,,,,,,,,,,main,None,None,1,1.5001902999999857,683.8382052,None,None,1,,,,,,,,,,,,,,215,20,Female,2022-05-11_16h22.19.967,Main,2022.1.1,60.0016440450686,
positive,yellow,2,None,k,,,,,,,,,0,136,136,136,,,,,,,,,,,,,,,,,,,,,,,,,,,,,,,,,,,,,,main,k,k,1,0.5486399999999776,686.3403696,None,None,0,,,,,,,,,,,,,,215,20,Female,2022-05-11_16h22.19.967,Main,2022.1.1,60.0016440450686,
positive,blue,1,k,None,,,,,,,,,0,137,137,137,,,,,,,,,,,,,,,,,,,,,,,,,,,,,,,,,,,,,,main,None,None,1,1.49753910000004,687.890279,None,None,1,,,,,,,,,,,,,,215,20,Female,2022-05-11_16h22.19.967,Main,2022.1.1,60.0016440450686,
positive,yellow,1,None,k,,,,,,,,,0,138,138,138,,,,,,,,,,,,,,,,,,,,,,,,,,,,,,,,,,,,,,main,k,k,1,0.6524057999999968,690.3896695000001,None,None,0,,,,,,,,,,,,,,215,20,Female,2022-05-11_16h22.19.967,Main,2022.1.1,60.0016440450686,
positive,yellow,1,None,k,,,,,,,,,0,139,139,139,,,,,,,,,,,,,,,,,,,,,,,,,,,,,,,,,,,,,,main,k,k,1,0.6230015000001004,692.0453269,None,None,0,,,,,,,,,,,,,,215,20,Female,2022-05-11_16h22.19.967,Main,2022.1.1,60.0016440450686,
positive,yellow,1,None,k,,,,,,,,,0,140,140,140,,,,,,,,,,,,,,,,,,,,,,,,,,,,,,,,,,,,,,main,k,k,1,0.6912225999999464,693.6695083,None,None,0,,,,,,,,,,,,,,215,20,Female,2022-05-11_16h22.19.967,Main,2022.1.1,60.0016440450686,
positive,blue,1,k,None,,,,,,,,,0,141,141,141,,,,,,,,,,,,,,,,,,,,,,,,,,,,,,,,,,,,,,main,None,None,1,1.5057710000000952,695.3634655999999,None,None,1,,,,,,,,,,,,,,215,20,Female,2022-05-11_16h22.19.967,Main,2022.1.1,60.0016440450686,
positive,blue,2,k,None,,,,,,,,,0,142,142,142,,,,,,,,,,,,,,,,,,,,,,,,,,,,,,,,,,,,,,main,None,None,1,1.4960742000000664,697.8700573000001,None,None,1,,,,,,,,,,,,,,215,20,Female,2022-05-11_16h22.19.967,Main,2022.1.1,60.0016440450686,
positive,yellow,2,None,k,,,,,,,,,0,143,143,143,,,,,,,,,,,,,,,,,,,,,,,,,,,,,,,,,,,,,,main,k,k,1,0.7544143999998596,700.3689869,None,None,0,,,,,,,,,,,,,,215,20,Female,2022-05-11_16h22.19.967,Main,2022.1.1,60.0016440450686,
negative,yellow,2,k,None,,,,,,,,,0,144,144,144,,,,,,,,,,,,,,,,,,,,,,,,,,,,,,,,,,,,,,main,None,None,1,1.499252399999932,702.1270134000001,None,None,1,,,,,,,,,,,,,,215,20,Female,2022-05-11_16h22.19.967,Main,2022.1.1,60.0016440450686,
negative,blue,2,None,k,,,,,,,,,0,145,145,145,,,,,,,,,,,,,,,,,,,,,,,,,,,,,,,,,,,,,,main,k,k,1,0.6930738999999448,704.6282022,None,None,0,,,,,,,,,,,,,,215,20,Female,2022-05-11_16h22.19.967,Main,2022.1.1,60.0016440450686,
negative,red,1,None,None,,,,,,,,,0,146,146,146,,,,,,,,,,,,,,,,,,,,,,,,,,,,,,,,,,,,,,main,None,None,1,1.5100442999998904,706.3226357000001,None,None,1,,,,,,,,,,,,,,215,20,Female,2022-05-11_16h22.19.967,Main,2022.1.1,60.0016440450686,
positive,blue,1,k,None,,,,,,,,,0,147,147,147,,,,,,,,,,,,,,,,,,,,,,,,,,,,,,,,,,,,,,main,None,None,1,1.510578599999917,708.8337859999999,None,None,1,,,,,,,,,,,,,,215,20,Female,2022-05-11_16h22.19.967,Main,2022.1.1,60.0016440450686,
positive,yellow,1,None,k,,,,,,,,,0,148,148,148,,,,,,,,,,,,,,,,,,,,,,,,,,,,,,,,,,,,,,main,k,k,1,0.8697916000000987,711.3463062999999,None,None,0,,,,,,,,,,,,,,215,20,Female,2022-05-11_16h22.19.967,Main,2022.1.1,60.0016440450686,
negative,red,2,None,None,,,,,,,,,0,149,149,149,,,,,,,,,,,,,,,,,,,,,,,,,,,,,,,,,,,,,,main,None,None,1,1.5015750000000025,713.2166068000001,None,None,1,,,,,,,,,,,,,,215,20,Female,2022-05-11_16h22.19.967,Main,2022.1.1,60.0016440450686,
negative,blue,1,None,k,,,,,,,,,0,150,150,150,,,,,,,,,,,,,,,,,,,,,,,,,,,,,,,,,,,,,,main,k,k,1,0.8905608000000029,715.7204627000001,None,None,0,,,,,,,,,,,,,,215,20,Female,2022-05-11_16h22.19.967,Main,2022.1.1,60.0016440450686,
negative,yellow,2,k,None,,,,,,,,,0,151,151,151,,,,,,,,,,,,,,,,,,,,,,,,,,,,,,,,,,,,,,main,None,None,1,1.4976196000000073,717.6142317000001,None,None,1,,,,,,,,,,,,,,215,20,Female,2022-05-11_16h22.19.967,Main,2022.1.1,60.0016440450686,
negative,blue,2,None,k,,,,,,,,,0,152,152,152,,,,,,,,,,,,,,,,,,,,,,,,,,,,,,,,,,,,,,main,k,k,1,0.7959232999999131,720.1125966,None,None,0,,,,,,,,,,,,,,215,20,Female,2022-05-11_16h22.19.967,Main,2022.1.1,60.0016440450686,
negative,yellow,1,k,None,,,,,,,,,0,153,153,153,,,,,,,,,,,,,,,,,,,,,,,,,,,,,,,,,,,,,,main,None,None,1,1.508235999999897,721.9103832000001,None,None,1,,,,,,,,,,,,,,215,20,Female,2022-05-11_16h22.19.967,Main,2022.1.1,60.0016440450686,
negative,blue,1,None,k,,,,,,,,,0,154,154,154,,,,,,,,,,,,,,,,,,,,,,,,,,,,,,,,,,,,,,main,k,k,1,0.7500516000000061,724.4184433,None,None,0,,,,,,,,,,,,,,215,20,Female,2022-05-11_16h22.19.967,Main,2022.1.1,60.0016440450686,
positive,yellow,2,None,k,,,,,,,,,0,155,155,155,,,,,,,,,,,,,,,,,,,,,,,,,,,,,,,,,,,,,,main,k,k,1,0.8308887999999115,726.1719435,None,None,0,,,,,,,,,,,,,,215,20,Female,2022-05-11_16h22.19.967,Main,2022.1.1,60.0016440450686,
positive,red,2,None,None,,,,,,,,,0,156,156,156,,,,,,,,,,,,,,,,,,,,,,,,,,,,,,,,,,,,,,main,None,None,1,1.5030338000001393,728.0022876,None,None,1,,,,,,,,,,,,,,215,20,Female,2022-05-11_16h22.19.967,Main,2022.1.1,60.0016440450686,
positive,red,1,None,None,,,,,,,,,0,157,157,157,,,,,,,,,,,,,,,,,,,,,,,,,,,,,,,,,,,,,,main,None,None,1,1.504780700000083,730.5086971000001,None,None,1,,,,,,,,,,,,,,215,20,Female,2022-05-11_16h22.19.967,Main,2022.1.1,60.0016440450686,
positive,blue,2,k,None,,,,,,,,,0,158,158,158,,,,,,,,,,,,,,,,,,,,,,,,,,,,,,,,,,,,,,main,None,None,1,1.4982813999999962,733.0146419,None,None,1,,,,,,,,,,,,,,215,20,Female,2022-05-11_16h22.19.967,Main,2022.1.1,60.0016440450686,
negative,yellow,1,k,None,,,,,,,,,0,159,159,159,,,,,,,,,,,,,,,,,,,,,,,,,,,,,,,,,,,,,,main,None,None,1,1.499502499999835,735.5153496,None,None,1,,,,,,,,,,,,,,215,20,Female,2022-05-11_16h22.19.967,Main,2022.1.1,60.0016440450686,
negative,red,2,None,None,,,,,,,,,0,160,160,160,,,,,,,,,,,,,,,,,,,,,,,,,,,,,,,,,,,,,,main,None,None,1,1.5020732999998927,738.0162955999999,None,None,1,,,,,,,,,,,,,,215,20,Female,2022-05-11_16h22.19.967,Main,2022.1.1,60.0016440450686,
negative,blue,1,None,k,,,,,,,,,0,161,161,161,,,,,,,,,,,,,,,,,,,,,,,,,,,,,,,,,,,,,,main,k,k,1,0.8098774000000049,740.5219718999999,None,None,0,,,,,,,,,,,,,,215,20,Female,2022-05-11_16h22.19.967,Main,2022.1.1,60.0016440450686,
negative,blue,1,None,k,,,,,,,,,0,162,162,162,,,,,,,,,,,,,,,,,,,,,,,,,,,,,,,,,,,,,,main,k,k,1,0.847368600000209,742.3320374,None,None,0,,,,,,,,,,,,,,215,20,Female,2022-05-11_16h22.19.967,Main,2022.1.1,60.0016440450686,
negative,yellow,1,k,None,,,,,,,,,0,163,163,163,,,,,,,,,,,,,,,,,,,,,,,,,,,,,,,,,,,,,,main,None,None,1,1.503324799999973,744.1817407000001,None,None,1,,,,,,,,,,,,,,215,20,Female,2022-05-11_16h22.19.967,Main,2022.1.1,60.0016440450686,
negative,yellow,1,k,None,,,,,,,,,0,164,164,164,,,,,,,,,,,,,,,,,,,,,,,,,,,,,,,,,,,,,,main,None,None,1,1.4948371000000407,746.6889120000001,None,None,1,,,,,,,,,,,,,,215,20,Female,2022-05-11_16h22.19.967,Main,2022.1.1,60.0016440450686,
positive,yellow,1,None,k,,,,,,,,,0,165,165,165,,,,,,,,,,,,,,,,,,,,,,,,,,,,,,,,,,,,,,main,k,k,1,0.6758391999999276,749.1849173,None,None,0,,,,,,,,,,,,,,215,20,Female,2022-05-11_16h22.19.967,Main,2022.1.1,60.0016440450686,
negative,red,1,None,None,,,,,,,,,0,166,166,166,,,,,,,,,,,,,,,,,,,,,,,,,,,,,,,,,,,,,,main,None,None,1,1.4980908,750.8614639,None,None,1,,,,,,,,,,,,,,215,20,Female,2022-05-11_16h22.19.967,Main,2022.1.1,60.0016440450686,
negative,yellow,2,k,None,,,,,,,,,0,167,167,167,,,,,,,,,,,,,,,,,,,,,,,,,,,,,,,,,,,,,,main,None,None,1,1.5095658999998705,753.3614044999999,None,None,1,,,,,,,,,,,,,,215,20,Female,2022-05-11_16h22.19.967,Main,2022.1.1,60.0016440450686,
positive,blue,2,k,None,,,,,,,,,0,168,168,168,,,,,,,,,,,,,,,,,,,,,,,,,,,,,,,,,,,,,,main,None,None,1,1.5102560000000267,755.8731250000001,None,None,1,,,,,,,,,,,,,,215,20,Female,2022-05-11_16h22.19.967,Main,2022.1.1,60.0016440450686,
positive,red,2,None,None,,,,,,,,,0,169,169,169,,,,,,,,,,,,,,,,,,,,,,,,,,,,,,,,,,,,,,main,None,None,1,1.505445699999882,758.3833758000001,None,None,1,,,,,,,,,,,,,,215,20,Female,2022-05-11_16h22.19.967,Main,2022.1.1,60.0016440450686,
positive,red,1,None,None,,,,,,,,,0,170,170,170,,,,,,,,,,,,,,,,,,,,,,,,,,,,,,,,,,,,,,main,None,None,1,1.506464600000072,760.8909162,None,None,1,,,,,,,,,,,,,,215,20,Female,2022-05-11_16h22.19.967,Main,2022.1.1,60.0016440450686,
negative,blue,2,None,k,,,,,,,,,0,171,171,171,,,,,,,,,,,,,,,,,,,,,,,,,,,,,,,,,,,,,,main,k,k,1,0.8101162000000386,763.3972335000001,None,None,0,,,,,,,,,,,,,,215,20,Female,2022-05-11_16h22.19.967,Main,2022.1.1,60.0016440450686,
positive,blue,2,k,None,,,,,,,,,0,172,172,172,,,,,,,,,,,,,,,,,,,,,,,,,,,,,,,,,,,,,,main,None,None,1,1.4995403000000351,765.2116698,None,None,1,,,,,,,,,,,,,,215,20,Female,2022-05-11_16h22.19.967,Main,2022.1.1,60.0016440450686,
negative,yellow,2,k,None,,,,,,,,,0,173,173,173,,,,,,,,,,,,,,,,,,,,,,,,,,,,,,,,,,,,,,main,None,None,1,1.5090404999998555,767.7123389999999,None,None,1,,,,,,,,,,,,,,215,20,Female,2022-05-11_16h22.19.967,Main,2022.1.1,60.0016440450686,
positive,yellow,2,None,k,,,,,,,,,0,174,174,174,,,,,,,,,,,,,,,,,,,,,,,,,,,,,,,,,,,,,,main,k,k,1,0.6344868000001043,770.2251925,None,None,0,,,,,,,,,,,,,,215,20,Female,2022-05-11_16h22.19.967,Main,2022.1.1,60.0016440450686,
negative,blue,2,None,k,,,,,,,,,0,175,175,175,,,,,,,,,,,,,,,,,,,,,,,,,,,,,,,,,,,,,,main,k,k,1,0.8063994999999977,771.8615474000001,None,None,0,,,,,,,,,,,,,,215,20,Female,2022-05-11_16h22.19.967,Main,2022.1.1,60.0016440450686,
positive,blue,1,k,None,,,,,,,,,0,176,176,176,,,,,,,,,,,,,,,,,,,,,,,,,,,,,,,,,,,,,,main,None,None,1,1.5048753999999462,773.6710909999999,None,None,1,,,,,,,,,,,,,,215,20,Female,2022-05-11_16h22.19.967,Main,2022.1.1,60.0016440450686,
positive,yellow,1,None,k,,,,,,,,,0,177,177,177,,,,,,,,,,,,,,,,,,,,,,,,,,,,,,,,,,,,,,main,k,k,1,0.6539874000000054,776.1762853,None,None,0,,,,,,,,,,,,,,215,20,Female,2022-05-11_16h22.19.967,Main,2022.1.1,60.0016440450686,
positive,blue,1,k,None,,,,,,,,,0,178,178,178,,,,,,,,,,,,,,,,,,,,,,,,,,,,,,,,,,,,,,main,None,None,1,1.5069215000000895,777.8346515000001,None,None,1,,,,,,,,,,,,,,215,20,Female,2022-05-11_16h22.19.967,Main,2022.1.1,60.0016440450686,
positive,yellow,2,None,k,,,,,,,,,0,179,179,179,,,,,,,,,,,,,,,,,,,,,,,,,,,,,,,,,,,,,,main,k,k,1,0.7444249999998647,780.3429008,None,None,0,,,,,,,,,,,,,,215,20,Female,2022-05-11_16h22.19.967,Main,2022.1.1,60.0016440450686,
positive,blue,1,k,None,,,,,,,,,0,180,180,180,,,,,,,,,,,,,,,,,,,,,,,,,,,,,,,,,,,,,,main,None,None,1,1.510309799999959,782.0897302000001,None,None,1,,,,,,,,,,,,,,215,20,Female,2022-05-11_16h22.19.967,Main,2022.1.1,60.0016440450686,
negative,red,1,None,None,,,,,,,,,0,181,181,181,,,,,,,,,,,,,,,,,,,,,,,,,,,,,,,,,,,,,,main,None,None,1,1.5051671999999598,784.6027188,None,None,1,,,,,,,,,,,,,,215,20,Female,2022-05-11_16h22.19.967,Main,2022.1.1,60.0016440450686,
negative,blue,1,None,k,,,,,,,,,0,182,182,182,,,,,,,,,,,,,,,,,,,,,,,,,,,,,,,,,,,,,,main,k,k,1,0.8031762000000526,787.1091966000001,None,None,0,,,,,,,,,,,,,,215,20,Female,2022-05-11_16h22.19.967,Main,2022.1.1,60.0016440450686,
negative,yellow,2,k,None,,,,,,,,,0,183,183,183,,,,,,,,,,,,,,,,,,,,,,,,,,,,,,,,,,,,,,main,None,None,1,1.4989341000000422,788.9152955,None,None,1,,,,,,,,,,,,,,215,20,Female,2022-05-11_16h22.19.967,Main,2022.1.1,60.0016440450686,
positive,yellow,2,None,k,,,,,,,,,0,184,184,184,,,,,,,,,,,,,,,,,,,,,,,,,,,,,,,,,,,,,,main,k,k,1,0.6839695000001029,791.4159488,None,None,0,,,,,,,,,,,,,,215,20,Female,2022-05-11_16h22.19.967,Main,2022.1.1,60.0016440450686,
positive,yellow,1,None,k,,,,,,,,,0,185,185,185,,,,,,,,,,,,,,,,,,,,,,,,,,,,,,,,,,,,,,main,k,k,1,0.8216723000000457,793.1019202,None,None,0,,,,,,,,,,,,,,215,20,Female,2022-05-11_16h22.19.967,Main,2022.1.1,60.0016440450686,
positive,red,2,None,None,,,,,,,,,0,186,186,186,,,,,,,,,,,,,,,,,,,,,,,,,,,,,,,,,,,,,,main,None,None,1,1.5017349000002014,794.9247286,None,None,1,,,,,,,,,,,,,,215,20,Female,2022-05-11_16h22.19.967,Main,2022.1.1,60.0016440450686,
positive,blue,1,k,None,,,,,,,,,0,187,187,187,,,,,,,,,,,,,,,,,,,,,,,,,,,,,,,,,,,,,,main,None,None,1,1.497276900000088,797.4282453000001,None,None,1,,,,,,,,,,,,,,215,20,Female,2022-05-11_16h22.19.967,Main,2022.1.1,60.0016440450686,
negative,yellow,1,k,None,,,,,,,,,0,188,188,188,,,,,,,,,,,,,,,,,,,,,,,,,,,,,,,,,,,,,,main,None,None,1,1.5126353000000563,799.9272289,None,None,1,,,,,,,,,,,,,,215,20,Female,2022-05-11_16h22.19.967,Main,2022.1.1,60.0016440450686,
positive,yellow,2,None,k,,,,,,,,,0,189,189,189,,,,,,,,,,,,,,,,,,,,,,,,,,,,,,,,,,,,,,main,k,k,1,0.7031915000000026,802.4412962000001,None,None,0,,,,,,,,,,,,,,215,20,Female,2022-05-11_16h22.19.967,Main,2022.1.1,60.0016440450686,
negative,yellow,2,k,None,,,,,,,,,0,190,190,190,,,,,,,,,,,,,,,,,,,,,,,,,,,,,,,,,,,,,,main,None,None,1,1.5065005999999812,804.1483456000001,None,None,1,,,,,,,,,,,,,,215,20,Female,2022-05-11_16h22.19.967,Main,2022.1.1,60.0016440450686,
negative,yellow,1,k,None,,,,,,,,,0,191,191,191,,,,,,,,,,,,,,,,,,,,,,,,,,,,,,,,,,,,,,main,None,None,1,1.4972883000000365,806.6559937,None,None,1,,,,,,,,,,,,,,215,20,Female,2022-05-11_16h22.19.967,Main,2022.1.1,60.0016440450686,
positive,blue,2,k,None,,,,,,,,,0,192,192,192,,,,,,,,,,,,,,,,,,,,,,,,,,,,,,,,,,,,,,main,None,None,1,1.5121366000000762,809.1565249,None,None,1,,,,,,,,,,,,,,215,20,Female,2022-05-11_16h22.19.967,Main,2022.1.1,60.0016440450686,
positive,yellow,1,None,k,,,,,,,,,0,193,193,193,,,,,,,,,,,,,,,,,,,,,,,,,,,,,,,,,,,,,,main,k,k,1,0.7713673000000654,811.6725962,None,None,0,,,,,,,,,,,,,,215,20,Female,2022-05-11_16h22.19.967,Main,2022.1.1,60.0016440450686,
negative,red,2,None,None,,,,,,,,,0,194,194,194,,,,,,,,,,,,,,,,,,,,,,,,,,,,,,,,,,,,,,main,None,None,1,1.497512899999947,813.4484438000002,None,None,1,,,,,,,,,,,,,,215,20,Female,2022-05-11_16h22.19.967,Main,2022.1.1,60.0016440450686,
positive,red,1,None,None,,,,,,,,,0,195,195,195,,,,,,,,,,,,,,,,,,,,,,,,,,,,,,,,,,,,,,main,None,None,1,1.500250000000051,815.9458563999999,None,None,1,,,,,,,,,,,,,,215,20,Female,2022-05-11_16h22.19.967,Main,2022.1.1,60.0016440450686,
negative,blue,1,None,k,,,,,,,,,0,196,196,196,,,,,,,,,,,,,,,,,,,,,,,,,,,,,,,,,,,,,,main,k,k,1,0.8182465999998385,818.4485453,None,None,0,,,,,,,,,,,,,,215,20,Female,2022-05-11_16h22.19.967,Main,2022.1.1,60.0016440450686,
positive,blue,2,k,None,,,,,,,,,0,197,197,197,,,,,,,,,,,,,,,,,,,,,,,,,,,,,,,,,,,,,,main,None,None,1,1.5015979999998308,820.2673508999999,None,None,1,,,,,,,,,,,,,,215,20,Female,2022-05-11_16h22.19.967,Main,2022.1.1,60.0016440450686,
negative,blue,2,None,k,,,,,,,,,0,198,198,198,,,,,,,,,,,,,,,,,,,,,,,,,,,,,,,,,,,,,,main,k,k,1,0.8121024000001853,822.7701583,None,None,0,,,,,,,,,,,,,,215,20,Female,2022-05-11_16h22.19.967,Main,2022.1.1,60.0016440450686,
negative,blue,2,None,k,,,,,,,,,0,199,199,199,,,,,,,,,,,,,,,,,,,,,,,,,,,,,,,,,,,,,,main,k,k,1,0.6934942000002593,824.58501,None,None,0,,,,,,,,,,,,,,215,20,Female,2022-05-11_16h22.19.967,Main,2022.1.1,60.0016440450686,
positive,blue,2,k,None,,,,,,,,,0,200,200,200,,,,,,,,,,,,,,,,,,,,,,,,,,,,,,,,,,,,,,main,None,None,1,1.5121206999997412,826.2814030000002,None,None,1,,,,,,,,,,,,,,215,20,Female,2022-05-11_16h22.19.967,Main,2022.1.1,60.0016440450686,
positive,blue,2,k,None,,,,,,,,,0,201,201,201,,,,,,,,,,,,,,,,,,,,,,,,,,,,,,,,,,,,,,main,None,None,1,1.5042834000000767,828.7942393000001,None,None,1,,,,,,,,,,,,,,215,20,Female,2022-05-11_16h22.19.967,Main,2022.1.1,60.0016440450686,
negative,yellow,2,k,None,,,,,,,,,0,202,202,202,,,,,,,,,,,,,,,,,,,,,,,,,,,,,,,,,,,,,,main,None,None,1,1.4952935999999681,831.3001631,None,None,1,,,,,,,,,,,,,,215,20,Female,2022-05-11_16h22.19.967,Main,2022.1.1,60.0016440450686,
positive,red,1,None,None,,,,,,,,,0,203,203,203,,,,,,,,,,,,,,,,,,,,,,,,,,,,,,,,,,,,,,main,None,None,1,1.4957468000002336,833.797734,None,None,1,,,,,,,,,,,,,,215,20,Female,2022-05-11_16h22.19.967,Main,2022.1.1,60.0016440450686,
negative,blue,2,None,k,,,,,,,,,0,204,204,204,,,,,,,,,,,,,,,,,,,,,,,,,,,,,,,,,,,,,,main,k,k,1,0.960357799999656,836.2948967999998,None,None,0,,,,,,,,,,,,,,215,20,Female,2022-05-11_16h22.19.967,Main,2022.1.1,60.0016440450686,
negative,red,1,None,None,,,,,,,,,0,205,205,205,,,,,,,,,,,,,,,,,,,,,,,,,,,,,,,,,,,,,,main,None,None,1,1.5043040999998993,838.2546593999998,None,None,1,,,,,,,,,,,,,,215,20,Female,2022-05-11_16h22.19.967,Main,2022.1.1,60.0016440450686,
negative,blue,2,None,k,,,,,,,,,0,206,206,206,,,,,,,,,,,,,,,,,,,,,,,,,,,,,,,,,,,,,,main,k,k,1,0.8082926000001862,840.7626524,None,None,0,,,,,,,,,,,,,,215,20,Female,2022-05-11_16h22.19.967,Main,2022.1.1,60.0016440450686,
negative,yellow,2,k,None,,,,,,,,,0,207,207,207,,,,,,,,,,,,,,,,,,,,,,,,,,,,,,,,,,,,,,main,None,None,1,1.5190414999997301,842.5697705,None,None,1,,,,,,,,,,,,,,215,20,Female,2022-05-11_16h22.19.967,Main,2022.1.1,60.0016440450686,
positive,yellow,2,None,k,,,,,,,,,0,208,208,208,,,,,,,,,,,,,,,,,,,,,,,,,,,,,,,,,,,,,,main,k,k,1,0.6487778000000617,845.0919188999999,None,None,0,,,,,,,,,,,,,,215,20,Female,2022-05-11_16h22.19.967,Main,2022.1.1,60.0016440450686,
negative,yellow,1,k,None,,,,,,,,,0,209,209,209,,,,,,,,,,,,,,,,,,,,,,,,,,,,,,,,,,,,,,main,None,None,1,1.4977073000000019,846.7424466,None,None,1,,,,,,,,,,,,,,215,20,Female,2022-05-11_16h22.19.967,Main,2022.1.1,60.0016440450686,
negative,red,2,None,None,,,,,,,,,0,210,210,210,,,,,,,,,,,,,,,,,,,,,,,,,,,,,,,,,,,,,,main,None,None,1,1.51074779999999,849.2418694,None,None,1,,,,,,,,,,,,,,215,20,Female,2022-05-11_16h22.19.967,Main,2022.1.1,60.0016440450686,
negative,blue,1,None,k,,,,,,,,,0,211,211,211,,,,,,,,,,,,,,,,,,,,,,,,,,,,,,,,,,,,,,main,k,k,1,0.7853412000004028,851.7523715999998,None,None,0,,,,,,,,,,,,,,215,20,Female,2022-05-11_16h22.19.967,Main,2022.1.1,60.0016440450686,
negative,yellow,1,k,None,,,,,,,,,0,212,212,212,,,,,,,,,,,,,,,,,,,,,,,,,,,,,,,,,,,,,,main,None,None,1,1.5133657999999741,853.5406329999998,None,None,1,,,,,,,,,,,,,,215,20,Female,2022-05-11_16h22.19.967,Main,2022.1.1,60.0016440450686,
positive,blue,1,k,None,,,,,,,,,0,213,213,213,,,,,,,,,,,,,,,,,,,,,,,,,,,,,,,,,,,,,,main,None,k,0,0.7568824999998469,856.0557869000002,None,None,1,,,,,,,,,,,,,,215,20,Female,2022-05-11_16h22.19.967,Main,2022.1.1,60.0016440450686,
positive,blue,1,k,None,,,,,,,,,0,214,214,214,,,,,,,,,,,,,,,,,,,,,,,,,,,,,,,,,,,,,,main,None,None,1,1.503028600000107,858.8204400000002,None,None,1,,,,,,,,,,,,,,215,20,Female,2022-05-11_16h22.19.967,Main,2022.1.1,60.0016440450686,
positive,yellow,1,None,k,,,,,,,,,0,215,215,215,,,,,,,,,,,,,,,,,,,,,,,,,,,,,,,,,,,,,,main,k,k,1,0.7669814999999289,861.3253292000002,None,None,0,,,,,,,,,,,,,,215,20,Female,2022-05-11_16h22.19.967,Main,2022.1.1,60.0016440450686,
positive,yellow,1,None,k,,,,,,,,,0,216,216,216,,,,,,,,,,,,,,,,,,,,,,,,,,,,,,,,,,,,,,main,k,k,1,0.7452800000000934,863.095466,None,None,0,,,,,,,,,,,,,,215,20,Female,2022-05-11_16h22.19.967,Main,2022.1.1,60.0016440450686,
positive,yellow,2,None,k,,,,,,,,,0,217,217,217,,,,,,,,,,,,,,,,,,,,,,,,,,,,,,,,,,,,,,main,k,k,1,0.7442667000000256,864.8406382000001,None,None,0,,,,,,,,,,,,,,215,20,Female,2022-05-11_16h22.19.967,Main,2022.1.1,60.0016440450686,
negative,blue,1,None,k,,,,,,,,,0,218,218,218,,,,,,,,,,,,,,,,,,,,,,,,,,,,,,,,,,,,,,main,k,k,1,1.0474159000000327,866.5866963999999,None,None,0,,,,,,,,,,,,,,215,20,Female,2022-05-11_16h22.19.967,Main,2022.1.1,60.0016440450686,
positive,red,2,None,None,,,,,,,,,0,219,219,219,,,,,,,,,,,,,,,,,,,,,,,,,,,,,,,,,,,,,,main,None,None,1,1.5048068999999487,868.6335726999998,None,None,1,,,,,,,,,,,,,,215,20,Female,2022-05-11_16h22.19.967,Main,2022.1.1,60.0016440450686,
positive,yellow,1,None,k,,,,,,,,,0,220,220,220,,,,,,,,,,,,,,,,,,,,,,,,,,,,,,,,,,,,,,main,k,k,1,0.8513140000000021,871.1417199,None,None,0,,,,,,,,,,,,,,215,20,Female,2022-05-11_16h22.19.967,Main,2022.1.1,60.0016440450686,
positive,blue,1,k,None,,,,,,,,,0,221,221,221,,,,,,,,,,,,,,,,,,,,,,,,,,,,,,,,,,,,,,main,None,None,1,1.508936399999584,872.9939505999998,None,None,1,,,,,,,,,,,,,,215,20,Female,2022-05-11_16h22.19.967,Main,2022.1.1,60.0016440450686,
positive,yellow,2,None,k,,,,,,,,,0,222,222,222,,,,,,,,,,,,,,,,,,,,,,,,,,,,,,,,,,,,,,main,k,k,1,0.8332070999999814,875.5060824,None,None,0,,,,,,,,,,,,,,215,20,Female,2022-05-11_16h22.19.967,Main,2022.1.1,60.0016440450686,
negative,yellow,1,k,None,,,,,,,,,0,223,223,223,,,,,,,,,,,,,,,,,,,,,,,,,,,,,,,,,,,,,,main,None,None,1,1.5046157000001585,877.3395231000002,None,None,1,,,,,,,,,,,,,,215,20,Female,2022-05-11_16h22.19.967,Main,2022.1.1,60.0016440450686,
positive,yellow,2,None,k,,,,,,,,,0,224,224,224,,,,,,,,,,,,,,,,,,,,,,,,,,,,,,,,,,,,,,main,k,k,1,0.8031001000003926,879.8459025999998,None,None,0,,,,,,,,,,,,,,215,20,Female,2022-05-11_16h22.19.967,Main,2022.1.1,60.0016440450686,
negative,yellow,2,k,None,,,,,,,,,0,225,225,225,,,,,,,,,,,,,,,,,,,,,,,,,,,,,,,,,,,,,,main,None,None,1,1.5065311999996993,881.6489444000001,None,None,1,,,,,,,,,,,,,,215,20,Female,2022-05-11_16h22.19.967,Main,2022.1.1,60.0016440450686,
negative,blue,2,None,k,,,,,,,,,0,226,226,226,,,,,,,,,,,,,,,,,,,,,,,,,,,,,,,,,,,,,,main,k,k,1,1.060171999999966,884.1578385999999,None,None,0,,,,,,,,,,,,,,215,20,Female,2022-05-11_16h22.19.967,Main,2022.1.1,60.0016440450686,
positive,red,2,None,None,,,,,,,,,0,227,227,227,,,,,,,,,,,,,,,,,,,,,,,,,,,,,,,,,,,,,,main,None,None,1,1.5104490000003352,886.2207325000002,None,None,1,,,,,,,,,,,,,,215,20,Female,2022-05-11_16h22.19.967,Main,2022.1.1,60.0016440450686,
positive,blue,2,k,None,,,,,,,,,0,228,228,228,,,,,,,,,,,,,,,,,,,,,,,,,,,,,,,,,,,,,,main,None,None,1,1.5059995000001436,888.7309005999998,None,None,1,,,,,,,,,,,,,,215,20,Female,2022-05-11_16h22.19.967,Main,2022.1.1,60.0016440450686,
negative,blue,1,None,k,,,,,,,,,0,229,229,229,,,,,,,,,,,,,,,,,,,,,,,,,,,,,,,,,,,,,,main,k,k,1,0.9896141999997781,891.2404359,None,None,0,,,,,,,,,,,,,,215,20,Female,2022-05-11_16h22.19.967,Main,2022.1.1,60.0016440450686,
positive,yellow,1,None,k,,,,,,,,,0,230,230,230,,,,,,,,,,,,,,,,,,,,,,,,,,,,,,,,,,,,,,main,k,k,1,0.9775841000000582,893.2296398999999,None,None,0,,,,,,,,,,,,,,215,20,Female,2022-05-11_16h22.19.967,Main,2022.1.1,60.0016440450686,
negative,blue,2,None,k,,,,,,,,,0,231,231,231,,,,,,,,,,,,,,,,,,,,,,,,,,,,,,,,,,,,,,main,k,k,1,0.8332515000001877,895.2103568,None,None,0,,,,,,,,,,,,,,215,20,Female,2022-05-11_16h22.19.967,Main,2022.1.1,60.0016440450686,
negative,red,1,None,None,,,,,,,,,0,232,232,232,,,,,,,,,,,,,,,,,,,,,,,,,,,,,,,,,,,,,,main,None,None,1,1.501590600000327,897.0454827000001,None,None,1,,,,,,,,,,,,,,215,20,Female,2022-05-11_16h22.19.967,Main,2022.1.1,60.0016440450686,
positive,blue,2,k,None,,,,,,,,,0,233,233,233,,,,,,,,,,,,,,,,,,,,,,,,,,,,,,,,,,,,,,main,None,None,1,1.4999815000001036,899.5505746000001,None,None,1,,,,,,,,,,,,,,215,20,Female,2022-05-11_16h22.19.967,Main,2022.1.1,60.0016440450686,
negative,yellow,1,k,None,,,,,,,,,0,234,234,234,,,,,,,,,,,,,,,,,,,,,,,,,,,,,,,,,,,,,,main,None,None,1,1.4949078999998164,902.0516543000001,None,None,1,,,,,,,,,,,,,,215,20,Female,2022-05-11_16h22.19.967,Main,2022.1.1,60.0016440450686,
negative,yellow,2,k,None,,,,,,,,,0,235,235,235,,,,,,,,,,,,,,,,,,,,,,,,,,,,,,,,,,,,,,main,None,None,1,1.4981814000002487,904.5488607,None,None,1,,,,,,,,,,,,,,215,20,Female,2022-05-11_16h22.19.967,Main,2022.1.1,60.0016440450686,
positive,red,1,None,None,,,,,,,,,0,236,236,236,,,,,,,,,,,,,,,,,,,,,,,,,,,,,,,,,,,,,,main,None,None,1,1.5021716999999626,907.0488016000002,None,None,1,,,,,,,,,,,,,,215,20,Female,2022-05-11_16h22.19.967,Main,2022.1.1,60.0016440450686,
negative,red,2,None,None,,,,,,,,,0,237,237,237,,,,,,,,,,,,,,,,,,,,,,,,,,,,,,,,,,,,,,main,None,None,1,1.510346600000048,909.5512191,None,None,1,,,,,,,,,,,,,,215,20,Female,2022-05-11_16h22.19.967,Main,2022.1.1,60.0016440450686,
negative,blue,1,None,k,,,,,,,,,0,238,238,238,,,,,,,,,,,,,,,,,,,,,,,,,,,,,,,,,,,,,,main,k,k,1,1.0263998999998876,912.0617598000001,None,None,0,,,,,,,,,,,,,,215,20,Female,2022-05-11_16h22.19.967,Main,2022.1.1,60.0016440450686,
positive,blue,1,k,None,,,,,,,,,0,239,239,239,,,,,,,,,,,,,,,,,,,,,,,,,,,,,,,,,,,,,,main,None,None,1,1.4978406999998697,914.0915124999999,None,None,1,,,,,,,,,,,,,,215,20,Female,2022-05-11_16h22.19.967,Main,2022.1.1,60.0016440450686,
,,,,,,,,,,,,,,,,,,,,,,,,,,,,,,,,,,,,,,,,,,,,,,,,,,,,,,,,,,,,,,,,,,,,,,,,,,916.5797614,None,,,,,,,,
