distractor,target,set,ans1,ans2,rep_loop4.thisRepN,rep_loop4.thisTrialN,rep_loop4.thisN,rep_loop4.thisIndex,st2_prac_loop.thisRepN,st2_prac_loop.thisTrialN,st2_prac_loop.thisN,st2_prac_loop.thisIndex,st2_main_loop.thisRepN,st2_main_loop.thisTrialN,st2_main_loop.thisN,st2_main_loop.thisIndex,image_4.started,image_4.stopped,mouse_7.x,mouse_7.y,mouse_7.leftButton,mouse_7.midButton,mouse_7.rightButton,sound_2.started,sound_2.stopped,key_resp_3.keys,mouse_5.x,mouse_5.y,mouse_5.leftButton,mouse_5.midButton,mouse_5.rightButton,mouse_5.started,mouse_5.stopped,yes_text2.started,yes_text2.stopped,no_text2.started,no_text2.stopped,mouse_3.x,mouse_3.y,mouse_3.leftButton,mouse_3.midButton,mouse_3.rightButton,mouse_3.started,mouse_3.stopped,st_prac_back.started,st_prac_back.stopped,st_prac_text.started,st_prac_text.stopped,st_fix_back.started,st_fix_back.stopped,st_fix_2.started,st_fix_2.stopped,main_prac,st_ans,st_res,st_corr,st_rt,st_back.started,st_back.stopped,st2_resp.keys,st2_resp.corr,st_main_back.started,st_main_back.stopped,st_main_text.started,st_main_text.stopped,mouse_4.x,mouse_4.y,mouse_4.leftButton,mouse_4.midButton,mouse_4.rightButton,mouse_4.started,mouse_4.stopped,text_2.started,text_2.stopped,id*,age*,gender*,date,expName,psychopyVersion,frameRate,
,,,,,,,,,,,,,,,,,34.805695199999946,None,-0.36851853,-0.18703704,0,0,0,,,,,,,,,,,,,,,,,,,,,,,,,,,,,,,,,,,,,,,,,,,,,,,,,,,,216,25,Female,2022-05-13_13h44.44.912,Main,2022.1.1,60.025270638868335,
negative,yellow,1,k,None,,,,,0,0,0,0,,,,,,,,,,,,41.32527711000002,None,None,-0.022222223,-0.41574073,0,0,0,1.0148246999999628,None,96.28501470000015,None,96.28501470000015,None,-0.09351852,-0.08611111,0,0,0,0.012991110000029948,None,98.83982140000012,None,98.83982140000012,None,100.85012430000006,None,100.85012430000006,None,prac,k,k,1,1.6366674999999304,102.89344950000009,None,None,0,,,,,,,,,,,,,,216,25,Female,2022-05-13_13h44.44.912,Main,2022.1.1,60.025270638868335,
positive,red,2,None,None,,,,,0,1,1,1,,,,,,,,,,,,,,,,,,,,,,,,,,,,,,,,,,,,,,,,,prac,None,None,1,1.4993138999998337,106.55078159999994,None,None,1,,,,,,,,,,,,,,216,25,Female,2022-05-13_13h44.44.912,Main,2022.1.1,60.025270638868335,
negative,blue,2,None,k,,,,,0,2,2,2,,,,,,,,,,,,,,,,,,,,,,,,,,,,,,,,,,,,,,,,,prac,None,None,1,1.5130395999999564,109.05078500000013,None,None,1,,,,,,,,,,,,,,216,25,Female,2022-05-13_13h44.44.912,Main,2022.1.1,60.025270638868335,
positive,yellow,1,None,k,,,,,0,3,3,3,,,,,,,,,,,,,,,,,,,,,,,,,,,,,,,,,,,,,,,,,prac,None,None,1,1.499873799999932,111.56098450000013,None,None,1,,,,,,,,,,,,,,216,25,Female,2022-05-13_13h44.44.912,Main,2022.1.1,60.025270638868335,
negative,blue,2,None,k,,,,,0,4,4,4,,,,,,,,,,,,,,,,,,,,,,,,,,,,,,,,,,,,,,,,,prac,None,None,1,1.5062925000001997,114.05307330000005,None,None,1,,,,,,,,,,,,,,216,25,Female,2022-05-13_13h44.44.912,Main,2022.1.1,60.025270638868335,
negative,blue,1,None,k,,,,,0,5,5,5,,,,,,,,,,,,,,,,,,,,,,,,,,,,,,,,,,,,,,,,,prac,None,None,1,1.5005023999999594,116.56917300000009,None,None,1,,,,,,,,,,,,,,216,25,Female,2022-05-13_13h44.44.912,Main,2022.1.1,60.025270638868335,
negative,yellow,2,k,None,,,,,0,6,6,6,,,,,,,,,,,,,,,,,,,,,,,,,,,,,,,,,,,,,,,,,prac,k,k,1,1.1940650999999889,119.07273869999995,None,None,0,,,,,,,,,,,,,,216,25,Female,2022-05-13_13h44.44.912,Main,2022.1.1,60.025270638868335,
negative,red,1,None,None,,,,,0,7,7,7,,,,,,,,,,,,,,,,,,,,,,,,,,,,,,,,,,,,,,,,,prac,None,None,1,1.5024998999999752,121.25914510000007,None,None,1,,,,,,,,,,,,,,216,25,Female,2022-05-13_13h44.44.912,Main,2022.1.1,60.025270638868335,
positive,yellow,2,None,k,,,,,0,8,8,8,,,,,,,,,,,,,,,,,,,,,,,,,,,,,,,,,,,,,,,,,prac,None,None,1,1.5107433000000583,123.76339830000006,None,None,1,,,,,,,,,,,,,,216,25,Female,2022-05-13_13h44.44.912,Main,2022.1.1,60.025270638868335,
negative,yellow,1,k,None,,,,,0,9,9,9,,,,,,,,,,,,,,,,,,,,,,,,,,,,,,,,,,,,,,,,,prac,k,k,1,1.511775200000102,126.27677459999995,None,None,0,,,,,,,,,,,,,,216,25,Female,2022-05-13_13h44.44.912,Main,2022.1.1,60.025270638868335,
positive,yellow,2,None,k,,,,,0,10,10,10,,,,,,,,,,,,,,,,,,,,,,,,,,,,,,,,,,,,,,,,,prac,None,None,1,1.4899184000000787,129.7987376000001,None,None,1,,,,,,,,,,,,,,216,25,Female,2022-05-13_13h44.44.912,Main,2022.1.1,60.025270638868335,
negative,yellow,2,k,None,,,,,0,11,11,11,,,,,,,,,,,,,,,,,,,,,,,,,,,,,,,,,,,,,,,,,prac,k,k,1,0.8786991999998008,132.29038930000002,None,None,0,,,,,,,,,,,,,,216,25,Female,2022-05-13_13h44.44.912,Main,2022.1.1,60.025270638868335,
negative,red,2,None,None,,,,,0,12,12,12,,,,,,,,,,,,,,,,,,,,,,,,,,,,,,,,,,,,,,,,,prac,None,None,1,1.5024569000001975,134.17151850000005,None,None,1,,,,,,,,,,,,,,216,25,Female,2022-05-13_13h44.44.912,Main,2022.1.1,60.025270638868335,
positive,red,1,None,None,,,,,0,13,13,13,,,,,,,,,,,,,,,,,,,,,,,,,,,,,,,,,,,,,,,,,prac,None,None,1,1.5048707999999351,136.6839222000001,None,None,1,,,,,,,,,,,,,,216,25,Female,2022-05-13_13h44.44.912,Main,2022.1.1,60.025270638868335,
positive,blue,2,k,None,,,,,0,14,14,14,,,,,,,,,,,,,,,,,,,,,,,,,,,,,,,,,,,,,,,,,prac,k,k,1,0.8031942999998591,139.17931090000002,None,None,0,,,,,,,,,,,,,,216,25,Female,2022-05-13_13h44.44.912,Main,2022.1.1,60.025270638868335,
positive,blue,1,k,None,,,,,0,15,15,15,,,,,,,,,,,,,,,,,,,,,,,,,,,,,,,,,,,,,,,,,prac,k,k,1,0.8899695000000065,140.98684580000008,None,None,0,,,,,,,,,,,,,,216,25,Female,2022-05-13_13h44.44.912,Main,2022.1.1,60.025270638868335,
negative,blue,1,None,k,,,,,0,16,16,16,,,,,,,,,,,,,,,,,,,,,,,,,,,,,,,,,,,,,,,,,prac,None,None,1,1.5008731999998872,142.87716090000004,None,None,1,,,,,,,,,,,,,,216,25,Female,2022-05-13_13h44.44.912,Main,2022.1.1,60.025270638868335,
positive,blue,2,k,None,,,,,0,17,17,17,,,,,,,,,,,,,,,,,,,,,,,,,,,,,,,,,,,,,,,,,prac,k,k,1,0.8180446999999731,145.38043190000008,None,None,0,,,,,,,,,,,,,,216,25,Female,2022-05-13_13h44.44.912,Main,2022.1.1,60.025270638868335,
positive,blue,1,k,None,,,,,0,18,18,18,,,,,,,,,,,,,,,,,,,,,,,,,,,,,,,,,,,,,,,,,prac,k,k,1,1.2062693000000309,147.20200509999995,None,None,0,,,,,,,,,,,,,,216,25,Female,2022-05-13_13h44.44.912,Main,2022.1.1,60.025270638868335,
positive,yellow,1,None,k,,,,,0,19,19,19,,,,,,,,,,,,,,,,,,,,,,,,,,,,,,,,,,,,,,,,,prac,None,None,1,1.5115441999998893,149.40878369999996,None,None,1,,,,,,,,,,,,,,216,25,Female,2022-05-13_13h44.44.912,Main,2022.1.1,60.025270638868335,
negative,yellow,1,k,None,,,,,1,0,20,0,,,,,,,,,,,,,,,,,,,,,,,,,,,,,,,,,,,,,,,,,prac,k,k,1,0.9608296999999766,151.92320010000003,None,None,0,,,,,,,,,,,,,,216,25,Female,2022-05-13_13h44.44.912,Main,2022.1.1,60.025270638868335,
positive,red,2,None,None,,,,,1,1,21,1,,,,,,,,,,,,,,,,,,,,,,,,,,,,,,,,,,,,,,,,,prac,None,None,1,1.5092454000000544,153.89515430000006,None,None,1,,,,,,,,,,,,,,216,25,Female,2022-05-13_13h44.44.912,Main,2022.1.1,60.025270638868335,
negative,blue,2,None,k,,,,,1,2,22,2,,,,,,,,,,,,,,,,,,,,,,,,,,,,,,,,,,,,,,,,,prac,None,None,1,1.5096894999999222,156.39458119999995,None,None,1,,,,,,,,,,,,,,216,25,Female,2022-05-13_13h44.44.912,Main,2022.1.1,60.025270638868335,
positive,yellow,1,None,k,,,,,1,3,23,3,,,,,,,,,,,,,,,,,,,,,,,,,,,,,,,,,,,,,,,,,prac,None,None,1,1.5048424999999952,158.9077135,None,None,1,,,,,,,,,,,,,,216,25,Female,2022-05-13_13h44.44.912,Main,2022.1.1,60.025270638868335,
negative,blue,2,None,k,,,,,1,4,24,4,,,,,,,,,,,,,,,,,,,,,,,,,,,,,,,,,,,,,,,,,prac,None,None,1,1.494216300000062,161.41631940000002,None,None,1,,,,,,,,,,,,,,216,25,Female,2022-05-13_13h44.44.912,Main,2022.1.1,60.025270638868335,
negative,blue,1,None,k,,,,,1,5,25,5,,,,,,,,,,,,,,,,,,,,,,,,,,,,,,,,,,,,,,,,,prac,None,None,1,1.5105765000000702,163.91288200000008,None,None,1,,,,,,,,,,,,,,216,25,Female,2022-05-13_13h44.44.912,Main,2022.1.1,60.025270638868335,
negative,yellow,2,k,None,,,,,1,6,26,6,,,,,,,,,,,,,,,,,,,,,,,,,,,,,,,,,,,,,,,,,prac,k,k,1,2.219284000000016,166.42413370000008,None,None,0,,,,,,,,,,,,,,216,25,Female,2022-05-13_13h44.44.912,Main,2022.1.1,60.025270638868335,
negative,red,1,None,None,,,,,1,7,27,7,,,,,,,,,,,,,,,,,,,,,,,,,,,,,,,,,,,,,,,,,prac,None,None,1,1.502908400000024,170.6604030000001,None,None,1,,,,,,,,,,,,,,216,25,Female,2022-05-13_13h44.44.912,Main,2022.1.1,60.025270638868335,
positive,yellow,2,None,k,,,,,1,8,28,8,,,,,,,,,,,,,,,,,,,,,,,,,,,,,,,,,,,,,,,,,prac,None,None,1,1.4963654999999108,173.16619519999995,None,None,1,,,,,,,,,,,,,,216,25,Female,2022-05-13_13h44.44.912,Main,2022.1.1,60.025270638868335,
negative,yellow,1,k,None,,,,,1,9,29,9,,,,,,,,,,,,,,,,,,,,,,,,,,,,,,,,,,,,,,,,,prac,k,k,1,0.8114499000000706,175.66321620000008,None,None,0,,,,,,,,,,,,,,216,25,Female,2022-05-13_13h44.44.912,Main,2022.1.1,60.025270638868335,
positive,yellow,2,None,k,,,,,1,10,30,10,,,,,,,,,,,,,,,,,,,,,,,,,,,,,,,,,,,,,,,,,prac,None,None,1,1.5046328999999332,177.47480330000008,None,None,1,,,,,,,,,,,,,,216,25,Female,2022-05-13_13h44.44.912,Main,2022.1.1,60.025270638868335,
negative,yellow,2,k,None,,,,,1,11,31,11,,,,,,,,,,,,,,,,,,,,,,,,,,,,,,,,,,,,,,,,,prac,k,k,1,0.9509325000001354,179.98289290000002,None,None,0,,,,,,,,,,,,,,216,25,Female,2022-05-13_13h44.44.912,Main,2022.1.1,60.025270638868335,
negative,red,2,None,None,,,,,1,12,32,12,,,,,,,,,,,,,,,,,,,,,,,,,,,,,,,,,,,,,,,,,prac,None,None,1,1.504546399999981,181.93443300000013,None,None,1,,,,,,,,,,,,,,216,25,Female,2022-05-13_13h44.44.912,Main,2022.1.1,60.025270638868335,
positive,red,1,None,None,,,,,1,13,33,13,,,,,,,,,,,,,,,,,,,,,,,,,,,,,,,,,,,,,,,,,prac,None,None,1,1.5075460000000476,184.43979839999997,None,None,1,,,,,,,,,,,,,,216,25,Female,2022-05-13_13h44.44.912,Main,2022.1.1,60.025270638868335,
positive,blue,2,k,None,,,,,1,14,34,14,,,,,,,,,,,,,,,,,,,,,,,,,,,,,,,,,,,,,,,,,prac,k,k,1,0.8239313999999922,186.9501553,None,None,0,,,,,,,,,,,,,,216,25,Female,2022-05-13_13h44.44.912,Main,2022.1.1,60.025270638868335,
positive,blue,1,k,None,,,,,1,15,35,15,,,,,,,,,,,,,,,,,,,,,,,,,,,,,,,,,,,,,,,,,prac,k,k,1,0.8233002999998007,188.77426570000011,None,None,0,,,,,,,,,,,,,,216,25,Female,2022-05-13_13h44.44.912,Main,2022.1.1,60.025270638868335,
negative,blue,1,None,k,,,,,1,16,36,16,,,,,,,,,,,,,,,,,,,,,,,,,,,,,,,,,,,,,,,,,prac,None,None,1,1.5105521999998928,190.60055499999999,None,None,1,,,,,,,,,,,,,,216,25,Female,2022-05-13_13h44.44.912,Main,2022.1.1,60.025270638868335,
positive,blue,2,k,None,,,,,1,17,37,17,,,,,,,,,,,,,,,,,,,,,,,,,,,,,,,,,,,,,,,,,prac,k,k,1,0.9279337000000396,193.11397910000005,None,None,0,,,,,,,,,,,,,,216,25,Female,2022-05-13_13h44.44.912,Main,2022.1.1,60.025270638868335,
positive,blue,1,k,None,,,,,1,18,38,18,,,,,,,,,,,,,,,,,,,,,,,,,,,,,,,,,,,,,,,,,prac,k,k,1,0.8807112999998026,195.0425206,None,None,0,,,,,,,,,,,,,,216,25,Female,2022-05-13_13h44.44.912,Main,2022.1.1,60.025270638868335,
positive,yellow,1,None,k,,,,,1,19,39,19,,,,,,,,,,,,,,,,,,,,,,,,,,,,,,,,,,,,,,,,,prac,None,None,1,1.502920099999983,196.92353509999998,None,None,1,,,,,,,,,,,,,,216,25,Female,2022-05-13_13h44.44.912,Main,2022.1.1,60.025270638868335,
,,,,,,,,,,,,,,,,,,,,,,,,,,,,,,,,,,,,,,,,,,,,,,,,,,,,,,,,,,,,,,199.4428441,None,199.4428441,None,0.097222224,-0.09259259,0,0,0,0.011606210000081774,None,,,216,25,Female,2022-05-13_13h44.44.912,Main,2022.1.1,60.025270638868335,
negative,yellow,2,k,None,,,,,,,,,0,0,0,0,,,,,,,,,,,,,,,,,,,,,,,,,,,,,,,,,202.00571060000016,None,202.00571060000016,None,main,k,k,1,0.9578079000000344,204.07339660000002,None,None,0,,,,,,,,,,,,,,216,25,Female,2022-05-13_13h44.44.912,Main,2022.1.1,60.025270638868335,
positive,red,1,None,None,,,,,,,,,0,1,1,1,,,,,,,,,,,,,,,,,,,,,,,,,,,,,,,,,,,,,main,None,None,1,1.496810699999969,206.0361104000001,None,None,1,,,,,,,,,,,,,,216,25,Female,2022-05-13_13h44.44.912,Main,2022.1.1,60.025270638868335,
positive,blue,2,k,None,,,,,,,,,0,2,2,2,,,,,,,,,,,,,,,,,,,,,,,,,,,,,,,,,,,,,main,k,k,1,0.6824432999999317,208.53588379999997,None,None,0,,,,,,,,,,,,,,216,25,Female,2022-05-13_13h44.44.912,Main,2022.1.1,60.025270638868335,
positive,blue,1,k,None,,,,,,,,,0,3,3,3,,,,,,,,,,,,,,,,,,,,,,,,,,,,,,,,,,,,,main,k,k,1,0.865914900000007,210.21986579999998,None,None,0,,,,,,,,,,,,,,216,25,Female,2022-05-13_13h44.44.912,Main,2022.1.1,60.025270638868335,
negative,yellow,2,k,None,,,,,,,,,0,4,4,4,,,,,,,,,,,,,,,,,,,,,,,,,,,,,,,,,,,,,main,k,k,1,0.8827369000000544,212.08706499999994,None,None,0,,,,,,,,,,,,,,216,25,Female,2022-05-13_13h44.44.912,Main,2022.1.1,60.025270638868335,
positive,yellow,2,None,k,,,,,,,,,0,5,5,5,,,,,,,,,,,,,,,,,,,,,,,,,,,,,,,,,,,,,main,None,None,1,1.5117870999999923,213.97180679999997,None,None,1,,,,,,,,,,,,,,216,25,Female,2022-05-13_13h44.44.912,Main,2022.1.1,60.025270638868335,
negative,blue,2,None,k,,,,,,,,,0,6,6,6,,,,,,,,,,,,,,,,,,,,,,,,,,,,,,,,,,,,,main,None,k,0,0.952709700000014,216.48541509999995,None,None,1,,,,,,,,,,,,,,216,25,Female,2022-05-13_13h44.44.912,Main,2022.1.1,60.025270638868335,
positive,red,2,None,None,,,,,,,,,0,7,7,7,,,,,,,,,,,,,,,,,,,,,,,,,,,,,,,,,,,,,main,None,None,1,1.5060823999999684,219.45421379999993,None,None,1,,,,,,,,,,,,,,216,25,Female,2022-05-13_13h44.44.912,Main,2022.1.1,60.025270638868335,
positive,yellow,1,None,k,,,,,,,,,0,8,8,8,,,,,,,,,,,,,,,,,,,,,,,,,,,,,,,,,,,,,main,None,None,1,1.5100804000001062,221.9622488,None,None,1,,,,,,,,,,,,,,216,25,Female,2022-05-13_13h44.44.912,Main,2022.1.1,60.025270638868335,
negative,red,1,None,None,,,,,,,,,0,9,9,9,,,,,,,,,,,,,,,,,,,,,,,,,,,,,,,,,,,,,main,None,None,1,1.4978415999999015,224.47373779999998,None,None,1,,,,,,,,,,,,,,216,25,Female,2022-05-13_13h44.44.912,Main,2022.1.1,60.025270638868335,
positive,yellow,1,None,k,,,,,,,,,0,10,10,10,,,,,,,,,,,,,,,,,,,,,,,,,,,,,,,,,,,,,main,None,None,1,1.5029139000000669,226.97412320000012,None,None,1,,,,,,,,,,,,,,216,25,Female,2022-05-13_13h44.44.912,Main,2022.1.1,60.025270638868335,
negative,yellow,1,k,None,,,,,,,,,0,11,11,11,,,,,,,,,,,,,,,,,,,,,,,,,,,,,,,,,,,,,main,k,k,1,0.9777447999999822,229.47709039999995,None,None,0,,,,,,,,,,,,,,216,25,Female,2022-05-13_13h44.44.912,Main,2022.1.1,60.025270638868335,
negative,yellow,1,k,None,,,,,,,,,0,12,12,12,,,,,,,,,,,,,,,,,,,,,,,,,,,,,,,,,,,,,main,k,k,1,1.011235200000101,231.4570182,None,None,0,,,,,,,,,,,,,,216,25,Female,2022-05-13_13h44.44.912,Main,2022.1.1,60.025270638868335,
negative,red,2,None,None,,,,,,,,,0,13,13,13,,,,,,,,,,,,,,,,,,,,,,,,,,,,,,,,,,,,,main,None,None,1,1.5073337000001175,233.46748320000006,None,None,1,,,,,,,,,,,,,,216,25,Female,2022-05-13_13h44.44.912,Main,2022.1.1,60.025270638868335,
positive,yellow,2,None,k,,,,,,,,,0,14,14,14,,,,,,,,,,,,,,,,,,,,,,,,,,,,,,,,,,,,,main,None,None,1,1.4999976000001425,235.97792830000003,None,None,1,,,,,,,,,,,,,,216,25,Female,2022-05-13_13h44.44.912,Main,2022.1.1,60.025270638868335,
positive,blue,1,k,None,,,,,,,,,0,15,15,15,,,,,,,,,,,,,,,,,,,,,,,,,,,,,,,,,,,,,main,k,k,1,0.8189511000000493,238.48230560000002,None,None,0,,,,,,,,,,,,,,216,25,Female,2022-05-13_13h44.44.912,Main,2022.1.1,60.025270638868335,
negative,blue,1,None,k,,,,,,,,,0,16,16,16,,,,,,,,,,,,,,,,,,,,,,,,,,,,,,,,,,,,,main,None,None,1,1.5022116000000096,240.3038864,None,None,1,,,,,,,,,,,,,,216,25,Female,2022-05-13_13h44.44.912,Main,2022.1.1,60.025270638868335,
positive,blue,2,k,None,,,,,,,,,0,17,17,17,,,,,,,,,,,,,,,,,,,,,,,,,,,,,,,,,,,,,main,k,k,1,0.9622609000000466,242.80851600000005,None,None,0,,,,,,,,,,,,,,216,25,Female,2022-05-13_13h44.44.912,Main,2022.1.1,60.025270638868335,
negative,blue,2,None,k,,,,,,,,,0,18,18,18,,,,,,,,,,,,,,,,,,,,,,,,,,,,,,,,,,,,,main,None,None,1,1.5044158000000607,244.7727136000001,None,None,1,,,,,,,,,,,,,,216,25,Female,2022-05-13_13h44.44.912,Main,2022.1.1,60.025270638868335,
negative,blue,1,None,k,,,,,,,,,0,19,19,19,,,,,,,,,,,,,,,,,,,,,,,,,,,,,,,,,,,,,main,None,None,1,1.5038306999999804,247.27804170000013,None,None,1,,,,,,,,,,,,,,216,25,Female,2022-05-13_13h44.44.912,Main,2022.1.1,60.025270638868335,
negative,blue,1,None,k,,,,,,,,,0,20,20,20,,,,,,,,,,,,,,,,,,,,,,,,,,,,,,,,,,,,,main,None,None,1,1.511509599999954,249.7819697,None,None,1,,,,,,,,,,,,,,216,25,Female,2022-05-13_13h44.44.912,Main,2022.1.1,60.025270638868335,
negative,blue,2,None,k,,,,,,,,,0,21,21,21,,,,,,,,,,,,,,,,,,,,,,,,,,,,,,,,,,,,,main,None,None,1,1.4983627000001434,252.29772270000012,None,None,1,,,,,,,,,,,,,,216,25,Female,2022-05-13_13h44.44.912,Main,2022.1.1,60.025270638868335,
negative,red,1,None,None,,,,,,,,,0,22,22,22,,,,,,,,,,,,,,,,,,,,,,,,,,,,,,,,,,,,,main,None,None,1,1.5089359999999488,254.7973816000001,None,None,1,,,,,,,,,,,,,,216,25,Female,2022-05-13_13h44.44.912,Main,2022.1.1,60.025270638868335,
positive,red,2,None,None,,,,,,,,,0,23,23,23,,,,,,,,,,,,,,,,,,,,,,,,,,,,,,,,,,,,,main,None,None,1,1.4942915999999968,257.30913120000014,None,None,1,,,,,,,,,,,,,,216,25,Female,2022-05-13_13h44.44.912,Main,2022.1.1,60.025270638868335,
negative,red,2,None,None,,,,,,,,,0,24,24,24,,,,,,,,,,,,,,,,,,,,,,,,,,,,,,,,,,,,,main,None,None,1,1.5089285999999902,259.8055571,None,None,1,,,,,,,,,,,,,,216,25,Female,2022-05-13_13h44.44.912,Main,2022.1.1,60.025270638868335,
positive,blue,2,k,None,,,,,,,,,0,25,25,25,,,,,,,,,,,,,,,,,,,,,,,,,,,,,,,,,,,,,main,k,k,1,0.9320608000000448,262.3144221,None,None,0,,,,,,,,,,,,,,216,25,Female,2022-05-13_13h44.44.912,Main,2022.1.1,60.025270638868335,
negative,yellow,1,k,None,,,,,,,,,0,26,26,26,,,,,,,,,,,,,,,,,,,,,,,,,,,,,,,,,,,,,main,k,k,1,1.0321427999999742,264.24778790000005,None,None,0,,,,,,,,,,,,,,216,25,Female,2022-05-13_13h44.44.912,Main,2022.1.1,60.025270638868335,
positive,blue,2,k,None,,,,,,,,,0,27,27,27,,,,,,,,,,,,,,,,,,,,,,,,,,,,,,,,,,,,,main,k,k,1,0.8994246000002022,266.28337379999994,None,None,0,,,,,,,,,,,,,,216,25,Female,2022-05-13_13h44.44.912,Main,2022.1.1,60.025270638868335,
negative,blue,2,None,k,,,,,,,,,0,28,28,28,,,,,,,,,,,,,,,,,,,,,,,,,,,,,,,,,,,,,main,None,None,1,1.4951015000001462,268.18483960000003,None,None,1,,,,,,,,,,,,,,216,25,Female,2022-05-13_13h44.44.912,Main,2022.1.1,60.025270638868335,
positive,red,1,None,None,,,,,,,,,0,29,29,29,,,,,,,,,,,,,,,,,,,,,,,,,,,,,,,,,,,,,main,None,None,1,1.5053246999998464,270.6805211000001,None,None,1,,,,,,,,,,,,,,216,25,Female,2022-05-13_13h44.44.912,Main,2022.1.1,60.025270638868335,
positive,blue,1,k,None,,,,,,,,,0,30,30,30,,,,,,,,,,,,,,,,,,,,,,,,,,,,,,,,,,,,,main,k,k,1,0.9413689000000431,273.18746439999995,None,None,0,,,,,,,,,,,,,,216,25,Female,2022-05-13_13h44.44.912,Main,2022.1.1,60.025270638868335,
positive,yellow,1,None,k,,,,,,,,,0,31,31,31,,,,,,,,,,,,,,,,,,,,,,,,,,,,,,,,,,,,,main,None,None,1,1.498935099999926,275.1289922000001,None,None,1,,,,,,,,,,,,,,216,25,Female,2022-05-13_13h44.44.912,Main,2022.1.1,60.025270638868335,
negative,yellow,2,k,None,,,,,,,,,0,32,32,32,,,,,,,,,,,,,,,,,,,,,,,,,,,,,,,,,,,,,main,k,k,1,0.7634266000000025,277.62913320000007,None,None,0,,,,,,,,,,,,,,216,25,Female,2022-05-13_13h44.44.912,Main,2022.1.1,60.025270638868335,
negative,blue,1,None,k,,,,,,,,,0,33,33,33,,,,,,,,,,,,,,,,,,,,,,,,,,,,,,,,,,,,,main,None,None,1,1.501142899999877,279.39424380000014,None,None,1,,,,,,,,,,,,,,216,25,Female,2022-05-13_13h44.44.912,Main,2022.1.1,60.025270638868335,
positive,blue,1,k,None,,,,,,,,,0,34,34,34,,,,,,,,,,,,,,,,,,,,,,,,,,,,,,,,,,,,,main,k,k,1,1.1664184999999634,281.8972923000001,None,None,0,,,,,,,,,,,,,,216,25,Female,2022-05-13_13h44.44.912,Main,2022.1.1,60.025270638868335,
negative,yellow,1,k,None,,,,,,,,,0,35,35,35,,,,,,,,,,,,,,,,,,,,,,,,,,,,,,,,,,,,,main,k,k,1,0.978346700000202,284.06750940000006,None,None,0,,,,,,,,,,,,,,216,25,Female,2022-05-13_13h44.44.912,Main,2022.1.1,60.025270638868335,
positive,yellow,2,None,k,,,,,,,,,0,36,36,36,,,,,,,,,,,,,,,,,,,,,,,,,,,,,,,,,,,,,main,None,None,1,1.4985819999999421,286.04761540000004,None,None,1,,,,,,,,,,,,,,216,25,Female,2022-05-13_13h44.44.912,Main,2022.1.1,60.025270638868335,
positive,yellow,2,None,k,,,,,,,,,0,37,37,37,,,,,,,,,,,,,,,,,,,,,,,,,,,,,,,,,,,,,main,None,None,1,1.5127350000000206,288.54413279999994,None,None,1,,,,,,,,,,,,,,216,25,Female,2022-05-13_13h44.44.912,Main,2022.1.1,60.025270638868335,
negative,yellow,2,k,None,,,,,,,,,0,38,38,38,,,,,,,,,,,,,,,,,,,,,,,,,,,,,,,,,,,,,main,k,k,1,0.8336993000000348,291.05895180000016,None,None,0,,,,,,,,,,,,,,216,25,Female,2022-05-13_13h44.44.912,Main,2022.1.1,60.025270638868335,
positive,yellow,1,None,k,,,,,,,,,0,39,39,39,,,,,,,,,,,,,,,,,,,,,,,,,,,,,,,,,,,,,main,None,None,1,1.4979808000000503,292.89435360000016,None,None,1,,,,,,,,,,,,,,216,25,Female,2022-05-13_13h44.44.912,Main,2022.1.1,60.025270638868335,
negative,yellow,2,k,None,,,,,,,,,0,40,40,40,,,,,,,,,,,,,,,,,,,,,,,,,,,,,,,,,,,,,main,k,k,1,1.131584999999859,295.3936391,None,None,0,,,,,,,,,,,,,,216,25,Female,2022-05-13_13h44.44.912,Main,2022.1.1,60.025270638868335,
positive,blue,2,k,None,,,,,,,,,0,41,41,41,,,,,,,,,,,,,,,,,,,,,,,,,,,,,,,,,,,,,main,k,k,1,0.8595114999998259,297.5275237000001,None,None,0,,,,,,,,,,,,,,216,25,Female,2022-05-13_13h44.44.912,Main,2022.1.1,60.025270638868335,
positive,blue,2,k,None,,,,,,,,,0,42,42,42,,,,,,,,,,,,,,,,,,,,,,,,,,,,,,,,,,,,,main,k,k,1,0.8051127000001088,299.3908782000001,None,None,0,,,,,,,,,,,,,,216,25,Female,2022-05-13_13h44.44.912,Main,2022.1.1,60.025270638868335,
negative,blue,2,None,k,,,,,,,,,0,43,43,43,,,,,,,,,,,,,,,,,,,,,,,,,,,,,,,,,,,,,main,None,None,1,1.5035490999998729,301.19900610000013,None,None,1,,,,,,,,,,,,,,216,25,Female,2022-05-13_13h44.44.912,Main,2022.1.1,60.025270638868335,
negative,red,1,None,None,,,,,,,,,0,44,44,44,,,,,,,,,,,,,,,,,,,,,,,,,,,,,,,,,,,,,main,None,None,1,1.5082723999998962,303.703299,None,None,1,,,,,,,,,,,,,,216,25,Female,2022-05-13_13h44.44.912,Main,2022.1.1,60.025270638868335,
negative,yellow,1,k,None,,,,,,,,,0,45,45,45,,,,,,,,,,,,,,,,,,,,,,,,,,,,,,,,,,,,,main,k,k,1,1.0236007999999401,306.2176449000001,None,None,0,,,,,,,,,,,,,,216,25,Female,2022-05-13_13h44.44.912,Main,2022.1.1,60.025270638868335,
negative,yellow,1,k,None,,,,,,,,,0,46,46,46,,,,,,,,,,,,,,,,,,,,,,,,,,,,,,,,,,,,,main,k,k,1,0.945913100000098,308.2398330000001,None,None,0,,,,,,,,,,,,,,216,25,Female,2022-05-13_13h44.44.912,Main,2022.1.1,60.025270638868335,
positive,red,1,None,None,,,,,,,,,0,47,47,47,,,,,,,,,,,,,,,,,,,,,,,,,,,,,,,,,,,,,main,None,None,1,1.4957389000001058,310.18951459999994,None,None,1,,,,,,,,,,,,,,216,25,Female,2022-05-13_13h44.44.912,Main,2022.1.1,60.025270638868335,
positive,yellow,1,None,k,,,,,,,,,0,48,48,48,,,,,,,,,,,,,,,,,,,,,,,,,,,,,,,,,,,,,main,None,None,1,1.5066986000001634,312.6877108000001,None,None,1,,,,,,,,,,,,,,216,25,Female,2022-05-13_13h44.44.912,Main,2022.1.1,60.025270638868335,
negative,blue,1,None,k,,,,,,,,,0,49,49,49,,,,,,,,,,,,,,,,,,,,,,,,,,,,,,,,,,,,,main,None,None,1,1.5026838999999654,315.19862850000004,None,None,1,,,,,,,,,,,,,,216,25,Female,2022-05-13_13h44.44.912,Main,2022.1.1,60.025270638868335,
positive,yellow,2,None,k,,,,,,,,,0,50,50,50,,,,,,,,,,,,,,,,,,,,,,,,,,,,,,,,,,,,,main,None,None,1,1.4984041000000161,317.70210880000013,None,None,1,,,,,,,,,,,,,,216,25,Female,2022-05-13_13h44.44.912,Main,2022.1.1,60.025270638868335,
negative,blue,1,None,k,,,,,,,,,0,51,51,51,,,,,,,,,,,,,,,,,,,,,,,,,,,,,,,,,,,,,main,None,None,1,1.511579299999994,320.2017094,None,None,1,,,,,,,,,,,,,,216,25,Female,2022-05-13_13h44.44.912,Main,2022.1.1,60.025270638868335,
positive,red,2,None,None,,,,,,,,,0,52,52,52,,,,,,,,,,,,,,,,,,,,,,,,,,,,,,,,,,,,,main,None,None,1,1.5106650999998692,322.7147391000001,None,None,1,,,,,,,,,,,,,,216,25,Female,2022-05-13_13h44.44.912,Main,2022.1.1,60.025270638868335,
positive,yellow,2,None,k,,,,,,,,,0,53,53,53,,,,,,,,,,,,,,,,,,,,,,,,,,,,,,,,,,,,,main,None,None,1,1.5099092000000383,325.2274047000001,None,None,1,,,,,,,,,,,,,,216,25,Female,2022-05-13_13h44.44.912,Main,2022.1.1,60.025270638868335,
negative,red,2,None,None,,,,,,,,,0,54,54,54,,,,,,,,,,,,,,,,,,,,,,,,,,,,,,,,,,,,,main,None,None,1,1.5073531999998977,327.73738790000016,None,None,1,,,,,,,,,,,,,,216,25,Female,2022-05-13_13h44.44.912,Main,2022.1.1,60.025270638868335,
positive,yellow,1,None,k,,,,,,,,,0,55,55,55,,,,,,,,,,,,,,,,,,,,,,,,,,,,,,,,,,,,,main,None,None,1,1.505791199999976,330.24772699999994,None,None,1,,,,,,,,,,,,,,216,25,Female,2022-05-13_13h44.44.912,Main,2022.1.1,60.025270638868335,
negative,blue,2,None,k,,,,,,,,,0,56,56,56,,,,,,,,,,,,,,,,,,,,,,,,,,,,,,,,,,,,,main,None,None,1,1.5039079999999103,332.75369709999995,None,None,1,,,,,,,,,,,,,,216,25,Female,2022-05-13_13h44.44.912,Main,2022.1.1,60.025270638868335,
positive,blue,1,k,None,,,,,,,,,0,57,57,57,,,,,,,,,,,,,,,,,,,,,,,,,,,,,,,,,,,,,main,k,k,1,0.9630838000000495,335.26149499999997,None,None,0,,,,,,,,,,,,,,216,25,Female,2022-05-13_13h44.44.912,Main,2022.1.1,60.025270638868335,
positive,blue,1,k,None,,,,,,,,,0,58,58,58,,,,,,,,,,,,,,,,,,,,,,,,,,,,,,,,,,,,,main,k,k,1,0.8297895999999128,337.2261102,None,None,0,,,,,,,,,,,,,,216,25,Female,2022-05-13_13h44.44.912,Main,2022.1.1,60.025270638868335,
negative,yellow,2,k,None,,,,,,,,,0,59,59,59,,,,,,,,,,,,,,,,,,,,,,,,,,,,,,,,,,,,,main,k,k,1,0.8732835000000705,339.05778910000004,None,None,0,,,,,,,,,,,,,,216,25,Female,2022-05-13_13h44.44.912,Main,2022.1.1,60.025270638868335,
positive,red,2,None,None,,,,,,,,,0,60,60,60,,,,,,,,,,,,,,,,,,,,,,,,,,,,,,,,,,,,,main,None,None,1,1.5046078999998826,340.93235400000003,None,None,1,,,,,,,,,,,,,,216,25,Female,2022-05-13_13h44.44.912,Main,2022.1.1,60.025270638868335,
negative,yellow,1,k,None,,,,,,,,,0,61,61,61,,,,,,,,,,,,,,,,,,,,,,,,,,,,,,,,,,,,,main,k,k,1,0.9827721999999994,343.43644489999997,None,None,0,,,,,,,,,,,,,,216,25,Female,2022-05-13_13h44.44.912,Main,2022.1.1,60.025270638868335,
negative,red,1,None,None,,,,,,,,,0,62,62,62,,,,,,,,,,,,,,,,,,,,,,,,,,,,,,,,,,,,,main,None,None,1,1.496564699999908,345.4213857,None,None,1,,,,,,,,,,,,,,216,25,Female,2022-05-13_13h44.44.912,Main,2022.1.1,60.025270638868335,
negative,blue,1,None,k,,,,,,,,,0,63,63,63,,,,,,,,,,,,,,,,,,,,,,,,,,,,,,,,,,,,,main,None,None,1,1.5041204000001471,347.91924059999997,None,None,1,,,,,,,,,,,,,,216,25,Female,2022-05-13_13h44.44.912,Main,2022.1.1,60.025270638868335,
positive,blue,2,k,None,,,,,,,,,0,64,64,64,,,,,,,,,,,,,,,,,,,,,,,,,,,,,,,,,,,,,main,k,k,1,0.9433854000001247,350.4272409,None,None,0,,,,,,,,,,,,,,216,25,Female,2022-05-13_13h44.44.912,Main,2022.1.1,60.025270638868335,
negative,yellow,2,k,None,,,,,,,,,0,65,65,65,,,,,,,,,,,,,,,,,,,,,,,,,,,,,,,,,,,,,main,k,k,1,1.7947337000000516,352.3719119,None,None,0,,,,,,,,,,,,,,216,25,Female,2022-05-13_13h44.44.912,Main,2022.1.1,60.025270638868335,
positive,yellow,2,None,k,,,,,,,,,0,66,66,66,,,,,,,,,,,,,,,,,,,,,,,,,,,,,,,,,,,,,main,None,None,1,1.4986240000000635,356.16975520000005,None,None,1,,,,,,,,,,,,,,216,25,Female,2022-05-13_13h44.44.912,Main,2022.1.1,60.025270638868335,
positive,yellow,2,None,k,,,,,,,,,0,67,67,67,,,,,,,,,,,,,,,,,,,,,,,,,,,,,,,,,,,,,main,None,None,1,1.5106028000000151,358.6686657,None,None,1,,,,,,,,,,,,,,216,25,Female,2022-05-13_13h44.44.912,Main,2022.1.1,60.025270638868335,
positive,red,1,None,None,,,,,,,,,0,68,68,68,,,,,,,,,,,,,,,,,,,,,,,,,,,,,,,,,,,,,main,None,None,1,1.5110532000001058,361.1820003,None,None,1,,,,,,,,,,,,,,216,25,Female,2022-05-13_13h44.44.912,Main,2022.1.1,60.025270638868335,
positive,yellow,1,None,k,,,,,,,,,0,69,69,69,,,,,,,,,,,,,,,,,,,,,,,,,,,,,,,,,,,,,main,None,None,1,1.5049324000001434,363.6957754,None,None,1,,,,,,,,,,,,,,216,25,Female,2022-05-13_13h44.44.912,Main,2022.1.1,60.025270638868335,
negative,yellow,2,k,None,,,,,,,,,0,70,70,70,,,,,,,,,,,,,,,,,,,,,,,,,,,,,,,,,,,,,main,k,k,1,0.7545258000000103,366.2014829,None,None,0,,,,,,,,,,,,,,216,25,Female,2022-05-13_13h44.44.912,Main,2022.1.1,60.025270638868335,
positive,yellow,1,None,k,,,,,,,,,0,71,71,71,,,,,,,,,,,,,,,,,,,,,,,,,,,,,,,,,,,,,main,None,None,1,1.508415100000093,367.95878689999995,None,None,1,,,,,,,,,,,,,,216,25,Female,2022-05-13_13h44.44.912,Main,2022.1.1,60.025270638868335,
negative,blue,1,None,k,,,,,,,,,0,72,72,72,,,,,,,,,,,,,,,,,,,,,,,,,,,,,,,,,,,,,main,None,None,1,1.5064133000000766,370.467218,None,None,1,,,,,,,,,,,,,,216,25,Female,2022-05-13_13h44.44.912,Main,2022.1.1,60.025270638868335,
negative,red,2,None,None,,,,,,,,,0,73,73,73,,,,,,,,,,,,,,,,,,,,,,,,,,,,,,,,,,,,,main,None,None,1,1.4976894999999786,372.97679730000004,None,None,1,,,,,,,,,,,,,,216,25,Female,2022-05-13_13h44.44.912,Main,2022.1.1,60.025270638868335,
positive,blue,2,k,None,,,,,,,,,0,74,74,74,,,,,,,,,,,,,,,,,,,,,,,,,,,,,,,,,,,,,main,k,k,1,0.9594131999999718,375.4759933,None,None,0,,,,,,,,,,,,,,216,25,Female,2022-05-13_13h44.44.912,Main,2022.1.1,60.025270638868335,
negative,blue,2,None,k,,,,,,,,,0,75,75,75,,,,,,,,,,,,,,,,,,,,,,,,,,,,,,,,,,,,,main,None,None,1,1.504233000000113,377.4375463000001,None,None,1,,,,,,,,,,,,,,216,25,Female,2022-05-13_13h44.44.912,Main,2022.1.1,60.025270638868335,
negative,blue,2,None,k,,,,,,,,,0,76,76,76,,,,,,,,,,,,,,,,,,,,,,,,,,,,,,,,,,,,,main,None,None,1,1.506671600000118,379.9429748,None,None,1,,,,,,,,,,,,,,216,25,Female,2022-05-13_13h44.44.912,Main,2022.1.1,60.025270638868335,
negative,yellow,1,k,None,,,,,,,,,0,77,77,77,,,,,,,,,,,,,,,,,,,,,,,,,,,,,,,,,,,,,main,k,k,1,0.8843323999999484,382.4514183000001,None,None,0,,,,,,,,,,,,,,216,25,Female,2022-05-13_13h44.44.912,Main,2022.1.1,60.025270638868335,
positive,blue,1,k,None,,,,,,,,,0,78,78,78,,,,,,,,,,,,,,,,,,,,,,,,,,,,,,,,,,,,,main,k,k,1,0.8887847999999394,384.3384423,None,None,0,,,,,,,,,,,,,,216,25,Female,2022-05-13_13h44.44.912,Main,2022.1.1,60.025270638868335,
positive,blue,1,k,None,,,,,,,,,0,79,79,79,,,,,,,,,,,,,,,,,,,,,,,,,,,,,,,,,,,,,main,k,k,1,0.7979201999999077,386.2275376,None,None,0,,,,,,,,,,,,,,216,25,Female,2022-05-13_13h44.44.912,Main,2022.1.1,60.025270638868335,
positive,red,2,None,None,,,,,,,,,0,80,80,80,,,,,,,,,,,,,,,,,,,,,,,,,,,,,,,,,,,,,main,None,None,1,1.5091910999999527,388.02672610000013,None,None,1,,,,,,,,,,,,,,216,25,Female,2022-05-13_13h44.44.912,Main,2022.1.1,60.025270638868335,
positive,yellow,2,None,k,,,,,,,,,0,81,81,81,,,,,,,,,,,,,,,,,,,,,,,,,,,,,,,,,,,,,main,None,None,1,1.4957291000000623,390.53858880000007,None,None,1,,,,,,,,,,,,,,216,25,Female,2022-05-13_13h44.44.912,Main,2022.1.1,60.025270638868335,
positive,blue,1,k,None,,,,,,,,,0,82,82,82,,,,,,,,,,,,,,,,,,,,,,,,,,,,,,,,,,,,,main,k,k,1,0.9554405000001225,393.0356048000001,None,None,0,,,,,,,,,,,,,,216,25,Female,2022-05-13_13h44.44.912,Main,2022.1.1,60.025270638868335,
negative,yellow,2,k,None,,,,,,,,,0,83,83,83,,,,,,,,,,,,,,,,,,,,,,,,,,,,,,,,,,,,,main,k,k,1,1.1907008000000587,394.9921839000001,None,None,0,,,,,,,,,,,,,,216,25,Female,2022-05-13_13h44.44.912,Main,2022.1.1,60.025270638868335,
positive,blue,2,k,None,,,,,,,,,0,84,84,84,,,,,,,,,,,,,,,,,,,,,,,,,,,,,,,,,,,,,main,k,k,1,1.0936260999999377,397.18549200000007,None,None,0,,,,,,,,,,,,,,216,25,Female,2022-05-13_13h44.44.912,Main,2022.1.1,60.025270638868335,
positive,yellow,1,None,k,,,,,,,,,0,85,85,85,,,,,,,,,,,,,,,,,,,,,,,,,,,,,,,,,,,,,main,None,None,1,1.5111252000001514,399.27812740000013,None,None,1,,,,,,,,,,,,,,216,25,Female,2022-05-13_13h44.44.912,Main,2022.1.1,60.025270638868335,
positive,blue,2,k,None,,,,,,,,,0,86,86,86,,,,,,,,,,,,,,,,,,,,,,,,,,,,,,,,,,,,,main,k,k,1,1.8289642000002004,401.7930113,None,None,0,,,,,,,,,,,,,,216,25,Female,2022-05-13_13h44.44.912,Main,2022.1.1,60.025270638868335,
positive,blue,1,k,None,,,,,,,,,0,87,87,87,,,,,,,,,,,,,,,,,,,,,,,,,,,,,,,,,,,,,main,k,k,1,1.025668499999938,405.63048460000005,None,None,0,,,,,,,,,,,,,,216,25,Female,2022-05-13_13h44.44.912,Main,2022.1.1,60.025270638868335,
negative,yellow,2,k,None,,,,,,,,,0,88,88,88,,,,,,,,,,,,,,,,,,,,,,,,,,,,,,,,,,,,,main,k,k,1,0.9401413999999022,407.65730800000006,None,None,0,,,,,,,,,,,,,,216,25,Female,2022-05-13_13h44.44.912,Main,2022.1.1,60.025270638868335,
negative,blue,2,None,k,,,,,,,,,0,89,89,89,,,,,,,,,,,,,,,,,,,,,,,,,,,,,,,,,,,,,main,None,None,1,1.5003061999998408,409.5978861000001,None,None,1,,,,,,,,,,,,,,216,25,Female,2022-05-13_13h44.44.912,Main,2022.1.1,60.025270638868335,
positive,yellow,2,None,k,,,,,,,,,0,90,90,90,,,,,,,,,,,,,,,,,,,,,,,,,,,,,,,,,,,,,main,None,None,1,1.500879199999872,412.1019255000001,None,None,1,,,,,,,,,,,,,,216,25,Female,2022-05-13_13h44.44.912,Main,2022.1.1,60.025270638868335,
negative,yellow,1,k,None,,,,,,,,,0,91,91,91,,,,,,,,,,,,,,,,,,,,,,,,,,,,,,,,,,,,,main,k,k,1,1.0274861000000328,414.603619,None,None,0,,,,,,,,,,,,,,216,25,Female,2022-05-13_13h44.44.912,Main,2022.1.1,60.025270638868335,
negative,red,2,None,None,,,,,,,,,0,92,92,92,,,,,,,,,,,,,,,,,,,,,,,,,,,,,,,,,,,,,main,None,None,1,1.510592600000109,416.6334332000001,None,None,1,,,,,,,,,,,,,,216,25,Female,2022-05-13_13h44.44.912,Main,2022.1.1,60.025270638868335,
negative,blue,2,None,k,,,,,,,,,0,93,93,93,,,,,,,,,,,,,,,,,,,,,,,,,,,,,,,,,,,,,main,None,None,1,1.4982896999999866,419.1425927,None,None,1,,,,,,,,,,,,,,216,25,Female,2022-05-13_13h44.44.912,Main,2022.1.1,60.025270638868335,
negative,blue,1,None,k,,,,,,,,,0,94,94,94,,,,,,,,,,,,,,,,,,,,,,,,,,,,,,,,,,,,,main,None,None,1,1.5106109000000743,421.64327330000015,None,None,1,,,,,,,,,,,,,,216,25,Female,2022-05-13_13h44.44.912,Main,2022.1.1,60.025270638868335,
negative,blue,1,None,k,,,,,,,,,0,95,95,95,,,,,,,,,,,,,,,,,,,,,,,,,,,,,,,,,,,,,main,None,None,1,1.5034022999998342,424.1560772,None,None,1,,,,,,,,,,,,,,216,25,Female,2022-05-13_13h44.44.912,Main,2022.1.1,60.025270638868335,
negative,red,1,None,None,,,,,,,,,0,96,96,96,,,,,,,,,,,,,,,,,,,,,,,,,,,,,,,,,,,,,main,None,None,1,1.50955799999997,426.66167910000013,None,None,1,,,,,,,,,,,,,,216,25,Female,2022-05-13_13h44.44.912,Main,2022.1.1,60.025270638868335,
positive,yellow,1,None,k,,,,,,,,,0,97,97,97,,,,,,,,,,,,,,,,,,,,,,,,,,,,,,,,,,,,,main,None,None,1,1.5050564000000577,429.1732823,None,None,1,,,,,,,,,,,,,,216,25,Female,2022-05-13_13h44.44.912,Main,2022.1.1,60.025270638868335,
negative,yellow,1,k,None,,,,,,,,,0,98,98,98,,,,,,,,,,,,,,,,,,,,,,,,,,,,,,,,,,,,,main,k,k,1,1.6696741000000657,431.6827978000001,None,None,0,,,,,,,,,,,,,,216,25,Female,2022-05-13_13h44.44.912,Main,2022.1.1,60.025270638868335,
positive,red,1,None,None,,,,,,,,,0,99,99,99,,,,,,,,,,,,,,,,,,,,,,,,,,,,,,,,,,,,,main,None,None,1,1.4995541000000685,435.35954820000006,None,None,1,,,,,,,,,,,,,,216,25,Female,2022-05-13_13h44.44.912,Main,2022.1.1,60.025270638868335,
positive,blue,1,k,None,,,,,,,,,0,100,100,100,,,,,,,,,,,,,,,,,,,,,,,,,,,,,,,,,,,,,main,k,k,1,0.9764287999998942,437.8596817,None,None,0,,,,,,,,,,,,,,216,25,Female,2022-05-13_13h44.44.912,Main,2022.1.1,60.025270638868335,
negative,yellow,1,k,None,,,,,,,,,0,101,101,101,,,,,,,,,,,,,,,,,,,,,,,,,,,,,,,,,,,,,main,k,k,1,1.169729400000051,439.84158590000015,None,None,0,,,,,,,,,,,,,,216,25,Female,2022-05-13_13h44.44.912,Main,2022.1.1,60.025270638868335,
negative,blue,2,None,k,,,,,,,,,0,102,102,102,,,,,,,,,,,,,,,,,,,,,,,,,,,,,,,,,,,,,main,None,None,1,1.5112166999999772,442.0132257,None,None,1,,,,,,,,,,,,,,216,25,Female,2022-05-13_13h44.44.912,Main,2022.1.1,60.025270638868335,
negative,yellow,2,k,None,,,,,,,,,0,103,103,103,,,,,,,,,,,,,,,,,,,,,,,,,,,,,,,,,,,,,main,k,k,1,0.884085000000141,444.52345990000003,None,None,0,,,,,,,,,,,,,,216,25,Female,2022-05-13_13h44.44.912,Main,2022.1.1,60.025270638868335,
positive,yellow,2,None,k,,,,,,,,,0,104,104,104,,,,,,,,,,,,,,,,,,,,,,,,,,,,,,,,,,,,,main,None,None,1,1.5112014000001182,446.41196660000014,None,None,1,,,,,,,,,,,,,,216,25,Female,2022-05-13_13h44.44.912,Main,2022.1.1,60.025270638868335,
positive,blue,1,k,None,,,,,,,,,0,105,105,105,,,,,,,,,,,,,,,,,,,,,,,,,,,,,,,,,,,,,main,k,k,1,0.73955530000012,448.92129049999994,None,None,0,,,,,,,,,,,,,,216,25,Female,2022-05-13_13h44.44.912,Main,2022.1.1,60.025270638868335,
positive,blue,2,k,None,,,,,,,,,0,106,106,106,,,,,,,,,,,,,,,,,,,,,,,,,,,,,,,,,,,,,main,k,k,1,1.0096266999998988,450.6648024000001,None,None,0,,,,,,,,,,,,,,216,25,Female,2022-05-13_13h44.44.912,Main,2022.1.1,60.025270638868335,
negative,blue,1,None,k,,,,,,,,,0,107,107,107,,,,,,,,,,,,,,,,,,,,,,,,,,,,,,,,,,,,,main,None,None,1,1.5100041000000601,452.6743498000001,None,None,1,,,,,,,,,,,,,,216,25,Female,2022-05-13_13h44.44.912,Main,2022.1.1,60.025270638868335,
positive,yellow,2,None,k,,,,,,,,,0,108,108,108,,,,,,,,,,,,,,,,,,,,,,,,,,,,,,,,,,,,,main,None,None,1,1.4981764999999996,455.18885190000015,None,None,1,,,,,,,,,,,,,,216,25,Female,2022-05-13_13h44.44.912,Main,2022.1.1,60.025270638868335,
negative,yellow,1,k,None,,,,,,,,,0,109,109,109,,,,,,,,,,,,,,,,,,,,,,,,,,,,,,,,,,,,,main,k,k,1,0.8579517000000578,457.6882415,None,None,0,,,,,,,,,,,,,,216,25,Female,2022-05-13_13h44.44.912,Main,2022.1.1,60.025270638868335,
negative,blue,2,None,k,,,,,,,,,0,110,110,110,,,,,,,,,,,,,,,,,,,,,,,,,,,,,,,,,,,,,main,None,None,1,1.4977438000000802,459.5497137,None,None,1,,,,,,,,,,,,,,216,25,Female,2022-05-13_13h44.44.912,Main,2022.1.1,60.025270638868335,
positive,blue,2,k,None,,,,,,,,,0,111,111,111,,,,,,,,,,,,,,,,,,,,,,,,,,,,,,,,,,,,,main,k,k,1,0.8912460999999894,462.0483113,None,None,0,,,,,,,,,,,,,,216,25,Female,2022-05-13_13h44.44.912,Main,2022.1.1,60.025270638868335,
negative,blue,1,None,k,,,,,,,,,0,112,112,112,,,,,,,,,,,,,,,,,,,,,,,,,,,,,,,,,,,,,main,None,None,1,1.5018196999999418,463.94130570000016,None,None,1,,,,,,,,,,,,,,216,25,Female,2022-05-13_13h44.44.912,Main,2022.1.1,60.025270638868335,
positive,yellow,1,None,k,,,,,,,,,0,113,113,113,,,,,,,,,,,,,,,,,,,,,,,,,,,,,,,,,,,,,main,None,None,1,1.5001786000000266,466.4447794,None,None,1,,,,,,,,,,,,,,216,25,Female,2022-05-13_13h44.44.912,Main,2022.1.1,60.025270638868335,
negative,red,1,None,None,,,,,,,,,0,114,114,114,,,,,,,,,,,,,,,,,,,,,,,,,,,,,,,,,,,,,main,None,None,1,1.4964367999998558,468.94604040000013,None,None,1,,,,,,,,,,,,,,216,25,Female,2022-05-13_13h44.44.912,Main,2022.1.1,60.025270638868335,
positive,red,1,None,None,,,,,,,,,0,115,115,115,,,,,,,,,,,,,,,,,,,,,,,,,,,,,,,,,,,,,main,None,None,1,1.4956583999996838,471.4453458999999,None,None,1,,,,,,,,,,,,,,216,25,Female,2022-05-13_13h44.44.912,Main,2022.1.1,60.025270638868335,
negative,red,2,None,None,,,,,,,,,0,116,116,116,,,,,,,,,,,,,,,,,,,,,,,,,,,,,,,,,,,,,main,None,None,1,1.5045760000002701,473.94169579999993,None,None,1,,,,,,,,,,,,,,216,25,Female,2022-05-13_13h44.44.912,Main,2022.1.1,60.025270638868335,
negative,yellow,2,k,None,,,,,,,,,0,117,117,117,,,,,,,,,,,,,,,,,,,,,,,,,,,,,,,,,,,,,main,k,k,1,0.8882162000004428,476.4468324000002,None,None,0,,,,,,,,,,,,,,216,25,Female,2022-05-13_13h44.44.912,Main,2022.1.1,60.025270638868335,
positive,yellow,1,None,k,,,,,,,,,0,118,118,118,,,,,,,,,,,,,,,,,,,,,,,,,,,,,,,,,,,,,main,None,None,1,1.5030753000000914,478.33583650000014,None,None,1,,,,,,,,,,,,,,216,25,Female,2022-05-13_13h44.44.912,Main,2022.1.1,60.025270638868335,
positive,red,2,None,None,,,,,,,,,0,119,119,119,,,,,,,,,,,,,,,,,,,,,,,,,,,,,,,,,,,,,main,None,None,1,1.506876199999624,480.84205670000006,None,None,1,,,,,,,,,,,,,,216,25,Female,2022-05-13_13h44.44.912,Main,2022.1.1,60.025270638868335,
positive,blue,2,k,None,,,,,,,,,0,120,120,120,,,,,,,,,,,,,,,,,,,,,,,,,,,,,,,,,,,,,main,k,k,1,0.8052957999998398,483.3516381000002,None,None,0,,,,,,,,,,,,,,216,25,Female,2022-05-13_13h44.44.912,Main,2022.1.1,60.025270638868335,
negative,red,1,None,None,,,,,,,,,0,121,121,121,,,,,,,,,,,,,,,,,,,,,,,,,,,,,,,,,,,,,main,None,None,1,1.508369600000151,485.1607873999999,None,None,1,,,,,,,,,,,,,,216,25,Female,2022-05-13_13h44.44.912,Main,2022.1.1,60.025270638868335,
positive,yellow,2,None,k,,,,,,,,,0,122,122,122,,,,,,,,,,,,,,,,,,,,,,,,,,,,,,,,,,,,,main,None,None,1,1.5132886000001236,487.66866430000005,None,None,1,,,,,,,,,,,,,,216,25,Female,2022-05-13_13h44.44.912,Main,2022.1.1,60.025270638868335,
negative,red,2,None,None,,,,,,,,,0,123,123,123,,,,,,,,,,,,,,,,,,,,,,,,,,,,,,,,,,,,,main,None,None,1,1.4997419999999693,490.18336179999983,None,None,1,,,,,,,,,,,,,,216,25,Female,2022-05-13_13h44.44.912,Main,2022.1.1,60.025270638868335,
negative,yellow,2,k,None,,,,,,,,,0,124,124,124,,,,,,,,,,,,,,,,,,,,,,,,,,,,,,,,,,,,,main,k,k,1,0.7835743000000548,492.68659319999983,None,None,0,,,,,,,,,,,,,,216,25,Female,2022-05-13_13h44.44.912,Main,2022.1.1,60.025270638868335,
positive,red,1,None,None,,,,,,,,,0,125,125,125,,,,,,,,,,,,,,,,,,,,,,,,,,,,,,,,,,,,,main,None,None,1,1.5000817999998617,494.47381199999995,None,None,1,,,,,,,,,,,,,,216,25,Female,2022-05-13_13h44.44.912,Main,2022.1.1,60.025270638868335,
negative,blue,2,None,k,,,,,,,,,0,126,126,126,,,,,,,,,,,,,,,,,,,,,,,,,,,,,,,,,,,,,main,None,None,1,1.511197600000287,496.97435500000006,None,None,1,,,,,,,,,,,,,,216,25,Female,2022-05-13_13h44.44.912,Main,2022.1.1,60.025270638868335,
negative,blue,1,None,k,,,,,,,,,0,127,127,127,,,,,,,,,,,,,,,,,,,,,,,,,,,,,,,,,,,,,main,None,None,1,1.5120225999999093,499.48486149999985,None,None,1,,,,,,,,,,,,,,216,25,Female,2022-05-13_13h44.44.912,Main,2022.1.1,60.025270638868335,
negative,yellow,1,k,None,,,,,,,,,0,128,128,128,,,,,,,,,,,,,,,,,,,,,,,,,,,,,,,,,,,,,main,k,k,1,0.9658959000003051,501.9985279,None,None,0,,,,,,,,,,,,,,216,25,Female,2022-05-13_13h44.44.912,Main,2022.1.1,60.025270638868335,
negative,yellow,1,k,None,,,,,,,,,0,129,129,129,,,,,,,,,,,,,,,,,,,,,,,,,,,,,,,,,,,,,main,k,k,1,0.7569112999999561,503.96574320000013,None,None,0,,,,,,,,,,,,,,216,25,Female,2022-05-13_13h44.44.912,Main,2022.1.1,60.025270638868335,
positive,blue,1,k,None,,,,,,,,,0,130,130,130,,,,,,,,,,,,,,,,,,,,,,,,,,,,,,,,,,,,,main,k,k,1,0.7424903000000995,505.7260076,None,None,0,,,,,,,,,,,,,,216,25,Female,2022-05-13_13h44.44.912,Main,2022.1.1,60.025270638868335,
negative,blue,1,None,k,,,,,,,,,0,131,131,131,,,,,,,,,,,,,,,,,,,,,,,,,,,,,,,,,,,,,main,None,None,1,1.501382299999932,507.47127890000024,None,None,1,,,,,,,,,,,,,,216,25,Female,2022-05-13_13h44.44.912,Main,2022.1.1,60.025270638868335,
negative,blue,2,None,k,,,,,,,,,0,132,132,132,,,,,,,,,,,,,,,,,,,,,,,,,,,,,,,,,,,,,main,None,None,1,1.510322200000246,509.97391440000024,None,None,1,,,,,,,,,,,,,,216,25,Female,2022-05-13_13h44.44.912,Main,2022.1.1,60.025270638868335,
positive,blue,2,k,None,,,,,,,,,0,133,133,133,,,,,,,,,,,,,,,,,,,,,,,,,,,,,,,,,,,,,main,k,k,1,0.7499928000002001,512.4849007999999,None,None,0,,,,,,,,,,,,,,216,25,Female,2022-05-13_13h44.44.912,Main,2022.1.1,60.025270638868335,
positive,red,2,None,None,,,,,,,,,0,134,134,134,,,,,,,,,,,,,,,,,,,,,,,,,,,,,,,,,,,,,main,None,None,1,1.5051446000002215,514.2367983000001,None,None,1,,,,,,,,,,,,,,216,25,Female,2022-05-13_13h44.44.912,Main,2022.1.1,60.025270638868335,
negative,yellow,2,k,None,,,,,,,,,0,135,135,135,,,,,,,,,,,,,,,,,,,,,,,,,,,,,,,,,,,,,main,k,k,1,0.8303799999998773,516.7443077,None,None,0,,,,,,,,,,,,,,216,25,Female,2022-05-13_13h44.44.912,Main,2022.1.1,60.025270638868335,
positive,yellow,2,None,k,,,,,,,,,0,136,136,136,,,,,,,,,,,,,,,,,,,,,,,,,,,,,,,,,,,,,main,None,None,1,1.5070654999999533,518.5748372,None,None,1,,,,,,,,,,,,,,216,25,Female,2022-05-13_13h44.44.912,Main,2022.1.1,60.025270638868335,
positive,blue,1,k,None,,,,,,,,,0,137,137,137,,,,,,,,,,,,,,,,,,,,,,,,,,,,,,,,,,,,,main,k,k,1,0.8696506999999656,521.0839757000001,None,None,0,,,,,,,,,,,,,,216,25,Female,2022-05-13_13h44.44.912,Main,2022.1.1,60.025270638868335,
positive,yellow,1,None,k,,,,,,,,,0,138,138,138,,,,,,,,,,,,,,,,,,,,,,,,,,,,,,,,,,,,,main,None,None,1,1.5027368000000934,522.9550658999999,None,None,1,,,,,,,,,,,,,,216,25,Female,2022-05-13_13h44.44.912,Main,2022.1.1,60.025270638868335,
positive,yellow,1,None,k,,,,,,,,,0,139,139,139,,,,,,,,,,,,,,,,,,,,,,,,,,,,,,,,,,,,,main,None,k,0,0.7905911999996533,525.4593124999999,None,None,1,,,,,,,,,,,,,,216,25,Female,2022-05-13_13h44.44.912,Main,2022.1.1,60.025270638868335,
positive,yellow,1,None,k,,,,,,,,,0,140,140,140,,,,,,,,,,,,,,,,,,,,,,,,,,,,,,,,,,,,,main,None,None,1,1.4951559999999517,528.2645368000001,None,None,1,,,,,,,,,,,,,,216,25,Female,2022-05-13_13h44.44.912,Main,2022.1.1,60.025270638868335,
positive,blue,1,k,None,,,,,,,,,0,141,141,141,,,,,,,,,,,,,,,,,,,,,,,,,,,,,,,,,,,,,main,k,k,1,0.9040723000002799,530.7615741000002,None,None,0,,,,,,,,,,,,,,216,25,Female,2022-05-13_13h44.44.912,Main,2022.1.1,60.025270638868335,
positive,blue,2,k,None,,,,,,,,,0,142,142,142,,,,,,,,,,,,,,,,,,,,,,,,,,,,,,,,,,,,,main,k,k,1,1.328899299999648,532.6693458000002,None,None,0,,,,,,,,,,,,,,216,25,Female,2022-05-13_13h44.44.912,Main,2022.1.1,60.025270638868335,
positive,yellow,2,None,k,,,,,,,,,0,143,143,143,,,,,,,,,,,,,,,,,,,,,,,,,,,,,,,,,,,,,main,None,None,1,1.5124995999999555,535.0000124000001,None,None,1,,,,,,,,,,,,,,216,25,Female,2022-05-13_13h44.44.912,Main,2022.1.1,60.025270638868335,
negative,yellow,2,k,None,,,,,,,,,0,144,144,144,,,,,,,,,,,,,,,,,,,,,,,,,,,,,,,,,,,,,main,k,k,1,0.8382003000001532,537.5115241999999,None,None,0,,,,,,,,,,,,,,216,25,Female,2022-05-13_13h44.44.912,Main,2022.1.1,60.025270638868335,
negative,blue,2,None,k,,,,,,,,,0,145,145,145,,,,,,,,,,,,,,,,,,,,,,,,,,,,,,,,,,,,,main,None,None,1,1.5020954000001439,539.3537911999999,None,None,1,,,,,,,,,,,,,,216,25,Female,2022-05-13_13h44.44.912,Main,2022.1.1,60.025270638868335,
negative,red,1,None,None,,,,,,,,,0,146,146,146,,,,,,,,,,,,,,,,,,,,,,,,,,,,,,,,,,,,,main,None,None,1,1.5010016999999607,541.8571181,None,None,1,,,,,,,,,,,,,,216,25,Female,2022-05-13_13h44.44.912,Main,2022.1.1,60.025270638868335,
positive,blue,1,k,None,,,,,,,,,0,147,147,147,,,,,,,,,,,,,,,,,,,,,,,,,,,,,,,,,,,,,main,k,k,1,0.8466129999997065,544.3597716000002,None,None,0,,,,,,,,,,,,,,216,25,Female,2022-05-13_13h44.44.912,Main,2022.1.1,60.025270638868335,
positive,yellow,1,None,k,,,,,,,,,0,148,148,148,,,,,,,,,,,,,,,,,,,,,,,,,,,,,,,,,,,,,main,None,None,1,1.5010992000002261,546.2089063000001,None,None,1,,,,,,,,,,,,,,216,25,Female,2022-05-13_13h44.44.912,Main,2022.1.1,60.025270638868335,
negative,red,2,None,None,,,,,,,,,0,149,149,149,,,,,,,,,,,,,,,,,,,,,,,,,,,,,,,,,,,,,main,None,None,1,1.4970326000002387,548.7111287999999,None,None,1,,,,,,,,,,,,,,216,25,Female,2022-05-13_13h44.44.912,Main,2022.1.1,60.025270638868335,
negative,blue,1,None,k,,,,,,,,,0,150,150,150,,,,,,,,,,,,,,,,,,,,,,,,,,,,,,,,,,,,,main,None,None,1,1.5060441999999057,551.2118983000003,None,None,1,,,,,,,,,,,,,,216,25,Female,2022-05-13_13h44.44.912,Main,2022.1.1,60.025270638868335,
negative,yellow,2,k,None,,,,,,,,,0,151,151,151,,,,,,,,,,,,,,,,,,,,,,,,,,,,,,,,,,,,,main,k,k,1,0.8684181999997236,553.7188486000002,None,None,0,,,,,,,,,,,,,,216,25,Female,2022-05-13_13h44.44.912,Main,2022.1.1,60.025270638868335,
negative,blue,2,None,k,,,,,,,,,0,152,152,152,,,,,,,,,,,,,,,,,,,,,,,,,,,,,,,,,,,,,main,None,None,1,1.4957283000003372,555.5888370999999,None,None,1,,,,,,,,,,,,,,216,25,Female,2022-05-13_13h44.44.912,Main,2022.1.1,60.025270638868335,
negative,yellow,1,k,None,,,,,,,,,0,153,153,153,,,,,,,,,,,,,,,,,,,,,,,,,,,,,,,,,,,,,main,k,k,1,1.0383381999999983,558.0859298000003,None,None,0,,,,,,,,,,,,,,216,25,Female,2022-05-13_13h44.44.912,Main,2022.1.1,60.025270638868335,
negative,blue,1,None,k,,,,,,,,,0,154,154,154,,,,,,,,,,,,,,,,,,,,,,,,,,,,,,,,,,,,,main,None,None,1,1.4957562999998117,560.1244517000002,None,None,1,,,,,,,,,,,,,,216,25,Female,2022-05-13_13h44.44.912,Main,2022.1.1,60.025270638868335,
positive,yellow,2,None,k,,,,,,,,,0,155,155,155,,,,,,,,,,,,,,,,,,,,,,,,,,,,,,,,,,,,,main,None,k,0,0.8269138999999086,562.6236664999999,None,None,1,,,,,,,,,,,,,,216,25,Female,2022-05-13_13h44.44.912,Main,2022.1.1,60.025270638868335,
positive,red,2,None,None,,,,,,,,,0,156,156,156,,,,,,,,,,,,,,,,,,,,,,,,,,,,,,,,,,,,,main,None,None,1,1.5032169999999496,565.4593390000002,None,None,1,,,,,,,,,,,,,,216,25,Female,2022-05-13_13h44.44.912,Main,2022.1.1,60.025270638868335,
positive,red,1,None,None,,,,,,,,,0,157,157,157,,,,,,,,,,,,,,,,,,,,,,,,,,,,,,,,,,,,,main,None,None,1,1.5084962000000814,567.9654773,None,None,1,,,,,,,,,,,,,,216,25,Female,2022-05-13_13h44.44.912,Main,2022.1.1,60.025270638868335,
positive,blue,2,k,None,,,,,,,,,0,158,158,158,,,,,,,,,,,,,,,,,,,,,,,,,,,,,,,,,,,,,main,k,k,1,0.8958794999998645,570.4727759,None,None,0,,,,,,,,,,,,,,216,25,Female,2022-05-13_13h44.44.912,Main,2022.1.1,60.025270638868335,
negative,yellow,1,k,None,,,,,,,,,0,159,159,159,,,,,,,,,,,,,,,,,,,,,,,,,,,,,,,,,,,,,main,k,k,1,1.1846317999998064,572.3725394999999,None,None,0,,,,,,,,,,,,,,216,25,Female,2022-05-13_13h44.44.912,Main,2022.1.1,60.025270638868335,
negative,red,2,None,None,,,,,,,,,0,160,160,160,,,,,,,,,,,,,,,,,,,,,,,,,,,,,,,,,,,,,main,None,None,1,1.4999451000003319,574.5582037000001,None,None,1,,,,,,,,,,,,,,216,25,Female,2022-05-13_13h44.44.912,Main,2022.1.1,60.025270638868335,
negative,blue,1,None,k,,,,,,,,,0,161,161,161,,,,,,,,,,,,,,,,,,,,,,,,,,,,,,,,,,,,,main,None,None,1,1.4955155000002378,577.0624313999999,None,None,1,,,,,,,,,,,,,,216,25,Female,2022-05-13_13h44.44.912,Main,2022.1.1,60.025270638868335,
negative,blue,1,None,k,,,,,,,,,0,162,162,162,,,,,,,,,,,,,,,,,,,,,,,,,,,,,,,,,,,,,main,None,None,1,1.5042509999998401,579.5570923000002,None,None,1,,,,,,,,,,,,,,216,25,Female,2022-05-13_13h44.44.912,Main,2022.1.1,60.025270638868335,
negative,yellow,1,k,None,,,,,,,,,0,163,163,163,,,,,,,,,,,,,,,,,,,,,,,,,,,,,,,,,,,,,main,k,k,1,1.1124015999998846,582.0650745999999,None,None,0,,,,,,,,,,,,,,216,25,Female,2022-05-13_13h44.44.912,Main,2022.1.1,60.025270638868335,
negative,yellow,1,k,None,,,,,,,,,0,164,164,164,,,,,,,,,,,,,,,,,,,,,,,,,,,,,,,,,,,,,main,k,k,1,0.7910127999998622,584.178314,None,None,0,,,,,,,,,,,,,,216,25,Female,2022-05-13_13h44.44.912,Main,2022.1.1,60.025270638868335,
positive,yellow,1,None,k,,,,,,,,,0,165,165,165,,,,,,,,,,,,,,,,,,,,,,,,,,,,,,,,,,,,,main,None,None,1,1.5011868999999933,585.9707704,None,None,1,,,,,,,,,,,,,,216,25,Female,2022-05-13_13h44.44.912,Main,2022.1.1,60.025270638868335,
negative,red,1,None,None,,,,,,,,,0,166,166,166,,,,,,,,,,,,,,,,,,,,,,,,,,,,,,,,,,,,,main,None,None,1,1.5035540000003493,588.4728951,None,None,1,,,,,,,,,,,,,,216,25,Female,2022-05-13_13h44.44.912,Main,2022.1.1,60.025270638868335,
negative,yellow,2,k,None,,,,,,,,,0,167,167,167,,,,,,,,,,,,,,,,,,,,,,,,,,,,,,,,,,,,,main,k,k,1,0.9451868000001014,590.9800692000001,None,None,0,,,,,,,,,,,,,,216,25,Female,2022-05-13_13h44.44.912,Main,2022.1.1,60.025270638868335,
positive,blue,2,k,None,,,,,,,,,0,168,168,168,,,,,,,,,,,,,,,,,,,,,,,,,,,,,,,,,,,,,main,k,k,1,0.8889045999999325,592.9275389000002,None,None,0,,,,,,,,,,,,,,216,25,Female,2022-05-13_13h44.44.912,Main,2022.1.1,60.025270638868335,
positive,red,2,None,None,,,,,,,,,0,169,169,169,,,,,,,,,,,,,,,,,,,,,,,,,,,,,,,,,,,,,main,None,None,1,1.5088009999999485,594.8167787,None,None,1,,,,,,,,,,,,,,216,25,Female,2022-05-13_13h44.44.912,Main,2022.1.1,60.025270638868335,
positive,red,1,None,None,,,,,,,,,0,170,170,170,,,,,,,,,,,,,,,,,,,,,,,,,,,,,,,,,,,,,main,None,None,1,1.497905400000036,597.3277694999999,None,None,1,,,,,,,,,,,,,,216,25,Female,2022-05-13_13h44.44.912,Main,2022.1.1,60.025270638868335,
negative,blue,2,None,k,,,,,,,,,0,171,171,171,,,,,,,,,,,,,,,,,,,,,,,,,,,,,,,,,,,,,main,None,None,1,1.5022216000002118,599.8276271000002,None,None,1,,,,,,,,,,,,,,216,25,Female,2022-05-13_13h44.44.912,Main,2022.1.1,60.025270638868335,
positive,blue,2,k,None,,,,,,,,,0,172,172,172,,,,,,,,,,,,,,,,,,,,,,,,,,,,,,,,,,,,,main,k,k,1,0.7459485999997923,602.3307483000001,None,None,0,,,,,,,,,,,,,,216,25,Female,2022-05-13_13h44.44.912,Main,2022.1.1,60.025270638868335,
negative,yellow,2,k,None,,,,,,,,,0,173,173,173,,,,,,,,,,,,,,,,,,,,,,,,,,,,,,,,,,,,,main,k,k,1,0.8748067999999876,604.0785566000002,None,None,0,,,,,,,,,,,,,,216,25,Female,2022-05-13_13h44.44.912,Main,2022.1.1,60.025270638868335,
positive,yellow,2,None,k,,,,,,,,,0,174,174,174,,,,,,,,,,,,,,,,,,,,,,,,,,,,,,,,,,,,,main,None,None,1,1.5055216000000655,605.9524174999999,None,None,1,,,,,,,,,,,,,,216,25,Female,2022-05-13_13h44.44.912,Main,2022.1.1,60.025270638868335,
negative,blue,2,None,k,,,,,,,,,0,175,175,175,,,,,,,,,,,,,,,,,,,,,,,,,,,,,,,,,,,,,main,None,None,1,1.4964939000001323,608.4619629000001,None,None,1,,,,,,,,,,,,,,216,25,Female,2022-05-13_13h44.44.912,Main,2022.1.1,60.025270638868335,
positive,blue,1,k,None,,,,,,,,,0,176,176,176,,,,,,,,,,,,,,,,,,,,,,,,,,,,,,,,,,,,,main,k,k,1,1.1105904999999439,610.9601381999998,None,None,0,,,,,,,,,,,,,,216,25,Female,2022-05-13_13h44.44.912,Main,2022.1.1,60.025270638868335,
positive,yellow,1,None,k,,,,,,,,,0,177,177,177,,,,,,,,,,,,,,,,,,,,,,,,,,,,,,,,,,,,,main,None,None,1,1.502664900000127,613.0717919000001,None,None,1,,,,,,,,,,,,,,216,25,Female,2022-05-13_13h44.44.912,Main,2022.1.1,60.025270638868335,
positive,blue,1,k,None,,,,,,,,,0,178,178,178,,,,,,,,,,,,,,,,,,,,,,,,,,,,,,,,,,,,,main,k,k,1,0.7946619999997893,615.5762830000001,None,None,0,,,,,,,,,,,,,,216,25,Female,2022-05-13_13h44.44.912,Main,2022.1.1,60.025270638868335,
positive,yellow,2,None,k,,,,,,,,,0,179,179,179,,,,,,,,,,,,,,,,,,,,,,,,,,,,,,,,,,,,,main,None,None,1,1.508742699999857,617.3729570000003,None,None,1,,,,,,,,,,,,,,216,25,Female,2022-05-13_13h44.44.912,Main,2022.1.1,60.025270638868335,
positive,blue,1,k,None,,,,,,,,,0,180,180,180,,,,,,,,,,,,,,,,,,,,,,,,,,,,,,,,,,,,,main,k,k,1,0.876143200000115,619.8829149000001,None,None,0,,,,,,,,,,,,,,216,25,Female,2022-05-13_13h44.44.912,Main,2022.1.1,60.025270638868335,
negative,red,1,None,None,,,,,,,,,0,181,181,181,,,,,,,,,,,,,,,,,,,,,,,,,,,,,,,,,,,,,main,None,None,1,1.5103361000001314,621.7624913000002,None,None,1,,,,,,,,,,,,,,216,25,Female,2022-05-13_13h44.44.912,Main,2022.1.1,60.025270638868335,
negative,blue,1,None,k,,,,,,,,,0,182,182,182,,,,,,,,,,,,,,,,,,,,,,,,,,,,,,,,,,,,,main,None,None,1,1.5076876999996784,624.2742024000001,None,None,1,,,,,,,,,,,,,,216,25,Female,2022-05-13_13h44.44.912,Main,2022.1.1,60.025270638868335,
negative,yellow,2,k,None,,,,,,,,,0,183,183,183,,,,,,,,,,,,,,,,,,,,,,,,,,,,,,,,,,,,,main,k,k,1,0.8198293000000376,626.7816359000001,None,None,0,,,,,,,,,,,,,,216,25,Female,2022-05-13_13h44.44.912,Main,2022.1.1,60.025270638868335,
positive,yellow,2,None,k,,,,,,,,,0,184,184,184,,,,,,,,,,,,,,,,,,,,,,,,,,,,,,,,,,,,,main,None,None,1,1.512130099999922,628.6058108,None,None,1,,,,,,,,,,,,,,216,25,Female,2022-05-13_13h44.44.912,Main,2022.1.1,60.025270638868335,
positive,yellow,1,None,k,,,,,,,,,0,185,185,185,,,,,,,,,,,,,,,,,,,,,,,,,,,,,,,,,,,,,main,None,None,1,1.514738800000032,631.1206033999999,None,None,1,,,,,,,,,,,,,,216,25,Female,2022-05-13_13h44.44.912,Main,2022.1.1,60.025270638868335,
positive,red,2,None,None,,,,,,,,,0,186,186,186,,,,,,,,,,,,,,,,,,,,,,,,,,,,,,,,,,,,,main,None,None,1,1.5123711000001094,633.6344405000002,None,None,1,,,,,,,,,,,,,,216,25,Female,2022-05-13_13h44.44.912,Main,2022.1.1,60.025270638868335,
positive,blue,1,k,None,,,,,,,,,0,187,187,187,,,,,,,,,,,,,,,,,,,,,,,,,,,,,,,,,,,,,main,k,k,1,0.74533990000009,636.1483722,None,None,0,,,,,,,,,,,,,,216,25,Female,2022-05-13_13h44.44.912,Main,2022.1.1,60.025270638868335,
negative,yellow,1,k,None,,,,,,,,,0,188,188,188,,,,,,,,,,,,,,,,,,,,,,,,,,,,,,,,,,,,,main,k,k,1,1.1264375000000655,637.9000288,None,None,0,,,,,,,,,,,,,,216,25,Female,2022-05-13_13h44.44.912,Main,2022.1.1,60.025270638868335,
positive,yellow,2,None,k,,,,,,,,,0,189,189,189,,,,,,,,,,,,,,,,,,,,,,,,,,,,,,,,,,,,,main,None,None,1,1.5061642999999094,640.0261625999999,None,None,1,,,,,,,,,,,,,,216,25,Female,2022-05-13_13h44.44.912,Main,2022.1.1,60.025270638868335,
negative,yellow,2,k,None,,,,,,,,,0,190,190,190,,,,,,,,,,,,,,,,,,,,,,,,,,,,,,,,,,,,,main,k,k,1,0.8389057999997931,642.5327794000002,None,None,0,,,,,,,,,,,,,,216,25,Female,2022-05-13_13h44.44.912,Main,2022.1.1,60.025270638868335,
negative,yellow,1,k,None,,,,,,,,,0,191,191,191,,,,,,,,,,,,,,,,,,,,,,,,,,,,,,,,,,,,,main,k,k,1,0.919363599999997,644.3747280999999,None,None,0,,,,,,,,,,,,,,216,25,Female,2022-05-13_13h44.44.912,Main,2022.1.1,60.025270638868335,
positive,blue,2,k,None,,,,,,,,,0,192,192,192,,,,,,,,,,,,,,,,,,,,,,,,,,,,,,,,,,,,,main,k,k,1,0.8514662000002318,646.2961336999999,None,None,0,,,,,,,,,,,,,,216,25,Female,2022-05-13_13h44.44.912,Main,2022.1.1,60.025270638868335,
positive,yellow,1,None,k,,,,,,,,,0,193,193,193,,,,,,,,,,,,,,,,,,,,,,,,,,,,,,,,,,,,,main,None,None,1,1.5028815000000577,648.1525438000001,None,None,1,,,,,,,,,,,,,,216,25,Female,2022-05-13_13h44.44.912,Main,2022.1.1,60.025270638868335,
negative,red,2,None,None,,,,,,,,,0,194,194,194,,,,,,,,,,,,,,,,,,,,,,,,,,,,,,,,,,,,,main,None,None,1,1.505683500000032,650.6562568000002,None,None,1,,,,,,,,,,,,,,216,25,Female,2022-05-13_13h44.44.912,Main,2022.1.1,60.025270638868335,
positive,red,1,None,None,,,,,,,,,0,195,195,195,,,,,,,,,,,,,,,,,,,,,,,,,,,,,,,,,,,,,main,None,None,1,1.5007275999996637,653.1623093999999,None,None,1,,,,,,,,,,,,,,216,25,Female,2022-05-13_13h44.44.912,Main,2022.1.1,60.025270638868335,
negative,blue,1,None,k,,,,,,,,,0,196,196,196,,,,,,,,,,,,,,,,,,,,,,,,,,,,,,,,,,,,,main,None,None,1,1.496343799999977,655.6665055000001,None,None,1,,,,,,,,,,,,,,216,25,Female,2022-05-13_13h44.44.912,Main,2022.1.1,60.025270638868335,
positive,blue,2,k,None,,,,,,,,,0,197,197,197,,,,,,,,,,,,,,,,,,,,,,,,,,,,,,,,,,,,,main,k,k,1,0.7775320999999167,658.162756,None,None,0,,,,,,,,,,,,,,216,25,Female,2022-05-13_13h44.44.912,Main,2022.1.1,60.025270638868335,
negative,blue,2,None,k,,,,,,,,,0,198,198,198,,,,,,,,,,,,,,,,,,,,,,,,,,,,,,,,,,,,,main,None,None,1,1.5038798999999017,659.9437476999999,None,None,1,,,,,,,,,,,,,,216,25,Female,2022-05-13_13h44.44.912,Main,2022.1.1,60.025270638868335,
negative,blue,2,None,k,,,,,,,,,0,199,199,199,,,,,,,,,,,,,,,,,,,,,,,,,,,,,,,,,,,,,main,None,None,1,1.5084469000003082,662.4509528000001,None,None,1,,,,,,,,,,,,,,216,25,Female,2022-05-13_13h44.44.912,Main,2022.1.1,60.025270638868335,
positive,blue,2,k,None,,,,,,,,,0,200,200,200,,,,,,,,,,,,,,,,,,,,,,,,,,,,,,,,,,,,,main,k,k,1,0.7370078999997531,664.9599691000001,None,None,0,,,,,,,,,,,,,,216,25,Female,2022-05-13_13h44.44.912,Main,2022.1.1,60.025270638868335,
positive,blue,2,k,None,,,,,,,,,0,201,201,201,,,,,,,,,,,,,,,,,,,,,,,,,,,,,,,,,,,,,main,k,k,1,0.8674684000002344,666.7005882999999,None,None,0,,,,,,,,,,,,,,216,25,Female,2022-05-13_13h44.44.912,Main,2022.1.1,60.025270638868335,
negative,yellow,2,k,None,,,,,,,,,0,202,202,202,,,,,,,,,,,,,,,,,,,,,,,,,,,,,,,,,,,,,main,k,k,1,0.9932179000002179,668.5697415000002,None,None,0,,,,,,,,,,,,,,216,25,Female,2022-05-13_13h44.44.912,Main,2022.1.1,60.025270638868335,
positive,red,1,None,None,,,,,,,,,0,203,203,203,,,,,,,,,,,,,,,,,,,,,,,,,,,,,,,,,,,,,main,None,None,1,1.5106038000003537,670.5624621,None,None,1,,,,,,,,,,,,,,216,25,Female,2022-05-13_13h44.44.912,Main,2022.1.1,60.025270638868335,
negative,blue,2,None,k,,,,,,,,,0,204,204,204,,,,,,,,,,,,,,,,,,,,,,,,,,,,,,,,,,,,,main,None,None,1,1.5006916000002093,673.0757276000002,None,None,1,,,,,,,,,,,,,,216,25,Female,2022-05-13_13h44.44.912,Main,2022.1.1,60.025270638868335,
negative,red,1,None,None,,,,,,,,,0,205,205,205,,,,,,,,,,,,,,,,,,,,,,,,,,,,,,,,,,,,,main,None,None,1,1.5094328999998652,675.5786572,None,None,1,,,,,,,,,,,,,,216,25,Female,2022-05-13_13h44.44.912,Main,2022.1.1,60.025270638868335,
negative,blue,2,None,k,,,,,,,,,0,206,206,206,,,,,,,,,,,,,,,,,,,,,,,,,,,,,,,,,,,,,main,None,None,1,1.5012361000003693,678.0913036,None,None,1,,,,,,,,,,,,,,216,25,Female,2022-05-13_13h44.44.912,Main,2022.1.1,60.025270638868335,
negative,yellow,2,k,None,,,,,,,,,0,207,207,207,,,,,,,,,,,,,,,,,,,,,,,,,,,,,,,,,,,,,main,k,k,1,0.7580830000001697,680.5937863000001,None,None,0,,,,,,,,,,,,,,216,25,Female,2022-05-13_13h44.44.912,Main,2022.1.1,60.025270638868335,
positive,yellow,2,None,k,,,,,,,,,0,208,208,208,,,,,,,,,,,,,,,,,,,,,,,,,,,,,,,,,,,,,main,None,None,1,1.5053923999998915,682.3569768,None,None,1,,,,,,,,,,,,,,216,25,Female,2022-05-13_13h44.44.912,Main,2022.1.1,60.025270638868335,
negative,yellow,1,k,None,,,,,,,,,0,209,209,209,,,,,,,,,,,,,,,,,,,,,,,,,,,,,,,,,,,,,main,k,k,1,0.9379650000000765,684.864691,None,None,0,,,,,,,,,,,,,,216,25,Female,2022-05-13_13h44.44.912,Main,2022.1.1,60.025270638868335,
negative,red,2,None,None,,,,,,,,,0,210,210,210,,,,,,,,,,,,,,,,,,,,,,,,,,,,,,,,,,,,,main,None,None,1,1.4986290000001645,686.8036725,None,None,1,,,,,,,,,,,,,,216,25,Female,2022-05-13_13h44.44.912,Main,2022.1.1,60.025270638868335,
negative,blue,1,None,k,,,,,,,,,0,211,211,211,,,,,,,,,,,,,,,,,,,,,,,,,,,,,,,,,,,,,main,None,None,1,1.5033300999998573,689.3041312000003,None,None,1,,,,,,,,,,,,,,216,25,Female,2022-05-13_13h44.44.912,Main,2022.1.1,60.025270638868335,
negative,yellow,1,k,None,,,,,,,,,0,212,212,212,,,,,,,,,,,,,,,,,,,,,,,,,,,,,,,,,,,,,main,k,k,1,0.9007145000000492,691.8072505000002,None,None,0,,,,,,,,,,,,,,216,25,Female,2022-05-13_13h44.44.912,Main,2022.1.1,60.025270638868335,
positive,blue,1,k,None,,,,,,,,,0,213,213,213,,,,,,,,,,,,,,,,,,,,,,,,,,,,,,,,,,,,,main,k,k,1,0.9968644000000495,693.7098143000001,None,None,0,,,,,,,,,,,,,,216,25,Female,2022-05-13_13h44.44.912,Main,2022.1.1,60.025270638868335,
positive,blue,1,k,None,,,,,,,,,0,214,214,214,,,,,,,,,,,,,,,,,,,,,,,,,,,,,,,,,,,,,main,k,k,1,1.0968056000001525,695.7083378,None,None,0,,,,,,,,,,,,,,216,25,Female,2022-05-13_13h44.44.912,Main,2022.1.1,60.025270638868335,
positive,yellow,1,None,k,,,,,,,,,0,215,215,215,,,,,,,,,,,,,,,,,,,,,,,,,,,,,,,,,,,,,main,None,None,1,1.4957650000001195,697.8062562000002,None,None,1,,,,,,,,,,,,,,216,25,Female,2022-05-13_13h44.44.912,Main,2022.1.1,60.025270638868335,
positive,yellow,1,None,k,,,,,,,,,0,216,216,216,,,,,,,,,,,,,,,,,,,,,,,,,,,,,,,,,,,,,main,None,None,1,1.5043888000000152,700.305599,None,None,1,,,,,,,,,,,,,,216,25,Female,2022-05-13_13h44.44.912,Main,2022.1.1,60.025270638868335,
positive,yellow,2,None,k,,,,,,,,,0,217,217,217,,,,,,,,,,,,,,,,,,,,,,,,,,,,,,,,,,,,,main,None,None,1,1.5104902000002767,702.8136069999998,None,None,1,,,,,,,,,,,,,,216,25,Female,2022-05-13_13h44.44.912,Main,2022.1.1,60.025270638868335,
negative,blue,1,None,k,,,,,,,,,0,218,218,218,,,,,,,,,,,,,,,,,,,,,,,,,,,,,,,,,,,,,main,None,None,1,1.5074823999998443,705.3256359,None,None,1,,,,,,,,,,,,,,216,25,Female,2022-05-13_13h44.44.912,Main,2022.1.1,60.025270638868335,
positive,red,2,None,None,,,,,,,,,0,219,219,219,,,,,,,,,,,,,,,,,,,,,,,,,,,,,,,,,,,,,main,None,None,1,1.510093699999743,707.8353938000002,None,None,1,,,,,,,,,,,,,,216,25,Female,2022-05-13_13h44.44.912,Main,2022.1.1,60.025270638868335,
positive,yellow,1,None,k,,,,,,,,,0,220,220,220,,,,,,,,,,,,,,,,,,,,,,,,,,,,,,,,,,,,,main,None,None,1,1.5099279999999453,710.3472767000001,None,None,1,,,,,,,,,,,,,,216,25,Female,2022-05-13_13h44.44.912,Main,2022.1.1,60.025270638868335,
positive,blue,1,k,None,,,,,,,,,0,221,221,221,,,,,,,,,,,,,,,,,,,,,,,,,,,,,,,,,,,,,main,k,k,1,0.8665461000000505,712.8567199000001,None,None,0,,,,,,,,,,,,,,216,25,Female,2022-05-13_13h44.44.912,Main,2022.1.1,60.025270638868335,
positive,yellow,2,None,k,,,,,,,,,0,222,222,222,,,,,,,,,,,,,,,,,,,,,,,,,,,,,,,,,,,,,main,None,None,1,1.5038204999996196,714.7274998,None,None,1,,,,,,,,,,,,,,216,25,Female,2022-05-13_13h44.44.912,Main,2022.1.1,60.025270638868335,
negative,yellow,1,k,None,,,,,,,,,0,223,223,223,,,,,,,,,,,,,,,,,,,,,,,,,,,,,,,,,,,,,main,k,k,1,0.8060930000001463,717.232366,None,None,0,,,,,,,,,,,,,,216,25,Female,2022-05-13_13h44.44.912,Main,2022.1.1,60.025270638868335,
positive,yellow,2,None,k,,,,,,,,,0,224,224,224,,,,,,,,,,,,,,,,,,,,,,,,,,,,,,,,,,,,,main,None,None,1,1.510946100000183,719.0374923000002,None,None,1,,,,,,,,,,,,,,216,25,Female,2022-05-13_13h44.44.912,Main,2022.1.1,60.025270638868335,
negative,yellow,2,k,None,,,,,,,,,0,225,225,225,,,,,,,,,,,,,,,,,,,,,,,,,,,,,,,,,,,,,main,k,k,1,1.3671109000001707,721.5526290999999,None,None,0,,,,,,,,,,,,,,216,25,Female,2022-05-13_13h44.44.912,Main,2022.1.1,60.025270638868335,
negative,blue,2,None,k,,,,,,,,,0,226,226,226,,,,,,,,,,,,,,,,,,,,,,,,,,,,,,,,,,,,,main,None,None,1,1.4987953999998354,723.9218515999999,None,None,1,,,,,,,,,,,,,,216,25,Female,2022-05-13_13h44.44.912,Main,2022.1.1,60.025270638868335,
positive,red,2,None,None,,,,,,,,,0,227,227,227,,,,,,,,,,,,,,,,,,,,,,,,,,,,,,,,,,,,,main,None,None,1,1.5074962000003325,726.4220548999999,None,None,1,,,,,,,,,,,,,,216,25,Female,2022-05-13_13h44.44.912,Main,2022.1.1,60.025270638868335,
positive,blue,2,k,None,,,,,,,,,0,228,228,228,,,,,,,,,,,,,,,,,,,,,,,,,,,,,,,,,,,,,main,k,k,1,0.8230867000002036,728.9319905999998,None,None,0,,,,,,,,,,,,,,216,25,Female,2022-05-13_13h44.44.912,Main,2022.1.1,60.025270638868335,
negative,blue,1,None,k,,,,,,,,,0,229,229,229,,,,,,,,,,,,,,,,,,,,,,,,,,,,,,,,,,,,,main,None,None,1,1.4973883000002388,730.7552908999999,None,None,1,,,,,,,,,,,,,,216,25,Female,2022-05-13_13h44.44.912,Main,2022.1.1,60.025270638868335,
positive,yellow,1,None,k,,,,,,,,,0,230,230,230,,,,,,,,,,,,,,,,,,,,,,,,,,,,,,,,,,,,,main,None,None,1,1.5036190000000715,733.2538698999999,None,None,1,,,,,,,,,,,,,,216,25,Female,2022-05-13_13h44.44.912,Main,2022.1.1,60.025270638868335,
negative,blue,2,None,k,,,,,,,,,0,231,231,231,,,,,,,,,,,,,,,,,,,,,,,,,,,,,,,,,,,,,main,None,None,1,1.496547599999758,735.7612495000001,None,None,1,,,,,,,,,,,,,,216,25,Female,2022-05-13_13h44.44.912,Main,2022.1.1,60.025270638868335,
negative,red,1,None,None,,,,,,,,,0,232,232,232,,,,,,,,,,,,,,,,,,,,,,,,,,,,,,,,,,,,,main,None,None,1,1.5098299000001134,738.2604739000001,None,None,1,,,,,,,,,,,,,,216,25,Female,2022-05-13_13h44.44.912,Main,2022.1.1,60.025270638868335,
positive,blue,2,k,None,,,,,,,,,0,233,233,233,,,,,,,,,,,,,,,,,,,,,,,,,,,,,,,,,,,,,main,k,k,1,0.9191210000003593,740.7691480000001,None,None,0,,,,,,,,,,,,,,216,25,Female,2022-05-13_13h44.44.912,Main,2022.1.1,60.025270638868335,
negative,yellow,1,k,None,,,,,,,,,0,234,234,234,,,,,,,,,,,,,,,,,,,,,,,,,,,,,,,,,,,,,main,k,k,1,0.9576460999996925,742.6910842999998,None,None,0,,,,,,,,,,,,,,216,25,Female,2022-05-13_13h44.44.912,Main,2022.1.1,60.025270638868335,
negative,yellow,2,k,None,,,,,,,,,0,235,235,235,,,,,,,,,,,,,,,,,,,,,,,,,,,,,,,,,,,,,main,k,k,1,0.9459771000001638,744.6497096999999,None,None,0,,,,,,,,,,,,,,216,25,Female,2022-05-13_13h44.44.912,Main,2022.1.1,60.025270638868335,
positive,red,1,None,None,,,,,,,,,0,236,236,236,,,,,,,,,,,,,,,,,,,,,,,,,,,,,,,,,,,,,main,None,None,1,1.5008004999999685,746.5985354000002,None,None,1,,,,,,,,,,,,,,216,25,Female,2022-05-13_13h44.44.912,Main,2022.1.1,60.025270638868335,
negative,red,2,None,None,,,,,,,,,0,237,237,237,,,,,,,,,,,,,,,,,,,,,,,,,,,,,,,,,,,,,main,None,None,1,1.5012971000001016,749.1036884000002,None,None,1,,,,,,,,,,,,,,216,25,Female,2022-05-13_13h44.44.912,Main,2022.1.1,60.025270638868335,
negative,blue,1,None,k,,,,,,,,,0,238,238,238,,,,,,,,,,,,,,,,,,,,,,,,,,,,,,,,,,,,,main,None,None,1,1.510334199999761,751.6062431000003,None,None,1,,,,,,,,,,,,,,216,25,Female,2022-05-13_13h44.44.912,Main,2022.1.1,60.025270638868335,
positive,blue,1,k,None,,,,,,,,,0,239,239,239,,,,,,,,,,,,,,,,,,,,,,,,,,,,,,,,,,,,,main,k,k,1,0.9773565000000417,754.1161345000003,None,None,0,,,,,,,,,,,,,,216,25,Female,2022-05-13_13h44.44.912,Main,2022.1.1,60.025270638868335,
,,,,,,,,,,,,,,,,,,,,,,,,,,,,,,,,,,,,,,,,,,,,,,,,,,,,,,,,,,,,,,,,,,,,,,,,,756.085922,None,,,,,,,,
