distractor,target,set,ans1,ans2,rep_loop4.thisRepN,rep_loop4.thisTrialN,rep_loop4.thisN,rep_loop4.thisIndex,st2_prac_loop.thisRepN,st2_prac_loop.thisTrialN,st2_prac_loop.thisN,st2_prac_loop.thisIndex,st2_main_loop.thisRepN,st2_main_loop.thisTrialN,st2_main_loop.thisN,st2_main_loop.thisIndex,image_4.started,image_4.stopped,mouse_7.x,mouse_7.y,mouse_7.leftButton,mouse_7.midButton,mouse_7.rightButton,sound_2.started,sound_2.stopped,key_resp_3.keys,mouse_5.x,mouse_5.y,mouse_5.leftButton,mouse_5.midButton,mouse_5.rightButton,mouse_5.started,mouse_5.stopped,yes_text2.started,yes_text2.stopped,no_text2.started,no_text2.stopped,mouse_3.x,mouse_3.y,mouse_3.leftButton,mouse_3.midButton,mouse_3.rightButton,mouse_3.started,mouse_3.stopped,st_prac_back.started,st_prac_back.stopped,st_prac_text.started,st_prac_text.stopped,st_fix_back.started,st_fix_back.stopped,st_fix_2.started,st_fix_2.stopped,main_prac,st_ans,st_res,st_corr,st_rt,st_back.started,st_back.stopped,st2_resp.keys,st2_resp.corr,st_main_back.started,st_main_back.stopped,st_main_text.started,st_main_text.stopped,mouse_4.x,mouse_4.y,mouse_4.leftButton,mouse_4.midButton,mouse_4.rightButton,mouse_4.started,mouse_4.stopped,text_2.started,text_2.stopped,id*,age*,gender*,date,expName,psychopyVersion,frameRate,
,,,,,,,,,,,,,,,,,28.23276820000001,None,-0.0009259259,-0.107407406,0,0,0,,,,,,,,,,,,,,,,,,,,,,,,,,,,,,,,,,,,,,,,,,,,,,,,,,,,217,24,Male,2022-05-17_13h49.27.394,Main,2022.1.1,60.02829733940217,
negative,yellow,1,k,None,,,,,0,0,0,0,,,,,,,,,,,,33.9966080900002,None,None,0.28611112,-0.047222223,0,0,0,1.0157559099993705,None,88.48911240000007,None,88.48911240000007,None,-0.09259259,-0.09074074,0,0,0,0.012708590000329423,None,90.89481010000009,None,90.89481010000009,None,92.90735110000014,None,92.90735110000014,None,prac,None,None,1,1.4922770999996828,94.95177610000019,None,None,1,,,,,,,,,,,,,,217,24,Male,2022-05-17_13h49.27.394,Main,2022.1.1,60.02829733940217,
positive,red,2,None,None,,,,,0,1,1,1,,,,,,,,,,,,,,,,,,,,,,,,,,,,,,,,,,,,,,,,,prac,None,None,1,1.5044505000000754,97.43574160000026,None,None,1,,,,,,,,,,,,,,217,24,Male,2022-05-17_13h49.27.394,Main,2022.1.1,60.02829733940217,
negative,blue,2,None,k,,,,,0,2,2,2,,,,,,,,,,,,,,,,,,,,,,,,,,,,,,,,,,,,,,,,,prac,k,k,1,2.7623913000002176,99.94204339999987,None,None,0,,,,,,,,,,,,,,217,24,Male,2022-05-17_13h49.27.394,Main,2022.1.1,60.02829733940217,
positive,yellow,1,None,k,,,,,0,3,3,3,,,,,,,,,,,,,,,,,,,,,,,,,,,,,,,,,,,,,,,,,prac,k,k,1,1.2694655999998758,104.7498771999999,None,None,0,,,,,,,,,,,,,,217,24,Male,2022-05-17_13h49.27.394,Main,2022.1.1,60.02829733940217,
negative,blue,2,None,k,,,,,0,4,4,4,,,,,,,,,,,,,,,,,,,,,,,,,,,,,,,,,,,,,,,,,prac,k,k,1,1.1771626999998261,107.01972030000024,None,None,0,,,,,,,,,,,,,,217,24,Male,2022-05-17_13h49.27.394,Main,2022.1.1,60.02829733940217,
negative,blue,1,None,k,,,,,0,5,5,5,,,,,,,,,,,,,,,,,,,,,,,,,,,,,,,,,,,,,,,,,prac,k,k,1,1.1092990000001919,109.20184340000014,None,None,0,,,,,,,,,,,,,,217,24,Male,2022-05-17_13h49.27.394,Main,2022.1.1,60.02829733940217,
negative,yellow,2,k,None,,,,,0,6,6,6,,,,,,,,,,,,,,,,,,,,,,,,,,,,,,,,,,,,,,,,,prac,None,None,1,1.504117099999803,111.30146540000032,None,None,1,,,,,,,,,,,,,,217,24,Male,2022-05-17_13h49.27.394,Main,2022.1.1,60.02829733940217,
negative,red,1,None,None,,,,,0,7,7,7,,,,,,,,,,,,,,,,,,,,,,,,,,,,,,,,,,,,,,,,,prac,None,None,1,1.503434599999764,113.80962739999995,None,None,1,,,,,,,,,,,,,,217,24,Male,2022-05-17_13h49.27.394,Main,2022.1.1,60.02829733940217,
positive,yellow,2,None,k,,,,,0,8,8,8,,,,,,,,,,,,,,,,,,,,,,,,,,,,,,,,,,,,,,,,,prac,k,k,1,1.2067663999996512,116.32201810000015,None,None,0,,,,,,,,,,,,,,217,24,Male,2022-05-17_13h49.27.394,Main,2022.1.1,60.02829733940217,
negative,yellow,1,k,None,,,,,0,9,9,9,,,,,,,,,,,,,,,,,,,,,,,,,,,,,,,,,,,,,,,,,prac,None,None,1,1.5130987000002278,118.51923639999995,None,None,1,,,,,,,,,,,,,,217,24,Male,2022-05-17_13h49.27.394,Main,2022.1.1,60.02829733940217,
positive,yellow,2,None,k,,,,,0,10,10,10,,,,,,,,,,,,,,,,,,,,,,,,,,,,,,,,,,,,,,,,,prac,k,k,1,3.7605106000000887,121.03820089999999,None,None,0,,,,,,,,,,,,,,217,24,Male,2022-05-17_13h49.27.394,Main,2022.1.1,60.02829733940217,
negative,yellow,2,k,None,,,,,0,11,11,11,,,,,,,,,,,,,,,,,,,,,,,,,,,,,,,,,,,,,,,,,prac,None,None,1,1.504385899999761,126.80432819999987,None,None,1,,,,,,,,,,,,,,217,24,Male,2022-05-17_13h49.27.394,Main,2022.1.1,60.02829733940217,
negative,red,2,None,None,,,,,0,12,12,12,,,,,,,,,,,,,,,,,,,,,,,,,,,,,,,,,,,,,,,,,prac,None,k,0,0.9905843000001369,129.3095112000001,None,None,1,,,,,,,,,,,,,,217,24,Male,2022-05-17_13h49.27.394,Main,2022.1.1,60.02829733940217,
positive,red,1,None,None,,,,,0,13,13,13,,,,,,,,,,,,,,,,,,,,,,,,,,,,,,,,,,,,,,,,,prac,None,None,1,1.4981606000001193,132.3292332000001,None,None,1,,,,,,,,,,,,,,217,24,Male,2022-05-17_13h49.27.394,Main,2022.1.1,60.02829733940217,
positive,blue,2,k,None,,,,,0,14,14,14,,,,,,,,,,,,,,,,,,,,,,,,,,,,,,,,,,,,,,,,,prac,None,None,1,1.497471399999995,134.81666480000013,None,None,1,,,,,,,,,,,,,,217,24,Male,2022-05-17_13h49.27.394,Main,2022.1.1,60.02829733940217,
positive,blue,1,k,None,,,,,0,15,15,15,,,,,,,,,,,,,,,,,,,,,,,,,,,,,,,,,,,,,,,,,prac,None,None,1,1.4982592999999724,137.3165724999999,None,None,1,,,,,,,,,,,,,,217,24,Male,2022-05-17_13h49.27.394,Main,2022.1.1,60.02829733940217,
negative,blue,1,None,k,,,,,0,16,16,16,,,,,,,,,,,,,,,,,,,,,,,,,,,,,,,,,,,,,,,,,prac,k,k,1,1.021873300000152,139.81636030000027,None,None,0,,,,,,,,,,,,,,217,24,Male,2022-05-17_13h49.27.394,Main,2022.1.1,60.02829733940217,
positive,blue,2,k,None,,,,,0,17,17,17,,,,,,,,,,,,,,,,,,,,,,,,,,,,,,,,,,,,,,,,,prac,None,None,1,1.5078770999998596,141.84179140000015,None,None,1,,,,,,,,,,,,,,217,24,Male,2022-05-17_13h49.27.394,Main,2022.1.1,60.02829733940217,
positive,blue,1,k,None,,,,,0,18,18,18,,,,,,,,,,,,,,,,,,,,,,,,,,,,,,,,,,,,,,,,,prac,None,None,1,1.5067988000000696,144.34874590000027,None,None,1,,,,,,,,,,,,,,217,24,Male,2022-05-17_13h49.27.394,Main,2022.1.1,60.02829733940217,
positive,yellow,1,None,k,,,,,0,19,19,19,,,,,,,,,,,,,,,,,,,,,,,,,,,,,,,,,,,,,,,,,prac,k,k,1,1.2219886000002589,146.85872850000032,None,None,0,,,,,,,,,,,,,,217,24,Male,2022-05-17_13h49.27.394,Main,2022.1.1,60.02829733940217,
negative,yellow,1,k,None,,,,,1,0,20,0,,,,,,,,,,,,,,,,,,,,,,,,,,,,,,,,,,,,,,,,,prac,None,None,1,1.5142869999999675,149.0856733999999,None,None,1,,,,,,,,,,,,,,217,24,Male,2022-05-17_13h49.27.394,Main,2022.1.1,60.02829733940217,
positive,red,2,None,None,,,,,1,1,21,1,,,,,,,,,,,,,,,,,,,,,,,,,,,,,,,,,,,,,,,,,prac,None,None,1,1.5017706999997245,151.59787219999998,None,None,1,,,,,,,,,,,,,,217,24,Male,2022-05-17_13h49.27.394,Main,2022.1.1,60.02829733940217,
negative,blue,2,None,k,,,,,1,2,22,2,,,,,,,,,,,,,,,,,,,,,,,,,,,,,,,,,,,,,,,,,prac,k,k,1,1.1454266000000644,154.10455730000012,None,None,0,,,,,,,,,,,,,,217,24,Male,2022-05-17_13h49.27.394,Main,2022.1.1,60.02829733940217,
positive,yellow,1,None,k,,,,,1,3,23,3,,,,,,,,,,,,,,,,,,,,,,,,,,,,,,,,,,,,,,,,,prac,k,k,1,0.8644760999995924,156.2527973000001,None,None,0,,,,,,,,,,,,,,217,24,Male,2022-05-17_13h49.27.394,Main,2022.1.1,60.02829733940217,
negative,blue,2,None,k,,,,,1,4,24,4,,,,,,,,,,,,,,,,,,,,,,,,,,,,,,,,,,,,,,,,,prac,k,k,1,0.9092477999997755,158.1137060000001,None,None,0,,,,,,,,,,,,,,217,24,Male,2022-05-17_13h49.27.394,Main,2022.1.1,60.02829733940217,
negative,blue,1,None,k,,,,,1,5,25,5,,,,,,,,,,,,,,,,,,,,,,,,,,,,,,,,,,,,,,,,,prac,k,k,1,0.9674399000000449,160.0308646000003,None,None,0,,,,,,,,,,,,,,217,24,Male,2022-05-17_13h49.27.394,Main,2022.1.1,60.02829733940217,
negative,yellow,2,k,None,,,,,1,6,26,6,,,,,,,,,,,,,,,,,,,,,,,,,,,,,,,,,,,,,,,,,prac,None,None,1,1.4976393000001735,162.00081450000016,None,None,1,,,,,,,,,,,,,,217,24,Male,2022-05-17_13h49.27.394,Main,2022.1.1,60.02829733940217,
negative,red,1,None,None,,,,,1,7,27,7,,,,,,,,,,,,,,,,,,,,,,,,,,,,,,,,,,,,,,,,,prac,None,None,1,1.4984982999999374,164.49983049999992,None,None,1,,,,,,,,,,,,,,217,24,Male,2022-05-17_13h49.27.394,Main,2022.1.1,60.02829733940217,
positive,yellow,2,None,k,,,,,1,8,28,8,,,,,,,,,,,,,,,,,,,,,,,,,,,,,,,,,,,,,,,,,prac,k,k,1,0.9160460000002786,166.99557370000002,None,None,0,,,,,,,,,,,,,,217,24,Male,2022-05-17_13h49.27.394,Main,2022.1.1,60.02829733940217,
negative,yellow,1,k,None,,,,,1,9,29,9,,,,,,,,,,,,,,,,,,,,,,,,,,,,,,,,,,,,,,,,,prac,None,None,1,1.5137746999998853,168.91735900000003,None,None,1,,,,,,,,,,,,,,217,24,Male,2022-05-17_13h49.27.394,Main,2022.1.1,60.02829733940217,
positive,yellow,2,None,k,,,,,1,10,30,10,,,,,,,,,,,,,,,,,,,,,,,,,,,,,,,,,,,,,,,,,prac,k,k,1,0.7815358999996533,171.43163820000018,None,None,0,,,,,,,,,,,,,,217,24,Male,2022-05-17_13h49.27.394,Main,2022.1.1,60.02829733940217,
negative,yellow,2,k,None,,,,,1,11,31,11,,,,,,,,,,,,,,,,,,,,,,,,,,,,,,,,,,,,,,,,,prac,None,None,1,1.5015573999999106,173.21519770000032,None,None,1,,,,,,,,,,,,,,217,24,Male,2022-05-17_13h49.27.394,Main,2022.1.1,60.02829733940217,
negative,red,2,None,None,,,,,1,12,32,12,,,,,,,,,,,,,,,,,,,,,,,,,,,,,,,,,,,,,,,,,prac,None,None,1,1.5099695999997493,175.71824000000015,None,None,1,,,,,,,,,,,,,,217,24,Male,2022-05-17_13h49.27.394,Main,2022.1.1,60.02829733940217,
positive,red,1,None,None,,,,,1,13,33,13,,,,,,,,,,,,,,,,,,,,,,,,,,,,,,,,,,,,,,,,,prac,None,None,1,1.5099219000003359,178.2302391000003,None,None,1,,,,,,,,,,,,,,217,24,Male,2022-05-17_13h49.27.394,Main,2022.1.1,60.02829733940217,
positive,blue,2,k,None,,,,,1,14,34,14,,,,,,,,,,,,,,,,,,,,,,,,,,,,,,,,,,,,,,,,,prac,None,None,1,1.507364399999915,180.7395561000003,None,None,1,,,,,,,,,,,,,,217,24,Male,2022-05-17_13h49.27.394,Main,2022.1.1,60.02829733940217,
positive,blue,1,k,None,,,,,1,15,35,15,,,,,,,,,,,,,,,,,,,,,,,,,,,,,,,,,,,,,,,,,prac,None,None,1,1.5059221999999863,183.25076179999996,None,None,1,,,,,,,,,,,,,,217,24,Male,2022-05-17_13h49.27.394,Main,2022.1.1,60.02829733940217,
negative,blue,1,None,k,,,,,1,16,36,16,,,,,,,,,,,,,,,,,,,,,,,,,,,,,,,,,,,,,,,,,prac,k,k,1,0.8153206999995746,185.7568822000003,None,None,0,,,,,,,,,,,,,,217,24,Male,2022-05-17_13h49.27.394,Main,2022.1.1,60.02829733940217,
positive,blue,2,k,None,,,,,1,17,37,17,,,,,,,,,,,,,,,,,,,,,,,,,,,,,,,,,,,,,,,,,prac,None,None,1,1.5035084999999526,187.57480970000006,None,None,1,,,,,,,,,,,,,,217,24,Male,2022-05-17_13h49.27.394,Main,2022.1.1,60.02829733940217,
positive,blue,1,k,None,,,,,1,18,38,18,,,,,,,,,,,,,,,,,,,,,,,,,,,,,,,,,,,,,,,,,prac,None,None,1,1.5145363000001453,190.0844245000003,None,None,1,,,,,,,,,,,,,,217,24,Male,2022-05-17_13h49.27.394,Main,2022.1.1,60.02829733940217,
positive,yellow,1,None,k,,,,,1,19,39,19,,,,,,,,,,,,,,,,,,,,,,,,,,,,,,,,,,,,,,,,,prac,k,k,1,0.9681971999998495,192.5994452,None,None,0,,,,,,,,,,,,,,217,24,Male,2022-05-17_13h49.27.394,Main,2022.1.1,60.02829733940217,
,,,,,,,,,,,,,,,,,,,,,,,,,,,,,,,,,,,,,,,,,,,,,,,,,,,,,,,,,,,,,,194.58180119999997,None,194.58180119999997,None,0.087037034,-0.13055556,0,0,0,0.01169019000053595,None,,,217,24,Male,2022-05-17_13h49.27.394,Main,2022.1.1,60.02829733940217,
negative,yellow,2,k,None,,,,,,,,,0,0,0,0,,,,,,,,,,,,,,,,,,,,,,,,,,,,,,,,,195.9789920000003,None,195.9789920000003,None,main,None,None,1,1.501537300000109,198.04635690000032,None,None,1,,,,,,,,,,,,,,217,24,Male,2022-05-17_13h49.27.394,Main,2022.1.1,60.02829733940217,
positive,red,1,None,None,,,,,,,,,0,1,1,1,,,,,,,,,,,,,,,,,,,,,,,,,,,,,,,,,,,,,main,None,None,1,1.498827600000368,200.55188950000002,None,None,1,,,,,,,,,,,,,,217,24,Male,2022-05-17_13h49.27.394,Main,2022.1.1,60.02829733940217,
positive,blue,2,k,None,,,,,,,,,0,2,2,2,,,,,,,,,,,,,,,,,,,,,,,,,,,,,,,,,,,,,main,None,None,1,1.4956170999998903,203.0523379000001,None,None,1,,,,,,,,,,,,,,217,24,Male,2022-05-17_13h49.27.394,Main,2022.1.1,60.02829733940217,
positive,blue,1,k,None,,,,,,,,,0,3,3,3,,,,,,,,,,,,,,,,,,,,,,,,,,,,,,,,,,,,,main,None,None,1,1.5036858000003122,205.55028440000024,None,None,1,,,,,,,,,,,,,,217,24,Male,2022-05-17_13h49.27.394,Main,2022.1.1,60.02829733940217,
negative,yellow,2,k,None,,,,,,,,,0,4,4,4,,,,,,,,,,,,,,,,,,,,,,,,,,,,,,,,,,,,,main,None,None,1,1.499772699999994,208.05438230000027,None,None,1,,,,,,,,,,,,,,217,24,Male,2022-05-17_13h49.27.394,Main,2022.1.1,60.02829733940217,
positive,yellow,2,None,k,,,,,,,,,0,5,5,5,,,,,,,,,,,,,,,,,,,,,,,,,,,,,,,,,,,,,main,k,k,1,0.8575098999999682,210.55547780000006,None,None,0,,,,,,,,,,,,,,217,24,Male,2022-05-17_13h49.27.394,Main,2022.1.1,60.02829733940217,
negative,blue,2,None,k,,,,,,,,,0,6,6,6,,,,,,,,,,,,,,,,,,,,,,,,,,,,,,,,,,,,,main,k,k,1,0.8126475999997638,212.4169053999999,None,None,0,,,,,,,,,,,,,,217,24,Male,2022-05-17_13h49.27.394,Main,2022.1.1,60.02829733940217,
positive,red,2,None,None,,,,,,,,,0,7,7,7,,,,,,,,,,,,,,,,,,,,,,,,,,,,,,,,,,,,,main,None,None,1,1.4984756999997444,214.2317564,None,None,1,,,,,,,,,,,,,,217,24,Male,2022-05-17_13h49.27.394,Main,2022.1.1,60.02829733940217,
positive,yellow,1,None,k,,,,,,,,,0,8,8,8,,,,,,,,,,,,,,,,,,,,,,,,,,,,,,,,,,,,,main,k,k,1,0.8166303000002699,216.7319636000002,None,None,0,,,,,,,,,,,,,,217,24,Male,2022-05-17_13h49.27.394,Main,2022.1.1,60.02829733940217,
negative,red,1,None,None,,,,,,,,,0,9,9,9,,,,,,,,,,,,,,,,,,,,,,,,,,,,,,,,,,,,,main,None,None,1,1.495956500000375,218.54995499999995,None,None,1,,,,,,,,,,,,,,217,24,Male,2022-05-17_13h49.27.394,Main,2022.1.1,60.02829733940217,
positive,yellow,1,None,k,,,,,,,,,0,10,10,10,,,,,,,,,,,,,,,,,,,,,,,,,,,,,,,,,,,,,main,k,k,1,1.1019632000002275,221.0516147000003,None,None,0,,,,,,,,,,,,,,217,24,Male,2022-05-17_13h49.27.394,Main,2022.1.1,60.02829733940217,
negative,yellow,1,k,None,,,,,,,,,0,11,11,11,,,,,,,,,,,,,,,,,,,,,,,,,,,,,,,,,,,,,main,None,None,1,1.5067186999999649,223.1553417,None,None,1,,,,,,,,,,,,,,217,24,Male,2022-05-17_13h49.27.394,Main,2022.1.1,60.02829733940217,
negative,yellow,1,k,None,,,,,,,,,0,12,12,12,,,,,,,,,,,,,,,,,,,,,,,,,,,,,,,,,,,,,main,None,None,1,1.4957054999999855,225.6656564,None,None,1,,,,,,,,,,,,,,217,24,Male,2022-05-17_13h49.27.394,Main,2022.1.1,60.02829733940217,
negative,red,2,None,None,,,,,,,,,0,13,13,13,,,,,,,,,,,,,,,,,,,,,,,,,,,,,,,,,,,,,main,None,None,1,1.503801199999998,228.16342450000002,None,None,1,,,,,,,,,,,,,,217,24,Male,2022-05-17_13h49.27.394,Main,2022.1.1,60.02829733940217,
positive,yellow,2,None,k,,,,,,,,,0,14,14,14,,,,,,,,,,,,,,,,,,,,,,,,,,,,,,,,,,,,,main,k,k,1,0.8614233999996941,230.66854490000014,None,None,0,,,,,,,,,,,,,,217,24,Male,2022-05-17_13h49.27.394,Main,2022.1.1,60.02829733940217,
positive,blue,1,k,None,,,,,,,,,0,15,15,15,,,,,,,,,,,,,,,,,,,,,,,,,,,,,,,,,,,,,main,None,None,1,1.5025510000000395,232.5339841,None,None,1,,,,,,,,,,,,,,217,24,Male,2022-05-17_13h49.27.394,Main,2022.1.1,60.02829733940217,
negative,blue,1,None,k,,,,,,,,,0,16,16,16,,,,,,,,,,,,,,,,,,,,,,,,,,,,,,,,,,,,,main,k,k,1,0.9508660999999847,235.03693599999997,None,None,0,,,,,,,,,,,,,,217,24,Male,2022-05-17_13h49.27.394,Main,2022.1.1,60.02829733940217,
positive,blue,2,k,None,,,,,,,,,0,17,17,17,,,,,,,,,,,,,,,,,,,,,,,,,,,,,,,,,,,,,main,None,None,1,1.495118900000307,236.99321480000026,None,None,1,,,,,,,,,,,,,,217,24,Male,2022-05-17_13h49.27.394,Main,2022.1.1,60.02829733940217,
negative,blue,2,None,k,,,,,,,,,0,18,18,18,,,,,,,,,,,,,,,,,,,,,,,,,,,,,,,,,,,,,main,k,k,1,1.092503399999714,239.48915160000024,None,None,0,,,,,,,,,,,,,,217,24,Male,2022-05-17_13h49.27.394,Main,2022.1.1,60.02829733940217,
negative,blue,1,None,k,,,,,,,,,0,19,19,19,,,,,,,,,,,,,,,,,,,,,,,,,,,,,,,,,,,,,main,k,k,1,1.1547482000000855,241.5838506,None,None,0,,,,,,,,,,,,,,217,24,Male,2022-05-17_13h49.27.394,Main,2022.1.1,60.02829733940217,
negative,blue,1,None,k,,,,,,,,,0,20,20,20,,,,,,,,,,,,,,,,,,,,,,,,,,,,,,,,,,,,,main,k,k,1,0.8636596000001191,243.73661690000017,None,None,0,,,,,,,,,,,,,,217,24,Male,2022-05-17_13h49.27.394,Main,2022.1.1,60.02829733940217,
negative,blue,2,None,k,,,,,,,,,0,21,21,21,,,,,,,,,,,,,,,,,,,,,,,,,,,,,,,,,,,,,main,k,k,1,0.8600404999997409,245.60190869999997,None,None,0,,,,,,,,,,,,,,217,24,Male,2022-05-17_13h49.27.394,Main,2022.1.1,60.02829733940217,
negative,red,1,None,None,,,,,,,,,0,22,22,22,,,,,,,,,,,,,,,,,,,,,,,,,,,,,,,,,,,,,main,None,None,1,1.5058398000001034,247.46508820000008,None,None,1,,,,,,,,,,,,,,217,24,Male,2022-05-17_13h49.27.394,Main,2022.1.1,60.02829733940217,
positive,red,2,None,None,,,,,,,,,0,23,23,23,,,,,,,,,,,,,,,,,,,,,,,,,,,,,,,,,,,,,main,None,None,1,1.5107668000000558,249.9761527999999,None,None,1,,,,,,,,,,,,,,217,24,Male,2022-05-17_13h49.27.394,Main,2022.1.1,60.02829733940217,
negative,red,2,None,None,,,,,,,,,0,24,24,24,,,,,,,,,,,,,,,,,,,,,,,,,,,,,,,,,,,,,main,None,None,1,1.5019035000000258,252.4845648999999,None,None,1,,,,,,,,,,,,,,217,24,Male,2022-05-17_13h49.27.394,Main,2022.1.1,60.02829733940217,
positive,blue,2,k,None,,,,,,,,,0,25,25,25,,,,,,,,,,,,,,,,,,,,,,,,,,,,,,,,,,,,,main,None,None,1,1.5113400000000183,254.99171250000018,None,None,1,,,,,,,,,,,,,,217,24,Male,2022-05-17_13h49.27.394,Main,2022.1.1,60.02829733940217,
negative,yellow,1,k,None,,,,,,,,,0,26,26,26,,,,,,,,,,,,,,,,,,,,,,,,,,,,,,,,,,,,,main,None,None,1,1.5080586000003677,257.50067450000006,None,None,1,,,,,,,,,,,,,,217,24,Male,2022-05-17_13h49.27.394,Main,2022.1.1,60.02829733940217,
positive,blue,2,k,None,,,,,,,,,0,27,27,27,,,,,,,,,,,,,,,,,,,,,,,,,,,,,,,,,,,,,main,None,None,1,1.5137642999998207,260.0123458000003,None,None,1,,,,,,,,,,,,,,217,24,Male,2022-05-17_13h49.27.394,Main,2022.1.1,60.02829733940217,
negative,blue,2,None,k,,,,,,,,,0,28,28,28,,,,,,,,,,,,,,,,,,,,,,,,,,,,,,,,,,,,,main,k,k,1,0.7729852000002211,262.52789340000027,None,None,0,,,,,,,,,,,,,,217,24,Male,2022-05-17_13h49.27.394,Main,2022.1.1,60.02829733940217,
positive,red,1,None,None,,,,,,,,,0,29,29,29,,,,,,,,,,,,,,,,,,,,,,,,,,,,,,,,,,,,,main,None,None,1,1.5141568999997617,264.3004811999999,None,None,1,,,,,,,,,,,,,,217,24,Male,2022-05-17_13h49.27.394,Main,2022.1.1,60.02829733940217,
positive,blue,1,k,None,,,,,,,,,0,30,30,30,,,,,,,,,,,,,,,,,,,,,,,,,,,,,,,,,,,,,main,None,None,1,1.5066729999998643,266.8162559000002,None,None,1,,,,,,,,,,,,,,217,24,Male,2022-05-17_13h49.27.394,Main,2022.1.1,60.02829733940217,
positive,yellow,1,None,k,,,,,,,,,0,31,31,31,,,,,,,,,,,,,,,,,,,,,,,,,,,,,,,,,,,,,main,k,k,1,0.7419880000002195,269.32632680000006,None,None,0,,,,,,,,,,,,,,217,24,Male,2022-05-17_13h49.27.394,Main,2022.1.1,60.02829733940217,
negative,yellow,2,k,None,,,,,,,,,0,32,32,32,,,,,,,,,,,,,,,,,,,,,,,,,,,,,,,,,,,,,main,None,None,1,1.5125637000001007,271.07191420000026,None,None,1,,,,,,,,,,,,,,217,24,Male,2022-05-17_13h49.27.394,Main,2022.1.1,60.02829733940217,
negative,blue,1,None,k,,,,,,,,,0,33,33,33,,,,,,,,,,,,,,,,,,,,,,,,,,,,,,,,,,,,,main,k,k,1,0.8880340000000615,273.58204950000027,None,None,0,,,,,,,,,,,,,,217,24,Male,2022-05-17_13h49.27.394,Main,2022.1.1,60.02829733940217,
positive,blue,1,k,None,,,,,,,,,0,34,34,34,,,,,,,,,,,,,,,,,,,,,,,,,,,,,,,,,,,,,main,None,None,1,1.5089304999996784,275.4745465000001,None,None,1,,,,,,,,,,,,,,217,24,Male,2022-05-17_13h49.27.394,Main,2022.1.1,60.02829733940217,
negative,yellow,1,k,None,,,,,,,,,0,35,35,35,,,,,,,,,,,,,,,,,,,,,,,,,,,,,,,,,,,,,main,None,None,1,1.498233899999832,277.98193500000025,None,None,1,,,,,,,,,,,,,,217,24,Male,2022-05-17_13h49.27.394,Main,2022.1.1,60.02829733940217,
positive,yellow,2,None,k,,,,,,,,,0,36,36,36,,,,,,,,,,,,,,,,,,,,,,,,,,,,,,,,,,,,,main,k,k,1,0.7479944000001524,280.4815858000002,None,None,0,,,,,,,,,,,,,,217,24,Male,2022-05-17_13h49.27.394,Main,2022.1.1,60.02829733940217,
positive,yellow,2,None,k,,,,,,,,,0,37,37,37,,,,,,,,,,,,,,,,,,,,,,,,,,,,,,,,,,,,,main,k,k,1,0.7940511000001607,282.2306991999999,None,None,0,,,,,,,,,,,,,,217,24,Male,2022-05-17_13h49.27.394,Main,2022.1.1,60.02829733940217,
negative,yellow,2,k,None,,,,,,,,,0,38,38,38,,,,,,,,,,,,,,,,,,,,,,,,,,,,,,,,,,,,,main,None,None,1,1.5063003000000208,284.0316631999999,None,None,1,,,,,,,,,,,,,,217,24,Male,2022-05-17_13h49.27.394,Main,2022.1.1,60.02829733940217,
positive,yellow,1,None,k,,,,,,,,,0,39,39,39,,,,,,,,,,,,,,,,,,,,,,,,,,,,,,,,,,,,,main,k,k,1,0.7415255999999317,286.5392737000002,None,None,0,,,,,,,,,,,,,,217,24,Male,2022-05-17_13h49.27.394,Main,2022.1.1,60.02829733940217,
negative,yellow,2,k,None,,,,,,,,,0,40,40,40,,,,,,,,,,,,,,,,,,,,,,,,,,,,,,,,,,,,,main,None,None,1,1.4997065000002294,288.2833667,None,None,1,,,,,,,,,,,,,,217,24,Male,2022-05-17_13h49.27.394,Main,2022.1.1,60.02829733940217,
positive,blue,2,k,None,,,,,,,,,0,41,41,41,,,,,,,,,,,,,,,,,,,,,,,,,,,,,,,,,,,,,main,None,None,1,1.5010122999997293,290.7805862,None,None,1,,,,,,,,,,,,,,217,24,Male,2022-05-17_13h49.27.394,Main,2022.1.1,60.02829733940217,
positive,blue,2,k,None,,,,,,,,,0,42,42,42,,,,,,,,,,,,,,,,,,,,,,,,,,,,,,,,,,,,,main,None,None,1,1.5067153999998482,293.2873629999999,None,None,1,,,,,,,,,,,,,,217,24,Male,2022-05-17_13h49.27.394,Main,2022.1.1,60.02829733940217,
negative,blue,2,None,k,,,,,,,,,0,43,43,43,,,,,,,,,,,,,,,,,,,,,,,,,,,,,,,,,,,,,main,k,k,1,0.8384120000000621,295.79362420000007,None,None,0,,,,,,,,,,,,,,217,24,Male,2022-05-17_13h49.27.394,Main,2022.1.1,60.02829733940217,
negative,red,1,None,None,,,,,,,,,0,44,44,44,,,,,,,,,,,,,,,,,,,,,,,,,,,,,,,,,,,,,main,None,None,1,1.499435700000049,297.6362438000001,None,None,1,,,,,,,,,,,,,,217,24,Male,2022-05-17_13h49.27.394,Main,2022.1.1,60.02829733940217,
negative,yellow,1,k,None,,,,,,,,,0,45,45,45,,,,,,,,,,,,,,,,,,,,,,,,,,,,,,,,,,,,,main,None,None,1,1.5081371999999647,300.1378437000003,None,None,1,,,,,,,,,,,,,,217,24,Male,2022-05-17_13h49.27.394,Main,2022.1.1,60.02829733940217,
negative,yellow,1,k,None,,,,,,,,,0,46,46,46,,,,,,,,,,,,,,,,,,,,,,,,,,,,,,,,,,,,,main,None,None,1,1.5029329999997572,302.64783420000003,None,None,1,,,,,,,,,,,,,,217,24,Male,2022-05-17_13h49.27.394,Main,2022.1.1,60.02829733940217,
positive,red,1,None,None,,,,,,,,,0,47,47,47,,,,,,,,,,,,,,,,,,,,,,,,,,,,,,,,,,,,,main,None,None,1,1.5087689000001774,305.15318449999995,None,None,1,,,,,,,,,,,,,,217,24,Male,2022-05-17_13h49.27.394,Main,2022.1.1,60.02829733940217,
positive,yellow,1,None,k,,,,,,,,,0,48,48,48,,,,,,,,,,,,,,,,,,,,,,,,,,,,,,,,,,,,,main,k,k,1,1.0151410999997097,307.6629143,None,None,0,,,,,,,,,,,,,,217,24,Male,2022-05-17_13h49.27.394,Main,2022.1.1,60.02829733940217,
negative,blue,1,None,k,,,,,,,,,0,49,49,49,,,,,,,,,,,,,,,,,,,,,,,,,,,,,,,,,,,,,main,k,k,1,0.9994741000000431,309.67585020000024,None,None,0,,,,,,,,,,,,,,217,24,Male,2022-05-17_13h49.27.394,Main,2022.1.1,60.02829733940217,
positive,yellow,2,None,k,,,,,,,,,0,50,50,50,,,,,,,,,,,,,,,,,,,,,,,,,,,,,,,,,,,,,main,k,k,1,0.8833879999997407,311.6811514000001,None,None,0,,,,,,,,,,,,,,217,24,Male,2022-05-17_13h49.27.394,Main,2022.1.1,60.02829733940217,
negative,blue,1,None,k,,,,,,,,,0,51,51,51,,,,,,,,,,,,,,,,,,,,,,,,,,,,,,,,,,,,,main,k,k,1,0.947762999999668,313.5674530000001,None,None,0,,,,,,,,,,,,,,217,24,Male,2022-05-17_13h49.27.394,Main,2022.1.1,60.02829733940217,
positive,red,2,None,None,,,,,,,,,0,52,52,52,,,,,,,,,,,,,,,,,,,,,,,,,,,,,,,,,,,,,main,None,None,1,1.5003402000002097,315.51509810000016,None,None,1,,,,,,,,,,,,,,217,24,Male,2022-05-17_13h49.27.394,Main,2022.1.1,60.02829733940217,
positive,yellow,2,None,k,,,,,,,,,0,53,53,53,,,,,,,,,,,,,,,,,,,,,,,,,,,,,,,,,,,,,main,k,k,1,0.9605750000000626,318.0163812999999,None,None,0,,,,,,,,,,,,,,217,24,Male,2022-05-17_13h49.27.394,Main,2022.1.1,60.02829733940217,
negative,red,2,None,None,,,,,,,,,0,54,54,54,,,,,,,,,,,,,,,,,,,,,,,,,,,,,,,,,,,,,main,None,None,1,1.5051585999999588,319.9782441000002,None,None,1,,,,,,,,,,,,,,217,24,Male,2022-05-17_13h49.27.394,Main,2022.1.1,60.02829733940217,
positive,yellow,1,None,k,,,,,,,,,0,55,55,55,,,,,,,,,,,,,,,,,,,,,,,,,,,,,,,,,,,,,main,k,k,1,0.9194078000000445,322.48427919999995,None,None,0,,,,,,,,,,,,,,217,24,Male,2022-05-17_13h49.27.394,Main,2022.1.1,60.02829733940217,
negative,blue,2,None,k,,,,,,,,,0,56,56,56,,,,,,,,,,,,,,,,,,,,,,,,,,,,,,,,,,,,,main,k,k,1,0.9891914999998335,324.40459420000025,None,None,0,,,,,,,,,,,,,,217,24,Male,2022-05-17_13h49.27.394,Main,2022.1.1,60.02829733940217,
positive,blue,1,k,None,,,,,,,,,0,57,57,57,,,,,,,,,,,,,,,,,,,,,,,,,,,,,,,,,,,,,main,None,None,1,1.5115384000000631,326.39892740000005,None,None,1,,,,,,,,,,,,,,217,24,Male,2022-05-17_13h49.27.394,Main,2022.1.1,60.02829733940217,
positive,blue,1,k,None,,,,,,,,,0,58,58,58,,,,,,,,,,,,,,,,,,,,,,,,,,,,,,,,,,,,,main,None,None,1,1.5148182000002635,328.9078429000001,None,None,1,,,,,,,,,,,,,,217,24,Male,2022-05-17_13h49.27.394,Main,2022.1.1,60.02829733940217,
negative,yellow,2,k,None,,,,,,,,,0,59,59,59,,,,,,,,,,,,,,,,,,,,,,,,,,,,,,,,,,,,,main,None,None,1,1.5156222999999045,331.4245956,None,None,1,,,,,,,,,,,,,,217,24,Male,2022-05-17_13h49.27.394,Main,2022.1.1,60.02829733940217,
positive,red,2,None,None,,,,,,,,,0,60,60,60,,,,,,,,,,,,,,,,,,,,,,,,,,,,,,,,,,,,,main,None,None,1,1.497606899999937,333.9403000000002,None,None,1,,,,,,,,,,,,,,217,24,Male,2022-05-17_13h49.27.394,Main,2022.1.1,60.02829733940217,
negative,yellow,1,k,None,,,,,,,,,0,61,61,61,,,,,,,,,,,,,,,,,,,,,,,,,,,,,,,,,,,,,main,None,None,1,1.5151332000000366,336.44028419999995,None,None,1,,,,,,,,,,,,,,217,24,Male,2022-05-17_13h49.27.394,Main,2022.1.1,60.02829733940217,
negative,red,1,None,None,,,,,,,,,0,62,62,62,,,,,,,,,,,,,,,,,,,,,,,,,,,,,,,,,,,,,main,None,None,1,1.5079706999999871,338.96026040000015,None,None,1,,,,,,,,,,,,,,217,24,Male,2022-05-17_13h49.27.394,Main,2022.1.1,60.02829733940217,
negative,blue,1,None,k,,,,,,,,,0,63,63,63,,,,,,,,,,,,,,,,,,,,,,,,,,,,,,,,,,,,,main,k,k,1,0.9745523999999932,341.4701100000002,None,None,0,,,,,,,,,,,,,,217,24,Male,2022-05-17_13h49.27.394,Main,2022.1.1,60.02829733940217,
positive,blue,2,k,None,,,,,,,,,0,64,64,64,,,,,,,,,,,,,,,,,,,,,,,,,,,,,,,,,,,,,main,None,None,1,1.5105510999997023,343.4467909,None,None,1,,,,,,,,,,,,,,217,24,Male,2022-05-17_13h49.27.394,Main,2022.1.1,60.02829733940217,
negative,yellow,2,k,None,,,,,,,,,0,65,65,65,,,,,,,,,,,,,,,,,,,,,,,,,,,,,,,,,,,,,main,None,None,1,1.5097093999997924,345.9551495999999,None,None,1,,,,,,,,,,,,,,217,24,Male,2022-05-17_13h49.27.394,Main,2022.1.1,60.02829733940217,
positive,yellow,2,None,k,,,,,,,,,0,66,66,66,,,,,,,,,,,,,,,,,,,,,,,,,,,,,,,,,,,,,main,k,k,1,0.7970491999999467,348.4690478000002,None,None,0,,,,,,,,,,,,,,217,24,Male,2022-05-17_13h49.27.394,Main,2022.1.1,60.02829733940217,
positive,yellow,2,None,k,,,,,,,,,0,67,67,67,,,,,,,,,,,,,,,,,,,,,,,,,,,,,,,,,,,,,main,k,k,1,0.7326166000002559,350.2713554000002,None,None,0,,,,,,,,,,,,,,217,24,Male,2022-05-17_13h49.27.394,Main,2022.1.1,60.02829733940217,
positive,red,1,None,None,,,,,,,,,0,68,68,68,,,,,,,,,,,,,,,,,,,,,,,,,,,,,,,,,,,,,main,None,None,1,1.5038363999997273,352.00459630000023,None,None,1,,,,,,,,,,,,,,217,24,Male,2022-05-17_13h49.27.394,Main,2022.1.1,60.02829733940217,
positive,yellow,1,None,k,,,,,,,,,0,69,69,69,,,,,,,,,,,,,,,,,,,,,,,,,,,,,,,,,,,,,main,k,k,1,1.140187099999821,354.5131620000002,None,None,0,,,,,,,,,,,,,,217,24,Male,2022-05-17_13h49.27.394,Main,2022.1.1,60.02829733940217,
negative,yellow,2,k,None,,,,,,,,,0,70,70,70,,,,,,,,,,,,,,,,,,,,,,,,,,,,,,,,,,,,,main,None,None,1,1.501211200000398,356.65206639999997,None,None,1,,,,,,,,,,,,,,217,24,Male,2022-05-17_13h49.27.394,Main,2022.1.1,60.02829733940217,
positive,yellow,1,None,k,,,,,,,,,0,71,71,71,,,,,,,,,,,,,,,,,,,,,,,,,,,,,,,,,,,,,main,k,k,1,0.8126351000000795,359.1597981,None,None,0,,,,,,,,,,,,,,217,24,Male,2022-05-17_13h49.27.394,Main,2022.1.1,60.02829733940217,
negative,blue,1,None,k,,,,,,,,,0,72,72,72,,,,,,,,,,,,,,,,,,,,,,,,,,,,,,,,,,,,,main,k,k,1,0.98634039999979,360.9692485999999,None,None,0,,,,,,,,,,,,,,217,24,Male,2022-05-17_13h49.27.394,Main,2022.1.1,60.02829733940217,
negative,red,2,None,None,,,,,,,,,0,73,73,73,,,,,,,,,,,,,,,,,,,,,,,,,,,,,,,,,,,,,main,None,None,1,1.500441299999693,362.96321350000017,None,None,1,,,,,,,,,,,,,,217,24,Male,2022-05-17_13h49.27.394,Main,2022.1.1,60.02829733940217,
positive,blue,2,k,None,,,,,,,,,0,74,74,74,,,,,,,,,,,,,,,,,,,,,,,,,,,,,,,,,,,,,main,None,None,1,1.4992612999999437,365.4660289000003,None,None,1,,,,,,,,,,,,,,217,24,Male,2022-05-17_13h49.27.394,Main,2022.1.1,60.02829733940217,
negative,blue,2,None,k,,,,,,,,,0,75,75,75,,,,,,,,,,,,,,,,,,,,,,,,,,,,,,,,,,,,,main,k,k,1,0.8901875999999902,367.96264680000013,None,None,0,,,,,,,,,,,,,,217,24,Male,2022-05-17_13h49.27.394,Main,2022.1.1,60.02829733940217,
negative,blue,2,None,k,,,,,,,,,0,76,76,76,,,,,,,,,,,,,,,,,,,,,,,,,,,,,,,,,,,,,main,k,k,1,0.8812501000002158,369.85227140000006,None,None,0,,,,,,,,,,,,,,217,24,Male,2022-05-17_13h49.27.394,Main,2022.1.1,60.02829733940217,
negative,yellow,1,k,None,,,,,,,,,0,77,77,77,,,,,,,,,,,,,,,,,,,,,,,,,,,,,,,,,,,,,main,None,None,1,1.5146334999999453,371.7352083999999,None,None,1,,,,,,,,,,,,,,217,24,Male,2022-05-17_13h49.27.394,Main,2022.1.1,60.02829733940217,
positive,blue,1,k,None,,,,,,,,,0,78,78,78,,,,,,,,,,,,,,,,,,,,,,,,,,,,,,,,,,,,,main,None,None,1,1.4980061000001115,374.30994090000013,None,None,1,,,,,,,,,,,,,,217,24,Male,2022-05-17_13h49.27.394,Main,2022.1.1,60.02829733940217,
positive,blue,1,k,None,,,,,,,,,0,79,79,79,,,,,,,,,,,,,,,,,,,,,,,,,,,,,,,,,,,,,main,None,None,1,1.4981174999998075,376.75108450000016,None,None,1,,,,,,,,,,,,,,217,24,Male,2022-05-17_13h49.27.394,Main,2022.1.1,60.02829733940217,
positive,red,2,None,None,,,,,,,,,0,80,80,80,,,,,,,,,,,,,,,,,,,,,,,,,,,,,,,,,,,,,main,None,None,1,1.5051642999997057,379.25013910000007,None,None,1,,,,,,,,,,,,,,217,24,Male,2022-05-17_13h49.27.394,Main,2022.1.1,60.02829733940217,
positive,yellow,2,None,k,,,,,,,,,0,81,81,81,,,,,,,,,,,,,,,,,,,,,,,,,,,,,,,,,,,,,main,k,k,1,1.0156684999997196,381.76099999999997,None,None,0,,,,,,,,,,,,,,217,24,Male,2022-05-17_13h49.27.394,Main,2022.1.1,60.02829733940217,
positive,blue,1,k,None,,,,,,,,,0,82,82,82,,,,,,,,,,,,,,,,,,,,,,,,,,,,,,,,,,,,,main,None,None,1,1.5070144999999684,383.77650700000004,None,None,1,,,,,,,,,,,,,,217,24,Male,2022-05-17_13h49.27.394,Main,2022.1.1,60.02829733940217,
negative,yellow,2,k,None,,,,,,,,,0,83,83,83,,,,,,,,,,,,,,,,,,,,,,,,,,,,,,,,,,,,,main,None,None,1,1.5039612999999008,386.2885784,None,None,1,,,,,,,,,,,,,,217,24,Male,2022-05-17_13h49.27.394,Main,2022.1.1,60.02829733940217,
positive,blue,2,k,None,,,,,,,,,0,84,84,84,,,,,,,,,,,,,,,,,,,,,,,,,,,,,,,,,,,,,main,None,None,1,1.5082422000000406,388.79246030000013,None,None,1,,,,,,,,,,,,,,217,24,Male,2022-05-17_13h49.27.394,Main,2022.1.1,60.02829733940217,
positive,yellow,1,None,k,,,,,,,,,0,85,85,85,,,,,,,,,,,,,,,,,,,,,,,,,,,,,,,,,,,,,main,k,k,1,0.8303879999998571,391.2995141000001,None,None,0,,,,,,,,,,,,,,217,24,Male,2022-05-17_13h49.27.394,Main,2022.1.1,60.02829733940217,
positive,blue,2,k,None,,,,,,,,,0,86,86,86,,,,,,,,,,,,,,,,,,,,,,,,,,,,,,,,,,,,,main,None,None,1,1.5027905000001738,393.1320555000002,None,None,1,,,,,,,,,,,,,,217,24,Male,2022-05-17_13h49.27.394,Main,2022.1.1,60.02829733940217,
positive,blue,1,k,None,,,,,,,,,0,87,87,87,,,,,,,,,,,,,,,,,,,,,,,,,,,,,,,,,,,,,main,None,None,1,1.4952806000001146,395.6399375000001,None,None,1,,,,,,,,,,,,,,217,24,Male,2022-05-17_13h49.27.394,Main,2022.1.1,60.02829733940217,
negative,yellow,2,k,None,,,,,,,,,0,88,88,88,,,,,,,,,,,,,,,,,,,,,,,,,,,,,,,,,,,,,main,None,None,1,1.5110610000001543,398.13289620000023,None,None,1,,,,,,,,,,,,,,217,24,Male,2022-05-17_13h49.27.394,Main,2022.1.1,60.02829733940217,
negative,blue,2,None,k,,,,,,,,,0,89,89,89,,,,,,,,,,,,,,,,,,,,,,,,,,,,,,,,,,,,,main,k,k,1,1.0678818999999748,400.6472810999999,None,None,0,,,,,,,,,,,,,,217,24,Male,2022-05-17_13h49.27.394,Main,2022.1.1,60.02829733940217,
positive,yellow,2,None,k,,,,,,,,,0,90,90,90,,,,,,,,,,,,,,,,,,,,,,,,,,,,,,,,,,,,,main,k,k,1,0.8979720000002089,402.7159108999999,None,None,0,,,,,,,,,,,,,,217,24,Male,2022-05-17_13h49.27.394,Main,2022.1.1,60.02829733940217,
negative,yellow,1,k,None,,,,,,,,,0,91,91,91,,,,,,,,,,,,,,,,,,,,,,,,,,,,,,,,,,,,,main,None,None,1,1.5007077999998728,404.6163993,None,None,1,,,,,,,,,,,,,,217,24,Male,2022-05-17_13h49.27.394,Main,2022.1.1,60.02829733940217,
negative,red,2,None,None,,,,,,,,,0,92,92,92,,,,,,,,,,,,,,,,,,,,,,,,,,,,,,,,,,,,,main,None,None,1,1.4938139000000774,407.1214090000003,None,None,1,,,,,,,,,,,,,,217,24,Male,2022-05-17_13h49.27.394,Main,2022.1.1,60.02829733940217,
negative,blue,2,None,k,,,,,,,,,0,93,93,93,,,,,,,,,,,,,,,,,,,,,,,,,,,,,,,,,,,,,main,k,k,1,0.9647608999998738,409.6168158999999,None,None,0,,,,,,,,,,,,,,217,24,Male,2022-05-17_13h49.27.394,Main,2022.1.1,60.02829733940217,
negative,blue,1,None,k,,,,,,,,,0,94,94,94,,,,,,,,,,,,,,,,,,,,,,,,,,,,,,,,,,,,,main,k,k,1,0.8919281000003139,411.5839441000003,None,None,0,,,,,,,,,,,,,,217,24,Male,2022-05-17_13h49.27.394,Main,2022.1.1,60.02829733940217,
negative,blue,1,None,k,,,,,,,,,0,95,95,95,,,,,,,,,,,,,,,,,,,,,,,,,,,,,,,,,,,,,main,k,k,1,0.9072369999998955,413.47564779999993,None,None,0,,,,,,,,,,,,,,217,24,Male,2022-05-17_13h49.27.394,Main,2022.1.1,60.02829733940217,
negative,red,1,None,None,,,,,,,,,0,96,96,96,,,,,,,,,,,,,,,,,,,,,,,,,,,,,,,,,,,,,main,None,None,1,1.5077519999999822,415.38545440000007,None,None,1,,,,,,,,,,,,,,217,24,Male,2022-05-17_13h49.27.394,Main,2022.1.1,60.02829733940217,
positive,yellow,1,None,k,,,,,,,,,0,97,97,97,,,,,,,,,,,,,,,,,,,,,,,,,,,,,,,,,,,,,main,k,k,1,1.1848605000000134,417.89375629999995,None,None,0,,,,,,,,,,,,,,217,24,Male,2022-05-17_13h49.27.394,Main,2022.1.1,60.02829733940217,
negative,yellow,1,k,None,,,,,,,,,0,98,98,98,,,,,,,,,,,,,,,,,,,,,,,,,,,,,,,,,,,,,main,None,None,1,1.511754799999835,420.0817667000001,None,None,1,,,,,,,,,,,,,,217,24,Male,2022-05-17_13h49.27.394,Main,2022.1.1,60.02829733940217,
positive,red,1,None,None,,,,,,,,,0,99,99,99,,,,,,,,,,,,,,,,,,,,,,,,,,,,,,,,,,,,,main,None,None,1,1.5056375999997726,422.59450719999995,None,None,1,,,,,,,,,,,,,,217,24,Male,2022-05-17_13h49.27.394,Main,2022.1.1,60.02829733940217,
positive,blue,1,k,None,,,,,,,,,0,100,100,100,,,,,,,,,,,,,,,,,,,,,,,,,,,,,,,,,,,,,main,None,None,1,1.508277100000214,425.10459519999995,None,None,1,,,,,,,,,,,,,,217,24,Male,2022-05-17_13h49.27.394,Main,2022.1.1,60.02829733940217,
negative,yellow,1,k,None,,,,,,,,,0,101,101,101,,,,,,,,,,,,,,,,,,,,,,,,,,,,,,,,,,,,,main,None,None,1,1.4987559999999576,427.61572049999995,None,None,1,,,,,,,,,,,,,,217,24,Male,2022-05-17_13h49.27.394,Main,2022.1.1,60.02829733940217,
negative,blue,2,None,k,,,,,,,,,0,102,102,102,,,,,,,,,,,,,,,,,,,,,,,,,,,,,,,,,,,,,main,k,k,1,1.0457189999997354,430.1113997000002,None,None,0,,,,,,,,,,,,,,217,24,Male,2022-05-17_13h49.27.394,Main,2022.1.1,60.02829733940217,
negative,yellow,2,k,None,,,,,,,,,0,103,103,103,,,,,,,,,,,,,,,,,,,,,,,,,,,,,,,,,,,,,main,None,None,1,1.5030252999999902,432.1599977999999,None,None,1,,,,,,,,,,,,,,217,24,Male,2022-05-17_13h49.27.394,Main,2022.1.1,60.02829733940217,
positive,yellow,2,None,k,,,,,,,,,0,104,104,104,,,,,,,,,,,,,,,,,,,,,,,,,,,,,,,,,,,,,main,k,k,1,0.8683394000004228,434.66782030000013,None,None,0,,,,,,,,,,,,,,217,24,Male,2022-05-17_13h49.27.394,Main,2022.1.1,60.02829733940217,
positive,blue,1,k,None,,,,,,,,,0,105,105,105,,,,,,,,,,,,,,,,,,,,,,,,,,,,,,,,,,,,,main,None,None,1,1.5079384999999093,436.5361576999999,None,None,1,,,,,,,,,,,,,,217,24,Male,2022-05-17_13h49.27.394,Main,2022.1.1,60.02829733940217,
positive,blue,2,k,None,,,,,,,,,0,106,106,106,,,,,,,,,,,,,,,,,,,,,,,,,,,,,,,,,,,,,main,None,None,1,1.4982906000000185,439.0436516,None,None,1,,,,,,,,,,,,,,217,24,Male,2022-05-17_13h49.27.394,Main,2022.1.1,60.02829733940217,
negative,blue,1,None,k,,,,,,,,,0,107,107,107,,,,,,,,,,,,,,,,,,,,,,,,,,,,,,,,,,,,,main,k,k,1,0.949143599999843,441.54417850000027,None,None,0,,,,,,,,,,,,,,217,24,Male,2022-05-17_13h49.27.394,Main,2022.1.1,60.02829733940217,
positive,yellow,2,None,k,,,,,,,,,0,108,108,108,,,,,,,,,,,,,,,,,,,,,,,,,,,,,,,,,,,,,main,k,k,1,0.9295775999999023,443.4941421000003,None,None,0,,,,,,,,,,,,,,217,24,Male,2022-05-17_13h49.27.394,Main,2022.1.1,60.02829733940217,
negative,yellow,1,k,None,,,,,,,,,0,109,109,109,,,,,,,,,,,,,,,,,,,,,,,,,,,,,,,,,,,,,main,None,None,1,1.4996162000002187,445.4253162,None,None,1,,,,,,,,,,,,,,217,24,Male,2022-05-17_13h49.27.394,Main,2022.1.1,60.02829733940217,
negative,blue,2,None,k,,,,,,,,,0,110,110,110,,,,,,,,,,,,,,,,,,,,,,,,,,,,,,,,,,,,,main,k,k,1,1.0719825999999557,447.9295681000003,None,None,0,,,,,,,,,,,,,,217,24,Male,2022-05-17_13h49.27.394,Main,2022.1.1,60.02829733940217,
positive,blue,2,k,None,,,,,,,,,0,111,111,111,,,,,,,,,,,,,,,,,,,,,,,,,,,,,,,,,,,,,main,None,None,1,1.494380000000092,450.0010725000002,None,None,1,,,,,,,,,,,,,,217,24,Male,2022-05-17_13h49.27.394,Main,2022.1.1,60.02829733940217,
negative,blue,1,None,k,,,,,,,,,0,112,112,112,,,,,,,,,,,,,,,,,,,,,,,,,,,,,,,,,,,,,main,k,k,1,0.798482900000181,452.49889710000025,None,None,0,,,,,,,,,,,,,,217,24,Male,2022-05-17_13h49.27.394,Main,2022.1.1,60.02829733940217,
positive,yellow,1,None,k,,,,,,,,,0,113,113,113,,,,,,,,,,,,,,,,,,,,,,,,,,,,,,,,,,,,,main,k,k,1,0.9322988999997506,454.2996347000003,None,None,0,,,,,,,,,,,,,,217,24,Male,2022-05-17_13h49.27.394,Main,2022.1.1,60.02829733940217,
negative,red,1,None,None,,,,,,,,,0,114,114,114,,,,,,,,,,,,,,,,,,,,,,,,,,,,,,,,,,,,,main,None,None,1,1.4997865999998794,456.2327977,None,None,1,,,,,,,,,,,,,,217,24,Male,2022-05-17_13h49.27.394,Main,2022.1.1,60.02829733940217,
positive,red,1,None,None,,,,,,,,,0,115,115,115,,,,,,,,,,,,,,,,,,,,,,,,,,,,,,,,,,,,,main,None,None,1,1.4959701000002497,458.73336610000024,None,None,1,,,,,,,,,,,,,,217,24,Male,2022-05-17_13h49.27.394,Main,2022.1.1,60.02829733940217,
negative,red,2,None,None,,,,,,,,,0,116,116,116,,,,,,,,,,,,,,,,,,,,,,,,,,,,,,,,,,,,,main,None,None,1,1.5032805999999255,461.2314329999999,None,None,1,,,,,,,,,,,,,,217,24,Male,2022-05-17_13h49.27.394,Main,2022.1.1,60.02829733940217,
negative,yellow,2,k,None,,,,,,,,,0,117,117,117,,,,,,,,,,,,,,,,,,,,,,,,,,,,,,,,,,,,,main,None,k,0,1.2894093000004432,463.7351920000001,None,None,1,,,,,,,,,,,,,,217,24,Male,2022-05-17_13h49.27.394,Main,2022.1.1,60.02829733940217,
positive,yellow,1,None,k,,,,,,,,,0,118,118,118,,,,,,,,,,,,,,,,,,,,,,,,,,,,,,,,,,,,,main,k,k,1,1.0991758999998638,467.04368049999994,None,None,0,,,,,,,,,,,,,,217,24,Male,2022-05-17_13h49.27.394,Main,2022.1.1,60.02829733940217,
positive,red,2,None,None,,,,,,,,,0,119,119,119,,,,,,,,,,,,,,,,,,,,,,,,,,,,,,,,,,,,,main,None,None,1,1.4960455000000366,469.1414996000003,None,None,1,,,,,,,,,,,,,,217,24,Male,2022-05-17_13h49.27.394,Main,2022.1.1,60.02829733940217,
positive,blue,2,k,None,,,,,,,,,0,120,120,120,,,,,,,,,,,,,,,,,,,,,,,,,,,,,,,,,,,,,main,None,None,1,1.4980447000002641,471.6427480000002,None,None,1,,,,,,,,,,,,,,217,24,Male,2022-05-17_13h49.27.394,Main,2022.1.1,60.02829733940217,
negative,red,1,None,None,,,,,,,,,0,121,121,121,,,,,,,,,,,,,,,,,,,,,,,,,,,,,,,,,,,,,main,None,None,1,1.506503000000066,474.1381348,None,None,1,,,,,,,,,,,,,,217,24,Male,2022-05-17_13h49.27.394,Main,2022.1.1,60.02829733940217,
positive,yellow,2,None,k,,,,,,,,,0,122,122,122,,,,,,,,,,,,,,,,,,,,,,,,,,,,,,,,,,,,,main,k,k,1,0.9682597999999416,476.64927639999996,None,None,0,,,,,,,,,,,,,,217,24,Male,2022-05-17_13h49.27.394,Main,2022.1.1,60.02829733940217,
negative,red,2,None,None,,,,,,,,,0,123,123,123,,,,,,,,,,,,,,,,,,,,,,,,,,,,,,,,,,,,,main,None,None,1,1.5080323000001954,478.6209452000003,None,None,1,,,,,,,,,,,,,,217,24,Male,2022-05-17_13h49.27.394,Main,2022.1.1,60.02829733940217,
negative,yellow,2,k,None,,,,,,,,,0,124,124,124,,,,,,,,,,,,,,,,,,,,,,,,,,,,,,,,,,,,,main,None,None,1,1.5009478000001764,481.1310612000002,None,None,1,,,,,,,,,,,,,,217,24,Male,2022-05-17_13h49.27.394,Main,2022.1.1,60.02829733940217,
positive,red,1,None,None,,,,,,,,,0,125,125,125,,,,,,,,,,,,,,,,,,,,,,,,,,,,,,,,,,,,,main,None,None,1,1.505523599999833,483.6322411000001,None,None,1,,,,,,,,,,,,,,217,24,Male,2022-05-17_13h49.27.394,Main,2022.1.1,60.02829733940217,
negative,blue,2,None,k,,,,,,,,,0,126,126,126,,,,,,,,,,,,,,,,,,,,,,,,,,,,,,,,,,,,,main,k,k,1,0.9928795999999238,486.13784970000006,None,None,0,,,,,,,,,,,,,,217,24,Male,2022-05-17_13h49.27.394,Main,2022.1.1,60.02829733940217,
negative,blue,1,None,k,,,,,,,,,0,127,127,127,,,,,,,,,,,,,,,,,,,,,,,,,,,,,,,,,,,,,main,k,k,1,0.8422444000002542,488.1352387000002,None,None,0,,,,,,,,,,,,,,217,24,Male,2022-05-17_13h49.27.394,Main,2022.1.1,60.02829733940217,
negative,yellow,1,k,None,,,,,,,,,0,128,128,128,,,,,,,,,,,,,,,,,,,,,,,,,,,,,,,,,,,,,main,None,None,1,1.5067113999998583,489.9801241,None,None,1,,,,,,,,,,,,,,217,24,Male,2022-05-17_13h49.27.394,Main,2022.1.1,60.02829733940217,
negative,yellow,1,k,None,,,,,,,,,0,129,129,129,,,,,,,,,,,,,,,,,,,,,,,,,,,,,,,,,,,,,main,None,None,1,1.4977905999999166,492.4862562000003,None,None,1,,,,,,,,,,,,,,217,24,Male,2022-05-17_13h49.27.394,Main,2022.1.1,60.02829733940217,
positive,blue,1,k,None,,,,,,,,,0,130,130,130,,,,,,,,,,,,,,,,,,,,,,,,,,,,,,,,,,,,,main,None,None,1,1.5156533999997919,494.9855680999999,None,None,1,,,,,,,,,,,,,,217,24,Male,2022-05-17_13h49.27.394,Main,2022.1.1,60.02829733940217,
negative,blue,1,None,k,,,,,,,,,0,131,131,131,,,,,,,,,,,,,,,,,,,,,,,,,,,,,,,,,,,,,main,k,k,1,0.9833149999999478,497.5062992000003,None,None,0,,,,,,,,,,,,,,217,24,Male,2022-05-17_13h49.27.394,Main,2022.1.1,60.02829733940217,
negative,blue,2,None,k,,,,,,,,,0,132,132,132,,,,,,,,,,,,,,,,,,,,,,,,,,,,,,,,,,,,,main,k,k,1,0.7904483000002074,499.49117449999994,None,None,0,,,,,,,,,,,,,,217,24,Male,2022-05-17_13h49.27.394,Main,2022.1.1,60.02829733940217,
positive,blue,2,k,None,,,,,,,,,0,133,133,133,,,,,,,,,,,,,,,,,,,,,,,,,,,,,,,,,,,,,main,None,None,1,1.497931299999891,501.2845467000002,None,None,1,,,,,,,,,,,,,,217,24,Male,2022-05-17_13h49.27.394,Main,2022.1.1,60.02829733940217,
positive,red,2,None,None,,,,,,,,,0,134,134,134,,,,,,,,,,,,,,,,,,,,,,,,,,,,,,,,,,,,,main,None,None,1,1.5064938999998958,503.7825585999999,None,None,1,,,,,,,,,,,,,,217,24,Male,2022-05-17_13h49.27.394,Main,2022.1.1,60.02829733940217,
negative,yellow,2,k,None,,,,,,,,,0,135,135,135,,,,,,,,,,,,,,,,,,,,,,,,,,,,,,,,,,,,,main,None,None,1,1.5092726999996557,506.2941687000002,None,None,1,,,,,,,,,,,,,,217,24,Male,2022-05-17_13h49.27.394,Main,2022.1.1,60.02829733940217,
positive,yellow,2,None,k,,,,,,,,,0,136,136,136,,,,,,,,,,,,,,,,,,,,,,,,,,,,,,,,,,,,,main,k,k,1,0.8528465999997934,508.8020689,None,None,0,,,,,,,,,,,,,,217,24,Male,2022-05-17_13h49.27.394,Main,2022.1.1,60.02829733940217,
positive,blue,1,k,None,,,,,,,,,0,137,137,137,,,,,,,,,,,,,,,,,,,,,,,,,,,,,,,,,,,,,main,None,None,1,1.5134343999998237,510.66031599999997,None,None,1,,,,,,,,,,,,,,217,24,Male,2022-05-17_13h49.27.394,Main,2022.1.1,60.02829733940217,
positive,yellow,1,None,k,,,,,,,,,0,138,138,138,,,,,,,,,,,,,,,,,,,,,,,,,,,,,,,,,,,,,main,k,k,1,1.2276726000000053,513.1753242,None,None,0,,,,,,,,,,,,,,217,24,Male,2022-05-17_13h49.27.394,Main,2022.1.1,60.02829733940217,
positive,yellow,1,None,k,,,,,,,,,0,139,139,139,,,,,,,,,,,,,,,,,,,,,,,,,,,,,,,,,,,,,main,k,k,1,0.8315255000002253,515.3999053000002,None,None,0,,,,,,,,,,,,,,217,24,Male,2022-05-17_13h49.27.394,Main,2022.1.1,60.02829733940217,
positive,yellow,1,None,k,,,,,,,,,0,140,140,140,,,,,,,,,,,,,,,,,,,,,,,,,,,,,,,,,,,,,main,k,k,1,0.7644012999999177,517.2335350000003,None,None,0,,,,,,,,,,,,,,217,24,Male,2022-05-17_13h49.27.394,Main,2022.1.1,60.02829733940217,
positive,blue,1,k,None,,,,,,,,,0,141,141,141,,,,,,,,,,,,,,,,,,,,,,,,,,,,,,,,,,,,,main,None,None,1,1.4988608000003296,518.9988584000002,None,None,1,,,,,,,,,,,,,,217,24,Male,2022-05-17_13h49.27.394,Main,2022.1.1,60.02829733940217,
positive,blue,2,k,None,,,,,,,,,0,142,142,142,,,,,,,,,,,,,,,,,,,,,,,,,,,,,,,,,,,,,main,None,None,1,1.5138895000000048,521.5043202000002,None,None,1,,,,,,,,,,,,,,217,24,Male,2022-05-17_13h49.27.394,Main,2022.1.1,60.02829733940217,
positive,yellow,2,None,k,,,,,,,,,0,143,143,143,,,,,,,,,,,,,,,,,,,,,,,,,,,,,,,,,,,,,main,k,k,1,1.0577002999998513,524.0158508,None,None,0,,,,,,,,,,,,,,217,24,Male,2022-05-17_13h49.27.394,Main,2022.1.1,60.02829733940217,
negative,yellow,2,k,None,,,,,,,,,0,144,144,144,,,,,,,,,,,,,,,,,,,,,,,,,,,,,,,,,,,,,main,None,None,1,1.5050571000001582,526.0768240000002,None,None,1,,,,,,,,,,,,,,217,24,Male,2022-05-17_13h49.27.394,Main,2022.1.1,60.02829733940217,
negative,blue,2,None,k,,,,,,,,,0,145,145,145,,,,,,,,,,,,,,,,,,,,,,,,,,,,,,,,,,,,,main,k,k,1,0.9428545999999187,528.5847268000002,None,None,0,,,,,,,,,,,,,,217,24,Male,2022-05-17_13h49.27.394,Main,2022.1.1,60.02829733940217,
negative,red,1,None,None,,,,,,,,,0,146,146,146,,,,,,,,,,,,,,,,,,,,,,,,,,,,,,,,,,,,,main,None,None,1,1.5045400999997582,530.5276492000003,None,None,1,,,,,,,,,,,,,,217,24,Male,2022-05-17_13h49.27.394,Main,2022.1.1,60.02829733940217,
positive,blue,1,k,None,,,,,,,,,0,147,147,147,,,,,,,,,,,,,,,,,,,,,,,,,,,,,,,,,,,,,main,None,None,1,1.4978408000001764,533.0345176999999,None,None,1,,,,,,,,,,,,,,217,24,Male,2022-05-17_13h49.27.394,Main,2022.1.1,60.02829733940217,
positive,yellow,1,None,k,,,,,,,,,0,148,148,148,,,,,,,,,,,,,,,,,,,,,,,,,,,,,,,,,,,,,main,k,k,1,1.0189343000001827,535.5339066000001,None,None,0,,,,,,,,,,,,,,217,24,Male,2022-05-17_13h49.27.394,Main,2022.1.1,60.02829733940217,
negative,red,2,None,None,,,,,,,,,0,149,149,149,,,,,,,,,,,,,,,,,,,,,,,,,,,,,,,,,,,,,main,None,None,1,1.5038519999998243,537.5552580000003,None,None,1,,,,,,,,,,,,,,217,24,Male,2022-05-17_13h49.27.394,Main,2022.1.1,60.02829733940217,
negative,blue,1,None,k,,,,,,,,,0,150,150,150,,,,,,,,,,,,,,,,,,,,,,,,,,,,,,,,,,,,,main,k,k,1,1.046637500000088,540.0578959,None,None,0,,,,,,,,,,,,,,217,24,Male,2022-05-17_13h49.27.394,Main,2022.1.1,60.02829733940217,
negative,yellow,2,k,None,,,,,,,,,0,151,151,151,,,,,,,,,,,,,,,,,,,,,,,,,,,,,,,,,,,,,main,None,None,1,1.5075237999999445,542.10608,None,None,1,,,,,,,,,,,,,,217,24,Male,2022-05-17_13h49.27.394,Main,2022.1.1,60.02829733940217,
negative,blue,2,None,k,,,,,,,,,0,152,152,152,,,,,,,,,,,,,,,,,,,,,,,,,,,,,,,,,,,,,main,k,k,1,0.8589535000000978,544.6134529999999,None,None,0,,,,,,,,,,,,,,217,24,Male,2022-05-17_13h49.27.394,Main,2022.1.1,60.02829733940217,
negative,yellow,1,k,None,,,,,,,,,0,153,153,153,,,,,,,,,,,,,,,,,,,,,,,,,,,,,,,,,,,,,main,None,None,1,1.501991999999973,546.4781848000002,None,None,1,,,,,,,,,,,,,,217,24,Male,2022-05-17_13h49.27.394,Main,2022.1.1,60.02829733940217,
negative,blue,1,None,k,,,,,,,,,0,154,154,154,,,,,,,,,,,,,,,,,,,,,,,,,,,,,,,,,,,,,main,k,k,1,1.1333047000002807,548.9784623,None,None,0,,,,,,,,,,,,,,217,24,Male,2022-05-17_13h49.27.394,Main,2022.1.1,60.02829733940217,
positive,yellow,2,None,k,,,,,,,,,0,155,155,155,,,,,,,,,,,,,,,,,,,,,,,,,,,,,,,,,,,,,main,k,k,1,0.8999501000002965,551.1165154,None,None,0,,,,,,,,,,,,,,217,24,Male,2022-05-17_13h49.27.394,Main,2022.1.1,60.02829733940217,
positive,red,2,None,None,,,,,,,,,0,156,156,156,,,,,,,,,,,,,,,,,,,,,,,,,,,,,,,,,,,,,main,None,None,1,1.5078319999997802,553.0184718,None,None,1,,,,,,,,,,,,,,217,24,Male,2022-05-17_13h49.27.394,Main,2022.1.1,60.02829733940217,
positive,red,1,None,None,,,,,,,,,0,157,157,157,,,,,,,,,,,,,,,,,,,,,,,,,,,,,,,,,,,,,main,None,None,1,1.5000409999997828,555.5258302000002,None,None,1,,,,,,,,,,,,,,217,24,Male,2022-05-17_13h49.27.394,Main,2022.1.1,60.02829733940217,
positive,blue,2,k,None,,,,,,,,,0,158,158,158,,,,,,,,,,,,,,,,,,,,,,,,,,,,,,,,,,,,,main,None,None,1,1.4988585999999486,558.0311704999999,None,None,1,,,,,,,,,,,,,,217,24,Male,2022-05-17_13h49.27.394,Main,2022.1.1,60.02829733940217,
negative,yellow,1,k,None,,,,,,,,,0,159,159,159,,,,,,,,,,,,,,,,,,,,,,,,,,,,,,,,,,,,,main,None,None,1,1.5098527000000104,560.5280498000002,None,None,1,,,,,,,,,,,,,,217,24,Male,2022-05-17_13h49.27.394,Main,2022.1.1,60.02829733940217,
negative,red,2,None,None,,,,,,,,,0,160,160,160,,,,,,,,,,,,,,,,,,,,,,,,,,,,,,,,,,,,,main,None,None,1,1.5007519999999204,563.0418089,None,None,1,,,,,,,,,,,,,,217,24,Male,2022-05-17_13h49.27.394,Main,2022.1.1,60.02829733940217,
negative,blue,1,None,k,,,,,,,,,0,161,161,161,,,,,,,,,,,,,,,,,,,,,,,,,,,,,,,,,,,,,main,k,k,1,0.9676795000000311,565.5436135,None,None,0,,,,,,,,,,,,,,217,24,Male,2022-05-17_13h49.27.394,Main,2022.1.1,60.02829733940217,
negative,blue,1,None,k,,,,,,,,,0,162,162,162,,,,,,,,,,,,,,,,,,,,,,,,,,,,,,,,,,,,,main,k,k,1,0.9162947999998323,567.5170390000003,None,None,0,,,,,,,,,,,,,,217,24,Male,2022-05-17_13h49.27.394,Main,2022.1.1,60.02829733940217,
negative,yellow,1,k,None,,,,,,,,,0,163,163,163,,,,,,,,,,,,,,,,,,,,,,,,,,,,,,,,,,,,,main,None,None,1,1.4977673000003051,569.4348825000002,None,None,1,,,,,,,,,,,,,,217,24,Male,2022-05-17_13h49.27.394,Main,2022.1.1,60.02829733940217,
negative,yellow,1,k,None,,,,,,,,,0,164,164,164,,,,,,,,,,,,,,,,,,,,,,,,,,,,,,,,,,,,,main,None,None,1,1.4985060999997586,571.9333123000001,None,None,1,,,,,,,,,,,,,,217,24,Male,2022-05-17_13h49.27.394,Main,2022.1.1,60.02829733940217,
positive,yellow,1,None,k,,,,,,,,,0,165,165,165,,,,,,,,,,,,,,,,,,,,,,,,,,,,,,,,,,,,,main,k,k,1,0.8671159000000443,574.4333575,None,None,0,,,,,,,,,,,,,,217,24,Male,2022-05-17_13h49.27.394,Main,2022.1.1,60.02829733940217,
negative,red,1,None,None,,,,,,,,,0,166,166,166,,,,,,,,,,,,,,,,,,,,,,,,,,,,,,,,,,,,,main,None,None,1,1.5077228000000105,576.3030567000001,None,None,1,,,,,,,,,,,,,,217,24,Male,2022-05-17_13h49.27.394,Main,2022.1.1,60.02829733940217,
negative,yellow,2,k,None,,,,,,,,,0,167,167,167,,,,,,,,,,,,,,,,,,,,,,,,,,,,,,,,,,,,,main,None,None,1,1.5086024000001999,578.8110459,None,None,1,,,,,,,,,,,,,,217,24,Male,2022-05-17_13h49.27.394,Main,2022.1.1,60.02829733940217,
positive,blue,2,k,None,,,,,,,,,0,168,168,168,,,,,,,,,,,,,,,,,,,,,,,,,,,,,,,,,,,,,main,None,None,1,1.5117307000000437,581.3201597000002,None,None,1,,,,,,,,,,,,,,217,24,Male,2022-05-17_13h49.27.394,Main,2022.1.1,60.02829733940217,
positive,red,2,None,None,,,,,,,,,0,169,169,169,,,,,,,,,,,,,,,,,,,,,,,,,,,,,,,,,,,,,main,None,None,1,1.5093194999999469,583.8339234,None,None,1,,,,,,,,,,,,,,217,24,Male,2022-05-17_13h49.27.394,Main,2022.1.1,60.02829733940217,
positive,red,1,None,None,,,,,,,,,0,170,170,170,,,,,,,,,,,,,,,,,,,,,,,,,,,,,,,,,,,,,main,None,None,1,1.503766700000142,586.3425700000003,None,None,1,,,,,,,,,,,,,,217,24,Male,2022-05-17_13h49.27.394,Main,2022.1.1,60.02829733940217,
negative,blue,2,None,k,,,,,,,,,0,171,171,171,,,,,,,,,,,,,,,,,,,,,,,,,,,,,,,,,,,,,main,k,k,1,1.8753781000000345,588.8498952,None,None,0,,,,,,,,,,,,,,217,24,Male,2022-05-17_13h49.27.394,Main,2022.1.1,60.02829733940217,
positive,blue,2,k,None,,,,,,,,,0,172,172,172,,,,,,,,,,,,,,,,,,,,,,,,,,,,,,,,,,,,,main,None,None,1,1.4977994000000763,592.7438468999999,None,None,1,,,,,,,,,,,,,,217,24,Male,2022-05-17_13h49.27.394,Main,2022.1.1,60.02829733940217,
negative,yellow,2,k,None,,,,,,,,,0,173,173,173,,,,,,,,,,,,,,,,,,,,,,,,,,,,,,,,,,,,,main,None,None,1,1.5102626000002601,595.2442307000001,None,None,1,,,,,,,,,,,,,,217,24,Male,2022-05-17_13h49.27.394,Main,2022.1.1,60.02829733940217,
positive,yellow,2,None,k,,,,,,,,,0,174,174,174,,,,,,,,,,,,,,,,,,,,,,,,,,,,,,,,,,,,,main,k,k,1,0.9568740999998226,597.7539117000001,None,None,0,,,,,,,,,,,,,,217,24,Male,2022-05-17_13h49.27.394,Main,2022.1.1,60.02829733940217,
negative,blue,2,None,k,,,,,,,,,0,175,175,175,,,,,,,,,,,,,,,,,,,,,,,,,,,,,,,,,,,,,main,k,k,1,0.9141395999999986,599.7157871,None,None,0,,,,,,,,,,,,,,217,24,Male,2022-05-17_13h49.27.394,Main,2022.1.1,60.02829733940217,
positive,blue,1,k,None,,,,,,,,,0,176,176,176,,,,,,,,,,,,,,,,,,,,,,,,,,,,,,,,,,,,,main,None,None,1,1.5038983999997981,601.6321149999999,None,None,1,,,,,,,,,,,,,,217,24,Male,2022-05-17_13h49.27.394,Main,2022.1.1,60.02829733940217,
positive,yellow,1,None,k,,,,,,,,,0,177,177,177,,,,,,,,,,,,,,,,,,,,,,,,,,,,,,,,,,,,,main,k,k,1,0.8469648000000234,604.1354022,None,None,0,,,,,,,,,,,,,,217,24,Male,2022-05-17_13h49.27.394,Main,2022.1.1,60.02829733940217,
positive,blue,1,k,None,,,,,,,,,0,178,178,178,,,,,,,,,,,,,,,,,,,,,,,,,,,,,,,,,,,,,main,None,None,1,1.501366599999983,605.985122,None,None,1,,,,,,,,,,,,,,217,24,Male,2022-05-17_13h49.27.394,Main,2022.1.1,60.02829733940217,
positive,yellow,2,None,k,,,,,,,,,0,179,179,179,,,,,,,,,,,,,,,,,,,,,,,,,,,,,,,,,,,,,main,k,k,1,0.9647098000000369,608.4880115999999,None,None,0,,,,,,,,,,,,,,217,24,Male,2022-05-17_13h49.27.394,Main,2022.1.1,60.02829733940217,
positive,blue,1,k,None,,,,,,,,,0,180,180,180,,,,,,,,,,,,,,,,,,,,,,,,,,,,,,,,,,,,,main,None,None,1,1.4978224999999838,610.4569131000003,None,None,1,,,,,,,,,,,,,,217,24,Male,2022-05-17_13h49.27.394,Main,2022.1.1,60.02829733940217,
negative,red,1,None,None,,,,,,,,,0,181,181,181,,,,,,,,,,,,,,,,,,,,,,,,,,,,,,,,,,,,,main,None,None,1,1.4993447999995624,612.9537485999999,None,None,1,,,,,,,,,,,,,,217,24,Male,2022-05-17_13h49.27.394,Main,2022.1.1,60.02829733940217,
negative,blue,1,None,k,,,,,,,,,0,182,182,182,,,,,,,,,,,,,,,,,,,,,,,,,,,,,,,,,,,,,main,k,k,1,0.8597285000000738,615.4579603000002,None,None,0,,,,,,,,,,,,,,217,24,Male,2022-05-17_13h49.27.394,Main,2022.1.1,60.02829733940217,
negative,yellow,2,k,None,,,,,,,,,0,183,183,183,,,,,,,,,,,,,,,,,,,,,,,,,,,,,,,,,,,,,main,None,None,1,1.5004401999999573,617.3184392000003,None,None,1,,,,,,,,,,,,,,217,24,Male,2022-05-17_13h49.27.394,Main,2022.1.1,60.02829733940217,
positive,yellow,2,None,k,,,,,,,,,0,184,184,184,,,,,,,,,,,,,,,,,,,,,,,,,,,,,,,,,,,,,main,k,k,1,1.6307139000000461,619.8203005999999,None,None,0,,,,,,,,,,,,,,217,24,Male,2022-05-17_13h49.27.394,Main,2022.1.1,60.02829733940217,
positive,yellow,1,None,k,,,,,,,,,0,185,185,185,,,,,,,,,,,,,,,,,,,,,,,,,,,,,,,,,,,,,main,k,k,1,0.8639668000000711,623.4564887000001,None,None,0,,,,,,,,,,,,,,217,24,Male,2022-05-17_13h49.27.394,Main,2022.1.1,60.02829733940217,
positive,red,2,None,None,,,,,,,,,0,186,186,186,,,,,,,,,,,,,,,,,,,,,,,,,,,,,,,,,,,,,main,None,None,1,1.5066925999999512,625.3192041000002,None,None,1,,,,,,,,,,,,,,217,24,Male,2022-05-17_13h49.27.394,Main,2022.1.1,60.02829733940217,
positive,blue,1,k,None,,,,,,,,,0,187,187,187,,,,,,,,,,,,,,,,,,,,,,,,,,,,,,,,,,,,,main,None,None,1,1.4960688000001028,627.8293388000002,None,None,1,,,,,,,,,,,,,,217,24,Male,2022-05-17_13h49.27.394,Main,2022.1.1,60.02829733940217,
negative,yellow,1,k,None,,,,,,,,,0,188,188,188,,,,,,,,,,,,,,,,,,,,,,,,,,,,,,,,,,,,,main,None,None,1,1.4958646999998564,630.3276824,None,None,1,,,,,,,,,,,,,,217,24,Male,2022-05-17_13h49.27.394,Main,2022.1.1,60.02829733940217,
positive,yellow,2,None,k,,,,,,,,,0,189,189,189,,,,,,,,,,,,,,,,,,,,,,,,,,,,,,,,,,,,,main,k,k,1,0.8998771000001398,632.8253735000003,None,None,0,,,,,,,,,,,,,,217,24,Male,2022-05-17_13h49.27.394,Main,2022.1.1,60.02829733940217,
negative,yellow,2,k,None,,,,,,,,,0,190,190,190,,,,,,,,,,,,,,,,,,,,,,,,,,,,,,,,,,,,,main,None,None,1,1.496882899999946,634.7271492,None,None,1,,,,,,,,,,,,,,217,24,Male,2022-05-17_13h49.27.394,Main,2022.1.1,60.02829733940217,
negative,yellow,1,k,None,,,,,,,,,0,191,191,191,,,,,,,,,,,,,,,,,,,,,,,,,,,,,,,,,,,,,main,None,None,1,1.4933585000003404,637.2259955,None,None,1,,,,,,,,,,,,,,217,24,Male,2022-05-17_13h49.27.394,Main,2022.1.1,60.02829733940217,
positive,blue,2,k,None,,,,,,,,,0,192,192,192,,,,,,,,,,,,,,,,,,,,,,,,,,,,,,,,,,,,,main,None,None,1,1.4975921000000199,639.7209611000003,None,None,1,,,,,,,,,,,,,,217,24,Male,2022-05-17_13h49.27.394,Main,2022.1.1,60.02829733940217,
positive,yellow,1,None,k,,,,,,,,,0,193,193,193,,,,,,,,,,,,,,,,,,,,,,,,,,,,,,,,,,,,,main,k,k,1,0.8357332000000497,642.2162034000003,None,None,0,,,,,,,,,,,,,,217,24,Male,2022-05-17_13h49.27.394,Main,2022.1.1,60.02829733940217,
negative,red,2,None,None,,,,,,,,,0,194,194,194,,,,,,,,,,,,,,,,,,,,,,,,,,,,,,,,,,,,,main,None,None,1,1.5025446999998167,644.0566595,None,None,1,,,,,,,,,,,,,,217,24,Male,2022-05-17_13h49.27.394,Main,2022.1.1,60.02829733940217,
positive,red,1,None,None,,,,,,,,,0,195,195,195,,,,,,,,,,,,,,,,,,,,,,,,,,,,,,,,,,,,,main,None,None,1,1.5118273000002773,646.5601502,None,None,1,,,,,,,,,,,,,,217,24,Male,2022-05-17_13h49.27.394,Main,2022.1.1,60.02829733940217,
negative,blue,1,None,k,,,,,,,,,0,196,196,196,,,,,,,,,,,,,,,,,,,,,,,,,,,,,,,,,,,,,main,k,k,1,0.8976508999999169,649.0753008000002,None,None,0,,,,,,,,,,,,,,217,24,Male,2022-05-17_13h49.27.394,Main,2022.1.1,60.02829733940217,
positive,blue,2,k,None,,,,,,,,,0,197,197,197,,,,,,,,,,,,,,,,,,,,,,,,,,,,,,,,,,,,,main,None,None,1,1.4980427000000418,650.9732534,None,None,1,,,,,,,,,,,,,,217,24,Male,2022-05-17_13h49.27.394,Main,2022.1.1,60.02829733940217,
negative,blue,2,None,k,,,,,,,,,0,198,198,198,,,,,,,,,,,,,,,,,,,,,,,,,,,,,,,,,,,,,main,k,k,1,0.8771477999998751,653.4729630000002,None,None,0,,,,,,,,,,,,,,217,24,Male,2022-05-17_13h49.27.394,Main,2022.1.1,60.02829733940217,
negative,blue,2,None,k,,,,,,,,,0,199,199,199,,,,,,,,,,,,,,,,,,,,,,,,,,,,,,,,,,,,,main,k,k,1,0.7504250999995747,655.3484235000001,None,None,0,,,,,,,,,,,,,,217,24,Male,2022-05-17_13h49.27.394,Main,2022.1.1,60.02829733940217,
positive,blue,2,k,None,,,,,,,,,0,200,200,200,,,,,,,,,,,,,,,,,,,,,,,,,,,,,,,,,,,,,main,None,None,1,1.500120600000173,657.1064882000001,None,None,1,,,,,,,,,,,,,,217,24,Male,2022-05-17_13h49.27.394,Main,2022.1.1,60.02829733940217,
positive,blue,2,k,None,,,,,,,,,0,201,201,201,,,,,,,,,,,,,,,,,,,,,,,,,,,,,,,,,,,,,main,None,None,1,1.510377999999946,659.6055138000002,None,None,1,,,,,,,,,,,,,,217,24,Male,2022-05-17_13h49.27.394,Main,2022.1.1,60.02829733940217,
negative,yellow,2,k,None,,,,,,,,,0,202,202,202,,,,,,,,,,,,,,,,,,,,,,,,,,,,,,,,,,,,,main,None,None,1,1.499128699999801,662.1137570999999,None,None,1,,,,,,,,,,,,,,217,24,Male,2022-05-17_13h49.27.394,Main,2022.1.1,60.02829733940217,
positive,red,1,None,None,,,,,,,,,0,203,203,203,,,,,,,,,,,,,,,,,,,,,,,,,,,,,,,,,,,,,main,None,None,1,1.501694800000223,664.6178847000001,None,None,1,,,,,,,,,,,,,,217,24,Male,2022-05-17_13h49.27.394,Main,2022.1.1,60.02829733940217,
negative,blue,2,None,k,,,,,,,,,0,204,204,204,,,,,,,,,,,,,,,,,,,,,,,,,,,,,,,,,,,,,main,k,k,1,0.8802256999997553,667.1210543000002,None,None,0,,,,,,,,,,,,,,217,24,Male,2022-05-17_13h49.27.394,Main,2022.1.1,60.02829733940217,
negative,red,1,None,None,,,,,,,,,0,205,205,205,,,,,,,,,,,,,,,,,,,,,,,,,,,,,,,,,,,,,main,None,None,1,1.51132140000027,669.0034791000003,None,None,1,,,,,,,,,,,,,,217,24,Male,2022-05-17_13h49.27.394,Main,2022.1.1,60.02829733940217,
negative,blue,2,None,k,,,,,,,,,0,206,206,206,,,,,,,,,,,,,,,,,,,,,,,,,,,,,,,,,,,,,main,k,k,1,0.9363327999999456,671.5123480000002,None,None,0,,,,,,,,,,,,,,217,24,Male,2022-05-17_13h49.27.394,Main,2022.1.1,60.02829733940217,
negative,yellow,2,k,None,,,,,,,,,0,207,207,207,,,,,,,,,,,,,,,,,,,,,,,,,,,,,,,,,,,,,main,None,None,1,1.5034171000002061,673.4535381000001,None,None,1,,,,,,,,,,,,,,217,24,Male,2022-05-17_13h49.27.394,Main,2022.1.1,60.02829733940217,
positive,yellow,2,None,k,,,,,,,,,0,208,208,208,,,,,,,,,,,,,,,,,,,,,,,,,,,,,,,,,,,,,main,k,k,1,0.8507635000000846,675.9569810000003,None,None,0,,,,,,,,,,,,,,217,24,Male,2022-05-17_13h49.27.394,Main,2022.1.1,60.02829733940217,
negative,yellow,1,k,None,,,,,,,,,0,209,209,209,,,,,,,,,,,,,,,,,,,,,,,,,,,,,,,,,,,,,main,None,None,1,1.5072860999998738,677.8096244000003,None,None,1,,,,,,,,,,,,,,217,24,Male,2022-05-17_13h49.27.394,Main,2022.1.1,60.02829733940217,
negative,red,2,None,None,,,,,,,,,0,210,210,210,,,,,,,,,,,,,,,,,,,,,,,,,,,,,,,,,,,,,main,None,None,1,1.5036205000001246,680.3214046000003,None,None,1,,,,,,,,,,,,,,217,24,Male,2022-05-17_13h49.27.394,Main,2022.1.1,60.02829733940217,
negative,blue,1,None,k,,,,,,,,,0,211,211,211,,,,,,,,,,,,,,,,,,,,,,,,,,,,,,,,,,,,,main,k,k,1,0.8198784999999589,682.8264833000003,None,None,0,,,,,,,,,,,,,,217,24,Male,2022-05-17_13h49.27.394,Main,2022.1.1,60.02829733940217,
negative,yellow,1,k,None,,,,,,,,,0,212,212,212,,,,,,,,,,,,,,,,,,,,,,,,,,,,,,,,,,,,,main,None,None,1,1.5160272000002806,684.6510129000003,None,None,1,,,,,,,,,,,,,,217,24,Male,2022-05-17_13h49.27.394,Main,2022.1.1,60.02829733940217,
positive,blue,1,k,None,,,,,,,,,0,213,213,213,,,,,,,,,,,,,,,,,,,,,,,,,,,,,,,,,,,,,main,None,None,1,1.5060388000001694,687.1695816000001,None,None,1,,,,,,,,,,,,,,217,24,Male,2022-05-17_13h49.27.394,Main,2022.1.1,60.02829733940217,
positive,blue,1,k,None,,,,,,,,,0,214,214,214,,,,,,,,,,,,,,,,,,,,,,,,,,,,,,,,,,,,,main,None,None,1,1.5105547000002844,689.6752970000002,None,None,1,,,,,,,,,,,,,,217,24,Male,2022-05-17_13h49.27.394,Main,2022.1.1,60.02829733940217,
positive,yellow,1,None,k,,,,,,,,,0,215,215,215,,,,,,,,,,,,,,,,,,,,,,,,,,,,,,,,,,,,,main,k,k,1,0.8842042000001129,692.1889799,None,None,0,,,,,,,,,,,,,,217,24,Male,2022-05-17_13h49.27.394,Main,2022.1.1,60.02829733940217,
positive,yellow,1,None,k,,,,,,,,,0,216,216,216,,,,,,,,,,,,,,,,,,,,,,,,,,,,,,,,,,,,,main,k,k,1,0.9171645999999782,694.0752344000002,None,None,0,,,,,,,,,,,,,,217,24,Male,2022-05-17_13h49.27.394,Main,2022.1.1,60.02829733940217,
positive,yellow,2,None,k,,,,,,,,,0,217,217,217,,,,,,,,,,,,,,,,,,,,,,,,,,,,,,,,,,,,,main,k,k,1,2.947795799999767,695.9969686,None,None,0,,,,,,,,,,,,,,217,24,Male,2022-05-17_13h49.27.394,Main,2022.1.1,60.02829733940217,
negative,blue,1,None,k,,,,,,,,,0,218,218,218,,,,,,,,,,,,,,,,,,,,,,,,,,,,,,,,,,,,,main,k,k,1,0.7978515999998308,700.9465497000001,None,None,0,,,,,,,,,,,,,,217,24,Male,2022-05-17_13h49.27.394,Main,2022.1.1,60.02829733940217,
positive,red,2,None,None,,,,,,,,,0,219,219,219,,,,,,,,,,,,,,,,,,,,,,,,,,,,,,,,,,,,,main,None,None,1,1.5096063000000868,702.7432760000002,None,None,1,,,,,,,,,,,,,,217,24,Male,2022-05-17_13h49.27.394,Main,2022.1.1,60.02829733940217,
positive,yellow,1,None,k,,,,,,,,,0,220,220,220,,,,,,,,,,,,,,,,,,,,,,,,,,,,,,,,,,,,,main,k,k,1,0.9683396000000357,705.2560524,None,None,0,,,,,,,,,,,,,,217,24,Male,2022-05-17_13h49.27.394,Main,2022.1.1,60.02829733940217,
positive,blue,1,k,None,,,,,,,,,0,221,221,221,,,,,,,,,,,,,,,,,,,,,,,,,,,,,,,,,,,,,main,None,None,1,1.4975139000002855,707.2246663999999,None,None,1,,,,,,,,,,,,,,217,24,Male,2022-05-17_13h49.27.394,Main,2022.1.1,60.02829733940217,
positive,yellow,2,None,k,,,,,,,,,0,222,222,222,,,,,,,,,,,,,,,,,,,,,,,,,,,,,,,,,,,,,main,k,k,1,0.9073474000001625,709.7275786,None,None,0,,,,,,,,,,,,,,217,24,Male,2022-05-17_13h49.27.394,Main,2022.1.1,60.02829733940217,
negative,yellow,1,k,None,,,,,,,,,0,223,223,223,,,,,,,,,,,,,,,,,,,,,,,,,,,,,,,,,,,,,main,None,None,1,1.499243100000058,711.6346424000003,None,None,1,,,,,,,,,,,,,,217,24,Male,2022-05-17_13h49.27.394,Main,2022.1.1,60.02829733940217,
positive,yellow,2,None,k,,,,,,,,,0,224,224,224,,,,,,,,,,,,,,,,,,,,,,,,,,,,,,,,,,,,,main,k,k,1,0.7964397000000645,714.1360875999999,None,None,0,,,,,,,,,,,,,,217,24,Male,2022-05-17_13h49.27.394,Main,2022.1.1,60.02829733940217,
negative,yellow,2,k,None,,,,,,,,,0,225,225,225,,,,,,,,,,,,,,,,,,,,,,,,,,,,,,,,,,,,,main,None,None,1,1.4949840999997832,715.9338151000002,None,None,1,,,,,,,,,,,,,,217,24,Male,2022-05-17_13h49.27.394,Main,2022.1.1,60.02829733940217,
negative,blue,2,None,k,,,,,,,,,0,226,226,226,,,,,,,,,,,,,,,,,,,,,,,,,,,,,,,,,,,,,main,k,k,1,0.8225456999998642,718.4314268000003,None,None,0,,,,,,,,,,,,,,217,24,Male,2022-05-17_13h49.27.394,Main,2022.1.1,60.02829733940217,
positive,red,2,None,None,,,,,,,,,0,227,227,227,,,,,,,,,,,,,,,,,,,,,,,,,,,,,,,,,,,,,main,None,None,1,1.4957555000000866,720.2577126000001,None,None,1,,,,,,,,,,,,,,217,24,Male,2022-05-17_13h49.27.394,Main,2022.1.1,60.02829733940217,
positive,blue,2,k,None,,,,,,,,,0,228,228,228,,,,,,,,,,,,,,,,,,,,,,,,,,,,,,,,,,,,,main,None,None,1,1.5011257000001024,722.7542090000002,None,None,1,,,,,,,,,,,,,,217,24,Male,2022-05-17_13h49.27.394,Main,2022.1.1,60.02829733940217,
negative,blue,1,None,k,,,,,,,,,0,229,229,229,,,,,,,,,,,,,,,,,,,,,,,,,,,,,,,,,,,,,main,k,k,1,0.7804981000003863,725.2611019000001,None,None,0,,,,,,,,,,,,,,217,24,Male,2022-05-17_13h49.27.394,Main,2022.1.1,60.02829733940217,
positive,yellow,1,None,k,,,,,,,,,0,230,230,230,,,,,,,,,,,,,,,,,,,,,,,,,,,,,,,,,,,,,main,k,k,1,0.8499652999998943,727.0430895,None,None,0,,,,,,,,,,,,,,217,24,Male,2022-05-17_13h49.27.394,Main,2022.1.1,60.02829733940217,
negative,blue,2,None,k,,,,,,,,,0,231,231,231,,,,,,,,,,,,,,,,,,,,,,,,,,,,,,,,,,,,,main,k,k,1,1.030754800000068,728.8950304,None,None,0,,,,,,,,,,,,,,217,24,Male,2022-05-17_13h49.27.394,Main,2022.1.1,60.02829733940217,
negative,red,1,None,None,,,,,,,,,0,232,232,232,,,,,,,,,,,,,,,,,,,,,,,,,,,,,,,,,,,,,main,None,None,1,1.5145842000001721,730.9227243999999,None,None,1,,,,,,,,,,,,,,217,24,Male,2022-05-17_13h49.27.394,Main,2022.1.1,60.02829733940217,
positive,blue,2,k,None,,,,,,,,,0,233,233,233,,,,,,,,,,,,,,,,,,,,,,,,,,,,,,,,,,,,,main,None,None,1,1.4993379000002278,733.4386138,None,None,1,,,,,,,,,,,,,,217,24,Male,2022-05-17_13h49.27.394,Main,2022.1.1,60.02829733940217,
negative,yellow,1,k,None,,,,,,,,,0,234,234,234,,,,,,,,,,,,,,,,,,,,,,,,,,,,,,,,,,,,,main,None,None,1,1.4964843999996447,735.9430517000001,None,None,1,,,,,,,,,,,,,,217,24,Male,2022-05-17_13h49.27.394,Main,2022.1.1,60.02829733940217,
negative,yellow,2,k,None,,,,,,,,,0,235,235,235,,,,,,,,,,,,,,,,,,,,,,,,,,,,,,,,,,,,,main,None,None,1,1.4977796999996826,738.4431325999999,None,None,1,,,,,,,,,,,,,,217,24,Male,2022-05-17_13h49.27.394,Main,2022.1.1,60.02829733940217,
positive,red,1,None,None,,,,,,,,,0,236,236,236,,,,,,,,,,,,,,,,,,,,,,,,,,,,,,,,,,,,,main,None,None,1,1.498943600000075,740.9363517000002,None,None,1,,,,,,,,,,,,,,217,24,Male,2022-05-17_13h49.27.394,Main,2022.1.1,60.02829733940217,
negative,red,2,None,None,,,,,,,,,0,237,237,237,,,,,,,,,,,,,,,,,,,,,,,,,,,,,,,,,,,,,main,None,None,1,1.503281700000116,743.4390215000003,None,None,1,,,,,,,,,,,,,,217,24,Male,2022-05-17_13h49.27.394,Main,2022.1.1,60.02829733940217,
negative,blue,1,None,k,,,,,,,,,0,238,238,238,,,,,,,,,,,,,,,,,,,,,,,,,,,,,,,,,,,,,main,k,k,1,0.8758809999999357,745.9463764000002,None,None,0,,,,,,,,,,,,,,217,24,Male,2022-05-17_13h49.27.394,Main,2022.1.1,60.02829733940217,
positive,blue,1,k,None,,,,,,,,,0,239,239,239,,,,,,,,,,,,,,,,,,,,,,,,,,,,,,,,,,,,,main,None,None,1,1.497638399999687,747.8240065,None,None,1,,,,,,,,,,,,,,217,24,Male,2022-05-17_13h49.27.394,Main,2022.1.1,60.02829733940217,
,,,,,,,,,,,,,,,,,,,,,,,,,,,,,,,,,,,,,,,,,,,,,,,,,,,,,,,,,,,,,,,,,,,,,,,,,750.3090679000002,None,,,,,,,,
