distractor,target,set,ans1,ans2,rep_loop4.thisRepN,rep_loop4.thisTrialN,rep_loop4.thisN,rep_loop4.thisIndex,st2_prac_loop.thisRepN,st2_prac_loop.thisTrialN,st2_prac_loop.thisN,st2_prac_loop.thisIndex,st2_main_loop.thisRepN,st2_main_loop.thisTrialN,st2_main_loop.thisN,st2_main_loop.thisIndex,image_4.started,image_4.stopped,mouse_7.x,mouse_7.y,mouse_7.leftButton,mouse_7.midButton,mouse_7.rightButton,sound_2.started,sound_2.stopped,key_resp_3.keys,mouse_5.x,mouse_5.y,mouse_5.leftButton,mouse_5.midButton,mouse_5.rightButton,mouse_5.started,mouse_5.stopped,yes_text2.started,yes_text2.stopped,no_text2.started,no_text2.stopped,mouse_3.x,mouse_3.y,mouse_3.leftButton,mouse_3.midButton,mouse_3.rightButton,mouse_3.started,mouse_3.stopped,st_prac_back.started,st_prac_back.stopped,st_prac_text.started,st_prac_text.stopped,st_fix_back.started,st_fix_back.stopped,st_fix_2.started,st_fix_2.stopped,main_prac,st_ans,st_res,st_corr,st_rt,st_back.started,st_back.stopped,st2_resp.keys,st2_resp.corr,st_main_back.started,st_main_back.stopped,st_main_text.started,st_main_text.stopped,mouse_4.x,mouse_4.y,mouse_4.leftButton,mouse_4.midButton,mouse_4.rightButton,mouse_4.started,mouse_4.stopped,text_2.started,text_2.stopped,id*,age*,gender*,date,expName,psychopyVersion,frameRate,
,,,,,,,,,,,,,,,,,31.17625390000103,None,0.0009259259,-0.018518519,0,0,0,,,,,,,,,,,,,,,,,,,,,,,,,,,,,,,,,,,,,,,,,,,,,,,,,,,,218,25,Male,2022-05-17_15h19.24.030,Main,2022.1.1,60.041092123555856,
negative,yellow,1,k,None,,,,,0,0,0,0,,,,,,,,,,,,94.1739886000003,None,None,0.04074074,-0.23148148,0,0,0,1.003431899998759,None,95.14096390000122,None,95.14096390000122,None,-0.08796296,-0.062962964,0,0,0,0.013279699998747674,None,95.94617050000124,None,95.94617050000124,None,97.95856810000078,None,97.95856810000078,None,prac,k,k,1,24.781718000000183,99.9766653000006,None,None,0,,,,,,,,,,,,,,218,25,Male,2022-05-17_15h19.24.030,Main,2022.1.1,60.041092123555856,
positive,red,2,None,None,,,,,0,1,1,1,,,,,,,,,,,,,,,,,,,,,,,,,,,,,,,,,,,,,,,,,prac,None,None,1,1.497132500000589,126.7735487000009,None,None,1,,,,,,,,,,,,,,218,25,Male,2022-05-17_15h19.24.030,Main,2022.1.1,60.041092123555856,
negative,blue,2,None,k,,,,,0,2,2,2,,,,,,,,,,,,,,,,,,,,,,,,,,,,,,,,,,,,,,,,,prac,None,None,1,1.497942800000601,129.27311390000068,None,None,1,,,,,,,,,,,,,,218,25,Male,2022-05-17_15h19.24.030,Main,2022.1.1,60.041092123555856,
positive,yellow,1,None,k,,,,,0,3,3,3,,,,,,,,,,,,,,,,,,,,,,,,,,,,,,,,,,,,,,,,,prac,None,None,1,1.4986387999997532,131.76885540000148,None,None,1,,,,,,,,,,,,,,218,25,Male,2022-05-17_15h19.24.030,Main,2022.1.1,60.041092123555856,
negative,blue,2,None,k,,,,,0,4,4,4,,,,,,,,,,,,,,,,,,,,,,,,,,,,,,,,,,,,,,,,,prac,None,None,1,1.4980558999995992,134.26882440000009,None,None,1,,,,,,,,,,,,,,218,25,Male,2022-05-17_15h19.24.030,Main,2022.1.1,60.041092123555856,
negative,blue,1,None,k,,,,,0,5,5,5,,,,,,,,,,,,,,,,,,,,,,,,,,,,,,,,,,,,,,,,,prac,None,None,1,1.4984385000007023,136.7720588000011,None,None,1,,,,,,,,,,,,,,218,25,Male,2022-05-17_15h19.24.030,Main,2022.1.1,60.041092123555856,
negative,yellow,2,k,None,,,,,0,6,6,6,,,,,,,,,,,,,,,,,,,,,,,,,,,,,,,,,,,,,,,,,prac,k,k,1,1.7025639000003139,139.27158039999995,None,None,0,,,,,,,,,,,,,,218,25,Male,2022-05-17_15h19.24.030,Main,2022.1.1,60.041092123555856,
negative,red,1,None,None,,,,,0,7,7,7,,,,,,,,,,,,,,,,,,,,,,,,,,,,,,,,,,,,,,,,,prac,None,None,1,1.5066996999994444,142.98801679999997,None,None,1,,,,,,,,,,,,,,218,25,Male,2022-05-17_15h19.24.030,Main,2022.1.1,60.041092123555856,
positive,yellow,2,None,k,,,,,0,8,8,8,,,,,,,,,,,,,,,,,,,,,,,,,,,,,,,,,,,,,,,,,prac,None,k,0,1.263062699999864,145.49491690000104,None,None,1,,,,,,,,,,,,,,218,25,Male,2022-05-17_15h19.24.030,Main,2022.1.1,60.041092123555856,
negative,yellow,1,k,None,,,,,0,9,9,9,,,,,,,,,,,,,,,,,,,,,,,,,,,,,,,,,,,,,,,,,prac,k,k,1,2.397417400001359,148.77060960000017,None,None,0,,,,,,,,,,,,,,218,25,Male,2022-05-17_15h19.24.030,Main,2022.1.1,60.041092123555856,
positive,yellow,2,None,k,,,,,0,10,10,10,,,,,,,,,,,,,,,,,,,,,,,,,,,,,,,,,,,,,,,,,prac,None,None,1,1.490747800000463,153.16989410000133,None,None,1,,,,,,,,,,,,,,218,25,Male,2022-05-17_15h19.24.030,Main,2022.1.1,60.041092123555856,
negative,yellow,2,k,None,,,,,0,11,11,11,,,,,,,,,,,,,,,,,,,,,,,,,,,,,,,,,,,,,,,,,prac,k,k,1,0.895034699999087,155.66211150000163,None,None,0,,,,,,,,,,,,,,218,25,Male,2022-05-17_15h19.24.030,Main,2022.1.1,60.041092123555856,
negative,red,2,None,None,,,,,0,12,12,12,,,,,,,,,,,,,,,,,,,,,,,,,,,,,,,,,,,,,,,,,prac,None,None,1,1.5119546000005357,157.55992289999995,None,None,1,,,,,,,,,,,,,,218,25,Male,2022-05-17_15h19.24.030,Main,2022.1.1,60.041092123555856,
positive,red,1,None,None,,,,,0,13,13,13,,,,,,,,,,,,,,,,,,,,,,,,,,,,,,,,,,,,,,,,,prac,None,None,1,1.5003067000016017,160.0766323000007,None,None,1,,,,,,,,,,,,,,218,25,Male,2022-05-17_15h19.24.030,Main,2022.1.1,60.041092123555856,
positive,blue,2,k,None,,,,,0,14,14,14,,,,,,,,,,,,,,,,,,,,,,,,,,,,,,,,,,,,,,,,,prac,k,k,1,1.1078542999985075,162.57429180000145,None,None,0,,,,,,,,,,,,,,218,25,Male,2022-05-17_15h19.24.030,Main,2022.1.1,60.041092123555856,
positive,blue,1,k,None,,,,,0,15,15,15,,,,,,,,,,,,,,,,,,,,,,,,,,,,,,,,,,,,,,,,,prac,k,k,1,1.0825218000009045,164.68067220000012,None,None,0,,,,,,,,,,,,,,218,25,Male,2022-05-17_15h19.24.030,Main,2022.1.1,60.041092123555856,
negative,blue,1,None,k,,,,,0,16,16,16,,,,,,,,,,,,,,,,,,,,,,,,,,,,,,,,,,,,,,,,,prac,None,None,1,1.5041908000002877,166.76881260000118,None,None,1,,,,,,,,,,,,,,218,25,Male,2022-05-17_15h19.24.030,Main,2022.1.1,60.041092123555856,
positive,blue,2,k,None,,,,,0,17,17,17,,,,,,,,,,,,,,,,,,,,,,,,,,,,,,,,,,,,,,,,,prac,k,k,1,0.9292365999990579,169.2735012000012,None,None,0,,,,,,,,,,,,,,218,25,Male,2022-05-17_15h19.24.030,Main,2022.1.1,60.041092123555856,
positive,blue,1,k,None,,,,,0,18,18,18,,,,,,,,,,,,,,,,,,,,,,,,,,,,,,,,,,,,,,,,,prac,k,k,1,1.224709799998891,171.20479310000155,None,None,0,,,,,,,,,,,,,,218,25,Male,2022-05-17_15h19.24.030,Main,2022.1.1,60.041092123555856,
positive,yellow,1,None,k,,,,,0,19,19,19,,,,,,,,,,,,,,,,,,,,,,,,,,,,,,,,,,,,,,,,,prac,None,None,1,1.5155293999996502,173.43124160000116,None,None,1,,,,,,,,,,,,,,218,25,Male,2022-05-17_15h19.24.030,Main,2022.1.1,60.041092123555856,
negative,yellow,1,k,None,,,,,1,0,20,0,,,,,,,,,,,,,,,,,,,,,,,,,,,,,,,,,,,,,,,,,prac,k,k,1,1.0325724999984232,175.94596170000113,None,None,0,,,,,,,,,,,,,,218,25,Male,2022-05-17_15h19.24.030,Main,2022.1.1,60.041092123555856,
positive,red,2,None,None,,,,,1,1,21,1,,,,,,,,,,,,,,,,,,,,,,,,,,,,,,,,,,,,,,,,,prac,None,None,1,1.509388200000103,177.98433640000076,None,None,1,,,,,,,,,,,,,,218,25,Male,2022-05-17_15h19.24.030,Main,2022.1.1,60.041092123555856,
negative,blue,2,None,k,,,,,1,2,22,2,,,,,,,,,,,,,,,,,,,,,,,,,,,,,,,,,,,,,,,,,prac,None,None,1,1.5070843000012246,180.49327750000157,None,None,1,,,,,,,,,,,,,,218,25,Male,2022-05-17_15h19.24.030,Main,2022.1.1,60.041092123555856,
positive,yellow,1,None,k,,,,,1,3,23,3,,,,,,,,,,,,,,,,,,,,,,,,,,,,,,,,,,,,,,,,,prac,None,None,1,1.5123650999994425,183.0057015000002,None,None,1,,,,,,,,,,,,,,218,25,Male,2022-05-17_15h19.24.030,Main,2022.1.1,60.041092123555856,
negative,blue,2,None,k,,,,,1,4,24,4,,,,,,,,,,,,,,,,,,,,,,,,,,,,,,,,,,,,,,,,,prac,None,None,1,1.4936862000013207,185.51998530000128,None,None,1,,,,,,,,,,,,,,218,25,Male,2022-05-17_15h19.24.030,Main,2022.1.1,60.041092123555856,
negative,blue,1,None,k,,,,,1,5,25,5,,,,,,,,,,,,,,,,,,,,,,,,,,,,,,,,,,,,,,,,,prac,None,None,1,1.5023643000004085,188.01538380000056,None,None,1,,,,,,,,,,,,,,218,25,Male,2022-05-17_15h19.24.030,Main,2022.1.1,60.041092123555856,
negative,yellow,2,k,None,,,,,1,6,26,6,,,,,,,,,,,,,,,,,,,,,,,,,,,,,,,,,,,,,,,,,prac,k,k,1,1.1005443000012747,190.51920000000064,None,None,0,,,,,,,,,,,,,,218,25,Male,2022-05-17_15h19.24.030,Main,2022.1.1,60.041092123555856,
negative,red,1,None,None,,,,,1,7,27,7,,,,,,,,,,,,,,,,,,,,,,,,,,,,,,,,,,,,,,,,,prac,None,None,1,1.5085626999989472,192.62174950000008,None,None,1,,,,,,,,,,,,,,218,25,Male,2022-05-17_15h19.24.030,Main,2022.1.1,60.041092123555856,
positive,yellow,2,None,k,,,,,1,8,28,8,,,,,,,,,,,,,,,,,,,,,,,,,,,,,,,,,,,,,,,,,prac,None,k,0,1.1375751000014134,195.12801170000057,None,None,1,,,,,,,,,,,,,,218,25,Male,2022-05-17_15h19.24.030,Main,2022.1.1,60.041092123555856,
negative,yellow,1,k,None,,,,,1,9,29,9,,,,,,,,,,,,,,,,,,,,,,,,,,,,,,,,,,,,,,,,,prac,k,k,1,3.7325736000002507,198.2809184000016,None,None,0,,,,,,,,,,,,,,218,25,Male,2022-05-17_15h19.24.030,Main,2022.1.1,60.041092123555856,
positive,yellow,2,None,k,,,,,1,10,30,10,,,,,,,,,,,,,,,,,,,,,,,,,,,,,,,,,,,,,,,,,prac,None,None,1,1.4973083999993833,204.01345700000093,None,None,1,,,,,,,,,,,,,,218,25,Male,2022-05-17_15h19.24.030,Main,2022.1.1,60.041092123555856,
negative,yellow,2,k,None,,,,,1,11,31,11,,,,,,,,,,,,,,,,,,,,,,,,,,,,,,,,,,,,,,,,,prac,k,k,1,1.499079499999425,206.5098936000013,None,None,0,,,,,,,,,,,,,,218,25,Male,2022-05-17_15h19.24.030,Main,2022.1.1,60.041092123555856,
negative,red,2,None,None,,,,,1,12,32,12,,,,,,,,,,,,,,,,,,,,,,,,,,,,,,,,,,,,,,,,,prac,None,None,1,1.5136158999994223,209.01224510000065,None,None,1,,,,,,,,,,,,,,218,25,Male,2022-05-17_15h19.24.030,Main,2022.1.1,60.041092123555856,
positive,red,1,None,None,,,,,1,13,33,13,,,,,,,,,,,,,,,,,,,,,,,,,,,,,,,,,,,,,,,,,prac,None,None,1,1.4974801000007574,211.5252175000005,None,None,1,,,,,,,,,,,,,,218,25,Male,2022-05-17_15h19.24.030,Main,2022.1.1,60.041092123555856,
positive,blue,2,k,None,,,,,1,14,34,14,,,,,,,,,,,,,,,,,,,,,,,,,,,,,,,,,,,,,,,,,prac,k,k,1,-0.09012859999893408,214.02445790000093,None,None,0,,,,,,,,,,,,,,218,25,Male,2022-05-17_15h19.24.030,Main,2022.1.1,60.041092123555856,
positive,blue,1,k,None,,,,,1,15,35,15,,,,,,,,,,,,,,,,,,,,,,,,,,,,,,,,,,,,,,,,,prac,k,k,1,2.3352766999996675,217.96148340000036,None,None,0,,,,,,,,,,,,,,218,25,Male,2022-05-17_15h19.24.030,Main,2022.1.1,60.041092123555856,
negative,blue,1,None,k,,,,,1,16,36,16,,,,,,,,,,,,,,,,,,,,,,,,,,,,,,,,,,,,,,,,,prac,None,None,1,1.5074229999991076,222.31115350000073,None,None,1,,,,,,,,,,,,,,218,25,Male,2022-05-17_15h19.24.030,Main,2022.1.1,60.041092123555856,
positive,blue,2,k,None,,,,,1,17,37,17,,,,,,,,,,,,,,,,,,,,,,,,,,,,,,,,,,,,,,,,,prac,k,k,1,0.9048280999995768,224.81899500000145,None,None,0,,,,,,,,,,,,,,218,25,Male,2022-05-17_15h19.24.030,Main,2022.1.1,60.041092123555856,
positive,blue,1,k,None,,,,,1,18,38,18,,,,,,,,,,,,,,,,,,,,,,,,,,,,,,,,,,,,,,,,,prac,k,k,1,1.0909730999992462,226.72779570000057,None,None,0,,,,,,,,,,,,,,218,25,Male,2022-05-17_15h19.24.030,Main,2022.1.1,60.041092123555856,
positive,yellow,1,None,k,,,,,1,19,39,19,,,,,,,,,,,,,,,,,,,,,,,,,,,,,,,,,,,,,,,,,prac,None,None,1,1.504228100000546,228.81858530000136,None,None,1,,,,,,,,,,,,,,218,25,Male,2022-05-17_15h19.24.030,Main,2022.1.1,60.041092123555856,
,,,,,,,,,,,,,,,,,,,,,,,,,,,,,,,,,,,,,,,,,,,,,,,,,,,,,,,,,,,,,,231.33641850000095,None,231.33641850000095,None,0.07777778,0.24351852,0,0,0,0.009501000000454951,None,,,218,25,Male,2022-05-17_15h19.24.030,Main,2022.1.1,60.041092123555856,
negative,yellow,2,k,None,,,,,,,,,0,0,0,0,,,,,,,,,,,,,,,,,,,,,,,,,,,,,,,,,232.2952965000004,None,232.2952965000004,None,main,k,k,1,5.071940600000744,234.3847749000015,None,None,0,,,,,,,,,,,,,,218,25,Male,2022-05-17_15h19.24.030,Main,2022.1.1,60.041092123555856,
positive,red,1,None,None,,,,,,,,,0,1,1,1,,,,,,,,,,,,,,,,,,,,,,,,,,,,,,,,,,,,,main,None,None,1,1.498329100000774,241.47595880000154,None,None,1,,,,,,,,,,,,,,218,25,Male,2022-05-17_15h19.24.030,Main,2022.1.1,60.041092123555856,
positive,blue,2,k,None,,,,,,,,,0,2,2,2,,,,,,,,,,,,,,,,,,,,,,,,,,,,,,,,,,,,,main,k,k,1,1.3432852999994793,243.97206030000052,None,None,0,,,,,,,,,,,,,,218,25,Male,2022-05-17_15h19.24.030,Main,2022.1.1,60.041092123555856,
positive,blue,1,k,None,,,,,,,,,0,3,3,3,,,,,,,,,,,,,,,,,,,,,,,,,,,,,,,,,,,,,main,k,k,1,1.162360100001024,246.32111260000056,None,None,0,,,,,,,,,,,,,,218,25,Male,2022-05-17_15h19.24.030,Main,2022.1.1,60.041092123555856,
negative,yellow,2,k,None,,,,,,,,,0,4,4,4,,,,,,,,,,,,,,,,,,,,,,,,,,,,,,,,,,,,,main,k,k,1,0.7667230000006384,248.48748980000164,None,None,0,,,,,,,,,,,,,,218,25,Male,2022-05-17_15h19.24.030,Main,2022.1.1,60.041092123555856,
positive,yellow,2,None,k,,,,,,,,,0,5,5,5,,,,,,,,,,,,,,,,,,,,,,,,,,,,,,,,,,,,,main,None,None,1,1.5071337999997922,250.25724850000006,None,None,1,,,,,,,,,,,,,,218,25,Male,2022-05-17_15h19.24.030,Main,2022.1.1,60.041092123555856,
negative,blue,2,None,k,,,,,,,,,0,6,6,6,,,,,,,,,,,,,,,,,,,,,,,,,,,,,,,,,,,,,main,None,k,0,0.9940506999992067,252.76565310000115,None,None,1,,,,,,,,,,,,,,218,25,Male,2022-05-17_15h19.24.030,Main,2022.1.1,60.041092123555856,
positive,red,2,None,None,,,,,,,,,0,7,7,7,,,,,,,,,,,,,,,,,,,,,,,,,,,,,,,,,,,,,main,None,None,1,1.4982951000001776,255.7729489000012,None,None,1,,,,,,,,,,,,,,218,25,Male,2022-05-17_15h19.24.030,Main,2022.1.1,60.041092123555856,
positive,yellow,1,None,k,,,,,,,,,0,8,8,8,,,,,,,,,,,,,,,,,,,,,,,,,,,,,,,,,,,,,main,None,None,1,1.5142257999996218,258.2700831000002,None,None,1,,,,,,,,,,,,,,218,25,Male,2022-05-17_15h19.24.030,Main,2022.1.1,60.041092123555856,
negative,red,1,None,None,,,,,,,,,0,9,9,9,,,,,,,,,,,,,,,,,,,,,,,,,,,,,,,,,,,,,main,None,None,1,1.514722999998412,260.78610860000117,None,None,1,,,,,,,,,,,,,,218,25,Male,2022-05-17_15h19.24.030,Main,2022.1.1,60.041092123555856,
positive,yellow,1,None,k,,,,,,,,,0,10,10,10,,,,,,,,,,,,,,,,,,,,,,,,,,,,,,,,,,,,,main,None,None,1,1.514079499998843,263.30288400000063,None,None,1,,,,,,,,,,,,,,218,25,Male,2022-05-17_15h19.24.030,Main,2022.1.1,60.041092123555856,
negative,yellow,1,k,None,,,,,,,,,0,11,11,11,,,,,,,,,,,,,,,,,,,,,,,,,,,,,,,,,,,,,main,k,k,1,1.3649317000017618,265.8222469000011,None,None,0,,,,,,,,,,,,,,218,25,Male,2022-05-17_15h19.24.030,Main,2022.1.1,60.041092123555856,
negative,yellow,1,k,None,,,,,,,,,0,12,12,12,,,,,,,,,,,,,,,,,,,,,,,,,,,,,,,,,,,,,main,k,k,1,0.8666408000008232,268.1848134000011,None,None,0,,,,,,,,,,,,,,218,25,Male,2022-05-17_15h19.24.030,Main,2022.1.1,60.041092123555856,
negative,red,2,None,None,,,,,,,,,0,13,13,13,,,,,,,,,,,,,,,,,,,,,,,,,,,,,,,,,,,,,main,None,None,1,1.5136745999989216,270.0554897000002,None,None,1,,,,,,,,,,,,,,218,25,Male,2022-05-17_15h19.24.030,Main,2022.1.1,60.041092123555856,
positive,yellow,2,None,k,,,,,,,,,0,14,14,14,,,,,,,,,,,,,,,,,,,,,,,,,,,,,,,,,,,,,main,None,None,1,1.5073718999992707,272.56740380000156,None,None,1,,,,,,,,,,,,,,218,25,Male,2022-05-17_15h19.24.030,Main,2022.1.1,60.041092123555856,
positive,blue,1,k,None,,,,,,,,,0,15,15,15,,,,,,,,,,,,,,,,,,,,,,,,,,,,,,,,,,,,,main,k,k,1,1.3743278000001737,275.0784041000006,None,None,0,,,,,,,,,,,,,,218,25,Male,2022-05-17_15h19.24.030,Main,2022.1.1,60.041092123555856,
negative,blue,1,None,k,,,,,,,,,0,16,16,16,,,,,,,,,,,,,,,,,,,,,,,,,,,,,,,,,,,,,main,None,None,1,1.5033429999984946,277.4580414000011,None,None,1,,,,,,,,,,,,,,218,25,Male,2022-05-17_15h19.24.030,Main,2022.1.1,60.041092123555856,
positive,blue,2,k,None,,,,,,,,,0,17,17,17,,,,,,,,,,,,,,,,,,,,,,,,,,,,,,,,,,,,,main,k,k,1,1.4817502000005334,279.9606031000003,None,None,0,,,,,,,,,,,,,,218,25,Male,2022-05-17_15h19.24.030,Main,2022.1.1,60.041092123555856,
negative,blue,2,None,k,,,,,,,,,0,18,18,18,,,,,,,,,,,,,,,,,,,,,,,,,,,,,,,,,,,,,main,None,None,1,1.5077338000010059,282.44374700000117,None,None,1,,,,,,,,,,,,,,218,25,Male,2022-05-17_15h19.24.030,Main,2022.1.1,60.041092123555856,
negative,blue,1,None,k,,,,,,,,,0,19,19,19,,,,,,,,,,,,,,,,,,,,,,,,,,,,,,,,,,,,,main,None,None,1,1.5008935000005295,284.9548547000013,None,None,1,,,,,,,,,,,,,,218,25,Male,2022-05-17_15h19.24.030,Main,2022.1.1,60.041092123555856,
negative,blue,1,None,k,,,,,,,,,0,20,20,20,,,,,,,,,,,,,,,,,,,,,,,,,,,,,,,,,,,,,main,None,None,1,1.502984100001413,287.4572139000011,None,None,1,,,,,,,,,,,,,,218,25,Male,2022-05-17_15h19.24.030,Main,2022.1.1,60.041092123555856,
negative,blue,2,None,k,,,,,,,,,0,21,21,21,,,,,,,,,,,,,,,,,,,,,,,,,,,,,,,,,,,,,main,None,None,1,1.510157299999264,289.95915700000114,None,None,1,,,,,,,,,,,,,,218,25,Male,2022-05-17_15h19.24.030,Main,2022.1.1,60.041092123555856,
negative,red,1,None,None,,,,,,,,,0,22,22,22,,,,,,,,,,,,,,,,,,,,,,,,,,,,,,,,,,,,,main,None,None,1,1.5066108999999415,292.47315920000074,None,None,1,,,,,,,,,,,,,,218,25,Male,2022-05-17_15h19.24.030,Main,2022.1.1,60.041092123555856,
positive,red,2,None,None,,,,,,,,,0,23,23,23,,,,,,,,,,,,,,,,,,,,,,,,,,,,,,,,,,,,,main,None,None,1,1.5096752999997989,294.97902500000055,None,None,1,,,,,,,,,,,,,,218,25,Male,2022-05-17_15h19.24.030,Main,2022.1.1,60.041092123555856,
negative,red,2,None,None,,,,,,,,,0,24,24,24,,,,,,,,,,,,,,,,,,,,,,,,,,,,,,,,,,,,,main,None,None,1,1.5058559000008245,297.4931832000002,None,None,1,,,,,,,,,,,,,,218,25,Male,2022-05-17_15h19.24.030,Main,2022.1.1,60.041092123555856,
positive,blue,2,k,None,,,,,,,,,0,25,25,25,,,,,,,,,,,,,,,,,,,,,,,,,,,,,,,,,,,,,main,k,k,1,0.9818219999997382,299.99807839999994,None,None,0,,,,,,,,,,,,,,218,25,Male,2022-05-17_15h19.24.030,Main,2022.1.1,60.041092123555856,
negative,yellow,1,k,None,,,,,,,,,0,26,26,26,,,,,,,,,,,,,,,,,,,,,,,,,,,,,,,,,,,,,main,k,k,1,1.0291909999996278,301.9849714000011,None,None,0,,,,,,,,,,,,,,218,25,Male,2022-05-17_15h19.24.030,Main,2022.1.1,60.041092123555856,
positive,blue,2,k,None,,,,,,,,,0,27,27,27,,,,,,,,,,,,,,,,,,,,,,,,,,,,,,,,,,,,,main,k,k,1,0.8828210000010586,304.0128123000013,None,None,0,,,,,,,,,,,,,,218,25,Male,2022-05-17_15h19.24.030,Main,2022.1.1,60.041092123555856,
negative,blue,2,None,k,,,,,,,,,0,28,28,28,,,,,,,,,,,,,,,,,,,,,,,,,,,,,,,,,,,,,main,None,None,1,1.507121200000256,305.89643120000073,None,None,1,,,,,,,,,,,,,,218,25,Male,2022-05-17_15h19.24.030,Main,2022.1.1,60.041092123555856,
positive,red,1,None,None,,,,,,,,,0,29,29,29,,,,,,,,,,,,,,,,,,,,,,,,,,,,,,,,,,,,,main,None,None,1,1.4931469000002835,308.40780970000014,None,None,1,,,,,,,,,,,,,,218,25,Male,2022-05-17_15h19.24.030,Main,2022.1.1,60.041092123555856,
positive,blue,1,k,None,,,,,,,,,0,30,30,30,,,,,,,,,,,,,,,,,,,,,,,,,,,,,,,,,,,,,main,k,k,1,0.9113610999993398,310.90339400000084,None,None,0,,,,,,,,,,,,,,218,25,Male,2022-05-17_15h19.24.030,Main,2022.1.1,60.041092123555856,
positive,yellow,1,None,k,,,,,,,,,0,31,31,31,,,,,,,,,,,,,,,,,,,,,,,,,,,,,,,,,,,,,main,None,None,1,1.5014387000010174,312.81700720000117,None,None,1,,,,,,,,,,,,,,218,25,Male,2022-05-17_15h19.24.030,Main,2022.1.1,60.041092123555856,
negative,yellow,2,k,None,,,,,,,,,0,32,32,32,,,,,,,,,,,,,,,,,,,,,,,,,,,,,,,,,,,,,main,k,k,1,0.841453700000784,315.3211329000005,None,None,0,,,,,,,,,,,,,,218,25,Male,2022-05-17_15h19.24.030,Main,2022.1.1,60.041092123555856,
negative,blue,1,None,k,,,,,,,,,0,33,33,33,,,,,,,,,,,,,,,,,,,,,,,,,,,,,,,,,,,,,main,None,None,1,1.5075482999982341,317.164690900001,None,None,1,,,,,,,,,,,,,,218,25,Male,2022-05-17_15h19.24.030,Main,2022.1.1,60.041092123555856,
positive,blue,1,k,None,,,,,,,,,0,34,34,34,,,,,,,,,,,,,,,,,,,,,,,,,,,,,,,,,,,,,main,k,k,1,0.8097376999994594,319.6729011000007,None,None,0,,,,,,,,,,,,,,218,25,Male,2022-05-17_15h19.24.030,Main,2022.1.1,60.041092123555856,
negative,yellow,1,k,None,,,,,,,,,0,35,35,35,,,,,,,,,,,,,,,,,,,,,,,,,,,,,,,,,,,,,main,k,k,1,2.3486864999995305,321.48488370000086,None,None,0,,,,,,,,,,,,,,218,25,Male,2022-05-17_15h19.24.030,Main,2022.1.1,60.041092123555856,
positive,yellow,2,None,k,,,,,,,,,0,36,36,36,,,,,,,,,,,,,,,,,,,,,,,,,,,,,,,,,,,,,main,None,None,1,1.501828899999964,325.84805100000085,None,None,1,,,,,,,,,,,,,,218,25,Male,2022-05-17_15h19.24.030,Main,2022.1.1,60.041092123555856,
positive,yellow,2,None,k,,,,,,,,,0,37,37,37,,,,,,,,,,,,,,,,,,,,,,,,,,,,,,,,,,,,,main,None,None,1,1.5145102999995288,328.35152520000156,None,None,1,,,,,,,,,,,,,,218,25,Male,2022-05-17_15h19.24.030,Main,2022.1.1,60.041092123555856,
negative,yellow,2,k,None,,,,,,,,,0,38,38,38,,,,,,,,,,,,,,,,,,,,,,,,,,,,,,,,,,,,,main,k,k,1,0.847116000000824,330.86772550000023,None,None,0,,,,,,,,,,,,,,218,25,Male,2022-05-17_15h19.24.030,Main,2022.1.1,60.041092123555856,
positive,yellow,1,None,k,,,,,,,,,0,39,39,39,,,,,,,,,,,,,,,,,,,,,,,,,,,,,,,,,,,,,main,None,None,1,1.4962562000000617,332.71695309999996,None,None,1,,,,,,,,,,,,,,218,25,Male,2022-05-17_15h19.24.030,Main,2022.1.1,60.041092123555856,
negative,yellow,2,k,None,,,,,,,,,0,40,40,40,,,,,,,,,,,,,,,,,,,,,,,,,,,,,,,,,,,,,main,k,k,1,0.6656671999990067,335.2097515000005,None,None,0,,,,,,,,,,,,,,218,25,Male,2022-05-17_15h19.24.030,Main,2022.1.1,60.041092123555856,
positive,blue,2,k,None,,,,,,,,,0,41,41,41,,,,,,,,,,,,,,,,,,,,,,,,,,,,,,,,,,,,,main,k,k,1,1.3125930999995035,336.88192920000074,None,None,0,,,,,,,,,,,,,,218,25,Male,2022-05-17_15h19.24.030,Main,2022.1.1,60.041092123555856,
positive,blue,2,k,None,,,,,,,,,0,42,42,42,,,,,,,,,,,,,,,,,,,,,,,,,,,,,,,,,,,,,main,k,k,1,0.7228262000007817,339.1951067000009,None,None,0,,,,,,,,,,,,,,218,25,Male,2022-05-17_15h19.24.030,Main,2022.1.1,60.041092123555856,
negative,blue,2,None,k,,,,,,,,,0,43,43,43,,,,,,,,,,,,,,,,,,,,,,,,,,,,,,,,,,,,,main,None,None,1,1.506016900000759,340.9190226999999,None,None,1,,,,,,,,,,,,,,218,25,Male,2022-05-17_15h19.24.030,Main,2022.1.1,60.041092123555856,
negative,red,1,None,None,,,,,,,,,0,44,44,44,,,,,,,,,,,,,,,,,,,,,,,,,,,,,,,,,,,,,main,None,None,1,1.503307400000267,343.42766500000107,None,None,1,,,,,,,,,,,,,,218,25,Male,2022-05-17_15h19.24.030,Main,2022.1.1,60.041092123555856,
negative,yellow,1,k,None,,,,,,,,,0,45,45,45,,,,,,,,,,,,,,,,,,,,,,,,,,,,,,,,,,,,,main,k,k,1,2.3600126999990607,345.93315650000113,None,None,0,,,,,,,,,,,,,,218,25,Male,2022-05-17_15h19.24.030,Main,2022.1.1,60.041092123555856,
negative,yellow,1,k,None,,,,,,,,,0,46,46,46,,,,,,,,,,,,,,,,,,,,,,,,,,,,,,,,,,,,,main,k,k,1,1.1069480999994994,350.29983900000116,None,None,0,,,,,,,,,,,,,,218,25,Male,2022-05-17_15h19.24.030,Main,2022.1.1,60.041092123555856,
positive,red,1,None,None,,,,,,,,,0,47,47,47,,,,,,,,,,,,,,,,,,,,,,,,,,,,,,,,,,,,,main,None,None,1,1.4984915000004548,352.4085791000016,None,None,1,,,,,,,,,,,,,,218,25,Male,2022-05-17_15h19.24.030,Main,2022.1.1,60.041092123555856,
positive,yellow,1,None,k,,,,,,,,,0,48,48,48,,,,,,,,,,,,,,,,,,,,,,,,,,,,,,,,,,,,,main,None,None,1,1.5116193000012572,354.90610280000146,None,None,1,,,,,,,,,,,,,,218,25,Male,2022-05-17_15h19.24.030,Main,2022.1.1,60.041092123555856,
negative,blue,1,None,k,,,,,,,,,0,49,49,49,,,,,,,,,,,,,,,,,,,,,,,,,,,,,,,,,,,,,main,None,None,1,1.5175947999996424,357.42411960000027,None,None,1,,,,,,,,,,,,,,218,25,Male,2022-05-17_15h19.24.030,Main,2022.1.1,60.041092123555856,
positive,yellow,2,None,k,,,,,,,,,0,50,50,50,,,,,,,,,,,,,,,,,,,,,,,,,,,,,,,,,,,,,main,None,None,1,1.5140874999997322,359.9471521000014,None,None,1,,,,,,,,,,,,,,218,25,Male,2022-05-17_15h19.24.030,Main,2022.1.1,60.041092123555856,
negative,blue,1,None,k,,,,,,,,,0,51,51,51,,,,,,,,,,,,,,,,,,,,,,,,,,,,,,,,,,,,,main,None,None,1,1.5017229999994015,362.4635706000008,None,None,1,,,,,,,,,,,,,,218,25,Male,2022-05-17_15h19.24.030,Main,2022.1.1,60.041092123555856,
positive,red,2,None,None,,,,,,,,,0,52,52,52,,,,,,,,,,,,,,,,,,,,,,,,,,,,,,,,,,,,,main,None,None,1,1.4977123999997275,364.96591720000106,None,None,1,,,,,,,,,,,,,,218,25,Male,2022-05-17_15h19.24.030,Main,2022.1.1,60.041092123555856,
positive,yellow,2,None,k,,,,,,,,,0,53,53,53,,,,,,,,,,,,,,,,,,,,,,,,,,,,,,,,,,,,,main,None,None,1,1.50874180000028,367.4655176000015,None,None,1,,,,,,,,,,,,,,218,25,Male,2022-05-17_15h19.24.030,Main,2022.1.1,60.041092123555856,
negative,red,2,None,None,,,,,,,,,0,54,54,54,,,,,,,,,,,,,,,,,,,,,,,,,,,,,,,,,,,,,main,None,None,1,1.5148896999999124,369.9770638000009,None,None,1,,,,,,,,,,,,,,218,25,Male,2022-05-17_15h19.24.030,Main,2022.1.1,60.041092123555856,
positive,yellow,1,None,k,,,,,,,,,0,55,55,55,,,,,,,,,,,,,,,,,,,,,,,,,,,,,,,,,,,,,main,None,None,1,1.5026811999996426,372.4899867000004,None,None,1,,,,,,,,,,,,,,218,25,Male,2022-05-17_15h19.24.030,Main,2022.1.1,60.041092123555856,
negative,blue,2,None,k,,,,,,,,,0,56,56,56,,,,,,,,,,,,,,,,,,,,,,,,,,,,,,,,,,,,,main,None,k,0,1.3683705000003101,374.9973263000011,None,None,1,,,,,,,,,,,,,,218,25,Male,2022-05-17_15h19.24.030,Main,2022.1.1,60.041092123555856,
positive,blue,1,k,None,,,,,,,,,0,57,57,57,,,,,,,,,,,,,,,,,,,,,,,,,,,,,,,,,,,,,main,k,k,1,1.3048792000008689,378.3734365,None,None,0,,,,,,,,,,,,,,218,25,Male,2022-05-17_15h19.24.030,Main,2022.1.1,60.041092123555856,
positive,blue,1,k,None,,,,,,,,,0,58,58,58,,,,,,,,,,,,,,,,,,,,,,,,,,,,,,,,,,,,,main,k,k,1,1.3793340000011085,380.6796580000009,None,None,0,,,,,,,,,,,,,,218,25,Male,2022-05-17_15h19.24.030,Main,2022.1.1,60.041092123555856,
negative,yellow,2,k,None,,,,,,,,,0,59,59,59,,,,,,,,,,,,,,,,,,,,,,,,,,,,,,,,,,,,,main,k,k,1,1.0286713000004966,383.0581168000008,None,None,0,,,,,,,,,,,,,,218,25,Male,2022-05-17_15h19.24.030,Main,2022.1.1,60.041092123555856,
positive,red,2,None,None,,,,,,,,,0,60,60,60,,,,,,,,,,,,,,,,,,,,,,,,,,,,,,,,,,,,,main,None,None,1,1.507556200000181,385.0878932000014,None,None,1,,,,,,,,,,,,,,218,25,Male,2022-05-17_15h19.24.030,Main,2022.1.1,60.041092123555856,
negative,yellow,1,k,None,,,,,,,,,0,61,61,61,,,,,,,,,,,,,,,,,,,,,,,,,,,,,,,,,,,,,main,k,k,1,1.3034724999997707,387.6008778000014,None,None,0,,,,,,,,,,,,,,218,25,Male,2022-05-17_15h19.24.030,Main,2022.1.1,60.041092123555856,
negative,red,1,None,None,,,,,,,,,0,62,62,62,,,,,,,,,,,,,,,,,,,,,,,,,,,,,,,,,,,,,main,None,None,1,1.4987048999992112,389.9076077000009,None,None,1,,,,,,,,,,,,,,218,25,Male,2022-05-17_15h19.24.030,Main,2022.1.1,60.041092123555856,
negative,blue,1,None,k,,,,,,,,,0,63,63,63,,,,,,,,,,,,,,,,,,,,,,,,,,,,,,,,,,,,,main,None,None,1,1.5090329999984533,392.40543140000045,None,None,1,,,,,,,,,,,,,,218,25,Male,2022-05-17_15h19.24.030,Main,2022.1.1,60.041092123555856,
positive,blue,2,k,None,,,,,,,,,0,64,64,64,,,,,,,,,,,,,,,,,,,,,,,,,,,,,,,,,,,,,main,k,k,1,0.7229682999986835,394.9180658000005,None,None,0,,,,,,,,,,,,,,218,25,Male,2022-05-17_15h19.24.030,Main,2022.1.1,60.041092123555856,
negative,yellow,2,k,None,,,,,,,,,0,65,65,65,,,,,,,,,,,,,,,,,,,,,,,,,,,,,,,,,,,,,main,k,k,1,0.9911597000009351,396.64458490000106,None,None,0,,,,,,,,,,,,,,218,25,Male,2022-05-17_15h19.24.030,Main,2022.1.1,60.041092123555856,
positive,yellow,2,None,k,,,,,,,,,0,66,66,66,,,,,,,,,,,,,,,,,,,,,,,,,,,,,,,,,,,,,main,None,None,1,1.5139103000001342,398.6369912000009,None,None,1,,,,,,,,,,,,,,218,25,Male,2022-05-17_15h19.24.030,Main,2022.1.1,60.041092123555856,
positive,yellow,2,None,k,,,,,,,,,0,67,67,67,,,,,,,,,,,,,,,,,,,,,,,,,,,,,,,,,,,,,main,None,None,1,1.4982886999987386,401.1530429000013,None,None,1,,,,,,,,,,,,,,218,25,Male,2022-05-17_15h19.24.030,Main,2022.1.1,60.041092123555856,
positive,red,1,None,None,,,,,,,,,0,68,68,68,,,,,,,,,,,,,,,,,,,,,,,,,,,,,,,,,,,,,main,None,None,1,1.5013690000014321,403.6551552000001,None,None,1,,,,,,,,,,,,,,218,25,Male,2022-05-17_15h19.24.030,Main,2022.1.1,60.041092123555856,
positive,yellow,1,None,k,,,,,,,,,0,69,69,69,,,,,,,,,,,,,,,,,,,,,,,,,,,,,,,,,,,,,main,None,None,1,1.5109687999993184,406.15901570000096,None,None,1,,,,,,,,,,,,,,218,25,Male,2022-05-17_15h19.24.030,Main,2022.1.1,60.041092123555856,
negative,yellow,2,k,None,,,,,,,,,0,70,70,70,,,,,,,,,,,,,,,,,,,,,,,,,,,,,,,,,,,,,main,k,k,1,1.003149600001052,408.6697980000008,None,None,0,,,,,,,,,,,,,,218,25,Male,2022-05-17_15h19.24.030,Main,2022.1.1,60.041092123555856,
positive,yellow,1,None,k,,,,,,,,,0,71,71,71,,,,,,,,,,,,,,,,,,,,,,,,,,,,,,,,,,,,,main,None,None,1,1.5085368999989441,410.6775849000005,None,None,1,,,,,,,,,,,,,,218,25,Male,2022-05-17_15h19.24.030,Main,2022.1.1,60.041092123555856,
negative,blue,1,None,k,,,,,,,,,0,72,72,72,,,,,,,,,,,,,,,,,,,,,,,,,,,,,,,,,,,,,main,None,None,1,1.506387999999788,413.19082010000056,None,None,1,,,,,,,,,,,,,,218,25,Male,2022-05-17_15h19.24.030,Main,2022.1.1,60.041092123555856,
negative,red,2,None,None,,,,,,,,,0,73,73,73,,,,,,,,,,,,,,,,,,,,,,,,,,,,,,,,,,,,,main,None,None,1,1.505810399999973,415.6964999000011,None,None,1,,,,,,,,,,,,,,218,25,Male,2022-05-17_15h19.24.030,Main,2022.1.1,60.041092123555856,
positive,blue,2,k,None,,,,,,,,,0,74,74,74,,,,,,,,,,,,,,,,,,,,,,,,,,,,,,,,,,,,,main,k,k,1,2.4130926999987423,418.2069519000015,None,None,0,,,,,,,,,,,,,,218,25,Male,2022-05-17_15h19.24.030,Main,2022.1.1,60.041092123555856,
negative,blue,2,None,k,,,,,,,,,0,75,75,75,,,,,,,,,,,,,,,,,,,,,,,,,,,,,,,,,,,,,main,None,None,1,1.505280599998514,422.63597890000165,None,None,1,,,,,,,,,,,,,,218,25,Male,2022-05-17_15h19.24.030,Main,2022.1.1,60.041092123555856,
negative,blue,2,None,k,,,,,,,,,0,76,76,76,,,,,,,,,,,,,,,,,,,,,,,,,,,,,,,,,,,,,main,None,None,1,1.511803499999587,425.14430340000035,None,None,1,,,,,,,,,,,,,,218,25,Male,2022-05-17_15h19.24.030,Main,2022.1.1,60.041092123555856,
negative,yellow,1,k,None,,,,,,,,,0,77,77,77,,,,,,,,,,,,,,,,,,,,,,,,,,,,,,,,,,,,,main,k,k,1,3.342715599999792,427.65825120000045,None,None,0,,,,,,,,,,,,,,218,25,Male,2022-05-17_15h19.24.030,Main,2022.1.1,60.041092123555856,
positive,blue,1,k,None,,,,,,,,,0,78,78,78,,,,,,,,,,,,,,,,,,,,,,,,,,,,,,,,,,,,,main,k,k,1,1.9831047000006947,433.0188672000004,None,None,0,,,,,,,,,,,,,,218,25,Male,2022-05-17_15h19.24.030,Main,2022.1.1,60.041092123555856,
positive,blue,1,k,None,,,,,,,,,0,79,79,79,,,,,,,,,,,,,,,,,,,,,,,,,,,,,,,,,,,,,main,k,k,1,1.014615000000049,437.0211932000002,None,None,0,,,,,,,,,,,,,,218,25,Male,2022-05-17_15h19.24.030,Main,2022.1.1,60.041092123555856,
positive,red,2,None,None,,,,,,,,,0,80,80,80,,,,,,,,,,,,,,,,,,,,,,,,,,,,,,,,,,,,,main,None,None,1,1.5128399999994144,439.0387036000011,None,None,1,,,,,,,,,,,,,,218,25,Male,2022-05-17_15h19.24.030,Main,2022.1.1,60.041092123555856,
positive,yellow,2,None,k,,,,,,,,,0,81,81,81,,,,,,,,,,,,,,,,,,,,,,,,,,,,,,,,,,,,,main,None,None,1,1.5010033999988082,441.55299620000005,None,None,1,,,,,,,,,,,,,,218,25,Male,2022-05-17_15h19.24.030,Main,2022.1.1,60.041092123555856,
positive,blue,1,k,None,,,,,,,,,0,82,82,82,,,,,,,,,,,,,,,,,,,,,,,,,,,,,,,,,,,,,main,k,k,1,1.1084745999996812,444.05532720000156,None,None,0,,,,,,,,,,,,,,218,25,Male,2022-05-17_15h19.24.030,Main,2022.1.1,60.041092123555856,
negative,yellow,2,k,None,,,,,,,,,0,83,83,83,,,,,,,,,,,,,,,,,,,,,,,,,,,,,,,,,,,,,main,k,k,1,0.954337500001202,446.1652499000011,None,None,0,,,,,,,,,,,,,,218,25,Male,2022-05-17_15h19.24.030,Main,2022.1.1,60.041092123555856,
positive,blue,2,k,None,,,,,,,,,0,84,84,84,,,,,,,,,,,,,,,,,,,,,,,,,,,,,,,,,,,,,main,k,k,1,1.1007896000010078,448.1209905000014,None,None,0,,,,,,,,,,,,,,218,25,Male,2022-05-17_15h19.24.030,Main,2022.1.1,60.041092123555856,
positive,yellow,1,None,k,,,,,,,,,0,85,85,85,,,,,,,,,,,,,,,,,,,,,,,,,,,,,,,,,,,,,main,None,None,1,1.5163642999996227,450.2235670000009,None,None,1,,,,,,,,,,,,,,218,25,Male,2022-05-17_15h19.24.030,Main,2022.1.1,60.041092123555856,
positive,blue,2,k,None,,,,,,,,,0,86,86,86,,,,,,,,,,,,,,,,,,,,,,,,,,,,,,,,,,,,,main,k,k,1,1.2187331000004633,452.7431624000001,None,None,0,,,,,,,,,,,,,,218,25,Male,2022-05-17_15h19.24.030,Main,2022.1.1,60.041092123555856,
positive,blue,1,k,None,,,,,,,,,0,87,87,87,,,,,,,,,,,,,,,,,,,,,,,,,,,,,,,,,,,,,main,k,k,1,1.7129322000000684,454.9624351000002,None,None,0,,,,,,,,,,,,,,218,25,Male,2022-05-17_15h19.24.030,Main,2022.1.1,60.041092123555856,
negative,yellow,2,k,None,,,,,,,,,0,88,88,88,,,,,,,,,,,,,,,,,,,,,,,,,,,,,,,,,,,,,main,k,k,1,2.655738100000235,458.69850640000004,None,None,0,,,,,,,,,,,,,,218,25,Male,2022-05-17_15h19.24.030,Main,2022.1.1,60.041092123555856,
negative,blue,2,None,k,,,,,,,,,0,89,89,89,,,,,,,,,,,,,,,,,,,,,,,,,,,,,,,,,,,,,main,None,None,1,1.510200500000792,463.36922760000016,None,None,1,,,,,,,,,,,,,,218,25,Male,2022-05-17_15h19.24.030,Main,2022.1.1,60.041092123555856,
positive,yellow,2,None,k,,,,,,,,,0,90,90,90,,,,,,,,,,,,,,,,,,,,,,,,,,,,,,,,,,,,,main,None,None,1,1.5024213999986387,465.87941410000167,None,None,1,,,,,,,,,,,,,,218,25,Male,2022-05-17_15h19.24.030,Main,2022.1.1,60.041092123555856,
negative,yellow,1,k,None,,,,,,,,,0,91,91,91,,,,,,,,,,,,,,,,,,,,,,,,,,,,,,,,,,,,,main,k,k,1,1.207911999999851,468.38573460000043,None,None,0,,,,,,,,,,,,,,218,25,Male,2022-05-17_15h19.24.030,Main,2022.1.1,60.041092123555856,
negative,red,2,None,None,,,,,,,,,0,92,92,92,,,,,,,,,,,,,,,,,,,,,,,,,,,,,,,,,,,,,main,None,None,1,1.5154544999986683,470.5945403000005,None,None,1,,,,,,,,,,,,,,218,25,Male,2022-05-17_15h19.24.030,Main,2022.1.1,60.041092123555856,
negative,blue,2,None,k,,,,,,,,,0,93,93,93,,,,,,,,,,,,,,,,,,,,,,,,,,,,,,,,,,,,,main,None,None,1,1.5206168000004254,473.1121714000001,None,None,1,,,,,,,,,,,,,,218,25,Male,2022-05-17_15h19.24.030,Main,2022.1.1,60.041092123555856,
negative,blue,1,None,k,,,,,,,,,0,94,94,94,,,,,,,,,,,,,,,,,,,,,,,,,,,,,,,,,,,,,main,None,None,1,1.5078171999994083,475.63647110000056,None,None,1,,,,,,,,,,,,,,218,25,Male,2022-05-17_15h19.24.030,Main,2022.1.1,60.041092123555856,
negative,blue,1,None,k,,,,,,,,,0,95,95,95,,,,,,,,,,,,,,,,,,,,,,,,,,,,,,,,,,,,,main,None,None,1,1.5135178999989876,478.1479990000007,None,None,1,,,,,,,,,,,,,,218,25,Male,2022-05-17_15h19.24.030,Main,2022.1.1,60.041092123555856,
negative,red,1,None,None,,,,,,,,,0,96,96,96,,,,,,,,,,,,,,,,,,,,,,,,,,,,,,,,,,,,,main,None,None,1,1.51331349999964,480.6630595000006,None,None,1,,,,,,,,,,,,,,218,25,Male,2022-05-17_15h19.24.030,Main,2022.1.1,60.041092123555856,
positive,yellow,1,None,k,,,,,,,,,0,97,97,97,,,,,,,,,,,,,,,,,,,,,,,,,,,,,,,,,,,,,main,None,None,1,1.514340200001243,483.1788875000002,None,None,1,,,,,,,,,,,,,,218,25,Male,2022-05-17_15h19.24.030,Main,2022.1.1,60.041092123555856,
negative,yellow,1,k,None,,,,,,,,,0,98,98,98,,,,,,,,,,,,,,,,,,,,,,,,,,,,,,,,,,,,,main,k,k,1,0.9678661999987526,485.69169480000164,None,None,0,,,,,,,,,,,,,,218,25,Male,2022-05-17_15h19.24.030,Main,2022.1.1,60.041092123555856,
positive,red,1,None,None,,,,,,,,,0,99,99,99,,,,,,,,,,,,,,,,,,,,,,,,,,,,,,,,,,,,,main,None,None,1,1.5088486000004195,487.6651748000004,None,None,1,,,,,,,,,,,,,,218,25,Male,2022-05-17_15h19.24.030,Main,2022.1.1,60.041092123555856,
positive,blue,1,k,None,,,,,,,,,0,100,100,100,,,,,,,,,,,,,,,,,,,,,,,,,,,,,,,,,,,,,main,k,k,1,0.9609373000002961,490.17456910000146,None,None,0,,,,,,,,,,,,,,218,25,Male,2022-05-17_15h19.24.030,Main,2022.1.1,60.041092123555856,
negative,yellow,1,k,None,,,,,,,,,0,101,101,101,,,,,,,,,,,,,,,,,,,,,,,,,,,,,,,,,,,,,main,k,k,1,1.145403600001373,492.1389809000011,None,None,0,,,,,,,,,,,,,,218,25,Male,2022-05-17_15h19.24.030,Main,2022.1.1,60.041092123555856,
negative,blue,2,None,k,,,,,,,,,0,102,102,102,,,,,,,,,,,,,,,,,,,,,,,,,,,,,,,,,,,,,main,None,None,1,1.5170442999988154,494.2894602000015,None,None,1,,,,,,,,,,,,,,218,25,Male,2022-05-17_15h19.24.030,Main,2022.1.1,60.041092123555856,
negative,yellow,2,k,None,,,,,,,,,0,103,103,103,,,,,,,,,,,,,,,,,,,,,,,,,,,,,,,,,,,,,main,k,k,1,1.3139823000001343,496.81290010000157,None,None,0,,,,,,,,,,,,,,218,25,Male,2022-05-17_15h19.24.030,Main,2022.1.1,60.041092123555856,
positive,yellow,2,None,k,,,,,,,,,0,104,104,104,,,,,,,,,,,,,,,,,,,,,,,,,,,,,,,,,,,,,main,None,None,1,1.5132604999998875,499.12764060000154,None,None,1,,,,,,,,,,,,,,218,25,Male,2022-05-17_15h19.24.030,Main,2022.1.1,60.041092123555856,
positive,blue,1,k,None,,,,,,,,,0,105,105,105,,,,,,,,,,,,,,,,,,,,,,,,,,,,,,,,,,,,,main,k,k,1,0.9379258999997546,501.6397519000002,None,None,0,,,,,,,,,,,,,,218,25,Male,2022-05-17_15h19.24.030,Main,2022.1.1,60.041092123555856,
positive,blue,2,k,None,,,,,,,,,0,106,106,106,,,,,,,,,,,,,,,,,,,,,,,,,,,,,,,,,,,,,main,k,k,1,0.8966817000000447,503.5801758000016,None,None,0,,,,,,,,,,,,,,218,25,Male,2022-05-17_15h19.24.030,Main,2022.1.1,60.041092123555856,
negative,blue,1,None,k,,,,,,,,,0,107,107,107,,,,,,,,,,,,,,,,,,,,,,,,,,,,,,,,,,,,,main,None,None,1,1.4966562000008707,505.48015360000136,None,None,1,,,,,,,,,,,,,,218,25,Male,2022-05-17_15h19.24.030,Main,2022.1.1,60.041092123555856,
positive,yellow,2,None,k,,,,,,,,,0,108,108,108,,,,,,,,,,,,,,,,,,,,,,,,,,,,,,,,,,,,,main,None,k,0,1.0315153000010469,507.9794737000011,None,None,1,,,,,,,,,,,,,,218,25,Male,2022-05-17_15h19.24.030,Main,2022.1.1,60.041092123555856,
negative,yellow,1,k,None,,,,,,,,,0,109,109,109,,,,,,,,,,,,,,,,,,,,,,,,,,,,,,,,,,,,,main,k,k,1,0.891008000000511,511.03215960000125,None,None,0,,,,,,,,,,,,,,218,25,Male,2022-05-17_15h19.24.030,Main,2022.1.1,60.041092123555856,
negative,blue,2,None,k,,,,,,,,,0,110,110,110,,,,,,,,,,,,,,,,,,,,,,,,,,,,,,,,,,,,,main,None,k,0,0.9361168000014004,512.9235917000005,None,None,1,,,,,,,,,,,,,,218,25,Male,2022-05-17_15h19.24.030,Main,2022.1.1,60.041092123555856,
positive,blue,2,k,None,,,,,,,,,0,111,111,111,,,,,,,,,,,,,,,,,,,,,,,,,,,,,,,,,,,,,main,k,k,1,0.77150040000015,515.8754377000005,None,None,0,,,,,,,,,,,,,,218,25,Male,2022-05-17_15h19.24.030,Main,2022.1.1,60.041092123555856,
negative,blue,1,None,k,,,,,,,,,0,112,112,112,,,,,,,,,,,,,,,,,,,,,,,,,,,,,,,,,,,,,main,None,None,1,1.5076626999998552,517.6482456000012,None,None,1,,,,,,,,,,,,,,218,25,Male,2022-05-17_15h19.24.030,Main,2022.1.1,60.041092123555856,
positive,yellow,1,None,k,,,,,,,,,0,113,113,113,,,,,,,,,,,,,,,,,,,,,,,,,,,,,,,,,,,,,main,None,None,1,1.515179400001216,520.1544984000011,None,None,1,,,,,,,,,,,,,,218,25,Male,2022-05-17_15h19.24.030,Main,2022.1.1,60.041092123555856,
negative,red,1,None,None,,,,,,,,,0,114,114,114,,,,,,,,,,,,,,,,,,,,,,,,,,,,,,,,,,,,,main,None,None,1,1.5185889000003954,522.6768678000008,None,None,1,,,,,,,,,,,,,,218,25,Male,2022-05-17_15h19.24.030,Main,2022.1.1,60.041092123555856,
positive,red,1,None,None,,,,,,,,,0,115,115,115,,,,,,,,,,,,,,,,,,,,,,,,,,,,,,,,,,,,,main,None,None,1,1.5006164999995235,525.1965416000003,None,None,1,,,,,,,,,,,,,,218,25,Male,2022-05-17_15h19.24.030,Main,2022.1.1,60.041092123555856,
negative,red,2,None,None,,,,,,,,,0,116,116,116,,,,,,,,,,,,,,,,,,,,,,,,,,,,,,,,,,,,,main,None,None,1,1.513210999999501,527.6990653000012,None,None,1,,,,,,,,,,,,,,218,25,Male,2022-05-17_15h19.24.030,Main,2022.1.1,60.041092123555856,
negative,yellow,2,k,None,,,,,,,,,0,117,117,117,,,,,,,,,,,,,,,,,,,,,,,,,,,,,,,,,,,,,main,k,k,1,1.389665700000478,530.2139020000013,None,None,0,,,,,,,,,,,,,,218,25,Male,2022-05-17_15h19.24.030,Main,2022.1.1,60.041092123555856,
positive,yellow,1,None,k,,,,,,,,,0,118,118,118,,,,,,,,,,,,,,,,,,,,,,,,,,,,,,,,,,,,,main,None,None,1,1.5092163999997865,532.6070893000015,None,None,1,,,,,,,,,,,,,,218,25,Male,2022-05-17_15h19.24.030,Main,2022.1.1,60.041092123555856,
positive,red,2,None,None,,,,,,,,,0,119,119,119,,,,,,,,,,,,,,,,,,,,,,,,,,,,,,,,,,,,,main,None,None,1,1.5150687999994261,535.1180888000017,None,None,1,,,,,,,,,,,,,,218,25,Male,2022-05-17_15h19.24.030,Main,2022.1.1,60.041092123555856,
positive,blue,2,k,None,,,,,,,,,0,120,120,120,,,,,,,,,,,,,,,,,,,,,,,,,,,,,,,,,,,,,main,k,k,1,1.782113200000822,537.6369009000009,None,None,0,,,,,,,,,,,,,,218,25,Male,2022-05-17_15h19.24.030,Main,2022.1.1,60.041092123555856,
negative,red,1,None,None,,,,,,,,,0,121,121,121,,,,,,,,,,,,,,,,,,,,,,,,,,,,,,,,,,,,,main,None,None,1,1.50417809999999,541.4277634000009,None,None,1,,,,,,,,,,,,,,218,25,Male,2022-05-17_15h19.24.030,Main,2022.1.1,60.041092123555856,
positive,yellow,2,None,k,,,,,,,,,0,122,122,122,,,,,,,,,,,,,,,,,,,,,,,,,,,,,,,,,,,,,main,None,None,1,1.5034298000009585,543.9330418000009,None,None,1,,,,,,,,,,,,,,218,25,Male,2022-05-17_15h19.24.030,Main,2022.1.1,60.041092123555856,
negative,red,2,None,None,,,,,,,,,0,123,123,123,,,,,,,,,,,,,,,,,,,,,,,,,,,,,,,,,,,,,main,None,None,1,1.5011575999997149,546.4408449000002,None,None,1,,,,,,,,,,,,,,218,25,Male,2022-05-17_15h19.24.030,Main,2022.1.1,60.041092123555856,
negative,yellow,2,k,None,,,,,,,,,0,124,124,124,,,,,,,,,,,,,,,,,,,,,,,,,,,,,,,,,,,,,main,k,k,1,1.7322956999996677,548.9455229000014,None,None,0,,,,,,,,,,,,,,218,25,Male,2022-05-17_15h19.24.030,Main,2022.1.1,60.041092123555856,
positive,red,1,None,None,,,,,,,,,0,125,125,125,,,,,,,,,,,,,,,,,,,,,,,,,,,,,,,,,,,,,main,None,None,1,1.5076418000007834,552.6946036000008,None,None,1,,,,,,,,,,,,,,218,25,Male,2022-05-17_15h19.24.030,Main,2022.1.1,60.041092123555856,
negative,blue,2,None,k,,,,,,,,,0,126,126,126,,,,,,,,,,,,,,,,,,,,,,,,,,,,,,,,,,,,,main,None,None,1,1.509989599999244,555.2068044000007,None,None,1,,,,,,,,,,,,,,218,25,Male,2022-05-17_15h19.24.030,Main,2022.1.1,60.041092123555856,
negative,blue,1,None,k,,,,,,,,,0,127,127,127,,,,,,,,,,,,,,,,,,,,,,,,,,,,,,,,,,,,,main,None,None,1,1.4985935000004247,557.7152615000014,None,None,1,,,,,,,,,,,,,,218,25,Male,2022-05-17_15h19.24.030,Main,2022.1.1,60.041092123555856,
negative,yellow,1,k,None,,,,,,,,,0,128,128,128,,,,,,,,,,,,,,,,,,,,,,,,,,,,,,,,,,,,,main,k,k,1,1.1997090000004391,560.2186753000005,None,None,0,,,,,,,,,,,,,,218,25,Male,2022-05-17_15h19.24.030,Main,2022.1.1,60.041092123555856,
negative,yellow,1,k,None,,,,,,,,,0,129,129,129,,,,,,,,,,,,,,,,,,,,,,,,,,,,,,,,,,,,,main,k,k,1,1.1521271999990859,562.4218849000008,None,None,0,,,,,,,,,,,,,,218,25,Male,2022-05-17_15h19.24.030,Main,2022.1.1,60.041092123555856,
positive,blue,1,k,None,,,,,,,,,0,130,130,130,,,,,,,,,,,,,,,,,,,,,,,,,,,,,,,,,,,,,main,k,None,0,2.2521421000001283,564.574792200001,None,None,0,,,,,,,,,,,,,,218,25,Male,2022-05-17_15h19.24.030,Main,2022.1.1,60.041092123555856,
negative,blue,1,None,k,,,,,,,,,0,131,131,131,,,,,,,,,,,,,,,,,,,,,,,,,,,,,,,,,,,,,main,None,None,1,1.5082204999998794,568.8524242000003,None,None,1,,,,,,,,,,,,,,218,25,Male,2022-05-17_15h19.24.030,Main,2022.1.1,60.041092123555856,
negative,blue,2,None,k,,,,,,,,,0,132,132,132,,,,,,,,,,,,,,,,,,,,,,,,,,,,,,,,,,,,,main,None,None,1,1.5054607999991276,571.3611948000016,None,None,1,,,,,,,,,,,,,,218,25,Male,2022-05-17_15h19.24.030,Main,2022.1.1,60.041092123555856,
positive,blue,2,k,None,,,,,,,,,0,133,133,133,,,,,,,,,,,,,,,,,,,,,,,,,,,,,,,,,,,,,main,k,k,1,1.2636772000005294,573.8707135000004,None,None,0,,,,,,,,,,,,,,218,25,Male,2022-05-17_15h19.24.030,Main,2022.1.1,60.041092123555856,
positive,red,2,None,None,,,,,,,,,0,134,134,134,,,,,,,,,,,,,,,,,,,,,,,,,,,,,,,,,,,,,main,None,None,1,1.509748700000273,576.1375846999999,None,None,1,,,,,,,,,,,,,,218,25,Male,2022-05-17_15h19.24.030,Main,2022.1.1,60.041092123555856,
negative,yellow,2,k,None,,,,,,,,,0,135,135,135,,,,,,,,,,,,,,,,,,,,,,,,,,,,,,,,,,,,,main,k,k,1,1.3491131999999197,578.6511417000002,None,None,0,,,,,,,,,,,,,,218,25,Male,2022-05-17_15h19.24.030,Main,2022.1.1,60.041092123555856,
positive,yellow,2,None,k,,,,,,,,,0,136,136,136,,,,,,,,,,,,,,,,,,,,,,,,,,,,,,,,,,,,,main,None,None,1,1.511405499999455,581.0019372000006,None,None,1,,,,,,,,,,,,,,218,25,Male,2022-05-17_15h19.24.030,Main,2022.1.1,60.041092123555856,
positive,blue,1,k,None,,,,,,,,,0,137,137,137,,,,,,,,,,,,,,,,,,,,,,,,,,,,,,,,,,,,,main,k,k,1,2.350770499999271,583.5146742000015,None,None,0,,,,,,,,,,,,,,218,25,Male,2022-05-17_15h19.24.030,Main,2022.1.1,60.041092123555856,
positive,yellow,1,None,k,,,,,,,,,0,138,138,138,,,,,,,,,,,,,,,,,,,,,,,,,,,,,,,,,,,,,main,None,None,1,1.5123758999998245,587.882316700001,None,None,1,,,,,,,,,,,,,,218,25,Male,2022-05-17_15h19.24.030,Main,2022.1.1,60.041092123555856,
positive,yellow,1,None,k,,,,,,,,,0,139,139,139,,,,,,,,,,,,,,,,,,,,,,,,,,,,,,,,,,,,,main,None,None,1,1.5157216999996308,590.3943782000006,None,None,1,,,,,,,,,,,,,,218,25,Male,2022-05-17_15h19.24.030,Main,2022.1.1,60.041092123555856,
positive,yellow,1,None,k,,,,,,,,,0,140,140,140,,,,,,,,,,,,,,,,,,,,,,,,,,,,,,,,,,,,,main,None,None,1,1.50131650000003,592.9168535000008,None,None,1,,,,,,,,,,,,,,218,25,Male,2022-05-17_15h19.24.030,Main,2022.1.1,60.041092123555856,
positive,blue,1,k,None,,,,,,,,,0,141,141,141,,,,,,,,,,,,,,,,,,,,,,,,,,,,,,,,,,,,,main,k,k,1,1.2988913999997749,595.4184682000014,None,None,0,,,,,,,,,,,,,,218,25,Male,2022-05-17_15h19.24.030,Main,2022.1.1,60.041092123555856,
positive,blue,2,k,None,,,,,,,,,0,142,142,142,,,,,,,,,,,,,,,,,,,,,,,,,,,,,,,,,,,,,main,k,k,1,1.0088176999997813,597.7184192000004,None,None,0,,,,,,,,,,,,,,218,25,Male,2022-05-17_15h19.24.030,Main,2022.1.1,60.041092123555856,
positive,yellow,2,None,k,,,,,,,,,0,143,143,143,,,,,,,,,,,,,,,,,,,,,,,,,,,,,,,,,,,,,main,None,None,1,1.5154889000004914,599.7294397000005,None,None,1,,,,,,,,,,,,,,218,25,Male,2022-05-17_15h19.24.030,Main,2022.1.1,60.041092123555856,
negative,yellow,2,k,None,,,,,,,,,0,144,144,144,,,,,,,,,,,,,,,,,,,,,,,,,,,,,,,,,,,,,main,k,k,1,1.1151606000003085,602.2450941000006,None,None,0,,,,,,,,,,,,,,218,25,Male,2022-05-17_15h19.24.030,Main,2022.1.1,60.041092123555856,
negative,blue,2,None,k,,,,,,,,,0,145,145,145,,,,,,,,,,,,,,,,,,,,,,,,,,,,,,,,,,,,,main,None,None,1,1.5024563999995735,604.3661984000009,None,None,1,,,,,,,,,,,,,,218,25,Male,2022-05-17_15h19.24.030,Main,2022.1.1,60.041092123555856,
negative,red,1,None,None,,,,,,,,,0,146,146,146,,,,,,,,,,,,,,,,,,,,,,,,,,,,,,,,,,,,,main,None,None,1,1.51095019999957,606.8704456000014,None,None,1,,,,,,,,,,,,,,218,25,Male,2022-05-17_15h19.24.030,Main,2022.1.1,60.041092123555856,
positive,blue,1,k,None,,,,,,,,,0,147,147,147,,,,,,,,,,,,,,,,,,,,,,,,,,,,,,,,,,,,,main,k,k,1,2.0938351999993756,609.3834018000016,None,None,0,,,,,,,,,,,,,,218,25,Male,2022-05-17_15h19.24.030,Main,2022.1.1,60.041092123555856,
positive,yellow,1,None,k,,,,,,,,,0,148,148,148,,,,,,,,,,,,,,,,,,,,,,,,,,,,,,,,,,,,,main,None,None,1,1.495856499999718,613.4831561999999,None,None,1,,,,,,,,,,,,,,218,25,Male,2022-05-17_15h19.24.030,Main,2022.1.1,60.041092123555856,
negative,red,2,None,None,,,,,,,,,0,149,149,149,,,,,,,,,,,,,,,,,,,,,,,,,,,,,,,,,,,,,main,None,None,1,1.509429599998839,615.9843848,None,None,1,,,,,,,,,,,,,,218,25,Male,2022-05-17_15h19.24.030,Main,2022.1.1,60.041092123555856,
negative,blue,1,None,k,,,,,,,,,0,150,150,150,,,,,,,,,,,,,,,,,,,,,,,,,,,,,,,,,,,,,main,None,None,1,1.497414800000115,618.4984527000015,None,None,1,,,,,,,,,,,,,,218,25,Male,2022-05-17_15h19.24.030,Main,2022.1.1,60.041092123555856,
negative,yellow,2,k,None,,,,,,,,,0,151,151,151,,,,,,,,,,,,,,,,,,,,,,,,,,,,,,,,,,,,,main,k,k,1,1.2240028000014718,620.9961552000004,None,None,0,,,,,,,,,,,,,,218,25,Male,2022-05-17_15h19.24.030,Main,2022.1.1,60.041092123555856,
negative,blue,2,None,k,,,,,,,,,0,152,152,152,,,,,,,,,,,,,,,,,,,,,,,,,,,,,,,,,,,,,main,None,None,1,1.5029386000005616,623.2233891000014,None,None,1,,,,,,,,,,,,,,218,25,Male,2022-05-17_15h19.24.030,Main,2022.1.1,60.041092123555856,
negative,yellow,1,k,None,,,,,,,,,0,153,153,153,,,,,,,,,,,,,,,,,,,,,,,,,,,,,,,,,,,,,main,k,k,1,1.3467173999997613,625.7292439000012,None,None,0,,,,,,,,,,,,,,218,25,Male,2022-05-17_15h19.24.030,Main,2022.1.1,60.041092123555856,
negative,blue,1,None,k,,,,,,,,,0,154,154,154,,,,,,,,,,,,,,,,,,,,,,,,,,,,,,,,,,,,,main,None,None,1,1.5057268000000477,628.0737823,None,None,1,,,,,,,,,,,,,,218,25,Male,2022-05-17_15h19.24.030,Main,2022.1.1,60.041092123555856,
positive,yellow,2,None,k,,,,,,,,,0,155,155,155,,,,,,,,,,,,,,,,,,,,,,,,,,,,,,,,,,,,,main,None,None,1,1.5104615000000194,630.5844045000013,None,None,1,,,,,,,,,,,,,,218,25,Male,2022-05-17_15h19.24.030,Main,2022.1.1,60.041092123555856,
positive,red,2,None,None,,,,,,,,,0,156,156,156,,,,,,,,,,,,,,,,,,,,,,,,,,,,,,,,,,,,,main,None,None,1,1.511891199999809,633.0974485000006,None,None,1,,,,,,,,,,,,,,218,25,Male,2022-05-17_15h19.24.030,Main,2022.1.1,60.041092123555856,
positive,red,1,None,None,,,,,,,,,0,157,157,157,,,,,,,,,,,,,,,,,,,,,,,,,,,,,,,,,,,,,main,None,None,1,1.5100937000006525,635.6125974000006,None,None,1,,,,,,,,,,,,,,218,25,Male,2022-05-17_15h19.24.030,Main,2022.1.1,60.041092123555856,
positive,blue,2,k,None,,,,,,,,,0,158,158,158,,,,,,,,,,,,,,,,,,,,,,,,,,,,,,,,,,,,,main,k,k,1,1.1988428000004205,638.1190691000011,None,None,0,,,,,,,,,,,,,,218,25,Male,2022-05-17_15h19.24.030,Main,2022.1.1,60.041092123555856,
negative,yellow,1,k,None,,,,,,,,,0,159,159,159,,,,,,,,,,,,,,,,,,,,,,,,,,,,,,,,,,,,,main,k,k,1,1.3160282999997435,640.3240430000005,None,None,0,,,,,,,,,,,,,,218,25,Male,2022-05-17_15h19.24.030,Main,2022.1.1,60.041092123555856,
negative,red,2,None,None,,,,,,,,,0,160,160,160,,,,,,,,,,,,,,,,,,,,,,,,,,,,,,,,,,,,,main,None,None,1,1.5134541999996145,642.6415670000006,None,None,1,,,,,,,,,,,,,,218,25,Male,2022-05-17_15h19.24.030,Main,2022.1.1,60.041092123555856,
negative,blue,1,None,k,,,,,,,,,0,161,161,161,,,,,,,,,,,,,,,,,,,,,,,,,,,,,,,,,,,,,main,None,None,1,1.507185099999333,645.1558711000016,None,None,1,,,,,,,,,,,,,,218,25,Male,2022-05-17_15h19.24.030,Main,2022.1.1,60.041092123555856,
negative,blue,1,None,k,,,,,,,,,0,162,162,162,,,,,,,,,,,,,,,,,,,,,,,,,,,,,,,,,,,,,main,None,None,1,1.506782899999962,647.6675314000004,None,None,1,,,,,,,,,,,,,,218,25,Male,2022-05-17_15h19.24.030,Main,2022.1.1,60.041092123555856,
negative,yellow,1,k,None,,,,,,,,,0,163,163,163,,,,,,,,,,,,,,,,,,,,,,,,,,,,,,,,,,,,,main,k,k,1,1.1646720999997342,650.1805010000007,None,None,0,,,,,,,,,,,,,,218,25,Male,2022-05-17_15h19.24.030,Main,2022.1.1,60.041092123555856,
negative,yellow,1,k,None,,,,,,,,,0,164,164,164,,,,,,,,,,,,,,,,,,,,,,,,,,,,,,,,,,,,,main,k,k,1,0.792662100000598,652.3443131000004,None,None,0,,,,,,,,,,,,,,218,25,Male,2022-05-17_15h19.24.030,Main,2022.1.1,60.041092123555856,
positive,yellow,1,None,k,,,,,,,,,0,165,165,165,,,,,,,,,,,,,,,,,,,,,,,,,,,,,,,,,,,,,main,None,None,1,1.5016862000011315,654.1368589000012,None,None,1,,,,,,,,,,,,,,218,25,Male,2022-05-17_15h19.24.030,Main,2022.1.1,60.041092123555856,
negative,red,1,None,None,,,,,,,,,0,166,166,166,,,,,,,,,,,,,,,,,,,,,,,,,,,,,,,,,,,,,main,None,None,1,1.4985008999992715,656.6442636000011,None,None,1,,,,,,,,,,,,,,218,25,Male,2022-05-17_15h19.24.030,Main,2022.1.1,60.041092123555856,
negative,yellow,2,k,None,,,,,,,,,0,167,167,167,,,,,,,,,,,,,,,,,,,,,,,,,,,,,,,,,,,,,main,k,k,1,1.3432293000005302,659.1438702000014,None,None,0,,,,,,,,,,,,,,218,25,Male,2022-05-17_15h19.24.030,Main,2022.1.1,60.041092123555856,
positive,blue,2,k,None,,,,,,,,,0,168,168,168,,,,,,,,,,,,,,,,,,,,,,,,,,,,,,,,,,,,,main,k,k,1,1.0308983999984775,661.4865757000007,None,None,0,,,,,,,,,,,,,,218,25,Male,2022-05-17_15h19.24.030,Main,2022.1.1,60.041092123555856,
positive,red,2,None,None,,,,,,,,,0,169,169,169,,,,,,,,,,,,,,,,,,,,,,,,,,,,,,,,,,,,,main,None,None,1,1.514250100000936,663.5219190000007,None,None,1,,,,,,,,,,,,,,218,25,Male,2022-05-17_15h19.24.030,Main,2022.1.1,60.041092123555856,
positive,red,1,None,None,,,,,,,,,0,170,170,170,,,,,,,,,,,,,,,,,,,,,,,,,,,,,,,,,,,,,main,None,None,1,1.4981377000003704,666.0394487000012,None,None,1,,,,,,,,,,,,,,218,25,Male,2022-05-17_15h19.24.030,Main,2022.1.1,60.041092123555856,
negative,blue,2,None,k,,,,,,,,,0,171,171,171,,,,,,,,,,,,,,,,,,,,,,,,,,,,,,,,,,,,,main,None,None,1,1.5181720000000496,668.5344033000001,None,None,1,,,,,,,,,,,,,,218,25,Male,2022-05-17_15h19.24.030,Main,2022.1.1,60.041092123555856,
positive,blue,2,k,None,,,,,,,,,0,172,172,172,,,,,,,,,,,,,,,,,,,,,,,,,,,,,,,,,,,,,main,k,k,1,1.8096872000005533,671.0589672000006,None,None,0,,,,,,,,,,,,,,218,25,Male,2022-05-17_15h19.24.030,Main,2022.1.1,60.041092123555856,
negative,yellow,2,k,None,,,,,,,,,0,173,173,173,,,,,,,,,,,,,,,,,,,,,,,,,,,,,,,,,,,,,main,k,k,1,3.635363999999754,674.8743602000013,None,None,0,,,,,,,,,,,,,,218,25,Male,2022-05-17_15h19.24.030,Main,2022.1.1,60.041092123555856,
positive,yellow,2,None,k,,,,,,,,,0,174,174,174,,,,,,,,,,,,,,,,,,,,,,,,,,,,,,,,,,,,,main,None,None,1,1.4896747000002506,680.5118079000003,None,None,1,,,,,,,,,,,,,,218,25,Male,2022-05-17_15h19.24.030,Main,2022.1.1,60.041092123555856,
negative,blue,2,None,k,,,,,,,,,0,175,175,175,,,,,,,,,,,,,,,,,,,,,,,,,,,,,,,,,,,,,main,None,None,1,1.5106770000002143,683.0031331000009,None,None,1,,,,,,,,,,,,,,218,25,Male,2022-05-17_15h19.24.030,Main,2022.1.1,60.041092123555856,
positive,blue,1,k,None,,,,,,,,,0,176,176,176,,,,,,,,,,,,,,,,,,,,,,,,,,,,,,,,,,,,,main,k,k,1,0.8829115999997157,685.515781600001,None,None,0,,,,,,,,,,,,,,218,25,Male,2022-05-17_15h19.24.030,Main,2022.1.1,60.041092123555856,
positive,yellow,1,None,k,,,,,,,,,0,177,177,177,,,,,,,,,,,,,,,,,,,,,,,,,,,,,,,,,,,,,main,None,None,1,1.5131910000000062,687.4016603,None,None,1,,,,,,,,,,,,,,218,25,Male,2022-05-17_15h19.24.030,Main,2022.1.1,60.041092123555856,
positive,blue,1,k,None,,,,,,,,,0,178,178,178,,,,,,,,,,,,,,,,,,,,,,,,,,,,,,,,,,,,,main,k,k,1,1.035057200000665,689.919332200001,None,None,0,,,,,,,,,,,,,,218,25,Male,2022-05-17_15h19.24.030,Main,2022.1.1,60.041092123555856,
positive,yellow,2,None,k,,,,,,,,,0,179,179,179,,,,,,,,,,,,,,,,,,,,,,,,,,,,,,,,,,,,,main,None,None,1,1.5145486000001256,691.9558954000004,None,None,1,,,,,,,,,,,,,,218,25,Male,2022-05-17_15h19.24.030,Main,2022.1.1,60.041092123555856,
positive,blue,1,k,None,,,,,,,,,0,180,180,180,,,,,,,,,,,,,,,,,,,,,,,,,,,,,,,,,,,,,main,k,k,1,2.976788799998758,694.4725850000013,None,None,0,,,,,,,,,,,,,,218,25,Male,2022-05-17_15h19.24.030,Main,2022.1.1,60.041092123555856,
negative,red,1,None,None,,,,,,,,,0,181,181,181,,,,,,,,,,,,,,,,,,,,,,,,,,,,,,,,,,,,,main,None,None,1,1.5088895000008051,699.4660359000009,None,None,1,,,,,,,,,,,,,,218,25,Male,2022-05-17_15h19.24.030,Main,2022.1.1,60.041092123555856,
negative,blue,1,None,k,,,,,,,,,0,182,182,182,,,,,,,,,,,,,,,,,,,,,,,,,,,,,,,,,,,,,main,None,k,0,1.395553899999868,701.9778883000017,None,None,1,,,,,,,,,,,,,,218,25,Male,2022-05-17_15h19.24.030,Main,2022.1.1,60.041092123555856,
negative,yellow,2,k,None,,,,,,,,,0,183,183,183,,,,,,,,,,,,,,,,,,,,,,,,,,,,,,,,,,,,,main,k,k,1,1.4160181999995984,705.3872229000008,None,None,0,,,,,,,,,,,,,,218,25,Male,2022-05-17_15h19.24.030,Main,2022.1.1,60.041092123555856,
positive,yellow,2,None,k,,,,,,,,,0,184,184,184,,,,,,,,,,,,,,,,,,,,,,,,,,,,,,,,,,,,,main,None,None,1,1.518448200000421,707.8034292000011,None,None,1,,,,,,,,,,,,,,218,25,Male,2022-05-17_15h19.24.030,Main,2022.1.1,60.041092123555856,
positive,yellow,1,None,k,,,,,,,,,0,185,185,185,,,,,,,,,,,,,,,,,,,,,,,,,,,,,,,,,,,,,main,None,None,1,1.5094444000005751,710.3241794000005,None,None,1,,,,,,,,,,,,,,218,25,Male,2022-05-17_15h19.24.030,Main,2022.1.1,60.041092123555856,
positive,red,2,None,None,,,,,,,,,0,186,186,186,,,,,,,,,,,,,,,,,,,,,,,,,,,,,,,,,,,,,main,None,None,1,1.514045799998712,712.8366824000004,None,None,1,,,,,,,,,,,,,,218,25,Male,2022-05-17_15h19.24.030,Main,2022.1.1,60.041092123555856,
positive,blue,1,k,None,,,,,,,,,0,187,187,187,,,,,,,,,,,,,,,,,,,,,,,,,,,,,,,,,,,,,main,k,k,1,1.544933500001207,715.3527099000003,None,None,0,,,,,,,,,,,,,,218,25,Male,2022-05-17_15h19.24.030,Main,2022.1.1,60.041092123555856,
negative,yellow,1,k,None,,,,,,,,,0,188,188,188,,,,,,,,,,,,,,,,,,,,,,,,,,,,,,,,,,,,,main,k,k,1,2.0196109999997134,718.9140606000001,None,None,0,,,,,,,,,,,,,,218,25,Male,2022-05-17_15h19.24.030,Main,2022.1.1,60.041092123555856,
positive,yellow,2,None,k,,,,,,,,,0,189,189,189,,,,,,,,,,,,,,,,,,,,,,,,,,,,,,,,,,,,,main,None,None,1,1.5010045999988506,722.938997700001,None,None,1,,,,,,,,,,,,,,218,25,Male,2022-05-17_15h19.24.030,Main,2022.1.1,60.041092123555856,
negative,yellow,2,k,None,,,,,,,,,0,190,190,190,,,,,,,,,,,,,,,,,,,,,,,,,,,,,,,,,,,,,main,k,k,1,1.5515332000013586,725.4427536000003,None,None,0,,,,,,,,,,,,,,218,25,Male,2022-05-17_15h19.24.030,Main,2022.1.1,60.041092123555856,
negative,yellow,1,k,None,,,,,,,,,0,191,191,191,,,,,,,,,,,,,,,,,,,,,,,,,,,,,,,,,,,,,main,k,k,1,1.418203100000028,729.0147693000017,None,None,0,,,,,,,,,,,,,,218,25,Male,2022-05-17_15h19.24.030,Main,2022.1.1,60.041092123555856,
positive,blue,2,k,None,,,,,,,,,0,192,192,192,,,,,,,,,,,,,,,,,,,,,,,,,,,,,,,,,,,,,main,k,k,1,-0.18494420000024547,731.4346126,None,None,0,,,,,,,,,,,,,,218,25,Male,2022-05-17_15h19.24.030,Main,2022.1.1,60.041092123555856,
positive,yellow,1,None,k,,,,,,,,,0,193,193,193,,,,,,,,,,,,,,,,,,,,,,,,,,,,,,,,,,,,,main,None,None,1,1.5079475000002276,735.2618011000013,None,None,1,,,,,,,,,,,,,,218,25,Male,2022-05-17_15h19.24.030,Main,2022.1.1,60.041092123555856,
negative,red,2,None,None,,,,,,,,,0,194,194,194,,,,,,,,,,,,,,,,,,,,,,,,,,,,,,,,,,,,,main,None,None,1,1.502732200000537,737.7735411000012,None,None,1,,,,,,,,,,,,,,218,25,Male,2022-05-17_15h19.24.030,Main,2022.1.1,60.041092123555856,
positive,red,1,None,None,,,,,,,,,0,195,195,195,,,,,,,,,,,,,,,,,,,,,,,,,,,,,,,,,,,,,main,None,None,1,1.5142446000008931,740.2802657000011,None,None,1,,,,,,,,,,,,,,218,25,Male,2022-05-17_15h19.24.030,Main,2022.1.1,60.041092123555856,
negative,blue,1,None,k,,,,,,,,,0,196,196,196,,,,,,,,,,,,,,,,,,,,,,,,,,,,,,,,,,,,,main,None,None,1,1.4980893000010838,742.7962561000004,None,None,1,,,,,,,,,,,,,,218,25,Male,2022-05-17_15h19.24.030,Main,2022.1.1,60.041092123555856,
positive,blue,2,k,None,,,,,,,,,0,197,197,197,,,,,,,,,,,,,,,,,,,,,,,,,,,,,,,,,,,,,main,k,k,1,1.2309831000002305,745.2921324000017,None,None,0,,,,,,,,,,,,,,218,25,Male,2022-05-17_15h19.24.030,Main,2022.1.1,60.041092123555856,
negative,blue,2,None,k,,,,,,,,,0,198,198,198,,,,,,,,,,,,,,,,,,,,,,,,,,,,,,,,,,,,,main,None,None,1,1.4964572999997472,747.5301873000008,None,None,1,,,,,,,,,,,,,,218,25,Male,2022-05-17_15h19.24.030,Main,2022.1.1,60.041092123555856,
negative,blue,2,None,k,,,,,,,,,0,199,199,199,,,,,,,,,,,,,,,,,,,,,,,,,,,,,,,,,,,,,main,None,None,1,1.4986019000007218,750.0272158000007,None,None,1,,,,,,,,,,,,,,218,25,Male,2022-05-17_15h19.24.030,Main,2022.1.1,60.041092123555856,
positive,blue,2,k,None,,,,,,,,,0,200,200,200,,,,,,,,,,,,,,,,,,,,,,,,,,,,,,,,,,,,,main,k,k,1,0.8446543999998539,752.5267766000015,None,None,0,,,,,,,,,,,,,,218,25,Male,2022-05-17_15h19.24.030,Main,2022.1.1,60.041092123555856,
positive,blue,2,k,None,,,,,,,,,0,201,201,201,,,,,,,,,,,,,,,,,,,,,,,,,,,,,,,,,,,,,main,k,k,1,0.950818999999683,754.3730462000003,None,None,0,,,,,,,,,,,,,,218,25,Male,2022-05-17_15h19.24.030,Main,2022.1.1,60.041092123555856,
negative,yellow,2,k,None,,,,,,,,,0,202,202,202,,,,,,,,,,,,,,,,,,,,,,,,,,,,,,,,,,,,,main,k,k,1,1.1616272999999637,756.3261606000015,None,None,0,,,,,,,,,,,,,,218,25,Male,2022-05-17_15h19.24.030,Main,2022.1.1,60.041092123555856,
positive,red,1,None,None,,,,,,,,,0,203,203,203,,,,,,,,,,,,,,,,,,,,,,,,,,,,,,,,,,,,,main,None,None,1,1.502047300000413,758.4915588000003,None,None,1,,,,,,,,,,,,,,218,25,Male,2022-05-17_15h19.24.030,Main,2022.1.1,60.041092123555856,
negative,blue,2,None,k,,,,,,,,,0,204,204,204,,,,,,,,,,,,,,,,,,,,,,,,,,,,,,,,,,,,,main,None,None,1,1.510168100001465,760.9945060000009,None,None,1,,,,,,,,,,,,,,218,25,Male,2022-05-17_15h19.24.030,Main,2022.1.1,60.041092123555856,
negative,red,1,None,None,,,,,,,,,0,205,205,205,,,,,,,,,,,,,,,,,,,,,,,,,,,,,,,,,,,,,main,None,None,1,1.5163472000003821,763.5056563000016,None,None,1,,,,,,,,,,,,,,218,25,Male,2022-05-17_15h19.24.030,Main,2022.1.1,60.041092123555856,
negative,blue,2,None,k,,,,,,,,,0,206,206,206,,,,,,,,,,,,,,,,,,,,,,,,,,,,,,,,,,,,,main,None,None,1,1.520114699998885,766.0220842000017,None,None,1,,,,,,,,,,,,,,218,25,Male,2022-05-17_15h19.24.030,Main,2022.1.1,60.041092123555856,
negative,yellow,2,k,None,,,,,,,,,0,207,207,207,,,,,,,,,,,,,,,,,,,,,,,,,,,,,,,,,,,,,main,k,k,1,1.1536396000010427,768.5505642000007,None,None,0,,,,,,,,,,,,,,218,25,Male,2022-05-17_15h19.24.030,Main,2022.1.1,60.041092123555856,
positive,yellow,2,None,k,,,,,,,,,0,208,208,208,,,,,,,,,,,,,,,,,,,,,,,,,,,,,,,,,,,,,main,None,None,1,1.511075599999458,770.7064399999999,None,None,1,,,,,,,,,,,,,,218,25,Male,2022-05-17_15h19.24.030,Main,2022.1.1,60.041092123555856,
negative,yellow,1,k,None,,,,,,,,,0,209,209,209,,,,,,,,,,,,,,,,,,,,,,,,,,,,,,,,,,,,,main,k,k,1,8.021025300000474,773.2223704000007,None,None,0,,,,,,,,,,,,,,218,25,Male,2022-05-17_15h19.24.030,Main,2022.1.1,60.041092123555856,
negative,red,2,None,None,,,,,,,,,0,210,210,210,,,,,,,,,,,,,,,,,,,,,,,,,,,,,,,,,,,,,main,None,None,1,1.49630629999956,783.2562949000003,None,None,1,,,,,,,,,,,,,,218,25,Male,2022-05-17_15h19.24.030,Main,2022.1.1,60.041092123555856,
negative,blue,1,None,k,,,,,,,,,0,211,211,211,,,,,,,,,,,,,,,,,,,,,,,,,,,,,,,,,,,,,main,None,None,1,1.5058415000003151,785.7530795000002,None,None,1,,,,,,,,,,,,,,218,25,Male,2022-05-17_15h19.24.030,Main,2022.1.1,60.041092123555856,
negative,yellow,1,k,None,,,,,,,,,0,212,212,212,,,,,,,,,,,,,,,,,,,,,,,,,,,,,,,,,,,,,main,k,k,1,1.2679454999997688,788.2628444000002,None,None,0,,,,,,,,,,,,,,218,25,Male,2022-05-17_15h19.24.030,Main,2022.1.1,60.041092123555856,
positive,blue,1,k,None,,,,,,,,,0,213,213,213,,,,,,,,,,,,,,,,,,,,,,,,,,,,,,,,,,,,,main,k,k,1,1.0684973999996146,790.5329100000017,None,None,0,,,,,,,,,,,,,,218,25,Male,2022-05-17_15h19.24.030,Main,2022.1.1,60.041092123555856,
positive,blue,1,k,None,,,,,,,,,0,214,214,214,,,,,,,,,,,,,,,,,,,,,,,,,,,,,,,,,,,,,main,k,k,1,1.1128176000001986,792.6032570000007,None,None,0,,,,,,,,,,,,,,218,25,Male,2022-05-17_15h19.24.030,Main,2022.1.1,60.041092123555856,
positive,yellow,1,None,k,,,,,,,,,0,215,215,215,,,,,,,,,,,,,,,,,,,,,,,,,,,,,,,,,,,,,main,None,k,0,-0.6329697999990458,794.7187850000009,None,None,1,,,,,,,,,,,,,,218,25,Male,2022-05-17_15h19.24.030,Main,2022.1.1,60.041092123555856,
positive,yellow,1,None,k,,,,,,,,,0,216,216,216,,,,,,,,,,,,,,,,,,,,,,,,,,,,,,,,,,,,,main,None,k,0,1.43748720000076,798.0966608000017,None,None,1,,,,,,,,,,,,,,218,25,Male,2022-05-17_15h19.24.030,Main,2022.1.1,60.041092123555856,
positive,yellow,2,None,k,,,,,,,,,0,217,217,217,,,,,,,,,,,,,,,,,,,,,,,,,,,,,,,,,,,,,main,None,None,1,1.4996252000000823,801.555410500001,None,None,1,,,,,,,,,,,,,,218,25,Male,2022-05-17_15h19.24.030,Main,2022.1.1,60.041092123555856,
negative,blue,1,None,k,,,,,,,,,0,218,218,218,,,,,,,,,,,,,,,,,,,,,,,,,,,,,,,,,,,,,main,None,None,1,1.5111944000000221,804.0545167,None,None,1,,,,,,,,,,,,,,218,25,Male,2022-05-17_15h19.24.030,Main,2022.1.1,60.041092123555856,
positive,red,2,None,None,,,,,,,,,0,219,219,219,,,,,,,,,,,,,,,,,,,,,,,,,,,,,,,,,,,,,main,None,None,1,1.5029756000003545,806.5664254000003,None,None,1,,,,,,,,,,,,,,218,25,Male,2022-05-17_15h19.24.030,Main,2022.1.1,60.041092123555856,
positive,yellow,1,None,k,,,,,,,,,0,220,220,220,,,,,,,,,,,,,,,,,,,,,,,,,,,,,,,,,,,,,main,None,k,0,1.4012574999997014,809.0743479000012,None,None,1,,,,,,,,,,,,,,218,25,Male,2022-05-17_15h19.24.030,Main,2022.1.1,60.041092123555856,
positive,blue,1,k,None,,,,,,,,,0,221,221,221,,,,,,,,,,,,,,,,,,,,,,,,,,,,,,,,,,,,,main,k,k,1,1.3375608999995166,812.4851082000005,None,None,0,,,,,,,,,,,,,,218,25,Male,2022-05-17_15h19.24.030,Main,2022.1.1,60.041092123555856,
positive,yellow,2,None,k,,,,,,,,,0,222,222,222,,,,,,,,,,,,,,,,,,,,,,,,,,,,,,,,,,,,,main,None,None,1,1.5133704999989277,814.824434600001,None,None,1,,,,,,,,,,,,,,218,25,Male,2022-05-17_15h19.24.030,Main,2022.1.1,60.041092123555856,
negative,yellow,1,k,None,,,,,,,,,0,223,223,223,,,,,,,,,,,,,,,,,,,,,,,,,,,,,,,,,,,,,main,k,k,1,7.830090500001461,817.3402881000002,None,None,0,,,,,,,,,,,,,,218,25,Male,2022-05-17_15h19.24.030,Main,2022.1.1,60.041092123555856,
positive,yellow,2,None,k,,,,,,,,,0,224,224,224,,,,,,,,,,,,,,,,,,,,,,,,,,,,,,,,,,,,,main,None,None,1,1.493285399999877,827.1918595000006,None,None,1,,,,,,,,,,,,,,218,25,Male,2022-05-17_15h19.24.030,Main,2022.1.1,60.041092123555856,
negative,yellow,2,k,None,,,,,,,,,0,225,225,225,,,,,,,,,,,,,,,,,,,,,,,,,,,,,,,,,,,,,main,k,k,1,8.132486000000426,829.6898764000016,None,None,0,,,,,,,,,,,,,,218,25,Male,2022-05-17_15h19.24.030,Main,2022.1.1,60.041092123555856,
negative,blue,2,None,k,,,,,,,,,0,226,226,226,,,,,,,,,,,,,,,,,,,,,,,,,,,,,,,,,,,,,main,None,None,1,1.4990013999995426,839.8417845000004,None,None,1,,,,,,,,,,,,,,218,25,Male,2022-05-17_15h19.24.030,Main,2022.1.1,60.041092123555856,
positive,red,2,None,None,,,,,,,,,0,227,227,227,,,,,,,,,,,,,,,,,,,,,,,,,,,,,,,,,,,,,main,None,None,1,1.5071544999991602,842.3427395000017,None,None,1,,,,,,,,,,,,,,218,25,Male,2022-05-17_15h19.24.030,Main,2022.1.1,60.041092123555856,
positive,blue,2,k,None,,,,,,,,,0,228,228,228,,,,,,,,,,,,,,,,,,,,,,,,,,,,,,,,,,,,,main,k,k,1,33.617260500001066,844.8540287000014,None,None,0,,,,,,,,,,,,,,218,25,Male,2022-05-17_15h19.24.030,Main,2022.1.1,60.041092123555856,
negative,blue,1,None,k,,,,,,,,,0,229,229,229,,,,,,,,,,,,,,,,,,,,,,,,,,,,,,,,,,,,,main,None,None,1,1.5079545999997208,880.4758822000003,None,None,1,,,,,,,,,,,,,,218,25,Male,2022-05-17_15h19.24.030,Main,2022.1.1,60.041092123555856,
positive,yellow,1,None,k,,,,,,,,,0,230,230,230,,,,,,,,,,,,,,,,,,,,,,,,,,,,,,,,,,,,,main,None,None,1,1.4959694999997737,882.9844921000004,None,None,1,,,,,,,,,,,,,,218,25,Male,2022-05-17_15h19.24.030,Main,2022.1.1,60.041092123555856,
negative,blue,2,None,k,,,,,,,,,0,231,231,231,,,,,,,,,,,,,,,,,,,,,,,,,,,,,,,,,,,,,main,None,None,1,1.5069310999988375,885.4816188000004,None,None,1,,,,,,,,,,,,,,218,25,Male,2022-05-17_15h19.24.030,Main,2022.1.1,60.041092123555856,
negative,red,1,None,None,,,,,,,,,0,232,232,232,,,,,,,,,,,,,,,,,,,,,,,,,,,,,,,,,,,,,main,None,None,1,1.5073900000006688,887.9890152000007,None,None,1,,,,,,,,,,,,,,218,25,Male,2022-05-17_15h19.24.030,Main,2022.1.1,60.041092123555856,
positive,blue,2,k,None,,,,,,,,,0,233,233,233,,,,,,,,,,,,,,,,,,,,,,,,,,,,,,,,,,,,,main,k,k,1,1.1900036000006367,890.4994332000006,None,None,0,,,,,,,,,,,,,,218,25,Male,2022-05-17_15h19.24.030,Main,2022.1.1,60.041092123555856,
negative,yellow,1,k,None,,,,,,,,,0,234,234,234,,,,,,,,,,,,,,,,,,,,,,,,,,,,,,,,,,,,,main,k,k,1,1.4752659000005224,892.6929048000002,None,None,0,,,,,,,,,,,,,,218,25,Male,2022-05-17_15h19.24.030,Main,2022.1.1,60.041092123555856,
negative,yellow,2,k,None,,,,,,,,,0,235,235,235,,,,,,,,,,,,,,,,,,,,,,,,,,,,,,,,,,,,,main,k,k,1,4.170773300000292,895.1675176000008,None,None,0,,,,,,,,,,,,,,218,25,Male,2022-05-17_15h19.24.030,Main,2022.1.1,60.041092123555856,
positive,red,1,None,None,,,,,,,,,0,236,236,236,,,,,,,,,,,,,,,,,,,,,,,,,,,,,,,,,,,,,main,None,None,1,1.4973988000001555,901.3565519000003,None,None,1,,,,,,,,,,,,,,218,25,Male,2022-05-17_15h19.24.030,Main,2022.1.1,60.041092123555856,
negative,red,2,None,None,,,,,,,,,0,237,237,237,,,,,,,,,,,,,,,,,,,,,,,,,,,,,,,,,,,,,main,None,None,1,1.5006704999996145,903.8531797000014,None,None,1,,,,,,,,,,,,,,218,25,Male,2022-05-17_15h19.24.030,Main,2022.1.1,60.041092123555856,
negative,blue,1,None,k,,,,,,,,,0,238,238,238,,,,,,,,,,,,,,,,,,,,,,,,,,,,,,,,,,,,,main,None,None,1,1.500007499998901,906.3580006000011,None,None,1,,,,,,,,,,,,,,218,25,Male,2022-05-17_15h19.24.030,Main,2022.1.1,60.041092123555856,
positive,blue,1,k,None,,,,,,,,,0,239,239,239,,,,,,,,,,,,,,,,,,,,,,,,,,,,,,,,,,,,,main,k,k,1,1.1475375999998505,908.8602000999999,None,None,0,,,,,,,,,,,,,,218,25,Male,2022-05-17_15h19.24.030,Main,2022.1.1,60.041092123555856,
,,,,,,,,,,,,,,,,,,,,,,,,,,,,,,,,,,,,,,,,,,,,,,,,,,,,,,,,,,,,,,,,,,,,,,,,,910.9949069000013,None,,,,,,,,
