distractor,target,set,ans1,ans2,rep_loop4.thisRepN,rep_loop4.thisTrialN,rep_loop4.thisN,rep_loop4.thisIndex,st2_prac_loop.thisRepN,st2_prac_loop.thisTrialN,st2_prac_loop.thisN,st2_prac_loop.thisIndex,st2_main_loop.thisRepN,st2_main_loop.thisTrialN,st2_main_loop.thisN,st2_main_loop.thisIndex,image_4.started,image_4.stopped,mouse_7.x,mouse_7.y,mouse_7.leftButton,mouse_7.midButton,mouse_7.rightButton,sound_2.started,sound_2.stopped,key_resp_3.keys,mouse_5.x,mouse_5.y,mouse_5.leftButton,mouse_5.midButton,mouse_5.rightButton,mouse_5.started,mouse_5.stopped,yes_text2.started,yes_text2.stopped,no_text2.started,no_text2.stopped,mouse_3.x,mouse_3.y,mouse_3.leftButton,mouse_3.midButton,mouse_3.rightButton,mouse_3.started,mouse_3.stopped,st_prac_back.started,st_prac_back.stopped,st_prac_text.started,st_prac_text.stopped,st_fix_back.started,st_fix_back.stopped,st_fix_2.started,st_fix_2.stopped,main_prac,st_ans,st_res,st_corr,st_rt,st_back.started,st_back.stopped,st2_resp.keys,st2_resp.corr,st_main_back.started,st_main_back.stopped,st_main_text.started,st_main_text.stopped,mouse_4.x,mouse_4.y,mouse_4.leftButton,mouse_4.midButton,mouse_4.rightButton,mouse_4.started,mouse_4.stopped,text_2.started,text_2.stopped,id*,age*,gender*,date,expName,psychopyVersion,frameRate,
,,,,,,,,,,,,,,,,,34.97435889999997,None,0.12592593,0.023148147,0,0,0,,,,,,,,,,,,,,,,,,,,,,,,,,,,,,,,,,,,,,,,,,,,,,,,,,,,219,21,Female,2022-05-18_16h07.45.013,Main,2022.1.1,59.99746810682909,
negative,yellow,1,k,None,,,,,0,0,0,0,,,,,,,,,,,,39.74674265000006,None,None,0.39444444,-0.3962963,0,0,0,1.0020967000000383,None,94.40653310000016,None,94.40653310000016,None,-0.09259259,-0.053703703,0,0,0,0.012856649999775982,None,97.00904000000014,None,97.00904000000014,None,98.98860760000002,None,98.98860760000002,None,prac,None,None,1,1.5095052000001488,101.04039780000016,None,None,1,,,,,,,,,,,,,,219,21,Female,2022-05-18_16h07.45.013,Main,2022.1.1,59.99746810682909,
positive,red,2,None,None,,,,,0,1,1,1,,,,,,,,,,,,,,,,,,,,,,,,,,,,,,,,,,,,,,,,,prac,None,None,1,1.5029449999999542,103.54116190000013,None,None,1,,,,,,,,,,,,,,219,21,Female,2022-05-18_16h07.45.013,Main,2022.1.1,59.99746810682909,
negative,blue,2,None,k,,,,,0,2,2,2,,,,,,,,,,,,,,,,,,,,,,,,,,,,,,,,,,,,,,,,,prac,k,k,1,1.1085983999998916,106.04318560000002,None,None,0,,,,,,,,,,,,,,219,21,Female,2022-05-18_16h07.45.013,Main,2022.1.1,59.99746810682909,
positive,yellow,1,None,k,,,,,0,3,3,3,,,,,,,,,,,,,,,,,,,,,,,,,,,,,,,,,,,,,,,,,prac,k,k,1,1.665489799999932,108.14819950000015,None,None,0,,,,,,,,,,,,,,219,21,Female,2022-05-18_16h07.45.013,Main,2022.1.1,59.99746810682909,
negative,blue,2,None,k,,,,,0,4,4,4,,,,,,,,,,,,,,,,,,,,,,,,,,,,,,,,,,,,,,,,,prac,k,k,1,0.9299387000000934,111.83890330000008,None,None,0,,,,,,,,,,,,,,219,21,Female,2022-05-18_16h07.45.013,Main,2022.1.1,59.99746810682909,
negative,blue,1,None,k,,,,,0,5,5,5,,,,,,,,,,,,,,,,,,,,,,,,,,,,,,,,,,,,,,,,,prac,k,k,1,3.5006614999999783,113.76956089999999,None,None,0,,,,,,,,,,,,,,219,21,Female,2022-05-18_16h07.45.013,Main,2022.1.1,59.99746810682909,
negative,yellow,2,k,None,,,,,0,6,6,6,,,,,,,,,,,,,,,,,,,,,,,,,,,,,,,,,,,,,,,,,prac,None,None,1,1.4902991999999813,119.29896870000016,None,None,1,,,,,,,,,,,,,,219,21,Female,2022-05-18_16h07.45.013,Main,2022.1.1,59.99746810682909,
negative,red,1,None,None,,,,,0,7,7,7,,,,,,,,,,,,,,,,,,,,,,,,,,,,,,,,,,,,,,,,,prac,None,None,1,1.5026204999999209,121.78902430000016,None,None,1,,,,,,,,,,,,,,219,21,Female,2022-05-18_16h07.45.013,Main,2022.1.1,59.99746810682909,
positive,yellow,2,None,k,,,,,0,8,8,8,,,,,,,,,,,,,,,,,,,,,,,,,,,,,,,,,,,,,,,,,prac,k,k,1,0.7030954000001657,124.28385790000016,None,None,0,,,,,,,,,,,,,,219,21,Female,2022-05-18_16h07.45.013,Main,2022.1.1,59.99746810682909,
negative,yellow,1,k,None,,,,,0,9,9,9,,,,,,,,,,,,,,,,,,,,,,,,,,,,,,,,,,,,,,,,,prac,None,None,1,1.5108898000000863,125.99071890000005,None,None,1,,,,,,,,,,,,,,219,21,Female,2022-05-18_16h07.45.013,Main,2022.1.1,59.99746810682909,
positive,yellow,2,None,k,,,,,0,10,10,10,,,,,,,,,,,,,,,,,,,,,,,,,,,,,,,,,,,,,,,,,prac,k,k,1,0.8104408000001513,128.51195819999998,None,None,0,,,,,,,,,,,,,,219,21,Female,2022-05-18_16h07.45.013,Main,2022.1.1,59.99746810682909,
negative,yellow,2,k,None,,,,,0,11,11,11,,,,,,,,,,,,,,,,,,,,,,,,,,,,,,,,,,,,,,,,,prac,None,None,1,1.5019194999999854,130.31503859999998,None,None,1,,,,,,,,,,,,,,219,21,Female,2022-05-18_16h07.45.013,Main,2022.1.1,59.99746810682909,
negative,red,2,None,None,,,,,0,12,12,12,,,,,,,,,,,,,,,,,,,,,,,,,,,,,,,,,,,,,,,,,prac,None,None,1,1.5121819999999389,132.81656970000017,None,None,1,,,,,,,,,,,,,,219,21,Female,2022-05-18_16h07.45.013,Main,2022.1.1,59.99746810682909,
positive,red,1,None,None,,,,,0,13,13,13,,,,,,,,,,,,,,,,,,,,,,,,,,,,,,,,,,,,,,,,,prac,None,None,1,1.5072444999998424,135.33284960000015,None,None,1,,,,,,,,,,,,,,219,21,Female,2022-05-18_16h07.45.013,Main,2022.1.1,59.99746810682909,
positive,blue,2,k,None,,,,,0,14,14,14,,,,,,,,,,,,,,,,,,,,,,,,,,,,,,,,,,,,,,,,,prac,None,k,0,0.6448945000001913,137.84314059999997,None,None,1,,,,,,,,,,,,,,219,21,Female,2022-05-18_16h07.45.013,Main,2022.1.1,59.99746810682909,
positive,blue,1,k,None,,,,,0,15,15,15,,,,,,,,,,,,,,,,,,,,,,,,,,,,,,,,,,,,,,,,,prac,None,k,0,0.925014899999951,140.50231710000003,None,None,1,,,,,,,,,,,,,,219,21,Female,2022-05-18_16h07.45.013,Main,2022.1.1,59.99746810682909,
negative,blue,1,None,k,,,,,0,16,16,16,,,,,,,,,,,,,,,,,,,,,,,,,,,,,,,,,,,,,,,,,prac,k,k,1,0.9854941999999483,143.4352060000001,None,None,0,,,,,,,,,,,,,,219,21,Female,2022-05-18_16h07.45.013,Main,2022.1.1,59.99746810682909,
positive,blue,2,k,None,,,,,0,17,17,17,,,,,,,,,,,,,,,,,,,,,,,,,,,,,,,,,,,,,,,,,prac,None,None,1,1.5039615999999114,145.42262540000002,None,None,1,,,,,,,,,,,,,,219,21,Female,2022-05-18_16h07.45.013,Main,2022.1.1,59.99746810682909,
positive,blue,1,k,None,,,,,0,18,18,18,,,,,,,,,,,,,,,,,,,,,,,,,,,,,,,,,,,,,,,,,prac,None,None,1,1.5047383000000991,147.92766640000013,None,None,1,,,,,,,,,,,,,,219,21,Female,2022-05-18_16h07.45.013,Main,2022.1.1,59.99746810682909,
positive,yellow,1,None,k,,,,,0,19,19,19,,,,,,,,,,,,,,,,,,,,,,,,,,,,,,,,,,,,,,,,,prac,k,k,1,0.7739403999999013,150.43471720000002,None,None,0,,,,,,,,,,,,,,219,21,Female,2022-05-18_16h07.45.013,Main,2022.1.1,59.99746810682909,
negative,yellow,1,k,None,,,,,1,0,20,0,,,,,,,,,,,,,,,,,,,,,,,,,,,,,,,,,,,,,,,,,prac,None,None,1,1.5064264000000094,152.2102777,None,None,1,,,,,,,,,,,,,,219,21,Female,2022-05-18_16h07.45.013,Main,2022.1.1,59.99746810682909,
positive,red,2,None,None,,,,,1,1,21,1,,,,,,,,,,,,,,,,,,,,,,,,,,,,,,,,,,,,,,,,,prac,None,None,1,1.5061178999999356,154.71560580000005,None,None,1,,,,,,,,,,,,,,219,21,Female,2022-05-18_16h07.45.013,Main,2022.1.1,59.99746810682909,
negative,blue,2,None,k,,,,,1,2,22,2,,,,,,,,,,,,,,,,,,,,,,,,,,,,,,,,,,,,,,,,,prac,k,k,1,0.8397904000000835,157.22611500000016,None,None,0,,,,,,,,,,,,,,219,21,Female,2022-05-18_16h07.45.013,Main,2022.1.1,59.99746810682909,
positive,yellow,1,None,k,,,,,1,3,23,3,,,,,,,,,,,,,,,,,,,,,,,,,,,,,,,,,,,,,,,,,prac,k,k,1,0.9961771000000681,159.0762383000001,None,None,0,,,,,,,,,,,,,,219,21,Female,2022-05-18_16h07.45.013,Main,2022.1.1,59.99746810682909,
negative,blue,2,None,k,,,,,1,4,24,4,,,,,,,,,,,,,,,,,,,,,,,,,,,,,,,,,,,,,,,,,prac,k,k,1,0.8327183999999761,161.06307770000012,None,None,0,,,,,,,,,,,,,,219,21,Female,2022-05-18_16h07.45.013,Main,2022.1.1,59.99746810682909,
negative,blue,1,None,k,,,,,1,5,25,5,,,,,,,,,,,,,,,,,,,,,,,,,,,,,,,,,,,,,,,,,prac,k,k,1,1.1443764999999075,162.89798570000016,None,None,0,,,,,,,,,,,,,,219,21,Female,2022-05-18_16h07.45.013,Main,2022.1.1,59.99746810682909,
negative,yellow,2,k,None,,,,,1,6,26,6,,,,,,,,,,,,,,,,,,,,,,,,,,,,,,,,,,,,,,,,,prac,None,None,1,1.508669700000155,165.04539950000003,None,None,1,,,,,,,,,,,,,,219,21,Female,2022-05-18_16h07.45.013,Main,2022.1.1,59.99746810682909,
negative,red,1,None,None,,,,,1,7,27,7,,,,,,,,,,,,,,,,,,,,,,,,,,,,,,,,,,,,,,,,,prac,None,None,1,1.4930429000000913,167.55777000000012,None,None,1,,,,,,,,,,,,,,219,21,Female,2022-05-18_16h07.45.013,Main,2022.1.1,59.99746810682909,
positive,yellow,2,None,k,,,,,1,8,28,8,,,,,,,,,,,,,,,,,,,,,,,,,,,,,,,,,,,,,,,,,prac,k,k,1,1.0216416999999183,170.0531671000001,None,None,0,,,,,,,,,,,,,,219,21,Female,2022-05-18_16h07.45.013,Main,2022.1.1,59.99746810682909,
negative,yellow,1,k,None,,,,,1,9,29,9,,,,,,,,,,,,,,,,,,,,,,,,,,,,,,,,,,,,,,,,,prac,None,None,1,1.5095057999999426,172.07532300000003,None,None,1,,,,,,,,,,,,,,219,21,Female,2022-05-18_16h07.45.013,Main,2022.1.1,59.99746810682909,
positive,yellow,2,None,k,,,,,1,10,30,10,,,,,,,,,,,,,,,,,,,,,,,,,,,,,,,,,,,,,,,,,prac,k,k,1,0.9277827000000798,174.58741200000009,None,None,0,,,,,,,,,,,,,,219,21,Female,2022-05-18_16h07.45.013,Main,2022.1.1,59.99746810682909,
negative,yellow,2,k,None,,,,,1,11,31,11,,,,,,,,,,,,,,,,,,,,,,,,,,,,,,,,,,,,,,,,,prac,None,None,1,1.5001047999999173,176.51660379999998,None,None,1,,,,,,,,,,,,,,219,21,Female,2022-05-18_16h07.45.013,Main,2022.1.1,59.99746810682909,
negative,red,2,None,None,,,,,1,12,32,12,,,,,,,,,,,,,,,,,,,,,,,,,,,,,,,,,,,,,,,,,prac,None,None,1,1.4942958000001454,179.01748940000016,None,None,1,,,,,,,,,,,,,,219,21,Female,2022-05-18_16h07.45.013,Main,2022.1.1,59.99746810682909,
positive,red,1,None,None,,,,,1,13,33,13,,,,,,,,,,,,,,,,,,,,,,,,,,,,,,,,,,,,,,,,,prac,None,None,1,1.51099320000003,181.5120022000001,None,None,1,,,,,,,,,,,,,,219,21,Female,2022-05-18_16h07.45.013,Main,2022.1.1,59.99746810682909,
positive,blue,2,k,None,,,,,1,14,34,14,,,,,,,,,,,,,,,,,,,,,,,,,,,,,,,,,,,,,,,,,prac,None,None,1,1.5006309000000329,184.02575730000012,None,None,1,,,,,,,,,,,,,,219,21,Female,2022-05-18_16h07.45.013,Main,2022.1.1,59.99746810682909,
positive,blue,1,k,None,,,,,1,15,35,15,,,,,,,,,,,,,,,,,,,,,,,,,,,,,,,,,,,,,,,,,prac,None,None,1,1.508915800000068,186.5289646000001,None,None,1,,,,,,,,,,,,,,219,21,Female,2022-05-18_16h07.45.013,Main,2022.1.1,59.99746810682909,
negative,blue,1,None,k,,,,,1,16,36,16,,,,,,,,,,,,,,,,,,,,,,,,,,,,,,,,,,,,,,,,,prac,k,k,1,0.8767115000000558,189.040395,None,None,0,,,,,,,,,,,,,,219,21,Female,2022-05-18_16h07.45.013,Main,2022.1.1,59.99746810682909,
positive,blue,2,k,None,,,,,1,17,37,17,,,,,,,,,,,,,,,,,,,,,,,,,,,,,,,,,,,,,,,,,prac,None,None,1,1.5055049000000054,190.91977350000002,None,None,1,,,,,,,,,,,,,,219,21,Female,2022-05-18_16h07.45.013,Main,2022.1.1,59.99746810682909,
positive,blue,1,k,None,,,,,1,18,38,18,,,,,,,,,,,,,,,,,,,,,,,,,,,,,,,,,,,,,,,,,prac,None,None,1,1.4964173000000756,193.42603400000007,None,None,1,,,,,,,,,,,,,,219,21,Female,2022-05-18_16h07.45.013,Main,2022.1.1,59.99746810682909,
positive,yellow,1,None,k,,,,,1,19,39,19,,,,,,,,,,,,,,,,,,,,,,,,,,,,,,,,,,,,,,,,,prac,k,k,1,0.6331334999999854,195.9252438000001,None,None,0,,,,,,,,,,,,,,219,21,Female,2022-05-18_16h07.45.013,Main,2022.1.1,59.99746810682909,
,,,,,,,,,,,,,,,,,,,,,,,,,,,,,,,,,,,,,,,,,,,,,,,,,,,,,,,,,,,,,,197.57650839999997,None,197.57650839999997,None,0.11666667,0.10462963,0,0,0,0.01199264999991101,None,,,219,21,Female,2022-05-18_16h07.45.013,Main,2022.1.1,59.99746810682909,
negative,yellow,2,k,None,,,,,,,,,0,0,0,0,,,,,,,,,,,,,,,,,,,,,,,,,,,,,,,,,198.82730880000008,None,198.82730880000008,None,main,None,None,1,1.510626499999944,200.8969893000001,None,None,1,,,,,,,,,,,,,,219,21,Female,2022-05-18_16h07.45.013,Main,2022.1.1,59.99746810682909,
positive,red,1,None,None,,,,,,,,,0,1,1,1,,,,,,,,,,,,,,,,,,,,,,,,,,,,,,,,,,,,,main,None,None,1,1.5090491999999358,203.41020300000014,None,None,1,,,,,,,,,,,,,,219,21,Female,2022-05-18_16h07.45.013,Main,2022.1.1,59.99746810682909,
positive,blue,2,k,None,,,,,,,,,0,2,2,2,,,,,,,,,,,,,,,,,,,,,,,,,,,,,,,,,,,,,main,None,None,1,1.5030661000000691,205.92108350000012,None,None,1,,,,,,,,,,,,,,219,21,Female,2022-05-18_16h07.45.013,Main,2022.1.1,59.99746810682909,
positive,blue,1,k,None,,,,,,,,,0,3,3,3,,,,,,,,,,,,,,,,,,,,,,,,,,,,,,,,,,,,,main,None,None,1,1.5102409999999509,208.424935,None,None,1,,,,,,,,,,,,,,219,21,Female,2022-05-18_16h07.45.013,Main,2022.1.1,59.99746810682909,
negative,yellow,2,k,None,,,,,,,,,0,4,4,4,,,,,,,,,,,,,,,,,,,,,,,,,,,,,,,,,,,,,main,None,None,1,1.5041226000000734,210.93797910000012,None,None,1,,,,,,,,,,,,,,219,21,Female,2022-05-18_16h07.45.013,Main,2022.1.1,59.99746810682909,
positive,yellow,2,None,k,,,,,,,,,0,5,5,5,,,,,,,,,,,,,,,,,,,,,,,,,,,,,,,,,,,,,main,k,k,1,0.8834750999999414,213.44217060000005,None,None,0,,,,,,,,,,,,,,219,21,Female,2022-05-18_16h07.45.013,Main,2022.1.1,59.99746810682909,
negative,blue,2,None,k,,,,,,,,,0,6,6,6,,,,,,,,,,,,,,,,,,,,,,,,,,,,,,,,,,,,,main,k,k,1,0.8469127000000753,215.33080840000002,None,None,0,,,,,,,,,,,,,,219,21,Female,2022-05-18_16h07.45.013,Main,2022.1.1,59.99746810682909,
positive,red,2,None,None,,,,,,,,,0,7,7,7,,,,,,,,,,,,,,,,,,,,,,,,,,,,,,,,,,,,,main,None,None,1,1.5018769999999222,217.17904190000013,None,None,1,,,,,,,,,,,,,,219,21,Female,2022-05-18_16h07.45.013,Main,2022.1.1,59.99746810682909,
positive,yellow,1,None,k,,,,,,,,,0,8,8,8,,,,,,,,,,,,,,,,,,,,,,,,,,,,,,,,,,,,,main,k,k,1,0.9271325999998226,219.68151280000006,None,None,0,,,,,,,,,,,,,,219,21,Female,2022-05-18_16h07.45.013,Main,2022.1.1,59.99746810682909,
negative,red,1,None,None,,,,,,,,,0,9,9,9,,,,,,,,,,,,,,,,,,,,,,,,,,,,,,,,,,,,,main,None,None,1,1.4974460000000818,221.61023360000013,None,None,1,,,,,,,,,,,,,,219,21,Female,2022-05-18_16h07.45.013,Main,2022.1.1,59.99746810682909,
positive,yellow,1,None,k,,,,,,,,,0,10,10,10,,,,,,,,,,,,,,,,,,,,,,,,,,,,,,,,,,,,,main,k,k,1,0.8082873000000745,224.10661100000016,None,None,0,,,,,,,,,,,,,,219,21,Female,2022-05-18_16h07.45.013,Main,2022.1.1,59.99746810682909,
negative,yellow,1,k,None,,,,,,,,,0,11,11,11,,,,,,,,,,,,,,,,,,,,,,,,,,,,,,,,,,,,,main,None,None,1,1.4934425999999803,225.9185331000001,None,None,1,,,,,,,,,,,,,,219,21,Female,2022-05-18_16h07.45.013,Main,2022.1.1,59.99746810682909,
negative,yellow,1,k,None,,,,,,,,,0,12,12,12,,,,,,,,,,,,,,,,,,,,,,,,,,,,,,,,,,,,,main,None,None,1,1.5040246000000934,228.41386650000004,None,None,1,,,,,,,,,,,,,,219,21,Female,2022-05-18_16h07.45.013,Main,2022.1.1,59.99746810682909,
negative,red,2,None,None,,,,,,,,,0,13,13,13,,,,,,,,,,,,,,,,,,,,,,,,,,,,,,,,,,,,,main,None,None,1,1.4970912999999655,230.92000589999998,None,None,1,,,,,,,,,,,,,,219,21,Female,2022-05-18_16h07.45.013,Main,2022.1.1,59.99746810682909,
positive,yellow,2,None,k,,,,,,,,,0,14,14,14,,,,,,,,,,,,,,,,,,,,,,,,,,,,,,,,,,,,,main,k,k,1,0.8331058999999641,233.41990060000012,None,None,0,,,,,,,,,,,,,,219,21,Female,2022-05-18_16h07.45.013,Main,2022.1.1,59.99746810682909,
positive,blue,1,k,None,,,,,,,,,0,15,15,15,,,,,,,,,,,,,,,,,,,,,,,,,,,,,,,,,,,,,main,None,None,1,1.4987607999999,235.25486640000008,None,None,1,,,,,,,,,,,,,,219,21,Female,2022-05-18_16h07.45.013,Main,2022.1.1,59.99746810682909,
negative,blue,1,None,k,,,,,,,,,0,16,16,16,,,,,,,,,,,,,,,,,,,,,,,,,,,,,,,,,,,,,main,k,k,1,0.7640536999999767,237.75578130000008,None,None,0,,,,,,,,,,,,,,219,21,Female,2022-05-18_16h07.45.013,Main,2022.1.1,59.99746810682909,
positive,blue,2,k,None,,,,,,,,,0,17,17,17,,,,,,,,,,,,,,,,,,,,,,,,,,,,,,,,,,,,,main,None,None,1,1.5010813999999755,239.5229793000001,None,None,1,,,,,,,,,,,,,,219,21,Female,2022-05-18_16h07.45.013,Main,2022.1.1,59.99746810682909,
negative,blue,2,None,k,,,,,,,,,0,18,18,18,,,,,,,,,,,,,,,,,,,,,,,,,,,,,,,,,,,,,main,k,k,1,0.7721993999998631,242.02674030000003,None,None,0,,,,,,,,,,,,,,219,21,Female,2022-05-18_16h07.45.013,Main,2022.1.1,59.99746810682909,
negative,blue,1,None,k,,,,,,,,,0,19,19,19,,,,,,,,,,,,,,,,,,,,,,,,,,,,,,,,,,,,,main,k,k,1,0.9272962000000007,243.80131760000017,None,None,0,,,,,,,,,,,,,,219,21,Female,2022-05-18_16h07.45.013,Main,2022.1.1,59.99746810682909,
negative,blue,1,None,k,,,,,,,,,0,20,20,20,,,,,,,,,,,,,,,,,,,,,,,,,,,,,,,,,,,,,main,k,k,1,0.8289101000000301,245.73045130000014,None,None,0,,,,,,,,,,,,,,219,21,Female,2022-05-18_16h07.45.013,Main,2022.1.1,59.99746810682909,
negative,blue,2,None,k,,,,,,,,,0,21,21,21,,,,,,,,,,,,,,,,,,,,,,,,,,,,,,,,,,,,,main,k,k,1,0.7997001999999611,247.56150739999998,None,None,0,,,,,,,,,,,,,,219,21,Female,2022-05-18_16h07.45.013,Main,2022.1.1,59.99746810682909,
negative,red,1,None,None,,,,,,,,,0,22,22,22,,,,,,,,,,,,,,,,,,,,,,,,,,,,,,,,,,,,,main,None,None,1,1.4965904000000592,249.36154260000012,None,None,1,,,,,,,,,,,,,,219,21,Female,2022-05-18_16h07.45.013,Main,2022.1.1,59.99746810682909,
positive,red,2,None,None,,,,,,,,,0,23,23,23,,,,,,,,,,,,,,,,,,,,,,,,,,,,,,,,,,,,,main,None,None,1,1.5097018999999818,251.86126940000008,None,None,1,,,,,,,,,,,,,,219,21,Female,2022-05-18_16h07.45.013,Main,2022.1.1,59.99746810682909,
negative,red,2,None,None,,,,,,,,,0,24,24,24,,,,,,,,,,,,,,,,,,,,,,,,,,,,,,,,,,,,,main,None,None,1,1.498877099999845,254.36944640000002,None,None,1,,,,,,,,,,,,,,219,21,Female,2022-05-18_16h07.45.013,Main,2022.1.1,59.99746810682909,
positive,blue,2,k,None,,,,,,,,,0,25,25,25,,,,,,,,,,,,,,,,,,,,,,,,,,,,,,,,,,,,,main,None,None,1,1.4979405000001407,256.86980100000005,None,None,1,,,,,,,,,,,,,,219,21,Female,2022-05-18_16h07.45.013,Main,2022.1.1,59.99746810682909,
negative,yellow,1,k,None,,,,,,,,,0,26,26,26,,,,,,,,,,,,,,,,,,,,,,,,,,,,,,,,,,,,,main,None,None,1,1.512941200000114,259.3691602000001,None,None,1,,,,,,,,,,,,,,219,21,Female,2022-05-18_16h07.45.013,Main,2022.1.1,59.99746810682909,
positive,blue,2,k,None,,,,,,,,,0,27,27,27,,,,,,,,,,,,,,,,,,,,,,,,,,,,,,,,,,,,,main,None,None,1,1.504674600000044,261.8834495000001,None,None,1,,,,,,,,,,,,,,219,21,Female,2022-05-18_16h07.45.013,Main,2022.1.1,59.99746810682909,
negative,blue,2,None,k,,,,,,,,,0,28,28,28,,,,,,,,,,,,,,,,,,,,,,,,,,,,,,,,,,,,,main,k,k,1,0.7306143000000702,264.39204670000004,None,None,0,,,,,,,,,,,,,,219,21,Female,2022-05-18_16h07.45.013,Main,2022.1.1,59.99746810682909,
positive,red,1,None,None,,,,,,,,,0,29,29,29,,,,,,,,,,,,,,,,,,,,,,,,,,,,,,,,,,,,,main,None,None,1,1.5045834000000013,266.1239002,None,None,1,,,,,,,,,,,,,,219,21,Female,2022-05-18_16h07.45.013,Main,2022.1.1,59.99746810682909,
positive,blue,1,k,None,,,,,,,,,0,30,30,30,,,,,,,,,,,,,,,,,,,,,,,,,,,,,,,,,,,,,main,None,None,1,1.4984673999999814,268.63080060000016,None,None,1,,,,,,,,,,,,,,219,21,Female,2022-05-18_16h07.45.013,Main,2022.1.1,59.99746810682909,
positive,yellow,1,None,k,,,,,,,,,0,31,31,31,,,,,,,,,,,,,,,,,,,,,,,,,,,,,,,,,,,,,main,k,k,1,0.9312644000001455,271.1324466000001,None,None,0,,,,,,,,,,,,,,219,21,Female,2022-05-18_16h07.45.013,Main,2022.1.1,59.99746810682909,
negative,yellow,2,k,None,,,,,,,,,0,32,32,32,,,,,,,,,,,,,,,,,,,,,,,,,,,,,,,,,,,,,main,None,None,1,1.500233999999864,273.0682775,None,None,1,,,,,,,,,,,,,,219,21,Female,2022-05-18_16h07.45.013,Main,2022.1.1,59.99746810682909,
negative,blue,1,None,k,,,,,,,,,0,33,33,33,,,,,,,,,,,,,,,,,,,,,,,,,,,,,,,,,,,,,main,k,k,1,0.7018107999999756,275.5701891000001,None,None,0,,,,,,,,,,,,,,219,21,Female,2022-05-18_16h07.45.013,Main,2022.1.1,59.99746810682909,
positive,blue,1,k,None,,,,,,,,,0,34,34,34,,,,,,,,,,,,,,,,,,,,,,,,,,,,,,,,,,,,,main,None,None,1,1.5110306000001401,277.27323380000007,None,None,1,,,,,,,,,,,,,,219,21,Female,2022-05-18_16h07.45.013,Main,2022.1.1,59.99746810682909,
negative,yellow,1,k,None,,,,,,,,,0,35,35,35,,,,,,,,,,,,,,,,,,,,,,,,,,,,,,,,,,,,,main,None,None,1,1.5090738000001238,279.7829286000001,None,None,1,,,,,,,,,,,,,,219,21,Female,2022-05-18_16h07.45.013,Main,2022.1.1,59.99746810682909,
positive,yellow,2,None,k,,,,,,,,,0,36,36,36,,,,,,,,,,,,,,,,,,,,,,,,,,,,,,,,,,,,,main,k,k,1,0.7825612999999976,282.29517080000005,None,None,0,,,,,,,,,,,,,,219,21,Female,2022-05-18_16h07.45.013,Main,2022.1.1,59.99746810682909,
positive,yellow,2,None,k,,,,,,,,,0,37,37,37,,,,,,,,,,,,,,,,,,,,,,,,,,,,,,,,,,,,,main,k,k,1,0.6333928999999898,284.0811549,None,None,0,,,,,,,,,,,,,,219,21,Female,2022-05-18_16h07.45.013,Main,2022.1.1,59.99746810682909,
negative,yellow,2,k,None,,,,,,,,,0,38,38,38,,,,,,,,,,,,,,,,,,,,,,,,,,,,,,,,,,,,,main,None,None,1,1.499272499999961,285.71697770000014,None,None,1,,,,,,,,,,,,,,219,21,Female,2022-05-18_16h07.45.013,Main,2022.1.1,59.99746810682909,
positive,yellow,1,None,k,,,,,,,,,0,39,39,39,,,,,,,,,,,,,,,,,,,,,,,,,,,,,,,,,,,,,main,k,k,1,0.800248799999963,288.2156059000001,None,None,0,,,,,,,,,,,,,,219,21,Female,2022-05-18_16h07.45.013,Main,2022.1.1,59.99746810682909,
negative,yellow,2,k,None,,,,,,,,,0,40,40,40,,,,,,,,,,,,,,,,,,,,,,,,,,,,,,,,,,,,,main,None,None,1,1.4987444000000778,290.02007260000005,None,None,1,,,,,,,,,,,,,,219,21,Female,2022-05-18_16h07.45.013,Main,2022.1.1,59.99746810682909,
positive,blue,2,k,None,,,,,,,,,0,41,41,41,,,,,,,,,,,,,,,,,,,,,,,,,,,,,,,,,,,,,main,None,None,1,1.509114499999896,292.5203362,None,None,1,,,,,,,,,,,,,,219,21,Female,2022-05-18_16h07.45.013,Main,2022.1.1,59.99746810682909,
positive,blue,2,k,None,,,,,,,,,0,42,42,42,,,,,,,,,,,,,,,,,,,,,,,,,,,,,,,,,,,,,main,None,None,1,1.5057590999999775,295.02913520000016,None,None,1,,,,,,,,,,,,,,219,21,Female,2022-05-18_16h07.45.013,Main,2022.1.1,59.99746810682909,
negative,blue,2,None,k,,,,,,,,,0,43,43,43,,,,,,,,,,,,,,,,,,,,,,,,,,,,,,,,,,,,,main,k,k,1,0.6621939000001476,297.5390771,None,None,0,,,,,,,,,,,,,,219,21,Female,2022-05-18_16h07.45.013,Main,2022.1.1,59.99746810682909,
negative,red,1,None,None,,,,,,,,,0,44,44,44,,,,,,,,,,,,,,,,,,,,,,,,,,,,,,,,,,,,,main,None,None,1,1.5004943000001276,299.20178469999996,None,None,1,,,,,,,,,,,,,,219,21,Female,2022-05-18_16h07.45.013,Main,2022.1.1,59.99746810682909,
negative,yellow,1,k,None,,,,,,,,,0,45,45,45,,,,,,,,,,,,,,,,,,,,,,,,,,,,,,,,,,,,,main,None,None,1,1.512576000000081,301.7042771000001,None,None,1,,,,,,,,,,,,,,219,21,Female,2022-05-18_16h07.45.013,Main,2022.1.1,59.99746810682909,
negative,yellow,1,k,None,,,,,,,,,0,46,46,46,,,,,,,,,,,,,,,,,,,,,,,,,,,,,,,,,,,,,main,None,None,1,1.507566900000029,304.21826110000006,None,None,1,,,,,,,,,,,,,,219,21,Female,2022-05-18_16h07.45.013,Main,2022.1.1,59.99746810682909,
positive,red,1,None,None,,,,,,,,,0,47,47,47,,,,,,,,,,,,,,,,,,,,,,,,,,,,,,,,,,,,,main,None,None,1,1.4996459999999843,306.7275628,None,None,1,,,,,,,,,,,,,,219,21,Female,2022-05-18_16h07.45.013,Main,2022.1.1,59.99746810682909,
positive,yellow,1,None,k,,,,,,,,,0,48,48,48,,,,,,,,,,,,,,,,,,,,,,,,,,,,,,,,,,,,,main,k,k,1,0.9199639999999363,309.2287228,None,None,0,,,,,,,,,,,,,,219,21,Female,2022-05-18_16h07.45.013,Main,2022.1.1,59.99746810682909,
negative,blue,1,None,k,,,,,,,,,0,49,49,49,,,,,,,,,,,,,,,,,,,,,,,,,,,,,,,,,,,,,main,k,k,1,0.8197442000000592,311.15265710000017,None,None,0,,,,,,,,,,,,,,219,21,Female,2022-05-18_16h07.45.013,Main,2022.1.1,59.99746810682909,
positive,yellow,2,None,k,,,,,,,,,0,50,50,50,,,,,,,,,,,,,,,,,,,,,,,,,,,,,,,,,,,,,main,k,k,1,0.7390447000000222,312.9729320000001,None,None,0,,,,,,,,,,,,,,219,21,Female,2022-05-18_16h07.45.013,Main,2022.1.1,59.99746810682909,
negative,blue,1,None,k,,,,,,,,,0,51,51,51,,,,,,,,,,,,,,,,,,,,,,,,,,,,,,,,,,,,,main,k,k,1,0.7730642000001353,314.7145432,None,None,0,,,,,,,,,,,,,,219,21,Female,2022-05-18_16h07.45.013,Main,2022.1.1,59.99746810682909,
positive,red,2,None,None,,,,,,,,,0,52,52,52,,,,,,,,,,,,,,,,,,,,,,,,,,,,,,,,,,,,,main,None,None,1,1.4996092999999746,316.48871970000005,None,None,1,,,,,,,,,,,,,,219,21,Female,2022-05-18_16h07.45.013,Main,2022.1.1,59.99746810682909,
positive,yellow,2,None,k,,,,,,,,,0,53,53,53,,,,,,,,,,,,,,,,,,,,,,,,,,,,,,,,,,,,,main,k,k,1,0.7588221999999405,318.9892946,None,None,0,,,,,,,,,,,,,,219,21,Female,2022-05-18_16h07.45.013,Main,2022.1.1,59.99746810682909,
negative,red,2,None,None,,,,,,,,,0,54,54,54,,,,,,,,,,,,,,,,,,,,,,,,,,,,,,,,,,,,,main,None,None,1,1.5055155000000013,320.7492335000002,None,None,1,,,,,,,,,,,,,,219,21,Female,2022-05-18_16h07.45.013,Main,2022.1.1,59.99746810682909,
positive,yellow,1,None,k,,,,,,,,,0,55,55,55,,,,,,,,,,,,,,,,,,,,,,,,,,,,,,,,,,,,,main,k,k,1,0.786563200000046,323.2560862,None,None,0,,,,,,,,,,,,,,219,21,Female,2022-05-18_16h07.45.013,Main,2022.1.1,59.99746810682909,
negative,blue,2,None,k,,,,,,,,,0,56,56,56,,,,,,,,,,,,,,,,,,,,,,,,,,,,,,,,,,,,,main,k,k,1,0.7688600000001315,325.0435440000001,None,None,0,,,,,,,,,,,,,,219,21,Female,2022-05-18_16h07.45.013,Main,2022.1.1,59.99746810682909,
positive,blue,1,k,None,,,,,,,,,0,57,57,57,,,,,,,,,,,,,,,,,,,,,,,,,,,,,,,,,,,,,main,None,None,1,1.4954236999999466,326.8153427,None,None,1,,,,,,,,,,,,,,219,21,Female,2022-05-18_16h07.45.013,Main,2022.1.1,59.99746810682909,
positive,blue,1,k,None,,,,,,,,,0,58,58,58,,,,,,,,,,,,,,,,,,,,,,,,,,,,,,,,,,,,,main,None,None,1,1.4957606000000396,329.31010030000016,None,None,1,,,,,,,,,,,,,,219,21,Female,2022-05-18_16h07.45.013,Main,2022.1.1,59.99746810682909,
negative,yellow,2,k,None,,,,,,,,,0,59,59,59,,,,,,,,,,,,,,,,,,,,,,,,,,,,,,,,,,,,,main,None,None,1,1.5054757000000336,331.8077030000002,None,None,1,,,,,,,,,,,,,,219,21,Female,2022-05-18_16h07.45.013,Main,2022.1.1,59.99746810682909,
positive,red,2,None,None,,,,,,,,,0,60,60,60,,,,,,,,,,,,,,,,,,,,,,,,,,,,,,,,,,,,,main,None,None,1,1.5033132999999452,334.31732720000014,None,None,1,,,,,,,,,,,,,,219,21,Female,2022-05-18_16h07.45.013,Main,2022.1.1,59.99746810682909,
negative,yellow,1,k,None,,,,,,,,,0,61,61,61,,,,,,,,,,,,,,,,,,,,,,,,,,,,,,,,,,,,,main,None,None,1,1.50913219999984,336.82122230000004,None,None,1,,,,,,,,,,,,,,219,21,Female,2022-05-18_16h07.45.013,Main,2022.1.1,59.99746810682909,
negative,red,1,None,None,,,,,,,,,0,62,62,62,,,,,,,,,,,,,,,,,,,,,,,,,,,,,,,,,,,,,main,None,None,1,1.4940101999998205,339.33372840000015,None,None,1,,,,,,,,,,,,,,219,21,Female,2022-05-18_16h07.45.013,Main,2022.1.1,59.99746810682909,
negative,blue,1,None,k,,,,,,,,,0,63,63,63,,,,,,,,,,,,,,,,,,,,,,,,,,,,,,,,,,,,,main,k,k,1,0.6981042000002162,341.8276641,None,None,0,,,,,,,,,,,,,,219,21,Female,2022-05-18_16h07.45.013,Main,2022.1.1,59.99746810682909,
positive,blue,2,k,None,,,,,,,,,0,64,64,64,,,,,,,,,,,,,,,,,,,,,,,,,,,,,,,,,,,,,main,None,None,1,1.5097427999999127,343.52846820000013,None,None,1,,,,,,,,,,,,,,219,21,Female,2022-05-18_16h07.45.013,Main,2022.1.1,59.99746810682909,
negative,yellow,2,k,None,,,,,,,,,0,65,65,65,,,,,,,,,,,,,,,,,,,,,,,,,,,,,,,,,,,,,main,None,None,1,1.5104051000000709,346.0385626,None,None,1,,,,,,,,,,,,,,219,21,Female,2022-05-18_16h07.45.013,Main,2022.1.1,59.99746810682909,
positive,yellow,2,None,k,,,,,,,,,0,66,66,66,,,,,,,,,,,,,,,,,,,,,,,,,,,,,,,,,,,,,main,k,k,1,0.9144808000000921,348.55315940000014,None,None,0,,,,,,,,,,,,,,219,21,Female,2022-05-18_16h07.45.013,Main,2022.1.1,59.99746810682909,
positive,yellow,2,None,k,,,,,,,,,0,67,67,67,,,,,,,,,,,,,,,,,,,,,,,,,,,,,,,,,,,,,main,k,k,1,0.6703401999998277,350.4685597,None,None,0,,,,,,,,,,,,,,219,21,Female,2022-05-18_16h07.45.013,Main,2022.1.1,59.99746810682909,
positive,red,1,None,None,,,,,,,,,0,68,68,68,,,,,,,,,,,,,,,,,,,,,,,,,,,,,,,,,,,,,main,None,None,1,1.5053310999999212,352.13828839999996,None,None,1,,,,,,,,,,,,,,219,21,Female,2022-05-18_16h07.45.013,Main,2022.1.1,59.99746810682909,
positive,yellow,1,None,k,,,,,,,,,0,69,69,69,,,,,,,,,,,,,,,,,,,,,,,,,,,,,,,,,,,,,main,k,k,1,0.7923732000001564,354.64722930000016,None,None,0,,,,,,,,,,,,,,219,21,Female,2022-05-18_16h07.45.013,Main,2022.1.1,59.99746810682909,
negative,yellow,2,k,None,,,,,,,,,0,70,70,70,,,,,,,,,,,,,,,,,,,,,,,,,,,,,,,,,,,,,main,None,None,1,1.50379850000013,356.43948320000004,None,None,1,,,,,,,,,,,,,,219,21,Female,2022-05-18_16h07.45.013,Main,2022.1.1,59.99746810682909,
positive,yellow,1,None,k,,,,,,,,,0,71,71,71,,,,,,,,,,,,,,,,,,,,,,,,,,,,,,,,,,,,,main,k,k,1,0.7605048000000352,358.9470967,None,None,0,,,,,,,,,,,,,,219,21,Female,2022-05-18_16h07.45.013,Main,2022.1.1,59.99746810682909,
negative,blue,1,None,k,,,,,,,,,0,72,72,72,,,,,,,,,,,,,,,,,,,,,,,,,,,,,,,,,,,,,main,k,k,1,0.6856685999998717,360.7082292,None,None,0,,,,,,,,,,,,,,219,21,Female,2022-05-18_16h07.45.013,Main,2022.1.1,59.99746810682909,
negative,red,2,None,None,,,,,,,,,0,73,73,73,,,,,,,,,,,,,,,,,,,,,,,,,,,,,,,,,,,,,main,None,None,1,1.5032471000001806,362.3965097,None,None,1,,,,,,,,,,,,,,219,21,Female,2022-05-18_16h07.45.013,Main,2022.1.1,59.99746810682909,
positive,blue,2,k,None,,,,,,,,,0,74,74,74,,,,,,,,,,,,,,,,,,,,,,,,,,,,,,,,,,,,,main,None,None,1,1.4972032000000581,364.89985990000014,None,None,1,,,,,,,,,,,,,,219,21,Female,2022-05-18_16h07.45.013,Main,2022.1.1,59.99746810682909,
negative,blue,2,None,k,,,,,,,,,0,75,75,75,,,,,,,,,,,,,,,,,,,,,,,,,,,,,,,,,,,,,main,k,k,1,0.6940546000000722,367.3990809000002,None,None,0,,,,,,,,,,,,,,219,21,Female,2022-05-18_16h07.45.013,Main,2022.1.1,59.99746810682909,
negative,blue,2,None,k,,,,,,,,,0,76,76,76,,,,,,,,,,,,,,,,,,,,,,,,,,,,,,,,,,,,,main,k,k,1,0.656068600000026,369.0958376000001,None,None,0,,,,,,,,,,,,,,219,21,Female,2022-05-18_16h07.45.013,Main,2022.1.1,59.99746810682909,
negative,yellow,1,k,None,,,,,,,,,0,77,77,77,,,,,,,,,,,,,,,,,,,,,,,,,,,,,,,,,,,,,main,None,None,1,1.4971468999999615,370.7524455,None,None,1,,,,,,,,,,,,,,219,21,Female,2022-05-18_16h07.45.013,Main,2022.1.1,59.99746810682909,
positive,blue,1,k,None,,,,,,,,,0,78,78,78,,,,,,,,,,,,,,,,,,,,,,,,,,,,,,,,,,,,,main,None,None,1,1.4947345000000496,373.2519936000001,None,None,1,,,,,,,,,,,,,,219,21,Female,2022-05-18_16h07.45.013,Main,2022.1.1,59.99746810682909,
positive,blue,1,k,None,,,,,,,,,0,79,79,79,,,,,,,,,,,,,,,,,,,,,,,,,,,,,,,,,,,,,main,None,None,1,1.4985321999999996,375.7497016,None,None,1,,,,,,,,,,,,,,219,21,Female,2022-05-18_16h07.45.013,Main,2022.1.1,59.99746810682909,
positive,red,2,None,None,,,,,,,,,0,80,80,80,,,,,,,,,,,,,,,,,,,,,,,,,,,,,,,,,,,,,main,None,None,1,1.4995782999999392,378.2513963000001,None,None,1,,,,,,,,,,,,,,219,21,Female,2022-05-18_16h07.45.013,Main,2022.1.1,59.99746810682909,
positive,yellow,2,None,k,,,,,,,,,0,81,81,81,,,,,,,,,,,,,,,,,,,,,,,,,,,,,,,,,,,,,main,k,k,1,1.0328154999999697,380.7519817,None,None,0,,,,,,,,,,,,,,219,21,Female,2022-05-18_16h07.45.013,Main,2022.1.1,59.99746810682909,
positive,blue,1,k,None,,,,,,,,,0,82,82,82,,,,,,,,,,,,,,,,,,,,,,,,,,,,,,,,,,,,,main,None,None,1,1.5084634999998343,382.7866475000001,None,None,1,,,,,,,,,,,,,,219,21,Female,2022-05-18_16h07.45.013,Main,2022.1.1,59.99746810682909,
negative,yellow,2,k,None,,,,,,,,,0,83,83,83,,,,,,,,,,,,,,,,,,,,,,,,,,,,,,,,,,,,,main,None,None,1,1.49667629999999,385.29804120000017,None,None,1,,,,,,,,,,,,,,219,21,Female,2022-05-18_16h07.45.013,Main,2022.1.1,59.99746810682909,
positive,blue,2,k,None,,,,,,,,,0,84,84,84,,,,,,,,,,,,,,,,,,,,,,,,,,,,,,,,,,,,,main,None,None,1,1.509284100000059,387.7960419000001,None,None,1,,,,,,,,,,,,,,219,21,Female,2022-05-18_16h07.45.013,Main,2022.1.1,59.99746810682909,
positive,yellow,1,None,k,,,,,,,,,0,85,85,85,,,,,,,,,,,,,,,,,,,,,,,,,,,,,,,,,,,,,main,k,k,1,0.9803840000001856,390.3075371,None,None,0,,,,,,,,,,,,,,219,21,Female,2022-05-18_16h07.45.013,Main,2022.1.1,59.99746810682909,
positive,blue,2,k,None,,,,,,,,,0,86,86,86,,,,,,,,,,,,,,,,,,,,,,,,,,,,,,,,,,,,,main,None,None,1,1.4993094999999812,392.28987359999996,None,None,1,,,,,,,,,,,,,,219,21,Female,2022-05-18_16h07.45.013,Main,2022.1.1,59.99746810682909,
positive,blue,1,k,None,,,,,,,,,0,87,87,87,,,,,,,,,,,,,,,,,,,,,,,,,,,,,,,,,,,,,main,None,None,1,1.4974412999999913,394.7904963000001,None,None,1,,,,,,,,,,,,,,219,21,Female,2022-05-18_16h07.45.013,Main,2022.1.1,59.99746810682909,
negative,yellow,2,k,None,,,,,,,,,0,88,88,88,,,,,,,,,,,,,,,,,,,,,,,,,,,,,,,,,,,,,main,None,None,1,1.50929270000006,397.28873220000014,None,None,1,,,,,,,,,,,,,,219,21,Female,2022-05-18_16h07.45.013,Main,2022.1.1,59.99746810682909,
negative,blue,2,None,k,,,,,,,,,0,89,89,89,,,,,,,,,,,,,,,,,,,,,,,,,,,,,,,,,,,,,main,k,k,1,0.7841914999999062,399.80082630000015,None,None,0,,,,,,,,,,,,,,219,21,Female,2022-05-18_16h07.45.013,Main,2022.1.1,59.99746810682909,
positive,yellow,2,None,k,,,,,,,,,0,90,90,90,,,,,,,,,,,,,,,,,,,,,,,,,,,,,,,,,,,,,main,k,k,1,0.7741089999999531,401.5862807000001,None,None,0,,,,,,,,,,,,,,219,21,Female,2022-05-18_16h07.45.013,Main,2022.1.1,59.99746810682909,
negative,yellow,1,k,None,,,,,,,,,0,91,91,91,,,,,,,,,,,,,,,,,,,,,,,,,,,,,,,,,,,,,main,None,None,1,1.5077393000001393,403.36280510000006,None,None,1,,,,,,,,,,,,,,219,21,Female,2022-05-18_16h07.45.013,Main,2022.1.1,59.99746810682909,
negative,red,2,None,None,,,,,,,,,0,92,92,92,,,,,,,,,,,,,,,,,,,,,,,,,,,,,,,,,,,,,main,None,None,1,1.5066179999998894,405.87278590000005,None,None,1,,,,,,,,,,,,,,219,21,Female,2022-05-18_16h07.45.013,Main,2022.1.1,59.99746810682909,
negative,blue,2,None,k,,,,,,,,,0,93,93,93,,,,,,,,,,,,,,,,,,,,,,,,,,,,,,,,,,,,,main,k,k,1,0.8967816000001676,408.38032220000014,None,None,0,,,,,,,,,,,,,,219,21,Female,2022-05-18_16h07.45.013,Main,2022.1.1,59.99746810682909,
negative,blue,1,None,k,,,,,,,,,0,94,94,94,,,,,,,,,,,,,,,,,,,,,,,,,,,,,,,,,,,,,main,k,k,1,0.725899100000106,410.28330230000006,None,None,0,,,,,,,,,,,,,,219,21,Female,2022-05-18_16h07.45.013,Main,2022.1.1,59.99746810682909,
negative,blue,1,None,k,,,,,,,,,0,95,95,95,,,,,,,,,,,,,,,,,,,,,,,,,,,,,,,,,,,,,main,k,k,1,0.8990375000000768,412.01033700000016,None,None,0,,,,,,,,,,,,,,219,21,Female,2022-05-18_16h07.45.013,Main,2022.1.1,59.99746810682909,
negative,red,1,None,None,,,,,,,,,0,96,96,96,,,,,,,,,,,,,,,,,,,,,,,,,,,,,,,,,,,,,main,None,None,1,1.4940024999998514,413.9108156,None,None,1,,,,,,,,,,,,,,219,21,Female,2022-05-18_16h07.45.013,Main,2022.1.1,59.99746810682909,
positive,yellow,1,None,k,,,,,,,,,0,97,97,97,,,,,,,,,,,,,,,,,,,,,,,,,,,,,,,,,,,,,main,k,k,1,0.7930347999999867,416.4062437,None,None,0,,,,,,,,,,,,,,219,21,Female,2022-05-18_16h07.45.013,Main,2022.1.1,59.99746810682909,
negative,yellow,1,k,None,,,,,,,,,0,98,98,98,,,,,,,,,,,,,,,,,,,,,,,,,,,,,,,,,,,,,main,None,None,1,1.498232299999927,418.19898950000015,None,None,1,,,,,,,,,,,,,,219,21,Female,2022-05-18_16h07.45.013,Main,2022.1.1,59.99746810682909,
positive,red,1,None,None,,,,,,,,,0,99,99,99,,,,,,,,,,,,,,,,,,,,,,,,,,,,,,,,,,,,,main,None,None,1,1.496992900000123,420.6984983,None,None,1,,,,,,,,,,,,,,219,21,Female,2022-05-18_16h07.45.013,Main,2022.1.1,59.99746810682909,
positive,blue,1,k,None,,,,,,,,,0,100,100,100,,,,,,,,,,,,,,,,,,,,,,,,,,,,,,,,,,,,,main,None,None,1,1.5111974999999802,423.19723620000013,None,None,1,,,,,,,,,,,,,,219,21,Female,2022-05-18_16h07.45.013,Main,2022.1.1,59.99746810682909,
negative,yellow,1,k,None,,,,,,,,,0,101,101,101,,,,,,,,,,,,,,,,,,,,,,,,,,,,,,,,,,,,,main,None,None,1,1.4996538999998847,425.7120142000001,None,None,1,,,,,,,,,,,,,,219,21,Female,2022-05-18_16h07.45.013,Main,2022.1.1,59.99746810682909,
negative,blue,2,None,k,,,,,,,,,0,102,102,102,,,,,,,,,,,,,,,,,,,,,,,,,,,,,,,,,,,,,main,k,k,1,0.8816759000001184,428.21288030000005,None,None,0,,,,,,,,,,,,,,219,21,Female,2022-05-18_16h07.45.013,Main,2022.1.1,59.99746810682909,
negative,yellow,2,k,None,,,,,,,,,0,103,103,103,,,,,,,,,,,,,,,,,,,,,,,,,,,,,,,,,,,,,main,None,None,1,1.497140599999966,430.0962197000001,None,None,1,,,,,,,,,,,,,,219,21,Female,2022-05-18_16h07.45.013,Main,2022.1.1,59.99746810682909,
positive,yellow,2,None,k,,,,,,,,,0,104,104,104,,,,,,,,,,,,,,,,,,,,,,,,,,,,,,,,,,,,,main,k,k,1,1.1624673999999686,432.59523090000016,None,None,0,,,,,,,,,,,,,,219,21,Female,2022-05-18_16h07.45.013,Main,2022.1.1,59.99746810682909,
positive,blue,1,k,None,,,,,,,,,0,105,105,105,,,,,,,,,,,,,,,,,,,,,,,,,,,,,,,,,,,,,main,None,None,1,1.4962845000000016,434.7603779000001,None,None,1,,,,,,,,,,,,,,219,21,Female,2022-05-18_16h07.45.013,Main,2022.1.1,59.99746810682909,
positive,blue,2,k,None,,,,,,,,,0,106,106,106,,,,,,,,,,,,,,,,,,,,,,,,,,,,,,,,,,,,,main,None,None,1,1.511154999999917,437.2599902000002,None,None,1,,,,,,,,,,,,,,219,21,Female,2022-05-18_16h07.45.013,Main,2022.1.1,59.99746810682909,
negative,blue,1,None,k,,,,,,,,,0,107,107,107,,,,,,,,,,,,,,,,,,,,,,,,,,,,,,,,,,,,,main,k,k,1,0.6858492999999726,439.77445220000004,None,None,0,,,,,,,,,,,,,,219,21,Female,2022-05-18_16h07.45.013,Main,2022.1.1,59.99746810682909,
positive,yellow,2,None,k,,,,,,,,,0,108,108,108,,,,,,,,,,,,,,,,,,,,,,,,,,,,,,,,,,,,,main,k,k,1,0.9165706999999657,441.4604214000001,None,None,0,,,,,,,,,,,,,,219,21,Female,2022-05-18_16h07.45.013,Main,2022.1.1,59.99746810682909,
negative,yellow,1,k,None,,,,,,,,,0,109,109,109,,,,,,,,,,,,,,,,,,,,,,,,,,,,,,,,,,,,,main,None,None,1,1.5047469000001001,443.38131810000004,None,None,1,,,,,,,,,,,,,,219,21,Female,2022-05-18_16h07.45.013,Main,2022.1.1,59.99746810682909,
negative,blue,2,None,k,,,,,,,,,0,110,110,110,,,,,,,,,,,,,,,,,,,,,,,,,,,,,,,,,,,,,main,k,k,1,0.8848749999999654,445.8867986,None,None,0,,,,,,,,,,,,,,219,21,Female,2022-05-18_16h07.45.013,Main,2022.1.1,59.99746810682909,
positive,blue,2,k,None,,,,,,,,,0,111,111,111,,,,,,,,,,,,,,,,,,,,,,,,,,,,,,,,,,,,,main,None,None,1,1.5046147000000474,447.7733012000001,None,None,1,,,,,,,,,,,,,,219,21,Female,2022-05-18_16h07.45.013,Main,2022.1.1,59.99746810682909,
negative,blue,1,None,k,,,,,,,,,0,112,112,112,,,,,,,,,,,,,,,,,,,,,,,,,,,,,,,,,,,,,main,k,k,1,0.7805068000000119,450.27742350000017,None,None,0,,,,,,,,,,,,,,219,21,Female,2022-05-18_16h07.45.013,Main,2022.1.1,59.99746810682909,
positive,yellow,1,None,k,,,,,,,,,0,113,113,113,,,,,,,,,,,,,,,,,,,,,,,,,,,,,,,,,,,,,main,k,k,1,1.3996941000000334,452.0597930000001,None,None,0,,,,,,,,,,,,,,219,21,Female,2022-05-18_16h07.45.013,Main,2022.1.1,59.99746810682909,
negative,red,1,None,None,,,,,,,,,0,114,114,114,,,,,,,,,,,,,,,,,,,,,,,,,,,,,,,,,,,,,main,None,k,0,-0.7526495999998133,454.4608774000001,None,None,1,,,,,,,,,,,,,,219,21,Female,2022-05-18_16h07.45.013,Main,2022.1.1,59.99746810682909,
positive,red,1,None,None,,,,,,,,,0,115,115,115,,,,,,,,,,,,,,,,,,,,,,,,,,,,,,,,,,,,,main,None,None,1,1.4988295000000562,457.74603560000014,None,None,1,,,,,,,,,,,,,,219,21,Female,2022-05-18_16h07.45.013,Main,2022.1.1,59.99746810682909,
negative,red,2,None,None,,,,,,,,,0,116,116,116,,,,,,,,,,,,,,,,,,,,,,,,,,,,,,,,,,,,,main,None,None,1,1.5016456999999264,460.24409830000013,None,None,1,,,,,,,,,,,,,,219,21,Female,2022-05-18_16h07.45.013,Main,2022.1.1,59.99746810682909,
negative,yellow,2,k,None,,,,,,,,,0,117,117,117,,,,,,,,,,,,,,,,,,,,,,,,,,,,,,,,,,,,,main,None,None,1,1.4995959000000312,462.74983840000004,None,None,1,,,,,,,,,,,,,,219,21,Female,2022-05-18_16h07.45.013,Main,2022.1.1,59.99746810682909,
positive,yellow,1,None,k,,,,,,,,,0,118,118,118,,,,,,,,,,,,,,,,,,,,,,,,,,,,,,,,,,,,,main,k,k,1,0.7246255000000019,465.249992,None,None,0,,,,,,,,,,,,,,219,21,Female,2022-05-18_16h07.45.013,Main,2022.1.1,59.99746810682909,
positive,red,2,None,None,,,,,,,,,0,119,119,119,,,,,,,,,,,,,,,,,,,,,,,,,,,,,,,,,,,,,main,None,None,1,1.498008900000059,466.9740001,None,None,1,,,,,,,,,,,,,,219,21,Female,2022-05-18_16h07.45.013,Main,2022.1.1,59.99746810682909,
positive,blue,2,k,None,,,,,,,,,0,120,120,120,,,,,,,,,,,,,,,,,,,,,,,,,,,,,,,,,,,,,main,None,None,1,1.5098551999999472,469.47373130000005,None,None,1,,,,,,,,,,,,,,219,21,Female,2022-05-18_16h07.45.013,Main,2022.1.1,59.99746810682909,
negative,red,1,None,None,,,,,,,,,0,121,121,121,,,,,,,,,,,,,,,,,,,,,,,,,,,,,,,,,,,,,main,None,None,1,1.5107216999999764,471.9866212000002,None,None,1,,,,,,,,,,,,,,219,21,Female,2022-05-18_16h07.45.013,Main,2022.1.1,59.99746810682909,
positive,yellow,2,None,k,,,,,,,,,0,122,122,122,,,,,,,,,,,,,,,,,,,,,,,,,,,,,,,,,,,,,main,k,k,1,0.8463733000003231,474.50065940000013,None,None,0,,,,,,,,,,,,,,219,21,Female,2022-05-18_16h07.45.013,Main,2022.1.1,59.99746810682909,
negative,red,2,None,None,,,,,,,,,0,123,123,123,,,,,,,,,,,,,,,,,,,,,,,,,,,,,,,,,,,,,main,None,None,1,1.500775099999828,476.3479096000001,None,None,1,,,,,,,,,,,,,,219,21,Female,2022-05-18_16h07.45.013,Main,2022.1.1,59.99746810682909,
negative,yellow,2,k,None,,,,,,,,,0,124,124,124,,,,,,,,,,,,,,,,,,,,,,,,,,,,,,,,,,,,,main,None,None,1,1.501604800000223,478.84912669999994,None,None,1,,,,,,,,,,,,,,219,21,Female,2022-05-18_16h07.45.013,Main,2022.1.1,59.99746810682909,
positive,red,1,None,None,,,,,,,,,0,125,125,125,,,,,,,,,,,,,,,,,,,,,,,,,,,,,,,,,,,,,main,None,None,1,1.4961907000001702,481.35241989999986,None,None,1,,,,,,,,,,,,,,219,21,Female,2022-05-18_16h07.45.013,Main,2022.1.1,59.99746810682909,
negative,blue,2,None,k,,,,,,,,,0,126,126,126,,,,,,,,,,,,,,,,,,,,,,,,,,,,,,,,,,,,,main,k,k,1,0.873125500000242,483.8507598000001,None,None,0,,,,,,,,,,,,,,219,21,Female,2022-05-18_16h07.45.013,Main,2022.1.1,59.99746810682909,
negative,blue,1,None,k,,,,,,,,,0,127,127,127,,,,,,,,,,,,,,,,,,,,,,,,,,,,,,,,,,,,,main,k,k,1,0.7493463000000702,485.72682380000015,None,None,0,,,,,,,,,,,,,,219,21,Female,2022-05-18_16h07.45.013,Main,2022.1.1,59.99746810682909,
negative,yellow,1,k,None,,,,,,,,,0,128,128,128,,,,,,,,,,,,,,,,,,,,,,,,,,,,,,,,,,,,,main,None,None,1,1.5019741000000977,487.4765453,None,None,1,,,,,,,,,,,,,,219,21,Female,2022-05-18_16h07.45.013,Main,2022.1.1,59.99746810682909,
negative,yellow,1,k,None,,,,,,,,,0,129,129,129,,,,,,,,,,,,,,,,,,,,,,,,,,,,,,,,,,,,,main,None,None,1,1.509397799999988,489.9797929000001,None,None,1,,,,,,,,,,,,,,219,21,Female,2022-05-18_16h07.45.013,Main,2022.1.1,59.99746810682909,
positive,blue,1,k,None,,,,,,,,,0,130,130,130,,,,,,,,,,,,,,,,,,,,,,,,,,,,,,,,,,,,,main,None,None,1,1.5009735999997247,492.4891987000001,None,None,1,,,,,,,,,,,,,,219,21,Female,2022-05-18_16h07.45.013,Main,2022.1.1,59.99746810682909,
negative,blue,1,None,k,,,,,,,,,0,131,131,131,,,,,,,,,,,,,,,,,,,,,,,,,,,,,,,,,,,,,main,k,k,1,0.6982654999997067,494.99402610000016,None,None,0,,,,,,,,,,,,,,219,21,Female,2022-05-18_16h07.45.013,Main,2022.1.1,59.99746810682909,
negative,blue,2,None,k,,,,,,,,,0,132,132,132,,,,,,,,,,,,,,,,,,,,,,,,,,,,,,,,,,,,,main,k,k,1,0.8611674999997376,496.6936257000002,None,None,0,,,,,,,,,,,,,,219,21,Female,2022-05-18_16h07.45.013,Main,2022.1.1,59.99746810682909,
positive,blue,2,k,None,,,,,,,,,0,133,133,133,,,,,,,,,,,,,,,,,,,,,,,,,,,,,,,,,,,,,main,None,None,1,1.4994957999997496,498.55446919999986,None,None,1,,,,,,,,,,,,,,219,21,Female,2022-05-18_16h07.45.013,Main,2022.1.1,59.99746810682909,
positive,red,2,None,None,,,,,,,,,0,134,134,134,,,,,,,,,,,,,,,,,,,,,,,,,,,,,,,,,,,,,main,None,None,1,1.4970456000000922,501.05547780000006,None,None,1,,,,,,,,,,,,,,219,21,Female,2022-05-18_16h07.45.013,Main,2022.1.1,59.99746810682909,
negative,yellow,2,k,None,,,,,,,,,0,135,135,135,,,,,,,,,,,,,,,,,,,,,,,,,,,,,,,,,,,,,main,None,None,1,1.50444379999999,503.55380939999986,None,None,1,,,,,,,,,,,,,,219,21,Female,2022-05-18_16h07.45.013,Main,2022.1.1,59.99746810682909,
positive,yellow,2,None,k,,,,,,,,,0,136,136,136,,,,,,,,,,,,,,,,,,,,,,,,,,,,,,,,,,,,,main,k,k,1,0.8302829999997812,506.06130310000026,None,None,0,,,,,,,,,,,,,,219,21,Female,2022-05-18_16h07.45.013,Main,2022.1.1,59.99746810682909,
positive,blue,1,k,None,,,,,,,,,0,137,137,137,,,,,,,,,,,,,,,,,,,,,,,,,,,,,,,,,,,,,main,None,None,1,1.4966460000000552,507.89373350000005,None,None,1,,,,,,,,,,,,,,219,21,Female,2022-05-18_16h07.45.013,Main,2022.1.1,59.99746810682909,
positive,yellow,1,None,k,,,,,,,,,0,138,138,138,,,,,,,,,,,,,,,,,,,,,,,,,,,,,,,,,,,,,main,k,k,1,0.8615959999997358,510.3916542000002,None,None,0,,,,,,,,,,,,,,219,21,Female,2022-05-18_16h07.45.013,Main,2022.1.1,59.99746810682909,
positive,yellow,1,None,k,,,,,,,,,0,139,139,139,,,,,,,,,,,,,,,,,,,,,,,,,,,,,,,,,,,,,main,k,k,1,0.8187434000001304,512.2521148999999,None,None,0,,,,,,,,,,,,,,219,21,Female,2022-05-18_16h07.45.013,Main,2022.1.1,59.99746810682909,
positive,yellow,1,None,k,,,,,,,,,0,140,140,140,,,,,,,,,,,,,,,,,,,,,,,,,,,,,,,,,,,,,main,k,k,1,0.5705127000001085,514.0748920999999,None,None,0,,,,,,,,,,,,,,219,21,Female,2022-05-18_16h07.45.013,Main,2022.1.1,59.99746810682909,
positive,blue,1,k,None,,,,,,,,,0,141,141,141,,,,,,,,,,,,,,,,,,,,,,,,,,,,,,,,,,,,,main,None,None,1,1.5062033999997766,515.6471532999999,None,None,1,,,,,,,,,,,,,,219,21,Female,2022-05-18_16h07.45.013,Main,2022.1.1,59.99746810682909,
positive,blue,2,k,None,,,,,,,,,0,142,142,142,,,,,,,,,,,,,,,,,,,,,,,,,,,,,,,,,,,,,main,None,None,1,1.4979413000000932,518.1528331,None,None,1,,,,,,,,,,,,,,219,21,Female,2022-05-18_16h07.45.013,Main,2022.1.1,59.99746810682909,
positive,yellow,2,None,k,,,,,,,,,0,143,143,143,,,,,,,,,,,,,,,,,,,,,,,,,,,,,,,,,,,,,main,k,k,1,0.7873319000000265,520.6522384,None,None,0,,,,,,,,,,,,,,219,21,Female,2022-05-18_16h07.45.013,Main,2022.1.1,59.99746810682909,
negative,yellow,2,k,None,,,,,,,,,0,144,144,144,,,,,,,,,,,,,,,,,,,,,,,,,,,,,,,,,,,,,main,None,None,1,1.5073139999999512,522.4439013000001,None,None,1,,,,,,,,,,,,,,219,21,Female,2022-05-18_16h07.45.013,Main,2022.1.1,59.99746810682909,
negative,blue,2,None,k,,,,,,,,,0,145,145,145,,,,,,,,,,,,,,,,,,,,,,,,,,,,,,,,,,,,,main,k,k,1,0.9823446000000331,524.9496115000002,None,None,0,,,,,,,,,,,,,,219,21,Female,2022-05-18_16h07.45.013,Main,2022.1.1,59.99746810682909,
negative,red,1,None,None,,,,,,,,,0,146,146,146,,,,,,,,,,,,,,,,,,,,,,,,,,,,,,,,,,,,,main,None,None,1,1.4986178000003747,526.9340852,None,None,1,,,,,,,,,,,,,,219,21,Female,2022-05-18_16h07.45.013,Main,2022.1.1,59.99746810682909,
positive,blue,1,k,None,,,,,,,,,0,147,147,147,,,,,,,,,,,,,,,,,,,,,,,,,,,,,,,,,,,,,main,None,None,1,1.4980146999996578,529.4340901,None,None,1,,,,,,,,,,,,,,219,21,Female,2022-05-18_16h07.45.013,Main,2022.1.1,59.99746810682909,
positive,yellow,1,None,k,,,,,,,,,0,148,148,148,,,,,,,,,,,,,,,,,,,,,,,,,,,,,,,,,,,,,main,k,k,1,0.7578170000001592,531.9327882000002,None,None,0,,,,,,,,,,,,,,219,21,Female,2022-05-18_16h07.45.013,Main,2022.1.1,59.99746810682909,
negative,red,2,None,None,,,,,,,,,0,149,149,149,,,,,,,,,,,,,,,,,,,,,,,,,,,,,,,,,,,,,main,None,None,1,1.493832999999995,533.6942545000002,None,None,1,,,,,,,,,,,,,,219,21,Female,2022-05-18_16h07.45.013,Main,2022.1.1,59.99746810682909,
negative,blue,1,None,k,,,,,,,,,0,150,150,150,,,,,,,,,,,,,,,,,,,,,,,,,,,,,,,,,,,,,main,k,k,1,0.8423028000001977,536.1901618000002,None,None,0,,,,,,,,,,,,,,219,21,Female,2022-05-18_16h07.45.013,Main,2022.1.1,59.99746810682909,
negative,yellow,2,k,None,,,,,,,,,0,151,151,151,,,,,,,,,,,,,,,,,,,,,,,,,,,,,,,,,,,,,main,None,None,1,1.502384500000062,538.0315003000001,None,None,1,,,,,,,,,,,,,,219,21,Female,2022-05-18_16h07.45.013,Main,2022.1.1,59.99746810682909,
negative,blue,2,None,k,,,,,,,,,0,152,152,152,,,,,,,,,,,,,,,,,,,,,,,,,,,,,,,,,,,,,main,k,k,1,0.8218346999997266,540.5389890000001,None,None,0,,,,,,,,,,,,,,219,21,Female,2022-05-18_16h07.45.013,Main,2022.1.1,59.99746810682909,
negative,yellow,1,k,None,,,,,,,,,0,153,153,153,,,,,,,,,,,,,,,,,,,,,,,,,,,,,,,,,,,,,main,None,None,1,1.4975592999999208,542.3606474000003,None,None,1,,,,,,,,,,,,,,219,21,Female,2022-05-18_16h07.45.013,Main,2022.1.1,59.99746810682909,
negative,blue,1,None,k,,,,,,,,,0,154,154,154,,,,,,,,,,,,,,,,,,,,,,,,,,,,,,,,,,,,,main,k,k,1,0.8010091999999531,544.8598182999999,None,None,0,,,,,,,,,,,,,,219,21,Female,2022-05-18_16h07.45.013,Main,2022.1.1,59.99746810682909,
positive,yellow,2,None,k,,,,,,,,,0,155,155,155,,,,,,,,,,,,,,,,,,,,,,,,,,,,,,,,,,,,,main,k,k,1,0.8212630000002719,546.6621994000002,None,None,0,,,,,,,,,,,,,,219,21,Female,2022-05-18_16h07.45.013,Main,2022.1.1,59.99746810682909,
positive,red,2,None,None,,,,,,,,,0,156,156,156,,,,,,,,,,,,,,,,,,,,,,,,,,,,,,,,,,,,,main,None,None,1,1.5032584999999017,548.4874895000003,None,None,1,,,,,,,,,,,,,,219,21,Female,2022-05-18_16h07.45.013,Main,2022.1.1,59.99746810682909,
positive,red,1,None,None,,,,,,,,,0,157,157,157,,,,,,,,,,,,,,,,,,,,,,,,,,,,,,,,,,,,,main,None,None,1,1.5058752999998433,550.9916521,None,None,1,,,,,,,,,,,,,,219,21,Female,2022-05-18_16h07.45.013,Main,2022.1.1,59.99746810682909,
positive,blue,2,k,None,,,,,,,,,0,158,158,158,,,,,,,,,,,,,,,,,,,,,,,,,,,,,,,,,,,,,main,None,None,1,1.501162000000022,553.4980614000001,None,None,1,,,,,,,,,,,,,,219,21,Female,2022-05-18_16h07.45.013,Main,2022.1.1,59.99746810682909,
negative,yellow,1,k,None,,,,,,,,,0,159,159,159,,,,,,,,,,,,,,,,,,,,,,,,,,,,,,,,,,,,,main,None,None,1,1.4960714000003463,556.0018089,None,None,1,,,,,,,,,,,,,,219,21,Female,2022-05-18_16h07.45.013,Main,2022.1.1,59.99746810682909,
negative,red,2,None,None,,,,,,,,,0,160,160,160,,,,,,,,,,,,,,,,,,,,,,,,,,,,,,,,,,,,,main,None,None,1,1.5002245999999104,558.4980544999999,None,None,1,,,,,,,,,,,,,,219,21,Female,2022-05-18_16h07.45.013,Main,2022.1.1,59.99746810682909,
negative,blue,1,None,k,,,,,,,,,0,161,161,161,,,,,,,,,,,,,,,,,,,,,,,,,,,,,,,,,,,,,main,k,k,1,0.8523264999998901,561.0013816999999,None,None,0,,,,,,,,,,,,,,219,21,Female,2022-05-18_16h07.45.013,Main,2022.1.1,59.99746810682909,
negative,blue,1,None,k,,,,,,,,,0,162,162,162,,,,,,,,,,,,,,,,,,,,,,,,,,,,,,,,,,,,,main,k,k,1,0.7587583000004088,562.8556377999998,None,None,0,,,,,,,,,,,,,,219,21,Female,2022-05-18_16h07.45.013,Main,2022.1.1,59.99746810682909,
negative,yellow,1,k,None,,,,,,,,,0,163,163,163,,,,,,,,,,,,,,,,,,,,,,,,,,,,,,,,,,,,,main,None,None,1,1.5132869999997638,564.6144010000003,None,None,1,,,,,,,,,,,,,,219,21,Female,2022-05-18_16h07.45.013,Main,2022.1.1,59.99746810682909,
negative,yellow,1,k,None,,,,,,,,,0,164,164,164,,,,,,,,,,,,,,,,,,,,,,,,,,,,,,,,,,,,,main,None,None,1,1.5042114000002584,567.1278806999999,None,None,1,,,,,,,,,,,,,,219,21,Female,2022-05-18_16h07.45.013,Main,2022.1.1,59.99746810682909,
positive,yellow,1,None,k,,,,,,,,,0,165,165,165,,,,,,,,,,,,,,,,,,,,,,,,,,,,,,,,,,,,,main,k,k,1,0.7444307000000663,569.6359444,None,None,0,,,,,,,,,,,,,,219,21,Female,2022-05-18_16h07.45.013,Main,2022.1.1,59.99746810682909,
negative,red,1,None,None,,,,,,,,,0,166,166,166,,,,,,,,,,,,,,,,,,,,,,,,,,,,,,,,,,,,,main,None,None,1,1.5016554999997425,571.3821634000001,None,None,1,,,,,,,,,,,,,,219,21,Female,2022-05-18_16h07.45.013,Main,2022.1.1,59.99746810682909,
negative,yellow,2,k,None,,,,,,,,,0,167,167,167,,,,,,,,,,,,,,,,,,,,,,,,,,,,,,,,,,,,,main,None,None,1,1.506362000000081,573.8847252999999,None,None,1,,,,,,,,,,,,,,219,21,Female,2022-05-18_16h07.45.013,Main,2022.1.1,59.99746810682909,
positive,blue,2,k,None,,,,,,,,,0,168,168,168,,,,,,,,,,,,,,,,,,,,,,,,,,,,,,,,,,,,,main,None,None,1,1.5103683000002093,576.3921911000002,None,None,1,,,,,,,,,,,,,,219,21,Female,2022-05-18_16h07.45.013,Main,2022.1.1,59.99746810682909,
positive,red,2,None,None,,,,,,,,,0,169,169,169,,,,,,,,,,,,,,,,,,,,,,,,,,,,,,,,,,,,,main,None,None,1,1.5082758999997168,578.9056838000001,None,None,1,,,,,,,,,,,,,,219,21,Female,2022-05-18_16h07.45.013,Main,2022.1.1,59.99746810682909,
positive,red,1,None,None,,,,,,,,,0,170,170,170,,,,,,,,,,,,,,,,,,,,,,,,,,,,,,,,,,,,,main,None,None,1,1.4977239999998346,581.4168325,None,None,1,,,,,,,,,,,,,,219,21,Female,2022-05-18_16h07.45.013,Main,2022.1.1,59.99746810682909,
negative,blue,2,None,k,,,,,,,,,0,171,171,171,,,,,,,,,,,,,,,,,,,,,,,,,,,,,,,,,,,,,main,k,k,1,1.1481492000002618,583.9153684000003,None,None,0,,,,,,,,,,,,,,219,21,Female,2022-05-18_16h07.45.013,Main,2022.1.1,59.99746810682909,
positive,blue,2,k,None,,,,,,,,,0,172,172,172,,,,,,,,,,,,,,,,,,,,,,,,,,,,,,,,,,,,,main,None,None,1,1.511891900000137,586.0659455,None,None,1,,,,,,,,,,,,,,219,21,Female,2022-05-18_16h07.45.013,Main,2022.1.1,59.99746810682909,
negative,yellow,2,k,None,,,,,,,,,0,173,173,173,,,,,,,,,,,,,,,,,,,,,,,,,,,,,,,,,,,,,main,None,None,1,1.508368100000098,588.5771669999999,None,None,1,,,,,,,,,,,,,,219,21,Female,2022-05-18_16h07.45.013,Main,2022.1.1,59.99746810682909,
positive,yellow,2,None,k,,,,,,,,,0,174,174,174,,,,,,,,,,,,,,,,,,,,,,,,,,,,,,,,,,,,,main,k,k,1,0.6950326999999561,591.0880326000001,None,None,0,,,,,,,,,,,,,,219,21,Female,2022-05-18_16h07.45.013,Main,2022.1.1,59.99746810682909,
negative,blue,2,None,k,,,,,,,,,0,175,175,175,,,,,,,,,,,,,,,,,,,,,,,,,,,,,,,,,,,,,main,k,k,1,0.9246600999999828,592.7853419000003,None,None,0,,,,,,,,,,,,,,219,21,Female,2022-05-18_16h07.45.013,Main,2022.1.1,59.99746810682909,
positive,blue,1,k,None,,,,,,,,,0,176,176,176,,,,,,,,,,,,,,,,,,,,,,,,,,,,,,,,,,,,,main,None,None,1,1.5005339000003914,594.7098875000001,None,None,1,,,,,,,,,,,,,,219,21,Female,2022-05-18_16h07.45.013,Main,2022.1.1,59.99746810682909,
positive,yellow,1,None,k,,,,,,,,,0,177,177,177,,,,,,,,,,,,,,,,,,,,,,,,,,,,,,,,,,,,,main,k,k,1,0.8359255999998823,597.2140717000002,None,None,0,,,,,,,,,,,,,,219,21,Female,2022-05-18_16h07.45.013,Main,2022.1.1,59.99746810682909,
positive,blue,1,k,None,,,,,,,,,0,178,178,178,,,,,,,,,,,,,,,,,,,,,,,,,,,,,,,,,,,,,main,None,None,1,1.4962852999997267,599.0511763,None,None,1,,,,,,,,,,,,,,219,21,Female,2022-05-18_16h07.45.013,Main,2022.1.1,59.99746810682909,
positive,yellow,2,None,k,,,,,,,,,0,179,179,179,,,,,,,,,,,,,,,,,,,,,,,,,,,,,,,,,,,,,main,k,k,1,0.9616621999998642,601.5488605,None,None,0,,,,,,,,,,,,,,219,21,Female,2022-05-18_16h07.45.013,Main,2022.1.1,59.99746810682909,
positive,blue,1,k,None,,,,,,,,,0,180,180,180,,,,,,,,,,,,,,,,,,,,,,,,,,,,,,,,,,,,,main,None,None,1,1.4987026999997397,603.5121354000003,None,None,1,,,,,,,,,,,,,,219,21,Female,2022-05-18_16h07.45.013,Main,2022.1.1,59.99746810682909,
negative,red,1,None,None,,,,,,,,,0,181,181,181,,,,,,,,,,,,,,,,,,,,,,,,,,,,,,,,,,,,,main,None,None,1,1.5040992999997798,606.0121530000001,None,None,1,,,,,,,,,,,,,,219,21,Female,2022-05-18_16h07.45.013,Main,2022.1.1,59.99746810682909,
negative,blue,1,None,k,,,,,,,,,0,182,182,182,,,,,,,,,,,,,,,,,,,,,,,,,,,,,,,,,,,,,main,k,k,1,0.6654478000000381,608.5172539,None,None,0,,,,,,,,,,,,,,219,21,Female,2022-05-18_16h07.45.013,Main,2022.1.1,59.99746810682909,
negative,yellow,2,k,None,,,,,,,,,0,183,183,183,,,,,,,,,,,,,,,,,,,,,,,,,,,,,,,,,,,,,main,None,None,1,1.5048642000001564,610.1850595999999,None,None,1,,,,,,,,,,,,,,219,21,Female,2022-05-18_16h07.45.013,Main,2022.1.1,59.99746810682909,
positive,yellow,2,None,k,,,,,,,,,0,184,184,184,,,,,,,,,,,,,,,,,,,,,,,,,,,,,,,,,,,,,main,k,k,1,0.7046422000003076,612.6920789000001,None,None,0,,,,,,,,,,,,,,219,21,Female,2022-05-18_16h07.45.013,Main,2022.1.1,59.99746810682909,
positive,yellow,1,None,k,,,,,,,,,0,185,185,185,,,,,,,,,,,,,,,,,,,,,,,,,,,,,,,,,,,,,main,k,k,1,0.6855539999996836,614.3974940000003,None,None,0,,,,,,,,,,,,,,219,21,Female,2022-05-18_16h07.45.013,Main,2022.1.1,59.99746810682909,
positive,red,2,None,None,,,,,,,,,0,186,186,186,,,,,,,,,,,,,,,,,,,,,,,,,,,,,,,,,,,,,main,None,None,1,1.5044427999996515,616.0839022999999,None,None,1,,,,,,,,,,,,,,219,21,Female,2022-05-18_16h07.45.013,Main,2022.1.1,59.99746810682909,
positive,blue,1,k,None,,,,,,,,,0,187,187,187,,,,,,,,,,,,,,,,,,,,,,,,,,,,,,,,,,,,,main,None,None,1,1.5110875000000306,618.5888905000002,None,None,1,,,,,,,,,,,,,,219,21,Female,2022-05-18_16h07.45.013,Main,2022.1.1,59.99746810682909,
negative,yellow,1,k,None,,,,,,,,,0,188,188,188,,,,,,,,,,,,,,,,,,,,,,,,,,,,,,,,,,,,,main,None,None,1,1.499735899999905,621.1027616000001,None,None,1,,,,,,,,,,,,,,219,21,Female,2022-05-18_16h07.45.013,Main,2022.1.1,59.99746810682909,
positive,yellow,2,None,k,,,,,,,,,0,189,189,189,,,,,,,,,,,,,,,,,,,,,,,,,,,,,,,,,,,,,main,k,k,1,0.7390590999998494,623.6042534000003,None,None,0,,,,,,,,,,,,,,219,21,Female,2022-05-18_16h07.45.013,Main,2022.1.1,59.99746810682909,
negative,yellow,2,k,None,,,,,,,,,0,190,190,190,,,,,,,,,,,,,,,,,,,,,,,,,,,,,,,,,,,,,main,None,None,1,1.5063113999999587,625.3476426000002,None,None,1,,,,,,,,,,,,,,219,21,Female,2022-05-18_16h07.45.013,Main,2022.1.1,59.99746810682909,
negative,yellow,1,k,None,,,,,,,,,0,191,191,191,,,,,,,,,,,,,,,,,,,,,,,,,,,,,,,,,,,,,main,None,None,1,1.512059500000305,627.8526627000001,None,None,1,,,,,,,,,,,,,,219,21,Female,2022-05-18_16h07.45.013,Main,2022.1.1,59.99746810682909,
positive,blue,2,k,None,,,,,,,,,0,192,192,192,,,,,,,,,,,,,,,,,,,,,,,,,,,,,,,,,,,,,main,None,None,1,1.5007650999996258,630.3687098999999,None,None,1,,,,,,,,,,,,,,219,21,Female,2022-05-18_16h07.45.013,Main,2022.1.1,59.99746810682909,
positive,yellow,1,None,k,,,,,,,,,0,193,193,193,,,,,,,,,,,,,,,,,,,,,,,,,,,,,,,,,,,,,main,k,k,1,0.7573132000002261,632.8711315999999,None,None,0,,,,,,,,,,,,,,219,21,Female,2022-05-18_16h07.45.013,Main,2022.1.1,59.99746810682909,
negative,red,2,None,None,,,,,,,,,0,194,194,194,,,,,,,,,,,,,,,,,,,,,,,,,,,,,,,,,,,,,main,None,None,1,1.5053430000002663,634.6314711999999,None,None,1,,,,,,,,,,,,,,219,21,Female,2022-05-18_16h07.45.013,Main,2022.1.1,59.99746810682909,
positive,red,1,None,None,,,,,,,,,0,195,195,195,,,,,,,,,,,,,,,,,,,,,,,,,,,,,,,,,,,,,main,None,None,1,1.5016559000000598,637.1390839999999,None,None,1,,,,,,,,,,,,,,219,21,Female,2022-05-18_16h07.45.013,Main,2022.1.1,59.99746810682909,
negative,blue,1,None,k,,,,,,,,,0,196,196,196,,,,,,,,,,,,,,,,,,,,,,,,,,,,,,,,,,,,,main,k,k,1,0.8139952000001358,639.6415095000002,None,None,0,,,,,,,,,,,,,,219,21,Female,2022-05-18_16h07.45.013,Main,2022.1.1,59.99746810682909,
positive,blue,2,k,None,,,,,,,,,0,197,197,197,,,,,,,,,,,,,,,,,,,,,,,,,,,,,,,,,,,,,main,None,None,1,1.5084615000000667,641.4579471000002,None,None,1,,,,,,,,,,,,,,219,21,Female,2022-05-18_16h07.45.013,Main,2022.1.1,59.99746810682909,
negative,blue,2,None,k,,,,,,,,,0,198,198,198,,,,,,,,,,,,,,,,,,,,,,,,,,,,,,,,,,,,,main,k,k,1,0.7545285000001059,643.9665849000003,None,None,0,,,,,,,,,,,,,,219,21,Female,2022-05-18_16h07.45.013,Main,2022.1.1,59.99746810682909,
negative,blue,2,None,k,,,,,,,,,0,199,199,199,,,,,,,,,,,,,,,,,,,,,,,,,,,,,,,,,,,,,main,k,k,1,0.694961499999863,645.7253389000002,None,None,0,,,,,,,,,,,,,,219,21,Female,2022-05-18_16h07.45.013,Main,2022.1.1,59.99746810682909,
positive,blue,2,k,None,,,,,,,,,0,200,200,200,,,,,,,,,,,,,,,,,,,,,,,,,,,,,,,,,,,,,main,None,None,1,1.4974664000001212,647.4227915000001,None,None,1,,,,,,,,,,,,,,219,21,Female,2022-05-18_16h07.45.013,Main,2022.1.1,59.99746810682909,
positive,blue,2,k,None,,,,,,,,,0,201,201,201,,,,,,,,,,,,,,,,,,,,,,,,,,,,,,,,,,,,,main,None,None,1,1.508376799999951,649.9184878000001,None,None,1,,,,,,,,,,,,,,219,21,Female,2022-05-18_16h07.45.013,Main,2022.1.1,59.99746810682909,
negative,yellow,2,k,None,,,,,,,,,0,202,202,202,,,,,,,,,,,,,,,,,,,,,,,,,,,,,,,,,,,,,main,None,None,1,1.5049228999996558,652.4295368000003,None,None,1,,,,,,,,,,,,,,219,21,Female,2022-05-18_16h07.45.013,Main,2022.1.1,59.99746810682909,
positive,red,1,None,None,,,,,,,,,0,203,203,203,,,,,,,,,,,,,,,,,,,,,,,,,,,,,,,,,,,,,main,None,None,1,1.509988499999963,654.9354668999999,None,None,1,,,,,,,,,,,,,,219,21,Female,2022-05-18_16h07.45.013,Main,2022.1.1,59.99746810682909,
negative,blue,2,None,k,,,,,,,,,0,204,204,204,,,,,,,,,,,,,,,,,,,,,,,,,,,,,,,,,,,,,main,k,k,1,0.7832467999996879,657.4483043,None,None,0,,,,,,,,,,,,,,219,21,Female,2022-05-18_16h07.45.013,Main,2022.1.1,59.99746810682909,
negative,red,1,None,None,,,,,,,,,0,205,205,205,,,,,,,,,,,,,,,,,,,,,,,,,,,,,,,,,,,,,main,None,None,1,1.49692129999994,659.2336642,None,None,1,,,,,,,,,,,,,,219,21,Female,2022-05-18_16h07.45.013,Main,2022.1.1,59.99746810682909,
negative,blue,2,None,k,,,,,,,,,0,206,206,206,,,,,,,,,,,,,,,,,,,,,,,,,,,,,,,,,,,,,main,k,k,1,0.7774991999999656,661.7323388,None,None,0,,,,,,,,,,,,,,219,21,Female,2022-05-18_16h07.45.013,Main,2022.1.1,59.99746810682909,
negative,yellow,2,k,None,,,,,,,,,0,207,207,207,,,,,,,,,,,,,,,,,,,,,,,,,,,,,,,,,,,,,main,None,None,1,1.5045164999996814,663.5128380000001,None,None,1,,,,,,,,,,,,,,219,21,Female,2022-05-18_16h07.45.013,Main,2022.1.1,59.99746810682909,
positive,yellow,2,None,k,,,,,,,,,0,208,208,208,,,,,,,,,,,,,,,,,,,,,,,,,,,,,,,,,,,,,main,k,k,1,0.8051392000002124,666.0174744999999,None,None,0,,,,,,,,,,,,,,219,21,Female,2022-05-18_16h07.45.013,Main,2022.1.1,59.99746810682909,
negative,yellow,1,k,None,,,,,,,,,0,209,209,209,,,,,,,,,,,,,,,,,,,,,,,,,,,,,,,,,,,,,main,None,None,1,1.5006932999999663,667.8254164999998,None,None,1,,,,,,,,,,,,,,219,21,Female,2022-05-18_16h07.45.013,Main,2022.1.1,59.99746810682909,
negative,red,2,None,None,,,,,,,,,0,210,210,210,,,,,,,,,,,,,,,,,,,,,,,,,,,,,,,,,,,,,main,None,None,1,1.4979240000002392,670.3274056999999,None,None,1,,,,,,,,,,,,,,219,21,Female,2022-05-18_16h07.45.013,Main,2022.1.1,59.99746810682909,
negative,blue,1,None,k,,,,,,,,,0,211,211,211,,,,,,,,,,,,,,,,,,,,,,,,,,,,,,,,,,,,,main,k,k,1,0.8560711000000083,672.8266627000003,None,None,0,,,,,,,,,,,,,,219,21,Female,2022-05-18_16h07.45.013,Main,2022.1.1,59.99746810682909,
negative,yellow,1,k,None,,,,,,,,,0,212,212,212,,,,,,,,,,,,,,,,,,,,,,,,,,,,,,,,,,,,,main,None,None,1,1.4982168999999885,674.6829109,None,None,1,,,,,,,,,,,,,,219,21,Female,2022-05-18_16h07.45.013,Main,2022.1.1,59.99746810682909,
positive,blue,1,k,None,,,,,,,,,0,213,213,213,,,,,,,,,,,,,,,,,,,,,,,,,,,,,,,,,,,,,main,None,None,1,1.502343699999983,677.1842778999999,None,None,1,,,,,,,,,,,,,,219,21,Female,2022-05-18_16h07.45.013,Main,2022.1.1,59.99746810682909,
positive,blue,1,k,None,,,,,,,,,0,214,214,214,,,,,,,,,,,,,,,,,,,,,,,,,,,,,,,,,,,,,main,None,None,1,1.4981426000003921,679.6892255000002,None,None,1,,,,,,,,,,,,,,219,21,Female,2022-05-18_16h07.45.013,Main,2022.1.1,59.99746810682909,
positive,yellow,1,None,k,,,,,,,,,0,215,215,215,,,,,,,,,,,,,,,,,,,,,,,,,,,,,,,,,,,,,main,k,k,1,0.7643262999999934,682.1886382000002,None,None,0,,,,,,,,,,,,,,219,21,Female,2022-05-18_16h07.45.013,Main,2022.1.1,59.99746810682909,
positive,yellow,1,None,k,,,,,,,,,0,216,216,216,,,,,,,,,,,,,,,,,,,,,,,,,,,,,,,,,,,,,main,k,k,1,0.7316939000002094,683.9543916000002,None,None,0,,,,,,,,,,,,,,219,21,Female,2022-05-18_16h07.45.013,Main,2022.1.1,59.99746810682909,
positive,yellow,2,None,k,,,,,,,,,0,217,217,217,,,,,,,,,,,,,,,,,,,,,,,,,,,,,,,,,,,,,main,k,k,1,0.77795100000003,685.6868990000003,None,None,0,,,,,,,,,,,,,,219,21,Female,2022-05-18_16h07.45.013,Main,2022.1.1,59.99746810682909,
negative,blue,1,None,k,,,,,,,,,0,218,218,218,,,,,,,,,,,,,,,,,,,,,,,,,,,,,,,,,,,,,main,k,k,1,0.9145877000000837,687.4649253000002,None,None,0,,,,,,,,,,,,,,219,21,Female,2022-05-18_16h07.45.013,Main,2022.1.1,59.99746810682909,
positive,red,2,None,None,,,,,,,,,0,219,219,219,,,,,,,,,,,,,,,,,,,,,,,,,,,,,,,,,,,,,main,None,None,1,1.5135488000000805,689.3801315000001,None,None,1,,,,,,,,,,,,,,219,21,Female,2022-05-18_16h07.45.013,Main,2022.1.1,59.99746810682909,
positive,yellow,1,None,k,,,,,,,,,0,220,220,220,,,,,,,,,,,,,,,,,,,,,,,,,,,,,,,,,,,,,main,k,k,1,0.7872998999996526,691.8957733000002,None,None,0,,,,,,,,,,,,,,219,21,Female,2022-05-18_16h07.45.013,Main,2022.1.1,59.99746810682909,
positive,blue,1,k,None,,,,,,,,,0,221,221,221,,,,,,,,,,,,,,,,,,,,,,,,,,,,,,,,,,,,,main,None,None,1,1.4974575999999615,693.6864645,None,None,1,,,,,,,,,,,,,,219,21,Female,2022-05-18_16h07.45.013,Main,2022.1.1,59.99746810682909,
positive,yellow,2,None,k,,,,,,,,,0,222,222,222,,,,,,,,,,,,,,,,,,,,,,,,,,,,,,,,,,,,,main,k,k,1,0.7132931000001008,696.1859156999999,None,None,0,,,,,,,,,,,,,,219,21,Female,2022-05-18_16h07.45.013,Main,2022.1.1,59.99746810682909,
negative,yellow,1,k,None,,,,,,,,,0,223,223,223,,,,,,,,,,,,,,,,,,,,,,,,,,,,,,,,,,,,,main,None,None,1,1.4984219000002668,697.9005468,None,None,1,,,,,,,,,,,,,,219,21,Female,2022-05-18_16h07.45.013,Main,2022.1.1,59.99746810682909,
positive,yellow,2,None,k,,,,,,,,,0,224,224,224,,,,,,,,,,,,,,,,,,,,,,,,,,,,,,,,,,,,,main,k,k,1,0.762937200000124,700.3998602000001,None,None,0,,,,,,,,,,,,,,219,21,Female,2022-05-18_16h07.45.013,Main,2022.1.1,59.99746810682909,
negative,yellow,2,k,None,,,,,,,,,0,225,225,225,,,,,,,,,,,,,,,,,,,,,,,,,,,,,,,,,,,,,main,None,None,1,1.5127071000001706,702.166628,None,None,1,,,,,,,,,,,,,,219,21,Female,2022-05-18_16h07.45.013,Main,2022.1.1,59.99746810682909,
negative,blue,2,None,k,,,,,,,,,0,226,226,226,,,,,,,,,,,,,,,,,,,,,,,,,,,,,,,,,,,,,main,k,k,1,0.8643668999998226,704.6787714000002,None,None,0,,,,,,,,,,,,,,219,21,Female,2022-05-18_16h07.45.013,Main,2022.1.1,59.99746810682909,
positive,red,2,None,None,,,,,,,,,0,227,227,227,,,,,,,,,,,,,,,,,,,,,,,,,,,,,,,,,,,,,main,None,None,1,1.497794200000044,706.5461449,None,None,1,,,,,,,,,,,,,,219,21,Female,2022-05-18_16h07.45.013,Main,2022.1.1,59.99746810682909,
positive,blue,2,k,None,,,,,,,,,0,228,228,228,,,,,,,,,,,,,,,,,,,,,,,,,,,,,,,,,,,,,main,None,None,1,1.5101659000001746,709.0440094999999,None,None,1,,,,,,,,,,,,,,219,21,Female,2022-05-18_16h07.45.013,Main,2022.1.1,59.99746810682909,
negative,blue,1,None,k,,,,,,,,,0,229,229,229,,,,,,,,,,,,,,,,,,,,,,,,,,,,,,,,,,,,,main,k,k,1,0.7132755999996334,711.5566187,None,None,0,,,,,,,,,,,,,,219,21,Female,2022-05-18_16h07.45.013,Main,2022.1.1,59.99746810682909,
positive,yellow,1,None,k,,,,,,,,,0,230,230,230,,,,,,,,,,,,,,,,,,,,,,,,,,,,,,,,,,,,,main,k,k,1,0.6891751999996814,713.2740079,None,None,0,,,,,,,,,,,,,,219,21,Female,2022-05-18_16h07.45.013,Main,2022.1.1,59.99746810682909,
negative,blue,2,None,k,,,,,,,,,0,231,231,231,,,,,,,,,,,,,,,,,,,,,,,,,,,,,,,,,,,,,main,k,k,1,0.7128295000002254,714.9660773999999,None,None,0,,,,,,,,,,,,,,219,21,Female,2022-05-18_16h07.45.013,Main,2022.1.1,59.99746810682909,
negative,red,1,None,None,,,,,,,,,0,232,232,232,,,,,,,,,,,,,,,,,,,,,,,,,,,,,,,,,,,,,main,None,None,1,1.5028638999997384,716.6812960000002,None,None,1,,,,,,,,,,,,,,219,21,Female,2022-05-18_16h07.45.013,Main,2022.1.1,59.99746810682909,
positive,blue,2,k,None,,,,,,,,,0,233,233,233,,,,,,,,,,,,,,,,,,,,,,,,,,,,,,,,,,,,,main,None,None,1,1.508302299999741,719.1846189000003,None,None,1,,,,,,,,,,,,,,219,21,Female,2022-05-18_16h07.45.013,Main,2022.1.1,59.99746810682909,
negative,yellow,1,k,None,,,,,,,,,0,234,234,234,,,,,,,,,,,,,,,,,,,,,,,,,,,,,,,,,,,,,main,None,None,1,1.4981179000001248,721.6933664000003,None,None,1,,,,,,,,,,,,,,219,21,Female,2022-05-18_16h07.45.013,Main,2022.1.1,59.99746810682909,
negative,yellow,2,k,None,,,,,,,,,0,235,235,235,,,,,,,,,,,,,,,,,,,,,,,,,,,,,,,,,,,,,main,None,None,1,1.5037007000000813,724.1928164999999,None,None,1,,,,,,,,,,,,,,219,21,Female,2022-05-18_16h07.45.013,Main,2022.1.1,59.99746810682909,
positive,red,1,None,None,,,,,,,,,0,236,236,236,,,,,,,,,,,,,,,,,,,,,,,,,,,,,,,,,,,,,main,None,None,1,1.4974907000000712,726.6997368000002,None,None,1,,,,,,,,,,,,,,219,21,Female,2022-05-18_16h07.45.013,Main,2022.1.1,59.99746810682909,
negative,red,2,None,None,,,,,,,,,0,237,237,237,,,,,,,,,,,,,,,,,,,,,,,,,,,,,,,,,,,,,main,None,None,1,1.502031999999872,729.1992746999999,None,None,1,,,,,,,,,,,,,,219,21,Female,2022-05-18_16h07.45.013,Main,2022.1.1,59.99746810682909,
negative,blue,1,None,k,,,,,,,,,0,238,238,238,,,,,,,,,,,,,,,,,,,,,,,,,,,,,,,,,,,,,main,k,k,1,0.7752204999997048,731.7019335999998,None,None,0,,,,,,,,,,,,,,219,21,Female,2022-05-18_16h07.45.013,Main,2022.1.1,59.99746810682909,
positive,blue,1,k,None,,,,,,,,,0,239,239,239,,,,,,,,,,,,,,,,,,,,,,,,,,,,,,,,,,,,,main,None,None,1,1.5084962000000814,733.4790391000001,None,None,1,,,,,,,,,,,,,,219,21,Female,2022-05-18_16h07.45.013,Main,2022.1.1,59.99746810682909,
,,,,,,,,,,,,,,,,,,,,,,,,,,,,,,,,,,,,,,,,,,,,,,,,,,,,,,,,,,,,,,,,,,,,,,,,,735.9775542000002,None,,,,,,,,
