distractor,target,set,ans1,ans2,rep_loop4.thisRepN,rep_loop4.thisTrialN,rep_loop4.thisN,rep_loop4.thisIndex,st2_prac_loop.thisRepN,st2_prac_loop.thisTrialN,st2_prac_loop.thisN,st2_prac_loop.thisIndex,st2_main_loop.thisRepN,st2_main_loop.thisTrialN,st2_main_loop.thisN,st2_main_loop.thisIndex,image_4.started,image_4.stopped,mouse_7.x,mouse_7.y,mouse_7.leftButton,mouse_7.midButton,mouse_7.rightButton,sound_2.started,sound_2.stopped,key_resp_3.keys,mouse_5.x,mouse_5.y,mouse_5.leftButton,mouse_5.midButton,mouse_5.rightButton,mouse_5.started,mouse_5.stopped,yes_text2.started,yes_text2.stopped,no_text2.started,no_text2.stopped,mouse_3.x,mouse_3.y,mouse_3.leftButton,mouse_3.midButton,mouse_3.rightButton,mouse_3.started,mouse_3.stopped,st_prac_back.started,st_prac_back.stopped,st_prac_text.started,st_prac_text.stopped,st_fix_back.started,st_fix_back.stopped,st_fix_2.started,st_fix_2.stopped,main_prac,st_ans,st_res,st_corr,st_rt,st_back.started,st_back.stopped,st2_resp.keys,st2_resp.corr,st_main_back.started,st_main_back.stopped,st_main_text.started,st_main_text.stopped,mouse_4.x,mouse_4.y,mouse_4.leftButton,mouse_4.midButton,mouse_4.rightButton,mouse_4.started,mouse_4.stopped,text_2.started,text_2.stopped,id*,age*,gender*,date,expName,psychopyVersion,frameRate,
,,,,,,,,,,,,,,,,,52.94901190000019,None,0.21203704,-0.25,0,0,0,,,,,,,,,,,,,,,,,,,,,,,,,,,,,,,,,,,,,,,,,,,,,,,,,,,,220,24,Female,2022-05-20_13h44.35.558,Main,2022.1.1,60.18958515531297,
negative,yellow,1,k,None,,,,,0,0,0,0,,,,,,,,,,,,58.66722143999998,None,None,0.11111111,-0.35092592,0,0,0,1.0113347599997269,None,113.54373010000018,None,113.54373010000018,None,-0.06759259,-0.108333334,0,0,0,0.012655439999889495,None,115.1168160000002,None,115.1168160000002,None,117.12596210000015,None,117.12596210000015,None,prac,k,k,1,2.3622669999999744,119.16647770000009,None,None,0,,,,,,,,,,,,,,220,24,Female,2022-05-20_13h44.35.558,Main,2022.1.1,60.18958515531297,
positive,red,2,None,None,,,,,0,1,1,1,,,,,,,,,,,,,,,,,,,,,,,,,,,,,,,,,,,,,,,,,prac,None,None,1,1.4940732000000025,123.55950900000016,None,None,1,,,,,,,,,,,,,,220,24,Female,2022-05-20_13h44.35.558,Main,2022.1.1,60.18958515531297,
negative,blue,2,None,k,,,,,0,2,2,2,,,,,,,,,,,,,,,,,,,,,,,,,,,,,,,,,,,,,,,,,prac,None,None,1,1.512481500000149,126.05668680000008,None,None,1,,,,,,,,,,,,,,220,24,Female,2022-05-20_13h44.35.558,Main,2022.1.1,60.18958515531297,
positive,yellow,1,None,k,,,,,0,3,3,3,,,,,,,,,,,,,,,,,,,,,,,,,,,,,,,,,,,,,,,,,prac,None,None,1,1.5051548999999795,128.5677995000001,None,None,1,,,,,,,,,,,,,,220,24,Female,2022-05-20_13h44.35.558,Main,2022.1.1,60.18958515531297,
negative,blue,2,None,k,,,,,0,4,4,4,,,,,,,,,,,,,,,,,,,,,,,,,,,,,,,,,,,,,,,,,prac,None,None,1,1.496882800000094,131.07514250000008,None,None,1,,,,,,,,,,,,,,220,24,Female,2022-05-20_13h44.35.558,Main,2022.1.1,60.18958515531297,
negative,blue,1,None,k,,,,,0,5,5,5,,,,,,,,,,,,,,,,,,,,,,,,,,,,,,,,,,,,,,,,,prac,None,None,1,1.509695899999997,133.56415110000012,None,None,1,,,,,,,,,,,,,,220,24,Female,2022-05-20_13h44.35.558,Main,2022.1.1,60.18958515531297,
negative,yellow,2,k,None,,,,,0,6,6,6,,,,,,,,,,,,,,,,,,,,,,,,,,,,,,,,,,,,,,,,,prac,k,k,1,1.0374547999999777,136.07388360000004,None,None,0,,,,,,,,,,,,,,220,24,Female,2022-05-20_13h44.35.558,Main,2022.1.1,60.18958515531297,
negative,red,1,None,None,,,,,0,7,7,7,,,,,,,,,,,,,,,,,,,,,,,,,,,,,,,,,,,,,,,,,prac,None,None,1,1.5058180999999422,138.11519580000004,None,None,1,,,,,,,,,,,,,,220,24,Female,2022-05-20_13h44.35.558,Main,2022.1.1,60.18958515531297,
positive,yellow,2,None,k,,,,,0,8,8,8,,,,,,,,,,,,,,,,,,,,,,,,,,,,,,,,,,,,,,,,,prac,None,None,1,1.5014012999999977,140.63258990000008,None,None,1,,,,,,,,,,,,,,220,24,Female,2022-05-20_13h44.35.558,Main,2022.1.1,60.18958515531297,
negative,yellow,1,k,None,,,,,0,9,9,9,,,,,,,,,,,,,,,,,,,,,,,,,,,,,,,,,,,,,,,,,prac,k,k,1,1.2918030000000726,143.12432520000016,None,None,0,,,,,,,,,,,,,,220,24,Female,2022-05-20_13h44.35.558,Main,2022.1.1,60.18958515531297,
positive,yellow,2,None,k,,,,,0,10,10,10,,,,,,,,,,,,,,,,,,,,,,,,,,,,,,,,,,,,,,,,,prac,None,None,1,1.497856400000046,145.4216583,None,None,1,,,,,,,,,,,,,,220,24,Female,2022-05-20_13h44.35.558,Main,2022.1.1,60.18958515531297,
negative,yellow,2,k,None,,,,,0,11,11,11,,,,,,,,,,,,,,,,,,,,,,,,,,,,,,,,,,,,,,,,,prac,k,k,1,1.0671663000000535,147.92115620000004,None,None,0,,,,,,,,,,,,,,220,24,Female,2022-05-20_13h44.35.558,Main,2022.1.1,60.18958515531297,
negative,red,2,None,None,,,,,0,12,12,12,,,,,,,,,,,,,,,,,,,,,,,,,,,,,,,,,,,,,,,,,prac,None,None,1,1.5127724999999828,149.99191470000005,None,None,1,,,,,,,,,,,,,,220,24,Female,2022-05-20_13h44.35.558,Main,2022.1.1,60.18958515531297,
positive,red,1,None,None,,,,,0,13,13,13,,,,,,,,,,,,,,,,,,,,,,,,,,,,,,,,,,,,,,,,,prac,None,None,1,1.5081841000001077,152.51741660000016,None,None,1,,,,,,,,,,,,,,220,24,Female,2022-05-20_13h44.35.558,Main,2022.1.1,60.18958515531297,
positive,blue,2,k,None,,,,,0,14,14,14,,,,,,,,,,,,,,,,,,,,,,,,,,,,,,,,,,,,,,,,,prac,k,k,1,0.9257552999999916,155.01616310000009,None,None,0,,,,,,,,,,,,,,220,24,Female,2022-05-20_13h44.35.558,Main,2022.1.1,60.18958515531297,
positive,blue,1,k,None,,,,,0,15,15,15,,,,,,,,,,,,,,,,,,,,,,,,,,,,,,,,,,,,,,,,,prac,k,k,1,1.0787482999999156,156.9434600000002,None,None,0,,,,,,,,,,,,,,220,24,Female,2022-05-20_13h44.35.558,Main,2022.1.1,60.18958515531297,
negative,blue,1,None,k,,,,,0,16,16,16,,,,,,,,,,,,,,,,,,,,,,,,,,,,,,,,,,,,,,,,,prac,None,None,1,1.4984054999999898,159.03340460000004,None,None,1,,,,,,,,,,,,,,220,24,Female,2022-05-20_13h44.35.558,Main,2022.1.1,60.18958515531297,
positive,blue,2,k,None,,,,,0,17,17,17,,,,,,,,,,,,,,,,,,,,,,,,,,,,,,,,,,,,,,,,,prac,k,k,1,0.9724326999998993,161.52193540000007,None,None,0,,,,,,,,,,,,,,220,24,Female,2022-05-20_13h44.35.558,Main,2022.1.1,60.18958515531297,
positive,blue,1,k,None,,,,,0,18,18,18,,,,,,,,,,,,,,,,,,,,,,,,,,,,,,,,,,,,,,,,,prac,k,k,1,1.6716857000001255,163.49743130000002,None,None,0,,,,,,,,,,,,,,220,24,Female,2022-05-20_13h44.35.558,Main,2022.1.1,60.18958515531297,
positive,yellow,1,None,k,,,,,0,19,19,19,,,,,,,,,,,,,,,,,,,,,,,,,,,,,,,,,,,,,,,,,prac,None,None,1,1.499380199999905,167.1719478,None,None,1,,,,,,,,,,,,,,220,24,Female,2022-05-20_13h44.35.558,Main,2022.1.1,60.18958515531297,
negative,yellow,1,k,None,,,,,1,0,20,0,,,,,,,,,,,,,,,,,,,,,,,,,,,,,,,,,,,,,,,,,prac,k,k,1,0.8646346000000449,169.67157740000016,None,None,0,,,,,,,,,,,,,,220,24,Female,2022-05-20_13h44.35.558,Main,2022.1.1,60.18958515531297,
positive,red,2,None,None,,,,,1,1,21,1,,,,,,,,,,,,,,,,,,,,,,,,,,,,,,,,,,,,,,,,,prac,None,None,1,1.4958329999999478,171.5397286,None,None,1,,,,,,,,,,,,,,220,24,Female,2022-05-20_13h44.35.558,Main,2022.1.1,60.18958515531297,
negative,blue,2,None,k,,,,,1,2,22,2,,,,,,,,,,,,,,,,,,,,,,,,,,,,,,,,,,,,,,,,,prac,None,None,1,1.5002417999999125,174.03491010000016,None,None,1,,,,,,,,,,,,,,220,24,Female,2022-05-20_13h44.35.558,Main,2022.1.1,60.18958515531297,
positive,yellow,1,None,k,,,,,1,3,23,3,,,,,,,,,,,,,,,,,,,,,,,,,,,,,,,,,,,,,,,,,prac,None,None,1,1.509996400000091,176.53693820000012,None,None,1,,,,,,,,,,,,,,220,24,Female,2022-05-20_13h44.35.558,Main,2022.1.1,60.18958515531297,
negative,blue,2,None,k,,,,,1,4,24,4,,,,,,,,,,,,,,,,,,,,,,,,,,,,,,,,,,,,,,,,,prac,None,None,1,1.508786999999984,179.05049320000012,None,None,1,,,,,,,,,,,,,,220,24,Female,2022-05-20_13h44.35.558,Main,2022.1.1,60.18958515531297,
negative,blue,1,None,k,,,,,1,5,25,5,,,,,,,,,,,,,,,,,,,,,,,,,,,,,,,,,,,,,,,,,prac,None,None,1,1.50747350000006,181.56240500000013,None,None,1,,,,,,,,,,,,,,220,24,Female,2022-05-20_13h44.35.558,Main,2022.1.1,60.18958515531297,
negative,yellow,2,k,None,,,,,1,6,26,6,,,,,,,,,,,,,,,,,,,,,,,,,,,,,,,,,,,,,,,,,prac,k,k,1,0.9799444000000221,184.0702835000002,None,None,0,,,,,,,,,,,,,,220,24,Female,2022-05-20_13h44.35.558,Main,2022.1.1,60.18958515531297,
negative,red,1,None,None,,,,,1,7,27,7,,,,,,,,,,,,,,,,,,,,,,,,,,,,,,,,,,,,,,,,,prac,None,None,1,1.5038503999999193,186.05153080000014,None,None,1,,,,,,,,,,,,,,220,24,Female,2022-05-20_13h44.35.558,Main,2022.1.1,60.18958515531297,
positive,yellow,2,None,k,,,,,1,8,28,8,,,,,,,,,,,,,,,,,,,,,,,,,,,,,,,,,,,,,,,,,prac,None,None,1,1.5074137000001429,188.55907180000008,None,None,1,,,,,,,,,,,,,,220,24,Female,2022-05-20_13h44.35.558,Main,2022.1.1,60.18958515531297,
negative,yellow,1,k,None,,,,,1,9,29,9,,,,,,,,,,,,,,,,,,,,,,,,,,,,,,,,,,,,,,,,,prac,k,k,1,0.9255828999998812,191.0680209000002,None,None,0,,,,,,,,,,,,,,220,24,Female,2022-05-20_13h44.35.558,Main,2022.1.1,60.18958515531297,
positive,yellow,2,None,k,,,,,1,10,30,10,,,,,,,,,,,,,,,,,,,,,,,,,,,,,,,,,,,,,,,,,prac,None,None,1,1.509632700000111,192.99670760000004,None,None,1,,,,,,,,,,,,,,220,24,Female,2022-05-20_13h44.35.558,Main,2022.1.1,60.18958515531297,
negative,yellow,2,k,None,,,,,1,11,31,11,,,,,,,,,,,,,,,,,,,,,,,,,,,,,,,,,,,,,,,,,prac,k,k,1,1.1003218999999262,195.50805680000008,None,None,0,,,,,,,,,,,,,,220,24,Female,2022-05-20_13h44.35.558,Main,2022.1.1,60.18958515531297,
negative,red,2,None,None,,,,,1,12,32,12,,,,,,,,,,,,,,,,,,,,,,,,,,,,,,,,,,,,,,,,,prac,None,None,1,1.5066801000000396,197.60938350000015,None,None,1,,,,,,,,,,,,,,220,24,Female,2022-05-20_13h44.35.558,Main,2022.1.1,60.18958515531297,
positive,red,1,None,None,,,,,1,13,33,13,,,,,,,,,,,,,,,,,,,,,,,,,,,,,,,,,,,,,,,,,prac,None,None,1,1.4992812000000413,200.1160635000001,None,None,1,,,,,,,,,,,,,,220,24,Female,2022-05-20_13h44.35.558,Main,2022.1.1,60.18958515531297,
positive,blue,2,k,None,,,,,1,14,34,14,,,,,,,,,,,,,,,,,,,,,,,,,,,,,,,,,,,,,,,,,prac,k,k,1,1.1077485999999226,202.616804,None,None,0,,,,,,,,,,,,,,220,24,Female,2022-05-20_13h44.35.558,Main,2022.1.1,60.18958515531297,
positive,blue,1,k,None,,,,,1,15,35,15,,,,,,,,,,,,,,,,,,,,,,,,,,,,,,,,,,,,,,,,,prac,k,k,1,1.07318250000003,204.72766750000005,None,None,0,,,,,,,,,,,,,,220,24,Female,2022-05-20_13h44.35.558,Main,2022.1.1,60.18958515531297,
negative,blue,1,None,k,,,,,1,16,36,16,,,,,,,,,,,,,,,,,,,,,,,,,,,,,,,,,,,,,,,,,prac,None,None,1,1.5111339000000044,206.80341610000005,None,None,1,,,,,,,,,,,,,,220,24,Female,2022-05-20_13h44.35.558,Main,2022.1.1,60.18958515531297,
positive,blue,2,k,None,,,,,1,17,37,17,,,,,,,,,,,,,,,,,,,,,,,,,,,,,,,,,,,,,,,,,prac,k,k,1,1.0014734999999746,209.31339700000012,None,None,0,,,,,,,,,,,,,,220,24,Female,2022-05-20_13h44.35.558,Main,2022.1.1,60.18958515531297,
positive,blue,1,k,None,,,,,1,18,38,18,,,,,,,,,,,,,,,,,,,,,,,,,,,,,,,,,,,,,,,,,prac,k,k,1,1.1902918000000682,211.31969930000014,None,None,0,,,,,,,,,,,,,,220,24,Female,2022-05-20_13h44.35.558,Main,2022.1.1,60.18958515531297,
positive,yellow,1,None,k,,,,,1,19,39,19,,,,,,,,,,,,,,,,,,,,,,,,,,,,,,,,,,,,,,,,,prac,None,None,1,1.507581000000073,213.51112460000013,None,None,1,,,,,,,,,,,,,,220,24,Female,2022-05-20_13h44.35.558,Main,2022.1.1,60.18958515531297,
,,,,,,,,,,,,,,,,,,,,,,,,,,,,,,,,,,,,,,,,,,,,,,,,,,,,,,,,,,,,,,216.03414190000012,None,216.03414190000012,None,0.09351852,-0.14814815,0,0,0,0.011903639999900406,None,,,220,24,Female,2022-05-20_13h44.35.558,Main,2022.1.1,60.18958515531297,
negative,yellow,2,k,None,,,,,,,,,0,0,0,0,,,,,,,,,,,,,,,,,,,,,,,,,,,,,,,,,217.11632559999998,None,217.11632559999998,None,main,k,k,1,0.8605016000001342,219.18517370000018,None,None,0,,,,,,,,,,,,,,220,24,Female,2022-05-20_13h44.35.558,Main,2022.1.1,60.18958515531297,
positive,red,1,None,None,,,,,,,,,0,1,1,1,,,,,,,,,,,,,,,,,,,,,,,,,,,,,,,,,,,,,main,None,None,1,1.5067897999999786,221.04984620000005,None,None,1,,,,,,,,,,,,,,220,24,Female,2022-05-20_13h44.35.558,Main,2022.1.1,60.18958515531297,
positive,blue,2,k,None,,,,,,,,,0,2,2,2,,,,,,,,,,,,,,,,,,,,,,,,,,,,,,,,,,,,,main,k,k,1,0.663556299999982,223.55776800000012,None,None,0,,,,,,,,,,,,,,220,24,Female,2022-05-20_13h44.35.558,Main,2022.1.1,60.18958515531297,
positive,blue,1,k,None,,,,,,,,,0,3,3,3,,,,,,,,,,,,,,,,,,,,,,,,,,,,,,,,,,,,,main,k,k,1,0.6905766999998377,225.2233596000001,None,None,0,,,,,,,,,,,,,,220,24,Female,2022-05-20_13h44.35.558,Main,2022.1.1,60.18958515531297,
negative,yellow,2,k,None,,,,,,,,,0,4,4,4,,,,,,,,,,,,,,,,,,,,,,,,,,,,,,,,,,,,,main,k,k,1,0.7707694000000629,226.91333040000018,None,None,0,,,,,,,,,,,,,,220,24,Female,2022-05-20_13h44.35.558,Main,2022.1.1,60.18958515531297,
positive,yellow,2,None,k,,,,,,,,,0,5,5,5,,,,,,,,,,,,,,,,,,,,,,,,,,,,,,,,,,,,,main,None,None,1,1.5054500000001099,228.68804820000014,None,None,1,,,,,,,,,,,,,,220,24,Female,2022-05-20_13h44.35.558,Main,2022.1.1,60.18958515531297,
negative,blue,2,None,k,,,,,,,,,0,6,6,6,,,,,,,,,,,,,,,,,,,,,,,,,,,,,,,,,,,,,main,None,None,1,1.4985188999999082,231.19319340000015,None,None,1,,,,,,,,,,,,,,220,24,Female,2022-05-20_13h44.35.558,Main,2022.1.1,60.18958515531297,
positive,red,2,None,None,,,,,,,,,0,7,7,7,,,,,,,,,,,,,,,,,,,,,,,,,,,,,,,,,,,,,main,None,None,1,1.4995448999998189,233.69329360000006,None,None,1,,,,,,,,,,,,,,220,24,Female,2022-05-20_13h44.35.558,Main,2022.1.1,60.18958515531297,
positive,yellow,1,None,k,,,,,,,,,0,8,8,8,,,,,,,,,,,,,,,,,,,,,,,,,,,,,,,,,,,,,main,None,None,1,1.4971552000001793,236.19420960000002,None,None,1,,,,,,,,,,,,,,220,24,Female,2022-05-20_13h44.35.558,Main,2022.1.1,60.18958515531297,
negative,red,1,None,None,,,,,,,,,0,9,9,9,,,,,,,,,,,,,,,,,,,,,,,,,,,,,,,,,,,,,main,None,None,1,1.5031882999999198,238.69343850000018,None,None,1,,,,,,,,,,,,,,220,24,Female,2022-05-20_13h44.35.558,Main,2022.1.1,60.18958515531297,
positive,yellow,1,None,k,,,,,,,,,0,10,10,10,,,,,,,,,,,,,,,,,,,,,,,,,,,,,,,,,,,,,main,None,None,1,1.4943236999999954,241.20131300000003,None,None,1,,,,,,,,,,,,,,220,24,Female,2022-05-20_13h44.35.558,Main,2022.1.1,60.18958515531297,
negative,yellow,1,k,None,,,,,,,,,0,11,11,11,,,,,,,,,,,,,,,,,,,,,,,,,,,,,,,,,,,,,main,k,k,1,0.9690863000000718,243.6964945000002,None,None,0,,,,,,,,,,,,,,220,24,Female,2022-05-20_13h44.35.558,Main,2022.1.1,60.18958515531297,
negative,yellow,1,k,None,,,,,,,,,0,12,12,12,,,,,,,,,,,,,,,,,,,,,,,,,,,,,,,,,,,,,main,k,k,1,0.7819951000001311,245.6669449000001,None,None,0,,,,,,,,,,,,,,220,24,Female,2022-05-20_13h44.35.558,Main,2022.1.1,60.18958515531297,
negative,red,2,None,None,,,,,,,,,0,13,13,13,,,,,,,,,,,,,,,,,,,,,,,,,,,,,,,,,,,,,main,None,None,1,1.4995073000000048,247.45241380000016,None,None,1,,,,,,,,,,,,,,220,24,Female,2022-05-20_13h44.35.558,Main,2022.1.1,60.18958515531297,
positive,yellow,2,None,k,,,,,,,,,0,14,14,14,,,,,,,,,,,,,,,,,,,,,,,,,,,,,,,,,,,,,main,None,None,1,1.5098415999998451,249.95267280000007,None,None,1,,,,,,,,,,,,,,220,24,Female,2022-05-20_13h44.35.558,Main,2022.1.1,60.18958515531297,
positive,blue,1,k,None,,,,,,,,,0,15,15,15,,,,,,,,,,,,,,,,,,,,,,,,,,,,,,,,,,,,,main,k,k,1,0.7012720000000172,252.4645048,None,None,0,,,,,,,,,,,,,,220,24,Female,2022-05-20_13h44.35.558,Main,2022.1.1,60.18958515531297,
negative,blue,1,None,k,,,,,,,,,0,16,16,16,,,,,,,,,,,,,,,,,,,,,,,,,,,,,,,,,,,,,main,None,None,1,1.5079547999998795,254.16738400000008,None,None,1,,,,,,,,,,,,,,220,24,Female,2022-05-20_13h44.35.558,Main,2022.1.1,60.18958515531297,
positive,blue,2,k,None,,,,,,,,,0,17,17,17,,,,,,,,,,,,,,,,,,,,,,,,,,,,,,,,,,,,,main,k,k,1,0.8695129999998699,256.67485380000016,None,None,0,,,,,,,,,,,,,,220,24,Female,2022-05-20_13h44.35.558,Main,2022.1.1,60.18958515531297,
negative,blue,2,None,k,,,,,,,,,0,18,18,18,,,,,,,,,,,,,,,,,,,,,,,,,,,,,,,,,,,,,main,None,None,1,1.4985442999998213,258.5483614000002,None,None,1,,,,,,,,,,,,,,220,24,Female,2022-05-20_13h44.35.558,Main,2022.1.1,60.18958515531297,
negative,blue,1,None,k,,,,,,,,,0,19,19,19,,,,,,,,,,,,,,,,,,,,,,,,,,,,,,,,,,,,,main,None,None,1,1.499569000000065,261.0484841,None,None,1,,,,,,,,,,,,,,220,24,Female,2022-05-20_13h44.35.558,Main,2022.1.1,60.18958515531297,
negative,blue,1,None,k,,,,,,,,,0,20,20,20,,,,,,,,,,,,,,,,,,,,,,,,,,,,,,,,,,,,,main,None,None,1,1.5020170000000235,263.54973960000007,None,None,1,,,,,,,,,,,,,,220,24,Female,2022-05-20_13h44.35.558,Main,2022.1.1,60.18958515531297,
negative,blue,2,None,k,,,,,,,,,0,21,21,21,,,,,,,,,,,,,,,,,,,,,,,,,,,,,,,,,,,,,main,None,None,1,1.5105391000001873,266.05303560000016,None,None,1,,,,,,,,,,,,,,220,24,Female,2022-05-20_13h44.35.558,Main,2022.1.1,60.18958515531297,
negative,red,1,None,None,,,,,,,,,0,22,22,22,,,,,,,,,,,,,,,,,,,,,,,,,,,,,,,,,,,,,main,None,None,1,1.5100124000000505,268.5655052000002,None,None,1,,,,,,,,,,,,,,220,24,Female,2022-05-20_13h44.35.558,Main,2022.1.1,60.18958515531297,
positive,red,2,None,None,,,,,,,,,0,23,23,23,,,,,,,,,,,,,,,,,,,,,,,,,,,,,,,,,,,,,main,None,None,1,1.5049936000000343,271.07500490000007,None,None,1,,,,,,,,,,,,,,220,24,Female,2022-05-20_13h44.35.558,Main,2022.1.1,60.18958515531297,
negative,red,2,None,None,,,,,,,,,0,24,24,24,,,,,,,,,,,,,,,,,,,,,,,,,,,,,,,,,,,,,main,None,None,1,1.507656900000029,273.5828293000002,None,None,1,,,,,,,,,,,,,,220,24,Female,2022-05-20_13h44.35.558,Main,2022.1.1,60.18958515531297,
positive,blue,2,k,None,,,,,,,,,0,25,25,25,,,,,,,,,,,,,,,,,,,,,,,,,,,,,,,,,,,,,main,k,k,1,1.3194224999999733,276.0920580000002,None,None,0,,,,,,,,,,,,,,220,24,Female,2022-05-20_13h44.35.558,Main,2022.1.1,60.18958515531297,
negative,yellow,1,k,None,,,,,,,,,0,26,26,26,,,,,,,,,,,,,,,,,,,,,,,,,,,,,,,,,,,,,main,k,k,1,0.7593853999999283,278.4153299000002,None,None,0,,,,,,,,,,,,,,220,24,Female,2022-05-20_13h44.35.558,Main,2022.1.1,60.18958515531297,
positive,blue,2,k,None,,,,,,,,,0,27,27,27,,,,,,,,,,,,,,,,,,,,,,,,,,,,,,,,,,,,,main,k,k,1,0.8160804999999982,280.1728464,None,None,0,,,,,,,,,,,,,,220,24,Female,2022-05-20_13h44.35.558,Main,2022.1.1,60.18958515531297,
negative,blue,2,None,k,,,,,,,,,0,28,28,28,,,,,,,,,,,,,,,,,,,,,,,,,,,,,,,,,,,,,main,None,None,1,1.5013759999999365,281.9926183,None,None,1,,,,,,,,,,,,,,220,24,Female,2022-05-20_13h44.35.558,Main,2022.1.1,60.18958515531297,
positive,red,1,None,None,,,,,,,,,0,29,29,29,,,,,,,,,,,,,,,,,,,,,,,,,,,,,,,,,,,,,main,None,None,1,1.5084580999998707,284.4958117000001,None,None,1,,,,,,,,,,,,,,220,24,Female,2022-05-20_13h44.35.558,Main,2022.1.1,60.18958515531297,
positive,blue,1,k,None,,,,,,,,,0,30,30,30,,,,,,,,,,,,,,,,,,,,,,,,,,,,,,,,,,,,,main,k,k,1,0.8517302999998719,287.00466600000004,None,None,0,,,,,,,,,,,,,,220,24,Female,2022-05-20_13h44.35.558,Main,2022.1.1,60.18958515531297,
positive,yellow,1,None,k,,,,,,,,,0,31,31,31,,,,,,,,,,,,,,,,,,,,,,,,,,,,,,,,,,,,,main,None,None,1,1.5075799999999617,288.8601305000002,None,None,1,,,,,,,,,,,,,,220,24,Female,2022-05-20_13h44.35.558,Main,2022.1.1,60.18958515531297,
negative,yellow,2,k,None,,,,,,,,,0,32,32,32,,,,,,,,,,,,,,,,,,,,,,,,,,,,,,,,,,,,,main,k,k,1,0.7906298000000334,291.3690373000002,None,None,0,,,,,,,,,,,,,,220,24,Female,2022-05-20_13h44.35.558,Main,2022.1.1,60.18958515531297,
negative,blue,1,None,k,,,,,,,,,0,33,33,33,,,,,,,,,,,,,,,,,,,,,,,,,,,,,,,,,,,,,main,None,None,1,1.5038007000000562,293.1623052,None,None,1,,,,,,,,,,,,,,220,24,Female,2022-05-20_13h44.35.558,Main,2022.1.1,60.18958515531297,
positive,blue,1,k,None,,,,,,,,,0,34,34,34,,,,,,,,,,,,,,,,,,,,,,,,,,,,,,,,,,,,,main,k,k,1,0.8510923000001185,295.6677141,None,None,0,,,,,,,,,,,,,,220,24,Female,2022-05-20_13h44.35.558,Main,2022.1.1,60.18958515531297,
negative,yellow,1,k,None,,,,,,,,,0,35,35,35,,,,,,,,,,,,,,,,,,,,,,,,,,,,,,,,,,,,,main,k,k,1,0.75903100000005,297.52125550000005,None,None,0,,,,,,,,,,,,,,220,24,Female,2022-05-20_13h44.35.558,Main,2022.1.1,60.18958515531297,
positive,yellow,2,None,k,,,,,,,,,0,36,36,36,,,,,,,,,,,,,,,,,,,,,,,,,,,,,,,,,,,,,main,None,None,1,1.5012860000001638,299.28545610000015,None,None,1,,,,,,,,,,,,,,220,24,Female,2022-05-20_13h44.35.558,Main,2022.1.1,60.18958515531297,
positive,yellow,2,None,k,,,,,,,,,0,37,37,37,,,,,,,,,,,,,,,,,,,,,,,,,,,,,,,,,,,,,main,None,None,1,1.5109257999999954,301.78424730000006,None,None,1,,,,,,,,,,,,,,220,24,Female,2022-05-20_13h44.35.558,Main,2022.1.1,60.18958515531297,
negative,yellow,2,k,None,,,,,,,,,0,38,38,38,,,,,,,,,,,,,,,,,,,,,,,,,,,,,,,,,,,,,main,k,k,1,0.8895474999999351,304.29885390000004,None,None,0,,,,,,,,,,,,,,220,24,Female,2022-05-20_13h44.35.558,Main,2022.1.1,60.18958515531297,
positive,yellow,1,None,k,,,,,,,,,0,39,39,39,,,,,,,,,,,,,,,,,,,,,,,,,,,,,,,,,,,,,main,None,None,1,1.5008617000000868,306.18994050000015,None,None,1,,,,,,,,,,,,,,220,24,Female,2022-05-20_13h44.35.558,Main,2022.1.1,60.18958515531297,
negative,yellow,2,k,None,,,,,,,,,0,40,40,40,,,,,,,,,,,,,,,,,,,,,,,,,,,,,,,,,,,,,main,k,k,1,0.8823815999999169,308.6924912000002,None,None,0,,,,,,,,,,,,,,220,24,Female,2022-05-20_13h44.35.558,Main,2022.1.1,60.18958515531297,
positive,blue,2,k,None,,,,,,,,,0,41,41,41,,,,,,,,,,,,,,,,,,,,,,,,,,,,,,,,,,,,,main,k,k,1,0.7660915000001296,310.57801930000005,None,None,0,,,,,,,,,,,,,,220,24,Female,2022-05-20_13h44.35.558,Main,2022.1.1,60.18958515531297,
positive,blue,2,k,None,,,,,,,,,0,42,42,42,,,,,,,,,,,,,,,,,,,,,,,,,,,,,,,,,,,,,main,k,k,1,0.7371149999999034,312.3442367,None,None,0,,,,,,,,,,,,,,220,24,Female,2022-05-20_13h44.35.558,Main,2022.1.1,60.18958515531297,
negative,blue,2,None,k,,,,,,,,,0,43,43,43,,,,,,,,,,,,,,,,,,,,,,,,,,,,,,,,,,,,,main,None,None,1,1.501658500000076,314.0824205000001,None,None,1,,,,,,,,,,,,,,220,24,Female,2022-05-20_13h44.35.558,Main,2022.1.1,60.18958515531297,
negative,red,1,None,None,,,,,,,,,0,44,44,44,,,,,,,,,,,,,,,,,,,,,,,,,,,,,,,,,,,,,main,None,None,1,1.4972225999999864,316.5878375000002,None,None,1,,,,,,,,,,,,,,220,24,Female,2022-05-20_13h44.35.558,Main,2022.1.1,60.18958515531297,
negative,yellow,1,k,None,,,,,,,,,0,45,45,45,,,,,,,,,,,,,,,,,,,,,,,,,,,,,,,,,,,,,main,k,k,1,0.9758752000000186,319.0846055000002,None,None,0,,,,,,,,,,,,,,220,24,Female,2022-05-20_13h44.35.558,Main,2022.1.1,60.18958515531297,
negative,yellow,1,k,None,,,,,,,,,0,46,46,46,,,,,,,,,,,,,,,,,,,,,,,,,,,,,,,,,,,,,main,k,k,1,0.8128059000000576,321.06717860000003,None,None,0,,,,,,,,,,,,,,220,24,Female,2022-05-20_13h44.35.558,Main,2022.1.1,60.18958515531297,
positive,red,1,None,None,,,,,,,,,0,47,47,47,,,,,,,,,,,,,,,,,,,,,,,,,,,,,,,,,,,,,main,None,None,1,1.5056962999999541,322.8802958000001,None,None,1,,,,,,,,,,,,,,220,24,Female,2022-05-20_13h44.35.558,Main,2022.1.1,60.18958515531297,
positive,yellow,1,None,k,,,,,,,,,0,48,48,48,,,,,,,,,,,,,,,,,,,,,,,,,,,,,,,,,,,,,main,None,None,1,1.5102830000000722,325.3892651000001,None,None,1,,,,,,,,,,,,,,220,24,Female,2022-05-20_13h44.35.558,Main,2022.1.1,60.18958515531297,
negative,blue,1,None,k,,,,,,,,,0,49,49,49,,,,,,,,,,,,,,,,,,,,,,,,,,,,,,,,,,,,,main,None,None,1,1.5062560999999732,327.9013537000001,None,None,1,,,,,,,,,,,,,,220,24,Female,2022-05-20_13h44.35.558,Main,2022.1.1,60.18958515531297,
positive,yellow,2,None,k,,,,,,,,,0,50,50,50,,,,,,,,,,,,,,,,,,,,,,,,,,,,,,,,,,,,,main,None,None,1,1.4960691999999653,330.4105850000001,None,None,1,,,,,,,,,,,,,,220,24,Female,2022-05-20_13h44.35.558,Main,2022.1.1,60.18958515531297,
negative,blue,1,None,k,,,,,,,,,0,51,51,51,,,,,,,,,,,,,,,,,,,,,,,,,,,,,,,,,,,,,main,None,None,1,1.5020411999998942,332.90807010000003,None,None,1,,,,,,,,,,,,,,220,24,Female,2022-05-20_13h44.35.558,Main,2022.1.1,60.18958515531297,
positive,red,2,None,None,,,,,,,,,0,52,52,52,,,,,,,,,,,,,,,,,,,,,,,,,,,,,,,,,,,,,main,None,None,1,1.4934230999999727,335.4113676000002,None,None,1,,,,,,,,,,,,,,220,24,Female,2022-05-20_13h44.35.558,Main,2022.1.1,60.18958515531297,
positive,yellow,2,None,k,,,,,,,,,0,53,53,53,,,,,,,,,,,,,,,,,,,,,,,,,,,,,,,,,,,,,main,None,None,1,1.5075714999998127,337.90806040000007,None,None,1,,,,,,,,,,,,,,220,24,Female,2022-05-20_13h44.35.558,Main,2022.1.1,60.18958515531297,
negative,red,2,None,None,,,,,,,,,0,54,54,54,,,,,,,,,,,,,,,,,,,,,,,,,,,,,,,,,,,,,main,None,None,1,1.5104171999998925,340.41790160000005,None,None,1,,,,,,,,,,,,,,220,24,Female,2022-05-20_13h44.35.558,Main,2022.1.1,60.18958515531297,
positive,yellow,1,None,k,,,,,,,,,0,55,55,55,,,,,,,,,,,,,,,,,,,,,,,,,,,,,,,,,,,,,main,None,None,1,1.5099096999999801,342.9294871000002,None,None,1,,,,,,,,,,,,,,220,24,Female,2022-05-20_13h44.35.558,Main,2022.1.1,60.18958515531297,
negative,blue,2,None,k,,,,,,,,,0,56,56,56,,,,,,,,,,,,,,,,,,,,,,,,,,,,,,,,,,,,,main,None,None,1,1.5050891000000775,345.4434795000002,None,None,1,,,,,,,,,,,,,,220,24,Female,2022-05-20_13h44.35.558,Main,2022.1.1,60.18958515531297,
positive,blue,1,k,None,,,,,,,,,0,57,57,57,,,,,,,,,,,,,,,,,,,,,,,,,,,,,,,,,,,,,main,k,k,1,0.6189200000001165,347.94882140000004,None,None,0,,,,,,,,,,,,,,220,24,Female,2022-05-20_13h44.35.558,Main,2022.1.1,60.18958515531297,
positive,blue,1,k,None,,,,,,,,,0,58,58,58,,,,,,,,,,,,,,,,,,,,,,,,,,,,,,,,,,,,,main,k,k,1,0.8037896000000728,349.56997490000003,None,None,0,,,,,,,,,,,,,,220,24,Female,2022-05-20_13h44.35.558,Main,2022.1.1,60.18958515531297,
negative,yellow,2,k,None,,,,,,,,,0,59,59,59,,,,,,,,,,,,,,,,,,,,,,,,,,,,,,,,,,,,,main,k,k,1,0.8284819000000425,351.3747953000002,None,None,0,,,,,,,,,,,,,,220,24,Female,2022-05-20_13h44.35.558,Main,2022.1.1,60.18958515531297,
positive,red,2,None,None,,,,,,,,,0,60,60,60,,,,,,,,,,,,,,,,,,,,,,,,,,,,,,,,,,,,,main,None,None,1,1.5082848000001832,353.2051312000001,None,None,1,,,,,,,,,,,,,,220,24,Female,2022-05-20_13h44.35.558,Main,2022.1.1,60.18958515531297,
negative,yellow,1,k,None,,,,,,,,,0,61,61,61,,,,,,,,,,,,,,,,,,,,,,,,,,,,,,,,,,,,,main,k,k,1,0.7969370999999228,355.7134506,None,None,0,,,,,,,,,,,,,,220,24,Female,2022-05-20_13h44.35.558,Main,2022.1.1,60.18958515531297,
negative,red,1,None,None,,,,,,,,,0,62,62,62,,,,,,,,,,,,,,,,,,,,,,,,,,,,,,,,,,,,,main,None,None,1,1.5113860999999815,357.51182400000016,None,None,1,,,,,,,,,,,,,,220,24,Female,2022-05-20_13h44.35.558,Main,2022.1.1,60.18958515531297,
negative,blue,1,None,k,,,,,,,,,0,63,63,63,,,,,,,,,,,,,,,,,,,,,,,,,,,,,,,,,,,,,main,None,None,1,1.5007611999999426,360.0256723,None,None,1,,,,,,,,,,,,,,220,24,Female,2022-05-20_13h44.35.558,Main,2022.1.1,60.18958515531297,
positive,blue,2,k,None,,,,,,,,,0,64,64,64,,,,,,,,,,,,,,,,,,,,,,,,,,,,,,,,,,,,,main,k,k,1,0.7145379999999477,362.53128390000006,None,None,0,,,,,,,,,,,,,,220,24,Female,2022-05-20_13h44.35.558,Main,2022.1.1,60.18958515531297,
negative,yellow,2,k,None,,,,,,,,,0,65,65,65,,,,,,,,,,,,,,,,,,,,,,,,,,,,,,,,,,,,,main,k,k,1,0.7844952999998895,364.24415250000015,None,None,0,,,,,,,,,,,,,,220,24,Female,2022-05-20_13h44.35.558,Main,2022.1.1,60.18958515531297,
positive,yellow,2,None,k,,,,,,,,,0,66,66,66,,,,,,,,,,,,,,,,,,,,,,,,,,,,,,,,,,,,,main,None,None,1,1.5006661999998414,366.0325606000001,None,None,1,,,,,,,,,,,,,,220,24,Female,2022-05-20_13h44.35.558,Main,2022.1.1,60.18958515531297,
positive,yellow,2,None,k,,,,,,,,,0,67,67,67,,,,,,,,,,,,,,,,,,,,,,,,,,,,,,,,,,,,,main,None,None,1,1.5002783999998428,368.53487540000015,None,None,1,,,,,,,,,,,,,,220,24,Female,2022-05-20_13h44.35.558,Main,2022.1.1,60.18958515531297,
positive,red,1,None,None,,,,,,,,,0,68,68,68,,,,,,,,,,,,,,,,,,,,,,,,,,,,,,,,,,,,,main,None,None,1,1.5070232999999007,371.0357824,None,None,1,,,,,,,,,,,,,,220,24,Female,2022-05-20_13h44.35.558,Main,2022.1.1,60.18958515531297,
positive,yellow,1,None,k,,,,,,,,,0,69,69,69,,,,,,,,,,,,,,,,,,,,,,,,,,,,,,,,,,,,,main,None,None,1,1.498340300000109,373.5428409000001,None,None,1,,,,,,,,,,,,,,220,24,Female,2022-05-20_13h44.35.558,Main,2022.1.1,60.18958515531297,
negative,yellow,2,k,None,,,,,,,,,0,70,70,70,,,,,,,,,,,,,,,,,,,,,,,,,,,,,,,,,,,,,main,k,k,1,0.8537761000000046,376.0462209000002,None,None,0,,,,,,,,,,,,,,220,24,Female,2022-05-20_13h44.35.558,Main,2022.1.1,60.18958515531297,
positive,yellow,1,None,k,,,,,,,,,0,71,71,71,,,,,,,,,,,,,,,,,,,,,,,,,,,,,,,,,,,,,main,None,None,1,1.5010810999999649,377.90102530000013,None,None,1,,,,,,,,,,,,,,220,24,Female,2022-05-20_13h44.35.558,Main,2022.1.1,60.18958515531297,
negative,blue,1,None,k,,,,,,,,,0,72,72,72,,,,,,,,,,,,,,,,,,,,,,,,,,,,,,,,,,,,,main,None,None,1,1.4956438000001526,380.40285500000005,None,None,1,,,,,,,,,,,,,,220,24,Female,2022-05-20_13h44.35.558,Main,2022.1.1,60.18958515531297,
negative,red,2,None,None,,,,,,,,,0,73,73,73,,,,,,,,,,,,,,,,,,,,,,,,,,,,,,,,,,,,,main,None,None,1,1.5035247000000709,382.9008296000002,None,None,1,,,,,,,,,,,,,,220,24,Female,2022-05-20_13h44.35.558,Main,2022.1.1,60.18958515531297,
positive,blue,2,k,None,,,,,,,,,0,74,74,74,,,,,,,,,,,,,,,,,,,,,,,,,,,,,,,,,,,,,main,k,k,1,0.6779736999999386,385.4051251000001,None,None,0,,,,,,,,,,,,,,220,24,Female,2022-05-20_13h44.35.558,Main,2022.1.1,60.18958515531297,
negative,blue,2,None,k,,,,,,,,,0,75,75,75,,,,,,,,,,,,,,,,,,,,,,,,,,,,,,,,,,,,,main,None,None,1,1.5070625000000746,387.08519780000006,None,None,1,,,,,,,,,,,,,,220,24,Female,2022-05-20_13h44.35.558,Main,2022.1.1,60.18958515531297,
negative,blue,2,None,k,,,,,,,,,0,76,76,76,,,,,,,,,,,,,,,,,,,,,,,,,,,,,,,,,,,,,main,None,None,1,1.498347499999909,389.59190710000007,None,None,1,,,,,,,,,,,,,,220,24,Female,2022-05-20_13h44.35.558,Main,2022.1.1,60.18958515531297,
negative,yellow,1,k,None,,,,,,,,,0,77,77,77,,,,,,,,,,,,,,,,,,,,,,,,,,,,,,,,,,,,,main,k,k,1,0.8315709999999399,392.0918822000001,None,None,0,,,,,,,,,,,,,,220,24,Female,2022-05-20_13h44.35.558,Main,2022.1.1,60.18958515531297,
positive,blue,1,k,None,,,,,,,,,0,78,78,78,,,,,,,,,,,,,,,,,,,,,,,,,,,,,,,,,,,,,main,k,k,1,0.8655476999999792,393.92514140000003,None,None,0,,,,,,,,,,,,,,220,24,Female,2022-05-20_13h44.35.558,Main,2022.1.1,60.18958515531297,
positive,blue,1,k,None,,,,,,,,,0,79,79,79,,,,,,,,,,,,,,,,,,,,,,,,,,,,,,,,,,,,,main,k,k,1,0.8007975000000442,395.79172530000005,None,None,0,,,,,,,,,,,,,,220,24,Female,2022-05-20_13h44.35.558,Main,2022.1.1,60.18958515531297,
positive,red,2,None,None,,,,,,,,,0,80,80,80,,,,,,,,,,,,,,,,,,,,,,,,,,,,,,,,,,,,,main,None,None,1,1.4954004000001078,397.5963127,None,None,1,,,,,,,,,,,,,,220,24,Female,2022-05-20_13h44.35.558,Main,2022.1.1,60.18958515531297,
positive,yellow,2,None,k,,,,,,,,,0,81,81,81,,,,,,,,,,,,,,,,,,,,,,,,,,,,,,,,,,,,,main,None,None,1,1.509167400000024,400.0911070000002,None,None,1,,,,,,,,,,,,,,220,24,Female,2022-05-20_13h44.35.558,Main,2022.1.1,60.18958515531297,
positive,blue,1,k,None,,,,,,,,,0,82,82,82,,,,,,,,,,,,,,,,,,,,,,,,,,,,,,,,,,,,,main,k,k,1,1.2248242999999093,402.6035223000001,None,None,0,,,,,,,,,,,,,,220,24,Female,2022-05-20_13h44.35.558,Main,2022.1.1,60.18958515531297,
negative,yellow,2,k,None,,,,,,,,,0,83,83,83,,,,,,,,,,,,,,,,,,,,,,,,,,,,,,,,,,,,,main,k,k,1,0.6943148000000292,404.8320487000001,None,None,0,,,,,,,,,,,,,,220,24,Female,2022-05-20_13h44.35.558,Main,2022.1.1,60.18958515531297,
positive,blue,2,k,None,,,,,,,,,0,84,84,84,,,,,,,,,,,,,,,,,,,,,,,,,,,,,,,,,,,,,main,k,k,1,0.9116191999999046,406.52871500000015,None,None,0,,,,,,,,,,,,,,220,24,Female,2022-05-20_13h44.35.558,Main,2022.1.1,60.18958515531297,
positive,yellow,1,None,k,,,,,,,,,0,85,85,85,,,,,,,,,,,,,,,,,,,,,,,,,,,,,,,,,,,,,main,None,None,1,1.5015275999999176,408.4393874,None,None,1,,,,,,,,,,,,,,220,24,Female,2022-05-20_13h44.35.558,Main,2022.1.1,60.18958515531297,
positive,blue,2,k,None,,,,,,,,,0,86,86,86,,,,,,,,,,,,,,,,,,,,,,,,,,,,,,,,,,,,,main,k,k,1,1.0562386999999944,410.9470061000002,None,None,0,,,,,,,,,,,,,,220,24,Female,2022-05-20_13h44.35.558,Main,2022.1.1,60.18958515531297,
positive,blue,1,k,None,,,,,,,,,0,87,87,87,,,,,,,,,,,,,,,,,,,,,,,,,,,,,,,,,,,,,main,k,k,1,1.1037243000000672,413.00657490000003,None,None,0,,,,,,,,,,,,,,220,24,Female,2022-05-20_13h44.35.558,Main,2022.1.1,60.18958515531297,
negative,yellow,2,k,None,,,,,,,,,0,88,88,88,,,,,,,,,,,,,,,,,,,,,,,,,,,,,,,,,,,,,main,k,k,1,1.0222616999999445,415.1111707,None,None,0,,,,,,,,,,,,,,220,24,Female,2022-05-20_13h44.35.558,Main,2022.1.1,60.18958515531297,
negative,blue,2,None,k,,,,,,,,,0,89,89,89,,,,,,,,,,,,,,,,,,,,,,,,,,,,,,,,,,,,,main,None,None,1,1.4975990999998885,417.1346725000001,None,None,1,,,,,,,,,,,,,,220,24,Female,2022-05-20_13h44.35.558,Main,2022.1.1,60.18958515531297,
positive,yellow,2,None,k,,,,,,,,,0,90,90,90,,,,,,,,,,,,,,,,,,,,,,,,,,,,,,,,,,,,,main,None,None,1,1.4998994000000039,419.6368268000001,None,None,1,,,,,,,,,,,,,,220,24,Female,2022-05-20_13h44.35.558,Main,2022.1.1,60.18958515531297,
negative,yellow,1,k,None,,,,,,,,,0,91,91,91,,,,,,,,,,,,,,,,,,,,,,,,,,,,,,,,,,,,,main,k,k,1,0.7811448999998447,422.1379537,None,None,0,,,,,,,,,,,,,,220,24,Female,2022-05-20_13h44.35.558,Main,2022.1.1,60.18958515531297,
negative,red,2,None,None,,,,,,,,,0,92,92,92,,,,,,,,,,,,,,,,,,,,,,,,,,,,,,,,,,,,,main,None,None,1,1.5091469999999845,423.92340420000005,None,None,1,,,,,,,,,,,,,,220,24,Female,2022-05-20_13h44.35.558,Main,2022.1.1,60.18958515531297,
negative,blue,2,None,k,,,,,,,,,0,93,93,93,,,,,,,,,,,,,,,,,,,,,,,,,,,,,,,,,,,,,main,None,None,1,1.511752400000205,426.43609130000004,None,None,1,,,,,,,,,,,,,,220,24,Female,2022-05-20_13h44.35.558,Main,2022.1.1,60.18958515531297,
negative,blue,1,None,k,,,,,,,,,0,94,94,94,,,,,,,,,,,,,,,,,,,,,,,,,,,,,,,,,,,,,main,None,None,1,1.5113527000000886,428.9491874,None,None,1,,,,,,,,,,,,,,220,24,Female,2022-05-20_13h44.35.558,Main,2022.1.1,60.18958515531297,
negative,blue,1,None,k,,,,,,,,,0,95,95,95,,,,,,,,,,,,,,,,,,,,,,,,,,,,,,,,,,,,,main,None,None,1,1.4948391000000356,431.4634056,None,None,1,,,,,,,,,,,,,,220,24,Female,2022-05-20_13h44.35.558,Main,2022.1.1,60.18958515531297,
negative,red,1,None,None,,,,,,,,,0,96,96,96,,,,,,,,,,,,,,,,,,,,,,,,,,,,,,,,,,,,,main,None,None,1,1.49840109999991,433.96165640000004,None,None,1,,,,,,,,,,,,,,220,24,Female,2022-05-20_13h44.35.558,Main,2022.1.1,60.18958515531297,
positive,yellow,1,None,k,,,,,,,,,0,97,97,97,,,,,,,,,,,,,,,,,,,,,,,,,,,,,,,,,,,,,main,None,None,1,1.500954700000193,436.4599191000002,None,None,1,,,,,,,,,,,,,,220,24,Female,2022-05-20_13h44.35.558,Main,2022.1.1,60.18958515531297,
negative,yellow,1,k,None,,,,,,,,,0,98,98,98,,,,,,,,,,,,,,,,,,,,,,,,,,,,,,,,,,,,,main,k,k,1,0.8743617000000086,438.9618250000001,None,None,0,,,,,,,,,,,,,,220,24,Female,2022-05-20_13h44.35.558,Main,2022.1.1,60.18958515531297,
positive,red,1,None,None,,,,,,,,,0,99,99,99,,,,,,,,,,,,,,,,,,,,,,,,,,,,,,,,,,,,,main,None,None,1,1.5128442000000177,440.83626830000003,None,None,1,,,,,,,,,,,,,,220,24,Female,2022-05-20_13h44.35.558,Main,2022.1.1,60.18958515531297,
positive,blue,1,k,None,,,,,,,,,0,100,100,100,,,,,,,,,,,,,,,,,,,,,,,,,,,,,,,,,,,,,main,k,k,1,0.7763519999998607,443.35058730000014,None,None,0,,,,,,,,,,,,,,220,24,Female,2022-05-20_13h44.35.558,Main,2022.1.1,60.18958515531297,
negative,yellow,1,k,None,,,,,,,,,0,101,101,101,,,,,,,,,,,,,,,,,,,,,,,,,,,,,,,,,,,,,main,k,k,1,0.7868217000000186,445.1299871000001,None,None,0,,,,,,,,,,,,,,220,24,Female,2022-05-20_13h44.35.558,Main,2022.1.1,60.18958515531297,
negative,blue,2,None,k,,,,,,,,,0,102,102,102,,,,,,,,,,,,,,,,,,,,,,,,,,,,,,,,,,,,,main,None,None,1,1.5086169999999584,446.9160809,None,None,1,,,,,,,,,,,,,,220,24,Female,2022-05-20_13h44.35.558,Main,2022.1.1,60.18958515531297,
negative,yellow,2,k,None,,,,,,,,,0,103,103,103,,,,,,,,,,,,,,,,,,,,,,,,,,,,,,,,,,,,,main,k,k,1,0.982340000000022,449.43002690000003,None,None,0,,,,,,,,,,,,,,220,24,Female,2022-05-20_13h44.35.558,Main,2022.1.1,60.18958515531297,
positive,yellow,2,None,k,,,,,,,,,0,104,104,104,,,,,,,,,,,,,,,,,,,,,,,,,,,,,,,,,,,,,main,None,None,1,1.5056722000001628,451.4145525000001,None,None,1,,,,,,,,,,,,,,220,24,Female,2022-05-20_13h44.35.558,Main,2022.1.1,60.18958515531297,
positive,blue,1,k,None,,,,,,,,,0,105,105,105,,,,,,,,,,,,,,,,,,,,,,,,,,,,,,,,,,,,,main,k,k,1,1.0031629000000066,453.9173614000001,None,None,0,,,,,,,,,,,,,,220,24,Female,2022-05-20_13h44.35.558,Main,2022.1.1,60.18958515531297,
positive,blue,2,k,None,,,,,,,,,0,106,106,106,,,,,,,,,,,,,,,,,,,,,,,,,,,,,,,,,,,,,main,k,k,1,0.8762219000000186,455.9248540000001,None,None,0,,,,,,,,,,,,,,220,24,Female,2022-05-20_13h44.35.558,Main,2022.1.1,60.18958515531297,
negative,blue,1,None,k,,,,,,,,,0,107,107,107,,,,,,,,,,,,,,,,,,,,,,,,,,,,,,,,,,,,,main,None,None,1,1.5123853000000054,457.8030251,None,None,1,,,,,,,,,,,,,,220,24,Female,2022-05-20_13h44.35.558,Main,2022.1.1,60.18958515531297,
positive,yellow,2,None,k,,,,,,,,,0,108,108,108,,,,,,,,,,,,,,,,,,,,,,,,,,,,,,,,,,,,,main,None,None,1,1.5147402000000056,460.31537430000003,None,None,1,,,,,,,,,,,,,,220,24,Female,2022-05-20_13h44.35.558,Main,2022.1.1,60.18958515531297,
negative,yellow,1,k,None,,,,,,,,,0,109,109,109,,,,,,,,,,,,,,,,,,,,,,,,,,,,,,,,,,,,,main,k,k,1,0.8984665999998924,462.8318376000002,None,None,0,,,,,,,,,,,,,,220,24,Female,2022-05-20_13h44.35.558,Main,2022.1.1,60.18958515531297,
negative,blue,2,None,k,,,,,,,,,0,110,110,110,,,,,,,,,,,,,,,,,,,,,,,,,,,,,,,,,,,,,main,None,None,1,1.503568200000018,464.7315649000002,None,None,1,,,,,,,,,,,,,,220,24,Female,2022-05-20_13h44.35.558,Main,2022.1.1,60.18958515531297,
positive,blue,2,k,None,,,,,,,,,0,111,111,111,,,,,,,,,,,,,,,,,,,,,,,,,,,,,,,,,,,,,main,k,k,1,0.8768239999999423,467.2389919000002,None,None,0,,,,,,,,,,,,,,220,24,Female,2022-05-20_13h44.35.558,Main,2022.1.1,60.18958515531297,
negative,blue,1,None,k,,,,,,,,,0,112,112,112,,,,,,,,,,,,,,,,,,,,,,,,,,,,,,,,,,,,,main,None,None,1,1.4980493000000479,469.1178694,None,None,1,,,,,,,,,,,,,,220,24,Female,2022-05-20_13h44.35.558,Main,2022.1.1,60.18958515531297,
positive,yellow,1,None,k,,,,,,,,,0,113,113,113,,,,,,,,,,,,,,,,,,,,,,,,,,,,,,,,,,,,,main,None,None,1,1.499394200000097,471.6141127000001,None,None,1,,,,,,,,,,,,,,220,24,Female,2022-05-20_13h44.35.558,Main,2022.1.1,60.18958515531297,
negative,red,1,None,None,,,,,,,,,0,114,114,114,,,,,,,,,,,,,,,,,,,,,,,,,,,,,,,,,,,,,main,None,None,1,1.505970699999807,474.11783850000006,None,None,1,,,,,,,,,,,,,,220,24,Female,2022-05-20_13h44.35.558,Main,2022.1.1,60.18958515531297,
positive,red,1,None,None,,,,,,,,,0,115,115,115,,,,,,,,,,,,,,,,,,,,,,,,,,,,,,,,,,,,,main,None,None,1,1.5093062999999347,476.6244630000001,None,None,1,,,,,,,,,,,,,,220,24,Female,2022-05-20_13h44.35.558,Main,2022.1.1,60.18958515531297,
negative,red,2,None,None,,,,,,,,,0,116,116,116,,,,,,,,,,,,,,,,,,,,,,,,,,,,,,,,,,,,,main,None,None,1,1.5094555999999102,479.13561460000005,None,None,1,,,,,,,,,,,,,,220,24,Female,2022-05-20_13h44.35.558,Main,2022.1.1,60.18958515531297,
negative,yellow,2,k,None,,,,,,,,,0,117,117,117,,,,,,,,,,,,,,,,,,,,,,,,,,,,,,,,,,,,,main,k,k,1,0.7769949000000906,481.6443838,None,None,0,,,,,,,,,,,,,,220,24,Female,2022-05-20_13h44.35.558,Main,2022.1.1,60.18958515531297,
positive,yellow,1,None,k,,,,,,,,,0,118,118,118,,,,,,,,,,,,,,,,,,,,,,,,,,,,,,,,,,,,,main,None,None,1,1.5080092999999124,483.4249625,None,None,1,,,,,,,,,,,,,,220,24,Female,2022-05-20_13h44.35.558,Main,2022.1.1,60.18958515531297,
positive,red,2,None,None,,,,,,,,,0,119,119,119,,,,,,,,,,,,,,,,,,,,,,,,,,,,,,,,,,,,,main,None,None,1,1.5067767000000458,485.93556650000005,None,None,1,,,,,,,,,,,,,,220,24,Female,2022-05-20_13h44.35.558,Main,2022.1.1,60.18958515531297,
positive,blue,2,k,None,,,,,,,,,0,120,120,120,,,,,,,,,,,,,,,,,,,,,,,,,,,,,,,,,,,,,main,k,k,1,0.8566877000000659,488.44393660000014,None,None,0,,,,,,,,,,,,,,220,24,Female,2022-05-20_13h44.35.558,Main,2022.1.1,60.18958515531297,
negative,red,1,None,None,,,,,,,,,0,121,121,121,,,,,,,,,,,,,,,,,,,,,,,,,,,,,,,,,,,,,main,None,None,1,1.4951575000000048,490.3044506000001,None,None,1,,,,,,,,,,,,,,220,24,Female,2022-05-20_13h44.35.558,Main,2022.1.1,60.18958515531297,
positive,yellow,2,None,k,,,,,,,,,0,122,122,122,,,,,,,,,,,,,,,,,,,,,,,,,,,,,,,,,,,,,main,None,None,1,1.4949342999998407,492.8008757,None,None,1,,,,,,,,,,,,,,220,24,Female,2022-05-20_13h44.35.558,Main,2022.1.1,60.18958515531297,
negative,red,2,None,None,,,,,,,,,0,123,123,123,,,,,,,,,,,,,,,,,,,,,,,,,,,,,,,,,,,,,main,None,None,1,1.5011329999999816,495.2955594,None,None,1,,,,,,,,,,,,,,220,24,Female,2022-05-20_13h44.35.558,Main,2022.1.1,60.18958515531297,
negative,yellow,2,k,None,,,,,,,,,0,124,124,124,,,,,,,,,,,,,,,,,,,,,,,,,,,,,,,,,,,,,main,k,k,1,0.87884350000013,497.80054740000014,None,None,0,,,,,,,,,,,,,,220,24,Female,2022-05-20_13h44.35.558,Main,2022.1.1,60.18958515531297,
positive,red,1,None,None,,,,,,,,,0,125,125,125,,,,,,,,,,,,,,,,,,,,,,,,,,,,,,,,,,,,,main,None,None,1,1.5130633999999645,499.6784941000001,None,None,1,,,,,,,,,,,,,,220,24,Female,2022-05-20_13h44.35.558,Main,2022.1.1,60.18958515531297,
negative,blue,2,None,k,,,,,,,,,0,126,126,126,,,,,,,,,,,,,,,,,,,,,,,,,,,,,,,,,,,,,main,None,None,1,1.5031636999999591,502.1926631000001,None,None,1,,,,,,,,,,,,,,220,24,Female,2022-05-20_13h44.35.558,Main,2022.1.1,60.18958515531297,
negative,blue,1,None,k,,,,,,,,,0,127,127,127,,,,,,,,,,,,,,,,,,,,,,,,,,,,,,,,,,,,,main,None,None,1,1.5051886000001105,504.7007950000002,None,None,1,,,,,,,,,,,,,,220,24,Female,2022-05-20_13h44.35.558,Main,2022.1.1,60.18958515531297,
negative,yellow,1,k,None,,,,,,,,,0,128,128,128,,,,,,,,,,,,,,,,,,,,,,,,,,,,,,,,,,,,,main,k,k,1,0.8365823999999975,507.2057768000002,None,None,0,,,,,,,,,,,,,,220,24,Female,2022-05-20_13h44.35.558,Main,2022.1.1,60.18958515531297,
negative,yellow,1,k,None,,,,,,,,,0,129,129,129,,,,,,,,,,,,,,,,,,,,,,,,,,,,,,,,,,,,,main,k,k,1,0.8321788999999171,509.0439873,None,None,0,,,,,,,,,,,,,,220,24,Female,2022-05-20_13h44.35.558,Main,2022.1.1,60.18958515531297,
positive,blue,1,k,None,,,,,,,,,0,130,130,130,,,,,,,,,,,,,,,,,,,,,,,,,,,,,,,,,,,,,main,k,k,1,0.8949453000000176,510.8808163000001,None,None,0,,,,,,,,,,,,,,220,24,Female,2022-05-20_13h44.35.558,Main,2022.1.1,60.18958515531297,
negative,blue,1,None,k,,,,,,,,,0,131,131,131,,,,,,,,,,,,,,,,,,,,,,,,,,,,,,,,,,,,,main,None,None,1,1.5063623000000916,512.7742049000001,None,None,1,,,,,,,,,,,,,,220,24,Female,2022-05-20_13h44.35.558,Main,2022.1.1,60.18958515531297,
negative,blue,2,None,k,,,,,,,,,0,132,132,132,,,,,,,,,,,,,,,,,,,,,,,,,,,,,,,,,,,,,main,None,None,1,1.496145899999874,515.2854905000002,None,None,1,,,,,,,,,,,,,,220,24,Female,2022-05-20_13h44.35.558,Main,2022.1.1,60.18958515531297,
positive,blue,2,k,None,,,,,,,,,0,133,133,133,,,,,,,,,,,,,,,,,,,,,,,,,,,,,,,,,,,,,main,k,k,1,0.6950215000001663,517.7836526000001,None,None,0,,,,,,,,,,,,,,220,24,Female,2022-05-20_13h44.35.558,Main,2022.1.1,60.18958515531297,
positive,red,2,None,None,,,,,,,,,0,134,134,134,,,,,,,,,,,,,,,,,,,,,,,,,,,,,,,,,,,,,main,None,None,1,1.5126592999999957,519.4799849000001,None,None,1,,,,,,,,,,,,,,220,24,Female,2022-05-20_13h44.35.558,Main,2022.1.1,60.18958515531297,
negative,yellow,2,k,None,,,,,,,,,0,135,135,135,,,,,,,,,,,,,,,,,,,,,,,,,,,,,,,,,,,,,main,k,k,1,0.7852943999998843,521.9928915,None,None,0,,,,,,,,,,,,,,220,24,Female,2022-05-20_13h44.35.558,Main,2022.1.1,60.18958515531297,
positive,yellow,2,None,k,,,,,,,,,0,136,136,136,,,,,,,,,,,,,,,,,,,,,,,,,,,,,,,,,,,,,main,None,None,1,1.510814900000014,523.7857331,None,None,1,,,,,,,,,,,,,,220,24,Female,2022-05-20_13h44.35.558,Main,2022.1.1,60.18958515531297,
positive,blue,1,k,None,,,,,,,,,0,137,137,137,,,,,,,,,,,,,,,,,,,,,,,,,,,,,,,,,,,,,main,k,k,1,0.8679944999998952,526.2966354,None,None,0,,,,,,,,,,,,,,220,24,Female,2022-05-20_13h44.35.558,Main,2022.1.1,60.18958515531297,
positive,yellow,1,None,k,,,,,,,,,0,138,138,138,,,,,,,,,,,,,,,,,,,,,,,,,,,,,,,,,,,,,main,None,None,1,1.4951093000001947,528.1655667,None,None,1,,,,,,,,,,,,,,220,24,Female,2022-05-20_13h44.35.558,Main,2022.1.1,60.18958515531297,
positive,yellow,1,None,k,,,,,,,,,0,139,139,139,,,,,,,,,,,,,,,,,,,,,,,,,,,,,,,,,,,,,main,None,None,1,1.5114226999999119,530.6640409000001,None,None,1,,,,,,,,,,,,,,220,24,Female,2022-05-20_13h44.35.558,Main,2022.1.1,60.18958515531297,
positive,yellow,1,None,k,,,,,,,,,0,140,140,140,,,,,,,,,,,,,,,,,,,,,,,,,,,,,,,,,,,,,main,None,None,1,1.5123931999999058,533.1765639,None,None,1,,,,,,,,,,,,,,220,24,Female,2022-05-20_13h44.35.558,Main,2022.1.1,60.18958515531297,
positive,blue,1,k,None,,,,,,,,,0,141,141,141,,,,,,,,,,,,,,,,,,,,,,,,,,,,,,,,,,,,,main,k,k,1,0.8767804999999953,535.6882134,None,None,0,,,,,,,,,,,,,,220,24,Female,2022-05-20_13h44.35.558,Main,2022.1.1,60.18958515531297,
positive,blue,2,k,None,,,,,,,,,0,142,142,142,,,,,,,,,,,,,,,,,,,,,,,,,,,,,,,,,,,,,main,k,k,1,1.177620700000034,537.5688001000001,None,None,0,,,,,,,,,,,,,,220,24,Female,2022-05-20_13h44.35.558,Main,2022.1.1,60.18958515531297,
positive,yellow,2,None,k,,,,,,,,,0,143,143,143,,,,,,,,,,,,,,,,,,,,,,,,,,,,,,,,,,,,,main,None,None,1,1.500752299999931,539.7486712,None,None,1,,,,,,,,,,,,,,220,24,Female,2022-05-20_13h44.35.558,Main,2022.1.1,60.18958515531297,
negative,yellow,2,k,None,,,,,,,,,0,144,144,144,,,,,,,,,,,,,,,,,,,,,,,,,,,,,,,,,,,,,main,k,k,1,1.0319906000001993,542.2505036,None,None,0,,,,,,,,,,,,,,220,24,Female,2022-05-20_13h44.35.558,Main,2022.1.1,60.18958515531297,
negative,blue,2,None,k,,,,,,,,,0,145,145,145,,,,,,,,,,,,,,,,,,,,,,,,,,,,,,,,,,,,,main,None,None,1,1.5054892999999083,544.2847982000001,None,None,1,,,,,,,,,,,,,,220,24,Female,2022-05-20_13h44.35.558,Main,2022.1.1,60.18958515531297,
negative,red,1,None,None,,,,,,,,,0,146,146,146,,,,,,,,,,,,,,,,,,,,,,,,,,,,,,,,,,,,,main,None,None,1,1.5012442999998257,546.7895171,None,None,1,,,,,,,,,,,,,,220,24,Female,2022-05-20_13h44.35.558,Main,2022.1.1,60.18958515531297,
positive,blue,1,k,None,,,,,,,,,0,147,147,147,,,,,,,,,,,,,,,,,,,,,,,,,,,,,,,,,,,,,main,k,k,1,0.7754918999999063,549.2937731000002,None,None,0,,,,,,,,,,,,,,220,24,Female,2022-05-20_13h44.35.558,Main,2022.1.1,60.18958515531297,
positive,yellow,1,None,k,,,,,,,,,0,148,148,148,,,,,,,,,,,,,,,,,,,,,,,,,,,,,,,,,,,,,main,None,None,1,1.499171400000023,551.0690320000001,None,None,1,,,,,,,,,,,,,,220,24,Female,2022-05-20_13h44.35.558,Main,2022.1.1,60.18958515531297,
negative,red,2,None,None,,,,,,,,,0,149,149,149,,,,,,,,,,,,,,,,,,,,,,,,,,,,,,,,,,,,,main,None,None,1,1.503237800000079,553.5706399000001,None,None,1,,,,,,,,,,,,,,220,24,Female,2022-05-20_13h44.35.558,Main,2022.1.1,60.18958515531297,
negative,blue,1,None,k,,,,,,,,,0,150,150,150,,,,,,,,,,,,,,,,,,,,,,,,,,,,,,,,,,,,,main,None,None,1,1.5123069999999643,556.0761306000002,None,None,1,,,,,,,,,,,,,,220,24,Female,2022-05-20_13h44.35.558,Main,2022.1.1,60.18958515531297,
negative,yellow,2,k,None,,,,,,,,,0,151,151,151,,,,,,,,,,,,,,,,,,,,,,,,,,,,,,,,,,,,,main,k,k,1,0.8312473999999384,558.5882169000001,None,None,0,,,,,,,,,,,,,,220,24,Female,2022-05-20_13h44.35.558,Main,2022.1.1,60.18958515531297,
negative,blue,2,None,k,,,,,,,,,0,152,152,152,,,,,,,,,,,,,,,,,,,,,,,,,,,,,,,,,,,,,main,None,None,1,1.498363100000006,560.4211873000002,None,None,1,,,,,,,,,,,,,,220,24,Female,2022-05-20_13h44.35.558,Main,2022.1.1,60.18958515531297,
negative,yellow,1,k,None,,,,,,,,,0,153,153,153,,,,,,,,,,,,,,,,,,,,,,,,,,,,,,,,,,,,,main,k,k,1,0.7533124000001408,562.9232595000001,None,None,0,,,,,,,,,,,,,,220,24,Female,2022-05-20_13h44.35.558,Main,2022.1.1,60.18958515531297,
negative,blue,1,None,k,,,,,,,,,0,154,154,154,,,,,,,,,,,,,,,,,,,,,,,,,,,,,,,,,,,,,main,None,None,1,1.5098103999998784,564.6782336000001,None,None,1,,,,,,,,,,,,,,220,24,Female,2022-05-20_13h44.35.558,Main,2022.1.1,60.18958515531297,
positive,yellow,2,None,k,,,,,,,,,0,155,155,155,,,,,,,,,,,,,,,,,,,,,,,,,,,,,,,,,,,,,main,None,None,1,1.5039553999999953,567.1893349000002,None,None,1,,,,,,,,,,,,,,220,24,Female,2022-05-20_13h44.35.558,Main,2022.1.1,60.18958515531297,
positive,red,2,None,None,,,,,,,,,0,156,156,156,,,,,,,,,,,,,,,,,,,,,,,,,,,,,,,,,,,,,main,None,None,1,1.5061404000000493,569.6935705000001,None,None,1,,,,,,,,,,,,,,220,24,Female,2022-05-20_13h44.35.558,Main,2022.1.1,60.18958515531297,
positive,red,1,None,None,,,,,,,,,0,157,157,157,,,,,,,,,,,,,,,,,,,,,,,,,,,,,,,,,,,,,main,None,None,1,1.5120196000000306,572.2003877000002,None,None,1,,,,,,,,,,,,,,220,24,Female,2022-05-20_13h44.35.558,Main,2022.1.1,60.18958515531297,
positive,blue,2,k,None,,,,,,,,,0,158,158,158,,,,,,,,,,,,,,,,,,,,,,,,,,,,,,,,,,,,,main,k,k,1,0.7263588000000709,574.7153535,None,None,0,,,,,,,,,,,,,,220,24,Female,2022-05-20_13h44.35.558,Main,2022.1.1,60.18958515531297,
negative,yellow,1,k,None,,,,,,,,,0,159,159,159,,,,,,,,,,,,,,,,,,,,,,,,,,,,,,,,,,,,,main,k,k,1,0.7949859000000288,576.4454831,None,None,0,,,,,,,,,,,,,,220,24,Female,2022-05-20_13h44.35.558,Main,2022.1.1,60.18958515531297,
negative,red,2,None,None,,,,,,,,,0,160,160,160,,,,,,,,,,,,,,,,,,,,,,,,,,,,,,,,,,,,,main,None,None,1,1.5126487999998517,578.2428017000002,None,None,1,,,,,,,,,,,,,,220,24,Female,2022-05-20_13h44.35.558,Main,2022.1.1,60.18958515531297,
negative,blue,1,None,k,,,,,,,,,0,161,161,161,,,,,,,,,,,,,,,,,,,,,,,,,,,,,,,,,,,,,main,None,None,1,1.4969340999998622,580.7568142,None,None,1,,,,,,,,,,,,,,220,24,Female,2022-05-20_13h44.35.558,Main,2022.1.1,60.18958515531297,
negative,blue,1,None,k,,,,,,,,,0,162,162,162,,,,,,,,,,,,,,,,,,,,,,,,,,,,,,,,,,,,,main,None,None,1,1.4983197999999902,583.2548804,None,None,1,,,,,,,,,,,,,,220,24,Female,2022-05-20_13h44.35.558,Main,2022.1.1,60.18958515531297,
negative,yellow,1,k,None,,,,,,,,,0,163,163,163,,,,,,,,,,,,,,,,,,,,,,,,,,,,,,,,,,,,,main,k,k,1,0.8815077000001565,585.7549738,None,None,0,,,,,,,,,,,,,,220,24,Female,2022-05-20_13h44.35.558,Main,2022.1.1,60.18958515531297,
negative,yellow,1,k,None,,,,,,,,,0,164,164,164,,,,,,,,,,,,,,,,,,,,,,,,,,,,,,,,,,,,,main,k,k,1,0.8197967999999491,587.6385965000002,None,None,0,,,,,,,,,,,,,,220,24,Female,2022-05-20_13h44.35.558,Main,2022.1.1,60.18958515531297,
positive,yellow,1,None,k,,,,,,,,,0,165,165,165,,,,,,,,,,,,,,,,,,,,,,,,,,,,,,,,,,,,,main,None,None,1,1.494139199999836,589.4600310000001,None,None,1,,,,,,,,,,,,,,220,24,Female,2022-05-20_13h44.35.558,Main,2022.1.1,60.18958515531297,
negative,red,1,None,None,,,,,,,,,0,166,166,166,,,,,,,,,,,,,,,,,,,,,,,,,,,,,,,,,,,,,main,None,None,1,1.5002280999999584,591.9556806,None,None,1,,,,,,,,,,,,,,220,24,Female,2022-05-20_13h44.35.558,Main,2022.1.1,60.18958515531297,
negative,yellow,2,k,None,,,,,,,,,0,167,167,167,,,,,,,,,,,,,,,,,,,,,,,,,,,,,,,,,,,,,main,k,k,1,1.103799600000002,594.4577176,None,None,0,,,,,,,,,,,,,,220,24,Female,2022-05-20_13h44.35.558,Main,2022.1.1,60.18958515531297,
positive,blue,2,k,None,,,,,,,,,0,168,168,168,,,,,,,,,,,,,,,,,,,,,,,,,,,,,,,,,,,,,main,k,k,1,0.8587815999999293,596.5633065000002,None,None,0,,,,,,,,,,,,,,220,24,Female,2022-05-20_13h44.35.558,Main,2022.1.1,60.18958515531297,
positive,red,2,None,None,,,,,,,,,0,169,169,169,,,,,,,,,,,,,,,,,,,,,,,,,,,,,,,,,,,,,main,None,None,1,1.4964639999998326,598.4253695,None,None,1,,,,,,,,,,,,,,220,24,Female,2022-05-20_13h44.35.558,Main,2022.1.1,60.18958515531297,
positive,red,1,None,None,,,,,,,,,0,170,170,170,,,,,,,,,,,,,,,,,,,,,,,,,,,,,,,,,,,,,main,None,None,1,1.4987022000000252,600.9227946000001,None,None,1,,,,,,,,,,,,,,220,24,Female,2022-05-20_13h44.35.558,Main,2022.1.1,60.18958515531297,
negative,blue,2,None,k,,,,,,,,,0,171,171,171,,,,,,,,,,,,,,,,,,,,,,,,,,,,,,,,,,,,,main,None,None,1,1.5086656999999377,603.4232247,None,None,1,,,,,,,,,,,,,,220,24,Female,2022-05-20_13h44.35.558,Main,2022.1.1,60.18958515531297,
positive,blue,2,k,None,,,,,,,,,0,172,172,172,,,,,,,,,,,,,,,,,,,,,,,,,,,,,,,,,,,,,main,k,k,1,0.7364729000000807,605.9347341,None,None,0,,,,,,,,,,,,,,220,24,Female,2022-05-20_13h44.35.558,Main,2022.1.1,60.18958515531297,
negative,yellow,2,k,None,,,,,,,,,0,173,173,173,,,,,,,,,,,,,,,,,,,,,,,,,,,,,,,,,,,,,main,k,k,1,0.9197701000000507,607.6725273000002,None,None,0,,,,,,,,,,,,,,220,24,Female,2022-05-20_13h44.35.558,Main,2022.1.1,60.18958515531297,
positive,yellow,2,None,k,,,,,,,,,0,174,174,174,,,,,,,,,,,,,,,,,,,,,,,,,,,,,,,,,,,,,main,None,None,1,1.5047655999999279,609.5932698000001,None,None,1,,,,,,,,,,,,,,220,24,Female,2022-05-20_13h44.35.558,Main,2022.1.1,60.18958515531297,
negative,blue,2,None,k,,,,,,,,,0,175,175,175,,,,,,,,,,,,,,,,,,,,,,,,,,,,,,,,,,,,,main,None,None,1,1.5000984999999218,612.1008577,None,None,1,,,,,,,,,,,,,,220,24,Female,2022-05-20_13h44.35.558,Main,2022.1.1,60.18958515531297,
positive,blue,1,k,None,,,,,,,,,0,176,176,176,,,,,,,,,,,,,,,,,,,,,,,,,,,,,,,,,,,,,main,k,k,1,0.9559914999999819,614.6035798,None,None,0,,,,,,,,,,,,,,220,24,Female,2022-05-20_13h44.35.558,Main,2022.1.1,60.18958515531297,
positive,yellow,1,None,k,,,,,,,,,0,177,177,177,,,,,,,,,,,,,,,,,,,,,,,,,,,,,,,,,,,,,main,None,None,1,1.5159198000001197,616.5604896,None,None,1,,,,,,,,,,,,,,220,24,Female,2022-05-20_13h44.35.558,Main,2022.1.1,60.18958515531297,
positive,blue,1,k,None,,,,,,,,,0,178,178,178,,,,,,,,,,,,,,,,,,,,,,,,,,,,,,,,,,,,,main,k,k,1,0.8821079000001646,619.0775127000002,None,None,0,,,,,,,,,,,,,,220,24,Female,2022-05-20_13h44.35.558,Main,2022.1.1,60.18958515531297,
positive,yellow,2,None,k,,,,,,,,,0,179,179,179,,,,,,,,,,,,,,,,,,,,,,,,,,,,,,,,,,,,,main,None,None,1,1.4962029999999231,620.9615445000002,None,None,1,,,,,,,,,,,,,,220,24,Female,2022-05-20_13h44.35.558,Main,2022.1.1,60.18958515531297,
positive,blue,1,k,None,,,,,,,,,0,180,180,180,,,,,,,,,,,,,,,,,,,,,,,,,,,,,,,,,,,,,main,k,k,1,0.8185630999998921,623.4598783000001,None,None,0,,,,,,,,,,,,,,220,24,Female,2022-05-20_13h44.35.558,Main,2022.1.1,60.18958515531297,
negative,red,1,None,None,,,,,,,,,0,181,181,181,,,,,,,,,,,,,,,,,,,,,,,,,,,,,,,,,,,,,main,None,None,1,1.5120422999998482,625.280532,None,None,1,,,,,,,,,,,,,,220,24,Female,2022-05-20_13h44.35.558,Main,2022.1.1,60.18958515531297,
negative,blue,1,None,k,,,,,,,,,0,182,182,182,,,,,,,,,,,,,,,,,,,,,,,,,,,,,,,,,,,,,main,None,None,1,1.4993213999998716,627.7935057000002,None,None,1,,,,,,,,,,,,,,220,24,Female,2022-05-20_13h44.35.558,Main,2022.1.1,60.18958515531297,
negative,yellow,2,k,None,,,,,,,,,0,183,183,183,,,,,,,,,,,,,,,,,,,,,,,,,,,,,,,,,,,,,main,k,k,1,0.847804799999949,630.2945164,None,None,0,,,,,,,,,,,,,,220,24,Female,2022-05-20_13h44.35.558,Main,2022.1.1,60.18958515531297,
positive,yellow,2,None,k,,,,,,,,,0,184,184,184,,,,,,,,,,,,,,,,,,,,,,,,,,,,,,,,,,,,,main,None,None,1,1.504524500000116,632.1467300000002,None,None,1,,,,,,,,,,,,,,220,24,Female,2022-05-20_13h44.35.558,Main,2022.1.1,60.18958515531297,
positive,yellow,1,None,k,,,,,,,,,0,185,185,185,,,,,,,,,,,,,,,,,,,,,,,,,,,,,,,,,,,,,main,None,None,1,1.5033257999998568,634.6520787000002,None,None,1,,,,,,,,,,,,,,220,24,Female,2022-05-20_13h44.35.558,Main,2022.1.1,60.18958515531297,
positive,red,2,None,None,,,,,,,,,0,186,186,186,,,,,,,,,,,,,,,,,,,,,,,,,,,,,,,,,,,,,main,None,None,1,1.4994880000001558,637.1573435,None,None,1,,,,,,,,,,,,,,220,24,Female,2022-05-20_13h44.35.558,Main,2022.1.1,60.18958515531297,
positive,blue,1,k,None,,,,,,,,,0,187,187,187,,,,,,,,,,,,,,,,,,,,,,,,,,,,,,,,,,,,,main,k,k,1,0.8503243000000111,639.6583546000002,None,None,0,,,,,,,,,,,,,,220,24,Female,2022-05-20_13h44.35.558,Main,2022.1.1,60.18958515531297,
negative,yellow,1,k,None,,,,,,,,,0,188,188,188,,,,,,,,,,,,,,,,,,,,,,,,,,,,,,,,,,,,,main,k,k,1,0.7845992000000024,641.5106845,None,None,0,,,,,,,,,,,,,,220,24,Female,2022-05-20_13h44.35.558,Main,2022.1.1,60.18958515531297,
positive,yellow,2,None,k,,,,,,,,,0,189,189,189,,,,,,,,,,,,,,,,,,,,,,,,,,,,,,,,,,,,,main,None,None,1,1.4946299000000636,643.2984068000001,None,None,1,,,,,,,,,,,,,,220,24,Female,2022-05-20_13h44.35.558,Main,2022.1.1,60.18958515531297,
negative,yellow,2,k,None,,,,,,,,,0,190,190,190,,,,,,,,,,,,,,,,,,,,,,,,,,,,,,,,,,,,,main,k,k,1,0.9198868999999377,645.7942446000002,None,None,0,,,,,,,,,,,,,,220,24,Female,2022-05-20_13h44.35.558,Main,2022.1.1,60.18958515531297,
negative,yellow,1,k,None,,,,,,,,,0,191,191,191,,,,,,,,,,,,,,,,,,,,,,,,,,,,,,,,,,,,,main,k,k,1,0.9448416999998699,647.715361,None,None,0,,,,,,,,,,,,,,220,24,Female,2022-05-20_13h44.35.558,Main,2022.1.1,60.18958515531297,
positive,blue,2,k,None,,,,,,,,,0,192,192,192,,,,,,,,,,,,,,,,,,,,,,,,,,,,,,,,,,,,,main,k,k,1,0.7990909000000102,649.6624360000001,None,None,0,,,,,,,,,,,,,,220,24,Female,2022-05-20_13h44.35.558,Main,2022.1.1,60.18958515531297,
positive,yellow,1,None,k,,,,,,,,,0,193,193,193,,,,,,,,,,,,,,,,,,,,,,,,,,,,,,,,,,,,,main,None,None,1,1.5111750999999458,651.4607513000001,None,None,1,,,,,,,,,,,,,,220,24,Female,2022-05-20_13h44.35.558,Main,2022.1.1,60.18958515531297,
negative,red,2,None,None,,,,,,,,,0,194,194,194,,,,,,,,,,,,,,,,,,,,,,,,,,,,,,,,,,,,,main,None,None,1,1.5056101000000126,653.9729802000002,None,None,1,,,,,,,,,,,,,,220,24,Female,2022-05-20_13h44.35.558,Main,2022.1.1,60.18958515531297,
positive,red,1,None,None,,,,,,,,,0,195,195,195,,,,,,,,,,,,,,,,,,,,,,,,,,,,,,,,,,,,,main,None,None,1,1.507712599999877,656.4846502,None,None,1,,,,,,,,,,,,,,220,24,Female,2022-05-20_13h44.35.558,Main,2022.1.1,60.18958515531297,
negative,blue,1,None,k,,,,,,,,,0,196,196,196,,,,,,,,,,,,,,,,,,,,,,,,,,,,,,,,,,,,,main,None,None,1,1.5128336000000218,658.9904848000001,None,None,1,,,,,,,,,,,,,,220,24,Female,2022-05-20_13h44.35.558,Main,2022.1.1,60.18958515531297,
positive,blue,2,k,None,,,,,,,,,0,197,197,197,,,,,,,,,,,,,,,,,,,,,,,,,,,,,,,,,,,,,main,k,k,1,1.319803200000024,661.5055479,None,None,0,,,,,,,,,,,,,,220,24,Female,2022-05-20_13h44.35.558,Main,2022.1.1,60.18958515531297,
negative,blue,2,None,k,,,,,,,,,0,198,198,198,,,,,,,,,,,,,,,,,,,,,,,,,,,,,,,,,,,,,main,None,None,1,1.4952720000001136,663.8292655,None,None,1,,,,,,,,,,,,,,220,24,Female,2022-05-20_13h44.35.558,Main,2022.1.1,60.18958515531297,
negative,blue,2,None,k,,,,,,,,,0,199,199,199,,,,,,,,,,,,,,,,,,,,,,,,,,,,,,,,,,,,,main,None,None,1,1.4974475000001348,666.3258686000001,None,None,1,,,,,,,,,,,,,,220,24,Female,2022-05-20_13h44.35.558,Main,2022.1.1,60.18958515531297,
positive,blue,2,k,None,,,,,,,,,0,200,200,200,,,,,,,,,,,,,,,,,,,,,,,,,,,,,,,,,,,,,main,k,k,1,0.7746984999998858,668.8251036000001,None,None,0,,,,,,,,,,,,,,220,24,Female,2022-05-20_13h44.35.558,Main,2022.1.1,60.18958515531297,
positive,blue,2,k,None,,,,,,,,,0,201,201,201,,,,,,,,,,,,,,,,,,,,,,,,,,,,,,,,,,,,,main,k,k,1,0.7944268999999622,670.6004723000001,None,None,0,,,,,,,,,,,,,,220,24,Female,2022-05-20_13h44.35.558,Main,2022.1.1,60.18958515531297,
negative,yellow,2,k,None,,,,,,,,,0,202,202,202,,,,,,,,,,,,,,,,,,,,,,,,,,,,,,,,,,,,,main,k,k,1,0.809932500000059,672.3963985,None,None,0,,,,,,,,,,,,,,220,24,Female,2022-05-20_13h44.35.558,Main,2022.1.1,60.18958515531297,
positive,red,1,None,None,,,,,,,,,0,203,203,203,,,,,,,,,,,,,,,,,,,,,,,,,,,,,,,,,,,,,main,None,None,1,1.4978876000000128,674.2088442000002,None,None,1,,,,,,,,,,,,,,220,24,Female,2022-05-20_13h44.35.558,Main,2022.1.1,60.18958515531297,
negative,blue,2,None,k,,,,,,,,,0,204,204,204,,,,,,,,,,,,,,,,,,,,,,,,,,,,,,,,,,,,,main,None,None,1,1.5023380999998608,676.7047245000001,None,None,1,,,,,,,,,,,,,,220,24,Female,2022-05-20_13h44.35.558,Main,2022.1.1,60.18958515531297,
negative,red,1,None,None,,,,,,,,,0,205,205,205,,,,,,,,,,,,,,,,,,,,,,,,,,,,,,,,,,,,,main,None,None,1,1.5129868000001352,679.2117785,None,None,1,,,,,,,,,,,,,,220,24,Female,2022-05-20_13h44.35.558,Main,2022.1.1,60.18958515531297,
negative,blue,2,None,k,,,,,,,,,0,206,206,206,,,,,,,,,,,,,,,,,,,,,,,,,,,,,,,,,,,,,main,None,None,1,1.4956013999999413,681.7258339,None,None,1,,,,,,,,,,,,,,220,24,Female,2022-05-20_13h44.35.558,Main,2022.1.1,60.18958515531297,
negative,yellow,2,k,None,,,,,,,,,0,207,207,207,,,,,,,,,,,,,,,,,,,,,,,,,,,,,,,,,,,,,main,k,k,1,0.7751762000000326,684.2210356,None,None,0,,,,,,,,,,,,,,220,24,Female,2022-05-20_13h44.35.558,Main,2022.1.1,60.18958515531297,
positive,yellow,2,None,k,,,,,,,,,0,208,208,208,,,,,,,,,,,,,,,,,,,,,,,,,,,,,,,,,,,,,main,None,None,1,1.5035820000000513,685.9995661,None,None,1,,,,,,,,,,,,,,220,24,Female,2022-05-20_13h44.35.558,Main,2022.1.1,60.18958515531297,
negative,yellow,1,k,None,,,,,,,,,0,209,209,209,,,,,,,,,,,,,,,,,,,,,,,,,,,,,,,,,,,,,main,k,k,1,0.8636418999999478,688.5046271000001,None,None,0,,,,,,,,,,,,,,220,24,Female,2022-05-20_13h44.35.558,Main,2022.1.1,60.18958515531297,
negative,red,2,None,None,,,,,,,,,0,210,210,210,,,,,,,,,,,,,,,,,,,,,,,,,,,,,,,,,,,,,main,None,None,1,1.5108072000000448,690.3680203000001,None,None,1,,,,,,,,,,,,,,220,24,Female,2022-05-20_13h44.35.558,Main,2022.1.1,60.18958515531297,
negative,blue,1,None,k,,,,,,,,,0,211,211,211,,,,,,,,,,,,,,,,,,,,,,,,,,,,,,,,,,,,,main,None,None,1,1.5060335000000578,692.8820713,None,None,1,,,,,,,,,,,,,,220,24,Female,2022-05-20_13h44.35.558,Main,2022.1.1,60.18958515531297,
negative,yellow,1,k,None,,,,,,,,,0,212,212,212,,,,,,,,,,,,,,,,,,,,,,,,,,,,,,,,,,,,,main,k,k,1,0.893107099999952,695.3887378000002,None,None,0,,,,,,,,,,,,,,220,24,Female,2022-05-20_13h44.35.558,Main,2022.1.1,60.18958515531297,
positive,blue,1,k,None,,,,,,,,,0,213,213,213,,,,,,,,,,,,,,,,,,,,,,,,,,,,,,,,,,,,,main,k,k,1,1.2422076999998808,697.2830498000001,None,None,0,,,,,,,,,,,,,,220,24,Female,2022-05-20_13h44.35.558,Main,2022.1.1,60.18958515531297,
positive,blue,1,k,None,,,,,,,,,0,214,214,214,,,,,,,,,,,,,,,,,,,,,,,,,,,,,,,,,,,,,main,k,k,1,0.7570087000001422,699.5286623000002,None,None,0,,,,,,,,,,,,,,220,24,Female,2022-05-20_13h44.35.558,Main,2022.1.1,60.18958515531297,
positive,yellow,1,None,k,,,,,,,,,0,215,215,215,,,,,,,,,,,,,,,,,,,,,,,,,,,,,,,,,,,,,main,None,None,1,1.5072497999999541,701.2860201000001,None,None,1,,,,,,,,,,,,,,220,24,Female,2022-05-20_13h44.35.558,Main,2022.1.1,60.18958515531297,
positive,yellow,1,None,k,,,,,,,,,0,216,216,216,,,,,,,,,,,,,,,,,,,,,,,,,,,,,,,,,,,,,main,None,None,1,1.5044679000000087,703.7964093,None,None,1,,,,,,,,,,,,,,220,24,Female,2022-05-20_13h44.35.558,Main,2022.1.1,60.18958515531297,
positive,yellow,2,None,k,,,,,,,,,0,217,217,217,,,,,,,,,,,,,,,,,,,,,,,,,,,,,,,,,,,,,main,None,None,1,1.5080897000000277,706.3029223000001,None,None,1,,,,,,,,,,,,,,220,24,Female,2022-05-20_13h44.35.558,Main,2022.1.1,60.18958515531297,
negative,blue,1,None,k,,,,,,,,,0,218,218,218,,,,,,,,,,,,,,,,,,,,,,,,,,,,,,,,,,,,,main,None,None,1,1.4942616000000726,708.8113703000001,None,None,1,,,,,,,,,,,,,,220,24,Female,2022-05-20_13h44.35.558,Main,2022.1.1,60.18958515531297,
positive,red,2,None,None,,,,,,,,,0,219,219,219,,,,,,,,,,,,,,,,,,,,,,,,,,,,,,,,,,,,,main,None,None,1,1.5091668000000027,711.3089620000001,None,None,1,,,,,,,,,,,,,,220,24,Female,2022-05-20_13h44.35.558,Main,2022.1.1,60.18958515531297,
positive,yellow,1,None,k,,,,,,,,,0,220,220,220,,,,,,,,,,,,,,,,,,,,,,,,,,,,,,,,,,,,,main,None,None,1,1.5013930000000073,713.8161693000002,None,None,1,,,,,,,,,,,,,,220,24,Female,2022-05-20_13h44.35.558,Main,2022.1.1,60.18958515531297,
positive,blue,1,k,None,,,,,,,,,0,221,221,221,,,,,,,,,,,,,,,,,,,,,,,,,,,,,,,,,,,,,main,k,k,1,1.0412392999999156,716.3215659,None,None,0,,,,,,,,,,,,,,220,24,Female,2022-05-20_13h44.35.558,Main,2022.1.1,60.18958515531297,
positive,yellow,2,None,k,,,,,,,,,0,222,222,222,,,,,,,,,,,,,,,,,,,,,,,,,,,,,,,,,,,,,main,None,None,1,1.503239399999984,718.3640751,None,None,1,,,,,,,,,,,,,,220,24,Female,2022-05-20_13h44.35.558,Main,2022.1.1,60.18958515531297,
negative,yellow,1,k,None,,,,,,,,,0,223,223,223,,,,,,,,,,,,,,,,,,,,,,,,,,,,,,,,,,,,,main,k,k,1,0.8772500000000036,720.870936,None,None,0,,,,,,,,,,,,,,220,24,Female,2022-05-20_13h44.35.558,Main,2022.1.1,60.18958515531297,
positive,yellow,2,None,k,,,,,,,,,0,224,224,224,,,,,,,,,,,,,,,,,,,,,,,,,,,,,,,,,,,,,main,None,None,1,1.4982387999998537,722.7479421,None,None,1,,,,,,,,,,,,,,220,24,Female,2022-05-20_13h44.35.558,Main,2022.1.1,60.18958515531297,
negative,yellow,2,k,None,,,,,,,,,0,225,225,225,,,,,,,,,,,,,,,,,,,,,,,,,,,,,,,,,,,,,main,k,k,1,2.7378377,725.2476308,None,None,0,,,,,,,,,,,,,,220,24,Female,2022-05-20_13h44.35.558,Main,2022.1.1,60.18958515531297,
negative,blue,2,None,k,,,,,,,,,0,226,226,226,,,,,,,,,,,,,,,,,,,,,,,,,,,,,,,,,,,,,main,None,None,1,1.4992463000000953,729.9990753000002,None,None,1,,,,,,,,,,,,,,220,24,Female,2022-05-20_13h44.35.558,Main,2022.1.1,60.18958515531297,
positive,red,2,None,None,,,,,,,,,0,227,227,227,,,,,,,,,,,,,,,,,,,,,,,,,,,,,,,,,,,,,main,None,None,1,1.5029612000000725,732.4988136000002,None,None,1,,,,,,,,,,,,,,220,24,Female,2022-05-20_13h44.35.558,Main,2022.1.1,60.18958515531297,
positive,blue,2,k,None,,,,,,,,,0,228,228,228,,,,,,,,,,,,,,,,,,,,,,,,,,,,,,,,,,,,,main,k,k,1,0.7315992999999708,735.0045948000002,None,None,0,,,,,,,,,,,,,,220,24,Female,2022-05-20_13h44.35.558,Main,2022.1.1,60.18958515531297,
negative,blue,1,None,k,,,,,,,,,0,229,229,229,,,,,,,,,,,,,,,,,,,,,,,,,,,,,,,,,,,,,main,None,None,1,1.5052194999998392,736.7377655,None,None,1,,,,,,,,,,,,,,220,24,Female,2022-05-20_13h44.35.558,Main,2022.1.1,60.18958515531297,
positive,yellow,1,None,k,,,,,,,,,0,230,230,230,,,,,,,,,,,,,,,,,,,,,,,,,,,,,,,,,,,,,main,None,None,1,1.5028408000000582,739.2443758000002,None,None,1,,,,,,,,,,,,,,220,24,Female,2022-05-20_13h44.35.558,Main,2022.1.1,60.18958515531297,
negative,blue,2,None,k,,,,,,,,,0,231,231,231,,,,,,,,,,,,,,,,,,,,,,,,,,,,,,,,,,,,,main,None,None,1,1.4985043000001497,741.7510028000002,None,None,1,,,,,,,,,,,,,,220,24,Female,2022-05-20_13h44.35.558,Main,2022.1.1,60.18958515531297,
negative,red,1,None,None,,,,,,,,,0,232,232,232,,,,,,,,,,,,,,,,,,,,,,,,,,,,,,,,,,,,,main,None,None,1,1.4946442000000388,744.2514395000001,None,None,1,,,,,,,,,,,,,,220,24,Female,2022-05-20_13h44.35.558,Main,2022.1.1,60.18958515531297,
positive,blue,2,k,None,,,,,,,,,0,233,233,233,,,,,,,,,,,,,,,,,,,,,,,,,,,,,,,,,,,,,main,k,k,1,0.6158038000000943,746.7469823000001,None,None,0,,,,,,,,,,,,,,220,24,Female,2022-05-20_13h44.35.558,Main,2022.1.1,60.18958515531297,
negative,yellow,1,k,None,,,,,,,,,0,234,234,234,,,,,,,,,,,,,,,,,,,,,,,,,,,,,,,,,,,,,main,k,k,1,0.7558287999997901,748.3627421000001,None,None,0,,,,,,,,,,,,,,220,24,Female,2022-05-20_13h44.35.558,Main,2022.1.1,60.18958515531297,
negative,yellow,2,k,None,,,,,,,,,0,235,235,235,,,,,,,,,,,,,,,,,,,,,,,,,,,,,,,,,,,,,main,k,k,1,0.9335489000000052,750.1220744000002,None,None,0,,,,,,,,,,,,,,220,24,Female,2022-05-20_13h44.35.558,Main,2022.1.1,60.18958515531297,
positive,red,1,None,None,,,,,,,,,0,236,236,236,,,,,,,,,,,,,,,,,,,,,,,,,,,,,,,,,,,,,main,None,None,1,1.5044327000000521,752.0568012000001,None,None,1,,,,,,,,,,,,,,220,24,Female,2022-05-20_13h44.35.558,Main,2022.1.1,60.18958515531297,
negative,red,2,None,None,,,,,,,,,0,237,237,237,,,,,,,,,,,,,,,,,,,,,,,,,,,,,,,,,,,,,main,None,None,1,1.505332300000191,754.5639516000001,None,None,1,,,,,,,,,,,,,,220,24,Female,2022-05-20_13h44.35.558,Main,2022.1.1,60.18958515531297,
negative,blue,1,None,k,,,,,,,,,0,238,238,238,,,,,,,,,,,,,,,,,,,,,,,,,,,,,,,,,,,,,main,None,None,1,1.5108005000001867,757.0701958,None,None,1,,,,,,,,,,,,,,220,24,Female,2022-05-20_13h44.35.558,Main,2022.1.1,60.18958515531297,
positive,blue,1,k,None,,,,,,,,,0,239,239,239,,,,,,,,,,,,,,,,,,,,,,,,,,,,,,,,,,,,,main,k,k,1,0.8316796999997678,759.5829285,None,None,0,,,,,,,,,,,,,,220,24,Female,2022-05-20_13h44.35.558,Main,2022.1.1,60.18958515531297,
,,,,,,,,,,,,,,,,,,,,,,,,,,,,,,,,,,,,,,,,,,,,,,,,,,,,,,,,,,,,,,,,,,,,,,,,,761.4033033999999,None,,,,,,,,
