distractor,target,set,ans1,ans2,rep_loop4.thisRepN,rep_loop4.thisTrialN,rep_loop4.thisN,rep_loop4.thisIndex,st2_prac_loop.thisRepN,st2_prac_loop.thisTrialN,st2_prac_loop.thisN,st2_prac_loop.thisIndex,st2_main_loop.thisRepN,st2_main_loop.thisTrialN,st2_main_loop.thisN,st2_main_loop.thisIndex,image_4.started,image_4.stopped,mouse_7.x,mouse_7.y,mouse_7.leftButton,mouse_7.midButton,mouse_7.rightButton,sound_2.started,sound_2.stopped,key_resp_3.keys,mouse_5.x,mouse_5.y,mouse_5.leftButton,mouse_5.midButton,mouse_5.rightButton,mouse_5.started,mouse_5.stopped,yes_text2.started,yes_text2.stopped,no_text2.started,no_text2.stopped,mouse_3.x,mouse_3.y,mouse_3.leftButton,mouse_3.midButton,mouse_3.rightButton,mouse_3.started,mouse_3.stopped,st_prac_back.started,st_prac_back.stopped,st_prac_text.started,st_prac_text.stopped,st_fix_back.started,st_fix_back.stopped,st_fix_2.started,st_fix_2.stopped,main_prac,st_ans,st_res,st_corr,st_rt,st_back.started,st_back.stopped,st2_resp.keys,st2_resp.corr,st_main_back.started,st_main_back.stopped,st_main_text.started,st_main_text.stopped,mouse_4.x,mouse_4.y,mouse_4.leftButton,mouse_4.midButton,mouse_4.rightButton,mouse_4.started,mouse_4.stopped,text_2.started,text_2.stopped,id*,age*,gender*,date,expName,psychopyVersion,frameRate,
,,,,,,,,,,,,,,,,,48.753996200000074,None,0.036111113,-0.03888889,0,0,0,,,,,,,,,,,,,,,,,,,,,,,,,,,,,,,,,,,,,,,,,,,,,,,,,,,,221,25,Male,2022-05-20_15h25.00.658,Main,2022.1.1,60.01676868523613,
negative,yellow,1,k,None,,,,,0,0,0,0,,,,,,,,,,,,54.995806160000754,None,None,0.39907408,-0.24444444,0,0,0,1.0049259599991274,None,111.32563460000074,None,111.32563460000074,None,-0.08148148,-0.098148145,0,0,0,0.009300460000304156,None,116.47602500000085,None,116.47602500000085,None,118.48733260000063,None,118.48733260000063,None,prac,None,None,1,1.5059048000002804,120.51143220000085,None,None,1,,,,,,,,,,,,,,221,25,Male,2022-05-20_15h25.00.658,Main,2022.1.1,60.01676868523613,
positive,red,2,None,None,,,,,0,1,1,1,,,,,,,,,,,,,,,,,,,,,,,,,,,,,,,,,,,,,,,,,prac,None,k,0,1.1244188000000577,123.00779590000002,None,None,1,,,,,,,,,,,,,,221,25,Male,2022-05-20_15h25.00.658,Main,2022.1.1,60.01676868523613,
negative,blue,2,None,k,,,,,0,2,2,2,,,,,,,,,,,,,,,,,,,,,,,,,,,,,,,,,,,,,,,,,prac,k,k,1,55.059164399999645,126.16241260000061,None,None,0,,,,,,,,,,,,,,221,25,Male,2022-05-20_15h25.00.658,Main,2022.1.1,60.01676868523613,
positive,yellow,1,None,k,,,,,0,3,3,3,,,,,,,,,,,,,,,,,,,,,,,,,,,,,,,,,,,,,,,,,prac,k,k,1,14.41866200000004,183.2549181000004,None,None,0,,,,,,,,,,,,,,221,25,Male,2022-05-20_15h25.00.658,Main,2022.1.1,60.01676868523613,
negative,blue,2,None,k,,,,,0,4,4,4,,,,,,,,,,,,,,,,,,,,,,,,,,,,,,,,,,,,,,,,,prac,k,k,1,0.8336079000000609,199.68625200000042,None,None,0,,,,,,,,,,,,,,221,25,Male,2022-05-20_15h25.00.658,Main,2022.1.1,60.01676868523613,
negative,blue,1,None,k,,,,,0,5,5,5,,,,,,,,,,,,,,,,,,,,,,,,,,,,,,,,,,,,,,,,,prac,k,k,1,3.3967529999999897,201.51285310000003,None,None,0,,,,,,,,,,,,,,221,25,Male,2022-05-20_15h25.00.658,Main,2022.1.1,60.01676868523613,
negative,yellow,2,k,None,,,,,0,6,6,6,,,,,,,,,,,,,,,,,,,,,,,,,,,,,,,,,,,,,,,,,prac,None,k,0,0.6137826999993194,206.92088220000005,None,None,1,,,,,,,,,,,,,,221,25,Male,2022-05-20_15h25.00.658,Main,2022.1.1,60.01676868523613,
negative,red,1,None,None,,,,,0,7,7,7,,,,,,,,,,,,,,,,,,,,,,,,,,,,,,,,,,,,,,,,,prac,None,None,1,1.506273599999986,209.5445774000009,None,None,1,,,,,,,,,,,,,,221,25,Male,2022-05-20_15h25.00.658,Main,2022.1.1,60.01676868523613,
positive,yellow,2,None,k,,,,,0,8,8,8,,,,,,,,,,,,,,,,,,,,,,,,,,,,,,,,,,,,,,,,,prac,k,k,1,1.717478200000187,212.05257840000013,None,None,0,,,,,,,,,,,,,,221,25,Male,2022-05-20_15h25.00.658,Main,2022.1.1,60.01676868523613,
negative,yellow,1,k,None,,,,,0,9,9,9,,,,,,,,,,,,,,,,,,,,,,,,,,,,,,,,,,,,,,,,,prac,None,None,1,1.5020663000004788,215.77718280000045,None,None,1,,,,,,,,,,,,,,221,25,Male,2022-05-20_15h25.00.658,Main,2022.1.1,60.01676868523613,
positive,yellow,2,None,k,,,,,0,10,10,10,,,,,,,,,,,,,,,,,,,,,,,,,,,,,,,,,,,,,,,,,prac,k,k,1,0.8789134999997259,218.2815053000004,None,None,0,,,,,,,,,,,,,,221,25,Male,2022-05-20_15h25.00.658,Main,2022.1.1,60.01676868523613,
negative,yellow,2,k,None,,,,,0,11,11,11,,,,,,,,,,,,,,,,,,,,,,,,,,,,,,,,,,,,,,,,,prac,None,None,1,1.513076700000056,220.1588537000007,None,None,1,,,,,,,,,,,,,,221,25,Male,2022-05-20_15h25.00.658,Main,2022.1.1,60.01676868523613,
negative,red,2,None,None,,,,,0,12,12,12,,,,,,,,,,,,,,,,,,,,,,,,,,,,,,,,,,,,,,,,,prac,None,None,1,1.5071490000000267,222.67384350000066,None,None,1,,,,,,,,,,,,,,221,25,Male,2022-05-20_15h25.00.658,Main,2022.1.1,60.01676868523613,
positive,red,1,None,None,,,,,0,13,13,13,,,,,,,,,,,,,,,,,,,,,,,,,,,,,,,,,,,,,,,,,prac,None,k,0,1.0528814999997849,225.1842228000005,None,None,1,,,,,,,,,,,,,,221,25,Male,2022-05-20_15h25.00.658,Main,2022.1.1,60.01676868523613,
positive,blue,2,k,None,,,,,0,14,14,14,,,,,,,,,,,,,,,,,,,,,,,,,,,,,,,,,,,,,,,,,prac,None,k,0,0.8415798000005452,228.2491671000007,None,None,1,,,,,,,,,,,,,,221,25,Male,2022-05-20_15h25.00.658,Main,2022.1.1,60.01676868523613,
positive,blue,1,k,None,,,,,0,15,15,15,,,,,,,,,,,,,,,,,,,,,,,,,,,,,,,,,,,,,,,,,prac,None,None,1,1.506550199999765,231.10009640000044,None,None,1,,,,,,,,,,,,,,221,25,Male,2022-05-20_15h25.00.658,Main,2022.1.1,60.01676868523613,
negative,blue,1,None,k,,,,,0,16,16,16,,,,,,,,,,,,,,,,,,,,,,,,,,,,,,,,,,,,,,,,,prac,k,k,1,0.7128196999992724,233.60518990000037,None,None,0,,,,,,,,,,,,,,221,25,Male,2022-05-20_15h25.00.658,Main,2022.1.1,60.01676868523613,
positive,blue,2,k,None,,,,,0,17,17,17,,,,,,,,,,,,,,,,,,,,,,,,,,,,,,,,,,,,,,,,,prac,None,k,0,1.5129103999997824,235.31499650000023,None,None,1,,,,,,,,,,,,,,221,25,Male,2022-05-20_15h25.00.658,Main,2022.1.1,60.01676868523613,
positive,blue,1,k,None,,,,,0,18,18,18,,,,,,,,,,,,,,,,,,,,,,,,,,,,,,,,,,,,,,,,,prac,None,None,1,1.5041194000004907,238.84098060000088,None,None,1,,,,,,,,,,,,,,221,25,Male,2022-05-20_15h25.00.658,Main,2022.1.1,60.01676868523613,
positive,yellow,1,None,k,,,,,0,19,19,19,,,,,,,,,,,,,,,,,,,,,,,,,,,,,,,,,,,,,,,,,prac,k,k,1,1.1437771999999313,241.34712370000034,None,None,0,,,,,,,,,,,,,,221,25,Male,2022-05-20_15h25.00.658,Main,2022.1.1,60.01676868523613,
negative,yellow,1,k,None,,,,,1,0,20,0,,,,,,,,,,,,,,,,,,,,,,,,,,,,,,,,,,,,,,,,,prac,None,None,1,1.5050839000004999,243.49322870000015,None,None,1,,,,,,,,,,,,,,221,25,Male,2022-05-20_15h25.00.658,Main,2022.1.1,60.01676868523613,
positive,red,2,None,None,,,,,1,1,21,1,,,,,,,,,,,,,,,,,,,,,,,,,,,,,,,,,,,,,,,,,prac,None,k,0,1.1732588000004398,245.99801360000038,None,None,1,,,,,,,,,,,,,,221,25,Male,2022-05-20_15h25.00.658,Main,2022.1.1,60.01676868523613,
negative,blue,2,None,k,,,,,1,2,22,2,,,,,,,,,,,,,,,,,,,,,,,,,,,,,,,,,,,,,,,,,prac,k,k,1,7.8701705999992555,249.18951520000064,None,None,0,,,,,,,,,,,,,,221,25,Male,2022-05-20_15h25.00.658,Main,2022.1.1,60.01676868523613,
positive,yellow,1,None,k,,,,,1,3,23,3,,,,,,,,,,,,,,,,,,,,,,,,,,,,,,,,,,,,,,,,,prac,k,k,1,6.6207589999994525,259.07147240000086,None,None,0,,,,,,,,,,,,,,221,25,Male,2022-05-20_15h25.00.658,Main,2022.1.1,60.01676868523613,
negative,blue,2,None,k,,,,,1,4,24,4,,,,,,,,,,,,,,,,,,,,,,,,,,,,,,,,,,,,,,,,,prac,k,k,1,0.8550599999998667,267.7035071,None,None,0,,,,,,,,,,,,,,221,25,Male,2022-05-20_15h25.00.658,Main,2022.1.1,60.01676868523613,
negative,blue,1,None,k,,,,,1,5,25,5,,,,,,,,,,,,,,,,,,,,,,,,,,,,,,,,,,,,,,,,,prac,k,k,1,1.1452202999998917,269.5611542000006,None,None,0,,,,,,,,,,,,,,221,25,Male,2022-05-20_15h25.00.658,Main,2022.1.1,60.01676868523613,
negative,yellow,2,k,None,,,,,1,6,26,6,,,,,,,,,,,,,,,,,,,,,,,,,,,,,,,,,,,,,,,,,prac,None,None,1,1.4974781000000803,271.70834450000075,None,None,1,,,,,,,,,,,,,,221,25,Male,2022-05-20_15h25.00.658,Main,2022.1.1,60.01676868523613,
negative,red,1,None,None,,,,,1,7,27,7,,,,,,,,,,,,,,,,,,,,,,,,,,,,,,,,,,,,,,,,,prac,None,k,0,1.4445832999999766,274.2066104000005,None,None,1,,,,,,,,,,,,,,221,25,Male,2022-05-20_15h25.00.658,Main,2022.1.1,60.01676868523613,
positive,yellow,2,None,k,,,,,1,8,28,8,,,,,,,,,,,,,,,,,,,,,,,,,,,,,,,,,,,,,,,,,prac,k,k,1,6.468796399999519,277.6522522000005,None,None,0,,,,,,,,,,,,,,221,25,Male,2022-05-20_15h25.00.658,Main,2022.1.1,60.01676868523613,
negative,yellow,1,k,None,,,,,1,9,29,9,,,,,,,,,,,,,,,,,,,,,,,,,,,,,,,,,,,,,,,,,prac,None,k,0,1.033018500000253,286.13510510000015,None,None,1,,,,,,,,,,,,,,221,25,Male,2022-05-20_15h25.00.658,Main,2022.1.1,60.01676868523613,
positive,yellow,2,None,k,,,,,1,10,30,10,,,,,,,,,,,,,,,,,,,,,,,,,,,,,,,,,,,,,,,,,prac,k,k,1,3.831897499999286,289.1841516000004,None,None,0,,,,,,,,,,,,,,221,25,Male,2022-05-20_15h25.00.658,Main,2022.1.1,60.01676868523613,
negative,yellow,2,k,None,,,,,1,11,31,11,,,,,,,,,,,,,,,,,,,,,,,,,,,,,,,,,,,,,,,,,prac,None,k,0,1.27586379999957,295.03426390000004,None,None,1,,,,,,,,,,,,,,221,25,Male,2022-05-20_15h25.00.658,Main,2022.1.1,60.01676868523613,
negative,red,2,None,None,,,,,1,12,32,12,,,,,,,,,,,,,,,,,,,,,,,,,,,,,,,,,,,,,,,,,prac,None,None,1,1.4913356999995813,298.31625200000053,None,None,1,,,,,,,,,,,,,,221,25,Male,2022-05-20_15h25.00.658,Main,2022.1.1,60.01676868523613,
positive,red,1,None,None,,,,,1,13,33,13,,,,,,,,,,,,,,,,,,,,,,,,,,,,,,,,,,,,,,,,,prac,None,None,1,1.5093003000001772,300.8097890000008,None,None,1,,,,,,,,,,,,,,221,25,Male,2022-05-20_15h25.00.658,Main,2022.1.1,60.01676868523613,
positive,blue,2,k,None,,,,,1,14,34,14,,,,,,,,,,,,,,,,,,,,,,,,,,,,,,,,,,,,,,,,,prac,None,k,0,1.2591221000002406,303.3208600000007,None,None,1,,,,,,,,,,,,,,221,25,Male,2022-05-20_15h25.00.658,Main,2022.1.1,60.01676868523613,
positive,blue,1,k,None,,,,,1,15,35,15,,,,,,,,,,,,,,,,,,,,,,,,,,,,,,,,,,,,,,,,,prac,None,None,1,1.4976434000000154,306.58198710000033,None,None,1,,,,,,,,,,,,,,221,25,Male,2022-05-20_15h25.00.658,Main,2022.1.1,60.01676868523613,
negative,blue,1,None,k,,,,,1,16,36,16,,,,,,,,,,,,,,,,,,,,,,,,,,,,,,,,,,,,,,,,,prac,k,k,1,1.2252211000004536,309.0801270000002,None,None,0,,,,,,,,,,,,,,221,25,Male,2022-05-20_15h25.00.658,Main,2022.1.1,60.01676868523613,
positive,blue,2,k,None,,,,,1,17,37,17,,,,,,,,,,,,,,,,,,,,,,,,,,,,,,,,,,,,,,,,,prac,None,None,1,1.5094571999998152,311.3085581000005,None,None,1,,,,,,,,,,,,,,221,25,Male,2022-05-20_15h25.00.658,Main,2022.1.1,60.01676868523613,
positive,blue,1,k,None,,,,,1,18,38,18,,,,,,,,,,,,,,,,,,,,,,,,,,,,,,,,,,,,,,,,,prac,None,None,1,1.4968671999995422,313.81950340000003,None,None,1,,,,,,,,,,,,,,221,25,Male,2022-05-20_15h25.00.658,Main,2022.1.1,60.01676868523613,
positive,yellow,1,None,k,,,,,1,19,39,19,,,,,,,,,,,,,,,,,,,,,,,,,,,,,,,,,,,,,,,,,prac,k,k,1,3.642918099999406,316.3189916000001,None,None,0,,,,,,,,,,,,,,221,25,Male,2022-05-20_15h25.00.658,Main,2022.1.1,60.01676868523613,
,,,,,,,,,,,,,,,,,,,,,,,,,,,,,,,,,,,,,,,,,,,,,,,,,,,,,,,,,,,,,,321.97777660000065,None,321.97777660000065,None,0.05277778,-0.019444445,0,0,0,0.01598336000006384,None,,,221,25,Male,2022-05-20_15h25.00.658,Main,2022.1.1,60.01676868523613,
negative,yellow,2,k,None,,,,,,,,,0,0,0,0,,,,,,,,,,,,,,,,,,,,,,,,,,,,,,,,,327.81693240000004,None,327.81693240000004,None,main,None,None,1,1.5027368000000934,329.8773561000007,None,None,1,,,,,,,,,,,,,,221,25,Male,2022-05-20_15h25.00.658,Main,2022.1.1,60.01676868523613,
positive,red,1,None,None,,,,,,,,,0,1,1,1,,,,,,,,,,,,,,,,,,,,,,,,,,,,,,,,,,,,,main,None,None,1,1.508368299999347,332.3850162000008,None,None,1,,,,,,,,,,,,,,221,25,Male,2022-05-20_15h25.00.658,Main,2022.1.1,60.01676868523613,
positive,blue,2,k,None,,,,,,,,,0,2,2,2,,,,,,,,,,,,,,,,,,,,,,,,,,,,,,,,,,,,,main,None,None,1,1.5003804999996646,334.89310020000084,None,None,1,,,,,,,,,,,,,,221,25,Male,2022-05-20_15h25.00.658,Main,2022.1.1,60.01676868523613,
positive,blue,1,k,None,,,,,,,,,0,3,3,3,,,,,,,,,,,,,,,,,,,,,,,,,,,,,,,,,,,,,main,None,None,1,1.5054746000005252,337.3945691000008,None,None,1,,,,,,,,,,,,,,221,25,Male,2022-05-20_15h25.00.658,Main,2022.1.1,60.01676868523613,
negative,yellow,2,k,None,,,,,,,,,0,4,4,4,,,,,,,,,,,,,,,,,,,,,,,,,,,,,,,,,,,,,main,None,k,0,1.3906643999998778,339.9035160000003,None,None,1,,,,,,,,,,,,,,221,25,Male,2022-05-20_15h25.00.658,Main,2022.1.1,60.01676868523613,
positive,yellow,2,None,k,,,,,,,,,0,5,5,5,,,,,,,,,,,,,,,,,,,,,,,,,,,,,,,,,,,,,main,k,k,1,1.3338203000002977,343.3105791000007,None,None,0,,,,,,,,,,,,,,221,25,Male,2022-05-20_15h25.00.658,Main,2022.1.1,60.01676868523613,
negative,blue,2,None,k,,,,,,,,,0,6,6,6,,,,,,,,,,,,,,,,,,,,,,,,,,,,,,,,,,,,,main,k,k,1,1.2041984999996203,345.64459700000043,None,None,0,,,,,,,,,,,,,,221,25,Male,2022-05-20_15h25.00.658,Main,2022.1.1,60.01676868523613,
positive,red,2,None,None,,,,,,,,,0,7,7,7,,,,,,,,,,,,,,,,,,,,,,,,,,,,,,,,,,,,,main,None,None,1,1.507600700000694,347.85144050000054,None,None,1,,,,,,,,,,,,,,221,25,Male,2022-05-20_15h25.00.658,Main,2022.1.1,60.01676868523613,
positive,yellow,1,None,k,,,,,,,,,0,8,8,8,,,,,,,,,,,,,,,,,,,,,,,,,,,,,,,,,,,,,main,k,k,1,4.80186859999958,350.35891680000077,None,None,0,,,,,,,,,,,,,,221,25,Male,2022-05-20_15h25.00.658,Main,2022.1.1,60.01676868523613,
negative,red,1,None,None,,,,,,,,,0,9,9,9,,,,,,,,,,,,,,,,,,,,,,,,,,,,,,,,,,,,,main,None,None,1,1.491189100000156,357.17537000000084,None,None,1,,,,,,,,,,,,,,221,25,Male,2022-05-20_15h25.00.658,Main,2022.1.1,60.01676868523613,
positive,yellow,1,None,k,,,,,,,,,0,10,10,10,,,,,,,,,,,,,,,,,,,,,,,,,,,,,,,,,,,,,main,k,k,1,1.2936798000000636,359.66800610000064,None,None,0,,,,,,,,,,,,,,221,25,Male,2022-05-20_15h25.00.658,Main,2022.1.1,60.01676868523613,
negative,yellow,1,k,None,,,,,,,,,0,11,11,11,,,,,,,,,,,,,,,,,,,,,,,,,,,,,,,,,,,,,main,None,None,1,1.510374800000136,361.96478750000006,None,None,1,,,,,,,,,,,,,,221,25,Male,2022-05-20_15h25.00.658,Main,2022.1.1,60.01676868523613,
negative,yellow,1,k,None,,,,,,,,,0,12,12,12,,,,,,,,,,,,,,,,,,,,,,,,,,,,,,,,,,,,,main,None,None,1,1.4958296000004339,364.4761898000006,None,None,1,,,,,,,,,,,,,,221,25,Male,2022-05-20_15h25.00.658,Main,2022.1.1,60.01676868523613,
negative,red,2,None,None,,,,,,,,,0,13,13,13,,,,,,,,,,,,,,,,,,,,,,,,,,,,,,,,,,,,,main,None,None,1,1.5038957999995546,366.97065460000067,None,None,1,,,,,,,,,,,,,,221,25,Male,2022-05-20_15h25.00.658,Main,2022.1.1,60.01676868523613,
positive,yellow,2,None,k,,,,,,,,,0,14,14,14,,,,,,,,,,,,,,,,,,,,,,,,,,,,,,,,,,,,,main,k,k,1,0.8652733999997508,369.4786883000006,None,None,0,,,,,,,,,,,,,,221,25,Male,2022-05-20_15h25.00.658,Main,2022.1.1,60.01676868523613,
positive,blue,1,k,None,,,,,,,,,0,15,15,15,,,,,,,,,,,,,,,,,,,,,,,,,,,,,,,,,,,,,main,None,None,1,1.497753399999965,371.34599590000016,None,None,1,,,,,,,,,,,,,,221,25,Male,2022-05-20_15h25.00.658,Main,2022.1.1,60.01676868523613,
negative,blue,1,None,k,,,,,,,,,0,16,16,16,,,,,,,,,,,,,,,,,,,,,,,,,,,,,,,,,,,,,main,k,k,1,1.0043555000002016,373.8444904000007,None,None,0,,,,,,,,,,,,,,221,25,Male,2022-05-20_15h25.00.658,Main,2022.1.1,60.01676868523613,
positive,blue,2,k,None,,,,,,,,,0,17,17,17,,,,,,,,,,,,,,,,,,,,,,,,,,,,,,,,,,,,,main,None,None,1,1.4995797999999922,375.85461140000007,None,None,1,,,,,,,,,,,,,,221,25,Male,2022-05-20_15h25.00.658,Main,2022.1.1,60.01676868523613,
negative,blue,2,None,k,,,,,,,,,0,18,18,18,,,,,,,,,,,,,,,,,,,,,,,,,,,,,,,,,,,,,main,k,k,1,1.1573733000004722,378.3509847000005,None,None,0,,,,,,,,,,,,,,221,25,Male,2022-05-20_15h25.00.658,Main,2022.1.1,60.01676868523613,
negative,blue,1,None,k,,,,,,,,,0,19,19,19,,,,,,,,,,,,,,,,,,,,,,,,,,,,,,,,,,,,,main,k,k,1,1.6956295999998474,380.51091500000075,None,None,0,,,,,,,,,,,,,,221,25,Male,2022-05-20_15h25.00.658,Main,2022.1.1,60.01676868523613,
negative,blue,1,None,k,,,,,,,,,0,20,20,20,,,,,,,,,,,,,,,,,,,,,,,,,,,,,,,,,,,,,main,k,k,1,0.8260933999999907,384.2221683000007,None,None,0,,,,,,,,,,,,,,221,25,Male,2022-05-20_15h25.00.658,Main,2022.1.1,60.01676868523613,
negative,blue,2,None,k,,,,,,,,,0,21,21,21,,,,,,,,,,,,,,,,,,,,,,,,,,,,,,,,,,,,,main,k,k,1,0.7773942000003444,386.04936870000074,None,None,0,,,,,,,,,,,,,,221,25,Male,2022-05-20_15h25.00.658,Main,2022.1.1,60.01676868523613,
negative,red,1,None,None,,,,,,,,,0,22,22,22,,,,,,,,,,,,,,,,,,,,,,,,,,,,,,,,,,,,,main,None,None,1,1.4944934999994075,387.8286089000003,None,None,1,,,,,,,,,,,,,,221,25,Male,2022-05-20_15h25.00.658,Main,2022.1.1,60.01676868523613,
positive,red,2,None,None,,,,,,,,,0,23,23,23,,,,,,,,,,,,,,,,,,,,,,,,,,,,,,,,,,,,,main,None,None,1,1.5012343999997029,390.3251478000002,None,None,1,,,,,,,,,,,,,,221,25,Male,2022-05-20_15h25.00.658,Main,2022.1.1,60.01676868523613,
negative,red,2,None,None,,,,,,,,,0,24,24,24,,,,,,,,,,,,,,,,,,,,,,,,,,,,,,,,,,,,,main,None,None,1,1.4981047000001126,392.8288338000002,None,None,1,,,,,,,,,,,,,,221,25,Male,2022-05-20_15h25.00.658,Main,2022.1.1,60.01676868523613,
positive,blue,2,k,None,,,,,,,,,0,25,25,25,,,,,,,,,,,,,,,,,,,,,,,,,,,,,,,,,,,,,main,None,None,1,1.4946238000002268,395.32863610000004,None,None,1,,,,,,,,,,,,,,221,25,Male,2022-05-20_15h25.00.658,Main,2022.1.1,60.01676868523613,
negative,yellow,1,k,None,,,,,,,,,0,26,26,26,,,,,,,,,,,,,,,,,,,,,,,,,,,,,,,,,,,,,main,None,None,1,1.5040489000002708,397.82553090000056,None,None,1,,,,,,,,,,,,,,221,25,Male,2022-05-20_15h25.00.658,Main,2022.1.1,60.01676868523613,
positive,blue,2,k,None,,,,,,,,,0,27,27,27,,,,,,,,,,,,,,,,,,,,,,,,,,,,,,,,,,,,,main,None,None,1,1.5013891999997213,400.3303992000001,None,None,1,,,,,,,,,,,,,,221,25,Male,2022-05-20_15h25.00.658,Main,2022.1.1,60.01676868523613,
negative,blue,2,None,k,,,,,,,,,0,28,28,28,,,,,,,,,,,,,,,,,,,,,,,,,,,,,,,,,,,,,main,k,k,1,2.0778745000006893,402.83285270000033,None,None,0,,,,,,,,,,,,,,221,25,Male,2022-05-20_15h25.00.658,Main,2022.1.1,60.01676868523613,
positive,red,1,None,None,,,,,,,,,0,29,29,29,,,,,,,,,,,,,,,,,,,,,,,,,,,,,,,,,,,,,main,None,None,1,1.4915635999996084,406.9191380000002,None,None,1,,,,,,,,,,,,,,221,25,Male,2022-05-20_15h25.00.658,Main,2022.1.1,60.01676868523613,
positive,blue,1,k,None,,,,,,,,,0,30,30,30,,,,,,,,,,,,,,,,,,,,,,,,,,,,,,,,,,,,,main,None,None,1,1.5020861000002697,409.41241490000084,None,None,1,,,,,,,,,,,,,,221,25,Male,2022-05-20_15h25.00.658,Main,2022.1.1,60.01676868523613,
positive,yellow,1,None,k,,,,,,,,,0,31,31,31,,,,,,,,,,,,,,,,,,,,,,,,,,,,,,,,,,,,,main,k,k,1,1.2833478000002287,411.9167711,None,None,0,,,,,,,,,,,,,,221,25,Male,2022-05-20_15h25.00.658,Main,2022.1.1,60.01676868523613,
negative,yellow,2,k,None,,,,,,,,,0,32,32,32,,,,,,,,,,,,,,,,,,,,,,,,,,,,,,,,,,,,,main,None,None,1,1.4964995000000272,414.20435480000015,None,None,1,,,,,,,,,,,,,,221,25,Male,2022-05-20_15h25.00.658,Main,2022.1.1,60.01676868523613,
negative,blue,1,None,k,,,,,,,,,0,33,33,33,,,,,,,,,,,,,,,,,,,,,,,,,,,,,,,,,,,,,main,k,k,1,0.8805241000000024,416.6999801000002,None,None,0,,,,,,,,,,,,,,221,25,Male,2022-05-20_15h25.00.658,Main,2022.1.1,60.01676868523613,
positive,blue,1,k,None,,,,,,,,,0,34,34,34,,,,,,,,,,,,,,,,,,,,,,,,,,,,,,,,,,,,,main,None,None,1,1.500217199999497,418.5817212000002,None,None,1,,,,,,,,,,,,,,221,25,Male,2022-05-20_15h25.00.658,Main,2022.1.1,60.01676868523613,
negative,yellow,1,k,None,,,,,,,,,0,35,35,35,,,,,,,,,,,,,,,,,,,,,,,,,,,,,,,,,,,,,main,None,None,1,1.5133953000004112,421.0835594,None,None,1,,,,,,,,,,,,,,221,25,Male,2022-05-20_15h25.00.658,Main,2022.1.1,60.01676868523613,
positive,yellow,2,None,k,,,,,,,,,0,36,36,36,,,,,,,,,,,,,,,,,,,,,,,,,,,,,,,,,,,,,main,k,k,1,0.8876872000000731,423.59861620000083,None,None,0,,,,,,,,,,,,,,221,25,Male,2022-05-20_15h25.00.658,Main,2022.1.1,60.01676868523613,
positive,yellow,2,None,k,,,,,,,,,0,37,37,37,,,,,,,,,,,,,,,,,,,,,,,,,,,,,,,,,,,,,main,k,k,1,0.8218914999997651,425.4897367000003,None,None,0,,,,,,,,,,,,,,221,25,Male,2022-05-20_15h25.00.658,Main,2022.1.1,60.01676868523613,
negative,yellow,2,k,None,,,,,,,,,0,38,38,38,,,,,,,,,,,,,,,,,,,,,,,,,,,,,,,,,,,,,main,None,None,1,1.5182158000006893,427.3134037000009,None,None,1,,,,,,,,,,,,,,221,25,Male,2022-05-20_15h25.00.658,Main,2022.1.1,60.01676868523613,
positive,yellow,1,None,k,,,,,,,,,0,39,39,39,,,,,,,,,,,,,,,,,,,,,,,,,,,,,,,,,,,,,main,k,k,1,1.420610499999384,429.83481500000016,None,None,0,,,,,,,,,,,,,,221,25,Male,2022-05-20_15h25.00.658,Main,2022.1.1,60.01676868523613,
negative,yellow,2,k,None,,,,,,,,,0,40,40,40,,,,,,,,,,,,,,,,,,,,,,,,,,,,,,,,,,,,,main,None,None,1,1.4998868000002403,432.2573411000003,None,None,1,,,,,,,,,,,,,,221,25,Male,2022-05-20_15h25.00.658,Main,2022.1.1,60.01676868523613,
positive,blue,2,k,None,,,,,,,,,0,41,41,41,,,,,,,,,,,,,,,,,,,,,,,,,,,,,,,,,,,,,main,None,None,1,1.5061279000001377,434.7580745000005,None,None,1,,,,,,,,,,,,,,221,25,Male,2022-05-20_15h25.00.658,Main,2022.1.1,60.01676868523613,
positive,blue,2,k,None,,,,,,,,,0,42,42,42,,,,,,,,,,,,,,,,,,,,,,,,,,,,,,,,,,,,,main,None,None,1,1.497457200000099,437.2658865000003,None,None,1,,,,,,,,,,,,,,221,25,Male,2022-05-20_15h25.00.658,Main,2022.1.1,60.01676868523613,
negative,blue,2,None,k,,,,,,,,,0,43,43,43,,,,,,,,,,,,,,,,,,,,,,,,,,,,,,,,,,,,,main,k,k,1,1.0494975999999951,439.7628164000007,None,None,0,,,,,,,,,,,,,,221,25,Male,2022-05-20_15h25.00.658,Main,2022.1.1,60.01676868523613,
negative,red,1,None,None,,,,,,,,,0,44,44,44,,,,,,,,,,,,,,,,,,,,,,,,,,,,,,,,,,,,,main,None,None,1,1.511082300000453,441.81635950000054,None,None,1,,,,,,,,,,,,,,221,25,Male,2022-05-20_15h25.00.658,Main,2022.1.1,60.01676868523613,
negative,yellow,1,k,None,,,,,,,,,0,45,45,45,,,,,,,,,,,,,,,,,,,,,,,,,,,,,,,,,,,,,main,None,None,1,1.5082621000001382,444.3279641000008,None,None,1,,,,,,,,,,,,,,221,25,Male,2022-05-20_15h25.00.658,Main,2022.1.1,60.01676868523613,
negative,yellow,1,k,None,,,,,,,,,0,46,46,46,,,,,,,,,,,,,,,,,,,,,,,,,,,,,,,,,,,,,main,None,None,1,1.4940353000001778,446.83893630000057,None,None,1,,,,,,,,,,,,,,221,25,Male,2022-05-20_15h25.00.658,Main,2022.1.1,60.01676868523613,
positive,red,1,None,None,,,,,,,,,0,47,47,47,,,,,,,,,,,,,,,,,,,,,,,,,,,,,,,,,,,,,main,None,None,1,1.4981648000002679,449.3354683000007,None,None,1,,,,,,,,,,,,,,221,25,Male,2022-05-20_15h25.00.658,Main,2022.1.1,60.01676868523613,
positive,yellow,1,None,k,,,,,,,,,0,48,48,48,,,,,,,,,,,,,,,,,,,,,,,,,,,,,,,,,,,,,main,k,k,1,1.1112935000001016,451.8347461000003,None,None,0,,,,,,,,,,,,,,221,25,Male,2022-05-20_15h25.00.658,Main,2022.1.1,60.01676868523613,
negative,blue,1,None,k,,,,,,,,,0,49,49,49,,,,,,,,,,,,,,,,,,,,,,,,,,,,,,,,,,,,,main,k,k,1,1.081617400000141,453.94806790000075,None,None,0,,,,,,,,,,,,,,221,25,Male,2022-05-20_15h25.00.658,Main,2022.1.1,60.01676868523613,
positive,yellow,2,None,k,,,,,,,,,0,50,50,50,,,,,,,,,,,,,,,,,,,,,,,,,,,,,,,,,,,,,main,k,k,1,1.3428776999999172,456.0308048000006,None,None,0,,,,,,,,,,,,,,221,25,Male,2022-05-20_15h25.00.658,Main,2022.1.1,60.01676868523613,
negative,blue,1,None,k,,,,,,,,,0,51,51,51,,,,,,,,,,,,,,,,,,,,,,,,,,,,,,,,,,,,,main,k,k,1,0.9833077000002959,458.3789035000009,None,None,0,,,,,,,,,,,,,,221,25,Male,2022-05-20_15h25.00.658,Main,2022.1.1,60.01676868523613,
positive,red,2,None,None,,,,,,,,,0,52,52,52,,,,,,,,,,,,,,,,,,,,,,,,,,,,,,,,,,,,,main,None,None,1,1.4981911000004402,460.3606335000004,None,None,1,,,,,,,,,,,,,,221,25,Male,2022-05-20_15h25.00.658,Main,2022.1.1,60.01676868523613,
positive,yellow,2,None,k,,,,,,,,,0,53,53,53,,,,,,,,,,,,,,,,,,,,,,,,,,,,,,,,,,,,,main,k,k,1,1.9908476999999039,462.8602666000006,None,None,0,,,,,,,,,,,,,,221,25,Male,2022-05-20_15h25.00.658,Main,2022.1.1,60.01676868523613,
negative,red,2,None,None,,,,,,,,,0,54,54,54,,,,,,,,,,,,,,,,,,,,,,,,,,,,,,,,,,,,,main,None,None,1,1.5050028999994538,466.8612927000004,None,None,1,,,,,,,,,,,,,,221,25,Male,2022-05-20_15h25.00.658,Main,2022.1.1,60.01676868523613,
positive,yellow,1,None,k,,,,,,,,,0,55,55,55,,,,,,,,,,,,,,,,,,,,,,,,,,,,,,,,,,,,,main,k,k,1,1.0438499000001684,469.36838810000063,None,None,0,,,,,,,,,,,,,,221,25,Male,2022-05-20_15h25.00.658,Main,2022.1.1,60.01676868523613,
negative,blue,2,None,k,,,,,,,,,0,56,56,56,,,,,,,,,,,,,,,,,,,,,,,,,,,,,,,,,,,,,main,k,k,1,1.1173939999998765,471.41442730000017,None,None,0,,,,,,,,,,,,,,221,25,Male,2022-05-20_15h25.00.658,Main,2022.1.1,60.01676868523613,
positive,blue,1,k,None,,,,,,,,,0,57,57,57,,,,,,,,,,,,,,,,,,,,,,,,,,,,,,,,,,,,,main,None,None,1,1.5108998000005158,473.5322948000003,None,None,1,,,,,,,,,,,,,,221,25,Male,2022-05-20_15h25.00.658,Main,2022.1.1,60.01676868523613,
positive,blue,1,k,None,,,,,,,,,0,58,58,58,,,,,,,,,,,,,,,,,,,,,,,,,,,,,,,,,,,,,main,None,None,1,1.4973822000001746,476.0428595000003,None,None,1,,,,,,,,,,,,,,221,25,Male,2022-05-20_15h25.00.658,Main,2022.1.1,60.01676868523613,
negative,yellow,2,k,None,,,,,,,,,0,59,59,59,,,,,,,,,,,,,,,,,,,,,,,,,,,,,,,,,,,,,main,None,None,1,1.4992143999998007,478.5426946000007,None,None,1,,,,,,,,,,,,,,221,25,Male,2022-05-20_15h25.00.658,Main,2022.1.1,60.01676868523613,
positive,red,2,None,None,,,,,,,,,0,60,60,60,,,,,,,,,,,,,,,,,,,,,,,,,,,,,,,,,,,,,main,None,None,1,1.5013470000003508,481.0444567000004,None,None,1,,,,,,,,,,,,,,221,25,Male,2022-05-20_15h25.00.658,Main,2022.1.1,60.01676868523613,
negative,yellow,1,k,None,,,,,,,,,0,61,61,61,,,,,,,,,,,,,,,,,,,,,,,,,,,,,,,,,,,,,main,None,k,0,1.08131880000019,483.54742160000023,None,None,1,,,,,,,,,,,,,,221,25,Male,2022-05-20_15h25.00.658,Main,2022.1.1,60.01676868523613,
negative,red,1,None,None,,,,,,,,,0,62,62,62,,,,,,,,,,,,,,,,,,,,,,,,,,,,,,,,,,,,,main,None,None,1,1.4983922000001257,486.6420224000003,None,None,1,,,,,,,,,,,,,,221,25,Male,2022-05-20_15h25.00.658,Main,2022.1.1,60.01676868523613,
negative,blue,1,None,k,,,,,,,,,0,63,63,63,,,,,,,,,,,,,,,,,,,,,,,,,,,,,,,,,,,,,main,k,k,1,1.0471165000008114,489.1401775000004,None,None,0,,,,,,,,,,,,,,221,25,Male,2022-05-20_15h25.00.658,Main,2022.1.1,60.01676868523613,
positive,blue,2,k,None,,,,,,,,,0,64,64,64,,,,,,,,,,,,,,,,,,,,,,,,,,,,,,,,,,,,,main,None,None,1,1.5005703000006179,491.1894159000003,None,None,1,,,,,,,,,,,,,,221,25,Male,2022-05-20_15h25.00.658,Main,2022.1.1,60.01676868523613,
negative,yellow,2,k,None,,,,,,,,,0,65,65,65,,,,,,,,,,,,,,,,,,,,,,,,,,,,,,,,,,,,,main,None,None,1,1.4966567000001305,493.69382960000075,None,None,1,,,,,,,,,,,,,,221,25,Male,2022-05-20_15h25.00.658,Main,2022.1.1,60.01676868523613,
positive,yellow,2,None,k,,,,,,,,,0,66,66,66,,,,,,,,,,,,,,,,,,,,,,,,,,,,,,,,,,,,,main,k,k,1,0.9539373999996315,496.1897714000006,None,None,0,,,,,,,,,,,,,,221,25,Male,2022-05-20_15h25.00.658,Main,2022.1.1,60.01676868523613,
positive,yellow,2,None,k,,,,,,,,,0,67,67,67,,,,,,,,,,,,,,,,,,,,,,,,,,,,,,,,,,,,,main,k,k,1,1.163612600000306,498.14772990000074,None,None,0,,,,,,,,,,,,,,221,25,Male,2022-05-20_15h25.00.658,Main,2022.1.1,60.01676868523613,
positive,red,1,None,None,,,,,,,,,0,68,68,68,,,,,,,,,,,,,,,,,,,,,,,,,,,,,,,,,,,,,main,None,None,1,1.497545700000046,500.3126957000004,None,None,1,,,,,,,,,,,,,,221,25,Male,2022-05-20_15h25.00.658,Main,2022.1.1,60.01676868523613,
positive,yellow,1,None,k,,,,,,,,,0,69,69,69,,,,,,,,,,,,,,,,,,,,,,,,,,,,,,,,,,,,,main,k,k,1,1.378518399999848,502.8116439000005,None,None,0,,,,,,,,,,,,,,221,25,Male,2022-05-20_15h25.00.658,Main,2022.1.1,60.01676868523613,
negative,yellow,2,k,None,,,,,,,,,0,70,70,70,,,,,,,,,,,,,,,,,,,,,,,,,,,,,,,,,,,,,main,None,None,1,1.4968837000005806,505.1892391000001,None,None,1,,,,,,,,,,,,,,221,25,Male,2022-05-20_15h25.00.658,Main,2022.1.1,60.01676868523613,
positive,yellow,1,None,k,,,,,,,,,0,71,71,71,,,,,,,,,,,,,,,,,,,,,,,,,,,,,,,,,,,,,main,k,k,1,1.126931599999807,507.6870936000005,None,None,0,,,,,,,,,,,,,,221,25,Male,2022-05-20_15h25.00.658,Main,2022.1.1,60.01676868523613,
negative,blue,1,None,k,,,,,,,,,0,72,72,72,,,,,,,,,,,,,,,,,,,,,,,,,,,,,,,,,,,,,main,k,k,1,1.1024324999998498,509.8212413000001,None,None,0,,,,,,,,,,,,,,221,25,Male,2022-05-20_15h25.00.658,Main,2022.1.1,60.01676868523613,
negative,red,2,None,None,,,,,,,,,0,73,73,73,,,,,,,,,,,,,,,,,,,,,,,,,,,,,,,,,,,,,main,None,None,1,1.5012455000005502,511.92169790000025,None,None,1,,,,,,,,,,,,,,221,25,Male,2022-05-20_15h25.00.658,Main,2022.1.1,60.01676868523613,
positive,blue,2,k,None,,,,,,,,,0,74,74,74,,,,,,,,,,,,,,,,,,,,,,,,,,,,,,,,,,,,,main,None,None,1,1.503279300000031,514.4270939000007,None,None,1,,,,,,,,,,,,,,221,25,Male,2022-05-20_15h25.00.658,Main,2022.1.1,60.01676868523613,
negative,blue,2,None,k,,,,,,,,,0,75,75,75,,,,,,,,,,,,,,,,,,,,,,,,,,,,,,,,,,,,,main,k,k,1,0.9817570000004707,516.9311777000003,None,None,0,,,,,,,,,,,,,,221,25,Male,2022-05-20_15h25.00.658,Main,2022.1.1,60.01676868523613,
negative,blue,2,None,k,,,,,,,,,0,76,76,76,,,,,,,,,,,,,,,,,,,,,,,,,,,,,,,,,,,,,main,k,k,1,1.1202597000001333,518.9150674000002,None,None,0,,,,,,,,,,,,,,221,25,Male,2022-05-20_15h25.00.658,Main,2022.1.1,60.01676868523613,
negative,yellow,1,k,None,,,,,,,,,0,77,77,77,,,,,,,,,,,,,,,,,,,,,,,,,,,,,,,,,,,,,main,None,None,1,1.499248500000249,521.0379010000006,None,None,1,,,,,,,,,,,,,,221,25,Male,2022-05-20_15h25.00.658,Main,2022.1.1,60.01676868523613,
positive,blue,1,k,None,,,,,,,,,0,78,78,78,,,,,,,,,,,,,,,,,,,,,,,,,,,,,,,,,,,,,main,None,None,1,1.5086339999998017,523.5365019000001,None,None,1,,,,,,,,,,,,,,221,25,Male,2022-05-20_15h25.00.658,Main,2022.1.1,60.01676868523613,
positive,blue,1,k,None,,,,,,,,,0,79,79,79,,,,,,,,,,,,,,,,,,,,,,,,,,,,,,,,,,,,,main,None,None,1,1.5026907999999821,526.0482731000002,None,None,1,,,,,,,,,,,,,,221,25,Male,2022-05-20_15h25.00.658,Main,2022.1.1,60.01676868523613,
positive,red,2,None,None,,,,,,,,,0,80,80,80,,,,,,,,,,,,,,,,,,,,,,,,,,,,,,,,,,,,,main,None,None,1,1.4998420000001715,528.5511260000003,None,None,1,,,,,,,,,,,,,,221,25,Male,2022-05-20_15h25.00.658,Main,2022.1.1,60.01676868523613,
positive,yellow,2,None,k,,,,,,,,,0,81,81,81,,,,,,,,,,,,,,,,,,,,,,,,,,,,,,,,,,,,,main,k,k,1,1.0863199000004897,531.0536113000007,None,None,0,,,,,,,,,,,,,,221,25,Male,2022-05-20_15h25.00.658,Main,2022.1.1,60.01676868523613,
positive,blue,1,k,None,,,,,,,,,0,82,82,82,,,,,,,,,,,,,,,,,,,,,,,,,,,,,,,,,,,,,main,None,None,1,1.4964178000000175,533.1426728000006,None,None,1,,,,,,,,,,,,,,221,25,Male,2022-05-20_15h25.00.658,Main,2022.1.1,60.01676868523613,
negative,yellow,2,k,None,,,,,,,,,0,83,83,83,,,,,,,,,,,,,,,,,,,,,,,,,,,,,,,,,,,,,main,None,None,1,1.5016337999995812,535.6395393000003,None,None,1,,,,,,,,,,,,,,221,25,Male,2022-05-20_15h25.00.658,Main,2022.1.1,60.01676868523613,
positive,blue,2,k,None,,,,,,,,,0,84,84,84,,,,,,,,,,,,,,,,,,,,,,,,,,,,,,,,,,,,,main,None,None,1,1.5038519999998243,538.1425108000003,None,None,1,,,,,,,,,,,,,,221,25,Male,2022-05-20_15h25.00.658,Main,2022.1.1,60.01676868523613,
positive,yellow,1,None,k,,,,,,,,,0,85,85,85,,,,,,,,,,,,,,,,,,,,,,,,,,,,,,,,,,,,,main,k,k,1,0.9335209999999279,540.6483318,None,None,0,,,,,,,,,,,,,,221,25,Male,2022-05-20_15h25.00.658,Main,2022.1.1,60.01676868523613,
positive,blue,2,k,None,,,,,,,,,0,86,86,86,,,,,,,,,,,,,,,,,,,,,,,,,,,,,,,,,,,,,main,None,None,1,1.5056304999998247,542.5854233,None,None,1,,,,,,,,,,,,,,221,25,Male,2022-05-20_15h25.00.658,Main,2022.1.1,60.01676868523613,
positive,blue,1,k,None,,,,,,,,,0,87,87,87,,,,,,,,,,,,,,,,,,,,,,,,,,,,,,,,,,,,,main,None,None,1,1.4954891999996107,545.0919876000007,None,None,1,,,,,,,,,,,,,,221,25,Male,2022-05-20_15h25.00.658,Main,2022.1.1,60.01676868523613,
negative,yellow,2,k,None,,,,,,,,,0,88,88,88,,,,,,,,,,,,,,,,,,,,,,,,,,,,,,,,,,,,,main,None,None,1,1.5048182999998971,547.5897901000008,None,None,1,,,,,,,,,,,,,,221,25,Male,2022-05-20_15h25.00.658,Main,2022.1.1,60.01676868523613,
negative,blue,2,None,k,,,,,,,,,0,89,89,89,,,,,,,,,,,,,,,,,,,,,,,,,,,,,,,,,,,,,main,k,k,1,1.50191360000008,550.0955432000001,None,None,0,,,,,,,,,,,,,,221,25,Male,2022-05-20_15h25.00.658,Main,2022.1.1,60.01676868523613,
positive,yellow,2,None,k,,,,,,,,,0,90,90,90,,,,,,,,,,,,,,,,,,,,,,,,,,,,,,,,,,,,,main,k,k,1,1.1693918999999369,553.6002520000002,None,None,0,,,,,,,,,,,,,,221,25,Male,2022-05-20_15h25.00.658,Main,2022.1.1,60.01676868523613,
negative,yellow,1,k,None,,,,,,,,,0,91,91,91,,,,,,,,,,,,,,,,,,,,,,,,,,,,,,,,,,,,,main,None,None,1,1.4977593999992678,555.7721176000005,None,None,1,,,,,,,,,,,,,,221,25,Male,2022-05-20_15h25.00.658,Main,2022.1.1,60.01676868523613,
negative,red,2,None,None,,,,,,,,,0,92,92,92,,,,,,,,,,,,,,,,,,,,,,,,,,,,,,,,,,,,,main,None,None,1,1.5105990000001839,558.2724019000007,None,None,1,,,,,,,,,,,,,,221,25,Male,2022-05-20_15h25.00.658,Main,2022.1.1,60.01676868523613,
negative,blue,2,None,k,,,,,,,,,0,93,93,93,,,,,,,,,,,,,,,,,,,,,,,,,,,,,,,,,,,,,main,k,k,1,1.1766369999995732,560.7809621000006,None,None,0,,,,,,,,,,,,,,221,25,Male,2022-05-20_15h25.00.658,Main,2022.1.1,60.01676868523613,
negative,blue,1,None,k,,,,,,,,,0,94,94,94,,,,,,,,,,,,,,,,,,,,,,,,,,,,,,,,,,,,,main,k,k,1,1.0845790000003035,562.9620999000008,None,None,0,,,,,,,,,,,,,,221,25,Male,2022-05-20_15h25.00.658,Main,2022.1.1,60.01676868523613,
negative,blue,1,None,k,,,,,,,,,0,95,95,95,,,,,,,,,,,,,,,,,,,,,,,,,,,,,,,,,,,,,main,k,k,1,0.8213218999999299,565.0466355000008,None,None,0,,,,,,,,,,,,,,221,25,Male,2022-05-20_15h25.00.658,Main,2022.1.1,60.01676868523613,
negative,red,1,None,None,,,,,,,,,0,96,96,96,,,,,,,,,,,,,,,,,,,,,,,,,,,,,,,,,,,,,main,None,None,1,1.5121294999999009,566.8717565000006,None,None,1,,,,,,,,,,,,,,221,25,Male,2022-05-20_15h25.00.658,Main,2022.1.1,60.01676868523613,
positive,yellow,1,None,k,,,,,,,,,0,97,97,97,,,,,,,,,,,,,,,,,,,,,,,,,,,,,,,,,,,,,main,k,k,1,1.006213800000296,569.3860045000001,None,None,0,,,,,,,,,,,,,,221,25,Male,2022-05-20_15h25.00.658,Main,2022.1.1,60.01676868523613,
negative,yellow,1,k,None,,,,,,,,,0,98,98,98,,,,,,,,,,,,,,,,,,,,,,,,,,,,,,,,,,,,,main,None,None,1,1.5014553999999407,571.3960707000006,None,None,1,,,,,,,,,,,,,,221,25,Male,2022-05-20_15h25.00.658,Main,2022.1.1,60.01676868523613,
positive,red,1,None,None,,,,,,,,,0,99,99,99,,,,,,,,,,,,,,,,,,,,,,,,,,,,,,,,,,,,,main,None,None,1,1.4982924999994793,573.8954687000005,None,None,1,,,,,,,,,,,,,,221,25,Male,2022-05-20_15h25.00.658,Main,2022.1.1,60.01676868523613,
positive,blue,1,k,None,,,,,,,,,0,100,100,100,,,,,,,,,,,,,,,,,,,,,,,,,,,,,,,,,,,,,main,None,None,1,1.5035342999999557,576.3953691000006,None,None,1,,,,,,,,,,,,,,221,25,Male,2022-05-20_15h25.00.658,Main,2022.1.1,60.01676868523613,
negative,yellow,1,k,None,,,,,,,,,0,101,101,101,,,,,,,,,,,,,,,,,,,,,,,,,,,,,,,,,,,,,main,None,None,1,1.4992017000004125,578.9027327000003,None,None,1,,,,,,,,,,,,,,221,25,Male,2022-05-20_15h25.00.658,Main,2022.1.1,60.01676868523613,
negative,blue,2,None,k,,,,,,,,,0,102,102,102,,,,,,,,,,,,,,,,,,,,,,,,,,,,,,,,,,,,,main,k,k,1,1.0436392000001433,581.4028816,None,None,0,,,,,,,,,,,,,,221,25,Male,2022-05-20_15h25.00.658,Main,2022.1.1,60.01676868523613,
negative,yellow,2,k,None,,,,,,,,,0,103,103,103,,,,,,,,,,,,,,,,,,,,,,,,,,,,,,,,,,,,,main,None,None,1,1.5098195999999007,583.4464710000002,None,None,1,,,,,,,,,,,,,,221,25,Male,2022-05-20_15h25.00.658,Main,2022.1.1,60.01676868523613,
positive,yellow,2,None,k,,,,,,,,,0,104,104,104,,,,,,,,,,,,,,,,,,,,,,,,,,,,,,,,,,,,,main,k,k,1,0.8669050999997125,585.9590329000002,None,None,0,,,,,,,,,,,,,,221,25,Male,2022-05-20_15h25.00.658,Main,2022.1.1,60.01676868523613,
positive,blue,1,k,None,,,,,,,,,0,105,105,105,,,,,,,,,,,,,,,,,,,,,,,,,,,,,,,,,,,,,main,None,None,1,1.5030079999996815,587.8273685000004,None,None,1,,,,,,,,,,,,,,221,25,Male,2022-05-20_15h25.00.658,Main,2022.1.1,60.01676868523613,
positive,blue,2,k,None,,,,,,,,,0,106,106,106,,,,,,,,,,,,,,,,,,,,,,,,,,,,,,,,,,,,,main,None,None,1,1.501433100000213,590.3342115000005,None,None,1,,,,,,,,,,,,,,221,25,Male,2022-05-20_15h25.00.658,Main,2022.1.1,60.01676868523613,
negative,blue,1,None,k,,,,,,,,,0,107,107,107,,,,,,,,,,,,,,,,,,,,,,,,,,,,,,,,,,,,,main,k,k,1,1.4556565999992017,592.8363144000004,None,None,0,,,,,,,,,,,,,,221,25,Male,2022-05-20_15h25.00.658,Main,2022.1.1,60.01676868523613,
positive,yellow,2,None,k,,,,,,,,,0,108,108,108,,,,,,,,,,,,,,,,,,,,,,,,,,,,,,,,,,,,,main,k,k,1,0.9496709999993982,595.2924888000007,None,None,0,,,,,,,,,,,,,,221,25,Male,2022-05-20_15h25.00.658,Main,2022.1.1,60.01676868523613,
negative,yellow,1,k,None,,,,,,,,,0,109,109,109,,,,,,,,,,,,,,,,,,,,,,,,,,,,,,,,,,,,,main,None,None,1,1.5072615999997652,597.2461580000008,None,None,1,,,,,,,,,,,,,,221,25,Male,2022-05-20_15h25.00.658,Main,2022.1.1,60.01676868523613,
negative,blue,2,None,k,,,,,,,,,0,110,110,110,,,,,,,,,,,,,,,,,,,,,,,,,,,,,,,,,,,,,main,k,k,1,0.9879333000008046,599.7557511000005,None,None,0,,,,,,,,,,,,,,221,25,Male,2022-05-20_15h25.00.658,Main,2022.1.1,60.01676868523613,
positive,blue,2,k,None,,,,,,,,,0,111,111,111,,,,,,,,,,,,,,,,,,,,,,,,,,,,,,,,,,,,,main,None,None,1,1.5021033000002717,601.7415580000006,None,None,1,,,,,,,,,,,,,,221,25,Male,2022-05-20_15h25.00.658,Main,2022.1.1,60.01676868523613,
negative,blue,1,None,k,,,,,,,,,0,112,112,112,,,,,,,,,,,,,,,,,,,,,,,,,,,,,,,,,,,,,main,k,k,1,1.0621805000000677,604.2471568000001,None,None,0,,,,,,,,,,,,,,221,25,Male,2022-05-20_15h25.00.658,Main,2022.1.1,60.01676868523613,
positive,yellow,1,None,k,,,,,,,,,0,113,113,113,,,,,,,,,,,,,,,,,,,,,,,,,,,,,,,,,,,,,main,k,k,1,1.3324185999999827,606.3082694000004,None,None,0,,,,,,,,,,,,,,221,25,Male,2022-05-20_15h25.00.658,Main,2022.1.1,60.01676868523613,
negative,red,1,None,None,,,,,,,,,0,114,114,114,,,,,,,,,,,,,,,,,,,,,,,,,,,,,,,,,,,,,main,None,None,1,1.5155131000001347,608.6429468000006,None,None,1,,,,,,,,,,,,,,221,25,Male,2022-05-20_15h25.00.658,Main,2022.1.1,60.01676868523613,
positive,red,1,None,None,,,,,,,,,0,115,115,115,,,,,,,,,,,,,,,,,,,,,,,,,,,,,,,,,,,,,main,None,None,1,1.5058343999999124,611.1599638000007,None,None,1,,,,,,,,,,,,,,221,25,Male,2022-05-20_15h25.00.658,Main,2022.1.1,60.01676868523613,
negative,red,2,None,None,,,,,,,,,0,116,116,116,,,,,,,,,,,,,,,,,,,,,,,,,,,,,,,,,,,,,main,None,None,1,1.5023188000004666,613.6684805000004,None,None,1,,,,,,,,,,,,,,221,25,Male,2022-05-20_15h25.00.658,Main,2022.1.1,60.01676868523613,
negative,yellow,2,k,None,,,,,,,,,0,117,117,117,,,,,,,,,,,,,,,,,,,,,,,,,,,,,,,,,,,,,main,None,None,1,1.509098599999561,616.1715716000008,None,None,1,,,,,,,,,,,,,,221,25,Male,2022-05-20_15h25.00.658,Main,2022.1.1,60.01676868523613,
positive,yellow,1,None,k,,,,,,,,,0,118,118,118,,,,,,,,,,,,,,,,,,,,,,,,,,,,,,,,,,,,,main,k,k,1,1.5896752999997261,618.6844840000003,None,None,0,,,,,,,,,,,,,,221,25,Male,2022-05-20_15h25.00.658,Main,2022.1.1,60.01676868523613,
positive,red,2,None,None,,,,,,,,,0,119,119,119,,,,,,,,,,,,,,,,,,,,,,,,,,,,,,,,,,,,,main,None,None,1,1.4892055000000255,622.2742736,None,None,1,,,,,,,,,,,,,,221,25,Male,2022-05-20_15h25.00.658,Main,2022.1.1,60.01676868523613,
positive,blue,2,k,None,,,,,,,,,0,120,120,120,,,,,,,,,,,,,,,,,,,,,,,,,,,,,,,,,,,,,main,None,None,1,1.5060644000004686,624.7654426000008,None,None,1,,,,,,,,,,,,,,221,25,Male,2022-05-20_15h25.00.658,Main,2022.1.1,60.01676868523613,
negative,red,1,None,None,,,,,,,,,0,121,121,121,,,,,,,,,,,,,,,,,,,,,,,,,,,,,,,,,,,,,main,None,None,1,1.500358999999662,627.2713039,None,None,1,,,,,,,,,,,,,,221,25,Male,2022-05-20_15h25.00.658,Main,2022.1.1,60.01676868523613,
positive,yellow,2,None,k,,,,,,,,,0,122,122,122,,,,,,,,,,,,,,,,,,,,,,,,,,,,,,,,,,,,,main,k,k,1,0.9912929000001895,629.7729085000001,None,None,0,,,,,,,,,,,,,,221,25,Male,2022-05-20_15h25.00.658,Main,2022.1.1,60.01676868523613,
negative,red,2,None,None,,,,,,,,,0,123,123,123,,,,,,,,,,,,,,,,,,,,,,,,,,,,,,,,,,,,,main,None,None,1,1.5094494999993913,631.7670344000007,None,None,1,,,,,,,,,,,,,,221,25,Male,2022-05-20_15h25.00.658,Main,2022.1.1,60.01676868523613,
negative,yellow,2,k,None,,,,,,,,,0,124,124,124,,,,,,,,,,,,,,,,,,,,,,,,,,,,,,,,,,,,,main,None,None,1,1.4980212000000392,634.2790696000002,None,None,1,,,,,,,,,,,,,,221,25,Male,2022-05-20_15h25.00.658,Main,2022.1.1,60.01676868523613,
positive,red,1,None,None,,,,,,,,,0,125,125,125,,,,,,,,,,,,,,,,,,,,,,,,,,,,,,,,,,,,,main,None,None,1,1.4966451000000234,636.7795514000009,None,None,1,,,,,,,,,,,,,,221,25,Male,2022-05-20_15h25.00.658,Main,2022.1.1,60.01676868523613,
negative,blue,2,None,k,,,,,,,,,0,126,126,126,,,,,,,,,,,,,,,,,,,,,,,,,,,,,,,,,,,,,main,k,k,1,1.2901529999999184,639.2778350000008,None,None,0,,,,,,,,,,,,,,221,25,Male,2022-05-20_15h25.00.658,Main,2022.1.1,60.01676868523613,
negative,blue,1,None,k,,,,,,,,,0,127,127,127,,,,,,,,,,,,,,,,,,,,,,,,,,,,,,,,,,,,,main,k,k,1,1.0183134999997492,641.5705483000002,None,None,0,,,,,,,,,,,,,,221,25,Male,2022-05-20_15h25.00.658,Main,2022.1.1,60.01676868523613,
negative,yellow,1,k,None,,,,,,,,,0,128,128,128,,,,,,,,,,,,,,,,,,,,,,,,,,,,,,,,,,,,,main,None,None,1,1.508642200000395,643.5902618,None,None,1,,,,,,,,,,,,,,221,25,Male,2022-05-20_15h25.00.658,Main,2022.1.1,60.01676868523613,
negative,yellow,1,k,None,,,,,,,,,0,129,129,129,,,,,,,,,,,,,,,,,,,,,,,,,,,,,,,,,,,,,main,None,None,1,1.500907300000108,646.1017152000004,None,None,1,,,,,,,,,,,,,,221,25,Male,2022-05-20_15h25.00.658,Main,2022.1.1,60.01676868523613,
positive,blue,1,k,None,,,,,,,,,0,130,130,130,,,,,,,,,,,,,,,,,,,,,,,,,,,,,,,,,,,,,main,None,None,1,1.5051694000003408,648.6042027000003,None,None,1,,,,,,,,,,,,,,221,25,Male,2022-05-20_15h25.00.658,Main,2022.1.1,60.01676868523613,
negative,blue,1,None,k,,,,,,,,,0,131,131,131,,,,,,,,,,,,,,,,,,,,,,,,,,,,,,,,,,,,,main,k,k,1,0.9278864999996586,651.1126334,None,None,0,,,,,,,,,,,,,,221,25,Male,2022-05-20_15h25.00.658,Main,2022.1.1,60.01676868523613,
negative,blue,2,None,k,,,,,,,,,0,132,132,132,,,,,,,,,,,,,,,,,,,,,,,,,,,,,,,,,,,,,main,k,k,1,0.9707841999997981,653.0427541000008,None,None,0,,,,,,,,,,,,,,221,25,Male,2022-05-20_15h25.00.658,Main,2022.1.1,60.01676868523613,
positive,blue,2,k,None,,,,,,,,,0,133,133,133,,,,,,,,,,,,,,,,,,,,,,,,,,,,,,,,,,,,,main,None,None,1,1.5032852000003913,655.0150754000006,None,None,1,,,,,,,,,,,,,,221,25,Male,2022-05-20_15h25.00.658,Main,2022.1.1,60.01676868523613,
positive,red,2,None,None,,,,,,,,,0,134,134,134,,,,,,,,,,,,,,,,,,,,,,,,,,,,,,,,,,,,,main,None,None,1,1.507595300000503,657.5171546000001,None,None,1,,,,,,,,,,,,,,221,25,Male,2022-05-20_15h25.00.658,Main,2022.1.1,60.01676868523613,
negative,yellow,2,k,None,,,,,,,,,0,135,135,135,,,,,,,,,,,,,,,,,,,,,,,,,,,,,,,,,,,,,main,None,None,1,1.5019529999999577,660.0275856000007,None,None,1,,,,,,,,,,,,,,221,25,Male,2022-05-20_15h25.00.658,Main,2022.1.1,60.01676868523613,
positive,yellow,2,None,k,,,,,,,,,0,136,136,136,,,,,,,,,,,,,,,,,,,,,,,,,,,,,,,,,,,,,main,k,k,1,0.8186764000001858,662.5313107000002,None,None,0,,,,,,,,,,,,,,221,25,Male,2022-05-20_15h25.00.658,Main,2022.1.1,60.01676868523613,
positive,blue,1,k,None,,,,,,,,,0,137,137,137,,,,,,,,,,,,,,,,,,,,,,,,,,,,,,,,,,,,,main,None,None,1,1.5095522999999957,664.3521020000007,None,None,1,,,,,,,,,,,,,,221,25,Male,2022-05-20_15h25.00.658,Main,2022.1.1,60.01676868523613,
positive,yellow,1,None,k,,,,,,,,,0,138,138,138,,,,,,,,,,,,,,,,,,,,,,,,,,,,,,,,,,,,,main,k,k,1,1.0554118999998536,666.8641325000008,None,None,0,,,,,,,,,,,,,,221,25,Male,2022-05-20_15h25.00.658,Main,2022.1.1,60.01676868523613,
positive,yellow,1,None,k,,,,,,,,,0,139,139,139,,,,,,,,,,,,,,,,,,,,,,,,,,,,,,,,,,,,,main,k,k,1,0.8138465000001815,668.9233217000001,None,None,0,,,,,,,,,,,,,,221,25,Male,2022-05-20_15h25.00.658,Main,2022.1.1,60.01676868523613,
positive,yellow,1,None,k,,,,,,,,,0,140,140,140,,,,,,,,,,,,,,,,,,,,,,,,,,,,,,,,,,,,,main,k,k,1,0.8148703000006208,670.7397910000009,None,None,0,,,,,,,,,,,,,,221,25,Male,2022-05-20_15h25.00.658,Main,2022.1.1,60.01676868523613,
positive,blue,1,k,None,,,,,,,,,0,141,141,141,,,,,,,,,,,,,,,,,,,,,,,,,,,,,,,,,,,,,main,None,None,1,1.50502299999971,672.5568660000008,None,None,1,,,,,,,,,,,,,,221,25,Male,2022-05-20_15h25.00.658,Main,2022.1.1,60.01676868523613,
positive,blue,2,k,None,,,,,,,,,0,142,142,142,,,,,,,,,,,,,,,,,,,,,,,,,,,,,,,,,,,,,main,None,None,1,1.4995443999996496,675.0614056000004,None,None,1,,,,,,,,,,,,,,221,25,Male,2022-05-20_15h25.00.658,Main,2022.1.1,60.01676868523613,
positive,yellow,2,None,k,,,,,,,,,0,143,143,143,,,,,,,,,,,,,,,,,,,,,,,,,,,,,,,,,,,,,main,k,k,1,1.1064851999999519,677.5633957,None,None,0,,,,,,,,,,,,,,221,25,Male,2022-05-20_15h25.00.658,Main,2022.1.1,60.01676868523613,
negative,yellow,2,k,None,,,,,,,,,0,144,144,144,,,,,,,,,,,,,,,,,,,,,,,,,,,,,,,,,,,,,main,None,None,1,1.499584899999718,679.6741806,None,None,1,,,,,,,,,,,,,,221,25,Male,2022-05-20_15h25.00.658,Main,2022.1.1,60.01676868523613,
negative,blue,2,None,k,,,,,,,,,0,145,145,145,,,,,,,,,,,,,,,,,,,,,,,,,,,,,,,,,,,,,main,k,k,1,0.9835368999993079,682.1748066,None,None,0,,,,,,,,,,,,,,221,25,Male,2022-05-20_15h25.00.658,Main,2022.1.1,60.01676868523613,
negative,red,1,None,None,,,,,,,,,0,146,146,146,,,,,,,,,,,,,,,,,,,,,,,,,,,,,,,,,,,,,main,None,None,1,1.5061982000006537,684.1592720000008,None,None,1,,,,,,,,,,,,,,221,25,Male,2022-05-20_15h25.00.658,Main,2022.1.1,60.01676868523613,
positive,blue,1,k,None,,,,,,,,,0,147,147,147,,,,,,,,,,,,,,,,,,,,,,,,,,,,,,,,,,,,,main,None,None,1,1.506890000000567,686.6671797000008,None,None,1,,,,,,,,,,,,,,221,25,Male,2022-05-20_15h25.00.658,Main,2022.1.1,60.01676868523613,
positive,yellow,1,None,k,,,,,,,,,0,148,148,148,,,,,,,,,,,,,,,,,,,,,,,,,,,,,,,,,,,,,main,k,k,1,0.9476610000001529,689.1747554000003,None,None,0,,,,,,,,,,,,,,221,25,Male,2022-05-20_15h25.00.658,Main,2022.1.1,60.01676868523613,
negative,red,2,None,None,,,,,,,,,0,149,149,149,,,,,,,,,,,,,,,,,,,,,,,,,,,,,,,,,,,,,main,None,None,1,1.5095285000006697,691.1243701000003,None,None,1,,,,,,,,,,,,,,221,25,Male,2022-05-20_15h25.00.658,Main,2022.1.1,60.01676868523613,
negative,blue,1,None,k,,,,,,,,,0,150,150,150,,,,,,,,,,,,,,,,,,,,,,,,,,,,,,,,,,,,,main,k,k,1,0.9166291999999885,693.6353517000007,None,None,0,,,,,,,,,,,,,,221,25,Male,2022-05-20_15h25.00.658,Main,2022.1.1,60.01676868523613,
negative,yellow,2,k,None,,,,,,,,,0,151,151,151,,,,,,,,,,,,,,,,,,,,,,,,,,,,,,,,,,,,,main,None,k,0,1.016225200000008,695.5538676000006,None,None,1,,,,,,,,,,,,,,221,25,Male,2022-05-20_15h25.00.658,Main,2022.1.1,60.01676868523613,
negative,blue,2,None,k,,,,,,,,,0,152,152,152,,,,,,,,,,,,,,,,,,,,,,,,,,,,,,,,,,,,,main,k,k,1,1.0021181000001889,698.5811071000007,None,None,0,,,,,,,,,,,,,,221,25,Male,2022-05-20_15h25.00.658,Main,2022.1.1,60.01676868523613,
negative,yellow,1,k,None,,,,,,,,,0,153,153,153,,,,,,,,,,,,,,,,,,,,,,,,,,,,,,,,,,,,,main,None,None,1,1.5017862000004243,700.5857906000001,None,None,1,,,,,,,,,,,,,,221,25,Male,2022-05-20_15h25.00.658,Main,2022.1.1,60.01676868523613,
negative,blue,1,None,k,,,,,,,,,0,154,154,154,,,,,,,,,,,,,,,,,,,,,,,,,,,,,,,,,,,,,main,k,k,1,0.7967699000000721,703.0886622000007,None,None,0,,,,,,,,,,,,,,221,25,Male,2022-05-20_15h25.00.658,Main,2022.1.1,60.01676868523613,
positive,yellow,2,None,k,,,,,,,,,0,155,155,155,,,,,,,,,,,,,,,,,,,,,,,,,,,,,,,,,,,,,main,k,k,1,1.0095884000002115,704.8879091000008,None,None,0,,,,,,,,,,,,,,221,25,Male,2022-05-20_15h25.00.658,Main,2022.1.1,60.01676868523613,
positive,red,2,None,None,,,,,,,,,0,156,156,156,,,,,,,,,,,,,,,,,,,,,,,,,,,,,,,,,,,,,main,None,None,1,1.5004879999996774,706.8964910000004,None,None,1,,,,,,,,,,,,,,221,25,Male,2022-05-20_15h25.00.658,Main,2022.1.1,60.01676868523613,
positive,red,1,None,None,,,,,,,,,0,157,157,157,,,,,,,,,,,,,,,,,,,,,,,,,,,,,,,,,,,,,main,None,None,1,1.5003577999996196,709.4021288000004,None,None,1,,,,,,,,,,,,,,221,25,Male,2022-05-20_15h25.00.658,Main,2022.1.1,60.01676868523613,
positive,blue,2,k,None,,,,,,,,,0,158,158,158,,,,,,,,,,,,,,,,,,,,,,,,,,,,,,,,,,,,,main,None,None,1,1.4951983000000837,711.9035312000005,None,None,1,,,,,,,,,,,,,,221,25,Male,2022-05-20_15h25.00.658,Main,2022.1.1,60.01676868523613,
negative,yellow,1,k,None,,,,,,,,,0,159,159,159,,,,,,,,,,,,,,,,,,,,,,,,,,,,,,,,,,,,,main,None,None,1,1.5027930999995078,714.4011014000007,None,None,1,,,,,,,,,,,,,,221,25,Male,2022-05-20_15h25.00.658,Main,2022.1.1,60.01676868523613,
negative,red,2,None,None,,,,,,,,,0,160,160,160,,,,,,,,,,,,,,,,,,,,,,,,,,,,,,,,,,,,,main,None,None,1,1.495947000000342,716.9046799000007,None,None,1,,,,,,,,,,,,,,221,25,Male,2022-05-20_15h25.00.658,Main,2022.1.1,60.01676868523613,
negative,blue,1,None,k,,,,,,,,,0,161,161,161,,,,,,,,,,,,,,,,,,,,,,,,,,,,,,,,,,,,,main,k,k,1,1.5240913999996337,719.4018490000008,None,None,0,,,,,,,,,,,,,,221,25,Male,2022-05-20_15h25.00.658,Main,2022.1.1,60.01676868523613,
negative,blue,1,None,k,,,,,,,,,0,162,162,162,,,,,,,,,,,,,,,,,,,,,,,,,,,,,,,,,,,,,main,k,k,1,0.9267900000004374,722.9281146000003,None,None,0,,,,,,,,,,,,,,221,25,Male,2022-05-20_15h25.00.658,Main,2022.1.1,60.01676868523613,
negative,yellow,1,k,None,,,,,,,,,0,163,163,163,,,,,,,,,,,,,,,,,,,,,,,,,,,,,,,,,,,,,main,None,None,1,1.506392500000402,724.8591860000006,None,None,1,,,,,,,,,,,,,,221,25,Male,2022-05-20_15h25.00.658,Main,2022.1.1,60.01676868523613,
negative,yellow,1,k,None,,,,,,,,,0,164,164,164,,,,,,,,,,,,,,,,,,,,,,,,,,,,,,,,,,,,,main,None,None,1,1.5104902000002767,727.3668212000002,None,None,1,,,,,,,,,,,,,,221,25,Male,2022-05-20_15h25.00.658,Main,2022.1.1,60.01676868523613,
positive,yellow,1,None,k,,,,,,,,,0,165,165,165,,,,,,,,,,,,,,,,,,,,,,,,,,,,,,,,,,,,,main,k,k,1,0.782974099999592,729.8775752000001,None,None,0,,,,,,,,,,,,,,221,25,Male,2022-05-20_15h25.00.658,Main,2022.1.1,60.01676868523613,
negative,red,1,None,None,,,,,,,,,0,166,166,166,,,,,,,,,,,,,,,,,,,,,,,,,,,,,,,,,,,,,main,None,None,1,1.495515399999931,731.6634666000009,None,None,1,,,,,,,,,,,,,,221,25,Male,2022-05-20_15h25.00.658,Main,2022.1.1,60.01676868523613,
negative,yellow,2,k,None,,,,,,,,,0,167,167,167,,,,,,,,,,,,,,,,,,,,,,,,,,,,,,,,,,,,,main,None,None,1,1.5098041000001103,734.1590310000001,None,None,1,,,,,,,,,,,,,,221,25,Male,2022-05-20_15h25.00.658,Main,2022.1.1,60.01676868523613,
positive,blue,2,k,None,,,,,,,,,0,168,168,168,,,,,,,,,,,,,,,,,,,,,,,,,,,,,,,,,,,,,main,None,None,1,1.5125940000007176,736.6716195000008,None,None,1,,,,,,,,,,,,,,221,25,Male,2022-05-20_15h25.00.658,Main,2022.1.1,60.01676868523613,
positive,red,2,None,None,,,,,,,,,0,169,169,169,,,,,,,,,,,,,,,,,,,,,,,,,,,,,,,,,,,,,main,None,None,1,1.495114299999841,739.1880322000006,None,None,1,,,,,,,,,,,,,,221,25,Male,2022-05-20_15h25.00.658,Main,2022.1.1,60.01676868523613,
positive,red,1,None,None,,,,,,,,,0,170,170,170,,,,,,,,,,,,,,,,,,,,,,,,,,,,,,,,,,,,,main,None,None,1,1.4934063000000606,741.6848310000005,None,None,1,,,,,,,,,,,,,,221,25,Male,2022-05-20_15h25.00.658,Main,2022.1.1,60.01676868523613,
negative,blue,2,None,k,,,,,,,,,0,171,171,171,,,,,,,,,,,,,,,,,,,,,,,,,,,,,,,,,,,,,main,k,k,1,1.0223790999998528,744.1810631000008,None,None,0,,,,,,,,,,,,,,221,25,Male,2022-05-20_15h25.00.658,Main,2022.1.1,60.01676868523613,
positive,blue,2,k,None,,,,,,,,,0,172,172,172,,,,,,,,,,,,,,,,,,,,,,,,,,,,,,,,,,,,,main,None,None,1,1.5077836000000389,746.2074287000005,None,None,1,,,,,,,,,,,,,,221,25,Male,2022-05-20_15h25.00.658,Main,2022.1.1,60.01676868523613,
negative,yellow,2,k,None,,,,,,,,,0,173,173,173,,,,,,,,,,,,,,,,,,,,,,,,,,,,,,,,,,,,,main,None,None,1,1.51132460000008,748.7153742,None,None,1,,,,,,,,,,,,,,221,25,Male,2022-05-20_15h25.00.658,Main,2022.1.1,60.01676868523613,
positive,yellow,2,None,k,,,,,,,,,0,174,174,174,,,,,,,,,,,,,,,,,,,,,,,,,,,,,,,,,,,,,main,k,k,1,0.8828037000002951,751.2283369000006,None,None,0,,,,,,,,,,,,,,221,25,Male,2022-05-20_15h25.00.658,Main,2022.1.1,60.01676868523613,
negative,blue,2,None,k,,,,,,,,,0,175,175,175,,,,,,,,,,,,,,,,,,,,,,,,,,,,,,,,,,,,,main,k,k,1,0.8377422999992632,753.1121175000007,None,None,0,,,,,,,,,,,,,,221,25,Male,2022-05-20_15h25.00.658,Main,2022.1.1,60.01676868523613,
positive,blue,1,k,None,,,,,,,,,0,176,176,176,,,,,,,,,,,,,,,,,,,,,,,,,,,,,,,,,,,,,main,None,None,1,1.4977342000001954,754.9515585000008,None,None,1,,,,,,,,,,,,,,221,25,Male,2022-05-20_15h25.00.658,Main,2022.1.1,60.01676868523613,
positive,yellow,1,None,k,,,,,,,,,0,177,177,177,,,,,,,,,,,,,,,,,,,,,,,,,,,,,,,,,,,,,main,k,k,1,0.980061599999317,757.4505155000006,None,None,0,,,,,,,,,,,,,,221,25,Male,2022-05-20_15h25.00.658,Main,2022.1.1,60.01676868523613,
positive,blue,1,k,None,,,,,,,,,0,178,178,178,,,,,,,,,,,,,,,,,,,,,,,,,,,,,,,,,,,,,main,None,None,1,1.5062014999994062,759.4325812000006,None,None,1,,,,,,,,,,,,,,221,25,Male,2022-05-20_15h25.00.658,Main,2022.1.1,60.01676868523613,
positive,yellow,2,None,k,,,,,,,,,0,179,179,179,,,,,,,,,,,,,,,,,,,,,,,,,,,,,,,,,,,,,main,k,k,1,0.9674122999995234,761.9401141000008,None,None,0,,,,,,,,,,,,,,221,25,Male,2022-05-20_15h25.00.658,Main,2022.1.1,60.01676868523613,
positive,blue,1,k,None,,,,,,,,,0,180,180,180,,,,,,,,,,,,,,,,,,,,,,,,,,,,,,,,,,,,,main,None,None,1,1.5092777999998361,763.9102414000008,None,None,1,,,,,,,,,,,,,,221,25,Male,2022-05-20_15h25.00.658,Main,2022.1.1,60.01676868523613,
negative,red,1,None,None,,,,,,,,,0,181,181,181,,,,,,,,,,,,,,,,,,,,,,,,,,,,,,,,,,,,,main,None,None,1,1.5001296000000366,766.4189079000007,None,None,1,,,,,,,,,,,,,,221,25,Male,2022-05-20_15h25.00.658,Main,2022.1.1,60.01676868523613,
negative,blue,1,None,k,,,,,,,,,0,182,182,182,,,,,,,,,,,,,,,,,,,,,,,,,,,,,,,,,,,,,main,k,k,1,1.0486048000002484,768.9213005000001,None,None,0,,,,,,,,,,,,,,221,25,Male,2022-05-20_15h25.00.658,Main,2022.1.1,60.01676868523613,
negative,yellow,2,k,None,,,,,,,,,0,183,183,183,,,,,,,,,,,,,,,,,,,,,,,,,,,,,,,,,,,,,main,None,None,1,1.500814399999399,770.9741509000005,None,None,1,,,,,,,,,,,,,,221,25,Male,2022-05-20_15h25.00.658,Main,2022.1.1,60.01676868523613,
positive,yellow,2,None,k,,,,,,,,,0,184,184,184,,,,,,,,,,,,,,,,,,,,,,,,,,,,,,,,,,,,,main,k,k,1,0.996404700000312,773.4753615000009,None,None,0,,,,,,,,,,,,,,221,25,Male,2022-05-20_15h25.00.658,Main,2022.1.1,60.01676868523613,
positive,yellow,1,None,k,,,,,,,,,0,185,185,185,,,,,,,,,,,,,,,,,,,,,,,,,,,,,,,,,,,,,main,k,k,1,0.9188299999996161,775.4716500000004,None,None,0,,,,,,,,,,,,,,221,25,Male,2022-05-20_15h25.00.658,Main,2022.1.1,60.01676868523613,
positive,red,2,None,None,,,,,,,,,0,186,186,186,,,,,,,,,,,,,,,,,,,,,,,,,,,,,,,,,,,,,main,None,None,1,1.4967664999994668,777.3936064000009,None,None,1,,,,,,,,,,,,,,221,25,Male,2022-05-20_15h25.00.658,Main,2022.1.1,60.01676868523613,
positive,blue,1,k,None,,,,,,,,,0,187,187,187,,,,,,,,,,,,,,,,,,,,,,,,,,,,,,,,,,,,,main,None,None,1,1.511528900000485,779.8940238000005,None,None,1,,,,,,,,,,,,,,221,25,Male,2022-05-20_15h25.00.658,Main,2022.1.1,60.01676868523613,
negative,yellow,1,k,None,,,,,,,,,0,188,188,188,,,,,,,,,,,,,,,,,,,,,,,,,,,,,,,,,,,,,main,None,None,1,1.4982434000003195,782.4035215000004,None,None,1,,,,,,,,,,,,,,221,25,Male,2022-05-20_15h25.00.658,Main,2022.1.1,60.01676868523613,
positive,yellow,2,None,k,,,,,,,,,0,189,189,189,,,,,,,,,,,,,,,,,,,,,,,,,,,,,,,,,,,,,main,k,k,1,1.0193632000000434,784.9036885000005,None,None,0,,,,,,,,,,,,,,221,25,Male,2022-05-20_15h25.00.658,Main,2022.1.1,60.01676868523613,
negative,yellow,2,k,None,,,,,,,,,0,190,190,190,,,,,,,,,,,,,,,,,,,,,,,,,,,,,,,,,,,,,main,None,None,1,1.51322700000037,786.9253699000001,None,None,1,,,,,,,,,,,,,,221,25,Male,2022-05-20_15h25.00.658,Main,2022.1.1,60.01676868523613,
negative,yellow,1,k,None,,,,,,,,,0,191,191,191,,,,,,,,,,,,,,,,,,,,,,,,,,,,,,,,,,,,,main,None,None,1,1.5076495000002978,789.4400749000006,None,None,1,,,,,,,,,,,,,,221,25,Male,2022-05-20_15h25.00.658,Main,2022.1.1,60.01676868523613,
positive,blue,2,k,None,,,,,,,,,0,192,192,192,,,,,,,,,,,,,,,,,,,,,,,,,,,,,,,,,,,,,main,None,None,1,1.5019007999999303,791.9506303000007,None,None,1,,,,,,,,,,,,,,221,25,Male,2022-05-20_15h25.00.658,Main,2022.1.1,60.01676868523613,
positive,yellow,1,None,k,,,,,,,,,0,193,193,193,,,,,,,,,,,,,,,,,,,,,,,,,,,,,,,,,,,,,main,k,k,1,1.6321475999993709,794.4560496000004,None,None,0,,,,,,,,,,,,,,221,25,Male,2022-05-20_15h25.00.658,Main,2022.1.1,60.01676868523613,
negative,red,2,None,None,,,,,,,,,0,194,194,194,,,,,,,,,,,,,,,,,,,,,,,,,,,,,,,,,,,,,main,None,None,1,1.4994531999991523,798.1016619000002,None,None,1,,,,,,,,,,,,,,221,25,Male,2022-05-20_15h25.00.658,Main,2022.1.1,60.01676868523613,
positive,red,1,None,None,,,,,,,,,0,195,195,195,,,,,,,,,,,,,,,,,,,,,,,,,,,,,,,,,,,,,main,None,None,1,1.5105161000001317,800.6043465000002,None,None,1,,,,,,,,,,,,,,221,25,Male,2022-05-20_15h25.00.658,Main,2022.1.1,60.01676868523613,
negative,blue,1,None,k,,,,,,,,,0,196,196,196,,,,,,,,,,,,,,,,,,,,,,,,,,,,,,,,,,,,,main,k,k,1,0.8952097999999751,803.1146254000005,None,None,0,,,,,,,,,,,,,,221,25,Male,2022-05-20_15h25.00.658,Main,2022.1.1,60.01676868523613,
positive,blue,2,k,None,,,,,,,,,0,197,197,197,,,,,,,,,,,,,,,,,,,,,,,,,,,,,,,,,,,,,main,None,None,1,1.5063522999998895,805.0156702000004,None,None,1,,,,,,,,,,,,,,221,25,Male,2022-05-20_15h25.00.658,Main,2022.1.1,60.01676868523613,
negative,blue,2,None,k,,,,,,,,,0,198,198,198,,,,,,,,,,,,,,,,,,,,,,,,,,,,,,,,,,,,,main,k,k,1,0.8357830999993894,807.5232078000008,None,None,0,,,,,,,,,,,,,,221,25,Male,2022-05-20_15h25.00.658,Main,2022.1.1,60.01676868523613,
negative,blue,2,None,k,,,,,,,,,0,199,199,199,,,,,,,,,,,,,,,,,,,,,,,,,,,,,,,,,,,,,main,k,k,1,3.9160477999994328,809.3599230000009,None,None,0,,,,,,,,,,,,,,221,25,Male,2022-05-20_15h25.00.658,Main,2022.1.1,60.01676868523613,
positive,blue,2,k,None,,,,,,,,,0,200,200,200,,,,,,,,,,,,,,,,,,,,,,,,,,,,,,,,,,,,,main,None,None,1,1.4973831999996037,815.2824764000006,None,None,1,,,,,,,,,,,,,,221,25,Male,2022-05-20_15h25.00.658,Main,2022.1.1,60.01676868523613,
positive,blue,2,k,None,,,,,,,,,0,201,201,201,,,,,,,,,,,,,,,,,,,,,,,,,,,,,,,,,,,,,main,None,None,1,1.5022937000003367,817.7799915000005,None,None,1,,,,,,,,,,,,,,221,25,Male,2022-05-20_15h25.00.658,Main,2022.1.1,60.01676868523613,
negative,yellow,2,k,None,,,,,,,,,0,202,202,202,,,,,,,,,,,,,,,,,,,,,,,,,,,,,,,,,,,,,main,None,None,1,1.5067674000001716,820.2861251000004,None,None,1,,,,,,,,,,,,,,221,25,Male,2022-05-20_15h25.00.658,Main,2022.1.1,60.01676868523613,
positive,red,1,None,None,,,,,,,,,0,203,203,203,,,,,,,,,,,,,,,,,,,,,,,,,,,,,,,,,,,,,main,None,None,1,1.501996699999836,822.7940502000001,None,None,1,,,,,,,,,,,,,,221,25,Male,2022-05-20_15h25.00.658,Main,2022.1.1,60.01676868523613,
negative,blue,2,None,k,,,,,,,,,0,204,204,204,,,,,,,,,,,,,,,,,,,,,,,,,,,,,,,,,,,,,main,k,k,1,1.0144961999994848,825.2969708,None,None,0,,,,,,,,,,,,,,221,25,Male,2022-05-20_15h25.00.658,Main,2022.1.1,60.01676868523613,
negative,red,1,None,None,,,,,,,,,0,205,205,205,,,,,,,,,,,,,,,,,,,,,,,,,,,,,,,,,,,,,main,None,None,1,1.4960874000007607,827.3159341,None,None,1,,,,,,,,,,,,,,221,25,Male,2022-05-20_15h25.00.658,Main,2022.1.1,60.01676868523613,
negative,blue,2,None,k,,,,,,,,,0,206,206,206,,,,,,,,,,,,,,,,,,,,,,,,,,,,,,,,,,,,,main,k,k,1,0.9232162999996945,829.8110677000004,None,None,0,,,,,,,,,,,,,,221,25,Male,2022-05-20_15h25.00.658,Main,2022.1.1,60.01676868523613,
negative,yellow,2,k,None,,,,,,,,,0,207,207,207,,,,,,,,,,,,,,,,,,,,,,,,,,,,,,,,,,,,,main,None,None,1,1.5064683000000514,831.7384871000004,None,None,1,,,,,,,,,,,,,,221,25,Male,2022-05-20_15h25.00.658,Main,2022.1.1,60.01676868523613,
positive,yellow,2,None,k,,,,,,,,,0,208,208,208,,,,,,,,,,,,,,,,,,,,,,,,,,,,,,,,,,,,,main,k,k,1,1.018695800000387,834.2438809000005,None,None,0,,,,,,,,,,,,,,221,25,Male,2022-05-20_15h25.00.658,Main,2022.1.1,60.01676868523613,
negative,yellow,1,k,None,,,,,,,,,0,209,209,209,,,,,,,,,,,,,,,,,,,,,,,,,,,,,,,,,,,,,main,None,None,1,1.4999797999998918,836.2664649000008,None,None,1,,,,,,,,,,,,,,221,25,Male,2022-05-20_15h25.00.658,Main,2022.1.1,60.01676868523613,
negative,red,2,None,None,,,,,,,,,0,210,210,210,,,,,,,,,,,,,,,,,,,,,,,,,,,,,,,,,,,,,main,None,None,1,1.4947722999995676,838.7690581000006,None,None,1,,,,,,,,,,,,,,221,25,Male,2022-05-20_15h25.00.658,Main,2022.1.1,60.01676868523613,
negative,blue,1,None,k,,,,,,,,,0,211,211,211,,,,,,,,,,,,,,,,,,,,,,,,,,,,,,,,,,,,,main,k,k,1,1.2262997999996514,841.2621643000002,None,None,0,,,,,,,,,,,,,,221,25,Male,2022-05-20_15h25.00.658,Main,2022.1.1,60.01676868523613,
negative,yellow,1,k,None,,,,,,,,,0,212,212,212,,,,,,,,,,,,,,,,,,,,,,,,,,,,,,,,,,,,,main,None,None,1,1.5001697999996395,843.4953689000004,None,None,1,,,,,,,,,,,,,,221,25,Male,2022-05-20_15h25.00.658,Main,2022.1.1,60.01676868523613,
positive,blue,1,k,None,,,,,,,,,0,213,213,213,,,,,,,,,,,,,,,,,,,,,,,,,,,,,,,,,,,,,main,None,None,1,1.5115638999996008,845.9936948000004,None,None,1,,,,,,,,,,,,,,221,25,Male,2022-05-20_15h25.00.658,Main,2022.1.1,60.01676868523613,
positive,blue,1,k,None,,,,,,,,,0,214,214,214,,,,,,,,,,,,,,,,,,,,,,,,,,,,,,,,,,,,,main,None,None,1,1.5034286999998585,848.5083196000005,None,None,1,,,,,,,,,,,,,,221,25,Male,2022-05-20_15h25.00.658,Main,2022.1.1,60.01676868523613,
positive,yellow,1,None,k,,,,,,,,,0,215,215,215,,,,,,,,,,,,,,,,,,,,,,,,,,,,,,,,,,,,,main,k,k,1,0.9653884999997899,851.0159625000006,None,None,0,,,,,,,,,,,,,,221,25,Male,2022-05-20_15h25.00.658,Main,2022.1.1,60.01676868523613,
positive,yellow,1,None,k,,,,,,,,,0,216,216,216,,,,,,,,,,,,,,,,,,,,,,,,,,,,,,,,,,,,,main,k,k,1,1.020502899999883,852.9834555000007,None,None,0,,,,,,,,,,,,,,221,25,Male,2022-05-20_15h25.00.658,Main,2022.1.1,60.01676868523613,
positive,yellow,2,None,k,,,,,,,,,0,217,217,217,,,,,,,,,,,,,,,,,,,,,,,,,,,,,,,,,,,,,main,k,k,1,0.8456944999998086,855.0089058000003,None,None,0,,,,,,,,,,,,,,221,25,Male,2022-05-20_15h25.00.658,Main,2022.1.1,60.01676868523613,
negative,blue,1,None,k,,,,,,,,,0,218,218,218,,,,,,,,,,,,,,,,,,,,,,,,,,,,,,,,,,,,,main,k,k,1,0.9178368000002592,856.8522645000003,None,None,0,,,,,,,,,,,,,,221,25,Male,2022-05-20_15h25.00.658,Main,2022.1.1,60.01676868523613,
positive,red,2,None,None,,,,,,,,,0,219,219,219,,,,,,,,,,,,,,,,,,,,,,,,,,,,,,,,,,,,,main,None,None,1,1.5040687999999136,858.7720048000001,None,None,1,,,,,,,,,,,,,,221,25,Male,2022-05-20_15h25.00.658,Main,2022.1.1,60.01676868523613,
positive,yellow,1,None,k,,,,,,,,,0,220,220,220,,,,,,,,,,,,,,,,,,,,,,,,,,,,,,,,,,,,,main,k,k,1,0.94467750000058,861.2751230000003,None,None,0,,,,,,,,,,,,,,221,25,Male,2022-05-20_15h25.00.658,Main,2022.1.1,60.01676868523613,
positive,blue,1,k,None,,,,,,,,,0,221,221,221,,,,,,,,,,,,,,,,,,,,,,,,,,,,,,,,,,,,,main,None,None,1,1.503691500000059,863.2233324000008,None,None,1,,,,,,,,,,,,,,221,25,Male,2022-05-20_15h25.00.658,Main,2022.1.1,60.01676868523613,
positive,yellow,2,None,k,,,,,,,,,0,222,222,222,,,,,,,,,,,,,,,,,,,,,,,,,,,,,,,,,,,,,main,k,k,1,0.9123947999996744,865.7303546000003,None,None,0,,,,,,,,,,,,,,221,25,Male,2022-05-20_15h25.00.658,Main,2022.1.1,60.01676868523613,
negative,yellow,1,k,None,,,,,,,,,0,223,223,223,,,,,,,,,,,,,,,,,,,,,,,,,,,,,,,,,,,,,main,None,None,1,1.5028354999994917,867.6418543,None,None,1,,,,,,,,,,,,,,221,25,Male,2022-05-20_15h25.00.658,Main,2022.1.1,60.01676868523613,
positive,yellow,2,None,k,,,,,,,,,0,224,224,224,,,,,,,,,,,,,,,,,,,,,,,,,,,,,,,,,,,,,main,k,k,1,0.9059972000013659,870.1502400000008,None,None,0,,,,,,,,,,,,,,221,25,Male,2022-05-20_15h25.00.658,Main,2022.1.1,60.01676868523613,
negative,yellow,2,k,None,,,,,,,,,0,225,225,225,,,,,,,,,,,,,,,,,,,,,,,,,,,,,,,,,,,,,main,None,None,1,1.4956323000005796,872.0557636000012,None,None,1,,,,,,,,,,,,,,221,25,Male,2022-05-20_15h25.00.658,Main,2022.1.1,60.01676868523613,
negative,blue,2,None,k,,,,,,,,,0,226,226,226,,,,,,,,,,,,,,,,,,,,,,,,,,,,,,,,,,,,,main,k,k,1,0.8665866999999707,874.5554850999997,None,None,0,,,,,,,,,,,,,,221,25,Male,2022-05-20_15h25.00.658,Main,2022.1.1,60.01676868523613,
positive,red,2,None,None,,,,,,,,,0,227,227,227,,,,,,,,,,,,,,,,,,,,,,,,,,,,,,,,,,,,,main,None,None,1,1.5141576999994868,876.4232253000009,None,None,1,,,,,,,,,,,,,,221,25,Male,2022-05-20_15h25.00.658,Main,2022.1.1,60.01676868523613,
positive,blue,2,k,None,,,,,,,,,0,228,228,228,,,,,,,,,,,,,,,,,,,,,,,,,,,,,,,,,,,,,main,None,None,1,1.498834899999565,878.9393794000007,None,None,1,,,,,,,,,,,,,,221,25,Male,2022-05-20_15h25.00.658,Main,2022.1.1,60.01676868523613,
negative,blue,1,None,k,,,,,,,,,0,229,229,229,,,,,,,,,,,,,,,,,,,,,,,,,,,,,,,,,,,,,main,k,k,1,0.8686842000006436,881.4395568,None,None,0,,,,,,,,,,,,,,221,25,Male,2022-05-20_15h25.00.658,Main,2022.1.1,60.01676868523613,
positive,yellow,1,None,k,,,,,,,,,0,230,230,230,,,,,,,,,,,,,,,,,,,,,,,,,,,,,,,,,,,,,main,k,k,1,0.962729799999579,883.3121171000003,None,None,0,,,,,,,,,,,,,,221,25,Male,2022-05-20_15h25.00.658,Main,2022.1.1,60.01676868523613,
negative,blue,2,None,k,,,,,,,,,0,231,231,231,,,,,,,,,,,,,,,,,,,,,,,,,,,,,,,,,,,,,main,k,k,1,1.0585300999991887,885.2758781000011,None,None,0,,,,,,,,,,,,,,221,25,Male,2022-05-20_15h25.00.658,Main,2022.1.1,60.01676868523613,
negative,red,1,None,None,,,,,,,,,0,232,232,232,,,,,,,,,,,,,,,,,,,,,,,,,,,,,,,,,,,,,main,None,None,1,1.5045528999999078,887.3382621000001,None,None,1,,,,,,,,,,,,,,221,25,Male,2022-05-20_15h25.00.658,Main,2022.1.1,60.01676868523613,
positive,blue,2,k,None,,,,,,,,,0,233,233,233,,,,,,,,,,,,,,,,,,,,,,,,,,,,,,,,,,,,,main,None,None,1,1.5048446000000695,889.8439343000009,None,None,1,,,,,,,,,,,,,,221,25,Male,2022-05-20_15h25.00.658,Main,2022.1.1,60.01676868523613,
negative,yellow,1,k,None,,,,,,,,,0,234,234,234,,,,,,,,,,,,,,,,,,,,,,,,,,,,,,,,,,,,,main,None,None,1,1.495658400001048,892.3496641000002,None,None,1,,,,,,,,,,,,,,221,25,Male,2022-05-20_15h25.00.658,Main,2022.1.1,60.01676868523613,
negative,yellow,2,k,None,,,,,,,,,0,235,235,235,,,,,,,,,,,,,,,,,,,,,,,,,,,,,,,,,,,,,main,None,None,1,1.5067039000005025,894.847994400001,None,None,1,,,,,,,,,,,,,,221,25,Male,2022-05-20_15h25.00.658,Main,2022.1.1,60.01676868523613,
positive,red,1,None,None,,,,,,,,,0,236,236,236,,,,,,,,,,,,,,,,,,,,,,,,,,,,,,,,,,,,,main,None,None,1,1.5081523999997444,897.3531856000009,None,None,1,,,,,,,,,,,,,,221,25,Male,2022-05-20_15h25.00.658,Main,2022.1.1,60.01676868523613,
negative,red,2,None,None,,,,,,,,,0,237,237,237,,,,,,,,,,,,,,,,,,,,,,,,,,,,,,,,,,,,,main,None,None,1,1.5096710999987408,899.864858500001,None,None,1,,,,,,,,,,,,,,221,25,Male,2022-05-20_15h25.00.658,Main,2022.1.1,60.01676868523613,
negative,blue,1,None,k,,,,,,,,,0,238,238,238,,,,,,,,,,,,,,,,,,,,,,,,,,,,,,,,,,,,,main,k,k,1,0.8632973999992828,902.3760935000009,None,None,0,,,,,,,,,,,,,,221,25,Male,2022-05-20_15h25.00.658,Main,2022.1.1,60.01676868523613,
positive,blue,1,k,None,,,,,,,,,0,239,239,239,,,,,,,,,,,,,,,,,,,,,,,,,,,,,,,,,,,,,main,None,None,1,1.501541300000099,904.2436976999998,None,None,1,,,,,,,,,,,,,,221,25,Male,2022-05-20_15h25.00.658,Main,2022.1.1,60.01676868523613,
,,,,,,,,,,,,,,,,,,,,,,,,,,,,,,,,,,,,,,,,,,,,,,,,,,,,,,,,,,,,,,,,,,,,,,,,,906.7355416999999,None,,,,,,,,
