distractor,target,set,ans1,ans2,rep_loop4.thisRepN,rep_loop4.thisTrialN,rep_loop4.thisN,rep_loop4.thisIndex,st2_prac_loop.thisRepN,st2_prac_loop.thisTrialN,st2_prac_loop.thisN,st2_prac_loop.thisIndex,st2_main_loop.thisRepN,st2_main_loop.thisTrialN,st2_main_loop.thisN,st2_main_loop.thisIndex,image_4.started,image_4.stopped,mouse_7.x,mouse_7.y,mouse_7.leftButton,mouse_7.midButton,mouse_7.rightButton,sound_2.started,sound_2.stopped,key_resp_3.keys,mouse_5.x,mouse_5.y,mouse_5.leftButton,mouse_5.midButton,mouse_5.rightButton,mouse_5.started,mouse_5.stopped,yes_text2.started,yes_text2.stopped,no_text2.started,no_text2.stopped,mouse_3.x,mouse_3.y,mouse_3.leftButton,mouse_3.midButton,mouse_3.rightButton,mouse_3.started,mouse_3.stopped,st_prac_back.started,st_prac_back.stopped,st_prac_text.started,st_prac_text.stopped,st_fix_back.started,st_fix_back.stopped,st_fix_2.started,st_fix_2.stopped,main_prac,st_ans,st_res,st_corr,st_rt,st_back.started,st_back.stopped,st2_resp.keys,st2_resp.corr,st_main_back.started,st_main_back.stopped,st_main_text.started,st_main_text.stopped,mouse_4.x,mouse_4.y,mouse_4.leftButton,mouse_4.midButton,mouse_4.rightButton,mouse_4.started,mouse_4.stopped,text_2.started,text_2.stopped,id*,age*,gender*,date,expName,psychopyVersion,frameRate,
,,,,,,,,,,,,,,,,,30.408161399999926,None,-0.016666668,-0.19907407,0,0,0,,,,,,,,,,,,,,,,,,,,,,,,,,,,,,,,,,,,,,,,,,,,,,,,,,,,222,21,Male,2022-05-23_14h05.01.493,Main,2022.1.1,60.008233129594615,
negative,yellow,1,k,None,,,,,0,0,0,0,,,,,,,,,,,,95.38465649999986,None,None,0.26944444,-0.4,0,0,0,1.003581899999972,None,97.65100849999999,None,97.65100849999999,None,-0.07037037,-0.08148148,0,0,0,0.01288820000013402,None,98.35469239999998,None,98.35469239999998,None,100.36521270000003,None,100.36521270000003,None,prac,k,k,1,52.10064620000003,102.40726139999992,None,None,0,,,,,,,,,,,,,,222,21,Male,2022-05-23_14h05.01.493,Main,2022.1.1,60.008233129594615,
positive,red,2,None,None,,,,,0,1,1,1,,,,,,,,,,,,,,,,,,,,,,,,,,,,,,,,,,,,,,,,,prac,None,None,1,1.5064483000001019,156.52138880000007,None,None,1,,,,,,,,,,,,,,222,21,Male,2022-05-23_14h05.01.493,Main,2022.1.1,60.008233129594615,
negative,blue,2,None,k,,,,,0,2,2,2,,,,,,,,,,,,,,,,,,,,,,,,,,,,,,,,,,,,,,,,,prac,None,None,1,1.5030891000001247,159.03132359999995,None,None,1,,,,,,,,,,,,,,222,21,Male,2022-05-23_14h05.01.493,Main,2022.1.1,60.008233129594615,
positive,yellow,1,None,k,,,,,0,3,3,3,,,,,,,,,,,,,,,,,,,,,,,,,,,,,,,,,,,,,,,,,prac,None,None,1,1.5120847999999114,161.53051549999986,None,None,1,,,,,,,,,,,,,,222,21,Male,2022-05-23_14h05.01.493,Main,2022.1.1,60.008233129594615,
negative,blue,2,None,k,,,,,0,4,4,4,,,,,,,,,,,,,,,,,,,,,,,,,,,,,,,,,,,,,,,,,prac,None,None,1,1.498669800000016,164.04952920000005,None,None,1,,,,,,,,,,,,,,222,21,Male,2022-05-23_14h05.01.493,Main,2022.1.1,60.008233129594615,
negative,blue,1,None,k,,,,,0,5,5,5,,,,,,,,,,,,,,,,,,,,,,,,,,,,,,,,,,,,,,,,,prac,None,None,1,1.498713600000201,166.54224520000002,None,None,1,,,,,,,,,,,,,,222,21,Male,2022-05-23_14h05.01.493,Main,2022.1.1,60.008233129594615,
negative,yellow,2,k,None,,,,,0,6,6,6,,,,,,,,,,,,,,,,,,,,,,,,,,,,,,,,,,,,,,,,,prac,k,k,1,1.4769145999998727,169.04216389999988,None,None,0,,,,,,,,,,,,,,222,21,Male,2022-05-23_14h05.01.493,Main,2022.1.1,60.008233129594615,
negative,red,1,None,None,,,,,0,7,7,7,,,,,,,,,,,,,,,,,,,,,,,,,,,,,,,,,,,,,,,,,prac,None,None,1,1.5026729999999588,171.5314289999999,None,None,1,,,,,,,,,,,,,,222,21,Male,2022-05-23_14h05.01.493,Main,2022.1.1,60.008233129594615,
positive,yellow,2,None,k,,,,,0,8,8,8,,,,,,,,,,,,,,,,,,,,,,,,,,,,,,,,,,,,,,,,,prac,None,None,1,1.5087035999999898,174.03289790000008,None,None,1,,,,,,,,,,,,,,222,21,Male,2022-05-23_14h05.01.493,Main,2022.1.1,60.008233129594615,
negative,yellow,1,k,None,,,,,0,9,9,9,,,,,,,,,,,,,,,,,,,,,,,,,,,,,,,,,,,,,,,,,prac,k,k,1,36.8332461,176.53893679999987,None,None,0,,,,,,,,,,,,,,222,21,Male,2022-05-23_14h05.01.493,Main,2022.1.1,60.008233129594615,
positive,yellow,2,None,k,,,,,0,10,10,10,,,,,,,,,,,,,,,,,,,,,,,,,,,,,,,,,,,,,,,,,prac,None,None,1,1.4928826999998819,215.3883040999999,None,None,1,,,,,,,,,,,,,,222,21,Male,2022-05-23_14h05.01.493,Main,2022.1.1,60.008233129594615,
negative,yellow,2,k,None,,,,,0,11,11,11,,,,,,,,,,,,,,,,,,,,,,,,,,,,,,,,,,,,,,,,,prac,k,k,1,1.3776216999999633,217.88388800000007,None,None,0,,,,,,,,,,,,,,222,21,Male,2022-05-23_14h05.01.493,Main,2022.1.1,60.008233129594615,
negative,red,2,None,None,,,,,0,12,12,12,,,,,,,,,,,,,,,,,,,,,,,,,,,,,,,,,,,,,,,,,prac,None,None,1,1.5112887999998748,220.26477299999988,None,None,1,,,,,,,,,,,,,,222,21,Male,2022-05-23_14h05.01.493,Main,2022.1.1,60.008233129594615,
positive,red,1,None,None,,,,,0,13,13,13,,,,,,,,,,,,,,,,,,,,,,,,,,,,,,,,,,,,,,,,,prac,None,None,1,1.4966902000001028,222.78368780000005,None,None,1,,,,,,,,,,,,,,222,21,Male,2022-05-23_14h05.01.493,Main,2022.1.1,60.008233129594615,
positive,blue,2,k,None,,,,,0,14,14,14,,,,,,,,,,,,,,,,,,,,,,,,,,,,,,,,,,,,,,,,,prac,k,k,1,1.0772601000001032,225.27694359999987,None,None,0,,,,,,,,,,,,,,222,21,Male,2022-05-23_14h05.01.493,Main,2022.1.1,60.008233129594615,
positive,blue,1,k,None,,,,,0,15,15,15,,,,,,,,,,,,,,,,,,,,,,,,,,,,,,,,,,,,,,,,,prac,k,k,1,11.848653499999955,227.35437120000006,None,None,0,,,,,,,,,,,,,,222,21,Male,2022-05-23_14h05.01.493,Main,2022.1.1,60.008233129594615,
negative,blue,1,None,k,,,,,0,16,16,16,,,,,,,,,,,,,,,,,,,,,,,,,,,,,,,,,,,,,,,,,prac,None,None,1,1.4982652999999573,241.21885870000006,None,None,1,,,,,,,,,,,,,,222,21,Male,2022-05-23_14h05.01.493,Main,2022.1.1,60.008233129594615,
positive,blue,2,k,None,,,,,0,17,17,17,,,,,,,,,,,,,,,,,,,,,,,,,,,,,,,,,,,,,,,,,prac,k,k,1,1.549126699999988,243.71791409999992,None,None,0,,,,,,,,,,,,,,222,21,Male,2022-05-23_14h05.01.493,Main,2022.1.1,60.008233129594615,
positive,blue,1,k,None,,,,,0,18,18,18,,,,,,,,,,,,,,,,,,,,,,,,,,,,,,,,,,,,,,,,,prac,k,k,1,3.0961222999999336,247.2852734999999,None,None,0,,,,,,,,,,,,,,222,21,Male,2022-05-23_14h05.01.493,Main,2022.1.1,60.008233129594615,
positive,yellow,1,None,k,,,,,0,19,19,19,,,,,,,,,,,,,,,,,,,,,,,,,,,,,,,,,,,,,,,,,prac,None,None,1,1.4928323999999975,252.3843781999999,None,None,1,,,,,,,,,,,,,,222,21,Male,2022-05-23_14h05.01.493,Main,2022.1.1,60.008233129594615,
negative,yellow,1,k,None,,,,,1,0,20,0,,,,,,,,,,,,,,,,,,,,,,,,,,,,,,,,,,,,,,,,,prac,k,k,1,1.0186999000000014,254.87950180000007,None,None,0,,,,,,,,,,,,,,222,21,Male,2022-05-23_14h05.01.493,Main,2022.1.1,60.008233129594615,
positive,red,2,None,None,,,,,1,1,21,1,,,,,,,,,,,,,,,,,,,,,,,,,,,,,,,,,,,,,,,,,prac,None,None,1,1.5029327000002013,256.9001472,None,None,1,,,,,,,,,,,,,,222,21,Male,2022-05-23_14h05.01.493,Main,2022.1.1,60.008233129594615,
negative,blue,2,None,k,,,,,1,2,22,2,,,,,,,,,,,,,,,,,,,,,,,,,,,,,,,,,,,,,,,,,prac,None,None,1,1.502496100000144,259.40683779999995,None,None,1,,,,,,,,,,,,,,222,21,Male,2022-05-23_14h05.01.493,Main,2022.1.1,60.008233129594615,
positive,yellow,1,None,k,,,,,1,3,23,3,,,,,,,,,,,,,,,,,,,,,,,,,,,,,,,,,,,,,,,,,prac,None,None,1,1.5021260000000893,261.9114563999999,None,None,1,,,,,,,,,,,,,,222,21,Male,2022-05-23_14h05.01.493,Main,2022.1.1,60.008233129594615,
negative,blue,2,None,k,,,,,1,4,24,4,,,,,,,,,,,,,,,,,,,,,,,,,,,,,,,,,,,,,,,,,prac,None,None,1,1.5028532999999697,264.4142955,None,None,1,,,,,,,,,,,,,,222,21,Male,2022-05-23_14h05.01.493,Main,2022.1.1,60.008233129594615,
negative,blue,1,None,k,,,,,1,5,25,5,,,,,,,,,,,,,,,,,,,,,,,,,,,,,,,,,,,,,,,,,prac,None,None,1,1.498794500000031,266.92152020000003,None,None,1,,,,,,,,,,,,,,222,21,Male,2022-05-23_14h05.01.493,Main,2022.1.1,60.008233129594615,
negative,yellow,2,k,None,,,,,1,6,26,6,,,,,,,,,,,,,,,,,,,,,,,,,,,,,,,,,,,,,,,,,prac,k,k,1,1.3119893999999022,269.42131059999997,None,None,0,,,,,,,,,,,,,,222,21,Male,2022-05-23_14h05.01.493,Main,2022.1.1,60.008233129594615,
negative,red,1,None,None,,,,,1,7,27,7,,,,,,,,,,,,,,,,,,,,,,,,,,,,,,,,,,,,,,,,,prac,None,None,1,1.49529050000001,271.7347778000001,None,None,1,,,,,,,,,,,,,,222,21,Male,2022-05-23_14h05.01.493,Main,2022.1.1,60.008233129594615,
positive,yellow,2,None,k,,,,,1,8,28,8,,,,,,,,,,,,,,,,,,,,,,,,,,,,,,,,,,,,,,,,,prac,None,None,1,1.5061359000001175,274.22949629999994,None,None,1,,,,,,,,,,,,,,222,21,Male,2022-05-23_14h05.01.493,Main,2022.1.1,60.008233129594615,
negative,yellow,1,k,None,,,,,1,9,29,9,,,,,,,,,,,,,,,,,,,,,,,,,,,,,,,,,,,,,,,,,prac,k,k,1,1.0938759000000573,276.74008260000005,None,None,0,,,,,,,,,,,,,,222,21,Male,2022-05-23_14h05.01.493,Main,2022.1.1,60.008233129594615,
positive,yellow,2,None,k,,,,,1,10,30,10,,,,,,,,,,,,,,,,,,,,,,,,,,,,,,,,,,,,,,,,,prac,None,None,1,1.5087378000000626,278.8358338999999,None,None,1,,,,,,,,,,,,,,222,21,Male,2022-05-23_14h05.01.493,Main,2022.1.1,60.008233129594615,
negative,yellow,2,k,None,,,,,1,11,31,11,,,,,,,,,,,,,,,,,,,,,,,,,,,,,,,,,,,,,,,,,prac,k,k,1,1.1090409999999338,281.34486530000004,None,None,0,,,,,,,,,,,,,,222,21,Male,2022-05-23_14h05.01.493,Main,2022.1.1,60.008233129594615,
negative,red,2,None,None,,,,,1,12,32,12,,,,,,,,,,,,,,,,,,,,,,,,,,,,,,,,,,,,,,,,,prac,None,None,1,1.4972605000000385,283.45725489999995,None,None,1,,,,,,,,,,,,,,222,21,Male,2022-05-23_14h05.01.493,Main,2022.1.1,60.008233129594615,
positive,red,1,None,None,,,,,1,13,33,13,,,,,,,,,,,,,,,,,,,,,,,,,,,,,,,,,,,,,,,,,prac,None,None,1,1.5025712999999996,285.9558878999999,None,None,1,,,,,,,,,,,,,,222,21,Male,2022-05-23_14h05.01.493,Main,2022.1.1,60.008233129594615,
positive,blue,2,k,None,,,,,1,14,34,14,,,,,,,,,,,,,,,,,,,,,,,,,,,,,,,,,,,,,,,,,prac,k,k,1,1.1033773999999994,288.4586374999999,None,None,0,,,,,,,,,,,,,,222,21,Male,2022-05-23_14h05.01.493,Main,2022.1.1,60.008233129594615,
positive,blue,1,k,None,,,,,1,15,35,15,,,,,,,,,,,,,,,,,,,,,,,,,,,,,,,,,,,,,,,,,prac,k,k,1,1.4454477000001589,290.56566829999997,None,None,0,,,,,,,,,,,,,,222,21,Male,2022-05-23_14h05.01.493,Main,2022.1.1,60.008233129594615,
negative,blue,1,None,k,,,,,1,16,36,16,,,,,,,,,,,,,,,,,,,,,,,,,,,,,,,,,,,,,,,,,prac,None,None,1,1.5088944999999967,293.010663,None,None,1,,,,,,,,,,,,,,222,21,Male,2022-05-23_14h05.01.493,Main,2022.1.1,60.008233129594615,
positive,blue,2,k,None,,,,,1,17,37,17,,,,,,,,,,,,,,,,,,,,,,,,,,,,,,,,,,,,,,,,,prac,k,k,1,1.250735099999929,295.52361730000007,None,None,0,,,,,,,,,,,,,,222,21,Male,2022-05-23_14h05.01.493,Main,2022.1.1,60.008233129594615,
positive,blue,1,k,None,,,,,1,18,38,18,,,,,,,,,,,,,,,,,,,,,,,,,,,,,,,,,,,,,,,,,prac,k,k,1,1.1172160999999505,297.77563340000006,None,None,0,,,,,,,,,,,,,,222,21,Male,2022-05-23_14h05.01.493,Main,2022.1.1,60.008233129594615,
positive,yellow,1,None,k,,,,,1,19,39,19,,,,,,,,,,,,,,,,,,,,,,,,,,,,,,,,,,,,,,,,,prac,None,None,1,1.508724999999913,299.8966528000001,None,None,1,,,,,,,,,,,,,,222,21,Male,2022-05-23_14h05.01.493,Main,2022.1.1,60.008233129594615,
,,,,,,,,,,,,,,,,,,,,,,,,,,,,,,,,,,,,,,,,,,,,,,,,,,,,,,,,,,,,,,302.4210530999999,None,302.4210530999999,None,0.22777778,-0.18611111,0,0,0,0.00876679999987573,None,,,222,21,Male,2022-05-23_14h05.01.493,Main,2022.1.1,60.008233129594615,
negative,yellow,2,k,None,,,,,,,,,0,0,0,0,,,,,,,,,,,,,,,,,,,,,,,,,,,,,,,,,313.9593932,None,313.9593932,None,main,k,k,1,1.0146934000001693,316.0424713,None,None,0,,,,,,,,,,,,,,222,21,Male,2022-05-23_14h05.01.493,Main,2022.1.1,60.008233129594615,
positive,red,1,None,None,,,,,,,,,0,1,1,1,,,,,,,,,,,,,,,,,,,,,,,,,,,,,,,,,,,,,main,None,None,1,1.5048982000000706,318.0620085999999,None,None,1,,,,,,,,,,,,,,222,21,Male,2022-05-23_14h05.01.493,Main,2022.1.1,60.008233129594615,
positive,blue,2,k,None,,,,,,,,,0,2,2,2,,,,,,,,,,,,,,,,,,,,,,,,,,,,,,,,,,,,,main,k,k,1,1.0837927000000036,320.56762389999994,None,None,0,,,,,,,,,,,,,,222,21,Male,2022-05-23_14h05.01.493,Main,2022.1.1,60.008233129594615,
positive,blue,1,k,None,,,,,,,,,0,3,3,3,,,,,,,,,,,,,,,,,,,,,,,,,,,,,,,,,,,,,main,k,k,1,1.218830300000036,322.6543348,None,None,0,,,,,,,,,,,,,,222,21,Male,2022-05-23_14h05.01.493,Main,2022.1.1,60.008233129594615,
negative,yellow,2,k,None,,,,,,,,,0,4,4,4,,,,,,,,,,,,,,,,,,,,,,,,,,,,,,,,,,,,,main,k,k,1,1.064512299999933,324.8737690999999,None,None,0,,,,,,,,,,,,,,222,21,Male,2022-05-23_14h05.01.493,Main,2022.1.1,60.008233129594615,
positive,yellow,2,None,k,,,,,,,,,0,5,5,5,,,,,,,,,,,,,,,,,,,,,,,,,,,,,,,,,,,,,main,None,None,1,1.5087237999998706,326.9398363,None,None,1,,,,,,,,,,,,,,222,21,Male,2022-05-23_14h05.01.493,Main,2022.1.1,60.008233129594615,
negative,blue,2,None,k,,,,,,,,,0,6,6,6,,,,,,,,,,,,,,,,,,,,,,,,,,,,,,,,,,,,,main,None,None,1,1.4973141000000396,329.4515908000001,None,None,1,,,,,,,,,,,,,,222,21,Male,2022-05-23_14h05.01.493,Main,2022.1.1,60.008233129594615,
positive,red,2,None,None,,,,,,,,,0,7,7,7,,,,,,,,,,,,,,,,,,,,,,,,,,,,,,,,,,,,,main,None,None,1,1.5024398999998994,331.95334690000004,None,None,1,,,,,,,,,,,,,,222,21,Male,2022-05-23_14h05.01.493,Main,2022.1.1,60.008233129594615,
positive,yellow,1,None,k,,,,,,,,,0,8,8,8,,,,,,,,,,,,,,,,,,,,,,,,,,,,,,,,,,,,,main,None,None,1,1.5062775999999758,334.4591106999999,None,None,1,,,,,,,,,,,,,,222,21,Male,2022-05-23_14h05.01.493,Main,2022.1.1,60.008233129594615,
negative,red,1,None,None,,,,,,,,,0,9,9,9,,,,,,,,,,,,,,,,,,,,,,,,,,,,,,,,,,,,,main,None,None,1,1.502875099999983,336.96657920000007,None,None,1,,,,,,,,,,,,,,222,21,Male,2022-05-23_14h05.01.493,Main,2022.1.1,60.008233129594615,
positive,yellow,1,None,k,,,,,,,,,0,10,10,10,,,,,,,,,,,,,,,,,,,,,,,,,,,,,,,,,,,,,main,None,None,1,1.5042212999999265,339.4694724000001,None,None,1,,,,,,,,,,,,,,222,21,Male,2022-05-23_14h05.01.493,Main,2022.1.1,60.008233129594615,
negative,yellow,1,k,None,,,,,,,,,0,11,11,11,,,,,,,,,,,,,,,,,,,,,,,,,,,,,,,,,,,,,main,k,k,1,1.1059605999998894,341.9775829,None,None,0,,,,,,,,,,,,,,222,21,Male,2022-05-23_14h05.01.493,Main,2022.1.1,60.008233129594615,
negative,yellow,1,k,None,,,,,,,,,0,12,12,12,,,,,,,,,,,,,,,,,,,,,,,,,,,,,,,,,,,,,main,k,k,1,1.0092586000000665,344.08420580000006,None,None,0,,,,,,,,,,,,,,222,21,Male,2022-05-23_14h05.01.493,Main,2022.1.1,60.008233129594615,
negative,red,2,None,None,,,,,,,,,0,13,13,13,,,,,,,,,,,,,,,,,,,,,,,,,,,,,,,,,,,,,main,None,None,1,1.5008293999999296,346.09684390000007,None,None,1,,,,,,,,,,,,,,222,21,Male,2022-05-23_14h05.01.493,Main,2022.1.1,60.008233129594615,
positive,yellow,2,None,k,,,,,,,,,0,14,14,14,,,,,,,,,,,,,,,,,,,,,,,,,,,,,,,,,,,,,main,None,None,1,1.5104278999999678,348.59935819999987,None,None,1,,,,,,,,,,,,,,222,21,Male,2022-05-23_14h05.01.493,Main,2022.1.1,60.008233129594615,
positive,blue,1,k,None,,,,,,,,,0,15,15,15,,,,,,,,,,,,,,,,,,,,,,,,,,,,,,,,,,,,,main,k,k,1,1.473318000000063,351.1131316000001,None,None,0,,,,,,,,,,,,,,222,21,Male,2022-05-23_14h05.01.493,Main,2022.1.1,60.008233129594615,
negative,blue,1,None,k,,,,,,,,,0,16,16,16,,,,,,,,,,,,,,,,,,,,,,,,,,,,,,,,,,,,,main,None,None,1,1.511292999999796,353.5862382999999,None,None,1,,,,,,,,,,,,,,222,21,Male,2022-05-23_14h05.01.493,Main,2022.1.1,60.008233129594615,
positive,blue,2,k,None,,,,,,,,,0,17,17,17,,,,,,,,,,,,,,,,,,,,,,,,,,,,,,,,,,,,,main,k,k,1,0.9831856000000698,356.0995493999999,None,None,0,,,,,,,,,,,,,,222,21,Male,2022-05-23_14h05.01.493,Main,2022.1.1,60.008233129594615,
negative,blue,2,None,k,,,,,,,,,0,18,18,18,,,,,,,,,,,,,,,,,,,,,,,,,,,,,,,,,,,,,main,None,None,1,1.4969696999999087,358.08671619999996,None,None,1,,,,,,,,,,,,,,222,21,Male,2022-05-23_14h05.01.493,Main,2022.1.1,60.008233129594615,
negative,blue,1,None,k,,,,,,,,,0,19,19,19,,,,,,,,,,,,,,,,,,,,,,,,,,,,,,,,,,,,,main,None,None,1,1.511728800000128,360.5829458999999,None,None,1,,,,,,,,,,,,,,222,21,Male,2022-05-23_14h05.01.493,Main,2022.1.1,60.008233129594615,
negative,blue,1,None,k,,,,,,,,,0,20,20,20,,,,,,,,,,,,,,,,,,,,,,,,,,,,,,,,,,,,,main,None,None,1,1.4968410000001313,363.0979401999998,None,None,1,,,,,,,,,,,,,,222,21,Male,2022-05-23_14h05.01.493,Main,2022.1.1,60.008233129594615,
negative,blue,2,None,k,,,,,,,,,0,21,21,21,,,,,,,,,,,,,,,,,,,,,,,,,,,,,,,,,,,,,main,None,None,1,1.5046081000000413,365.59773640000003,None,None,1,,,,,,,,,,,,,,222,21,Male,2022-05-23_14h05.01.493,Main,2022.1.1,60.008233129594615,
negative,red,1,None,None,,,,,,,,,0,22,22,22,,,,,,,,,,,,,,,,,,,,,,,,,,,,,,,,,,,,,main,None,None,1,1.508364299999812,368.10599219999995,None,None,1,,,,,,,,,,,,,,222,21,Male,2022-05-23_14h05.01.493,Main,2022.1.1,60.008233129594615,
positive,red,2,None,None,,,,,,,,,0,23,23,23,,,,,,,,,,,,,,,,,,,,,,,,,,,,,,,,,,,,,main,None,None,1,1.499100399999861,370.61434819999977,None,None,1,,,,,,,,,,,,,,222,21,Male,2022-05-23_14h05.01.493,Main,2022.1.1,60.008233129594615,
negative,red,2,None,None,,,,,,,,,0,24,24,24,,,,,,,,,,,,,,,,,,,,,,,,,,,,,,,,,,,,,main,None,None,1,1.4953287999996974,373.11552519999987,None,None,1,,,,,,,,,,,,,,222,21,Male,2022-05-23_14h05.01.493,Main,2022.1.1,60.008233129594615,
positive,blue,2,k,None,,,,,,,,,0,25,25,25,,,,,,,,,,,,,,,,,,,,,,,,,,,,,,,,,,,,,main,k,k,1,1.1664590000000317,375.6133031999998,None,None,0,,,,,,,,,,,,,,222,21,Male,2022-05-23_14h05.01.493,Main,2022.1.1,60.008233129594615,
negative,yellow,1,k,None,,,,,,,,,0,26,26,26,,,,,,,,,,,,,,,,,,,,,,,,,,,,,,,,,,,,,main,k,k,1,1.1969375999997283,377.7813777000001,None,None,0,,,,,,,,,,,,,,222,21,Male,2022-05-23_14h05.01.493,Main,2022.1.1,60.008233129594615,
positive,blue,2,k,None,,,,,,,,,0,27,27,27,,,,,,,,,,,,,,,,,,,,,,,,,,,,,,,,,,,,,main,k,k,1,1.0698873000001186,379.97995330000003,None,None,0,,,,,,,,,,,,,,222,21,Male,2022-05-23_14h05.01.493,Main,2022.1.1,60.008233129594615,
negative,blue,2,None,k,,,,,,,,,0,28,28,28,,,,,,,,,,,,,,,,,,,,,,,,,,,,,,,,,,,,,main,None,None,1,1.4998709000001327,382.05336179999995,None,None,1,,,,,,,,,,,,,,222,21,Male,2022-05-23_14h05.01.493,Main,2022.1.1,60.008233129594615,
positive,red,1,None,None,,,,,,,,,0,29,29,29,,,,,,,,,,,,,,,,,,,,,,,,,,,,,,,,,,,,,main,None,None,1,1.5048598999997012,384.55501760000016,None,None,1,,,,,,,,,,,,,,222,21,Male,2022-05-23_14h05.01.493,Main,2022.1.1,60.008233129594615,
positive,blue,1,k,None,,,,,,,,,0,30,30,30,,,,,,,,,,,,,,,,,,,,,,,,,,,,,,,,,,,,,main,k,k,1,1.3367090000001554,387.0603550000001,None,None,0,,,,,,,,,,,,,,222,21,Male,2022-05-23_14h05.01.493,Main,2022.1.1,60.008233129594615,
positive,yellow,1,None,k,,,,,,,,,0,31,31,31,,,,,,,,,,,,,,,,,,,,,,,,,,,,,,,,,,,,,main,None,None,1,1.4995286000003034,389.39730150000014,None,None,1,,,,,,,,,,,,,,222,21,Male,2022-05-23_14h05.01.493,Main,2022.1.1,60.008233129594615,
negative,yellow,2,k,None,,,,,,,,,0,32,32,32,,,,,,,,,,,,,,,,,,,,,,,,,,,,,,,,,,,,,main,k,k,1,0.9059084000000439,391.9006049999998,None,None,0,,,,,,,,,,,,,,222,21,Male,2022-05-23_14h05.01.493,Main,2022.1.1,60.008233129594615,
negative,blue,1,None,k,,,,,,,,,0,33,33,33,,,,,,,,,,,,,,,,,,,,,,,,,,,,,,,,,,,,,main,None,None,1,1.4970570000000407,393.8074394999999,None,None,1,,,,,,,,,,,,,,222,21,Male,2022-05-23_14h05.01.493,Main,2022.1.1,60.008233129594615,
positive,blue,1,k,None,,,,,,,,,0,34,34,34,,,,,,,,,,,,,,,,,,,,,,,,,,,,,,,,,,,,,main,k,k,1,0.9260027999998783,396.3059868,None,None,0,,,,,,,,,,,,,,222,21,Male,2022-05-23_14h05.01.493,Main,2022.1.1,60.008233129594615,
negative,yellow,1,k,None,,,,,,,,,0,35,35,35,,,,,,,,,,,,,,,,,,,,,,,,,,,,,,,,,,,,,main,k,k,1,1.0801914000003308,398.23386489999984,None,None,0,,,,,,,,,,,,,,222,21,Male,2022-05-23_14h05.01.493,Main,2022.1.1,60.008233129594615,
positive,yellow,2,None,k,,,,,,,,,0,36,36,36,,,,,,,,,,,,,,,,,,,,,,,,,,,,,,,,,,,,,main,None,None,1,1.500462299999981,400.3134928999998,None,None,1,,,,,,,,,,,,,,222,21,Male,2022-05-23_14h05.01.493,Main,2022.1.1,60.008233129594615,
positive,yellow,2,None,k,,,,,,,,,0,37,37,37,,,,,,,,,,,,,,,,,,,,,,,,,,,,,,,,,,,,,main,None,None,1,1.5090731999998752,402.81735519999984,None,None,1,,,,,,,,,,,,,,222,21,Male,2022-05-23_14h05.01.493,Main,2022.1.1,60.008233129594615,
negative,yellow,2,k,None,,,,,,,,,0,38,38,38,,,,,,,,,,,,,,,,,,,,,,,,,,,,,,,,,,,,,main,k,k,1,0.8787045999997645,405.3264841,None,None,0,,,,,,,,,,,,,,222,21,Male,2022-05-23_14h05.01.493,Main,2022.1.1,60.008233129594615,
positive,yellow,1,None,k,,,,,,,,,0,39,39,39,,,,,,,,,,,,,,,,,,,,,,,,,,,,,,,,,,,,,main,None,None,1,1.4962234999998145,407.2107931999999,None,None,1,,,,,,,,,,,,,,222,21,Male,2022-05-23_14h05.01.493,Main,2022.1.1,60.008233129594615,
negative,yellow,2,k,None,,,,,,,,,0,40,40,40,,,,,,,,,,,,,,,,,,,,,,,,,,,,,,,,,,,,,main,k,k,1,0.8633416000002399,409.7088644999999,None,None,0,,,,,,,,,,,,,,222,21,Male,2022-05-23_14h05.01.493,Main,2022.1.1,60.008233129594615,
positive,blue,2,k,None,,,,,,,,,0,41,41,41,,,,,,,,,,,,,,,,,,,,,,,,,,,,,,,,,,,,,main,k,k,1,1.161460299999817,411.57567900000004,None,None,0,,,,,,,,,,,,,,222,21,Male,2022-05-23_14h05.01.493,Main,2022.1.1,60.008233129594615,
positive,blue,2,k,None,,,,,,,,,0,42,42,42,,,,,,,,,,,,,,,,,,,,,,,,,,,,,,,,,,,,,main,k,k,1,0.9051495999997314,413.7402265999999,None,None,0,,,,,,,,,,,,,,222,21,Male,2022-05-23_14h05.01.493,Main,2022.1.1,60.008233129594615,
negative,blue,2,None,k,,,,,,,,,0,43,43,43,,,,,,,,,,,,,,,,,,,,,,,,,,,,,,,,,,,,,main,None,None,1,1.4928677000002608,415.6479625000002,None,None,1,,,,,,,,,,,,,,222,21,Male,2022-05-23_14h05.01.493,Main,2022.1.1,60.008233129594615,
negative,red,1,None,None,,,,,,,,,0,44,44,44,,,,,,,,,,,,,,,,,,,,,,,,,,,,,,,,,,,,,main,None,None,1,1.4960329000000456,418.1413613999998,None,None,1,,,,,,,,,,,,,,222,21,Male,2022-05-23_14h05.01.493,Main,2022.1.1,60.008233129594615,
negative,yellow,1,k,None,,,,,,,,,0,45,45,45,,,,,,,,,,,,,,,,,,,,,,,,,,,,,,,,,,,,,main,k,k,1,0.9950333000001592,420.6408413999998,None,None,0,,,,,,,,,,,,,,222,21,Male,2022-05-23_14h05.01.493,Main,2022.1.1,60.008233129594615,
negative,yellow,1,k,None,,,,,,,,,0,46,46,46,,,,,,,,,,,,,,,,,,,,,,,,,,,,,,,,,,,,,main,k,k,1,0.9543181999997614,422.63910739999983,None,None,0,,,,,,,,,,,,,,222,21,Male,2022-05-23_14h05.01.493,Main,2022.1.1,60.008233129594615,
positive,red,1,None,None,,,,,,,,,0,47,47,47,,,,,,,,,,,,,,,,,,,,,,,,,,,,,,,,,,,,,main,None,None,1,1.5086914999997134,424.59356949999983,None,None,1,,,,,,,,,,,,,,222,21,Male,2022-05-23_14h05.01.493,Main,2022.1.1,60.008233129594615,
positive,yellow,1,None,k,,,,,,,,,0,48,48,48,,,,,,,,,,,,,,,,,,,,,,,,,,,,,,,,,,,,,main,None,None,1,1.4995370000001458,427.10514190000004,None,None,1,,,,,,,,,,,,,,222,21,Male,2022-05-23_14h05.01.493,Main,2022.1.1,60.008233129594615,
negative,blue,1,None,k,,,,,,,,,0,49,49,49,,,,,,,,,,,,,,,,,,,,,,,,,,,,,,,,,,,,,main,None,None,1,1.506093399999827,429.60612649999985,None,None,1,,,,,,,,,,,,,,222,21,Male,2022-05-23_14h05.01.493,Main,2022.1.1,60.008233129594615,
positive,yellow,2,None,k,,,,,,,,,0,50,50,50,,,,,,,,,,,,,,,,,,,,,,,,,,,,,,,,,,,,,main,None,None,1,1.5088542000003144,432.1161357000001,None,None,1,,,,,,,,,,,,,,222,21,Male,2022-05-23_14h05.01.493,Main,2022.1.1,60.008233129594615,
negative,blue,1,None,k,,,,,,,,,0,51,51,51,,,,,,,,,,,,,,,,,,,,,,,,,,,,,,,,,,,,,main,None,None,1,1.5110669999999118,434.62404100000003,None,None,1,,,,,,,,,,,,,,222,21,Male,2022-05-23_14h05.01.493,Main,2022.1.1,60.008233129594615,
positive,red,2,None,None,,,,,,,,,0,52,52,52,,,,,,,,,,,,,,,,,,,,,,,,,,,,,,,,,,,,,main,None,None,1,1.5109778000000915,437.1399127999998,None,None,1,,,,,,,,,,,,,,222,21,Male,2022-05-23_14h05.01.493,Main,2022.1.1,60.008233129594615,
positive,yellow,2,None,k,,,,,,,,,0,53,53,53,,,,,,,,,,,,,,,,,,,,,,,,,,,,,,,,,,,,,main,None,None,1,1.502989399999933,439.6532510000002,None,None,1,,,,,,,,,,,,,,222,21,Male,2022-05-23_14h05.01.493,Main,2022.1.1,60.008233129594615,
negative,red,2,None,None,,,,,,,,,0,54,54,54,,,,,,,,,,,,,,,,,,,,,,,,,,,,,,,,,,,,,main,None,None,1,1.5076493000001392,442.1561588999998,None,None,1,,,,,,,,,,,,,,222,21,Male,2022-05-23_14h05.01.493,Main,2022.1.1,60.008233129594615,
positive,yellow,1,None,k,,,,,,,,,0,55,55,55,,,,,,,,,,,,,,,,,,,,,,,,,,,,,,,,,,,,,main,None,None,1,1.501558500000101,444.6672745000001,None,None,1,,,,,,,,,,,,,,222,21,Male,2022-05-23_14h05.01.493,Main,2022.1.1,60.008233129594615,
negative,blue,2,None,k,,,,,,,,,0,56,56,56,,,,,,,,,,,,,,,,,,,,,,,,,,,,,,,,,,,,,main,None,None,1,1.5023317000000134,447.1699828999999,None,None,1,,,,,,,,,,,,,,222,21,Male,2022-05-23_14h05.01.493,Main,2022.1.1,60.008233129594615,
positive,blue,1,k,None,,,,,,,,,0,57,57,57,,,,,,,,,,,,,,,,,,,,,,,,,,,,,,,,,,,,,main,k,k,1,1.2317057000000204,449.6760509999999,None,None,0,,,,,,,,,,,,,,222,21,Male,2022-05-23_14h05.01.493,Main,2022.1.1,60.008233129594615,
positive,blue,1,k,None,,,,,,,,,0,58,58,58,,,,,,,,,,,,,,,,,,,,,,,,,,,,,,,,,,,,,main,k,k,1,0.8826159999998708,451.90919080000003,None,None,0,,,,,,,,,,,,,,222,21,Male,2022-05-23_14h05.01.493,Main,2022.1.1,60.008233129594615,
negative,yellow,2,k,None,,,,,,,,,0,59,59,59,,,,,,,,,,,,,,,,,,,,,,,,,,,,,,,,,,,,,main,k,k,1,0.8831899000001613,453.7929869999998,None,None,0,,,,,,,,,,,,,,222,21,Male,2022-05-23_14h05.01.493,Main,2022.1.1,60.008233129594615,
positive,red,2,None,None,,,,,,,,,0,60,60,60,,,,,,,,,,,,,,,,,,,,,,,,,,,,,,,,,,,,,main,None,None,1,1.5039329999999609,455.6777665999998,None,None,1,,,,,,,,,,,,,,222,21,Male,2022-05-23_14h05.01.493,Main,2022.1.1,60.008233129594615,
negative,yellow,1,k,None,,,,,,,,,0,61,61,61,,,,,,,,,,,,,,,,,,,,,,,,,,,,,,,,,,,,,main,k,k,1,0.9397982999998931,458.18269409999994,None,None,0,,,,,,,,,,,,,,222,21,Male,2022-05-23_14h05.01.493,Main,2022.1.1,60.008233129594615,
negative,red,1,None,None,,,,,,,,,0,62,62,62,,,,,,,,,,,,,,,,,,,,,,,,,,,,,,,,,,,,,main,None,None,1,1.494282800000292,460.12438269999984,None,None,1,,,,,,,,,,,,,,222,21,Male,2022-05-23_14h05.01.493,Main,2022.1.1,60.008233129594615,
negative,blue,1,None,k,,,,,,,,,0,63,63,63,,,,,,,,,,,,,,,,,,,,,,,,,,,,,,,,,,,,,main,None,None,1,1.4953912000000855,462.6191604999999,None,None,1,,,,,,,,,,,,,,222,21,Male,2022-05-23_14h05.01.493,Main,2022.1.1,60.008233129594615,
positive,blue,2,k,None,,,,,,,,,0,64,64,64,,,,,,,,,,,,,,,,,,,,,,,,,,,,,,,,,,,,,main,k,k,1,1.3140685000003032,465.1176700000001,None,None,0,,,,,,,,,,,,,,222,21,Male,2022-05-23_14h05.01.493,Main,2022.1.1,60.008233129594615,
negative,yellow,2,k,None,,,,,,,,,0,65,65,65,,,,,,,,,,,,,,,,,,,,,,,,,,,,,,,,,,,,,main,k,k,1,1.3044576000002053,467.43530340000007,None,None,0,,,,,,,,,,,,,,222,21,Male,2022-05-23_14h05.01.493,Main,2022.1.1,60.008233129594615,
positive,yellow,2,None,k,,,,,,,,,0,66,66,66,,,,,,,,,,,,,,,,,,,,,,,,,,,,,,,,,,,,,main,None,None,1,1.5076977999997325,469.7441699000001,None,None,1,,,,,,,,,,,,,,222,21,Male,2022-05-23_14h05.01.493,Main,2022.1.1,60.008233129594615,
positive,yellow,2,None,k,,,,,,,,,0,67,67,67,,,,,,,,,,,,,,,,,,,,,,,,,,,,,,,,,,,,,main,None,None,1,1.5053361000000223,472.2513156,None,None,1,,,,,,,,,,,,,,222,21,Male,2022-05-23_14h05.01.493,Main,2022.1.1,60.008233129594615,
positive,red,1,None,None,,,,,,,,,0,68,68,68,,,,,,,,,,,,,,,,,,,,,,,,,,,,,,,,,,,,,main,None,None,1,1.4972535000001699,474.76111630000014,None,None,1,,,,,,,,,,,,,,222,21,Male,2022-05-23_14h05.01.493,Main,2022.1.1,60.008233129594615,
positive,yellow,1,None,k,,,,,,,,,0,69,69,69,,,,,,,,,,,,,,,,,,,,,,,,,,,,,,,,,,,,,main,None,None,1,1.5072075999996741,477.2587119,None,None,1,,,,,,,,,,,,,,222,21,Male,2022-05-23_14h05.01.493,Main,2022.1.1,60.008233129594615,
negative,yellow,2,k,None,,,,,,,,,0,70,70,70,,,,,,,,,,,,,,,,,,,,,,,,,,,,,,,,,,,,,main,k,k,1,0.8761617999998634,479.7668518999999,None,None,0,,,,,,,,,,,,,,222,21,Male,2022-05-23_14h05.01.493,Main,2022.1.1,60.008233129594615,
positive,yellow,1,None,k,,,,,,,,,0,71,71,71,,,,,,,,,,,,,,,,,,,,,,,,,,,,,,,,,,,,,main,None,None,1,1.5008370999998988,481.6463133000002,None,None,1,,,,,,,,,,,,,,222,21,Male,2022-05-23_14h05.01.493,Main,2022.1.1,60.008233129594615,
negative,blue,1,None,k,,,,,,,,,0,72,72,72,,,,,,,,,,,,,,,,,,,,,,,,,,,,,,,,,,,,,main,None,None,1,1.497268200000235,484.14861070000006,None,None,1,,,,,,,,,,,,,,222,21,Male,2022-05-23_14h05.01.493,Main,2022.1.1,60.008233129594615,
negative,red,2,None,None,,,,,,,,,0,73,73,73,,,,,,,,,,,,,,,,,,,,,,,,,,,,,,,,,,,,,main,None,None,1,1.5035422999999355,486.64896940000017,None,None,1,,,,,,,,,,,,,,222,21,Male,2022-05-23_14h05.01.493,Main,2022.1.1,60.008233129594615,
positive,blue,2,k,None,,,,,,,,,0,74,74,74,,,,,,,,,,,,,,,,,,,,,,,,,,,,,,,,,,,,,main,k,k,1,1.030540000000201,489.15617059999977,None,None,0,,,,,,,,,,,,,,222,21,Male,2022-05-23_14h05.01.493,Main,2022.1.1,60.008233129594615,
negative,blue,2,None,k,,,,,,,,,0,75,75,75,,,,,,,,,,,,,,,,,,,,,,,,,,,,,,,,,,,,,main,None,None,1,1.5041587000000618,491.1879748000001,None,None,1,,,,,,,,,,,,,,222,21,Male,2022-05-23_14h05.01.493,Main,2022.1.1,60.008233129594615,
negative,blue,2,None,k,,,,,,,,,0,76,76,76,,,,,,,,,,,,,,,,,,,,,,,,,,,,,,,,,,,,,main,None,None,1,1.4957773999999517,493.6929538999998,None,None,1,,,,,,,,,,,,,,222,21,Male,2022-05-23_14h05.01.493,Main,2022.1.1,60.008233129594615,
negative,yellow,1,k,None,,,,,,,,,0,77,77,77,,,,,,,,,,,,,,,,,,,,,,,,,,,,,,,,,,,,,main,k,k,1,1.19683410000016,496.1918418999999,None,None,0,,,,,,,,,,,,,,222,21,Male,2022-05-23_14h05.01.493,Main,2022.1.1,60.008233129594615,
positive,blue,1,k,None,,,,,,,,,0,78,78,78,,,,,,,,,,,,,,,,,,,,,,,,,,,,,,,,,,,,,main,k,k,1,1.2536535999997795,498.3891886000001,None,None,0,,,,,,,,,,,,,,222,21,Male,2022-05-23_14h05.01.493,Main,2022.1.1,60.008233129594615,
positive,blue,1,k,None,,,,,,,,,0,79,79,79,,,,,,,,,,,,,,,,,,,,,,,,,,,,,,,,,,,,,main,k,k,1,0.8639519999996992,500.6435190000002,None,None,0,,,,,,,,,,,,,,222,21,Male,2022-05-23_14h05.01.493,Main,2022.1.1,60.008233129594615,
positive,red,2,None,None,,,,,,,,,0,80,80,80,,,,,,,,,,,,,,,,,,,,,,,,,,,,,,,,,,,,,main,None,None,1,1.502571199999693,502.5103048000001,None,None,1,,,,,,,,,,,,,,222,21,Male,2022-05-23_14h05.01.493,Main,2022.1.1,60.008233129594615,
positive,yellow,2,None,k,,,,,,,,,0,81,81,81,,,,,,,,,,,,,,,,,,,,,,,,,,,,,,,,,,,,,main,None,None,1,1.5055366000001413,505.0136636000002,None,None,1,,,,,,,,,,,,,,222,21,Male,2022-05-23_14h05.01.493,Main,2022.1.1,60.008233129594615,
positive,blue,1,k,None,,,,,,,,,0,82,82,82,,,,,,,,,,,,,,,,,,,,,,,,,,,,,,,,,,,,,main,k,k,1,1.0200851999998122,507.52293800000007,None,None,0,,,,,,,,,,,,,,222,21,Male,2022-05-23_14h05.01.493,Main,2022.1.1,60.008233129594615,
negative,yellow,2,k,None,,,,,,,,,0,83,83,83,,,,,,,,,,,,,,,,,,,,,,,,,,,,,,,,,,,,,main,k,k,1,1.3411640999997871,509.54399520000015,None,None,0,,,,,,,,,,,,,,222,21,Male,2022-05-23_14h05.01.493,Main,2022.1.1,60.008233129594615,
positive,blue,2,k,None,,,,,,,,,0,84,84,84,,,,,,,,,,,,,,,,,,,,,,,,,,,,,,,,,,,,,main,k,k,1,1.0799355999997715,511.8866787000002,None,None,0,,,,,,,,,,,,,,222,21,Male,2022-05-23_14h05.01.493,Main,2022.1.1,60.008233129594615,
positive,yellow,1,None,k,,,,,,,,,0,85,85,85,,,,,,,,,,,,,,,,,,,,,,,,,,,,,,,,,,,,,main,None,None,1,1.509378199999901,513.9683168000001,None,None,1,,,,,,,,,,,,,,222,21,Male,2022-05-23_14h05.01.493,Main,2022.1.1,60.008233129594615,
positive,blue,2,k,None,,,,,,,,,0,86,86,86,,,,,,,,,,,,,,,,,,,,,,,,,,,,,,,,,,,,,main,k,k,1,1.051460600000155,516.4785234999999,None,None,0,,,,,,,,,,,,,,222,21,Male,2022-05-23_14h05.01.493,Main,2022.1.1,60.008233129594615,
positive,blue,1,k,None,,,,,,,,,0,87,87,87,,,,,,,,,,,,,,,,,,,,,,,,,,,,,,,,,,,,,main,k,k,1,1.6918504000000212,518.5316302000001,None,None,0,,,,,,,,,,,,,,222,21,Male,2022-05-23_14h05.01.493,Main,2022.1.1,60.008233129594615,
negative,yellow,2,k,None,,,,,,,,,0,88,88,88,,,,,,,,,,,,,,,,,,,,,,,,,,,,,,,,,,,,,main,k,k,1,0.9690544000000045,522.2313140000001,None,None,0,,,,,,,,,,,,,,222,21,Male,2022-05-23_14h05.01.493,Main,2022.1.1,60.008233129594615,
negative,blue,2,None,k,,,,,,,,,0,89,89,89,,,,,,,,,,,,,,,,,,,,,,,,,,,,,,,,,,,,,main,None,None,1,1.5026597999999467,524.2024620000002,None,None,1,,,,,,,,,,,,,,222,21,Male,2022-05-23_14h05.01.493,Main,2022.1.1,60.008233129594615,
positive,yellow,2,None,k,,,,,,,,,0,90,90,90,,,,,,,,,,,,,,,,,,,,,,,,,,,,,,,,,,,,,main,None,None,1,1.5074274000003243,526.7061134999999,None,None,1,,,,,,,,,,,,,,222,21,Male,2022-05-23_14h05.01.493,Main,2022.1.1,60.008233129594615,
negative,yellow,1,k,None,,,,,,,,,0,91,91,91,,,,,,,,,,,,,,,,,,,,,,,,,,,,,,,,,,,,,main,k,k,1,0.8143975000002683,529.2132181000002,None,None,0,,,,,,,,,,,,,,222,21,Male,2022-05-23_14h05.01.493,Main,2022.1.1,60.008233129594615,
negative,red,2,None,None,,,,,,,,,0,92,92,92,,,,,,,,,,,,,,,,,,,,,,,,,,,,,,,,,,,,,main,None,None,1,1.5037932999998702,531.0292587999998,None,None,1,,,,,,,,,,,,,,222,21,Male,2022-05-23_14h05.01.493,Main,2022.1.1,60.008233129594615,
negative,blue,2,None,k,,,,,,,,,0,93,93,93,,,,,,,,,,,,,,,,,,,,,,,,,,,,,,,,,,,,,main,None,None,1,1.4947168999997302,533.5379002,None,None,1,,,,,,,,,,,,,,222,21,Male,2022-05-23_14h05.01.493,Main,2022.1.1,60.008233129594615,
negative,blue,1,None,k,,,,,,,,,0,94,94,94,,,,,,,,,,,,,,,,,,,,,,,,,,,,,,,,,,,,,main,None,None,1,1.494238000000223,536.0339878,None,None,1,,,,,,,,,,,,,,222,21,Male,2022-05-23_14h05.01.493,Main,2022.1.1,60.008233129594615,
negative,blue,1,None,k,,,,,,,,,0,95,95,95,,,,,,,,,,,,,,,,,,,,,,,,,,,,,,,,,,,,,main,None,None,1,1.511685899999975,538.5272113000001,None,None,1,,,,,,,,,,,,,,222,21,Male,2022-05-23_14h05.01.493,Main,2022.1.1,60.008233129594615,
negative,red,1,None,None,,,,,,,,,0,96,96,96,,,,,,,,,,,,,,,,,,,,,,,,,,,,,,,,,,,,,main,None,None,1,1.5085033999998814,541.0422021999998,None,None,1,,,,,,,,,,,,,,222,21,Male,2022-05-23_14h05.01.493,Main,2022.1.1,60.008233129594615,
positive,yellow,1,None,k,,,,,,,,,0,97,97,97,,,,,,,,,,,,,,,,,,,,,,,,,,,,,,,,,,,,,main,None,None,1,1.5024986000003082,543.5534435,None,None,1,,,,,,,,,,,,,,222,21,Male,2022-05-23_14h05.01.493,Main,2022.1.1,60.008233129594615,
negative,yellow,1,k,None,,,,,,,,,0,98,98,98,,,,,,,,,,,,,,,,,,,,,,,,,,,,,,,,,,,,,main,k,k,1,1.0011635000000751,546.0577291999998,None,None,0,,,,,,,,,,,,,,222,21,Male,2022-05-23_14h05.01.493,Main,2022.1.1,60.008233129594615,
positive,red,1,None,None,,,,,,,,,0,99,99,99,,,,,,,,,,,,,,,,,,,,,,,,,,,,,,,,,,,,,main,None,None,1,1.5025132000000667,548.0627381999998,None,None,1,,,,,,,,,,,,,,222,21,Male,2022-05-23_14h05.01.493,Main,2022.1.1,60.008233129594615,
positive,blue,1,k,None,,,,,,,,,0,100,100,100,,,,,,,,,,,,,,,,,,,,,,,,,,,,,,,,,,,,,main,k,k,1,1.1672941000001629,550.5667162999998,None,None,0,,,,,,,,,,,,,,222,21,Male,2022-05-23_14h05.01.493,Main,2022.1.1,60.008233129594615,
negative,yellow,1,k,None,,,,,,,,,0,101,101,101,,,,,,,,,,,,,,,,,,,,,,,,,,,,,,,,,,,,,main,k,k,1,1.0254393000000164,552.7353640000001,None,None,0,,,,,,,,,,,,,,222,21,Male,2022-05-23_14h05.01.493,Main,2022.1.1,60.008233129594615,
negative,blue,2,None,k,,,,,,,,,0,102,102,102,,,,,,,,,,,,,,,,,,,,,,,,,,,,,,,,,,,,,main,None,None,1,1.5020300999999563,554.7598063999999,None,None,1,,,,,,,,,,,,,,222,21,Male,2022-05-23_14h05.01.493,Main,2022.1.1,60.008233129594615,
negative,yellow,2,k,None,,,,,,,,,0,103,103,103,,,,,,,,,,,,,,,,,,,,,,,,,,,,,,,,,,,,,main,k,k,1,1.1136595000002671,557.2658424000001,None,None,0,,,,,,,,,,,,,,222,21,Male,2022-05-23_14h05.01.493,Main,2022.1.1,60.008233129594615,
positive,yellow,2,None,k,,,,,,,,,0,104,104,104,,,,,,,,,,,,,,,,,,,,,,,,,,,,,,,,,,,,,main,None,None,1,1.4992382000000362,559.3806433999998,None,None,1,,,,,,,,,,,,,,222,21,Male,2022-05-23_14h05.01.493,Main,2022.1.1,60.008233129594615,
positive,blue,1,k,None,,,,,,,,,0,105,105,105,,,,,,,,,,,,,,,,,,,,,,,,,,,,,,,,,,,,,main,k,k,1,0.9471677000001364,561.8813835000001,None,None,0,,,,,,,,,,,,,,222,21,Male,2022-05-23_14h05.01.493,Main,2022.1.1,60.008233129594615,
positive,blue,2,k,None,,,,,,,,,0,106,106,106,,,,,,,,,,,,,,,,,,,,,,,,,,,,,,,,,,,,,main,k,k,1,1.4144633999999314,563.8299615000001,None,None,0,,,,,,,,,,,,,,222,21,Male,2022-05-23_14h05.01.493,Main,2022.1.1,60.008233129594615,
negative,blue,1,None,k,,,,,,,,,0,107,107,107,,,,,,,,,,,,,,,,,,,,,,,,,,,,,,,,,,,,,main,None,None,1,1.5106048000002374,566.2459118000002,None,None,1,,,,,,,,,,,,,,222,21,Male,2022-05-23_14h05.01.493,Main,2022.1.1,60.008233129594615,
positive,yellow,2,None,k,,,,,,,,,0,108,108,108,,,,,,,,,,,,,,,,,,,,,,,,,,,,,,,,,,,,,main,None,None,1,1.4946076999999605,568.7558918,None,None,1,,,,,,,,,,,,,,222,21,Male,2022-05-23_14h05.01.493,Main,2022.1.1,60.008233129594615,
negative,yellow,1,k,None,,,,,,,,,0,109,109,109,,,,,,,,,,,,,,,,,,,,,,,,,,,,,,,,,,,,,main,k,k,1,0.8295946999996886,571.2534974999999,None,None,0,,,,,,,,,,,,,,222,21,Male,2022-05-23_14h05.01.493,Main,2022.1.1,60.008233129594615,
negative,blue,2,None,k,,,,,,,,,0,110,110,110,,,,,,,,,,,,,,,,,,,,,,,,,,,,,,,,,,,,,main,None,None,1,1.4925545999999486,573.0847048,None,None,1,,,,,,,,,,,,,,222,21,Male,2022-05-23_14h05.01.493,Main,2022.1.1,60.008233129594615,
positive,blue,2,k,None,,,,,,,,,0,111,111,111,,,,,,,,,,,,,,,,,,,,,,,,,,,,,,,,,,,,,main,k,k,1,0.8480097999999998,575.5790975,None,None,0,,,,,,,,,,,,,,222,21,Male,2022-05-23_14h05.01.493,Main,2022.1.1,60.008233129594615,
negative,blue,1,None,k,,,,,,,,,0,112,112,112,,,,,,,,,,,,,,,,,,,,,,,,,,,,,,,,,,,,,main,None,None,1,1.5049900000003618,577.4294421999998,None,None,1,,,,,,,,,,,,,,222,21,Male,2022-05-23_14h05.01.493,Main,2022.1.1,60.008233129594615,
positive,yellow,1,None,k,,,,,,,,,0,113,113,113,,,,,,,,,,,,,,,,,,,,,,,,,,,,,,,,,,,,,main,None,None,1,1.5097060000002784,579.9347966999999,None,None,1,,,,,,,,,,,,,,222,21,Male,2022-05-23_14h05.01.493,Main,2022.1.1,60.008233129594615,
negative,red,1,None,None,,,,,,,,,0,114,114,114,,,,,,,,,,,,,,,,,,,,,,,,,,,,,,,,,,,,,main,None,None,1,1.5006220000000212,582.4465200999998,None,None,1,,,,,,,,,,,,,,222,21,Male,2022-05-23_14h05.01.493,Main,2022.1.1,60.008233129594615,
positive,red,1,None,None,,,,,,,,,0,115,115,115,,,,,,,,,,,,,,,,,,,,,,,,,,,,,,,,,,,,,main,None,None,1,1.494646499999817,584.9480973,None,None,1,,,,,,,,,,,,,,222,21,Male,2022-05-23_14h05.01.493,Main,2022.1.1,60.008233129594615,
negative,red,2,None,None,,,,,,,,,0,116,116,116,,,,,,,,,,,,,,,,,,,,,,,,,,,,,,,,,,,,,main,None,None,1,1.4955887999999504,587.4453162999998,None,None,1,,,,,,,,,,,,,,222,21,Male,2022-05-23_14h05.01.493,Main,2022.1.1,60.008233129594615,
negative,yellow,2,k,None,,,,,,,,,0,117,117,117,,,,,,,,,,,,,,,,,,,,,,,,,,,,,,,,,,,,,main,k,k,1,0.933474699999806,589.9413359,None,None,0,,,,,,,,,,,,,,222,21,Male,2022-05-23_14h05.01.493,Main,2022.1.1,60.008233129594615,
positive,yellow,1,None,k,,,,,,,,,0,118,118,118,,,,,,,,,,,,,,,,,,,,,,,,,,,,,,,,,,,,,main,None,None,1,1.5102834999997867,591.8762241999998,None,None,1,,,,,,,,,,,,,,222,21,Male,2022-05-23_14h05.01.493,Main,2022.1.1,60.008233129594615,
positive,red,2,None,None,,,,,,,,,0,119,119,119,,,,,,,,,,,,,,,,,,,,,,,,,,,,,,,,,,,,,main,None,None,1,1.4949104999996052,594.3861852,None,None,1,,,,,,,,,,,,,,222,21,Male,2022-05-23_14h05.01.493,Main,2022.1.1,60.008233129594615,
positive,blue,2,k,None,,,,,,,,,0,120,120,120,,,,,,,,,,,,,,,,,,,,,,,,,,,,,,,,,,,,,main,k,k,1,0.967437400000108,596.8837635999998,None,None,0,,,,,,,,,,,,,,222,21,Male,2022-05-23_14h05.01.493,Main,2022.1.1,60.008233129594615,
negative,red,1,None,None,,,,,,,,,0,121,121,121,,,,,,,,,,,,,,,,,,,,,,,,,,,,,,,,,,,,,main,None,None,1,1.5099968000004083,598.8519160999999,None,None,1,,,,,,,,,,,,,,222,21,Male,2022-05-23_14h05.01.493,Main,2022.1.1,60.008233129594615,
positive,yellow,2,None,k,,,,,,,,,0,122,122,122,,,,,,,,,,,,,,,,,,,,,,,,,,,,,,,,,,,,,main,None,None,1,1.493312699999933,601.3652219999999,None,None,1,,,,,,,,,,,,,,222,21,Male,2022-05-23_14h05.01.493,Main,2022.1.1,60.008233129594615,
negative,red,2,None,None,,,,,,,,,0,123,123,123,,,,,,,,,,,,,,,,,,,,,,,,,,,,,,,,,,,,,main,None,None,1,1.502780100000109,603.8606100000002,None,None,1,,,,,,,,,,,,,,222,21,Male,2022-05-23_14h05.01.493,Main,2022.1.1,60.008233129594615,
negative,yellow,2,k,None,,,,,,,,,0,124,124,124,,,,,,,,,,,,,,,,,,,,,,,,,,,,,,,,,,,,,main,k,k,1,0.9052778000000217,606.3642544999998,None,None,0,,,,,,,,,,,,,,222,21,Male,2022-05-23_14h05.01.493,Main,2022.1.1,60.008233129594615,
positive,red,1,None,None,,,,,,,,,0,125,125,125,,,,,,,,,,,,,,,,,,,,,,,,,,,,,,,,,,,,,main,None,None,1,1.5009251999999833,608.2704177,None,None,1,,,,,,,,,,,,,,222,21,Male,2022-05-23_14h05.01.493,Main,2022.1.1,60.008233129594615,
negative,blue,2,None,k,,,,,,,,,0,126,126,126,,,,,,,,,,,,,,,,,,,,,,,,,,,,,,,,,,,,,main,None,None,1,1.4996603999998115,610.7742607,None,None,1,,,,,,,,,,,,,,222,21,Male,2022-05-23_14h05.01.493,Main,2022.1.1,60.008233129594615,
negative,blue,1,None,k,,,,,,,,,0,127,127,127,,,,,,,,,,,,,,,,,,,,,,,,,,,,,,,,,,,,,main,None,None,1,1.5052456999997048,613.2753812999999,None,None,1,,,,,,,,,,,,,,222,21,Male,2022-05-23_14h05.01.493,Main,2022.1.1,60.008233129594615,
negative,yellow,1,k,None,,,,,,,,,0,128,128,128,,,,,,,,,,,,,,,,,,,,,,,,,,,,,,,,,,,,,main,k,k,1,1.0359112000001005,615.7814631000001,None,None,0,,,,,,,,,,,,,,222,21,Male,2022-05-23_14h05.01.493,Main,2022.1.1,60.008233129594615,
negative,yellow,1,k,None,,,,,,,,,0,129,129,129,,,,,,,,,,,,,,,,,,,,,,,,,,,,,,,,,,,,,main,k,k,1,0.8443090000000666,617.8204089999999,None,None,0,,,,,,,,,,,,,,222,21,Male,2022-05-23_14h05.01.493,Main,2022.1.1,60.008233129594615,
positive,blue,1,k,None,,,,,,,,,0,130,130,130,,,,,,,,,,,,,,,,,,,,,,,,,,,,,,,,,,,,,main,k,k,1,1.1187691000000086,619.6687775999999,None,None,0,,,,,,,,,,,,,,222,21,Male,2022-05-23_14h05.01.493,Main,2022.1.1,60.008233129594615,
negative,blue,1,None,k,,,,,,,,,0,131,131,131,,,,,,,,,,,,,,,,,,,,,,,,,,,,,,,,,,,,,main,None,None,1,1.492678899999646,621.7882215,None,None,1,,,,,,,,,,,,,,222,21,Male,2022-05-23_14h05.01.493,Main,2022.1.1,60.008233129594615,
negative,blue,2,None,k,,,,,,,,,0,132,132,132,,,,,,,,,,,,,,,,,,,,,,,,,,,,,,,,,,,,,main,None,None,1,1.5085343999999168,624.2816579,None,None,1,,,,,,,,,,,,,,222,21,Male,2022-05-23_14h05.01.493,Main,2022.1.1,60.008233129594615,
positive,blue,2,k,None,,,,,,,,,0,133,133,133,,,,,,,,,,,,,,,,,,,,,,,,,,,,,,,,,,,,,main,k,k,1,1.088825799999995,626.7933136000001,None,None,0,,,,,,,,,,,,,,222,21,Male,2022-05-23_14h05.01.493,Main,2022.1.1,60.008233129594615,
positive,red,2,None,None,,,,,,,,,0,134,134,134,,,,,,,,,,,,,,,,,,,,,,,,,,,,,,,,,,,,,main,None,None,1,1.5085712999998577,628.8819518,None,None,1,,,,,,,,,,,,,,222,21,Male,2022-05-23_14h05.01.493,Main,2022.1.1,60.008233129594615,
negative,yellow,2,k,None,,,,,,,,,0,135,135,135,,,,,,,,,,,,,,,,,,,,,,,,,,,,,,,,,,,,,main,k,k,1,1.0088089000000764,631.3941848999998,None,None,0,,,,,,,,,,,,,,222,21,Male,2022-05-23_14h05.01.493,Main,2022.1.1,60.008233129594615,
positive,yellow,2,None,k,,,,,,,,,0,136,136,136,,,,,,,,,,,,,,,,,,,,,,,,,,,,,,,,,,,,,main,None,None,1,1.4985898999998426,633.4045446,None,None,1,,,,,,,,,,,,,,222,21,Male,2022-05-23_14h05.01.493,Main,2022.1.1,60.008233129594615,
positive,blue,1,k,None,,,,,,,,,0,137,137,137,,,,,,,,,,,,,,,,,,,,,,,,,,,,,,,,,,,,,main,k,k,1,1.0942498999997952,635.9041857000002,None,None,0,,,,,,,,,,,,,,222,21,Male,2022-05-23_14h05.01.493,Main,2022.1.1,60.008233129594615,
positive,yellow,1,None,k,,,,,,,,,0,138,138,138,,,,,,,,,,,,,,,,,,,,,,,,,,,,,,,,,,,,,main,None,None,1,1.4965377999997145,637.9978114,None,None,1,,,,,,,,,,,,,,222,21,Male,2022-05-23_14h05.01.493,Main,2022.1.1,60.008233129594615,
positive,yellow,1,None,k,,,,,,,,,0,139,139,139,,,,,,,,,,,,,,,,,,,,,,,,,,,,,,,,,,,,,main,None,None,1,1.5006990000001679,640.4966748000002,None,None,1,,,,,,,,,,,,,,222,21,Male,2022-05-23_14h05.01.493,Main,2022.1.1,60.008233129594615,
positive,yellow,1,None,k,,,,,,,,,0,140,140,140,,,,,,,,,,,,,,,,,,,,,,,,,,,,,,,,,,,,,main,None,None,1,1.5027768999998443,642.9990929,None,None,1,,,,,,,,,,,,,,222,21,Male,2022-05-23_14h05.01.493,Main,2022.1.1,60.008233129594615,
positive,blue,1,k,None,,,,,,,,,0,141,141,141,,,,,,,,,,,,,,,,,,,,,,,,,,,,,,,,,,,,,main,k,k,1,0.9291177999998581,645.5053865999998,None,None,0,,,,,,,,,,,,,,222,21,Male,2022-05-23_14h05.01.493,Main,2022.1.1,60.008233129594615,
positive,blue,2,k,None,,,,,,,,,0,142,142,142,,,,,,,,,,,,,,,,,,,,,,,,,,,,,,,,,,,,,main,k,k,1,0.9468344999995679,647.4356797,None,None,0,,,,,,,,,,,,,,222,21,Male,2022-05-23_14h05.01.493,Main,2022.1.1,60.008233129594615,
positive,yellow,2,None,k,,,,,,,,,0,143,143,143,,,,,,,,,,,,,,,,,,,,,,,,,,,,,,,,,,,,,main,None,None,1,1.4976332000001094,649.3816241,None,None,1,,,,,,,,,,,,,,222,21,Male,2022-05-23_14h05.01.493,Main,2022.1.1,60.008233129594615,
negative,yellow,2,k,None,,,,,,,,,0,144,144,144,,,,,,,,,,,,,,,,,,,,,,,,,,,,,,,,,,,,,main,k,k,1,0.8989651000001686,651.8808352000001,None,None,0,,,,,,,,,,,,,,222,21,Male,2022-05-23_14h05.01.493,Main,2022.1.1,60.008233129594615,
negative,blue,2,None,k,,,,,,,,,0,145,145,145,,,,,,,,,,,,,,,,,,,,,,,,,,,,,,,,,,,,,main,None,None,1,1.5034464000000298,653.7844024000001,None,None,1,,,,,,,,,,,,,,222,21,Male,2022-05-23_14h05.01.493,Main,2022.1.1,60.008233129594615,
negative,red,1,None,None,,,,,,,,,0,146,146,146,,,,,,,,,,,,,,,,,,,,,,,,,,,,,,,,,,,,,main,None,None,1,1.4981055999996897,656.2887351999998,None,None,1,,,,,,,,,,,,,,222,21,Male,2022-05-23_14h05.01.493,Main,2022.1.1,60.008233129594615,
positive,blue,1,k,None,,,,,,,,,0,147,147,147,,,,,,,,,,,,,,,,,,,,,,,,,,,,,,,,,,,,,main,k,k,1,0.9092861000003722,658.7881265999999,None,None,0,,,,,,,,,,,,,,222,21,Male,2022-05-23_14h05.01.493,Main,2022.1.1,60.008233129594615,
positive,yellow,1,None,k,,,,,,,,,0,148,148,148,,,,,,,,,,,,,,,,,,,,,,,,,,,,,,,,,,,,,main,None,None,1,1.5020042000001013,660.6968026,None,None,1,,,,,,,,,,,,,,222,21,Male,2022-05-23_14h05.01.493,Main,2022.1.1,60.008233129594615,
negative,red,2,None,None,,,,,,,,,0,149,149,149,,,,,,,,,,,,,,,,,,,,,,,,,,,,,,,,,,,,,main,None,None,1,1.5017222000001311,663.2023580999999,None,None,1,,,,,,,,,,,,,,222,21,Male,2022-05-23_14h05.01.493,Main,2022.1.1,60.008233129594615,
negative,blue,1,None,k,,,,,,,,,0,150,150,150,,,,,,,,,,,,,,,,,,,,,,,,,,,,,,,,,,,,,main,None,None,1,1.5019852000000355,665.7048163999998,None,None,1,,,,,,,,,,,,,,222,21,Male,2022-05-23_14h05.01.493,Main,2022.1.1,60.008233129594615,
negative,yellow,2,k,None,,,,,,,,,0,151,151,151,,,,,,,,,,,,,,,,,,,,,,,,,,,,,,,,,,,,,main,k,k,1,0.8690354999998817,668.2081650999999,None,None,0,,,,,,,,,,,,,,222,21,Male,2022-05-23_14h05.01.493,Main,2022.1.1,60.008233129594615,
negative,blue,2,None,k,,,,,,,,,0,152,152,152,,,,,,,,,,,,,,,,,,,,,,,,,,,,,,,,,,,,,main,None,None,1,1.502426000000014,670.0788437000001,None,None,1,,,,,,,,,,,,,,222,21,Male,2022-05-23_14h05.01.493,Main,2022.1.1,60.008233129594615,
negative,yellow,1,k,None,,,,,,,,,0,153,153,153,,,,,,,,,,,,,,,,,,,,,,,,,,,,,,,,,,,,,main,k,k,1,1.1099295000003622,672.5863743,None,None,0,,,,,,,,,,,,,,222,21,Male,2022-05-23_14h05.01.493,Main,2022.1.1,60.008233129594615,
negative,blue,1,None,k,,,,,,,,,0,154,154,154,,,,,,,,,,,,,,,,,,,,,,,,,,,,,,,,,,,,,main,None,None,1,1.5003976000002694,674.6952522000001,None,None,1,,,,,,,,,,,,,,222,21,Male,2022-05-23_14h05.01.493,Main,2022.1.1,60.008233129594615,
positive,yellow,2,None,k,,,,,,,,,0,155,155,155,,,,,,,,,,,,,,,,,,,,,,,,,,,,,,,,,,,,,main,None,None,1,1.4981923999998799,677.1988901999998,None,None,1,,,,,,,,,,,,,,222,21,Male,2022-05-23_14h05.01.493,Main,2022.1.1,60.008233129594615,
positive,red,2,None,None,,,,,,,,,0,156,156,156,,,,,,,,,,,,,,,,,,,,,,,,,,,,,,,,,,,,,main,None,None,1,1.499195200000031,679.6985107,None,None,1,,,,,,,,,,,,,,222,21,Male,2022-05-23_14h05.01.493,Main,2022.1.1,60.008233129594615,
positive,red,1,None,None,,,,,,,,,0,157,157,157,,,,,,,,,,,,,,,,,,,,,,,,,,,,,,,,,,,,,main,None,None,1,1.4993688999998085,682.1989411,None,None,1,,,,,,,,,,,,,,222,21,Male,2022-05-23_14h05.01.493,Main,2022.1.1,60.008233129594615,
positive,blue,2,k,None,,,,,,,,,0,158,158,158,,,,,,,,,,,,,,,,,,,,,,,,,,,,,,,,,,,,,main,k,k,1,0.9930102999996961,684.7000417999998,None,None,0,,,,,,,,,,,,,,222,21,Male,2022-05-23_14h05.01.493,Main,2022.1.1,60.008233129594615,
negative,yellow,1,k,None,,,,,,,,,0,159,159,159,,,,,,,,,,,,,,,,,,,,,,,,,,,,,,,,,,,,,main,k,k,1,0.9497016000000258,686.6919059000002,None,None,0,,,,,,,,,,,,,,222,21,Male,2022-05-23_14h05.01.493,Main,2022.1.1,60.008233129594615,
negative,red,2,None,None,,,,,,,,,0,160,160,160,,,,,,,,,,,,,,,,,,,,,,,,,,,,,,,,,,,,,main,None,None,1,1.501405099999829,688.6432644000001,None,None,1,,,,,,,,,,,,,,222,21,Male,2022-05-23_14h05.01.493,Main,2022.1.1,60.008233129594615,
negative,blue,1,None,k,,,,,,,,,0,161,161,161,,,,,,,,,,,,,,,,,,,,,,,,,,,,,,,,,,,,,main,None,None,1,1.5014517999998134,691.1485541000002,None,None,1,,,,,,,,,,,,,,222,21,Male,2022-05-23_14h05.01.493,Main,2022.1.1,60.008233129594615,
negative,blue,1,None,k,,,,,,,,,0,162,162,162,,,,,,,,,,,,,,,,,,,,,,,,,,,,,,,,,,,,,main,None,None,1,1.495564700000159,693.6509150000002,None,None,1,,,,,,,,,,,,,,222,21,Male,2022-05-23_14h05.01.493,Main,2022.1.1,60.008233129594615,
negative,yellow,1,k,None,,,,,,,,,0,163,163,163,,,,,,,,,,,,,,,,,,,,,,,,,,,,,,,,,,,,,main,k,k,1,1.1895043999998052,696.1483807,None,None,0,,,,,,,,,,,,,,222,21,Male,2022-05-23_14h05.01.493,Main,2022.1.1,60.008233129594615,
negative,yellow,1,k,None,,,,,,,,,0,164,164,164,,,,,,,,,,,,,,,,,,,,,,,,,,,,,,,,,,,,,main,k,k,1,0.9381757000001016,698.3390024999999,None,None,0,,,,,,,,,,,,,,222,21,Male,2022-05-23_14h05.01.493,Main,2022.1.1,60.008233129594615,
positive,yellow,1,None,k,,,,,,,,,0,165,165,165,,,,,,,,,,,,,,,,,,,,,,,,,,,,,,,,,,,,,main,None,None,1,1.5026557999999568,700.2807723000001,None,None,1,,,,,,,,,,,,,,222,21,Male,2022-05-23_14h05.01.493,Main,2022.1.1,60.008233129594615,
negative,red,1,None,None,,,,,,,,,0,166,166,166,,,,,,,,,,,,,,,,,,,,,,,,,,,,,,,,,,,,,main,None,None,1,1.4960265999998228,702.7846003999998,None,None,1,,,,,,,,,,,,,,222,21,Male,2022-05-23_14h05.01.493,Main,2022.1.1,60.008233129594615,
negative,yellow,2,k,None,,,,,,,,,0,167,167,167,,,,,,,,,,,,,,,,,,,,,,,,,,,,,,,,,,,,,main,k,k,1,0.892808199999763,705.2823715999998,None,None,0,,,,,,,,,,,,,,222,21,Male,2022-05-23_14h05.01.493,Main,2022.1.1,60.008233129594615,
positive,blue,2,k,None,,,,,,,,,0,168,168,168,,,,,,,,,,,,,,,,,,,,,,,,,,,,,,,,,,,,,main,k,k,1,0.8990227999997842,707.1744419000001,None,None,0,,,,,,,,,,,,,,222,21,Male,2022-05-23_14h05.01.493,Main,2022.1.1,60.008233129594615,
positive,red,2,None,None,,,,,,,,,0,169,169,169,,,,,,,,,,,,,,,,,,,,,,,,,,,,,,,,,,,,,main,None,None,1,1.5075956000000588,709.0771408,None,None,1,,,,,,,,,,,,,,222,21,Male,2022-05-23_14h05.01.493,Main,2022.1.1,60.008233129594615,
positive,red,1,None,None,,,,,,,,,0,170,170,170,,,,,,,,,,,,,,,,,,,,,,,,,,,,,,,,,,,,,main,None,None,1,1.5091050999999425,711.5854958,None,None,1,,,,,,,,,,,,,,222,21,Male,2022-05-23_14h05.01.493,Main,2022.1.1,60.008233129594615,
negative,blue,2,None,k,,,,,,,,,0,171,171,171,,,,,,,,,,,,,,,,,,,,,,,,,,,,,,,,,,,,,main,None,None,1,1.508763600000293,714.0966189000001,None,None,1,,,,,,,,,,,,,,222,21,Male,2022-05-23_14h05.01.493,Main,2022.1.1,60.008233129594615,
positive,blue,2,k,None,,,,,,,,,0,172,172,172,,,,,,,,,,,,,,,,,,,,,,,,,,,,,,,,,,,,,main,k,k,1,0.8335959000000912,716.6044892,None,None,0,,,,,,,,,,,,,,222,21,Male,2022-05-23_14h05.01.493,Main,2022.1.1,60.008233129594615,
negative,yellow,2,k,None,,,,,,,,,0,173,173,173,,,,,,,,,,,,,,,,,,,,,,,,,,,,,,,,,,,,,main,k,k,1,0.8979482999998254,718.4422522,None,None,0,,,,,,,,,,,,,,222,21,Male,2022-05-23_14h05.01.493,Main,2022.1.1,60.008233129594615,
positive,yellow,2,None,k,,,,,,,,,0,174,174,174,,,,,,,,,,,,,,,,,,,,,,,,,,,,,,,,,,,,,main,None,None,1,1.4963181000002805,720.3391901,None,None,1,,,,,,,,,,,,,,222,21,Male,2022-05-23_14h05.01.493,Main,2022.1.1,60.008233129594615,
negative,blue,2,None,k,,,,,,,,,0,175,175,175,,,,,,,,,,,,,,,,,,,,,,,,,,,,,,,,,,,,,main,None,None,1,1.4977184000003945,722.8367683000001,None,None,1,,,,,,,,,,,,,,222,21,Male,2022-05-23_14h05.01.493,Main,2022.1.1,60.008233129594615,
positive,blue,1,k,None,,,,,,,,,0,176,176,176,,,,,,,,,,,,,,,,,,,,,,,,,,,,,,,,,,,,,main,k,k,1,0.9503801000000749,725.3363125000001,None,None,0,,,,,,,,,,,,,,222,21,Male,2022-05-23_14h05.01.493,Main,2022.1.1,60.008233129594615,
positive,yellow,1,None,k,,,,,,,,,0,177,177,177,,,,,,,,,,,,,,,,,,,,,,,,,,,,,,,,,,,,,main,None,None,1,1.5059298999999555,727.2900897999998,None,None,1,,,,,,,,,,,,,,222,21,Male,2022-05-23_14h05.01.493,Main,2022.1.1,60.008233129594615,
positive,blue,1,k,None,,,,,,,,,0,178,178,178,,,,,,,,,,,,,,,,,,,,,,,,,,,,,,,,,,,,,main,k,k,1,1.0474534999998468,729.7969859999998,None,None,0,,,,,,,,,,,,,,222,21,Male,2022-05-23_14h05.01.493,Main,2022.1.1,60.008233129594615,
positive,yellow,2,None,k,,,,,,,,,0,179,179,179,,,,,,,,,,,,,,,,,,,,,,,,,,,,,,,,,,,,,main,None,None,1,1.506770299999971,731.8466364000001,None,None,1,,,,,,,,,,,,,,222,21,Male,2022-05-23_14h05.01.493,Main,2022.1.1,60.008233129594615,
positive,blue,1,k,None,,,,,,,,,0,180,180,180,,,,,,,,,,,,,,,,,,,,,,,,,,,,,,,,,,,,,main,k,k,1,0.9837784999999712,734.3525398000002,None,None,0,,,,,,,,,,,,,,222,21,Male,2022-05-23_14h05.01.493,Main,2022.1.1,60.008233129594615,
negative,red,1,None,None,,,,,,,,,0,181,181,181,,,,,,,,,,,,,,,,,,,,,,,,,,,,,,,,,,,,,main,None,None,1,1.4995742000000973,736.3379645999999,None,None,1,,,,,,,,,,,,,,222,21,Male,2022-05-23_14h05.01.493,Main,2022.1.1,60.008233129594615,
negative,blue,1,None,k,,,,,,,,,0,182,182,182,,,,,,,,,,,,,,,,,,,,,,,,,,,,,,,,,,,,,main,None,None,1,1.5077703000001748,738.8419545000002,None,None,1,,,,,,,,,,,,,,222,21,Male,2022-05-23_14h05.01.493,Main,2022.1.1,60.008233129594615,
negative,yellow,2,k,None,,,,,,,,,0,183,183,183,,,,,,,,,,,,,,,,,,,,,,,,,,,,,,,,,,,,,main,k,k,1,1.0993681999998444,741.3498782000001,None,None,0,,,,,,,,,,,,,,222,21,Male,2022-05-23_14h05.01.493,Main,2022.1.1,60.008233129594615,
positive,yellow,2,None,k,,,,,,,,,0,184,184,184,,,,,,,,,,,,,,,,,,,,,,,,,,,,,,,,,,,,,main,None,None,1,1.495431699999699,743.4507454999998,None,None,1,,,,,,,,,,,,,,222,21,Male,2022-05-23_14h05.01.493,Main,2022.1.1,60.008233129594615,
positive,yellow,1,None,k,,,,,,,,,0,185,185,185,,,,,,,,,,,,,,,,,,,,,,,,,,,,,,,,,,,,,main,None,None,1,1.4962067999999817,745.9493474999999,None,None,1,,,,,,,,,,,,,,222,21,Male,2022-05-23_14h05.01.493,Main,2022.1.1,60.008233129594615,
positive,red,2,None,None,,,,,,,,,0,186,186,186,,,,,,,,,,,,,,,,,,,,,,,,,,,,,,,,,,,,,main,None,None,1,1.4973064999999224,748.4489365,None,None,1,,,,,,,,,,,,,,222,21,Male,2022-05-23_14h05.01.493,Main,2022.1.1,60.008233129594615,
positive,blue,1,k,None,,,,,,,,,0,187,187,187,,,,,,,,,,,,,,,,,,,,,,,,,,,,,,,,,,,,,main,k,k,1,0.9486793000000944,750.9494291999999,None,None,0,,,,,,,,,,,,,,222,21,Male,2022-05-23_14h05.01.493,Main,2022.1.1,60.008233129594615,
negative,yellow,1,k,None,,,,,,,,,0,188,188,188,,,,,,,,,,,,,,,,,,,,,,,,,,,,,,,,,,,,,main,k,k,1,0.9292858999997406,752.8995838999999,None,None,0,,,,,,,,,,,,,,222,21,Male,2022-05-23_14h05.01.493,Main,2022.1.1,60.008233129594615,
positive,yellow,2,None,k,,,,,,,,,0,189,189,189,,,,,,,,,,,,,,,,,,,,,,,,,,,,,,,,,,,,,main,None,None,1,1.509340400000383,754.8318697,None,None,1,,,,,,,,,,,,,,222,21,Male,2022-05-23_14h05.01.493,Main,2022.1.1,60.008233129594615,
negative,yellow,2,k,None,,,,,,,,,0,190,190,190,,,,,,,,,,,,,,,,,,,,,,,,,,,,,,,,,,,,,main,k,k,1,0.9596557999998367,757.3443355999998,None,None,0,,,,,,,,,,,,,,222,21,Male,2022-05-23_14h05.01.493,Main,2022.1.1,60.008233129594615,
negative,yellow,1,k,None,,,,,,,,,0,191,191,191,,,,,,,,,,,,,,,,,,,,,,,,,,,,,,,,,,,,,main,k,k,1,1.0208044999999402,759.3057499000001,None,None,0,,,,,,,,,,,,,,222,21,Male,2022-05-23_14h05.01.493,Main,2022.1.1,60.008233129594615,
positive,blue,2,k,None,,,,,,,,,0,192,192,192,,,,,,,,,,,,,,,,,,,,,,,,,,,,,,,,,,,,,main,k,k,1,1.1847093000001223,761.3276876999998,None,None,0,,,,,,,,,,,,,,222,21,Male,2022-05-23_14h05.01.493,Main,2022.1.1,60.008233129594615,
positive,yellow,1,None,k,,,,,,,,,0,193,193,193,,,,,,,,,,,,,,,,,,,,,,,,,,,,,,,,,,,,,main,None,None,1,1.5092807999999422,763.5148528,None,None,1,,,,,,,,,,,,,,222,21,Male,2022-05-23_14h05.01.493,Main,2022.1.1,60.008233129594615,
negative,red,2,None,None,,,,,,,,,0,194,194,194,,,,,,,,,,,,,,,,,,,,,,,,,,,,,,,,,,,,,main,None,None,1,1.502286300000378,766.0259586000002,None,None,1,,,,,,,,,,,,,,222,21,Male,2022-05-23_14h05.01.493,Main,2022.1.1,60.008233129594615,
positive,red,1,None,None,,,,,,,,,0,195,195,195,,,,,,,,,,,,,,,,,,,,,,,,,,,,,,,,,,,,,main,None,None,1,1.4974445999996533,768.5301479,None,None,1,,,,,,,,,,,,,,222,21,Male,2022-05-23_14h05.01.493,Main,2022.1.1,60.008233129594615,
negative,blue,1,None,k,,,,,,,,,0,196,196,196,,,,,,,,,,,,,,,,,,,,,,,,,,,,,,,,,,,,,main,None,None,1,1.4990802000002077,771.0299550999998,None,None,1,,,,,,,,,,,,,,222,21,Male,2022-05-23_14h05.01.493,Main,2022.1.1,60.008233129594615,
positive,blue,2,k,None,,,,,,,,,0,197,197,197,,,,,,,,,,,,,,,,,,,,,,,,,,,,,,,,,,,,,main,k,k,1,0.9756222999999409,773.5303674000002,None,None,0,,,,,,,,,,,,,,222,21,Male,2022-05-23_14h05.01.493,Main,2022.1.1,60.008233129594615,
negative,blue,2,None,k,,,,,,,,,0,198,198,198,,,,,,,,,,,,,,,,,,,,,,,,,,,,,,,,,,,,,main,None,None,1,1.5034751999996843,775.5094205,None,None,1,,,,,,,,,,,,,,222,21,Male,2022-05-23_14h05.01.493,Main,2022.1.1,60.008233129594615,
negative,blue,2,None,k,,,,,,,,,0,199,199,199,,,,,,,,,,,,,,,,,,,,,,,,,,,,,,,,,,,,,main,None,None,1,1.5092752999998993,778.0126144000001,None,None,1,,,,,,,,,,,,,,222,21,Male,2022-05-23_14h05.01.493,Main,2022.1.1,60.008233129594615,
positive,blue,2,k,None,,,,,,,,,0,200,200,200,,,,,,,,,,,,,,,,,,,,,,,,,,,,,,,,,,,,,main,k,k,1,1.005565800000113,780.5248283000001,None,None,0,,,,,,,,,,,,,,222,21,Male,2022-05-23_14h05.01.493,Main,2022.1.1,60.008233129594615,
positive,blue,2,k,None,,,,,,,,,0,201,201,201,,,,,,,,,,,,,,,,,,,,,,,,,,,,,,,,,,,,,main,k,k,1,0.9915640000003805,782.5325549999998,None,None,0,,,,,,,,,,,,,,222,21,Male,2022-05-23_14h05.01.493,Main,2022.1.1,60.008233129594615,
negative,yellow,2,k,None,,,,,,,,,0,202,202,202,,,,,,,,,,,,,,,,,,,,,,,,,,,,,,,,,,,,,main,k,k,1,1.1389100999999755,784.5246870999999,None,None,0,,,,,,,,,,,,,,222,21,Male,2022-05-23_14h05.01.493,Main,2022.1.1,60.008233129594615,
positive,red,1,None,None,,,,,,,,,0,203,203,203,,,,,,,,,,,,,,,,,,,,,,,,,,,,,,,,,,,,,main,None,None,1,1.5020414999999048,786.6635485000002,None,None,1,,,,,,,,,,,,,,222,21,Male,2022-05-23_14h05.01.493,Main,2022.1.1,60.008233129594615,
negative,blue,2,None,k,,,,,,,,,0,204,204,204,,,,,,,,,,,,,,,,,,,,,,,,,,,,,,,,,,,,,main,None,None,1,1.4951860999999553,789.1695285999999,None,None,1,,,,,,,,,,,,,,222,21,Male,2022-05-23_14h05.01.493,Main,2022.1.1,60.008233129594615,
negative,red,1,None,None,,,,,,,,,0,205,205,205,,,,,,,,,,,,,,,,,,,,,,,,,,,,,,,,,,,,,main,None,None,1,1.5091996999999537,791.6657679999998,None,None,1,,,,,,,,,,,,,,222,21,Male,2022-05-23_14h05.01.493,Main,2022.1.1,60.008233129594615,
negative,blue,2,None,k,,,,,,,,,0,206,206,206,,,,,,,,,,,,,,,,,,,,,,,,,,,,,,,,,,,,,main,None,None,1,1.5122940999999628,794.1761025000001,None,None,1,,,,,,,,,,,,,,222,21,Male,2022-05-23_14h05.01.493,Main,2022.1.1,60.008233129594615,
negative,yellow,2,k,None,,,,,,,,,0,207,207,207,,,,,,,,,,,,,,,,,,,,,,,,,,,,,,,,,,,,,main,k,k,1,1.0389135000000351,796.6914062999999,None,None,0,,,,,,,,,,,,,,222,21,Male,2022-05-23_14h05.01.493,Main,2022.1.1,60.008233129594615,
positive,yellow,2,None,k,,,,,,,,,0,208,208,208,,,,,,,,,,,,,,,,,,,,,,,,,,,,,,,,,,,,,main,None,None,1,1.5119609000003038,798.7322245,None,None,1,,,,,,,,,,,,,,222,21,Male,2022-05-23_14h05.01.493,Main,2022.1.1,60.008233129594615,
negative,yellow,1,k,None,,,,,,,,,0,209,209,209,,,,,,,,,,,,,,,,,,,,,,,,,,,,,,,,,,,,,main,k,k,1,1.4360797000003913,801.2432893,None,None,0,,,,,,,,,,,,,,222,21,Male,2022-05-23_14h05.01.493,Main,2022.1.1,60.008233129594615,
negative,red,2,None,None,,,,,,,,,0,210,210,210,,,,,,,,,,,,,,,,,,,,,,,,,,,,,,,,,,,,,main,None,None,1,1.4983471000000463,803.6827672999998,None,None,1,,,,,,,,,,,,,,222,21,Male,2022-05-23_14h05.01.493,Main,2022.1.1,60.008233129594615,
negative,blue,1,None,k,,,,,,,,,0,211,211,211,,,,,,,,,,,,,,,,,,,,,,,,,,,,,,,,,,,,,main,None,None,1,1.505271399999856,806.1827769000001,None,None,1,,,,,,,,,,,,,,222,21,Male,2022-05-23_14h05.01.493,Main,2022.1.1,60.008233129594615,
negative,yellow,1,k,None,,,,,,,,,0,212,212,212,,,,,,,,,,,,,,,,,,,,,,,,,,,,,,,,,,,,,main,k,k,1,0.9234590000000935,808.6886501999998,None,None,0,,,,,,,,,,,,,,222,21,Male,2022-05-23_14h05.01.493,Main,2022.1.1,60.008233129594615,
positive,blue,1,k,None,,,,,,,,,0,213,213,213,,,,,,,,,,,,,,,,,,,,,,,,,,,,,,,,,,,,,main,k,k,1,0.9637760999999045,810.6143041,None,None,0,,,,,,,,,,,,,,222,21,Male,2022-05-23_14h05.01.493,Main,2022.1.1,60.008233129594615,
positive,blue,1,k,None,,,,,,,,,0,214,214,214,,,,,,,,,,,,,,,,,,,,,,,,,,,,,,,,,,,,,main,k,k,1,0.7977858999997807,812.5777502999999,None,None,0,,,,,,,,,,,,,,222,21,Male,2022-05-23_14h05.01.493,Main,2022.1.1,60.008233129594615,
positive,yellow,1,None,k,,,,,,,,,0,215,215,215,,,,,,,,,,,,,,,,,,,,,,,,,,,,,,,,,,,,,main,None,None,1,1.5072063000002345,814.3786756999998,None,None,1,,,,,,,,,,,,,,222,21,Male,2022-05-23_14h05.01.493,Main,2022.1.1,60.008233129594615,
positive,yellow,1,None,k,,,,,,,,,0,216,216,216,,,,,,,,,,,,,,,,,,,,,,,,,,,,,,,,,,,,,main,None,None,1,1.5001454999996895,816.8868987999999,None,None,1,,,,,,,,,,,,,,222,21,Male,2022-05-23_14h05.01.493,Main,2022.1.1,60.008233129594615,
positive,yellow,2,None,k,,,,,,,,,0,217,217,217,,,,,,,,,,,,,,,,,,,,,,,,,,,,,,,,,,,,,main,None,None,1,1.5059204000003774,819.3896627999998,None,None,1,,,,,,,,,,,,,,222,21,Male,2022-05-23_14h05.01.493,Main,2022.1.1,60.008233129594615,
negative,blue,1,None,k,,,,,,,,,0,218,218,218,,,,,,,,,,,,,,,,,,,,,,,,,,,,,,,,,,,,,main,None,None,1,1.5026434000001245,821.8988611,None,None,1,,,,,,,,,,,,,,222,21,Male,2022-05-23_14h05.01.493,Main,2022.1.1,60.008233129594615,
positive,red,2,None,None,,,,,,,,,0,219,219,219,,,,,,,,,,,,,,,,,,,,,,,,,,,,,,,,,,,,,main,None,None,1,1.4932073999998465,824.4024751000002,None,None,1,,,,,,,,,,,,,,222,21,Male,2022-05-23_14h05.01.493,Main,2022.1.1,60.008233129594615,
positive,yellow,1,None,k,,,,,,,,,0,220,220,220,,,,,,,,,,,,,,,,,,,,,,,,,,,,,,,,,,,,,main,None,None,1,1.5089751999998953,826.8977491,None,None,1,,,,,,,,,,,,,,222,21,Male,2022-05-23_14h05.01.493,Main,2022.1.1,60.008233129594615,
positive,blue,1,k,None,,,,,,,,,0,221,221,221,,,,,,,,,,,,,,,,,,,,,,,,,,,,,,,,,,,,,main,k,k,1,0.9581825999998728,829.405957,None,None,0,,,,,,,,,,,,,,222,21,Male,2022-05-23_14h05.01.493,Main,2022.1.1,60.008233129594615,
positive,yellow,2,None,k,,,,,,,,,0,222,222,222,,,,,,,,,,,,,,,,,,,,,,,,,,,,,,,,,,,,,main,None,None,1,1.5078306999998858,831.3671685999998,None,None,1,,,,,,,,,,,,,,222,21,Male,2022-05-23_14h05.01.493,Main,2022.1.1,60.008233129594615,
negative,yellow,1,k,None,,,,,,,,,0,223,223,223,,,,,,,,,,,,,,,,,,,,,,,,,,,,,,,,,,,,,main,k,k,1,1.1663142000002154,833.8778788,None,None,0,,,,,,,,,,,,,,222,21,Male,2022-05-23_14h05.01.493,Main,2022.1.1,60.008233129594615,
positive,yellow,2,None,k,,,,,,,,,0,224,224,224,,,,,,,,,,,,,,,,,,,,,,,,,,,,,,,,,,,,,main,None,None,1,1.4945421999996142,836.044527,None,None,1,,,,,,,,,,,,,,222,21,Male,2022-05-23_14h05.01.493,Main,2022.1.1,60.008233129594615,
negative,yellow,2,k,None,,,,,,,,,0,225,225,225,,,,,,,,,,,,,,,,,,,,,,,,,,,,,,,,,,,,,main,k,k,1,0.8159064999999828,838.5386330000001,None,None,0,,,,,,,,,,,,,,222,21,Male,2022-05-23_14h05.01.493,Main,2022.1.1,60.008233129594615,
negative,blue,2,None,k,,,,,,,,,0,226,226,226,,,,,,,,,,,,,,,,,,,,,,,,,,,,,,,,,,,,,main,None,None,1,1.5059198000003562,840.3595454000001,None,None,1,,,,,,,,,,,,,,222,21,Male,2022-05-23_14h05.01.493,Main,2022.1.1,60.008233129594615,
positive,red,2,None,None,,,,,,,,,0,227,227,227,,,,,,,,,,,,,,,,,,,,,,,,,,,,,,,,,,,,,main,None,None,1,1.5103318999999829,842.8649313999999,None,None,1,,,,,,,,,,,,,,222,21,Male,2022-05-23_14h05.01.493,Main,2022.1.1,60.008233129594615,
positive,blue,2,k,None,,,,,,,,,0,228,228,228,,,,,,,,,,,,,,,,,,,,,,,,,,,,,,,,,,,,,main,k,k,1,0.7803401999999551,845.3775786000001,None,None,0,,,,,,,,,,,,,,222,21,Male,2022-05-23_14h05.01.493,Main,2022.1.1,60.008233129594615,
negative,blue,1,None,k,,,,,,,,,0,229,229,229,,,,,,,,,,,,,,,,,,,,,,,,,,,,,,,,,,,,,main,None,None,1,1.4940104000002066,847.159244,None,None,1,,,,,,,,,,,,,,222,21,Male,2022-05-23_14h05.01.493,Main,2022.1.1,60.008233129594615,
positive,yellow,1,None,k,,,,,,,,,0,230,230,230,,,,,,,,,,,,,,,,,,,,,,,,,,,,,,,,,,,,,main,None,None,1,1.4999204999999165,849.6531469000001,None,None,1,,,,,,,,,,,,,,222,21,Male,2022-05-23_14h05.01.493,Main,2022.1.1,60.008233129594615,
negative,blue,2,None,k,,,,,,,,,0,231,231,231,,,,,,,,,,,,,,,,,,,,,,,,,,,,,,,,,,,,,main,None,None,1,1.4977490999999645,852.1545145,None,None,1,,,,,,,,,,,,,,222,21,Male,2022-05-23_14h05.01.493,Main,2022.1.1,60.008233129594615,
negative,red,1,None,None,,,,,,,,,0,232,232,232,,,,,,,,,,,,,,,,,,,,,,,,,,,,,,,,,,,,,main,None,None,1,1.5109037999995962,854.6535339000002,None,None,1,,,,,,,,,,,,,,222,21,Male,2022-05-23_14h05.01.493,Main,2022.1.1,60.008233129594615,
positive,blue,2,k,None,,,,,,,,,0,233,233,233,,,,,,,,,,,,,,,,,,,,,,,,,,,,,,,,,,,,,main,k,k,1,1.078807599999891,857.1677359999999,None,None,0,,,,,,,,,,,,,,222,21,Male,2022-05-23_14h05.01.493,Main,2022.1.1,60.008233129594615,
negative,yellow,1,k,None,,,,,,,,,0,234,234,234,,,,,,,,,,,,,,,,,,,,,,,,,,,,,,,,,,,,,main,k,k,1,0.957821800000147,859.2495473999998,None,None,0,,,,,,,,,,,,,,222,21,Male,2022-05-23_14h05.01.493,Main,2022.1.1,60.008233129594615,
negative,yellow,2,k,None,,,,,,,,,0,235,235,235,,,,,,,,,,,,,,,,,,,,,,,,,,,,,,,,,,,,,main,k,k,1,1.483722299999954,861.2099085999998,None,None,0,,,,,,,,,,,,,,222,21,Male,2022-05-23_14h05.01.493,Main,2022.1.1,60.008233129594615,
positive,red,1,None,None,,,,,,,,,0,236,236,236,,,,,,,,,,,,,,,,,,,,,,,,,,,,,,,,,,,,,main,None,None,1,1.5028551999998854,863.6951875,None,None,1,,,,,,,,,,,,,,222,21,Male,2022-05-23_14h05.01.493,Main,2022.1.1,60.008233129594615,
negative,red,2,None,None,,,,,,,,,0,237,237,237,,,,,,,,,,,,,,,,,,,,,,,,,,,,,,,,,,,,,main,None,None,1,1.496409500000027,866.1984787000001,None,None,1,,,,,,,,,,,,,,222,21,Male,2022-05-23_14h05.01.493,Main,2022.1.1,60.008233129594615,
negative,blue,1,None,k,,,,,,,,,0,238,238,238,,,,,,,,,,,,,,,,,,,,,,,,,,,,,,,,,,,,,main,None,None,1,1.5022775000002184,868.6974129,None,None,1,,,,,,,,,,,,,,222,21,Male,2022-05-23_14h05.01.493,Main,2022.1.1,60.008233129594615,
positive,blue,1,k,None,,,,,,,,,0,239,239,239,,,,,,,,,,,,,,,,,,,,,,,,,,,,,,,,,,,,,main,k,k,1,0.8621597000001202,871.2003113000001,None,None,0,,,,,,,,,,,,,,222,21,Male,2022-05-23_14h05.01.493,Main,2022.1.1,60.008233129594615,
,,,,,,,,,,,,,,,,,,,,,,,,,,,,,,,,,,,,,,,,,,,,,,,,,,,,,,,,,,,,,,,,,,,,,,,,,873.0550736,None,,,,,,,,
