distractor,target,set,ans1,ans2,rep_loop4.thisRepN,rep_loop4.thisTrialN,rep_loop4.thisN,rep_loop4.thisIndex,st2_prac_loop.thisRepN,st2_prac_loop.thisTrialN,st2_prac_loop.thisN,st2_prac_loop.thisIndex,st2_main_loop.thisRepN,st2_main_loop.thisTrialN,st2_main_loop.thisN,st2_main_loop.thisIndex,image_4.started,image_4.stopped,mouse_7.x,mouse_7.y,mouse_7.leftButton,mouse_7.midButton,mouse_7.rightButton,sound_2.started,sound_2.stopped,key_resp_3.keys,mouse_5.x,mouse_5.y,mouse_5.leftButton,mouse_5.midButton,mouse_5.rightButton,mouse_5.started,mouse_5.stopped,yes_text2.started,yes_text2.stopped,no_text2.started,no_text2.stopped,mouse_3.x,mouse_3.y,mouse_3.leftButton,mouse_3.midButton,mouse_3.rightButton,mouse_3.started,mouse_3.stopped,st_prac_back.started,st_prac_back.stopped,st_prac_text.started,st_prac_text.stopped,st_fix_back.started,st_fix_back.stopped,st_fix_2.started,st_fix_2.stopped,main_prac,st_ans,st_res,st_corr,st_rt,st_back.started,st_back.stopped,st2_resp.keys,st2_resp.corr,st_main_back.started,st_main_back.stopped,st_main_text.started,st_main_text.stopped,mouse_4.x,mouse_4.y,mouse_4.leftButton,mouse_4.midButton,mouse_4.rightButton,mouse_4.started,mouse_4.stopped,text_2.started,text_2.stopped,id*,age*,gender*,date,expName,psychopyVersion,frameRate,
,,,,,,,,,,,,,,,,,47.65454950000003,None,0.27314815,-0.23055555,0,0,0,,,,,,,,,,,,,,,,,,,,,,,,,,,,,,,,,,,,,,,,,,,,,,,,,,,,223,20,Male,2022-05-24_13h40.47.089,Main,2022.1.1,59.97897137267483,
negative,yellow,1,k,None,,,,,0,0,0,0,,,,,,,,,,,,53.471713529999896,None,None,0.25555557,0.35277778,0,0,0,1.0082304000000022,None,107.59870879999994,None,107.59870879999994,None,-0.08425926,-0.0787037,0,0,0,0.012440229999810981,None,109.70352130000015,None,109.70352130000015,None,111.71514129999991,None,111.71514129999991,None,prac,None,None,1,1.4948269999999866,113.75627920000011,None,None,1,,,,,,,,,,,,,,223,20,Male,2022-05-24_13h40.47.089,Main,2022.1.1,59.97897137267483,
positive,red,2,None,None,,,,,0,1,1,1,,,,,,,,,,,,,,,,,,,,,,,,,,,,,,,,,,,,,,,,,prac,None,None,1,1.5021618000000672,116.24395690000006,None,None,1,,,,,,,,,,,,,,223,20,Male,2022-05-24_13h40.47.089,Main,2022.1.1,59.97897137267483,
negative,blue,2,None,k,,,,,0,2,2,2,,,,,,,,,,,,,,,,,,,,,,,,,,,,,,,,,,,,,,,,,prac,k,k,1,1.7458937000001242,118.74913899999979,None,None,0,,,,,,,,,,,,,,223,20,Male,2022-05-24_13h40.47.089,Main,2022.1.1,59.97897137267483,
positive,yellow,1,None,k,,,,,0,3,3,3,,,,,,,,,,,,,,,,,,,,,,,,,,,,,,,,,,,,,,,,,prac,k,k,1,1.3183294999998907,122.52514889999998,None,None,0,,,,,,,,,,,,,,223,20,Male,2022-05-24_13h40.47.089,Main,2022.1.1,59.97897137267483,
negative,blue,2,None,k,,,,,0,4,4,4,,,,,,,,,,,,,,,,,,,,,,,,,,,,,,,,,,,,,,,,,prac,k,k,1,1.0522590000000491,124.83682109999995,None,None,0,,,,,,,,,,,,,,223,20,Male,2022-05-24_13h40.47.089,Main,2022.1.1,59.97897137267483,
negative,blue,1,None,k,,,,,0,5,5,5,,,,,,,,,,,,,,,,,,,,,,,,,,,,,,,,,,,,,,,,,prac,k,k,1,0.8896327999996174,126.89849979999985,None,None,0,,,,,,,,,,,,,,223,20,Male,2022-05-24_13h40.47.089,Main,2022.1.1,59.97897137267483,
negative,yellow,2,k,None,,,,,0,6,6,6,,,,,,,,,,,,,,,,,,,,,,,,,,,,,,,,,,,,,,,,,prac,None,None,1,1.4977747000002637,128.7783705999998,None,None,1,,,,,,,,,,,,,,223,20,Male,2022-05-24_13h40.47.089,Main,2022.1.1,59.97897137267483,
negative,red,1,None,None,,,,,0,7,7,7,,,,,,,,,,,,,,,,,,,,,,,,,,,,,,,,,,,,,,,,,prac,None,None,1,1.4986486000002515,131.28153859999998,None,None,1,,,,,,,,,,,,,,223,20,Male,2022-05-24_13h40.47.089,Main,2022.1.1,59.97897137267483,
positive,yellow,2,None,k,,,,,0,8,8,8,,,,,,,,,,,,,,,,,,,,,,,,,,,,,,,,,,,,,,,,,prac,k,k,1,1.0317254000001412,133.77776040000003,None,None,0,,,,,,,,,,,,,,223,20,Male,2022-05-24_13h40.47.089,Main,2022.1.1,59.97897137267483,
negative,yellow,1,k,None,,,,,0,9,9,9,,,,,,,,,,,,,,,,,,,,,,,,,,,,,,,,,,,,,,,,,prac,None,None,1,1.5069566999995914,135.8154235999998,None,None,1,,,,,,,,,,,,,,223,20,Male,2022-05-24_13h40.47.089,Main,2022.1.1,59.97897137267483,
positive,yellow,2,None,k,,,,,0,10,10,10,,,,,,,,,,,,,,,,,,,,,,,,,,,,,,,,,,,,,,,,,prac,k,k,1,1.0405697000001055,138.32168849999994,None,None,0,,,,,,,,,,,,,,223,20,Male,2022-05-24_13h40.47.089,Main,2022.1.1,59.97897137267483,
negative,yellow,2,k,None,,,,,0,11,11,11,,,,,,,,,,,,,,,,,,,,,,,,,,,,,,,,,,,,,,,,,prac,None,k,0,0.8231881000001522,140.37447749999978,None,None,1,,,,,,,,,,,,,,223,20,Male,2022-05-24_13h40.47.089,Main,2022.1.1,59.97897137267483,
negative,red,2,None,None,,,,,0,12,12,12,,,,,,,,,,,,,,,,,,,,,,,,,,,,,,,,,,,,,,,,,prac,None,None,1,1.502849200000128,143.1974257999998,None,None,1,,,,,,,,,,,,,,223,20,Male,2022-05-24_13h40.47.089,Main,2022.1.1,59.97897137267483,
positive,red,1,None,None,,,,,0,13,13,13,,,,,,,,,,,,,,,,,,,,,,,,,,,,,,,,,,,,,,,,,prac,None,None,1,1.5137489999997342,145.71300600000018,None,None,1,,,,,,,,,,,,,,223,20,Male,2022-05-24_13h40.47.089,Main,2022.1.1,59.97897137267483,
positive,blue,2,k,None,,,,,0,14,14,14,,,,,,,,,,,,,,,,,,,,,,,,,,,,,,,,,,,,,,,,,prac,None,None,1,1.5115214000002197,148.22090580000008,None,None,1,,,,,,,,,,,,,,223,20,Male,2022-05-24_13h40.47.089,Main,2022.1.1,59.97897137267483,
positive,blue,1,k,None,,,,,0,15,15,15,,,,,,,,,,,,,,,,,,,,,,,,,,,,,,,,,,,,,,,,,prac,None,None,1,1.5057345000000169,150.7311456,None,None,1,,,,,,,,,,,,,,223,20,Male,2022-05-24_13h40.47.089,Main,2022.1.1,59.97897137267483,
negative,blue,1,None,k,,,,,0,16,16,16,,,,,,,,,,,,,,,,,,,,,,,,,,,,,,,,,,,,,,,,,prac,k,k,1,0.7092818999999508,153.2368331,None,None,0,,,,,,,,,,,,,,223,20,Male,2022-05-24_13h40.47.089,Main,2022.1.1,59.97897137267483,
positive,blue,2,k,None,,,,,0,17,17,17,,,,,,,,,,,,,,,,,,,,,,,,,,,,,,,,,,,,,,,,,prac,None,None,1,1.510874000000058,154.9491716,None,None,1,,,,,,,,,,,,,,223,20,Male,2022-05-24_13h40.47.089,Main,2022.1.1,59.97897137267483,
positive,blue,1,k,None,,,,,0,18,18,18,,,,,,,,,,,,,,,,,,,,,,,,,,,,,,,,,,,,,,,,,prac,None,None,1,1.4999766000000818,157.4621393,None,None,1,,,,,,,,,,,,,,223,20,Male,2022-05-24_13h40.47.089,Main,2022.1.1,59.97897137267483,
positive,yellow,1,None,k,,,,,0,19,19,19,,,,,,,,,,,,,,,,,,,,,,,,,,,,,,,,,,,,,,,,,prac,k,k,1,1.2338331999999355,159.95970509999984,None,None,0,,,,,,,,,,,,,,223,20,Male,2022-05-24_13h40.47.089,Main,2022.1.1,59.97897137267483,
negative,yellow,1,k,None,,,,,1,0,20,0,,,,,,,,,,,,,,,,,,,,,,,,,,,,,,,,,,,,,,,,,prac,None,None,1,1.4981198000000404,162.19836789999977,None,None,1,,,,,,,,,,,,,,223,20,Male,2022-05-24_13h40.47.089,Main,2022.1.1,59.97897137267483,
positive,red,2,None,None,,,,,1,1,21,1,,,,,,,,,,,,,,,,,,,,,,,,,,,,,,,,,,,,,,,,,prac,None,None,1,1.5098957000000155,164.69870879999985,None,None,1,,,,,,,,,,,,,,223,20,Male,2022-05-24_13h40.47.089,Main,2022.1.1,59.97897137267483,
negative,blue,2,None,k,,,,,1,2,22,2,,,,,,,,,,,,,,,,,,,,,,,,,,,,,,,,,,,,,,,,,prac,k,k,1,0.6764235999999073,167.2057852999999,None,None,0,,,,,,,,,,,,,,223,20,Male,2022-05-24_13h40.47.089,Main,2022.1.1,59.97897137267483,
positive,yellow,1,None,k,,,,,1,3,23,3,,,,,,,,,,,,,,,,,,,,,,,,,,,,,,,,,,,,,,,,,prac,k,k,1,0.9075273000003108,168.88927279999984,None,None,0,,,,,,,,,,,,,,223,20,Male,2022-05-24_13h40.47.089,Main,2022.1.1,59.97897137267483,
negative,blue,2,None,k,,,,,1,4,24,4,,,,,,,,,,,,,,,,,,,,,,,,,,,,,,,,,,,,,,,,,prac,k,k,1,0.6936620000001312,170.80001449999986,None,None,0,,,,,,,,,,,,,,223,20,Male,2022-05-24_13h40.47.089,Main,2022.1.1,59.97897137267483,
negative,blue,1,None,k,,,,,1,5,25,5,,,,,,,,,,,,,,,,,,,,,,,,,,,,,,,,,,,,,,,,,prac,k,k,1,0.7823510000002898,172.49004600000012,None,None,0,,,,,,,,,,,,,,223,20,Male,2022-05-24_13h40.47.089,Main,2022.1.1,59.97897137267483,
negative,yellow,2,k,None,,,,,1,6,26,6,,,,,,,,,,,,,,,,,,,,,,,,,,,,,,,,,,,,,,,,,prac,None,None,1,1.4970068000002357,174.27746000000002,None,None,1,,,,,,,,,,,,,,223,20,Male,2022-05-24_13h40.47.089,Main,2022.1.1,59.97897137267483,
negative,red,1,None,None,,,,,1,7,27,7,,,,,,,,,,,,,,,,,,,,,,,,,,,,,,,,,,,,,,,,,prac,None,None,1,1.5039959000000636,176.77607049999983,None,None,1,,,,,,,,,,,,,,223,20,Male,2022-05-24_13h40.47.089,Main,2022.1.1,59.97897137267483,
positive,yellow,2,None,k,,,,,1,8,28,8,,,,,,,,,,,,,,,,,,,,,,,,,,,,,,,,,,,,,,,,,prac,k,k,1,0.7436170999999376,179.28197999999998,None,None,0,,,,,,,,,,,,,,223,20,Male,2022-05-24_13h40.47.089,Main,2022.1.1,59.97897137267483,
negative,yellow,1,k,None,,,,,1,9,29,9,,,,,,,,,,,,,,,,,,,,,,,,,,,,,,,,,,,,,,,,,prac,None,None,1,1.5118287000000237,181.02685459999998,None,None,1,,,,,,,,,,,,,,223,20,Male,2022-05-24_13h40.47.089,Main,2022.1.1,59.97897137267483,
positive,yellow,2,None,k,,,,,1,10,30,10,,,,,,,,,,,,,,,,,,,,,,,,,,,,,,,,,,,,,,,,,prac,k,k,1,0.5462686000000758,183.5376374,None,None,0,,,,,,,,,,,,,,223,20,Male,2022-05-24_13h40.47.089,Main,2022.1.1,59.97897137267483,
negative,yellow,2,k,None,,,,,1,11,31,11,,,,,,,,,,,,,,,,,,,,,,,,,,,,,,,,,,,,,,,,,prac,None,None,1,1.5152760999999373,185.08708839999986,None,None,1,,,,,,,,,,,,,,223,20,Male,2022-05-24_13h40.47.089,Main,2022.1.1,59.97897137267483,
negative,red,2,None,None,,,,,1,12,32,12,,,,,,,,,,,,,,,,,,,,,,,,,,,,,,,,,,,,,,,,,prac,None,None,1,1.499359899999945,187.60388810000018,None,None,1,,,,,,,,,,,,,,223,20,Male,2022-05-24_13h40.47.089,Main,2022.1.1,59.97897137267483,
positive,red,1,None,None,,,,,1,13,33,13,,,,,,,,,,,,,,,,,,,,,,,,,,,,,,,,,,,,,,,,,prac,None,None,1,1.5021114000001035,190.10495160000005,None,None,1,,,,,,,,,,,,,,223,20,Male,2022-05-24_13h40.47.089,Main,2022.1.1,59.97897137267483,
positive,blue,2,k,None,,,,,1,14,34,14,,,,,,,,,,,,,,,,,,,,,,,,,,,,,,,,,,,,,,,,,prac,None,None,1,1.5117635999999948,192.61252619999982,None,None,1,,,,,,,,,,,,,,223,20,Male,2022-05-24_13h40.47.089,Main,2022.1.1,59.97897137267483,
positive,blue,1,k,None,,,,,1,15,35,15,,,,,,,,,,,,,,,,,,,,,,,,,,,,,,,,,,,,,,,,,prac,None,None,1,1.513392400000157,195.12221669999985,None,None,1,,,,,,,,,,,,,,223,20,Male,2022-05-24_13h40.47.089,Main,2022.1.1,59.97897137267483,
negative,blue,1,None,k,,,,,1,16,36,16,,,,,,,,,,,,,,,,,,,,,,,,,,,,,,,,,,,,,,,,,prac,k,k,1,0.771447299999636,197.6365718999998,None,None,0,,,,,,,,,,,,,,223,20,Male,2022-05-24_13h40.47.089,Main,2022.1.1,59.97897137267483,
positive,blue,2,k,None,,,,,1,17,37,17,,,,,,,,,,,,,,,,,,,,,,,,,,,,,,,,,,,,,,,,,prac,None,None,1,1.5121100999999726,199.41288670000017,None,None,1,,,,,,,,,,,,,,223,20,Male,2022-05-24_13h40.47.089,Main,2022.1.1,59.97897137267483,
positive,blue,1,k,None,,,,,1,18,38,18,,,,,,,,,,,,,,,,,,,,,,,,,,,,,,,,,,,,,,,,,prac,None,None,1,1.511526099999628,201.92763600000012,None,None,1,,,,,,,,,,,,,,223,20,Male,2022-05-24_13h40.47.089,Main,2022.1.1,59.97897137267483,
positive,yellow,1,None,k,,,,,1,19,39,19,,,,,,,,,,,,,,,,,,,,,,,,,,,,,,,,,,,,,,,,,prac,k,k,1,1.165429000000131,204.4367009,None,None,0,,,,,,,,,,,,,,223,20,Male,2022-05-24_13h40.47.089,Main,2022.1.1,59.97897137267483,
,,,,,,,,,,,,,,,,,,,,,,,,,,,,,,,,,,,,,,,,,,,,,,,,,,,,,,,,,,,,,,206.61959289999982,None,206.61959289999982,None,0.3935185,-0.009259259,0,0,0,0.00939152999990256,None,,,223,20,Male,2022-05-24_13h40.47.089,Main,2022.1.1,59.97897137267483,
negative,yellow,2,k,None,,,,,,,,,0,0,0,0,,,,,,,,,,,,,,,,,,,,,,,,,,,,,,,,,210.19008629999985,None,210.19008629999985,None,main,None,None,1,1.509117999999944,212.25797989999978,None,None,1,,,,,,,,,,,,,,223,20,Male,2022-05-24_13h40.47.089,Main,2022.1.1,59.97897137267483,
positive,red,1,None,None,,,,,,,,,0,1,1,1,,,,,,,,,,,,,,,,,,,,,,,,,,,,,,,,,,,,,main,None,None,1,1.5034483999997974,214.77075880000007,None,None,1,,,,,,,,,,,,,,223,20,Male,2022-05-24_13h40.47.089,Main,2022.1.1,59.97897137267483,
positive,blue,2,k,None,,,,,,,,,0,2,2,2,,,,,,,,,,,,,,,,,,,,,,,,,,,,,,,,,,,,,main,None,None,1,1.5091145999999753,217.2771862000002,None,None,1,,,,,,,,,,,,,,223,20,Male,2022-05-24_13h40.47.089,Main,2022.1.1,59.97897137267483,
positive,blue,1,k,None,,,,,,,,,0,3,3,3,,,,,,,,,,,,,,,,,,,,,,,,,,,,,,,,,,,,,main,None,None,1,1.5079279000001407,219.78520839999987,None,None,1,,,,,,,,,,,,,,223,20,Male,2022-05-24_13h40.47.089,Main,2022.1.1,59.97897137267483,
negative,yellow,2,k,None,,,,,,,,,0,4,4,4,,,,,,,,,,,,,,,,,,,,,,,,,,,,,,,,,,,,,main,None,None,1,1.5033249000002797,222.29703630000017,None,None,1,,,,,,,,,,,,,,223,20,Male,2022-05-24_13h40.47.089,Main,2022.1.1,59.97897137267483,
positive,yellow,2,None,k,,,,,,,,,0,5,5,5,,,,,,,,,,,,,,,,,,,,,,,,,,,,,,,,,,,,,main,k,k,1,0.7135424999996758,224.80467509999994,None,None,0,,,,,,,,,,,,,,223,20,Male,2022-05-24_13h40.47.089,Main,2022.1.1,59.97897137267483,
negative,blue,2,None,k,,,,,,,,,0,6,6,6,,,,,,,,,,,,,,,,,,,,,,,,,,,,,,,,,,,,,main,k,k,1,0.9160203999999794,226.51633809999998,None,None,0,,,,,,,,,,,,,,223,20,Male,2022-05-24_13h40.47.089,Main,2022.1.1,59.97897137267483,
positive,red,2,None,None,,,,,,,,,0,7,7,7,,,,,,,,,,,,,,,,,,,,,,,,,,,,,,,,,,,,,main,None,None,1,1.5008308000001307,228.43349999999987,None,None,1,,,,,,,,,,,,,,223,20,Male,2022-05-24_13h40.47.089,Main,2022.1.1,59.97897137267483,
positive,yellow,1,None,k,,,,,,,,,0,8,8,8,,,,,,,,,,,,,,,,,,,,,,,,,,,,,,,,,,,,,main,k,k,1,0.9614974999999504,230.93933029999994,None,None,0,,,,,,,,,,,,,,223,20,Male,2022-05-24_13h40.47.089,Main,2022.1.1,59.97897137267483,
negative,red,1,None,None,,,,,,,,,0,9,9,9,,,,,,,,,,,,,,,,,,,,,,,,,,,,,,,,,,,,,main,None,None,1,1.5021641999996973,232.8994166,None,None,1,,,,,,,,,,,,,,223,20,Male,2022-05-24_13h40.47.089,Main,2022.1.1,59.97897137267483,
positive,yellow,1,None,k,,,,,,,,,0,10,10,10,,,,,,,,,,,,,,,,,,,,,,,,,,,,,,,,,,,,,main,k,k,1,0.9454068999998526,235.40656539999986,None,None,0,,,,,,,,,,,,,,223,20,Male,2022-05-24_13h40.47.089,Main,2022.1.1,59.97897137267483,
negative,yellow,1,k,None,,,,,,,,,0,11,11,11,,,,,,,,,,,,,,,,,,,,,,,,,,,,,,,,,,,,,main,None,None,1,1.5001858000000539,237.35367519999977,None,None,1,,,,,,,,,,,,,,223,20,Male,2022-05-24_13h40.47.089,Main,2022.1.1,59.97897137267483,
negative,yellow,1,k,None,,,,,,,,,0,12,12,12,,,,,,,,,,,,,,,,,,,,,,,,,,,,,,,,,,,,,main,None,None,1,1.5001968999999917,239.85479099999998,None,None,1,,,,,,,,,,,,,,223,20,Male,2022-05-24_13h40.47.089,Main,2022.1.1,59.97897137267483,
negative,red,2,None,None,,,,,,,,,0,13,13,13,,,,,,,,,,,,,,,,,,,,,,,,,,,,,,,,,,,,,main,None,None,1,1.5017515999998068,242.35722710000005,None,None,1,,,,,,,,,,,,,,223,20,Male,2022-05-24_13h40.47.089,Main,2022.1.1,59.97897137267483,
positive,yellow,2,None,k,,,,,,,,,0,14,14,14,,,,,,,,,,,,,,,,,,,,,,,,,,,,,,,,,,,,,main,k,k,1,0.8464767000000393,244.8586075999999,None,None,0,,,,,,,,,,,,,,223,20,Male,2022-05-24_13h40.47.089,Main,2022.1.1,59.97897137267483,
positive,blue,1,k,None,,,,,,,,,0,15,15,15,,,,,,,,,,,,,,,,,,,,,,,,,,,,,,,,,,,,,main,None,None,1,1.5110596999998052,246.70598649999988,None,None,1,,,,,,,,,,,,,,223,20,Male,2022-05-24_13h40.47.089,Main,2022.1.1,59.97897137267483,
negative,blue,1,None,k,,,,,,,,,0,16,16,16,,,,,,,,,,,,,,,,,,,,,,,,,,,,,,,,,,,,,main,k,k,1,0.615534199999729,249.2211104999999,None,None,0,,,,,,,,,,,,,,223,20,Male,2022-05-24_13h40.47.089,Main,2022.1.1,59.97897137267483,
positive,blue,2,k,None,,,,,,,,,0,17,17,17,,,,,,,,,,,,,,,,,,,,,,,,,,,,,,,,,,,,,main,None,None,1,1.5139877999999953,250.83901039999978,None,None,1,,,,,,,,,,,,,,223,20,Male,2022-05-24_13h40.47.089,Main,2022.1.1,59.97897137267483,
negative,blue,2,None,k,,,,,,,,,0,18,18,18,,,,,,,,,,,,,,,,,,,,,,,,,,,,,,,,,,,,,main,k,k,1,1.3985901999999442,253.35374819999993,None,None,0,,,,,,,,,,,,,,223,20,Male,2022-05-24_13h40.47.089,Main,2022.1.1,59.97897137267483,
negative,blue,1,None,k,,,,,,,,,0,19,19,19,,,,,,,,,,,,,,,,,,,,,,,,,,,,,,,,,,,,,main,k,k,1,0.8175455999999031,255.7537960000002,None,None,0,,,,,,,,,,,,,,223,20,Male,2022-05-24_13h40.47.089,Main,2022.1.1,59.97897137267483,
negative,blue,1,None,k,,,,,,,,,0,20,20,20,,,,,,,,,,,,,,,,,,,,,,,,,,,,,,,,,,,,,main,k,k,1,0.7303925999999592,257.5724306999998,None,None,0,,,,,,,,,,,,,,223,20,Male,2022-05-24_13h40.47.089,Main,2022.1.1,59.97897137267483,
negative,blue,2,None,k,,,,,,,,,0,21,21,21,,,,,,,,,,,,,,,,,,,,,,,,,,,,,,,,,,,,,main,k,k,1,0.6967912000000069,259.3048276000002,None,None,0,,,,,,,,,,,,,,223,20,Male,2022-05-24_13h40.47.089,Main,2022.1.1,59.97897137267483,
negative,red,1,None,None,,,,,,,,,0,22,22,22,,,,,,,,,,,,,,,,,,,,,,,,,,,,,,,,,,,,,main,None,None,1,1.505130200000167,261.00296030000004,None,None,1,,,,,,,,,,,,,,223,20,Male,2022-05-24_13h40.47.089,Main,2022.1.1,59.97897137267483,
positive,red,2,None,None,,,,,,,,,0,23,23,23,,,,,,,,,,,,,,,,,,,,,,,,,,,,,,,,,,,,,main,None,None,1,1.4972736999998233,263.50839659999997,None,None,1,,,,,,,,,,,,,,223,20,Male,2022-05-24_13h40.47.089,Main,2022.1.1,59.97897137267483,
negative,red,2,None,None,,,,,,,,,0,24,24,24,,,,,,,,,,,,,,,,,,,,,,,,,,,,,,,,,,,,,main,None,None,1,1.516641400000026,266.0089811,None,None,1,,,,,,,,,,,,,,223,20,Male,2022-05-24_13h40.47.089,Main,2022.1.1,59.97897137267483,
positive,blue,2,k,None,,,,,,,,,0,25,25,25,,,,,,,,,,,,,,,,,,,,,,,,,,,,,,,,,,,,,main,None,k,0,0.7696524000002682,268.5270254999998,None,None,1,,,,,,,,,,,,,,223,20,Male,2022-05-24_13h40.47.089,Main,2022.1.1,59.97897137267483,
negative,yellow,1,k,None,,,,,,,,,0,26,26,26,,,,,,,,,,,,,,,,,,,,,,,,,,,,,,,,,,,,,main,None,None,1,1.507568099999844,271.3138875000002,None,None,1,,,,,,,,,,,,,,223,20,Male,2022-05-24_13h40.47.089,Main,2022.1.1,59.97897137267483,
positive,blue,2,k,None,,,,,,,,,0,27,27,27,,,,,,,,,,,,,,,,,,,,,,,,,,,,,,,,,,,,,main,None,None,1,1.5023224999999911,273.8243237999998,None,None,1,,,,,,,,,,,,,,223,20,Male,2022-05-24_13h40.47.089,Main,2022.1.1,59.97897137267483,
negative,blue,2,None,k,,,,,,,,,0,28,28,28,,,,,,,,,,,,,,,,,,,,,,,,,,,,,,,,,,,,,main,k,k,1,0.698813599999994,276.3299424999998,None,None,0,,,,,,,,,,,,,,223,20,Male,2022-05-24_13h40.47.089,Main,2022.1.1,59.97897137267483,
positive,red,1,None,None,,,,,,,,,0,29,29,29,,,,,,,,,,,,,,,,,,,,,,,,,,,,,,,,,,,,,main,None,None,1,1.5043126999999004,278.0284801999999,None,None,1,,,,,,,,,,,,,,223,20,Male,2022-05-24_13h40.47.089,Main,2022.1.1,59.97897137267483,
positive,blue,1,k,None,,,,,,,,,0,30,30,30,,,,,,,,,,,,,,,,,,,,,,,,,,,,,,,,,,,,,main,None,None,1,1.507136900000205,280.53654230000006,None,None,1,,,,,,,,,,,,,,223,20,Male,2022-05-24_13h40.47.089,Main,2022.1.1,59.97897137267483,
positive,yellow,1,None,k,,,,,,,,,0,31,31,31,,,,,,,,,,,,,,,,,,,,,,,,,,,,,,,,,,,,,main,k,k,1,0.9639588999998523,283.04327279999984,None,None,0,,,,,,,,,,,,,,223,20,Male,2022-05-24_13h40.47.089,Main,2022.1.1,59.97897137267483,
negative,yellow,2,k,None,,,,,,,,,0,32,32,32,,,,,,,,,,,,,,,,,,,,,,,,,,,,,,,,,,,,,main,None,None,1,1.5074605999998312,285.0084844999999,None,None,1,,,,,,,,,,,,,,223,20,Male,2022-05-24_13h40.47.089,Main,2022.1.1,59.97897137267483,
negative,blue,1,None,k,,,,,,,,,0,33,33,33,,,,,,,,,,,,,,,,,,,,,,,,,,,,,,,,,,,,,main,k,k,1,0.9903551000002153,287.5195805000001,None,None,0,,,,,,,,,,,,,,223,20,Male,2022-05-24_13h40.47.089,Main,2022.1.1,59.97897137267483,
positive,blue,1,k,None,,,,,,,,,0,34,34,34,,,,,,,,,,,,,,,,,,,,,,,,,,,,,,,,,,,,,main,None,None,1,1.5009181999998873,289.5135696,None,None,1,,,,,,,,,,,,,,223,20,Male,2022-05-24_13h40.47.089,Main,2022.1.1,59.97897137267483,
negative,yellow,1,k,None,,,,,,,,,0,35,35,35,,,,,,,,,,,,,,,,,,,,,,,,,,,,,,,,,,,,,main,None,None,1,1.51172889999998,292.0157138000002,None,None,1,,,,,,,,,,,,,,223,20,Male,2022-05-24_13h40.47.089,Main,2022.1.1,59.97897137267483,
positive,yellow,2,None,k,,,,,,,,,0,36,36,36,,,,,,,,,,,,,,,,,,,,,,,,,,,,,,,,,,,,,main,k,k,1,0.908550600000126,294.5254612000001,None,None,0,,,,,,,,,,,,,,223,20,Male,2022-05-24_13h40.47.089,Main,2022.1.1,59.97897137267483,
positive,yellow,2,None,k,,,,,,,,,0,37,37,37,,,,,,,,,,,,,,,,,,,,,,,,,,,,,,,,,,,,,main,k,k,1,0.7095976999999039,296.4397526999999,None,None,0,,,,,,,,,,,,,,223,20,Male,2022-05-24_13h40.47.089,Main,2022.1.1,59.97897137267483,
negative,yellow,2,k,None,,,,,,,,,0,38,38,38,,,,,,,,,,,,,,,,,,,,,,,,,,,,,,,,,,,,,main,None,None,1,1.5071844999997666,298.14981280000006,None,None,1,,,,,,,,,,,,,,223,20,Male,2022-05-24_13h40.47.089,Main,2022.1.1,59.97897137267483,
positive,yellow,1,None,k,,,,,,,,,0,39,39,39,,,,,,,,,,,,,,,,,,,,,,,,,,,,,,,,,,,,,main,k,k,1,0.7143473000000995,300.65854699999977,None,None,0,,,,,,,,,,,,,,223,20,Male,2022-05-24_13h40.47.089,Main,2022.1.1,59.97897137267483,
negative,yellow,2,k,None,,,,,,,,,0,40,40,40,,,,,,,,,,,,,,,,,,,,,,,,,,,,,,,,,,,,,main,None,None,1,1.5019815999999082,302.3759292000002,None,None,1,,,,,,,,,,,,,,223,20,Male,2022-05-24_13h40.47.089,Main,2022.1.1,59.97897137267483,
positive,blue,2,k,None,,,,,,,,,0,41,41,41,,,,,,,,,,,,,,,,,,,,,,,,,,,,,,,,,,,,,main,None,None,1,1.5002926000001935,304.88224520000017,None,None,1,,,,,,,,,,,,,,223,20,Male,2022-05-24_13h40.47.089,Main,2022.1.1,59.97897137267483,
positive,blue,2,k,None,,,,,,,,,0,42,42,42,,,,,,,,,,,,,,,,,,,,,,,,,,,,,,,,,,,,,main,None,None,1,1.507977799999935,307.3827082999999,None,None,1,,,,,,,,,,,,,,223,20,Male,2022-05-24_13h40.47.089,Main,2022.1.1,59.97897137267483,
negative,blue,2,None,k,,,,,,,,,0,43,43,43,,,,,,,,,,,,,,,,,,,,,,,,,,,,,,,,,,,,,main,k,k,1,1.0143822,309.88917259999994,None,None,0,,,,,,,,,,,,,,223,20,Male,2022-05-24_13h40.47.089,Main,2022.1.1,59.97897137267483,
negative,red,1,None,None,,,,,,,,,0,44,44,44,,,,,,,,,,,,,,,,,,,,,,,,,,,,,,,,,,,,,main,None,None,1,1.5020512000000963,311.9089313000002,None,None,1,,,,,,,,,,,,,,223,20,Male,2022-05-24_13h40.47.089,Main,2022.1.1,59.97897137267483,
negative,yellow,1,k,None,,,,,,,,,0,45,45,45,,,,,,,,,,,,,,,,,,,,,,,,,,,,,,,,,,,,,main,None,None,1,1.5026528999997026,314.4123579999998,None,None,1,,,,,,,,,,,,,,223,20,Male,2022-05-24_13h40.47.089,Main,2022.1.1,59.97897137267483,
negative,yellow,1,k,None,,,,,,,,,0,46,46,46,,,,,,,,,,,,,,,,,,,,,,,,,,,,,,,,,,,,,main,None,None,1,1.5106613999996625,316.9153052999998,None,None,1,,,,,,,,,,,,,,223,20,Male,2022-05-24_13h40.47.089,Main,2022.1.1,59.97897137267483,
positive,red,1,None,None,,,,,,,,,0,47,47,47,,,,,,,,,,,,,,,,,,,,,,,,,,,,,,,,,,,,,main,None,None,1,1.5090685000000121,319.42917699999975,None,None,1,,,,,,,,,,,,,,223,20,Male,2022-05-24_13h40.47.089,Main,2022.1.1,59.97897137267483,
positive,yellow,1,None,k,,,,,,,,,0,48,48,48,,,,,,,,,,,,,,,,,,,,,,,,,,,,,,,,,,,,,main,k,k,1,0.9014929999998458,321.9378463999999,None,None,0,,,,,,,,,,,,,,223,20,Male,2022-05-24_13h40.47.089,Main,2022.1.1,59.97897137267483,
negative,blue,1,None,k,,,,,,,,,0,49,49,49,,,,,,,,,,,,,,,,,,,,,,,,,,,,,,,,,,,,,main,k,k,1,0.8791197000000466,323.84322670000006,None,None,0,,,,,,,,,,,,,,223,20,Male,2022-05-24_13h40.47.089,Main,2022.1.1,59.97897137267483,
positive,yellow,2,None,k,,,,,,,,,0,50,50,50,,,,,,,,,,,,,,,,,,,,,,,,,,,,,,,,,,,,,main,k,k,1,1.2654867999999624,325.7228690999998,None,None,0,,,,,,,,,,,,,,223,20,Male,2022-05-24_13h40.47.089,Main,2022.1.1,59.97897137267483,
negative,blue,1,None,k,,,,,,,,,0,51,51,51,,,,,,,,,,,,,,,,,,,,,,,,,,,,,,,,,,,,,main,k,k,1,0.8103396999999859,327.98716360000003,None,None,0,,,,,,,,,,,,,,223,20,Male,2022-05-24_13h40.47.089,Main,2022.1.1,59.97897137267483,
positive,red,2,None,None,,,,,,,,,0,52,52,52,,,,,,,,,,,,,,,,,,,,,,,,,,,,,,,,,,,,,main,None,None,1,1.5040534999998272,329.8004973999998,None,None,1,,,,,,,,,,,,,,223,20,Male,2022-05-24_13h40.47.089,Main,2022.1.1,59.97897137267483,
positive,yellow,2,None,k,,,,,,,,,0,53,53,53,,,,,,,,,,,,,,,,,,,,,,,,,,,,,,,,,,,,,main,k,k,1,0.8885616000002301,332.3103678,None,None,0,,,,,,,,,,,,,,223,20,Male,2022-05-24_13h40.47.089,Main,2022.1.1,59.97897137267483,
negative,red,2,None,None,,,,,,,,,0,54,54,54,,,,,,,,,,,,,,,,,,,,,,,,,,,,,,,,,,,,,main,None,None,1,1.5042727000000014,334.1982449999998,None,None,1,,,,,,,,,,,,,,223,20,Male,2022-05-24_13h40.47.089,Main,2022.1.1,59.97897137267483,
positive,yellow,1,None,k,,,,,,,,,0,55,55,55,,,,,,,,,,,,,,,,,,,,,,,,,,,,,,,,,,,,,main,k,k,1,0.6471830000000409,336.7068861,None,None,0,,,,,,,,,,,,,,223,20,Male,2022-05-24_13h40.47.089,Main,2022.1.1,59.97897137267483,
negative,blue,2,None,k,,,,,,,,,0,56,56,56,,,,,,,,,,,,,,,,,,,,,,,,,,,,,,,,,,,,,main,k,k,1,0.8156143000001066,338.35576079999987,None,None,0,,,,,,,,,,,,,,223,20,Male,2022-05-24_13h40.47.089,Main,2022.1.1,59.97897137267483,
positive,blue,1,k,None,,,,,,,,,0,57,57,57,,,,,,,,,,,,,,,,,,,,,,,,,,,,,,,,,,,,,main,None,None,1,1.5086286000000655,340.1695063999998,None,None,1,,,,,,,,,,,,,,223,20,Male,2022-05-24_13h40.47.089,Main,2022.1.1,59.97897137267483,
positive,blue,1,k,None,,,,,,,,,0,58,58,58,,,,,,,,,,,,,,,,,,,,,,,,,,,,,,,,,,,,,main,None,k,0,0.6234699000001456,342.68093999999996,None,None,1,,,,,,,,,,,,,,223,20,Male,2022-05-24_13h40.47.089,Main,2022.1.1,59.97897137267483,
negative,yellow,2,k,None,,,,,,,,,0,59,59,59,,,,,,,,,,,,,,,,,,,,,,,,,,,,,,,,,,,,,main,None,None,1,1.507398700000067,345.3207501999998,None,None,1,,,,,,,,,,,,,,223,20,Male,2022-05-24_13h40.47.089,Main,2022.1.1,59.97897137267483,
positive,red,2,None,None,,,,,,,,,0,60,60,60,,,,,,,,,,,,,,,,,,,,,,,,,,,,,,,,,,,,,main,None,None,1,1.5005204999997659,347.82826980000004,None,None,1,,,,,,,,,,,,,,223,20,Male,2022-05-24_13h40.47.089,Main,2022.1.1,59.97897137267483,
negative,yellow,1,k,None,,,,,,,,,0,61,61,61,,,,,,,,,,,,,,,,,,,,,,,,,,,,,,,,,,,,,main,None,None,1,1.5162304000000404,350.3313778999998,None,None,1,,,,,,,,,,,,,,223,20,Male,2022-05-24_13h40.47.089,Main,2022.1.1,59.97897137267483,
negative,red,1,None,None,,,,,,,,,0,62,62,62,,,,,,,,,,,,,,,,,,,,,,,,,,,,,,,,,,,,,main,None,None,1,1.4995920999999726,352.8488356999999,None,None,1,,,,,,,,,,,,,,223,20,Male,2022-05-24_13h40.47.089,Main,2022.1.1,59.97897137267483,
negative,blue,1,None,k,,,,,,,,,0,63,63,63,,,,,,,,,,,,,,,,,,,,,,,,,,,,,,,,,,,,,main,k,k,1,0.6988484999997127,355.3542181999999,None,None,0,,,,,,,,,,,,,,223,20,Male,2022-05-24_13h40.47.089,Main,2022.1.1,59.97897137267483,
positive,blue,2,k,None,,,,,,,,,0,64,64,64,,,,,,,,,,,,,,,,,,,,,,,,,,,,,,,,,,,,,main,None,None,1,1.4960743000001457,357.0548789000002,None,None,1,,,,,,,,,,,,,,223,20,Male,2022-05-24_13h40.47.089,Main,2022.1.1,59.97897137267483,
negative,yellow,2,k,None,,,,,,,,,0,65,65,65,,,,,,,,,,,,,,,,,,,,,,,,,,,,,,,,,,,,,main,None,None,1,1.4938421000001654,359.5512661,None,None,1,,,,,,,,,,,,,,223,20,Male,2022-05-24_13h40.47.089,Main,2022.1.1,59.97897137267483,
positive,yellow,2,None,k,,,,,,,,,0,66,66,66,,,,,,,,,,,,,,,,,,,,,,,,,,,,,,,,,,,,,main,k,k,1,0.8530279999999948,362.04578149999975,None,None,0,,,,,,,,,,,,,,223,20,Male,2022-05-24_13h40.47.089,Main,2022.1.1,59.97897137267483,
positive,yellow,2,None,k,,,,,,,,,0,67,67,67,,,,,,,,,,,,,,,,,,,,,,,,,,,,,,,,,,,,,main,k,k,1,0.7007717999999841,363.9042864999999,None,None,0,,,,,,,,,,,,,,223,20,Male,2022-05-24_13h40.47.089,Main,2022.1.1,59.97897137267483,
positive,red,1,None,None,,,,,,,,,0,68,68,68,,,,,,,,,,,,,,,,,,,,,,,,,,,,,,,,,,,,,main,None,None,1,1.5097063999996863,365.6069909999999,None,None,1,,,,,,,,,,,,,,223,20,Male,2022-05-24_13h40.47.089,Main,2022.1.1,59.97897137267483,
positive,yellow,1,None,k,,,,,,,,,0,69,69,69,,,,,,,,,,,,,,,,,,,,,,,,,,,,,,,,,,,,,main,k,k,1,0.7325299999997696,368.11402870000006,None,None,0,,,,,,,,,,,,,,223,20,Male,2022-05-24_13h40.47.089,Main,2022.1.1,59.97897137267483,
negative,yellow,2,k,None,,,,,,,,,0,70,70,70,,,,,,,,,,,,,,,,,,,,,,,,,,,,,,,,,,,,,main,None,None,1,1.5148635000000468,369.847262,None,None,1,,,,,,,,,,,,,,223,20,Male,2022-05-24_13h40.47.089,Main,2022.1.1,59.97897137267483,
positive,yellow,1,None,k,,,,,,,,,0,71,71,71,,,,,,,,,,,,,,,,,,,,,,,,,,,,,,,,,,,,,main,k,k,1,1.028630300000259,372.36459409999975,None,None,0,,,,,,,,,,,,,,223,20,Male,2022-05-24_13h40.47.089,Main,2022.1.1,59.97897137267483,
negative,blue,1,None,k,,,,,,,,,0,72,72,72,,,,,,,,,,,,,,,,,,,,,,,,,,,,,,,,,,,,,main,k,k,1,0.9325254000000314,374.39756809999994,None,None,0,,,,,,,,,,,,,,223,20,Male,2022-05-24_13h40.47.089,Main,2022.1.1,59.97897137267483,
negative,red,2,None,None,,,,,,,,,0,73,73,73,,,,,,,,,,,,,,,,,,,,,,,,,,,,,,,,,,,,,main,None,None,1,1.5121586000000207,376.32934450000016,None,None,1,,,,,,,,,,,,,,223,20,Male,2022-05-24_13h40.47.089,Main,2022.1.1,59.97897137267483,
positive,blue,2,k,None,,,,,,,,,0,74,74,74,,,,,,,,,,,,,,,,,,,,,,,,,,,,,,,,,,,,,main,None,None,1,1.5156354999999166,378.8457586000002,None,None,1,,,,,,,,,,,,,,223,20,Male,2022-05-24_13h40.47.089,Main,2022.1.1,59.97897137267483,
negative,blue,2,None,k,,,,,,,,,0,75,75,75,,,,,,,,,,,,,,,,,,,,,,,,,,,,,,,,,,,,,main,k,k,1,0.8922333999998955,381.3629966000001,None,None,0,,,,,,,,,,,,,,223,20,Male,2022-05-24_13h40.47.089,Main,2022.1.1,59.97897137267483,
negative,blue,2,None,k,,,,,,,,,0,76,76,76,,,,,,,,,,,,,,,,,,,,,,,,,,,,,,,,,,,,,main,k,k,1,0.7513545000001614,383.25853500000017,None,None,0,,,,,,,,,,,,,,223,20,Male,2022-05-24_13h40.47.089,Main,2022.1.1,59.97897137267483,
negative,yellow,1,k,None,,,,,,,,,0,77,77,77,,,,,,,,,,,,,,,,,,,,,,,,,,,,,,,,,,,,,main,None,None,1,1.5096591000001354,385.0103692,None,None,1,,,,,,,,,,,,,,223,20,Male,2022-05-24_13h40.47.089,Main,2022.1.1,59.97897137267483,
positive,blue,1,k,None,,,,,,,,,0,78,78,78,,,,,,,,,,,,,,,,,,,,,,,,,,,,,,,,,,,,,main,None,None,1,1.5087381000003006,387.52440189999993,None,None,1,,,,,,,,,,,,,,223,20,Male,2022-05-24_13h40.47.089,Main,2022.1.1,59.97897137267483,
positive,blue,1,k,None,,,,,,,,,0,79,79,79,,,,,,,,,,,,,,,,,,,,,,,,,,,,,,,,,,,,,main,None,None,1,1.50172479999992,390.0363261,None,None,1,,,,,,,,,,,,,,223,20,Male,2022-05-24_13h40.47.089,Main,2022.1.1,59.97897137267483,
positive,red,2,None,None,,,,,,,,,0,80,80,80,,,,,,,,,,,,,,,,,,,,,,,,,,,,,,,,,,,,,main,None,None,1,1.5029997000001458,392.53737449999994,None,None,1,,,,,,,,,,,,,,223,20,Male,2022-05-24_13h40.47.089,Main,2022.1.1,59.97897137267483,
positive,yellow,2,None,k,,,,,,,,,0,81,81,81,,,,,,,,,,,,,,,,,,,,,,,,,,,,,,,,,,,,,main,k,k,1,0.9979631999999583,395.0427827000001,None,None,0,,,,,,,,,,,,,,223,20,Male,2022-05-24_13h40.47.089,Main,2022.1.1,59.97897137267483,
positive,blue,1,k,None,,,,,,,,,0,82,82,82,,,,,,,,,,,,,,,,,,,,,,,,,,,,,,,,,,,,,main,None,None,1,1.5060417999998208,397.0428776000001,None,None,1,,,,,,,,,,,,,,223,20,Male,2022-05-24_13h40.47.089,Main,2022.1.1,59.97897137267483,
negative,yellow,2,k,None,,,,,,,,,0,83,83,83,,,,,,,,,,,,,,,,,,,,,,,,,,,,,,,,,,,,,main,None,None,1,1.4978907999998228,399.55422440000007,None,None,1,,,,,,,,,,,,,,223,20,Male,2022-05-24_13h40.47.089,Main,2022.1.1,59.97897137267483,
positive,blue,2,k,None,,,,,,,,,0,84,84,84,,,,,,,,,,,,,,,,,,,,,,,,,,,,,,,,,,,,,main,None,None,1,1.501783499999874,402.0532805,None,None,1,,,,,,,,,,,,,,223,20,Male,2022-05-24_13h40.47.089,Main,2022.1.1,59.97897137267483,
positive,yellow,1,None,k,,,,,,,,,0,85,85,85,,,,,,,,,,,,,,,,,,,,,,,,,,,,,,,,,,,,,main,k,k,1,1.1220361000000594,404.55558959999985,None,None,0,,,,,,,,,,,,,,223,20,Male,2022-05-24_13h40.47.089,Main,2022.1.1,59.97897137267483,
positive,blue,2,k,None,,,,,,,,,0,86,86,86,,,,,,,,,,,,,,,,,,,,,,,,,,,,,,,,,,,,,main,None,None,1,1.5037757999998576,406.6768722999998,None,None,1,,,,,,,,,,,,,,223,20,Male,2022-05-24_13h40.47.089,Main,2022.1.1,59.97897137267483,
positive,blue,1,k,None,,,,,,,,,0,87,87,87,,,,,,,,,,,,,,,,,,,,,,,,,,,,,,,,,,,,,main,None,None,1,1.498287999999775,409.1858500999999,None,None,1,,,,,,,,,,,,,,223,20,Male,2022-05-24_13h40.47.089,Main,2022.1.1,59.97897137267483,
negative,yellow,2,k,None,,,,,,,,,0,88,88,88,,,,,,,,,,,,,,,,,,,,,,,,,,,,,,,,,,,,,main,None,None,1,1.5029462999996213,411.6853367000001,None,None,1,,,,,,,,,,,,,,223,20,Male,2022-05-24_13h40.47.089,Main,2022.1.1,59.97897137267483,
negative,blue,2,None,k,,,,,,,,,0,89,89,89,,,,,,,,,,,,,,,,,,,,,,,,,,,,,,,,,,,,,main,k,k,1,0.849874699999873,414.18848839999987,None,None,0,,,,,,,,,,,,,,223,20,Male,2022-05-24_13h40.47.089,Main,2022.1.1,59.97897137267483,
positive,yellow,2,None,k,,,,,,,,,0,90,90,90,,,,,,,,,,,,,,,,,,,,,,,,,,,,,,,,,,,,,main,k,k,1,0.8512906000000839,416.0437386000001,None,None,0,,,,,,,,,,,,,,223,20,Male,2022-05-24_13h40.47.089,Main,2022.1.1,59.97897137267483,
negative,yellow,1,k,None,,,,,,,,,0,91,91,91,,,,,,,,,,,,,,,,,,,,,,,,,,,,,,,,,,,,,main,None,None,1,1.514021700000285,417.89371270000015,None,None,1,,,,,,,,,,,,,,223,20,Male,2022-05-24_13h40.47.089,Main,2022.1.1,59.97897137267483,
negative,red,2,None,None,,,,,,,,,0,92,92,92,,,,,,,,,,,,,,,,,,,,,,,,,,,,,,,,,,,,,main,None,None,1,1.5072236999999404,420.40904620000015,None,None,1,,,,,,,,,,,,,,223,20,Male,2022-05-24_13h40.47.089,Main,2022.1.1,59.97897137267483,
negative,blue,2,None,k,,,,,,,,,0,93,93,93,,,,,,,,,,,,,,,,,,,,,,,,,,,,,,,,,,,,,main,k,k,1,1.1385918000000856,422.919901,None,None,0,,,,,,,,,,,,,,223,20,Male,2022-05-24_13h40.47.089,Main,2022.1.1,59.97897137267483,
negative,blue,1,None,k,,,,,,,,,0,94,94,94,,,,,,,,,,,,,,,,,,,,,,,,,,,,,,,,,,,,,main,k,k,1,0.8145066000001862,425.0583104,None,None,0,,,,,,,,,,,,,,223,20,Male,2022-05-24_13h40.47.089,Main,2022.1.1,59.97897137267483,
negative,blue,1,None,k,,,,,,,,,0,95,95,95,,,,,,,,,,,,,,,,,,,,,,,,,,,,,,,,,,,,,main,k,k,1,0.6763239000001704,426.87849870000014,None,None,0,,,,,,,,,,,,,,223,20,Male,2022-05-24_13h40.47.089,Main,2022.1.1,59.97897137267483,
negative,red,1,None,None,,,,,,,,,0,96,96,96,,,,,,,,,,,,,,,,,,,,,,,,,,,,,,,,,,,,,main,None,None,1,1.5123250999999982,428.5545092,None,None,1,,,,,,,,,,,,,,223,20,Male,2022-05-24_13h40.47.089,Main,2022.1.1,59.97897137267483,
positive,yellow,1,None,k,,,,,,,,,0,97,97,97,,,,,,,,,,,,,,,,,,,,,,,,,,,,,,,,,,,,,main,k,k,1,0.8214338000002499,431.0708704000001,None,None,0,,,,,,,,,,,,,,223,20,Male,2022-05-24_13h40.47.089,Main,2022.1.1,59.97897137267483,
negative,yellow,1,k,None,,,,,,,,,0,98,98,98,,,,,,,,,,,,,,,,,,,,,,,,,,,,,,,,,,,,,main,None,None,1,1.505878500000108,432.8976089999999,None,None,1,,,,,,,,,,,,,,223,20,Male,2022-05-24_13h40.47.089,Main,2022.1.1,59.97897137267483,
positive,red,1,None,None,,,,,,,,,0,99,99,99,,,,,,,,,,,,,,,,,,,,,,,,,,,,,,,,,,,,,main,None,None,1,1.4975304999998116,435.4031379999999,None,None,1,,,,,,,,,,,,,,223,20,Male,2022-05-24_13h40.47.089,Main,2022.1.1,59.97897137267483,
positive,blue,1,k,None,,,,,,,,,0,100,100,100,,,,,,,,,,,,,,,,,,,,,,,,,,,,,,,,,,,,,main,None,None,1,1.5000378999998247,437.90433989999997,None,None,1,,,,,,,,,,,,,,223,20,Male,2022-05-24_13h40.47.089,Main,2022.1.1,59.97897137267483,
negative,yellow,1,k,None,,,,,,,,,0,101,101,101,,,,,,,,,,,,,,,,,,,,,,,,,,,,,,,,,,,,,main,None,None,1,1.5022226999999475,440.40567350000015,None,None,1,,,,,,,,,,,,,,223,20,Male,2022-05-24_13h40.47.089,Main,2022.1.1,59.97897137267483,
negative,blue,2,None,k,,,,,,,,,0,102,102,102,,,,,,,,,,,,,,,,,,,,,,,,,,,,,,,,,,,,,main,k,k,1,2.4200783999999658,442.9135236999998,None,None,0,,,,,,,,,,,,,,223,20,Male,2022-05-24_13h40.47.089,Main,2022.1.1,59.97897137267483,
negative,yellow,2,k,None,,,,,,,,,0,103,103,103,,,,,,,,,,,,,,,,,,,,,,,,,,,,,,,,,,,,,main,None,k,0,0.8995724999999766,447.3411149000001,None,None,1,,,,,,,,,,,,,,223,20,Male,2022-05-24_13h40.47.089,Main,2022.1.1,59.97897137267483,
positive,yellow,2,None,k,,,,,,,,,0,104,104,104,,,,,,,,,,,,,,,,,,,,,,,,,,,,,,,,,,,,,main,k,k,1,1.0774974999999358,450.25794870000004,None,None,0,,,,,,,,,,,,,,223,20,Male,2022-05-24_13h40.47.089,Main,2022.1.1,59.97897137267483,
positive,blue,1,k,None,,,,,,,,,0,105,105,105,,,,,,,,,,,,,,,,,,,,,,,,,,,,,,,,,,,,,main,None,None,1,1.4988328999997975,452.33915679999996,None,None,1,,,,,,,,,,,,,,223,20,Male,2022-05-24_13h40.47.089,Main,2022.1.1,59.97897137267483,
positive,blue,2,k,None,,,,,,,,,0,106,106,106,,,,,,,,,,,,,,,,,,,,,,,,,,,,,,,,,,,,,main,None,None,1,1.5098911000000044,454.8405221999999,None,None,1,,,,,,,,,,,,,,223,20,Male,2022-05-24_13h40.47.089,Main,2022.1.1,59.97897137267483,
negative,blue,1,None,k,,,,,,,,,0,107,107,107,,,,,,,,,,,,,,,,,,,,,,,,,,,,,,,,,,,,,main,k,k,1,0.8851007999996909,457.3499843000002,None,None,0,,,,,,,,,,,,,,223,20,Male,2022-05-24_13h40.47.089,Main,2022.1.1,59.97897137267483,
positive,yellow,2,None,k,,,,,,,,,0,108,108,108,,,,,,,,,,,,,,,,,,,,,,,,,,,,,,,,,,,,,main,k,k,1,0.9110870999998042,459.2388751000001,None,None,0,,,,,,,,,,,,,,223,20,Male,2022-05-24_13h40.47.089,Main,2022.1.1,59.97897137267483,
negative,yellow,1,k,None,,,,,,,,,0,109,109,109,,,,,,,,,,,,,,,,,,,,,,,,,,,,,,,,,,,,,main,None,None,1,1.5112208000000464,461.1506224000002,None,None,1,,,,,,,,,,,,,,223,20,Male,2022-05-24_13h40.47.089,Main,2022.1.1,59.97897137267483,
negative,blue,2,None,k,,,,,,,,,0,110,110,110,,,,,,,,,,,,,,,,,,,,,,,,,,,,,,,,,,,,,main,k,k,1,0.8383671000001414,463.66500370000017,None,None,0,,,,,,,,,,,,,,223,20,Male,2022-05-24_13h40.47.089,Main,2022.1.1,59.97897137267483,
positive,blue,2,k,None,,,,,,,,,0,111,111,111,,,,,,,,,,,,,,,,,,,,,,,,,,,,,,,,,,,,,main,None,None,1,1.5009893999999804,465.5070398999999,None,None,1,,,,,,,,,,,,,,223,20,Male,2022-05-24_13h40.47.089,Main,2022.1.1,59.97897137267483,
negative,blue,1,None,k,,,,,,,,,0,112,112,112,,,,,,,,,,,,,,,,,,,,,,,,,,,,,,,,,,,,,main,k,k,1,0.8084171000000424,468.0110983000002,None,None,0,,,,,,,,,,,,,,223,20,Male,2022-05-24_13h40.47.089,Main,2022.1.1,59.97897137267483,
positive,yellow,1,None,k,,,,,,,,,0,113,113,113,,,,,,,,,,,,,,,,,,,,,,,,,,,,,,,,,,,,,main,k,k,1,0.8642067000000679,469.8191669,None,None,0,,,,,,,,,,,,,,223,20,Male,2022-05-24_13h40.47.089,Main,2022.1.1,59.97897137267483,
negative,red,1,None,None,,,,,,,,,0,114,114,114,,,,,,,,,,,,,,,,,,,,,,,,,,,,,,,,,,,,,main,None,None,1,1.5055545999998685,471.68652899999984,None,None,1,,,,,,,,,,,,,,223,20,Male,2022-05-24_13h40.47.089,Main,2022.1.1,59.97897137267483,
positive,red,1,None,None,,,,,,,,,0,115,115,115,,,,,,,,,,,,,,,,,,,,,,,,,,,,,,,,,,,,,main,None,None,1,1.4996413999997458,474.19750739999995,None,None,1,,,,,,,,,,,,,,223,20,Male,2022-05-24_13h40.47.089,Main,2022.1.1,59.97897137267483,
negative,red,2,None,None,,,,,,,,,0,116,116,116,,,,,,,,,,,,,,,,,,,,,,,,,,,,,,,,,,,,,main,None,None,1,1.4988773999998557,476.6942311,None,None,1,,,,,,,,,,,,,,223,20,Male,2022-05-24_13h40.47.089,Main,2022.1.1,59.97897137267483,
negative,yellow,2,k,None,,,,,,,,,0,117,117,117,,,,,,,,,,,,,,,,,,,,,,,,,,,,,,,,,,,,,main,None,k,0,1.0923411000003398,479.1944068999999,None,None,1,,,,,,,,,,,,,,223,20,Male,2022-05-24_13h40.47.089,Main,2022.1.1,59.97897137267483,
positive,yellow,1,None,k,,,,,,,,,0,118,118,118,,,,,,,,,,,,,,,,,,,,,,,,,,,,,,,,,,,,,main,k,k,1,0.9973675999999614,482.30341010000006,None,None,0,,,,,,,,,,,,,,223,20,Male,2022-05-24_13h40.47.089,Main,2022.1.1,59.97897137267483,
positive,red,2,None,None,,,,,,,,,0,119,119,119,,,,,,,,,,,,,,,,,,,,,,,,,,,,,,,,,,,,,main,None,None,1,1.5108801000001222,484.3025190999999,None,None,1,,,,,,,,,,,,,,223,20,Male,2022-05-24_13h40.47.089,Main,2022.1.1,59.97897137267483,
positive,blue,2,k,None,,,,,,,,,0,120,120,120,,,,,,,,,,,,,,,,,,,,,,,,,,,,,,,,,,,,,main,None,None,1,1.5043037000000368,486.8143910000001,None,None,1,,,,,,,,,,,,,,223,20,Male,2022-05-24_13h40.47.089,Main,2022.1.1,59.97897137267483,
negative,red,1,None,None,,,,,,,,,0,121,121,121,,,,,,,,,,,,,,,,,,,,,,,,,,,,,,,,,,,,,main,None,None,1,1.5106191999998373,489.32288059999996,None,None,1,,,,,,,,,,,,,,223,20,Male,2022-05-24_13h40.47.089,Main,2022.1.1,59.97897137267483,
positive,yellow,2,None,k,,,,,,,,,0,122,122,122,,,,,,,,,,,,,,,,,,,,,,,,,,,,,,,,,,,,,main,k,k,1,1.0153549999999996,491.8319908000001,None,None,0,,,,,,,,,,,,,,223,20,Male,2022-05-24_13h40.47.089,Main,2022.1.1,59.97897137267483,
negative,red,2,None,None,,,,,,,,,0,123,123,123,,,,,,,,,,,,,,,,,,,,,,,,,,,,,,,,,,,,,main,None,None,1,1.5017978999999286,493.8527836999999,None,None,1,,,,,,,,,,,,,,223,20,Male,2022-05-24_13h40.47.089,Main,2022.1.1,59.97897137267483,
negative,yellow,2,k,None,,,,,,,,,0,124,124,124,,,,,,,,,,,,,,,,,,,,,,,,,,,,,,,,,,,,,main,None,None,1,1.5003718999996636,496.3551501999998,None,None,1,,,,,,,,,,,,,,223,20,Male,2022-05-24_13h40.47.089,Main,2022.1.1,59.97897137267483,
positive,red,1,None,None,,,,,,,,,0,125,125,125,,,,,,,,,,,,,,,,,,,,,,,,,,,,,,,,,,,,,main,None,None,1,1.49650580000025,498.8570354000001,None,None,1,,,,,,,,,,,,,,223,20,Male,2022-05-24_13h40.47.089,Main,2022.1.1,59.97897137267483,
negative,blue,2,None,k,,,,,,,,,0,126,126,126,,,,,,,,,,,,,,,,,,,,,,,,,,,,,,,,,,,,,main,k,k,1,0.9057929000000513,501.3562829,None,None,0,,,,,,,,,,,,,,223,20,Male,2022-05-24_13h40.47.089,Main,2022.1.1,59.97897137267483,
negative,blue,1,None,k,,,,,,,,,0,127,127,127,,,,,,,,,,,,,,,,,,,,,,,,,,,,,,,,,,,,,main,k,k,1,0.9320274000001518,503.26493989999994,None,None,0,,,,,,,,,,,,,,223,20,Male,2022-05-24_13h40.47.089,Main,2022.1.1,59.97897137267483,
negative,yellow,1,k,None,,,,,,,,,0,128,128,128,,,,,,,,,,,,,,,,,,,,,,,,,,,,,,,,,,,,,main,None,None,1,1.50539979999985,505.1960310000002,None,None,1,,,,,,,,,,,,,,223,20,Male,2022-05-24_13h40.47.089,Main,2022.1.1,59.97897137267483,
negative,yellow,1,k,None,,,,,,,,,0,129,129,129,,,,,,,,,,,,,,,,,,,,,,,,,,,,,,,,,,,,,main,None,None,1,1.5094997999999578,507.7062134999999,None,None,1,,,,,,,,,,,,,,223,20,Male,2022-05-24_13h40.47.089,Main,2022.1.1,59.97897137267483,
positive,blue,1,k,None,,,,,,,,,0,130,130,130,,,,,,,,,,,,,,,,,,,,,,,,,,,,,,,,,,,,,main,None,None,1,1.5133301000000756,510.2143832999998,None,None,1,,,,,,,,,,,,,,223,20,Male,2022-05-24_13h40.47.089,Main,2022.1.1,59.97897137267483,
negative,blue,1,None,k,,,,,,,,,0,131,131,131,,,,,,,,,,,,,,,,,,,,,,,,,,,,,,,,,,,,,main,k,k,1,0.9898883000000751,512.7290654999999,None,None,0,,,,,,,,,,,,,,223,20,Male,2022-05-24_13h40.47.089,Main,2022.1.1,59.97897137267483,
negative,blue,2,None,k,,,,,,,,,0,132,132,132,,,,,,,,,,,,,,,,,,,,,,,,,,,,,,,,,,,,,main,k,k,1,0.8256313000001683,514.7225551999998,None,None,0,,,,,,,,,,,,,,223,20,Male,2022-05-24_13h40.47.089,Main,2022.1.1,59.97897137267483,
positive,blue,2,k,None,,,,,,,,,0,133,133,133,,,,,,,,,,,,,,,,,,,,,,,,,,,,,,,,,,,,,main,None,None,1,1.5121704999996837,516.550688,None,None,1,,,,,,,,,,,,,,223,20,Male,2022-05-24_13h40.47.089,Main,2022.1.1,59.97897137267483,
positive,red,2,None,None,,,,,,,,,0,134,134,134,,,,,,,,,,,,,,,,,,,,,,,,,,,,,,,,,,,,,main,None,None,1,1.505487699999776,519.0611876,None,None,1,,,,,,,,,,,,,,223,20,Male,2022-05-24_13h40.47.089,Main,2022.1.1,59.97897137267483,
negative,yellow,2,k,None,,,,,,,,,0,135,135,135,,,,,,,,,,,,,,,,,,,,,,,,,,,,,,,,,,,,,main,None,None,1,1.499109999999746,521.5746947,None,None,1,,,,,,,,,,,,,,223,20,Male,2022-05-24_13h40.47.089,Main,2022.1.1,59.97897137267483,
positive,yellow,2,None,k,,,,,,,,,0,136,136,136,,,,,,,,,,,,,,,,,,,,,,,,,,,,,,,,,,,,,main,k,k,1,0.9132259999996677,524.0712560999998,None,None,0,,,,,,,,,,,,,,223,20,Male,2022-05-24_13h40.47.089,Main,2022.1.1,59.97897137267483,
positive,blue,1,k,None,,,,,,,,,0,137,137,137,,,,,,,,,,,,,,,,,,,,,,,,,,,,,,,,,,,,,main,None,None,1,1.5077100000003156,525.9871901999998,None,None,1,,,,,,,,,,,,,,223,20,Male,2022-05-24_13h40.47.089,Main,2022.1.1,59.97897137267483,
positive,yellow,1,None,k,,,,,,,,,0,138,138,138,,,,,,,,,,,,,,,,,,,,,,,,,,,,,,,,,,,,,main,k,k,1,1.1965667999998004,528.4949622000001,None,None,0,,,,,,,,,,,,,,223,20,Male,2022-05-24_13h40.47.089,Main,2022.1.1,59.97897137267483,
positive,yellow,1,None,k,,,,,,,,,0,139,139,139,,,,,,,,,,,,,,,,,,,,,,,,,,,,,,,,,,,,,main,k,k,1,0.7855113999999048,530.6952518,None,None,0,,,,,,,,,,,,,,223,20,Male,2022-05-24_13h40.47.089,Main,2022.1.1,59.97897137267483,
positive,yellow,1,None,k,,,,,,,,,0,140,140,140,,,,,,,,,,,,,,,,,,,,,,,,,,,,,,,,,,,,,main,k,k,1,0.6492401999998947,532.4832101999998,None,None,0,,,,,,,,,,,,,,223,20,Male,2022-05-24_13h40.47.089,Main,2022.1.1,59.97897137267483,
positive,blue,1,k,None,,,,,,,,,0,141,141,141,,,,,,,,,,,,,,,,,,,,,,,,,,,,,,,,,,,,,main,None,None,1,1.499272800000199,534.1338041000001,None,None,1,,,,,,,,,,,,,,223,20,Male,2022-05-24_13h40.47.089,Main,2022.1.1,59.97897137267483,
positive,blue,2,k,None,,,,,,,,,0,142,142,142,,,,,,,,,,,,,,,,,,,,,,,,,,,,,,,,,,,,,main,None,None,1,1.50179130000015,536.6340959000001,None,None,1,,,,,,,,,,,,,,223,20,Male,2022-05-24_13h40.47.089,Main,2022.1.1,59.97897137267483,
positive,yellow,2,None,k,,,,,,,,,0,143,143,143,,,,,,,,,,,,,,,,,,,,,,,,,,,,,,,,,,,,,main,k,k,1,0.91336100000035,539.1379115000002,None,None,0,,,,,,,,,,,,,,223,20,Male,2022-05-24_13h40.47.089,Main,2022.1.1,59.97897137267483,
negative,yellow,2,k,None,,,,,,,,,0,144,144,144,,,,,,,,,,,,,,,,,,,,,,,,,,,,,,,,,,,,,main,None,None,1,1.4955070999999407,541.0516967000001,None,None,1,,,,,,,,,,,,,,223,20,Male,2022-05-24_13h40.47.089,Main,2022.1.1,59.97897137267483,
negative,blue,2,None,k,,,,,,,,,0,145,145,145,,,,,,,,,,,,,,,,,,,,,,,,,,,,,,,,,,,,,main,k,k,1,0.9089346999999179,543.5492932999998,None,None,0,,,,,,,,,,,,,,223,20,Male,2022-05-24_13h40.47.089,Main,2022.1.1,59.97897137267483,
negative,red,1,None,None,,,,,,,,,0,146,146,146,,,,,,,,,,,,,,,,,,,,,,,,,,,,,,,,,,,,,main,None,None,1,1.5150323000002572,545.4600102000002,None,None,1,,,,,,,,,,,,,,223,20,Male,2022-05-24_13h40.47.089,Main,2022.1.1,59.97897137267483,
positive,blue,1,k,None,,,,,,,,,0,147,147,147,,,,,,,,,,,,,,,,,,,,,,,,,,,,,,,,,,,,,main,None,None,1,1.5076074999997218,547.9743335999999,None,None,1,,,,,,,,,,,,,,223,20,Male,2022-05-24_13h40.47.089,Main,2022.1.1,59.97897137267483,
positive,yellow,1,None,k,,,,,,,,,0,148,148,148,,,,,,,,,,,,,,,,,,,,,,,,,,,,,,,,,,,,,main,k,k,1,0.8927223999999114,550.4860102999999,None,None,0,,,,,,,,,,,,,,223,20,Male,2022-05-24_13h40.47.089,Main,2022.1.1,59.97897137267483,
negative,red,2,None,None,,,,,,,,,0,149,149,149,,,,,,,,,,,,,,,,,,,,,,,,,,,,,,,,,,,,,main,None,None,1,1.501525700000002,552.3812651999999,None,None,1,,,,,,,,,,,,,,223,20,Male,2022-05-24_13h40.47.089,Main,2022.1.1,59.97897137267483,
negative,blue,1,None,k,,,,,,,,,0,150,150,150,,,,,,,,,,,,,,,,,,,,,,,,,,,,,,,,,,,,,main,k,k,1,0.8074685999999929,554.8843765999998,None,None,0,,,,,,,,,,,,,,223,20,Male,2022-05-24_13h40.47.089,Main,2022.1.1,59.97897137267483,
negative,yellow,2,k,None,,,,,,,,,0,151,151,151,,,,,,,,,,,,,,,,,,,,,,,,,,,,,,,,,,,,,main,None,None,1,1.497865599999841,556.6892700000001,None,None,1,,,,,,,,,,,,,,223,20,Male,2022-05-24_13h40.47.089,Main,2022.1.1,59.97897137267483,
negative,blue,2,None,k,,,,,,,,,0,152,152,152,,,,,,,,,,,,,,,,,,,,,,,,,,,,,,,,,,,,,main,k,k,1,1.0562472000001435,559.1933676000001,None,None,0,,,,,,,,,,,,,,223,20,Male,2022-05-24_13h40.47.089,Main,2022.1.1,59.97897137267483,
negative,yellow,1,k,None,,,,,,,,,0,153,153,153,,,,,,,,,,,,,,,,,,,,,,,,,,,,,,,,,,,,,main,None,None,1,1.5059471999998095,561.2494825000001,None,None,1,,,,,,,,,,,,,,223,20,Male,2022-05-24_13h40.47.089,Main,2022.1.1,59.97897137267483,
negative,blue,1,None,k,,,,,,,,,0,154,154,154,,,,,,,,,,,,,,,,,,,,,,,,,,,,,,,,,,,,,main,k,k,1,0.7197971999999027,563.7546885999998,None,None,0,,,,,,,,,,,,,,223,20,Male,2022-05-24_13h40.47.089,Main,2022.1.1,59.97897137267483,
positive,yellow,2,None,k,,,,,,,,,0,155,155,155,,,,,,,,,,,,,,,,,,,,,,,,,,,,,,,,,,,,,main,k,k,1,1.9790788999998767,565.4803359,None,None,0,,,,,,,,,,,,,,223,20,Male,2022-05-24_13h40.47.089,Main,2022.1.1,59.97897137267483,
positive,red,2,None,None,,,,,,,,,0,156,156,156,,,,,,,,,,,,,,,,,,,,,,,,,,,,,,,,,,,,,main,None,None,1,1.5032805000000735,569.4758082000001,None,None,1,,,,,,,,,,,,,,223,20,Male,2022-05-24_13h40.47.089,Main,2022.1.1,59.97897137267483,
positive,red,1,None,None,,,,,,,,,0,157,157,157,,,,,,,,,,,,,,,,,,,,,,,,,,,,,,,,,,,,,main,None,None,1,1.5011591000002227,571.9819767000001,None,None,1,,,,,,,,,,,,,,223,20,Male,2022-05-24_13h40.47.089,Main,2022.1.1,59.97897137267483,
positive,blue,2,k,None,,,,,,,,,0,158,158,158,,,,,,,,,,,,,,,,,,,,,,,,,,,,,,,,,,,,,main,None,None,1,1.5110497999999097,574.4824971999999,None,None,1,,,,,,,,,,,,,,223,20,Male,2022-05-24_13h40.47.089,Main,2022.1.1,59.97897137267483,
negative,yellow,1,k,None,,,,,,,,,0,159,159,159,,,,,,,,,,,,,,,,,,,,,,,,,,,,,,,,,,,,,main,None,None,1,1.5093740000002072,576.9962446000002,None,None,1,,,,,,,,,,,,,,223,20,Male,2022-05-24_13h40.47.089,Main,2022.1.1,59.97897137267483,
negative,red,2,None,None,,,,,,,,,0,160,160,160,,,,,,,,,,,,,,,,,,,,,,,,,,,,,,,,,,,,,main,None,None,1,1.515193199999885,579.5031072999998,None,None,1,,,,,,,,,,,,,,223,20,Male,2022-05-24_13h40.47.089,Main,2022.1.1,59.97897137267483,
negative,blue,1,None,k,,,,,,,,,0,161,161,161,,,,,,,,,,,,,,,,,,,,,,,,,,,,,,,,,,,,,main,k,k,1,1.066305199999988,582.0210811,None,None,0,,,,,,,,,,,,,,223,20,Male,2022-05-24_13h40.47.089,Main,2022.1.1,59.97897137267483,
negative,blue,1,None,k,,,,,,,,,0,162,162,162,,,,,,,,,,,,,,,,,,,,,,,,,,,,,,,,,,,,,main,k,k,1,0.6976783999998588,584.0918021999998,None,None,0,,,,,,,,,,,,,,223,20,Male,2022-05-24_13h40.47.089,Main,2022.1.1,59.97897137267483,
negative,yellow,1,k,None,,,,,,,,,0,163,163,163,,,,,,,,,,,,,,,,,,,,,,,,,,,,,,,,,,,,,main,None,None,1,1.497953999999936,585.7916862,None,None,1,,,,,,,,,,,,,,223,20,Male,2022-05-24_13h40.47.089,Main,2022.1.1,59.97897137267483,
negative,yellow,1,k,None,,,,,,,,,0,164,164,164,,,,,,,,,,,,,,,,,,,,,,,,,,,,,,,,,,,,,main,None,None,1,1.4998078999997233,588.2884152999998,None,None,1,,,,,,,,,,,,,,223,20,Male,2022-05-24_13h40.47.089,Main,2022.1.1,59.97897137267483,
positive,yellow,1,None,k,,,,,,,,,0,165,165,165,,,,,,,,,,,,,,,,,,,,,,,,,,,,,,,,,,,,,main,k,k,1,0.8053562000000056,590.7938735999999,None,None,0,,,,,,,,,,,,,,223,20,Male,2022-05-24_13h40.47.089,Main,2022.1.1,59.97897137267483,
negative,red,1,None,None,,,,,,,,,0,166,166,166,,,,,,,,,,,,,,,,,,,,,,,,,,,,,,,,,,,,,main,None,None,1,1.5007688000000599,592.5988469000001,None,None,1,,,,,,,,,,,,,,223,20,Male,2022-05-24_13h40.47.089,Main,2022.1.1,59.97897137267483,
negative,yellow,2,k,None,,,,,,,,,0,167,167,167,,,,,,,,,,,,,,,,,,,,,,,,,,,,,,,,,,,,,main,None,None,1,1.496629899999789,595.1008095999998,None,None,1,,,,,,,,,,,,,,223,20,Male,2022-05-24_13h40.47.089,Main,2022.1.1,59.97897137267483,
positive,blue,2,k,None,,,,,,,,,0,168,168,168,,,,,,,,,,,,,,,,,,,,,,,,,,,,,,,,,,,,,main,None,None,1,1.5123012999997627,597.6000252000001,None,None,1,,,,,,,,,,,,,,223,20,Male,2022-05-24_13h40.47.089,Main,2022.1.1,59.97897137267483,
positive,red,2,None,None,,,,,,,,,0,169,169,169,,,,,,,,,,,,,,,,,,,,,,,,,,,,,,,,,,,,,main,None,None,1,1.5093692999998893,600.1153836000001,None,None,1,,,,,,,,,,,,,,223,20,Male,2022-05-24_13h40.47.089,Main,2022.1.1,59.97897137267483,
positive,red,1,None,None,,,,,,,,,0,170,170,170,,,,,,,,,,,,,,,,,,,,,,,,,,,,,,,,,,,,,main,None,None,1,1.5068171999996594,602.6289850000001,None,None,1,,,,,,,,,,,,,,223,20,Male,2022-05-24_13h40.47.089,Main,2022.1.1,59.97897137267483,
negative,blue,2,None,k,,,,,,,,,0,171,171,171,,,,,,,,,,,,,,,,,,,,,,,,,,,,,,,,,,,,,main,k,k,1,1.091400799999974,605.1396458000002,None,None,0,,,,,,,,,,,,,,223,20,Male,2022-05-24_13h40.47.089,Main,2022.1.1,59.97897137267483,
positive,blue,2,k,None,,,,,,,,,0,172,172,172,,,,,,,,,,,,,,,,,,,,,,,,,,,,,,,,,,,,,main,None,None,1,1.5019309999997859,607.2311299,None,None,1,,,,,,,,,,,,,,223,20,Male,2022-05-24_13h40.47.089,Main,2022.1.1,59.97897137267483,
negative,yellow,2,k,None,,,,,,,,,0,173,173,173,,,,,,,,,,,,,,,,,,,,,,,,,,,,,,,,,,,,,main,None,None,1,1.515604500000336,609.7333274,None,None,1,,,,,,,,,,,,,,223,20,Male,2022-05-24_13h40.47.089,Main,2022.1.1,59.97897137267483,
positive,yellow,2,None,k,,,,,,,,,0,174,174,174,,,,,,,,,,,,,,,,,,,,,,,,,,,,,,,,,,,,,main,k,k,1,0.9802342000002682,612.2506046999999,None,None,0,,,,,,,,,,,,,,223,20,Male,2022-05-24_13h40.47.089,Main,2022.1.1,59.97897137267483,
negative,blue,2,None,k,,,,,,,,,0,175,175,175,,,,,,,,,,,,,,,,,,,,,,,,,,,,,,,,,,,,,main,k,k,1,0.964393900000232,614.2318717999999,None,None,0,,,,,,,,,,,,,,223,20,Male,2022-05-24_13h40.47.089,Main,2022.1.1,59.97897137267483,
positive,blue,1,k,None,,,,,,,,,0,176,176,176,,,,,,,,,,,,,,,,,,,,,,,,,,,,,,,,,,,,,main,None,None,1,1.499264999999923,616.1983713000002,None,None,1,,,,,,,,,,,,,,223,20,Male,2022-05-24_13h40.47.089,Main,2022.1.1,59.97897137267483,
positive,yellow,1,None,k,,,,,,,,,0,177,177,177,,,,,,,,,,,,,,,,,,,,,,,,,,,,,,,,,,,,,main,k,k,1,1.372935399999733,618.6990721999998,None,None,0,,,,,,,,,,,,,,223,20,Male,2022-05-24_13h40.47.089,Main,2022.1.1,59.97897137267483,
positive,blue,1,k,None,,,,,,,,,0,178,178,178,,,,,,,,,,,,,,,,,,,,,,,,,,,,,,,,,,,,,main,None,None,1,1.5058225999996466,621.0760772000001,None,None,1,,,,,,,,,,,,,,223,20,Male,2022-05-24_13h40.47.089,Main,2022.1.1,59.97897137267483,
positive,yellow,2,None,k,,,,,,,,,0,179,179,179,,,,,,,,,,,,,,,,,,,,,,,,,,,,,,,,,,,,,main,k,k,1,1.0442235000000437,623.5851341,None,None,0,,,,,,,,,,,,,,223,20,Male,2022-05-24_13h40.47.089,Main,2022.1.1,59.97897137267483,
positive,blue,1,k,None,,,,,,,,,0,180,180,180,,,,,,,,,,,,,,,,,,,,,,,,,,,,,,,,,,,,,main,None,None,1,1.5042843999999604,625.6285089,None,None,1,,,,,,,,,,,,,,223,20,Male,2022-05-24_13h40.47.089,Main,2022.1.1,59.97897137267483,
negative,red,1,None,None,,,,,,,,,0,181,181,181,,,,,,,,,,,,,,,,,,,,,,,,,,,,,,,,,,,,,main,None,None,1,1.5090940999998566,628.1383420999998,None,None,1,,,,,,,,,,,,,,223,20,Male,2022-05-24_13h40.47.089,Main,2022.1.1,59.97897137267483,
negative,blue,1,None,k,,,,,,,,,0,182,182,182,,,,,,,,,,,,,,,,,,,,,,,,,,,,,,,,,,,,,main,k,k,1,0.9314351000002716,630.6471543999999,None,None,0,,,,,,,,,,,,,,223,20,Male,2022-05-24_13h40.47.089,Main,2022.1.1,59.97897137267483,
negative,yellow,2,k,None,,,,,,,,,0,183,183,183,,,,,,,,,,,,,,,,,,,,,,,,,,,,,,,,,,,,,main,None,None,1,1.4989973000001555,632.5829244999998,None,None,1,,,,,,,,,,,,,,223,20,Male,2022-05-24_13h40.47.089,Main,2022.1.1,59.97897137267483,
positive,yellow,2,None,k,,,,,,,,,0,184,184,184,,,,,,,,,,,,,,,,,,,,,,,,,,,,,,,,,,,,,main,k,k,1,0.8810757000001104,635.0836173999999,None,None,0,,,,,,,,,,,,,,223,20,Male,2022-05-24_13h40.47.089,Main,2022.1.1,59.97897137267483,
positive,yellow,1,None,k,,,,,,,,,0,185,185,185,,,,,,,,,,,,,,,,,,,,,,,,,,,,,,,,,,,,,main,k,k,1,0.931446699999924,636.966874,None,None,0,,,,,,,,,,,,,,223,20,Male,2022-05-24_13h40.47.089,Main,2022.1.1,59.97897137267483,
positive,red,2,None,None,,,,,,,,,0,186,186,186,,,,,,,,,,,,,,,,,,,,,,,,,,,,,,,,,,,,,main,None,None,1,1.497724500000004,638.9002136000001,None,None,1,,,,,,,,,,,,,,223,20,Male,2022-05-24_13h40.47.089,Main,2022.1.1,59.97897137267483,
positive,blue,1,k,None,,,,,,,,,0,187,187,187,,,,,,,,,,,,,,,,,,,,,,,,,,,,,,,,,,,,,main,None,None,1,1.5112232999999833,641.3984386999998,None,None,1,,,,,,,,,,,,,,223,20,Male,2022-05-24_13h40.47.089,Main,2022.1.1,59.97897137267483,
negative,yellow,1,k,None,,,,,,,,,0,188,188,188,,,,,,,,,,,,,,,,,,,,,,,,,,,,,,,,,,,,,main,None,None,1,1.5043072000003122,643.9102046999999,None,None,1,,,,,,,,,,,,,,223,20,Male,2022-05-24_13h40.47.089,Main,2022.1.1,59.97897137267483,
positive,yellow,2,None,k,,,,,,,,,0,189,189,189,,,,,,,,,,,,,,,,,,,,,,,,,,,,,,,,,,,,,main,k,k,1,0.7608559000000241,646.4199007999998,None,None,0,,,,,,,,,,,,,,223,20,Male,2022-05-24_13h40.47.089,Main,2022.1.1,59.97897137267483,
negative,yellow,2,k,None,,,,,,,,,0,190,190,190,,,,,,,,,,,,,,,,,,,,,,,,,,,,,,,,,,,,,main,None,None,1,1.5095295000000988,648.1813980999998,None,None,1,,,,,,,,,,,,,,223,20,Male,2022-05-24_13h40.47.089,Main,2022.1.1,59.97897137267483,
negative,yellow,1,k,None,,,,,,,,,0,191,191,191,,,,,,,,,,,,,,,,,,,,,,,,,,,,,,,,,,,,,main,None,None,1,1.49633890000041,650.6917167999998,None,None,1,,,,,,,,,,,,,,223,20,Male,2022-05-24_13h40.47.089,Main,2022.1.1,59.97897137267483,
positive,blue,2,k,None,,,,,,,,,0,192,192,192,,,,,,,,,,,,,,,,,,,,,,,,,,,,,,,,,,,,,main,None,None,1,1.4967422999998234,653.1912252,None,None,1,,,,,,,,,,,,,,223,20,Male,2022-05-24_13h40.47.089,Main,2022.1.1,59.97897137267483,
positive,yellow,1,None,k,,,,,,,,,0,193,193,193,,,,,,,,,,,,,,,,,,,,,,,,,,,,,,,,,,,,,main,k,k,1,1.5906843000002482,655.6893505999999,None,None,0,,,,,,,,,,,,,,223,20,Male,2022-05-24_13h40.47.089,Main,2022.1.1,59.97897137267483,
negative,red,2,None,None,,,,,,,,,0,194,194,194,,,,,,,,,,,,,,,,,,,,,,,,,,,,,,,,,,,,,main,None,None,1,1.5063387000000148,659.2974305,None,None,1,,,,,,,,,,,,,,223,20,Male,2022-05-24_13h40.47.089,Main,2022.1.1,59.97897137267483,
positive,red,1,None,None,,,,,,,,,0,195,195,195,,,,,,,,,,,,,,,,,,,,,,,,,,,,,,,,,,,,,main,None,None,1,1.4957925000003343,661.8045352000001,None,None,1,,,,,,,,,,,,,,223,20,Male,2022-05-24_13h40.47.089,Main,2022.1.1,59.97897137267483,
negative,blue,1,None,k,,,,,,,,,0,196,196,196,,,,,,,,,,,,,,,,,,,,,,,,,,,,,,,,,,,,,main,k,k,1,0.9127957999999126,664.3063412999998,None,None,0,,,,,,,,,,,,,,223,20,Male,2022-05-24_13h40.47.089,Main,2022.1.1,59.97897137267483,
positive,blue,2,k,None,,,,,,,,,0,197,197,197,,,,,,,,,,,,,,,,,,,,,,,,,,,,,,,,,,,,,main,None,None,1,1.5146307999998498,666.2185710000001,None,None,1,,,,,,,,,,,,,,223,20,Male,2022-05-24_13h40.47.089,Main,2022.1.1,59.97897137267483,
negative,blue,2,None,k,,,,,,,,,0,198,198,198,,,,,,,,,,,,,,,,,,,,,,,,,,,,,,,,,,,,,main,k,k,1,0.7501109000004362,668.7335110000001,None,None,0,,,,,,,,,,,,,,223,20,Male,2022-05-24_13h40.47.089,Main,2022.1.1,59.97897137267483,
negative,blue,2,None,k,,,,,,,,,0,199,199,199,,,,,,,,,,,,,,,,,,,,,,,,,,,,,,,,,,,,,main,k,k,1,0.7136255999998866,670.4853686999998,None,None,0,,,,,,,,,,,,,,223,20,Male,2022-05-24_13h40.47.089,Main,2022.1.1,59.97897137267483,
positive,blue,2,k,None,,,,,,,,,0,200,200,200,,,,,,,,,,,,,,,,,,,,,,,,,,,,,,,,,,,,,main,None,None,1,1.5005433000001176,672.1996425,None,None,1,,,,,,,,,,,,,,223,20,Male,2022-05-24_13h40.47.089,Main,2022.1.1,59.97897137267483,
positive,blue,2,k,None,,,,,,,,,0,201,201,201,,,,,,,,,,,,,,,,,,,,,,,,,,,,,,,,,,,,,main,None,None,1,1.508899399999791,674.7016136,None,None,1,,,,,,,,,,,,,,223,20,Male,2022-05-24_13h40.47.089,Main,2022.1.1,59.97897137267483,
negative,yellow,2,k,None,,,,,,,,,0,202,202,202,,,,,,,,,,,,,,,,,,,,,,,,,,,,,,,,,,,,,main,None,None,1,1.4975015999998504,677.2085463000001,None,None,1,,,,,,,,,,,,,,223,20,Male,2022-05-24_13h40.47.089,Main,2022.1.1,59.97897137267483,
positive,red,1,None,None,,,,,,,,,0,203,203,203,,,,,,,,,,,,,,,,,,,,,,,,,,,,,,,,,,,,,main,None,None,1,1.4971548000003168,679.7120650999998,None,None,1,,,,,,,,,,,,,,223,20,Male,2022-05-24_13h40.47.089,Main,2022.1.1,59.97897137267483,
negative,blue,2,None,k,,,,,,,,,0,204,204,204,,,,,,,,,,,,,,,,,,,,,,,,,,,,,,,,,,,,,main,k,k,1,0.9159923000001982,682.2067613000002,None,None,0,,,,,,,,,,,,,,223,20,Male,2022-05-24_13h40.47.089,Main,2022.1.1,59.97897137267483,
negative,red,1,None,None,,,,,,,,,0,205,205,205,,,,,,,,,,,,,,,,,,,,,,,,,,,,,,,,,,,,,main,None,None,1,1.5032968000000437,684.1290264000002,None,None,1,,,,,,,,,,,,,,223,20,Male,2022-05-24_13h40.47.089,Main,2022.1.1,59.97897137267483,
negative,blue,2,None,k,,,,,,,,,0,206,206,206,,,,,,,,,,,,,,,,,,,,,,,,,,,,,,,,,,,,,main,k,k,1,0.9364095999999336,686.6331091,None,None,0,,,,,,,,,,,,,,223,20,Male,2022-05-24_13h40.47.089,Main,2022.1.1,59.97897137267483,
negative,yellow,2,k,None,,,,,,,,,0,207,207,207,,,,,,,,,,,,,,,,,,,,,,,,,,,,,,,,,,,,,main,None,None,1,1.4989153999999871,688.5686216000001,None,None,1,,,,,,,,,,,,,,223,20,Male,2022-05-24_13h40.47.089,Main,2022.1.1,59.97897137267483,
positive,yellow,2,None,k,,,,,,,,,0,208,208,208,,,,,,,,,,,,,,,,,,,,,,,,,,,,,,,,,,,,,main,k,k,1,0.6847148000001653,691.0699676000002,None,None,0,,,,,,,,,,,,,,223,20,Male,2022-05-24_13h40.47.089,Main,2022.1.1,59.97897137267483,
negative,yellow,1,k,None,,,,,,,,,0,209,209,209,,,,,,,,,,,,,,,,,,,,,,,,,,,,,,,,,,,,,main,None,None,1,1.5158347999999933,692.7559254999999,None,None,1,,,,,,,,,,,,,,223,20,Male,2022-05-24_13h40.47.089,Main,2022.1.1,59.97897137267483,
negative,red,2,None,None,,,,,,,,,0,210,210,210,,,,,,,,,,,,,,,,,,,,,,,,,,,,,,,,,,,,,main,None,None,1,1.497240199999851,695.2763217999998,None,None,1,,,,,,,,,,,,,,223,20,Male,2022-05-24_13h40.47.089,Main,2022.1.1,59.97897137267483,
negative,blue,1,None,k,,,,,,,,,0,211,211,211,,,,,,,,,,,,,,,,,,,,,,,,,,,,,,,,,,,,,main,k,k,1,0.9610038000000714,697.7760387000001,None,None,0,,,,,,,,,,,,,,223,20,Male,2022-05-24_13h40.47.089,Main,2022.1.1,59.97897137267483,
negative,yellow,1,k,None,,,,,,,,,0,212,212,212,,,,,,,,,,,,,,,,,,,,,,,,,,,,,,,,,,,,,main,None,None,1,1.5046538999999939,699.7392364999998,None,None,1,,,,,,,,,,,,,,223,20,Male,2022-05-24_13h40.47.089,Main,2022.1.1,59.97897137267483,
positive,blue,1,k,None,,,,,,,,,0,213,213,213,,,,,,,,,,,,,,,,,,,,,,,,,,,,,,,,,,,,,main,None,None,1,1.5086297999996532,702.2472178999999,None,None,1,,,,,,,,,,,,,,223,20,Male,2022-05-24_13h40.47.089,Main,2022.1.1,59.97897137267483,
positive,blue,1,k,None,,,,,,,,,0,214,214,214,,,,,,,,,,,,,,,,,,,,,,,,,,,,,,,,,,,,,main,None,k,0,0.8986104999999043,704.7535687000002,None,None,1,,,,,,,,,,,,,,223,20,Male,2022-05-24_13h40.47.089,Main,2022.1.1,59.97897137267483,
positive,yellow,1,None,k,,,,,,,,,0,215,215,215,,,,,,,,,,,,,,,,,,,,,,,,,,,,,,,,,,,,,main,k,k,1,0.9988670000002458,707.6578762000001,None,None,0,,,,,,,,,,,,,,223,20,Male,2022-05-24_13h40.47.089,Main,2022.1.1,59.97897137267483,
positive,yellow,1,None,k,,,,,,,,,0,216,216,216,,,,,,,,,,,,,,,,,,,,,,,,,,,,,,,,,,,,,main,k,k,1,1.2320990999996866,709.6598139,None,None,0,,,,,,,,,,,,,,223,20,Male,2022-05-24_13h40.47.089,Main,2022.1.1,59.97897137267483,
positive,yellow,2,None,k,,,,,,,,,0,217,217,217,,,,,,,,,,,,,,,,,,,,,,,,,,,,,,,,,,,,,main,k,k,1,2.878143999999793,711.8931359000001,None,None,0,,,,,,,,,,,,,,223,20,Male,2022-05-24_13h40.47.089,Main,2022.1.1,59.97897137267483,
negative,blue,1,None,k,,,,,,,,,0,218,218,218,,,,,,,,,,,,,,,,,,,,,,,,,,,,,,,,,,,,,main,k,k,1,1.4331171999997423,716.7733933000002,None,None,0,,,,,,,,,,,,,,223,20,Male,2022-05-24_13h40.47.089,Main,2022.1.1,59.97897137267483,
positive,red,2,None,None,,,,,,,,,0,219,219,219,,,,,,,,,,,,,,,,,,,,,,,,,,,,,,,,,,,,,main,None,None,1,1.5060270999997556,719.2094675000001,None,None,1,,,,,,,,,,,,,,223,20,Male,2022-05-24_13h40.47.089,Main,2022.1.1,59.97897137267483,
positive,yellow,1,None,k,,,,,,,,,0,220,220,220,,,,,,,,,,,,,,,,,,,,,,,,,,,,,,,,,,,,,main,k,k,1,0.687964600000214,721.7152279,None,None,0,,,,,,,,,,,,,,223,20,Male,2022-05-24_13h40.47.089,Main,2022.1.1,59.97897137267483,
positive,blue,1,k,None,,,,,,,,,0,221,221,221,,,,,,,,,,,,,,,,,,,,,,,,,,,,,,,,,,,,,main,None,None,1,1.4982507999998234,723.4017652,None,None,1,,,,,,,,,,,,,,223,20,Male,2022-05-24_13h40.47.089,Main,2022.1.1,59.97897137267483,
positive,yellow,2,None,k,,,,,,,,,0,222,222,222,,,,,,,,,,,,,,,,,,,,,,,,,,,,,,,,,,,,,main,k,k,1,1.5155856999999742,725.9026108999999,None,None,0,,,,,,,,,,,,,,223,20,Male,2022-05-24_13h40.47.089,Main,2022.1.1,59.97897137267483,
negative,yellow,1,k,None,,,,,,,,,0,223,223,223,,,,,,,,,,,,,,,,,,,,,,,,,,,,,,,,,,,,,main,None,None,1,1.4900164000000586,729.4386778,None,None,1,,,,,,,,,,,,,,223,20,Male,2022-05-24_13h40.47.089,Main,2022.1.1,59.97897137267483,
positive,yellow,2,None,k,,,,,,,,,0,224,224,224,,,,,,,,,,,,,,,,,,,,,,,,,,,,,,,,,,,,,main,k,k,1,0.705805699999928,731.9288054000001,None,None,0,,,,,,,,,,,,,,223,20,Male,2022-05-24_13h40.47.089,Main,2022.1.1,59.97897137267483,
negative,yellow,2,k,None,,,,,,,,,0,225,225,225,,,,,,,,,,,,,,,,,,,,,,,,,,,,,,,,,,,,,main,None,None,1,1.5072218000000248,733.6398889999998,None,None,1,,,,,,,,,,,,,,223,20,Male,2022-05-24_13h40.47.089,Main,2022.1.1,59.97897137267483,
negative,blue,2,None,k,,,,,,,,,0,226,226,226,,,,,,,,,,,,,,,,,,,,,,,,,,,,,,,,,,,,,main,k,k,1,0.6880264000001262,736.1452495999999,None,None,0,,,,,,,,,,,,,,223,20,Male,2022-05-24_13h40.47.089,Main,2022.1.1,59.97897137267483,
positive,red,2,None,None,,,,,,,,,0,227,227,227,,,,,,,,,,,,,,,,,,,,,,,,,,,,,,,,,,,,,main,None,None,1,1.4984497000000374,737.8330346,None,None,1,,,,,,,,,,,,,,223,20,Male,2022-05-24_13h40.47.089,Main,2022.1.1,59.97897137267483,
positive,blue,2,k,None,,,,,,,,,0,228,228,228,,,,,,,,,,,,,,,,,,,,,,,,,,,,,,,,,,,,,main,None,None,1,1.4992585999998482,740.3362739000002,None,None,1,,,,,,,,,,,,,,223,20,Male,2022-05-24_13h40.47.089,Main,2022.1.1,59.97897137267483,
negative,blue,1,None,k,,,,,,,,,0,229,229,229,,,,,,,,,,,,,,,,,,,,,,,,,,,,,,,,,,,,,main,k,k,1,1.0995981000000938,742.8373380999999,None,None,0,,,,,,,,,,,,,,223,20,Male,2022-05-24_13h40.47.089,Main,2022.1.1,59.97897137267483,
positive,yellow,1,None,k,,,,,,,,,0,230,230,230,,,,,,,,,,,,,,,,,,,,,,,,,,,,,,,,,,,,,main,k,k,1,0.7366476000001967,744.9350446000001,None,None,0,,,,,,,,,,,,,,223,20,Male,2022-05-24_13h40.47.089,Main,2022.1.1,59.97897137267483,
negative,blue,2,None,k,,,,,,,,,0,231,231,231,,,,,,,,,,,,,,,,,,,,,,,,,,,,,,,,,,,,,main,k,k,1,0.8689777999998114,746.6754355999999,None,None,0,,,,,,,,,,,,,,223,20,Male,2022-05-24_13h40.47.089,Main,2022.1.1,59.97897137267483,
negative,red,1,None,None,,,,,,,,,0,232,232,232,,,,,,,,,,,,,,,,,,,,,,,,,,,,,,,,,,,,,main,None,None,1,1.5076506000000336,748.5489005000002,None,None,1,,,,,,,,,,,,,,223,20,Male,2022-05-24_13h40.47.089,Main,2022.1.1,59.97897137267483,
positive,blue,2,k,None,,,,,,,,,0,233,233,233,,,,,,,,,,,,,,,,,,,,,,,,,,,,,,,,,,,,,main,None,None,1,1.5009282000000894,751.0579406999998,None,None,1,,,,,,,,,,,,,,223,20,Male,2022-05-24_13h40.47.089,Main,2022.1.1,59.97897137267483,
negative,yellow,1,k,None,,,,,,,,,0,234,234,234,,,,,,,,,,,,,,,,,,,,,,,,,,,,,,,,,,,,,main,None,k,0,0.8211232999997264,753.5599494999999,None,None,1,,,,,,,,,,,,,,223,20,Male,2022-05-24_13h40.47.089,Main,2022.1.1,59.97897137267483,
negative,yellow,2,k,None,,,,,,,,,0,235,235,235,,,,,,,,,,,,,,,,,,,,,,,,,,,,,,,,,,,,,main,None,k,0,0.9482575000001816,756.3849161999999,None,None,1,,,,,,,,,,,,,,223,20,Male,2022-05-24_13h40.47.089,Main,2022.1.1,59.97897137267483,
positive,red,1,None,None,,,,,,,,,0,236,236,236,,,,,,,,,,,,,,,,,,,,,,,,,,,,,,,,,,,,,main,None,None,1,1.4892390999998497,759.3342884000001,None,None,1,,,,,,,,,,,,,,223,20,Male,2022-05-24_13h40.47.089,Main,2022.1.1,59.97897137267483,
negative,red,2,None,None,,,,,,,,,0,237,237,237,,,,,,,,,,,,,,,,,,,,,,,,,,,,,,,,,,,,,main,None,None,1,1.5059712000002037,761.8243254000001,None,None,1,,,,,,,,,,,,,,223,20,Male,2022-05-24_13h40.47.089,Main,2022.1.1,59.97897137267483,
negative,blue,1,None,k,,,,,,,,,0,238,238,238,,,,,,,,,,,,,,,,,,,,,,,,,,,,,,,,,,,,,main,k,k,1,0.7988545000002887,764.3339853999998,None,None,0,,,,,,,,,,,,,,223,20,Male,2022-05-24_13h40.47.089,Main,2022.1.1,59.97897137267483,
positive,blue,1,k,None,,,,,,,,,0,239,239,239,,,,,,,,,,,,,,,,,,,,,,,,,,,,,,,,,,,,,main,None,None,1,1.5019918999996662,766.1307060000001,None,None,1,,,,,,,,,,,,,,223,20,Male,2022-05-24_13h40.47.089,Main,2022.1.1,59.97897137267483,
,,,,,,,,,,,,,,,,,,,,,,,,,,,,,,,,,,,,,,,,,,,,,,,,,,,,,,,,,,,,,,,,,,,,,,,,,768.6300365,None,,,,,,,,
