distractor,target,set,ans1,ans2,rep_loop4.thisRepN,rep_loop4.thisTrialN,rep_loop4.thisN,rep_loop4.thisIndex,st2_prac_loop.thisRepN,st2_prac_loop.thisTrialN,st2_prac_loop.thisN,st2_prac_loop.thisIndex,st2_main_loop.thisRepN,st2_main_loop.thisTrialN,st2_main_loop.thisN,st2_main_loop.thisIndex,image_4.started,image_4.stopped,mouse_7.x,mouse_7.y,mouse_7.leftButton,mouse_7.midButton,mouse_7.rightButton,sound_2.started,sound_2.stopped,key_resp_3.keys,mouse_5.x,mouse_5.y,mouse_5.leftButton,mouse_5.midButton,mouse_5.rightButton,mouse_5.started,mouse_5.stopped,yes_text2.started,yes_text2.stopped,no_text2.started,no_text2.stopped,mouse_3.x,mouse_3.y,mouse_3.leftButton,mouse_3.midButton,mouse_3.rightButton,mouse_3.started,mouse_3.stopped,st_prac_back.started,st_prac_back.stopped,st_prac_text.started,st_prac_text.stopped,st_fix_back.started,st_fix_back.stopped,st_fix_2.started,st_fix_2.stopped,main_prac,st_ans,st_res,st_corr,st_rt,st_back.started,st_back.stopped,st2_resp.keys,st2_resp.corr,st_main_back.started,st_main_back.stopped,st_main_text.started,st_main_text.stopped,mouse_4.x,mouse_4.y,mouse_4.leftButton,mouse_4.midButton,mouse_4.rightButton,mouse_4.started,mouse_4.stopped,text_2.started,text_2.stopped,id*,age*,gender*,date,expName,psychopyVersion,frameRate,
,,,,,,,,,,,,,,,,,29.097488399999747,None,0.27962962,-0.011111111,0,0,0,,,,,,,,,,,,,,,,,,,,,,,,,,,,,,,,,,,,,,,,,,,,,,,,,,,,224,24,Male,2022-05-25_10h48.55.666,Main,2022.1.1,59.99167315565334,
negative,yellow,1,k,None,,,,,0,0,0,0,,,,,,,,,,,,37.4060488799998,None,None,0.23796296,0.13055556,0,0,0,1.0151609199997438,None,71.80221059999985,None,71.80221059999985,None,-0.07685185,-0.083333336,0,0,0,0.011614579999786656,None,73.3573836999999,None,73.3573836999999,None,75.36976649999997,None,75.36976649999997,None,prac,k,k,1,1.1918401000002632,77.41658049999978,None,None,0,,,,,,,,,,,,,,224,24,Male,2022-05-25_10h48.55.666,Main,2022.1.1,59.99167315565334,
positive,red,2,None,None,,,,,0,1,1,1,,,,,,,,,,,,,,,,,,,,,,,,,,,,,,,,,,,,,,,,,prac,None,None,1,1.5034359999999651,79.59913599999982,None,None,1,,,,,,,,,,,,,,224,24,Male,2022-05-25_10h48.55.666,Main,2022.1.1,59.99167315565334,
negative,blue,2,None,k,,,,,0,2,2,2,,,,,,,,,,,,,,,,,,,,,,,,,,,,,,,,,,,,,,,,,prac,None,None,1,1.4954852000000756,82.10451689999991,None,None,1,,,,,,,,,,,,,,224,24,Male,2022-05-25_10h48.55.666,Main,2022.1.1,59.99167315565334,
positive,yellow,1,None,k,,,,,0,3,3,3,,,,,,,,,,,,,,,,,,,,,,,,,,,,,,,,,,,,,,,,,prac,None,None,1,1.5114616000000751,84.59397910000007,None,None,1,,,,,,,,,,,,,,224,24,Male,2022-05-25_10h48.55.666,Main,2022.1.1,59.99167315565334,
negative,blue,2,None,k,,,,,0,4,4,4,,,,,,,,,,,,,,,,,,,,,,,,,,,,,,,,,,,,,,,,,prac,None,None,1,1.5003446999999142,87.10981099999981,None,None,1,,,,,,,,,,,,,,224,24,Male,2022-05-25_10h48.55.666,Main,2022.1.1,59.99167315565334,
negative,blue,1,None,k,,,,,0,5,5,5,,,,,,,,,,,,,,,,,,,,,,,,,,,,,,,,,,,,,,,,,prac,None,None,1,1.498589599999832,89.5999569999999,None,None,1,,,,,,,,,,,,,,224,24,Male,2022-05-25_10h48.55.666,Main,2022.1.1,59.99167315565334,
negative,yellow,2,k,None,,,,,0,6,6,6,,,,,,,,,,,,,,,,,,,,,,,,,,,,,,,,,,,,,,,,,prac,k,k,1,1.6445616999999402,92.09920439999996,None,None,0,,,,,,,,,,,,,,224,24,Male,2022-05-25_10h48.55.666,Main,2022.1.1,59.99167315565334,
negative,red,1,None,None,,,,,0,7,7,7,,,,,,,,,,,,,,,,,,,,,,,,,,,,,,,,,,,,,,,,,prac,None,None,1,1.4901899999999841,95.78561910000008,None,None,1,,,,,,,,,,,,,,224,24,Male,2022-05-25_10h48.55.666,Main,2022.1.1,59.99167315565334,
positive,yellow,2,None,k,,,,,0,8,8,8,,,,,,,,,,,,,,,,,,,,,,,,,,,,,,,,,,,,,,,,,prac,None,None,1,1.5048259000000144,98.28944789999969,None,None,1,,,,,,,,,,,,,,224,24,Male,2022-05-25_10h48.55.666,Main,2022.1.1,59.99167315565334,
negative,yellow,1,k,None,,,,,0,9,9,9,,,,,,,,,,,,,,,,,,,,,,,,,,,,,,,,,,,,,,,,,prac,k,k,1,0.639942499999961,100.7857669,None,None,0,,,,,,,,,,,,,,224,24,Male,2022-05-25_10h48.55.666,Main,2022.1.1,59.99167315565334,
positive,yellow,2,None,k,,,,,0,10,10,10,,,,,,,,,,,,,,,,,,,,,,,,,,,,,,,,,,,,,,,,,prac,None,None,1,1.5051677000001291,102.42571270000008,None,None,1,,,,,,,,,,,,,,224,24,Male,2022-05-25_10h48.55.666,Main,2022.1.1,59.99167315565334,
negative,yellow,2,k,None,,,,,0,11,11,11,,,,,,,,,,,,,,,,,,,,,,,,,,,,,,,,,,,,,,,,,prac,k,k,1,0.951998999999887,104.93270690000008,None,None,0,,,,,,,,,,,,,,224,24,Male,2022-05-25_10h48.55.666,Main,2022.1.1,59.99167315565334,
negative,red,2,None,None,,,,,0,12,12,12,,,,,,,,,,,,,,,,,,,,,,,,,,,,,,,,,,,,,,,,,prac,None,None,1,1.5085856000000604,106.88882469999999,None,None,1,,,,,,,,,,,,,,224,24,Male,2022-05-25_10h48.55.666,Main,2022.1.1,59.99167315565334,
positive,red,1,None,None,,,,,0,13,13,13,,,,,,,,,,,,,,,,,,,,,,,,,,,,,,,,,,,,,,,,,prac,None,None,1,1.4999050999999781,109.39582539999992,None,None,1,,,,,,,,,,,,,,224,24,Male,2022-05-25_10h48.55.666,Main,2022.1.1,59.99167315565334,
positive,blue,2,k,None,,,,,0,14,14,14,,,,,,,,,,,,,,,,,,,,,,,,,,,,,,,,,,,,,,,,,prac,k,k,1,0.5153408999999556,111.8979773000001,None,None,0,,,,,,,,,,,,,,224,24,Male,2022-05-25_10h48.55.666,Main,2022.1.1,59.99167315565334,
positive,blue,1,k,None,,,,,0,15,15,15,,,,,,,,,,,,,,,,,,,,,,,,,,,,,,,,,,,,,,,,,prac,k,k,1,0.887854900000093,113.41731570000002,None,None,0,,,,,,,,,,,,,,224,24,Male,2022-05-25_10h48.55.666,Main,2022.1.1,59.99167315565334,
negative,blue,1,None,k,,,,,0,16,16,16,,,,,,,,,,,,,,,,,,,,,,,,,,,,,,,,,,,,,,,,,prac,None,None,1,1.508379899999909,115.30669379999972,None,None,1,,,,,,,,,,,,,,224,24,Male,2022-05-25_10h48.55.666,Main,2022.1.1,59.99167315565334,
positive,blue,2,k,None,,,,,0,17,17,17,,,,,,,,,,,,,,,,,,,,,,,,,,,,,,,,,,,,,,,,,prac,k,k,1,0.8309608000004118,117.8147414,None,None,0,,,,,,,,,,,,,,224,24,Male,2022-05-25_10h48.55.666,Main,2022.1.1,59.99167315565334,
positive,blue,1,k,None,,,,,0,18,18,18,,,,,,,,,,,,,,,,,,,,,,,,,,,,,,,,,,,,,,,,,prac,k,k,1,0.6795852999998715,119.66092089999984,None,None,0,,,,,,,,,,,,,,224,24,Male,2022-05-25_10h48.55.666,Main,2022.1.1,59.99167315565334,
positive,yellow,1,None,k,,,,,0,19,19,19,,,,,,,,,,,,,,,,,,,,,,,,,,,,,,,,,,,,,,,,,prac,None,None,1,1.4987662999997156,121.3305892999997,None,None,1,,,,,,,,,,,,,,224,24,Male,2022-05-25_10h48.55.666,Main,2022.1.1,59.99167315565334,
negative,yellow,1,k,None,,,,,1,0,20,0,,,,,,,,,,,,,,,,,,,,,,,,,,,,,,,,,,,,,,,,,prac,k,k,1,0.6199269999997341,123.82856270000002,None,None,0,,,,,,,,,,,,,,224,24,Male,2022-05-25_10h48.55.666,Main,2022.1.1,59.99167315565334,
positive,red,2,None,None,,,,,1,1,21,1,,,,,,,,,,,,,,,,,,,,,,,,,,,,,,,,,,,,,,,,,prac,None,None,1,1.5141183999999157,125.45283649999965,None,None,1,,,,,,,,,,,,,,224,24,Male,2022-05-25_10h48.55.666,Main,2022.1.1,59.99167315565334,
negative,blue,2,None,k,,,,,1,2,22,2,,,,,,,,,,,,,,,,,,,,,,,,,,,,,,,,,,,,,,,,,prac,None,None,1,1.5048870000000534,127.96832979999999,None,None,1,,,,,,,,,,,,,,224,24,Male,2022-05-25_10h48.55.666,Main,2022.1.1,59.99167315565334,
positive,yellow,1,None,k,,,,,1,3,23,3,,,,,,,,,,,,,,,,,,,,,,,,,,,,,,,,,,,,,,,,,prac,None,None,1,1.504806500000086,130.47335900000007,None,None,1,,,,,,,,,,,,,,224,24,Male,2022-05-25_10h48.55.666,Main,2022.1.1,59.99167315565334,
negative,blue,2,None,k,,,,,1,4,24,4,,,,,,,,,,,,,,,,,,,,,,,,,,,,,,,,,,,,,,,,,prac,None,k,0,0.6001897999999528,132.9784056999997,None,None,1,,,,,,,,,,,,,,224,24,Male,2022-05-25_10h48.55.666,Main,2022.1.1,59.99167315565334,
negative,blue,1,None,k,,,,,1,5,25,5,,,,,,,,,,,,,,,,,,,,,,,,,,,,,,,,,,,,,,,,,prac,None,None,1,1.503628899999967,135.59588480000002,None,None,1,,,,,,,,,,,,,,224,24,Male,2022-05-25_10h48.55.666,Main,2022.1.1,59.99167315565334,
negative,yellow,2,k,None,,,,,1,6,26,6,,,,,,,,,,,,,,,,,,,,,,,,,,,,,,,,,,,,,,,,,prac,k,k,1,1.1543565000001763,138.10119910000003,None,None,0,,,,,,,,,,,,,,224,24,Male,2022-05-25_10h48.55.666,Main,2022.1.1,59.99167315565334,
negative,red,1,None,None,,,,,1,7,27,7,,,,,,,,,,,,,,,,,,,,,,,,,,,,,,,,,,,,,,,,,prac,None,None,1,1.50209760000007,140.2694034000001,None,None,1,,,,,,,,,,,,,,224,24,Male,2022-05-25_10h48.55.666,Main,2022.1.1,59.99167315565334,
positive,yellow,2,None,k,,,,,1,8,28,8,,,,,,,,,,,,,,,,,,,,,,,,,,,,,,,,,,,,,,,,,prac,None,None,1,1.4988944000001538,142.7618637999999,None,None,1,,,,,,,,,,,,,,224,24,Male,2022-05-25_10h48.55.666,Main,2022.1.1,59.99167315565334,
negative,yellow,1,k,None,,,,,1,9,29,9,,,,,,,,,,,,,,,,,,,,,,,,,,,,,,,,,,,,,,,,,prac,k,k,1,0.764668299999812,145.25994409999976,None,None,0,,,,,,,,,,,,,,224,24,Male,2022-05-25_10h48.55.666,Main,2022.1.1,59.99167315565334,
positive,yellow,2,None,k,,,,,1,10,30,10,,,,,,,,,,,,,,,,,,,,,,,,,,,,,,,,,,,,,,,,,prac,None,None,1,1.5021939999996903,147.02654129999974,None,None,1,,,,,,,,,,,,,,224,24,Male,2022-05-25_10h48.55.666,Main,2022.1.1,59.99167315565334,
negative,yellow,2,k,None,,,,,1,11,31,11,,,,,,,,,,,,,,,,,,,,,,,,,,,,,,,,,,,,,,,,,prac,k,k,1,0.7754128999999921,149.53301379999994,None,None,0,,,,,,,,,,,,,,224,24,Male,2022-05-25_10h48.55.666,Main,2022.1.1,59.99167315565334,
negative,red,2,None,None,,,,,1,12,32,12,,,,,,,,,,,,,,,,,,,,,,,,,,,,,,,,,,,,,,,,,prac,None,None,1,1.5004894999997305,151.3070987000001,None,None,1,,,,,,,,,,,,,,224,24,Male,2022-05-25_10h48.55.666,Main,2022.1.1,59.99167315565334,
positive,red,1,None,None,,,,,1,13,33,13,,,,,,,,,,,,,,,,,,,,,,,,,,,,,,,,,,,,,,,,,prac,None,None,1,1.4976502999998047,153.80971,None,None,1,,,,,,,,,,,,,,224,24,Male,2022-05-25_10h48.55.666,Main,2022.1.1,59.99167315565334,
positive,blue,2,k,None,,,,,1,14,34,14,,,,,,,,,,,,,,,,,,,,,,,,,,,,,,,,,,,,,,,,,prac,k,k,1,0.737026099999639,156.30885059999991,None,None,0,,,,,,,,,,,,,,224,24,Male,2022-05-25_10h48.55.666,Main,2022.1.1,59.99167315565334,
positive,blue,1,k,None,,,,,1,15,35,15,,,,,,,,,,,,,,,,,,,,,,,,,,,,,,,,,,,,,,,,,prac,k,k,1,0.7997419999996964,158.04874109999992,None,None,0,,,,,,,,,,,,,,224,24,Male,2022-05-25_10h48.55.666,Main,2022.1.1,59.99167315565334,
negative,blue,1,None,k,,,,,1,16,36,16,,,,,,,,,,,,,,,,,,,,,,,,,,,,,,,,,,,,,,,,,prac,None,None,1,1.5070261000000755,159.85058029999982,None,None,1,,,,,,,,,,,,,,224,24,Male,2022-05-25_10h48.55.666,Main,2022.1.1,59.99167315565334,
positive,blue,2,k,None,,,,,1,17,37,17,,,,,,,,,,,,,,,,,,,,,,,,,,,,,,,,,,,,,,,,,prac,k,k,1,0.7688272999998844,162.35699449999993,None,None,0,,,,,,,,,,,,,,224,24,Male,2022-05-25_10h48.55.666,Main,2022.1.1,59.99167315565334,
positive,blue,1,k,None,,,,,1,18,38,18,,,,,,,,,,,,,,,,,,,,,,,,,,,,,,,,,,,,,,,,,prac,k,k,1,0.7423558000000412,164.12895869999966,None,None,0,,,,,,,,,,,,,,224,24,Male,2022-05-25_10h48.55.666,Main,2022.1.1,59.99167315565334,
positive,yellow,1,None,k,,,,,1,19,39,19,,,,,,,,,,,,,,,,,,,,,,,,,,,,,,,,,,,,,,,,,prac,None,None,1,1.5017005999998219,165.87255370000003,None,None,1,,,,,,,,,,,,,,224,24,Male,2022-05-25_10h48.55.666,Main,2022.1.1,59.99167315565334,
,,,,,,,,,,,,,,,,,,,,,,,,,,,,,,,,,,,,,,,,,,,,,,,,,,,,,,,,,,,,,,168.3940287999999,None,168.3940287999999,None,0.0787037,-0.08240741,0,0,0,0.01032147999967492,None,,,224,24,Male,2022-05-25_10h48.55.666,Main,2022.1.1,59.99167315565334,
negative,yellow,2,k,None,,,,,,,,,0,0,0,0,,,,,,,,,,,,,,,,,,,,,,,,,,,,,,,,,169.70599089999996,None,169.70599089999996,None,main,k,k,1,1.1430169000000205,171.76283239999975,None,None,0,,,,,,,,,,,,,,224,24,Male,2022-05-25_10h48.55.666,Main,2022.1.1,59.99167315565334,
positive,red,1,None,None,,,,,,,,,0,1,1,1,,,,,,,,,,,,,,,,,,,,,,,,,,,,,,,,,,,,,main,None,None,1,1.5127122999997482,173.90797399999974,None,None,1,,,,,,,,,,,,,,224,24,Male,2022-05-25_10h48.55.666,Main,2022.1.1,59.99167315565334,
positive,blue,2,k,None,,,,,,,,,0,2,2,2,,,,,,,,,,,,,,,,,,,,,,,,,,,,,,,,,,,,,main,k,k,1,0.6904500000000553,176.4219103999999,None,None,0,,,,,,,,,,,,,,224,24,Male,2022-05-25_10h48.55.666,Main,2022.1.1,59.99167315565334,
positive,blue,1,k,None,,,,,,,,,0,3,3,3,,,,,,,,,,,,,,,,,,,,,,,,,,,,,,,,,,,,,main,k,k,1,0.5936335000001236,178.1155620999998,None,None,0,,,,,,,,,,,,,,224,24,Male,2022-05-25_10h48.55.666,Main,2022.1.1,59.99167315565334,
negative,yellow,2,k,None,,,,,,,,,0,4,4,4,,,,,,,,,,,,,,,,,,,,,,,,,,,,,,,,,,,,,main,k,k,1,0.7606715000001714,179.7117447999999,None,None,0,,,,,,,,,,,,,,224,24,Male,2022-05-25_10h48.55.666,Main,2022.1.1,59.99167315565334,
positive,yellow,2,None,k,,,,,,,,,0,5,5,5,,,,,,,,,,,,,,,,,,,,,,,,,,,,,,,,,,,,,main,None,None,1,1.497674299999744,181.4716456000001,None,None,1,,,,,,,,,,,,,,224,24,Male,2022-05-25_10h48.55.666,Main,2022.1.1,59.99167315565334,
negative,blue,2,None,k,,,,,,,,,0,6,6,6,,,,,,,,,,,,,,,,,,,,,,,,,,,,,,,,,,,,,main,None,None,1,1.5002157999997507,183.9706554999998,None,None,1,,,,,,,,,,,,,,224,24,Male,2022-05-25_10h48.55.666,Main,2022.1.1,59.99167315565334,
positive,red,2,None,None,,,,,,,,,0,7,7,7,,,,,,,,,,,,,,,,,,,,,,,,,,,,,,,,,,,,,main,None,None,1,1.5010706999996728,186.47181799999998,None,None,1,,,,,,,,,,,,,,224,24,Male,2022-05-25_10h48.55.666,Main,2022.1.1,59.99167315565334,
positive,yellow,1,None,k,,,,,,,,,0,8,8,8,,,,,,,,,,,,,,,,,,,,,,,,,,,,,,,,,,,,,main,None,None,1,1.5062840999999025,188.97681899999998,None,None,1,,,,,,,,,,,,,,224,24,Male,2022-05-25_10h48.55.666,Main,2022.1.1,59.99167315565334,
negative,red,1,None,None,,,,,,,,,0,9,9,9,,,,,,,,,,,,,,,,,,,,,,,,,,,,,,,,,,,,,main,None,None,1,1.5058515000000625,191.48474129999977,None,None,1,,,,,,,,,,,,,,224,24,Male,2022-05-25_10h48.55.666,Main,2022.1.1,59.99167315565334,
positive,yellow,1,None,k,,,,,,,,,0,10,10,10,,,,,,,,,,,,,,,,,,,,,,,,,,,,,,,,,,,,,main,None,None,1,1.5105379999999968,193.99483979999968,None,None,1,,,,,,,,,,,,,,224,24,Male,2022-05-25_10h48.55.666,Main,2022.1.1,59.99167315565334,
negative,yellow,1,k,None,,,,,,,,,0,11,11,11,,,,,,,,,,,,,,,,,,,,,,,,,,,,,,,,,,,,,main,k,k,1,0.8985290000000532,196.50438129999975,None,None,0,,,,,,,,,,,,,,224,24,Male,2022-05-25_10h48.55.666,Main,2022.1.1,59.99167315565334,
negative,yellow,1,k,None,,,,,,,,,0,12,12,12,,,,,,,,,,,,,,,,,,,,,,,,,,,,,,,,,,,,,main,k,k,1,0.6917128999998567,198.4069857999998,None,None,0,,,,,,,,,,,,,,224,24,Male,2022-05-25_10h48.55.666,Main,2022.1.1,59.99167315565334,
negative,red,2,None,None,,,,,,,,,0,13,13,13,,,,,,,,,,,,,,,,,,,,,,,,,,,,,,,,,,,,,main,None,None,1,1.5051374999998188,200.09875169999987,None,None,1,,,,,,,,,,,,,,224,24,Male,2022-05-25_10h48.55.666,Main,2022.1.1,59.99167315565334,
positive,yellow,2,None,k,,,,,,,,,0,14,14,14,,,,,,,,,,,,,,,,,,,,,,,,,,,,,,,,,,,,,main,None,None,1,1.501556399999572,202.6046677999998,None,None,1,,,,,,,,,,,,,,224,24,Male,2022-05-25_10h48.55.666,Main,2022.1.1,59.99167315565334,
positive,blue,1,k,None,,,,,,,,,0,15,15,15,,,,,,,,,,,,,,,,,,,,,,,,,,,,,,,,,,,,,main,k,k,1,0.7702432000000954,205.10921199999984,None,None,0,,,,,,,,,,,,,,224,24,Male,2022-05-25_10h48.55.666,Main,2022.1.1,59.99167315565334,
negative,blue,1,None,k,,,,,,,,,0,16,16,16,,,,,,,,,,,,,,,,,,,,,,,,,,,,,,,,,,,,,main,None,None,1,1.5044620000003306,206.8805843,None,None,1,,,,,,,,,,,,,,224,24,Male,2022-05-25_10h48.55.666,Main,2022.1.1,59.99167315565334,
positive,blue,2,k,None,,,,,,,,,0,17,17,17,,,,,,,,,,,,,,,,,,,,,,,,,,,,,,,,,,,,,main,k,k,1,0.9156217999998262,209.38543479999998,None,None,0,,,,,,,,,,,,,,224,24,Male,2022-05-25_10h48.55.666,Main,2022.1.1,59.99167315565334,
negative,blue,2,None,k,,,,,,,,,0,18,18,18,,,,,,,,,,,,,,,,,,,,,,,,,,,,,,,,,,,,,main,None,None,1,1.5087618000002294,211.30446389999997,None,None,1,,,,,,,,,,,,,,224,24,Male,2022-05-25_10h48.55.666,Main,2022.1.1,59.99167315565334,
negative,blue,1,None,k,,,,,,,,,0,19,19,19,,,,,,,,,,,,,,,,,,,,,,,,,,,,,,,,,,,,,main,None,None,1,1.505988200000047,213.81460819999984,None,None,1,,,,,,,,,,,,,,224,24,Male,2022-05-25_10h48.55.666,Main,2022.1.1,59.99167315565334,
negative,blue,1,None,k,,,,,,,,,0,20,20,20,,,,,,,,,,,,,,,,,,,,,,,,,,,,,,,,,,,,,main,None,None,1,1.512645899999825,216.3248862999999,None,None,1,,,,,,,,,,,,,,224,24,Male,2022-05-25_10h48.55.666,Main,2022.1.1,59.99167315565334,
negative,blue,2,None,k,,,,,,,,,0,21,21,21,,,,,,,,,,,,,,,,,,,,,,,,,,,,,,,,,,,,,main,None,None,1,1.4948448000000099,218.83908829999973,None,None,1,,,,,,,,,,,,,,224,24,Male,2022-05-25_10h48.55.666,Main,2022.1.1,59.99167315565334,
negative,red,1,None,None,,,,,,,,,0,22,22,22,,,,,,,,,,,,,,,,,,,,,,,,,,,,,,,,,,,,,main,None,None,1,1.4990647999998146,221.3362431999999,None,None,1,,,,,,,,,,,,,,224,24,Male,2022-05-25_10h48.55.666,Main,2022.1.1,59.99167315565334,
positive,red,2,None,None,,,,,,,,,0,23,23,23,,,,,,,,,,,,,,,,,,,,,,,,,,,,,,,,,,,,,main,None,None,1,1.497083499999917,223.83346989999973,None,None,1,,,,,,,,,,,,,,224,24,Male,2022-05-25_10h48.55.666,Main,2022.1.1,59.99167315565334,
negative,red,2,None,None,,,,,,,,,0,24,24,24,,,,,,,,,,,,,,,,,,,,,,,,,,,,,,,,,,,,,main,None,None,1,1.4968574999998054,226.33215029999974,None,None,1,,,,,,,,,,,,,,224,24,Male,2022-05-25_10h48.55.666,Main,2022.1.1,59.99167315565334,
positive,blue,2,k,None,,,,,,,,,0,25,25,25,,,,,,,,,,,,,,,,,,,,,,,,,,,,,,,,,,,,,main,k,k,1,0.7726702999998452,228.83169159999989,None,None,0,,,,,,,,,,,,,,224,24,Male,2022-05-25_10h48.55.666,Main,2022.1.1,59.99167315565334,
negative,yellow,1,k,None,,,,,,,,,0,26,26,26,,,,,,,,,,,,,,,,,,,,,,,,,,,,,,,,,,,,,main,k,k,1,0.9265347999998994,230.6079953999997,None,None,0,,,,,,,,,,,,,,224,24,Male,2022-05-25_10h48.55.666,Main,2022.1.1,59.99167315565334,
positive,blue,2,k,None,,,,,,,,,0,27,27,27,,,,,,,,,,,,,,,,,,,,,,,,,,,,,,,,,,,,,main,k,k,1,0.7617620999999417,232.53660059999993,None,None,0,,,,,,,,,,,,,,224,24,Male,2022-05-25_10h48.55.666,Main,2022.1.1,59.99167315565334,
negative,blue,2,None,k,,,,,,,,,0,28,28,28,,,,,,,,,,,,,,,,,,,,,,,,,,,,,,,,,,,,,main,None,None,1,1.503847400000268,234.29708489999985,None,None,1,,,,,,,,,,,,,,224,24,Male,2022-05-25_10h48.55.666,Main,2022.1.1,59.99167315565334,
positive,red,1,None,None,,,,,,,,,0,29,29,29,,,,,,,,,,,,,,,,,,,,,,,,,,,,,,,,,,,,,main,None,None,1,1.4970742000000428,236.80440199999975,None,None,1,,,,,,,,,,,,,,224,24,Male,2022-05-25_10h48.55.666,Main,2022.1.1,59.99167315565334,
positive,blue,1,k,None,,,,,,,,,0,30,30,30,,,,,,,,,,,,,,,,,,,,,,,,,,,,,,,,,,,,,main,k,k,1,0.8296583999999712,239.30262189999985,None,None,0,,,,,,,,,,,,,,224,24,Male,2022-05-25_10h48.55.666,Main,2022.1.1,59.99167315565334,
positive,yellow,1,None,k,,,,,,,,,0,31,31,31,,,,,,,,,,,,,,,,,,,,,,,,,,,,,,,,,,,,,main,None,None,1,1.5084630000001198,241.13438210000004,None,None,1,,,,,,,,,,,,,,224,24,Male,2022-05-25_10h48.55.666,Main,2022.1.1,59.99167315565334,
negative,yellow,2,k,None,,,,,,,,,0,32,32,32,,,,,,,,,,,,,,,,,,,,,,,,,,,,,,,,,,,,,main,k,k,1,0.6736845000000358,243.64453030000004,None,None,0,,,,,,,,,,,,,,224,24,Male,2022-05-25_10h48.55.666,Main,2022.1.1,59.99167315565334,
negative,blue,1,None,k,,,,,,,,,0,33,33,33,,,,,,,,,,,,,,,,,,,,,,,,,,,,,,,,,,,,,main,None,None,1,1.5128328999999212,245.32120170000007,None,None,1,,,,,,,,,,,,,,224,24,Male,2022-05-25_10h48.55.666,Main,2022.1.1,59.99167315565334,
positive,blue,1,k,None,,,,,,,,,0,34,34,34,,,,,,,,,,,,,,,,,,,,,,,,,,,,,,,,,,,,,main,k,k,1,0.7004977000001418,247.83508200000006,None,None,0,,,,,,,,,,,,,,224,24,Male,2022-05-25_10h48.55.666,Main,2022.1.1,59.99167315565334,
negative,yellow,1,k,None,,,,,,,,,0,35,35,35,,,,,,,,,,,,,,,,,,,,,,,,,,,,,,,,,,,,,main,k,k,1,0.6647717000000739,249.5377599999997,None,None,0,,,,,,,,,,,,,,224,24,Male,2022-05-25_10h48.55.666,Main,2022.1.1,59.99167315565334,
positive,yellow,2,None,k,,,,,,,,,0,36,36,36,,,,,,,,,,,,,,,,,,,,,,,,,,,,,,,,,,,,,main,None,None,1,1.5032845000000634,251.20325739999998,None,None,1,,,,,,,,,,,,,,224,24,Male,2022-05-25_10h48.55.666,Main,2022.1.1,59.99167315565334,
positive,yellow,2,None,k,,,,,,,,,0,37,37,37,,,,,,,,,,,,,,,,,,,,,,,,,,,,,,,,,,,,,main,None,None,1,1.5067199999998593,253.70758239999986,None,None,1,,,,,,,,,,,,,,224,24,Male,2022-05-25_10h48.55.666,Main,2022.1.1,59.99167315565334,
negative,yellow,2,k,None,,,,,,,,,0,38,38,38,,,,,,,,,,,,,,,,,,,,,,,,,,,,,,,,,,,,,main,k,k,1,0.6636392000000342,256.21497199999976,None,None,0,,,,,,,,,,,,,,224,24,Male,2022-05-25_10h48.55.666,Main,2022.1.1,59.99167315565334,
positive,yellow,1,None,k,,,,,,,,,0,39,39,39,,,,,,,,,,,,,,,,,,,,,,,,,,,,,,,,,,,,,main,None,None,1,1.501271799999813,257.8800600999998,None,None,1,,,,,,,,,,,,,,224,24,Male,2022-05-25_10h48.55.666,Main,2022.1.1,59.99167315565334,
negative,yellow,2,k,None,,,,,,,,,0,40,40,40,,,,,,,,,,,,,,,,,,,,,,,,,,,,,,,,,,,,,main,k,k,1,0.6634205000000293,260.3847499999997,None,None,0,,,,,,,,,,,,,,224,24,Male,2022-05-25_10h48.55.666,Main,2022.1.1,59.99167315565334,
positive,blue,2,k,None,,,,,,,,,0,41,41,41,,,,,,,,,,,,,,,,,,,,,,,,,,,,,,,,,,,,,main,k,k,1,0.7009610999998586,262.0494177999999,None,None,0,,,,,,,,,,,,,,224,24,Male,2022-05-25_10h48.55.666,Main,2022.1.1,59.99167315565334,
positive,blue,2,k,None,,,,,,,,,0,42,42,42,,,,,,,,,,,,,,,,,,,,,,,,,,,,,,,,,,,,,main,k,k,1,0.5310945999999603,263.75179149999985,None,None,0,,,,,,,,,,,,,,224,24,Male,2022-05-25_10h48.55.666,Main,2022.1.1,59.99167315565334,
negative,blue,2,None,k,,,,,,,,,0,43,43,43,,,,,,,,,,,,,,,,,,,,,,,,,,,,,,,,,,,,,main,None,None,1,1.5094148999996833,265.2843404,None,None,1,,,,,,,,,,,,,,224,24,Male,2022-05-25_10h48.55.666,Main,2022.1.1,59.99167315565334,
negative,red,1,None,None,,,,,,,,,0,44,44,44,,,,,,,,,,,,,,,,,,,,,,,,,,,,,,,,,,,,,main,None,None,1,1.4994492999999238,267.79313999999977,None,None,1,,,,,,,,,,,,,,224,24,Male,2022-05-25_10h48.55.666,Main,2022.1.1,59.99167315565334,
negative,yellow,1,k,None,,,,,,,,,0,45,45,45,,,,,,,,,,,,,,,,,,,,,,,,,,,,,,,,,,,,,main,k,k,1,0.9898864000001595,270.29438819999996,None,None,0,,,,,,,,,,,,,,224,24,Male,2022-05-25_10h48.55.666,Main,2022.1.1,59.99167315565334,
negative,yellow,1,k,None,,,,,,,,,0,46,46,46,,,,,,,,,,,,,,,,,,,,,,,,,,,,,,,,,,,,,main,k,k,1,0.5660883000000467,272.2875138999998,None,None,0,,,,,,,,,,,,,,224,24,Male,2022-05-25_10h48.55.666,Main,2022.1.1,59.99167315565334,
positive,red,1,None,None,,,,,,,,,0,47,47,47,,,,,,,,,,,,,,,,,,,,,,,,,,,,,,,,,,,,,main,None,None,1,1.5043665000002875,273.8554263000001,None,None,1,,,,,,,,,,,,,,224,24,Male,2022-05-25_10h48.55.666,Main,2022.1.1,59.99167315565334,
positive,yellow,1,None,k,,,,,,,,,0,48,48,48,,,,,,,,,,,,,,,,,,,,,,,,,,,,,,,,,,,,,main,None,None,1,1.5013433000003715,276.3595768,None,None,1,,,,,,,,,,,,,,224,24,Male,2022-05-25_10h48.55.666,Main,2022.1.1,59.99167315565334,
negative,blue,1,None,k,,,,,,,,,0,49,49,49,,,,,,,,,,,,,,,,,,,,,,,,,,,,,,,,,,,,,main,None,None,1,1.5014876999998705,278.8646384999997,None,None,1,,,,,,,,,,,,,,224,24,Male,2022-05-25_10h48.55.666,Main,2022.1.1,59.99167315565334,
positive,yellow,2,None,k,,,,,,,,,0,50,50,50,,,,,,,,,,,,,,,,,,,,,,,,,,,,,,,,,,,,,main,None,None,1,1.4966968000003362,281.3683559000001,None,None,1,,,,,,,,,,,,,,224,24,Male,2022-05-25_10h48.55.666,Main,2022.1.1,59.99167315565334,
negative,blue,1,None,k,,,,,,,,,0,51,51,51,,,,,,,,,,,,,,,,,,,,,,,,,,,,,,,,,,,,,main,None,None,1,1.4972524999998313,283.8656057999997,None,None,1,,,,,,,,,,,,,,224,24,Male,2022-05-25_10h48.55.666,Main,2022.1.1,59.99167315565334,
positive,red,2,None,None,,,,,,,,,0,52,52,52,,,,,,,,,,,,,,,,,,,,,,,,,,,,,,,,,,,,,main,None,None,1,1.5004257999999027,286.3652643999999,None,None,1,,,,,,,,,,,,,,224,24,Male,2022-05-25_10h48.55.666,Main,2022.1.1,59.99167315565334,
positive,yellow,2,None,k,,,,,,,,,0,53,53,53,,,,,,,,,,,,,,,,,,,,,,,,,,,,,,,,,,,,,main,None,None,1,1.4994605000001684,288.8663053999999,None,None,1,,,,,,,,,,,,,,224,24,Male,2022-05-25_10h48.55.666,Main,2022.1.1,59.99167315565334,
negative,red,2,None,None,,,,,,,,,0,54,54,54,,,,,,,,,,,,,,,,,,,,,,,,,,,,,,,,,,,,,main,None,None,1,1.5008505999999215,291.36705129999973,None,None,1,,,,,,,,,,,,,,224,24,Male,2022-05-25_10h48.55.666,Main,2022.1.1,59.99167315565334,
positive,yellow,1,None,k,,,,,,,,,0,55,55,55,,,,,,,,,,,,,,,,,,,,,,,,,,,,,,,,,,,,,main,None,None,1,1.5007282999999916,293.869138,None,None,1,,,,,,,,,,,,,,224,24,Male,2022-05-25_10h48.55.666,Main,2022.1.1,59.99167315565334,
negative,blue,2,None,k,,,,,,,,,0,56,56,56,,,,,,,,,,,,,,,,,,,,,,,,,,,,,,,,,,,,,main,None,None,1,1.499827500000265,296.37183909999976,None,None,1,,,,,,,,,,,,,,224,24,Male,2022-05-25_10h48.55.666,Main,2022.1.1,59.99167315565334,
positive,blue,1,k,None,,,,,,,,,0,57,57,57,,,,,,,,,,,,,,,,,,,,,,,,,,,,,,,,,,,,,main,k,k,1,1.3274450000003526,298.87618459999976,None,None,0,,,,,,,,,,,,,,224,24,Male,2022-05-25_10h48.55.666,Main,2022.1.1,59.99167315565334,
positive,blue,1,k,None,,,,,,,,,0,58,58,58,,,,,,,,,,,,,,,,,,,,,,,,,,,,,,,,,,,,,main,k,k,1,0.6829005999998117,301.20574439999973,None,None,0,,,,,,,,,,,,,,224,24,Male,2022-05-25_10h48.55.666,Main,2022.1.1,59.99167315565334,
negative,yellow,2,k,None,,,,,,,,,0,59,59,59,,,,,,,,,,,,,,,,,,,,,,,,,,,,,,,,,,,,,main,k,k,1,0.9352054999999382,302.89255619999994,None,None,0,,,,,,,,,,,,,,224,24,Male,2022-05-25_10h48.55.666,Main,2022.1.1,59.99167315565334,
positive,red,2,None,None,,,,,,,,,0,60,60,60,,,,,,,,,,,,,,,,,,,,,,,,,,,,,,,,,,,,,main,None,None,1,1.5097399999999652,304.8287593,None,None,1,,,,,,,,,,,,,,224,24,Male,2022-05-25_10h48.55.666,Main,2022.1.1,59.99167315565334,
negative,yellow,1,k,None,,,,,,,,,0,61,61,61,,,,,,,,,,,,,,,,,,,,,,,,,,,,,,,,,,,,,main,k,k,1,0.8408884999998918,307.33795009999994,None,None,0,,,,,,,,,,,,,,224,24,Male,2022-05-25_10h48.55.666,Main,2022.1.1,59.99167315565334,
negative,red,1,None,None,,,,,,,,,0,62,62,62,,,,,,,,,,,,,,,,,,,,,,,,,,,,,,,,,,,,,main,None,None,1,1.509925100000146,309.1821563999997,None,None,1,,,,,,,,,,,,,,224,24,Male,2022-05-25_10h48.55.666,Main,2022.1.1,59.99167315565334,
negative,blue,1,None,k,,,,,,,,,0,63,63,63,,,,,,,,,,,,,,,,,,,,,,,,,,,,,,,,,,,,,main,None,None,1,1.5039652000000387,311.69358740000007,None,None,1,,,,,,,,,,,,,,224,24,Male,2022-05-25_10h48.55.666,Main,2022.1.1,59.99167315565334,
positive,blue,2,k,None,,,,,,,,,0,64,64,64,,,,,,,,,,,,,,,,,,,,,,,,,,,,,,,,,,,,,main,k,k,1,0.6240652000001319,314.19897149999997,None,None,0,,,,,,,,,,,,,,224,24,Male,2022-05-25_10h48.55.666,Main,2022.1.1,59.99167315565334,
negative,yellow,2,k,None,,,,,,,,,0,65,65,65,,,,,,,,,,,,,,,,,,,,,,,,,,,,,,,,,,,,,main,k,k,1,1.2577612999998564,315.8261322999997,None,None,0,,,,,,,,,,,,,,224,24,Male,2022-05-25_10h48.55.666,Main,2022.1.1,59.99167315565334,
positive,yellow,2,None,k,,,,,,,,,0,66,66,66,,,,,,,,,,,,,,,,,,,,,,,,,,,,,,,,,,,,,main,None,None,1,1.5047270000000026,318.08341249999967,None,None,1,,,,,,,,,,,,,,224,24,Male,2022-05-25_10h48.55.666,Main,2022.1.1,59.99167315565334,
positive,yellow,2,None,k,,,,,,,,,0,67,67,67,,,,,,,,,,,,,,,,,,,,,,,,,,,,,,,,,,,,,main,None,None,1,1.4974142999999458,320.58811019999985,None,None,1,,,,,,,,,,,,,,224,24,Male,2022-05-25_10h48.55.666,Main,2022.1.1,59.99167315565334,
positive,red,1,None,None,,,,,,,,,0,68,68,68,,,,,,,,,,,,,,,,,,,,,,,,,,,,,,,,,,,,,main,None,None,1,1.501189400000385,323.08918649999987,None,None,1,,,,,,,,,,,,,,224,24,Male,2022-05-25_10h48.55.666,Main,2022.1.1,59.99167315565334,
positive,yellow,1,None,k,,,,,,,,,0,69,69,69,,,,,,,,,,,,,,,,,,,,,,,,,,,,,,,,,,,,,main,None,None,1,1.5019502000000102,325.5925407999998,None,None,1,,,,,,,,,,,,,,224,24,Male,2022-05-25_10h48.55.666,Main,2022.1.1,59.99167315565334,
negative,yellow,2,k,None,,,,,,,,,0,70,70,70,,,,,,,,,,,,,,,,,,,,,,,,,,,,,,,,,,,,,main,k,k,1,0.7950420000001941,328.0958396000001,None,None,0,,,,,,,,,,,,,,224,24,Male,2022-05-25_10h48.55.666,Main,2022.1.1,59.99167315565334,
positive,yellow,1,None,k,,,,,,,,,0,71,71,71,,,,,,,,,,,,,,,,,,,,,,,,,,,,,,,,,,,,,main,None,None,1,1.511320699999942,329.892832,None,None,1,,,,,,,,,,,,,,224,24,Male,2022-05-25_10h48.55.666,Main,2022.1.1,59.99167315565334,
negative,blue,1,None,k,,,,,,,,,0,72,72,72,,,,,,,,,,,,,,,,,,,,,,,,,,,,,,,,,,,,,main,None,None,1,1.5125024000003577,332.4040516,None,None,1,,,,,,,,,,,,,,224,24,Male,2022-05-25_10h48.55.666,Main,2022.1.1,59.99167315565334,
negative,red,2,None,None,,,,,,,,,0,73,73,73,,,,,,,,,,,,,,,,,,,,,,,,,,,,,,,,,,,,,main,None,None,1,1.5079651000000922,334.9180578999999,None,None,1,,,,,,,,,,,,,,224,24,Male,2022-05-25_10h48.55.666,Main,2022.1.1,59.99167315565334,
positive,blue,2,k,None,,,,,,,,,0,74,74,74,,,,,,,,,,,,,,,,,,,,,,,,,,,,,,,,,,,,,main,k,k,1,0.828102299999955,337.42924159999984,None,None,0,,,,,,,,,,,,,,224,24,Male,2022-05-25_10h48.55.666,Main,2022.1.1,59.99167315565334,
negative,blue,2,None,k,,,,,,,,,0,75,75,75,,,,,,,,,,,,,,,,,,,,,,,,,,,,,,,,,,,,,main,None,None,1,1.5101776999999856,339.25878029999967,None,None,1,,,,,,,,,,,,,,224,24,Male,2022-05-25_10h48.55.666,Main,2022.1.1,59.99167315565334,
negative,blue,2,None,k,,,,,,,,,0,76,76,76,,,,,,,,,,,,,,,,,,,,,,,,,,,,,,,,,,,,,main,None,None,1,1.5036050999997315,341.7690035999999,None,None,1,,,,,,,,,,,,,,224,24,Male,2022-05-25_10h48.55.666,Main,2022.1.1,59.99167315565334,
negative,yellow,1,k,None,,,,,,,,,0,77,77,77,,,,,,,,,,,,,,,,,,,,,,,,,,,,,,,,,,,,,main,k,k,1,0.9972274000001562,344.27553609999995,None,None,0,,,,,,,,,,,,,,224,24,Male,2022-05-25_10h48.55.666,Main,2022.1.1,59.99167315565334,
positive,blue,1,k,None,,,,,,,,,0,78,78,78,,,,,,,,,,,,,,,,,,,,,,,,,,,,,,,,,,,,,main,k,k,1,0.8506929999998647,346.2741659999997,None,None,0,,,,,,,,,,,,,,224,24,Male,2022-05-25_10h48.55.666,Main,2022.1.1,59.99167315565334,
positive,blue,1,k,None,,,,,,,,,0,79,79,79,,,,,,,,,,,,,,,,,,,,,,,,,,,,,,,,,,,,,main,k,k,1,0.574105199999849,348.1264011999997,None,None,0,,,,,,,,,,,,,,224,24,Male,2022-05-25_10h48.55.666,Main,2022.1.1,59.99167315565334,
positive,red,2,None,None,,,,,,,,,0,80,80,80,,,,,,,,,,,,,,,,,,,,,,,,,,,,,,,,,,,,,main,None,None,1,1.508042899999964,349.70052659999965,None,None,1,,,,,,,,,,,,,,224,24,Male,2022-05-25_10h48.55.666,Main,2022.1.1,59.99167315565334,
positive,yellow,2,None,k,,,,,,,,,0,81,81,81,,,,,,,,,,,,,,,,,,,,,,,,,,,,,,,,,,,,,main,None,None,1,1.5034021999999823,352.2112075,None,None,1,,,,,,,,,,,,,,224,24,Male,2022-05-25_10h48.55.666,Main,2022.1.1,59.99167315565334,
positive,blue,1,k,None,,,,,,,,,0,82,82,82,,,,,,,,,,,,,,,,,,,,,,,,,,,,,,,,,,,,,main,k,k,1,0.8090993000000708,354.7151138999998,None,None,0,,,,,,,,,,,,,,224,24,Male,2022-05-25_10h48.55.666,Main,2022.1.1,59.99167315565334,
negative,yellow,2,k,None,,,,,,,,,0,83,83,83,,,,,,,,,,,,,,,,,,,,,,,,,,,,,,,,,,,,,main,k,k,1,0.7300666999999521,356.52737979999984,None,None,0,,,,,,,,,,,,,,224,24,Male,2022-05-25_10h48.55.666,Main,2022.1.1,59.99167315565334,
positive,blue,2,k,None,,,,,,,,,0,84,84,84,,,,,,,,,,,,,,,,,,,,,,,,,,,,,,,,,,,,,main,k,k,1,0.7401858999996875,358.25896280000006,None,None,0,,,,,,,,,,,,,,224,24,Male,2022-05-25_10h48.55.666,Main,2022.1.1,59.99167315565334,
positive,yellow,1,None,k,,,,,,,,,0,85,85,85,,,,,,,,,,,,,,,,,,,,,,,,,,,,,,,,,,,,,main,None,None,1,1.5112475000000813,359.9992917999998,None,None,1,,,,,,,,,,,,,,224,24,Male,2022-05-25_10h48.55.666,Main,2022.1.1,59.99167315565334,
positive,blue,2,k,None,,,,,,,,,0,86,86,86,,,,,,,,,,,,,,,,,,,,,,,,,,,,,,,,,,,,,main,k,k,1,0.8214962000001833,362.51344329999984,None,None,0,,,,,,,,,,,,,,224,24,Male,2022-05-25_10h48.55.666,Main,2022.1.1,59.99167315565334,
positive,blue,1,k,None,,,,,,,,,0,87,87,87,,,,,,,,,,,,,,,,,,,,,,,,,,,,,,,,,,,,,main,k,k,1,0.7474926999998388,364.3394088,None,None,0,,,,,,,,,,,,,,224,24,Male,2022-05-25_10h48.55.666,Main,2022.1.1,59.99167315565334,
negative,yellow,2,k,None,,,,,,,,,0,88,88,88,,,,,,,,,,,,,,,,,,,,,,,,,,,,,,,,,,,,,main,k,k,1,0.6821847000001071,366.08811650000007,None,None,0,,,,,,,,,,,,,,224,24,Male,2022-05-25_10h48.55.666,Main,2022.1.1,59.99167315565334,
negative,blue,2,None,k,,,,,,,,,0,89,89,89,,,,,,,,,,,,,,,,,,,,,,,,,,,,,,,,,,,,,main,None,None,1,1.495648799999799,367.7718577999999,None,None,1,,,,,,,,,,,,,,224,24,Male,2022-05-25_10h48.55.666,Main,2022.1.1,59.99167315565334,
positive,yellow,2,None,k,,,,,,,,,0,90,90,90,,,,,,,,,,,,,,,,,,,,,,,,,,,,,,,,,,,,,main,None,None,1,1.5068191999998817,370.270626,None,None,1,,,,,,,,,,,,,,224,24,Male,2022-05-25_10h48.55.666,Main,2022.1.1,59.99167315565334,
negative,yellow,1,k,None,,,,,,,,,0,91,91,91,,,,,,,,,,,,,,,,,,,,,,,,,,,,,,,,,,,,,main,k,k,1,1.0090493000002425,372.77720120000004,None,None,0,,,,,,,,,,,,,,224,24,Male,2022-05-25_10h48.55.666,Main,2022.1.1,59.99167315565334,
negative,red,2,None,None,,,,,,,,,0,92,92,92,,,,,,,,,,,,,,,,,,,,,,,,,,,,,,,,,,,,,main,None,None,1,1.5089775999999802,374.7896793,None,None,1,,,,,,,,,,,,,,224,24,Male,2022-05-25_10h48.55.666,Main,2022.1.1,59.99167315565334,
negative,blue,2,None,k,,,,,,,,,0,93,93,93,,,,,,,,,,,,,,,,,,,,,,,,,,,,,,,,,,,,,main,None,k,0,0.6269357000001037,377.29636119999986,None,None,1,,,,,,,,,,,,,,224,24,Male,2022-05-25_10h48.55.666,Main,2022.1.1,59.99167315565334,
negative,blue,1,None,k,,,,,,,,,0,94,94,94,,,,,,,,,,,,,,,,,,,,,,,,,,,,,,,,,,,,,main,None,None,1,1.491799799999626,379.93086859999994,None,None,1,,,,,,,,,,,,,,224,24,Male,2022-05-25_10h48.55.666,Main,2022.1.1,59.99167315565334,
negative,blue,1,None,k,,,,,,,,,0,95,95,95,,,,,,,,,,,,,,,,,,,,,,,,,,,,,,,,,,,,,main,None,None,1,1.5104059999998753,382.4248319999997,None,None,1,,,,,,,,,,,,,,224,24,Male,2022-05-25_10h48.55.666,Main,2022.1.1,59.99167315565334,
negative,red,1,None,None,,,,,,,,,0,96,96,96,,,,,,,,,,,,,,,,,,,,,,,,,,,,,,,,,,,,,main,None,None,1,1.4975139000002855,384.93689240000003,None,None,1,,,,,,,,,,,,,,224,24,Male,2022-05-25_10h48.55.666,Main,2022.1.1,59.99167315565334,
positive,yellow,1,None,k,,,,,,,,,0,97,97,97,,,,,,,,,,,,,,,,,,,,,,,,,,,,,,,,,,,,,main,None,None,1,1.508100099999865,387.43620740000006,None,None,1,,,,,,,,,,,,,,224,24,Male,2022-05-25_10h48.55.666,Main,2022.1.1,59.99167315565334,
negative,yellow,1,k,None,,,,,,,,,0,98,98,98,,,,,,,,,,,,,,,,,,,,,,,,,,,,,,,,,,,,,main,k,k,1,0.9249095000000125,389.94347590000007,None,None,0,,,,,,,,,,,,,,224,24,Male,2022-05-25_10h48.55.666,Main,2022.1.1,59.99167315565334,
positive,red,1,None,None,,,,,,,,,0,99,99,99,,,,,,,,,,,,,,,,,,,,,,,,,,,,,,,,,,,,,main,None,None,1,1.5102810999997018,391.87215819999983,None,None,1,,,,,,,,,,,,,,224,24,Male,2022-05-25_10h48.55.666,Main,2022.1.1,59.99167315565334,
positive,blue,1,k,None,,,,,,,,,0,100,100,100,,,,,,,,,,,,,,,,,,,,,,,,,,,,,,,,,,,,,main,k,k,1,1.0231721000000107,394.3843173,None,None,0,,,,,,,,,,,,,,224,24,Male,2022-05-25_10h48.55.666,Main,2022.1.1,59.99167315565334,
negative,yellow,1,k,None,,,,,,,,,0,101,101,101,,,,,,,,,,,,,,,,,,,,,,,,,,,,,,,,,,,,,main,k,k,1,0.9354862999998659,396.40848049999977,None,None,0,,,,,,,,,,,,,,224,24,Male,2022-05-25_10h48.55.666,Main,2022.1.1,59.99167315565334,
negative,blue,2,None,k,,,,,,,,,0,102,102,102,,,,,,,,,,,,,,,,,,,,,,,,,,,,,,,,,,,,,main,None,None,1,1.5012459000004128,398.3462313,None,None,1,,,,,,,,,,,,,,224,24,Male,2022-05-25_10h48.55.666,Main,2022.1.1,59.99167315565334,
negative,yellow,2,k,None,,,,,,,,,0,103,103,103,,,,,,,,,,,,,,,,,,,,,,,,,,,,,,,,,,,,,main,k,k,1,1.009908699999869,400.8503391999998,None,None,0,,,,,,,,,,,,,,224,24,Male,2022-05-25_10h48.55.666,Main,2022.1.1,59.99167315565334,
positive,yellow,2,None,k,,,,,,,,,0,104,104,104,,,,,,,,,,,,,,,,,,,,,,,,,,,,,,,,,,,,,main,None,None,1,1.4969562000001133,402.86002089999965,None,None,1,,,,,,,,,,,,,,224,24,Male,2022-05-25_10h48.55.666,Main,2022.1.1,59.99167315565334,
positive,blue,1,k,None,,,,,,,,,0,105,105,105,,,,,,,,,,,,,,,,,,,,,,,,,,,,,,,,,,,,,main,k,k,1,1.403947899999821,405.35833709999997,None,None,0,,,,,,,,,,,,,,224,24,Male,2022-05-25_10h48.55.666,Main,2022.1.1,59.99167315565334,
positive,blue,2,k,None,,,,,,,,,0,106,106,106,,,,,,,,,,,,,,,,,,,,,,,,,,,,,,,,,,,,,main,k,k,1,0.6372785999997177,407.7660025,None,None,0,,,,,,,,,,,,,,224,24,Male,2022-05-25_10h48.55.666,Main,2022.1.1,59.99167315565334,
negative,blue,1,None,k,,,,,,,,,0,107,107,107,,,,,,,,,,,,,,,,,,,,,,,,,,,,,,,,,,,,,main,None,None,1,1.4957085999999435,409.40480819999993,None,None,1,,,,,,,,,,,,,,224,24,Male,2022-05-25_10h48.55.666,Main,2022.1.1,59.99167315565334,
positive,yellow,2,None,k,,,,,,,,,0,108,108,108,,,,,,,,,,,,,,,,,,,,,,,,,,,,,,,,,,,,,main,None,None,1,1.5070381000000452,411.90177270000004,None,None,1,,,,,,,,,,,,,,224,24,Male,2022-05-25_10h48.55.666,Main,2022.1.1,59.99167315565334,
negative,yellow,1,k,None,,,,,,,,,0,109,109,109,,,,,,,,,,,,,,,,,,,,,,,,,,,,,,,,,,,,,main,k,k,1,1.284409400000186,414.4104014999998,None,None,0,,,,,,,,,,,,,,224,24,Male,2022-05-25_10h48.55.666,Main,2022.1.1,59.99167315565334,
negative,blue,2,None,k,,,,,,,,,0,110,110,110,,,,,,,,,,,,,,,,,,,,,,,,,,,,,,,,,,,,,main,None,None,1,1.4988576999999168,416.6971183999999,None,None,1,,,,,,,,,,,,,,224,24,Male,2022-05-25_10h48.55.666,Main,2022.1.1,59.99167315565334,
positive,blue,2,k,None,,,,,,,,,0,111,111,111,,,,,,,,,,,,,,,,,,,,,,,,,,,,,,,,,,,,,main,k,k,1,0.8778779000003851,419.19665140000006,None,None,0,,,,,,,,,,,,,,224,24,Male,2022-05-25_10h48.55.666,Main,2022.1.1,59.99167315565334,
negative,blue,1,None,k,,,,,,,,,0,112,112,112,,,,,,,,,,,,,,,,,,,,,,,,,,,,,,,,,,,,,main,None,None,1,1.5085285000000113,421.07442519999995,None,None,1,,,,,,,,,,,,,,224,24,Male,2022-05-25_10h48.55.666,Main,2022.1.1,59.99167315565334,
positive,yellow,1,None,k,,,,,,,,,0,113,113,113,,,,,,,,,,,,,,,,,,,,,,,,,,,,,,,,,,,,,main,None,None,1,1.5011223999999856,423.58623309999984,None,None,1,,,,,,,,,,,,,,224,24,Male,2022-05-25_10h48.55.666,Main,2022.1.1,59.99167315565334,
negative,red,1,None,None,,,,,,,,,0,114,114,114,,,,,,,,,,,,,,,,,,,,,,,,,,,,,,,,,,,,,main,None,None,1,1.5104595000002519,426.0882093,None,None,1,,,,,,,,,,,,,,224,24,Male,2022-05-25_10h48.55.666,Main,2022.1.1,59.99167315565334,
positive,red,1,None,None,,,,,,,,,0,115,115,115,,,,,,,,,,,,,,,,,,,,,,,,,,,,,,,,,,,,,main,None,None,1,1.5040785000001051,428.6022717999999,None,None,1,,,,,,,,,,,,,,224,24,Male,2022-05-25_10h48.55.666,Main,2022.1.1,59.99167315565334,
negative,red,2,None,None,,,,,,,,,0,116,116,116,,,,,,,,,,,,,,,,,,,,,,,,,,,,,,,,,,,,,main,None,None,1,1.508506899999702,431.1058915999997,None,None,1,,,,,,,,,,,,,,224,24,Male,2022-05-25_10h48.55.666,Main,2022.1.1,59.99167315565334,
negative,yellow,2,k,None,,,,,,,,,0,117,117,117,,,,,,,,,,,,,,,,,,,,,,,,,,,,,,,,,,,,,main,k,k,1,0.8202753000000484,433.6183066999997,None,None,0,,,,,,,,,,,,,,224,24,Male,2022-05-25_10h48.55.666,Main,2022.1.1,59.99167315565334,
positive,yellow,1,None,k,,,,,,,,,0,118,118,118,,,,,,,,,,,,,,,,,,,,,,,,,,,,,,,,,,,,,main,None,None,1,1.4990825999998378,435.4398483,None,None,1,,,,,,,,,,,,,,224,24,Male,2022-05-25_10h48.55.666,Main,2022.1.1,59.99167315565334,
positive,red,2,None,None,,,,,,,,,0,119,119,119,,,,,,,,,,,,,,,,,,,,,,,,,,,,,,,,,,,,,main,None,None,1,1.5067558999999164,437.9405853999997,None,None,1,,,,,,,,,,,,,,224,24,Male,2022-05-25_10h48.55.666,Main,2022.1.1,59.99167315565334,
positive,blue,2,k,None,,,,,,,,,0,120,120,120,,,,,,,,,,,,,,,,,,,,,,,,,,,,,,,,,,,,,main,k,k,1,0.7717603000000963,440.4500135999997,None,None,0,,,,,,,,,,,,,,224,24,Male,2022-05-25_10h48.55.666,Main,2022.1.1,59.99167315565334,
negative,red,1,None,None,,,,,,,,,0,121,121,121,,,,,,,,,,,,,,,,,,,,,,,,,,,,,,,,,,,,,main,None,None,1,1.5067572999996628,442.2213932999998,None,None,1,,,,,,,,,,,,,,224,24,Male,2022-05-25_10h48.55.666,Main,2022.1.1,59.99167315565334,
positive,yellow,2,None,k,,,,,,,,,0,122,122,122,,,,,,,,,,,,,,,,,,,,,,,,,,,,,,,,,,,,,main,None,None,1,1.496042799999941,444.73175949999995,None,None,1,,,,,,,,,,,,,,224,24,Male,2022-05-25_10h48.55.666,Main,2022.1.1,59.99167315565334,
negative,red,2,None,None,,,,,,,,,0,123,123,123,,,,,,,,,,,,,,,,,,,,,,,,,,,,,,,,,,,,,main,None,None,1,1.5015847999998186,447.22928349999984,None,None,1,,,,,,,,,,,,,,224,24,Male,2022-05-25_10h48.55.666,Main,2022.1.1,59.99167315565334,
negative,yellow,2,k,None,,,,,,,,,0,124,124,124,,,,,,,,,,,,,,,,,,,,,,,,,,,,,,,,,,,,,main,k,k,1,1.0552834000000075,449.7335046999997,None,None,0,,,,,,,,,,,,,,224,24,Male,2022-05-25_10h48.55.666,Main,2022.1.1,59.99167315565334,
positive,red,1,None,None,,,,,,,,,0,125,125,125,,,,,,,,,,,,,,,,,,,,,,,,,,,,,,,,,,,,,main,None,None,1,1.4975607999999738,451.7903914999997,None,None,1,,,,,,,,,,,,,,224,24,Male,2022-05-25_10h48.55.666,Main,2022.1.1,59.99167315565334,
negative,blue,2,None,k,,,,,,,,,0,126,126,126,,,,,,,,,,,,,,,,,,,,,,,,,,,,,,,,,,,,,main,None,None,1,1.5057028999999602,454.28709009999966,None,None,1,,,,,,,,,,,,,,224,24,Male,2022-05-25_10h48.55.666,Main,2022.1.1,59.99167315565334,
negative,blue,1,None,k,,,,,,,,,0,127,127,127,,,,,,,,,,,,,,,,,,,,,,,,,,,,,,,,,,,,,main,None,None,1,1.4955657999998948,456.79574120000007,None,None,1,,,,,,,,,,,,,,224,24,Male,2022-05-25_10h48.55.666,Main,2022.1.1,59.99167315565334,
negative,yellow,1,k,None,,,,,,,,,0,128,128,128,,,,,,,,,,,,,,,,,,,,,,,,,,,,,,,,,,,,,main,k,k,1,0.7687283000000207,459.29532259999996,None,None,0,,,,,,,,,,,,,,224,24,Male,2022-05-25_10h48.55.666,Main,2022.1.1,59.99167315565334,
negative,yellow,1,k,None,,,,,,,,,0,129,129,129,,,,,,,,,,,,,,,,,,,,,,,,,,,,,,,,,,,,,main,k,k,1,0.848590100000365,461.06516169999986,None,None,0,,,,,,,,,,,,,,224,24,Male,2022-05-25_10h48.55.666,Main,2022.1.1,59.99167315565334,
positive,blue,1,k,None,,,,,,,,,0,130,130,130,,,,,,,,,,,,,,,,,,,,,,,,,,,,,,,,,,,,,main,k,k,1,1.1375416999999288,462.91391810000005,None,None,0,,,,,,,,,,,,,,224,24,Male,2022-05-25_10h48.55.666,Main,2022.1.1,59.99167315565334,
negative,blue,1,None,k,,,,,,,,,0,131,131,131,,,,,,,,,,,,,,,,,,,,,,,,,,,,,,,,,,,,,main,None,None,1,1.5118557000000692,465.05177430000003,None,None,1,,,,,,,,,,,,,,224,24,Male,2022-05-25_10h48.55.666,Main,2022.1.1,59.99167315565334,
negative,blue,2,None,k,,,,,,,,,0,132,132,132,,,,,,,,,,,,,,,,,,,,,,,,,,,,,,,,,,,,,main,None,None,1,1.5001929000000018,467.56692399999974,None,None,1,,,,,,,,,,,,,,224,24,Male,2022-05-25_10h48.55.666,Main,2022.1.1,59.99167315565334,
positive,blue,2,k,None,,,,,,,,,0,133,133,133,,,,,,,,,,,,,,,,,,,,,,,,,,,,,,,,,,,,,main,k,k,1,0.6484511999997267,470.06883449999987,None,None,0,,,,,,,,,,,,,,224,24,Male,2022-05-25_10h48.55.666,Main,2022.1.1,59.99167315565334,
positive,red,2,None,None,,,,,,,,,0,134,134,134,,,,,,,,,,,,,,,,,,,,,,,,,,,,,,,,,,,,,main,None,None,1,1.4976049000001694,471.7208791999997,None,None,1,,,,,,,,,,,,,,224,24,Male,2022-05-25_10h48.55.666,Main,2022.1.1,59.99167315565334,
negative,yellow,2,k,None,,,,,,,,,0,135,135,135,,,,,,,,,,,,,,,,,,,,,,,,,,,,,,,,,,,,,main,k,k,1,0.5510597000002235,474.2179056,None,None,0,,,,,,,,,,,,,,224,24,Male,2022-05-25_10h48.55.666,Main,2022.1.1,59.99167315565334,
positive,yellow,2,None,k,,,,,,,,,0,136,136,136,,,,,,,,,,,,,,,,,,,,,,,,,,,,,,,,,,,,,main,None,k,0,0.601508300000205,475.7741685000001,None,None,1,,,,,,,,,,,,,,224,24,Male,2022-05-25_10h48.55.666,Main,2022.1.1,59.99167315565334,
positive,blue,1,k,None,,,,,,,,,0,137,137,137,,,,,,,,,,,,,,,,,,,,,,,,,,,,,,,,,,,,,main,k,k,1,1.1829187000003003,478.38522190000003,None,None,0,,,,,,,,,,,,,,224,24,Male,2022-05-25_10h48.55.666,Main,2022.1.1,59.99167315565334,
positive,yellow,1,None,k,,,,,,,,,0,138,138,138,,,,,,,,,,,,,,,,,,,,,,,,,,,,,,,,,,,,,main,None,None,1,1.5009476000000177,480.56868429999986,None,None,1,,,,,,,,,,,,,,224,24,Male,2022-05-25_10h48.55.666,Main,2022.1.1,59.99167315565334,
positive,yellow,1,None,k,,,,,,,,,0,139,139,139,,,,,,,,,,,,,,,,,,,,,,,,,,,,,,,,,,,,,main,None,None,1,1.5077402000001712,483.0728535999997,None,None,1,,,,,,,,,,,,,,224,24,Male,2022-05-25_10h48.55.666,Main,2022.1.1,59.99167315565334,
positive,yellow,1,None,k,,,,,,,,,0,140,140,140,,,,,,,,,,,,,,,,,,,,,,,,,,,,,,,,,,,,,main,None,None,1,1.5000999000003503,485.5813693,None,None,1,,,,,,,,,,,,,,224,24,Male,2022-05-25_10h48.55.666,Main,2022.1.1,59.99167315565334,
positive,blue,1,k,None,,,,,,,,,0,141,141,141,,,,,,,,,,,,,,,,,,,,,,,,,,,,,,,,,,,,,main,k,k,1,1.3317729000000327,488.0830900000001,None,None,0,,,,,,,,,,,,,,224,24,Male,2022-05-25_10h48.55.666,Main,2022.1.1,59.99167315565334,
positive,blue,2,k,None,,,,,,,,,0,142,142,142,,,,,,,,,,,,,,,,,,,,,,,,,,,,,,,,,,,,,main,k,k,1,0.8305101999999351,490.4185692000001,None,None,0,,,,,,,,,,,,,,224,24,Male,2022-05-25_10h48.55.666,Main,2022.1.1,59.99167315565334,
positive,yellow,2,None,k,,,,,,,,,0,143,143,143,,,,,,,,,,,,,,,,,,,,,,,,,,,,,,,,,,,,,main,None,None,1,1.4988908000000265,492.24817570000005,None,None,1,,,,,,,,,,,,,,224,24,Male,2022-05-25_10h48.55.666,Main,2022.1.1,59.99167315565334,
negative,yellow,2,k,None,,,,,,,,,0,144,144,144,,,,,,,,,,,,,,,,,,,,,,,,,,,,,,,,,,,,,main,k,k,1,0.8490944999998646,494.7502850999999,None,None,0,,,,,,,,,,,,,,224,24,Male,2022-05-25_10h48.55.666,Main,2022.1.1,59.99167315565334,
negative,blue,2,None,k,,,,,,,,,0,145,145,145,,,,,,,,,,,,,,,,,,,,,,,,,,,,,,,,,,,,,main,None,None,1,1.5091496000000006,496.6014089999999,None,None,1,,,,,,,,,,,,,,224,24,Male,2022-05-25_10h48.55.666,Main,2022.1.1,59.99167315565334,
negative,red,1,None,None,,,,,,,,,0,146,146,146,,,,,,,,,,,,,,,,,,,,,,,,,,,,,,,,,,,,,main,None,None,1,1.4978054000002885,499.1108856000001,None,None,1,,,,,,,,,,,,,,224,24,Male,2022-05-25_10h48.55.666,Main,2022.1.1,59.99167315565334,
positive,blue,1,k,None,,,,,,,,,0,147,147,147,,,,,,,,,,,,,,,,,,,,,,,,,,,,,,,,,,,,,main,k,k,1,0.7123814000001403,501.6117856000001,None,None,0,,,,,,,,,,,,,,224,24,Male,2022-05-25_10h48.55.666,Main,2022.1.1,59.99167315565334,
positive,yellow,1,None,k,,,,,,,,,0,148,148,148,,,,,,,,,,,,,,,,,,,,,,,,,,,,,,,,,,,,,main,None,None,1,1.507273499999883,503.3282556999998,None,None,1,,,,,,,,,,,,,,224,24,Male,2022-05-25_10h48.55.666,Main,2022.1.1,59.99167315565334,
negative,red,2,None,None,,,,,,,,,0,149,149,149,,,,,,,,,,,,,,,,,,,,,,,,,,,,,,,,,,,,,main,None,None,1,1.5089535000001888,505.8396364,None,None,1,,,,,,,,,,,,,,224,24,Male,2022-05-25_10h48.55.666,Main,2022.1.1,59.99167315565334,
negative,blue,1,None,k,,,,,,,,,0,150,150,150,,,,,,,,,,,,,,,,,,,,,,,,,,,,,,,,,,,,,main,None,None,1,1.5047074999997676,508.3481262999999,None,None,1,,,,,,,,,,,,,,224,24,Male,2022-05-25_10h48.55.666,Main,2022.1.1,59.99167315565334,
negative,yellow,2,k,None,,,,,,,,,0,151,151,151,,,,,,,,,,,,,,,,,,,,,,,,,,,,,,,,,,,,,main,k,k,1,0.822389700000258,510.85518090000005,None,None,0,,,,,,,,,,,,,,224,24,Male,2022-05-25_10h48.55.666,Main,2022.1.1,59.99167315565334,
negative,blue,2,None,k,,,,,,,,,0,152,152,152,,,,,,,,,,,,,,,,,,,,,,,,,,,,,,,,,,,,,main,None,None,1,1.5005629000002045,512.6776328999999,None,None,1,,,,,,,,,,,,,,224,24,Male,2022-05-25_10h48.55.666,Main,2022.1.1,59.99167315565334,
negative,yellow,1,k,None,,,,,,,,,0,153,153,153,,,,,,,,,,,,,,,,,,,,,,,,,,,,,,,,,,,,,main,k,k,1,1.185775499999636,515.1808084999998,None,None,0,,,,,,,,,,,,,,224,24,Male,2022-05-25_10h48.55.666,Main,2022.1.1,59.99167315565334,
negative,blue,1,None,k,,,,,,,,,0,154,154,154,,,,,,,,,,,,,,,,,,,,,,,,,,,,,,,,,,,,,main,None,None,1,1.5085450000001401,517.3689990999997,None,None,1,,,,,,,,,,,,,,224,24,Male,2022-05-25_10h48.55.666,Main,2022.1.1,59.99167315565334,
positive,yellow,2,None,k,,,,,,,,,0,155,155,155,,,,,,,,,,,,,,,,,,,,,,,,,,,,,,,,,,,,,main,None,None,1,1.500000700000328,519.8777921000001,None,None,1,,,,,,,,,,,,,,224,24,Male,2022-05-25_10h48.55.666,Main,2022.1.1,59.99167315565334,
positive,red,2,None,None,,,,,,,,,0,156,156,156,,,,,,,,,,,,,,,,,,,,,,,,,,,,,,,,,,,,,main,None,None,1,1.5074503999999251,522.3802935999997,None,None,1,,,,,,,,,,,,,,224,24,Male,2022-05-25_10h48.55.666,Main,2022.1.1,59.99167315565334,
positive,red,1,None,None,,,,,,,,,0,157,157,157,,,,,,,,,,,,,,,,,,,,,,,,,,,,,,,,,,,,,main,None,None,1,1.5052535999998327,524.8895595999998,None,None,1,,,,,,,,,,,,,,224,24,Male,2022-05-25_10h48.55.666,Main,2022.1.1,59.99167315565334,
positive,blue,2,k,None,,,,,,,,,0,158,158,158,,,,,,,,,,,,,,,,,,,,,,,,,,,,,,,,,,,,,main,k,k,1,0.6522942999999941,527.3947163999997,None,None,0,,,,,,,,,,,,,,224,24,Male,2022-05-25_10h48.55.666,Main,2022.1.1,59.99167315565334,
negative,yellow,1,k,None,,,,,,,,,0,159,159,159,,,,,,,,,,,,,,,,,,,,,,,,,,,,,,,,,,,,,main,k,k,1,0.9840899999999237,529.0501632999999,None,None,0,,,,,,,,,,,,,,224,24,Male,2022-05-25_10h48.55.666,Main,2022.1.1,59.99167315565334,
negative,red,2,None,None,,,,,,,,,0,160,160,160,,,,,,,,,,,,,,,,,,,,,,,,,,,,,,,,,,,,,main,None,None,1,1.4944941000003382,531.0365105999999,None,None,1,,,,,,,,,,,,,,224,24,Male,2022-05-25_10h48.55.666,Main,2022.1.1,59.99167315565334,
negative,blue,1,None,k,,,,,,,,,0,161,161,161,,,,,,,,,,,,,,,,,,,,,,,,,,,,,,,,,,,,,main,None,None,1,1.510424900000089,533.5319322999999,None,None,1,,,,,,,,,,,,,,224,24,Male,2022-05-25_10h48.55.666,Main,2022.1.1,59.99167315565334,
negative,blue,1,None,k,,,,,,,,,0,162,162,162,,,,,,,,,,,,,,,,,,,,,,,,,,,,,,,,,,,,,main,None,None,1,1.502834299999904,536.0415384999997,None,None,1,,,,,,,,,,,,,,224,24,Male,2022-05-25_10h48.55.666,Main,2022.1.1,59.99167315565334,
negative,yellow,1,k,None,,,,,,,,,0,163,163,163,,,,,,,,,,,,,,,,,,,,,,,,,,,,,,,,,,,,,main,k,k,1,0.6822993999999198,538.5482161,None,None,0,,,,,,,,,,,,,,224,24,Male,2022-05-25_10h48.55.666,Main,2022.1.1,59.99167315565334,
negative,yellow,1,k,None,,,,,,,,,0,164,164,164,,,,,,,,,,,,,,,,,,,,,,,,,,,,,,,,,,,,,main,k,k,1,0.7337766000000556,540.2320494999999,None,None,0,,,,,,,,,,,,,,224,24,Male,2022-05-25_10h48.55.666,Main,2022.1.1,59.99167315565334,
positive,yellow,1,None,k,,,,,,,,,0,165,165,165,,,,,,,,,,,,,,,,,,,,,,,,,,,,,,,,,,,,,main,None,None,1,1.5091110000003027,541.9675004000001,None,None,1,,,,,,,,,,,,,,224,24,Male,2022-05-25_10h48.55.666,Main,2022.1.1,59.99167315565334,
negative,red,1,None,None,,,,,,,,,0,166,166,166,,,,,,,,,,,,,,,,,,,,,,,,,,,,,,,,,,,,,main,None,None,1,1.4974833000001126,544.4756732000001,None,None,1,,,,,,,,,,,,,,224,24,Male,2022-05-25_10h48.55.666,Main,2022.1.1,59.99167315565334,
negative,yellow,2,k,None,,,,,,,,,0,167,167,167,,,,,,,,,,,,,,,,,,,,,,,,,,,,,,,,,,,,,main,k,k,1,0.7736500000000888,546.975594,None,None,0,,,,,,,,,,,,,,224,24,Male,2022-05-25_10h48.55.666,Main,2022.1.1,59.99167315565334,
positive,blue,2,k,None,,,,,,,,,0,168,168,168,,,,,,,,,,,,,,,,,,,,,,,,,,,,,,,,,,,,,main,k,k,1,0.8516375999997763,548.7515808999997,None,None,0,,,,,,,,,,,,,,224,24,Male,2022-05-25_10h48.55.666,Main,2022.1.1,59.99167315565334,
positive,red,2,None,None,,,,,,,,,0,169,169,169,,,,,,,,,,,,,,,,,,,,,,,,,,,,,,,,,,,,,main,None,None,1,1.5037732999999207,550.6051312999998,None,None,1,,,,,,,,,,,,,,224,24,Male,2022-05-25_10h48.55.666,Main,2022.1.1,59.99167315565334,
positive,red,1,None,None,,,,,,,,,0,170,170,170,,,,,,,,,,,,,,,,,,,,,,,,,,,,,,,,,,,,,main,None,None,1,1.4951850000002196,553.1129292999999,None,None,1,,,,,,,,,,,,,,224,24,Male,2022-05-25_10h48.55.666,Main,2022.1.1,59.99167315565334,
negative,blue,2,None,k,,,,,,,,,0,171,171,171,,,,,,,,,,,,,,,,,,,,,,,,,,,,,,,,,,,,,main,None,None,1,1.498681999999917,555.6076051999999,None,None,1,,,,,,,,,,,,,,224,24,Male,2022-05-25_10h48.55.666,Main,2022.1.1,59.99167315565334,
positive,blue,2,k,None,,,,,,,,,0,172,172,172,,,,,,,,,,,,,,,,,,,,,,,,,,,,,,,,,,,,,main,k,k,1,0.7441108000002714,558.1076763000001,None,None,0,,,,,,,,,,,,,,224,24,Male,2022-05-25_10h48.55.666,Main,2022.1.1,59.99167315565334,
negative,yellow,2,k,None,,,,,,,,,0,173,173,173,,,,,,,,,,,,,,,,,,,,,,,,,,,,,,,,,,,,,main,k,k,1,1.478808299999855,559.8555206000001,None,None,0,,,,,,,,,,,,,,224,24,Male,2022-05-25_10h48.55.666,Main,2022.1.1,59.99167315565334,
positive,yellow,2,None,k,,,,,,,,,0,174,174,174,,,,,,,,,,,,,,,,,,,,,,,,,,,,,,,,,,,,,main,None,None,1,1.5040186000001086,562.3371446000001,None,None,1,,,,,,,,,,,,,,224,24,Male,2022-05-25_10h48.55.666,Main,2022.1.1,59.99167315565334,
negative,blue,2,None,k,,,,,,,,,0,175,175,175,,,,,,,,,,,,,,,,,,,,,,,,,,,,,,,,,,,,,main,None,None,1,1.507528800000273,564.8446411999998,None,None,1,,,,,,,,,,,,,,224,24,Male,2022-05-25_10h48.55.666,Main,2022.1.1,59.99167315565334,
positive,blue,1,k,None,,,,,,,,,0,176,176,176,,,,,,,,,,,,,,,,,,,,,,,,,,,,,,,,,,,,,main,k,k,1,0.6515127999996366,567.3533831,None,None,0,,,,,,,,,,,,,,224,24,Male,2022-05-25_10h48.55.666,Main,2022.1.1,59.99167315565334,
positive,yellow,1,None,k,,,,,,,,,0,177,177,177,,,,,,,,,,,,,,,,,,,,,,,,,,,,,,,,,,,,,main,None,None,1,1.5043116000001646,569.0070532,None,None,1,,,,,,,,,,,,,,224,24,Male,2022-05-25_10h48.55.666,Main,2022.1.1,59.99167315565334,
positive,blue,1,k,None,,,,,,,,,0,178,178,178,,,,,,,,,,,,,,,,,,,,,,,,,,,,,,,,,,,,,main,k,k,1,1.524406700000327,571.5139386999999,None,None,0,,,,,,,,,,,,,,224,24,Male,2022-05-25_10h48.55.666,Main,2022.1.1,59.99167315565334,
positive,yellow,2,None,k,,,,,,,,,0,179,179,179,,,,,,,,,,,,,,,,,,,,,,,,,,,,,,,,,,,,,main,None,None,1,1.4890649000003577,575.0561674999999,None,None,1,,,,,,,,,,,,,,224,24,Male,2022-05-25_10h48.55.666,Main,2022.1.1,59.99167315565334,
positive,blue,1,k,None,,,,,,,,,0,180,180,180,,,,,,,,,,,,,,,,,,,,,,,,,,,,,,,,,,,,,main,k,k,1,1.012369800000215,577.5463253999997,None,None,0,,,,,,,,,,,,,,224,24,Male,2022-05-25_10h48.55.666,Main,2022.1.1,59.99167315565334,
negative,red,1,None,None,,,,,,,,,0,181,181,181,,,,,,,,,,,,,,,,,,,,,,,,,,,,,,,,,,,,,main,None,None,1,1.5084612000000561,579.5611951999999,None,None,1,,,,,,,,,,,,,,224,24,Male,2022-05-25_10h48.55.666,Main,2022.1.1,59.99167315565334,
negative,blue,1,None,k,,,,,,,,,0,182,182,182,,,,,,,,,,,,,,,,,,,,,,,,,,,,,,,,,,,,,main,None,None,1,1.5048760999998194,582.0700658000001,None,None,1,,,,,,,,,,,,,,224,24,Male,2022-05-25_10h48.55.666,Main,2022.1.1,59.99167315565334,
negative,yellow,2,k,None,,,,,,,,,0,183,183,183,,,,,,,,,,,,,,,,,,,,,,,,,,,,,,,,,,,,,main,k,k,1,1.210215000000062,584.5776645000001,None,None,0,,,,,,,,,,,,,,224,24,Male,2022-05-25_10h48.55.666,Main,2022.1.1,59.99167315565334,
positive,yellow,2,None,k,,,,,,,,,0,184,184,184,,,,,,,,,,,,,,,,,,,,,,,,,,,,,,,,,,,,,main,None,None,1,1.495796700000028,586.7894572,None,None,1,,,,,,,,,,,,,,224,24,Male,2022-05-25_10h48.55.666,Main,2022.1.1,59.99167315565334,
positive,yellow,1,None,k,,,,,,,,,0,185,185,185,,,,,,,,,,,,,,,,,,,,,,,,,,,,,,,,,,,,,main,None,None,1,1.4948215999997956,589.2845067999997,None,None,1,,,,,,,,,,,,,,224,24,Male,2022-05-25_10h48.55.666,Main,2022.1.1,59.99167315565334,
positive,red,2,None,None,,,,,,,,,0,186,186,186,,,,,,,,,,,,,,,,,,,,,,,,,,,,,,,,,,,,,main,None,None,1,1.5134172000002764,591.7831238999997,None,None,1,,,,,,,,,,,,,,224,24,Male,2022-05-25_10h48.55.666,Main,2022.1.1,59.99167315565334,
positive,blue,1,k,None,,,,,,,,,0,187,187,187,,,,,,,,,,,,,,,,,,,,,,,,,,,,,,,,,,,,,main,k,k,1,1.1892806000000746,594.3009383999997,None,None,0,,,,,,,,,,,,,,224,24,Male,2022-05-25_10h48.55.666,Main,2022.1.1,59.99167315565334,
negative,yellow,1,k,None,,,,,,,,,0,188,188,188,,,,,,,,,,,,,,,,,,,,,,,,,,,,,,,,,,,,,main,k,k,1,1.8515133000000787,596.4931173,None,None,0,,,,,,,,,,,,,,224,24,Male,2022-05-25_10h48.55.666,Main,2022.1.1,59.99167315565334,
positive,yellow,2,None,k,,,,,,,,,0,189,189,189,,,,,,,,,,,,,,,,,,,,,,,,,,,,,,,,,,,,,main,None,None,1,1.4929926000004343,600.3528717999998,None,None,1,,,,,,,,,,,,,,224,24,Male,2022-05-25_10h48.55.666,Main,2022.1.1,59.99167315565334,
negative,yellow,2,k,None,,,,,,,,,0,190,190,190,,,,,,,,,,,,,,,,,,,,,,,,,,,,,,,,,,,,,main,k,k,1,0.6873308999997789,602.8474785999997,None,None,0,,,,,,,,,,,,,,224,24,Male,2022-05-25_10h48.55.666,Main,2022.1.1,59.99167315565334,
negative,yellow,1,k,None,,,,,,,,,0,191,191,191,,,,,,,,,,,,,,,,,,,,,,,,,,,,,,,,,,,,,main,k,k,1,0.9008794999999736,604.5368057000001,None,None,0,,,,,,,,,,,,,,224,24,Male,2022-05-25_10h48.55.666,Main,2022.1.1,59.99167315565334,
positive,blue,2,k,None,,,,,,,,,0,192,192,192,,,,,,,,,,,,,,,,,,,,,,,,,,,,,,,,,,,,,main,k,k,1,0.7072385999999824,606.4375095999999,None,None,0,,,,,,,,,,,,,,224,24,Male,2022-05-25_10h48.55.666,Main,2022.1.1,59.99167315565334,
positive,yellow,1,None,k,,,,,,,,,0,193,193,193,,,,,,,,,,,,,,,,,,,,,,,,,,,,,,,,,,,,,main,None,None,1,1.5068640999998024,608.1488153999999,None,None,1,,,,,,,,,,,,,,224,24,Male,2022-05-25_10h48.55.666,Main,2022.1.1,59.99167315565334,
negative,red,2,None,None,,,,,,,,,0,194,194,194,,,,,,,,,,,,,,,,,,,,,,,,,,,,,,,,,,,,,main,None,None,1,1.4982955000000402,610.6587145999997,None,None,1,,,,,,,,,,,,,,224,24,Male,2022-05-25_10h48.55.666,Main,2022.1.1,59.99167315565334,
positive,red,1,None,None,,,,,,,,,0,195,195,195,,,,,,,,,,,,,,,,,,,,,,,,,,,,,,,,,,,,,main,None,None,1,1.508933700000398,613.1585845,None,None,1,,,,,,,,,,,,,,224,24,Male,2022-05-25_10h48.55.666,Main,2022.1.1,59.99167315565334,
negative,blue,1,None,k,,,,,,,,,0,196,196,196,,,,,,,,,,,,,,,,,,,,,,,,,,,,,,,,,,,,,main,None,None,1,1.5029026000001977,615.667117,None,None,1,,,,,,,,,,,,,,224,24,Male,2022-05-25_10h48.55.666,Main,2022.1.1,59.99167315565334,
positive,blue,2,k,None,,,,,,,,,0,197,197,197,,,,,,,,,,,,,,,,,,,,,,,,,,,,,,,,,,,,,main,k,k,1,0.7558505000001787,618.1738115999997,None,None,0,,,,,,,,,,,,,,224,24,Male,2022-05-25_10h48.55.666,Main,2022.1.1,59.99167315565334,
negative,blue,2,None,k,,,,,,,,,0,198,198,198,,,,,,,,,,,,,,,,,,,,,,,,,,,,,,,,,,,,,main,None,None,1,1.4995193999998264,619.9307690999999,None,None,1,,,,,,,,,,,,,,224,24,Male,2022-05-25_10h48.55.666,Main,2022.1.1,59.99167315565334,
negative,blue,2,None,k,,,,,,,,,0,199,199,199,,,,,,,,,,,,,,,,,,,,,,,,,,,,,,,,,,,,,main,None,None,1,1.4946467000004304,622.4319126999999,None,None,1,,,,,,,,,,,,,,224,24,Male,2022-05-25_10h48.55.666,Main,2022.1.1,59.99167315565334,
positive,blue,2,k,None,,,,,,,,,0,200,200,200,,,,,,,,,,,,,,,,,,,,,,,,,,,,,,,,,,,,,main,k,k,1,0.673229099999844,624.9296108999997,None,None,0,,,,,,,,,,,,,,224,24,Male,2022-05-25_10h48.55.666,Main,2022.1.1,59.99167315565334,
positive,blue,2,k,None,,,,,,,,,0,201,201,201,,,,,,,,,,,,,,,,,,,,,,,,,,,,,,,,,,,,,main,k,k,1,0.8400587000000996,626.6069898000001,None,None,0,,,,,,,,,,,,,,224,24,Male,2022-05-25_10h48.55.666,Main,2022.1.1,59.99167315565334,
negative,yellow,2,k,None,,,,,,,,,0,202,202,202,,,,,,,,,,,,,,,,,,,,,,,,,,,,,,,,,,,,,main,k,k,1,0.9675360999999612,628.4460076999999,None,None,0,,,,,,,,,,,,,,224,24,Male,2022-05-25_10h48.55.666,Main,2022.1.1,59.99167315565334,
positive,red,1,None,None,,,,,,,,,0,203,203,203,,,,,,,,,,,,,,,,,,,,,,,,,,,,,,,,,,,,,main,None,None,1,1.5046745000004194,630.4182947999998,None,None,1,,,,,,,,,,,,,,224,24,Male,2022-05-25_10h48.55.666,Main,2022.1.1,59.99167315565334,
negative,blue,2,None,k,,,,,,,,,0,204,204,204,,,,,,,,,,,,,,,,,,,,,,,,,,,,,,,,,,,,,main,None,None,1,1.5109230999996726,632.9237893,None,None,1,,,,,,,,,,,,,,224,24,Male,2022-05-25_10h48.55.666,Main,2022.1.1,59.99167315565334,
negative,red,1,None,None,,,,,,,,,0,205,205,205,,,,,,,,,,,,,,,,,,,,,,,,,,,,,,,,,,,,,main,None,None,1,1.4954065999995692,635.4365395,None,None,1,,,,,,,,,,,,,,224,24,Male,2022-05-25_10h48.55.666,Main,2022.1.1,59.99167315565334,
negative,blue,2,None,k,,,,,,,,,0,206,206,206,,,,,,,,,,,,,,,,,,,,,,,,,,,,,,,,,,,,,main,None,None,1,1.497555899999952,637.931306,None,None,1,,,,,,,,,,,,,,224,24,Male,2022-05-25_10h48.55.666,Main,2022.1.1,59.99167315565334,
negative,yellow,2,k,None,,,,,,,,,0,207,207,207,,,,,,,,,,,,,,,,,,,,,,,,,,,,,,,,,,,,,main,k,k,1,0.8438577000001715,640.4305184,None,None,0,,,,,,,,,,,,,,224,24,Male,2022-05-25_10h48.55.666,Main,2022.1.1,59.99167315565334,
positive,yellow,2,None,k,,,,,,,,,0,208,208,208,,,,,,,,,,,,,,,,,,,,,,,,,,,,,,,,,,,,,main,None,None,1,1.5050975999997718,642.2776043999997,None,None,1,,,,,,,,,,,,,,224,24,Male,2022-05-25_10h48.55.666,Main,2022.1.1,59.99167315565334,
negative,yellow,1,k,None,,,,,,,,,0,209,209,209,,,,,,,,,,,,,,,,,,,,,,,,,,,,,,,,,,,,,main,k,k,1,1.014350099999774,644.7859165999998,None,None,0,,,,,,,,,,,,,,224,24,Male,2022-05-25_10h48.55.666,Main,2022.1.1,59.99167315565334,
negative,red,2,None,None,,,,,,,,,0,210,210,210,,,,,,,,,,,,,,,,,,,,,,,,,,,,,,,,,,,,,main,None,None,1,1.5095798000002105,646.8015743999999,None,None,1,,,,,,,,,,,,,,224,24,Male,2022-05-25_10h48.55.666,Main,2022.1.1,59.99167315565334,
negative,blue,1,None,k,,,,,,,,,0,211,211,211,,,,,,,,,,,,,,,,,,,,,,,,,,,,,,,,,,,,,main,None,None,1,1.5173945999999887,649.3109992,None,None,1,,,,,,,,,,,,,,224,24,Male,2022-05-25_10h48.55.666,Main,2022.1.1,59.99167315565334,
negative,yellow,1,k,None,,,,,,,,,0,212,212,212,,,,,,,,,,,,,,,,,,,,,,,,,,,,,,,,,,,,,main,k,k,1,0.9166823999998996,651.8316068999998,None,None,0,,,,,,,,,,,,,,224,24,Male,2022-05-25_10h48.55.666,Main,2022.1.1,59.99167315565334,
positive,blue,1,k,None,,,,,,,,,0,213,213,213,,,,,,,,,,,,,,,,,,,,,,,,,,,,,,,,,,,,,main,k,k,1,0.9315723999998227,653.7506708999999,None,None,0,,,,,,,,,,,,,,224,24,Male,2022-05-25_10h48.55.666,Main,2022.1.1,59.99167315565334,
positive,blue,1,k,None,,,,,,,,,0,214,214,214,,,,,,,,,,,,,,,,,,,,,,,,,,,,,,,,,,,,,main,k,k,1,0.7035178000000997,655.6831198999998,None,None,0,,,,,,,,,,,,,,224,24,Male,2022-05-25_10h48.55.666,Main,2022.1.1,59.99167315565334,
positive,yellow,1,None,k,,,,,,,,,0,215,215,215,,,,,,,,,,,,,,,,,,,,,,,,,,,,,,,,,,,,,main,None,None,1,1.5012335999999777,657.3877908,None,None,1,,,,,,,,,,,,,,224,24,Male,2022-05-25_10h48.55.666,Main,2022.1.1,59.99167315565334,
positive,yellow,1,None,k,,,,,,,,,0,216,216,216,,,,,,,,,,,,,,,,,,,,,,,,,,,,,,,,,,,,,main,None,None,1,1.4954792999997153,659.8900644,None,None,1,,,,,,,,,,,,,,224,24,Male,2022-05-25_10h48.55.666,Main,2022.1.1,59.99167315565334,
positive,yellow,2,None,k,,,,,,,,,0,217,217,217,,,,,,,,,,,,,,,,,,,,,,,,,,,,,,,,,,,,,main,None,None,1,1.4960227000001396,662.3879093999999,None,None,1,,,,,,,,,,,,,,224,24,Male,2022-05-25_10h48.55.666,Main,2022.1.1,59.99167315565334,
negative,blue,1,None,k,,,,,,,,,0,218,218,218,,,,,,,,,,,,,,,,,,,,,,,,,,,,,,,,,,,,,main,None,None,1,1.5080966999998964,664.88528,None,None,1,,,,,,,,,,,,,,224,24,Male,2022-05-25_10h48.55.666,Main,2022.1.1,59.99167315565334,
positive,red,2,None,None,,,,,,,,,0,219,219,219,,,,,,,,,,,,,,,,,,,,,,,,,,,,,,,,,,,,,main,None,None,1,1.509614000000056,667.3937341000001,None,None,1,,,,,,,,,,,,,,224,24,Male,2022-05-25_10h48.55.666,Main,2022.1.1,59.99167315565334,
positive,yellow,1,None,k,,,,,,,,,0,220,220,220,,,,,,,,,,,,,,,,,,,,,,,,,,,,,,,,,,,,,main,None,None,1,1.5110767999999553,669.9060476999998,None,None,1,,,,,,,,,,,,,,224,24,Male,2022-05-25_10h48.55.666,Main,2022.1.1,59.99167315565334,
positive,blue,1,k,None,,,,,,,,,0,221,221,221,,,,,,,,,,,,,,,,,,,,,,,,,,,,,,,,,,,,,main,k,k,1,1.0332343999998557,672.4210994,None,None,0,,,,,,,,,,,,,,224,24,Male,2022-05-25_10h48.55.666,Main,2022.1.1,59.99167315565334,
positive,yellow,2,None,k,,,,,,,,,0,222,222,222,,,,,,,,,,,,,,,,,,,,,,,,,,,,,,,,,,,,,main,None,None,1,1.5029856999999538,674.4556947000001,None,None,1,,,,,,,,,,,,,,224,24,Male,2022-05-25_10h48.55.666,Main,2022.1.1,59.99167315565334,
negative,yellow,1,k,None,,,,,,,,,0,223,223,223,,,,,,,,,,,,,,,,,,,,,,,,,,,,,,,,,,,,,main,k,k,1,0.8317165000003115,676.9593096999997,None,None,0,,,,,,,,,,,,,,224,24,Male,2022-05-25_10h48.55.666,Main,2022.1.1,59.99167315565334,
positive,yellow,2,None,k,,,,,,,,,0,224,224,224,,,,,,,,,,,,,,,,,,,,,,,,,,,,,,,,,,,,,main,None,None,1,1.5037781000000905,678.7954586000001,None,None,1,,,,,,,,,,,,,,224,24,Male,2022-05-25_10h48.55.666,Main,2022.1.1,59.99167315565334,
negative,yellow,2,k,None,,,,,,,,,0,225,225,225,,,,,,,,,,,,,,,,,,,,,,,,,,,,,,,,,,,,,main,k,k,1,0.7500823999998829,681.3019549,None,None,0,,,,,,,,,,,,,,224,24,Male,2022-05-25_10h48.55.666,Main,2022.1.1,59.99167315565334,
negative,blue,2,None,k,,,,,,,,,0,226,226,226,,,,,,,,,,,,,,,,,,,,,,,,,,,,,,,,,,,,,main,None,None,1,1.5049189999999726,683.0531215000001,None,None,1,,,,,,,,,,,,,,224,24,Male,2022-05-25_10h48.55.666,Main,2022.1.1,59.99167315565334,
positive,red,2,None,None,,,,,,,,,0,227,227,227,,,,,,,,,,,,,,,,,,,,,,,,,,,,,,,,,,,,,main,None,None,1,1.4979628999999477,685.5581979999997,None,None,1,,,,,,,,,,,,,,224,24,Male,2022-05-25_10h48.55.666,Main,2022.1.1,59.99167315565334,
positive,blue,2,k,None,,,,,,,,,0,228,228,228,,,,,,,,,,,,,,,,,,,,,,,,,,,,,,,,,,,,,main,k,k,1,1.0159135999997488,688.0574898,None,None,0,,,,,,,,,,,,,,224,24,Male,2022-05-25_10h48.55.666,Main,2022.1.1,59.99167315565334,
negative,blue,1,None,k,,,,,,,,,0,229,229,229,,,,,,,,,,,,,,,,,,,,,,,,,,,,,,,,,,,,,main,None,k,0,0.8675599000002876,690.0764795999999,None,None,1,,,,,,,,,,,,,,224,24,Male,2022-05-25_10h48.55.666,Main,2022.1.1,59.99167315565334,
positive,yellow,1,None,k,,,,,,,,,0,230,230,230,,,,,,,,,,,,,,,,,,,,,,,,,,,,,,,,,,,,,main,None,None,1,1.4943421000002672,692.9575826,None,None,1,,,,,,,,,,,,,,224,24,Male,2022-05-25_10h48.55.666,Main,2022.1.1,59.99167315565334,
negative,blue,2,None,k,,,,,,,,,0,231,231,231,,,,,,,,,,,,,,,,,,,,,,,,,,,,,,,,,,,,,main,None,None,1,1.5051901000001635,695.4536656999999,None,None,1,,,,,,,,,,,,,,224,24,Male,2022-05-25_10h48.55.666,Main,2022.1.1,59.99167315565334,
negative,red,1,None,None,,,,,,,,,0,232,232,232,,,,,,,,,,,,,,,,,,,,,,,,,,,,,,,,,,,,,main,None,None,1,1.503173600000082,697.9627765999999,None,None,1,,,,,,,,,,,,,,224,24,Male,2022-05-25_10h48.55.666,Main,2022.1.1,59.99167315565334,
positive,blue,2,k,None,,,,,,,,,0,233,233,233,,,,,,,,,,,,,,,,,,,,,,,,,,,,,,,,,,,,,main,k,k,1,0.9347496999998839,700.4669211999999,None,None,0,,,,,,,,,,,,,,224,24,Male,2022-05-25_10h48.55.666,Main,2022.1.1,59.99167315565334,
negative,yellow,1,k,None,,,,,,,,,0,234,234,234,,,,,,,,,,,,,,,,,,,,,,,,,,,,,,,,,,,,,main,k,k,1,0.7505725000000893,702.4027702999997,None,None,0,,,,,,,,,,,,,,224,24,Male,2022-05-25_10h48.55.666,Main,2022.1.1,59.99167315565334,
negative,yellow,2,k,None,,,,,,,,,0,235,235,235,,,,,,,,,,,,,,,,,,,,,,,,,,,,,,,,,,,,,main,k,k,1,0.7929148000002897,704.1548414999997,None,None,0,,,,,,,,,,,,,,224,24,Male,2022-05-25_10h48.55.666,Main,2022.1.1,59.99167315565334,
positive,red,1,None,None,,,,,,,,,0,236,236,236,,,,,,,,,,,,,,,,,,,,,,,,,,,,,,,,,,,,,main,None,None,1,1.5128718999999364,705.9539126999998,None,None,1,,,,,,,,,,,,,,224,24,Male,2022-05-25_10h48.55.666,Main,2022.1.1,59.99167315565334,
negative,red,2,None,None,,,,,,,,,0,237,237,237,,,,,,,,,,,,,,,,,,,,,,,,,,,,,,,,,,,,,main,None,None,1,1.5084701999999197,708.4675696999998,None,None,1,,,,,,,,,,,,,,224,24,Male,2022-05-25_10h48.55.666,Main,2022.1.1,59.99167315565334,
negative,blue,1,None,k,,,,,,,,,0,238,238,238,,,,,,,,,,,,,,,,,,,,,,,,,,,,,,,,,,,,,main,None,None,1,1.5082351000000926,710.9777344999998,None,None,1,,,,,,,,,,,,,,224,24,Male,2022-05-25_10h48.55.666,Main,2022.1.1,59.99167315565334,
positive,blue,1,k,None,,,,,,,,,0,239,239,239,,,,,,,,,,,,,,,,,,,,,,,,,,,,,,,,,,,,,main,k,k,1,0.7427615999999944,713.4850939999997,None,None,0,,,,,,,,,,,,,,224,24,Male,2022-05-25_10h48.55.666,Main,2022.1.1,59.99167315565334,
,,,,,,,,,,,,,,,,,,,,,,,,,,,,,,,,,,,,,,,,,,,,,,,,,,,,,,,,,,,,,,,,,,,,,,,,,715.2209782,None,,,,,,,,
