distractor,target,set,ans1,ans2,rep_loop4.thisRepN,rep_loop4.thisTrialN,rep_loop4.thisN,rep_loop4.thisIndex,st2_prac_loop.thisRepN,st2_prac_loop.thisTrialN,st2_prac_loop.thisN,st2_prac_loop.thisIndex,st2_main_loop.thisRepN,st2_main_loop.thisTrialN,st2_main_loop.thisN,st2_main_loop.thisIndex,image_4.started,image_4.stopped,mouse_7.x,mouse_7.y,mouse_7.leftButton,mouse_7.midButton,mouse_7.rightButton,sound_2.started,sound_2.stopped,key_resp_3.keys,mouse_5.x,mouse_5.y,mouse_5.leftButton,mouse_5.midButton,mouse_5.rightButton,mouse_5.started,mouse_5.stopped,yes_text2.started,yes_text2.stopped,no_text2.started,no_text2.stopped,mouse_3.x,mouse_3.y,mouse_3.leftButton,mouse_3.midButton,mouse_3.rightButton,mouse_3.started,mouse_3.stopped,st_prac_back.started,st_prac_back.stopped,st_prac_text.started,st_prac_text.stopped,st_fix_back.started,st_fix_back.stopped,st_fix_2.started,st_fix_2.stopped,main_prac,st_ans,st_res,st_corr,st_rt,st_back.started,st_back.stopped,st2_resp.keys,st2_resp.corr,st_main_back.started,st_main_back.stopped,st_main_text.started,st_main_text.stopped,mouse_4.x,mouse_4.y,mouse_4.leftButton,mouse_4.midButton,mouse_4.rightButton,mouse_4.started,mouse_4.stopped,text_2.started,text_2.stopped,id*,age*,gender*,date,expName,psychopyVersion,frameRate,
,,,,,,,,,,,,,,,,,31.620398300001398,None,0.044444446,-0.0018518518,0,0,0,,,,,,,,,,,,,,,,,,,,,,,,,,,,,,,,,,,,,,,,,,,,,,,,,,,,225,24,Female,2022-05-25_17h56.03.146,Main,2022.1.1,60.188389658594666,
negative,yellow,1,k,None,,,,,0,0,0,0,,,,,,,,,,,,37.56214321999941,None,None,0.04074074,-0.40833333,0,0,0,1.0100064799989923,None,91.57231930000125,None,91.57231930000125,None,-0.094444446,-0.07777778,0,0,0,0.012821319996874081,None,94.4969525000015,None,94.4969525000015,None,96.50530499999877,None,96.50530499999877,None,prac,None,None,1,1.5082101000007242,98.53004119999969,None,None,1,,,,,,,,,,,,,,225,24,Female,2022-05-25_17h56.03.146,Main,2022.1.1,60.188389658594666,
positive,red,2,None,None,,,,,0,1,1,1,,,,,,,,,,,,,,,,,,,,,,,,,,,,,,,,,,,,,,,,,prac,None,k,0,1.416708099997777,101.02922749999925,None,None,1,,,,,,,,,,,,,,225,24,Female,2022-05-25_17h56.03.146,Main,2022.1.1,60.188389658594666,
negative,blue,2,None,k,,,,,0,2,2,2,,,,,,,,,,,,,,,,,,,,,,,,,,,,,,,,,,,,,,,,,prac,k,k,1,0.9391752000010456,104.4800608000005,None,None,0,,,,,,,,,,,,,,225,24,Female,2022-05-25_17h56.03.146,Main,2022.1.1,60.188389658594666,
positive,yellow,1,None,k,,,,,0,3,3,3,,,,,,,,,,,,,,,,,,,,,,,,,,,,,,,,,,,,,,,,,prac,k,k,1,5.086589099999401,106.41824669999914,None,None,0,,,,,,,,,,,,,,225,24,Female,2022-05-25_17h56.03.146,Main,2022.1.1,60.188389658594666,
negative,blue,2,None,k,,,,,0,4,4,4,,,,,,,,,,,,,,,,,,,,,,,,,,,,,,,,,,,,,,,,,prac,k,k,1,3.076627599999483,113.52818280000065,None,None,0,,,,,,,,,,,,,,225,24,Female,2022-05-25_17h56.03.146,Main,2022.1.1,60.188389658594666,
negative,blue,1,None,k,,,,,0,5,5,5,,,,,,,,,,,,,,,,,,,,,,,,,,,,,,,,,,,,,,,,,prac,k,k,1,1.215127700001176,118.61105780000071,None,None,0,,,,,,,,,,,,,,225,24,Female,2022-05-25_17h56.03.146,Main,2022.1.1,60.188389658594666,
negative,yellow,2,k,None,,,,,0,6,6,6,,,,,,,,,,,,,,,,,,,,,,,,,,,,,,,,,,,,,,,,,prac,None,k,0,1.4873977999995986,120.82192470000155,None,None,1,,,,,,,,,,,,,,225,24,Female,2022-05-25_17h56.03.146,Main,2022.1.1,60.188389658594666,
negative,red,1,None,None,,,,,0,7,7,7,,,,,,,,,,,,,,,,,,,,,,,,,,,,,,,,,,,,,,,,,prac,None,None,1,1.49266020000141,124.32106299999941,None,None,1,,,,,,,,,,,,,,225,24,Female,2022-05-25_17h56.03.146,Main,2022.1.1,60.188389658594666,
positive,yellow,2,None,k,,,,,0,8,8,8,,,,,,,,,,,,,,,,,,,,,,,,,,,,,,,,,,,,,,,,,prac,k,k,1,1.7081242999993265,126.82156939999913,None,None,0,,,,,,,,,,,,,,225,24,Female,2022-05-25_17h56.03.146,Main,2022.1.1,60.188389658594666,
negative,yellow,1,k,None,,,,,0,9,9,9,,,,,,,,,,,,,,,,,,,,,,,,,,,,,,,,,,,,,,,,,prac,None,None,1,1.5015605000007781,130.53735379999853,None,None,1,,,,,,,,,,,,,,225,24,Female,2022-05-25_17h56.03.146,Main,2022.1.1,60.188389658594666,
positive,yellow,2,None,k,,,,,0,10,10,10,,,,,,,,,,,,,,,,,,,,,,,,,,,,,,,,,,,,,,,,,prac,k,k,1,1.1952242999977898,133.041266799999,None,None,0,,,,,,,,,,,,,,225,24,Female,2022-05-25_17h56.03.146,Main,2022.1.1,60.188389658594666,
negative,yellow,2,k,None,,,,,0,11,11,11,,,,,,,,,,,,,,,,,,,,,,,,,,,,,,,,,,,,,,,,,prac,None,None,1,1.513932300000306,135.23541599999953,None,None,1,,,,,,,,,,,,,,225,24,Female,2022-05-25_17h56.03.146,Main,2022.1.1,60.188389658594666,
negative,red,2,None,None,,,,,0,12,12,12,,,,,,,,,,,,,,,,,,,,,,,,,,,,,,,,,,,,,,,,,prac,None,None,1,1.4976385000009032,137.75013480000052,None,None,1,,,,,,,,,,,,,,225,24,Female,2022-05-25_17h56.03.146,Main,2022.1.1,60.188389658594666,
positive,red,1,None,None,,,,,0,13,13,13,,,,,,,,,,,,,,,,,,,,,,,,,,,,,,,,,,,,,,,,,prac,None,k,0,1.5039235000003828,140.25017410000146,None,None,1,,,,,,,,,,,,,,225,24,Female,2022-05-25_17h56.03.146,Main,2022.1.1,60.188389658594666,
positive,blue,2,k,None,,,,,0,14,14,14,,,,,,,,,,,,,,,,,,,,,,,,,,,,,,,,,,,,,,,,,prac,None,None,1,1.5070016999998188,143.7688272000014,None,None,1,,,,,,,,,,,,,,225,24,Female,2022-05-25_17h56.03.146,Main,2022.1.1,60.188389658594666,
positive,blue,1,k,None,,,,,0,15,15,15,,,,,,,,,,,,,,,,,,,,,,,,,,,,,,,,,,,,,,,,,prac,None,None,1,1.5048754000017652,146.27604749999955,None,None,1,,,,,,,,,,,,,,225,24,Female,2022-05-25_17h56.03.146,Main,2022.1.1,60.188389658594666,
negative,blue,1,None,k,,,,,0,16,16,16,,,,,,,,,,,,,,,,,,,,,,,,,,,,,,,,,,,,,,,,,prac,k,k,1,4.384358499999507,148.78004510000028,None,None,0,,,,,,,,,,,,,,225,24,Female,2022-05-25_17h56.03.146,Main,2022.1.1,60.188389658594666,
positive,blue,2,k,None,,,,,0,17,17,17,,,,,,,,,,,,,,,,,,,,,,,,,,,,,,,,,,,,,,,,,prac,None,None,1,1.5065794000001915,155.18379110000024,None,None,1,,,,,,,,,,,,,,225,24,Female,2022-05-25_17h56.03.146,Main,2022.1.1,60.188389658594666,
positive,blue,1,k,None,,,,,0,18,18,18,,,,,,,,,,,,,,,,,,,,,,,,,,,,,,,,,,,,,,,,,prac,None,None,1,1.505345400000806,157.69162069999948,None,None,1,,,,,,,,,,,,,,225,24,Female,2022-05-25_17h56.03.146,Main,2022.1.1,60.188389658594666,
positive,yellow,1,None,k,,,,,0,19,19,19,,,,,,,,,,,,,,,,,,,,,,,,,,,,,,,,,,,,,,,,,prac,k,k,1,1.1984152000004542,160.19587749999846,None,None,0,,,,,,,,,,,,,,225,24,Female,2022-05-25_17h56.03.146,Main,2022.1.1,60.188389658594666,
negative,yellow,1,k,None,,,,,1,0,20,0,,,,,,,,,,,,,,,,,,,,,,,,,,,,,,,,,,,,,,,,,prac,None,None,1,1.5145617999987735,162.39555779999864,None,None,1,,,,,,,,,,,,,,225,24,Female,2022-05-25_17h56.03.146,Main,2022.1.1,60.188389658594666,
positive,red,2,None,None,,,,,1,1,21,1,,,,,,,,,,,,,,,,,,,,,,,,,,,,,,,,,,,,,,,,,prac,None,None,1,1.514427899997827,164.91204129999824,None,None,1,,,,,,,,,,,,,,225,24,Female,2022-05-25_17h56.03.146,Main,2022.1.1,60.188389658594666,
negative,blue,2,None,k,,,,,1,2,22,2,,,,,,,,,,,,,,,,,,,,,,,,,,,,,,,,,,,,,,,,,prac,k,k,1,1.6325082999974256,167.42820230000143,None,None,0,,,,,,,,,,,,,,225,24,Female,2022-05-25_17h56.03.146,Main,2022.1.1,60.188389658594666,
positive,yellow,1,None,k,,,,,1,3,23,3,,,,,,,,,,,,,,,,,,,,,,,,,,,,,,,,,,,,,,,,,prac,k,k,1,1.2654153000003134,171.0652321000016,None,None,0,,,,,,,,,,,,,,225,24,Female,2022-05-25_17h56.03.146,Main,2022.1.1,60.188389658594666,
negative,blue,2,None,k,,,,,1,4,24,4,,,,,,,,,,,,,,,,,,,,,,,,,,,,,,,,,,,,,,,,,prac,k,k,1,1.5667150000008405,173.33248509999976,None,None,0,,,,,,,,,,,,,,225,24,Female,2022-05-25_17h56.03.146,Main,2022.1.1,60.188389658594666,
negative,blue,1,None,k,,,,,1,5,25,5,,,,,,,,,,,,,,,,,,,,,,,,,,,,,,,,,,,,,,,,,prac,k,k,1,1.6488185999987763,176.91463369999838,None,None,0,,,,,,,,,,,,,,225,24,Female,2022-05-25_17h56.03.146,Main,2022.1.1,60.188389658594666,
negative,yellow,2,k,None,,,,,1,6,26,6,,,,,,,,,,,,,,,,,,,,,,,,,,,,,,,,,,,,,,,,,prac,None,None,1,1.4989669999995385,180.56396210000094,None,None,1,,,,,,,,,,,,,,225,24,Female,2022-05-25_17h56.03.146,Main,2022.1.1,60.188389658594666,
negative,red,1,None,None,,,,,1,7,27,7,,,,,,,,,,,,,,,,,,,,,,,,,,,,,,,,,,,,,,,,,prac,None,None,1,1.512921900000947,183.0618656000006,None,None,1,,,,,,,,,,,,,,225,24,Female,2022-05-25_17h56.03.146,Main,2022.1.1,60.188389658594666,
positive,yellow,2,None,k,,,,,1,8,28,8,,,,,,,,,,,,,,,,,,,,,,,,,,,,,,,,,,,,,,,,,prac,k,k,1,0.8546845999990182,185.57963530000052,None,None,0,,,,,,,,,,,,,,225,24,Female,2022-05-25_17h56.03.146,Main,2022.1.1,60.188389658594666,
negative,yellow,1,k,None,,,,,1,9,29,9,,,,,,,,,,,,,,,,,,,,,,,,,,,,,,,,,,,,,,,,,prac,None,None,1,1.5089970999979414,187.43590680000125,None,None,1,,,,,,,,,,,,,,225,24,Female,2022-05-25_17h56.03.146,Main,2022.1.1,60.188389658594666,
positive,yellow,2,None,k,,,,,1,10,30,10,,,,,,,,,,,,,,,,,,,,,,,,,,,,,,,,,,,,,,,,,prac,k,k,1,1.5473286999986158,189.9423973999983,None,None,0,,,,,,,,,,,,,,225,24,Female,2022-05-25_17h56.03.146,Main,2022.1.1,60.188389658594666,
negative,yellow,2,k,None,,,,,1,11,31,11,,,,,,,,,,,,,,,,,,,,,,,,,,,,,,,,,,,,,,,,,prac,None,None,1,1.4969769999988785,193.49569020000126,None,None,1,,,,,,,,,,,,,,225,24,Female,2022-05-25_17h56.03.146,Main,2022.1.1,60.188389658594666,
negative,red,2,None,None,,,,,1,12,32,12,,,,,,,,,,,,,,,,,,,,,,,,,,,,,,,,,,,,,,,,,prac,None,None,1,1.507789600000251,195.99470940000174,None,None,1,,,,,,,,,,,,,,225,24,Female,2022-05-25_17h56.03.146,Main,2022.1.1,60.188389658594666,
positive,red,1,None,None,,,,,1,13,33,13,,,,,,,,,,,,,,,,,,,,,,,,,,,,,,,,,,,,,,,,,prac,None,None,1,1.5005928999999014,198.50187379999988,None,None,1,,,,,,,,,,,,,,225,24,Female,2022-05-25_17h56.03.146,Main,2022.1.1,60.188389658594666,
positive,blue,2,k,None,,,,,1,14,34,14,,,,,,,,,,,,,,,,,,,,,,,,,,,,,,,,,,,,,,,,,prac,None,None,1,1.5011250999996264,201.004377199999,None,None,1,,,,,,,,,,,,,,225,24,Female,2022-05-25_17h56.03.146,Main,2022.1.1,60.188389658594666,
positive,blue,1,k,None,,,,,1,15,35,15,,,,,,,,,,,,,,,,,,,,,,,,,,,,,,,,,,,,,,,,,prac,None,None,1,1.4997703000008187,203.50990770000135,None,None,1,,,,,,,,,,,,,,225,24,Female,2022-05-25_17h56.03.146,Main,2022.1.1,60.188389658594666,
negative,blue,1,None,k,,,,,1,16,36,16,,,,,,,,,,,,,,,,,,,,,,,,,,,,,,,,,,,,,,,,,prac,k,k,1,1.2475346999999601,206.01195430000007,None,None,0,,,,,,,,,,,,,,225,24,Female,2022-05-25_17h56.03.146,Main,2022.1.1,60.188389658594666,
positive,blue,2,k,None,,,,,1,17,37,17,,,,,,,,,,,,,,,,,,,,,,,,,,,,,,,,,,,,,,,,,prac,None,None,1,1.5068815999984508,208.26152219999858,None,None,1,,,,,,,,,,,,,,225,24,Female,2022-05-25_17h56.03.146,Main,2022.1.1,60.188389658594666,
positive,blue,1,k,None,,,,,1,18,38,18,,,,,,,,,,,,,,,,,,,,,,,,,,,,,,,,,,,,,,,,,prac,None,None,1,1.506846799999039,210.76734059999944,None,None,1,,,,,,,,,,,,,,225,24,Female,2022-05-25_17h56.03.146,Main,2022.1.1,60.188389658594666,
positive,yellow,1,None,k,,,,,1,19,39,19,,,,,,,,,,,,,,,,,,,,,,,,,,,,,,,,,,,,,,,,,prac,k,k,1,1.1913176999987627,213.27405559999897,None,None,0,,,,,,,,,,,,,,225,24,Female,2022-05-25_17h56.03.146,Main,2022.1.1,60.188389658594666,
,,,,,,,,,,,,,,,,,,,,,,,,,,,,,,,,,,,,,,,,,,,,,,,,,,,,,,,,,,,,,,215.48235130000103,None,215.48235130000103,None,0.014814815,-0.025925925,0,0,0,0.011643020003248239,None,,,225,24,Female,2022-05-25_17h56.03.146,Main,2022.1.1,60.188389658594666,
negative,yellow,2,k,None,,,,,,,,,0,0,0,0,,,,,,,,,,,,,,,,,,,,,,,,,,,,,,,,,217.87702200000058,None,217.87702200000058,None,main,None,None,1,1.5196599999981117,219.9374416999999,None,None,1,,,,,,,,,,,,,,225,24,Female,2022-05-25_17h56.03.146,Main,2022.1.1,60.188389658594666,
positive,red,1,None,None,,,,,,,,,0,1,1,1,,,,,,,,,,,,,,,,,,,,,,,,,,,,,,,,,,,,,main,None,None,1,1.5104219999993802,222.46383010000136,None,None,1,,,,,,,,,,,,,,225,24,Female,2022-05-25_17h56.03.146,Main,2022.1.1,60.188389658594666,
positive,blue,2,k,None,,,,,,,,,0,2,2,2,,,,,,,,,,,,,,,,,,,,,,,,,,,,,,,,,,,,,main,None,None,1,1.503552199999831,224.97061269999904,None,None,1,,,,,,,,,,,,,,225,24,Female,2022-05-25_17h56.03.146,Main,2022.1.1,60.188389658594666,
positive,blue,1,k,None,,,,,,,,,0,3,3,3,,,,,,,,,,,,,,,,,,,,,,,,,,,,,,,,,,,,,main,None,None,1,1.4994871000017156,227.4800275000016,None,None,1,,,,,,,,,,,,,,225,24,Female,2022-05-25_17h56.03.146,Main,2022.1.1,60.188389658594666,
negative,yellow,2,k,None,,,,,,,,,0,4,4,4,,,,,,,,,,,,,,,,,,,,,,,,,,,,,,,,,,,,,main,None,None,1,1.498164299999189,229.98013759999958,None,None,1,,,,,,,,,,,,,,225,24,Female,2022-05-25_17h56.03.146,Main,2022.1.1,60.188389658594666,
positive,yellow,2,None,k,,,,,,,,,0,5,5,5,,,,,,,,,,,,,,,,,,,,,,,,,,,,,,,,,,,,,main,k,k,1,0.900795300000027,232.47992879999947,None,None,0,,,,,,,,,,,,,,225,24,Female,2022-05-25_17h56.03.146,Main,2022.1.1,60.188389658594666,
negative,blue,2,None,k,,,,,,,,,0,6,6,6,,,,,,,,,,,,,,,,,,,,,,,,,,,,,,,,,,,,,main,k,k,1,1.2558675000000221,234.38120770000023,None,None,0,,,,,,,,,,,,,,225,24,Female,2022-05-25_17h56.03.146,Main,2022.1.1,60.188389658594666,
positive,red,2,None,None,,,,,,,,,0,7,7,7,,,,,,,,,,,,,,,,,,,,,,,,,,,,,,,,,,,,,main,None,None,1,1.5048796000010043,236.63575729999866,None,None,1,,,,,,,,,,,,,,225,24,Female,2022-05-25_17h56.03.146,Main,2022.1.1,60.188389658594666,
positive,yellow,1,None,k,,,,,,,,,0,8,8,8,,,,,,,,,,,,,,,,,,,,,,,,,,,,,,,,,,,,,main,k,k,1,0.8277486999977555,239.14657179999995,None,None,0,,,,,,,,,,,,,,225,24,Female,2022-05-25_17h56.03.146,Main,2022.1.1,60.188389658594666,
negative,red,1,None,None,,,,,,,,,0,9,9,9,,,,,,,,,,,,,,,,,,,,,,,,,,,,,,,,,,,,,main,None,None,1,1.4996727999969153,240.97566070000175,None,None,1,,,,,,,,,,,,,,225,24,Female,2022-05-25_17h56.03.146,Main,2022.1.1,60.188389658594666,
positive,yellow,1,None,k,,,,,,,,,0,10,10,10,,,,,,,,,,,,,,,,,,,,,,,,,,,,,,,,,,,,,main,k,k,1,1.129184900000837,243.47669849999875,None,None,0,,,,,,,,,,,,,,225,24,Female,2022-05-25_17h56.03.146,Main,2022.1.1,60.188389658594666,
negative,yellow,1,k,None,,,,,,,,,0,11,11,11,,,,,,,,,,,,,,,,,,,,,,,,,,,,,,,,,,,,,main,None,None,1,1.5079458000000159,245.60666639999909,None,None,1,,,,,,,,,,,,,,225,24,Female,2022-05-25_17h56.03.146,Main,2022.1.1,60.188389658594666,
negative,yellow,1,k,None,,,,,,,,,0,12,12,12,,,,,,,,,,,,,,,,,,,,,,,,,,,,,,,,,,,,,main,None,None,1,1.5060503000022436,248.11521390000053,None,None,1,,,,,,,,,,,,,,225,24,Female,2022-05-25_17h56.03.146,Main,2022.1.1,60.188389658594666,
negative,red,2,None,None,,,,,,,,,0,13,13,13,,,,,,,,,,,,,,,,,,,,,,,,,,,,,,,,,,,,,main,None,None,1,1.500307400001475,250.62518959999943,None,None,1,,,,,,,,,,,,,,225,24,Female,2022-05-25_17h56.03.146,Main,2022.1.1,60.188389658594666,
positive,yellow,2,None,k,,,,,,,,,0,14,14,14,,,,,,,,,,,,,,,,,,,,,,,,,,,,,,,,,,,,,main,k,k,1,1.9099029999997583,253.12717780000094,None,None,0,,,,,,,,,,,,,,225,24,Female,2022-05-25_17h56.03.146,Main,2022.1.1,60.188389658594666,
positive,blue,1,k,None,,,,,,,,,0,15,15,15,,,,,,,,,,,,,,,,,,,,,,,,,,,,,,,,,,,,,main,None,None,1,1.4899428000026091,257.0544717999983,None,None,1,,,,,,,,,,,,,,225,24,Female,2022-05-25_17h56.03.146,Main,2022.1.1,60.188389658594666,
negative,blue,1,None,k,,,,,,,,,0,16,16,16,,,,,,,,,,,,,,,,,,,,,,,,,,,,,,,,,,,,,main,k,k,1,1.2084961000000476,259.54512310000064,None,None,0,,,,,,,,,,,,,,225,24,Female,2022-05-25_17h56.03.146,Main,2022.1.1,60.188389658594666,
positive,blue,2,k,None,,,,,,,,,0,17,17,17,,,,,,,,,,,,,,,,,,,,,,,,,,,,,,,,,,,,,main,None,None,1,1.5071696999984852,261.75643409999975,None,None,1,,,,,,,,,,,,,,225,24,Female,2022-05-25_17h56.03.146,Main,2022.1.1,60.188389658594666,
negative,blue,2,None,k,,,,,,,,,0,18,18,18,,,,,,,,,,,,,,,,,,,,,,,,,,,,,,,,,,,,,main,k,k,1,0.8533945000017411,264.26344990000143,None,None,0,,,,,,,,,,,,,,225,24,Female,2022-05-25_17h56.03.146,Main,2022.1.1,60.188389658594666,
negative,blue,1,None,k,,,,,,,,,0,19,19,19,,,,,,,,,,,,,,,,,,,,,,,,,,,,,,,,,,,,,main,k,k,1,2.6827470999996876,266.1222796000002,None,None,0,,,,,,,,,,,,,,225,24,Female,2022-05-25_17h56.03.146,Main,2022.1.1,60.188389658594666,
negative,blue,1,None,k,,,,,,,,,0,20,20,20,,,,,,,,,,,,,,,,,,,,,,,,,,,,,,,,,,,,,main,k,k,1,1.2478803999983938,270.81922850000046,None,None,0,,,,,,,,,,,,,,225,24,Female,2022-05-25_17h56.03.146,Main,2022.1.1,60.188389658594666,
negative,blue,2,None,k,,,,,,,,,0,21,21,21,,,,,,,,,,,,,,,,,,,,,,,,,,,,,,,,,,,,,main,k,k,1,0.9825194000004558,273.06953449999855,None,None,0,,,,,,,,,,,,,,225,24,Female,2022-05-25_17h56.03.146,Main,2022.1.1,60.188389658594666,
negative,red,1,None,None,,,,,,,,,0,22,22,22,,,,,,,,,,,,,,,,,,,,,,,,,,,,,,,,,,,,,main,None,None,1,1.4980380999986664,275.04895770000076,None,None,1,,,,,,,,,,,,,,225,24,Female,2022-05-25_17h56.03.146,Main,2022.1.1,60.188389658594666,
positive,red,2,None,None,,,,,,,,,0,23,23,23,,,,,,,,,,,,,,,,,,,,,,,,,,,,,,,,,,,,,main,None,None,1,1.4973970999999437,277.5482840000004,None,None,1,,,,,,,,,,,,,,225,24,Female,2022-05-25_17h56.03.146,Main,2022.1.1,60.188389658594666,
negative,red,2,None,None,,,,,,,,,0,24,24,24,,,,,,,,,,,,,,,,,,,,,,,,,,,,,,,,,,,,,main,None,None,1,1.5127361999984714,280.0482746000016,None,None,1,,,,,,,,,,,,,,225,24,Female,2022-05-25_17h56.03.146,Main,2022.1.1,60.188389658594666,
positive,blue,2,k,None,,,,,,,,,0,25,25,25,,,,,,,,,,,,,,,,,,,,,,,,,,,,,,,,,,,,,main,None,None,1,1.5146843000002264,282.5649033000009,None,None,1,,,,,,,,,,,,,,225,24,Female,2022-05-25_17h56.03.146,Main,2022.1.1,60.188389658594666,
negative,yellow,1,k,None,,,,,,,,,0,26,26,26,,,,,,,,,,,,,,,,,,,,,,,,,,,,,,,,,,,,,main,None,None,1,1.4984984000002441,285.0803473999986,None,None,1,,,,,,,,,,,,,,225,24,Female,2022-05-25_17h56.03.146,Main,2022.1.1,60.188389658594666,
positive,blue,2,k,None,,,,,,,,,0,27,27,27,,,,,,,,,,,,,,,,,,,,,,,,,,,,,,,,,,,,,main,None,None,1,1.49937829999908,287.58028019999983,None,None,1,,,,,,,,,,,,,,225,24,Female,2022-05-25_17h56.03.146,Main,2022.1.1,60.188389658594666,
negative,blue,2,None,k,,,,,,,,,0,28,28,28,,,,,,,,,,,,,,,,,,,,,,,,,,,,,,,,,,,,,main,k,k,1,0.888407599999482,290.08160710000084,None,None,0,,,,,,,,,,,,,,225,24,Female,2022-05-25_17h56.03.146,Main,2022.1.1,60.188389658594666,
positive,red,1,None,None,,,,,,,,,0,29,29,29,,,,,,,,,,,,,,,,,,,,,,,,,,,,,,,,,,,,,main,None,None,1,1.493643500001781,291.9736981999995,None,None,1,,,,,,,,,,,,,,225,24,Female,2022-05-25_17h56.03.146,Main,2022.1.1,60.188389658594666,
positive,blue,1,k,None,,,,,,,,,0,30,30,30,,,,,,,,,,,,,,,,,,,,,,,,,,,,,,,,,,,,,main,None,None,1,1.5001960000008694,294.4712155999987,None,None,1,,,,,,,,,,,,,,225,24,Female,2022-05-25_17h56.03.146,Main,2022.1.1,60.188389658594666,
positive,yellow,1,None,k,,,,,,,,,0,31,31,31,,,,,,,,,,,,,,,,,,,,,,,,,,,,,,,,,,,,,main,k,k,1,0.9904056000013952,296.9715431000004,None,None,0,,,,,,,,,,,,,,225,24,Female,2022-05-25_17h56.03.146,Main,2022.1.1,60.188389658594666,
negative,yellow,2,k,None,,,,,,,,,0,32,32,32,,,,,,,,,,,,,,,,,,,,,,,,,,,,,,,,,,,,,main,None,None,1,1.4982302000025811,298.96153069999855,None,None,1,,,,,,,,,,,,,,225,24,Female,2022-05-25_17h56.03.146,Main,2022.1.1,60.188389658594666,
negative,blue,1,None,k,,,,,,,,,0,33,33,33,,,,,,,,,,,,,,,,,,,,,,,,,,,,,,,,,,,,,main,k,k,1,1.0468975999974646,301.4630012000016,None,None,0,,,,,,,,,,,,,,225,24,Female,2022-05-25_17h56.03.146,Main,2022.1.1,60.188389658594666,
positive,blue,1,k,None,,,,,,,,,0,34,34,34,,,,,,,,,,,,,,,,,,,,,,,,,,,,,,,,,,,,,main,None,None,1,1.5153676000009,303.51077870000154,None,None,1,,,,,,,,,,,,,,225,24,Female,2022-05-25_17h56.03.146,Main,2022.1.1,60.188389658594666,
negative,yellow,1,k,None,,,,,,,,,0,35,35,35,,,,,,,,,,,,,,,,,,,,,,,,,,,,,,,,,,,,,main,None,None,1,1.5146414000009827,306.028235400001,None,None,1,,,,,,,,,,,,,,225,24,Female,2022-05-25_17h56.03.146,Main,2022.1.1,60.188389658594666,
positive,yellow,2,None,k,,,,,,,,,0,36,36,36,,,,,,,,,,,,,,,,,,,,,,,,,,,,,,,,,,,,,main,k,k,1,1.2057125999999698,308.54447530000107,None,None,0,,,,,,,,,,,,,,225,24,Female,2022-05-25_17h56.03.146,Main,2022.1.1,60.188389658594666,
positive,yellow,2,None,k,,,,,,,,,0,37,37,37,,,,,,,,,,,,,,,,,,,,,,,,,,,,,,,,,,,,,main,k,k,1,0.8217695000021195,310.7538733000001,None,None,0,,,,,,,,,,,,,,225,24,Female,2022-05-25_17h56.03.146,Main,2022.1.1,60.188389658594666,
negative,yellow,2,k,None,,,,,,,,,0,38,38,38,,,,,,,,,,,,,,,,,,,,,,,,,,,,,,,,,,,,,main,None,None,1,1.5086373999984062,312.57522790000075,None,None,1,,,,,,,,,,,,,,225,24,Female,2022-05-25_17h56.03.146,Main,2022.1.1,60.188389658594666,
positive,yellow,1,None,k,,,,,,,,,0,39,39,39,,,,,,,,,,,,,,,,,,,,,,,,,,,,,,,,,,,,,main,k,k,1,0.8070077999982459,315.08823850000044,None,None,0,,,,,,,,,,,,,,225,24,Female,2022-05-25_17h56.03.146,Main,2022.1.1,60.188389658594666,
negative,yellow,2,k,None,,,,,,,,,0,40,40,40,,,,,,,,,,,,,,,,,,,,,,,,,,,,,,,,,,,,,main,None,None,1,1.5077993999984756,316.8976686999995,None,None,1,,,,,,,,,,,,,,225,24,Female,2022-05-25_17h56.03.146,Main,2022.1.1,60.188389658594666,
positive,blue,2,k,None,,,,,,,,,0,41,41,41,,,,,,,,,,,,,,,,,,,,,,,,,,,,,,,,,,,,,main,None,None,1,1.495691000000079,319.4052632999992,None,None,1,,,,,,,,,,,,,,225,24,Female,2022-05-25_17h56.03.146,Main,2022.1.1,60.188389658594666,
positive,blue,2,k,None,,,,,,,,,0,42,42,42,,,,,,,,,,,,,,,,,,,,,,,,,,,,,,,,,,,,,main,None,None,1,1.5061826999990444,321.9027238000017,None,None,1,,,,,,,,,,,,,,225,24,Female,2022-05-25_17h56.03.146,Main,2022.1.1,60.188389658594666,
negative,blue,2,None,k,,,,,,,,,0,43,43,43,,,,,,,,,,,,,,,,,,,,,,,,,,,,,,,,,,,,,main,k,k,1,0.7896436000009999,324.4087096000003,None,None,0,,,,,,,,,,,,,,225,24,Female,2022-05-25_17h56.03.146,Main,2022.1.1,60.188389658594666,
negative,red,1,None,None,,,,,,,,,0,44,44,44,,,,,,,,,,,,,,,,,,,,,,,,,,,,,,,,,,,,,main,None,None,1,1.5067521999990277,326.2015489000005,None,None,1,,,,,,,,,,,,,,225,24,Female,2022-05-25_17h56.03.146,Main,2022.1.1,60.188389658594666,
negative,yellow,1,k,None,,,,,,,,,0,45,45,45,,,,,,,,,,,,,,,,,,,,,,,,,,,,,,,,,,,,,main,None,None,1,1.5076759000003221,328.71106489999875,None,None,1,,,,,,,,,,,,,,225,24,Female,2022-05-25_17h56.03.146,Main,2022.1.1,60.188389658594666,
negative,yellow,1,k,None,,,,,,,,,0,46,46,46,,,,,,,,,,,,,,,,,,,,,,,,,,,,,,,,,,,,,main,None,None,1,1.497479800000292,331.2193496,None,None,1,,,,,,,,,,,,,,225,24,Female,2022-05-25_17h56.03.146,Main,2022.1.1,60.188389658594666,
positive,red,1,None,None,,,,,,,,,0,47,47,47,,,,,,,,,,,,,,,,,,,,,,,,,,,,,,,,,,,,,main,None,None,1,1.5011123999975098,333.7177883000004,None,None,1,,,,,,,,,,,,,,225,24,Female,2022-05-25_17h56.03.146,Main,2022.1.1,60.188389658594666,
positive,yellow,1,None,k,,,,,,,,,0,48,48,48,,,,,,,,,,,,,,,,,,,,,,,,,,,,,,,,,,,,,main,k,k,1,0.7787298999974155,336.2217098000001,None,None,0,,,,,,,,,,,,,,225,24,Female,2022-05-25_17h56.03.146,Main,2022.1.1,60.188389658594666,
negative,blue,1,None,k,,,,,,,,,0,49,49,49,,,,,,,,,,,,,,,,,,,,,,,,,,,,,,,,,,,,,main,k,k,1,1.1722343000001274,338.0029957000006,None,None,0,,,,,,,,,,,,,,225,24,Female,2022-05-25_17h56.03.146,Main,2022.1.1,60.188389658594666,
positive,yellow,2,None,k,,,,,,,,,0,50,50,50,,,,,,,,,,,,,,,,,,,,,,,,,,,,,,,,,,,,,main,k,k,1,0.8759776000006241,340.1778626000014,None,None,0,,,,,,,,,,,,,,225,24,Female,2022-05-25_17h56.03.146,Main,2022.1.1,60.188389658594666,
negative,blue,1,None,k,,,,,,,,,0,51,51,51,,,,,,,,,,,,,,,,,,,,,,,,,,,,,,,,,,,,,main,k,k,1,1.0556421000001137,342.05748609999864,None,None,0,,,,,,,,,,,,,,225,24,Female,2022-05-25_17h56.03.146,Main,2022.1.1,60.188389658594666,
positive,red,2,None,None,,,,,,,,,0,52,52,52,,,,,,,,,,,,,,,,,,,,,,,,,,,,,,,,,,,,,main,None,None,1,1.503168100000039,344.11577269999907,None,None,1,,,,,,,,,,,,,,225,24,Female,2022-05-25_17h56.03.146,Main,2022.1.1,60.188389658594666,
positive,yellow,2,None,k,,,,,,,,,0,53,53,53,,,,,,,,,,,,,,,,,,,,,,,,,,,,,,,,,,,,,main,k,k,1,0.8513187000025937,346.619632599999,None,None,0,,,,,,,,,,,,,,225,24,Female,2022-05-25_17h56.03.146,Main,2022.1.1,60.188389658594666,
negative,red,2,None,None,,,,,,,,,0,54,54,54,,,,,,,,,,,,,,,,,,,,,,,,,,,,,,,,,,,,,main,None,None,1,1.514610599999287,348.4722772999994,None,None,1,,,,,,,,,,,,,,225,24,Female,2022-05-25_17h56.03.146,Main,2022.1.1,60.188389658594666,
positive,yellow,1,None,k,,,,,,,,,0,55,55,55,,,,,,,,,,,,,,,,,,,,,,,,,,,,,,,,,,,,,main,k,k,1,0.8991079999977956,350.9885366999988,None,None,0,,,,,,,,,,,,,,225,24,Female,2022-05-25_17h56.03.146,Main,2022.1.1,60.188389658594666,
negative,blue,2,None,k,,,,,,,,,0,56,56,56,,,,,,,,,,,,,,,,,,,,,,,,,,,,,,,,,,,,,main,k,k,1,1.09679380000307,352.8892847999996,None,None,0,,,,,,,,,,,,,,225,24,Female,2022-05-25_17h56.03.146,Main,2022.1.1,60.188389658594666,
positive,blue,1,k,None,,,,,,,,,0,57,57,57,,,,,,,,,,,,,,,,,,,,,,,,,,,,,,,,,,,,,main,None,None,1,1.4985667999972065,354.98831190000055,None,None,1,,,,,,,,,,,,,,225,24,Female,2022-05-25_17h56.03.146,Main,2022.1.1,60.188389658594666,
positive,blue,1,k,None,,,,,,,,,0,58,58,58,,,,,,,,,,,,,,,,,,,,,,,,,,,,,,,,,,,,,main,None,None,1,1.5020573000001605,357.49136440000075,None,None,1,,,,,,,,,,,,,,225,24,Female,2022-05-25_17h56.03.146,Main,2022.1.1,60.188389658594666,
negative,yellow,2,k,None,,,,,,,,,0,59,59,59,,,,,,,,,,,,,,,,,,,,,,,,,,,,,,,,,,,,,main,None,None,1,1.5109593999986828,359.9948130999983,None,None,1,,,,,,,,,,,,,,225,24,Female,2022-05-25_17h56.03.146,Main,2022.1.1,60.188389658594666,
positive,red,2,None,None,,,,,,,,,0,60,60,60,,,,,,,,,,,,,,,,,,,,,,,,,,,,,,,,,,,,,main,None,None,1,1.5019586000016716,362.50406510000175,None,None,1,,,,,,,,,,,,,,225,24,Female,2022-05-25_17h56.03.146,Main,2022.1.1,60.188389658594666,
negative,yellow,1,k,None,,,,,,,,,0,61,61,61,,,,,,,,,,,,,,,,,,,,,,,,,,,,,,,,,,,,,main,None,None,1,1.5099590999998327,365.01076789999934,None,None,1,,,,,,,,,,,,,,225,24,Female,2022-05-25_17h56.03.146,Main,2022.1.1,60.188389658594666,
negative,red,1,None,None,,,,,,,,,0,62,62,62,,,,,,,,,,,,,,,,,,,,,,,,,,,,,,,,,,,,,main,None,None,1,1.5080221999996866,367.5188640999986,None,None,1,,,,,,,,,,,,,,225,24,Female,2022-05-25_17h56.03.146,Main,2022.1.1,60.188389658594666,
negative,blue,1,None,k,,,,,,,,,0,63,63,63,,,,,,,,,,,,,,,,,,,,,,,,,,,,,,,,,,,,,main,k,k,1,1.2201943000000028,370.0309207999999,None,None,0,,,,,,,,,,,,,,225,24,Female,2022-05-25_17h56.03.146,Main,2022.1.1,60.188389658594666,
positive,blue,2,k,None,,,,,,,,,0,64,64,64,,,,,,,,,,,,,,,,,,,,,,,,,,,,,,,,,,,,,main,None,None,1,1.4997029000005568,372.25440629999866,None,None,1,,,,,,,,,,,,,,225,24,Female,2022-05-25_17h56.03.146,Main,2022.1.1,60.188389658594666,
negative,yellow,2,k,None,,,,,,,,,0,65,65,65,,,,,,,,,,,,,,,,,,,,,,,,,,,,,,,,,,,,,main,None,None,1,1.5066824999994424,374.753100599999,None,None,1,,,,,,,,,,,,,,225,24,Female,2022-05-25_17h56.03.146,Main,2022.1.1,60.188389658594666,
positive,yellow,2,None,k,,,,,,,,,0,66,66,66,,,,,,,,,,,,,,,,,,,,,,,,,,,,,,,,,,,,,main,k,k,1,0.857196600001771,377.2633870999998,None,None,0,,,,,,,,,,,,,,225,24,Female,2022-05-25_17h56.03.146,Main,2022.1.1,60.188389658594666,
positive,yellow,2,None,k,,,,,,,,,0,67,67,67,,,,,,,,,,,,,,,,,,,,,,,,,,,,,,,,,,,,,main,k,k,1,0.8970418999997491,379.12381090000054,None,None,0,,,,,,,,,,,,,,225,24,Female,2022-05-25_17h56.03.146,Main,2022.1.1,60.188389658594666,
positive,red,1,None,None,,,,,,,,,0,68,68,68,,,,,,,,,,,,,,,,,,,,,,,,,,,,,,,,,,,,,main,None,None,1,1.5019246000010753,381.0179126000003,None,None,1,,,,,,,,,,,,,,225,24,Female,2022-05-25_17h56.03.146,Main,2022.1.1,60.188389658594666,
positive,yellow,1,None,k,,,,,,,,,0,69,69,69,,,,,,,,,,,,,,,,,,,,,,,,,,,,,,,,,,,,,main,k,k,1,1.245355799997924,383.52491179999924,None,None,0,,,,,,,,,,,,,,225,24,Female,2022-05-25_17h56.03.146,Main,2022.1.1,60.188389658594666,
negative,yellow,2,k,None,,,,,,,,,0,70,70,70,,,,,,,,,,,,,,,,,,,,,,,,,,,,,,,,,,,,,main,None,None,1,1.5032715000015742,385.76815949999946,None,None,1,,,,,,,,,,,,,,225,24,Female,2022-05-25_17h56.03.146,Main,2022.1.1,60.188389658594666,
positive,yellow,1,None,k,,,,,,,,,0,71,71,71,,,,,,,,,,,,,,,,,,,,,,,,,,,,,,,,,,,,,main,k,k,1,1.2579882000027283,388.2767262000016,None,None,0,,,,,,,,,,,,,,225,24,Female,2022-05-25_17h56.03.146,Main,2022.1.1,60.188389658594666,
negative,blue,1,None,k,,,,,,,,,0,72,72,72,,,,,,,,,,,,,,,,,,,,,,,,,,,,,,,,,,,,,main,k,k,1,0.8512078999992809,390.5324088999987,None,None,0,,,,,,,,,,,,,,225,24,Female,2022-05-25_17h56.03.146,Main,2022.1.1,60.188389658594666,
negative,red,2,None,None,,,,,,,,,0,73,73,73,,,,,,,,,,,,,,,,,,,,,,,,,,,,,,,,,,,,,main,None,None,1,1.5132223000000522,392.3886960000018,None,None,1,,,,,,,,,,,,,,225,24,Female,2022-05-25_17h56.03.146,Main,2022.1.1,60.188389658594666,
positive,blue,2,k,None,,,,,,,,,0,74,74,74,,,,,,,,,,,,,,,,,,,,,,,,,,,,,,,,,,,,,main,None,None,1,1.4981186000004527,394.9035651999984,None,None,1,,,,,,,,,,,,,,225,24,Female,2022-05-25_17h56.03.146,Main,2022.1.1,60.188389658594666,
negative,blue,2,None,k,,,,,,,,,0,75,75,75,,,,,,,,,,,,,,,,,,,,,,,,,,,,,,,,,,,,,main,k,k,1,0.8763534999998228,397.4000965000014,None,None,0,,,,,,,,,,,,,,225,24,Female,2022-05-25_17h56.03.146,Main,2022.1.1,60.188389658594666,
negative,blue,2,None,k,,,,,,,,,0,76,76,76,,,,,,,,,,,,,,,,,,,,,,,,,,,,,,,,,,,,,main,k,k,1,0.8026457000014489,399.28205829999933,None,None,0,,,,,,,,,,,,,,225,24,Female,2022-05-25_17h56.03.146,Main,2022.1.1,60.188389658594666,
negative,yellow,1,k,None,,,,,,,,,0,77,77,77,,,,,,,,,,,,,,,,,,,,,,,,,,,,,,,,,,,,,main,None,None,1,1.497015900000406,401.08752559999994,None,None,1,,,,,,,,,,,,,,225,24,Female,2022-05-25_17h56.03.146,Main,2022.1.1,60.188389658594666,
positive,blue,1,k,None,,,,,,,,,0,78,78,78,,,,,,,,,,,,,,,,,,,,,,,,,,,,,,,,,,,,,main,None,None,1,1.5015754000014567,403.5868195000003,None,None,1,,,,,,,,,,,,,,225,24,Female,2022-05-25_17h56.03.146,Main,2022.1.1,60.188389658594666,
positive,blue,1,k,None,,,,,,,,,0,79,79,79,,,,,,,,,,,,,,,,,,,,,,,,,,,,,,,,,,,,,main,None,None,1,1.4981474999985949,406.08946690000084,None,None,1,,,,,,,,,,,,,,225,24,Female,2022-05-25_17h56.03.146,Main,2022.1.1,60.188389658594666,
positive,red,2,None,None,,,,,,,,,0,80,80,80,,,,,,,,,,,,,,,,,,,,,,,,,,,,,,,,,,,,,main,None,None,1,1.5018911000006483,408.5892597999991,None,None,1,,,,,,,,,,,,,,225,24,Female,2022-05-25_17h56.03.146,Main,2022.1.1,60.188389658594666,
positive,yellow,2,None,k,,,,,,,,,0,81,81,81,,,,,,,,,,,,,,,,,,,,,,,,,,,,,,,,,,,,,main,k,k,1,0.8758037999978114,411.09130970000115,None,None,0,,,,,,,,,,,,,,225,24,Female,2022-05-25_17h56.03.146,Main,2022.1.1,60.188389658594666,
positive,blue,1,k,None,,,,,,,,,0,82,82,82,,,,,,,,,,,,,,,,,,,,,,,,,,,,,,,,,,,,,main,None,None,1,1.5026820000020962,412.97007640000083,None,None,1,,,,,,,,,,,,,,225,24,Female,2022-05-25_17h56.03.146,Main,2022.1.1,60.188389658594666,
negative,yellow,2,k,None,,,,,,,,,0,83,83,83,,,,,,,,,,,,,,,,,,,,,,,,,,,,,,,,,,,,,main,None,None,1,1.5005066000012448,415.4737746999999,None,None,1,,,,,,,,,,,,,,225,24,Female,2022-05-25_17h56.03.146,Main,2022.1.1,60.188389658594666,
positive,blue,2,k,None,,,,,,,,,0,84,84,84,,,,,,,,,,,,,,,,,,,,,,,,,,,,,,,,,,,,,main,None,None,1,1.5066086999977415,417.97401119999995,None,None,1,,,,,,,,,,,,,,225,24,Female,2022-05-25_17h56.03.146,Main,2022.1.1,60.188389658594666,
positive,yellow,1,None,k,,,,,,,,,0,85,85,85,,,,,,,,,,,,,,,,,,,,,,,,,,,,,,,,,,,,,main,k,k,1,0.8745337000000291,420.48175809999884,None,None,0,,,,,,,,,,,,,,225,24,Female,2022-05-25_17h56.03.146,Main,2022.1.1,60.188389658594666,
positive,blue,2,k,None,,,,,,,,,0,86,86,86,,,,,,,,,,,,,,,,,,,,,,,,,,,,,,,,,,,,,main,None,None,1,1.496813400000974,422.3627684999992,None,None,1,,,,,,,,,,,,,,225,24,Female,2022-05-25_17h56.03.146,Main,2022.1.1,60.188389658594666,
positive,blue,1,k,None,,,,,,,,,0,87,87,87,,,,,,,,,,,,,,,,,,,,,,,,,,,,,,,,,,,,,main,None,None,1,1.507016499999736,424.86027230000036,None,None,1,,,,,,,,,,,,,,225,24,Female,2022-05-25_17h56.03.146,Main,2022.1.1,60.188389658594666,
negative,yellow,2,k,None,,,,,,,,,0,88,88,88,,,,,,,,,,,,,,,,,,,,,,,,,,,,,,,,,,,,,main,None,None,1,1.5095901000022423,427.37166920000163,None,None,1,,,,,,,,,,,,,,225,24,Female,2022-05-25_17h56.03.146,Main,2022.1.1,60.188389658594666,
negative,blue,2,None,k,,,,,,,,,0,89,89,89,,,,,,,,,,,,,,,,,,,,,,,,,,,,,,,,,,,,,main,k,k,1,0.8437350999993214,429.8798592999992,None,None,0,,,,,,,,,,,,,,225,24,Female,2022-05-25_17h56.03.146,Main,2022.1.1,60.188389658594666,
positive,yellow,2,None,k,,,,,,,,,0,90,90,90,,,,,,,,,,,,,,,,,,,,,,,,,,,,,,,,,,,,,main,k,k,1,1.2540874000005715,431.72746180000104,None,None,0,,,,,,,,,,,,,,225,24,Female,2022-05-25_17h56.03.146,Main,2022.1.1,60.188389658594666,
negative,yellow,1,k,None,,,,,,,,,0,91,91,91,,,,,,,,,,,,,,,,,,,,,,,,,,,,,,,,,,,,,main,None,None,1,1.502499700000044,433.9859357999994,None,None,1,,,,,,,,,,,,,,225,24,Female,2022-05-25_17h56.03.146,Main,2022.1.1,60.188389658594666,
negative,red,2,None,None,,,,,,,,,0,92,92,92,,,,,,,,,,,,,,,,,,,,,,,,,,,,,,,,,,,,,main,None,None,1,1.5055221000002348,436.48779560000185,None,None,1,,,,,,,,,,,,,,225,24,Female,2022-05-25_17h56.03.146,Main,2022.1.1,60.188389658594666,
negative,blue,2,None,k,,,,,,,,,0,93,93,93,,,,,,,,,,,,,,,,,,,,,,,,,,,,,,,,,,,,,main,k,k,1,0.9815114000011818,438.99302420000095,None,None,0,,,,,,,,,,,,,,225,24,Female,2022-05-25_17h56.03.146,Main,2022.1.1,60.188389658594666,
negative,blue,1,None,k,,,,,,,,,0,94,94,94,,,,,,,,,,,,,,,,,,,,,,,,,,,,,,,,,,,,,main,k,k,1,1.143803700000717,440.9762072000012,None,None,0,,,,,,,,,,,,,,225,24,Female,2022-05-25_17h56.03.146,Main,2022.1.1,60.188389658594666,
negative,blue,1,None,k,,,,,,,,,0,95,95,95,,,,,,,,,,,,,,,,,,,,,,,,,,,,,,,,,,,,,main,k,k,1,0.7927608000027249,443.12386759999936,None,None,0,,,,,,,,,,,,,,225,24,Female,2022-05-25_17h56.03.146,Main,2022.1.1,60.188389658594666,
negative,red,1,None,None,,,,,,,,,0,96,96,96,,,,,,,,,,,,,,,,,,,,,,,,,,,,,,,,,,,,,main,None,None,1,1.5081436000000394,444.9201562999988,None,None,1,,,,,,,,,,,,,,225,24,Female,2022-05-25_17h56.03.146,Main,2022.1.1,60.188389658594666,
positive,yellow,1,None,k,,,,,,,,,0,97,97,97,,,,,,,,,,,,,,,,,,,,,,,,,,,,,,,,,,,,,main,k,k,1,0.8919434000017645,447.4279233999987,None,None,0,,,,,,,,,,,,,,225,24,Female,2022-05-25_17h56.03.146,Main,2022.1.1,60.188389658594666,
negative,yellow,1,k,None,,,,,,,,,0,98,98,98,,,,,,,,,,,,,,,,,,,,,,,,,,,,,,,,,,,,,main,None,None,1,1.50697769999897,449.3234134000013,None,None,1,,,,,,,,,,,,,,225,24,Female,2022-05-25_17h56.03.146,Main,2022.1.1,60.188389658594666,
positive,red,1,None,None,,,,,,,,,0,99,99,99,,,,,,,,,,,,,,,,,,,,,,,,,,,,,,,,,,,,,main,None,None,1,1.5085460999980569,451.8351524999998,None,None,1,,,,,,,,,,,,,,225,24,Female,2022-05-25_17h56.03.146,Main,2022.1.1,60.188389658594666,
positive,blue,1,k,None,,,,,,,,,0,100,100,100,,,,,,,,,,,,,,,,,,,,,,,,,,,,,,,,,,,,,main,None,None,1,1.5047508999996353,454.34165080000093,None,None,1,,,,,,,,,,,,,,225,24,Female,2022-05-25_17h56.03.146,Main,2022.1.1,60.188389658594666,
negative,yellow,1,k,None,,,,,,,,,0,101,101,101,,,,,,,,,,,,,,,,,,,,,,,,,,,,,,,,,,,,,main,None,None,1,1.5027346999995643,456.8510051000012,None,None,1,,,,,,,,,,,,,,225,24,Female,2022-05-25_17h56.03.146,Main,2022.1.1,60.188389658594666,
negative,blue,2,None,k,,,,,,,,,0,102,102,102,,,,,,,,,,,,,,,,,,,,,,,,,,,,,,,,,,,,,main,k,k,1,0.8039005000027828,459.35434069999974,None,None,0,,,,,,,,,,,,,,225,24,Female,2022-05-25_17h56.03.146,Main,2022.1.1,60.188389658594666,
negative,yellow,2,k,None,,,,,,,,,0,103,103,103,,,,,,,,,,,,,,,,,,,,,,,,,,,,,,,,,,,,,main,None,None,1,1.4968488000013167,461.1624754000004,None,None,1,,,,,,,,,,,,,,225,24,Female,2022-05-25_17h56.03.146,Main,2022.1.1,60.188389658594666,
positive,yellow,2,None,k,,,,,,,,,0,104,104,104,,,,,,,,,,,,,,,,,,,,,,,,,,,,,,,,,,,,,main,k,k,1,1.2011278000027232,463.65623720000076,None,None,0,,,,,,,,,,,,,,225,24,Female,2022-05-25_17h56.03.146,Main,2022.1.1,60.188389658594666,
positive,blue,1,k,None,,,,,,,,,0,105,105,105,,,,,,,,,,,,,,,,,,,,,,,,,,,,,,,,,,,,,main,None,None,1,1.5126247000007425,465.86351730000024,None,None,1,,,,,,,,,,,,,,225,24,Female,2022-05-25_17h56.03.146,Main,2022.1.1,60.188389658594666,
positive,blue,2,k,None,,,,,,,,,0,106,106,106,,,,,,,,,,,,,,,,,,,,,,,,,,,,,,,,,,,,,main,None,None,1,1.5053575000019919,468.3731990000015,None,None,1,,,,,,,,,,,,,,225,24,Female,2022-05-25_17h56.03.146,Main,2022.1.1,60.188389658594666,
negative,blue,1,None,k,,,,,,,,,0,107,107,107,,,,,,,,,,,,,,,,,,,,,,,,,,,,,,,,,,,,,main,k,k,1,9.677697300001455,470.88258589999896,None,None,0,,,,,,,,,,,,,,225,24,Female,2022-05-25_17h56.03.146,Main,2022.1.1,60.188389658594666,
positive,yellow,2,None,k,,,,,,,,,0,108,108,108,,,,,,,,,,,,,,,,,,,,,,,,,,,,,,,,,,,,,main,k,k,1,0.8522564000013517,482.57556869999826,None,None,0,,,,,,,,,,,,,,225,24,Female,2022-05-25_17h56.03.146,Main,2022.1.1,60.188389658594666,
negative,yellow,1,k,None,,,,,,,,,0,109,109,109,,,,,,,,,,,,,,,,,,,,,,,,,,,,,,,,,,,,,main,None,None,1,1.4971942999982275,484.4315448999987,None,None,1,,,,,,,,,,,,,,225,24,Female,2022-05-25_17h56.03.146,Main,2022.1.1,60.188389658594666,
negative,blue,2,None,k,,,,,,,,,0,110,110,110,,,,,,,,,,,,,,,,,,,,,,,,,,,,,,,,,,,,,main,k,k,1,0.8124489000001631,486.9285707000017,None,None,0,,,,,,,,,,,,,,225,24,Female,2022-05-25_17h56.03.146,Main,2022.1.1,60.188389658594666,
positive,blue,2,k,None,,,,,,,,,0,111,111,111,,,,,,,,,,,,,,,,,,,,,,,,,,,,,,,,,,,,,main,None,None,1,1.496096499999112,488.742117400001,None,None,1,,,,,,,,,,,,,,225,24,Female,2022-05-25_17h56.03.146,Main,2022.1.1,60.188389658594666,
negative,blue,1,None,k,,,,,,,,,0,112,112,112,,,,,,,,,,,,,,,,,,,,,,,,,,,,,,,,,,,,,main,k,k,1,1.5842640999981086,491.24101529999825,None,None,0,,,,,,,,,,,,,,225,24,Female,2022-05-25_17h56.03.146,Main,2022.1.1,60.188389658594666,
positive,yellow,1,None,k,,,,,,,,,0,113,113,113,,,,,,,,,,,,,,,,,,,,,,,,,,,,,,,,,,,,,main,k,k,1,0.9845057999991695,494.8412611999993,None,None,0,,,,,,,,,,,,,,225,24,Female,2022-05-25_17h56.03.146,Main,2022.1.1,60.188389658594666,
negative,red,1,None,None,,,,,,,,,0,114,114,114,,,,,,,,,,,,,,,,,,,,,,,,,,,,,,,,,,,,,main,None,None,1,1.5117178000000422,496.8271539999987,None,None,1,,,,,,,,,,,,,,225,24,Female,2022-05-25_17h56.03.146,Main,2022.1.1,60.188389658594666,
positive,red,1,None,None,,,,,,,,,0,115,115,115,,,,,,,,,,,,,,,,,,,,,,,,,,,,,,,,,,,,,main,None,None,1,1.5038033999990148,499.34021399999983,None,None,1,,,,,,,,,,,,,,225,24,Female,2022-05-25_17h56.03.146,Main,2022.1.1,60.188389658594666,
negative,red,2,None,None,,,,,,,,,0,116,116,116,,,,,,,,,,,,,,,,,,,,,,,,,,,,,,,,,,,,,main,None,None,1,1.5006788999999117,501.8454985999997,None,None,1,,,,,,,,,,,,,,225,24,Female,2022-05-25_17h56.03.146,Main,2022.1.1,60.188389658594666,
negative,yellow,2,k,None,,,,,,,,,0,117,117,117,,,,,,,,,,,,,,,,,,,,,,,,,,,,,,,,,,,,,main,None,None,1,1.5073554000009608,504.3459975000005,None,None,1,,,,,,,,,,,,,,225,24,Female,2022-05-25_17h56.03.146,Main,2022.1.1,60.188389658594666,
positive,yellow,1,None,k,,,,,,,,,0,118,118,118,,,,,,,,,,,,,,,,,,,,,,,,,,,,,,,,,,,,,main,k,k,1,0.8760699000013119,506.8534725999998,None,None,0,,,,,,,,,,,,,,225,24,Female,2022-05-25_17h56.03.146,Main,2022.1.1,60.188389658594666,
positive,red,2,None,None,,,,,,,,,0,119,119,119,,,,,,,,,,,,,,,,,,,,,,,,,,,,,,,,,,,,,main,None,None,1,1.5047176000007312,508.73568629999863,None,None,1,,,,,,,,,,,,,,225,24,Female,2022-05-25_17h56.03.146,Main,2022.1.1,60.188389658594666,
positive,blue,2,k,None,,,,,,,,,0,120,120,120,,,,,,,,,,,,,,,,,,,,,,,,,,,,,,,,,,,,,main,None,None,1,1.4985493999993196,511.2431327999984,None,None,1,,,,,,,,,,,,,,225,24,Female,2022-05-25_17h56.03.146,Main,2022.1.1,60.188389658594666,
negative,red,1,None,None,,,,,,,,,0,121,121,121,,,,,,,,,,,,,,,,,,,,,,,,,,,,,,,,,,,,,main,None,None,1,1.5093951999988349,513.7432254000014,None,None,1,,,,,,,,,,,,,,225,24,Female,2022-05-25_17h56.03.146,Main,2022.1.1,60.188389658594666,
positive,yellow,2,None,k,,,,,,,,,0,122,122,122,,,,,,,,,,,,,,,,,,,,,,,,,,,,,,,,,,,,,main,k,k,1,1.0005216999998083,516.2534039999991,None,None,0,,,,,,,,,,,,,,225,24,Female,2022-05-25_17h56.03.146,Main,2022.1.1,60.188389658594666,
negative,red,2,None,None,,,,,,,,,0,123,123,123,,,,,,,,,,,,,,,,,,,,,,,,,,,,,,,,,,,,,main,None,None,1,1.5082726999971783,518.2563402000014,None,None,1,,,,,,,,,,,,,,225,24,Female,2022-05-25_17h56.03.146,Main,2022.1.1,60.188389658594666,
negative,yellow,2,k,None,,,,,,,,,0,124,124,124,,,,,,,,,,,,,,,,,,,,,,,,,,,,,,,,,,,,,main,None,None,1,1.505945699998847,520.7641466999994,None,None,1,,,,,,,,,,,,,,225,24,Female,2022-05-25_17h56.03.146,Main,2022.1.1,60.188389658594666,
positive,red,1,None,None,,,,,,,,,0,125,125,125,,,,,,,,,,,,,,,,,,,,,,,,,,,,,,,,,,,,,main,None,None,1,1.5115767999996024,523.2743087000017,None,None,1,,,,,,,,,,,,,,225,24,Female,2022-05-25_17h56.03.146,Main,2022.1.1,60.188389658594666,
negative,blue,2,None,k,,,,,,,,,0,126,126,126,,,,,,,,,,,,,,,,,,,,,,,,,,,,,,,,,,,,,main,k,k,1,0.8618768000014825,525.7838129000011,None,None,0,,,,,,,,,,,,,,225,24,Female,2022-05-25_17h56.03.146,Main,2022.1.1,60.188389658594666,
negative,blue,1,None,k,,,,,,,,,0,127,127,127,,,,,,,,,,,,,,,,,,,,,,,,,,,,,,,,,,,,,main,k,k,1,1.3169959000006202,527.651473599999,None,None,0,,,,,,,,,,,,,,225,24,Female,2022-05-25_17h56.03.146,Main,2022.1.1,60.188389658594666,
negative,yellow,1,k,None,,,,,,,,,0,128,128,128,,,,,,,,,,,,,,,,,,,,,,,,,,,,,,,,,,,,,main,None,None,1,1.509655499998189,529.9671703999993,None,None,1,,,,,,,,,,,,,,225,24,Female,2022-05-25_17h56.03.146,Main,2022.1.1,60.188389658594666,
negative,yellow,1,k,None,,,,,,,,,0,129,129,129,,,,,,,,,,,,,,,,,,,,,,,,,,,,,,,,,,,,,main,None,None,1,1.5066926999970747,532.4808768000003,None,None,1,,,,,,,,,,,,,,225,24,Female,2022-05-25_17h56.03.146,Main,2022.1.1,60.188389658594666,
positive,blue,1,k,None,,,,,,,,,0,130,130,130,,,,,,,,,,,,,,,,,,,,,,,,,,,,,,,,,,,,,main,None,None,1,1.5126713999998174,534.9950862000005,None,None,1,,,,,,,,,,,,,,225,24,Female,2022-05-25_17h56.03.146,Main,2022.1.1,60.188389658594666,
negative,blue,1,None,k,,,,,,,,,0,131,131,131,,,,,,,,,,,,,,,,,,,,,,,,,,,,,,,,,,,,,main,k,k,1,0.7639054999999644,537.5065161999992,None,None,0,,,,,,,,,,,,,,225,24,Female,2022-05-25_17h56.03.146,Main,2022.1.1,60.188389658594666,
negative,blue,2,None,k,,,,,,,,,0,132,132,132,,,,,,,,,,,,,,,,,,,,,,,,,,,,,,,,,,,,,main,k,k,1,0.8612346999980218,539.2719254000003,None,None,0,,,,,,,,,,,,,,225,24,Female,2022-05-25_17h56.03.146,Main,2022.1.1,60.188389658594666,
positive,blue,2,k,None,,,,,,,,,0,133,133,133,,,,,,,,,,,,,,,,,,,,,,,,,,,,,,,,,,,,,main,None,None,1,1.4993698999969638,541.1338079999987,None,None,1,,,,,,,,,,,,,,225,24,Female,2022-05-25_17h56.03.146,Main,2022.1.1,60.188389658594666,
positive,red,2,None,None,,,,,,,,,0,134,134,134,,,,,,,,,,,,,,,,,,,,,,,,,,,,,,,,,,,,,main,None,None,1,1.5137001000002783,543.6307549999983,None,None,1,,,,,,,,,,,,,,225,24,Female,2022-05-25_17h56.03.146,Main,2022.1.1,60.188389658594666,
negative,yellow,2,k,None,,,,,,,,,0,135,135,135,,,,,,,,,,,,,,,,,,,,,,,,,,,,,,,,,,,,,main,None,None,1,1.5075034000001324,546.146428,None,None,1,,,,,,,,,,,,,,225,24,Female,2022-05-25_17h56.03.146,Main,2022.1.1,60.188389658594666,
positive,yellow,2,None,k,,,,,,,,,0,136,136,136,,,,,,,,,,,,,,,,,,,,,,,,,,,,,,,,,,,,,main,k,k,1,0.8252642999977979,548.6579066999984,None,None,0,,,,,,,,,,,,,,225,24,Female,2022-05-25_17h56.03.146,Main,2022.1.1,60.188389658594666,
positive,blue,1,k,None,,,,,,,,,0,137,137,137,,,,,,,,,,,,,,,,,,,,,,,,,,,,,,,,,,,,,main,None,None,1,1.506936500001757,550.4864017,None,None,1,,,,,,,,,,,,,,225,24,Female,2022-05-25_17h56.03.146,Main,2022.1.1,60.188389658594666,
positive,yellow,1,None,k,,,,,,,,,0,138,138,138,,,,,,,,,,,,,,,,,,,,,,,,,,,,,,,,,,,,,main,k,k,1,0.935003600003256,552.9930554999992,None,None,0,,,,,,,,,,,,,,225,24,Female,2022-05-25_17h56.03.146,Main,2022.1.1,60.188389658594666,
positive,yellow,1,None,k,,,,,,,,,0,139,139,139,,,,,,,,,,,,,,,,,,,,,,,,,,,,,,,,,,,,,main,k,k,1,0.7026270999995177,554.9284568000003,None,None,0,,,,,,,,,,,,,,225,24,Female,2022-05-25_17h56.03.146,Main,2022.1.1,60.188389658594666,
positive,yellow,1,None,k,,,,,,,,,0,140,140,140,,,,,,,,,,,,,,,,,,,,,,,,,,,,,,,,,,,,,main,k,k,1,0.8617758999971556,556.6370147999987,None,None,0,,,,,,,,,,,,,,225,24,Female,2022-05-25_17h56.03.146,Main,2022.1.1,60.188389658594666,
positive,blue,1,k,None,,,,,,,,,0,141,141,141,,,,,,,,,,,,,,,,,,,,,,,,,,,,,,,,,,,,,main,None,None,1,1.5034519000000728,558.4998010000018,None,None,1,,,,,,,,,,,,,,225,24,Female,2022-05-25_17h56.03.146,Main,2022.1.1,60.188389658594666,
positive,blue,2,k,None,,,,,,,,,0,142,142,142,,,,,,,,,,,,,,,,,,,,,,,,,,,,,,,,,,,,,main,None,None,1,1.508463699999993,561.0043919000018,None,None,1,,,,,,,,,,,,,,225,24,Female,2022-05-25_17h56.03.146,Main,2022.1.1,60.188389658594666,
positive,yellow,2,None,k,,,,,,,,,0,143,143,143,,,,,,,,,,,,,,,,,,,,,,,,,,,,,,,,,,,,,main,k,k,1,0.8410427999988315,563.5145817000011,None,None,0,,,,,,,,,,,,,,225,24,Female,2022-05-25_17h56.03.146,Main,2022.1.1,60.188389658594666,
negative,yellow,2,k,None,,,,,,,,,0,144,144,144,,,,,,,,,,,,,,,,,,,,,,,,,,,,,,,,,,,,,main,None,None,1,1.5056643999996595,565.3560662999989,None,None,1,,,,,,,,,,,,,,225,24,Female,2022-05-25_17h56.03.146,Main,2022.1.1,60.188389658594666,
negative,blue,2,None,k,,,,,,,,,0,145,145,145,,,,,,,,,,,,,,,,,,,,,,,,,,,,,,,,,,,,,main,k,k,1,0.7143842999976187,567.8605136000006,None,None,0,,,,,,,,,,,,,,225,24,Female,2022-05-25_17h56.03.146,Main,2022.1.1,60.188389658594666,
negative,red,1,None,None,,,,,,,,,0,146,146,146,,,,,,,,,,,,,,,,,,,,,,,,,,,,,,,,,,,,,main,None,None,1,1.5028863000006822,569.5761918999997,None,None,1,,,,,,,,,,,,,,225,24,Female,2022-05-25_17h56.03.146,Main,2022.1.1,60.188389658594666,
positive,blue,1,k,None,,,,,,,,,0,147,147,147,,,,,,,,,,,,,,,,,,,,,,,,,,,,,,,,,,,,,main,None,None,1,1.507022000001598,572.0841832000006,None,None,1,,,,,,,,,,,,,,225,24,Female,2022-05-25_17h56.03.146,Main,2022.1.1,60.188389658594666,
positive,yellow,1,None,k,,,,,,,,,0,148,148,148,,,,,,,,,,,,,,,,,,,,,,,,,,,,,,,,,,,,,main,k,k,1,0.7680923000007169,574.5911376000004,None,None,0,,,,,,,,,,,,,,225,24,Female,2022-05-25_17h56.03.146,Main,2022.1.1,60.188389658594666,
negative,red,2,None,None,,,,,,,,,0,149,149,149,,,,,,,,,,,,,,,,,,,,,,,,,,,,,,,,,,,,,main,None,None,1,1.4966703999998572,576.3613411000006,None,None,1,,,,,,,,,,,,,,225,24,Female,2022-05-25_17h56.03.146,Main,2022.1.1,60.188389658594666,
negative,blue,1,None,k,,,,,,,,,0,150,150,150,,,,,,,,,,,,,,,,,,,,,,,,,,,,,,,,,,,,,main,k,k,1,2.433478599999944,578.8624232000002,None,None,0,,,,,,,,,,,,,,225,24,Female,2022-05-25_17h56.03.146,Main,2022.1.1,60.188389658594666,
negative,yellow,2,k,None,,,,,,,,,0,151,151,151,,,,,,,,,,,,,,,,,,,,,,,,,,,,,,,,,,,,,main,None,None,1,1.4919346999995469,583.2961613000007,None,None,1,,,,,,,,,,,,,,225,24,Female,2022-05-25_17h56.03.146,Main,2022.1.1,60.188389658594666,
negative,blue,2,None,k,,,,,,,,,0,152,152,152,,,,,,,,,,,,,,,,,,,,,,,,,,,,,,,,,,,,,main,k,k,1,1.5070416999988083,585.7881874000013,None,None,0,,,,,,,,,,,,,,225,24,Female,2022-05-25_17h56.03.146,Main,2022.1.1,60.188389658594666,
negative,yellow,1,k,None,,,,,,,,,0,153,153,153,,,,,,,,,,,,,,,,,,,,,,,,,,,,,,,,,,,,,main,None,None,1,1.5089473000007274,589.3140013999982,None,None,1,,,,,,,,,,,,,,225,24,Female,2022-05-25_17h56.03.146,Main,2022.1.1,60.188389658594666,
negative,blue,1,None,k,,,,,,,,,0,154,154,154,,,,,,,,,,,,,,,,,,,,,,,,,,,,,,,,,,,,,main,k,k,1,0.7678736000016215,591.8237765999984,None,None,0,,,,,,,,,,,,,,225,24,Female,2022-05-25_17h56.03.146,Main,2022.1.1,60.188389658594666,
positive,yellow,2,None,k,,,,,,,,,0,155,155,155,,,,,,,,,,,,,,,,,,,,,,,,,,,,,,,,,,,,,main,k,k,1,0.8160296999994898,593.5921688999988,None,None,0,,,,,,,,,,,,,,225,24,Female,2022-05-25_17h56.03.146,Main,2022.1.1,60.188389658594666,
positive,red,2,None,None,,,,,,,,,0,156,156,156,,,,,,,,,,,,,,,,,,,,,,,,,,,,,,,,,,,,,main,None,None,1,1.5000433000022895,595.4142328000016,None,None,1,,,,,,,,,,,,,,225,24,Female,2022-05-25_17h56.03.146,Main,2022.1.1,60.188389658594666,
positive,red,1,None,None,,,,,,,,,0,157,157,157,,,,,,,,,,,,,,,,,,,,,,,,,,,,,,,,,,,,,main,None,None,1,1.506026600000041,597.9149394000015,None,None,1,,,,,,,,,,,,,,225,24,Female,2022-05-25_17h56.03.146,Main,2022.1.1,60.188389658594666,
positive,blue,2,k,None,,,,,,,,,0,158,158,158,,,,,,,,,,,,,,,,,,,,,,,,,,,,,,,,,,,,,main,None,None,1,1.5120234999994864,600.4203100999985,None,None,1,,,,,,,,,,,,,,225,24,Female,2022-05-25_17h56.03.146,Main,2022.1.1,60.188389658594666,
negative,yellow,1,k,None,,,,,,,,,0,159,159,159,,,,,,,,,,,,,,,,,,,,,,,,,,,,,,,,,,,,,main,None,None,1,1.4946682000008877,602.9368856000001,None,None,1,,,,,,,,,,,,,,225,24,Female,2022-05-25_17h56.03.146,Main,2022.1.1,60.188389658594666,
negative,red,2,None,None,,,,,,,,,0,160,160,160,,,,,,,,,,,,,,,,,,,,,,,,,,,,,,,,,,,,,main,None,None,1,1.4937535999997635,605.4330732000017,None,None,1,,,,,,,,,,,,,,225,24,Female,2022-05-25_17h56.03.146,Main,2022.1.1,60.188389658594666,
negative,blue,1,None,k,,,,,,,,,0,161,161,161,,,,,,,,,,,,,,,,,,,,,,,,,,,,,,,,,,,,,main,k,k,1,0.828609600001073,607.9307497000009,None,None,0,,,,,,,,,,,,,,225,24,Female,2022-05-25_17h56.03.146,Main,2022.1.1,60.188389658594666,
negative,blue,1,None,k,,,,,,,,,0,162,162,162,,,,,,,,,,,,,,,,,,,,,,,,,,,,,,,,,,,,,main,k,k,1,1.197872799999459,609.7610447000006,None,None,0,,,,,,,,,,,,,,225,24,Female,2022-05-25_17h56.03.146,Main,2022.1.1,60.188389658594666,
negative,yellow,1,k,None,,,,,,,,,0,163,163,163,,,,,,,,,,,,,,,,,,,,,,,,,,,,,,,,,,,,,main,None,None,1,1.4960807999996177,611.9567137999984,None,None,1,,,,,,,,,,,,,,225,24,Female,2022-05-25_17h56.03.146,Main,2022.1.1,60.188389658594666,
negative,yellow,1,k,None,,,,,,,,,0,164,164,164,,,,,,,,,,,,,,,,,,,,,,,,,,,,,,,,,,,,,main,None,None,1,1.507687099998293,614.4578817000001,None,None,1,,,,,,,,,,,,,,225,24,Female,2022-05-25_17h56.03.146,Main,2022.1.1,60.188389658594666,
positive,yellow,1,None,k,,,,,,,,,0,165,165,165,,,,,,,,,,,,,,,,,,,,,,,,,,,,,,,,,,,,,main,k,k,1,0.7731066999986069,616.9652201999997,None,None,0,,,,,,,,,,,,,,225,24,Female,2022-05-25_17h56.03.146,Main,2022.1.1,60.188389658594666,
negative,red,1,None,None,,,,,,,,,0,166,166,166,,,,,,,,,,,,,,,,,,,,,,,,,,,,,,,,,,,,,main,None,None,1,1.5061114999989513,618.7383195000002,None,None,1,,,,,,,,,,,,,,225,24,Female,2022-05-25_17h56.03.146,Main,2022.1.1,60.188389658594666,
negative,yellow,2,k,None,,,,,,,,,0,167,167,167,,,,,,,,,,,,,,,,,,,,,,,,,,,,,,,,,,,,,main,None,None,1,1.4991707999979553,621.2467225,None,None,1,,,,,,,,,,,,,,225,24,Female,2022-05-25_17h56.03.146,Main,2022.1.1,60.188389658594666,
positive,blue,2,k,None,,,,,,,,,0,168,168,168,,,,,,,,,,,,,,,,,,,,,,,,,,,,,,,,,,,,,main,None,None,1,1.5101767999985896,623.747400100001,None,None,1,,,,,,,,,,,,,,225,24,Female,2022-05-25_17h56.03.146,Main,2022.1.1,60.188389658594666,
positive,red,2,None,None,,,,,,,,,0,169,169,169,,,,,,,,,,,,,,,,,,,,,,,,,,,,,,,,,,,,,main,None,None,1,1.5096421999987797,626.2610711000016,None,None,1,,,,,,,,,,,,,,225,24,Female,2022-05-25_17h56.03.146,Main,2022.1.1,60.188389658594666,
positive,red,1,None,None,,,,,,,,,0,170,170,170,,,,,,,,,,,,,,,,,,,,,,,,,,,,,,,,,,,,,main,None,None,1,1.493287600002077,628.7725357000018,None,None,1,,,,,,,,,,,,,,225,24,Female,2022-05-25_17h56.03.146,Main,2022.1.1,60.188389658594666,
negative,blue,2,None,k,,,,,,,,,0,171,171,171,,,,,,,,,,,,,,,,,,,,,,,,,,,,,,,,,,,,,main,k,k,1,0.7325058999995235,631.2662702999987,None,None,0,,,,,,,,,,,,,,225,24,Female,2022-05-25_17h56.03.146,Main,2022.1.1,60.188389658594666,
positive,blue,2,k,None,,,,,,,,,0,172,172,172,,,,,,,,,,,,,,,,,,,,,,,,,,,,,,,,,,,,,main,None,None,1,1.5073823999991873,633.0000498000009,None,None,1,,,,,,,,,,,,,,225,24,Female,2022-05-25_17h56.03.146,Main,2022.1.1,60.188389658594666,
negative,yellow,2,k,None,,,,,,,,,0,173,173,173,,,,,,,,,,,,,,,,,,,,,,,,,,,,,,,,,,,,,main,None,None,1,1.5016778999997769,635.5121633000017,None,None,1,,,,,,,,,,,,,,225,24,Female,2022-05-25_17h56.03.146,Main,2022.1.1,60.188389658594666,
positive,yellow,2,None,k,,,,,,,,,0,174,174,174,,,,,,,,,,,,,,,,,,,,,,,,,,,,,,,,,,,,,main,k,k,1,0.7467460999978357,638.0144475000016,None,None,0,,,,,,,,,,,,,,225,24,Female,2022-05-25_17h56.03.146,Main,2022.1.1,60.188389658594666,
negative,blue,2,None,k,,,,,,,,,0,175,175,175,,,,,,,,,,,,,,,,,,,,,,,,,,,,,,,,,,,,,main,k,k,1,0.7219156999999541,639.7631196000002,None,None,0,,,,,,,,,,,,,,225,24,Female,2022-05-25_17h56.03.146,Main,2022.1.1,60.188389658594666,
positive,blue,1,k,None,,,,,,,,,0,176,176,176,,,,,,,,,,,,,,,,,,,,,,,,,,,,,,,,,,,,,main,None,None,1,1.502838000000338,641.4865485000009,None,None,1,,,,,,,,,,,,,,225,24,Female,2022-05-25_17h56.03.146,Main,2022.1.1,60.188389658594666,
positive,yellow,1,None,k,,,,,,,,,0,177,177,177,,,,,,,,,,,,,,,,,,,,,,,,,,,,,,,,,,,,,main,k,k,1,0.949853099999018,643.9917201999997,None,None,0,,,,,,,,,,,,,,225,24,Female,2022-05-25_17h56.03.146,Main,2022.1.1,60.188389658594666,
positive,blue,1,k,None,,,,,,,,,0,178,178,178,,,,,,,,,,,,,,,,,,,,,,,,,,,,,,,,,,,,,main,None,None,1,1.5031129000017245,645.9437302000006,None,None,1,,,,,,,,,,,,,,225,24,Female,2022-05-25_17h56.03.146,Main,2022.1.1,60.188389658594666,
positive,yellow,2,None,k,,,,,,,,,0,179,179,179,,,,,,,,,,,,,,,,,,,,,,,,,,,,,,,,,,,,,main,k,k,1,0.7872997000013129,648.4461192000017,None,None,0,,,,,,,,,,,,,,225,24,Female,2022-05-25_17h56.03.146,Main,2022.1.1,60.188389658594666,
positive,blue,1,k,None,,,,,,,,,0,180,180,180,,,,,,,,,,,,,,,,,,,,,,,,,,,,,,,,,,,,,main,None,None,1,1.505281699999614,650.2374729000003,None,None,1,,,,,,,,,,,,,,225,24,Female,2022-05-25_17h56.03.146,Main,2022.1.1,60.188389658594666,
negative,red,1,None,None,,,,,,,,,0,181,181,181,,,,,,,,,,,,,,,,,,,,,,,,,,,,,,,,,,,,,main,None,None,1,1.4979353999988234,652.7439983000004,None,None,1,,,,,,,,,,,,,,225,24,Female,2022-05-25_17h56.03.146,Main,2022.1.1,60.188389658594666,
negative,blue,1,None,k,,,,,,,,,0,182,182,182,,,,,,,,,,,,,,,,,,,,,,,,,,,,,,,,,,,,,main,k,k,1,0.8078518999973312,655.2465032,None,None,0,,,,,,,,,,,,,,225,24,Female,2022-05-25_17h56.03.146,Main,2022.1.1,60.188389658594666,
negative,yellow,2,k,None,,,,,,,,,0,183,183,183,,,,,,,,,,,,,,,,,,,,,,,,,,,,,,,,,,,,,main,None,None,1,1.513900800000556,657.048266400001,None,None,1,,,,,,,,,,,,,,225,24,Female,2022-05-25_17h56.03.146,Main,2022.1.1,60.188389658594666,
positive,yellow,2,None,k,,,,,,,,,0,184,184,184,,,,,,,,,,,,,,,,,,,,,,,,,,,,,,,,,,,,,main,k,k,1,0.8987388999994437,659.5650376000012,None,None,0,,,,,,,,,,,,,,225,24,Female,2022-05-25_17h56.03.146,Main,2022.1.1,60.188389658594666,
positive,yellow,1,None,k,,,,,,,,,0,185,185,185,,,,,,,,,,,,,,,,,,,,,,,,,,,,,,,,,,,,,main,k,k,1,0.8480414999976347,661.4692128999995,None,None,0,,,,,,,,,,,,,,225,24,Female,2022-05-25_17h56.03.146,Main,2022.1.1,60.188389658594666,
positive,red,2,None,None,,,,,,,,,0,186,186,186,,,,,,,,,,,,,,,,,,,,,,,,,,,,,,,,,,,,,main,None,None,1,1.4986303000005137,663.3186903999995,None,None,1,,,,,,,,,,,,,,225,24,Female,2022-05-25_17h56.03.146,Main,2022.1.1,60.188389658594666,
positive,blue,1,k,None,,,,,,,,,0,187,187,187,,,,,,,,,,,,,,,,,,,,,,,,,,,,,,,,,,,,,main,None,None,1,1.5098997999994026,665.8147332000008,None,None,1,,,,,,,,,,,,,,225,24,Female,2022-05-25_17h56.03.146,Main,2022.1.1,60.188389658594666,
negative,yellow,1,k,None,,,,,,,,,0,188,188,188,,,,,,,,,,,,,,,,,,,,,,,,,,,,,,,,,,,,,main,None,None,1,1.5067278999995324,668.328433300001,None,None,1,,,,,,,,,,,,,,225,24,Female,2022-05-25_17h56.03.146,Main,2022.1.1,60.188389658594666,
positive,yellow,2,None,k,,,,,,,,,0,189,189,189,,,,,,,,,,,,,,,,,,,,,,,,,,,,,,,,,,,,,main,k,k,1,0.8112790999985009,670.8404923000016,None,None,0,,,,,,,,,,,,,,225,24,Female,2022-05-25_17h56.03.146,Main,2022.1.1,60.188389658594666,
negative,yellow,2,k,None,,,,,,,,,0,190,190,190,,,,,,,,,,,,,,,,,,,,,,,,,,,,,,,,,,,,,main,None,None,1,1.4964180000024498,672.6490864000007,None,None,1,,,,,,,,,,,,,,225,24,Female,2022-05-25_17h56.03.146,Main,2022.1.1,60.188389658594666,
negative,yellow,1,k,None,,,,,,,,,0,191,191,191,,,,,,,,,,,,,,,,,,,,,,,,,,,,,,,,,,,,,main,None,None,1,1.5068129999999655,675.1508246999983,None,None,1,,,,,,,,,,,,,,225,24,Female,2022-05-25_17h56.03.146,Main,2022.1.1,60.188389658594666,
positive,blue,2,k,None,,,,,,,,,0,192,192,192,,,,,,,,,,,,,,,,,,,,,,,,,,,,,,,,,,,,,main,None,None,1,1.5056426000010106,677.6568215000007,None,None,1,,,,,,,,,,,,,,225,24,Female,2022-05-25_17h56.03.146,Main,2022.1.1,60.188389658594666,
positive,yellow,1,None,k,,,,,,,,,0,193,193,193,,,,,,,,,,,,,,,,,,,,,,,,,,,,,,,,,,,,,main,k,k,1,0.7909103999991203,680.1621722999989,None,None,0,,,,,,,,,,,,,,225,24,Female,2022-05-25_17h56.03.146,Main,2022.1.1,60.188389658594666,
negative,red,2,None,None,,,,,,,,,0,194,194,194,,,,,,,,,,,,,,,,,,,,,,,,,,,,,,,,,,,,,main,None,None,1,1.5067481999976735,681.9573951999992,None,None,1,,,,,,,,,,,,,,225,24,Female,2022-05-25_17h56.03.146,Main,2022.1.1,60.188389658594666,
positive,red,1,None,None,,,,,,,,,0,195,195,195,,,,,,,,,,,,,,,,,,,,,,,,,,,,,,,,,,,,,main,None,None,1,1.49805539999943,684.4665037000013,None,None,1,,,,,,,,,,,,,,225,24,Female,2022-05-25_17h56.03.146,Main,2022.1.1,60.188389658594666,
negative,blue,1,None,k,,,,,,,,,0,196,196,196,,,,,,,,,,,,,,,,,,,,,,,,,,,,,,,,,,,,,main,k,k,1,0.7995037999971828,686.9631674000011,None,None,0,,,,,,,,,,,,,,225,24,Female,2022-05-25_17h56.03.146,Main,2022.1.1,60.188389658594666,
positive,blue,2,k,None,,,,,,,,,0,197,197,197,,,,,,,,,,,,,,,,,,,,,,,,,,,,,,,,,,,,,main,None,None,1,1.4964908000001742,688.7667350000011,None,None,1,,,,,,,,,,,,,,225,24,Female,2022-05-25_17h56.03.146,Main,2022.1.1,60.188389658594666,
negative,blue,2,None,k,,,,,,,,,0,198,198,198,,,,,,,,,,,,,,,,,,,,,,,,,,,,,,,,,,,,,main,k,k,1,0.7608115000002726,691.2619005999986,None,None,0,,,,,,,,,,,,,,225,24,Female,2022-05-25_17h56.03.146,Main,2022.1.1,60.188389658594666,
negative,blue,2,None,k,,,,,,,,,0,199,199,199,,,,,,,,,,,,,,,,,,,,,,,,,,,,,,,,,,,,,main,k,k,1,0.8539584000027389,693.0258390000017,None,None,0,,,,,,,,,,,,,,225,24,Female,2022-05-25_17h56.03.146,Main,2022.1.1,60.188389658594666,
positive,blue,2,k,None,,,,,,,,,0,200,200,200,,,,,,,,,,,,,,,,,,,,,,,,,,,,,,,,,,,,,main,None,None,1,1.5119262000007438,694.8853619000001,None,None,1,,,,,,,,,,,,,,225,24,Female,2022-05-25_17h56.03.146,Main,2022.1.1,60.188389658594666,
positive,blue,2,k,None,,,,,,,,,0,201,201,201,,,,,,,,,,,,,,,,,,,,,,,,,,,,,,,,,,,,,main,None,None,1,1.5142820000000938,697.3954330999986,None,None,1,,,,,,,,,,,,,,225,24,Female,2022-05-25_17h56.03.146,Main,2022.1.1,60.188389658594666,
negative,yellow,2,k,None,,,,,,,,,0,202,202,202,,,,,,,,,,,,,,,,,,,,,,,,,,,,,,,,,,,,,main,None,None,1,1.5019377999997232,699.9107366999997,None,None,1,,,,,,,,,,,,,,225,24,Female,2022-05-25_17h56.03.146,Main,2022.1.1,60.188389658594666,
positive,red,1,None,None,,,,,,,,,0,203,203,203,,,,,,,,,,,,,,,,,,,,,,,,,,,,,,,,,,,,,main,None,None,1,1.5002553000012995,702.417758399999,None,None,1,,,,,,,,,,,,,,225,24,Female,2022-05-25_17h56.03.146,Main,2022.1.1,60.188389658594666,
negative,blue,2,None,k,,,,,,,,,0,204,204,204,,,,,,,,,,,,,,,,,,,,,,,,,,,,,,,,,,,,,main,k,k,1,1.3467592999986664,704.919335999999,None,None,0,,,,,,,,,,,,,,225,24,Female,2022-05-25_17h56.03.146,Main,2022.1.1,60.188389658594666,
negative,red,1,None,None,,,,,,,,,0,205,205,205,,,,,,,,,,,,,,,,,,,,,,,,,,,,,,,,,,,,,main,None,None,1,1.5093382000013662,707.2682406999993,None,None,1,,,,,,,,,,,,,,225,24,Female,2022-05-25_17h56.03.146,Main,2022.1.1,60.188389658594666,
negative,blue,2,None,k,,,,,,,,,0,206,206,206,,,,,,,,,,,,,,,,,,,,,,,,,,,,,,,,,,,,,main,k,k,1,0.7812394000029599,709.7755437000014,None,None,0,,,,,,,,,,,,,,225,24,Female,2022-05-25_17h56.03.146,Main,2022.1.1,60.188389658594666,
negative,yellow,2,k,None,,,,,,,,,0,207,207,207,,,,,,,,,,,,,,,,,,,,,,,,,,,,,,,,,,,,,main,None,None,1,1.4980776999982481,711.5578883000017,None,None,1,,,,,,,,,,,,,,225,24,Female,2022-05-25_17h56.03.146,Main,2022.1.1,60.188389658594666,
positive,yellow,2,None,k,,,,,,,,,0,208,208,208,,,,,,,,,,,,,,,,,,,,,,,,,,,,,,,,,,,,,main,k,k,1,0.7993777000010596,714.0624309000013,None,None,0,,,,,,,,,,,,,,225,24,Female,2022-05-25_17h56.03.146,Main,2022.1.1,60.188389658594666,
negative,yellow,1,k,None,,,,,,,,,0,209,209,209,,,,,,,,,,,,,,,,,,,,,,,,,,,,,,,,,,,,,main,None,None,1,1.5042775000001711,715.8619379000011,None,None,1,,,,,,,,,,,,,,225,24,Female,2022-05-25_17h56.03.146,Main,2022.1.1,60.188389658594666,
negative,red,2,None,None,,,,,,,,,0,210,210,210,,,,,,,,,,,,,,,,,,,,,,,,,,,,,,,,,,,,,main,None,None,1,1.5008570999998483,718.3679569999986,None,None,1,,,,,,,,,,,,,,225,24,Female,2022-05-25_17h56.03.146,Main,2022.1.1,60.188389658594666,
negative,blue,1,None,k,,,,,,,,,0,211,211,211,,,,,,,,,,,,,,,,,,,,,,,,,,,,,,,,,,,,,main,k,k,1,0.7909891999988758,720.868407599999,None,None,0,,,,,,,,,,,,,,225,24,Female,2022-05-25_17h56.03.146,Main,2022.1.1,60.188389658594666,
negative,yellow,1,k,None,,,,,,,,,0,212,212,212,,,,,,,,,,,,,,,,,,,,,,,,,,,,,,,,,,,,,main,None,None,1,1.5113572999980533,722.6636070999994,None,None,1,,,,,,,,,,,,,,225,24,Female,2022-05-25_17h56.03.146,Main,2022.1.1,60.188389658594666,
positive,blue,1,k,None,,,,,,,,,0,213,213,213,,,,,,,,,,,,,,,,,,,,,,,,,,,,,,,,,,,,,main,None,None,1,1.4998911000002408,725.1728261999997,None,None,1,,,,,,,,,,,,,,225,24,Female,2022-05-25_17h56.03.146,Main,2022.1.1,60.188389658594666,
positive,blue,1,k,None,,,,,,,,,0,214,214,214,,,,,,,,,,,,,,,,,,,,,,,,,,,,,,,,,,,,,main,None,None,1,1.4965150999996695,727.6777679000006,None,None,1,,,,,,,,,,,,,,225,24,Female,2022-05-25_17h56.03.146,Main,2022.1.1,60.188389658594666,
positive,yellow,1,None,k,,,,,,,,,0,215,215,215,,,,,,,,,,,,,,,,,,,,,,,,,,,,,,,,,,,,,main,k,k,1,0.7940128000009281,730.1732306000013,None,None,0,,,,,,,,,,,,,,225,24,Female,2022-05-25_17h56.03.146,Main,2022.1.1,60.188389658594666,
positive,yellow,1,None,k,,,,,,,,,0,216,216,216,,,,,,,,,,,,,,,,,,,,,,,,,,,,,,,,,,,,,main,k,k,1,0.817583600000944,731.9733376000004,None,None,0,,,,,,,,,,,,,,225,24,Female,2022-05-25_17h56.03.146,Main,2022.1.1,60.188389658594666,
positive,yellow,2,None,k,,,,,,,,,0,217,217,217,,,,,,,,,,,,,,,,,,,,,,,,,,,,,,,,,,,,,main,k,k,1,0.769233399998484,733.7883116000012,None,None,0,,,,,,,,,,,,,,225,24,Female,2022-05-25_17h56.03.146,Main,2022.1.1,60.188389658594666,
negative,blue,1,None,k,,,,,,,,,0,218,218,218,,,,,,,,,,,,,,,,,,,,,,,,,,,,,,,,,,,,,main,k,k,1,0.8940995000011753,735.5636364999991,None,None,0,,,,,,,,,,,,,,225,24,Female,2022-05-25_17h56.03.146,Main,2022.1.1,60.188389658594666,
positive,red,2,None,None,,,,,,,,,0,219,219,219,,,,,,,,,,,,,,,,,,,,,,,,,,,,,,,,,,,,,main,None,None,1,1.497682099998201,737.4547646999999,None,None,1,,,,,,,,,,,,,,225,24,Female,2022-05-25_17h56.03.146,Main,2022.1.1,60.188389658594666,
positive,yellow,1,None,k,,,,,,,,,0,220,220,220,,,,,,,,,,,,,,,,,,,,,,,,,,,,,,,,,,,,,main,k,k,1,0.8050696999998763,739.9545314999996,None,None,0,,,,,,,,,,,,,,225,24,Female,2022-05-25_17h56.03.146,Main,2022.1.1,60.188389658594666,
positive,blue,1,k,None,,,,,,,,,0,221,221,221,,,,,,,,,,,,,,,,,,,,,,,,,,,,,,,,,,,,,main,None,None,1,1.5098446999982116,741.7644967000015,None,None,1,,,,,,,,,,,,,,225,24,Female,2022-05-25_17h56.03.146,Main,2022.1.1,60.188389658594666,
positive,yellow,2,None,k,,,,,,,,,0,222,222,222,,,,,,,,,,,,,,,,,,,,,,,,,,,,,,,,,,,,,main,k,k,1,0.6721031999986735,744.2758221000004,None,None,0,,,,,,,,,,,,,,225,24,Female,2022-05-25_17h56.03.146,Main,2022.1.1,60.188389658594666,
negative,yellow,1,k,None,,,,,,,,,0,223,223,223,,,,,,,,,,,,,,,,,,,,,,,,,,,,,,,,,,,,,main,None,None,1,1.499070900001243,745.9482314999987,None,None,1,,,,,,,,,,,,,,225,24,Female,2022-05-25_17h56.03.146,Main,2022.1.1,60.188389658594666,
positive,yellow,2,None,k,,,,,,,,,0,224,224,224,,,,,,,,,,,,,,,,,,,,,,,,,,,,,,,,,,,,,main,k,k,1,0.8848476999992272,748.4480140999985,None,None,0,,,,,,,,,,,,,,225,24,Female,2022-05-25_17h56.03.146,Main,2022.1.1,60.188389658594666,
negative,yellow,2,k,None,,,,,,,,,0,225,225,225,,,,,,,,,,,,,,,,,,,,,,,,,,,,,,,,,,,,,main,None,None,1,1.5009170999983326,750.3372947999997,None,None,1,,,,,,,,,,,,,,225,24,Female,2022-05-25_17h56.03.146,Main,2022.1.1,60.188389658594666,
negative,blue,2,None,k,,,,,,,,,0,226,226,226,,,,,,,,,,,,,,,,,,,,,,,,,,,,,,,,,,,,,main,k,k,1,0.749241899997287,752.8422409999985,None,None,0,,,,,,,,,,,,,,225,24,Female,2022-05-25_17h56.03.146,Main,2022.1.1,60.188389658594666,
positive,red,2,None,None,,,,,,,,,0,227,227,227,,,,,,,,,,,,,,,,,,,,,,,,,,,,,,,,,,,,,main,None,None,1,1.5087834000005387,754.5941813999998,None,None,1,,,,,,,,,,,,,,225,24,Female,2022-05-25_17h56.03.146,Main,2022.1.1,60.188389658594666,
positive,blue,2,k,None,,,,,,,,,0,228,228,228,,,,,,,,,,,,,,,,,,,,,,,,,,,,,,,,,,,,,main,None,None,1,1.506971099999646,757.1012641000016,None,None,1,,,,,,,,,,,,,,225,24,Female,2022-05-25_17h56.03.146,Main,2022.1.1,60.188389658594666,
negative,blue,1,None,k,,,,,,,,,0,229,229,229,,,,,,,,,,,,,,,,,,,,,,,,,,,,,,,,,,,,,main,k,k,1,0.8376199999984237,759.6163527999997,None,None,0,,,,,,,,,,,,,,225,24,Female,2022-05-25_17h56.03.146,Main,2022.1.1,60.188389658594666,
positive,yellow,1,None,k,,,,,,,,,0,230,230,230,,,,,,,,,,,,,,,,,,,,,,,,,,,,,,,,,,,,,main,k,k,1,0.8024722000009206,761.4539406000004,None,None,0,,,,,,,,,,,,,,225,24,Female,2022-05-25_17h56.03.146,Main,2022.1.1,60.188389658594666,
negative,blue,2,None,k,,,,,,,,,0,231,231,231,,,,,,,,,,,,,,,,,,,,,,,,,,,,,,,,,,,,,main,k,k,1,0.8420599999990372,763.2586185,None,None,0,,,,,,,,,,,,,,225,24,Female,2022-05-25_17h56.03.146,Main,2022.1.1,60.188389658594666,
negative,red,1,None,None,,,,,,,,,0,232,232,232,,,,,,,,,,,,,,,,,,,,,,,,,,,,,,,,,,,,,main,None,None,1,1.5076412999987951,765.1051742999989,None,None,1,,,,,,,,,,,,,,225,24,Female,2022-05-25_17h56.03.146,Main,2022.1.1,60.188389658594666,
positive,blue,2,k,None,,,,,,,,,0,233,233,233,,,,,,,,,,,,,,,,,,,,,,,,,,,,,,,,,,,,,main,None,None,1,1.506271400001424,767.6133790999993,None,None,1,,,,,,,,,,,,,,225,24,Female,2022-05-25_17h56.03.146,Main,2022.1.1,60.188389658594666,
negative,yellow,1,k,None,,,,,,,,,0,234,234,234,,,,,,,,,,,,,,,,,,,,,,,,,,,,,,,,,,,,,main,None,None,1,1.5040227999998024,770.1186984000014,None,None,1,,,,,,,,,,,,,,225,24,Female,2022-05-25_17h56.03.146,Main,2022.1.1,60.188389658594666,
negative,yellow,2,k,None,,,,,,,,,0,235,235,235,,,,,,,,,,,,,,,,,,,,,,,,,,,,,,,,,,,,,main,None,None,1,1.5009492999997747,772.6276055000017,None,None,1,,,,,,,,,,,,,,225,24,Female,2022-05-25_17h56.03.146,Main,2022.1.1,60.188389658594666,
positive,red,1,None,None,,,,,,,,,0,236,236,236,,,,,,,,,,,,,,,,,,,,,,,,,,,,,,,,,,,,,main,None,None,1,1.4982027999976708,775.1292047999996,None,None,1,,,,,,,,,,,,,,225,24,Female,2022-05-25_17h56.03.146,Main,2022.1.1,60.188389658594666,
negative,red,2,None,None,,,,,,,,,0,237,237,237,,,,,,,,,,,,,,,,,,,,,,,,,,,,,,,,,,,,,main,None,None,1,1.4979062999991584,777.6283223999999,None,None,1,,,,,,,,,,,,,,225,24,Female,2022-05-25_17h56.03.146,Main,2022.1.1,60.188389658594666,
negative,blue,1,None,k,,,,,,,,,0,238,238,238,,,,,,,,,,,,,,,,,,,,,,,,,,,,,,,,,,,,,main,k,k,1,0.7741069000003336,780.1274701000002,None,None,0,,,,,,,,,,,,,,225,24,Female,2022-05-25_17h56.03.146,Main,2022.1.1,60.188389658594666,
positive,blue,1,k,None,,,,,,,,,0,239,239,239,,,,,,,,,,,,,,,,,,,,,,,,,,,,,,,,,,,,,main,None,None,1,1.5087681999975757,781.9016216000018,None,None,1,,,,,,,,,,,,,,225,24,Female,2022-05-25_17h56.03.146,Main,2022.1.1,60.188389658594666,
,,,,,,,,,,,,,,,,,,,,,,,,,,,,,,,,,,,,,,,,,,,,,,,,,,,,,,,,,,,,,,,,,,,,,,,,,784.4029445999986,None,,,,,,,,
