distractor,target,set,ans1,ans2,rep_loop4.thisRepN,rep_loop4.thisTrialN,rep_loop4.thisN,rep_loop4.thisIndex,st2_prac_loop.thisRepN,st2_prac_loop.thisTrialN,st2_prac_loop.thisN,st2_prac_loop.thisIndex,st2_main_loop.thisRepN,st2_main_loop.thisTrialN,st2_main_loop.thisN,st2_main_loop.thisIndex,image_4.started,image_4.stopped,mouse_7.x,mouse_7.y,mouse_7.leftButton,mouse_7.midButton,mouse_7.rightButton,sound_2.started,sound_2.stopped,key_resp_3.keys,mouse_5.x,mouse_5.y,mouse_5.leftButton,mouse_5.midButton,mouse_5.rightButton,mouse_5.started,mouse_5.stopped,yes_text2.started,yes_text2.stopped,no_text2.started,no_text2.stopped,mouse_3.x,mouse_3.y,mouse_3.leftButton,mouse_3.midButton,mouse_3.rightButton,mouse_3.started,mouse_3.stopped,st_prac_back.started,st_prac_back.stopped,st_prac_text.started,st_prac_text.stopped,st_fix_back.started,st_fix_back.stopped,st_fix_2.started,st_fix_2.stopped,main_prac,st_ans,st_res,st_corr,st_rt,st_back.started,st_back.stopped,st2_resp.keys,st2_resp.corr,st_main_back.started,st_main_back.stopped,st_main_text.started,st_main_text.stopped,mouse_4.x,mouse_4.y,mouse_4.leftButton,mouse_4.midButton,mouse_4.rightButton,mouse_4.started,mouse_4.stopped,text_2.started,text_2.stopped,id*,age*,gender*,date,expName,psychopyVersion,frameRate,
,,,,,,,,,,,,,,,,,29.485380399986752,None,-0.09166667,-0.062037036,0,0,0,,,,,,,,,,,,,,,,,,,,,,,,,,,,,,,,,,,,,,,,,,,,,,,,,,,,226,25,Male,2022-05-26_10h36.04.537,Main,2022.1.1,59.9179124591709,
negative,yellow,1,k,None,,,,,0,0,0,0,,,,,,,,,,,,36.91247345998708,None,None,-0.16296296,-0.39444444,0,0,0,1.0080357999977423,None,78.82446039999195,None,78.82446039999195,None,-0.13518518,-0.09537037,0,0,0,0.01284645999839995,None,81.88068249999196,None,81.88068249999196,None,83.89118419999431,None,83.89118419999431,None,prac,k,k,1,1.4303673999966122,85.93935259999125,None,None,0,,,,,,,,,,,,,,226,25,Male,2022-05-26_10h36.04.537,Main,2022.1.1,59.9179124591709,
positive,red,2,None,None,,,,,0,1,1,1,,,,,,,,,,,,,,,,,,,,,,,,,,,,,,,,,,,,,,,,,prac,None,None,1,1.5133594999933848,88.36164979999012,None,None,1,,,,,,,,,,,,,,226,25,Male,2022-05-26_10h36.04.537,Main,2022.1.1,59.9179124591709,
negative,blue,2,None,k,,,,,0,2,2,2,,,,,,,,,,,,,,,,,,,,,,,,,,,,,,,,,,,,,,,,,prac,None,None,1,1.5104317999939667,90.87408869998762,None,None,1,,,,,,,,,,,,,,226,25,Male,2022-05-26_10h36.04.537,Main,2022.1.1,59.9179124591709,
positive,yellow,1,None,k,,,,,0,3,3,3,,,,,,,,,,,,,,,,,,,,,,,,,,,,,,,,,,,,,,,,,prac,None,None,1,1.5065772000089055,93.38153779999993,None,None,1,,,,,,,,,,,,,,226,25,Male,2022-05-26_10h36.04.537,Main,2022.1.1,59.9179124591709,
negative,blue,2,None,k,,,,,0,4,4,4,,,,,,,,,,,,,,,,,,,,,,,,,,,,,,,,,,,,,,,,,prac,None,None,1,1.5098190999997314,95.88956469998811,None,None,1,,,,,,,,,,,,,,226,25,Male,2022-05-26_10h36.04.537,Main,2022.1.1,59.9179124591709,
negative,blue,1,None,k,,,,,0,5,5,5,,,,,,,,,,,,,,,,,,,,,,,,,,,,,,,,,,,,,,,,,prac,None,None,1,1.502190100000007,98.39350559999002,None,None,1,,,,,,,,,,,,,,226,25,Male,2022-05-26_10h36.04.537,Main,2022.1.1,59.9179124591709,
negative,yellow,2,k,None,,,,,0,6,6,6,,,,,,,,,,,,,,,,,,,,,,,,,,,,,,,,,,,,,,,,,prac,k,k,1,0.7706557000055909,100.89749089999532,None,None,0,,,,,,,,,,,,,,226,25,Male,2022-05-26_10h36.04.537,Main,2022.1.1,59.9179124591709,
negative,red,1,None,None,,,,,0,7,7,7,,,,,,,,,,,,,,,,,,,,,,,,,,,,,,,,,,,,,,,,,prac,None,None,1,1.504296200000681,102.68007529999886,None,None,1,,,,,,,,,,,,,,226,25,Male,2022-05-26_10h36.04.537,Main,2022.1.1,59.9179124591709,
positive,yellow,2,None,k,,,,,0,8,8,8,,,,,,,,,,,,,,,,,,,,,,,,,,,,,,,,,,,,,,,,,prac,None,None,1,1.5099003999930574,105.17845579999266,None,None,1,,,,,,,,,,,,,,226,25,Male,2022-05-26_10h36.04.537,Main,2022.1.1,59.9179124591709,
negative,yellow,1,k,None,,,,,0,9,9,9,,,,,,,,,,,,,,,,,,,,,,,,,,,,,,,,,,,,,,,,,prac,k,k,1,1.1652344000031007,107.68995649999124,None,None,0,,,,,,,,,,,,,,226,25,Male,2022-05-26_10h36.04.537,Main,2022.1.1,59.9179124591709,
positive,yellow,2,None,k,,,,,0,10,10,10,,,,,,,,,,,,,,,,,,,,,,,,,,,,,,,,,,,,,,,,,prac,None,None,1,1.4990319999924395,109.86415849998593,None,None,1,,,,,,,,,,,,,,226,25,Male,2022-05-26_10h36.04.537,Main,2022.1.1,59.9179124591709,
negative,yellow,2,k,None,,,,,0,11,11,11,,,,,,,,,,,,,,,,,,,,,,,,,,,,,,,,,,,,,,,,,prac,k,k,1,1.0469287000014447,112.35363979999966,None,None,0,,,,,,,,,,,,,,226,25,Male,2022-05-26_10h36.04.537,Main,2022.1.1,59.9179124591709,
negative,red,2,None,None,,,,,0,12,12,12,,,,,,,,,,,,,,,,,,,,,,,,,,,,,,,,,,,,,,,,,prac,None,None,1,1.4989485000114655,114.40435539999453,None,None,1,,,,,,,,,,,,,,226,25,Male,2022-05-26_10h36.04.537,Main,2022.1.1,59.9179124591709,
positive,red,1,None,None,,,,,0,13,13,13,,,,,,,,,,,,,,,,,,,,,,,,,,,,,,,,,,,,,,,,,prac,None,None,1,1.4973348999919835,116.90682949998882,None,None,1,,,,,,,,,,,,,,226,25,Male,2022-05-26_10h36.04.537,Main,2022.1.1,59.9179124591709,
positive,blue,2,k,None,,,,,0,14,14,14,,,,,,,,,,,,,,,,,,,,,,,,,,,,,,,,,,,,,,,,,prac,k,k,1,0.7737492000014754,119.4055520999973,None,None,0,,,,,,,,,,,,,,226,25,Male,2022-05-26_10h36.04.537,Main,2022.1.1,59.9179124591709,
positive,blue,1,k,None,,,,,0,15,15,15,,,,,,,,,,,,,,,,,,,,,,,,,,,,,,,,,,,,,,,,,prac,k,k,1,0.9558223000058206,121.1917628999945,None,None,0,,,,,,,,,,,,,,226,25,Male,2022-05-26_10h36.04.537,Main,2022.1.1,59.9179124591709,
negative,blue,1,None,k,,,,,0,16,16,16,,,,,,,,,,,,,,,,,,,,,,,,,,,,,,,,,,,,,,,,,prac,None,None,1,1.5055318999948213,123.13372259998869,None,None,1,,,,,,,,,,,,,,226,25,Male,2022-05-26_10h36.04.537,Main,2022.1.1,59.9179124591709,
positive,blue,2,k,None,,,,,0,17,17,17,,,,,,,,,,,,,,,,,,,,,,,,,,,,,,,,,,,,,,,,,prac,k,k,1,0.7751575000002049,125.64771579999069,None,None,0,,,,,,,,,,,,,,226,25,Male,2022-05-26_10h36.04.537,Main,2022.1.1,59.9179124591709,
positive,blue,1,k,None,,,,,0,18,18,18,,,,,,,,,,,,,,,,,,,,,,,,,,,,,,,,,,,,,,,,,prac,k,k,1,1.530679000003147,127.42090539999481,None,None,0,,,,,,,,,,,,,,226,25,Male,2022-05-26_10h36.04.537,Main,2022.1.1,59.9179124591709,
positive,yellow,1,None,k,,,,,0,19,19,19,,,,,,,,,,,,,,,,,,,,,,,,,,,,,,,,,,,,,,,,,prac,None,None,1,1.5075255999981891,130.98768479999853,None,None,1,,,,,,,,,,,,,,226,25,Male,2022-05-26_10h36.04.537,Main,2022.1.1,59.9179124591709,
negative,yellow,1,k,None,,,,,1,0,20,0,,,,,,,,,,,,,,,,,,,,,,,,,,,,,,,,,,,,,,,,,prac,k,k,1,0.5877298999985214,133.49597919998632,None,None,0,,,,,,,,,,,,,,226,25,Male,2022-05-26_10h36.04.537,Main,2022.1.1,59.9179124591709,
positive,red,2,None,None,,,,,1,1,21,1,,,,,,,,,,,,,,,,,,,,,,,,,,,,,,,,,,,,,,,,,prac,None,None,1,1.5142754999978933,135.08309299999382,None,None,1,,,,,,,,,,,,,,226,25,Male,2022-05-26_10h36.04.537,Main,2022.1.1,59.9179124591709,
negative,blue,2,None,k,,,,,1,2,22,2,,,,,,,,,,,,,,,,,,,,,,,,,,,,,,,,,,,,,,,,,prac,None,None,1,1.499994500001776,137.59837289999996,None,None,1,,,,,,,,,,,,,,226,25,Male,2022-05-26_10h36.04.537,Main,2022.1.1,59.9179124591709,
positive,yellow,1,None,k,,,,,1,3,23,3,,,,,,,,,,,,,,,,,,,,,,,,,,,,,,,,,,,,,,,,,prac,None,k,0,0.7971126000047661,140.10071419998712,None,None,1,,,,,,,,,,,,,,226,25,Male,2022-05-26_10h36.04.537,Main,2022.1.1,59.9179124591709,
negative,blue,2,None,k,,,,,1,4,24,4,,,,,,,,,,,,,,,,,,,,,,,,,,,,,,,,,,,,,,,,,prac,None,None,1,1.4970463999925414,142.91957949999778,None,None,1,,,,,,,,,,,,,,226,25,Male,2022-05-26_10h36.04.537,Main,2022.1.1,59.9179124591709,
negative,blue,1,None,k,,,,,1,5,25,5,,,,,,,,,,,,,,,,,,,,,,,,,,,,,,,,,,,,,,,,,prac,None,None,1,1.4979689000028884,145.4191240999935,None,None,1,,,,,,,,,,,,,,226,25,Male,2022-05-26_10h36.04.537,Main,2022.1.1,59.9179124591709,
negative,yellow,2,k,None,,,,,1,6,26,6,,,,,,,,,,,,,,,,,,,,,,,,,,,,,,,,,,,,,,,,,prac,k,k,1,1.0536283000110416,147.91402939999534,None,None,0,,,,,,,,,,,,,,226,25,Male,2022-05-26_10h36.04.537,Main,2022.1.1,59.9179124591709,
negative,red,1,None,None,,,,,1,7,27,7,,,,,,,,,,,,,,,,,,,,,,,,,,,,,,,,,,,,,,,,,prac,None,None,1,1.5027111999952467,149.97297909999907,None,None,1,,,,,,,,,,,,,,226,25,Male,2022-05-26_10h36.04.537,Main,2022.1.1,59.9179124591709,
positive,yellow,2,None,k,,,,,1,8,28,8,,,,,,,,,,,,,,,,,,,,,,,,,,,,,,,,,,,,,,,,,prac,None,None,1,1.5119227999966824,152.47619659999327,None,None,1,,,,,,,,,,,,,,226,25,Male,2022-05-26_10h36.04.537,Main,2022.1.1,59.9179124591709,
negative,yellow,1,k,None,,,,,1,9,29,9,,,,,,,,,,,,,,,,,,,,,,,,,,,,,,,,,,,,,,,,,prac,k,k,1,0.7574002000037581,154.99015629998758,None,None,0,,,,,,,,,,,,,,226,25,Male,2022-05-26_10h36.04.537,Main,2022.1.1,59.9179124591709,
positive,yellow,2,None,k,,,,,1,10,30,10,,,,,,,,,,,,,,,,,,,,,,,,,,,,,,,,,,,,,,,,,prac,None,None,1,1.49726119999832,156.74602709998726,None,None,1,,,,,,,,,,,,,,226,25,Male,2022-05-26_10h36.04.537,Main,2022.1.1,59.9179124591709,
negative,yellow,2,k,None,,,,,1,11,31,11,,,,,,,,,,,,,,,,,,,,,,,,,,,,,,,,,,,,,,,,,prac,k,k,1,0.7158710999938194,159.24572949999128,None,None,0,,,,,,,,,,,,,,226,25,Male,2022-05-26_10h36.04.537,Main,2022.1.1,59.9179124591709,
negative,red,2,None,None,,,,,1,12,32,12,,,,,,,,,,,,,,,,,,,,,,,,,,,,,,,,,,,,,,,,,prac,None,None,1,1.5075600000127451,160.96396249999816,None,None,1,,,,,,,,,,,,,,226,25,Male,2022-05-26_10h36.04.537,Main,2022.1.1,59.9179124591709,
positive,red,1,None,None,,,,,1,13,33,13,,,,,,,,,,,,,,,,,,,,,,,,,,,,,,,,,,,,,,,,,prac,None,None,1,1.511607600012212,163.47431329998653,None,None,1,,,,,,,,,,,,,,226,25,Male,2022-05-26_10h36.04.537,Main,2022.1.1,59.9179124591709,
positive,blue,2,k,None,,,,,1,14,34,14,,,,,,,,,,,,,,,,,,,,,,,,,,,,,,,,,,,,,,,,,prac,k,k,1,0.6995719999977155,165.98913139999786,None,None,0,,,,,,,,,,,,,,226,25,Male,2022-05-26_10h36.04.537,Main,2022.1.1,59.9179124591709,
positive,blue,1,k,None,,,,,1,15,35,15,,,,,,,,,,,,,,,,,,,,,,,,,,,,,,,,,,,,,,,,,prac,k,k,1,0.7953484000026947,167.68907449999824,None,None,0,,,,,,,,,,,,,,226,25,Male,2022-05-26_10h36.04.537,Main,2022.1.1,59.9179124591709,
negative,blue,1,None,k,,,,,1,16,36,16,,,,,,,,,,,,,,,,,,,,,,,,,,,,,,,,,,,,,,,,,prac,None,None,1,1.5027892000071006,169.486682799994,None,None,1,,,,,,,,,,,,,,226,25,Male,2022-05-26_10h36.04.537,Main,2022.1.1,59.9179124591709,
positive,blue,2,k,None,,,,,1,17,37,17,,,,,,,,,,,,,,,,,,,,,,,,,,,,,,,,,,,,,,,,,prac,k,k,1,0.7249282999982825,171.98975139998947,None,None,0,,,,,,,,,,,,,,226,25,Male,2022-05-26_10h36.04.537,Main,2022.1.1,59.9179124591709,
positive,blue,1,k,None,,,,,1,18,38,18,,,,,,,,,,,,,,,,,,,,,,,,,,,,,,,,,,,,,,,,,prac,k,k,1,0.7014269000064814,173.71819379999943,None,None,0,,,,,,,,,,,,,,226,25,Male,2022-05-26_10h36.04.537,Main,2022.1.1,59.9179124591709,
positive,yellow,1,None,k,,,,,1,19,39,19,,,,,,,,,,,,,,,,,,,,,,,,,,,,,,,,,,,,,,,,,prac,None,None,1,1.5040460000018356,175.42189299999154,None,None,1,,,,,,,,,,,,,,226,25,Male,2022-05-26_10h36.04.537,Main,2022.1.1,59.9179124591709,
,,,,,,,,,,,,,,,,,,,,,,,,,,,,,,,,,,,,,,,,,,,,,,,,,,,,,,,,,,,,,,177.9402393999917,None,177.9402393999917,None,0.046296295,-0.062962964,0,0,0,0.01076776000263635,None,,,226,25,Male,2022-05-26_10h36.04.537,Main,2022.1.1,59.9179124591709,
negative,yellow,2,k,None,,,,,,,,,0,0,0,0,,,,,,,,,,,,,,,,,,,,,,,,,,,,,,,,,182.54890019999584,None,182.54890019999584,None,main,k,k,1,0.8076350000046659,184.61688639999193,None,None,0,,,,,,,,,,,,,,226,25,Male,2022-05-26_10h36.04.537,Main,2022.1.1,59.9179124591709,
positive,red,1,None,None,,,,,,,,,0,1,1,1,,,,,,,,,,,,,,,,,,,,,,,,,,,,,,,,,,,,,main,None,None,1,1.510683100001188,186.43090189999202,None,None,1,,,,,,,,,,,,,,226,25,Male,2022-05-26_10h36.04.537,Main,2022.1.1,59.9179124591709,
positive,blue,2,k,None,,,,,,,,,0,2,2,2,,,,,,,,,,,,,,,,,,,,,,,,,,,,,,,,,,,,,main,k,k,1,1.0327961000002688,188.9414950999926,None,None,0,,,,,,,,,,,,,,226,25,Male,2022-05-26_10h36.04.537,Main,2022.1.1,59.9179124591709,
positive,blue,1,k,None,,,,,,,,,0,3,3,3,,,,,,,,,,,,,,,,,,,,,,,,,,,,,,,,,,,,,main,k,k,1,0.6490122999966843,190.97537499999453,None,None,0,,,,,,,,,,,,,,226,25,Male,2022-05-26_10h36.04.537,Main,2022.1.1,59.9179124591709,
negative,yellow,2,k,None,,,,,,,,,0,4,4,4,,,,,,,,,,,,,,,,,,,,,,,,,,,,,,,,,,,,,main,k,k,1,0.7488595000031637,192.6302202999941,None,None,0,,,,,,,,,,,,,,226,25,Male,2022-05-26_10h36.04.537,Main,2022.1.1,59.9179124591709,
positive,yellow,2,None,k,,,,,,,,,0,5,5,5,,,,,,,,,,,,,,,,,,,,,,,,,,,,,,,,,,,,,main,None,None,1,1.5141980000043986,194.37973539999803,None,None,1,,,,,,,,,,,,,,226,25,Male,2022-05-26_10h36.04.537,Main,2022.1.1,59.9179124591709,
negative,blue,2,None,k,,,,,,,,,0,6,6,6,,,,,,,,,,,,,,,,,,,,,,,,,,,,,,,,,,,,,main,None,None,1,1.51367709999613,196.89249359999667,None,None,1,,,,,,,,,,,,,,226,25,Male,2022-05-26_10h36.04.537,Main,2022.1.1,59.9179124591709,
positive,red,2,None,None,,,,,,,,,0,7,7,7,,,,,,,,,,,,,,,,,,,,,,,,,,,,,,,,,,,,,main,None,None,1,1.4976447000080952,199.4082972999895,None,None,1,,,,,,,,,,,,,,226,25,Male,2022-05-26_10h36.04.537,Main,2022.1.1,59.9179124591709,
positive,yellow,1,None,k,,,,,,,,,0,8,8,8,,,,,,,,,,,,,,,,,,,,,,,,,,,,,,,,,,,,,main,None,None,1,1.5069124000001466,201.9092427999858,None,None,1,,,,,,,,,,,,,,226,25,Male,2022-05-26_10h36.04.537,Main,2022.1.1,59.9179124591709,
negative,red,1,None,None,,,,,,,,,0,9,9,9,,,,,,,,,,,,,,,,,,,,,,,,,,,,,,,,,,,,,main,None,None,1,1.5054711999982828,204.41937229999166,None,None,1,,,,,,,,,,,,,,226,25,Male,2022-05-26_10h36.04.537,Main,2022.1.1,59.9179124591709,
positive,yellow,1,None,k,,,,,,,,,0,10,10,10,,,,,,,,,,,,,,,,,,,,,,,,,,,,,,,,,,,,,main,None,None,1,1.5104143999924418,206.92457789999025,None,None,1,,,,,,,,,,,,,,226,25,Male,2022-05-26_10h36.04.537,Main,2022.1.1,59.9179124591709,
negative,yellow,1,k,None,,,,,,,,,0,11,11,11,,,,,,,,,,,,,,,,,,,,,,,,,,,,,,,,,,,,,main,k,k,1,0.8498705000092741,209.43858049999108,None,None,0,,,,,,,,,,,,,,226,25,Male,2022-05-26_10h36.04.537,Main,2022.1.1,59.9179124591709,
negative,yellow,1,k,None,,,,,,,,,0,12,12,12,,,,,,,,,,,,,,,,,,,,,,,,,,,,,,,,,,,,,main,k,k,1,0.6833479000051739,211.2899339999858,None,None,0,,,,,,,,,,,,,,226,25,Male,2022-05-26_10h36.04.537,Main,2022.1.1,59.9179124591709,
negative,red,2,None,None,,,,,,,,,0,13,13,13,,,,,,,,,,,,,,,,,,,,,,,,,,,,,,,,,,,,,main,None,None,1,1.5097471000044607,212.97400899999775,None,None,1,,,,,,,,,,,,,,226,25,Male,2022-05-26_10h36.04.537,Main,2022.1.1,59.9179124591709,
positive,yellow,2,None,k,,,,,,,,,0,14,14,14,,,,,,,,,,,,,,,,,,,,,,,,,,,,,,,,,,,,,main,None,None,1,1.5064864000014495,215.48742129998573,None,None,1,,,,,,,,,,,,,,226,25,Male,2022-05-26_10h36.04.537,Main,2022.1.1,59.9179124591709,
positive,blue,1,k,None,,,,,,,,,0,15,15,15,,,,,,,,,,,,,,,,,,,,,,,,,,,,,,,,,,,,,main,k,k,1,0.8923271999956341,218.0025416999997,None,None,0,,,,,,,,,,,,,,226,25,Male,2022-05-26_10h36.04.537,Main,2022.1.1,59.9179124591709,
negative,blue,1,None,k,,,,,,,,,0,16,16,16,,,,,,,,,,,,,,,,,,,,,,,,,,,,,,,,,,,,,main,None,None,1,1.5133785999933025,219.89423479999823,None,None,1,,,,,,,,,,,,,,226,25,Male,2022-05-26_10h36.04.537,Main,2022.1.1,59.9179124591709,
positive,blue,2,k,None,,,,,,,,,0,17,17,17,,,,,,,,,,,,,,,,,,,,,,,,,,,,,,,,,,,,,main,k,k,1,0.6724791000015102,222.40633039998647,None,None,0,,,,,,,,,,,,,,226,25,Male,2022-05-26_10h36.04.537,Main,2022.1.1,59.9179124591709,
negative,blue,2,None,k,,,,,,,,,0,18,18,18,,,,,,,,,,,,,,,,,,,,,,,,,,,,,,,,,,,,,main,None,None,1,1.510680000006687,224.08228629999212,None,None,1,,,,,,,,,,,,,,226,25,Male,2022-05-26_10h36.04.537,Main,2022.1.1,59.9179124591709,
negative,blue,1,None,k,,,,,,,,,0,19,19,19,,,,,,,,,,,,,,,,,,,,,,,,,,,,,,,,,,,,,main,None,None,1,1.494780399996671,226.5952713999868,None,None,1,,,,,,,,,,,,,,226,25,Male,2022-05-26_10h36.04.537,Main,2022.1.1,59.9179124591709,
negative,blue,1,None,k,,,,,,,,,0,20,20,20,,,,,,,,,,,,,,,,,,,,,,,,,,,,,,,,,,,,,main,None,None,1,1.5074299999978393,229.0887301999901,None,None,1,,,,,,,,,,,,,,226,25,Male,2022-05-26_10h36.04.537,Main,2022.1.1,59.9179124591709,
negative,blue,2,None,k,,,,,,,,,0,21,21,21,,,,,,,,,,,,,,,,,,,,,,,,,,,,,,,,,,,,,main,None,None,1,1.5061882000009064,231.59955549999722,None,None,1,,,,,,,,,,,,,,226,25,Male,2022-05-26_10h36.04.537,Main,2022.1.1,59.9179124591709,
negative,red,1,None,None,,,,,,,,,0,22,22,22,,,,,,,,,,,,,,,,,,,,,,,,,,,,,,,,,,,,,main,None,None,1,1.5009502000029897,234.10580749998917,None,None,1,,,,,,,,,,,,,,226,25,Male,2022-05-26_10h36.04.537,Main,2022.1.1,59.9179124591709,
positive,red,2,None,None,,,,,,,,,0,23,23,23,,,,,,,,,,,,,,,,,,,,,,,,,,,,,,,,,,,,,main,None,None,1,1.510022399990703,236.6114768999978,None,None,1,,,,,,,,,,,,,,226,25,Male,2022-05-26_10h36.04.537,Main,2022.1.1,59.9179124591709,
negative,red,2,None,None,,,,,,,,,0,24,24,24,,,,,,,,,,,,,,,,,,,,,,,,,,,,,,,,,,,,,main,None,None,1,1.5108695000089938,239.1190493999893,None,None,1,,,,,,,,,,,,,,226,25,Male,2022-05-26_10h36.04.537,Main,2022.1.1,59.9179124591709,
positive,blue,2,k,None,,,,,,,,,0,25,25,25,,,,,,,,,,,,,,,,,,,,,,,,,,,,,,,,,,,,,main,k,k,1,1.0013074000016786,241.6337213999941,None,None,0,,,,,,,,,,,,,,226,25,Male,2022-05-26_10h36.04.537,Main,2022.1.1,59.9179124591709,
negative,yellow,1,k,None,,,,,,,,,0,26,26,26,,,,,,,,,,,,,,,,,,,,,,,,,,,,,,,,,,,,,main,k,k,1,0.8917079999955604,243.63717699999688,None,None,0,,,,,,,,,,,,,,226,25,Male,2022-05-26_10h36.04.537,Main,2022.1.1,59.9179124591709,
positive,blue,2,k,None,,,,,,,,,0,27,27,27,,,,,,,,,,,,,,,,,,,,,,,,,,,,,,,,,,,,,main,k,k,1,0.8515432999993209,245.5351185999898,None,None,0,,,,,,,,,,,,,,226,25,Male,2022-05-26_10h36.04.537,Main,2022.1.1,59.9179124591709,
negative,blue,2,None,k,,,,,,,,,0,28,28,28,,,,,,,,,,,,,,,,,,,,,,,,,,,,,,,,,,,,,main,None,None,1,1.499560800002655,247.386818199986,None,None,1,,,,,,,,,,,,,,226,25,Male,2022-05-26_10h36.04.537,Main,2022.1.1,59.9179124591709,
positive,red,1,None,None,,,,,,,,,0,29,29,29,,,,,,,,,,,,,,,,,,,,,,,,,,,,,,,,,,,,,main,None,None,1,1.4960662000084994,249.88735749998887,None,None,1,,,,,,,,,,,,,,226,25,Male,2022-05-26_10h36.04.537,Main,2022.1.1,59.9179124591709,
positive,blue,1,k,None,,,,,,,,,0,30,30,30,,,,,,,,,,,,,,,,,,,,,,,,,,,,,,,,,,,,,main,k,k,1,0.6515756000007968,252.38746339999489,None,None,0,,,,,,,,,,,,,,226,25,Male,2022-05-26_10h36.04.537,Main,2022.1.1,59.9179124591709,
positive,yellow,1,None,k,,,,,,,,,0,31,31,31,,,,,,,,,,,,,,,,,,,,,,,,,,,,,,,,,,,,,main,None,None,1,1.5122521000012057,254.04057489999104,None,None,1,,,,,,,,,,,,,,226,25,Male,2022-05-26_10h36.04.537,Main,2022.1.1,59.9179124591709,
negative,yellow,2,k,None,,,,,,,,,0,32,32,32,,,,,,,,,,,,,,,,,,,,,,,,,,,,,,,,,,,,,main,k,k,1,0.6478711999952793,256.55319499998586,None,None,0,,,,,,,,,,,,,,226,25,Male,2022-05-26_10h36.04.537,Main,2022.1.1,59.9179124591709,
negative,blue,1,None,k,,,,,,,,,0,33,33,33,,,,,,,,,,,,,,,,,,,,,,,,,,,,,,,,,,,,,main,None,None,1,1.4987867000018014,258.2007365999889,None,None,1,,,,,,,,,,,,,,226,25,Male,2022-05-26_10h36.04.537,Main,2022.1.1,59.9179124591709,
positive,blue,1,k,None,,,,,,,,,0,34,34,34,,,,,,,,,,,,,,,,,,,,,,,,,,,,,,,,,,,,,main,k,k,1,0.7668272000009893,260.7007797999977,None,None,0,,,,,,,,,,,,,,226,25,Male,2022-05-26_10h36.04.537,Main,2022.1.1,59.9179124591709,
negative,yellow,1,k,None,,,,,,,,,0,35,35,35,,,,,,,,,,,,,,,,,,,,,,,,,,,,,,,,,,,,,main,k,k,1,0.751024299999699,262.4733422999998,None,None,0,,,,,,,,,,,,,,226,25,Male,2022-05-26_10h36.04.537,Main,2022.1.1,59.9179124591709,
positive,yellow,2,None,k,,,,,,,,,0,36,36,36,,,,,,,,,,,,,,,,,,,,,,,,,,,,,,,,,,,,,main,None,None,1,1.5082547000056366,264.2258218999923,None,None,1,,,,,,,,,,,,,,226,25,Male,2022-05-26_10h36.04.537,Main,2022.1.1,59.9179124591709,
positive,yellow,2,None,k,,,,,,,,,0,37,37,37,,,,,,,,,,,,,,,,,,,,,,,,,,,,,,,,,,,,,main,None,None,1,1.5057688999950187,266.731999599986,None,None,1,,,,,,,,,,,,,,226,25,Male,2022-05-26_10h36.04.537,Main,2022.1.1,59.9179124591709,
negative,yellow,2,k,None,,,,,,,,,0,38,38,38,,,,,,,,,,,,,,,,,,,,,,,,,,,,,,,,,,,,,main,k,k,1,0.856463200005237,269.24603399999614,None,None,0,,,,,,,,,,,,,,226,25,Male,2022-05-26_10h36.04.537,Main,2022.1.1,59.9179124591709,
positive,yellow,1,None,k,,,,,,,,,0,39,39,39,,,,,,,,,,,,,,,,,,,,,,,,,,,,,,,,,,,,,main,None,None,1,1.5146504000003915,271.0987374999968,None,None,1,,,,,,,,,,,,,,226,25,Male,2022-05-26_10h36.04.537,Main,2022.1.1,59.9179124591709,
negative,yellow,2,k,None,,,,,,,,,0,40,40,40,,,,,,,,,,,,,,,,,,,,,,,,,,,,,,,,,,,,,main,k,k,1,1.03264940000372,273.6142046999885,None,None,0,,,,,,,,,,,,,,226,25,Male,2022-05-26_10h36.04.537,Main,2022.1.1,59.9179124591709,
positive,blue,2,k,None,,,,,,,,,0,41,41,41,,,,,,,,,,,,,,,,,,,,,,,,,,,,,,,,,,,,,main,k,k,1,0.8473001000093063,275.64957469998626,None,None,0,,,,,,,,,,,,,,226,25,Male,2022-05-26_10h36.04.537,Main,2022.1.1,59.9179124591709,
positive,blue,2,k,None,,,,,,,,,0,42,42,42,,,,,,,,,,,,,,,,,,,,,,,,,,,,,,,,,,,,,main,k,k,1,0.6645439999992959,277.4986419999914,None,None,0,,,,,,,,,,,,,,226,25,Male,2022-05-26_10h36.04.537,Main,2022.1.1,59.9179124591709,
negative,blue,2,None,k,,,,,,,,,0,43,43,43,,,,,,,,,,,,,,,,,,,,,,,,,,,,,,,,,,,,,main,None,None,1,1.5000101000041468,279.16857509998954,None,None,1,,,,,,,,,,,,,,226,25,Male,2022-05-26_10h36.04.537,Main,2022.1.1,59.9179124591709,
negative,red,1,None,None,,,,,,,,,0,44,44,44,,,,,,,,,,,,,,,,,,,,,,,,,,,,,,,,,,,,,main,None,None,1,1.5088030000042636,281.66597689999617,None,None,1,,,,,,,,,,,,,,226,25,Male,2022-05-26_10h36.04.537,Main,2022.1.1,59.9179124591709,
negative,yellow,1,k,None,,,,,,,,,0,45,45,45,,,,,,,,,,,,,,,,,,,,,,,,,,,,,,,,,,,,,main,k,k,1,0.8847557999979472,284.17824279998604,None,None,0,,,,,,,,,,,,,,226,25,Male,2022-05-26_10h36.04.537,Main,2022.1.1,59.9179124591709,
negative,yellow,1,k,None,,,,,,,,,0,46,46,46,,,,,,,,,,,,,,,,,,,,,,,,,,,,,,,,,,,,,main,k,k,1,0.7308919999923091,286.064472699989,None,None,0,,,,,,,,,,,,,,226,25,Male,2022-05-26_10h36.04.537,Main,2022.1.1,59.9179124591709,
positive,red,1,None,None,,,,,,,,,0,47,47,47,,,,,,,,,,,,,,,,,,,,,,,,,,,,,,,,,,,,,main,None,None,1,1.5055398999975296,287.79657769999176,None,None,1,,,,,,,,,,,,,,226,25,Male,2022-05-26_10h36.04.537,Main,2022.1.1,59.9179124591709,
positive,yellow,1,None,k,,,,,,,,,0,48,48,48,,,,,,,,,,,,,,,,,,,,,,,,,,,,,,,,,,,,,main,None,None,1,1.509627699997509,290.3060856999946,None,None,1,,,,,,,,,,,,,,226,25,Male,2022-05-26_10h36.04.537,Main,2022.1.1,59.9179124591709,
negative,blue,1,None,k,,,,,,,,,0,49,49,49,,,,,,,,,,,,,,,,,,,,,,,,,,,,,,,,,,,,,main,None,None,1,1.5125600999890594,292.8191575999954,None,None,1,,,,,,,,,,,,,,226,25,Male,2022-05-26_10h36.04.537,Main,2022.1.1,59.9179124591709,
positive,yellow,2,None,k,,,,,,,,,0,50,50,50,,,,,,,,,,,,,,,,,,,,,,,,,,,,,,,,,,,,,main,None,None,1,1.4981018000107724,295.32843989999674,None,None,1,,,,,,,,,,,,,,226,25,Male,2022-05-26_10h36.04.537,Main,2022.1.1,59.9179124591709,
negative,blue,1,None,k,,,,,,,,,0,51,51,51,,,,,,,,,,,,,,,,,,,,,,,,,,,,,,,,,,,,,main,None,k,0,0.7843562000052771,297.8289597999974,None,None,1,,,,,,,,,,,,,,226,25,Male,2022-05-26_10h36.04.537,Main,2022.1.1,59.9179124591709,
positive,red,2,None,None,,,,,,,,,0,52,52,52,,,,,,,,,,,,,,,,,,,,,,,,,,,,,,,,,,,,,main,None,None,1,1.4905812999932095,300.6324606999988,None,None,1,,,,,,,,,,,,,,226,25,Male,2022-05-26_10h36.04.537,Main,2022.1.1,59.9179124591709,
positive,yellow,2,None,k,,,,,,,,,0,53,53,53,,,,,,,,,,,,,,,,,,,,,,,,,,,,,,,,,,,,,main,None,None,1,1.5049399999988964,303.123585999987,None,None,1,,,,,,,,,,,,,,226,25,Male,2022-05-26_10h36.04.537,Main,2022.1.1,59.9179124591709,
negative,red,2,None,None,,,,,,,,,0,54,54,54,,,,,,,,,,,,,,,,,,,,,,,,,,,,,,,,,,,,,main,None,None,1,1.498081400000956,305.627645799992,None,None,1,,,,,,,,,,,,,,226,25,Male,2022-05-26_10h36.04.537,Main,2022.1.1,59.9179124591709,
positive,yellow,1,None,k,,,,,,,,,0,55,55,55,,,,,,,,,,,,,,,,,,,,,,,,,,,,,,,,,,,,,main,None,None,1,1.5070874000084586,308.13109429999895,None,None,1,,,,,,,,,,,,,,226,25,Male,2022-05-26_10h36.04.537,Main,2022.1.1,59.9179124591709,
negative,blue,2,None,k,,,,,,,,,0,56,56,56,,,,,,,,,,,,,,,,,,,,,,,,,,,,,,,,,,,,,main,None,None,1,1.4935031000059098,310.63786669999536,None,None,1,,,,,,,,,,,,,,226,25,Male,2022-05-26_10h36.04.537,Main,2022.1.1,59.9179124591709,
positive,blue,1,k,None,,,,,,,,,0,57,57,57,,,,,,,,,,,,,,,,,,,,,,,,,,,,,,,,,,,,,main,k,k,1,0.7621846000110963,313.13433989998884,None,None,0,,,,,,,,,,,,,,226,25,Male,2022-05-26_10h36.04.537,Main,2022.1.1,59.9179124591709,
positive,blue,1,k,None,,,,,,,,,0,58,58,58,,,,,,,,,,,,,,,,,,,,,,,,,,,,,,,,,,,,,main,k,k,1,0.6666689999983646,314.8970113999967,None,None,0,,,,,,,,,,,,,,226,25,Male,2022-05-26_10h36.04.537,Main,2022.1.1,59.9179124591709,
negative,yellow,2,k,None,,,,,,,,,0,59,59,59,,,,,,,,,,,,,,,,,,,,,,,,,,,,,,,,,,,,,main,k,k,1,0.8493975000019418,316.56751929999155,None,None,0,,,,,,,,,,,,,,226,25,Male,2022-05-26_10h36.04.537,Main,2022.1.1,59.9179124591709,
positive,red,2,None,None,,,,,,,,,0,60,60,60,,,,,,,,,,,,,,,,,,,,,,,,,,,,,,,,,,,,,main,None,None,1,1.5091333000018494,318.41953109999304,None,None,1,,,,,,,,,,,,,,226,25,Male,2022-05-26_10h36.04.537,Main,2022.1.1,59.9179124591709,
negative,yellow,1,k,None,,,,,,,,,0,61,61,61,,,,,,,,,,,,,,,,,,,,,,,,,,,,,,,,,,,,,main,k,k,1,0.8697794000036083,320.9301383999991,None,None,0,,,,,,,,,,,,,,226,25,Male,2022-05-26_10h36.04.537,Main,2022.1.1,59.9179124591709,
negative,red,1,None,None,,,,,,,,,0,62,62,62,,,,,,,,,,,,,,,,,,,,,,,,,,,,,,,,,,,,,main,None,None,1,1.4999842000106582,322.8011781999958,None,None,1,,,,,,,,,,,,,,226,25,Male,2022-05-26_10h36.04.537,Main,2022.1.1,59.9179124591709,
negative,blue,1,None,k,,,,,,,,,0,63,63,63,,,,,,,,,,,,,,,,,,,,,,,,,,,,,,,,,,,,,main,None,None,1,1.5087811999983387,325.30253569998604,None,None,1,,,,,,,,,,,,,,226,25,Male,2022-05-26_10h36.04.537,Main,2022.1.1,59.9179124591709,
positive,blue,2,k,None,,,,,,,,,0,64,64,64,,,,,,,,,,,,,,,,,,,,,,,,,,,,,,,,,,,,,main,k,k,1,0.7494749999896158,327.8093535999942,None,None,0,,,,,,,,,,,,,,226,25,Male,2022-05-26_10h36.04.537,Main,2022.1.1,59.9179124591709,
negative,yellow,2,k,None,,,,,,,,,0,65,65,65,,,,,,,,,,,,,,,,,,,,,,,,,,,,,,,,,,,,,main,k,k,1,1.1009711999940919,329.56216109999514,None,None,0,,,,,,,,,,,,,,226,25,Male,2022-05-26_10h36.04.537,Main,2022.1.1,59.9179124591709,
positive,yellow,2,None,k,,,,,,,,,0,66,66,66,,,,,,,,,,,,,,,,,,,,,,,,,,,,,,,,,,,,,main,None,None,1,1.511750400008168,331.6671660999855,None,None,1,,,,,,,,,,,,,,226,25,Male,2022-05-26_10h36.04.537,Main,2022.1.1,59.9179124591709,
positive,yellow,2,None,k,,,,,,,,,0,67,67,67,,,,,,,,,,,,,,,,,,,,,,,,,,,,,,,,,,,,,main,None,None,1,1.5053516999905696,334.1765827999916,None,None,1,,,,,,,,,,,,,,226,25,Male,2022-05-26_10h36.04.537,Main,2022.1.1,59.9179124591709,
positive,red,1,None,None,,,,,,,,,0,68,68,68,,,,,,,,,,,,,,,,,,,,,,,,,,,,,,,,,,,,,main,None,None,1,1.5041391999984626,336.6867556999932,None,None,1,,,,,,,,,,,,,,226,25,Male,2022-05-26_10h36.04.537,Main,2022.1.1,59.9179124591709,
positive,yellow,1,None,k,,,,,,,,,0,69,69,69,,,,,,,,,,,,,,,,,,,,,,,,,,,,,,,,,,,,,main,None,None,1,1.5057934999931604,339.1900387999922,None,None,1,,,,,,,,,,,,,,226,25,Male,2022-05-26_10h36.04.537,Main,2022.1.1,59.9179124591709,
negative,yellow,2,k,None,,,,,,,,,0,70,70,70,,,,,,,,,,,,,,,,,,,,,,,,,,,,,,,,,,,,,main,k,k,1,0.819285999998101,341.69967749998614,None,None,0,,,,,,,,,,,,,,226,25,Male,2022-05-26_10h36.04.537,Main,2022.1.1,59.9179124591709,
positive,yellow,1,None,k,,,,,,,,,0,71,71,71,,,,,,,,,,,,,,,,,,,,,,,,,,,,,,,,,,,,,main,None,None,1,1.5098589999979595,343.51928309998766,None,None,1,,,,,,,,,,,,,,226,25,Male,2022-05-26_10h36.04.537,Main,2022.1.1,59.9179124591709,
negative,blue,1,None,k,,,,,,,,,0,72,72,72,,,,,,,,,,,,,,,,,,,,,,,,,,,,,,,,,,,,,main,None,None,1,1.5088486000022385,346.03619009999966,None,None,1,,,,,,,,,,,,,,226,25,Male,2022-05-26_10h36.04.537,Main,2022.1.1,59.9179124591709,
negative,red,2,None,None,,,,,,,,,0,73,73,73,,,,,,,,,,,,,,,,,,,,,,,,,,,,,,,,,,,,,main,None,None,1,1.5042422999977134,348.5432010999939,None,None,1,,,,,,,,,,,,,,226,25,Male,2022-05-26_10h36.04.537,Main,2022.1.1,59.9179124591709,
positive,blue,2,k,None,,,,,,,,,0,74,74,74,,,,,,,,,,,,,,,,,,,,,,,,,,,,,,,,,,,,,main,k,k,1,1.0251716999919154,351.04901959998824,None,None,0,,,,,,,,,,,,,,226,25,Male,2022-05-26_10h36.04.537,Main,2022.1.1,59.9179124591709,
negative,blue,2,None,k,,,,,,,,,0,75,75,75,,,,,,,,,,,,,,,,,,,,,,,,,,,,,,,,,,,,,main,None,None,1,1.49705140000151,353.07213919999776,None,None,1,,,,,,,,,,,,,,226,25,Male,2022-05-26_10h36.04.537,Main,2022.1.1,59.9179124591709,
negative,blue,2,None,k,,,,,,,,,0,76,76,76,,,,,,,,,,,,,,,,,,,,,,,,,,,,,,,,,,,,,main,None,None,1,1.4945223999966402,355.5748714999936,None,None,1,,,,,,,,,,,,,,226,25,Male,2022-05-26_10h36.04.537,Main,2022.1.1,59.9179124591709,
negative,yellow,1,k,None,,,,,,,,,0,77,77,77,,,,,,,,,,,,,,,,,,,,,,,,,,,,,,,,,,,,,main,k,k,1,0.9838278999959584,358.0688354999875,None,None,0,,,,,,,,,,,,,,226,25,Male,2022-05-26_10h36.04.537,Main,2022.1.1,59.9179124591709,
positive,blue,1,k,None,,,,,,,,,0,78,78,78,,,,,,,,,,,,,,,,,,,,,,,,,,,,,,,,,,,,,main,k,k,1,0.868608899996616,360.05418349998945,None,None,0,,,,,,,,,,,,,,226,25,Male,2022-05-26_10h36.04.537,Main,2022.1.1,59.9179124591709,
positive,blue,1,k,None,,,,,,,,,0,79,79,79,,,,,,,,,,,,,,,,,,,,,,,,,,,,,,,,,,,,,main,k,k,1,0.769713599991519,361.9287915999885,None,None,0,,,,,,,,,,,,,,226,25,Male,2022-05-26_10h36.04.537,Main,2022.1.1,59.9179124591709,
positive,red,2,None,None,,,,,,,,,0,80,80,80,,,,,,,,,,,,,,,,,,,,,,,,,,,,,,,,,,,,,main,None,None,1,1.5034833999961847,363.69890349998605,None,None,1,,,,,,,,,,,,,,226,25,Male,2022-05-26_10h36.04.537,Main,2022.1.1,59.9179124591709,
positive,yellow,2,None,k,,,,,,,,,0,81,81,81,,,,,,,,,,,,,,,,,,,,,,,,,,,,,,,,,,,,,main,None,None,1,1.4988683999981731,366.20304999999644,None,None,1,,,,,,,,,,,,,,226,25,Male,2022-05-26_10h36.04.537,Main,2022.1.1,59.9179124591709,
positive,blue,1,k,None,,,,,,,,,0,82,82,82,,,,,,,,,,,,,,,,,,,,,,,,,,,,,,,,,,,,,main,k,k,1,0.8820949999935692,368.7061307999975,None,None,0,,,,,,,,,,,,,,226,25,Male,2022-05-26_10h36.04.537,Main,2022.1.1,59.9179124591709,
negative,yellow,2,k,None,,,,,,,,,0,83,83,83,,,,,,,,,,,,,,,,,,,,,,,,,,,,,,,,,,,,,main,k,k,1,0.802563299992471,370.5886521999928,None,None,0,,,,,,,,,,,,,,226,25,Male,2022-05-26_10h36.04.537,Main,2022.1.1,59.9179124591709,
positive,blue,2,k,None,,,,,,,,,0,84,84,84,,,,,,,,,,,,,,,,,,,,,,,,,,,,,,,,,,,,,main,k,k,1,0.8472329000069294,372.39363089999824,None,None,0,,,,,,,,,,,,,,226,25,Male,2022-05-26_10h36.04.537,Main,2022.1.1,59.9179124591709,
positive,yellow,1,None,k,,,,,,,,,0,85,85,85,,,,,,,,,,,,,,,,,,,,,,,,,,,,,,,,,,,,,main,None,None,1,1.5116400999977486,374.24343839999347,None,None,1,,,,,,,,,,,,,,226,25,Male,2022-05-26_10h36.04.537,Main,2022.1.1,59.9179124591709,
positive,blue,2,k,None,,,,,,,,,0,86,86,86,,,,,,,,,,,,,,,,,,,,,,,,,,,,,,,,,,,,,main,k,k,1,0.8021214000036707,376.7528559999919,None,None,0,,,,,,,,,,,,,,226,25,Male,2022-05-26_10h36.04.537,Main,2022.1.1,59.9179124591709,
positive,blue,1,k,None,,,,,,,,,0,87,87,87,,,,,,,,,,,,,,,,,,,,,,,,,,,,,,,,,,,,,main,k,k,1,0.7102620000077877,378.56058519998624,None,None,0,,,,,,,,,,,,,,226,25,Male,2022-05-26_10h36.04.537,Main,2022.1.1,59.9179124591709,
negative,yellow,2,k,None,,,,,,,,,0,88,88,88,,,,,,,,,,,,,,,,,,,,,,,,,,,,,,,,,,,,,main,k,k,1,0.8654271999985212,380.27048169999034,None,None,0,,,,,,,,,,,,,,226,25,Male,2022-05-26_10h36.04.537,Main,2022.1.1,59.9179124591709,
negative,blue,2,None,k,,,,,,,,,0,89,89,89,,,,,,,,,,,,,,,,,,,,,,,,,,,,,,,,,,,,,main,None,None,1,1.4987899000116158,382.13815289999184,None,None,1,,,,,,,,,,,,,,226,25,Male,2022-05-26_10h36.04.537,Main,2022.1.1,59.9179124591709,
positive,yellow,2,None,k,,,,,,,,,0,90,90,90,,,,,,,,,,,,,,,,,,,,,,,,,,,,,,,,,,,,,main,None,k,0,0.6806030000007013,384.6356736999878,None,None,1,,,,,,,,,,,,,,226,25,Male,2022-05-26_10h36.04.537,Main,2022.1.1,59.9179124591709,
negative,yellow,1,k,None,,,,,,,,,0,91,91,91,,,,,,,,,,,,,,,,,,,,,,,,,,,,,,,,,,,,,main,k,k,1,0.7658793000009609,387.32157409998763,None,None,0,,,,,,,,,,,,,,226,25,Male,2022-05-26_10h36.04.537,Main,2022.1.1,59.9179124591709,
negative,red,2,None,None,,,,,,,,,0,92,92,92,,,,,,,,,,,,,,,,,,,,,,,,,,,,,,,,,,,,,main,None,None,1,1.5083045000064885,389.0861504999921,None,None,1,,,,,,,,,,,,,,226,25,Male,2022-05-26_10h36.04.537,Main,2022.1.1,59.9179124591709,
negative,blue,2,None,k,,,,,,,,,0,93,93,93,,,,,,,,,,,,,,,,,,,,,,,,,,,,,,,,,,,,,main,None,None,1,1.5073415999941062,391.5980464999884,None,None,1,,,,,,,,,,,,,,226,25,Male,2022-05-26_10h36.04.537,Main,2022.1.1,59.9179124591709,
negative,blue,1,None,k,,,,,,,,,0,94,94,94,,,,,,,,,,,,,,,,,,,,,,,,,,,,,,,,,,,,,main,None,None,1,1.5031758999975864,394.11340299999574,None,None,1,,,,,,,,,,,,,,226,25,Male,2022-05-26_10h36.04.537,Main,2022.1.1,59.9179124591709,
negative,blue,1,None,k,,,,,,,,,0,95,95,95,,,,,,,,,,,,,,,,,,,,,,,,,,,,,,,,,,,,,main,None,None,1,1.5112646999914432,396.613111499988,None,None,1,,,,,,,,,,,,,,226,25,Male,2022-05-26_10h36.04.537,Main,2022.1.1,59.9179124591709,
negative,red,1,None,None,,,,,,,,,0,96,96,96,,,,,,,,,,,,,,,,,,,,,,,,,,,,,,,,,,,,,main,None,None,1,1.5093693999951938,399.1280105999904,None,None,1,,,,,,,,,,,,,,226,25,Male,2022-05-26_10h36.04.537,Main,2022.1.1,59.9179124591709,
positive,yellow,1,None,k,,,,,,,,,0,97,97,97,,,,,,,,,,,,,,,,,,,,,,,,,,,,,,,,,,,,,main,None,None,1,1.5008952999924077,401.64146049998817,None,None,1,,,,,,,,,,,,,,226,25,Male,2022-05-26_10h36.04.537,Main,2022.1.1,59.9179124591709,
negative,yellow,1,k,None,,,,,,,,,0,98,98,98,,,,,,,,,,,,,,,,,,,,,,,,,,,,,,,,,,,,,main,k,k,1,-0.40885040001012385,404.1454897999938,None,None,0,,,,,,,,,,,,,,226,25,Male,2022-05-26_10h36.04.537,Main,2022.1.1,59.9179124591709,
positive,red,1,None,None,,,,,,,,,0,99,99,99,,,,,,,,,,,,,,,,,,,,,,,,,,,,,,,,,,,,,main,None,None,1,1.4931707000068855,407.752133099988,None,None,1,,,,,,,,,,,,,,226,25,Male,2022-05-26_10h36.04.537,Main,2022.1.1,59.9179124591709,
positive,blue,1,k,None,,,,,,,,,0,100,100,100,,,,,,,,,,,,,,,,,,,,,,,,,,,,,,,,,,,,,main,k,k,1,0.8497428999980912,410.2455845999939,None,None,0,,,,,,,,,,,,,,226,25,Male,2022-05-26_10h36.04.537,Main,2022.1.1,59.9179124591709,
negative,yellow,1,k,None,,,,,,,,,0,101,101,101,,,,,,,,,,,,,,,,,,,,,,,,,,,,,,,,,,,,,main,k,k,1,0.7996805000002496,412.1003476999904,None,None,0,,,,,,,,,,,,,,226,25,Male,2022-05-26_10h36.04.537,Main,2022.1.1,59.9179124591709,
negative,blue,2,None,k,,,,,,,,,0,102,102,102,,,,,,,,,,,,,,,,,,,,,,,,,,,,,,,,,,,,,main,None,None,1,1.496827700000722,413.898203299992,None,None,1,,,,,,,,,,,,,,226,25,Male,2022-05-26_10h36.04.537,Main,2022.1.1,59.9179124591709,
negative,yellow,2,k,None,,,,,,,,,0,103,103,103,,,,,,,,,,,,,,,,,,,,,,,,,,,,,,,,,,,,,main,k,k,1,1.2404173999966588,416.4000049999886,None,None,0,,,,,,,,,,,,,,226,25,Male,2022-05-26_10h36.04.537,Main,2022.1.1,59.9179124591709,
positive,yellow,2,None,k,,,,,,,,,0,104,104,104,,,,,,,,,,,,,,,,,,,,,,,,,,,,,,,,,,,,,main,None,None,1,1.5072602000000188,418.6402029999881,None,None,1,,,,,,,,,,,,,,226,25,Male,2022-05-26_10h36.04.537,Main,2022.1.1,59.9179124591709,
positive,blue,1,k,None,,,,,,,,,0,105,105,105,,,,,,,,,,,,,,,,,,,,,,,,,,,,,,,,,,,,,main,k,k,1,0.8326907000009669,421.14710739998554,None,None,0,,,,,,,,,,,,,,226,25,Male,2022-05-26_10h36.04.537,Main,2022.1.1,59.9179124591709,
positive,blue,2,k,None,,,,,,,,,0,106,106,106,,,,,,,,,,,,,,,,,,,,,,,,,,,,,,,,,,,,,main,k,k,1,0.8043065999954706,422.98437069999636,None,None,0,,,,,,,,,,,,,,226,25,Male,2022-05-26_10h36.04.537,Main,2022.1.1,59.9179124591709,
negative,blue,1,None,k,,,,,,,,,0,107,107,107,,,,,,,,,,,,,,,,,,,,,,,,,,,,,,,,,,,,,main,None,None,1,1.507554900003015,424.7891554999951,None,None,1,,,,,,,,,,,,,,226,25,Male,2022-05-26_10h36.04.537,Main,2022.1.1,59.9179124591709,
positive,yellow,2,None,k,,,,,,,,,0,108,108,108,,,,,,,,,,,,,,,,,,,,,,,,,,,,,,,,,,,,,main,None,None,1,1.4977789999975357,427.2967595999944,None,None,1,,,,,,,,,,,,,,226,25,Male,2022-05-26_10h36.04.537,Main,2022.1.1,59.9179124591709,
negative,yellow,1,k,None,,,,,,,,,0,109,109,109,,,,,,,,,,,,,,,,,,,,,,,,,,,,,,,,,,,,,main,k,k,1,0.9830951000039931,429.79589149999083,None,None,0,,,,,,,,,,,,,,226,25,Male,2022-05-26_10h36.04.537,Main,2022.1.1,59.9179124591709,
negative,blue,2,None,k,,,,,,,,,0,110,110,110,,,,,,,,,,,,,,,,,,,,,,,,,,,,,,,,,,,,,main,None,None,1,1.497006199992029,431.7847122999956,None,None,1,,,,,,,,,,,,,,226,25,Male,2022-05-26_10h36.04.537,Main,2022.1.1,59.9179124591709,
positive,blue,2,k,None,,,,,,,,,0,111,111,111,,,,,,,,,,,,,,,,,,,,,,,,,,,,,,,,,,,,,main,k,k,1,0.7390929000102915,434.2784127999912,None,None,0,,,,,,,,,,,,,,226,25,Male,2022-05-26_10h36.04.537,Main,2022.1.1,59.9179124591709,
negative,blue,1,None,k,,,,,,,,,0,112,112,112,,,,,,,,,,,,,,,,,,,,,,,,,,,,,,,,,,,,,main,None,None,1,1.4970593999896664,436.0220019999979,None,None,1,,,,,,,,,,,,,,226,25,Male,2022-05-26_10h36.04.537,Main,2022.1.1,59.9179124591709,
positive,yellow,1,None,k,,,,,,,,,0,113,113,113,,,,,,,,,,,,,,,,,,,,,,,,,,,,,,,,,,,,,main,None,None,1,1.5071654999919701,438.52116899999965,None,None,1,,,,,,,,,,,,,,226,25,Male,2022-05-26_10h36.04.537,Main,2022.1.1,59.9179124591709,
negative,red,1,None,None,,,,,,,,,0,114,114,114,,,,,,,,,,,,,,,,,,,,,,,,,,,,,,,,,,,,,main,None,None,1,1.4992528000002494,441.0262694999983,None,None,1,,,,,,,,,,,,,,226,25,Male,2022-05-26_10h36.04.537,Main,2022.1.1,59.9179124591709,
positive,red,1,None,None,,,,,,,,,0,115,115,115,,,,,,,,,,,,,,,,,,,,,,,,,,,,,,,,,,,,,main,None,None,1,1.5154624999995576,443.5271694999974,None,None,1,,,,,,,,,,,,,,226,25,Male,2022-05-26_10h36.04.537,Main,2022.1.1,59.9179124591709,
negative,red,2,None,None,,,,,,,,,0,116,116,116,,,,,,,,,,,,,,,,,,,,,,,,,,,,,,,,,,,,,main,None,None,1,1.5132420000009006,446.04400179999357,None,None,1,,,,,,,,,,,,,,226,25,Male,2022-05-26_10h36.04.537,Main,2022.1.1,59.9179124591709,
negative,yellow,2,k,None,,,,,,,,,0,117,117,117,,,,,,,,,,,,,,,,,,,,,,,,,,,,,,,,,,,,,main,k,k,1,1.1005042000033427,448.55876079999143,None,None,0,,,,,,,,,,,,,,226,25,Male,2022-05-26_10h36.04.537,Main,2022.1.1,59.9179124591709,
positive,yellow,1,None,k,,,,,,,,,0,118,118,118,,,,,,,,,,,,,,,,,,,,,,,,,,,,,,,,,,,,,main,None,None,1,1.507731599995168,450.66521969999303,None,None,1,,,,,,,,,,,,,,226,25,Male,2022-05-26_10h36.04.537,Main,2022.1.1,59.9179124591709,
positive,red,2,None,None,,,,,,,,,0,119,119,119,,,,,,,,,,,,,,,,,,,,,,,,,,,,,,,,,,,,,main,None,None,1,1.4981413000059547,453.1732767999929,None,None,1,,,,,,,,,,,,,,226,25,Male,2022-05-26_10h36.04.537,Main,2022.1.1,59.9179124591709,
positive,blue,2,k,None,,,,,,,,,0,120,120,120,,,,,,,,,,,,,,,,,,,,,,,,,,,,,,,,,,,,,main,k,k,1,0.899733300000662,455.67329239999526,None,None,0,,,,,,,,,,,,,,226,25,Male,2022-05-26_10h36.04.537,Main,2022.1.1,59.9179124591709,
negative,red,1,None,None,,,,,,,,,0,121,121,121,,,,,,,,,,,,,,,,,,,,,,,,,,,,,,,,,,,,,main,None,None,1,1.5060953000065638,457.5789168999909,None,None,1,,,,,,,,,,,,,,226,25,Male,2022-05-26_10h36.04.537,Main,2022.1.1,59.9179124591709,
positive,yellow,2,None,k,,,,,,,,,0,122,122,122,,,,,,,,,,,,,,,,,,,,,,,,,,,,,,,,,,,,,main,None,None,1,1.4947287000104552,460.0852828999923,None,None,1,,,,,,,,,,,,,,226,25,Male,2022-05-26_10h36.04.537,Main,2022.1.1,59.9179124591709,
negative,red,2,None,None,,,,,,,,,0,123,123,123,,,,,,,,,,,,,,,,,,,,,,,,,,,,,,,,,,,,,main,None,None,1,1.5050908999983221,462.58226349999313,None,None,1,,,,,,,,,,,,,,226,25,Male,2022-05-26_10h36.04.537,Main,2022.1.1,59.9179124591709,
negative,yellow,2,k,None,,,,,,,,,0,124,124,124,,,,,,,,,,,,,,,,,,,,,,,,,,,,,,,,,,,,,main,k,k,1,1.078169100001105,465.08905609999783,None,None,0,,,,,,,,,,,,,,226,25,Male,2022-05-26_10h36.04.537,Main,2022.1.1,59.9179124591709,
positive,red,1,None,None,,,,,,,,,0,125,125,125,,,,,,,,,,,,,,,,,,,,,,,,,,,,,,,,,,,,,main,None,None,1,1.4947657999873627,467.1715930999926,None,None,1,,,,,,,,,,,,,,226,25,Male,2022-05-26_10h36.04.537,Main,2022.1.1,59.9179124591709,
negative,blue,2,None,k,,,,,,,,,0,126,126,126,,,,,,,,,,,,,,,,,,,,,,,,,,,,,,,,,,,,,main,None,None,1,1.5049844000022858,469.66841319999367,None,None,1,,,,,,,,,,,,,,226,25,Male,2022-05-26_10h36.04.537,Main,2022.1.1,59.9179124591709,
negative,blue,1,None,k,,,,,,,,,0,127,127,127,,,,,,,,,,,,,,,,,,,,,,,,,,,,,,,,,,,,,main,None,None,1,1.4989880999928573,472.1732353999978,None,None,1,,,,,,,,,,,,,,226,25,Male,2022-05-26_10h36.04.537,Main,2022.1.1,59.9179124591709,
negative,yellow,1,k,None,,,,,,,,,0,128,128,128,,,,,,,,,,,,,,,,,,,,,,,,,,,,,,,,,,,,,main,k,k,1,1.1992599999939557,474.67308109998703,None,None,0,,,,,,,,,,,,,,226,25,Male,2022-05-26_10h36.04.537,Main,2022.1.1,59.9179124591709,
negative,yellow,1,k,None,,,,,,,,,0,129,129,129,,,,,,,,,,,,,,,,,,,,,,,,,,,,,,,,,,,,,main,k,k,1,0.7633813000138616,476.8744711999898,None,None,0,,,,,,,,,,,,,,226,25,Male,2022-05-26_10h36.04.537,Main,2022.1.1,59.9179124591709,
positive,blue,1,k,None,,,,,,,,,0,130,130,130,,,,,,,,,,,,,,,,,,,,,,,,,,,,,,,,,,,,,main,k,k,1,0.8319676999963121,478.64005169998563,None,None,0,,,,,,,,,,,,,,226,25,Male,2022-05-26_10h36.04.537,Main,2022.1.1,59.9179124591709,
negative,blue,1,None,k,,,,,,,,,0,131,131,131,,,,,,,,,,,,,,,,,,,,,,,,,,,,,,,,,,,,,main,None,None,1,1.5075113000057172,480.475491899997,None,None,1,,,,,,,,,,,,,,226,25,Male,2022-05-26_10h36.04.537,Main,2022.1.1,59.9179124591709,
negative,blue,2,None,k,,,,,,,,,0,132,132,132,,,,,,,,,,,,,,,,,,,,,,,,,,,,,,,,,,,,,main,None,None,1,1.5046314999926835,482.9835568999988,None,None,1,,,,,,,,,,,,,,226,25,Male,2022-05-26_10h36.04.537,Main,2022.1.1,59.9179124591709,
positive,blue,2,k,None,,,,,,,,,0,133,133,133,,,,,,,,,,,,,,,,,,,,,,,,,,,,,,,,,,,,,main,k,k,1,0.8186199000047054,485.4874659999914,None,None,0,,,,,,,,,,,,,,226,25,Male,2022-05-26_10h36.04.537,Main,2022.1.1,59.9179124591709,
positive,red,2,None,None,,,,,,,,,0,134,134,134,,,,,,,,,,,,,,,,,,,,,,,,,,,,,,,,,,,,,main,None,None,1,1.5071900000039022,487.3130253999989,None,None,1,,,,,,,,,,,,,,226,25,Male,2022-05-26_10h36.04.537,Main,2022.1.1,59.9179124591709,
negative,yellow,2,k,None,,,,,,,,,0,135,135,135,,,,,,,,,,,,,,,,,,,,,,,,,,,,,,,,,,,,,main,k,k,1,0.871278100006748,489.8187450999976,None,None,0,,,,,,,,,,,,,,226,25,Male,2022-05-26_10h36.04.537,Main,2022.1.1,59.9179124591709,
positive,yellow,2,None,k,,,,,,,,,0,136,136,136,,,,,,,,,,,,,,,,,,,,,,,,,,,,,,,,,,,,,main,None,None,1,1.5029191999929026,491.69588549999753,None,None,1,,,,,,,,,,,,,,226,25,Male,2022-05-26_10h36.04.537,Main,2022.1.1,59.9179124591709,
positive,blue,1,k,None,,,,,,,,,0,137,137,137,,,,,,,,,,,,,,,,,,,,,,,,,,,,,,,,,,,,,main,k,k,1,0.8437410999904387,494.1981848999858,None,None,0,,,,,,,,,,,,,,226,25,Male,2022-05-26_10h36.04.537,Main,2022.1.1,59.9179124591709,
positive,yellow,1,None,k,,,,,,,,,0,138,138,138,,,,,,,,,,,,,,,,,,,,,,,,,,,,,,,,,,,,,main,None,None,1,1.496285600005649,496.0481157999893,None,None,1,,,,,,,,,,,,,,226,25,Male,2022-05-26_10h36.04.537,Main,2022.1.1,59.9179124591709,
positive,yellow,1,None,k,,,,,,,,,0,139,139,139,,,,,,,,,,,,,,,,,,,,,,,,,,,,,,,,,,,,,main,None,None,1,1.5103851000021677,498.5443252999976,None,None,1,,,,,,,,,,,,,,226,25,Male,2022-05-26_10h36.04.537,Main,2022.1.1,59.9179124591709,
positive,yellow,1,None,k,,,,,,,,,0,140,140,140,,,,,,,,,,,,,,,,,,,,,,,,,,,,,,,,,,,,,main,None,None,1,1.5026283000042895,501.05223359999945,None,None,1,,,,,,,,,,,,,,226,25,Male,2022-05-26_10h36.04.537,Main,2022.1.1,59.9179124591709,
positive,blue,1,k,None,,,,,,,,,0,141,141,141,,,,,,,,,,,,,,,,,,,,,,,,,,,,,,,,,,,,,main,k,k,1,0.767256000006455,503.56017809998593,None,None,0,,,,,,,,,,,,,,226,25,Male,2022-05-26_10h36.04.537,Main,2022.1.1,59.9179124591709,
positive,blue,2,k,None,,,,,,,,,0,142,142,142,,,,,,,,,,,,,,,,,,,,,,,,,,,,,,,,,,,,,main,k,k,1,0.9750269999931334,505.3302232999995,None,None,0,,,,,,,,,,,,,,226,25,Male,2022-05-26_10h36.04.537,Main,2022.1.1,59.9179124591709,
positive,yellow,2,None,k,,,,,,,,,0,143,143,143,,,,,,,,,,,,,,,,,,,,,,,,,,,,,,,,,,,,,main,None,None,1,1.4978331000020262,507.3062368999963,None,None,1,,,,,,,,,,,,,,226,25,Male,2022-05-26_10h36.04.537,Main,2022.1.1,59.9179124591709,
negative,yellow,2,k,None,,,,,,,,,0,144,144,144,,,,,,,,,,,,,,,,,,,,,,,,,,,,,,,,,,,,,main,k,k,1,0.8824404000042705,509.80575499999395,None,None,0,,,,,,,,,,,,,,226,25,Male,2022-05-26_10h36.04.537,Main,2022.1.1,59.9179124591709,
negative,blue,2,None,k,,,,,,,,,0,145,145,145,,,,,,,,,,,,,,,,,,,,,,,,,,,,,,,,,,,,,main,None,None,1,1.5049474000115879,511.68768889999774,None,None,1,,,,,,,,,,,,,,226,25,Male,2022-05-26_10h36.04.537,Main,2022.1.1,59.9179124591709,
negative,red,1,None,None,,,,,,,,,0,146,146,146,,,,,,,,,,,,,,,,,,,,,,,,,,,,,,,,,,,,,main,None,None,1,1.5069513999915216,514.1946442999906,None,None,1,,,,,,,,,,,,,,226,25,Male,2022-05-26_10h36.04.537,Main,2022.1.1,59.9179124591709,
positive,blue,1,k,None,,,,,,,,,0,147,147,147,,,,,,,,,,,,,,,,,,,,,,,,,,,,,,,,,,,,,main,k,k,1,1.065592099999776,516.7000657999888,None,None,0,,,,,,,,,,,,,,226,25,Male,2022-05-26_10h36.04.537,Main,2022.1.1,59.9179124591709,
positive,yellow,1,None,k,,,,,,,,,0,148,148,148,,,,,,,,,,,,,,,,,,,,,,,,,,,,,,,,,,,,,main,None,None,1,1.5044112000032328,518.7703764999897,None,None,1,,,,,,,,,,,,,,226,25,Male,2022-05-26_10h36.04.537,Main,2022.1.1,59.9179124591709,
negative,red,2,None,None,,,,,,,,,0,149,149,149,,,,,,,,,,,,,,,,,,,,,,,,,,,,,,,,,,,,,main,None,None,1,1.5079710999998497,521.2770870999957,None,None,1,,,,,,,,,,,,,,226,25,Male,2022-05-26_10h36.04.537,Main,2022.1.1,59.9179124591709,
negative,blue,1,None,k,,,,,,,,,0,150,150,150,,,,,,,,,,,,,,,,,,,,,,,,,,,,,,,,,,,,,main,None,None,1,1.5051071000052616,523.7824973999959,None,None,1,,,,,,,,,,,,,,226,25,Male,2022-05-26_10h36.04.537,Main,2022.1.1,59.9179124591709,
negative,yellow,2,k,None,,,,,,,,,0,151,151,151,,,,,,,,,,,,,,,,,,,,,,,,,,,,,,,,,,,,,main,k,k,1,0.7931601000018418,526.2926133999863,None,None,0,,,,,,,,,,,,,,226,25,Male,2022-05-26_10h36.04.537,Main,2022.1.1,59.9179124591709,
negative,blue,2,None,k,,,,,,,,,0,152,152,152,,,,,,,,,,,,,,,,,,,,,,,,,,,,,,,,,,,,,main,None,None,1,1.497684300004039,528.087701299999,None,None,1,,,,,,,,,,,,,,226,25,Male,2022-05-26_10h36.04.537,Main,2022.1.1,59.9179124591709,
negative,yellow,1,k,None,,,,,,,,,0,153,153,153,,,,,,,,,,,,,,,,,,,,,,,,,,,,,,,,,,,,,main,k,k,1,1.0488540000078501,530.5878606999904,None,None,0,,,,,,,,,,,,,,226,25,Male,2022-05-26_10h36.04.537,Main,2022.1.1,59.9179124591709,
negative,blue,1,None,k,,,,,,,,,0,154,154,154,,,,,,,,,,,,,,,,,,,,,,,,,,,,,,,,,,,,,main,None,None,1,1.5081440000067232,532.6379196999915,None,None,1,,,,,,,,,,,,,,226,25,Male,2022-05-26_10h36.04.537,Main,2022.1.1,59.9179124591709,
positive,yellow,2,None,k,,,,,,,,,0,155,155,155,,,,,,,,,,,,,,,,,,,,,,,,,,,,,,,,,,,,,main,None,None,1,1.5029288999940036,535.1460150999919,None,None,1,,,,,,,,,,,,,,226,25,Male,2022-05-26_10h36.04.537,Main,2022.1.1,59.9179124591709,
positive,red,2,None,None,,,,,,,,,0,156,156,156,,,,,,,,,,,,,,,,,,,,,,,,,,,,,,,,,,,,,main,None,None,1,1.506973099996685,537.6526415999979,None,None,1,,,,,,,,,,,,,,226,25,Male,2022-05-26_10h36.04.537,Main,2022.1.1,59.9179124591709,
positive,red,1,None,None,,,,,,,,,0,157,157,157,,,,,,,,,,,,,,,,,,,,,,,,,,,,,,,,,,,,,main,None,None,1,1.5015912000089884,540.1602558999875,None,None,1,,,,,,,,,,,,,,226,25,Male,2022-05-26_10h36.04.537,Main,2022.1.1,59.9179124591709,
positive,blue,2,k,None,,,,,,,,,0,158,158,158,,,,,,,,,,,,,,,,,,,,,,,,,,,,,,,,,,,,,main,k,k,1,1.0331369000050472,542.662799999991,None,None,0,,,,,,,,,,,,,,226,25,Male,2022-05-26_10h36.04.537,Main,2022.1.1,59.9179124591709,
negative,yellow,1,k,None,,,,,,,,,0,159,159,159,,,,,,,,,,,,,,,,,,,,,,,,,,,,,,,,,,,,,main,k,k,1,0.8517190999991726,544.6992640999961,None,None,0,,,,,,,,,,,,,,226,25,Male,2022-05-26_10h36.04.537,Main,2022.1.1,59.9179124591709,
negative,red,2,None,None,,,,,,,,,0,160,160,160,,,,,,,,,,,,,,,,,,,,,,,,,,,,,,,,,,,,,main,None,None,1,1.5094689999968978,546.5552533999871,None,None,1,,,,,,,,,,,,,,226,25,Male,2022-05-26_10h36.04.537,Main,2022.1.1,59.9179124591709,
negative,blue,1,None,k,,,,,,,,,0,161,161,161,,,,,,,,,,,,,,,,,,,,,,,,,,,,,,,,,,,,,main,None,None,1,1.495812199995271,549.0663016999897,None,None,1,,,,,,,,,,,,,,226,25,Male,2022-05-26_10h36.04.537,Main,2022.1.1,59.9179124591709,
negative,blue,1,None,k,,,,,,,,,0,162,162,162,,,,,,,,,,,,,,,,,,,,,,,,,,,,,,,,,,,,,main,None,None,1,1.499390199998743,551.5618591999955,None,None,1,,,,,,,,,,,,,,226,25,Male,2022-05-26_10h36.04.537,Main,2022.1.1,59.9179124591709,
negative,yellow,1,k,None,,,,,,,,,0,163,163,163,,,,,,,,,,,,,,,,,,,,,,,,,,,,,,,,,,,,,main,k,k,1,0.8477555000135908,554.0668011999951,None,None,0,,,,,,,,,,,,,,226,25,Male,2022-05-26_10h36.04.537,Main,2022.1.1,59.9179124591709,
negative,yellow,1,k,None,,,,,,,,,0,164,164,164,,,,,,,,,,,,,,,,,,,,,,,,,,,,,,,,,,,,,main,k,k,1,0.7483146000013221,555.9145758999948,None,None,0,,,,,,,,,,,,,,226,25,Male,2022-05-26_10h36.04.537,Main,2022.1.1,59.9179124591709,
positive,yellow,1,None,k,,,,,,,,,0,165,165,165,,,,,,,,,,,,,,,,,,,,,,,,,,,,,,,,,,,,,main,None,None,1,1.5030097999988357,557.6644925999863,None,None,1,,,,,,,,,,,,,,226,25,Male,2022-05-26_10h36.04.537,Main,2022.1.1,59.9179124591709,
negative,red,1,None,None,,,,,,,,,0,166,166,166,,,,,,,,,,,,,,,,,,,,,,,,,,,,,,,,,,,,,main,None,None,1,1.5098254999902565,560.1699725999933,None,None,1,,,,,,,,,,,,,,226,25,Male,2022-05-26_10h36.04.537,Main,2022.1.1,59.9179124591709,
negative,yellow,2,k,None,,,,,,,,,0,167,167,167,,,,,,,,,,,,,,,,,,,,,,,,,,,,,,,,,,,,,main,k,k,1,0.8396213999949396,562.6813788999862,None,None,0,,,,,,,,,,,,,,226,25,Male,2022-05-26_10h36.04.537,Main,2022.1.1,59.9179124591709,
positive,blue,2,k,None,,,,,,,,,0,168,168,168,,,,,,,,,,,,,,,,,,,,,,,,,,,,,,,,,,,,,main,k,k,1,0.8573949999990873,564.5222023999959,None,None,0,,,,,,,,,,,,,,226,25,Male,2022-05-26_10h36.04.537,Main,2022.1.1,59.9179124591709,
positive,red,2,None,None,,,,,,,,,0,169,169,169,,,,,,,,,,,,,,,,,,,,,,,,,,,,,,,,,,,,,main,None,None,1,1.4983205000025919,566.3818465999939,None,None,1,,,,,,,,,,,,,,226,25,Male,2022-05-26_10h36.04.537,Main,2022.1.1,59.9179124591709,
positive,red,1,None,None,,,,,,,,,0,170,170,170,,,,,,,,,,,,,,,,,,,,,,,,,,,,,,,,,,,,,main,None,None,1,1.5017357000033371,568.8789536999975,None,None,1,,,,,,,,,,,,,,226,25,Male,2022-05-26_10h36.04.537,Main,2022.1.1,59.9179124591709,
negative,blue,2,None,k,,,,,,,,,0,171,171,171,,,,,,,,,,,,,,,,,,,,,,,,,,,,,,,,,,,,,main,None,None,1,1.510436700002174,571.3846728999924,None,None,1,,,,,,,,,,,,,,226,25,Male,2022-05-26_10h36.04.537,Main,2022.1.1,59.9179124591709,
positive,blue,2,k,None,,,,,,,,,0,172,172,172,,,,,,,,,,,,,,,,,,,,,,,,,,,,,,,,,,,,,main,k,k,1,0.764186400003382,573.8935681999865,None,None,0,,,,,,,,,,,,,,226,25,Male,2022-05-26_10h36.04.537,Main,2022.1.1,59.9179124591709,
negative,yellow,2,k,None,,,,,,,,,0,173,173,173,,,,,,,,,,,,,,,,,,,,,,,,,,,,,,,,,,,,,main,k,k,1,0.8820979000010993,575.6595361999935,None,None,0,,,,,,,,,,,,,,226,25,Male,2022-05-26_10h36.04.537,Main,2022.1.1,59.9179124591709,
positive,yellow,2,None,k,,,,,,,,,0,174,174,174,,,,,,,,,,,,,,,,,,,,,,,,,,,,,,,,,,,,,main,None,None,1,1.498827599993092,577.546838899987,None,None,1,,,,,,,,,,,,,,226,25,Male,2022-05-26_10h36.04.537,Main,2022.1.1,59.9179124591709,
negative,blue,2,None,k,,,,,,,,,0,175,175,175,,,,,,,,,,,,,,,,,,,,,,,,,,,,,,,,,,,,,main,None,None,1,1.5151271000067936,580.0428926999884,None,None,1,,,,,,,,,,,,,,226,25,Male,2022-05-26_10h36.04.537,Main,2022.1.1,59.9179124591709,
positive,blue,1,k,None,,,,,,,,,0,176,176,176,,,,,,,,,,,,,,,,,,,,,,,,,,,,,,,,,,,,,main,k,k,1,1.0476822000055108,582.5604877999867,None,None,0,,,,,,,,,,,,,,226,25,Male,2022-05-26_10h36.04.537,Main,2022.1.1,59.9179124591709,
positive,yellow,1,None,k,,,,,,,,,0,177,177,177,,,,,,,,,,,,,,,,,,,,,,,,,,,,,,,,,,,,,main,None,None,1,1.509813500000746,584.6132208999916,None,None,1,,,,,,,,,,,,,,226,25,Male,2022-05-26_10h36.04.537,Main,2022.1.1,59.9179124591709,
positive,blue,1,k,None,,,,,,,,,0,178,178,178,,,,,,,,,,,,,,,,,,,,,,,,,,,,,,,,,,,,,main,k,k,1,0.9385118000063812,587.1222605999938,None,None,0,,,,,,,,,,,,,,226,25,Male,2022-05-26_10h36.04.537,Main,2022.1.1,59.9179124591709,
positive,yellow,2,None,k,,,,,,,,,0,179,179,179,,,,,,,,,,,,,,,,,,,,,,,,,,,,,,,,,,,,,main,None,None,1,1.5076246999960858,589.0657174999942,None,None,1,,,,,,,,,,,,,,226,25,Male,2022-05-26_10h36.04.537,Main,2022.1.1,59.9179124591709,
positive,blue,1,k,None,,,,,,,,,0,180,180,180,,,,,,,,,,,,,,,,,,,,,,,,,,,,,,,,,,,,,main,k,k,1,0.824359899997944,591.5737718999881,None,None,0,,,,,,,,,,,,,,226,25,Male,2022-05-26_10h36.04.537,Main,2022.1.1,59.9179124591709,
negative,red,1,None,None,,,,,,,,,0,181,181,181,,,,,,,,,,,,,,,,,,,,,,,,,,,,,,,,,,,,,main,None,None,1,1.4943807999952696,593.4012169999914,None,None,1,,,,,,,,,,,,,,226,25,Male,2022-05-26_10h36.04.537,Main,2022.1.1,59.9179124591709,
negative,blue,1,None,k,,,,,,,,,0,182,182,182,,,,,,,,,,,,,,,,,,,,,,,,,,,,,,,,,,,,,main,None,None,1,1.4937061999953585,595.8985065999877,None,None,1,,,,,,,,,,,,,,226,25,Male,2022-05-26_10h36.04.537,Main,2022.1.1,59.9179124591709,
negative,yellow,2,k,None,,,,,,,,,0,183,183,183,,,,,,,,,,,,,,,,,,,,,,,,,,,,,,,,,,,,,main,k,k,1,0.9585985000012442,598.3936008999881,None,None,0,,,,,,,,,,,,,,226,25,Male,2022-05-26_10h36.04.537,Main,2022.1.1,59.9179124591709,
positive,yellow,2,None,k,,,,,,,,,0,184,184,184,,,,,,,,,,,,,,,,,,,,,,,,,,,,,,,,,,,,,main,None,None,1,1.504331899996032,600.3554467999929,None,None,1,,,,,,,,,,,,,,226,25,Male,2022-05-26_10h36.04.537,Main,2022.1.1,59.9179124591709,
positive,yellow,1,None,k,,,,,,,,,0,185,185,185,,,,,,,,,,,,,,,,,,,,,,,,,,,,,,,,,,,,,main,None,None,1,1.5033995999983745,602.8605723999935,None,None,1,,,,,,,,,,,,,,226,25,Male,2022-05-26_10h36.04.537,Main,2022.1.1,59.9179124591709,
positive,red,2,None,None,,,,,,,,,0,186,186,186,,,,,,,,,,,,,,,,,,,,,,,,,,,,,,,,,,,,,main,None,None,1,1.5054434999910882,605.3656231999921,None,None,1,,,,,,,,,,,,,,226,25,Male,2022-05-26_10h36.04.537,Main,2022.1.1,59.9179124591709,
positive,blue,1,k,None,,,,,,,,,0,187,187,187,,,,,,,,,,,,,,,,,,,,,,,,,,,,,,,,,,,,,main,k,k,1,1.1887690000003204,607.8702151999896,None,None,0,,,,,,,,,,,,,,226,25,Male,2022-05-26_10h36.04.537,Main,2022.1.1,59.9179124591709,
negative,yellow,1,k,None,,,,,,,,,0,188,188,188,,,,,,,,,,,,,,,,,,,,,,,,,,,,,,,,,,,,,main,k,k,1,0.8873429999948712,610.0658513999952,None,None,0,,,,,,,,,,,,,,226,25,Male,2022-05-26_10h36.04.537,Main,2022.1.1,59.9179124591709,
positive,yellow,2,None,k,,,,,,,,,0,189,189,189,,,,,,,,,,,,,,,,,,,,,,,,,,,,,,,,,,,,,main,None,None,1,1.507503300003009,611.9543924999889,None,None,1,,,,,,,,,,,,,,226,25,Male,2022-05-26_10h36.04.537,Main,2022.1.1,59.9179124591709,
negative,yellow,2,k,None,,,,,,,,,0,190,190,190,,,,,,,,,,,,,,,,,,,,,,,,,,,,,,,,,,,,,main,k,k,1,0.8285422000044491,614.4649007999978,None,None,0,,,,,,,,,,,,,,226,25,Male,2022-05-26_10h36.04.537,Main,2022.1.1,59.9179124591709,
negative,yellow,1,k,None,,,,,,,,,0,191,191,191,,,,,,,,,,,,,,,,,,,,,,,,,,,,,,,,,,,,,main,k,k,1,1.2012519999989308,616.292706799999,None,None,0,,,,,,,,,,,,,,226,25,Male,2022-05-26_10h36.04.537,Main,2022.1.1,59.9179124591709,
positive,blue,2,k,None,,,,,,,,,0,192,192,192,,,,,,,,,,,,,,,,,,,,,,,,,,,,,,,,,,,,,main,k,k,1,0.7606149000057485,618.4972154999996,None,None,0,,,,,,,,,,,,,,226,25,Male,2022-05-26_10h36.04.537,Main,2022.1.1,59.9179124591709,
positive,yellow,1,None,k,,,,,,,,,0,193,193,193,,,,,,,,,,,,,,,,,,,,,,,,,,,,,,,,,,,,,main,None,None,1,1.4958948999992572,620.2592223999964,None,None,1,,,,,,,,,,,,,,226,25,Male,2022-05-26_10h36.04.537,Main,2022.1.1,59.9179124591709,
negative,red,2,None,None,,,,,,,,,0,194,194,194,,,,,,,,,,,,,,,,,,,,,,,,,,,,,,,,,,,,,main,None,None,1,1.5001802000042517,622.7531115999882,None,None,1,,,,,,,,,,,,,,226,25,Male,2022-05-26_10h36.04.537,Main,2022.1.1,59.9179124591709,
positive,red,1,None,None,,,,,,,,,0,195,195,195,,,,,,,,,,,,,,,,,,,,,,,,,,,,,,,,,,,,,main,None,None,1,1.50666060000367,625.2578571999911,None,None,1,,,,,,,,,,,,,,226,25,Male,2022-05-26_10h36.04.537,Main,2022.1.1,59.9179124591709,
negative,blue,1,None,k,,,,,,,,,0,196,196,196,,,,,,,,,,,,,,,,,,,,,,,,,,,,,,,,,,,,,main,None,None,1,1.5050466999964556,627.7673878999922,None,None,1,,,,,,,,,,,,,,226,25,Male,2022-05-26_10h36.04.537,Main,2022.1.1,59.9179124591709,
positive,blue,2,k,None,,,,,,,,,0,197,197,197,,,,,,,,,,,,,,,,,,,,,,,,,,,,,,,,,,,,,main,k,k,1,0.8226058999862289,630.2742408999911,None,None,0,,,,,,,,,,,,,,226,25,Male,2022-05-26_10h36.04.537,Main,2022.1.1,59.9179124591709,
negative,blue,2,None,k,,,,,,,,,0,198,198,198,,,,,,,,,,,,,,,,,,,,,,,,,,,,,,,,,,,,,main,None,None,1,1.508099900005618,632.0963117999927,None,None,1,,,,,,,,,,,,,,226,25,Male,2022-05-26_10h36.04.537,Main,2022.1.1,59.9179124591709,
negative,blue,2,None,k,,,,,,,,,0,199,199,199,,,,,,,,,,,,,,,,,,,,,,,,,,,,,,,,,,,,,main,None,None,1,1.512147699992056,634.6075996999862,None,None,1,,,,,,,,,,,,,,226,25,Male,2022-05-26_10h36.04.537,Main,2022.1.1,59.9179124591709,
positive,blue,2,k,None,,,,,,,,,0,200,200,200,,,,,,,,,,,,,,,,,,,,,,,,,,,,,,,,,,,,,main,k,k,1,0.8482389999990119,637.1182636999874,None,None,0,,,,,,,,,,,,,,226,25,Male,2022-05-26_10h36.04.537,Main,2022.1.1,59.9179124591709,
positive,blue,2,k,None,,,,,,,,,0,201,201,201,,,,,,,,,,,,,,,,,,,,,,,,,,,,,,,,,,,,,main,k,k,1,0.6496194000064861,638.9678974999988,None,None,0,,,,,,,,,,,,,,226,25,Male,2022-05-26_10h36.04.537,Main,2022.1.1,59.9179124591709,
negative,yellow,2,k,None,,,,,,,,,0,202,202,202,,,,,,,,,,,,,,,,,,,,,,,,,,,,,,,,,,,,,main,k,k,1,0.992721700007678,640.6228124999907,None,None,0,,,,,,,,,,,,,,226,25,Male,2022-05-26_10h36.04.537,Main,2022.1.1,59.9179124591709,
positive,red,1,None,None,,,,,,,,,0,203,203,203,,,,,,,,,,,,,,,,,,,,,,,,,,,,,,,,,,,,,main,None,None,1,1.5004501000075834,642.6160738999897,None,None,1,,,,,,,,,,,,,,226,25,Male,2022-05-26_10h36.04.537,Main,2022.1.1,59.9179124591709,
negative,blue,2,None,k,,,,,,,,,0,204,204,204,,,,,,,,,,,,,,,,,,,,,,,,,,,,,,,,,,,,,main,None,None,1,1.508650799994939,645.1180402999889,None,None,1,,,,,,,,,,,,,,226,25,Male,2022-05-26_10h36.04.537,Main,2022.1.1,59.9179124591709,
negative,red,1,None,None,,,,,,,,,0,205,205,205,,,,,,,,,,,,,,,,,,,,,,,,,,,,,,,,,,,,,main,None,None,1,1.5083539000042947,647.6300404999929,None,None,1,,,,,,,,,,,,,,226,25,Male,2022-05-26_10h36.04.537,Main,2022.1.1,59.9179124591709,
negative,blue,2,None,k,,,,,,,,,0,206,206,206,,,,,,,,,,,,,,,,,,,,,,,,,,,,,,,,,,,,,main,None,k,0,0.9665072000061627,650.1418172999984,None,None,1,,,,,,,,,,,,,,226,25,Male,2022-05-26_10h36.04.537,Main,2022.1.1,59.9179124591709,
negative,yellow,2,k,None,,,,,,,,,0,207,207,207,,,,,,,,,,,,,,,,,,,,,,,,,,,,,,,,,,,,,main,k,k,1,0.9653251999989152,653.120912399987,None,None,0,,,,,,,,,,,,,,226,25,Male,2022-05-26_10h36.04.537,Main,2022.1.1,59.9179124591709,
positive,yellow,2,None,k,,,,,,,,,0,208,208,208,,,,,,,,,,,,,,,,,,,,,,,,,,,,,,,,,,,,,main,None,None,1,1.4976184999977704,655.0888466999895,None,None,1,,,,,,,,,,,,,,226,25,Male,2022-05-26_10h36.04.537,Main,2022.1.1,59.9179124591709,
negative,yellow,1,k,None,,,,,,,,,0,209,209,209,,,,,,,,,,,,,,,,,,,,,,,,,,,,,,,,,,,,,main,k,k,1,0.7991994000039995,657.5837009999959,None,None,0,,,,,,,,,,,,,,226,25,Male,2022-05-26_10h36.04.537,Main,2022.1.1,59.9179124591709,
negative,red,2,None,None,,,,,,,,,0,210,210,210,,,,,,,,,,,,,,,,,,,,,,,,,,,,,,,,,,,,,main,None,None,1,1.502835799998138,659.3849738999997,None,None,1,,,,,,,,,,,,,,226,25,Male,2022-05-26_10h36.04.537,Main,2022.1.1,59.9179124591709,
negative,blue,1,None,k,,,,,,,,,0,211,211,211,,,,,,,,,,,,,,,,,,,,,,,,,,,,,,,,,,,,,main,None,None,1,1.5090895000030287,661.892054699987,None,None,1,,,,,,,,,,,,,,226,25,Male,2022-05-26_10h36.04.537,Main,2022.1.1,59.9179124591709,
negative,yellow,1,k,None,,,,,,,,,0,212,212,212,,,,,,,,,,,,,,,,,,,,,,,,,,,,,,,,,,,,,main,k,k,1,0.9585214999970049,664.3995066999923,None,None,0,,,,,,,,,,,,,,226,25,Male,2022-05-26_10h36.04.537,Main,2022.1.1,59.9179124591709,
positive,blue,1,k,None,,,,,,,,,0,213,213,213,,,,,,,,,,,,,,,,,,,,,,,,,,,,,,,,,,,,,main,k,k,1,3.0441820999985794,666.3607526999986,None,None,0,,,,,,,,,,,,,,226,25,Male,2022-05-26_10h36.04.537,Main,2022.1.1,59.9179124591709,
positive,blue,1,k,None,,,,,,,,,0,214,214,214,,,,,,,,,,,,,,,,,,,,,,,,,,,,,,,,,,,,,main,k,k,1,0.6884585000079824,671.4185382999858,None,None,0,,,,,,,,,,,,,,226,25,Male,2022-05-26_10h36.04.537,Main,2022.1.1,59.9179124591709,
positive,yellow,1,None,k,,,,,,,,,0,215,215,215,,,,,,,,,,,,,,,,,,,,,,,,,,,,,,,,,,,,,main,None,None,1,1.5061972999974387,673.1077987999888,None,None,1,,,,,,,,,,,,,,226,25,Male,2022-05-26_10h36.04.537,Main,2022.1.1,59.9179124591709,
positive,yellow,1,None,k,,,,,,,,,0,216,216,216,,,,,,,,,,,,,,,,,,,,,,,,,,,,,,,,,,,,,main,None,None,1,1.5143562000012025,675.6141640999995,None,None,1,,,,,,,,,,,,,,226,25,Male,2022-05-26_10h36.04.537,Main,2022.1.1,59.9179124591709,
positive,yellow,2,None,k,,,,,,,,,0,217,217,217,,,,,,,,,,,,,,,,,,,,,,,,,,,,,,,,,,,,,main,None,None,1,1.4980260000011185,678.1292697999888,None,None,1,,,,,,,,,,,,,,226,25,Male,2022-05-26_10h36.04.537,Main,2022.1.1,59.9179124591709,
negative,blue,1,None,k,,,,,,,,,0,218,218,218,,,,,,,,,,,,,,,,,,,,,,,,,,,,,,,,,,,,,main,None,None,1,1.507516099998611,680.6300757999998,None,None,1,,,,,,,,,,,,,,226,25,Male,2022-05-26_10h36.04.537,Main,2022.1.1,59.9179124591709,
positive,red,2,None,None,,,,,,,,,0,219,219,219,,,,,,,,,,,,,,,,,,,,,,,,,,,,,,,,,,,,,main,None,k,0,0.23219789999711793,683.1412227999972,None,None,1,,,,,,,,,,,,,,226,25,Male,2022-05-26_10h36.04.537,Main,2022.1.1,59.9179124591709,
positive,yellow,1,None,k,,,,,,,,,0,220,220,220,,,,,,,,,,,,,,,,,,,,,,,,,,,,,,,,,,,,,main,None,None,1,1.4948271000030218,685.3834217999974,None,None,1,,,,,,,,,,,,,,226,25,Male,2022-05-26_10h36.04.537,Main,2022.1.1,59.9179124591709,
positive,blue,1,k,None,,,,,,,,,0,221,221,221,,,,,,,,,,,,,,,,,,,,,,,,,,,,,,,,,,,,,main,k,k,1,0.8720402000035392,687.8787259999954,None,None,0,,,,,,,,,,,,,,226,25,Male,2022-05-26_10h36.04.537,Main,2022.1.1,59.9179124591709,
positive,yellow,2,None,k,,,,,,,,,0,222,222,222,,,,,,,,,,,,,,,,,,,,,,,,,,,,,,,,,,,,,main,None,None,1,1.5101003000017954,689.7553751999949,None,None,1,,,,,,,,,,,,,,226,25,Male,2022-05-26_10h36.04.537,Main,2022.1.1,59.9179124591709,
negative,yellow,1,k,None,,,,,,,,,0,223,223,223,,,,,,,,,,,,,,,,,,,,,,,,,,,,,,,,,,,,,main,k,k,1,0.7992804999958025,692.2643240999896,None,None,0,,,,,,,,,,,,,,226,25,Male,2022-05-26_10h36.04.537,Main,2022.1.1,59.9179124591709,
positive,yellow,2,None,k,,,,,,,,,0,224,224,224,,,,,,,,,,,,,,,,,,,,,,,,,,,,,,,,,,,,,main,None,None,1,1.4948397999978624,694.068760899987,None,None,1,,,,,,,,,,,,,,226,25,Male,2022-05-26_10h36.04.537,Main,2022.1.1,59.9179124591709,
negative,yellow,2,k,None,,,,,,,,,0,225,225,225,,,,,,,,,,,,,,,,,,,,,,,,,,,,,,,,,,,,,main,k,k,1,0.7322792000049958,696.5652521999873,None,None,0,,,,,,,,,,,,,,226,25,Male,2022-05-26_10h36.04.537,Main,2022.1.1,59.9179124591709,
negative,blue,2,None,k,,,,,,,,,0,226,226,226,,,,,,,,,,,,,,,,,,,,,,,,,,,,,,,,,,,,,main,None,None,1,1.4942333999933908,698.2977310999995,None,None,1,,,,,,,,,,,,,,226,25,Male,2022-05-26_10h36.04.537,Main,2022.1.1,59.9179124591709,
positive,red,2,None,None,,,,,,,,,0,227,227,227,,,,,,,,,,,,,,,,,,,,,,,,,,,,,,,,,,,,,main,None,None,1,1.5104430000064895,700.7921231999935,None,None,1,,,,,,,,,,,,,,226,25,Male,2022-05-26_10h36.04.537,Main,2022.1.1,59.9179124591709,
positive,blue,2,k,None,,,,,,,,,0,228,228,228,,,,,,,,,,,,,,,,,,,,,,,,,,,,,,,,,,,,,main,k,k,1,0.837532999998075,703.306079499991,None,None,0,,,,,,,,,,,,,,226,25,Male,2022-05-26_10h36.04.537,Main,2022.1.1,59.9179124591709,
negative,blue,1,None,k,,,,,,,,,0,229,229,229,,,,,,,,,,,,,,,,,,,,,,,,,,,,,,,,,,,,,main,None,None,1,1.502754700006335,705.1437787999894,None,None,1,,,,,,,,,,,,,,226,25,Male,2022-05-26_10h36.04.537,Main,2022.1.1,59.9179124591709,
positive,yellow,1,None,k,,,,,,,,,0,230,230,230,,,,,,,,,,,,,,,,,,,,,,,,,,,,,,,,,,,,,main,None,None,1,1.509802700005821,707.651123299991,None,None,1,,,,,,,,,,,,,,226,25,Male,2022-05-26_10h36.04.537,Main,2022.1.1,59.9179124591709,
negative,blue,2,None,k,,,,,,,,,0,231,231,231,,,,,,,,,,,,,,,,,,,,,,,,,,,,,,,,,,,,,main,None,None,1,1.5050326000055065,710.1585528999858,None,None,1,,,,,,,,,,,,,,226,25,Male,2022-05-26_10h36.04.537,Main,2022.1.1,59.9179124591709,
negative,red,1,None,None,,,,,,,,,0,232,232,232,,,,,,,,,,,,,,,,,,,,,,,,,,,,,,,,,,,,,main,None,None,1,1.5125794999912614,712.6695639999962,None,None,1,,,,,,,,,,,,,,226,25,Male,2022-05-26_10h36.04.537,Main,2022.1.1,59.9179124591709,
positive,blue,2,k,None,,,,,,,,,0,233,233,233,,,,,,,,,,,,,,,,,,,,,,,,,,,,,,,,,,,,,main,k,k,1,0.877200199989602,715.1830697999976,None,None,0,,,,,,,,,,,,,,226,25,Male,2022-05-26_10h36.04.537,Main,2022.1.1,59.9179124591709,
negative,yellow,1,k,None,,,,,,,,,0,234,234,234,,,,,,,,,,,,,,,,,,,,,,,,,,,,,,,,,,,,,main,k,k,1,0.8599186999927042,717.0617805999937,None,None,0,,,,,,,,,,,,,,226,25,Male,2022-05-26_10h36.04.537,Main,2022.1.1,59.9179124591709,
negative,yellow,2,k,None,,,,,,,,,0,235,235,235,,,,,,,,,,,,,,,,,,,,,,,,,,,,,,,,,,,,,main,k,k,1,0.8700665000069421,718.9249258999916,None,None,0,,,,,,,,,,,,,,226,25,Male,2022-05-26_10h36.04.537,Main,2022.1.1,59.9179124591709,
positive,red,1,None,None,,,,,,,,,0,236,236,236,,,,,,,,,,,,,,,,,,,,,,,,,,,,,,,,,,,,,main,None,None,1,1.50409609999042,720.7957084999944,None,None,1,,,,,,,,,,,,,,226,25,Male,2022-05-26_10h36.04.537,Main,2022.1.1,59.9179124591709,
negative,red,2,None,None,,,,,,,,,0,237,237,237,,,,,,,,,,,,,,,,,,,,,,,,,,,,,,,,,,,,,main,None,None,1,1.512444099993445,723.3047173999948,None,None,1,,,,,,,,,,,,,,226,25,Male,2022-05-26_10h36.04.537,Main,2022.1.1,59.9179124591709,
negative,blue,1,None,k,,,,,,,,,0,238,238,238,,,,,,,,,,,,,,,,,,,,,,,,,,,,,,,,,,,,,main,None,None,1,1.503754299992579,725.8150436999858,None,None,1,,,,,,,,,,,,,,226,25,Male,2022-05-26_10h36.04.537,Main,2022.1.1,59.9179124591709,
positive,blue,1,k,None,,,,,,,,,0,239,239,239,,,,,,,,,,,,,,,,,,,,,,,,,,,,,,,,,,,,,main,k,k,1,1.0391292999993311,728.3193588999857,None,None,0,,,,,,,,,,,,,,226,25,Male,2022-05-26_10h36.04.537,Main,2022.1.1,59.9179124591709,
,,,,,,,,,,,,,,,,,,,,,,,,,,,,,,,,,,,,,,,,,,,,,,,,,,,,,,,,,,,,,,,,,,,,,,,,,730.3463597999944,None,,,,,,,,
