distractor,target,set,ans1,ans2,rep_loop4.thisRepN,rep_loop4.thisTrialN,rep_loop4.thisN,rep_loop4.thisIndex,st2_prac_loop.thisRepN,st2_prac_loop.thisTrialN,st2_prac_loop.thisN,st2_prac_loop.thisIndex,st2_main_loop.thisRepN,st2_main_loop.thisTrialN,st2_main_loop.thisN,st2_main_loop.thisIndex,image_4.started,image_4.stopped,mouse_7.x,mouse_7.y,mouse_7.leftButton,mouse_7.midButton,mouse_7.rightButton,sound_2.started,sound_2.stopped,key_resp_3.keys,mouse_5.x,mouse_5.y,mouse_5.leftButton,mouse_5.midButton,mouse_5.rightButton,mouse_5.started,mouse_5.stopped,yes_text2.started,yes_text2.stopped,no_text2.started,no_text2.stopped,mouse_3.x,mouse_3.y,mouse_3.leftButton,mouse_3.midButton,mouse_3.rightButton,mouse_3.started,mouse_3.stopped,st_prac_back.started,st_prac_back.stopped,st_prac_text.started,st_prac_text.stopped,st_fix_back.started,st_fix_back.stopped,st_fix_2.started,st_fix_2.stopped,main_prac,st_ans,st_res,st_corr,st_rt,st_back.started,st_back.stopped,st2_resp.keys,st2_resp.corr,st_main_back.started,st_main_back.stopped,st_main_text.started,st_main_text.stopped,mouse_4.x,mouse_4.y,mouse_4.leftButton,mouse_4.midButton,mouse_4.rightButton,mouse_4.started,mouse_4.stopped,text_2.started,text_2.stopped,id*,age*,gender*,date,expName,psychopyVersion,frameRate,
,,,,,,,,,,,,,,,,,28.196341800000027,None,0.69814813,-0.24814814,0,0,0,,,,,,,,,,,,,,,,,,,,,,,,,,,,,,,,,,,,,,,,,,,,,,,,,,,,227,22,Female,2022-05-31_13h47.53.826,Main,2022.1.1,59.990989353480515,
negative,yellow,1,k,None,,,,,0,0,0,0,,,,,,,,,,,,34.56362499999996,None,None,0.76944447,-0.3962963,0,0,0,1.0033642999997028,None,90.3063588,None,90.3063588,None,-0.07777778,-0.11851852,0,0,0,0.012626799999907234,None,92.8098014000002,None,92.8098014000002,None,94.82177390000015,None,94.82177390000015,None,prac,None,None,1,1.503889000000072,96.87145310000005,None,None,1,,,,,,,,,,,,,,227,22,Female,2022-05-31_13h47.53.826,Main,2022.1.1,59.990989353480515,
positive,red,2,None,None,,,,,0,1,1,1,,,,,,,,,,,,,,,,,,,,,,,,,,,,,,,,,,,,,,,,,prac,None,None,1,1.5030483000000459,99.36677659999987,None,None,1,,,,,,,,,,,,,,227,22,Female,2022-05-31_13h47.53.826,Main,2022.1.1,59.990989353480515,
negative,blue,2,None,k,,,,,0,2,2,2,,,,,,,,,,,,,,,,,,,,,,,,,,,,,,,,,,,,,,,,,prac,k,k,1,9.687106699999731,101.86314949999996,None,None,0,,,,,,,,,,,,,,227,22,Female,2022-05-31_13h47.53.826,Main,2022.1.1,59.990989353480515,
positive,yellow,1,None,k,,,,,0,3,3,3,,,,,,,,,,,,,,,,,,,,,,,,,,,,,,,,,,,,,,,,,prac,k,k,1,1.3476909000000887,113.58348500000011,None,None,0,,,,,,,,,,,,,,227,22,Female,2022-05-31_13h47.53.826,Main,2022.1.1,59.990989353480515,
negative,blue,2,None,k,,,,,0,4,4,4,,,,,,,,,,,,,,,,,,,,,,,,,,,,,,,,,,,,,,,,,prac,k,k,1,1.164713699999993,115.93056509999997,None,None,0,,,,,,,,,,,,,,227,22,Female,2022-05-31_13h47.53.826,Main,2022.1.1,59.990989353480515,
negative,blue,1,None,k,,,,,0,5,5,5,,,,,,,,,,,,,,,,,,,,,,,,,,,,,,,,,,,,,,,,,prac,k,k,1,2.7381013000003804,118.08552449999979,None,None,0,,,,,,,,,,,,,,227,22,Female,2022-05-31_13h47.53.826,Main,2022.1.1,59.990989353480515,
negative,yellow,2,k,None,,,,,0,6,6,6,,,,,,,,,,,,,,,,,,,,,,,,,,,,,,,,,,,,,,,,,prac,None,None,1,1.502379099999871,122.83721939999987,None,None,1,,,,,,,,,,,,,,227,22,Female,2022-05-31_13h47.53.826,Main,2022.1.1,59.990989353480515,
negative,red,1,None,None,,,,,0,7,7,7,,,,,,,,,,,,,,,,,,,,,,,,,,,,,,,,,,,,,,,,,prac,None,None,1,1.5010815999999068,125.35106480000013,None,None,1,,,,,,,,,,,,,,227,22,Female,2022-05-31_13h47.53.826,Main,2022.1.1,59.990989353480515,
positive,yellow,2,None,k,,,,,0,8,8,8,,,,,,,,,,,,,,,,,,,,,,,,,,,,,,,,,,,,,,,,,prac,k,k,1,0.9711065999999846,127.8440515000002,None,None,0,,,,,,,,,,,,,,227,22,Female,2022-05-31_13h47.53.826,Main,2022.1.1,59.990989353480515,
negative,yellow,1,k,None,,,,,0,9,9,9,,,,,,,,,,,,,,,,,,,,,,,,,,,,,,,,,,,,,,,,,prac,None,None,1,1.496317099999942,129.8163252999998,None,None,1,,,,,,,,,,,,,,227,22,Female,2022-05-31_13h47.53.826,Main,2022.1.1,59.990989353480515,
positive,yellow,2,None,k,,,,,0,10,10,10,,,,,,,,,,,,,,,,,,,,,,,,,,,,,,,,,,,,,,,,,prac,k,k,1,1.0468258999999307,132.32691810000006,None,None,0,,,,,,,,,,,,,,227,22,Female,2022-05-31_13h47.53.826,Main,2022.1.1,59.990989353480515,
negative,yellow,2,k,None,,,,,0,11,11,11,,,,,,,,,,,,,,,,,,,,,,,,,,,,,,,,,,,,,,,,,prac,None,None,1,1.49925949999988,134.3653932000002,None,None,1,,,,,,,,,,,,,,227,22,Female,2022-05-31_13h47.53.826,Main,2022.1.1,59.990989353480515,
negative,red,2,None,None,,,,,0,12,12,12,,,,,,,,,,,,,,,,,,,,,,,,,,,,,,,,,,,,,,,,,prac,None,None,1,1.505037199999606,136.8662276,None,None,1,,,,,,,,,,,,,,227,22,Female,2022-05-31_13h47.53.826,Main,2022.1.1,59.990989353480515,
positive,red,1,None,None,,,,,0,13,13,13,,,,,,,,,,,,,,,,,,,,,,,,,,,,,,,,,,,,,,,,,prac,None,None,1,1.49537139999984,139.3836236000002,None,None,1,,,,,,,,,,,,,,227,22,Female,2022-05-31_13h47.53.826,Main,2022.1.1,59.990989353480515,
positive,blue,2,k,None,,,,,0,14,14,14,,,,,,,,,,,,,,,,,,,,,,,,,,,,,,,,,,,,,,,,,prac,None,None,1,1.5043381999998928,141.87180279999984,None,None,1,,,,,,,,,,,,,,227,22,Female,2022-05-31_13h47.53.826,Main,2022.1.1,59.990989353480515,
positive,blue,1,k,None,,,,,0,15,15,15,,,,,,,,,,,,,,,,,,,,,,,,,,,,,,,,,,,,,,,,,prac,None,None,1,1.5086749000001873,144.37737759999982,None,None,1,,,,,,,,,,,,,,227,22,Female,2022-05-31_13h47.53.826,Main,2022.1.1,59.990989353480515,
negative,blue,1,None,k,,,,,0,16,16,16,,,,,,,,,,,,,,,,,,,,,,,,,,,,,,,,,,,,,,,,,prac,k,k,1,0.9658449999997174,146.88800189999984,None,None,0,,,,,,,,,,,,,,227,22,Female,2022-05-31_13h47.53.826,Main,2022.1.1,59.990989353480515,
positive,blue,2,k,None,,,,,0,17,17,17,,,,,,,,,,,,,,,,,,,,,,,,,,,,,,,,,,,,,,,,,prac,None,None,1,1.4993835999998737,148.85642419999976,None,None,1,,,,,,,,,,,,,,227,22,Female,2022-05-31_13h47.53.826,Main,2022.1.1,59.990989353480515,
positive,blue,1,k,None,,,,,0,18,18,18,,,,,,,,,,,,,,,,,,,,,,,,,,,,,,,,,,,,,,,,,prac,None,None,1,1.504830100000163,151.35656419999987,None,None,1,,,,,,,,,,,,,,227,22,Female,2022-05-31_13h47.53.826,Main,2022.1.1,59.990989353480515,
positive,yellow,1,None,k,,,,,0,19,19,19,,,,,,,,,,,,,,,,,,,,,,,,,,,,,,,,,,,,,,,,,prac,k,k,1,0.9875009000002137,153.8626352000001,None,None,0,,,,,,,,,,,,,,227,22,Female,2022-05-31_13h47.53.826,Main,2022.1.1,59.990989353480515,
negative,yellow,1,k,None,,,,,1,0,20,0,,,,,,,,,,,,,,,,,,,,,,,,,,,,,,,,,,,,,,,,,prac,None,None,1,1.5008497999997417,155.85411609999983,None,None,1,,,,,,,,,,,,,,227,22,Female,2022-05-31_13h47.53.826,Main,2022.1.1,59.990989353480515,
positive,red,2,None,None,,,,,1,1,21,1,,,,,,,,,,,,,,,,,,,,,,,,,,,,,,,,,,,,,,,,,prac,None,None,1,1.5081857999998647,158.35617980000006,None,None,1,,,,,,,,,,,,,,227,22,Female,2022-05-31_13h47.53.826,Main,2022.1.1,59.990989353480515,
negative,blue,2,None,k,,,,,1,2,22,2,,,,,,,,,,,,,,,,,,,,,,,,,,,,,,,,,,,,,,,,,prac,k,k,1,1.0067228999996587,160.86339259999977,None,None,0,,,,,,,,,,,,,,227,22,Female,2022-05-31_13h47.53.826,Main,2022.1.1,59.990989353480515,
positive,yellow,1,None,k,,,,,1,3,23,3,,,,,,,,,,,,,,,,,,,,,,,,,,,,,,,,,,,,,,,,,prac,k,k,1,1.018439699999817,162.87492539999994,None,None,0,,,,,,,,,,,,,,227,22,Female,2022-05-31_13h47.53.826,Main,2022.1.1,59.990989353480515,
negative,blue,2,None,k,,,,,1,4,24,4,,,,,,,,,,,,,,,,,,,,,,,,,,,,,,,,,,,,,,,,,prac,k,k,1,1.0013159999998607,164.89653679999992,None,None,0,,,,,,,,,,,,,,227,22,Female,2022-05-31_13h47.53.826,Main,2022.1.1,59.990989353480515,
negative,blue,1,None,k,,,,,1,5,25,5,,,,,,,,,,,,,,,,,,,,,,,,,,,,,,,,,,,,,,,,,prac,k,k,1,1.124868900000365,166.89932799999997,None,None,0,,,,,,,,,,,,,,227,22,Female,2022-05-31_13h47.53.826,Main,2022.1.1,59.990989353480515,
negative,yellow,2,k,None,,,,,1,6,26,6,,,,,,,,,,,,,,,,,,,,,,,,,,,,,,,,,,,,,,,,,prac,None,None,1,1.5040463000000273,169.0246913000001,None,None,1,,,,,,,,,,,,,,227,22,Female,2022-05-31_13h47.53.826,Main,2022.1.1,59.990989353480515,
negative,red,1,None,None,,,,,1,7,27,7,,,,,,,,,,,,,,,,,,,,,,,,,,,,,,,,,,,,,,,,,prac,None,None,1,1.504007300000012,171.5284686,None,None,1,,,,,,,,,,,,,,227,22,Female,2022-05-31_13h47.53.826,Main,2022.1.1,59.990989353480515,
positive,yellow,2,None,k,,,,,1,8,28,8,,,,,,,,,,,,,,,,,,,,,,,,,,,,,,,,,,,,,,,,,prac,k,k,1,0.8463818999998693,174.03621320000002,None,None,0,,,,,,,,,,,,,,227,22,Female,2022-05-31_13h47.53.826,Main,2022.1.1,59.990989353480515,
negative,yellow,1,k,None,,,,,1,9,29,9,,,,,,,,,,,,,,,,,,,,,,,,,,,,,,,,,,,,,,,,,prac,None,None,1,1.5108538999998018,175.8839484,None,None,1,,,,,,,,,,,,,,227,22,Female,2022-05-31_13h47.53.826,Main,2022.1.1,59.990989353480515,
positive,yellow,2,None,k,,,,,1,10,30,10,,,,,,,,,,,,,,,,,,,,,,,,,,,,,,,,,,,,,,,,,prac,k,k,1,0.884112599999753,178.3937592000002,None,None,0,,,,,,,,,,,,,,227,22,Female,2022-05-31_13h47.53.826,Main,2022.1.1,59.990989353480515,
negative,yellow,2,k,None,,,,,1,11,31,11,,,,,,,,,,,,,,,,,,,,,,,,,,,,,,,,,,,,,,,,,prac,None,None,1,1.5096489000002293,180.28151620000017,None,None,1,,,,,,,,,,,,,,227,22,Female,2022-05-31_13h47.53.826,Main,2022.1.1,59.990989353480515,
negative,red,2,None,None,,,,,1,12,32,12,,,,,,,,,,,,,,,,,,,,,,,,,,,,,,,,,,,,,,,,,prac,None,None,1,1.5075400000000627,182.79260509999995,None,None,1,,,,,,,,,,,,,,227,22,Female,2022-05-31_13h47.53.826,Main,2022.1.1,59.990989353480515,
positive,red,1,None,None,,,,,1,13,33,13,,,,,,,,,,,,,,,,,,,,,,,,,,,,,,,,,,,,,,,,,prac,None,None,1,1.5086352999996961,185.3032807999998,None,None,1,,,,,,,,,,,,,,227,22,Female,2022-05-31_13h47.53.826,Main,2022.1.1,59.990989353480515,
positive,blue,2,k,None,,,,,1,14,34,14,,,,,,,,,,,,,,,,,,,,,,,,,,,,,,,,,,,,,,,,,prac,None,None,1,1.4977137000000766,187.8139372999999,None,None,1,,,,,,,,,,,,,,227,22,Female,2022-05-31_13h47.53.826,Main,2022.1.1,59.990989353480515,
positive,blue,1,k,None,,,,,1,15,35,15,,,,,,,,,,,,,,,,,,,,,,,,,,,,,,,,,,,,,,,,,prac,None,None,1,1.5005575000000135,190.31095969999978,None,None,1,,,,,,,,,,,,,,227,22,Female,2022-05-31_13h47.53.826,Main,2022.1.1,59.990989353480515,
negative,blue,1,None,k,,,,,1,16,36,16,,,,,,,,,,,,,,,,,,,,,,,,,,,,,,,,,,,,,,,,,prac,k,k,1,0.8958778000001075,192.81527079999978,None,None,0,,,,,,,,,,,,,,227,22,Female,2022-05-31_13h47.53.826,Main,2022.1.1,59.990989353480515,
positive,blue,2,k,None,,,,,1,17,37,17,,,,,,,,,,,,,,,,,,,,,,,,,,,,,,,,,,,,,,,,,prac,None,None,1,1.503079400000388,194.7105173,None,None,1,,,,,,,,,,,,,,227,22,Female,2022-05-31_13h47.53.826,Main,2022.1.1,59.990989353480515,
positive,blue,1,k,None,,,,,1,18,38,18,,,,,,,,,,,,,,,,,,,,,,,,,,,,,,,,,,,,,,,,,prac,None,None,1,1.5037718999997196,197.21722520000003,None,None,1,,,,,,,,,,,,,,227,22,Female,2022-05-31_13h47.53.826,Main,2022.1.1,59.990989353480515,
positive,yellow,1,None,k,,,,,1,19,39,19,,,,,,,,,,,,,,,,,,,,,,,,,,,,,,,,,,,,,,,,,prac,k,k,1,0.9232395000003635,199.72184509999988,None,None,0,,,,,,,,,,,,,,227,22,Female,2022-05-31_13h47.53.826,Main,2022.1.1,59.990989353480515,
,,,,,,,,,,,,,,,,,,,,,,,,,,,,,,,,,,,,,,,,,,,,,,,,,,,,,,,,,,,,,,201.66448339999988,None,201.66448339999988,None,0.037037037,-0.06574074,0,0,0,0.011692799999764247,None,,,227,22,Female,2022-05-31_13h47.53.826,Main,2022.1.1,59.990989353480515,
negative,yellow,2,k,None,,,,,,,,,0,0,0,0,,,,,,,,,,,,,,,,,,,,,,,,,,,,,,,,,203.55948949999993,None,203.55948949999993,None,main,None,None,1,1.4922579999997652,205.62565670000004,None,None,1,,,,,,,,,,,,,,227,22,Female,2022-05-31_13h47.53.826,Main,2022.1.1,59.990989353480515,
positive,red,1,None,None,,,,,,,,,0,1,1,1,,,,,,,,,,,,,,,,,,,,,,,,,,,,,,,,,,,,,main,None,None,1,1.5047618999997212,208.12219520000008,None,None,1,,,,,,,,,,,,,,227,22,Female,2022-05-31_13h47.53.826,Main,2022.1.1,59.990989353480515,
positive,blue,2,k,None,,,,,,,,,0,2,2,2,,,,,,,,,,,,,,,,,,,,,,,,,,,,,,,,,,,,,main,None,None,1,1.4954029000000446,210.63046859999986,None,None,1,,,,,,,,,,,,,,227,22,Female,2022-05-31_13h47.53.826,Main,2022.1.1,59.990989353480515,
positive,blue,1,k,None,,,,,,,,,0,3,3,3,,,,,,,,,,,,,,,,,,,,,,,,,,,,,,,,,,,,,main,None,None,1,1.5039546999996674,213.12867939999978,None,None,1,,,,,,,,,,,,,,227,22,Female,2022-05-31_13h47.53.826,Main,2022.1.1,59.990989353480515,
negative,yellow,2,k,None,,,,,,,,,0,4,4,4,,,,,,,,,,,,,,,,,,,,,,,,,,,,,,,,,,,,,main,None,None,1,1.5024474000001646,215.63264909999998,None,None,1,,,,,,,,,,,,,,227,22,Female,2022-05-31_13h47.53.826,Main,2022.1.1,59.990989353480515,
positive,yellow,2,None,k,,,,,,,,,0,5,5,5,,,,,,,,,,,,,,,,,,,,,,,,,,,,,,,,,,,,,main,k,k,1,0.7634944000001269,218.13642359999994,None,None,0,,,,,,,,,,,,,,227,22,Female,2022-05-31_13h47.53.826,Main,2022.1.1,59.990989353480515,
negative,blue,2,None,k,,,,,,,,,0,6,6,6,,,,,,,,,,,,,,,,,,,,,,,,,,,,,,,,,,,,,main,k,k,1,1.0299561000001631,219.90142689999993,None,None,0,,,,,,,,,,,,,,227,22,Female,2022-05-31_13h47.53.826,Main,2022.1.1,59.990989353480515,
positive,red,2,None,None,,,,,,,,,0,7,7,7,,,,,,,,,,,,,,,,,,,,,,,,,,,,,,,,,,,,,main,None,None,1,1.4962766999997257,221.9329014,None,None,1,,,,,,,,,,,,,,227,22,Female,2022-05-31_13h47.53.826,Main,2022.1.1,59.990989353480515,
positive,yellow,1,None,k,,,,,,,,,0,8,8,8,,,,,,,,,,,,,,,,,,,,,,,,,,,,,,,,,,,,,main,k,k,1,0.7762440999999853,224.43106529999977,None,None,0,,,,,,,,,,,,,,227,22,Female,2022-05-31_13h47.53.826,Main,2022.1.1,59.990989353480515,
negative,red,1,None,None,,,,,,,,,0,9,9,9,,,,,,,,,,,,,,,,,,,,,,,,,,,,,,,,,,,,,main,None,None,1,1.50253100000009,226.20646669999996,None,None,1,,,,,,,,,,,,,,227,22,Female,2022-05-31_13h47.53.826,Main,2022.1.1,59.990989353480515,
positive,yellow,1,None,k,,,,,,,,,0,10,10,10,,,,,,,,,,,,,,,,,,,,,,,,,,,,,,,,,,,,,main,k,k,1,0.8611312000002727,228.71274730000005,None,None,0,,,,,,,,,,,,,,227,22,Female,2022-05-31_13h47.53.826,Main,2022.1.1,59.990989353480515,
negative,yellow,1,k,None,,,,,,,,,0,11,11,11,,,,,,,,,,,,,,,,,,,,,,,,,,,,,,,,,,,,,main,None,None,1,1.5110641000001124,230.57738560000007,None,None,1,,,,,,,,,,,,,,227,22,Female,2022-05-31_13h47.53.826,Main,2022.1.1,59.990989353480515,
negative,yellow,1,k,None,,,,,,,,,0,12,12,12,,,,,,,,,,,,,,,,,,,,,,,,,,,,,,,,,,,,,main,None,None,1,1.4960722999999234,233.08637899999985,None,None,1,,,,,,,,,,,,,,227,22,Female,2022-05-31_13h47.53.826,Main,2022.1.1,59.990989353480515,
negative,red,2,None,None,,,,,,,,,0,13,13,13,,,,,,,,,,,,,,,,,,,,,,,,,,,,,,,,,,,,,main,None,None,1,1.5050152000003436,235.58570969999982,None,None,1,,,,,,,,,,,,,,227,22,Female,2022-05-31_13h47.53.826,Main,2022.1.1,59.990989353480515,
positive,yellow,2,None,k,,,,,,,,,0,14,14,14,,,,,,,,,,,,,,,,,,,,,,,,,,,,,,,,,,,,,main,k,k,1,0.7588285000001633,238.09450229999993,None,None,0,,,,,,,,,,,,,,227,22,Female,2022-05-31_13h47.53.826,Main,2022.1.1,59.990989353480515,
positive,blue,1,k,None,,,,,,,,,0,15,15,15,,,,,,,,,,,,,,,,,,,,,,,,,,,,,,,,,,,,,main,None,None,1,1.495447900000272,239.85232889999997,None,None,1,,,,,,,,,,,,,,227,22,Female,2022-05-31_13h47.53.826,Main,2022.1.1,59.990989353480515,
negative,blue,1,None,k,,,,,,,,,0,16,16,16,,,,,,,,,,,,,,,,,,,,,,,,,,,,,,,,,,,,,main,k,k,1,0.8544773999997233,242.3511238000001,None,None,0,,,,,,,,,,,,,,227,22,Female,2022-05-31_13h47.53.826,Main,2022.1.1,59.990989353480515,
positive,blue,2,k,None,,,,,,,,,0,17,17,17,,,,,,,,,,,,,,,,,,,,,,,,,,,,,,,,,,,,,main,None,None,1,1.5003044000000045,244.2093546000001,None,None,1,,,,,,,,,,,,,,227,22,Female,2022-05-31_13h47.53.826,Main,2022.1.1,59.990989353480515,
negative,blue,2,None,k,,,,,,,,,0,18,18,18,,,,,,,,,,,,,,,,,,,,,,,,,,,,,,,,,,,,,main,k,k,1,0.9271418000002996,246.71122490000016,None,None,0,,,,,,,,,,,,,,227,22,Female,2022-05-31_13h47.53.826,Main,2022.1.1,59.990989353480515,
negative,blue,1,None,k,,,,,,,,,0,19,19,19,,,,,,,,,,,,,,,,,,,,,,,,,,,,,,,,,,,,,main,k,k,1,0.9009485000001405,248.63994969999976,None,None,0,,,,,,,,,,,,,,227,22,Female,2022-05-31_13h47.53.826,Main,2022.1.1,59.990989353480515,
negative,blue,1,None,k,,,,,,,,,0,20,20,20,,,,,,,,,,,,,,,,,,,,,,,,,,,,,,,,,,,,,main,k,k,1,0.7446488999999019,250.54225330000008,None,None,0,,,,,,,,,,,,,,227,22,Female,2022-05-31_13h47.53.826,Main,2022.1.1,59.990989353480515,
negative,blue,2,None,k,,,,,,,,,0,21,21,21,,,,,,,,,,,,,,,,,,,,,,,,,,,,,,,,,,,,,main,k,k,1,0.9990555999997923,252.28637059999983,None,None,0,,,,,,,,,,,,,,227,22,Female,2022-05-31_13h47.53.826,Main,2022.1.1,59.990989353480515,
negative,red,1,None,None,,,,,,,,,0,22,22,22,,,,,,,,,,,,,,,,,,,,,,,,,,,,,,,,,,,,,main,None,None,1,1.4999448000003213,254.28931190000003,None,None,1,,,,,,,,,,,,,,227,22,Female,2022-05-31_13h47.53.826,Main,2022.1.1,59.990989353480515,
positive,red,2,None,None,,,,,,,,,0,23,23,23,,,,,,,,,,,,,,,,,,,,,,,,,,,,,,,,,,,,,main,None,None,1,1.5067732000002252,256.79125220000014,None,None,1,,,,,,,,,,,,,,227,22,Female,2022-05-31_13h47.53.826,Main,2022.1.1,59.990989353480515,
negative,red,2,None,None,,,,,,,,,0,24,24,24,,,,,,,,,,,,,,,,,,,,,,,,,,,,,,,,,,,,,main,None,None,1,1.49899860000005,259.2999943,None,None,1,,,,,,,,,,,,,,227,22,Female,2022-05-31_13h47.53.826,Main,2022.1.1,59.990989353480515,
positive,blue,2,k,None,,,,,,,,,0,25,25,25,,,,,,,,,,,,,,,,,,,,,,,,,,,,,,,,,,,,,main,None,None,1,1.498222000000169,261.8001598000001,None,None,1,,,,,,,,,,,,,,227,22,Female,2022-05-31_13h47.53.826,Main,2022.1.1,59.990989353480515,
negative,yellow,1,k,None,,,,,,,,,0,26,26,26,,,,,,,,,,,,,,,,,,,,,,,,,,,,,,,,,,,,,main,None,None,1,1.4947154999999839,264.2997918000001,None,None,1,,,,,,,,,,,,,,227,22,Female,2022-05-31_13h47.53.826,Main,2022.1.1,59.990989353480515,
positive,blue,2,k,None,,,,,,,,,0,27,27,27,,,,,,,,,,,,,,,,,,,,,,,,,,,,,,,,,,,,,main,None,None,1,1.5007051999996293,266.7981286999998,None,None,1,,,,,,,,,,,,,,227,22,Female,2022-05-31_13h47.53.826,Main,2022.1.1,59.990989353480515,
negative,blue,2,None,k,,,,,,,,,0,28,28,28,,,,,,,,,,,,,,,,,,,,,,,,,,,,,,,,,,,,,main,k,k,1,0.9678294000000278,269.30048750000014,None,None,0,,,,,,,,,,,,,,227,22,Female,2022-05-31_13h47.53.826,Main,2022.1.1,59.990989353480515,
positive,red,1,None,None,,,,,,,,,0,29,29,29,,,,,,,,,,,,,,,,,,,,,,,,,,,,,,,,,,,,,main,None,None,1,1.5103378000003431,271.2716126999999,None,None,1,,,,,,,,,,,,,,227,22,Female,2022-05-31_13h47.53.826,Main,2022.1.1,59.990989353480515,
positive,blue,1,k,None,,,,,,,,,0,30,30,30,,,,,,,,,,,,,,,,,,,,,,,,,,,,,,,,,,,,,main,None,None,1,1.51002920000019,273.7812319999998,None,None,1,,,,,,,,,,,,,,227,22,Female,2022-05-31_13h47.53.826,Main,2022.1.1,59.990989353480515,
positive,yellow,1,None,k,,,,,,,,,0,31,31,31,,,,,,,,,,,,,,,,,,,,,,,,,,,,,,,,,,,,,main,k,k,1,0.7652020999998967,276.29459289999977,None,None,0,,,,,,,,,,,,,,227,22,Female,2022-05-31_13h47.53.826,Main,2022.1.1,59.990989353480515,
negative,yellow,2,k,None,,,,,,,,,0,32,32,32,,,,,,,,,,,,,,,,,,,,,,,,,,,,,,,,,,,,,main,None,None,1,1.5041432999996687,278.0611638999999,None,None,1,,,,,,,,,,,,,,227,22,Female,2022-05-31_13h47.53.826,Main,2022.1.1,59.990989353480515,
negative,blue,1,None,k,,,,,,,,,0,33,33,33,,,,,,,,,,,,,,,,,,,,,,,,,,,,,,,,,,,,,main,k,k,1,0.9678822999999284,280.56477399999994,None,None,0,,,,,,,,,,,,,,227,22,Female,2022-05-31_13h47.53.826,Main,2022.1.1,59.990989353480515,
positive,blue,1,k,None,,,,,,,,,0,34,34,34,,,,,,,,,,,,,,,,,,,,,,,,,,,,,,,,,,,,,main,None,None,1,1.5086332000000766,282.5362691999999,None,None,1,,,,,,,,,,,,,,227,22,Female,2022-05-31_13h47.53.826,Main,2022.1.1,59.990989353480515,
negative,yellow,1,k,None,,,,,,,,,0,35,35,35,,,,,,,,,,,,,,,,,,,,,,,,,,,,,,,,,,,,,main,None,None,1,1.508325700000114,285.04616450000003,None,None,1,,,,,,,,,,,,,,227,22,Female,2022-05-31_13h47.53.826,Main,2022.1.1,59.990989353480515,
positive,yellow,2,None,k,,,,,,,,,0,36,36,36,,,,,,,,,,,,,,,,,,,,,,,,,,,,,,,,,,,,,main,k,k,1,0.7906984999999622,287.55754320000005,None,None,0,,,,,,,,,,,,,,227,22,Female,2022-05-31_13h47.53.826,Main,2022.1.1,59.990989353480515,
positive,yellow,2,None,k,,,,,,,,,0,37,37,37,,,,,,,,,,,,,,,,,,,,,,,,,,,,,,,,,,,,,main,k,k,1,0.8877699000004213,289.3479299999999,None,None,0,,,,,,,,,,,,,,227,22,Female,2022-05-31_13h47.53.826,Main,2022.1.1,59.990989353480515,
negative,yellow,2,k,None,,,,,,,,,0,38,38,38,,,,,,,,,,,,,,,,,,,,,,,,,,,,,,,,,,,,,main,None,None,1,1.5006407999999283,291.2391797,None,None,1,,,,,,,,,,,,,,227,22,Female,2022-05-31_13h47.53.826,Main,2022.1.1,59.990989353480515,
positive,yellow,1,None,k,,,,,,,,,0,39,39,39,,,,,,,,,,,,,,,,,,,,,,,,,,,,,,,,,,,,,main,k,k,1,0.754135099999985,293.7421995999998,None,None,0,,,,,,,,,,,,,,227,22,Female,2022-05-31_13h47.53.826,Main,2022.1.1,59.990989353480515,
negative,yellow,2,k,None,,,,,,,,,0,40,40,40,,,,,,,,,,,,,,,,,,,,,,,,,,,,,,,,,,,,,main,None,None,1,1.5077387000001181,295.4949004,None,None,1,,,,,,,,,,,,,,227,22,Female,2022-05-31_13h47.53.826,Main,2022.1.1,59.990989353480515,
positive,blue,2,k,None,,,,,,,,,0,41,41,41,,,,,,,,,,,,,,,,,,,,,,,,,,,,,,,,,,,,,main,None,None,1,1.5064948000003824,298.0057849,None,None,1,,,,,,,,,,,,,,227,22,Female,2022-05-31_13h47.53.826,Main,2022.1.1,59.990989353480515,
positive,blue,2,k,None,,,,,,,,,0,42,42,42,,,,,,,,,,,,,,,,,,,,,,,,,,,,,,,,,,,,,main,None,None,1,1.5000606000003245,300.5119923000002,None,None,1,,,,,,,,,,,,,,227,22,Female,2022-05-31_13h47.53.826,Main,2022.1.1,59.990989353480515,
negative,blue,2,None,k,,,,,,,,,0,43,43,43,,,,,,,,,,,,,,,,,,,,,,,,,,,,,,,,,,,,,main,k,k,1,0.8143368999999439,303.0156714,None,None,0,,,,,,,,,,,,,,227,22,Female,2022-05-31_13h47.53.826,Main,2022.1.1,59.990989353480515,
negative,red,1,None,None,,,,,,,,,0,44,44,44,,,,,,,,,,,,,,,,,,,,,,,,,,,,,,,,,,,,,main,None,None,1,1.505072200000086,304.8294664,None,None,1,,,,,,,,,,,,,,227,22,Female,2022-05-31_13h47.53.826,Main,2022.1.1,59.990989353480515,
negative,yellow,1,k,None,,,,,,,,,0,45,45,45,,,,,,,,,,,,,,,,,,,,,,,,,,,,,,,,,,,,,main,None,None,1,1.5032592000002296,307.3429414000002,None,None,1,,,,,,,,,,,,,,227,22,Female,2022-05-31_13h47.53.826,Main,2022.1.1,59.990989353480515,
negative,yellow,1,k,None,,,,,,,,,0,46,46,46,,,,,,,,,,,,,,,,,,,,,,,,,,,,,,,,,,,,,main,None,None,1,1.4999517000001106,309.8423606000001,None,None,1,,,,,,,,,,,,,,227,22,Female,2022-05-31_13h47.53.826,Main,2022.1.1,59.990989353480515,
positive,red,1,None,None,,,,,,,,,0,47,47,47,,,,,,,,,,,,,,,,,,,,,,,,,,,,,,,,,,,,,main,None,None,1,1.5096647999998822,312.3436182999999,None,None,1,,,,,,,,,,,,,,227,22,Female,2022-05-31_13h47.53.826,Main,2022.1.1,59.990989353480515,
positive,yellow,1,None,k,,,,,,,,,0,48,48,48,,,,,,,,,,,,,,,,,,,,,,,,,,,,,,,,,,,,,main,k,k,1,0.9074639000000388,314.8563972000002,None,None,0,,,,,,,,,,,,,,227,22,Female,2022-05-31_13h47.53.826,Main,2022.1.1,59.990989353480515,
negative,blue,1,None,k,,,,,,,,,0,49,49,49,,,,,,,,,,,,,,,,,,,,,,,,,,,,,,,,,,,,,main,k,k,1,0.9139025999998012,316.7661392,None,None,0,,,,,,,,,,,,,,227,22,Female,2022-05-31_13h47.53.826,Main,2022.1.1,59.990989353480515,
positive,yellow,2,None,k,,,,,,,,,0,50,50,50,,,,,,,,,,,,,,,,,,,,,,,,,,,,,,,,,,,,,main,k,k,1,0.7978137000000061,318.6812021999999,None,None,0,,,,,,,,,,,,,,227,22,Female,2022-05-31_13h47.53.826,Main,2022.1.1,59.990989353480515,
negative,blue,1,None,k,,,,,,,,,0,51,51,51,,,,,,,,,,,,,,,,,,,,,,,,,,,,,,,,,,,,,main,k,k,1,0.9033366000003298,320.4817653,None,None,0,,,,,,,,,,,,,,227,22,Female,2022-05-31_13h47.53.826,Main,2022.1.1,59.990989353480515,
positive,red,2,None,None,,,,,,,,,0,52,52,52,,,,,,,,,,,,,,,,,,,,,,,,,,,,,,,,,,,,,main,None,None,1,1.5008709999997336,322.38525979999986,None,None,1,,,,,,,,,,,,,,227,22,Female,2022-05-31_13h47.53.826,Main,2022.1.1,59.990989353480515,
positive,yellow,2,None,k,,,,,,,,,0,53,53,53,,,,,,,,,,,,,,,,,,,,,,,,,,,,,,,,,,,,,main,k,k,1,0.8872298000001138,324.88751360000015,None,None,0,,,,,,,,,,,,,,227,22,Female,2022-05-31_13h47.53.826,Main,2022.1.1,59.990989353480515,
negative,red,2,None,None,,,,,,,,,0,54,54,54,,,,,,,,,,,,,,,,,,,,,,,,,,,,,,,,,,,,,main,None,None,1,1.5070919999998296,326.7747181,None,None,1,,,,,,,,,,,,,,227,22,Female,2022-05-31_13h47.53.826,Main,2022.1.1,59.990989353480515,
positive,yellow,1,None,k,,,,,,,,,0,55,55,55,,,,,,,,,,,,,,,,,,,,,,,,,,,,,,,,,,,,,main,k,k,1,0.9242698999996719,329.2851123999999,None,None,0,,,,,,,,,,,,,,227,22,Female,2022-05-31_13h47.53.826,Main,2022.1.1,59.990989353480515,
negative,blue,2,None,k,,,,,,,,,0,56,56,56,,,,,,,,,,,,,,,,,,,,,,,,,,,,,,,,,,,,,main,k,k,1,0.9490762000000359,331.2089590999999,None,None,0,,,,,,,,,,,,,,227,22,Female,2022-05-31_13h47.53.826,Main,2022.1.1,59.990989353480515,
positive,blue,1,k,None,,,,,,,,,0,57,57,57,,,,,,,,,,,,,,,,,,,,,,,,,,,,,,,,,,,,,main,None,None,1,1.5038949000004322,333.1596386000001,None,None,1,,,,,,,,,,,,,,227,22,Female,2022-05-31_13h47.53.826,Main,2022.1.1,59.990989353480515,
positive,blue,1,k,None,,,,,,,,,0,58,58,58,,,,,,,,,,,,,,,,,,,,,,,,,,,,,,,,,,,,,main,None,None,1,1.5043704999998226,335.66711159999977,None,None,1,,,,,,,,,,,,,,227,22,Female,2022-05-31_13h47.53.826,Main,2022.1.1,59.990989353480515,
negative,yellow,2,k,None,,,,,,,,,0,59,59,59,,,,,,,,,,,,,,,,,,,,,,,,,,,,,,,,,,,,,main,None,None,1,1.4996733000002678,338.1723880999998,None,None,1,,,,,,,,,,,,,,227,22,Female,2022-05-31_13h47.53.826,Main,2022.1.1,59.990989353480515,
positive,red,2,None,None,,,,,,,,,0,60,60,60,,,,,,,,,,,,,,,,,,,,,,,,,,,,,,,,,,,,,main,None,None,1,1.4999212000002444,340.6733645999998,None,None,1,,,,,,,,,,,,,,227,22,Female,2022-05-31_13h47.53.826,Main,2022.1.1,59.990989353480515,
negative,yellow,1,k,None,,,,,,,,,0,61,61,61,,,,,,,,,,,,,,,,,,,,,,,,,,,,,,,,,,,,,main,None,None,1,1.4941060000001016,343.17676459999984,None,None,1,,,,,,,,,,,,,,227,22,Female,2022-05-31_13h47.53.826,Main,2022.1.1,59.990989353480515,
negative,red,1,None,None,,,,,,,,,0,62,62,62,,,,,,,,,,,,,,,,,,,,,,,,,,,,,,,,,,,,,main,None,None,1,1.5004303000000618,345.6712754,None,None,1,,,,,,,,,,,,,,227,22,Female,2022-05-31_13h47.53.826,Main,2022.1.1,59.990989353480515,
negative,blue,1,None,k,,,,,,,,,0,63,63,63,,,,,,,,,,,,,,,,,,,,,,,,,,,,,,,,,,,,,main,k,k,1,0.9606312999999318,348.1735509,None,None,0,,,,,,,,,,,,,,227,22,Female,2022-05-31_13h47.53.826,Main,2022.1.1,59.990989353480515,
positive,blue,2,k,None,,,,,,,,,0,64,64,64,,,,,,,,,,,,,,,,,,,,,,,,,,,,,,,,,,,,,main,None,None,1,1.4983424000001833,350.1371003999998,None,None,1,,,,,,,,,,,,,,227,22,Female,2022-05-31_13h47.53.826,Main,2022.1.1,59.990989353480515,
negative,yellow,2,k,None,,,,,,,,,0,65,65,65,,,,,,,,,,,,,,,,,,,,,,,,,,,,,,,,,,,,,main,None,None,1,1.509376699999848,352.6375374999998,None,None,1,,,,,,,,,,,,,,227,22,Female,2022-05-31_13h47.53.826,Main,2022.1.1,59.990989353480515,
positive,yellow,2,None,k,,,,,,,,,0,66,66,66,,,,,,,,,,,,,,,,,,,,,,,,,,,,,,,,,,,,,main,k,k,1,0.8554349999999431,355.1497777999998,None,None,0,,,,,,,,,,,,,,227,22,Female,2022-05-31_13h47.53.826,Main,2022.1.1,59.990989353480515,
positive,yellow,2,None,k,,,,,,,,,0,67,67,67,,,,,,,,,,,,,,,,,,,,,,,,,,,,,,,,,,,,,main,k,k,1,0.7810713999997461,357.00754959999995,None,None,0,,,,,,,,,,,,,,227,22,Female,2022-05-31_13h47.53.826,Main,2022.1.1,59.990989353480515,
positive,red,1,None,None,,,,,,,,,0,68,68,68,,,,,,,,,,,,,,,,,,,,,,,,,,,,,,,,,,,,,main,None,None,1,1.4949460000002546,358.78790119999985,None,None,1,,,,,,,,,,,,,,227,22,Female,2022-05-31_13h47.53.826,Main,2022.1.1,59.990989353480515,
positive,yellow,1,None,k,,,,,,,,,0,69,69,69,,,,,,,,,,,,,,,,,,,,,,,,,,,,,,,,,,,,,main,k,k,1,0.9124249000001328,361.28605719999996,None,None,0,,,,,,,,,,,,,,227,22,Female,2022-05-31_13h47.53.826,Main,2022.1.1,59.990989353480515,
negative,yellow,2,k,None,,,,,,,,,0,70,70,70,,,,,,,,,,,,,,,,,,,,,,,,,,,,,,,,,,,,,main,None,None,1,1.507584500000121,363.20194790000005,None,None,1,,,,,,,,,,,,,,227,22,Female,2022-05-31_13h47.53.826,Main,2022.1.1,59.990989353480515,
positive,yellow,1,None,k,,,,,,,,,0,71,71,71,,,,,,,,,,,,,,,,,,,,,,,,,,,,,,,,,,,,,main,k,k,1,0.7033558000002813,365.71301760000006,None,None,0,,,,,,,,,,,,,,227,22,Female,2022-05-31_13h47.53.826,Main,2022.1.1,59.990989353480515,
negative,blue,1,None,k,,,,,,,,,0,72,72,72,,,,,,,,,,,,,,,,,,,,,,,,,,,,,,,,,,,,,main,k,k,1,1.06813719999991,367.4176032999999,None,None,0,,,,,,,,,,,,,,227,22,Female,2022-05-31_13h47.53.826,Main,2022.1.1,59.990989353480515,
negative,red,2,None,None,,,,,,,,,0,73,73,73,,,,,,,,,,,,,,,,,,,,,,,,,,,,,,,,,,,,,main,None,None,1,1.4941921999998158,369.4894846000002,None,None,1,,,,,,,,,,,,,,227,22,Female,2022-05-31_13h47.53.826,Main,2022.1.1,59.990989353480515,
positive,blue,2,k,None,,,,,,,,,0,74,74,74,,,,,,,,,,,,,,,,,,,,,,,,,,,,,,,,,,,,,main,None,None,1,1.5104065000000446,371.9848449000001,None,None,1,,,,,,,,,,,,,,227,22,Female,2022-05-31_13h47.53.826,Main,2022.1.1,59.990989353480515,
negative,blue,2,None,k,,,,,,,,,0,75,75,75,,,,,,,,,,,,,,,,,,,,,,,,,,,,,,,,,,,,,main,k,k,1,0.793988100000206,374.49830919999977,None,None,0,,,,,,,,,,,,,,227,22,Female,2022-05-31_13h47.53.826,Main,2022.1.1,59.990989353480515,
negative,blue,2,None,k,,,,,,,,,0,76,76,76,,,,,,,,,,,,,,,,,,,,,,,,,,,,,,,,,,,,,main,k,k,1,0.6581374000002143,376.2946006000002,None,None,0,,,,,,,,,,,,,,227,22,Female,2022-05-31_13h47.53.826,Main,2022.1.1,59.990989353480515,
negative,yellow,1,k,None,,,,,,,,,0,77,77,77,,,,,,,,,,,,,,,,,,,,,,,,,,,,,,,,,,,,,main,None,None,1,1.4977304999997614,377.95139629999994,None,None,1,,,,,,,,,,,,,,227,22,Female,2022-05-31_13h47.53.826,Main,2022.1.1,59.990989353480515,
positive,blue,1,k,None,,,,,,,,,0,78,78,78,,,,,,,,,,,,,,,,,,,,,,,,,,,,,,,,,,,,,main,None,None,1,1.4986398000000918,380.4507601,None,None,1,,,,,,,,,,,,,,227,22,Female,2022-05-31_13h47.53.826,Main,2022.1.1,59.990989353480515,
positive,blue,1,k,None,,,,,,,,,0,79,79,79,,,,,,,,,,,,,,,,,,,,,,,,,,,,,,,,,,,,,main,None,None,1,1.5096653999999035,382.9509441,None,None,1,,,,,,,,,,,,,,227,22,Female,2022-05-31_13h47.53.826,Main,2022.1.1,59.990989353480515,
positive,red,2,None,None,,,,,,,,,0,80,80,80,,,,,,,,,,,,,,,,,,,,,,,,,,,,,,,,,,,,,main,None,None,1,1.503045899999961,385.4638036000001,None,None,1,,,,,,,,,,,,,,227,22,Female,2022-05-31_13h47.53.826,Main,2022.1.1,59.990989353480515,
positive,yellow,2,None,k,,,,,,,,,0,81,81,81,,,,,,,,,,,,,,,,,,,,,,,,,,,,,,,,,,,,,main,k,k,1,0.9528608999999051,387.96682520000013,None,None,0,,,,,,,,,,,,,,227,22,Female,2022-05-31_13h47.53.826,Main,2022.1.1,59.990989353480515,
positive,blue,1,k,None,,,,,,,,,0,82,82,82,,,,,,,,,,,,,,,,,,,,,,,,,,,,,,,,,,,,,main,None,None,1,1.4980758000001515,389.9230541000002,None,None,1,,,,,,,,,,,,,,227,22,Female,2022-05-31_13h47.53.826,Main,2022.1.1,59.990989353480515,
negative,yellow,2,k,None,,,,,,,,,0,83,83,83,,,,,,,,,,,,,,,,,,,,,,,,,,,,,,,,,,,,,main,None,None,1,1.499388799999906,392.42259190000004,None,None,1,,,,,,,,,,,,,,227,22,Female,2022-05-31_13h47.53.826,Main,2022.1.1,59.990989353480515,
positive,blue,2,k,None,,,,,,,,,0,84,84,84,,,,,,,,,,,,,,,,,,,,,,,,,,,,,,,,,,,,,main,None,None,1,1.5052361000002747,394.9251749,None,None,1,,,,,,,,,,,,,,227,22,Female,2022-05-31_13h47.53.826,Main,2022.1.1,59.990989353480515,
positive,yellow,1,None,k,,,,,,,,,0,85,85,85,,,,,,,,,,,,,,,,,,,,,,,,,,,,,,,,,,,,,main,k,k,1,0.8684610000000248,397.4308986000001,None,None,0,,,,,,,,,,,,,,227,22,Female,2022-05-31_13h47.53.826,Main,2022.1.1,59.990989353480515,
positive,blue,2,k,None,,,,,,,,,0,86,86,86,,,,,,,,,,,,,,,,,,,,,,,,,,,,,,,,,,,,,main,None,None,1,1.498327600000266,399.3010297999999,None,None,1,,,,,,,,,,,,,,227,22,Female,2022-05-31_13h47.53.826,Main,2022.1.1,59.990989353480515,
positive,blue,1,k,None,,,,,,,,,0,87,87,87,,,,,,,,,,,,,,,,,,,,,,,,,,,,,,,,,,,,,main,None,None,1,1.4964927999999418,401.8028122999999,None,None,1,,,,,,,,,,,,,,227,22,Female,2022-05-31_13h47.53.826,Main,2022.1.1,59.990989353480515,
negative,yellow,2,k,None,,,,,,,,,0,88,88,88,,,,,,,,,,,,,,,,,,,,,,,,,,,,,,,,,,,,,main,None,None,1,1.5015978999999788,404.2986222999998,None,None,1,,,,,,,,,,,,,,227,22,Female,2022-05-31_13h47.53.826,Main,2022.1.1,59.990989353480515,
negative,blue,2,None,k,,,,,,,,,0,89,89,89,,,,,,,,,,,,,,,,,,,,,,,,,,,,,,,,,,,,,main,k,k,1,0.8986859999999979,406.8037546999999,None,None,0,,,,,,,,,,,,,,227,22,Female,2022-05-31_13h47.53.826,Main,2022.1.1,59.990989353480515,
positive,yellow,2,None,k,,,,,,,,,0,90,90,90,,,,,,,,,,,,,,,,,,,,,,,,,,,,,,,,,,,,,main,k,k,1,0.7777064000001701,408.70535470000004,None,None,0,,,,,,,,,,,,,,227,22,Female,2022-05-31_13h47.53.826,Main,2022.1.1,59.990989353480515,
negative,yellow,1,k,None,,,,,,,,,0,91,91,91,,,,,,,,,,,,,,,,,,,,,,,,,,,,,,,,,,,,,main,None,None,1,1.5105726000001596,410.4809414000001,None,None,1,,,,,,,,,,,,,,227,22,Female,2022-05-31_13h47.53.826,Main,2022.1.1,59.990989353480515,
negative,red,2,None,None,,,,,,,,,0,92,92,92,,,,,,,,,,,,,,,,,,,,,,,,,,,,,,,,,,,,,main,None,None,1,1.500250000000051,412.9949098000002,None,None,1,,,,,,,,,,,,,,227,22,Female,2022-05-31_13h47.53.826,Main,2022.1.1,59.990989353480515,
negative,blue,2,None,k,,,,,,,,,0,93,93,93,,,,,,,,,,,,,,,,,,,,,,,,,,,,,,,,,,,,,main,k,k,1,0.931509399999868,415.4968517000002,None,None,0,,,,,,,,,,,,,,227,22,Female,2022-05-31_13h47.53.826,Main,2022.1.1,59.990989353480515,
negative,blue,1,None,k,,,,,,,,,0,94,94,94,,,,,,,,,,,,,,,,,,,,,,,,,,,,,,,,,,,,,main,k,k,1,0.9284732999999505,417.429834,None,None,0,,,,,,,,,,,,,,227,22,Female,2022-05-31_13h47.53.826,Main,2022.1.1,59.990989353480515,
negative,blue,1,None,k,,,,,,,,,0,95,95,95,,,,,,,,,,,,,,,,,,,,,,,,,,,,,,,,,,,,,main,k,k,1,0.7539262000000235,419.3618299999998,None,None,0,,,,,,,,,,,,,,227,22,Female,2022-05-31_13h47.53.826,Main,2022.1.1,59.990989353480515,
negative,red,1,None,None,,,,,,,,,0,96,96,96,,,,,,,,,,,,,,,,,,,,,,,,,,,,,,,,,,,,,main,None,None,1,1.5072900999998637,421.1191844,None,None,1,,,,,,,,,,,,,,227,22,Female,2022-05-31_13h47.53.826,Main,2022.1.1,59.990989353480515,
positive,yellow,1,None,k,,,,,,,,,0,97,97,97,,,,,,,,,,,,,,,,,,,,,,,,,,,,,,,,,,,,,main,k,k,1,0.7769462000001113,423.62789539999994,None,None,0,,,,,,,,,,,,,,227,22,Female,2022-05-31_13h47.53.826,Main,2022.1.1,59.990989353480515,
negative,yellow,1,k,None,,,,,,,,,0,98,98,98,,,,,,,,,,,,,,,,,,,,,,,,,,,,,,,,,,,,,main,None,None,1,1.5036261000000195,425.4085202000001,None,None,1,,,,,,,,,,,,,,227,22,Female,2022-05-31_13h47.53.826,Main,2022.1.1,59.990989353480515,
positive,red,1,None,None,,,,,,,,,0,99,99,99,,,,,,,,,,,,,,,,,,,,,,,,,,,,,,,,,,,,,main,None,None,1,1.5048572999999124,427.911529,None,None,1,,,,,,,,,,,,,,227,22,Female,2022-05-31_13h47.53.826,Main,2022.1.1,59.990989353480515,
positive,blue,1,k,None,,,,,,,,,0,100,100,100,,,,,,,,,,,,,,,,,,,,,,,,,,,,,,,,,,,,,main,None,None,1,1.5098431000001256,430.4200116000002,None,None,1,,,,,,,,,,,,,,227,22,Female,2022-05-31_13h47.53.826,Main,2022.1.1,59.990989353480515,
negative,yellow,1,k,None,,,,,,,,,0,101,101,101,,,,,,,,,,,,,,,,,,,,,,,,,,,,,,,,,,,,,main,None,None,1,1.513118900000336,432.92885079999996,None,None,1,,,,,,,,,,,,,,227,22,Female,2022-05-31_13h47.53.826,Main,2022.1.1,59.990989353480515,
negative,blue,2,None,k,,,,,,,,,0,102,102,102,,,,,,,,,,,,,,,,,,,,,,,,,,,,,,,,,,,,,main,k,k,1,0.800966199999948,435.4473604,None,None,0,,,,,,,,,,,,,,227,22,Female,2022-05-31_13h47.53.826,Main,2022.1.1,59.990989353480515,
negative,yellow,2,k,None,,,,,,,,,0,103,103,103,,,,,,,,,,,,,,,,,,,,,,,,,,,,,,,,,,,,,main,None,None,1,1.499101299999893,437.2488232999999,None,None,1,,,,,,,,,,,,,,227,22,Female,2022-05-31_13h47.53.826,Main,2022.1.1,59.990989353480515,
positive,yellow,2,None,k,,,,,,,,,0,104,104,104,,,,,,,,,,,,,,,,,,,,,,,,,,,,,,,,,,,,,main,k,k,1,0.7467458999999508,439.75118269999984,None,None,0,,,,,,,,,,,,,,227,22,Female,2022-05-31_13h47.53.826,Main,2022.1.1,59.990989353480515,
positive,blue,1,k,None,,,,,,,,,0,105,105,105,,,,,,,,,,,,,,,,,,,,,,,,,,,,,,,,,,,,,main,None,None,1,1.5079304999999295,441.49949229999993,None,None,1,,,,,,,,,,,,,,227,22,Female,2022-05-31_13h47.53.826,Main,2022.1.1,59.990989353480515,
positive,blue,2,k,None,,,,,,,,,0,106,106,106,,,,,,,,,,,,,,,,,,,,,,,,,,,,,,,,,,,,,main,None,None,1,1.503298900000118,444.0087392999999,None,None,1,,,,,,,,,,,,,,227,22,Female,2022-05-31_13h47.53.826,Main,2022.1.1,59.990989353480515,
negative,blue,1,None,k,,,,,,,,,0,107,107,107,,,,,,,,,,,,,,,,,,,,,,,,,,,,,,,,,,,,,main,k,k,1,0.8115305999999691,446.5154655000001,None,None,0,,,,,,,,,,,,,,227,22,Female,2022-05-31_13h47.53.826,Main,2022.1.1,59.990989353480515,
positive,yellow,2,None,k,,,,,,,,,0,108,108,108,,,,,,,,,,,,,,,,,,,,,,,,,,,,,,,,,,,,,main,k,k,1,0.7426546000001508,448.3262332999998,None,None,0,,,,,,,,,,,,,,227,22,Female,2022-05-31_13h47.53.826,Main,2022.1.1,59.990989353480515,
negative,yellow,1,k,None,,,,,,,,,0,109,109,109,,,,,,,,,,,,,,,,,,,,,,,,,,,,,,,,,,,,,main,None,None,1,1.5024607999998807,450.0721288,None,None,1,,,,,,,,,,,,,,227,22,Female,2022-05-31_13h47.53.826,Main,2022.1.1,59.990989353480515,
negative,blue,2,None,k,,,,,,,,,0,110,110,110,,,,,,,,,,,,,,,,,,,,,,,,,,,,,,,,,,,,,main,k,k,1,0.9841755000002195,452.5746979999999,None,None,0,,,,,,,,,,,,,,227,22,Female,2022-05-31_13h47.53.826,Main,2022.1.1,59.990989353480515,
positive,blue,2,k,None,,,,,,,,,0,111,111,111,,,,,,,,,,,,,,,,,,,,,,,,,,,,,,,,,,,,,main,None,None,1,1.4969962999998643,454.56044699999984,None,None,1,,,,,,,,,,,,,,227,22,Female,2022-05-31_13h47.53.826,Main,2022.1.1,59.990989353480515,
negative,blue,1,None,k,,,,,,,,,0,112,112,112,,,,,,,,,,,,,,,,,,,,,,,,,,,,,,,,,,,,,main,k,k,1,0.7568674999997711,457.0586248999998,None,None,0,,,,,,,,,,,,,,227,22,Female,2022-05-31_13h47.53.826,Main,2022.1.1,59.990989353480515,
positive,yellow,1,None,k,,,,,,,,,0,113,113,113,,,,,,,,,,,,,,,,,,,,,,,,,,,,,,,,,,,,,main,k,k,1,0.8219701999996687,458.81842719999986,None,None,0,,,,,,,,,,,,,,227,22,Female,2022-05-31_13h47.53.826,Main,2022.1.1,59.990989353480515,
negative,red,1,None,None,,,,,,,,,0,114,114,114,,,,,,,,,,,,,,,,,,,,,,,,,,,,,,,,,,,,,main,None,None,1,1.4954462999999123,460.6404794,None,None,1,,,,,,,,,,,,,,227,22,Female,2022-05-31_13h47.53.826,Main,2022.1.1,59.990989353480515,
positive,red,1,None,None,,,,,,,,,0,115,115,115,,,,,,,,,,,,,,,,,,,,,,,,,,,,,,,,,,,,,main,None,None,1,1.5109950000000936,463.1390028999999,None,None,1,,,,,,,,,,,,,,227,22,Female,2022-05-31_13h47.53.826,Main,2022.1.1,59.990989353480515,
negative,red,2,None,None,,,,,,,,,0,116,116,116,,,,,,,,,,,,,,,,,,,,,,,,,,,,,,,,,,,,,main,None,None,1,1.5077378000000863,465.65323679999983,None,None,1,,,,,,,,,,,,,,227,22,Female,2022-05-31_13h47.53.826,Main,2022.1.1,59.990989353480515,
negative,yellow,2,k,None,,,,,,,,,0,117,117,117,,,,,,,,,,,,,,,,,,,,,,,,,,,,,,,,,,,,,main,None,None,1,1.494227900000169,468.16262129999996,None,None,1,,,,,,,,,,,,,,227,22,Female,2022-05-31_13h47.53.826,Main,2022.1.1,59.990989353480515,
positive,yellow,1,None,k,,,,,,,,,0,118,118,118,,,,,,,,,,,,,,,,,,,,,,,,,,,,,,,,,,,,,main,k,k,1,0.8113689000001614,470.6562533000001,None,None,0,,,,,,,,,,,,,,227,22,Female,2022-05-31_13h47.53.826,Main,2022.1.1,59.990989353480515,
positive,red,2,None,None,,,,,,,,,0,119,119,119,,,,,,,,,,,,,,,,,,,,,,,,,,,,,,,,,,,,,main,None,None,1,1.4969660000001568,472.4707803000001,None,None,1,,,,,,,,,,,,,,227,22,Female,2022-05-31_13h47.53.826,Main,2022.1.1,59.990989353480515,
positive,blue,2,k,None,,,,,,,,,0,120,120,120,,,,,,,,,,,,,,,,,,,,,,,,,,,,,,,,,,,,,main,None,None,1,1.504722700000002,474.9709739,None,None,1,,,,,,,,,,,,,,227,22,Female,2022-05-31_13h47.53.826,Main,2022.1.1,59.990989353480515,
negative,red,1,None,None,,,,,,,,,0,121,121,121,,,,,,,,,,,,,,,,,,,,,,,,,,,,,,,,,,,,,main,None,None,1,1.5102250999998432,477.47935430000007,None,None,1,,,,,,,,,,,,,,227,22,Female,2022-05-31_13h47.53.826,Main,2022.1.1,59.990989353480515,
positive,yellow,2,None,k,,,,,,,,,0,122,122,122,,,,,,,,,,,,,,,,,,,,,,,,,,,,,,,,,,,,,main,k,k,1,0.772019999999884,479.9888433000001,None,None,0,,,,,,,,,,,,,,227,22,Female,2022-05-31_13h47.53.826,Main,2022.1.1,59.990989353480515,
negative,red,2,None,None,,,,,,,,,0,123,123,123,,,,,,,,,,,,,,,,,,,,,,,,,,,,,,,,,,,,,main,None,None,1,1.5076128000000608,481.76449649999995,None,None,1,,,,,,,,,,,,,,227,22,Female,2022-05-31_13h47.53.826,Main,2022.1.1,59.990989353480515,
negative,yellow,2,k,None,,,,,,,,,0,124,124,124,,,,,,,,,,,,,,,,,,,,,,,,,,,,,,,,,,,,,main,None,None,1,1.5086575999998786,484.27116560000013,None,None,1,,,,,,,,,,,,,,227,22,Female,2022-05-31_13h47.53.826,Main,2022.1.1,59.990989353480515,
positive,red,1,None,None,,,,,,,,,0,125,125,125,,,,,,,,,,,,,,,,,,,,,,,,,,,,,,,,,,,,,main,None,None,1,1.504403700000239,486.78271559999985,None,None,1,,,,,,,,,,,,,,227,22,Female,2022-05-31_13h47.53.826,Main,2022.1.1,59.990989353480515,
negative,blue,2,None,k,,,,,,,,,0,126,126,126,,,,,,,,,,,,,,,,,,,,,,,,,,,,,,,,,,,,,main,k,k,1,0.9688302999998086,489.2871782000002,None,None,0,,,,,,,,,,,,,,227,22,Female,2022-05-31_13h47.53.826,Main,2022.1.1,59.990989353480515,
negative,blue,1,None,k,,,,,,,,,0,127,127,127,,,,,,,,,,,,,,,,,,,,,,,,,,,,,,,,,,,,,main,k,k,1,0.7378803000001426,491.2594537,None,None,0,,,,,,,,,,,,,,227,22,Female,2022-05-31_13h47.53.826,Main,2022.1.1,59.990989353480515,
negative,yellow,1,k,None,,,,,,,,,0,128,128,128,,,,,,,,,,,,,,,,,,,,,,,,,,,,,,,,,,,,,main,None,None,1,1.5066350000001876,492.99846620000017,None,None,1,,,,,,,,,,,,,,227,22,Female,2022-05-31_13h47.53.826,Main,2022.1.1,59.990989353480515,
negative,yellow,1,k,None,,,,,,,,,0,129,129,129,,,,,,,,,,,,,,,,,,,,,,,,,,,,,,,,,,,,,main,None,None,1,1.5124418000000333,495.50610449999976,None,None,1,,,,,,,,,,,,,,227,22,Female,2022-05-31_13h47.53.826,Main,2022.1.1,59.990989353480515,
positive,blue,1,k,None,,,,,,,,,0,130,130,130,,,,,,,,,,,,,,,,,,,,,,,,,,,,,,,,,,,,,main,None,None,1,1.5035351000001356,498.0190468999999,None,None,1,,,,,,,,,,,,,,227,22,Female,2022-05-31_13h47.53.826,Main,2022.1.1,59.990989353480515,
negative,blue,1,None,k,,,,,,,,,0,131,131,131,,,,,,,,,,,,,,,,,,,,,,,,,,,,,,,,,,,,,main,k,k,1,0.6819485999999415,500.5262738000001,None,None,0,,,,,,,,,,,,,,227,22,Female,2022-05-31_13h47.53.826,Main,2022.1.1,59.990989353480515,
negative,blue,2,None,k,,,,,,,,,0,132,132,132,,,,,,,,,,,,,,,,,,,,,,,,,,,,,,,,,,,,,main,k,k,1,0.9449795000000449,502.2095433999998,None,None,0,,,,,,,,,,,,,,227,22,Female,2022-05-31_13h47.53.826,Main,2022.1.1,59.990989353480515,
positive,blue,2,k,None,,,,,,,,,0,133,133,133,,,,,,,,,,,,,,,,,,,,,,,,,,,,,,,,,,,,,main,None,None,1,1.508096900000055,504.15404149999995,None,None,1,,,,,,,,,,,,,,227,22,Female,2022-05-31_13h47.53.826,Main,2022.1.1,59.990989353480515,
positive,red,2,None,None,,,,,,,,,0,134,134,134,,,,,,,,,,,,,,,,,,,,,,,,,,,,,,,,,,,,,main,None,None,1,1.5036998999999014,506.66488449999997,None,None,1,,,,,,,,,,,,,,227,22,Female,2022-05-31_13h47.53.826,Main,2022.1.1,59.990989353480515,
negative,yellow,2,k,None,,,,,,,,,0,135,135,135,,,,,,,,,,,,,,,,,,,,,,,,,,,,,,,,,,,,,main,None,k,0,0.8984211000001778,509.1683191000002,None,None,1,,,,,,,,,,,,,,227,22,Female,2022-05-31_13h47.53.826,Main,2022.1.1,59.990989353480515,
positive,yellow,2,None,k,,,,,,,,,0,136,136,136,,,,,,,,,,,,,,,,,,,,,,,,,,,,,,,,,,,,,main,k,k,1,0.8413786000000982,512.0867969999999,None,None,0,,,,,,,,,,,,,,227,22,Female,2022-05-31_13h47.53.826,Main,2022.1.1,59.990989353480515,
positive,blue,1,k,None,,,,,,,,,0,137,137,137,,,,,,,,,,,,,,,,,,,,,,,,,,,,,,,,,,,,,main,None,None,1,1.5040223999999398,513.9293849000001,None,None,1,,,,,,,,,,,,,,227,22,Female,2022-05-31_13h47.53.826,Main,2022.1.1,59.990989353480515,
positive,yellow,1,None,k,,,,,,,,,0,138,138,138,,,,,,,,,,,,,,,,,,,,,,,,,,,,,,,,,,,,,main,k,k,1,0.8160563999999795,516.4333568000002,None,None,0,,,,,,,,,,,,,,227,22,Female,2022-05-31_13h47.53.826,Main,2022.1.1,59.990989353480515,
positive,yellow,1,None,k,,,,,,,,,0,139,139,139,,,,,,,,,,,,,,,,,,,,,,,,,,,,,,,,,,,,,main,k,k,1,0.5981933999996727,518.2507727000002,None,None,0,,,,,,,,,,,,,,227,22,Female,2022-05-31_13h47.53.826,Main,2022.1.1,59.990989353480515,
positive,yellow,1,None,k,,,,,,,,,0,140,140,140,,,,,,,,,,,,,,,,,,,,,,,,,,,,,,,,,,,,,main,k,k,1,0.683077200000298,519.8503015000001,None,None,0,,,,,,,,,,,,,,227,22,Female,2022-05-31_13h47.53.826,Main,2022.1.1,59.990989353480515,
positive,blue,1,k,None,,,,,,,,,0,141,141,141,,,,,,,,,,,,,,,,,,,,,,,,,,,,,,,,,,,,,main,None,None,1,1.501672299999882,521.5349302999998,None,None,1,,,,,,,,,,,,,,227,22,Female,2022-05-31_13h47.53.826,Main,2022.1.1,59.990989353480515,
positive,blue,2,k,None,,,,,,,,,0,142,142,142,,,,,,,,,,,,,,,,,,,,,,,,,,,,,,,,,,,,,main,None,None,1,1.506632599999648,524.0402564999999,None,None,1,,,,,,,,,,,,,,227,22,Female,2022-05-31_13h47.53.826,Main,2022.1.1,59.990989353480515,
positive,yellow,2,None,k,,,,,,,,,0,143,143,143,,,,,,,,,,,,,,,,,,,,,,,,,,,,,,,,,,,,,main,k,k,1,0.8630167999999685,526.5477747,None,None,0,,,,,,,,,,,,,,227,22,Female,2022-05-31_13h47.53.826,Main,2022.1.1,59.990989353480515,
negative,yellow,2,k,None,,,,,,,,,0,144,144,144,,,,,,,,,,,,,,,,,,,,,,,,,,,,,,,,,,,,,main,None,None,1,1.4987999999998465,528.4142425999999,None,None,1,,,,,,,,,,,,,,227,22,Female,2022-05-31_13h47.53.826,Main,2022.1.1,59.990989353480515,
negative,blue,2,None,k,,,,,,,,,0,145,145,145,,,,,,,,,,,,,,,,,,,,,,,,,,,,,,,,,,,,,main,k,k,1,0.8199174999999741,530.9145484000001,None,None,0,,,,,,,,,,,,,,227,22,Female,2022-05-31_13h47.53.826,Main,2022.1.1,59.990989353480515,
negative,red,1,None,None,,,,,,,,,0,146,146,146,,,,,,,,,,,,,,,,,,,,,,,,,,,,,,,,,,,,,main,None,None,1,1.4952849999999671,532.7382551999999,None,None,1,,,,,,,,,,,,,,227,22,Female,2022-05-31_13h47.53.826,Main,2022.1.1,59.990989353480515,
positive,blue,1,k,None,,,,,,,,,0,147,147,147,,,,,,,,,,,,,,,,,,,,,,,,,,,,,,,,,,,,,main,None,None,1,1.5103582000001552,535.232728,None,None,1,,,,,,,,,,,,,,227,22,Female,2022-05-31_13h47.53.826,Main,2022.1.1,59.990989353480515,
positive,yellow,1,None,k,,,,,,,,,0,148,148,148,,,,,,,,,,,,,,,,,,,,,,,,,,,,,,,,,,,,,main,k,k,1,0.751389300000028,537.7464097000002,None,None,0,,,,,,,,,,,,,,227,22,Female,2022-05-31_13h47.53.826,Main,2022.1.1,59.990989353480515,
negative,red,2,None,None,,,,,,,,,0,149,149,149,,,,,,,,,,,,,,,,,,,,,,,,,,,,,,,,,,,,,main,None,None,1,1.5085023000001456,539.4988917999999,None,None,1,,,,,,,,,,,,,,227,22,Female,2022-05-31_13h47.53.826,Main,2022.1.1,59.990989353480515,
negative,blue,1,None,k,,,,,,,,,0,150,150,150,,,,,,,,,,,,,,,,,,,,,,,,,,,,,,,,,,,,,main,k,k,1,0.8974493000000621,542.0103293000002,None,None,0,,,,,,,,,,,,,,227,22,Female,2022-05-31_13h47.53.826,Main,2022.1.1,59.990989353480515,
negative,yellow,2,k,None,,,,,,,,,0,151,151,151,,,,,,,,,,,,,,,,,,,,,,,,,,,,,,,,,,,,,main,None,None,1,1.5050541000000521,543.9098371,None,None,1,,,,,,,,,,,,,,227,22,Female,2022-05-31_13h47.53.826,Main,2022.1.1,59.990989353480515,
negative,blue,2,None,k,,,,,,,,,0,152,152,152,,,,,,,,,,,,,,,,,,,,,,,,,,,,,,,,,,,,,main,k,k,1,1.0149731999999858,546.4146200999999,None,None,0,,,,,,,,,,,,,,227,22,Female,2022-05-31_13h47.53.826,Main,2022.1.1,59.990989353480515,
negative,yellow,1,k,None,,,,,,,,,0,153,153,153,,,,,,,,,,,,,,,,,,,,,,,,,,,,,,,,,,,,,main,None,None,1,1.4985555000002933,548.4328313000001,None,None,1,,,,,,,,,,,,,,227,22,Female,2022-05-31_13h47.53.826,Main,2022.1.1,59.990989353480515,
negative,blue,1,None,k,,,,,,,,,0,154,154,154,,,,,,,,,,,,,,,,,,,,,,,,,,,,,,,,,,,,,main,k,k,1,0.825217000000066,550.9309423,None,None,0,,,,,,,,,,,,,,227,22,Female,2022-05-31_13h47.53.826,Main,2022.1.1,59.990989353480515,
positive,yellow,2,None,k,,,,,,,,,0,155,155,155,,,,,,,,,,,,,,,,,,,,,,,,,,,,,,,,,,,,,main,k,k,1,0.7250360000002729,552.7586660000002,None,None,0,,,,,,,,,,,,,,227,22,Female,2022-05-31_13h47.53.826,Main,2022.1.1,59.990989353480515,
positive,red,2,None,None,,,,,,,,,0,156,156,156,,,,,,,,,,,,,,,,,,,,,,,,,,,,,,,,,,,,,main,None,None,1,1.4996598999996422,554.4859858999998,None,None,1,,,,,,,,,,,,,,227,22,Female,2022-05-31_13h47.53.826,Main,2022.1.1,59.990989353480515,
positive,red,1,None,None,,,,,,,,,0,157,157,157,,,,,,,,,,,,,,,,,,,,,,,,,,,,,,,,,,,,,main,None,None,1,1.5088826000001063,556.9873665999999,None,None,1,,,,,,,,,,,,,,227,22,Female,2022-05-31_13h47.53.826,Main,2022.1.1,59.990989353480515,
positive,blue,2,k,None,,,,,,,,,0,158,158,158,,,,,,,,,,,,,,,,,,,,,,,,,,,,,,,,,,,,,main,None,None,1,1.5071951999998419,559.4953535,None,None,1,,,,,,,,,,,,,,227,22,Female,2022-05-31_13h47.53.826,Main,2022.1.1,59.990989353480515,
negative,yellow,1,k,None,,,,,,,,,0,159,159,159,,,,,,,,,,,,,,,,,,,,,,,,,,,,,,,,,,,,,main,None,None,1,1.5052277000004324,562.0057437999999,None,None,1,,,,,,,,,,,,,,227,22,Female,2022-05-31_13h47.53.826,Main,2022.1.1,59.990989353480515,
negative,red,2,None,None,,,,,,,,,0,160,160,160,,,,,,,,,,,,,,,,,,,,,,,,,,,,,,,,,,,,,main,None,None,1,1.4953476999999111,564.5103930999999,None,None,1,,,,,,,,,,,,,,227,22,Female,2022-05-31_13h47.53.826,Main,2022.1.1,59.990989353480515,
negative,blue,1,None,k,,,,,,,,,0,161,161,161,,,,,,,,,,,,,,,,,,,,,,,,,,,,,,,,,,,,,main,k,k,1,0.8684243000002425,567.0092479999998,None,None,0,,,,,,,,,,,,,,227,22,Female,2022-05-31_13h47.53.826,Main,2022.1.1,59.990989353480515,
negative,blue,1,None,k,,,,,,,,,0,162,162,162,,,,,,,,,,,,,,,,,,,,,,,,,,,,,,,,,,,,,main,k,k,1,0.7815144000001055,568.8790051999999,None,None,0,,,,,,,,,,,,,,227,22,Female,2022-05-31_13h47.53.826,Main,2022.1.1,59.990989353480515,
negative,yellow,1,k,None,,,,,,,,,0,163,163,163,,,,,,,,,,,,,,,,,,,,,,,,,,,,,,,,,,,,,main,None,None,1,1.504641399999855,570.6618772000002,None,None,1,,,,,,,,,,,,,,227,22,Female,2022-05-31_13h47.53.826,Main,2022.1.1,59.990989353480515,
negative,yellow,1,k,None,,,,,,,,,0,164,164,164,,,,,,,,,,,,,,,,,,,,,,,,,,,,,,,,,,,,,main,None,None,1,1.5013812999995935,573.1698234,None,None,1,,,,,,,,,,,,,,227,22,Female,2022-05-31_13h47.53.826,Main,2022.1.1,59.990989353480515,
positive,yellow,1,None,k,,,,,,,,,0,165,165,165,,,,,,,,,,,,,,,,,,,,,,,,,,,,,,,,,,,,,main,k,k,1,0.7730398000003333,575.6728626999998,None,None,0,,,,,,,,,,,,,,227,22,Female,2022-05-31_13h47.53.826,Main,2022.1.1,59.990989353480515,
negative,red,1,None,None,,,,,,,,,0,166,166,166,,,,,,,,,,,,,,,,,,,,,,,,,,,,,,,,,,,,,main,None,None,1,1.5085672999998678,577.4475462,None,None,1,,,,,,,,,,,,,,227,22,Female,2022-05-31_13h47.53.826,Main,2022.1.1,59.990989353480515,
negative,yellow,2,k,None,,,,,,,,,0,167,167,167,,,,,,,,,,,,,,,,,,,,,,,,,,,,,,,,,,,,,main,None,None,1,1.503064699999868,579.9573556999999,None,None,1,,,,,,,,,,,,,,227,22,Female,2022-05-31_13h47.53.826,Main,2022.1.1,59.990989353480515,
positive,blue,2,k,None,,,,,,,,,0,168,168,168,,,,,,,,,,,,,,,,,,,,,,,,,,,,,,,,,,,,,main,None,None,1,1.4972719000002144,582.4618114,None,None,1,,,,,,,,,,,,,,227,22,Female,2022-05-31_13h47.53.826,Main,2022.1.1,59.990989353480515,
positive,red,2,None,None,,,,,,,,,0,169,169,169,,,,,,,,,,,,,,,,,,,,,,,,,,,,,,,,,,,,,main,None,None,1,1.4964273999999023,584.9623683,None,None,1,,,,,,,,,,,,,,227,22,Female,2022-05-31_13h47.53.826,Main,2022.1.1,59.990989353480515,
positive,red,1,None,None,,,,,,,,,0,170,170,170,,,,,,,,,,,,,,,,,,,,,,,,,,,,,,,,,,,,,main,None,None,1,1.498301900000115,587.4584958999999,None,None,1,,,,,,,,,,,,,,227,22,Female,2022-05-31_13h47.53.826,Main,2022.1.1,59.990989353480515,
negative,blue,2,None,k,,,,,,,,,0,171,171,171,,,,,,,,,,,,,,,,,,,,,,,,,,,,,,,,,,,,,main,k,k,1,0.7663032999998904,589.9576290999998,None,None,0,,,,,,,,,,,,,,227,22,Female,2022-05-31_13h47.53.826,Main,2022.1.1,59.990989353480515,
positive,blue,2,k,None,,,,,,,,,0,172,172,172,,,,,,,,,,,,,,,,,,,,,,,,,,,,,,,,,,,,,main,None,None,1,1.497160200000053,591.7254379000001,None,None,1,,,,,,,,,,,,,,227,22,Female,2022-05-31_13h47.53.826,Main,2022.1.1,59.990989353480515,
negative,yellow,2,k,None,,,,,,,,,0,173,173,173,,,,,,,,,,,,,,,,,,,,,,,,,,,,,,,,,,,,,main,None,None,1,1.5025977999998759,594.2243272000001,None,None,1,,,,,,,,,,,,,,227,22,Female,2022-05-31_13h47.53.826,Main,2022.1.1,59.990989353480515,
positive,yellow,2,None,k,,,,,,,,,0,174,174,174,,,,,,,,,,,,,,,,,,,,,,,,,,,,,,,,,,,,,main,k,k,1,0.6107254000003195,596.7303523,None,None,0,,,,,,,,,,,,,,227,22,Female,2022-05-31_13h47.53.826,Main,2022.1.1,59.990989353480515,
negative,blue,2,None,k,,,,,,,,,0,175,175,175,,,,,,,,,,,,,,,,,,,,,,,,,,,,,,,,,,,,,main,k,k,1,1.000007000000096,598.3402732999998,None,None,0,,,,,,,,,,,,,,227,22,Female,2022-05-31_13h47.53.826,Main,2022.1.1,59.990989353480515,
positive,blue,1,k,None,,,,,,,,,0,176,176,176,,,,,,,,,,,,,,,,,,,,,,,,,,,,,,,,,,,,,main,None,None,1,1.4973813999999948,600.3417685,None,None,1,,,,,,,,,,,,,,227,22,Female,2022-05-31_13h47.53.826,Main,2022.1.1,59.990989353480515,
positive,yellow,1,None,k,,,,,,,,,0,177,177,177,,,,,,,,,,,,,,,,,,,,,,,,,,,,,,,,,,,,,main,k,k,1,0.8176086000003124,602.8408840000002,None,None,0,,,,,,,,,,,,,,227,22,Female,2022-05-31_13h47.53.826,Main,2022.1.1,59.990989353480515,
positive,blue,1,k,None,,,,,,,,,0,178,178,178,,,,,,,,,,,,,,,,,,,,,,,,,,,,,,,,,,,,,main,None,None,1,1.5109815999999228,604.6618884,None,None,1,,,,,,,,,,,,,,227,22,Female,2022-05-31_13h47.53.826,Main,2022.1.1,59.990989353480515,
positive,yellow,2,None,k,,,,,,,,,0,179,179,179,,,,,,,,,,,,,,,,,,,,,,,,,,,,,,,,,,,,,main,k,k,1,0.7336823999999069,607.1722085000001,None,None,0,,,,,,,,,,,,,,227,22,Female,2022-05-31_13h47.53.826,Main,2022.1.1,59.990989353480515,
positive,blue,1,k,None,,,,,,,,,0,180,180,180,,,,,,,,,,,,,,,,,,,,,,,,,,,,,,,,,,,,,main,None,None,1,1.5022328999998535,608.9070978999998,None,None,1,,,,,,,,,,,,,,227,22,Female,2022-05-31_13h47.53.826,Main,2022.1.1,59.990989353480515,
negative,red,1,None,None,,,,,,,,,0,181,181,181,,,,,,,,,,,,,,,,,,,,,,,,,,,,,,,,,,,,,main,None,None,1,1.5092325000000528,611.4160894000001,None,None,1,,,,,,,,,,,,,,227,22,Female,2022-05-31_13h47.53.826,Main,2022.1.1,59.990989353480515,
negative,blue,1,None,k,,,,,,,,,0,182,182,182,,,,,,,,,,,,,,,,,,,,,,,,,,,,,,,,,,,,,main,k,k,1,0.8529698000002099,613.9217095999998,None,None,0,,,,,,,,,,,,,,227,22,Female,2022-05-31_13h47.53.826,Main,2022.1.1,59.990989353480515,
negative,yellow,2,k,None,,,,,,,,,0,183,183,183,,,,,,,,,,,,,,,,,,,,,,,,,,,,,,,,,,,,,main,None,None,1,1.5121045000000777,615.7783012999998,None,None,1,,,,,,,,,,,,,,227,22,Female,2022-05-31_13h47.53.826,Main,2022.1.1,59.990989353480515,
positive,yellow,2,None,k,,,,,,,,,0,184,184,184,,,,,,,,,,,,,,,,,,,,,,,,,,,,,,,,,,,,,main,k,k,1,0.6942629999998644,618.2929399,None,None,0,,,,,,,,,,,,,,227,22,Female,2022-05-31_13h47.53.826,Main,2022.1.1,59.990989353480515,
positive,yellow,1,None,k,,,,,,,,,0,185,185,185,,,,,,,,,,,,,,,,,,,,,,,,,,,,,,,,,,,,,main,k,k,1,0.7157379999998739,619.9920858999999,None,None,0,,,,,,,,,,,,,,227,22,Female,2022-05-31_13h47.53.826,Main,2022.1.1,59.990989353480515,
positive,red,2,None,None,,,,,,,,,0,186,186,186,,,,,,,,,,,,,,,,,,,,,,,,,,,,,,,,,,,,,main,None,None,1,1.499460900000031,621.7051379999998,None,None,1,,,,,,,,,,,,,,227,22,Female,2022-05-31_13h47.53.826,Main,2022.1.1,59.990989353480515,
positive,blue,1,k,None,,,,,,,,,0,187,187,187,,,,,,,,,,,,,,,,,,,,,,,,,,,,,,,,,,,,,main,None,None,1,1.5094615999996677,624.2071882999999,None,None,1,,,,,,,,,,,,,,227,22,Female,2022-05-31_13h47.53.826,Main,2022.1.1,59.990989353480515,
negative,yellow,1,k,None,,,,,,,,,0,188,188,188,,,,,,,,,,,,,,,,,,,,,,,,,,,,,,,,,,,,,main,None,None,1,1.5037600999999086,626.7177790999999,None,None,1,,,,,,,,,,,,,,227,22,Female,2022-05-31_13h47.53.826,Main,2022.1.1,59.990989353480515,
positive,yellow,2,None,k,,,,,,,,,0,189,189,189,,,,,,,,,,,,,,,,,,,,,,,,,,,,,,,,,,,,,main,k,k,1,0.7320180000001528,629.2253661,None,None,0,,,,,,,,,,,,,,227,22,Female,2022-05-31_13h47.53.826,Main,2022.1.1,59.990989353480515,
negative,yellow,2,k,None,,,,,,,,,0,190,190,190,,,,,,,,,,,,,,,,,,,,,,,,,,,,,,,,,,,,,main,None,None,1,1.5124996999998075,630.9590235000001,None,None,1,,,,,,,,,,,,,,227,22,Female,2022-05-31_13h47.53.826,Main,2022.1.1,59.990989353480515,
negative,yellow,1,k,None,,,,,,,,,0,191,191,191,,,,,,,,,,,,,,,,,,,,,,,,,,,,,,,,,,,,,main,None,None,1,1.5096611000003577,633.4728452999998,None,None,1,,,,,,,,,,,,,,227,22,Female,2022-05-31_13h47.53.826,Main,2022.1.1,59.990989353480515,
positive,blue,2,k,None,,,,,,,,,0,192,192,192,,,,,,,,,,,,,,,,,,,,,,,,,,,,,,,,,,,,,main,None,None,1,1.5039128999997047,635.9835840999999,None,None,1,,,,,,,,,,,,,,227,22,Female,2022-05-31_13h47.53.826,Main,2022.1.1,59.990989353480515,
positive,yellow,1,None,k,,,,,,,,,0,193,193,193,,,,,,,,,,,,,,,,,,,,,,,,,,,,,,,,,,,,,main,k,k,1,0.8316658999997344,638.4911219,None,None,0,,,,,,,,,,,,,,227,22,Female,2022-05-31_13h47.53.826,Main,2022.1.1,59.990989353480515,
negative,red,2,None,None,,,,,,,,,0,194,194,194,,,,,,,,,,,,,,,,,,,,,,,,,,,,,,,,,,,,,main,None,None,1,1.497757300000103,640.3241122,None,None,1,,,,,,,,,,,,,,227,22,Female,2022-05-31_13h47.53.826,Main,2022.1.1,59.990989353480515,
positive,red,1,None,None,,,,,,,,,0,195,195,195,,,,,,,,,,,,,,,,,,,,,,,,,,,,,,,,,,,,,main,None,None,1,1.5061902999996164,642.8233721000001,None,None,1,,,,,,,,,,,,,,227,22,Female,2022-05-31_13h47.53.826,Main,2022.1.1,59.990989353480515,
negative,blue,1,None,k,,,,,,,,,0,196,196,196,,,,,,,,,,,,,,,,,,,,,,,,,,,,,,,,,,,,,main,k,k,1,0.9142598999997062,645.3301723,None,None,0,,,,,,,,,,,,,,227,22,Female,2022-05-31_13h47.53.826,Main,2022.1.1,59.990989353480515,
positive,blue,2,k,None,,,,,,,,,0,197,197,197,,,,,,,,,,,,,,,,,,,,,,,,,,,,,,,,,,,,,main,None,None,1,1.5002928000003521,647.2462300000002,None,None,1,,,,,,,,,,,,,,227,22,Female,2022-05-31_13h47.53.826,Main,2022.1.1,59.990989353480515,
negative,blue,2,None,k,,,,,,,,,0,198,198,198,,,,,,,,,,,,,,,,,,,,,,,,,,,,,,,,,,,,,main,k,k,1,0.7305972999997721,649.7479013000002,None,None,0,,,,,,,,,,,,,,227,22,Female,2022-05-31_13h47.53.826,Main,2022.1.1,59.990989353480515,
negative,blue,2,None,k,,,,,,,,,0,199,199,199,,,,,,,,,,,,,,,,,,,,,,,,,,,,,,,,,,,,,main,k,k,1,0.6798973999998452,651.4816842,None,None,0,,,,,,,,,,,,,,227,22,Female,2022-05-31_13h47.53.826,Main,2022.1.1,59.990989353480515,
positive,blue,2,k,None,,,,,,,,,0,200,200,200,,,,,,,,,,,,,,,,,,,,,,,,,,,,,,,,,,,,,main,None,None,1,1.5079388999997718,653.1650565,None,None,1,,,,,,,,,,,,,,227,22,Female,2022-05-31_13h47.53.826,Main,2022.1.1,59.990989353480515,
positive,blue,2,k,None,,,,,,,,,0,201,201,201,,,,,,,,,,,,,,,,,,,,,,,,,,,,,,,,,,,,,main,None,None,1,1.502105400000346,655.6760267,None,None,1,,,,,,,,,,,,,,227,22,Female,2022-05-31_13h47.53.826,Main,2022.1.1,59.990989353480515,
negative,yellow,2,k,None,,,,,,,,,0,202,202,202,,,,,,,,,,,,,,,,,,,,,,,,,,,,,,,,,,,,,main,None,None,1,1.5096687000000202,658.1792119000002,None,None,1,,,,,,,,,,,,,,227,22,Female,2022-05-31_13h47.53.826,Main,2022.1.1,59.990989353480515,
positive,red,1,None,None,,,,,,,,,0,203,203,203,,,,,,,,,,,,,,,,,,,,,,,,,,,,,,,,,,,,,main,None,None,1,1.5106317999998282,660.6918971,None,None,1,,,,,,,,,,,,,,227,22,Female,2022-05-31_13h47.53.826,Main,2022.1.1,59.990989353480515,
negative,blue,2,None,k,,,,,,,,,0,204,204,204,,,,,,,,,,,,,,,,,,,,,,,,,,,,,,,,,,,,,main,k,k,1,0.7374262000003,663.2040686999999,None,None,0,,,,,,,,,,,,,,227,22,Female,2022-05-31_13h47.53.826,Main,2022.1.1,59.990989353480515,
negative,red,1,None,None,,,,,,,,,0,205,205,205,,,,,,,,,,,,,,,,,,,,,,,,,,,,,,,,,,,,,main,None,None,1,1.502743499999724,664.9429058000001,None,None,1,,,,,,,,,,,,,,227,22,Female,2022-05-31_13h47.53.826,Main,2022.1.1,59.990989353480515,
negative,blue,2,None,k,,,,,,,,,0,206,206,206,,,,,,,,,,,,,,,,,,,,,,,,,,,,,,,,,,,,,main,k,k,1,0.7813115000003563,667.4482853999998,None,None,0,,,,,,,,,,,,,,227,22,Female,2022-05-31_13h47.53.826,Main,2022.1.1,59.990989353480515,
negative,yellow,2,k,None,,,,,,,,,0,207,207,207,,,,,,,,,,,,,,,,,,,,,,,,,,,,,,,,,,,,,main,None,None,1,1.5034918000001198,669.2300580000001,None,None,1,,,,,,,,,,,,,,227,22,Female,2022-05-31_13h47.53.826,Main,2022.1.1,59.990989353480515,
positive,yellow,2,None,k,,,,,,,,,0,208,208,208,,,,,,,,,,,,,,,,,,,,,,,,,,,,,,,,,,,,,main,k,k,1,0.6231001999999535,671.7371256000001,None,None,0,,,,,,,,,,,,,,227,22,Female,2022-05-31_13h47.53.826,Main,2022.1.1,59.990989353480515,
negative,yellow,1,k,None,,,,,,,,,0,209,209,209,,,,,,,,,,,,,,,,,,,,,,,,,,,,,,,,,,,,,main,None,None,1,1.497198699999899,673.3611741,None,None,1,,,,,,,,,,,,,,227,22,Female,2022-05-31_13h47.53.826,Main,2022.1.1,59.990989353480515,
negative,red,2,None,None,,,,,,,,,0,210,210,210,,,,,,,,,,,,,,,,,,,,,,,,,,,,,,,,,,,,,main,None,None,1,1.5097136000003957,675.8617816999999,None,None,1,,,,,,,,,,,,,,227,22,Female,2022-05-31_13h47.53.826,Main,2022.1.1,59.990989353480515,
negative,blue,1,None,k,,,,,,,,,0,211,211,211,,,,,,,,,,,,,,,,,,,,,,,,,,,,,,,,,,,,,main,k,k,1,0.722774699999718,678.3746068999999,None,None,0,,,,,,,,,,,,,,227,22,Female,2022-05-31_13h47.53.826,Main,2022.1.1,59.990989353480515,
negative,yellow,1,k,None,,,,,,,,,0,212,212,212,,,,,,,,,,,,,,,,,,,,,,,,,,,,,,,,,,,,,main,None,None,1,1.496252600000389,680.0991626999999,None,None,1,,,,,,,,,,,,,,227,22,Female,2022-05-31_13h47.53.826,Main,2022.1.1,59.990989353480515,
positive,blue,1,k,None,,,,,,,,,0,213,213,213,,,,,,,,,,,,,,,,,,,,,,,,,,,,,,,,,,,,,main,None,None,1,1.495962199999667,682.5949925999998,None,None,1,,,,,,,,,,,,,,227,22,Female,2022-05-31_13h47.53.826,Main,2022.1.1,59.990989353480515,
positive,blue,1,k,None,,,,,,,,,0,214,214,214,,,,,,,,,,,,,,,,,,,,,,,,,,,,,,,,,,,,,main,None,None,1,1.5076779999999417,685.0943631,None,None,1,,,,,,,,,,,,,,227,22,Female,2022-05-31_13h47.53.826,Main,2022.1.1,59.990989353480515,
positive,yellow,1,None,k,,,,,,,,,0,215,215,215,,,,,,,,,,,,,,,,,,,,,,,,,,,,,,,,,,,,,main,k,k,1,0.8741268000003402,687.6051727999998,None,None,0,,,,,,,,,,,,,,227,22,Female,2022-05-31_13h47.53.826,Main,2022.1.1,59.990989353480515,
positive,yellow,1,None,k,,,,,,,,,0,216,216,216,,,,,,,,,,,,,,,,,,,,,,,,,,,,,,,,,,,,,main,k,k,1,0.7680284000002757,689.478936,None,None,0,,,,,,,,,,,,,,227,22,Female,2022-05-31_13h47.53.826,Main,2022.1.1,59.990989353480515,
positive,yellow,2,None,k,,,,,,,,,0,217,217,217,,,,,,,,,,,,,,,,,,,,,,,,,,,,,,,,,,,,,main,k,k,1,0.7303159000002779,691.2519305000001,None,None,0,,,,,,,,,,,,,,227,22,Female,2022-05-31_13h47.53.826,Main,2022.1.1,59.990989353480515,
negative,blue,1,None,k,,,,,,,,,0,218,218,218,,,,,,,,,,,,,,,,,,,,,,,,,,,,,,,,,,,,,main,k,k,1,0.9918252000002212,692.9802647000001,None,None,0,,,,,,,,,,,,,,227,22,Female,2022-05-31_13h47.53.826,Main,2022.1.1,59.990989353480515,
positive,red,2,None,None,,,,,,,,,0,219,219,219,,,,,,,,,,,,,,,,,,,,,,,,,,,,,,,,,,,,,main,None,None,1,1.4979966000000786,694.9755565,None,None,1,,,,,,,,,,,,,,227,22,Female,2022-05-31_13h47.53.826,Main,2022.1.1,59.990989353480515,
positive,yellow,1,None,k,,,,,,,,,0,220,220,220,,,,,,,,,,,,,,,,,,,,,,,,,,,,,,,,,,,,,main,k,k,1,0.8995061999999052,697.4759665000001,None,None,0,,,,,,,,,,,,,,227,22,Female,2022-05-31_13h47.53.826,Main,2022.1.1,59.990989353480515,
positive,blue,1,k,None,,,,,,,,,0,221,221,221,,,,,,,,,,,,,,,,,,,,,,,,,,,,,,,,,,,,,main,None,None,1,1.5041645000001154,699.3770033999999,None,None,1,,,,,,,,,,,,,,227,22,Female,2022-05-31_13h47.53.826,Main,2022.1.1,59.990989353480515,
positive,yellow,2,None,k,,,,,,,,,0,222,222,222,,,,,,,,,,,,,,,,,,,,,,,,,,,,,,,,,,,,,main,k,k,1,0.6944255000003068,701.8851872999999,None,None,0,,,,,,,,,,,,,,227,22,Female,2022-05-31_13h47.53.826,Main,2022.1.1,59.990989353480515,
negative,yellow,1,k,None,,,,,,,,,0,223,223,223,,,,,,,,,,,,,,,,,,,,,,,,,,,,,,,,,,,,,main,None,k,0,0.7649240999999165,703.5823169999999,None,None,1,,,,,,,,,,,,,,227,22,Female,2022-05-31_13h47.53.826,Main,2022.1.1,59.990989353480515,
positive,yellow,2,None,k,,,,,,,,,0,224,224,224,,,,,,,,,,,,,,,,,,,,,,,,,,,,,,,,,,,,,main,k,k,1,1.0405225999998038,706.3615338,None,None,0,,,,,,,,,,,,,,227,22,Female,2022-05-31_13h47.53.826,Main,2022.1.1,59.990989353480515,
negative,yellow,2,k,None,,,,,,,,,0,225,225,225,,,,,,,,,,,,,,,,,,,,,,,,,,,,,,,,,,,,,main,None,None,1,1.506857200000013,708.4035174999999,None,None,1,,,,,,,,,,,,,,227,22,Female,2022-05-31_13h47.53.826,Main,2022.1.1,59.990989353480515,
negative,blue,2,None,k,,,,,,,,,0,226,226,226,,,,,,,,,,,,,,,,,,,,,,,,,,,,,,,,,,,,,main,k,k,1,0.9481445999999778,710.9104803999999,None,None,0,,,,,,,,,,,,,,227,22,Female,2022-05-31_13h47.53.826,Main,2022.1.1,59.990989353480515,
positive,red,2,None,None,,,,,,,,,0,227,227,227,,,,,,,,,,,,,,,,,,,,,,,,,,,,,,,,,,,,,main,None,None,1,1.4978243999998995,712.8618646999998,None,None,1,,,,,,,,,,,,,,227,22,Female,2022-05-31_13h47.53.826,Main,2022.1.1,59.990989353480515,
positive,blue,2,k,None,,,,,,,,,0,228,228,228,,,,,,,,,,,,,,,,,,,,,,,,,,,,,,,,,,,,,main,None,None,1,1.4975221999998212,715.3591396000002,None,None,1,,,,,,,,,,,,,,227,22,Female,2022-05-31_13h47.53.826,Main,2022.1.1,59.990989353480515,
negative,blue,1,None,k,,,,,,,,,0,229,229,229,,,,,,,,,,,,,,,,,,,,,,,,,,,,,,,,,,,,,main,k,k,1,0.7500707999997758,717.8583582000001,None,None,0,,,,,,,,,,,,,,227,22,Female,2022-05-31_13h47.53.826,Main,2022.1.1,59.990989353480515,
positive,yellow,1,None,k,,,,,,,,,0,230,230,230,,,,,,,,,,,,,,,,,,,,,,,,,,,,,,,,,,,,,main,k,k,1,1.0002330999996047,719.6097378,None,None,0,,,,,,,,,,,,,,227,22,Female,2022-05-31_13h47.53.826,Main,2022.1.1,59.990989353480515,
negative,blue,2,None,k,,,,,,,,,0,231,231,231,,,,,,,,,,,,,,,,,,,,,,,,,,,,,,,,,,,,,main,k,k,1,0.7810370999995939,721.6135869,None,None,0,,,,,,,,,,,,,,227,22,Female,2022-05-31_13h47.53.826,Main,2022.1.1,59.990989353480515,
negative,red,1,None,None,,,,,,,,,0,232,232,232,,,,,,,,,,,,,,,,,,,,,,,,,,,,,,,,,,,,,main,None,None,1,1.5072337999999945,723.3937034,None,None,1,,,,,,,,,,,,,,227,22,Female,2022-05-31_13h47.53.826,Main,2022.1.1,59.990989353480515,
positive,blue,2,k,None,,,,,,,,,0,233,233,233,,,,,,,,,,,,,,,,,,,,,,,,,,,,,,,,,,,,,main,None,None,1,1.5080192999998872,725.9039634000001,None,None,1,,,,,,,,,,,,,,227,22,Female,2022-05-31_13h47.53.826,Main,2022.1.1,59.990989353480515,
negative,yellow,1,k,None,,,,,,,,,0,234,234,234,,,,,,,,,,,,,,,,,,,,,,,,,,,,,,,,,,,,,main,None,None,1,1.5111324999998033,728.4147947000001,None,None,1,,,,,,,,,,,,,,227,22,Female,2022-05-31_13h47.53.826,Main,2022.1.1,59.990989353480515,
negative,yellow,2,k,None,,,,,,,,,0,235,235,235,,,,,,,,,,,,,,,,,,,,,,,,,,,,,,,,,,,,,main,None,k,0,0.8297582000000148,730.9275367,None,None,1,,,,,,,,,,,,,,227,22,Female,2022-05-31_13h47.53.826,Main,2022.1.1,59.990989353480515,
positive,red,1,None,None,,,,,,,,,0,236,236,236,,,,,,,,,,,,,,,,,,,,,,,,,,,,,,,,,,,,,main,None,None,1,1.5041238000003432,733.7581648999999,None,None,1,,,,,,,,,,,,,,227,22,Female,2022-05-31_13h47.53.826,Main,2022.1.1,59.990989353480515,
negative,red,2,None,None,,,,,,,,,0,237,237,237,,,,,,,,,,,,,,,,,,,,,,,,,,,,,,,,,,,,,main,None,None,1,1.5064382000000478,736.2643745,None,None,1,,,,,,,,,,,,,,227,22,Female,2022-05-31_13h47.53.826,Main,2022.1.1,59.990989353480515,
negative,blue,1,None,k,,,,,,,,,0,238,238,238,,,,,,,,,,,,,,,,,,,,,,,,,,,,,,,,,,,,,main,k,k,1,0.934313100000054,738.7707165000002,None,None,0,,,,,,,,,,,,,,227,22,Female,2022-05-31_13h47.53.826,Main,2022.1.1,59.990989353480515,
positive,blue,1,k,None,,,,,,,,,0,239,239,239,,,,,,,,,,,,,,,,,,,,,,,,,,,,,,,,,,,,,main,None,None,1,1.5090210999996998,740.7097666,None,None,1,,,,,,,,,,,,,,227,22,Female,2022-05-31_13h47.53.826,Main,2022.1.1,59.990989353480515,
,,,,,,,,,,,,,,,,,,,,,,,,,,,,,,,,,,,,,,,,,,,,,,,,,,,,,,,,,,,,,,,,,,,,,,,,,743.2086373000002,None,,,,,,,,
