distractor,target,set,ans1,ans2,rep_loop4.thisRepN,rep_loop4.thisTrialN,rep_loop4.thisN,rep_loop4.thisIndex,st2_prac_loop.thisRepN,st2_prac_loop.thisTrialN,st2_prac_loop.thisN,st2_prac_loop.thisIndex,st2_main_loop.thisRepN,st2_main_loop.thisTrialN,st2_main_loop.thisN,st2_main_loop.thisIndex,image_4.started,image_4.stopped,mouse_7.x,mouse_7.y,mouse_7.leftButton,mouse_7.midButton,mouse_7.rightButton,sound_2.started,sound_2.stopped,key_resp_3.keys,mouse_5.x,mouse_5.y,mouse_5.leftButton,mouse_5.midButton,mouse_5.rightButton,mouse_5.started,mouse_5.stopped,yes_text2.started,yes_text2.stopped,no_text2.started,no_text2.stopped,mouse_3.x,mouse_3.y,mouse_3.leftButton,mouse_3.midButton,mouse_3.rightButton,mouse_3.started,mouse_3.stopped,st_prac_back.started,st_prac_back.stopped,st_prac_text.started,st_prac_text.stopped,st_fix_back.started,st_fix_back.stopped,st_fix_2.started,st_fix_2.stopped,main_prac,st_ans,st_res,st_corr,st_rt,st_back.started,st_back.stopped,st2_resp.keys,st2_resp.corr,st_main_back.started,st_main_back.stopped,st_main_text.started,st_main_text.stopped,mouse_4.x,mouse_4.y,mouse_4.leftButton,mouse_4.midButton,mouse_4.rightButton,mouse_4.started,mouse_4.stopped,text_2.started,text_2.stopped,id*,age*,gender*,date,expName,psychopyVersion,frameRate,
,,,,,,,,,,,,,,,,,32.01597659999993,None,-0.036111113,0.043518517,0,0,0,,,,,,,,,,,,,,,,,,,,,,,,,,,,,,,,,,,,,,,,,,,,,,,,,,,,228,21,Female,2022-06-03_14h06.05.120,Main,2022.1.1,59.99059347495596,
negative,yellow,1,k,None,,,,,0,0,0,0,,,,,,,,,,,,36.90255426999988,None,None,-0.21388888,-0.39444444,0,0,0,1.003743219999933,None,92.71254499999986,None,92.71254499999986,None,-0.11574074,-0.09259259,0,0,0,0.012965370000301846,None,94.19985159999987,None,94.19985159999987,None,96.21222179999995,None,96.21222179999995,None,prac,k,k,1,1.3130856999998741,98.25598190000005,None,None,0,,,,,,,,,,,,,,228,21,Female,2022-06-03_14h06.05.120,Main,2022.1.1,59.99059347495596,
positive,red,2,None,None,,,,,0,1,1,1,,,,,,,,,,,,,,,,,,,,,,,,,,,,,,,,,,,,,,,,,prac,None,None,1,1.510195099999919,100.56309659999988,None,None,1,,,,,,,,,,,,,,228,21,Female,2022-06-03_14h06.05.120,Main,2022.1.1,59.99059347495596,
negative,blue,2,None,k,,,,,0,2,2,2,,,,,,,,,,,,,,,,,,,,,,,,,,,,,,,,,,,,,,,,,prac,None,None,1,1.4961772000001474,103.07105690000003,None,None,1,,,,,,,,,,,,,,228,21,Female,2022-06-03_14h06.05.120,Main,2022.1.1,59.99059347495596,
positive,yellow,1,None,k,,,,,0,3,3,3,,,,,,,,,,,,,,,,,,,,,,,,,,,,,,,,,,,,,,,,,prac,None,None,1,1.4989397000001645,105.56376049999994,None,None,1,,,,,,,,,,,,,,228,21,Female,2022-06-03_14h06.05.120,Main,2022.1.1,59.99059347495596,
negative,blue,2,None,k,,,,,0,4,4,4,,,,,,,,,,,,,,,,,,,,,,,,,,,,,,,,,,,,,,,,,prac,None,None,1,1.5055927999999312,108.05521759999988,None,None,1,,,,,,,,,,,,,,228,21,Female,2022-06-03_14h06.05.120,Main,2022.1.1,59.99059347495596,
negative,blue,1,None,k,,,,,0,5,5,5,,,,,,,,,,,,,,,,,,,,,,,,,,,,,,,,,,,,,,,,,prac,None,None,1,1.5040621000000556,110.57177839999986,None,None,1,,,,,,,,,,,,,,228,21,Female,2022-06-03_14h06.05.120,Main,2022.1.1,59.99059347495596,
negative,yellow,2,k,None,,,,,0,6,6,6,,,,,,,,,,,,,,,,,,,,,,,,,,,,,,,,,,,,,,,,,prac,k,k,1,1.2176437000000533,113.06892659999994,None,None,0,,,,,,,,,,,,,,228,21,Female,2022-06-03_14h06.05.120,Main,2022.1.1,59.99059347495596,
negative,red,1,None,None,,,,,0,7,7,7,,,,,,,,,,,,,,,,,,,,,,,,,,,,,,,,,,,,,,,,,prac,None,None,1,1.4999299000000974,115.28789129999996,None,None,1,,,,,,,,,,,,,,228,21,Female,2022-06-03_14h06.05.120,Main,2022.1.1,59.99059347495596,
positive,yellow,2,None,k,,,,,0,8,8,8,,,,,,,,,,,,,,,,,,,,,,,,,,,,,,,,,,,,,,,,,prac,None,None,1,1.4967524999999569,117.79909269999985,None,None,1,,,,,,,,,,,,,,228,21,Female,2022-06-03_14h06.05.120,Main,2022.1.1,59.99059347495596,
negative,yellow,1,k,None,,,,,0,9,9,9,,,,,,,,,,,,,,,,,,,,,,,,,,,,,,,,,,,,,,,,,prac,k,k,1,1.0892089999999826,120.28762089999987,None,None,0,,,,,,,,,,,,,,228,21,Female,2022-06-03_14h06.05.120,Main,2022.1.1,59.99059347495596,
positive,yellow,2,None,k,,,,,0,10,10,10,,,,,,,,,,,,,,,,,,,,,,,,,,,,,,,,,,,,,,,,,prac,None,None,1,1.5070040000000517,122.37665519999996,None,None,1,,,,,,,,,,,,,,228,21,Female,2022-06-03_14h06.05.120,Main,2022.1.1,59.99059347495596,
negative,yellow,2,k,None,,,,,0,11,11,11,,,,,,,,,,,,,,,,,,,,,,,,,,,,,,,,,,,,,,,,,prac,k,k,1,1.1997757999999976,124.89578749999987,None,None,0,,,,,,,,,,,,,,228,21,Female,2022-06-03_14h06.05.120,Main,2022.1.1,59.99059347495596,
negative,red,2,None,None,,,,,0,12,12,12,,,,,,,,,,,,,,,,,,,,,,,,,,,,,,,,,,,,,,,,,prac,None,None,1,1.5016173000001345,127.08779519999985,None,None,1,,,,,,,,,,,,,,228,21,Female,2022-06-03_14h06.05.120,Main,2022.1.1,59.99059347495596,
positive,red,1,None,None,,,,,0,13,13,13,,,,,,,,,,,,,,,,,,,,,,,,,,,,,,,,,,,,,,,,,prac,None,None,1,1.4990039000001616,129.60161859999994,None,None,1,,,,,,,,,,,,,,228,21,Female,2022-06-03_14h06.05.120,Main,2022.1.1,59.99059347495596,
positive,blue,2,k,None,,,,,0,14,14,14,,,,,,,,,,,,,,,,,,,,,,,,,,,,,,,,,,,,,,,,,prac,k,k,1,0.8232357000001684,132.09463849999997,None,None,0,,,,,,,,,,,,,,228,21,Female,2022-06-03_14h06.05.120,Main,2022.1.1,59.99059347495596,
positive,blue,1,k,None,,,,,0,15,15,15,,,,,,,,,,,,,,,,,,,,,,,,,,,,,,,,,,,,,,,,,prac,k,k,1,1.1646255000000565,133.9181458999999,None,None,0,,,,,,,,,,,,,,228,21,Female,2022-06-03_14h06.05.120,Main,2022.1.1,59.99059347495596,
negative,blue,1,None,k,,,,,0,16,16,16,,,,,,,,,,,,,,,,,,,,,,,,,,,,,,,,,,,,,,,,,prac,None,None,1,1.506072599999925,136.08451450000007,None,None,1,,,,,,,,,,,,,,228,21,Female,2022-06-03_14h06.05.120,Main,2022.1.1,59.99059347495596,
positive,blue,2,k,None,,,,,0,17,17,17,,,,,,,,,,,,,,,,,,,,,,,,,,,,,,,,,,,,,,,,,prac,k,k,1,0.949164699999983,138.5928073,None,None,0,,,,,,,,,,,,,,228,21,Female,2022-06-03_14h06.05.120,Main,2022.1.1,59.99059347495596,
positive,blue,1,k,None,,,,,0,18,18,18,,,,,,,,,,,,,,,,,,,,,,,,,,,,,,,,,,,,,,,,,prac,k,k,1,1.126493900000014,140.5412887,None,None,0,,,,,,,,,,,,,,228,21,Female,2022-06-03_14h06.05.120,Main,2022.1.1,59.99059347495596,
positive,yellow,1,None,k,,,,,0,19,19,19,,,,,,,,,,,,,,,,,,,,,,,,,,,,,,,,,,,,,,,,,prac,None,None,1,1.4964372999997977,142.67124309999986,None,None,1,,,,,,,,,,,,,,228,21,Female,2022-06-03_14h06.05.120,Main,2022.1.1,59.99059347495596,
negative,yellow,1,k,None,,,,,1,0,20,0,,,,,,,,,,,,,,,,,,,,,,,,,,,,,,,,,,,,,,,,,prac,k,k,1,1.1185672999999952,145.17096719999995,None,None,0,,,,,,,,,,,,,,228,21,Female,2022-06-03_14h06.05.120,Main,2022.1.1,59.99059347495596,
positive,red,2,None,None,,,,,1,1,21,1,,,,,,,,,,,,,,,,,,,,,,,,,,,,,,,,,,,,,,,,,prac,None,None,1,1.496996500000023,147.2933372,None,None,1,,,,,,,,,,,,,,228,21,Female,2022-06-03_14h06.05.120,Main,2022.1.1,59.99059347495596,
negative,blue,2,None,k,,,,,1,2,22,2,,,,,,,,,,,,,,,,,,,,,,,,,,,,,,,,,,,,,,,,,prac,None,None,1,1.498981699999831,149.79189700000006,None,None,1,,,,,,,,,,,,,,228,21,Female,2022-06-03_14h06.05.120,Main,2022.1.1,59.99059347495596,
positive,yellow,1,None,k,,,,,1,3,23,3,,,,,,,,,,,,,,,,,,,,,,,,,,,,,,,,,,,,,,,,,prac,None,None,1,1.5090251999999964,152.29169950000005,None,None,1,,,,,,,,,,,,,,228,21,Female,2022-06-03_14h06.05.120,Main,2022.1.1,59.99059347495596,
negative,blue,2,None,k,,,,,1,4,24,4,,,,,,,,,,,,,,,,,,,,,,,,,,,,,,,,,,,,,,,,,prac,None,None,1,1.5015043000000787,154.80167170000004,None,None,1,,,,,,,,,,,,,,228,21,Female,2022-06-03_14h06.05.120,Main,2022.1.1,59.99059347495596,
negative,blue,1,None,k,,,,,1,5,25,5,,,,,,,,,,,,,,,,,,,,,,,,,,,,,,,,,,,,,,,,,prac,None,None,1,1.4973287000000255,157.30521769999996,None,None,1,,,,,,,,,,,,,,228,21,Female,2022-06-03_14h06.05.120,Main,2022.1.1,59.99059347495596,
negative,yellow,2,k,None,,,,,1,6,26,6,,,,,,,,,,,,,,,,,,,,,,,,,,,,,,,,,,,,,,,,,prac,k,k,1,0.9932518000000528,159.80397189999985,None,None,0,,,,,,,,,,,,,,228,21,Female,2022-06-03_14h06.05.120,Main,2022.1.1,59.99059347495596,
negative,red,1,None,None,,,,,1,7,27,7,,,,,,,,,,,,,,,,,,,,,,,,,,,,,,,,,,,,,,,,,prac,None,None,1,1.5030345000000125,161.7999468999999,None,None,1,,,,,,,,,,,,,,228,21,Female,2022-06-03_14h06.05.120,Main,2022.1.1,59.99059347495596,
positive,yellow,2,None,k,,,,,1,8,28,8,,,,,,,,,,,,,,,,,,,,,,,,,,,,,,,,,,,,,,,,,prac,None,None,1,1.5074726999998802,164.3046448,None,None,1,,,,,,,,,,,,,,228,21,Female,2022-06-03_14h06.05.120,Main,2022.1.1,59.99059347495596,
negative,yellow,1,k,None,,,,,1,9,29,9,,,,,,,,,,,,,,,,,,,,,,,,,,,,,,,,,,,,,,,,,prac,k,k,1,0.7379780999999639,166.81710840000005,None,None,0,,,,,,,,,,,,,,228,21,Female,2022-06-03_14h06.05.120,Main,2022.1.1,59.99059347495596,
positive,yellow,2,None,k,,,,,1,10,30,10,,,,,,,,,,,,,,,,,,,,,,,,,,,,,,,,,,,,,,,,,prac,None,None,1,1.4946706000002905,168.55875500000002,None,None,1,,,,,,,,,,,,,,228,21,Female,2022-06-03_14h06.05.120,Main,2022.1.1,59.99059347495596,
negative,yellow,2,k,None,,,,,1,11,31,11,,,,,,,,,,,,,,,,,,,,,,,,,,,,,,,,,,,,,,,,,prac,k,k,1,1.2382889000000432,171.05350440000007,None,None,0,,,,,,,,,,,,,,228,21,Female,2022-06-03_14h06.05.120,Main,2022.1.1,59.99059347495596,
negative,red,2,None,None,,,,,1,12,32,12,,,,,,,,,,,,,,,,,,,,,,,,,,,,,,,,,,,,,,,,,prac,None,None,1,1.4991949999998724,173.29973919999998,None,None,1,,,,,,,,,,,,,,228,21,Female,2022-06-03_14h06.05.120,Main,2022.1.1,59.99059347495596,
positive,red,1,None,None,,,,,1,13,33,13,,,,,,,,,,,,,,,,,,,,,,,,,,,,,,,,,,,,,,,,,prac,None,None,1,1.5069145000002209,175.79618240000013,None,None,1,,,,,,,,,,,,,,228,21,Female,2022-06-03_14h06.05.120,Main,2022.1.1,59.99059347495596,
positive,blue,2,k,None,,,,,1,14,34,14,,,,,,,,,,,,,,,,,,,,,,,,,,,,,,,,,,,,,,,,,prac,k,k,1,0.8344970999996804,178.30178569999975,None,None,0,,,,,,,,,,,,,,228,21,Female,2022-06-03_14h06.05.120,Main,2022.1.1,59.99059347495596,
positive,blue,1,k,None,,,,,1,15,35,15,,,,,,,,,,,,,,,,,,,,,,,,,,,,,,,,,,,,,,,,,prac,k,k,1,1.1790233000001535,180.14025349999997,None,None,0,,,,,,,,,,,,,,228,21,Female,2022-06-03_14h06.05.120,Main,2022.1.1,59.99059347495596,
negative,blue,1,None,k,,,,,1,16,36,16,,,,,,,,,,,,,,,,,,,,,,,,,,,,,,,,,,,,,,,,,prac,None,None,1,1.4974884999996902,182.31874319999974,None,None,1,,,,,,,,,,,,,,228,21,Female,2022-06-03_14h06.05.120,Main,2022.1.1,59.99059347495596,
positive,blue,2,k,None,,,,,1,17,37,17,,,,,,,,,,,,,,,,,,,,,,,,,,,,,,,,,,,,,,,,,prac,k,k,1,1.1073264999999992,184.82047309999984,None,None,0,,,,,,,,,,,,,,228,21,Female,2022-06-03_14h06.05.120,Main,2022.1.1,59.99059347495596,
positive,blue,1,k,None,,,,,1,18,38,18,,,,,,,,,,,,,,,,,,,,,,,,,,,,,,,,,,,,,,,,,prac,k,k,1,1.5246159999996962,186.92832810000004,None,None,0,,,,,,,,,,,,,,228,21,Female,2022-06-03_14h06.05.120,Main,2022.1.1,59.99059347495596,
positive,yellow,1,None,k,,,,,1,19,39,19,,,,,,,,,,,,,,,,,,,,,,,,,,,,,,,,,,,,,,,,,prac,None,None,1,1.491824099999576,190.5014724,None,None,1,,,,,,,,,,,,,,228,21,Female,2022-06-03_14h06.05.120,Main,2022.1.1,59.99059347495596,
,,,,,,,,,,,,,,,,,,,,,,,,,,,,,,,,,,,,,,,,,,,,,,,,,,,,,,,,,,,,,,193.01015789999997,None,193.01015789999997,None,0.0055555557,-0.18611111,0,0,0,0.011563869999918097,None,,,228,21,Female,2022-06-03_14h06.05.120,Main,2022.1.1,59.99059347495596,
negative,yellow,2,k,None,,,,,,,,,0,0,0,0,,,,,,,,,,,,,,,,,,,,,,,,,,,,,,,,,194.25009879999993,None,194.25009879999993,None,main,k,k,1,1.1273197000000437,196.32138150000014,None,None,0,,,,,,,,,,,,,,228,21,Female,2022-06-03_14h06.05.120,Main,2022.1.1,59.99059347495596,
positive,red,1,None,None,,,,,,,,,0,1,1,1,,,,,,,,,,,,,,,,,,,,,,,,,,,,,,,,,,,,,main,None,None,1,1.5082001000000673,198.45294450000006,None,None,1,,,,,,,,,,,,,,228,21,Female,2022-06-03_14h06.05.120,Main,2022.1.1,59.99059347495596,
positive,blue,2,k,None,,,,,,,,,0,2,2,2,,,,,,,,,,,,,,,,,,,,,,,,,,,,,,,,,,,,,main,k,k,1,0.7046795999999631,200.96181950000005,None,None,0,,,,,,,,,,,,,,228,21,Female,2022-06-03_14h06.05.120,Main,2022.1.1,59.99059347495596,
positive,blue,1,k,None,,,,,,,,,0,3,3,3,,,,,,,,,,,,,,,,,,,,,,,,,,,,,,,,,,,,,main,k,k,1,1.2485465999998269,202.6665258999999,None,None,0,,,,,,,,,,,,,,228,21,Female,2022-06-03_14h06.05.120,Main,2022.1.1,59.99059347495596,
negative,yellow,2,k,None,,,,,,,,,0,4,4,4,,,,,,,,,,,,,,,,,,,,,,,,,,,,,,,,,,,,,main,k,k,1,0.7147603000003073,204.91913569999974,None,None,0,,,,,,,,,,,,,,228,21,Female,2022-06-03_14h06.05.120,Main,2022.1.1,59.99059347495596,
positive,yellow,2,None,k,,,,,,,,,0,5,5,5,,,,,,,,,,,,,,,,,,,,,,,,,,,,,,,,,,,,,main,None,None,1,1.5056715999999142,206.63462539999978,None,None,1,,,,,,,,,,,,,,228,21,Female,2022-06-03_14h06.05.120,Main,2022.1.1,59.99059347495596,
negative,blue,2,None,k,,,,,,,,,0,6,6,6,,,,,,,,,,,,,,,,,,,,,,,,,,,,,,,,,,,,,main,None,None,1,1.5061839999998483,209.14151479999987,None,None,1,,,,,,,,,,,,,,228,21,Female,2022-06-03_14h06.05.120,Main,2022.1.1,59.99059347495596,
positive,red,2,None,None,,,,,,,,,0,7,7,7,,,,,,,,,,,,,,,,,,,,,,,,,,,,,,,,,,,,,main,None,None,1,1.5107797999999093,211.64738449999982,None,None,1,,,,,,,,,,,,,,228,21,Female,2022-06-03_14h06.05.120,Main,2022.1.1,59.99059347495596,
positive,yellow,1,None,k,,,,,,,,,0,8,8,8,,,,,,,,,,,,,,,,,,,,,,,,,,,,,,,,,,,,,main,None,None,1,1.5071394999999939,214.1626690999999,None,None,1,,,,,,,,,,,,,,228,21,Female,2022-06-03_14h06.05.120,Main,2022.1.1,59.99059347495596,
negative,red,1,None,None,,,,,,,,,0,9,9,9,,,,,,,,,,,,,,,,,,,,,,,,,,,,,,,,,,,,,main,None,None,1,1.507852400000047,216.67259750000017,None,None,1,,,,,,,,,,,,,,228,21,Female,2022-06-03_14h06.05.120,Main,2022.1.1,59.99059347495596,
positive,yellow,1,None,k,,,,,,,,,0,10,10,10,,,,,,,,,,,,,,,,,,,,,,,,,,,,,,,,,,,,,main,None,None,1,1.510886500000197,219.1800584,None,None,1,,,,,,,,,,,,,,228,21,Female,2022-06-03_14h06.05.120,Main,2022.1.1,59.99059347495596,
negative,yellow,1,k,None,,,,,,,,,0,11,11,11,,,,,,,,,,,,,,,,,,,,,,,,,,,,,,,,,,,,,main,k,k,1,0.76827430000003,221.69383270000003,None,None,0,,,,,,,,,,,,,,228,21,Female,2022-06-03_14h06.05.120,Main,2022.1.1,59.99059347495596,
negative,yellow,1,k,None,,,,,,,,,0,12,12,12,,,,,,,,,,,,,,,,,,,,,,,,,,,,,,,,,,,,,main,k,k,1,0.6973889000000781,223.46673459999988,None,None,0,,,,,,,,,,,,,,228,21,Female,2022-06-03_14h06.05.120,Main,2022.1.1,59.99059347495596,
negative,red,2,None,None,,,,,,,,,0,13,13,13,,,,,,,,,,,,,,,,,,,,,,,,,,,,,,,,,,,,,main,None,None,1,1.5131258999999773,225.16509389999987,None,None,1,,,,,,,,,,,,,,228,21,Female,2022-06-03_14h06.05.120,Main,2022.1.1,59.99059347495596,
positive,yellow,2,None,k,,,,,,,,,0,14,14,14,,,,,,,,,,,,,,,,,,,,,,,,,,,,,,,,,,,,,main,None,None,1,1.4998077000000194,227.67809449999982,None,None,1,,,,,,,,,,,,,,228,21,Female,2022-06-03_14h06.05.120,Main,2022.1.1,59.99059347495596,
positive,blue,1,k,None,,,,,,,,,0,15,15,15,,,,,,,,,,,,,,,,,,,,,,,,,,,,,,,,,,,,,main,k,k,1,0.8422075000003133,230.17931410000006,None,None,0,,,,,,,,,,,,,,228,21,Female,2022-06-03_14h06.05.120,Main,2022.1.1,59.99059347495596,
negative,blue,1,None,k,,,,,,,,,0,16,16,16,,,,,,,,,,,,,,,,,,,,,,,,,,,,,,,,,,,,,main,None,None,1,1.5068992000001344,232.02588630000014,None,None,1,,,,,,,,,,,,,,228,21,Female,2022-06-03_14h06.05.120,Main,2022.1.1,59.99059347495596,
positive,blue,2,k,None,,,,,,,,,0,17,17,17,,,,,,,,,,,,,,,,,,,,,,,,,,,,,,,,,,,,,main,k,k,1,0.6331411000001026,234.5329048000001,None,None,0,,,,,,,,,,,,,,228,21,Female,2022-06-03_14h06.05.120,Main,2022.1.1,59.99059347495596,
negative,blue,2,None,k,,,,,,,,,0,18,18,18,,,,,,,,,,,,,,,,,,,,,,,,,,,,,,,,,,,,,main,None,None,1,1.5100013000001127,236.1686226999998,None,None,1,,,,,,,,,,,,,,228,21,Female,2022-06-03_14h06.05.120,Main,2022.1.1,59.99059347495596,
negative,blue,1,None,k,,,,,,,,,0,19,19,19,,,,,,,,,,,,,,,,,,,,,,,,,,,,,,,,,,,,,main,None,None,1,1.5130872999998246,238.6777181,None,None,1,,,,,,,,,,,,,,228,21,Female,2022-06-03_14h06.05.120,Main,2022.1.1,59.99059347495596,
negative,blue,1,None,k,,,,,,,,,0,20,20,20,,,,,,,,,,,,,,,,,,,,,,,,,,,,,,,,,,,,,main,None,None,1,1.5002972000002046,241.19239009999978,None,None,1,,,,,,,,,,,,,,228,21,Female,2022-06-03_14h06.05.120,Main,2022.1.1,59.99059347495596,
negative,blue,2,None,k,,,,,,,,,0,21,21,21,,,,,,,,,,,,,,,,,,,,,,,,,,,,,,,,,,,,,main,None,None,1,1.4968661999996584,243.69670519999977,None,None,1,,,,,,,,,,,,,,228,21,Female,2022-06-03_14h06.05.120,Main,2022.1.1,59.99059347495596,
negative,red,1,None,None,,,,,,,,,0,22,22,22,,,,,,,,,,,,,,,,,,,,,,,,,,,,,,,,,,,,,main,None,None,1,1.5089287000000695,246.19356959999982,None,None,1,,,,,,,,,,,,,,228,21,Female,2022-06-03_14h06.05.120,Main,2022.1.1,59.99059347495596,
positive,red,2,None,None,,,,,,,,,0,23,23,23,,,,,,,,,,,,,,,,,,,,,,,,,,,,,,,,,,,,,main,None,None,1,1.5003046999995604,248.70502550000015,None,None,1,,,,,,,,,,,,,,228,21,Female,2022-06-03_14h06.05.120,Main,2022.1.1,59.99059347495596,
negative,red,2,None,None,,,,,,,,,0,24,24,24,,,,,,,,,,,,,,,,,,,,,,,,,,,,,,,,,,,,,main,None,None,1,1.5078244000001177,251.2065270999999,None,None,1,,,,,,,,,,,,,,228,21,Female,2022-06-03_14h06.05.120,Main,2022.1.1,59.99059347495596,
positive,blue,2,k,None,,,,,,,,,0,25,25,25,,,,,,,,,,,,,,,,,,,,,,,,,,,,,,,,,,,,,main,k,k,1,1.3765077000002748,253.7176339,None,None,0,,,,,,,,,,,,,,228,21,Female,2022-06-03_14h06.05.120,Main,2022.1.1,59.99059347495596,
negative,yellow,1,k,None,,,,,,,,,0,26,26,26,,,,,,,,,,,,,,,,,,,,,,,,,,,,,,,,,,,,,main,k,k,1,1.0079461999998784,256.09643459999984,None,None,0,,,,,,,,,,,,,,228,21,Female,2022-06-03_14h06.05.120,Main,2022.1.1,59.99059347495596,
positive,blue,2,k,None,,,,,,,,,0,27,27,27,,,,,,,,,,,,,,,,,,,,,,,,,,,,,,,,,,,,,main,k,k,1,0.8128697999995893,258.1061510000002,None,None,0,,,,,,,,,,,,,,228,21,Female,2022-06-03_14h06.05.120,Main,2022.1.1,59.99059347495596,
negative,blue,2,None,k,,,,,,,,,0,28,28,28,,,,,,,,,,,,,,,,,,,,,,,,,,,,,,,,,,,,,main,None,None,1,1.5086920000003374,259.9218107999998,None,None,1,,,,,,,,,,,,,,228,21,Female,2022-06-03_14h06.05.120,Main,2022.1.1,59.99059347495596,
positive,red,1,None,None,,,,,,,,,0,29,29,29,,,,,,,,,,,,,,,,,,,,,,,,,,,,,,,,,,,,,main,None,None,1,1.501453500000025,262.4336971,None,None,1,,,,,,,,,,,,,,228,21,Female,2022-06-03_14h06.05.120,Main,2022.1.1,59.99059347495596,
positive,blue,1,k,None,,,,,,,,,0,30,30,30,,,,,,,,,,,,,,,,,,,,,,,,,,,,,,,,,,,,,main,k,k,1,1.0253975000000537,264.9369838,None,None,0,,,,,,,,,,,,,,228,21,Female,2022-06-03_14h06.05.120,Main,2022.1.1,59.99059347495596,
positive,yellow,1,None,k,,,,,,,,,0,31,31,31,,,,,,,,,,,,,,,,,,,,,,,,,,,,,,,,,,,,,main,None,None,1,1.5100099000001137,266.96518260000016,None,None,1,,,,,,,,,,,,,,228,21,Female,2022-06-03_14h06.05.120,Main,2022.1.1,59.99059347495596,
negative,yellow,2,k,None,,,,,,,,,0,32,32,32,,,,,,,,,,,,,,,,,,,,,,,,,,,,,,,,,,,,,main,k,k,1,0.7601308000002973,269.4744324999999,None,None,0,,,,,,,,,,,,,,228,21,Female,2022-06-03_14h06.05.120,Main,2022.1.1,59.99059347495596,
negative,blue,1,None,k,,,,,,,,,0,33,33,33,,,,,,,,,,,,,,,,,,,,,,,,,,,,,,,,,,,,,main,None,None,1,1.5072015999999167,271.23948459999997,None,None,1,,,,,,,,,,,,,,228,21,Female,2022-06-03_14h06.05.120,Main,2022.1.1,59.99059347495596,
positive,blue,1,k,None,,,,,,,,,0,34,34,34,,,,,,,,,,,,,,,,,,,,,,,,,,,,,,,,,,,,,main,k,k,1,0.8122542999999496,273.7479544999999,None,None,0,,,,,,,,,,,,,,228,21,Female,2022-06-03_14h06.05.120,Main,2022.1.1,59.99059347495596,
negative,yellow,1,k,None,,,,,,,,,0,35,35,35,,,,,,,,,,,,,,,,,,,,,,,,,,,,,,,,,,,,,main,k,k,1,0.7472382999999354,275.5617374000001,None,None,0,,,,,,,,,,,,,,228,21,Female,2022-06-03_14h06.05.120,Main,2022.1.1,59.99059347495596,
positive,yellow,2,None,k,,,,,,,,,0,36,36,36,,,,,,,,,,,,,,,,,,,,,,,,,,,,,,,,,,,,,main,None,None,1,1.499874600000112,277.30862939999975,None,None,1,,,,,,,,,,,,,,228,21,Female,2022-06-03_14h06.05.120,Main,2022.1.1,59.99059347495596,
positive,yellow,2,None,k,,,,,,,,,0,37,37,37,,,,,,,,,,,,,,,,,,,,,,,,,,,,,,,,,,,,,main,None,None,1,1.510953200000131,279.81264699999997,None,None,1,,,,,,,,,,,,,,228,21,Female,2022-06-03_14h06.05.120,Main,2022.1.1,59.99059347495596,
negative,yellow,2,k,None,,,,,,,,,0,38,38,38,,,,,,,,,,,,,,,,,,,,,,,,,,,,,,,,,,,,,main,k,k,1,0.5739155999999639,282.3221557999998,None,None,0,,,,,,,,,,,,,,228,21,Female,2022-06-03_14h06.05.120,Main,2022.1.1,59.99059347495596,
positive,yellow,1,None,k,,,,,,,,,0,39,39,39,,,,,,,,,,,,,,,,,,,,,,,,,,,,,,,,,,,,,main,None,None,1,1.5007221000000754,283.8993678999998,None,None,1,,,,,,,,,,,,,,228,21,Female,2022-06-03_14h06.05.120,Main,2022.1.1,59.99059347495596,
negative,yellow,2,k,None,,,,,,,,,0,40,40,40,,,,,,,,,,,,,,,,,,,,,,,,,,,,,,,,,,,,,main,k,k,1,0.8051930999999968,286.4014881999999,None,None,0,,,,,,,,,,,,,,228,21,Female,2022-06-03_14h06.05.120,Main,2022.1.1,59.99059347495596,
positive,blue,2,k,None,,,,,,,,,0,41,41,41,,,,,,,,,,,,,,,,,,,,,,,,,,,,,,,,,,,,,main,k,k,1,0.8363325999998779,288.211403,None,None,0,,,,,,,,,,,,,,228,21,Female,2022-06-03_14h06.05.120,Main,2022.1.1,59.99059347495596,
positive,blue,2,k,None,,,,,,,,,0,42,42,42,,,,,,,,,,,,,,,,,,,,,,,,,,,,,,,,,,,,,main,k,k,1,0.7147399000000405,290.0485594999998,None,None,0,,,,,,,,,,,,,,228,21,Female,2022-06-03_14h06.05.120,Main,2022.1.1,59.99059347495596,
negative,blue,2,None,k,,,,,,,,,0,43,43,43,,,,,,,,,,,,,,,,,,,,,,,,,,,,,,,,,,,,,main,None,None,1,1.5092434000002868,291.76479529999983,None,None,1,,,,,,,,,,,,,,228,21,Female,2022-06-03_14h06.05.120,Main,2022.1.1,59.99059347495596,
negative,red,1,None,None,,,,,,,,,0,44,44,44,,,,,,,,,,,,,,,,,,,,,,,,,,,,,,,,,,,,,main,None,None,1,1.5086043999999674,294.27743639999994,None,None,1,,,,,,,,,,,,,,228,21,Female,2022-06-03_14h06.05.120,Main,2022.1.1,59.99059347495596,
negative,yellow,1,k,None,,,,,,,,,0,45,45,45,,,,,,,,,,,,,,,,,,,,,,,,,,,,,,,,,,,,,main,k,k,1,0.7306511000001592,296.78436869999973,None,None,0,,,,,,,,,,,,,,228,21,Female,2022-06-03_14h06.05.120,Main,2022.1.1,59.99059347495596,
negative,yellow,1,k,None,,,,,,,,,0,46,46,46,,,,,,,,,,,,,,,,,,,,,,,,,,,,,,,,,,,,,main,k,k,1,0.6052349999999933,298.51759930000003,None,None,0,,,,,,,,,,,,,,228,21,Female,2022-06-03_14h06.05.120,Main,2022.1.1,59.99059347495596,
positive,red,1,None,None,,,,,,,,,0,47,47,47,,,,,,,,,,,,,,,,,,,,,,,,,,,,,,,,,,,,,main,None,None,1,1.508924499999921,300.1276768,None,None,1,,,,,,,,,,,,,,228,21,Female,2022-06-03_14h06.05.120,Main,2022.1.1,59.99059347495596,
positive,yellow,1,None,k,,,,,,,,,0,48,48,48,,,,,,,,,,,,,,,,,,,,,,,,,,,,,,,,,,,,,main,None,None,1,1.5026315000000068,302.63575979999973,None,None,1,,,,,,,,,,,,,,228,21,Female,2022-06-03_14h06.05.120,Main,2022.1.1,59.99059347495596,
negative,blue,1,None,k,,,,,,,,,0,49,49,49,,,,,,,,,,,,,,,,,,,,,,,,,,,,,,,,,,,,,main,None,None,1,1.5036025000003974,305.1414163000002,None,None,1,,,,,,,,,,,,,,228,21,Female,2022-06-03_14h06.05.120,Main,2022.1.1,59.99059347495596,
positive,yellow,2,None,k,,,,,,,,,0,50,50,50,,,,,,,,,,,,,,,,,,,,,,,,,,,,,,,,,,,,,main,None,None,1,1.5010286000001543,307.6461554,None,None,1,,,,,,,,,,,,,,228,21,Female,2022-06-03_14h06.05.120,Main,2022.1.1,59.99059347495596,
negative,blue,1,None,k,,,,,,,,,0,51,51,51,,,,,,,,,,,,,,,,,,,,,,,,,,,,,,,,,,,,,main,None,None,1,1.5014693000002808,310.1496034999998,None,None,1,,,,,,,,,,,,,,228,21,Female,2022-06-03_14h06.05.120,Main,2022.1.1,59.99059347495596,
positive,red,2,None,None,,,,,,,,,0,52,52,52,,,,,,,,,,,,,,,,,,,,,,,,,,,,,,,,,,,,,main,None,None,1,1.5128866000000016,312.6528130999998,None,None,1,,,,,,,,,,,,,,228,21,Female,2022-06-03_14h06.05.120,Main,2022.1.1,59.99059347495596,
positive,yellow,2,None,k,,,,,,,,,0,53,53,53,,,,,,,,,,,,,,,,,,,,,,,,,,,,,,,,,,,,,main,None,None,1,1.5084905000003346,315.1667116000001,None,None,1,,,,,,,,,,,,,,228,21,Female,2022-06-03_14h06.05.120,Main,2022.1.1,59.99059347495596,
negative,red,2,None,None,,,,,,,,,0,54,54,54,,,,,,,,,,,,,,,,,,,,,,,,,,,,,,,,,,,,,main,None,None,1,1.5085338999997475,317.6781776999999,None,None,1,,,,,,,,,,,,,,228,21,Female,2022-06-03_14h06.05.120,Main,2022.1.1,59.99059347495596,
positive,yellow,1,None,k,,,,,,,,,0,55,55,55,,,,,,,,,,,,,,,,,,,,,,,,,,,,,,,,,,,,,main,None,None,1,1.49795099999983,320.1886864999999,None,None,1,,,,,,,,,,,,,,228,21,Female,2022-06-03_14h06.05.120,Main,2022.1.1,59.99059347495596,
negative,blue,2,None,k,,,,,,,,,0,56,56,56,,,,,,,,,,,,,,,,,,,,,,,,,,,,,,,,,,,,,main,None,None,1,1.5104403999998794,322.6881557999998,None,None,1,,,,,,,,,,,,,,228,21,Female,2022-06-03_14h06.05.120,Main,2022.1.1,59.99059347495596,
positive,blue,1,k,None,,,,,,,,,0,57,57,57,,,,,,,,,,,,,,,,,,,,,,,,,,,,,,,,,,,,,main,k,k,1,0.8180700999996589,325.19829000000004,None,None,0,,,,,,,,,,,,,,228,21,Female,2022-06-03_14h06.05.120,Main,2022.1.1,59.99059347495596,
positive,blue,1,k,None,,,,,,,,,0,58,58,58,,,,,,,,,,,,,,,,,,,,,,,,,,,,,,,,,,,,,main,k,k,1,0.7474919999999656,327.01853989999995,None,None,0,,,,,,,,,,,,,,228,21,Female,2022-06-03_14h06.05.120,Main,2022.1.1,59.99059347495596,
negative,yellow,2,k,None,,,,,,,,,0,59,59,59,,,,,,,,,,,,,,,,,,,,,,,,,,,,,,,,,,,,,main,k,k,1,1.1031323000001976,328.7698032999999,None,None,0,,,,,,,,,,,,,,228,21,Female,2022-06-03_14h06.05.120,Main,2022.1.1,59.99059347495596,
positive,red,2,None,None,,,,,,,,,0,60,60,60,,,,,,,,,,,,,,,,,,,,,,,,,,,,,,,,,,,,,main,None,None,1,1.5047746000000188,330.8739008,None,None,1,,,,,,,,,,,,,,228,21,Female,2022-06-03_14h06.05.120,Main,2022.1.1,59.99059347495596,
negative,yellow,1,k,None,,,,,,,,,0,61,61,61,,,,,,,,,,,,,,,,,,,,,,,,,,,,,,,,,,,,,main,k,k,1,1.0571846999996524,333.3792040999999,None,None,0,,,,,,,,,,,,,,228,21,Female,2022-06-03_14h06.05.120,Main,2022.1.1,59.99059347495596,
negative,red,1,None,None,,,,,,,,,0,62,62,62,,,,,,,,,,,,,,,,,,,,,,,,,,,,,,,,,,,,,main,None,None,1,1.4968088999999054,335.4401402000001,None,None,1,,,,,,,,,,,,,,228,21,Female,2022-06-03_14h06.05.120,Main,2022.1.1,59.99059347495596,
negative,blue,1,None,k,,,,,,,,,0,63,63,63,,,,,,,,,,,,,,,,,,,,,,,,,,,,,,,,,,,,,main,None,None,1,1.4966977999997653,337.9390073000002,None,None,1,,,,,,,,,,,,,,228,21,Female,2022-06-03_14h06.05.120,Main,2022.1.1,59.99059347495596,
positive,blue,2,k,None,,,,,,,,,0,64,64,64,,,,,,,,,,,,,,,,,,,,,,,,,,,,,,,,,,,,,main,k,k,1,0.6972412000000077,340.4377105000001,None,None,0,,,,,,,,,,,,,,228,21,Female,2022-06-03_14h06.05.120,Main,2022.1.1,59.99059347495596,
negative,yellow,2,k,None,,,,,,,,,0,65,65,65,,,,,,,,,,,,,,,,,,,,,,,,,,,,,,,,,,,,,main,k,k,1,0.7521157999999559,342.1361365999999,None,None,0,,,,,,,,,,,,,,228,21,Female,2022-06-03_14h06.05.120,Main,2022.1.1,59.99059347495596,
positive,yellow,2,None,k,,,,,,,,,0,66,66,66,,,,,,,,,,,,,,,,,,,,,,,,,,,,,,,,,,,,,main,None,None,1,1.5027076000001216,343.88951729999985,None,None,1,,,,,,,,,,,,,,228,21,Female,2022-06-03_14h06.05.120,Main,2022.1.1,59.99059347495596,
positive,yellow,2,None,k,,,,,,,,,0,67,67,67,,,,,,,,,,,,,,,,,,,,,,,,,,,,,,,,,,,,,main,None,None,1,1.5020847999999205,346.39357229999973,None,None,1,,,,,,,,,,,,,,228,21,Female,2022-06-03_14h06.05.120,Main,2022.1.1,59.99059347495596,
positive,red,1,None,None,,,,,,,,,0,68,68,68,,,,,,,,,,,,,,,,,,,,,,,,,,,,,,,,,,,,,main,None,None,1,1.5001326000001427,348.89504150000016,None,None,1,,,,,,,,,,,,,,228,21,Female,2022-06-03_14h06.05.120,Main,2022.1.1,59.99059347495596,
positive,yellow,1,None,k,,,,,,,,,0,69,69,69,,,,,,,,,,,,,,,,,,,,,,,,,,,,,,,,,,,,,main,None,None,1,1.5015634999999747,351.3967875999999,None,None,1,,,,,,,,,,,,,,228,21,Female,2022-06-03_14h06.05.120,Main,2022.1.1,59.99059347495596,
negative,yellow,2,k,None,,,,,,,,,0,70,70,70,,,,,,,,,,,,,,,,,,,,,,,,,,,,,,,,,,,,,main,k,k,1,0.780197699999917,353.9018500999998,None,None,0,,,,,,,,,,,,,,228,21,Female,2022-06-03_14h06.05.120,Main,2022.1.1,59.99059347495596,
positive,yellow,1,None,k,,,,,,,,,0,71,71,71,,,,,,,,,,,,,,,,,,,,,,,,,,,,,,,,,,,,,main,None,None,1,1.4963670999995884,355.6838974,None,None,1,,,,,,,,,,,,,,228,21,Female,2022-06-03_14h06.05.120,Main,2022.1.1,59.99059347495596,
negative,blue,1,None,k,,,,,,,,,0,72,72,72,,,,,,,,,,,,,,,,,,,,,,,,,,,,,,,,,,,,,main,None,None,1,1.4965640000000349,358.1791308999998,None,None,1,,,,,,,,,,,,,,228,21,Female,2022-06-03_14h06.05.120,Main,2022.1.1,59.99059347495596,
negative,red,2,None,None,,,,,,,,,0,73,73,73,,,,,,,,,,,,,,,,,,,,,,,,,,,,,,,,,,,,,main,None,None,1,1.5115888000000268,360.6776266999998,None,None,1,,,,,,,,,,,,,,228,21,Female,2022-06-03_14h06.05.120,Main,2022.1.1,59.99059347495596,
positive,blue,2,k,None,,,,,,,,,0,74,74,74,,,,,,,,,,,,,,,,,,,,,,,,,,,,,,,,,,,,,main,k,k,1,0.7698817999998937,363.1921844000001,None,None,0,,,,,,,,,,,,,,228,21,Female,2022-06-03_14h06.05.120,Main,2022.1.1,59.99059347495596,
negative,blue,2,None,k,,,,,,,,,0,75,75,75,,,,,,,,,,,,,,,,,,,,,,,,,,,,,,,,,,,,,main,None,None,1,1.5138828999997713,364.9659497,None,None,1,,,,,,,,,,,,,,228,21,Female,2022-06-03_14h06.05.120,Main,2022.1.1,59.99059347495596,
negative,blue,2,None,k,,,,,,,,,0,76,76,76,,,,,,,,,,,,,,,,,,,,,,,,,,,,,,,,,,,,,main,None,None,1,1.4997580999997808,367.48105180000016,None,None,1,,,,,,,,,,,,,,228,21,Female,2022-06-03_14h06.05.120,Main,2022.1.1,59.99059347495596,
negative,yellow,1,k,None,,,,,,,,,0,77,77,77,,,,,,,,,,,,,,,,,,,,,,,,,,,,,,,,,,,,,main,k,k,1,0.7114283000000796,369.9823823999998,None,None,0,,,,,,,,,,,,,,228,21,Female,2022-06-03_14h06.05.120,Main,2022.1.1,59.99059347495596,
positive,blue,1,k,None,,,,,,,,,0,78,78,78,,,,,,,,,,,,,,,,,,,,,,,,,,,,,,,,,,,,,main,k,k,1,1.0169310000001133,371.69327020000014,None,None,0,,,,,,,,,,,,,,228,21,Female,2022-06-03_14h06.05.120,Main,2022.1.1,59.99059347495596,
positive,blue,1,k,None,,,,,,,,,0,79,79,79,,,,,,,,,,,,,,,,,,,,,,,,,,,,,,,,,,,,,main,k,k,1,0.8068711999999323,373.71490130000007,None,None,0,,,,,,,,,,,,,,228,21,Female,2022-06-03_14h06.05.120,Main,2022.1.1,59.99059347495596,
positive,red,2,None,None,,,,,,,,,0,80,80,80,,,,,,,,,,,,,,,,,,,,,,,,,,,,,,,,,,,,,main,None,None,1,1.5084204999998292,375.5217571999999,None,None,1,,,,,,,,,,,,,,228,21,Female,2022-06-03_14h06.05.120,Main,2022.1.1,59.99059347495596,
positive,yellow,2,None,k,,,,,,,,,0,81,81,81,,,,,,,,,,,,,,,,,,,,,,,,,,,,,,,,,,,,,main,None,None,1,1.5113025999999081,378.03210550000017,None,None,1,,,,,,,,,,,,,,228,21,Female,2022-06-03_14h06.05.120,Main,2022.1.1,59.99059347495596,
positive,blue,1,k,None,,,,,,,,,0,82,82,82,,,,,,,,,,,,,,,,,,,,,,,,,,,,,,,,,,,,,main,k,k,1,0.8859707000001436,380.54325399999993,None,None,0,,,,,,,,,,,,,,228,21,Female,2022-06-03_14h06.05.120,Main,2022.1.1,59.99059347495596,
negative,yellow,2,k,None,,,,,,,,,0,83,83,83,,,,,,,,,,,,,,,,,,,,,,,,,,,,,,,,,,,,,main,k,k,1,0.6987868999999591,382.4323428,None,None,0,,,,,,,,,,,,,,228,21,Female,2022-06-03_14h06.05.120,Main,2022.1.1,59.99059347495596,
positive,blue,2,k,None,,,,,,,,,0,84,84,84,,,,,,,,,,,,,,,,,,,,,,,,,,,,,,,,,,,,,main,k,k,1,0.7553269,384.13330740000015,None,None,0,,,,,,,,,,,,,,228,21,Female,2022-06-03_14h06.05.120,Main,2022.1.1,59.99059347495596,
positive,yellow,1,None,k,,,,,,,,,0,85,85,85,,,,,,,,,,,,,,,,,,,,,,,,,,,,,,,,,,,,,main,None,None,1,1.5123815000001741,385.8890558999999,None,None,1,,,,,,,,,,,,,,228,21,Female,2022-06-03_14h06.05.120,Main,2022.1.1,59.99059347495596,
positive,blue,2,k,None,,,,,,,,,0,86,86,86,,,,,,,,,,,,,,,,,,,,,,,,,,,,,,,,,,,,,main,k,k,1,0.7016617999997834,388.40514229999985,None,None,0,,,,,,,,,,,,,,228,21,Female,2022-06-03_14h06.05.120,Main,2022.1.1,59.99059347495596,
positive,blue,1,k,None,,,,,,,,,0,87,87,87,,,,,,,,,,,,,,,,,,,,,,,,,,,,,,,,,,,,,main,k,k,1,0.8657401000000391,390.10802519999993,None,None,0,,,,,,,,,,,,,,228,21,Female,2022-06-03_14h06.05.120,Main,2022.1.1,59.99059347495596,
negative,yellow,2,k,None,,,,,,,,,0,88,88,88,,,,,,,,,,,,,,,,,,,,,,,,,,,,,,,,,,,,,main,k,k,1,0.6829077000002144,391.9747626999999,None,None,0,,,,,,,,,,,,,,228,21,Female,2022-06-03_14h06.05.120,Main,2022.1.1,59.99059347495596,
negative,blue,2,None,k,,,,,,,,,0,89,89,89,,,,,,,,,,,,,,,,,,,,,,,,,,,,,,,,,,,,,main,None,None,1,1.4960476000001108,393.66306839999993,None,None,1,,,,,,,,,,,,,,228,21,Female,2022-06-03_14h06.05.120,Main,2022.1.1,59.99059347495596,
positive,yellow,2,None,k,,,,,,,,,0,90,90,90,,,,,,,,,,,,,,,,,,,,,,,,,,,,,,,,,,,,,main,None,None,1,1.5012478000003284,396.15772489999995,None,None,1,,,,,,,,,,,,,,228,21,Female,2022-06-03_14h06.05.120,Main,2022.1.1,59.99059347495596,
negative,yellow,1,k,None,,,,,,,,,0,91,91,91,,,,,,,,,,,,,,,,,,,,,,,,,,,,,,,,,,,,,main,k,k,1,0.7720496000001731,398.66291149999984,None,None,0,,,,,,,,,,,,,,228,21,Female,2022-06-03_14h06.05.120,Main,2022.1.1,59.99059347495596,
negative,red,2,None,None,,,,,,,,,0,92,92,92,,,,,,,,,,,,,,,,,,,,,,,,,,,,,,,,,,,,,main,None,None,1,1.5051563999995778,400.4360125999999,None,None,1,,,,,,,,,,,,,,228,21,Female,2022-06-03_14h06.05.120,Main,2022.1.1,59.99059347495596,
negative,blue,2,None,k,,,,,,,,,0,93,93,93,,,,,,,,,,,,,,,,,,,,,,,,,,,,,,,,,,,,,main,None,None,1,1.514979499999754,402.9431431999999,None,None,1,,,,,,,,,,,,,,228,21,Female,2022-06-03_14h06.05.120,Main,2022.1.1,59.99059347495596,
negative,blue,1,None,k,,,,,,,,,0,94,94,94,,,,,,,,,,,,,,,,,,,,,,,,,,,,,,,,,,,,,main,None,None,1,1.4973426999999901,405.45959340000013,None,None,1,,,,,,,,,,,,,,228,21,Female,2022-06-03_14h06.05.120,Main,2022.1.1,59.99059347495596,
negative,blue,1,None,k,,,,,,,,,0,95,95,95,,,,,,,,,,,,,,,,,,,,,,,,,,,,,,,,,,,,,main,None,None,1,1.4983188000001064,407.9564678999998,None,None,1,,,,,,,,,,,,,,228,21,Female,2022-06-03_14h06.05.120,Main,2022.1.1,59.99059347495596,
negative,red,1,None,None,,,,,,,,,0,96,96,96,,,,,,,,,,,,,,,,,,,,,,,,,,,,,,,,,,,,,main,None,None,1,1.5053048999998282,410.45610580000016,None,None,1,,,,,,,,,,,,,,228,21,Female,2022-06-03_14h06.05.120,Main,2022.1.1,59.99059347495596,
positive,yellow,1,None,k,,,,,,,,,0,97,97,97,,,,,,,,,,,,,,,,,,,,,,,,,,,,,,,,,,,,,main,None,None,1,1.5068685999999616,412.9648380000001,None,None,1,,,,,,,,,,,,,,228,21,Female,2022-06-03_14h06.05.120,Main,2022.1.1,59.99059347495596,
negative,yellow,1,k,None,,,,,,,,,0,98,98,98,,,,,,,,,,,,,,,,,,,,,,,,,,,,,,,,,,,,,main,k,k,1,0.6443616000001384,415.4720810000001,None,None,0,,,,,,,,,,,,,,228,21,Female,2022-06-03_14h06.05.120,Main,2022.1.1,59.99059347495596,
positive,red,1,None,None,,,,,,,,,0,99,99,99,,,,,,,,,,,,,,,,,,,,,,,,,,,,,,,,,,,,,main,None,None,1,1.5046260999997685,417.11861429999976,None,None,1,,,,,,,,,,,,,,228,21,Female,2022-06-03_14h06.05.120,Main,2022.1.1,59.99059347495596,
positive,blue,1,k,None,,,,,,,,,0,100,100,100,,,,,,,,,,,,,,,,,,,,,,,,,,,,,,,,,,,,,main,k,k,1,0.7665498999999727,419.62820940000006,None,None,0,,,,,,,,,,,,,,228,21,Female,2022-06-03_14h06.05.120,Main,2022.1.1,59.99059347495596,
negative,yellow,1,k,None,,,,,,,,,0,101,101,101,,,,,,,,,,,,,,,,,,,,,,,,,,,,,,,,,,,,,main,k,k,1,0.7854606000000786,421.3958780999999,None,None,0,,,,,,,,,,,,,,228,21,Female,2022-06-03_14h06.05.120,Main,2022.1.1,59.99059347495596,
negative,blue,2,None,k,,,,,,,,,0,102,102,102,,,,,,,,,,,,,,,,,,,,,,,,,,,,,,,,,,,,,main,None,None,1,1.4983816000003571,423.182603,None,None,1,,,,,,,,,,,,,,228,21,Female,2022-06-03_14h06.05.120,Main,2022.1.1,59.99059347495596,
negative,yellow,2,k,None,,,,,,,,,0,103,103,103,,,,,,,,,,,,,,,,,,,,,,,,,,,,,,,,,,,,,main,k,k,1,1.0899616000001515,425.6831189000002,None,None,0,,,,,,,,,,,,,,228,21,Female,2022-06-03_14h06.05.120,Main,2022.1.1,59.99059347495596,
positive,yellow,2,None,k,,,,,,,,,0,104,104,104,,,,,,,,,,,,,,,,,,,,,,,,,,,,,,,,,,,,,main,None,None,1,1.4992550000001756,427.77540569999996,None,None,1,,,,,,,,,,,,,,228,21,Female,2022-06-03_14h06.05.120,Main,2022.1.1,59.99059347495596,
positive,blue,1,k,None,,,,,,,,,0,105,105,105,,,,,,,,,,,,,,,,,,,,,,,,,,,,,,,,,,,,,main,k,k,1,0.9317066999997223,430.2774843999998,None,None,0,,,,,,,,,,,,,,228,21,Female,2022-06-03_14h06.05.120,Main,2022.1.1,59.99059347495596,
positive,blue,2,k,None,,,,,,,,,0,106,106,106,,,,,,,,,,,,,,,,,,,,,,,,,,,,,,,,,,,,,main,k,k,1,0.8011433000001489,432.2116625000001,None,None,0,,,,,,,,,,,,,,228,21,Female,2022-06-03_14h06.05.120,Main,2022.1.1,59.99059347495596,
negative,blue,1,None,k,,,,,,,,,0,107,107,107,,,,,,,,,,,,,,,,,,,,,,,,,,,,,,,,,,,,,main,None,None,1,1.4959446000002572,434.0119284,None,None,1,,,,,,,,,,,,,,228,21,Female,2022-06-03_14h06.05.120,Main,2022.1.1,59.99059347495596,
positive,yellow,2,None,k,,,,,,,,,0,108,108,108,,,,,,,,,,,,,,,,,,,,,,,,,,,,,,,,,,,,,main,None,None,1,1.504511800000273,436.51003479999986,None,None,1,,,,,,,,,,,,,,228,21,Female,2022-06-03_14h06.05.120,Main,2022.1.1,59.99059347495596,
negative,yellow,1,k,None,,,,,,,,,0,109,109,109,,,,,,,,,,,,,,,,,,,,,,,,,,,,,,,,,,,,,main,k,k,1,0.6944425000001502,439.0152255999999,None,None,0,,,,,,,,,,,,,,228,21,Female,2022-06-03_14h06.05.120,Main,2022.1.1,59.99059347495596,
negative,blue,2,None,k,,,,,,,,,0,110,110,110,,,,,,,,,,,,,,,,,,,,,,,,,,,,,,,,,,,,,main,None,None,1,1.5056421999997838,440.7142959,None,None,1,,,,,,,,,,,,,,228,21,Female,2022-06-03_14h06.05.120,Main,2022.1.1,59.99059347495596,
positive,blue,2,k,None,,,,,,,,,0,111,111,111,,,,,,,,,,,,,,,,,,,,,,,,,,,,,,,,,,,,,main,k,k,1,0.9742576000003282,443.21814119999976,None,None,0,,,,,,,,,,,,,,228,21,Female,2022-06-03_14h06.05.120,Main,2022.1.1,59.99059347495596,
negative,blue,1,None,k,,,,,,,,,0,112,112,112,,,,,,,,,,,,,,,,,,,,,,,,,,,,,,,,,,,,,main,None,None,1,1.504302899999857,445.196471,None,None,1,,,,,,,,,,,,,,228,21,Female,2022-06-03_14h06.05.120,Main,2022.1.1,59.99059347495596,
positive,yellow,1,None,k,,,,,,,,,0,113,113,113,,,,,,,,,,,,,,,,,,,,,,,,,,,,,,,,,,,,,main,None,None,1,1.502649599999586,447.6998508999998,None,None,1,,,,,,,,,,,,,,228,21,Female,2022-06-03_14h06.05.120,Main,2022.1.1,59.99059347495596,
negative,red,1,None,None,,,,,,,,,0,114,114,114,,,,,,,,,,,,,,,,,,,,,,,,,,,,,,,,,,,,,main,None,None,1,1.5108407000002444,450.2066441999998,None,None,1,,,,,,,,,,,,,,228,21,Female,2022-06-03_14h06.05.120,Main,2022.1.1,59.99059347495596,
positive,red,1,None,None,,,,,,,,,0,115,115,115,,,,,,,,,,,,,,,,,,,,,,,,,,,,,,,,,,,,,main,None,None,1,1.4955987999996978,452.7161678,None,None,1,,,,,,,,,,,,,,228,21,Female,2022-06-03_14h06.05.120,Main,2022.1.1,59.99059347495596,
negative,red,2,None,None,,,,,,,,,0,116,116,116,,,,,,,,,,,,,,,,,,,,,,,,,,,,,,,,,,,,,main,None,None,1,1.4960106999997151,455.2148679999998,None,None,1,,,,,,,,,,,,,,228,21,Female,2022-06-03_14h06.05.120,Main,2022.1.1,59.99059347495596,
negative,yellow,2,k,None,,,,,,,,,0,117,117,117,,,,,,,,,,,,,,,,,,,,,,,,,,,,,,,,,,,,,main,k,k,1,0.8022513999999319,457.7161057999999,None,None,0,,,,,,,,,,,,,,228,21,Female,2022-06-03_14h06.05.120,Main,2022.1.1,59.99059347495596,
positive,yellow,1,None,k,,,,,,,,,0,118,118,118,,,,,,,,,,,,,,,,,,,,,,,,,,,,,,,,,,,,,main,None,None,1,1.498899100000017,459.5208632000001,None,None,1,,,,,,,,,,,,,,228,21,Female,2022-06-03_14h06.05.120,Main,2022.1.1,59.99059347495596,
positive,red,2,None,None,,,,,,,,,0,119,119,119,,,,,,,,,,,,,,,,,,,,,,,,,,,,,,,,,,,,,main,None,None,1,1.4987549000002218,462.02139379999994,None,None,1,,,,,,,,,,,,,,228,21,Female,2022-06-03_14h06.05.120,Main,2022.1.1,59.99059347495596,
positive,blue,2,k,None,,,,,,,,,0,120,120,120,,,,,,,,,,,,,,,,,,,,,,,,,,,,,,,,,,,,,main,k,k,1,0.7152916000000005,464.52165309999987,None,None,0,,,,,,,,,,,,,,228,21,Female,2022-06-03_14h06.05.120,Main,2022.1.1,59.99059347495596,
negative,red,1,None,None,,,,,,,,,0,121,121,121,,,,,,,,,,,,,,,,,,,,,,,,,,,,,,,,,,,,,main,None,None,1,1.5052222999997866,466.23949800000014,None,None,1,,,,,,,,,,,,,,228,21,Female,2022-06-03_14h06.05.120,Main,2022.1.1,59.99059347495596,
positive,yellow,2,None,k,,,,,,,,,0,122,122,122,,,,,,,,,,,,,,,,,,,,,,,,,,,,,,,,,,,,,main,None,None,1,1.507246600000144,468.7444933999998,None,None,1,,,,,,,,,,,,,,228,21,Female,2022-06-03_14h06.05.120,Main,2022.1.1,59.99059347495596,
negative,red,2,None,None,,,,,,,,,0,123,123,123,,,,,,,,,,,,,,,,,,,,,,,,,,,,,,,,,,,,,main,None,None,1,1.509665000000041,471.25544079999986,None,None,1,,,,,,,,,,,,,,228,21,Female,2022-06-03_14h06.05.120,Main,2022.1.1,59.99059347495596,
negative,yellow,2,k,None,,,,,,,,,0,124,124,124,,,,,,,,,,,,,,,,,,,,,,,,,,,,,,,,,,,,,main,k,k,1,0.8183751999999913,473.7648882000001,None,None,0,,,,,,,,,,,,,,228,21,Female,2022-06-03_14h06.05.120,Main,2022.1.1,59.99059347495596,
positive,red,1,None,None,,,,,,,,,0,125,125,125,,,,,,,,,,,,,,,,,,,,,,,,,,,,,,,,,,,,,main,None,None,1,1.5100016000001233,475.5874271,None,None,1,,,,,,,,,,,,,,228,21,Female,2022-06-03_14h06.05.120,Main,2022.1.1,59.99059347495596,
negative,blue,2,None,k,,,,,,,,,0,126,126,126,,,,,,,,,,,,,,,,,,,,,,,,,,,,,,,,,,,,,main,None,None,1,1.5008866999996826,478.09651009999993,None,None,1,,,,,,,,,,,,,,228,21,Female,2022-06-03_14h06.05.120,Main,2022.1.1,59.99059347495596,
negative,blue,1,None,k,,,,,,,,,0,127,127,127,,,,,,,,,,,,,,,,,,,,,,,,,,,,,,,,,,,,,main,None,None,1,1.499825200000032,480.5985027999998,None,None,1,,,,,,,,,,,,,,228,21,Female,2022-06-03_14h06.05.120,Main,2022.1.1,59.99059347495596,
negative,yellow,1,k,None,,,,,,,,,0,128,128,128,,,,,,,,,,,,,,,,,,,,,,,,,,,,,,,,,,,,,main,k,k,1,0.7492495999999846,483.1016839000001,None,None,0,,,,,,,,,,,,,,228,21,Female,2022-06-03_14h06.05.120,Main,2022.1.1,59.99059347495596,
negative,yellow,1,k,None,,,,,,,,,0,129,129,129,,,,,,,,,,,,,,,,,,,,,,,,,,,,,,,,,,,,,main,k,k,1,0.7020894000002045,484.8532112999999,None,None,0,,,,,,,,,,,,,,228,21,Female,2022-06-03_14h06.05.120,Main,2022.1.1,59.99059347495596,
positive,blue,1,k,None,,,,,,,,,0,130,130,130,,,,,,,,,,,,,,,,,,,,,,,,,,,,,,,,,,,,,main,k,k,1,0.958453599999757,486.5564367999998,None,None,0,,,,,,,,,,,,,,228,21,Female,2022-06-03_14h06.05.120,Main,2022.1.1,59.99059347495596,
negative,blue,1,None,k,,,,,,,,,0,131,131,131,,,,,,,,,,,,,,,,,,,,,,,,,,,,,,,,,,,,,main,None,None,1,1.5012643000000025,488.51637419999975,None,None,1,,,,,,,,,,,,,,228,21,Female,2022-06-03_14h06.05.120,Main,2022.1.1,59.99059347495596,
negative,blue,2,None,k,,,,,,,,,0,132,132,132,,,,,,,,,,,,,,,,,,,,,,,,,,,,,,,,,,,,,main,None,None,1,1.5074565999998413,491.0191484999998,None,None,1,,,,,,,,,,,,,,228,21,Female,2022-06-03_14h06.05.120,Main,2022.1.1,59.99059347495596,
positive,blue,2,k,None,,,,,,,,,0,133,133,133,,,,,,,,,,,,,,,,,,,,,,,,,,,,,,,,,,,,,main,k,k,1,0.7345856000001731,493.5266287000002,None,None,0,,,,,,,,,,,,,,228,21,Female,2022-06-03_14h06.05.120,Main,2022.1.1,59.99059347495596,
positive,red,2,None,None,,,,,,,,,0,134,134,134,,,,,,,,,,,,,,,,,,,,,,,,,,,,,,,,,,,,,main,None,None,1,1.5098502000000735,495.2627095,None,None,1,,,,,,,,,,,,,,228,21,Female,2022-06-03_14h06.05.120,Main,2022.1.1,59.99059347495596,
negative,yellow,2,k,None,,,,,,,,,0,135,135,135,,,,,,,,,,,,,,,,,,,,,,,,,,,,,,,,,,,,,main,k,k,1,0.6513306000001648,497.7756173999999,None,None,0,,,,,,,,,,,,,,228,21,Female,2022-06-03_14h06.05.120,Main,2022.1.1,59.99059347495596,
positive,yellow,2,None,k,,,,,,,,,0,136,136,136,,,,,,,,,,,,,,,,,,,,,,,,,,,,,,,,,,,,,main,None,None,1,1.5107200000002194,499.4284876999998,None,None,1,,,,,,,,,,,,,,228,21,Female,2022-06-03_14h06.05.120,Main,2022.1.1,59.99059347495596,
positive,blue,1,k,None,,,,,,,,,0,137,137,137,,,,,,,,,,,,,,,,,,,,,,,,,,,,,,,,,,,,,main,k,k,1,0.7702131999999438,501.94205929999976,None,None,0,,,,,,,,,,,,,,228,21,Female,2022-06-03_14h06.05.120,Main,2022.1.1,59.99059347495596,
positive,yellow,1,None,k,,,,,,,,,0,138,138,138,,,,,,,,,,,,,,,,,,,,,,,,,,,,,,,,,,,,,main,None,None,1,1.4995202000000063,503.71635089999995,None,None,1,,,,,,,,,,,,,,228,21,Female,2022-06-03_14h06.05.120,Main,2022.1.1,59.99059347495596,
positive,yellow,1,None,k,,,,,,,,,0,139,139,139,,,,,,,,,,,,,,,,,,,,,,,,,,,,,,,,,,,,,main,None,None,1,1.4998786000001019,506.21673080000005,None,None,1,,,,,,,,,,,,,,228,21,Female,2022-06-03_14h06.05.120,Main,2022.1.1,59.99059347495596,
positive,yellow,1,None,k,,,,,,,,,0,140,140,140,,,,,,,,,,,,,,,,,,,,,,,,,,,,,,,,,,,,,main,None,None,1,1.507716900000105,508.71859740000014,None,None,1,,,,,,,,,,,,,,228,21,Female,2022-06-03_14h06.05.120,Main,2022.1.1,59.99059347495596,
positive,blue,1,k,None,,,,,,,,,0,141,141,141,,,,,,,,,,,,,,,,,,,,,,,,,,,,,,,,,,,,,main,k,k,1,0.9448432999997749,511.22523739999974,None,None,0,,,,,,,,,,,,,,228,21,Female,2022-06-03_14h06.05.120,Main,2022.1.1,59.99059347495596,
positive,blue,2,k,None,,,,,,,,,0,142,142,142,,,,,,,,,,,,,,,,,,,,,,,,,,,,,,,,,,,,,main,k,k,1,0.7270410000000993,513.1738459000001,None,None,0,,,,,,,,,,,,,,228,21,Female,2022-06-03_14h06.05.120,Main,2022.1.1,59.99059347495596,
positive,yellow,2,None,k,,,,,,,,,0,143,143,143,,,,,,,,,,,,,,,,,,,,,,,,,,,,,,,,,,,,,main,None,None,1,1.5081077999998342,514.9036159999998,None,None,1,,,,,,,,,,,,,,228,21,Female,2022-06-03_14h06.05.120,Main,2022.1.1,59.99059347495596,
negative,yellow,2,k,None,,,,,,,,,0,144,144,144,,,,,,,,,,,,,,,,,,,,,,,,,,,,,,,,,,,,,main,k,k,1,0.8171228000001065,517.4134584000001,None,None,0,,,,,,,,,,,,,,228,21,Female,2022-06-03_14h06.05.120,Main,2022.1.1,59.99059347495596,
negative,blue,2,None,k,,,,,,,,,0,145,145,145,,,,,,,,,,,,,,,,,,,,,,,,,,,,,,,,,,,,,main,None,None,1,1.5021357000000535,519.2321168000001,None,None,1,,,,,,,,,,,,,,228,21,Female,2022-06-03_14h06.05.120,Main,2022.1.1,59.99059347495596,
negative,red,1,None,None,,,,,,,,,0,146,146,146,,,,,,,,,,,,,,,,,,,,,,,,,,,,,,,,,,,,,main,None,None,1,1.4942479000001185,521.7350244000002,None,None,1,,,,,,,,,,,,,,228,21,Female,2022-06-03_14h06.05.120,Main,2022.1.1,59.99059347495596,
positive,blue,1,k,None,,,,,,,,,0,147,147,147,,,,,,,,,,,,,,,,,,,,,,,,,,,,,,,,,,,,,main,k,k,1,0.8170170999997026,524.2316383999998,None,None,0,,,,,,,,,,,,,,228,21,Female,2022-06-03_14h06.05.120,Main,2022.1.1,59.99059347495596,
positive,yellow,1,None,k,,,,,,,,,0,148,148,148,,,,,,,,,,,,,,,,,,,,,,,,,,,,,,,,,,,,,main,None,None,1,1.5067709999998442,526.0506696999998,None,None,1,,,,,,,,,,,,,,228,21,Female,2022-06-03_14h06.05.120,Main,2022.1.1,59.99059347495596,
negative,red,2,None,None,,,,,,,,,0,149,149,149,,,,,,,,,,,,,,,,,,,,,,,,,,,,,,,,,,,,,main,None,None,1,1.50821360000009,528.5563320999997,None,None,1,,,,,,,,,,,,,,228,21,Female,2022-06-03_14h06.05.120,Main,2022.1.1,59.99059347495596,
negative,blue,1,None,k,,,,,,,,,0,150,150,150,,,,,,,,,,,,,,,,,,,,,,,,,,,,,,,,,,,,,main,None,None,1,1.4977678999998716,531.0682534,None,None,1,,,,,,,,,,,,,,228,21,Female,2022-06-03_14h06.05.120,Main,2022.1.1,59.99059347495596,
negative,yellow,2,k,None,,,,,,,,,0,151,151,151,,,,,,,,,,,,,,,,,,,,,,,,,,,,,,,,,,,,,main,k,k,1,0.6889702000003126,533.5687927000001,None,None,0,,,,,,,,,,,,,,228,21,Female,2022-06-03_14h06.05.120,Main,2022.1.1,59.99059347495596,
negative,blue,2,None,k,,,,,,,,,0,152,152,152,,,,,,,,,,,,,,,,,,,,,,,,,,,,,,,,,,,,,main,None,None,1,1.4967685999999958,535.2593427999998,None,None,1,,,,,,,,,,,,,,228,21,Female,2022-06-03_14h06.05.120,Main,2022.1.1,59.99059347495596,
negative,yellow,1,k,None,,,,,,,,,0,153,153,153,,,,,,,,,,,,,,,,,,,,,,,,,,,,,,,,,,,,,main,k,k,1,0.6868096000002879,537.7554787000001,None,None,0,,,,,,,,,,,,,,228,21,Female,2022-06-03_14h06.05.120,Main,2022.1.1,59.99059347495596,
negative,blue,1,None,k,,,,,,,,,0,154,154,154,,,,,,,,,,,,,,,,,,,,,,,,,,,,,,,,,,,,,main,None,None,1,1.5011753999997381,539.4463008999999,None,None,1,,,,,,,,,,,,,,228,21,Female,2022-06-03_14h06.05.120,Main,2022.1.1,59.99059347495596,
positive,yellow,2,None,k,,,,,,,,,0,155,155,155,,,,,,,,,,,,,,,,,,,,,,,,,,,,,,,,,,,,,main,None,None,1,1.5031460999998671,541.9481316999997,None,None,1,,,,,,,,,,,,,,228,21,Female,2022-06-03_14h06.05.120,Main,2022.1.1,59.99059347495596,
positive,red,2,None,None,,,,,,,,,0,156,156,156,,,,,,,,,,,,,,,,,,,,,,,,,,,,,,,,,,,,,main,None,None,1,1.508288800000173,544.4531684000001,None,None,1,,,,,,,,,,,,,,228,21,Female,2022-06-03_14h06.05.120,Main,2022.1.1,59.99059347495596,
positive,red,1,None,None,,,,,,,,,0,157,157,157,,,,,,,,,,,,,,,,,,,,,,,,,,,,,,,,,,,,,main,None,None,1,1.5080080000002454,546.9644962999998,None,None,1,,,,,,,,,,,,,,228,21,Female,2022-06-03_14h06.05.120,Main,2022.1.1,59.99059347495596,
positive,blue,2,k,None,,,,,,,,,0,158,158,158,,,,,,,,,,,,,,,,,,,,,,,,,,,,,,,,,,,,,main,k,k,1,1.0751315999996223,549.4720798000001,None,None,0,,,,,,,,,,,,,,228,21,Female,2022-06-03_14h06.05.120,Main,2022.1.1,59.99059347495596,
negative,yellow,1,k,None,,,,,,,,,0,159,159,159,,,,,,,,,,,,,,,,,,,,,,,,,,,,,,,,,,,,,main,k,k,1,0.8303027000001748,551.5536599,None,None,0,,,,,,,,,,,,,,228,21,Female,2022-06-03_14h06.05.120,Main,2022.1.1,59.99059347495596,
negative,red,2,None,None,,,,,,,,,0,160,160,160,,,,,,,,,,,,,,,,,,,,,,,,,,,,,,,,,,,,,main,None,None,1,1.4961990000001606,553.3825129999998,None,None,1,,,,,,,,,,,,,,228,21,Female,2022-06-03_14h06.05.120,Main,2022.1.1,59.99059347495596,
negative,blue,1,None,k,,,,,,,,,0,161,161,161,,,,,,,,,,,,,,,,,,,,,,,,,,,,,,,,,,,,,main,None,None,1,1.4940639999999803,555.8805506000001,None,None,1,,,,,,,,,,,,,,228,21,Female,2022-06-03_14h06.05.120,Main,2022.1.1,59.99059347495596,
negative,blue,1,None,k,,,,,,,,,0,162,162,162,,,,,,,,,,,,,,,,,,,,,,,,,,,,,,,,,,,,,main,None,None,1,1.499034799999663,558.3778129999998,None,None,1,,,,,,,,,,,,,,228,21,Female,2022-06-03_14h06.05.120,Main,2022.1.1,59.99059347495596,
negative,yellow,1,k,None,,,,,,,,,0,163,163,163,,,,,,,,,,,,,,,,,,,,,,,,,,,,,,,,,,,,,main,k,k,1,0.8754427000003489,560.8777675999997,None,None,0,,,,,,,,,,,,,,228,21,Female,2022-06-03_14h06.05.120,Main,2022.1.1,59.99059347495596,
negative,yellow,1,k,None,,,,,,,,,0,164,164,164,,,,,,,,,,,,,,,,,,,,,,,,,,,,,,,,,,,,,main,k,k,1,0.6613605000002281,562.7527195,None,None,0,,,,,,,,,,,,,,228,21,Female,2022-06-03_14h06.05.120,Main,2022.1.1,59.99059347495596,
positive,yellow,1,None,k,,,,,,,,,0,165,165,165,,,,,,,,,,,,,,,,,,,,,,,,,,,,,,,,,,,,,main,None,None,1,1.5034923999996863,564.4180318000001,None,None,1,,,,,,,,,,,,,,228,21,Female,2022-06-03_14h06.05.120,Main,2022.1.1,59.99059347495596,
negative,red,1,None,None,,,,,,,,,0,166,166,166,,,,,,,,,,,,,,,,,,,,,,,,,,,,,,,,,,,,,main,None,None,1,1.5073260999997729,566.9242200000001,None,None,1,,,,,,,,,,,,,,228,21,Female,2022-06-03_14h06.05.120,Main,2022.1.1,59.99059347495596,
negative,yellow,2,k,None,,,,,,,,,0,167,167,167,,,,,,,,,,,,,,,,,,,,,,,,,,,,,,,,,,,,,main,k,k,1,0.8428851999997278,569.4328816,None,None,0,,,,,,,,,,,,,,228,21,Female,2022-06-03_14h06.05.120,Main,2022.1.1,59.99059347495596,
positive,blue,2,k,None,,,,,,,,,0,168,168,168,,,,,,,,,,,,,,,,,,,,,,,,,,,,,,,,,,,,,main,k,k,1,0.8664197000002787,571.2785956,None,None,0,,,,,,,,,,,,,,228,21,Female,2022-06-03_14h06.05.120,Main,2022.1.1,59.99059347495596,
positive,red,2,None,None,,,,,,,,,0,169,169,169,,,,,,,,,,,,,,,,,,,,,,,,,,,,,,,,,,,,,main,None,None,1,1.4961882999996305,573.1469860999998,None,None,1,,,,,,,,,,,,,,228,21,Female,2022-06-03_14h06.05.120,Main,2022.1.1,59.99059347495596,
positive,red,1,None,None,,,,,,,,,0,170,170,170,,,,,,,,,,,,,,,,,,,,,,,,,,,,,,,,,,,,,main,None,None,1,1.5034424999998919,575.6442301999998,None,None,1,,,,,,,,,,,,,,228,21,Female,2022-06-03_14h06.05.120,Main,2022.1.1,59.99059347495596,
negative,blue,2,None,k,,,,,,,,,0,171,171,171,,,,,,,,,,,,,,,,,,,,,,,,,,,,,,,,,,,,,main,None,None,1,1.4997887999998056,578.1494012,None,None,1,,,,,,,,,,,,,,228,21,Female,2022-06-03_14h06.05.120,Main,2022.1.1,59.99059347495596,
positive,blue,2,k,None,,,,,,,,,0,172,172,172,,,,,,,,,,,,,,,,,,,,,,,,,,,,,,,,,,,,,main,k,k,1,0.7989668000000165,580.6511002,None,None,0,,,,,,,,,,,,,,228,21,Female,2022-06-03_14h06.05.120,Main,2022.1.1,59.99059347495596,
negative,yellow,2,k,None,,,,,,,,,0,173,173,173,,,,,,,,,,,,,,,,,,,,,,,,,,,,,,,,,,,,,main,k,k,1,0.6637350999999398,582.4524718999999,None,None,0,,,,,,,,,,,,,,228,21,Female,2022-06-03_14h06.05.120,Main,2022.1.1,59.99059347495596,
positive,yellow,2,None,k,,,,,,,,,0,174,174,174,,,,,,,,,,,,,,,,,,,,,,,,,,,,,,,,,,,,,main,None,None,1,1.5104435999996895,584.1165794000001,None,None,1,,,,,,,,,,,,,,228,21,Female,2022-06-03_14h06.05.120,Main,2022.1.1,59.99059347495596,
negative,blue,2,None,k,,,,,,,,,0,175,175,175,,,,,,,,,,,,,,,,,,,,,,,,,,,,,,,,,,,,,main,None,None,1,1.4968850000000202,586.6293979,None,None,1,,,,,,,,,,,,,,228,21,Female,2022-06-03_14h06.05.120,Main,2022.1.1,59.99059347495596,
positive,blue,1,k,None,,,,,,,,,0,176,176,176,,,,,,,,,,,,,,,,,,,,,,,,,,,,,,,,,,,,,main,k,k,1,0.7786954000002879,589.1316184999998,None,None,0,,,,,,,,,,,,,,228,21,Female,2022-06-03_14h06.05.120,Main,2022.1.1,59.99059347495596,
positive,yellow,1,None,k,,,,,,,,,0,177,177,177,,,,,,,,,,,,,,,,,,,,,,,,,,,,,,,,,,,,,main,None,None,1,1.5109881000003043,590.9129980999999,None,None,1,,,,,,,,,,,,,,228,21,Female,2022-06-03_14h06.05.120,Main,2022.1.1,59.99059347495596,
positive,blue,1,k,None,,,,,,,,,0,178,178,178,,,,,,,,,,,,,,,,,,,,,,,,,,,,,,,,,,,,,main,k,k,1,0.7102746000000479,593.4276342999999,None,None,0,,,,,,,,,,,,,,228,21,Female,2022-06-03_14h06.05.120,Main,2022.1.1,59.99059347495596,
positive,yellow,2,None,k,,,,,,,,,0,179,179,179,,,,,,,,,,,,,,,,,,,,,,,,,,,,,,,,,,,,,main,None,None,1,1.5097461999998814,595.1405966999998,None,None,1,,,,,,,,,,,,,,228,21,Female,2022-06-03_14h06.05.120,Main,2022.1.1,59.99059347495596,
positive,blue,1,k,None,,,,,,,,,0,180,180,180,,,,,,,,,,,,,,,,,,,,,,,,,,,,,,,,,,,,,main,k,k,1,0.7462378000000172,597.6486118999999,None,None,0,,,,,,,,,,,,,,228,21,Female,2022-06-03_14h06.05.120,Main,2022.1.1,59.99059347495596,
negative,red,1,None,None,,,,,,,,,0,181,181,181,,,,,,,,,,,,,,,,,,,,,,,,,,,,,,,,,,,,,main,None,None,1,1.4955270999998902,599.3964724999998,None,None,1,,,,,,,,,,,,,,228,21,Female,2022-06-03_14h06.05.120,Main,2022.1.1,59.99059347495596,
negative,blue,1,None,k,,,,,,,,,0,182,182,182,,,,,,,,,,,,,,,,,,,,,,,,,,,,,,,,,,,,,main,None,None,1,1.5123987000001762,601.8953687000001,None,None,1,,,,,,,,,,,,,,228,21,Female,2022-06-03_14h06.05.120,Main,2022.1.1,59.99059347495596,
negative,yellow,2,k,None,,,,,,,,,0,183,183,183,,,,,,,,,,,,,,,,,,,,,,,,,,,,,,,,,,,,,main,k,k,1,0.7554848000004313,604.4114219999999,None,None,0,,,,,,,,,,,,,,228,21,Female,2022-06-03_14h06.05.120,Main,2022.1.1,59.99059347495596,
positive,yellow,2,None,k,,,,,,,,,0,184,184,184,,,,,,,,,,,,,,,,,,,,,,,,,,,,,,,,,,,,,main,None,None,1,1.4996624999998858,606.1701466000002,None,None,1,,,,,,,,,,,,,,228,21,Female,2022-06-03_14h06.05.120,Main,2022.1.1,59.99059347495596,
positive,yellow,1,None,k,,,,,,,,,0,185,185,185,,,,,,,,,,,,,,,,,,,,,,,,,,,,,,,,,,,,,main,None,None,1,1.5083638000000974,608.6711237000002,None,None,1,,,,,,,,,,,,,,228,21,Female,2022-06-03_14h06.05.120,Main,2022.1.1,59.99059347495596,
positive,red,2,None,None,,,,,,,,,0,186,186,186,,,,,,,,,,,,,,,,,,,,,,,,,,,,,,,,,,,,,main,None,None,1,1.4979764999998224,611.1788662000001,None,None,1,,,,,,,,,,,,,,228,21,Female,2022-06-03_14h06.05.120,Main,2022.1.1,59.99059347495596,
positive,blue,1,k,None,,,,,,,,,0,187,187,187,,,,,,,,,,,,,,,,,,,,,,,,,,,,,,,,,,,,,main,k,k,1,0.803097600000001,613.6790253000001,None,None,0,,,,,,,,,,,,,,228,21,Female,2022-06-03_14h06.05.120,Main,2022.1.1,59.99059347495596,
negative,yellow,1,k,None,,,,,,,,,0,188,188,188,,,,,,,,,,,,,,,,,,,,,,,,,,,,,,,,,,,,,main,k,k,1,0.7991673999999875,615.4855175,None,None,0,,,,,,,,,,,,,,228,21,Female,2022-06-03_14h06.05.120,Main,2022.1.1,59.99059347495596,
positive,yellow,2,None,k,,,,,,,,,0,189,189,189,,,,,,,,,,,,,,,,,,,,,,,,,,,,,,,,,,,,,main,None,None,1,1.505963999999949,617.2864972,None,None,1,,,,,,,,,,,,,,228,21,Female,2022-06-03_14h06.05.120,Main,2022.1.1,59.99059347495596,
negative,yellow,2,k,None,,,,,,,,,0,190,190,190,,,,,,,,,,,,,,,,,,,,,,,,,,,,,,,,,,,,,main,k,k,1,0.9006837000001724,619.793011,None,None,0,,,,,,,,,,,,,,228,21,Female,2022-06-03_14h06.05.120,Main,2022.1.1,59.99059347495596,
negative,yellow,1,k,None,,,,,,,,,0,191,191,191,,,,,,,,,,,,,,,,,,,,,,,,,,,,,,,,,,,,,main,k,k,1,0.6704896999999619,621.6976345999999,None,None,0,,,,,,,,,,,,,,228,21,Female,2022-06-03_14h06.05.120,Main,2022.1.1,59.99059347495596,
positive,blue,2,k,None,,,,,,,,,0,192,192,192,,,,,,,,,,,,,,,,,,,,,,,,,,,,,,,,,,,,,main,k,k,1,0.7048594000002595,623.3707728000002,None,None,0,,,,,,,,,,,,,,228,21,Female,2022-06-03_14h06.05.120,Main,2022.1.1,59.99059347495596,
positive,yellow,1,None,k,,,,,,,,,0,193,193,193,,,,,,,,,,,,,,,,,,,,,,,,,,,,,,,,,,,,,main,None,None,1,1.5101645999998254,625.0783835999998,None,None,1,,,,,,,,,,,,,,228,21,Female,2022-06-03_14h06.05.120,Main,2022.1.1,59.99059347495596,
negative,red,2,None,None,,,,,,,,,0,194,194,194,,,,,,,,,,,,,,,,,,,,,,,,,,,,,,,,,,,,,main,None,None,1,1.505427999999938,627.5892823000001,None,None,1,,,,,,,,,,,,,,228,21,Female,2022-06-03_14h06.05.120,Main,2022.1.1,59.99059347495596,
positive,red,1,None,None,,,,,,,,,0,195,195,195,,,,,,,,,,,,,,,,,,,,,,,,,,,,,,,,,,,,,main,None,None,1,1.5058561000000736,630.095458,None,None,1,,,,,,,,,,,,,,228,21,Female,2022-06-03_14h06.05.120,Main,2022.1.1,59.99059347495596,
negative,blue,1,None,k,,,,,,,,,0,196,196,196,,,,,,,,,,,,,,,,,,,,,,,,,,,,,,,,,,,,,main,None,None,1,1.4945190000003095,632.6044528,None,None,1,,,,,,,,,,,,,,228,21,Female,2022-06-03_14h06.05.120,Main,2022.1.1,59.99059347495596,
positive,blue,2,k,None,,,,,,,,,0,197,197,197,,,,,,,,,,,,,,,,,,,,,,,,,,,,,,,,,,,,,main,k,k,1,0.7467560000000049,635.1005889999999,None,None,0,,,,,,,,,,,,,,228,21,Female,2022-06-03_14h06.05.120,Main,2022.1.1,59.99059347495596,
negative,blue,2,None,k,,,,,,,,,0,198,198,198,,,,,,,,,,,,,,,,,,,,,,,,,,,,,,,,,,,,,main,None,None,1,1.49903680000034,636.8504611999999,None,None,1,,,,,,,,,,,,,,228,21,Female,2022-06-03_14h06.05.120,Main,2022.1.1,59.99059347495596,
negative,blue,2,None,k,,,,,,,,,0,199,199,199,,,,,,,,,,,,,,,,,,,,,,,,,,,,,,,,,,,,,main,None,None,1,1.4982739000001857,639.3499178,None,None,1,,,,,,,,,,,,,,228,21,Female,2022-06-03_14h06.05.120,Main,2022.1.1,59.99059347495596,
positive,blue,2,k,None,,,,,,,,,0,200,200,200,,,,,,,,,,,,,,,,,,,,,,,,,,,,,,,,,,,,,main,k,k,1,0.8153807999997298,641.8495611000001,None,None,0,,,,,,,,,,,,,,228,21,Female,2022-06-03_14h06.05.120,Main,2022.1.1,59.99059347495596,
positive,blue,2,k,None,,,,,,,,,0,201,201,201,,,,,,,,,,,,,,,,,,,,,,,,,,,,,,,,,,,,,main,k,k,1,0.7969189999998889,643.6664051999999,None,None,0,,,,,,,,,,,,,,228,21,Female,2022-06-03_14h06.05.120,Main,2022.1.1,59.99059347495596,
negative,yellow,2,k,None,,,,,,,,,0,202,202,202,,,,,,,,,,,,,,,,,,,,,,,,,,,,,,,,,,,,,main,k,k,1,0.960729899999933,645.4648785000002,None,None,0,,,,,,,,,,,,,,228,21,Female,2022-06-03_14h06.05.120,Main,2022.1.1,59.99059347495596,
positive,red,1,None,None,,,,,,,,,0,203,203,203,,,,,,,,,,,,,,,,,,,,,,,,,,,,,,,,,,,,,main,None,None,1,1.4999777000002723,647.4252046999998,None,None,1,,,,,,,,,,,,,,228,21,Female,2022-06-03_14h06.05.120,Main,2022.1.1,59.99059347495596,
negative,blue,2,None,k,,,,,,,,,0,204,204,204,,,,,,,,,,,,,,,,,,,,,,,,,,,,,,,,,,,,,main,None,None,1,1.4968745999999555,649.9281551000001,None,None,1,,,,,,,,,,,,,,228,21,Female,2022-06-03_14h06.05.120,Main,2022.1.1,59.99059347495596,
negative,red,1,None,None,,,,,,,,,0,205,205,205,,,,,,,,,,,,,,,,,,,,,,,,,,,,,,,,,,,,,main,None,None,1,1.5045512000001509,652.4251210999998,None,None,1,,,,,,,,,,,,,,228,21,Female,2022-06-03_14h06.05.120,Main,2022.1.1,59.99059347495596,
negative,blue,2,None,k,,,,,,,,,0,206,206,206,,,,,,,,,,,,,,,,,,,,,,,,,,,,,,,,,,,,,main,None,None,1,1.5014059999998608,654.9326466999999,None,None,1,,,,,,,,,,,,,,228,21,Female,2022-06-03_14h06.05.120,Main,2022.1.1,59.99059347495596,
negative,yellow,2,k,None,,,,,,,,,0,207,207,207,,,,,,,,,,,,,,,,,,,,,,,,,,,,,,,,,,,,,main,k,k,1,0.67414749999989,657.4351930999999,None,None,0,,,,,,,,,,,,,,228,21,Female,2022-06-03_14h06.05.120,Main,2022.1.1,59.99059347495596,
positive,yellow,2,None,k,,,,,,,,,0,208,208,208,,,,,,,,,,,,,,,,,,,,,,,,,,,,,,,,,,,,,main,None,None,1,1.5082115999998678,659.1127276,None,None,1,,,,,,,,,,,,,,228,21,Female,2022-06-03_14h06.05.120,Main,2022.1.1,59.99059347495596,
negative,yellow,1,k,None,,,,,,,,,0,209,209,209,,,,,,,,,,,,,,,,,,,,,,,,,,,,,,,,,,,,,main,k,k,1,0.6688143000001219,661.6200551,None,None,0,,,,,,,,,,,,,,228,21,Female,2022-06-03_14h06.05.120,Main,2022.1.1,59.99059347495596,
negative,red,2,None,None,,,,,,,,,0,210,210,210,,,,,,,,,,,,,,,,,,,,,,,,,,,,,,,,,,,,,main,None,None,1,1.5100324,663.2913053999998,None,None,1,,,,,,,,,,,,,,228,21,Female,2022-06-03_14h06.05.120,Main,2022.1.1,59.99059347495596,
negative,blue,1,None,k,,,,,,,,,0,211,211,211,,,,,,,,,,,,,,,,,,,,,,,,,,,,,,,,,,,,,main,None,None,1,1.507922199999939,665.8047122,None,None,1,,,,,,,,,,,,,,228,21,Female,2022-06-03_14h06.05.120,Main,2022.1.1,59.99059347495596,
negative,yellow,1,k,None,,,,,,,,,0,212,212,212,,,,,,,,,,,,,,,,,,,,,,,,,,,,,,,,,,,,,main,k,k,1,0.7736767000001237,668.3153771999998,None,None,0,,,,,,,,,,,,,,228,21,Female,2022-06-03_14h06.05.120,Main,2022.1.1,59.99059347495596,
positive,blue,1,k,None,,,,,,,,,0,213,213,213,,,,,,,,,,,,,,,,,,,,,,,,,,,,,,,,,,,,,main,k,k,1,0.9615868000000773,670.0889162999999,None,None,0,,,,,,,,,,,,,,228,21,Female,2022-06-03_14h06.05.120,Main,2022.1.1,59.99059347495596,
positive,blue,1,k,None,,,,,,,,,0,214,214,214,,,,,,,,,,,,,,,,,,,,,,,,,,,,,,,,,,,,,main,k,k,1,0.7332197999999153,672.0540890999998,None,None,0,,,,,,,,,,,,,,228,21,Female,2022-06-03_14h06.05.120,Main,2022.1.1,59.99059347495596,
positive,yellow,1,None,k,,,,,,,,,0,215,215,215,,,,,,,,,,,,,,,,,,,,,,,,,,,,,,,,,,,,,main,None,None,1,1.5112063999999918,673.7889554000001,None,None,1,,,,,,,,,,,,,,228,21,Female,2022-06-03_14h06.05.120,Main,2022.1.1,59.99059347495596,
positive,yellow,1,None,k,,,,,,,,,0,216,216,216,,,,,,,,,,,,,,,,,,,,,,,,,,,,,,,,,,,,,main,None,None,1,1.5111751999997978,676.3030889999998,None,None,1,,,,,,,,,,,,,,228,21,Female,2022-06-03_14h06.05.120,Main,2022.1.1,59.99059347495596,
positive,yellow,2,None,k,,,,,,,,,0,217,217,217,,,,,,,,,,,,,,,,,,,,,,,,,,,,,,,,,,,,,main,None,None,1,1.504775399999744,678.8174017999997,None,None,1,,,,,,,,,,,,,,228,21,Female,2022-06-03_14h06.05.120,Main,2022.1.1,59.99059347495596,
negative,blue,1,None,k,,,,,,,,,0,218,218,218,,,,,,,,,,,,,,,,,,,,,,,,,,,,,,,,,,,,,main,None,None,1,1.504523699999936,681.3233118999999,None,None,1,,,,,,,,,,,,,,228,21,Female,2022-06-03_14h06.05.120,Main,2022.1.1,59.99059347495596,
positive,red,2,None,None,,,,,,,,,0,219,219,219,,,,,,,,,,,,,,,,,,,,,,,,,,,,,,,,,,,,,main,None,None,1,1.5073198999998567,683.8312579999999,None,None,1,,,,,,,,,,,,,,228,21,Female,2022-06-03_14h06.05.120,Main,2022.1.1,59.99059347495596,
positive,yellow,1,None,k,,,,,,,,,0,220,220,220,,,,,,,,,,,,,,,,,,,,,,,,,,,,,,,,,,,,,main,None,None,1,1.4965915000002497,686.3385743000001,None,None,1,,,,,,,,,,,,,,228,21,Female,2022-06-03_14h06.05.120,Main,2022.1.1,59.99059347495596,
positive,blue,1,k,None,,,,,,,,,0,221,221,221,,,,,,,,,,,,,,,,,,,,,,,,,,,,,,,,,,,,,main,k,k,1,1.015680500000144,688.8367164999997,None,None,0,,,,,,,,,,,,,,228,21,Female,2022-06-03_14h06.05.120,Main,2022.1.1,59.99059347495596,
positive,yellow,2,None,k,,,,,,,,,0,222,222,222,,,,,,,,,,,,,,,,,,,,,,,,,,,,,,,,,,,,,main,None,None,1,1.5106685999999172,690.8538282000002,None,None,1,,,,,,,,,,,,,,228,21,Female,2022-06-03_14h06.05.120,Main,2022.1.1,59.99059347495596,
negative,yellow,1,k,None,,,,,,,,,0,223,223,223,,,,,,,,,,,,,,,,,,,,,,,,,,,,,,,,,,,,,main,k,k,1,0.9873360999999932,693.3677301,None,None,0,,,,,,,,,,,,,,228,21,Female,2022-06-03_14h06.05.120,Main,2022.1.1,59.99059347495596,
positive,yellow,2,None,k,,,,,,,,,0,224,224,224,,,,,,,,,,,,,,,,,,,,,,,,,,,,,,,,,,,,,main,None,None,1,1.50625859999991,695.3581707999999,None,None,1,,,,,,,,,,,,,,228,21,Female,2022-06-03_14h06.05.120,Main,2022.1.1,59.99059347495596,
negative,yellow,2,k,None,,,,,,,,,0,225,225,225,,,,,,,,,,,,,,,,,,,,,,,,,,,,,,,,,,,,,main,k,k,1,0.8694730000001982,697.8656788000001,None,None,0,,,,,,,,,,,,,,228,21,Female,2022-06-03_14h06.05.120,Main,2022.1.1,59.99059347495596,
negative,blue,2,None,k,,,,,,,,,0,226,226,226,,,,,,,,,,,,,,,,,,,,,,,,,,,,,,,,,,,,,main,None,None,1,1.5005041999997957,699.7364461999998,None,None,1,,,,,,,,,,,,,,228,21,Female,2022-06-03_14h06.05.120,Main,2022.1.1,59.99059347495596,
positive,red,2,None,None,,,,,,,,,0,227,227,227,,,,,,,,,,,,,,,,,,,,,,,,,,,,,,,,,,,,,main,None,None,1,1.5059435999996822,702.2406862999999,None,None,1,,,,,,,,,,,,,,228,21,Female,2022-06-03_14h06.05.120,Main,2022.1.1,59.99059347495596,
positive,blue,2,k,None,,,,,,,,,0,228,228,228,,,,,,,,,,,,,,,,,,,,,,,,,,,,,,,,,,,,,main,k,k,1,0.9932149000001118,704.7473059000001,None,None,0,,,,,,,,,,,,,,228,21,Female,2022-06-03_14h06.05.120,Main,2022.1.1,59.99059347495596,
negative,blue,1,None,k,,,,,,,,,0,229,229,229,,,,,,,,,,,,,,,,,,,,,,,,,,,,,,,,,,,,,main,None,None,1,1.50453540000035,706.7428005999998,None,None,1,,,,,,,,,,,,,,228,21,Female,2022-06-03_14h06.05.120,Main,2022.1.1,59.99059347495596,
positive,yellow,1,None,k,,,,,,,,,0,230,230,230,,,,,,,,,,,,,,,,,,,,,,,,,,,,,,,,,,,,,main,None,None,1,1.5112879999996949,709.2479898999998,None,None,1,,,,,,,,,,,,,,228,21,Female,2022-06-03_14h06.05.120,Main,2022.1.1,59.99059347495596,
negative,blue,2,None,k,,,,,,,,,0,231,231,231,,,,,,,,,,,,,,,,,,,,,,,,,,,,,,,,,,,,,main,None,None,1,1.5051515000000109,711.7622832,None,None,1,,,,,,,,,,,,,,228,21,Female,2022-06-03_14h06.05.120,Main,2022.1.1,59.99059347495596,
negative,red,1,None,None,,,,,,,,,0,232,232,232,,,,,,,,,,,,,,,,,,,,,,,,,,,,,,,,,,,,,main,None,None,1,1.5058415000003151,714.2676175999998,None,None,1,,,,,,,,,,,,,,228,21,Female,2022-06-03_14h06.05.120,Main,2022.1.1,59.99059347495596,
positive,blue,2,k,None,,,,,,,,,0,233,233,233,,,,,,,,,,,,,,,,,,,,,,,,,,,,,,,,,,,,,main,k,k,1,0.8020840999997745,716.7768128999999,None,None,0,,,,,,,,,,,,,,228,21,Female,2022-06-03_14h06.05.120,Main,2022.1.1,59.99059347495596,
negative,yellow,1,k,None,,,,,,,,,0,234,234,234,,,,,,,,,,,,,,,,,,,,,,,,,,,,,,,,,,,,,main,k,k,1,0.8351112999998804,718.5826384,None,None,0,,,,,,,,,,,,,,228,21,Female,2022-06-03_14h06.05.120,Main,2022.1.1,59.99059347495596,
negative,yellow,2,k,None,,,,,,,,,0,235,235,235,,,,,,,,,,,,,,,,,,,,,,,,,,,,,,,,,,,,,main,k,k,1,0.7482829000000493,720.4173032000001,None,None,0,,,,,,,,,,,,,,228,21,Female,2022-06-03_14h06.05.120,Main,2022.1.1,59.99059347495596,
positive,red,1,None,None,,,,,,,,,0,236,236,236,,,,,,,,,,,,,,,,,,,,,,,,,,,,,,,,,,,,,main,None,None,1,1.5098886000000675,722.1670271,None,None,1,,,,,,,,,,,,,,228,21,Female,2022-06-03_14h06.05.120,Main,2022.1.1,59.99059347495596,
negative,red,2,None,None,,,,,,,,,0,237,237,237,,,,,,,,,,,,,,,,,,,,,,,,,,,,,,,,,,,,,main,None,None,1,1.4970859000000019,724.6796865999997,None,None,1,,,,,,,,,,,,,,228,21,Female,2022-06-03_14h06.05.120,Main,2022.1.1,59.99059347495596,
negative,blue,1,None,k,,,,,,,,,0,238,238,238,,,,,,,,,,,,,,,,,,,,,,,,,,,,,,,,,,,,,main,None,None,1,1.4949719999999616,727.1796824,None,None,1,,,,,,,,,,,,,,228,21,Female,2022-06-03_14h06.05.120,Main,2022.1.1,59.99059347495596,
positive,blue,1,k,None,,,,,,,,,0,239,239,239,,,,,,,,,,,,,,,,,,,,,,,,,,,,,,,,,,,,,main,k,k,1,0.969411399999899,729.6779239999998,None,None,0,,,,,,,,,,,,,,228,21,Female,2022-06-03_14h06.05.120,Main,2022.1.1,59.99059347495596,
,,,,,,,,,,,,,,,,,,,,,,,,,,,,,,,,,,,,,,,,,,,,,,,,,,,,,,,,,,,,,,,,,,,,,,,,,731.6381210000002,None,,,,,,,,
