distractor,target,set,ans1,ans2,rep_loop4.thisRepN,rep_loop4.thisTrialN,rep_loop4.thisN,rep_loop4.thisIndex,st2_prac_loop.thisRepN,st2_prac_loop.thisTrialN,st2_prac_loop.thisN,st2_prac_loop.thisIndex,st2_main_loop.thisRepN,st2_main_loop.thisTrialN,st2_main_loop.thisN,st2_main_loop.thisIndex,image_4.started,image_4.stopped,mouse_7.x,mouse_7.y,mouse_7.leftButton,mouse_7.midButton,mouse_7.rightButton,sound_2.started,sound_2.stopped,key_resp_3.keys,mouse_5.x,mouse_5.y,mouse_5.leftButton,mouse_5.midButton,mouse_5.rightButton,mouse_5.started,mouse_5.stopped,yes_text2.started,yes_text2.stopped,no_text2.started,no_text2.stopped,mouse_3.x,mouse_3.y,mouse_3.leftButton,mouse_3.midButton,mouse_3.rightButton,mouse_3.started,mouse_3.stopped,st_prac_back.started,st_prac_back.stopped,st_prac_text.started,st_prac_text.stopped,st_fix_back.started,st_fix_back.stopped,st_fix_2.started,st_fix_2.stopped,main_prac,st_ans,st_res,st_corr,st_rt,st_back.started,st_back.stopped,st2_resp.keys,st2_resp.corr,st_main_back.started,st_main_back.stopped,st_main_text.started,st_main_text.stopped,mouse_4.x,mouse_4.y,mouse_4.leftButton,mouse_4.midButton,mouse_4.rightButton,mouse_4.started,mouse_4.stopped,text_2.started,text_2.stopped,id*,age*,gender*,date,expName,psychopyVersion,frameRate,
,,,,,,,,,,,,,,,,,58.77448009999989,None,-0.048148148,-0.044444446,0,0,0,,,,,,,,,,,,,,,,,,,,,,,,,,,,,,,,,,,,,,,,,,,,,,,,,,,,229,24,Male,2022-06-03_13h54.59.335,Main,2022.1.1,59.85131735740555,
negative,yellow,1,k,None,,,,,0,0,0,0,,,,,,,,,,,,64.32416236000013,None,None,0.07685185,-0.015740741,0,0,0,1.0034198399998786,None,126.37914839999985,None,126.37914839999985,None,-0.096296296,-0.10555556,0,0,0,0.012338459999682527,None,128.3065461000001,None,128.3065461000001,None,130.29803559999982,None,130.29803559999982,None,prac,None,None,1,1.4914884999998321,132.33870239999987,None,None,1,,,,,,,,,,,,,,229,24,Male,2022-06-03_13h54.59.335,Main,2022.1.1,59.85131735740555,
positive,red,2,None,None,,,,,0,1,1,1,,,,,,,,,,,,,,,,,,,,,,,,,,,,,,,,,,,,,,,,,prac,None,None,1,1.5040362999998251,134.81067209999992,None,None,1,,,,,,,,,,,,,,229,24,Male,2022-06-03_13h54.59.335,Main,2022.1.1,59.85131735740555,
negative,blue,2,None,k,,,,,0,2,2,2,,,,,,,,,,,,,,,,,,,,,,,,,,,,,,,,,,,,,,,,,prac,k,k,1,1.9116801000000123,137.31583369999998,None,None,0,,,,,,,,,,,,,,229,24,Male,2022-06-03_13h54.59.335,Main,2022.1.1,59.85131735740555,
positive,yellow,1,None,k,,,,,0,3,3,3,,,,,,,,,,,,,,,,,,,,,,,,,,,,,,,,,,,,,,,,,prac,k,k,1,0.9476199000000634,141.27588590000005,None,None,0,,,,,,,,,,,,,,229,24,Male,2022-06-03_13h54.59.335,Main,2022.1.1,59.85131735740555,
negative,blue,2,None,k,,,,,0,4,4,4,,,,,,,,,,,,,,,,,,,,,,,,,,,,,,,,,,,,,,,,,prac,k,k,1,5.2513256000002,143.22763489999988,None,None,0,,,,,,,,,,,,,,229,24,Male,2022-06-03_13h54.59.335,Main,2022.1.1,59.85131735740555,
negative,blue,1,None,k,,,,,0,5,5,5,,,,,,,,,,,,,,,,,,,,,,,,,,,,,,,,,,,,,,,,,prac,k,k,1,1.4854684999995698,150.4875118,None,None,0,,,,,,,,,,,,,,229,24,Male,2022-06-03_13h54.59.335,Main,2022.1.1,59.85131735740555,
negative,yellow,2,k,None,,,,,0,6,6,6,,,,,,,,,,,,,,,,,,,,,,,,,,,,,,,,,,,,,,,,,prac,None,None,1,1.504777500000273,152.97465319999992,None,None,1,,,,,,,,,,,,,,229,24,Male,2022-06-03_13h54.59.335,Main,2022.1.1,59.85131735740555,
negative,red,1,None,None,,,,,0,7,7,7,,,,,,,,,,,,,,,,,,,,,,,,,,,,,,,,,,,,,,,,,prac,None,None,1,1.4982516000000032,155.48234739999998,None,None,1,,,,,,,,,,,,,,229,24,Male,2022-06-03_13h54.59.335,Main,2022.1.1,59.85131735740555,
positive,yellow,2,None,k,,,,,0,8,8,8,,,,,,,,,,,,,,,,,,,,,,,,,,,,,,,,,,,,,,,,,prac,k,k,1,0.8735437000000275,157.9796692,None,None,0,,,,,,,,,,,,,,229,24,Male,2022-06-03_13h54.59.335,Main,2022.1.1,59.85131735740555,
negative,yellow,1,k,None,,,,,0,9,9,9,,,,,,,,,,,,,,,,,,,,,,,,,,,,,,,,,,,,,,,,,prac,None,None,1,1.4958474999998543,159.85882839999977,None,None,1,,,,,,,,,,,,,,229,24,Male,2022-06-03_13h54.59.335,Main,2022.1.1,59.85131735740555,
positive,yellow,2,None,k,,,,,0,10,10,10,,,,,,,,,,,,,,,,,,,,,,,,,,,,,,,,,,,,,,,,,prac,k,k,1,0.8246707000002971,162.35632859999987,None,None,0,,,,,,,,,,,,,,229,24,Male,2022-06-03_13h54.59.335,Main,2022.1.1,59.85131735740555,
negative,yellow,2,k,None,,,,,0,11,11,11,,,,,,,,,,,,,,,,,,,,,,,,,,,,,,,,,,,,,,,,,prac,None,None,1,1.5154147999996894,164.18513499999972,None,None,1,,,,,,,,,,,,,,229,24,Male,2022-06-03_13h54.59.335,Main,2022.1.1,59.85131735740555,
negative,red,2,None,None,,,,,0,12,12,12,,,,,,,,,,,,,,,,,,,,,,,,,,,,,,,,,,,,,,,,,prac,None,None,1,1.512793800000054,166.70136049999974,None,None,1,,,,,,,,,,,,,,229,24,Male,2022-06-03_13h54.59.335,Main,2022.1.1,59.85131735740555,
positive,red,1,None,None,,,,,0,13,13,13,,,,,,,,,,,,,,,,,,,,,,,,,,,,,,,,,,,,,,,,,prac,None,None,1,1.5023331000002145,169.21360460000005,None,None,1,,,,,,,,,,,,,,229,24,Male,2022-06-03_13h54.59.335,Main,2022.1.1,59.85131735740555,
positive,blue,2,k,None,,,,,0,14,14,14,,,,,,,,,,,,,,,,,,,,,,,,,,,,,,,,,,,,,,,,,prac,None,None,1,1.5032587000000603,171.72008610000012,None,None,1,,,,,,,,,,,,,,229,24,Male,2022-06-03_13h54.59.335,Main,2022.1.1,59.85131735740555,
positive,blue,1,k,None,,,,,0,15,15,15,,,,,,,,,,,,,,,,,,,,,,,,,,,,,,,,,,,,,,,,,prac,None,None,1,1.5090721999999914,174.22351660000004,None,None,1,,,,,,,,,,,,,,229,24,Male,2022-06-03_13h54.59.335,Main,2022.1.1,59.85131735740555,
negative,blue,1,None,k,,,,,0,16,16,16,,,,,,,,,,,,,,,,,,,,,,,,,,,,,,,,,,,,,,,,,prac,k,k,1,1.1018706999998358,176.73551099999986,None,None,0,,,,,,,,,,,,,,229,24,Male,2022-06-03_13h54.59.335,Main,2022.1.1,59.85131735740555,
positive,blue,2,k,None,,,,,0,17,17,17,,,,,,,,,,,,,,,,,,,,,,,,,,,,,,,,,,,,,,,,,prac,None,None,1,1.5063326999998026,178.8377191999998,None,None,1,,,,,,,,,,,,,,229,24,Male,2022-06-03_13h54.59.335,Main,2022.1.1,59.85131735740555,
positive,blue,1,k,None,,,,,0,18,18,18,,,,,,,,,,,,,,,,,,,,,,,,,,,,,,,,,,,,,,,,,prac,None,None,1,1.5007753999998386,181.3490609999999,None,None,1,,,,,,,,,,,,,,229,24,Male,2022-06-03_13h54.59.335,Main,2022.1.1,59.85131735740555,
positive,yellow,1,None,k,,,,,0,19,19,19,,,,,,,,,,,,,,,,,,,,,,,,,,,,,,,,,,,,,,,,,prac,k,k,1,1.3573625999997603,183.84992599999987,None,None,0,,,,,,,,,,,,,,229,24,Male,2022-06-03_13h54.59.335,Main,2022.1.1,59.85131735740555,
negative,yellow,1,k,None,,,,,1,0,20,0,,,,,,,,,,,,,,,,,,,,,,,,,,,,,,,,,,,,,,,,,prac,None,None,1,1.5003296999998383,186.20878529999982,None,None,1,,,,,,,,,,,,,,229,24,Male,2022-06-03_13h54.59.335,Main,2022.1.1,59.85131735740555,
positive,red,2,None,None,,,,,1,1,21,1,,,,,,,,,,,,,,,,,,,,,,,,,,,,,,,,,,,,,,,,,prac,None,None,1,1.496400900000026,188.71040349999976,None,None,1,,,,,,,,,,,,,,229,24,Male,2022-06-03_13h54.59.335,Main,2022.1.1,59.85131735740555,
negative,blue,2,None,k,,,,,1,2,22,2,,,,,,,,,,,,,,,,,,,,,,,,,,,,,,,,,,,,,,,,,prac,k,k,1,0.7488991000000169,191.2098390000001,None,None,0,,,,,,,,,,,,,,229,24,Male,2022-06-03_13h54.59.335,Main,2022.1.1,59.85131735740555,
positive,yellow,1,None,k,,,,,1,3,23,3,,,,,,,,,,,,,,,,,,,,,,,,,,,,,,,,,,,,,,,,,prac,k,k,1,2.5416463999999905,192.9609700000001,None,None,0,,,,,,,,,,,,,,229,24,Male,2022-06-03_13h54.59.335,Main,2022.1.1,59.85131735740555,
negative,blue,2,None,k,,,,,1,4,24,4,,,,,,,,,,,,,,,,,,,,,,,,,,,,,,,,,,,,,,,,,prac,k,k,1,1.3252720000000409,197.51673279999977,None,None,0,,,,,,,,,,,,,,229,24,Male,2022-06-03_13h54.59.335,Main,2022.1.1,59.85131735740555,
negative,blue,1,None,k,,,,,1,5,25,5,,,,,,,,,,,,,,,,,,,,,,,,,,,,,,,,,,,,,,,,,prac,k,k,1,1.435768199999984,199.84518279999975,None,None,0,,,,,,,,,,,,,,229,24,Male,2022-06-03_13h54.59.335,Main,2022.1.1,59.85131735740555,
negative,yellow,2,k,None,,,,,1,6,26,6,,,,,,,,,,,,,,,,,,,,,,,,,,,,,,,,,,,,,,,,,prac,None,None,1,1.5129452999999558,202.2830802999997,None,None,1,,,,,,,,,,,,,,229,24,Male,2022-06-03_13h54.59.335,Main,2022.1.1,59.85131735740555,
negative,red,1,None,None,,,,,1,7,27,7,,,,,,,,,,,,,,,,,,,,,,,,,,,,,,,,,,,,,,,,,prac,None,None,1,1.4984816999999566,204.79835109999976,None,None,1,,,,,,,,,,,,,,229,24,Male,2022-06-03_13h54.59.335,Main,2022.1.1,59.85131735740555,
positive,yellow,2,None,k,,,,,1,8,28,8,,,,,,,,,,,,,,,,,,,,,,,,,,,,,,,,,,,,,,,,,prac,k,k,1,0.8520976999998311,207.29830739999989,None,None,0,,,,,,,,,,,,,,229,24,Male,2022-06-03_13h54.59.335,Main,2022.1.1,59.85131735740555,
negative,yellow,1,k,None,,,,,1,9,29,9,,,,,,,,,,,,,,,,,,,,,,,,,,,,,,,,,,,,,,,,,prac,None,None,1,1.501299999999901,209.15052860000014,None,None,1,,,,,,,,,,,,,,229,24,Male,2022-06-03_13h54.59.335,Main,2022.1.1,59.85131735740555,
positive,yellow,2,None,k,,,,,1,10,30,10,,,,,,,,,,,,,,,,,,,,,,,,,,,,,,,,,,,,,,,,,prac,k,k,1,0.7959925000000112,211.6539619,None,None,0,,,,,,,,,,,,,,229,24,Male,2022-06-03_13h54.59.335,Main,2022.1.1,59.85131735740555,
negative,yellow,2,k,None,,,,,1,11,31,11,,,,,,,,,,,,,,,,,,,,,,,,,,,,,,,,,,,,,,,,,prac,None,None,1,1.4958059999999023,213.45380019999993,None,None,1,,,,,,,,,,,,,,229,24,Male,2022-06-03_13h54.59.335,Main,2022.1.1,59.85131735740555,
negative,red,2,None,None,,,,,1,12,32,12,,,,,,,,,,,,,,,,,,,,,,,,,,,,,,,,,,,,,,,,,prac,None,None,1,1.4986693000000741,215.95006969999986,None,None,1,,,,,,,,,,,,,,229,24,Male,2022-06-03_13h54.59.335,Main,2022.1.1,59.85131735740555,
positive,red,1,None,None,,,,,1,13,33,13,,,,,,,,,,,,,,,,,,,,,,,,,,,,,,,,,,,,,,,,,prac,None,None,1,1.508318899999722,218.45026789999974,None,None,1,,,,,,,,,,,,,,229,24,Male,2022-06-03_13h54.59.335,Main,2022.1.1,59.85131735740555,
positive,blue,2,k,None,,,,,1,14,34,14,,,,,,,,,,,,,,,,,,,,,,,,,,,,,,,,,,,,,,,,,prac,None,None,1,1.5082868999998027,220.96147799999972,None,None,1,,,,,,,,,,,,,,229,24,Male,2022-06-03_13h54.59.335,Main,2022.1.1,59.85131735740555,
positive,blue,1,k,None,,,,,1,15,35,15,,,,,,,,,,,,,,,,,,,,,,,,,,,,,,,,,,,,,,,,,prac,None,None,1,1.5094852000001993,223.4718015999997,None,None,1,,,,,,,,,,,,,,229,24,Male,2022-06-03_13h54.59.335,Main,2022.1.1,59.85131735740555,
negative,blue,1,None,k,,,,,1,16,36,16,,,,,,,,,,,,,,,,,,,,,,,,,,,,,,,,,,,,,,,,,prac,k,k,1,1.0185067000002164,225.9851979,None,None,0,,,,,,,,,,,,,,229,24,Male,2022-06-03_13h54.59.335,Main,2022.1.1,59.85131735740555,
positive,blue,2,k,None,,,,,1,17,37,17,,,,,,,,,,,,,,,,,,,,,,,,,,,,,,,,,,,,,,,,,prac,None,None,1,1.5097648999999365,228.0060413000001,None,None,1,,,,,,,,,,,,,,229,24,Male,2022-06-03_13h54.59.335,Main,2022.1.1,59.85131735740555,
positive,blue,1,k,None,,,,,1,18,38,18,,,,,,,,,,,,,,,,,,,,,,,,,,,,,,,,,,,,,,,,,prac,None,None,1,1.5021290000004228,230.51479500000005,None,None,1,,,,,,,,,,,,,,229,24,Male,2022-06-03_13h54.59.335,Main,2022.1.1,59.85131735740555,
positive,yellow,1,None,k,,,,,1,19,39,19,,,,,,,,,,,,,,,,,,,,,,,,,,,,,,,,,,,,,,,,,prac,k,k,1,0.8435773000001063,233.0203508999998,None,None,0,,,,,,,,,,,,,,229,24,Male,2022-06-03_13h54.59.335,Main,2022.1.1,59.85131735740555,
,,,,,,,,,,,,,,,,,,,,,,,,,,,,,,,,,,,,,,,,,,,,,,,,,,,,,,,,,,,,,,234.8976944000001,None,234.8976944000001,None,-0.023148147,-0.015740741,0,0,0,0.006376359999649139,None,,,229,24,Male,2022-06-03_13h54.59.335,Main,2022.1.1,59.85131735740555,
negative,yellow,2,k,None,,,,,,,,,0,0,0,0,,,,,,,,,,,,,,,,,,,,,,,,,,,,,,,,,264.3575990999998,None,264.3575990999998,None,main,None,None,1,1.4985806999998204,266.4218585999997,None,None,1,,,,,,,,,,,,,,229,24,Male,2022-06-03_13h54.59.335,Main,2022.1.1,59.85131735740555,
positive,red,1,None,None,,,,,,,,,0,1,1,1,,,,,,,,,,,,,,,,,,,,,,,,,,,,,,,,,,,,,main,None,None,1,1.5047020000001794,268.92729139999983,None,None,1,,,,,,,,,,,,,,229,24,Male,2022-06-03_13h54.59.335,Main,2022.1.1,59.85131735740555,
positive,blue,2,k,None,,,,,,,,,0,2,2,2,,,,,,,,,,,,,,,,,,,,,,,,,,,,,,,,,,,,,main,None,None,1,1.5042232999999214,271.4294541999998,None,None,1,,,,,,,,,,,,,,229,24,Male,2022-06-03_13h54.59.335,Main,2022.1.1,59.85131735740555,
positive,blue,1,k,None,,,,,,,,,0,3,3,3,,,,,,,,,,,,,,,,,,,,,,,,,,,,,,,,,,,,,main,None,None,1,1.5046893999997337,273.9403235,None,None,1,,,,,,,,,,,,,,229,24,Male,2022-06-03_13h54.59.335,Main,2022.1.1,59.85131735740555,
negative,yellow,2,k,None,,,,,,,,,0,4,4,4,,,,,,,,,,,,,,,,,,,,,,,,,,,,,,,,,,,,,main,None,None,1,1.514525699999922,276.4431869,None,None,1,,,,,,,,,,,,,,229,24,Male,2022-06-03_13h54.59.335,Main,2022.1.1,59.85131735740555,
positive,yellow,2,None,k,,,,,,,,,0,5,5,5,,,,,,,,,,,,,,,,,,,,,,,,,,,,,,,,,,,,,main,k,k,1,0.7251346000002741,278.96061269999973,None,None,0,,,,,,,,,,,,,,229,24,Male,2022-06-03_13h54.59.335,Main,2022.1.1,59.85131735740555,
negative,blue,2,None,k,,,,,,,,,0,6,6,6,,,,,,,,,,,,,,,,,,,,,,,,,,,,,,,,,,,,,main,k,k,1,0.7392497000000731,280.6874680000001,None,None,0,,,,,,,,,,,,,,229,24,Male,2022-06-03_13h54.59.335,Main,2022.1.1,59.85131735740555,
positive,red,2,None,None,,,,,,,,,0,7,7,7,,,,,,,,,,,,,,,,,,,,,,,,,,,,,,,,,,,,,main,None,None,1,1.4991592999999739,282.43086189999985,None,None,1,,,,,,,,,,,,,,229,24,Male,2022-06-03_13h54.59.335,Main,2022.1.1,59.85131735740555,
positive,yellow,1,None,k,,,,,,,,,0,8,8,8,,,,,,,,,,,,,,,,,,,,,,,,,,,,,,,,,,,,,main,k,k,1,0.6670343999999204,284.92989639999996,None,None,0,,,,,,,,,,,,,,229,24,Male,2022-06-03_13h54.59.335,Main,2022.1.1,59.85131735740555,
negative,red,1,None,None,,,,,,,,,0,9,9,9,,,,,,,,,,,,,,,,,,,,,,,,,,,,,,,,,,,,,main,None,None,1,1.5076113000000078,286.59919630000013,None,None,1,,,,,,,,,,,,,,229,24,Male,2022-06-03_13h54.59.335,Main,2022.1.1,59.85131735740555,
positive,yellow,1,None,k,,,,,,,,,0,10,10,10,,,,,,,,,,,,,,,,,,,,,,,,,,,,,,,,,,,,,main,k,k,1,0.7687875000001441,289.10811190000004,None,None,0,,,,,,,,,,,,,,229,24,Male,2022-06-03_13h54.59.335,Main,2022.1.1,59.85131735740555,
negative,yellow,1,k,None,,,,,,,,,0,11,11,11,,,,,,,,,,,,,,,,,,,,,,,,,,,,,,,,,,,,,main,None,None,1,1.5077463000002354,290.88233409999975,None,None,1,,,,,,,,,,,,,,229,24,Male,2022-06-03_13h54.59.335,Main,2022.1.1,59.85131735740555,
negative,yellow,1,k,None,,,,,,,,,0,12,12,12,,,,,,,,,,,,,,,,,,,,,,,,,,,,,,,,,,,,,main,None,None,1,1.5145228999999745,293.3902032000001,None,None,1,,,,,,,,,,,,,,229,24,Male,2022-06-03_13h54.59.335,Main,2022.1.1,59.85131735740555,
negative,red,2,None,None,,,,,,,,,0,13,13,13,,,,,,,,,,,,,,,,,,,,,,,,,,,,,,,,,,,,,main,None,None,1,1.4967240999999376,295.90640489999987,None,None,1,,,,,,,,,,,,,,229,24,Male,2022-06-03_13h54.59.335,Main,2022.1.1,59.85131735740555,
positive,yellow,2,None,k,,,,,,,,,0,14,14,14,,,,,,,,,,,,,,,,,,,,,,,,,,,,,,,,,,,,,main,k,k,1,1.1453277000000526,298.40664149999975,None,None,0,,,,,,,,,,,,,,229,24,Male,2022-06-03_13h54.59.335,Main,2022.1.1,59.85131735740555,
positive,blue,1,k,None,,,,,,,,,0,15,15,15,,,,,,,,,,,,,,,,,,,,,,,,,,,,,,,,,,,,,main,None,None,1,1.4984366999997292,300.55113040000015,None,None,1,,,,,,,,,,,,,,229,24,Male,2022-06-03_13h54.59.335,Main,2022.1.1,59.85131735740555,
negative,blue,1,None,k,,,,,,,,,0,16,16,16,,,,,,,,,,,,,,,,,,,,,,,,,,,,,,,,,,,,,main,k,k,1,1.0962174000001141,303.05076959999997,None,None,0,,,,,,,,,,,,,,229,24,Male,2022-06-03_13h54.59.335,Main,2022.1.1,59.85131735740555,
positive,blue,2,k,None,,,,,,,,,0,17,17,17,,,,,,,,,,,,,,,,,,,,,,,,,,,,,,,,,,,,,main,None,None,1,1.5037160000001677,305.1505649999999,None,None,1,,,,,,,,,,,,,,229,24,Male,2022-06-03_13h54.59.335,Main,2022.1.1,59.85131735740555,
negative,blue,2,None,k,,,,,,,,,0,18,18,18,,,,,,,,,,,,,,,,,,,,,,,,,,,,,,,,,,,,,main,k,k,1,0.9172761999998329,307.6565058000001,None,None,0,,,,,,,,,,,,,,229,24,Male,2022-06-03_13h54.59.335,Main,2022.1.1,59.85131735740555,
negative,blue,1,None,k,,,,,,,,,0,19,19,19,,,,,,,,,,,,,,,,,,,,,,,,,,,,,,,,,,,,,main,k,k,1,0.8879099000000679,309.57435339999984,None,None,0,,,,,,,,,,,,,,229,24,Male,2022-06-03_13h54.59.335,Main,2022.1.1,59.85131735740555,
negative,blue,1,None,k,,,,,,,,,0,20,20,20,,,,,,,,,,,,,,,,,,,,,,,,,,,,,,,,,,,,,main,k,k,1,0.694092400000045,311.4629737999999,None,None,0,,,,,,,,,,,,,,229,24,Male,2022-06-03_13h54.59.335,Main,2022.1.1,59.85131735740555,
negative,blue,2,None,k,,,,,,,,,0,21,21,21,,,,,,,,,,,,,,,,,,,,,,,,,,,,,,,,,,,,,main,k,k,1,0.8938183999998728,313.15944089999994,None,None,0,,,,,,,,,,,,,,229,24,Male,2022-06-03_13h54.59.335,Main,2022.1.1,59.85131735740555,
negative,red,1,None,None,,,,,,,,,0,22,22,22,,,,,,,,,,,,,,,,,,,,,,,,,,,,,,,,,,,,,main,None,None,1,1.4968235000001187,315.0609927999999,None,None,1,,,,,,,,,,,,,,229,24,Male,2022-06-03_13h54.59.335,Main,2022.1.1,59.85131735740555,
positive,red,2,None,None,,,,,,,,,0,23,23,23,,,,,,,,,,,,,,,,,,,,,,,,,,,,,,,,,,,,,main,None,None,1,1.4988225000001876,317.5568638,None,None,1,,,,,,,,,,,,,,229,24,Male,2022-06-03_13h54.59.335,Main,2022.1.1,59.85131735740555,
negative,red,2,None,None,,,,,,,,,0,24,24,24,,,,,,,,,,,,,,,,,,,,,,,,,,,,,,,,,,,,,main,None,None,1,1.503370200000063,320.06059719999985,None,None,1,,,,,,,,,,,,,,229,24,Male,2022-06-03_13h54.59.335,Main,2022.1.1,59.85131735740555,
positive,blue,2,k,None,,,,,,,,,0,25,25,25,,,,,,,,,,,,,,,,,,,,,,,,,,,,,,,,,,,,,main,None,None,1,1.5009364000002279,322.5649549999998,None,None,1,,,,,,,,,,,,,,229,24,Male,2022-06-03_13h54.59.335,Main,2022.1.1,59.85131735740555,
negative,yellow,1,k,None,,,,,,,,,0,26,26,26,,,,,,,,,,,,,,,,,,,,,,,,,,,,,,,,,,,,,main,None,None,1,1.5044409000001906,325.0676543999998,None,None,1,,,,,,,,,,,,,,229,24,Male,2022-06-03_13h54.59.335,Main,2022.1.1,59.85131735740555,
positive,blue,2,k,None,,,,,,,,,0,27,27,27,,,,,,,,,,,,,,,,,,,,,,,,,,,,,,,,,,,,,main,None,None,1,1.5064574000002722,327.57174239999995,None,None,1,,,,,,,,,,,,,,229,24,Male,2022-06-03_13h54.59.335,Main,2022.1.1,59.85131735740555,
negative,blue,2,None,k,,,,,,,,,0,28,28,28,,,,,,,,,,,,,,,,,,,,,,,,,,,,,,,,,,,,,main,k,k,1,0.7007499000001189,330.0812114999999,None,None,0,,,,,,,,,,,,,,229,24,Male,2022-06-03_13h54.59.335,Main,2022.1.1,59.85131735740555,
positive,red,1,None,None,,,,,,,,,0,29,29,29,,,,,,,,,,,,,,,,,,,,,,,,,,,,,,,,,,,,,main,None,None,1,1.5105917000000773,331.78617410000015,None,None,1,,,,,,,,,,,,,,229,24,Male,2022-06-03_13h54.59.335,Main,2022.1.1,59.85131735740555,
positive,blue,1,k,None,,,,,,,,,0,30,30,30,,,,,,,,,,,,,,,,,,,,,,,,,,,,,,,,,,,,,main,None,None,1,1.4992738000000827,334.2986393000001,None,None,1,,,,,,,,,,,,,,229,24,Male,2022-06-03_13h54.59.335,Main,2022.1.1,59.85131735740555,
positive,yellow,1,None,k,,,,,,,,,0,31,31,31,,,,,,,,,,,,,,,,,,,,,,,,,,,,,,,,,,,,,main,k,k,1,0.7904140000000552,336.8010538999997,None,None,0,,,,,,,,,,,,,,229,24,Male,2022-06-03_13h54.59.335,Main,2022.1.1,59.85131735740555,
negative,yellow,2,k,None,,,,,,,,,0,32,32,32,,,,,,,,,,,,,,,,,,,,,,,,,,,,,,,,,,,,,main,None,None,1,1.4975502000002052,338.5954131999997,None,None,1,,,,,,,,,,,,,,229,24,Male,2022-06-03_13h54.59.335,Main,2022.1.1,59.85131735740555,
negative,blue,1,None,k,,,,,,,,,0,33,33,33,,,,,,,,,,,,,,,,,,,,,,,,,,,,,,,,,,,,,main,k,k,1,0.9070174000003135,341.09354970000004,None,None,0,,,,,,,,,,,,,,229,24,Male,2022-06-03_13h54.59.335,Main,2022.1.1,59.85131735740555,
positive,blue,1,k,None,,,,,,,,,0,34,34,34,,,,,,,,,,,,,,,,,,,,,,,,,,,,,,,,,,,,,main,None,None,1,1.5092701000003217,343.00439019999976,None,None,1,,,,,,,,,,,,,,229,24,Male,2022-06-03_13h54.59.335,Main,2022.1.1,59.85131735740555,
negative,yellow,1,k,None,,,,,,,,,0,35,35,35,,,,,,,,,,,,,,,,,,,,,,,,,,,,,,,,,,,,,main,None,None,1,1.5050536999997348,345.5125463999998,None,None,1,,,,,,,,,,,,,,229,24,Male,2022-06-03_13h54.59.335,Main,2022.1.1,59.85131735740555,
positive,yellow,2,None,k,,,,,,,,,0,36,36,36,,,,,,,,,,,,,,,,,,,,,,,,,,,,,,,,,,,,,main,k,k,1,0.930132699999831,348.0206226,None,None,0,,,,,,,,,,,,,,229,24,Male,2022-06-03_13h54.59.335,Main,2022.1.1,59.85131735740555,
positive,yellow,2,None,k,,,,,,,,,0,37,37,37,,,,,,,,,,,,,,,,,,,,,,,,,,,,,,,,,,,,,main,k,k,1,0.8951552000003176,349.9521405999999,None,None,0,,,,,,,,,,,,,,229,24,Male,2022-06-03_13h54.59.335,Main,2022.1.1,59.85131735740555,
negative,yellow,2,k,None,,,,,,,,,0,38,38,38,,,,,,,,,,,,,,,,,,,,,,,,,,,,,,,,,,,,,main,None,None,1,1.5099178000000393,351.8505898999997,None,None,1,,,,,,,,,,,,,,229,24,Male,2022-06-03_13h54.59.335,Main,2022.1.1,59.85131735740555,
positive,yellow,1,None,k,,,,,,,,,0,39,39,39,,,,,,,,,,,,,,,,,,,,,,,,,,,,,,,,,,,,,main,k,k,1,0.8063397000000805,354.3595578999998,None,None,0,,,,,,,,,,,,,,229,24,Male,2022-06-03_13h54.59.335,Main,2022.1.1,59.85131735740555,
negative,yellow,2,k,None,,,,,,,,,0,40,40,40,,,,,,,,,,,,,,,,,,,,,,,,,,,,,,,,,,,,,main,None,None,1,1.5135825000002114,356.1698161999998,None,None,1,,,,,,,,,,,,,,229,24,Male,2022-06-03_13h54.59.335,Main,2022.1.1,59.85131735740555,
positive,blue,2,k,None,,,,,,,,,0,41,41,41,,,,,,,,,,,,,,,,,,,,,,,,,,,,,,,,,,,,,main,None,None,1,1.4983480999999301,358.6844060999997,None,None,1,,,,,,,,,,,,,,229,24,Male,2022-06-03_13h54.59.335,Main,2022.1.1,59.85131735740555,
positive,blue,2,k,None,,,,,,,,,0,42,42,42,,,,,,,,,,,,,,,,,,,,,,,,,,,,,,,,,,,,,main,None,None,1,1.4997986000003038,361.1846194,None,None,1,,,,,,,,,,,,,,229,24,Male,2022-06-03_13h54.59.335,Main,2022.1.1,59.85131735740555,
negative,blue,2,None,k,,,,,,,,,0,43,43,43,,,,,,,,,,,,,,,,,,,,,,,,,,,,,,,,,,,,,main,k,k,1,0.6897947000002205,363.6906691999998,None,None,0,,,,,,,,,,,,,,229,24,Male,2022-06-03_13h54.59.335,Main,2022.1.1,59.85131735740555,
negative,red,1,None,None,,,,,,,,,0,44,44,44,,,,,,,,,,,,,,,,,,,,,,,,,,,,,,,,,,,,,main,None,None,1,1.5022008000000824,365.37968360000013,None,None,1,,,,,,,,,,,,,,229,24,Male,2022-06-03_13h54.59.335,Main,2022.1.1,59.85131735740555,
negative,yellow,1,k,None,,,,,,,,,0,45,45,45,,,,,,,,,,,,,,,,,,,,,,,,,,,,,,,,,,,,,main,None,None,1,1.514527199999975,367.88661279999997,None,None,1,,,,,,,,,,,,,,229,24,Male,2022-06-03_13h54.59.335,Main,2022.1.1,59.85131735740555,
negative,yellow,1,k,None,,,,,,,,,0,46,46,46,,,,,,,,,,,,,,,,,,,,,,,,,,,,,,,,,,,,,main,None,None,1,1.4973309999995763,370.40169890000016,None,None,1,,,,,,,,,,,,,,229,24,Male,2022-06-03_13h54.59.335,Main,2022.1.1,59.85131735740555,
positive,red,1,None,None,,,,,,,,,0,47,47,47,,,,,,,,,,,,,,,,,,,,,,,,,,,,,,,,,,,,,main,None,None,1,1.5112019999996846,372.9015965999997,None,None,1,,,,,,,,,,,,,,229,24,Male,2022-06-03_13h54.59.335,Main,2022.1.1,59.85131735740555,
positive,yellow,1,None,k,,,,,,,,,0,48,48,48,,,,,,,,,,,,,,,,,,,,,,,,,,,,,,,,,,,,,main,k,k,1,0.6391546999998354,375.4142945999997,None,None,0,,,,,,,,,,,,,,229,24,Male,2022-06-03_13h54.59.335,Main,2022.1.1,59.85131735740555,
negative,blue,1,None,k,,,,,,,,,0,49,49,49,,,,,,,,,,,,,,,,,,,,,,,,,,,,,,,,,,,,,main,k,k,1,0.7148087999999007,377.05776479999986,None,None,0,,,,,,,,,,,,,,229,24,Male,2022-06-03_13h54.59.335,Main,2022.1.1,59.85131735740555,
positive,yellow,2,None,k,,,,,,,,,0,50,50,50,,,,,,,,,,,,,,,,,,,,,,,,,,,,,,,,,,,,,main,k,k,1,0.7655356000000211,378.7730025000001,None,None,0,,,,,,,,,,,,,,229,24,Male,2022-06-03_13h54.59.335,Main,2022.1.1,59.85131735740555,
negative,blue,1,None,k,,,,,,,,,0,51,51,51,,,,,,,,,,,,,,,,,,,,,,,,,,,,,,,,,,,,,main,k,k,1,0.7909626999999091,380.5398790999998,None,None,0,,,,,,,,,,,,,,229,24,Male,2022-06-03_13h54.59.335,Main,2022.1.1,59.85131735740555,
positive,red,2,None,None,,,,,,,,,0,52,52,52,,,,,,,,,,,,,,,,,,,,,,,,,,,,,,,,,,,,,main,None,None,1,1.5134746999997333,382.33146799999986,None,None,1,,,,,,,,,,,,,,229,24,Male,2022-06-03_13h54.59.335,Main,2022.1.1,59.85131735740555,
positive,yellow,2,None,k,,,,,,,,,0,53,53,53,,,,,,,,,,,,,,,,,,,,,,,,,,,,,,,,,,,,,main,k,k,1,0.8502450999999382,384.84613409999974,None,None,0,,,,,,,,,,,,,,229,24,Male,2022-06-03_13h54.59.335,Main,2022.1.1,59.85131735740555,
negative,red,2,None,None,,,,,,,,,0,54,54,54,,,,,,,,,,,,,,,,,,,,,,,,,,,,,,,,,,,,,main,None,None,1,1.5003044000000045,386.70071340000004,None,None,1,,,,,,,,,,,,,,229,24,Male,2022-06-03_13h54.59.335,Main,2022.1.1,59.85131735740555,
positive,yellow,1,None,k,,,,,,,,,0,55,55,55,,,,,,,,,,,,,,,,,,,,,,,,,,,,,,,,,,,,,main,k,k,1,0.8485525999999481,389.20411349999995,None,None,0,,,,,,,,,,,,,,229,24,Male,2022-06-03_13h54.59.335,Main,2022.1.1,59.85131735740555,
negative,blue,2,None,k,,,,,,,,,0,56,56,56,,,,,,,,,,,,,,,,,,,,,,,,,,,,,,,,,,,,,main,k,k,1,0.7082352000002174,391.0518834999998,None,None,0,,,,,,,,,,,,,,229,24,Male,2022-06-03_13h54.59.335,Main,2022.1.1,59.85131735740555,
positive,blue,1,k,None,,,,,,,,,0,57,57,57,,,,,,,,,,,,,,,,,,,,,,,,,,,,,,,,,,,,,main,None,None,1,1.5075348000000304,392.76367979999986,None,None,1,,,,,,,,,,,,,,229,24,Male,2022-06-03_13h54.59.335,Main,2022.1.1,59.85131735740555,
positive,blue,1,k,None,,,,,,,,,0,58,58,58,,,,,,,,,,,,,,,,,,,,,,,,,,,,,,,,,,,,,main,None,None,1,1.5109141000002637,395.27120719999994,None,None,1,,,,,,,,,,,,,,229,24,Male,2022-06-03_13h54.59.335,Main,2022.1.1,59.85131735740555,
negative,yellow,2,k,None,,,,,,,,,0,59,59,59,,,,,,,,,,,,,,,,,,,,,,,,,,,,,,,,,,,,,main,None,None,1,1.4970494999997754,397.7864991000001,None,None,1,,,,,,,,,,,,,,229,24,Male,2022-06-03_13h54.59.335,Main,2022.1.1,59.85131735740555,
positive,red,2,None,None,,,,,,,,,0,60,60,60,,,,,,,,,,,,,,,,,,,,,,,,,,,,,,,,,,,,,main,None,None,1,1.5013079999998808,400.28726370000004,None,None,1,,,,,,,,,,,,,,229,24,Male,2022-06-03_13h54.59.335,Main,2022.1.1,59.85131735740555,
negative,yellow,1,k,None,,,,,,,,,0,61,61,61,,,,,,,,,,,,,,,,,,,,,,,,,,,,,,,,,,,,,main,None,None,1,1.5148543999998765,402.7872035999999,None,None,1,,,,,,,,,,,,,,229,24,Male,2022-06-03_13h54.59.335,Main,2022.1.1,59.85131735740555,
negative,red,1,None,None,,,,,,,,,0,62,62,62,,,,,,,,,,,,,,,,,,,,,,,,,,,,,,,,,,,,,main,None,None,1,1.4955732999997053,405.3057009999998,None,None,1,,,,,,,,,,,,,,229,24,Male,2022-06-03_13h54.59.335,Main,2022.1.1,59.85131735740555,
negative,blue,1,None,k,,,,,,,,,0,63,63,63,,,,,,,,,,,,,,,,,,,,,,,,,,,,,,,,,,,,,main,k,k,1,1.0093289999999797,407.8009121,None,None,0,,,,,,,,,,,,,,229,24,Male,2022-06-03_13h54.59.335,Main,2022.1.1,59.85131735740555,
positive,blue,2,k,None,,,,,,,,,0,64,64,64,,,,,,,,,,,,,,,,,,,,,,,,,,,,,,,,,,,,,main,None,None,1,1.5016826000000947,409.8140736999999,None,None,1,,,,,,,,,,,,,,229,24,Male,2022-06-03_13h54.59.335,Main,2022.1.1,59.85131735740555,
negative,yellow,2,k,None,,,,,,,,,0,65,65,65,,,,,,,,,,,,,,,,,,,,,,,,,,,,,,,,,,,,,main,None,None,1,1.510073200000079,412.31797359999973,None,None,1,,,,,,,,,,,,,,229,24,Male,2022-06-03_13h54.59.335,Main,2022.1.1,59.85131735740555,
positive,yellow,2,None,k,,,,,,,,,0,66,66,66,,,,,,,,,,,,,,,,,,,,,,,,,,,,,,,,,,,,,main,k,k,1,1.2268071000003147,414.8303665999997,None,None,0,,,,,,,,,,,,,,229,24,Male,2022-06-03_13h54.59.335,Main,2022.1.1,59.85131735740555,
positive,yellow,2,None,k,,,,,,,,,0,67,67,67,,,,,,,,,,,,,,,,,,,,,,,,,,,,,,,,,,,,,main,k,k,1,0.7280014999996638,417.06241820000014,None,None,0,,,,,,,,,,,,,,229,24,Male,2022-06-03_13h54.59.335,Main,2022.1.1,59.85131735740555,
positive,red,1,None,None,,,,,,,,,0,68,68,68,,,,,,,,,,,,,,,,,,,,,,,,,,,,,,,,,,,,,main,None,None,1,1.4998446999998123,418.7936783,None,None,1,,,,,,,,,,,,,,229,24,Male,2022-06-03_13h54.59.335,Main,2022.1.1,59.85131735740555,
positive,yellow,1,None,k,,,,,,,,,0,69,69,69,,,,,,,,,,,,,,,,,,,,,,,,,,,,,,,,,,,,,main,k,k,1,1.1022714999999152,421.29328929999974,None,None,0,,,,,,,,,,,,,,229,24,Male,2022-06-03_13h54.59.335,Main,2022.1.1,59.85131735740555,
negative,yellow,2,k,None,,,,,,,,,0,70,70,70,,,,,,,,,,,,,,,,,,,,,,,,,,,,,,,,,,,,,main,None,None,1,1.5064876999999797,423.4009169000001,None,None,1,,,,,,,,,,,,,,229,24,Male,2022-06-03_13h54.59.335,Main,2022.1.1,59.85131735740555,
positive,yellow,1,None,k,,,,,,,,,0,71,71,71,,,,,,,,,,,,,,,,,,,,,,,,,,,,,,,,,,,,,main,k,k,1,0.6856967999997323,425.90730380000014,None,None,0,,,,,,,,,,,,,,229,24,Male,2022-06-03_13h54.59.335,Main,2022.1.1,59.85131735740555,
negative,blue,1,None,k,,,,,,,,,0,72,72,72,,,,,,,,,,,,,,,,,,,,,,,,,,,,,,,,,,,,,main,k,k,1,0.7136200999998437,427.5967873999998,None,None,0,,,,,,,,,,,,,,229,24,Male,2022-06-03_13h54.59.335,Main,2022.1.1,59.85131735740555,
negative,red,2,None,None,,,,,,,,,0,73,73,73,,,,,,,,,,,,,,,,,,,,,,,,,,,,,,,,,,,,,main,None,None,1,1.513781999999992,429.30963359999987,None,None,1,,,,,,,,,,,,,,229,24,Male,2022-06-03_13h54.59.335,Main,2022.1.1,59.85131735740555,
positive,blue,2,k,None,,,,,,,,,0,74,74,74,,,,,,,,,,,,,,,,,,,,,,,,,,,,,,,,,,,,,main,None,None,1,1.5113613999997142,431.8254744000001,None,None,1,,,,,,,,,,,,,,229,24,Male,2022-06-03_13h54.59.335,Main,2022.1.1,59.85131735740555,
negative,blue,2,None,k,,,,,,,,,0,75,75,75,,,,,,,,,,,,,,,,,,,,,,,,,,,,,,,,,,,,,main,k,k,1,1.035299799999848,434.3394914999999,None,None,0,,,,,,,,,,,,,,229,24,Male,2022-06-03_13h54.59.335,Main,2022.1.1,59.85131735740555,
negative,blue,2,None,k,,,,,,,,,0,76,76,76,,,,,,,,,,,,,,,,,,,,,,,,,,,,,,,,,,,,,main,k,k,1,0.6611325999997462,436.37822030000007,None,None,0,,,,,,,,,,,,,,229,24,Male,2022-06-03_13h54.59.335,Main,2022.1.1,59.85131735740555,
negative,yellow,1,k,None,,,,,,,,,0,77,77,77,,,,,,,,,,,,,,,,,,,,,,,,,,,,,,,,,,,,,main,None,None,1,1.4976119000002655,438.0384350999998,None,None,1,,,,,,,,,,,,,,229,24,Male,2022-06-03_13h54.59.335,Main,2022.1.1,59.85131735740555,
positive,blue,1,k,None,,,,,,,,,0,78,78,78,,,,,,,,,,,,,,,,,,,,,,,,,,,,,,,,,,,,,main,None,None,1,1.4960108000000218,440.5397001000001,None,None,1,,,,,,,,,,,,,,229,24,Male,2022-06-03_13h54.59.335,Main,2022.1.1,59.85131735740555,
positive,blue,1,k,None,,,,,,,,,0,79,79,79,,,,,,,,,,,,,,,,,,,,,,,,,,,,,,,,,,,,,main,None,None,1,1.5125864999999976,443.0350051999999,None,None,1,,,,,,,,,,,,,,229,24,Male,2022-06-03_13h54.59.335,Main,2022.1.1,59.85131735740555,
positive,red,2,None,None,,,,,,,,,0,80,80,80,,,,,,,,,,,,,,,,,,,,,,,,,,,,,,,,,,,,,main,None,None,1,1.4989847000001646,445.55070239999986,None,None,1,,,,,,,,,,,,,,229,24,Male,2022-06-03_13h54.59.335,Main,2022.1.1,59.85131735740555,
positive,yellow,2,None,k,,,,,,,,,0,81,81,81,,,,,,,,,,,,,,,,,,,,,,,,,,,,,,,,,,,,,main,k,k,1,1.0854721999999128,448.05034160000014,None,None,0,,,,,,,,,,,,,,229,24,Male,2022-06-03_13h54.59.335,Main,2022.1.1,59.85131735740555,
positive,blue,1,k,None,,,,,,,,,0,82,82,82,,,,,,,,,,,,,,,,,,,,,,,,,,,,,,,,,,,,,main,None,None,1,1.5010114000001522,450.14084049999974,None,None,1,,,,,,,,,,,,,,229,24,Male,2022-06-03_13h54.59.335,Main,2022.1.1,59.85131735740555,
negative,yellow,2,k,None,,,,,,,,,0,83,83,83,,,,,,,,,,,,,,,,,,,,,,,,,,,,,,,,,,,,,main,None,None,1,1.509100899999794,452.6416088000001,None,None,1,,,,,,,,,,,,,,229,24,Male,2022-06-03_13h54.59.335,Main,2022.1.1,59.85131735740555,
positive,blue,2,k,None,,,,,,,,,0,84,84,84,,,,,,,,,,,,,,,,,,,,,,,,,,,,,,,,,,,,,main,None,None,1,1.5074359000000186,455.1533131000001,None,None,1,,,,,,,,,,,,,,229,24,Male,2022-06-03_13h54.59.335,Main,2022.1.1,59.85131735740555,
positive,yellow,1,None,k,,,,,,,,,0,85,85,85,,,,,,,,,,,,,,,,,,,,,,,,,,,,,,,,,,,,,main,k,k,1,0.7714304000000993,457.6609407000001,None,None,0,,,,,,,,,,,,,,229,24,Male,2022-06-03_13h54.59.335,Main,2022.1.1,59.85131735740555,
positive,blue,2,k,None,,,,,,,,,0,86,86,86,,,,,,,,,,,,,,,,,,,,,,,,,,,,,,,,,,,,,main,None,None,1,1.4975306000001183,459.43578179999986,None,None,1,,,,,,,,,,,,,,229,24,Male,2022-06-03_13h54.59.335,Main,2022.1.1,59.85131735740555,
positive,blue,1,k,None,,,,,,,,,0,87,87,87,,,,,,,,,,,,,,,,,,,,,,,,,,,,,,,,,,,,,main,None,None,1,1.5006303999998636,461.9419858000001,None,None,1,,,,,,,,,,,,,,229,24,Male,2022-06-03_13h54.59.335,Main,2022.1.1,59.85131735740555,
negative,yellow,2,k,None,,,,,,,,,0,88,88,88,,,,,,,,,,,,,,,,,,,,,,,,,,,,,,,,,,,,,main,None,None,1,1.4958543000002464,464.43804950000003,None,None,1,,,,,,,,,,,,,,229,24,Male,2022-06-03_13h54.59.335,Main,2022.1.1,59.85131735740555,
negative,blue,2,None,k,,,,,,,,,0,89,89,89,,,,,,,,,,,,,,,,,,,,,,,,,,,,,,,,,,,,,main,k,k,1,0.9241252000001623,466.93574910000007,None,None,0,,,,,,,,,,,,,,229,24,Male,2022-06-03_13h54.59.335,Main,2022.1.1,59.85131735740555,
positive,yellow,2,None,k,,,,,,,,,0,90,90,90,,,,,,,,,,,,,,,,,,,,,,,,,,,,,,,,,,,,,main,k,k,1,0.7603085999999166,468.86311799999976,None,None,0,,,,,,,,,,,,,,229,24,Male,2022-06-03_13h54.59.335,Main,2022.1.1,59.85131735740555,
negative,yellow,1,k,None,,,,,,,,,0,91,91,91,,,,,,,,,,,,,,,,,,,,,,,,,,,,,,,,,,,,,main,None,None,1,1.513896399999794,470.62572120000004,None,None,1,,,,,,,,,,,,,,229,24,Male,2022-06-03_13h54.59.335,Main,2022.1.1,59.85131735740555,
negative,red,2,None,None,,,,,,,,,0,92,92,92,,,,,,,,,,,,,,,,,,,,,,,,,,,,,,,,,,,,,main,None,None,1,1.5023678000002292,473.1390511999998,None,None,1,,,,,,,,,,,,,,229,24,Male,2022-06-03_13h54.59.335,Main,2022.1.1,59.85131735740555,
negative,blue,2,None,k,,,,,,,,,0,93,93,93,,,,,,,,,,,,,,,,,,,,,,,,,,,,,,,,,,,,,main,k,k,1,0.794429399999899,475.6473351999998,None,None,0,,,,,,,,,,,,,,229,24,Male,2022-06-03_13h54.59.335,Main,2022.1.1,59.85131735740555,
negative,blue,1,None,k,,,,,,,,,0,94,94,94,,,,,,,,,,,,,,,,,,,,,,,,,,,,,,,,,,,,,main,k,k,1,0.6559397999999419,477.4410213000001,None,None,0,,,,,,,,,,,,,,229,24,Male,2022-06-03_13h54.59.335,Main,2022.1.1,59.85131735740555,
negative,blue,1,None,k,,,,,,,,,0,95,95,95,,,,,,,,,,,,,,,,,,,,,,,,,,,,,,,,,,,,,main,k,k,1,0.6061916999997266,479.09813529999974,None,None,0,,,,,,,,,,,,,,229,24,Male,2022-06-03_13h54.59.335,Main,2022.1.1,59.85131735740555,
negative,red,1,None,None,,,,,,,,,0,96,96,96,,,,,,,,,,,,,,,,,,,,,,,,,,,,,,,,,,,,,main,None,None,1,1.5032718000002205,480.70678069999985,None,None,1,,,,,,,,,,,,,,229,24,Male,2022-06-03_13h54.59.335,Main,2022.1.1,59.85131735740555,
positive,yellow,1,None,k,,,,,,,,,0,97,97,97,,,,,,,,,,,,,,,,,,,,,,,,,,,,,,,,,,,,,main,k,k,1,0.6867646999999124,483.2108411999998,None,None,0,,,,,,,,,,,,,,229,24,Male,2022-06-03_13h54.59.335,Main,2022.1.1,59.85131735740555,
negative,yellow,1,k,None,,,,,,,,,0,98,98,98,,,,,,,,,,,,,,,,,,,,,,,,,,,,,,,,,,,,,main,None,None,1,1.5141700999997738,484.8999991999999,None,None,1,,,,,,,,,,,,,,229,24,Male,2022-06-03_13h54.59.335,Main,2022.1.1,59.85131735740555,
positive,red,1,None,None,,,,,,,,,0,99,99,99,,,,,,,,,,,,,,,,,,,,,,,,,,,,,,,,,,,,,main,None,None,1,1.5207576000002518,487.4136632999998,None,None,1,,,,,,,,,,,,,,229,24,Male,2022-06-03_13h54.59.335,Main,2022.1.1,59.85131735740555,
positive,blue,1,k,None,,,,,,,,,0,100,100,100,,,,,,,,,,,,,,,,,,,,,,,,,,,,,,,,,,,,,main,None,None,1,1.5263953000003312,489.9444429,None,None,1,,,,,,,,,,,,,,229,24,Male,2022-06-03_13h54.59.335,Main,2022.1.1,59.85131735740555,
negative,yellow,1,k,None,,,,,,,,,0,101,101,101,,,,,,,,,,,,,,,,,,,,,,,,,,,,,,,,,,,,,main,None,None,1,1.5214914999996836,492.4740879000001,None,None,1,,,,,,,,,,,,,,229,24,Male,2022-06-03_13h54.59.335,Main,2022.1.1,59.85131735740555,
negative,blue,2,None,k,,,,,,,,,0,102,102,102,,,,,,,,,,,,,,,,,,,,,,,,,,,,,,,,,,,,,main,k,k,1,1.2644782000002124,495.0014160999999,None,None,0,,,,,,,,,,,,,,229,24,Male,2022-06-03_13h54.59.335,Main,2022.1.1,59.85131735740555,
negative,yellow,2,k,None,,,,,,,,,0,103,103,103,,,,,,,,,,,,,,,,,,,,,,,,,,,,,,,,,,,,,main,None,None,1,1.5329216999998607,497.2729337999999,None,None,1,,,,,,,,,,,,,,229,24,Male,2022-06-03_13h54.59.335,Main,2022.1.1,59.85131735740555,
positive,yellow,2,None,k,,,,,,,,,0,104,104,104,,,,,,,,,,,,,,,,,,,,,,,,,,,,,,,,,,,,,main,k,k,1,0.8468379999999343,499.80470030000015,None,None,0,,,,,,,,,,,,,,229,24,Male,2022-06-03_13h54.59.335,Main,2022.1.1,59.85131735740555,
positive,blue,1,k,None,,,,,,,,,0,105,105,105,,,,,,,,,,,,,,,,,,,,,,,,,,,,,,,,,,,,,main,None,None,1,1.5218344999998408,501.65915189999987,None,None,1,,,,,,,,,,,,,,229,24,Male,2022-06-03_13h54.59.335,Main,2022.1.1,59.85131735740555,
positive,blue,2,k,None,,,,,,,,,0,106,106,106,,,,,,,,,,,,,,,,,,,,,,,,,,,,,,,,,,,,,main,None,None,1,1.523962400000073,504.1821738999997,None,None,1,,,,,,,,,,,,,,229,24,Male,2022-06-03_13h54.59.335,Main,2022.1.1,59.85131735740555,
negative,blue,1,None,k,,,,,,,,,0,107,107,107,,,,,,,,,,,,,,,,,,,,,,,,,,,,,,,,,,,,,main,k,k,1,0.7855181999998422,506.7129869999999,None,None,0,,,,,,,,,,,,,,229,24,Male,2022-06-03_13h54.59.335,Main,2022.1.1,59.85131735740555,
positive,yellow,2,None,k,,,,,,,,,0,108,108,108,,,,,,,,,,,,,,,,,,,,,,,,,,,,,,,,,,,,,main,k,k,1,0.786160099999961,508.5091480000001,None,None,0,,,,,,,,,,,,,,229,24,Male,2022-06-03_13h54.59.335,Main,2022.1.1,59.85131735740555,
negative,yellow,1,k,None,,,,,,,,,0,109,109,109,,,,,,,,,,,,,,,,,,,,,,,,,,,,,,,,,,,,,main,None,None,1,1.510765800000172,510.286697,None,None,1,,,,,,,,,,,,,,229,24,Male,2022-06-03_13h54.59.335,Main,2022.1.1,59.85131735740555,
negative,blue,2,None,k,,,,,,,,,0,110,110,110,,,,,,,,,,,,,,,,,,,,,,,,,,,,,,,,,,,,,main,k,k,1,0.8238636000000952,512.8050797000001,None,None,0,,,,,,,,,,,,,,229,24,Male,2022-06-03_13h54.59.335,Main,2022.1.1,59.85131735740555,
positive,blue,2,k,None,,,,,,,,,0,111,111,111,,,,,,,,,,,,,,,,,,,,,,,,,,,,,,,,,,,,,main,None,None,1,1.5081920000002356,514.6311894,None,None,1,,,,,,,,,,,,,,229,24,Male,2022-06-03_13h54.59.335,Main,2022.1.1,59.85131735740555,
negative,blue,1,None,k,,,,,,,,,0,112,112,112,,,,,,,,,,,,,,,,,,,,,,,,,,,,,,,,,,,,,main,k,k,1,0.8311066000001119,517.1381348,None,None,0,,,,,,,,,,,,,,229,24,Male,2022-06-03_13h54.59.335,Main,2022.1.1,59.85131735740555,
positive,yellow,1,None,k,,,,,,,,,0,113,113,113,,,,,,,,,,,,,,,,,,,,,,,,,,,,,,,,,,,,,main,k,k,1,0.8011378999999579,518.9788632,None,None,0,,,,,,,,,,,,,,229,24,Male,2022-06-03_13h54.59.335,Main,2022.1.1,59.85131735740555,
negative,red,1,None,None,,,,,,,,,0,114,114,114,,,,,,,,,,,,,,,,,,,,,,,,,,,,,,,,,,,,,main,None,None,1,1.5175218999997924,520.7850936,None,None,1,,,,,,,,,,,,,,229,24,Male,2022-06-03_13h54.59.335,Main,2022.1.1,59.85131735740555,
positive,red,1,None,None,,,,,,,,,0,115,115,115,,,,,,,,,,,,,,,,,,,,,,,,,,,,,,,,,,,,,main,None,None,1,1.505361399999856,523.3015233000001,None,None,1,,,,,,,,,,,,,,229,24,Male,2022-06-03_13h54.59.335,Main,2022.1.1,59.85131735740555,
negative,red,2,None,None,,,,,,,,,0,116,116,116,,,,,,,,,,,,,,,,,,,,,,,,,,,,,,,,,,,,,main,None,None,1,1.528552899999795,525.8088623999997,None,None,1,,,,,,,,,,,,,,229,24,Male,2022-06-03_13h54.59.335,Main,2022.1.1,59.85131735740555,
negative,yellow,2,k,None,,,,,,,,,0,117,117,117,,,,,,,,,,,,,,,,,,,,,,,,,,,,,,,,,,,,,main,None,None,1,1.522533100000146,528.3391406999999,None,None,1,,,,,,,,,,,,,,229,24,Male,2022-06-03_13h54.59.335,Main,2022.1.1,59.85131735740555,
positive,yellow,1,None,k,,,,,,,,,0,118,118,118,,,,,,,,,,,,,,,,,,,,,,,,,,,,,,,,,,,,,main,k,k,1,0.7378083999997216,530.8633507,None,None,0,,,,,,,,,,,,,,229,24,Male,2022-06-03_13h54.59.335,Main,2022.1.1,59.85131735740555,
positive,red,2,None,None,,,,,,,,,0,119,119,119,,,,,,,,,,,,,,,,,,,,,,,,,,,,,,,,,,,,,main,None,None,1,1.5200542000002315,532.6028685000001,None,None,1,,,,,,,,,,,,,,229,24,Male,2022-06-03_13h54.59.335,Main,2022.1.1,59.85131735740555,
positive,blue,2,k,None,,,,,,,,,0,120,120,120,,,,,,,,,,,,,,,,,,,,,,,,,,,,,,,,,,,,,main,None,None,1,1.5052512000002025,535.1291028,None,None,1,,,,,,,,,,,,,,229,24,Male,2022-06-03_13h54.59.335,Main,2022.1.1,59.85131735740555,
negative,red,1,None,None,,,,,,,,,0,121,121,121,,,,,,,,,,,,,,,,,,,,,,,,,,,,,,,,,,,,,main,None,None,1,1.5096234000002369,537.6414848,None,None,1,,,,,,,,,,,,,,229,24,Male,2022-06-03_13h54.59.335,Main,2022.1.1,59.85131735740555,
positive,yellow,2,None,k,,,,,,,,,0,122,122,122,,,,,,,,,,,,,,,,,,,,,,,,,,,,,,,,,,,,,main,k,k,1,0.7462139999997817,540.1518955000001,None,None,0,,,,,,,,,,,,,,229,24,Male,2022-06-03_13h54.59.335,Main,2022.1.1,59.85131735740555,
negative,red,2,None,None,,,,,,,,,0,123,123,123,,,,,,,,,,,,,,,,,,,,,,,,,,,,,,,,,,,,,main,None,None,1,1.518261100000018,541.8999140000001,None,None,1,,,,,,,,,,,,,,229,24,Male,2022-06-03_13h54.59.335,Main,2022.1.1,59.85131735740555,
negative,yellow,2,k,None,,,,,,,,,0,124,124,124,,,,,,,,,,,,,,,,,,,,,,,,,,,,,,,,,,,,,main,None,None,1,1.524933499999861,544.4225382,None,None,1,,,,,,,,,,,,,,229,24,Male,2022-06-03_13h54.59.335,Main,2022.1.1,59.85131735740555,
positive,red,1,None,None,,,,,,,,,0,125,125,125,,,,,,,,,,,,,,,,,,,,,,,,,,,,,,,,,,,,,main,None,None,1,1.5081060000002253,546.9497332999999,None,None,1,,,,,,,,,,,,,,229,24,Male,2022-06-03_13h54.59.335,Main,2022.1.1,59.85131735740555,
negative,blue,2,None,k,,,,,,,,,0,126,126,126,,,,,,,,,,,,,,,,,,,,,,,,,,,,,,,,,,,,,main,k,k,1,0.8210368000000017,549.4596569,None,None,0,,,,,,,,,,,,,,229,24,Male,2022-06-03_13h54.59.335,Main,2022.1.1,59.85131735740555,
negative,blue,1,None,k,,,,,,,,,0,127,127,127,,,,,,,,,,,,,,,,,,,,,,,,,,,,,,,,,,,,,main,k,k,1,0.851452800000061,551.2806384,None,None,0,,,,,,,,,,,,,,229,24,Male,2022-06-03_13h54.59.335,Main,2022.1.1,59.85131735740555,
negative,yellow,1,k,None,,,,,,,,,0,128,128,128,,,,,,,,,,,,,,,,,,,,,,,,,,,,,,,,,,,,,main,None,None,1,1.5098141000003125,553.1406360999999,None,None,1,,,,,,,,,,,,,,229,24,Male,2022-06-03_13h54.59.335,Main,2022.1.1,59.85131735740555,
negative,yellow,1,k,None,,,,,,,,,0,129,129,129,,,,,,,,,,,,,,,,,,,,,,,,,,,,,,,,,,,,,main,None,None,1,1.507970099999966,555.6548468000001,None,None,1,,,,,,,,,,,,,,229,24,Male,2022-06-03_13h54.59.335,Main,2022.1.1,59.85131735740555,
positive,blue,1,k,None,,,,,,,,,0,130,130,130,,,,,,,,,,,,,,,,,,,,,,,,,,,,,,,,,,,,,main,None,None,1,1.5278886999999486,558.1612249999998,None,None,1,,,,,,,,,,,,,,229,24,Male,2022-06-03_13h54.59.335,Main,2022.1.1,59.85131735740555,
negative,blue,1,None,k,,,,,,,,,0,131,131,131,,,,,,,,,,,,,,,,,,,,,,,,,,,,,,,,,,,,,main,k,k,1,0.7860005000002275,560.6953046999997,None,None,0,,,,,,,,,,,,,,229,24,Male,2022-06-03_13h54.59.335,Main,2022.1.1,59.85131735740555,
negative,blue,2,None,k,,,,,,,,,0,132,132,132,,,,,,,,,,,,,,,,,,,,,,,,,,,,,,,,,,,,,main,k,k,1,0.7531066000001374,562.4832662999997,None,None,0,,,,,,,,,,,,,,229,24,Male,2022-06-03_13h54.59.335,Main,2022.1.1,59.85131735740555,
positive,blue,2,k,None,,,,,,,,,0,133,133,133,,,,,,,,,,,,,,,,,,,,,,,,,,,,,,,,,,,,,main,None,None,1,1.5023151999998845,564.2397796999999,None,None,1,,,,,,,,,,,,,,229,24,Male,2022-06-03_13h54.59.335,Main,2022.1.1,59.85131735740555,
positive,red,2,None,None,,,,,,,,,0,134,134,134,,,,,,,,,,,,,,,,,,,,,,,,,,,,,,,,,,,,,main,None,None,1,1.5247042000000874,566.7442965999999,None,None,1,,,,,,,,,,,,,,229,24,Male,2022-06-03_13h54.59.335,Main,2022.1.1,59.85131735740555,
negative,yellow,2,k,None,,,,,,,,,0,135,135,135,,,,,,,,,,,,,,,,,,,,,,,,,,,,,,,,,,,,,main,None,None,1,1.507782700000007,569.2682455999998,None,None,1,,,,,,,,,,,,,,229,24,Male,2022-06-03_13h54.59.335,Main,2022.1.1,59.85131735740555,
positive,yellow,2,None,k,,,,,,,,,0,136,136,136,,,,,,,,,,,,,,,,,,,,,,,,,,,,,,,,,,,,,main,k,k,1,1.2042068000000654,571.7771469999998,None,None,0,,,,,,,,,,,,,,229,24,Male,2022-06-03_13h54.59.335,Main,2022.1.1,59.85131735740555,
positive,blue,1,k,None,,,,,,,,,0,137,137,137,,,,,,,,,,,,,,,,,,,,,,,,,,,,,,,,,,,,,main,None,None,1,1.5266701000000467,573.9865172999998,None,None,1,,,,,,,,,,,,,,229,24,Male,2022-06-03_13h54.59.335,Main,2022.1.1,59.85131735740555,
positive,yellow,1,None,k,,,,,,,,,0,138,138,138,,,,,,,,,,,,,,,,,,,,,,,,,,,,,,,,,,,,,main,k,k,1,0.9509578000001966,576.5184513999998,None,None,0,,,,,,,,,,,,,,229,24,Male,2022-06-03_13h54.59.335,Main,2022.1.1,59.85131735740555,
positive,yellow,1,None,k,,,,,,,,,0,139,139,139,,,,,,,,,,,,,,,,,,,,,,,,,,,,,,,,,,,,,main,k,k,1,0.7813857000001008,578.4757131000001,None,None,0,,,,,,,,,,,,,,229,24,Male,2022-06-03_13h54.59.335,Main,2022.1.1,59.85131735740555,
positive,yellow,1,None,k,,,,,,,,,0,140,140,140,,,,,,,,,,,,,,,,,,,,,,,,,,,,,,,,,,,,,main,k,k,1,0.6376052999999047,580.2550913,None,None,0,,,,,,,,,,,,,,229,24,Male,2022-06-03_13h54.59.335,Main,2022.1.1,59.85131735740555,
positive,blue,1,k,None,,,,,,,,,0,141,141,141,,,,,,,,,,,,,,,,,,,,,,,,,,,,,,,,,,,,,main,None,None,1,1.5015392000000247,581.8897416,None,None,1,,,,,,,,,,,,,,229,24,Male,2022-06-03_13h54.59.335,Main,2022.1.1,59.85131735740555,
positive,blue,2,k,None,,,,,,,,,0,142,142,142,,,,,,,,,,,,,,,,,,,,,,,,,,,,,,,,,,,,,main,None,None,1,1.5110313999998652,584.3965788,None,None,1,,,,,,,,,,,,,,229,24,Male,2022-06-03_13h54.59.335,Main,2022.1.1,59.85131735740555,
positive,yellow,2,None,k,,,,,,,,,0,143,143,143,,,,,,,,,,,,,,,,,,,,,,,,,,,,,,,,,,,,,main,k,k,1,0.9121700000000601,586.9065588999997,None,None,0,,,,,,,,,,,,,,229,24,Male,2022-06-03_13h54.59.335,Main,2022.1.1,59.85131735740555,
negative,yellow,2,k,None,,,,,,,,,0,144,144,144,,,,,,,,,,,,,,,,,,,,,,,,,,,,,,,,,,,,,main,None,None,1,1.502382199999829,588.8209352999997,None,None,1,,,,,,,,,,,,,,229,24,Male,2022-06-03_13h54.59.335,Main,2022.1.1,59.85131735740555,
negative,blue,2,None,k,,,,,,,,,0,145,145,145,,,,,,,,,,,,,,,,,,,,,,,,,,,,,,,,,,,,,main,k,k,1,0.7835183000001962,591.3319785999997,None,None,0,,,,,,,,,,,,,,229,24,Male,2022-06-03_13h54.59.335,Main,2022.1.1,59.85131735740555,
negative,red,1,None,None,,,,,,,,,0,146,146,146,,,,,,,,,,,,,,,,,,,,,,,,,,,,,,,,,,,,,main,None,None,1,1.4981173999999555,593.1148330000001,None,None,1,,,,,,,,,,,,,,229,24,Male,2022-06-03_13h54.59.335,Main,2022.1.1,59.85131735740555,
positive,blue,1,k,None,,,,,,,,,0,147,147,147,,,,,,,,,,,,,,,,,,,,,,,,,,,,,,,,,,,,,main,None,None,1,1.5028211999997438,595.6153356999998,None,None,1,,,,,,,,,,,,,,229,24,Male,2022-06-03_13h54.59.335,Main,2022.1.1,59.85131735740555,
positive,yellow,1,None,k,,,,,,,,,0,148,148,148,,,,,,,,,,,,,,,,,,,,,,,,,,,,,,,,,,,,,main,k,k,1,0.8860502999996243,598.1253241999998,None,None,0,,,,,,,,,,,,,,229,24,Male,2022-06-03_13h54.59.335,Main,2022.1.1,59.85131735740555,
negative,red,2,None,None,,,,,,,,,0,149,149,149,,,,,,,,,,,,,,,,,,,,,,,,,,,,,,,,,,,,,main,None,None,1,1.518804799999998,600.0173156999999,None,None,1,,,,,,,,,,,,,,229,24,Male,2022-06-03_13h54.59.335,Main,2022.1.1,59.85131735740555,
negative,blue,1,None,k,,,,,,,,,0,150,150,150,,,,,,,,,,,,,,,,,,,,,,,,,,,,,,,,,,,,,main,k,k,1,0.7627347000002374,602.5322926999997,None,None,0,,,,,,,,,,,,,,229,24,Male,2022-06-03_13h54.59.335,Main,2022.1.1,59.85131735740555,
negative,yellow,2,k,None,,,,,,,,,0,151,151,151,,,,,,,,,,,,,,,,,,,,,,,,,,,,,,,,,,,,,main,None,None,1,1.517460100000335,604.2990534,None,None,1,,,,,,,,,,,,,,229,24,Male,2022-06-03_13h54.59.335,Main,2022.1.1,59.85131735740555,
negative,blue,2,None,k,,,,,,,,,0,152,152,152,,,,,,,,,,,,,,,,,,,,,,,,,,,,,,,,,,,,,main,k,k,1,0.6988160999999309,606.8179556,None,None,0,,,,,,,,,,,,,,229,24,Male,2022-06-03_13h54.59.335,Main,2022.1.1,59.85131735740555,
negative,yellow,1,k,None,,,,,,,,,0,153,153,153,,,,,,,,,,,,,,,,,,,,,,,,,,,,,,,,,,,,,main,None,None,1,1.5186344999997345,608.5200946,None,None,1,,,,,,,,,,,,,,229,24,Male,2022-06-03_13h54.59.335,Main,2022.1.1,59.85131735740555,
negative,blue,1,None,k,,,,,,,,,0,154,154,154,,,,,,,,,,,,,,,,,,,,,,,,,,,,,,,,,,,,,main,k,k,1,0.8742569000000913,611.0385098000002,None,None,0,,,,,,,,,,,,,,229,24,Male,2022-06-03_13h54.59.335,Main,2022.1.1,59.85131735740555,
positive,yellow,2,None,k,,,,,,,,,0,155,155,155,,,,,,,,,,,,,,,,,,,,,,,,,,,,,,,,,,,,,main,k,k,1,0.6976948000001357,612.9169453,None,None,0,,,,,,,,,,,,,,229,24,Male,2022-06-03_13h54.59.335,Main,2022.1.1,59.85131735740555,
positive,red,2,None,None,,,,,,,,,0,156,156,156,,,,,,,,,,,,,,,,,,,,,,,,,,,,,,,,,,,,,main,None,None,1,1.5107050000001436,614.6156704999999,None,None,1,,,,,,,,,,,,,,229,24,Male,2022-06-03_13h54.59.335,Main,2022.1.1,59.85131735740555,
positive,red,1,None,None,,,,,,,,,0,157,157,157,,,,,,,,,,,,,,,,,,,,,,,,,,,,,,,,,,,,,main,None,None,1,1.4997131000000081,617.1298711999998,None,None,1,,,,,,,,,,,,,,229,24,Male,2022-06-03_13h54.59.335,Main,2022.1.1,59.85131735740555,
positive,blue,2,k,None,,,,,,,,,0,158,158,158,,,,,,,,,,,,,,,,,,,,,,,,,,,,,,,,,,,,,main,None,None,1,1.5124087999997755,619.6311559999999,None,None,1,,,,,,,,,,,,,,229,24,Male,2022-06-03_13h54.59.335,Main,2022.1.1,59.85131735740555,
negative,yellow,1,k,None,,,,,,,,,0,159,159,159,,,,,,,,,,,,,,,,,,,,,,,,,,,,,,,,,,,,,main,None,None,1,1.496762299999773,622.1440441999998,None,None,1,,,,,,,,,,,,,,229,24,Male,2022-06-03_13h54.59.335,Main,2022.1.1,59.85131735740555,
negative,red,2,None,None,,,,,,,,,0,160,160,160,,,,,,,,,,,,,,,,,,,,,,,,,,,,,,,,,,,,,main,None,None,1,1.4951904999998078,624.6427107999998,None,None,1,,,,,,,,,,,,,,229,24,Male,2022-06-03_13h54.59.335,Main,2022.1.1,59.85131735740555,
negative,blue,1,None,k,,,,,,,,,0,161,161,161,,,,,,,,,,,,,,,,,,,,,,,,,,,,,,,,,,,,,main,k,k,1,0.632765400000153,627.1425417999999,None,None,0,,,,,,,,,,,,,,229,24,Male,2022-06-03_13h54.59.335,Main,2022.1.1,59.85131735740555,
negative,blue,1,None,k,,,,,,,,,0,162,162,162,,,,,,,,,,,,,,,,,,,,,,,,,,,,,,,,,,,,,main,k,k,1,0.7235759000000144,628.7754544999998,None,None,0,,,,,,,,,,,,,,229,24,Male,2022-06-03_13h54.59.335,Main,2022.1.1,59.85131735740555,
negative,yellow,1,k,None,,,,,,,,,0,163,163,163,,,,,,,,,,,,,,,,,,,,,,,,,,,,,,,,,,,,,main,None,None,1,1.5246431999999004,630.5067648999998,None,None,1,,,,,,,,,,,,,,229,24,Male,2022-06-03_13h54.59.335,Main,2022.1.1,59.85131735740555,
negative,yellow,1,k,None,,,,,,,,,0,164,164,164,,,,,,,,,,,,,,,,,,,,,,,,,,,,,,,,,,,,,main,None,None,1,1.5043092999999317,633.0366611,None,None,1,,,,,,,,,,,,,,229,24,Male,2022-06-03_13h54.59.335,Main,2022.1.1,59.85131735740555,
positive,yellow,1,None,k,,,,,,,,,0,165,165,165,,,,,,,,,,,,,,,,,,,,,,,,,,,,,,,,,,,,,main,k,k,1,0.8101446000000578,635.5410019999999,None,None,0,,,,,,,,,,,,,,229,24,Male,2022-06-03_13h54.59.335,Main,2022.1.1,59.85131735740555,
negative,red,1,None,None,,,,,,,,,0,166,166,166,,,,,,,,,,,,,,,,,,,,,,,,,,,,,,,,,,,,,main,None,None,1,1.50758900000028,637.3551675999997,None,None,1,,,,,,,,,,,,,,229,24,Male,2022-06-03_13h54.59.335,Main,2022.1.1,59.85131735740555,
negative,yellow,2,k,None,,,,,,,,,0,167,167,167,,,,,,,,,,,,,,,,,,,,,,,,,,,,,,,,,,,,,main,None,None,1,1.5037282999996933,639.8674190000002,None,None,1,,,,,,,,,,,,,,229,24,Male,2022-06-03_13h54.59.335,Main,2022.1.1,59.85131735740555,
positive,blue,2,k,None,,,,,,,,,0,168,168,168,,,,,,,,,,,,,,,,,,,,,,,,,,,,,,,,,,,,,main,None,None,1,1.5029908999999861,642.3725592000001,None,None,1,,,,,,,,,,,,,,229,24,Male,2022-06-03_13h54.59.335,Main,2022.1.1,59.85131735740555,
positive,red,2,None,None,,,,,,,,,0,169,169,169,,,,,,,,,,,,,,,,,,,,,,,,,,,,,,,,,,,,,main,None,None,1,1.5228329000001395,644.8819717000001,None,None,1,,,,,,,,,,,,,,229,24,Male,2022-06-03_13h54.59.335,Main,2022.1.1,59.85131735740555,
positive,red,1,None,None,,,,,,,,,0,170,170,170,,,,,,,,,,,,,,,,,,,,,,,,,,,,,,,,,,,,,main,None,None,1,1.5284148000000641,647.4107967,None,None,1,,,,,,,,,,,,,,229,24,Male,2022-06-03_13h54.59.335,Main,2022.1.1,59.85131735740555,
negative,blue,2,None,k,,,,,,,,,0,171,171,171,,,,,,,,,,,,,,,,,,,,,,,,,,,,,,,,,,,,,main,k,k,1,0.8318714000001819,649.9411439999999,None,None,0,,,,,,,,,,,,,,229,24,Male,2022-06-03_13h54.59.335,Main,2022.1.1,59.85131735740555,
positive,blue,2,k,None,,,,,,,,,0,172,172,172,,,,,,,,,,,,,,,,,,,,,,,,,,,,,,,,,,,,,main,None,None,1,1.5004424000003382,651.7727844000001,None,None,1,,,,,,,,,,,,,,229,24,Male,2022-06-03_13h54.59.335,Main,2022.1.1,59.85131735740555,
negative,yellow,2,k,None,,,,,,,,,0,173,173,173,,,,,,,,,,,,,,,,,,,,,,,,,,,,,,,,,,,,,main,None,None,1,1.5143548999999439,654.2743799,None,None,1,,,,,,,,,,,,,,229,24,Male,2022-06-03_13h54.59.335,Main,2022.1.1,59.85131735740555,
positive,yellow,2,None,k,,,,,,,,,0,174,174,174,,,,,,,,,,,,,,,,,,,,,,,,,,,,,,,,,,,,,main,k,k,1,0.7801729000002524,656.7879217,None,None,0,,,,,,,,,,,,,,229,24,Male,2022-06-03_13h54.59.335,Main,2022.1.1,59.85131735740555,
negative,blue,2,None,k,,,,,,,,,0,175,175,175,,,,,,,,,,,,,,,,,,,,,,,,,,,,,,,,,,,,,main,k,k,1,0.6708966000001055,658.5740752000002,None,None,0,,,,,,,,,,,,,,229,24,Male,2022-06-03_13h54.59.335,Main,2022.1.1,59.85131735740555,
positive,blue,1,k,None,,,,,,,,,0,176,176,176,,,,,,,,,,,,,,,,,,,,,,,,,,,,,,,,,,,,,main,None,None,1,1.508063299999776,660.2456469999997,None,None,1,,,,,,,,,,,,,,229,24,Male,2022-06-03_13h54.59.335,Main,2022.1.1,59.85131735740555,
positive,yellow,1,None,k,,,,,,,,,0,177,177,177,,,,,,,,,,,,,,,,,,,,,,,,,,,,,,,,,,,,,main,k,k,1,0.7987792000003537,662.7560855000002,None,None,0,,,,,,,,,,,,,,229,24,Male,2022-06-03_13h54.59.335,Main,2022.1.1,59.85131735740555,
positive,blue,1,k,None,,,,,,,,,0,178,178,178,,,,,,,,,,,,,,,,,,,,,,,,,,,,,,,,,,,,,main,None,None,1,1.500028999999813,664.557836,None,None,1,,,,,,,,,,,,,,229,24,Male,2022-06-03_13h54.59.335,Main,2022.1.1,59.85131735740555,
positive,yellow,2,None,k,,,,,,,,,0,179,179,179,,,,,,,,,,,,,,,,,,,,,,,,,,,,,,,,,,,,,main,k,k,1,1.080257999999958,667.0585673999999,None,None,0,,,,,,,,,,,,,,229,24,Male,2022-06-03_13h54.59.335,Main,2022.1.1,59.85131735740555,
positive,blue,1,k,None,,,,,,,,,0,180,180,180,,,,,,,,,,,,,,,,,,,,,,,,,,,,,,,,,,,,,main,None,None,1,1.5085997000001043,669.1401261999999,None,None,1,,,,,,,,,,,,,,229,24,Male,2022-06-03_13h54.59.335,Main,2022.1.1,59.85131735740555,
negative,red,1,None,None,,,,,,,,,0,181,181,181,,,,,,,,,,,,,,,,,,,,,,,,,,,,,,,,,,,,,main,None,None,1,1.4969073000002027,671.6517279999998,None,None,1,,,,,,,,,,,,,,229,24,Male,2022-06-03_13h54.59.335,Main,2022.1.1,59.85131735740555,
negative,blue,1,None,k,,,,,,,,,0,182,182,182,,,,,,,,,,,,,,,,,,,,,,,,,,,,,,,,,,,,,main,k,k,1,0.8355212999999821,674.1472789999998,None,None,0,,,,,,,,,,,,,,229,24,Male,2022-06-03_13h54.59.335,Main,2022.1.1,59.85131735740555,
negative,yellow,2,k,None,,,,,,,,,0,183,183,183,,,,,,,,,,,,,,,,,,,,,,,,,,,,,,,,,,,,,main,None,None,1,1.4973282000000836,675.9869199999998,None,None,1,,,,,,,,,,,,,,229,24,Male,2022-06-03_13h54.59.335,Main,2022.1.1,59.85131735740555,
positive,yellow,2,None,k,,,,,,,,,0,184,184,184,,,,,,,,,,,,,,,,,,,,,,,,,,,,,,,,,,,,,main,k,k,1,0.7523439999999937,678.4855824000001,None,None,0,,,,,,,,,,,,,,229,24,Male,2022-06-03_13h54.59.335,Main,2022.1.1,59.85131735740555,
positive,yellow,1,None,k,,,,,,,,,0,185,185,185,,,,,,,,,,,,,,,,,,,,,,,,,,,,,,,,,,,,,main,k,k,1,0.6771369000002778,680.2396671000001,None,None,0,,,,,,,,,,,,,,229,24,Male,2022-06-03_13h54.59.335,Main,2022.1.1,59.85131735740555,
positive,red,2,None,None,,,,,,,,,0,186,186,186,,,,,,,,,,,,,,,,,,,,,,,,,,,,,,,,,,,,,main,None,None,1,1.5087500999998156,681.9177196,None,None,1,,,,,,,,,,,,,,229,24,Male,2022-06-03_13h54.59.335,Main,2022.1.1,59.85131735740555,
positive,blue,1,k,None,,,,,,,,,0,187,187,187,,,,,,,,,,,,,,,,,,,,,,,,,,,,,,,,,,,,,main,None,None,1,1.5060922000002392,684.4309777999997,None,None,1,,,,,,,,,,,,,,229,24,Male,2022-06-03_13h54.59.335,Main,2022.1.1,59.85131735740555,
negative,yellow,1,k,None,,,,,,,,,0,188,188,188,,,,,,,,,,,,,,,,,,,,,,,,,,,,,,,,,,,,,main,None,None,1,1.5041251000002376,686.9364307000001,None,None,1,,,,,,,,,,,,,,229,24,Male,2022-06-03_13h54.59.335,Main,2022.1.1,59.85131735740555,
positive,yellow,2,None,k,,,,,,,,,0,189,189,189,,,,,,,,,,,,,,,,,,,,,,,,,,,,,,,,,,,,,main,k,k,1,0.7481935999999223,689.4409753,None,None,0,,,,,,,,,,,,,,229,24,Male,2022-06-03_13h54.59.335,Main,2022.1.1,59.85131735740555,
negative,yellow,2,k,None,,,,,,,,,0,190,190,190,,,,,,,,,,,,,,,,,,,,,,,,,,,,,,,,,,,,,main,None,None,1,1.5058343999999124,691.1927547,None,None,1,,,,,,,,,,,,,,229,24,Male,2022-06-03_13h54.59.335,Main,2022.1.1,59.85131735740555,
negative,yellow,1,k,None,,,,,,,,,0,191,191,191,,,,,,,,,,,,,,,,,,,,,,,,,,,,,,,,,,,,,main,None,None,1,1.496465399999579,693.6987653000001,None,None,1,,,,,,,,,,,,,,229,24,Male,2022-06-03_13h54.59.335,Main,2022.1.1,59.85131735740555,
positive,blue,2,k,None,,,,,,,,,0,192,192,192,,,,,,,,,,,,,,,,,,,,,,,,,,,,,,,,,,,,,main,None,None,1,1.503995500000201,696.2000674999999,None,None,1,,,,,,,,,,,,,,229,24,Male,2022-06-03_13h54.59.335,Main,2022.1.1,59.85131735740555,
positive,yellow,1,None,k,,,,,,,,,0,193,193,193,,,,,,,,,,,,,,,,,,,,,,,,,,,,,,,,,,,,,main,k,k,1,0.8330729999997857,698.7022269999998,None,None,0,,,,,,,,,,,,,,229,24,Male,2022-06-03_13h54.59.335,Main,2022.1.1,59.85131735740555,
negative,red,2,None,None,,,,,,,,,0,194,194,194,,,,,,,,,,,,,,,,,,,,,,,,,,,,,,,,,,,,,main,None,None,1,1.5051394999995864,700.5392508,None,None,1,,,,,,,,,,,,,,229,24,Male,2022-06-03_13h54.59.335,Main,2022.1.1,59.85131735740555,
positive,red,1,None,None,,,,,,,,,0,195,195,195,,,,,,,,,,,,,,,,,,,,,,,,,,,,,,,,,,,,,main,None,None,1,1.5126756999998179,703.0454258999998,None,None,1,,,,,,,,,,,,,,229,24,Male,2022-06-03_13h54.59.335,Main,2022.1.1,59.85131735740555,
negative,blue,1,None,k,,,,,,,,,0,196,196,196,,,,,,,,,,,,,,,,,,,,,,,,,,,,,,,,,,,,,main,k,k,1,0.7210737000000336,705.5590223999998,None,None,0,,,,,,,,,,,,,,229,24,Male,2022-06-03_13h54.59.335,Main,2022.1.1,59.85131735740555,
positive,blue,2,k,None,,,,,,,,,0,197,197,197,,,,,,,,,,,,,,,,,,,,,,,,,,,,,,,,,,,,,main,None,None,1,1.5081003000000237,707.2815593,None,None,1,,,,,,,,,,,,,,229,24,Male,2022-06-03_13h54.59.335,Main,2022.1.1,59.85131735740555,
negative,blue,2,None,k,,,,,,,,,0,198,198,198,,,,,,,,,,,,,,,,,,,,,,,,,,,,,,,,,,,,,main,k,k,1,0.7221808999997847,709.7919157000001,None,None,0,,,,,,,,,,,,,,229,24,Male,2022-06-03_13h54.59.335,Main,2022.1.1,59.85131735740555,
negative,blue,2,None,k,,,,,,,,,0,199,199,199,,,,,,,,,,,,,,,,,,,,,,,,,,,,,,,,,,,,,main,k,k,1,0.69975629999999,711.5141939,None,None,0,,,,,,,,,,,,,,229,24,Male,2022-06-03_13h54.59.335,Main,2022.1.1,59.85131735740555,
positive,blue,2,k,None,,,,,,,,,0,200,200,200,,,,,,,,,,,,,,,,,,,,,,,,,,,,,,,,,,,,,main,None,None,1,1.5021025999999438,713.2186833000001,None,None,1,,,,,,,,,,,,,,229,24,Male,2022-06-03_13h54.59.335,Main,2022.1.1,59.85131735740555,
positive,blue,2,k,None,,,,,,,,,0,201,201,201,,,,,,,,,,,,,,,,,,,,,,,,,,,,,,,,,,,,,main,None,None,1,1.4972278000000188,715.7208538,None,None,1,,,,,,,,,,,,,,229,24,Male,2022-06-03_13h54.59.335,Main,2022.1.1,59.85131735740555,
negative,yellow,2,k,None,,,,,,,,,0,202,202,202,,,,,,,,,,,,,,,,,,,,,,,,,,,,,,,,,,,,,main,None,None,1,1.4983533999998144,718.2200901000001,None,None,1,,,,,,,,,,,,,,229,24,Male,2022-06-03_13h54.59.335,Main,2022.1.1,59.85131735740555,
positive,red,1,None,None,,,,,,,,,0,203,203,203,,,,,,,,,,,,,,,,,,,,,,,,,,,,,,,,,,,,,main,None,None,1,1.503603000000112,720.7199636999999,None,None,1,,,,,,,,,,,,,,229,24,Male,2022-06-03_13h54.59.335,Main,2022.1.1,59.85131735740555,
negative,blue,2,None,k,,,,,,,,,0,204,204,204,,,,,,,,,,,,,,,,,,,,,,,,,,,,,,,,,,,,,main,k,k,1,0.7174430999998549,723.2238978,None,None,0,,,,,,,,,,,,,,229,24,Male,2022-06-03_13h54.59.335,Main,2022.1.1,59.85131735740555,
negative,red,1,None,None,,,,,,,,,0,205,205,205,,,,,,,,,,,,,,,,,,,,,,,,,,,,,,,,,,,,,main,None,None,1,1.4964194999997744,724.9466033999997,None,None,1,,,,,,,,,,,,,,229,24,Male,2022-06-03_13h54.59.335,Main,2022.1.1,59.85131735740555,
negative,blue,2,None,k,,,,,,,,,0,206,206,206,,,,,,,,,,,,,,,,,,,,,,,,,,,,,,,,,,,,,main,k,k,1,0.7460593000000699,727.4469485999998,None,None,0,,,,,,,,,,,,,,229,24,Male,2022-06-03_13h54.59.335,Main,2022.1.1,59.85131735740555,
negative,yellow,2,k,None,,,,,,,,,0,207,207,207,,,,,,,,,,,,,,,,,,,,,,,,,,,,,,,,,,,,,main,None,None,1,1.5054307000000335,729.1897899999999,None,None,1,,,,,,,,,,,,,,229,24,Male,2022-06-03_13h54.59.335,Main,2022.1.1,59.85131735740555,
positive,yellow,2,None,k,,,,,,,,,0,208,208,208,,,,,,,,,,,,,,,,,,,,,,,,,,,,,,,,,,,,,main,k,k,1,0.8148226000002978,731.6992021000001,None,None,0,,,,,,,,,,,,,,229,24,Male,2022-06-03_13h54.59.335,Main,2022.1.1,59.85131735740555,
negative,yellow,1,k,None,,,,,,,,,0,209,209,209,,,,,,,,,,,,,,,,,,,,,,,,,,,,,,,,,,,,,main,None,None,1,1.4986043999997491,733.5155414999999,None,None,1,,,,,,,,,,,,,,229,24,Male,2022-06-03_13h54.59.335,Main,2022.1.1,59.85131735740555,
negative,red,2,None,None,,,,,,,,,0,210,210,210,,,,,,,,,,,,,,,,,,,,,,,,,,,,,,,,,,,,,main,None,None,1,1.498998400000346,736.0159404000001,None,None,1,,,,,,,,,,,,,,229,24,Male,2022-06-03_13h54.59.335,Main,2022.1.1,59.85131735740555,
negative,blue,1,None,k,,,,,,,,,0,211,211,211,,,,,,,,,,,,,,,,,,,,,,,,,,,,,,,,,,,,,main,k,k,1,0.7281597000001057,738.5166611999998,None,None,0,,,,,,,,,,,,,,229,24,Male,2022-06-03_13h54.59.335,Main,2022.1.1,59.85131735740555,
negative,yellow,1,k,None,,,,,,,,,0,212,212,212,,,,,,,,,,,,,,,,,,,,,,,,,,,,,,,,,,,,,main,None,None,1,1.5006124999999884,740.2499429999998,None,None,1,,,,,,,,,,,,,,229,24,Male,2022-06-03_13h54.59.335,Main,2022.1.1,59.85131735740555,
positive,blue,1,k,None,,,,,,,,,0,213,213,213,,,,,,,,,,,,,,,,,,,,,,,,,,,,,,,,,,,,,main,None,None,1,1.507376199999726,742.7531282999998,None,None,1,,,,,,,,,,,,,,229,24,Male,2022-06-03_13h54.59.335,Main,2022.1.1,59.85131735740555,
positive,blue,1,k,None,,,,,,,,,0,214,214,214,,,,,,,,,,,,,,,,,,,,,,,,,,,,,,,,,,,,,main,None,None,1,1.5020448999998735,745.2614333000001,None,None,1,,,,,,,,,,,,,,229,24,Male,2022-06-03_13h54.59.335,Main,2022.1.1,59.85131735740555,
positive,yellow,1,None,k,,,,,,,,,0,215,215,215,,,,,,,,,,,,,,,,,,,,,,,,,,,,,,,,,,,,,main,k,k,1,0.9383631000000605,747.7636870000001,None,None,0,,,,,,,,,,,,,,229,24,Male,2022-06-03_13h54.59.335,Main,2022.1.1,59.85131735740555,
positive,yellow,1,None,k,,,,,,,,,0,216,216,216,,,,,,,,,,,,,,,,,,,,,,,,,,,,,,,,,,,,,main,k,k,1,0.8174932000001718,749.7063944000001,None,None,0,,,,,,,,,,,,,,229,24,Male,2022-06-03_13h54.59.335,Main,2022.1.1,59.85131735740555,
positive,yellow,2,None,k,,,,,,,,,0,217,217,217,,,,,,,,,,,,,,,,,,,,,,,,,,,,,,,,,,,,,main,k,k,1,1.012653699999646,751.5284000000001,None,None,0,,,,,,,,,,,,,,229,24,Male,2022-06-03_13h54.59.335,Main,2022.1.1,59.85131735740555,
negative,blue,1,None,k,,,,,,,,,0,218,218,218,,,,,,,,,,,,,,,,,,,,,,,,,,,,,,,,,,,,,main,k,k,1,0.7587011999999049,753.5421897000001,None,None,0,,,,,,,,,,,,,,229,24,Male,2022-06-03_13h54.59.335,Main,2022.1.1,59.85131735740555,
positive,red,2,None,None,,,,,,,,,0,219,219,219,,,,,,,,,,,,,,,,,,,,,,,,,,,,,,,,,,,,,main,None,None,1,1.5061713999998574,755.3034311000001,None,None,1,,,,,,,,,,,,,,229,24,Male,2022-06-03_13h54.59.335,Main,2022.1.1,59.85131735740555,
positive,yellow,1,None,k,,,,,,,,,0,220,220,220,,,,,,,,,,,,,,,,,,,,,,,,,,,,,,,,,,,,,main,k,k,1,0.6415176000000429,757.8140417,None,None,0,,,,,,,,,,,,,,229,24,Male,2022-06-03_13h54.59.335,Main,2022.1.1,59.85131735740555,
positive,blue,1,k,None,,,,,,,,,0,221,221,221,,,,,,,,,,,,,,,,,,,,,,,,,,,,,,,,,,,,,main,None,None,1,1.5011265000002822,759.4598553000001,None,None,1,,,,,,,,,,,,,,229,24,Male,2022-06-03_13h54.59.335,Main,2022.1.1,59.85131735740555,
positive,yellow,2,None,k,,,,,,,,,0,222,222,222,,,,,,,,,,,,,,,,,,,,,,,,,,,,,,,,,,,,,main,k,k,1,0.9123402999998689,761.9592278,None,None,0,,,,,,,,,,,,,,229,24,Male,2022-06-03_13h54.59.335,Main,2022.1.1,59.85131735740555,
negative,yellow,1,k,None,,,,,,,,,0,223,223,223,,,,,,,,,,,,,,,,,,,,,,,,,,,,,,,,,,,,,main,None,None,1,1.501277299999856,763.8723694999999,None,None,1,,,,,,,,,,,,,,229,24,Male,2022-06-03_13h54.59.335,Main,2022.1.1,59.85131735740555,
positive,yellow,2,None,k,,,,,,,,,0,224,224,224,,,,,,,,,,,,,,,,,,,,,,,,,,,,,,,,,,,,,main,k,k,1,0.6929136999997354,766.3747917999999,None,None,0,,,,,,,,,,,,,,229,24,Male,2022-06-03_13h54.59.335,Main,2022.1.1,59.85131735740555,
negative,yellow,2,k,None,,,,,,,,,0,225,225,225,,,,,,,,,,,,,,,,,,,,,,,,,,,,,,,,,,,,,main,None,None,1,1.4999211999997897,768.0689772000001,None,None,1,,,,,,,,,,,,,,229,24,Male,2022-06-03_13h54.59.335,Main,2022.1.1,59.85131735740555,
negative,blue,2,None,k,,,,,,,,,0,226,226,226,,,,,,,,,,,,,,,,,,,,,,,,,,,,,,,,,,,,,main,k,k,1,1.0629739999999401,770.5731581,None,None,0,,,,,,,,,,,,,,229,24,Male,2022-06-03_13h54.59.335,Main,2022.1.1,59.85131735740555,
positive,red,2,None,None,,,,,,,,,0,227,227,227,,,,,,,,,,,,,,,,,,,,,,,,,,,,,,,,,,,,,main,None,None,1,1.511987500000032,772.6365738,None,None,1,,,,,,,,,,,,,,229,24,Male,2022-06-03_13h54.59.335,Main,2022.1.1,59.85131735740555,
positive,blue,2,k,None,,,,,,,,,0,228,228,228,,,,,,,,,,,,,,,,,,,,,,,,,,,,,,,,,,,,,main,None,None,1,1.498329300000023,775.1505363000001,None,None,1,,,,,,,,,,,,,,229,24,Male,2022-06-03_13h54.59.335,Main,2022.1.1,59.85131735740555,
negative,blue,1,None,k,,,,,,,,,0,229,229,229,,,,,,,,,,,,,,,,,,,,,,,,,,,,,,,,,,,,,main,k,k,1,0.6364715000004253,777.6533457999999,None,None,0,,,,,,,,,,,,,,229,24,Male,2022-06-03_13h54.59.335,Main,2022.1.1,59.85131735740555,
positive,yellow,1,None,k,,,,,,,,,0,230,230,230,,,,,,,,,,,,,,,,,,,,,,,,,,,,,,,,,,,,,main,k,k,1,0.796650000000227,779.2910097999998,None,None,0,,,,,,,,,,,,,,229,24,Male,2022-06-03_13h54.59.335,Main,2022.1.1,59.85131735740555,
negative,blue,2,None,k,,,,,,,,,0,231,231,231,,,,,,,,,,,,,,,,,,,,,,,,,,,,,,,,,,,,,main,k,k,1,0.7145967000001292,781.0897018999999,None,None,0,,,,,,,,,,,,,,229,24,Male,2022-06-03_13h54.59.335,Main,2022.1.1,59.85131735740555,
negative,red,1,None,None,,,,,,,,,0,232,232,232,,,,,,,,,,,,,,,,,,,,,,,,,,,,,,,,,,,,,main,None,None,1,1.5005008000002817,782.8061118,None,None,1,,,,,,,,,,,,,,229,24,Male,2022-06-03_13h54.59.335,Main,2022.1.1,59.85131735740555,
positive,blue,2,k,None,,,,,,,,,0,233,233,233,,,,,,,,,,,,,,,,,,,,,,,,,,,,,,,,,,,,,main,None,None,1,1.5074064999998882,785.306767,None,None,1,,,,,,,,,,,,,,229,24,Male,2022-06-03_13h54.59.335,Main,2022.1.1,59.85131735740555,
negative,yellow,1,k,None,,,,,,,,,0,234,234,234,,,,,,,,,,,,,,,,,,,,,,,,,,,,,,,,,,,,,main,None,None,1,1.511587700000291,787.8181899000001,None,None,1,,,,,,,,,,,,,,229,24,Male,2022-06-03_13h54.59.335,Main,2022.1.1,59.85131735740555,
negative,yellow,2,k,None,,,,,,,,,0,235,235,235,,,,,,,,,,,,,,,,,,,,,,,,,,,,,,,,,,,,,main,None,None,1,1.5045435000001817,790.3283229999997,None,None,1,,,,,,,,,,,,,,229,24,Male,2022-06-03_13h54.59.335,Main,2022.1.1,59.85131735740555,
positive,red,1,None,None,,,,,,,,,0,236,236,236,,,,,,,,,,,,,,,,,,,,,,,,,,,,,,,,,,,,,main,None,None,1,1.5003078999998252,792.8363089999998,None,None,1,,,,,,,,,,,,,,229,24,Male,2022-06-03_13h54.59.335,Main,2022.1.1,59.85131735740555,
negative,red,2,None,None,,,,,,,,,0,237,237,237,,,,,,,,,,,,,,,,,,,,,,,,,,,,,,,,,,,,,main,None,None,1,1.5039756999999554,795.3397670999998,None,None,1,,,,,,,,,,,,,,229,24,Male,2022-06-03_13h54.59.335,Main,2022.1.1,59.85131735740555,
negative,blue,1,None,k,,,,,,,,,0,238,238,238,,,,,,,,,,,,,,,,,,,,,,,,,,,,,,,,,,,,,main,k,k,1,0.8600907999998526,797.8460353999999,None,None,0,,,,,,,,,,,,,,229,24,Male,2022-06-03_13h54.59.335,Main,2022.1.1,59.85131735740555,
positive,blue,1,k,None,,,,,,,,,0,239,239,239,,,,,,,,,,,,,,,,,,,,,,,,,,,,,,,,,,,,,main,None,None,1,1.5159672999998293,799.7084263000002,None,None,1,,,,,,,,,,,,,,229,24,Male,2022-06-03_13h54.59.335,Main,2022.1.1,59.85131735740555,
,,,,,,,,,,,,,,,,,,,,,,,,,,,,,,,,,,,,,,,,,,,,,,,,,,,,,,,,,,,,,,,,,,,,,,,,,802.2130225999999,None,,,,,,,,
