distractor,target,set,ans1,ans2,rep_loop4.thisRepN,rep_loop4.thisTrialN,rep_loop4.thisN,rep_loop4.thisIndex,st2_prac_loop.thisRepN,st2_prac_loop.thisTrialN,st2_prac_loop.thisN,st2_prac_loop.thisIndex,st2_main_loop.thisRepN,st2_main_loop.thisTrialN,st2_main_loop.thisN,st2_main_loop.thisIndex,image_4.started,image_4.stopped,mouse_7.x,mouse_7.y,mouse_7.leftButton,mouse_7.midButton,mouse_7.rightButton,sound_2.started,sound_2.stopped,key_resp_3.keys,mouse_5.x,mouse_5.y,mouse_5.leftButton,mouse_5.midButton,mouse_5.rightButton,mouse_5.started,mouse_5.stopped,yes_text2.started,yes_text2.stopped,no_text2.started,no_text2.stopped,mouse_3.x,mouse_3.y,mouse_3.leftButton,mouse_3.midButton,mouse_3.rightButton,mouse_3.started,mouse_3.stopped,st_prac_back.started,st_prac_back.stopped,st_prac_text.started,st_prac_text.stopped,st_fix_back.started,st_fix_back.stopped,st_fix_2.started,st_fix_2.stopped,main_prac,st_ans,st_res,st_corr,st_rt,st_back.started,st_back.stopped,st2_resp.keys,st2_resp.corr,st_main_back.started,st_main_back.stopped,st_main_text.started,st_main_text.stopped,mouse_4.x,mouse_4.y,mouse_4.leftButton,mouse_4.midButton,mouse_4.rightButton,mouse_4.started,mouse_4.stopped,text_2.started,text_2.stopped,id*,age*,gender*,date,expName,psychopyVersion,frameRate,
,,,,,,,,,,,,,,,,,33.501225399999385,None,0.21851853,-0.22685185,0,0,0,,,,,,,,,,,,,,,,,,,,,,,,,,,,,,,,,,,,,,,,,,,,,,,,,,,,230,19,Male,2022-06-03_15h54.08.994,Main,2022.1.1,59.97580576010064,
negative,yellow,1,k,None,,,,,0,0,0,0,,,,,,,,,,,,40.20670839999966,None,None,-0.1287037,-0.4611111,0,0,0,1.0024472000004607,None,94.56655180000052,None,94.56655180000052,None,-0.083333336,-0.096296296,0,0,0,0.012421199999153032,None,96.62369330000001,None,96.62369330000001,None,98.63269880000007,None,98.63269880000007,None,prac,k,k,1,2.241660099998626,100.65571079999972,None,None,0,,,,,,,,,,,,,,230,19,Male,2022-06-03_15h54.08.994,Main,2022.1.1,59.97580576010064,
positive,red,2,None,None,,,,,0,1,1,1,,,,,,,,,,,,,,,,,,,,,,,,,,,,,,,,,,,,,,,,,prac,None,None,1,1.4903103999986342,104.92415450000044,None,None,1,,,,,,,,,,,,,,230,19,Male,2022-06-03_15h54.08.994,Main,2022.1.1,59.97580576010064,
negative,blue,2,None,k,,,,,0,2,2,2,,,,,,,,,,,,,,,,,,,,,,,,,,,,,,,,,,,,,,,,,prac,None,None,1,1.5094176000002335,107.41530570000032,None,None,1,,,,,,,,,,,,,,230,19,Male,2022-06-03_15h54.08.994,Main,2022.1.1,59.97580576010064,
positive,yellow,1,None,k,,,,,0,3,3,3,,,,,,,,,,,,,,,,,,,,,,,,,,,,,,,,,,,,,,,,,prac,None,None,1,1.4956242999996903,109.92763319999904,None,None,1,,,,,,,,,,,,,,230,19,Male,2022-06-03_15h54.08.994,Main,2022.1.1,59.97580576010064,
negative,blue,2,None,k,,,,,0,4,4,4,,,,,,,,,,,,,,,,,,,,,,,,,,,,,,,,,,,,,,,,,prac,None,None,1,1.5005418000000645,112.42240739999943,None,None,1,,,,,,,,,,,,,,230,19,Male,2022-06-03_15h54.08.994,Main,2022.1.1,59.97580576010064,
negative,blue,1,None,k,,,,,0,5,5,5,,,,,,,,,,,,,,,,,,,,,,,,,,,,,,,,,,,,,,,,,prac,None,None,1,1.510210600001301,114.92027980000057,None,None,1,,,,,,,,,,,,,,230,19,Male,2022-06-03_15h54.08.994,Main,2022.1.1,59.97580576010064,
negative,yellow,2,k,None,,,,,0,6,6,6,,,,,,,,,,,,,,,,,,,,,,,,,,,,,,,,,,,,,,,,,prac,k,k,1,0.9544523000004119,117.42926729999999,None,None,0,,,,,,,,,,,,,,230,19,Male,2022-06-03_15h54.08.994,Main,2022.1.1,59.97580576010064,
negative,red,1,None,None,,,,,0,7,7,7,,,,,,,,,,,,,,,,,,,,,,,,,,,,,,,,,,,,,,,,,prac,None,None,1,1.5108916000008321,119.39372279999952,None,None,1,,,,,,,,,,,,,,230,19,Male,2022-06-03_15h54.08.994,Main,2022.1.1,59.97580576010064,
positive,yellow,2,None,k,,,,,0,8,8,8,,,,,,,,,,,,,,,,,,,,,,,,,,,,,,,,,,,,,,,,,prac,None,None,1,1.5006935999990674,121.90480299999945,None,None,1,,,,,,,,,,,,,,230,19,Male,2022-06-03_15h54.08.994,Main,2022.1.1,59.97580576010064,
negative,yellow,1,k,None,,,,,0,9,9,9,,,,,,,,,,,,,,,,,,,,,,,,,,,,,,,,,,,,,,,,,prac,k,k,1,1.1934822000002896,124.4019900000003,None,None,0,,,,,,,,,,,,,,230,19,Male,2022-06-03_15h54.08.994,Main,2022.1.1,59.97580576010064,
positive,yellow,2,None,k,,,,,0,10,10,10,,,,,,,,,,,,,,,,,,,,,,,,,,,,,,,,,,,,,,,,,prac,None,None,1,1.504033499999423,126.59758390000025,None,None,1,,,,,,,,,,,,,,230,19,Male,2022-06-03_15h54.08.994,Main,2022.1.1,59.97580576010064,
negative,yellow,2,k,None,,,,,0,11,11,11,,,,,,,,,,,,,,,,,,,,,,,,,,,,,,,,,,,,,,,,,prac,k,k,1,0.8605072000009386,129.10496989999956,None,None,0,,,,,,,,,,,,,,230,19,Male,2022-06-03_15h54.08.994,Main,2022.1.1,59.97580576010064,
negative,red,2,None,None,,,,,0,12,12,12,,,,,,,,,,,,,,,,,,,,,,,,,,,,,,,,,,,,,,,,,prac,None,None,1,1.5130437999996502,130.96456340000077,None,None,1,,,,,,,,,,,,,,230,19,Male,2022-06-03_15h54.08.994,Main,2022.1.1,59.97580576010064,
positive,red,1,None,None,,,,,0,13,13,13,,,,,,,,,,,,,,,,,,,,,,,,,,,,,,,,,,,,,,,,,prac,None,None,1,1.4936526000001322,133.48772889999964,None,None,1,,,,,,,,,,,,,,230,19,Male,2022-06-03_15h54.08.994,Main,2022.1.1,59.97580576010064,
positive,blue,2,k,None,,,,,0,14,14,14,,,,,,,,,,,,,,,,,,,,,,,,,,,,,,,,,,,,,,,,,prac,k,k,1,0.7506399000012607,135.97616209999978,None,None,0,,,,,,,,,,,,,,230,19,Male,2022-06-03_15h54.08.994,Main,2022.1.1,59.97580576010064,
positive,blue,1,k,None,,,,,0,15,15,15,,,,,,,,,,,,,,,,,,,,,,,,,,,,,,,,,,,,,,,,,prac,k,k,1,0.7757536999997683,137.73124110000026,None,None,0,,,,,,,,,,,,,,230,19,Male,2022-06-03_15h54.08.994,Main,2022.1.1,59.97580576010064,
negative,blue,1,None,k,,,,,0,16,16,16,,,,,,,,,,,,,,,,,,,,,,,,,,,,,,,,,,,,,,,,,prac,None,None,1,1.499234000000797,139.5068986999995,None,None,1,,,,,,,,,,,,,,230,19,Male,2022-06-03_15h54.08.994,Main,2022.1.1,59.97580576010064,
positive,blue,2,k,None,,,,,0,17,17,17,,,,,,,,,,,,,,,,,,,,,,,,,,,,,,,,,,,,,,,,,prac,k,k,1,1.1016421000003902,142.0087650000005,None,None,0,,,,,,,,,,,,,,230,19,Male,2022-06-03_15h54.08.994,Main,2022.1.1,59.97580576010064,
positive,blue,1,k,None,,,,,0,18,18,18,,,,,,,,,,,,,,,,,,,,,,,,,,,,,,,,,,,,,,,,,prac,k,k,1,0.9232307999991463,144.11417280000023,None,None,0,,,,,,,,,,,,,,230,19,Male,2022-06-03_15h54.08.994,Main,2022.1.1,59.97580576010064,
positive,yellow,1,None,k,,,,,0,19,19,19,,,,,,,,,,,,,,,,,,,,,,,,,,,,,,,,,,,,,,,,,prac,None,None,1,1.5028782000008505,146.0380710999998,None,None,1,,,,,,,,,,,,,,230,19,Male,2022-06-03_15h54.08.994,Main,2022.1.1,59.97580576010064,
negative,yellow,1,k,None,,,,,1,0,20,0,,,,,,,,,,,,,,,,,,,,,,,,,,,,,,,,,,,,,,,,,prac,k,k,1,0.8056051999992633,148.54155770000034,None,None,0,,,,,,,,,,,,,,230,19,Male,2022-06-03_15h54.08.994,Main,2022.1.1,59.97580576010064,
positive,red,2,None,None,,,,,1,1,21,1,,,,,,,,,,,,,,,,,,,,,,,,,,,,,,,,,,,,,,,,,prac,None,None,1,1.5031686000002082,150.35158079999928,None,None,1,,,,,,,,,,,,,,230,19,Male,2022-06-03_15h54.08.994,Main,2022.1.1,59.97580576010064,
negative,blue,2,None,k,,,,,1,2,22,2,,,,,,,,,,,,,,,,,,,,,,,,,,,,,,,,,,,,,,,,,prac,None,None,1,1.5092581999997492,152.854564199999,None,None,1,,,,,,,,,,,,,,230,19,Male,2022-06-03_15h54.08.994,Main,2022.1.1,59.97580576010064,
positive,yellow,1,None,k,,,,,1,3,23,3,,,,,,,,,,,,,,,,,,,,,,,,,,,,,,,,,,,,,,,,,prac,None,None,1,1.5096115999986068,155.3661381999991,None,None,1,,,,,,,,,,,,,,230,19,Male,2022-06-03_15h54.08.994,Main,2022.1.1,59.97580576010064,
negative,blue,2,None,k,,,,,1,4,24,4,,,,,,,,,,,,,,,,,,,,,,,,,,,,,,,,,,,,,,,,,prac,None,None,1,1.4998557999988407,157.87537730000076,None,None,1,,,,,,,,,,,,,,230,19,Male,2022-06-03_15h54.08.994,Main,2022.1.1,59.97580576010064,
negative,blue,1,None,k,,,,,1,5,25,5,,,,,,,,,,,,,,,,,,,,,,,,,,,,,,,,,,,,,,,,,prac,None,None,1,1.4974951000003784,160.37656699999934,None,None,1,,,,,,,,,,,,,,230,19,Male,2022-06-03_15h54.08.994,Main,2022.1.1,59.97580576010064,
negative,yellow,2,k,None,,,,,1,6,26,6,,,,,,,,,,,,,,,,,,,,,,,,,,,,,,,,,,,,,,,,,prac,k,k,1,0.940441999999166,162.87667429999965,None,None,0,,,,,,,,,,,,,,230,19,Male,2022-06-03_15h54.08.994,Main,2022.1.1,59.97580576010064,
negative,red,1,None,None,,,,,1,7,27,7,,,,,,,,,,,,,,,,,,,,,,,,,,,,,,,,,,,,,,,,,prac,None,None,1,1.4954508999999234,164.8212382999991,None,None,1,,,,,,,,,,,,,,230,19,Male,2022-06-03_15h54.08.994,Main,2022.1.1,59.97580576010064,
positive,yellow,2,None,k,,,,,1,8,28,8,,,,,,,,,,,,,,,,,,,,,,,,,,,,,,,,,,,,,,,,,prac,None,None,1,1.5060503000004246,167.3166784999994,None,None,1,,,,,,,,,,,,,,230,19,Male,2022-06-03_15h54.08.994,Main,2022.1.1,59.97580576010064,
negative,yellow,1,k,None,,,,,1,9,29,9,,,,,,,,,,,,,,,,,,,,,,,,,,,,,,,,,,,,,,,,,prac,k,k,1,1.1027192999990802,169.82471070000065,None,None,0,,,,,,,,,,,,,,230,19,Male,2022-06-03_15h54.08.994,Main,2022.1.1,59.97580576010064,
positive,yellow,2,None,k,,,,,1,10,30,10,,,,,,,,,,,,,,,,,,,,,,,,,,,,,,,,,,,,,,,,,prac,None,None,1,1.5009934000008798,171.930953699999,None,None,1,,,,,,,,,,,,,,230,19,Male,2022-06-03_15h54.08.994,Main,2022.1.1,59.97580576010064,
negative,yellow,2,k,None,,,,,1,11,31,11,,,,,,,,,,,,,,,,,,,,,,,,,,,,,,,,,,,,,,,,,prac,k,k,1,1.0420651999993424,174.43296089999967,None,None,0,,,,,,,,,,,,,,230,19,Male,2022-06-03_15h54.08.994,Main,2022.1.1,59.97580576010064,
negative,red,2,None,None,,,,,1,12,32,12,,,,,,,,,,,,,,,,,,,,,,,,,,,,,,,,,,,,,,,,,prac,None,None,1,1.5068799999990006,176.4766299999992,None,None,1,,,,,,,,,,,,,,230,19,Male,2022-06-03_15h54.08.994,Main,2022.1.1,59.97580576010064,
positive,red,1,None,None,,,,,1,13,33,13,,,,,,,,,,,,,,,,,,,,,,,,,,,,,,,,,,,,,,,,,prac,None,None,1,1.4967328000002453,178.9847977999998,None,None,1,,,,,,,,,,,,,,230,19,Male,2022-06-03_15h54.08.994,Main,2022.1.1,59.97580576010064,
positive,blue,2,k,None,,,,,1,14,34,14,,,,,,,,,,,,,,,,,,,,,,,,,,,,,,,,,,,,,,,,,prac,k,k,1,0.7436963000000105,181.48304540000026,None,None,0,,,,,,,,,,,,,,230,19,Male,2022-06-03_15h54.08.994,Main,2022.1.1,59.97580576010064,
positive,blue,1,k,None,,,,,1,15,35,15,,,,,,,,,,,,,,,,,,,,,,,,,,,,,,,,,,,,,,,,,prac,k,k,1,0.843407100001059,183.22924450000028,None,None,0,,,,,,,,,,,,,,230,19,Male,2022-06-03_15h54.08.994,Main,2022.1.1,59.97580576010064,
negative,blue,1,None,k,,,,,1,16,36,16,,,,,,,,,,,,,,,,,,,,,,,,,,,,,,,,,,,,,,,,,prac,None,None,1,1.4985885999994935,185.07124699999986,None,None,1,,,,,,,,,,,,,,230,19,Male,2022-06-03_15h54.08.994,Main,2022.1.1,59.97580576010064,
positive,blue,2,k,None,,,,,1,17,37,17,,,,,,,,,,,,,,,,,,,,,,,,,,,,,,,,,,,,,,,,,prac,k,k,1,0.7039408000000549,187.57332759999917,None,None,0,,,,,,,,,,,,,,230,19,Male,2022-06-03_15h54.08.994,Main,2022.1.1,59.97580576010064,
positive,blue,1,k,None,,,,,1,18,38,18,,,,,,,,,,,,,,,,,,,,,,,,,,,,,,,,,,,,,,,,,prac,k,k,1,0.732137099999818,189.28008520000003,None,None,0,,,,,,,,,,,,,,230,19,Male,2022-06-03_15h54.08.994,Main,2022.1.1,59.97580576010064,
positive,yellow,1,None,k,,,,,1,19,39,19,,,,,,,,,,,,,,,,,,,,,,,,,,,,,,,,,,,,,,,,,prac,None,None,1,1.5049866000008478,191.0128607000006,None,None,1,,,,,,,,,,,,,,230,19,Male,2022-06-03_15h54.08.994,Main,2022.1.1,59.97580576010064,
,,,,,,,,,,,,,,,,,,,,,,,,,,,,,,,,,,,,,,,,,,,,,,,,,,,,,,,,,,,,,,193.53401060000033,None,193.53401060000033,None,0.09166667,0.019444445,0,0,0,0.010428599998704158,None,,,230,19,Male,2022-06-03_15h54.08.994,Main,2022.1.1,59.97580576010064,
negative,yellow,2,k,None,,,,,,,,,0,0,0,0,,,,,,,,,,,,,,,,,,,,,,,,,,,,,,,,,194.821527099999,None,194.821527099999,None,main,k,k,1,0.6811220999989018,196.90609159999985,None,None,0,,,,,,,,,,,,,,230,19,Male,2022-06-03_15h54.08.994,Main,2022.1.1,59.97580576010064,
positive,red,1,None,None,,,,,,,,,0,1,1,1,,,,,,,,,,,,,,,,,,,,,,,,,,,,,,,,,,,,,main,None,None,1,1.5115541999984998,198.58894709999913,None,None,1,,,,,,,,,,,,,,230,19,Male,2022-06-03_15h54.08.994,Main,2022.1.1,59.97580576010064,
positive,blue,2,k,None,,,,,,,,,0,2,2,2,,,,,,,,,,,,,,,,,,,,,,,,,,,,,,,,,,,,,main,k,k,1,0.7839968000007502,201.1019827,None,None,0,,,,,,,,,,,,,,230,19,Male,2022-06-03_15h54.08.994,Main,2022.1.1,59.97580576010064,
positive,blue,1,k,None,,,,,,,,,0,3,3,3,,,,,,,,,,,,,,,,,,,,,,,,,,,,,,,,,,,,,main,k,k,1,0.6875880999996298,202.88989960000072,None,None,0,,,,,,,,,,,,,,230,19,Male,2022-06-03_15h54.08.994,Main,2022.1.1,59.97580576010064,
negative,yellow,2,k,None,,,,,,,,,0,4,4,4,,,,,,,,,,,,,,,,,,,,,,,,,,,,,,,,,,,,,main,k,k,1,1.0119370000011259,204.57932059999985,None,None,0,,,,,,,,,,,,,,230,19,Male,2022-06-03_15h54.08.994,Main,2022.1.1,59.97580576010064,
positive,yellow,2,None,k,,,,,,,,,0,5,5,5,,,,,,,,,,,,,,,,,,,,,,,,,,,,,,,,,,,,,main,None,None,1,1.508130700000038,206.5937242,None,None,1,,,,,,,,,,,,,,230,19,Male,2022-06-03_15h54.08.994,Main,2022.1.1,59.97580576010064,
negative,blue,2,None,k,,,,,,,,,0,6,6,6,,,,,,,,,,,,,,,,,,,,,,,,,,,,,,,,,,,,,main,None,None,1,1.5005999000004522,209.10062020000078,None,None,1,,,,,,,,,,,,,,230,19,Male,2022-06-03_15h54.08.994,Main,2022.1.1,59.97580576010064,
positive,red,2,None,None,,,,,,,,,0,7,7,7,,,,,,,,,,,,,,,,,,,,,,,,,,,,,,,,,,,,,main,None,None,1,1.4974427000015567,211.60251140000037,None,None,1,,,,,,,,,,,,,,230,19,Male,2022-06-03_15h54.08.994,Main,2022.1.1,59.97580576010064,
positive,yellow,1,None,k,,,,,,,,,0,8,8,8,,,,,,,,,,,,,,,,,,,,,,,,,,,,,,,,,,,,,main,None,None,1,1.5110728999989078,214.10152050000033,None,None,1,,,,,,,,,,,,,,230,19,Male,2022-06-03_15h54.08.994,Main,2022.1.1,59.97580576010064,
negative,red,1,None,None,,,,,,,,,0,9,9,9,,,,,,,,,,,,,,,,,,,,,,,,,,,,,,,,,,,,,main,None,None,1,1.511457700000392,216.61588119999942,None,None,1,,,,,,,,,,,,,,230,19,Male,2022-06-03_15h54.08.994,Main,2022.1.1,59.97580576010064,
positive,yellow,1,None,k,,,,,,,,,0,10,10,10,,,,,,,,,,,,,,,,,,,,,,,,,,,,,,,,,,,,,main,None,k,0,0.8847482999990461,219.1316341999991,None,None,1,,,,,,,,,,,,,,230,19,Male,2022-06-03_15h54.08.994,Main,2022.1.1,59.97580576010064,
negative,yellow,1,k,None,,,,,,,,,0,11,11,11,,,,,,,,,,,,,,,,,,,,,,,,,,,,,,,,,,,,,main,k,k,1,1.0510311999987607,222.0359797000001,None,None,0,,,,,,,,,,,,,,230,19,Male,2022-06-03_15h54.08.994,Main,2022.1.1,59.97580576010064,
negative,yellow,1,k,None,,,,,,,,,0,12,12,12,,,,,,,,,,,,,,,,,,,,,,,,,,,,,,,,,,,,,main,k,k,1,0.8229308999998466,224.09020659999987,None,None,0,,,,,,,,,,,,,,230,19,Male,2022-06-03_15h54.08.994,Main,2022.1.1,59.97580576010064,
negative,red,2,None,None,,,,,,,,,0,13,13,13,,,,,,,,,,,,,,,,,,,,,,,,,,,,,,,,,,,,,main,None,None,1,1.5039561000012327,225.91284409999935,None,None,1,,,,,,,,,,,,,,230,19,Male,2022-06-03_15h54.08.994,Main,2022.1.1,59.97580576010064,
positive,yellow,2,None,k,,,,,,,,,0,14,14,14,,,,,,,,,,,,,,,,,,,,,,,,,,,,,,,,,,,,,main,None,None,1,1.508280799998829,228.4180962999999,None,None,1,,,,,,,,,,,,,,230,19,Male,2022-06-03_15h54.08.994,Main,2022.1.1,59.97580576010064,
positive,blue,1,k,None,,,,,,,,,0,15,15,15,,,,,,,,,,,,,,,,,,,,,,,,,,,,,,,,,,,,,main,k,k,1,0.9087823000008939,230.92873999999938,None,None,0,,,,,,,,,,,,,,230,19,Male,2022-06-03_15h54.08.994,Main,2022.1.1,59.97580576010064,
negative,blue,1,None,k,,,,,,,,,0,16,16,16,,,,,,,,,,,,,,,,,,,,,,,,,,,,,,,,,,,,,main,None,None,1,1.503023299999768,232.8399972999996,None,None,1,,,,,,,,,,,,,,230,19,Male,2022-06-03_15h54.08.994,Main,2022.1.1,59.97580576010064,
positive,blue,2,k,None,,,,,,,,,0,17,17,17,,,,,,,,,,,,,,,,,,,,,,,,,,,,,,,,,,,,,main,k,k,1,0.7281815000005736,235.34360349999952,None,None,0,,,,,,,,,,,,,,230,19,Male,2022-06-03_15h54.08.994,Main,2022.1.1,59.97580576010064,
negative,blue,2,None,k,,,,,,,,,0,18,18,18,,,,,,,,,,,,,,,,,,,,,,,,,,,,,,,,,,,,,main,None,None,1,1.5093467999995482,237.0750877999999,None,None,1,,,,,,,,,,,,,,230,19,Male,2022-06-03_15h54.08.994,Main,2022.1.1,59.97580576010064,
negative,blue,1,None,k,,,,,,,,,0,19,19,19,,,,,,,,,,,,,,,,,,,,,,,,,,,,,,,,,,,,,main,None,None,1,1.4968601999989914,239.5832606999993,None,None,1,,,,,,,,,,,,,,230,19,Male,2022-06-03_15h54.08.994,Main,2022.1.1,59.97580576010064,
negative,blue,1,None,k,,,,,,,,,0,20,20,20,,,,,,,,,,,,,,,,,,,,,,,,,,,,,,,,,,,,,main,None,None,1,1.4990332999987004,242.08367429999998,None,None,1,,,,,,,,,,,,,,230,19,Male,2022-06-03_15h54.08.994,Main,2022.1.1,59.97580576010064,
negative,blue,2,None,k,,,,,,,,,0,21,21,21,,,,,,,,,,,,,,,,,,,,,,,,,,,,,,,,,,,,,main,None,None,1,1.5042841999984375,244.58220769999934,None,None,1,,,,,,,,,,,,,,230,19,Male,2022-06-03_15h54.08.994,Main,2022.1.1,59.97580576010064,
negative,red,1,None,None,,,,,,,,,0,22,22,22,,,,,,,,,,,,,,,,,,,,,,,,,,,,,,,,,,,,,main,None,None,1,1.511119900000267,247.09029630000077,None,None,1,,,,,,,,,,,,,,230,19,Male,2022-06-03_15h54.08.994,Main,2022.1.1,59.97580576010064,
positive,red,2,None,None,,,,,,,,,0,23,23,23,,,,,,,,,,,,,,,,,,,,,,,,,,,,,,,,,,,,,main,None,None,1,1.5029138999998395,249.60223039999983,None,None,1,,,,,,,,,,,,,,230,19,Male,2022-06-03_15h54.08.994,Main,2022.1.1,59.97580576010064,
negative,red,2,None,None,,,,,,,,,0,24,24,24,,,,,,,,,,,,,,,,,,,,,,,,,,,,,,,,,,,,,main,None,None,1,1.5026791999989655,252.10645339999974,None,None,1,,,,,,,,,,,,,,230,19,Male,2022-06-03_15h54.08.994,Main,2022.1.1,59.97580576010064,
positive,blue,2,k,None,,,,,,,,,0,25,25,25,,,,,,,,,,,,,,,,,,,,,,,,,,,,,,,,,,,,,main,k,k,1,0.8002804999996442,254.61092400000052,None,None,0,,,,,,,,,,,,,,230,19,Male,2022-06-03_15h54.08.994,Main,2022.1.1,59.97580576010064,
negative,yellow,1,k,None,,,,,,,,,0,26,26,26,,,,,,,,,,,,,,,,,,,,,,,,,,,,,,,,,,,,,main,k,k,1,0.7522179000006872,256.4126594999998,None,None,0,,,,,,,,,,,,,,230,19,Male,2022-06-03_15h54.08.994,Main,2022.1.1,59.97580576010064,
positive,blue,2,k,None,,,,,,,,,0,27,27,27,,,,,,,,,,,,,,,,,,,,,,,,,,,,,,,,,,,,,main,k,k,1,0.7489784999997937,258.1680376000004,None,None,0,,,,,,,,,,,,,,230,19,Male,2022-06-03_15h54.08.994,Main,2022.1.1,59.97580576010064,
negative,blue,2,None,k,,,,,,,,,0,28,28,28,,,,,,,,,,,,,,,,,,,,,,,,,,,,,,,,,,,,,main,None,None,1,1.5002948000001197,259.91834629999903,None,None,1,,,,,,,,,,,,,,230,19,Male,2022-06-03_15h54.08.994,Main,2022.1.1,59.97580576010064,
positive,red,1,None,None,,,,,,,,,0,29,29,29,,,,,,,,,,,,,,,,,,,,,,,,,,,,,,,,,,,,,main,None,None,1,1.4975534999994125,262.4207174000003,None,None,1,,,,,,,,,,,,,,230,19,Male,2022-06-03_15h54.08.994,Main,2022.1.1,59.97580576010064,
positive,blue,1,k,None,,,,,,,,,0,30,30,30,,,,,,,,,,,,,,,,,,,,,,,,,,,,,,,,,,,,,main,k,k,1,0.878453500001342,264.92018409999946,None,None,0,,,,,,,,,,,,,,230,19,Male,2022-06-03_15h54.08.994,Main,2022.1.1,59.97580576010064,
positive,yellow,1,None,k,,,,,,,,,0,31,31,31,,,,,,,,,,,,,,,,,,,,,,,,,,,,,,,,,,,,,main,None,None,1,1.5066599000001588,266.8018606000005,None,None,1,,,,,,,,,,,,,,230,19,Male,2022-06-03_15h54.08.994,Main,2022.1.1,59.97580576010064,
negative,yellow,2,k,None,,,,,,,,,0,32,32,32,,,,,,,,,,,,,,,,,,,,,,,,,,,,,,,,,,,,,main,k,k,1,0.902761900000769,269.30678420000004,None,None,0,,,,,,,,,,,,,,230,19,Male,2022-06-03_15h54.08.994,Main,2022.1.1,59.97580576010064,
negative,blue,1,None,k,,,,,,,,,0,33,33,33,,,,,,,,,,,,,,,,,,,,,,,,,,,,,,,,,,,,,main,None,None,1,1.5008281999998871,271.2100828999992,None,None,1,,,,,,,,,,,,,,230,19,Male,2022-06-03_15h54.08.994,Main,2022.1.1,59.97580576010064,
positive,blue,1,k,None,,,,,,,,,0,34,34,34,,,,,,,,,,,,,,,,,,,,,,,,,,,,,,,,,,,,,main,k,k,1,0.8607352000017272,273.7140672000005,None,None,0,,,,,,,,,,,,,,230,19,Male,2022-06-03_15h54.08.994,Main,2022.1.1,59.97580576010064,
negative,yellow,1,k,None,,,,,,,,,0,35,35,35,,,,,,,,,,,,,,,,,,,,,,,,,,,,,,,,,,,,,main,k,k,1,0.9892449999988457,275.57514269999956,None,None,0,,,,,,,,,,,,,,230,19,Male,2022-06-03_15h54.08.994,Main,2022.1.1,59.97580576010064,
positive,yellow,2,None,k,,,,,,,,,0,36,36,36,,,,,,,,,,,,,,,,,,,,,,,,,,,,,,,,,,,,,main,None,None,1,1.5102876000000833,277.5686946000005,None,None,1,,,,,,,,,,,,,,230,19,Male,2022-06-03_15h54.08.994,Main,2022.1.1,59.97580576010064,
positive,yellow,2,None,k,,,,,,,,,0,37,37,37,,,,,,,,,,,,,,,,,,,,,,,,,,,,,,,,,,,,,main,None,None,1,1.510624699998516,280.0783737999991,None,None,1,,,,,,,,,,,,,,230,19,Male,2022-06-03_15h54.08.994,Main,2022.1.1,59.97580576010064,
negative,yellow,2,k,None,,,,,,,,,0,38,38,38,,,,,,,,,,,,,,,,,,,,,,,,,,,,,,,,,,,,,main,k,k,1,0.8500981999986834,282.59095890000026,None,None,0,,,,,,,,,,,,,,230,19,Male,2022-06-03_15h54.08.994,Main,2022.1.1,59.97580576010064,
positive,yellow,1,None,k,,,,,,,,,0,39,39,39,,,,,,,,,,,,,,,,,,,,,,,,,,,,,,,,,,,,,main,None,None,1,1.5013441999999486,284.4433747999992,None,None,1,,,,,,,,,,,,,,230,19,Male,2022-06-03_15h54.08.994,Main,2022.1.1,59.97580576010064,
negative,yellow,2,k,None,,,,,,,,,0,40,40,40,,,,,,,,,,,,,,,,,,,,,,,,,,,,,,,,,,,,,main,k,k,1,0.8350864999993064,286.94744209999953,None,None,0,,,,,,,,,,,,,,230,19,Male,2022-06-03_15h54.08.994,Main,2022.1.1,59.97580576010064,
positive,blue,2,k,None,,,,,,,,,0,41,41,41,,,,,,,,,,,,,,,,,,,,,,,,,,,,,,,,,,,,,main,k,k,1,1.0180752000014763,288.7844495999998,None,None,0,,,,,,,,,,,,,,230,19,Male,2022-06-03_15h54.08.994,Main,2022.1.1,59.97580576010064,
positive,blue,2,k,None,,,,,,,,,0,42,42,42,,,,,,,,,,,,,,,,,,,,,,,,,,,,,,,,,,,,,main,k,k,1,0.8819380000004458,290.80431959999987,None,None,0,,,,,,,,,,,,,,230,19,Male,2022-06-03_15h54.08.994,Main,2022.1.1,59.97580576010064,
negative,blue,2,None,k,,,,,,,,,0,43,43,43,,,,,,,,,,,,,,,,,,,,,,,,,,,,,,,,,,,,,main,None,None,1,1.4997926999985793,292.6876745999998,None,None,1,,,,,,,,,,,,,,230,19,Male,2022-06-03_15h54.08.994,Main,2022.1.1,59.97580576010064,
negative,red,1,None,None,,,,,,,,,0,44,44,44,,,,,,,,,,,,,,,,,,,,,,,,,,,,,,,,,,,,,main,None,None,1,1.509291000000303,295.1898148,None,None,1,,,,,,,,,,,,,,230,19,Male,2022-06-03_15h54.08.994,Main,2022.1.1,59.97580576010064,
negative,yellow,1,k,None,,,,,,,,,0,45,45,45,,,,,,,,,,,,,,,,,,,,,,,,,,,,,,,,,,,,,main,k,k,1,0.7994940999997198,297.7019344,None,None,0,,,,,,,,,,,,,,230,19,Male,2022-06-03_15h54.08.994,Main,2022.1.1,59.97580576010064,
negative,yellow,1,k,None,,,,,,,,,0,46,46,46,,,,,,,,,,,,,,,,,,,,,,,,,,,,,,,,,,,,,main,k,k,1,0.8226923000001989,299.50308679999944,None,None,0,,,,,,,,,,,,,,230,19,Male,2022-06-03_15h54.08.994,Main,2022.1.1,59.97580576010064,
positive,red,1,None,None,,,,,,,,,0,47,47,47,,,,,,,,,,,,,,,,,,,,,,,,,,,,,,,,,,,,,main,None,None,1,1.506817299999966,301.3280494999999,None,None,1,,,,,,,,,,,,,,230,19,Male,2022-06-03_15h54.08.994,Main,2022.1.1,59.97580576010064,
positive,yellow,1,None,k,,,,,,,,,0,48,48,48,,,,,,,,,,,,,,,,,,,,,,,,,,,,,,,,,,,,,main,None,None,1,1.5033700000003591,303.83656320000046,None,None,1,,,,,,,,,,,,,,230,19,Male,2022-06-03_15h54.08.994,Main,2022.1.1,59.97580576010064,
negative,blue,1,None,k,,,,,,,,,0,49,49,49,,,,,,,,,,,,,,,,,,,,,,,,,,,,,,,,,,,,,main,None,None,1,1.508120599999529,306.33825380000053,None,None,1,,,,,,,,,,,,,,230,19,Male,2022-06-03_15h54.08.994,Main,2022.1.1,59.97580576010064,
positive,yellow,2,None,k,,,,,,,,,0,50,50,50,,,,,,,,,,,,,,,,,,,,,,,,,,,,,,,,,,,,,main,None,None,1,1.4957116000005044,308.8501245000007,None,None,1,,,,,,,,,,,,,,230,19,Male,2022-06-03_15h54.08.994,Main,2022.1.1,59.97580576010064,
negative,blue,1,None,k,,,,,,,,,0,51,51,51,,,,,,,,,,,,,,,,,,,,,,,,,,,,,,,,,,,,,main,None,None,1,1.4964662000002136,311.3475966999995,None,None,1,,,,,,,,,,,,,,230,19,Male,2022-06-03_15h54.08.994,Main,2022.1.1,59.97580576010064,
positive,red,2,None,None,,,,,,,,,0,52,52,52,,,,,,,,,,,,,,,,,,,,,,,,,,,,,,,,,,,,,main,None,None,1,1.5034050999984174,313.8465952000006,None,None,1,,,,,,,,,,,,,,230,19,Male,2022-06-03_15h54.08.994,Main,2022.1.1,59.97580576010064,
positive,yellow,2,None,k,,,,,,,,,0,53,53,53,,,,,,,,,,,,,,,,,,,,,,,,,,,,,,,,,,,,,main,None,None,1,1.5000232000002143,316.35145399999965,None,None,1,,,,,,,,,,,,,,230,19,Male,2022-06-03_15h54.08.994,Main,2022.1.1,59.97580576010064,
negative,red,2,None,None,,,,,,,,,0,54,54,54,,,,,,,,,,,,,,,,,,,,,,,,,,,,,,,,,,,,,main,None,None,1,1.4959161000006134,318.8526304999996,None,None,1,,,,,,,,,,,,,,230,19,Male,2022-06-03_15h54.08.994,Main,2022.1.1,59.97580576010064,
positive,yellow,1,None,k,,,,,,,,,0,55,55,55,,,,,,,,,,,,,,,,,,,,,,,,,,,,,,,,,,,,,main,None,None,1,1.5038227000004554,321.35125320000043,None,None,1,,,,,,,,,,,,,,230,19,Male,2022-06-03_15h54.08.994,Main,2022.1.1,59.97580576010064,
negative,blue,2,None,k,,,,,,,,,0,56,56,56,,,,,,,,,,,,,,,,,,,,,,,,,,,,,,,,,,,,,main,None,None,1,1.5068478000011964,323.8585308999991,None,None,1,,,,,,,,,,,,,,230,19,Male,2022-06-03_15h54.08.994,Main,2022.1.1,59.97580576010064,
positive,blue,1,k,None,,,,,,,,,0,57,57,57,,,,,,,,,,,,,,,,,,,,,,,,,,,,,,,,,,,,,main,k,k,1,0.7382628000013938,326.36826689999907,None,None,0,,,,,,,,,,,,,,230,19,Male,2022-06-03_15h54.08.994,Main,2022.1.1,59.97580576010064,
positive,blue,1,k,None,,,,,,,,,0,58,58,58,,,,,,,,,,,,,,,,,,,,,,,,,,,,,,,,,,,,,main,k,k,1,0.8067149000016798,328.1057538999994,None,None,0,,,,,,,,,,,,,,230,19,Male,2022-06-03_15h54.08.994,Main,2022.1.1,59.97580576010064,
negative,yellow,2,k,None,,,,,,,,,0,59,59,59,,,,,,,,,,,,,,,,,,,,,,,,,,,,,,,,,,,,,main,k,k,1,0.7624663999995391,329.91617399999996,None,None,0,,,,,,,,,,,,,,230,19,Male,2022-06-03_15h54.08.994,Main,2022.1.1,59.97580576010064,
positive,red,2,None,None,,,,,,,,,0,60,60,60,,,,,,,,,,,,,,,,,,,,,,,,,,,,,,,,,,,,,main,None,None,1,1.510014899999078,331.680918,None,None,1,,,,,,,,,,,,,,230,19,Male,2022-06-03_15h54.08.994,Main,2022.1.1,59.97580576010064,
negative,yellow,1,k,None,,,,,,,,,0,61,61,61,,,,,,,,,,,,,,,,,,,,,,,,,,,,,,,,,,,,,main,k,k,1,0.9733942999991996,334.1944464999997,None,None,0,,,,,,,,,,,,,,230,19,Male,2022-06-03_15h54.08.994,Main,2022.1.1,59.97580576010064,
negative,red,1,None,None,,,,,,,,,0,62,62,62,,,,,,,,,,,,,,,,,,,,,,,,,,,,,,,,,,,,,main,None,None,1,1.5180175000004965,336.1732419,None,None,1,,,,,,,,,,,,,,230,19,Male,2022-06-03_15h54.08.994,Main,2022.1.1,59.97580576010064,
negative,blue,1,None,k,,,,,,,,,0,63,63,63,,,,,,,,,,,,,,,,,,,,,,,,,,,,,,,,,,,,,main,None,None,1,1.5073050999999396,338.6895141999994,None,None,1,,,,,,,,,,,,,,230,19,Male,2022-06-03_15h54.08.994,Main,2022.1.1,59.97580576010064,
positive,blue,2,k,None,,,,,,,,,0,64,64,64,,,,,,,,,,,,,,,,,,,,,,,,,,,,,,,,,,,,,main,k,k,1,0.7075139999997191,341.2016034999997,None,None,0,,,,,,,,,,,,,,230,19,Male,2022-06-03_15h54.08.994,Main,2022.1.1,59.97580576010064,
negative,yellow,2,k,None,,,,,,,,,0,65,65,65,,,,,,,,,,,,,,,,,,,,,,,,,,,,,,,,,,,,,main,k,k,1,1.1489351999989594,342.9119111,None,None,0,,,,,,,,,,,,,,230,19,Male,2022-06-03_15h54.08.994,Main,2022.1.1,59.97580576010064,
positive,yellow,2,None,k,,,,,,,,,0,66,66,66,,,,,,,,,,,,,,,,,,,,,,,,,,,,,,,,,,,,,main,None,None,1,1.5089290999985678,345.0626544000006,None,None,1,,,,,,,,,,,,,,230,19,Male,2022-06-03_15h54.08.994,Main,2022.1.1,59.97580576010064,
positive,yellow,2,None,k,,,,,,,,,0,67,67,67,,,,,,,,,,,,,,,,,,,,,,,,,,,,,,,,,,,,,main,None,None,1,1.5001596999991307,347.57437779999964,None,None,1,,,,,,,,,,,,,,230,19,Male,2022-06-03_15h54.08.994,Main,2022.1.1,59.97580576010064,
positive,red,1,None,None,,,,,,,,,0,68,68,68,,,,,,,,,,,,,,,,,,,,,,,,,,,,,,,,,,,,,main,None,None,1,1.509048599999005,350.0767049999995,None,None,1,,,,,,,,,,,,,,230,19,Male,2022-06-03_15h54.08.994,Main,2022.1.1,59.97580576010064,
positive,yellow,1,None,k,,,,,,,,,0,69,69,69,,,,,,,,,,,,,,,,,,,,,,,,,,,,,,,,,,,,,main,None,None,1,1.5059602000001178,352.5849751000005,None,None,1,,,,,,,,,,,,,,230,19,Male,2022-06-03_15h54.08.994,Main,2022.1.1,59.97580576010064,
negative,yellow,2,k,None,,,,,,,,,0,70,70,70,,,,,,,,,,,,,,,,,,,,,,,,,,,,,,,,,,,,,main,k,k,1,0.7411873000000924,355.0947025000005,None,None,0,,,,,,,,,,,,,,230,19,Male,2022-06-03_15h54.08.994,Main,2022.1.1,59.97580576010064,
positive,yellow,1,None,k,,,,,,,,,0,71,71,71,,,,,,,,,,,,,,,,,,,,,,,,,,,,,,,,,,,,,main,None,None,1,1.5146187000009377,356.8368253000008,None,None,1,,,,,,,,,,,,,,230,19,Male,2022-06-03_15h54.08.994,Main,2022.1.1,59.97580576010064,
negative,blue,1,None,k,,,,,,,,,0,72,72,72,,,,,,,,,,,,,,,,,,,,,,,,,,,,,,,,,,,,,main,None,None,1,1.512143500000093,359.3534118000007,None,None,1,,,,,,,,,,,,,,230,19,Male,2022-06-03_15h54.08.994,Main,2022.1.1,59.97580576010064,
negative,red,2,None,None,,,,,,,,,0,73,73,73,,,,,,,,,,,,,,,,,,,,,,,,,,,,,,,,,,,,,main,None,None,1,1.515014100001281,361.868332,None,None,1,,,,,,,,,,,,,,230,19,Male,2022-06-03_15h54.08.994,Main,2022.1.1,59.97580576010064,
positive,blue,2,k,None,,,,,,,,,0,74,74,74,,,,,,,,,,,,,,,,,,,,,,,,,,,,,,,,,,,,,main,k,k,1,0.7413716999999451,364.3845918999996,None,None,0,,,,,,,,,,,,,,230,19,Male,2022-06-03_15h54.08.994,Main,2022.1.1,59.97580576010064,
negative,blue,2,None,k,,,,,,,,,0,75,75,75,,,,,,,,,,,,,,,,,,,,,,,,,,,,,,,,,,,,,main,None,None,1,1.4988174999998591,366.12993599999936,None,None,1,,,,,,,,,,,,,,230,19,Male,2022-06-03_15h54.08.994,Main,2022.1.1,59.97580576010064,
negative,blue,2,None,k,,,,,,,,,0,76,76,76,,,,,,,,,,,,,,,,,,,,,,,,,,,,,,,,,,,,,main,None,None,1,1.503443800000241,368.632399099999,None,None,1,,,,,,,,,,,,,,230,19,Male,2022-06-03_15h54.08.994,Main,2022.1.1,59.97580576010064,
negative,yellow,1,k,None,,,,,,,,,0,77,77,77,,,,,,,,,,,,,,,,,,,,,,,,,,,,,,,,,,,,,main,k,k,1,0.7519671000009112,371.13577389999955,None,None,0,,,,,,,,,,,,,,230,19,Male,2022-06-03_15h54.08.994,Main,2022.1.1,59.97580576010064,
positive,blue,1,k,None,,,,,,,,,0,78,78,78,,,,,,,,,,,,,,,,,,,,,,,,,,,,,,,,,,,,,main,k,k,1,0.9155596000000514,372.89085689999956,None,None,0,,,,,,,,,,,,,,230,19,Male,2022-06-03_15h54.08.994,Main,2022.1.1,59.97580576010064,
positive,blue,1,k,None,,,,,,,,,0,79,79,79,,,,,,,,,,,,,,,,,,,,,,,,,,,,,,,,,,,,,main,k,k,1,1.407841099999132,374.8084251,None,None,0,,,,,,,,,,,,,,230,19,Male,2022-06-03_15h54.08.994,Main,2022.1.1,59.97580576010064,
positive,red,2,None,None,,,,,,,,,0,80,80,80,,,,,,,,,,,,,,,,,,,,,,,,,,,,,,,,,,,,,main,None,None,1,1.5042904999991151,377.21598900000026,None,None,1,,,,,,,,,,,,,,230,19,Male,2022-06-03_15h54.08.994,Main,2022.1.1,59.97580576010064,
positive,yellow,2,None,k,,,,,,,,,0,81,81,81,,,,,,,,,,,,,,,,,,,,,,,,,,,,,,,,,,,,,main,None,None,1,1.5065609000012046,379.7245272,None,None,1,,,,,,,,,,,,,,230,19,Male,2022-06-03_15h54.08.994,Main,2022.1.1,59.97580576010064,
positive,blue,1,k,None,,,,,,,,,0,82,82,82,,,,,,,,,,,,,,,,,,,,,,,,,,,,,,,,,,,,,main,k,k,1,0.71450779999941,382.23264030000064,None,None,0,,,,,,,,,,,,,,230,19,Male,2022-06-03_15h54.08.994,Main,2022.1.1,59.97580576010064,
negative,yellow,2,k,None,,,,,,,,,0,83,83,83,,,,,,,,,,,,,,,,,,,,,,,,,,,,,,,,,,,,,main,k,k,1,1.082839700000477,383.94811429999936,None,None,0,,,,,,,,,,,,,,230,19,Male,2022-06-03_15h54.08.994,Main,2022.1.1,59.97580576010064,
positive,blue,2,k,None,,,,,,,,,0,84,84,84,,,,,,,,,,,,,,,,,,,,,,,,,,,,,,,,,,,,,main,k,k,1,0.7521165000016481,386.03080620000037,None,None,0,,,,,,,,,,,,,,230,19,Male,2022-06-03_15h54.08.994,Main,2022.1.1,59.97580576010064,
positive,yellow,1,None,k,,,,,,,,,0,85,85,85,,,,,,,,,,,,,,,,,,,,,,,,,,,,,,,,,,,,,main,None,None,1,1.5107229000004736,387.7880898000003,None,None,1,,,,,,,,,,,,,,230,19,Male,2022-06-03_15h54.08.994,Main,2022.1.1,59.97580576010064,
positive,blue,2,k,None,,,,,,,,,0,86,86,86,,,,,,,,,,,,,,,,,,,,,,,,,,,,,,,,,,,,,main,k,k,1,0.695479100000739,390.30116629999975,None,None,0,,,,,,,,,,,,,,230,19,Male,2022-06-03_15h54.08.994,Main,2022.1.1,59.97580576010064,
positive,blue,1,k,None,,,,,,,,,0,87,87,87,,,,,,,,,,,,,,,,,,,,,,,,,,,,,,,,,,,,,main,k,k,1,0.7721474999998463,391.9960425999998,None,None,0,,,,,,,,,,,,,,230,19,Male,2022-06-03_15h54.08.994,Main,2022.1.1,59.97580576010064,
negative,yellow,2,k,None,,,,,,,,,0,88,88,88,,,,,,,,,,,,,,,,,,,,,,,,,,,,,,,,,,,,,main,k,k,1,0.8427009999995789,393.7715843999995,None,None,0,,,,,,,,,,,,,,230,19,Male,2022-06-03_15h54.08.994,Main,2022.1.1,59.97580576010064,
negative,blue,2,None,k,,,,,,,,,0,89,89,89,,,,,,,,,,,,,,,,,,,,,,,,,,,,,,,,,,,,,main,None,k,0,0.8528476000010414,395.61646219999966,None,None,1,,,,,,,,,,,,,,230,19,Male,2022-06-03_15h54.08.994,Main,2022.1.1,59.97580576010064,
positive,yellow,2,None,k,,,,,,,,,0,90,90,90,,,,,,,,,,,,,,,,,,,,,,,,,,,,,,,,,,,,,main,None,None,1,1.506211899999471,398.4814237999999,None,None,1,,,,,,,,,,,,,,230,19,Male,2022-06-03_15h54.08.994,Main,2022.1.1,59.97580576010064,
negative,yellow,1,k,None,,,,,,,,,0,91,91,91,,,,,,,,,,,,,,,,,,,,,,,,,,,,,,,,,,,,,main,k,k,1,0.763500799999747,400.99045599999954,None,None,0,,,,,,,,,,,,,,230,19,Male,2022-06-03_15h54.08.994,Main,2022.1.1,59.97580576010064,
negative,red,2,None,None,,,,,,,,,0,92,92,92,,,,,,,,,,,,,,,,,,,,,,,,,,,,,,,,,,,,,main,None,None,1,1.5079064999990806,402.7557495000001,None,None,1,,,,,,,,,,,,,,230,19,Male,2022-06-03_15h54.08.994,Main,2022.1.1,59.97580576010064,
negative,blue,2,None,k,,,,,,,,,0,93,93,93,,,,,,,,,,,,,,,,,,,,,,,,,,,,,,,,,,,,,main,None,None,1,1.5016677000003256,405.26430769999934,None,None,1,,,,,,,,,,,,,,230,19,Male,2022-06-03_15h54.08.994,Main,2022.1.1,59.97580576010064,
negative,blue,1,None,k,,,,,,,,,0,94,94,94,,,,,,,,,,,,,,,,,,,,,,,,,,,,,,,,,,,,,main,None,None,1,1.5102951000008034,407.7700468999992,None,None,1,,,,,,,,,,,,,,230,19,Male,2022-06-03_15h54.08.994,Main,2022.1.1,59.97580576010064,
negative,blue,1,None,k,,,,,,,,,0,95,95,95,,,,,,,,,,,,,,,,,,,,,,,,,,,,,,,,,,,,,main,None,None,1,1.500234899998759,410.2822555999992,None,None,1,,,,,,,,,,,,,,230,19,Male,2022-06-03_15h54.08.994,Main,2022.1.1,59.97580576010064,
negative,red,1,None,None,,,,,,,,,0,96,96,96,,,,,,,,,,,,,,,,,,,,,,,,,,,,,,,,,,,,,main,None,None,1,1.5156174000003375,412.7851004000004,None,None,1,,,,,,,,,,,,,,230,19,Male,2022-06-03_15h54.08.994,Main,2022.1.1,59.97580576010064,
positive,yellow,1,None,k,,,,,,,,,0,97,97,97,,,,,,,,,,,,,,,,,,,,,,,,,,,,,,,,,,,,,main,None,None,1,1.4972238000009384,415.3023845000007,None,None,1,,,,,,,,,,,,,,230,19,Male,2022-06-03_15h54.08.994,Main,2022.1.1,59.97580576010064,
negative,yellow,1,k,None,,,,,,,,,0,98,98,98,,,,,,,,,,,,,,,,,,,,,,,,,,,,,,,,,,,,,main,k,k,1,0.7494477000000188,417.80089410000073,None,None,0,,,,,,,,,,,,,,230,19,Male,2022-06-03_15h54.08.994,Main,2022.1.1,59.97580576010064,
positive,red,1,None,None,,,,,,,,,0,99,99,99,,,,,,,,,,,,,,,,,,,,,,,,,,,,,,,,,,,,,main,None,None,1,1.509314799999629,419.5517412999998,None,None,1,,,,,,,,,,,,,,230,19,Male,2022-06-03_15h54.08.994,Main,2022.1.1,59.97580576010064,
positive,blue,1,k,None,,,,,,,,,0,100,100,100,,,,,,,,,,,,,,,,,,,,,,,,,,,,,,,,,,,,,main,k,k,1,0.8647274000013567,422.0613785000005,None,None,0,,,,,,,,,,,,,,230,19,Male,2022-06-03_15h54.08.994,Main,2022.1.1,59.97580576010064,
negative,yellow,1,k,None,,,,,,,,,0,101,101,101,,,,,,,,,,,,,,,,,,,,,,,,,,,,,,,,,,,,,main,k,k,1,0.9484981999994488,423.93021840000074,None,None,0,,,,,,,,,,,,,,230,19,Male,2022-06-03_15h54.08.994,Main,2022.1.1,59.97580576010064,
negative,blue,2,None,k,,,,,,,,,0,102,102,102,,,,,,,,,,,,,,,,,,,,,,,,,,,,,,,,,,,,,main,None,None,1,1.5145101999987673,425.8771992999991,None,None,1,,,,,,,,,,,,,,230,19,Male,2022-06-03_15h54.08.994,Main,2022.1.1,59.97580576010064,
negative,yellow,2,k,None,,,,,,,,,0,103,103,103,,,,,,,,,,,,,,,,,,,,,,,,,,,,,,,,,,,,,main,k,k,1,0.8818802999994659,428.39734829999907,None,None,0,,,,,,,,,,,,,,230,19,Male,2022-06-03_15h54.08.994,Main,2022.1.1,59.97580576010064,
positive,yellow,2,None,k,,,,,,,,,0,104,104,104,,,,,,,,,,,,,,,,,,,,,,,,,,,,,,,,,,,,,main,None,None,1,1.5137467999993532,430.28086690000055,None,None,1,,,,,,,,,,,,,,230,19,Male,2022-06-03_15h54.08.994,Main,2022.1.1,59.97580576010064,
positive,blue,1,k,None,,,,,,,,,0,105,105,105,,,,,,,,,,,,,,,,,,,,,,,,,,,,,,,,,,,,,main,k,k,1,0.740319599999566,432.7946028000006,None,None,0,,,,,,,,,,,,,,230,19,Male,2022-06-03_15h54.08.994,Main,2022.1.1,59.97580576010064,
positive,blue,2,k,None,,,,,,,,,0,106,106,106,,,,,,,,,,,,,,,,,,,,,,,,,,,,,,,,,,,,,main,k,k,1,0.7869320000008884,434.54064149999977,None,None,0,,,,,,,,,,,,,,230,19,Male,2022-06-03_15h54.08.994,Main,2022.1.1,59.97580576010064,
negative,blue,1,None,k,,,,,,,,,0,107,107,107,,,,,,,,,,,,,,,,,,,,,,,,,,,,,,,,,,,,,main,None,None,1,1.5066720999984682,436.32778119999966,None,None,1,,,,,,,,,,,,,,230,19,Male,2022-06-03_15h54.08.994,Main,2022.1.1,59.97580576010064,
positive,yellow,2,None,k,,,,,,,,,0,108,108,108,,,,,,,,,,,,,,,,,,,,,,,,,,,,,,,,,,,,,main,None,None,1,1.5119669000014255,438.84042620000037,None,None,1,,,,,,,,,,,,,,230,19,Male,2022-06-03_15h54.08.994,Main,2022.1.1,59.97580576010064,
negative,yellow,1,k,None,,,,,,,,,0,109,109,109,,,,,,,,,,,,,,,,,,,,,,,,,,,,,,,,,,,,,main,k,k,1,0.8370579000002181,441.3561721999995,None,None,0,,,,,,,,,,,,,,230,19,Male,2022-06-03_15h54.08.994,Main,2022.1.1,59.97580576010064,
negative,blue,2,None,k,,,,,,,,,0,110,110,110,,,,,,,,,,,,,,,,,,,,,,,,,,,,,,,,,,,,,main,None,None,1,1.5136526000005688,443.1982571999997,None,None,1,,,,,,,,,,,,,,230,19,Male,2022-06-03_15h54.08.994,Main,2022.1.1,59.97580576010064,
positive,blue,2,k,None,,,,,,,,,0,111,111,111,,,,,,,,,,,,,,,,,,,,,,,,,,,,,,,,,,,,,main,k,k,1,0.980488700000933,445.71158920000016,None,None,0,,,,,,,,,,,,,,230,19,Male,2022-06-03_15h54.08.994,Main,2022.1.1,59.97580576010064,
negative,blue,1,None,k,,,,,,,,,0,112,112,112,,,,,,,,,,,,,,,,,,,,,,,,,,,,,,,,,,,,,main,None,None,1,1.51275749999877,447.69560939999974,None,None,1,,,,,,,,,,,,,,230,19,Male,2022-06-03_15h54.08.994,Main,2022.1.1,59.97580576010064,
positive,yellow,1,None,k,,,,,,,,,0,113,113,113,,,,,,,,,,,,,,,,,,,,,,,,,,,,,,,,,,,,,main,None,None,1,1.5069746999997733,450.2100037,None,None,1,,,,,,,,,,,,,,230,19,Male,2022-06-03_15h54.08.994,Main,2022.1.1,59.97580576010064,
negative,red,1,None,None,,,,,,,,,0,114,114,114,,,,,,,,,,,,,,,,,,,,,,,,,,,,,,,,,,,,,main,None,None,1,1.5201866000006703,452.7185669999999,None,None,1,,,,,,,,,,,,,,230,19,Male,2022-06-03_15h54.08.994,Main,2022.1.1,59.97580576010064,
positive,red,1,None,None,,,,,,,,,0,115,115,115,,,,,,,,,,,,,,,,,,,,,,,,,,,,,,,,,,,,,main,None,None,1,1.5078649999995832,455.23886420000053,None,None,1,,,,,,,,,,,,,,230,19,Male,2022-06-03_15h54.08.994,Main,2022.1.1,59.97580576010064,
negative,red,2,None,None,,,,,,,,,0,116,116,116,,,,,,,,,,,,,,,,,,,,,,,,,,,,,,,,,,,,,main,None,None,1,1.5103824000016175,457.74890779999987,None,None,1,,,,,,,,,,,,,,230,19,Male,2022-06-03_15h54.08.994,Main,2022.1.1,59.97580576010064,
negative,yellow,2,k,None,,,,,,,,,0,117,117,117,,,,,,,,,,,,,,,,,,,,,,,,,,,,,,,,,,,,,main,k,k,1,0.8480712000000494,460.26348599999983,None,None,0,,,,,,,,,,,,,,230,19,Male,2022-06-03_15h54.08.994,Main,2022.1.1,59.97580576010064,
positive,yellow,1,None,k,,,,,,,,,0,118,118,118,,,,,,,,,,,,,,,,,,,,,,,,,,,,,,,,,,,,,main,None,None,1,1.508372899999813,462.11281430000054,None,None,1,,,,,,,,,,,,,,230,19,Male,2022-06-03_15h54.08.994,Main,2022.1.1,59.97580576010064,
positive,red,2,None,None,,,,,,,,,0,119,119,119,,,,,,,,,,,,,,,,,,,,,,,,,,,,,,,,,,,,,main,None,None,1,1.5080244000000675,464.622473899999,None,None,1,,,,,,,,,,,,,,230,19,Male,2022-06-03_15h54.08.994,Main,2022.1.1,59.97580576010064,
positive,blue,2,k,None,,,,,,,,,0,120,120,120,,,,,,,,,,,,,,,,,,,,,,,,,,,,,,,,,,,,,main,k,k,1,1.0207986000004894,467.1331241000007,None,None,0,,,,,,,,,,,,,,230,19,Male,2022-06-03_15h54.08.994,Main,2022.1.1,59.97580576010064,
negative,red,1,None,None,,,,,,,,,0,121,121,121,,,,,,,,,,,,,,,,,,,,,,,,,,,,,,,,,,,,,main,None,None,1,1.5158723999993526,469.15417069999967,None,None,1,,,,,,,,,,,,,,230,19,Male,2022-06-03_15h54.08.994,Main,2022.1.1,59.97580576010064,
positive,yellow,2,None,k,,,,,,,,,0,122,122,122,,,,,,,,,,,,,,,,,,,,,,,,,,,,,,,,,,,,,main,None,None,1,1.5060227000012674,471.6722105000008,None,None,1,,,,,,,,,,,,,,230,19,Male,2022-06-03_15h54.08.994,Main,2022.1.1,59.97580576010064,
negative,red,2,None,None,,,,,,,,,0,123,123,123,,,,,,,,,,,,,,,,,,,,,,,,,,,,,,,,,,,,,main,None,None,1,1.4958883999988757,474.1819555000002,None,None,1,,,,,,,,,,,,,,230,19,Male,2022-06-03_15h54.08.994,Main,2022.1.1,59.97580576010064,
negative,yellow,2,k,None,,,,,,,,,0,124,124,124,,,,,,,,,,,,,,,,,,,,,,,,,,,,,,,,,,,,,main,k,k,1,0.9593268999997235,476.6791204000001,None,None,0,,,,,,,,,,,,,,230,19,Male,2022-06-03_15h54.08.994,Main,2022.1.1,59.97580576010064,
positive,red,1,None,None,,,,,,,,,0,125,125,125,,,,,,,,,,,,,,,,,,,,,,,,,,,,,,,,,,,,,main,None,None,1,1.4981447999998636,478.64216189999934,None,None,1,,,,,,,,,,,,,,230,19,Male,2022-06-03_15h54.08.994,Main,2022.1.1,59.97580576010064,
negative,blue,2,None,k,,,,,,,,,0,126,126,126,,,,,,,,,,,,,,,,,,,,,,,,,,,,,,,,,,,,,main,None,None,1,1.5162467999998626,481.14219240000057,None,None,1,,,,,,,,,,,,,,230,19,Male,2022-06-03_15h54.08.994,Main,2022.1.1,59.97580576010064,
negative,blue,1,None,k,,,,,,,,,0,127,127,127,,,,,,,,,,,,,,,,,,,,,,,,,,,,,,,,,,,,,main,None,None,1,1.5138445000011416,483.65959490000023,None,None,1,,,,,,,,,,,,,,230,19,Male,2022-06-03_15h54.08.994,Main,2022.1.1,59.97580576010064,
negative,yellow,1,k,None,,,,,,,,,0,128,128,128,,,,,,,,,,,,,,,,,,,,,,,,,,,,,,,,,,,,,main,k,k,1,0.9109754000000976,486.1756334999991,None,None,0,,,,,,,,,,,,,,230,19,Male,2022-06-03_15h54.08.994,Main,2022.1.1,59.97580576010064,
negative,yellow,1,k,None,,,,,,,,,0,129,129,129,,,,,,,,,,,,,,,,,,,,,,,,,,,,,,,,,,,,,main,k,k,1,0.7399775000012596,488.08897140000045,None,None,0,,,,,,,,,,,,,,230,19,Male,2022-06-03_15h54.08.994,Main,2022.1.1,59.97580576010064,
positive,blue,1,k,None,,,,,,,,,0,130,130,130,,,,,,,,,,,,,,,,,,,,,,,,,,,,,,,,,,,,,main,k,k,1,0.739556000000448,489.8296969000003,None,None,0,,,,,,,,,,,,,,230,19,Male,2022-06-03_15h54.08.994,Main,2022.1.1,59.97580576010064,
negative,blue,1,None,k,,,,,,,,,0,131,131,131,,,,,,,,,,,,,,,,,,,,,,,,,,,,,,,,,,,,,main,None,None,1,1.5127118000000337,491.5716620000003,None,None,1,,,,,,,,,,,,,,230,19,Male,2022-06-03_15h54.08.994,Main,2022.1.1,59.97580576010064,
negative,blue,2,None,k,,,,,,,,,0,132,132,132,,,,,,,,,,,,,,,,,,,,,,,,,,,,,,,,,,,,,main,None,None,1,1.513520399999834,494.0855988000003,None,None,1,,,,,,,,,,,,,,230,19,Male,2022-06-03_15h54.08.994,Main,2022.1.1,59.97580576010064,
positive,blue,2,k,None,,,,,,,,,0,133,133,133,,,,,,,,,,,,,,,,,,,,,,,,,,,,,,,,,,,,,main,k,k,1,1.3878060000006371,496.60001009999905,None,None,0,,,,,,,,,,,,,,230,19,Male,2022-06-03_15h54.08.994,Main,2022.1.1,59.97580576010064,
positive,red,2,None,None,,,,,,,,,0,134,134,134,,,,,,,,,,,,,,,,,,,,,,,,,,,,,,,,,,,,,main,None,None,1,1.5065755000014178,498.9917244999997,None,None,1,,,,,,,,,,,,,,230,19,Male,2022-06-03_15h54.08.994,Main,2022.1.1,59.97580576010064,
negative,yellow,2,k,None,,,,,,,,,0,135,135,135,,,,,,,,,,,,,,,,,,,,,,,,,,,,,,,,,,,,,main,k,k,1,0.9363697999997385,501.4985231999999,None,None,0,,,,,,,,,,,,,,230,19,Male,2022-06-03_15h54.08.994,Main,2022.1.1,59.97580576010064,
positive,yellow,2,None,k,,,,,,,,,0,136,136,136,,,,,,,,,,,,,,,,,,,,,,,,,,,,,,,,,,,,,main,None,None,1,1.5057214999997086,503.43656890000057,None,None,1,,,,,,,,,,,,,,230,19,Male,2022-06-03_15h54.08.994,Main,2022.1.1,59.97580576010064,
positive,blue,1,k,None,,,,,,,,,0,137,137,137,,,,,,,,,,,,,,,,,,,,,,,,,,,,,,,,,,,,,main,k,k,1,0.7897115999985544,505.94641430000047,None,None,0,,,,,,,,,,,,,,230,19,Male,2022-06-03_15h54.08.994,Main,2022.1.1,59.97580576010064,
positive,yellow,1,None,k,,,,,,,,,0,138,138,138,,,,,,,,,,,,,,,,,,,,,,,,,,,,,,,,,,,,,main,None,None,1,1.4997297000008984,507.73992999999973,None,None,1,,,,,,,,,,,,,,230,19,Male,2022-06-03_15h54.08.994,Main,2022.1.1,59.97580576010064,
positive,yellow,1,None,k,,,,,,,,,0,139,139,139,,,,,,,,,,,,,,,,,,,,,,,,,,,,,,,,,,,,,main,None,None,1,1.5125547000006918,510.2419719999998,None,None,1,,,,,,,,,,,,,,230,19,Male,2022-06-03_15h54.08.994,Main,2022.1.1,59.97580576010064,
positive,yellow,1,None,k,,,,,,,,,0,140,140,140,,,,,,,,,,,,,,,,,,,,,,,,,,,,,,,,,,,,,main,None,None,1,1.4967813000002934,512.7565123000004,None,None,1,,,,,,,,,,,,,,230,19,Male,2022-06-03_15h54.08.994,Main,2022.1.1,59.97580576010064,
positive,blue,1,k,None,,,,,,,,,0,141,141,141,,,,,,,,,,,,,,,,,,,,,,,,,,,,,,,,,,,,,main,k,k,1,0.7759098000005906,515.2556920999996,None,None,0,,,,,,,,,,,,,,230,19,Male,2022-06-03_15h54.08.994,Main,2022.1.1,59.97580576010064,
positive,blue,2,k,None,,,,,,,,,0,142,142,142,,,,,,,,,,,,,,,,,,,,,,,,,,,,,,,,,,,,,main,k,k,1,1.1989845000007335,517.0311185999999,None,None,0,,,,,,,,,,,,,,230,19,Male,2022-06-03_15h54.08.994,Main,2022.1.1,59.97580576010064,
positive,yellow,2,None,k,,,,,,,,,0,143,143,143,,,,,,,,,,,,,,,,,,,,,,,,,,,,,,,,,,,,,main,None,None,1,1.5158983000001172,519.2311312999991,None,None,1,,,,,,,,,,,,,,230,19,Male,2022-06-03_15h54.08.994,Main,2022.1.1,59.97580576010064,
negative,yellow,2,k,None,,,,,,,,,0,144,144,144,,,,,,,,,,,,,,,,,,,,,,,,,,,,,,,,,,,,,main,k,k,1,0.8223667000002024,521.7516027000001,None,None,0,,,,,,,,,,,,,,230,19,Male,2022-06-03_15h54.08.994,Main,2022.1.1,59.97580576010064,
negative,blue,2,None,k,,,,,,,,,0,145,145,145,,,,,,,,,,,,,,,,,,,,,,,,,,,,,,,,,,,,,main,None,None,1,1.5023333999997703,523.5773331,None,None,1,,,,,,,,,,,,,,230,19,Male,2022-06-03_15h54.08.994,Main,2022.1.1,59.97580576010064,
negative,red,1,None,None,,,,,,,,,0,146,146,146,,,,,,,,,,,,,,,,,,,,,,,,,,,,,,,,,,,,,main,None,None,1,1.5128217000001314,526.0822716000002,None,None,1,,,,,,,,,,,,,,230,19,Male,2022-06-03_15h54.08.994,Main,2022.1.1,59.97580576010064,
positive,blue,1,k,None,,,,,,,,,0,147,147,147,,,,,,,,,,,,,,,,,,,,,,,,,,,,,,,,,,,,,main,k,k,1,1.0302706999991642,528.5959086999992,None,None,0,,,,,,,,,,,,,,230,19,Male,2022-06-03_15h54.08.994,Main,2022.1.1,59.97580576010064,
positive,yellow,1,None,k,,,,,,,,,0,148,148,148,,,,,,,,,,,,,,,,,,,,,,,,,,,,,,,,,,,,,main,None,None,1,1.5126541999998153,530.6282692999994,None,None,1,,,,,,,,,,,,,,230,19,Male,2022-06-03_15h54.08.994,Main,2022.1.1,59.97580576010064,
negative,red,2,None,None,,,,,,,,,0,149,149,149,,,,,,,,,,,,,,,,,,,,,,,,,,,,,,,,,,,,,main,None,None,1,1.510758700000224,533.1443436999998,None,None,1,,,,,,,,,,,,,,230,19,Male,2022-06-03_15h54.08.994,Main,2022.1.1,59.97580576010064,
negative,blue,1,None,k,,,,,,,,,0,150,150,150,,,,,,,,,,,,,,,,,,,,,,,,,,,,,,,,,,,,,main,None,None,1,1.5171503000001394,535.6583922999998,None,None,1,,,,,,,,,,,,,,230,19,Male,2022-06-03_15h54.08.994,Main,2022.1.1,59.97580576010064,
negative,yellow,2,k,None,,,,,,,,,0,151,151,151,,,,,,,,,,,,,,,,,,,,,,,,,,,,,,,,,,,,,main,k,k,1,0.7882900999993581,538.1785662999991,None,None,0,,,,,,,,,,,,,,230,19,Male,2022-06-03_15h54.08.994,Main,2022.1.1,59.97580576010064,
negative,blue,2,None,k,,,,,,,,,0,152,152,152,,,,,,,,,,,,,,,,,,,,,,,,,,,,,,,,,,,,,main,None,None,1,1.5083515999995143,539.9710128999996,None,None,1,,,,,,,,,,,,,,230,19,Male,2022-06-03_15h54.08.994,Main,2022.1.1,59.97580576010064,
negative,yellow,1,k,None,,,,,,,,,0,153,153,153,,,,,,,,,,,,,,,,,,,,,,,,,,,,,,,,,,,,,main,k,k,1,0.8739244000007602,542.479439499999,None,None,0,,,,,,,,,,,,,,230,19,Male,2022-06-03_15h54.08.994,Main,2022.1.1,59.97580576010064,
negative,blue,1,None,k,,,,,,,,,0,154,154,154,,,,,,,,,,,,,,,,,,,,,,,,,,,,,,,,,,,,,main,None,None,1,1.5054237999993347,544.3552452999993,None,None,1,,,,,,,,,,,,,,230,19,Male,2022-06-03_15h54.08.994,Main,2022.1.1,59.97580576010064,
positive,yellow,2,None,k,,,,,,,,,0,155,155,155,,,,,,,,,,,,,,,,,,,,,,,,,,,,,,,,,,,,,main,None,None,1,1.2793141000001924,546.8623310000003,None,None,1,,,,,,,,,,,,,,230,19,Male,2022-06-03_15h54.08.994,Main,2022.1.1,59.97580576010064,
positive,red,2,None,None,,,,,,,,,0,156,156,156,,,,,,,,,,,,,,,,,,,,,,,,,,,,,,,,,,,,,main,None,k,0,1.5081831000006787,549.1466366999994,None,None,1,,,,,,,,,,,,,,230,19,Male,2022-06-03_15h54.08.994,Main,2022.1.1,59.97580576010064,
positive,red,1,None,None,,,,,,,,,0,157,157,157,,,,,,,,,,,,,,,,,,,,,,,,,,,,,,,,,,,,,main,None,None,1,1.4977829999988899,552.6621438000002,None,None,1,,,,,,,,,,,,,,230,19,Male,2022-06-03_15h54.08.994,Main,2022.1.1,59.97580576010064,
positive,blue,2,k,None,,,,,,,,,0,158,158,158,,,,,,,,,,,,,,,,,,,,,,,,,,,,,,,,,,,,,main,k,k,1,0.781644900000174,555.1604134999998,None,None,0,,,,,,,,,,,,,,230,19,Male,2022-06-03_15h54.08.994,Main,2022.1.1,59.97580576010064,
negative,yellow,1,k,None,,,,,,,,,0,159,159,159,,,,,,,,,,,,,,,,,,,,,,,,,,,,,,,,,,,,,main,k,k,1,1.066535700001623,556.9438809000003,None,None,0,,,,,,,,,,,,,,230,19,Male,2022-06-03_15h54.08.994,Main,2022.1.1,59.97580576010064,
negative,red,2,None,None,,,,,,,,,0,160,160,160,,,,,,,,,,,,,,,,,,,,,,,,,,,,,,,,,,,,,main,None,k,0,-0.18262250000043423,559.0168149000001,None,None,1,,,,,,,,,,,,,,230,19,Male,2022-06-03_15h54.08.994,Main,2022.1.1,59.97580576010064,
negative,blue,1,None,k,,,,,,,,,0,161,161,161,,,,,,,,,,,,,,,,,,,,,,,,,,,,,,,,,,,,,main,None,k,0,0.8815338999993401,562.8610714999995,None,None,1,,,,,,,,,,,,,,230,19,Male,2022-06-03_15h54.08.994,Main,2022.1.1,59.97580576010064,
negative,blue,1,None,k,,,,,,,,,0,162,162,162,,,,,,,,,,,,,,,,,,,,,,,,,,,,,,,,,,,,,main,None,None,1,1.507600700000694,565.7430583000005,None,None,1,,,,,,,,,,,,,,230,19,Male,2022-06-03_15h54.08.994,Main,2022.1.1,59.97580576010064,
negative,yellow,1,k,None,,,,,,,,,0,163,163,163,,,,,,,,,,,,,,,,,,,,,,,,,,,,,,,,,,,,,main,k,k,1,1.2240391000013915,568.2524797000005,None,None,0,,,,,,,,,,,,,,230,19,Male,2022-06-03_15h54.08.994,Main,2022.1.1,59.97580576010064,
negative,yellow,1,k,None,,,,,,,,,0,164,164,164,,,,,,,,,,,,,,,,,,,,,,,,,,,,,,,,,,,,,main,k,k,1,6.362909500001479,570.4774410999999,None,None,0,,,,,,,,,,,,,,230,19,Male,2022-06-03_15h54.08.994,Main,2022.1.1,59.97580576010064,
positive,yellow,1,None,k,,,,,,,,,0,165,165,165,,,,,,,,,,,,,,,,,,,,,,,,,,,,,,,,,,,,,main,None,k,0,0.7139828999988822,578.8560023999999,None,None,1,,,,,,,,,,,,,,230,19,Male,2022-06-03_15h54.08.994,Main,2022.1.1,59.97580576010064,
negative,red,1,None,None,,,,,,,,,0,166,166,166,,,,,,,,,,,,,,,,,,,,,,,,,,,,,,,,,,,,,main,None,k,0,1.3136715999989974,581.5757627000003,None,None,1,,,,,,,,,,,,,,230,19,Male,2022-06-03_15h54.08.994,Main,2022.1.1,59.97580576010064,
negative,yellow,2,k,None,,,,,,,,,0,167,167,167,,,,,,,,,,,,,,,,,,,,,,,,,,,,,,,,,,,,,main,k,k,1,4.41676649999863,584.8916097000001,None,None,0,,,,,,,,,,,,,,230,19,Male,2022-06-03_15h54.08.994,Main,2022.1.1,59.97580576010064,
positive,blue,2,k,None,,,,,,,,,0,168,168,168,,,,,,,,,,,,,,,,,,,,,,,,,,,,,,,,,,,,,main,k,k,1,0.9004948000001605,591.3244990000003,None,None,0,,,,,,,,,,,,,,230,19,Male,2022-06-03_15h54.08.994,Main,2022.1.1,59.97580576010064,
positive,red,2,None,None,,,,,,,,,0,169,169,169,,,,,,,,,,,,,,,,,,,,,,,,,,,,,,,,,,,,,main,None,k,0,0.7659225999996124,593.2245332000002,None,None,1,,,,,,,,,,,,,,230,19,Male,2022-06-03_15h54.08.994,Main,2022.1.1,59.97580576010064,
positive,red,1,None,None,,,,,,,,,0,170,170,170,,,,,,,,,,,,,,,,,,,,,,,,,,,,,,,,,,,,,main,None,None,1,1.5083260999999766,596.0060899,None,None,1,,,,,,,,,,,,,,230,19,Male,2022-06-03_15h54.08.994,Main,2022.1.1,59.97580576010064,
negative,blue,2,None,k,,,,,,,,,0,171,171,171,,,,,,,,,,,,,,,,,,,,,,,,,,,,,,,,,,,,,main,None,k,0,1.2069430999999895,598.5154732999999,None,None,1,,,,,,,,,,,,,,230,19,Male,2022-06-03_15h54.08.994,Main,2022.1.1,59.97580576010064,
positive,blue,2,k,None,,,,,,,,,0,172,172,172,,,,,,,,,,,,,,,,,,,,,,,,,,,,,,,,,,,,,main,k,k,1,0.8831501000004209,601.7398109000005,None,None,0,,,,,,,,,,,,,,230,19,Male,2022-06-03_15h54.08.994,Main,2022.1.1,59.97580576010064,
negative,yellow,2,k,None,,,,,,,,,0,173,173,173,,,,,,,,,,,,,,,,,,,,,,,,,,,,,,,,,,,,,main,k,k,1,3.404691300000195,603.6224712999992,None,None,0,,,,,,,,,,,,,,230,19,Male,2022-06-03_15h54.08.994,Main,2022.1.1,59.97580576010064,
positive,yellow,2,None,k,,,,,,,,,0,174,174,174,,,,,,,,,,,,,,,,,,,,,,,,,,,,,,,,,,,,,main,None,k,0,0.9613164000002143,609.0382988000001,None,None,1,,,,,,,,,,,,,,230,19,Male,2022-06-03_15h54.08.994,Main,2022.1.1,59.97580576010064,
negative,blue,2,None,k,,,,,,,,,0,175,175,175,,,,,,,,,,,,,,,,,,,,,,,,,,,,,,,,,,,,,main,None,k,0,1.2036549000004015,612.0051098999993,None,None,1,,,,,,,,,,,,,,230,19,Male,2022-06-03_15h54.08.994,Main,2022.1.1,59.97580576010064,
positive,blue,1,k,None,,,,,,,,,0,176,176,176,,,,,,,,,,,,,,,,,,,,,,,,,,,,,,,,,,,,,main,k,k,1,0.9368003999989014,615.2194283000008,None,None,0,,,,,,,,,,,,,,230,19,Male,2022-06-03_15h54.08.994,Main,2022.1.1,59.97580576010064,
positive,yellow,1,None,k,,,,,,,,,0,177,177,177,,,,,,,,,,,,,,,,,,,,,,,,,,,,,,,,,,,,,main,None,None,1,1.504459299998416,617.1599017999997,None,None,1,,,,,,,,,,,,,,230,19,Male,2022-06-03_15h54.08.994,Main,2022.1.1,59.97580576010064,
positive,blue,1,k,None,,,,,,,,,0,178,178,178,,,,,,,,,,,,,,,,,,,,,,,,,,,,,,,,,,,,,main,k,k,1,1.1176489999998012,619.6666717000007,None,None,0,,,,,,,,,,,,,,230,19,Male,2022-06-03_15h54.08.994,Main,2022.1.1,59.97580576010064,
positive,yellow,2,None,k,,,,,,,,,0,179,179,179,,,,,,,,,,,,,,,,,,,,,,,,,,,,,,,,,,,,,main,None,k,0,0.9961557000005996,621.7878827999994,None,None,1,,,,,,,,,,,,,,230,19,Male,2022-06-03_15h54.08.994,Main,2022.1.1,59.97580576010064,
positive,blue,1,k,None,,,,,,,,,0,180,180,180,,,,,,,,,,,,,,,,,,,,,,,,,,,,,,,,,,,,,main,k,k,1,2.4259802999986277,624.8038264999996,None,None,0,,,,,,,,,,,,,,230,19,Male,2022-06-03_15h54.08.994,Main,2022.1.1,59.97580576010064,
negative,red,1,None,None,,,,,,,,,0,181,181,181,,,,,,,,,,,,,,,,,,,,,,,,,,,,,,,,,,,,,main,None,None,1,1.5041689999998198,629.2356417999999,None,None,1,,,,,,,,,,,,,,230,19,Male,2022-06-03_15h54.08.994,Main,2022.1.1,59.97580576010064,
negative,blue,1,None,k,,,,,,,,,0,182,182,182,,,,,,,,,,,,,,,,,,,,,,,,,,,,,,,,,,,,,main,None,None,1,1.5092502000006789,631.7414000000008,None,None,1,,,,,,,,,,,,,,230,19,Male,2022-06-03_15h54.08.994,Main,2022.1.1,59.97580576010064,
negative,yellow,2,k,None,,,,,,,,,0,183,183,183,,,,,,,,,,,,,,,,,,,,,,,,,,,,,,,,,,,,,main,k,k,1,2.8661226999993232,634.2522394999996,None,None,0,,,,,,,,,,,,,,230,19,Male,2022-06-03_15h54.08.994,Main,2022.1.1,59.97580576010064,
positive,yellow,2,None,k,,,,,,,,,0,184,184,184,,,,,,,,,,,,,,,,,,,,,,,,,,,,,,,,,,,,,main,None,None,1,1.5009583000010025,639.1348825000005,None,None,1,,,,,,,,,,,,,,230,19,Male,2022-06-03_15h54.08.994,Main,2022.1.1,59.97580576010064,
positive,yellow,1,None,k,,,,,,,,,0,185,185,185,,,,,,,,,,,,,,,,,,,,,,,,,,,,,,,,,,,,,main,None,None,1,1.5108825000006618,641.6391167000002,None,None,1,,,,,,,,,,,,,,230,19,Male,2022-06-03_15h54.08.994,Main,2022.1.1,59.97580576010064,
positive,red,2,None,None,,,,,,,,,0,186,186,186,,,,,,,,,,,,,,,,,,,,,,,,,,,,,,,,,,,,,main,None,None,1,1.4997586000008596,644.1497235999996,None,None,1,,,,,,,,,,,,,,230,19,Male,2022-06-03_15h54.08.994,Main,2022.1.1,59.97580576010064,
positive,blue,1,k,None,,,,,,,,,0,187,187,187,,,,,,,,,,,,,,,,,,,,,,,,,,,,,,,,,,,,,main,k,k,1,1.7787750999996206,646.6542365999994,None,None,0,,,,,,,,,,,,,,230,19,Male,2022-06-03_15h54.08.994,Main,2022.1.1,59.97580576010064,
negative,yellow,1,k,None,,,,,,,,,0,188,188,188,,,,,,,,,,,,,,,,,,,,,,,,,,,,,,,,,,,,,main,k,k,1,2.2480110000014975,650.4508382999993,None,None,0,,,,,,,,,,,,,,230,19,Male,2022-06-03_15h54.08.994,Main,2022.1.1,59.97580576010064,
positive,yellow,2,None,k,,,,,,,,,0,189,189,189,,,,,,,,,,,,,,,,,,,,,,,,,,,,,,,,,,,,,main,None,None,1,1.5138504000005923,654.7027758999993,None,None,1,,,,,,,,,,,,,,230,19,Male,2022-06-03_15h54.08.994,Main,2022.1.1,59.97580576010064,
negative,yellow,2,k,None,,,,,,,,,0,190,190,190,,,,,,,,,,,,,,,,,,,,,,,,,,,,,,,,,,,,,main,k,k,1,3.088821299999836,657.2152980999999,None,None,0,,,,,,,,,,,,,,230,19,Male,2022-06-03_15h54.08.994,Main,2022.1.1,59.97580576010064,
negative,yellow,1,k,None,,,,,,,,,0,191,191,191,,,,,,,,,,,,,,,,,,,,,,,,,,,,,,,,,,,,,main,k,k,1,2.949172999999064,662.3152114000004,None,None,0,,,,,,,,,,,,,,230,19,Male,2022-06-03_15h54.08.994,Main,2022.1.1,59.97580576010064,
positive,blue,2,k,None,,,,,,,,,0,192,192,192,,,,,,,,,,,,,,,,,,,,,,,,,,,,,,,,,,,,,main,k,k,1,2.0381445000002714,667.2812572000003,None,None,0,,,,,,,,,,,,,,230,19,Male,2022-06-03_15h54.08.994,Main,2022.1.1,59.97580576010064,
positive,yellow,1,None,k,,,,,,,,,0,193,193,193,,,,,,,,,,,,,,,,,,,,,,,,,,,,,,,,,,,,,main,None,None,1,1.500674799999615,671.3297122000004,None,None,1,,,,,,,,,,,,,,230,19,Male,2022-06-03_15h54.08.994,Main,2022.1.1,59.97580576010064,
negative,red,2,None,None,,,,,,,,,0,194,194,194,,,,,,,,,,,,,,,,,,,,,,,,,,,,,,,,,,,,,main,None,k,0,-0.722750899998573,673.832108999999,None,None,1,,,,,,,,,,,,,,230,19,Male,2022-06-03_15h54.08.994,Main,2022.1.1,59.97580576010064,
positive,red,1,None,None,,,,,,,,,0,195,195,195,,,,,,,,,,,,,,,,,,,,,,,,,,,,,,,,,,,,,main,None,None,1,1.499046199998702,677.1301559999993,None,None,1,,,,,,,,,,,,,,230,19,Male,2022-06-03_15h54.08.994,Main,2022.1.1,59.97580576010064,
negative,blue,1,None,k,,,,,,,,,0,196,196,196,,,,,,,,,,,,,,,,,,,,,,,,,,,,,,,,,,,,,main,None,k,0,0.9354485999992903,679.6303893999993,None,None,1,,,,,,,,,,,,,,230,19,Male,2022-06-03_15h54.08.994,Main,2022.1.1,59.97580576010064,
positive,blue,2,k,None,,,,,,,,,0,197,197,197,,,,,,,,,,,,,,,,,,,,,,,,,,,,,,,,,,,,,main,k,k,1,3.04005639999923,682.5772909999996,None,None,0,,,,,,,,,,,,,,230,19,Male,2022-06-03_15h54.08.994,Main,2022.1.1,59.97580576010064,
negative,blue,2,None,k,,,,,,,,,0,198,198,198,,,,,,,,,,,,,,,,,,,,,,,,,,,,,,,,,,,,,main,None,None,1,1.5040698000011616,687.628969899999,None,None,1,,,,,,,,,,,,,,230,19,Male,2022-06-03_15h54.08.994,Main,2022.1.1,59.97580576010064,
negative,blue,2,None,k,,,,,,,,,0,199,199,199,,,,,,,,,,,,,,,,,,,,,,,,,,,,,,,,,,,,,main,None,None,1,1.5046068999999989,690.1327204999998,None,None,1,,,,,,,,,,,,,,230,19,Male,2022-06-03_15h54.08.994,Main,2022.1.1,59.97580576010064,
positive,blue,2,k,None,,,,,,,,,0,200,200,200,,,,,,,,,,,,,,,,,,,,,,,,,,,,,,,,,,,,,main,k,k,1,1.9338529000015114,692.6419585000003,None,None,0,,,,,,,,,,,,,,230,19,Male,2022-06-03_15h54.08.994,Main,2022.1.1,59.97580576010064,
positive,blue,2,k,None,,,,,,,,,0,201,201,201,,,,,,,,,,,,,,,,,,,,,,,,,,,,,,,,,,,,,main,k,k,1,2.283116400001745,696.5940520000004,None,None,0,,,,,,,,,,,,,,230,19,Male,2022-06-03_15h54.08.994,Main,2022.1.1,59.97580576010064,
negative,yellow,2,k,None,,,,,,,,,0,202,202,202,,,,,,,,,,,,,,,,,,,,,,,,,,,,,,,,,,,,,main,k,k,1,2.153928600000654,700.8765280000007,None,None,0,,,,,,,,,,,,,,230,19,Male,2022-06-03_15h54.08.994,Main,2022.1.1,59.97580576010064,
positive,red,1,None,None,,,,,,,,,0,203,203,203,,,,,,,,,,,,,,,,,,,,,,,,,,,,,,,,,,,,,main,None,None,1,1.4921325999985129,705.0427357999997,None,None,1,,,,,,,,,,,,,,230,19,Male,2022-06-03_15h54.08.994,Main,2022.1.1,59.97580576010064,
negative,blue,2,None,k,,,,,,,,,0,204,204,204,,,,,,,,,,,,,,,,,,,,,,,,,,,,,,,,,,,,,main,None,None,1,1.5012794000012946,707.5375886000002,None,None,1,,,,,,,,,,,,,,230,19,Male,2022-06-03_15h54.08.994,Main,2022.1.1,59.97580576010064,
negative,red,1,None,None,,,,,,,,,0,205,205,205,,,,,,,,,,,,,,,,,,,,,,,,,,,,,,,,,,,,,main,None,k,0,1.3310160000000906,710.0401048999993,None,None,1,,,,,,,,,,,,,,230,19,Male,2022-06-03_15h54.08.994,Main,2022.1.1,59.97580576010064,
negative,blue,2,None,k,,,,,,,,,0,206,206,206,,,,,,,,,,,,,,,,,,,,,,,,,,,,,,,,,,,,,main,None,k,0,1.1590343999996549,713.3748723000008,None,None,1,,,,,,,,,,,,,,230,19,Male,2022-06-03_15h54.08.994,Main,2022.1.1,59.97580576010064,
negative,yellow,2,k,None,,,,,,,,,0,207,207,207,,,,,,,,,,,,,,,,,,,,,,,,,,,,,,,,,,,,,main,k,k,1,3.9512852000007115,716.5412254000003,None,None,0,,,,,,,,,,,,,,230,19,Male,2022-06-03_15h54.08.994,Main,2022.1.1,59.97580576010064,
positive,yellow,2,None,k,,,,,,,,,0,208,208,208,,,,,,,,,,,,,,,,,,,,,,,,,,,,,,,,,,,,,main,None,None,1,1.4916886999999406,722.5069741000007,None,None,1,,,,,,,,,,,,,,230,19,Male,2022-06-03_15h54.08.994,Main,2022.1.1,59.97580576010064,
negative,yellow,1,k,None,,,,,,,,,0,209,209,209,,,,,,,,,,,,,,,,,,,,,,,,,,,,,,,,,,,,,main,k,k,1,1.2313151999987895,724.999891899999,None,None,0,,,,,,,,,,,,,,230,19,Male,2022-06-03_15h54.08.994,Main,2022.1.1,59.97580576010064,
negative,red,2,None,None,,,,,,,,,0,210,210,210,,,,,,,,,,,,,,,,,,,,,,,,,,,,,,,,,,,,,main,None,k,0,1.062660000001415,727.2326706000003,None,None,1,,,,,,,,,,,,,,230,19,Male,2022-06-03_15h54.08.994,Main,2022.1.1,59.97580576010064,
negative,blue,1,None,k,,,,,,,,,0,211,211,211,,,,,,,,,,,,,,,,,,,,,,,,,,,,,,,,,,,,,main,None,k,0,1.3002253000013297,730.3070026000005,None,None,1,,,,,,,,,,,,,,230,19,Male,2022-06-03_15h54.08.994,Main,2022.1.1,59.97580576010064,
negative,yellow,1,k,None,,,,,,,,,0,212,212,212,,,,,,,,,,,,,,,,,,,,,,,,,,,,,,,,,,,,,main,k,k,1,3.8321013000004314,733.6073111999995,None,None,0,,,,,,,,,,,,,,230,19,Male,2022-06-03_15h54.08.994,Main,2022.1.1,59.97580576010064,
positive,blue,1,k,None,,,,,,,,,0,213,213,213,,,,,,,,,,,,,,,,,,,,,,,,,,,,,,,,,,,,,main,k,k,1,1.0982933000013873,739.4546181999995,None,None,0,,,,,,,,,,,,,,230,19,Male,2022-06-03_15h54.08.994,Main,2022.1.1,59.97580576010064,
positive,blue,1,k,None,,,,,,,,,0,214,214,214,,,,,,,,,,,,,,,,,,,,,,,,,,,,,,,,,,,,,main,k,k,1,0.6298298000001523,741.5539344999997,None,None,0,,,,,,,,,,,,,,230,19,Male,2022-06-03_15h54.08.994,Main,2022.1.1,59.97580576010064,
positive,yellow,1,None,k,,,,,,,,,0,215,215,215,,,,,,,,,,,,,,,,,,,,,,,,,,,,,,,,,,,,,main,None,None,1,1.5002884000004997,743.1882669000006,None,None,1,,,,,,,,,,,,,,230,19,Male,2022-06-03_15h54.08.994,Main,2022.1.1,59.97580576010064,
positive,yellow,1,None,k,,,,,,,,,0,216,216,216,,,,,,,,,,,,,,,,,,,,,,,,,,,,,,,,,,,,,main,None,k,0,1.1310594999995374,745.6921937000006,None,None,1,,,,,,,,,,,,,,230,19,Male,2022-06-03_15h54.08.994,Main,2022.1.1,59.97580576010064,
positive,yellow,2,None,k,,,,,,,,,0,217,217,217,,,,,,,,,,,,,,,,,,,,,,,,,,,,,,,,,,,,,main,None,None,1,1.499316200000976,748.8373462,None,None,1,,,,,,,,,,,,,,230,19,Male,2022-06-03_15h54.08.994,Main,2022.1.1,59.97580576010064,
negative,blue,1,None,k,,,,,,,,,0,218,218,218,,,,,,,,,,,,,,,,,,,,,,,,,,,,,,,,,,,,,main,None,k,0,1.1366233000007924,751.3365343999994,None,None,1,,,,,,,,,,,,,,230,19,Male,2022-06-03_15h54.08.994,Main,2022.1.1,59.97580576010064,
positive,red,2,None,None,,,,,,,,,0,219,219,219,,,,,,,,,,,,,,,,,,,,,,,,,,,,,,,,,,,,,main,None,k,0,1.0335653000001912,754.4867782000001,None,None,1,,,,,,,,,,,,,,230,19,Male,2022-06-03_15h54.08.994,Main,2022.1.1,59.97580576010064,
positive,yellow,1,None,k,,,,,,,,,0,220,220,220,,,,,,,,,,,,,,,,,,,,,,,,,,,,,,,,,,,,,main,None,None,1,1.4939544000008027,757.5170137999994,None,None,1,,,,,,,,,,,,,,230,19,Male,2022-06-03_15h54.08.994,Main,2022.1.1,59.97580576010064,
positive,blue,1,k,None,,,,,,,,,0,221,221,221,,,,,,,,,,,,,,,,,,,,,,,,,,,,,,,,,,,,,main,k,k,1,2.5357456999990973,760.014851599999,None,None,0,,,,,,,,,,,,,,230,19,Male,2022-06-03_15h54.08.994,Main,2022.1.1,59.97580576010064,
positive,yellow,2,None,k,,,,,,,,,0,222,222,222,,,,,,,,,,,,,,,,,,,,,,,,,,,,,,,,,,,,,main,None,k,0,1.2205525999997917,764.5682813999993,None,None,1,,,,,,,,,,,,,,230,19,Male,2022-06-03_15h54.08.994,Main,2022.1.1,59.97580576010064,
negative,yellow,1,k,None,,,,,,,,,0,223,223,223,,,,,,,,,,,,,,,,,,,,,,,,,,,,,,,,,,,,,main,k,k,1,0.9171456000003673,767.8024898999993,None,None,0,,,,,,,,,,,,,,230,19,Male,2022-06-03_15h54.08.994,Main,2022.1.1,59.97580576010064,
positive,yellow,2,None,k,,,,,,,,,0,224,224,224,,,,,,,,,,,,,,,,,,,,,,,,,,,,,,,,,,,,,main,None,k,0,0.991772100000162,769.7195224999996,None,None,1,,,,,,,,,,,,,,230,19,Male,2022-06-03_15h54.08.994,Main,2022.1.1,59.97580576010064,
negative,yellow,2,k,None,,,,,,,,,0,225,225,225,,,,,,,,,,,,,,,,,,,,,,,,,,,,,,,,,,,,,main,k,k,1,2.1152379999984987,772.7337346999993,None,None,0,,,,,,,,,,,,,,230,19,Male,2022-06-03_15h54.08.994,Main,2022.1.1,59.97580576010064,
negative,blue,2,None,k,,,,,,,,,0,226,226,226,,,,,,,,,,,,,,,,,,,,,,,,,,,,,,,,,,,,,main,None,k,0,0.8437311000016052,776.8669401999996,None,None,1,,,,,,,,,,,,,,230,19,Male,2022-06-03_15h54.08.994,Main,2022.1.1,59.97580576010064,
positive,red,2,None,None,,,,,,,,,0,227,227,227,,,,,,,,,,,,,,,,,,,,,,,,,,,,,,,,,,,,,main,None,None,1,1.4902495999995153,779.7159379999994,None,None,1,,,,,,,,,,,,,,230,19,Male,2022-06-03_15h54.08.994,Main,2022.1.1,59.97580576010064,
positive,blue,2,k,None,,,,,,,,,0,228,228,228,,,,,,,,,,,,,,,,,,,,,,,,,,,,,,,,,,,,,main,k,k,1,2.9385395999997854,782.2083070000008,None,None,0,,,,,,,,,,,,,,230,19,Male,2022-06-03_15h54.08.994,Main,2022.1.1,59.97580576010064,
negative,blue,1,None,k,,,,,,,,,0,229,229,229,,,,,,,,,,,,,,,,,,,,,,,,,,,,,,,,,,,,,main,None,None,1,1.4977737000008347,787.1680759999999,None,None,1,,,,,,,,,,,,,,230,19,Male,2022-06-03_15h54.08.994,Main,2022.1.1,59.97580576010064,
positive,yellow,1,None,k,,,,,,,,,0,230,230,230,,,,,,,,,,,,,,,,,,,,,,,,,,,,,,,,,,,,,main,None,None,1,1.5059509000002436,789.6654448999998,None,None,1,,,,,,,,,,,,,,230,19,Male,2022-06-03_15h54.08.994,Main,2022.1.1,59.97580576010064,
negative,blue,2,None,k,,,,,,,,,0,231,231,231,,,,,,,,,,,,,,,,,,,,,,,,,,,,,,,,,,,,,main,None,k,0,1.2979123999994044,792.1749772000003,None,None,1,,,,,,,,,,,,,,230,19,Male,2022-06-03_15h54.08.994,Main,2022.1.1,59.97580576010064,
negative,red,1,None,None,,,,,,,,,0,232,232,232,,,,,,,,,,,,,,,,,,,,,,,,,,,,,,,,,,,,,main,None,k,0,1.3926747999994404,795.4795116000005,None,None,1,,,,,,,,,,,,,,230,19,Male,2022-06-03_15h54.08.994,Main,2022.1.1,59.97580576010064,
positive,blue,2,k,None,,,,,,,,,0,233,233,233,,,,,,,,,,,,,,,,,,,,,,,,,,,,,,,,,,,,,main,k,k,1,3.92726760000005,798.8804001000008,None,None,0,,,,,,,,,,,,,,230,19,Male,2022-06-03_15h54.08.994,Main,2022.1.1,59.97580576010064,
negative,yellow,1,k,None,,,,,,,,,0,234,234,234,,,,,,,,,,,,,,,,,,,,,,,,,,,,,,,,,,,,,main,k,k,1,3.605729599999904,804.8127595999995,None,None,0,,,,,,,,,,,,,,230,19,Male,2022-06-03_15h54.08.994,Main,2022.1.1,59.97580576010064,
negative,yellow,2,k,None,,,,,,,,,0,235,235,235,,,,,,,,,,,,,,,,,,,,,,,,,,,,,,,,,,,,,main,k,k,1,7.254078299998582,810.4289752000004,None,None,0,,,,,,,,,,,,,,230,19,Male,2022-06-03_15h54.08.994,Main,2022.1.1,59.97580576010064,
positive,red,1,None,None,,,,,,,,,0,236,236,236,,,,,,,,,,,,,,,,,,,,,,,,,,,,,,,,,,,,,main,None,None,1,1.5001682999991317,819.6944323999996,None,None,1,,,,,,,,,,,,,,230,19,Male,2022-06-03_15h54.08.994,Main,2022.1.1,59.97580576010064,
negative,red,2,None,None,,,,,,,,,0,237,237,237,,,,,,,,,,,,,,,,,,,,,,,,,,,,,,,,,,,,,main,None,None,1,1.5132286000007298,822.1976047999997,None,None,1,,,,,,,,,,,,,,230,19,Male,2022-06-03_15h54.08.994,Main,2022.1.1,59.97580576010064,
negative,blue,1,None,k,,,,,,,,,0,238,238,238,,,,,,,,,,,,,,,,,,,,,,,,,,,,,,,,,,,,,main,None,None,1,1.5003651000006357,824.7095955999994,None,None,1,,,,,,,,,,,,,,230,19,Male,2022-06-03_15h54.08.994,Main,2022.1.1,59.97580576010064,
positive,blue,1,k,None,,,,,,,,,0,239,239,239,,,,,,,,,,,,,,,,,,,,,,,,,,,,,,,,,,,,,main,k,k,1,1.8314708999987488,827.2150985000007,None,None,0,,,,,,,,,,,,,,230,19,Male,2022-06-03_15h54.08.994,Main,2022.1.1,59.97580576010064,
,,,,,,,,,,,,,,,,,,,,,,,,,,,,,,,,,,,,,,,,,,,,,,,,,,,,,,,,,,,,,,,,,,,,,,,,,831.0562511999997,None,,,,,,,,
