distractor,target,set,ans1,ans2,rep_loop4.thisRepN,rep_loop4.thisTrialN,rep_loop4.thisN,rep_loop4.thisIndex,st2_prac_loop.thisRepN,st2_prac_loop.thisTrialN,st2_prac_loop.thisN,st2_prac_loop.thisIndex,st2_main_loop.thisRepN,st2_main_loop.thisTrialN,st2_main_loop.thisN,st2_main_loop.thisIndex,image_4.started,image_4.stopped,mouse_7.x,mouse_7.y,mouse_7.leftButton,mouse_7.midButton,mouse_7.rightButton,sound_2.started,sound_2.stopped,key_resp_3.keys,mouse_5.x,mouse_5.y,mouse_5.leftButton,mouse_5.midButton,mouse_5.rightButton,mouse_5.started,mouse_5.stopped,yes_text2.started,yes_text2.stopped,no_text2.started,no_text2.stopped,mouse_3.x,mouse_3.y,mouse_3.leftButton,mouse_3.midButton,mouse_3.rightButton,mouse_3.started,mouse_3.stopped,st_prac_back.started,st_prac_back.stopped,st_prac_text.started,st_prac_text.stopped,st_fix_back.started,st_fix_back.stopped,st_fix_2.started,st_fix_2.stopped,main_prac,st_ans,st_res,st_corr,st_rt,st_back.started,st_back.stopped,st2_resp.keys,st2_resp.corr,st_main_back.started,st_main_back.stopped,st_main_text.started,st_main_text.stopped,mouse_4.x,mouse_4.y,mouse_4.leftButton,mouse_4.midButton,mouse_4.rightButton,mouse_4.started,mouse_4.stopped,text_2.started,text_2.stopped,id*,age*,gender*,date,expName,psychopyVersion,frameRate,
,,,,,,,,,,,,,,,,,25.00019640000005,None,0.1675926,-0.062037036,0,0,0,,,,,,,,,,,,,,,,,,,,,,,,,,,,,,,,,,,,,,,,,,,,,,,,,,,,231,22,Female,2022-06-03_17h19.08.280,Main,2022.1.1,60.00646869732698,
negative,yellow,1,k,None,,,,,0,0,0,0,,,,,,,,,,,,29.24572343999994,None,None,0.08425926,-0.34907407,0,0,0,1.0092259400000785,None,83.27259430000004,None,83.27259430000004,None,-0.08055556,-0.087037034,0,0,0,0.012505739999824073,None,85.5604249999999,None,85.5604249999999,None,87.57192179999993,None,87.57192179999993,None,prac,None,None,1,1.518103599999904,89.61279740000009,None,None,1,,,,,,,,,,,,,,231,22,Female,2022-06-03_17h19.08.280,Main,2022.1.1,60.00646869732698,
positive,red,2,None,None,,,,,0,1,1,1,,,,,,,,,,,,,,,,,,,,,,,,,,,,,,,,,,,,,,,,,prac,None,None,1,1.508673300000055,92.12083080000002,None,None,1,,,,,,,,,,,,,,231,22,Female,2022-06-03_17h19.08.280,Main,2022.1.1,60.00646869732698,
negative,blue,2,None,k,,,,,0,2,2,2,,,,,,,,,,,,,,,,,,,,,,,,,,,,,,,,,,,,,,,,,prac,k,k,1,0.8229972000001453,94.63093150000009,None,None,0,,,,,,,,,,,,,,231,22,Female,2022-06-03_17h19.08.280,Main,2022.1.1,60.00646869732698,
positive,yellow,1,None,k,,,,,0,3,3,3,,,,,,,,,,,,,,,,,,,,,,,,,,,,,,,,,,,,,,,,,prac,k,k,1,18.965461700000105,96.45158309999988,None,None,0,,,,,,,,,,,,,,231,22,Female,2022-06-03_17h19.08.280,Main,2022.1.1,60.00646869732698,
negative,blue,2,None,k,,,,,0,4,4,4,,,,,,,,,,,,,,,,,,,,,,,,,,,,,,,,,,,,,,,,,prac,k,k,1,0.9782064000000901,117.45261720000008,None,None,0,,,,,,,,,,,,,,231,22,Female,2022-06-03_17h19.08.280,Main,2022.1.1,60.00646869732698,
negative,blue,1,None,k,,,,,0,5,5,5,,,,,,,,,,,,,,,,,,,,,,,,,,,,,,,,,,,,,,,,,prac,k,k,1,6.631060299999945,119.4451732,None,None,0,,,,,,,,,,,,,,231,22,Female,2022-06-03_17h19.08.280,Main,2022.1.1,60.00646869732698,
negative,yellow,2,k,None,,,,,0,6,6,6,,,,,,,,,,,,,,,,,,,,,,,,,,,,,,,,,,,,,,,,,prac,None,None,1,1.5051467000000684,128.0679525999999,None,None,1,,,,,,,,,,,,,,231,22,Female,2022-06-03_17h19.08.280,Main,2022.1.1,60.00646869732698,
negative,red,1,None,None,,,,,0,7,7,7,,,,,,,,,,,,,,,,,,,,,,,,,,,,,,,,,,,,,,,,,prac,None,None,1,1.4980522000000747,130.57585790000007,None,None,1,,,,,,,,,,,,,,231,22,Female,2022-06-03_17h19.08.280,Main,2022.1.1,60.00646869732698,
positive,yellow,2,None,k,,,,,0,8,8,8,,,,,,,,,,,,,,,,,,,,,,,,,,,,,,,,,,,,,,,,,prac,k,k,1,1.142323000000033,133.0757962,None,None,0,,,,,,,,,,,,,,231,22,Female,2022-06-03_17h19.08.280,Main,2022.1.1,60.00646869732698,
negative,yellow,1,k,None,,,,,0,9,9,9,,,,,,,,,,,,,,,,,,,,,,,,,,,,,,,,,,,,,,,,,prac,None,None,1,1.505908800000043,135.21888689999992,None,None,1,,,,,,,,,,,,,,231,22,Female,2022-06-03_17h19.08.280,Main,2022.1.1,60.00646869732698,
positive,yellow,2,None,k,,,,,0,10,10,10,,,,,,,,,,,,,,,,,,,,,,,,,,,,,,,,,,,,,,,,,prac,k,k,1,1.1508461000000807,137.73546710000005,None,None,0,,,,,,,,,,,,,,231,22,Female,2022-06-03_17h19.08.280,Main,2022.1.1,60.00646869732698,
negative,yellow,2,k,None,,,,,0,11,11,11,,,,,,,,,,,,,,,,,,,,,,,,,,,,,,,,,,,,,,,,,prac,None,None,1,1.4978585999999723,139.8790257999999,None,None,1,,,,,,,,,,,,,,231,22,Female,2022-06-03_17h19.08.280,Main,2022.1.1,60.00646869732698,
negative,red,2,None,None,,,,,0,12,12,12,,,,,,,,,,,,,,,,,,,,,,,,,,,,,,,,,,,,,,,,,prac,None,None,1,1.4994702999999845,142.38269889999992,None,None,1,,,,,,,,,,,,,,231,22,Female,2022-06-03_17h19.08.280,Main,2022.1.1,60.00646869732698,
positive,red,1,None,None,,,,,0,13,13,13,,,,,,,,,,,,,,,,,,,,,,,,,,,,,,,,,,,,,,,,,prac,None,None,1,1.5028371000000789,144.87992499999996,None,None,1,,,,,,,,,,,,,,231,22,Female,2022-06-03_17h19.08.280,Main,2022.1.1,60.00646869732698,
positive,blue,2,k,None,,,,,0,14,14,14,,,,,,,,,,,,,,,,,,,,,,,,,,,,,,,,,,,,,,,,,prac,None,None,1,1.5105726000001596,147.38602259999993,None,None,1,,,,,,,,,,,,,,231,22,Female,2022-06-03_17h19.08.280,Main,2022.1.1,60.00646869732698,
positive,blue,1,k,None,,,,,0,15,15,15,,,,,,,,,,,,,,,,,,,,,,,,,,,,,,,,,,,,,,,,,prac,None,None,1,1.4994239000000107,149.9071386999999,None,None,1,,,,,,,,,,,,,,231,22,Female,2022-06-03_17h19.08.280,Main,2022.1.1,60.00646869732698,
negative,blue,1,None,k,,,,,0,16,16,16,,,,,,,,,,,,,,,,,,,,,,,,,,,,,,,,,,,,,,,,,prac,k,k,1,0.873780300000135,152.39767260000008,None,None,0,,,,,,,,,,,,,,231,22,Female,2022-06-03_17h19.08.280,Main,2022.1.1,60.00646869732698,
positive,blue,2,k,None,,,,,0,17,17,17,,,,,,,,,,,,,,,,,,,,,,,,,,,,,,,,,,,,,,,,,prac,None,None,1,1.5093408000000181,154.27426519999995,None,None,1,,,,,,,,,,,,,,231,22,Female,2022-06-03_17h19.08.280,Main,2022.1.1,60.00646869732698,
positive,blue,1,k,None,,,,,0,18,18,18,,,,,,,,,,,,,,,,,,,,,,,,,,,,,,,,,,,,,,,,,prac,None,None,1,1.4943958000001203,156.78682660000004,None,None,1,,,,,,,,,,,,,,231,22,Female,2022-06-03_17h19.08.280,Main,2022.1.1,60.00646869732698,
positive,yellow,1,None,k,,,,,0,19,19,19,,,,,,,,,,,,,,,,,,,,,,,,,,,,,,,,,,,,,,,,,prac,k,k,1,1.0158994999999322,159.2787120999999,None,None,0,,,,,,,,,,,,,,231,22,Female,2022-06-03_17h19.08.280,Main,2022.1.1,60.00646869732698,
negative,yellow,1,k,None,,,,,1,0,20,0,,,,,,,,,,,,,,,,,,,,,,,,,,,,,,,,,,,,,,,,,prac,None,None,1,1.5013077999999496,161.29675550000002,None,None,1,,,,,,,,,,,,,,231,22,Female,2022-06-03_17h19.08.280,Main,2022.1.1,60.00646869732698,
positive,red,2,None,None,,,,,1,1,21,1,,,,,,,,,,,,,,,,,,,,,,,,,,,,,,,,,,,,,,,,,prac,None,None,1,1.4975902999999562,163.80241550000005,None,None,1,,,,,,,,,,,,,,231,22,Female,2022-06-03_17h19.08.280,Main,2022.1.1,60.00646869732698,
negative,blue,2,None,k,,,,,1,2,22,2,,,,,,,,,,,,,,,,,,,,,,,,,,,,,,,,,,,,,,,,,prac,k,k,1,1.0061974000000191,166.30028100000004,None,None,0,,,,,,,,,,,,,,231,22,Female,2022-06-03_17h19.08.280,Main,2022.1.1,60.00646869732698,
positive,yellow,1,None,k,,,,,1,3,23,3,,,,,,,,,,,,,,,,,,,,,,,,,,,,,,,,,,,,,,,,,prac,k,k,1,1.0983980999999403,168.3073875,None,None,0,,,,,,,,,,,,,,231,22,Female,2022-06-03_17h19.08.280,Main,2022.1.1,60.00646869732698,
negative,blue,2,None,k,,,,,1,4,24,4,,,,,,,,,,,,,,,,,,,,,,,,,,,,,,,,,,,,,,,,,prac,k,k,1,1.0376470999999583,170.40740849999997,None,None,0,,,,,,,,,,,,,,231,22,Female,2022-06-03_17h19.08.280,Main,2022.1.1,60.00646869732698,
negative,blue,1,None,k,,,,,1,5,25,5,,,,,,,,,,,,,,,,,,,,,,,,,,,,,,,,,,,,,,,,,prac,k,k,1,2.250442000000021,172.44594830000005,None,None,0,,,,,,,,,,,,,,231,22,Female,2022-06-03_17h19.08.280,Main,2022.1.1,60.00646869732698,
negative,yellow,2,k,None,,,,,1,6,26,6,,,,,,,,,,,,,,,,,,,,,,,,,,,,,,,,,,,,,,,,,prac,None,None,1,1.4965412999999899,176.71249469999998,None,None,1,,,,,,,,,,,,,,231,22,Female,2022-06-03_17h19.08.280,Main,2022.1.1,60.00646869732698,
negative,red,1,None,None,,,,,1,7,27,7,,,,,,,,,,,,,,,,,,,,,,,,,,,,,,,,,,,,,,,,,prac,None,None,1,1.4955379999998968,179.20966950000002,None,None,1,,,,,,,,,,,,,,231,22,Female,2022-06-03_17h19.08.280,Main,2022.1.1,60.00646869732698,
positive,yellow,2,None,k,,,,,1,8,28,8,,,,,,,,,,,,,,,,,,,,,,,,,,,,,,,,,,,,,,,,,prac,k,k,1,1.0775060999999369,181.7077887999999,None,None,0,,,,,,,,,,,,,,231,22,Female,2022-06-03_17h19.08.280,Main,2022.1.1,60.00646869732698,
negative,yellow,1,k,None,,,,,1,9,29,9,,,,,,,,,,,,,,,,,,,,,,,,,,,,,,,,,,,,,,,,,prac,None,None,1,1.4991543000001002,183.78891870000007,None,None,1,,,,,,,,,,,,,,231,22,Female,2022-06-03_17h19.08.280,Main,2022.1.1,60.00646869732698,
positive,yellow,2,None,k,,,,,1,10,30,10,,,,,,,,,,,,,,,,,,,,,,,,,,,,,,,,,,,,,,,,,prac,k,k,1,0.7734458000002178,186.28933269999993,None,None,0,,,,,,,,,,,,,,231,22,Female,2022-06-03_17h19.08.280,Main,2022.1.1,60.00646869732698,
negative,yellow,2,k,None,,,,,1,11,31,11,,,,,,,,,,,,,,,,,,,,,,,,,,,,,,,,,,,,,,,,,prac,None,None,1,1.5074733000001288,188.06755090000001,None,None,1,,,,,,,,,,,,,,231,22,Female,2022-06-03_17h19.08.280,Main,2022.1.1,60.00646869732698,
negative,red,2,None,None,,,,,1,12,32,12,,,,,,,,,,,,,,,,,,,,,,,,,,,,,,,,,,,,,,,,,prac,None,None,1,1.5041469000000234,190.57441560000007,None,None,1,,,,,,,,,,,,,,231,22,Female,2022-06-03_17h19.08.280,Main,2022.1.1,60.00646869732698,
positive,red,1,None,None,,,,,1,13,33,13,,,,,,,,,,,,,,,,,,,,,,,,,,,,,,,,,,,,,,,,,prac,None,None,1,1.5021305000000211,193.08186709999995,None,None,1,,,,,,,,,,,,,,231,22,Female,2022-06-03_17h19.08.280,Main,2022.1.1,60.00646869732698,
positive,blue,2,k,None,,,,,1,14,34,14,,,,,,,,,,,,,,,,,,,,,,,,,,,,,,,,,,,,,,,,,prac,None,None,1,1.5073035000000345,195.5847033,None,None,1,,,,,,,,,,,,,,231,22,Female,2022-06-03_17h19.08.280,Main,2022.1.1,60.00646869732698,
positive,blue,1,k,None,,,,,1,15,35,15,,,,,,,,,,,,,,,,,,,,,,,,,,,,,,,,,,,,,,,,,prac,None,None,1,1.5102512000000843,198.09258049999994,None,None,1,,,,,,,,,,,,,,231,22,Female,2022-06-03_17h19.08.280,Main,2022.1.1,60.00646869732698,
negative,blue,1,None,k,,,,,1,16,36,16,,,,,,,,,,,,,,,,,,,,,,,,,,,,,,,,,,,,,,,,,prac,k,k,1,1.0842241000000286,200.60582640000007,None,None,0,,,,,,,,,,,,,,231,22,Female,2022-06-03_17h19.08.280,Main,2022.1.1,60.00646869732698,
positive,blue,2,k,None,,,,,1,17,37,17,,,,,,,,,,,,,,,,,,,,,,,,,,,,,,,,,,,,,,,,,prac,None,None,1,1.4982127000000673,202.69142020000004,None,None,1,,,,,,,,,,,,,,231,22,Female,2022-06-03_17h19.08.280,Main,2022.1.1,60.00646869732698,
positive,blue,1,k,None,,,,,1,18,38,18,,,,,,,,,,,,,,,,,,,,,,,,,,,,,,,,,,,,,,,,,prac,None,None,1,1.4969225999998343,205.1917410000001,None,None,1,,,,,,,,,,,,,,231,22,Female,2022-06-03_17h19.08.280,Main,2022.1.1,60.00646869732698,
positive,yellow,1,None,k,,,,,1,19,39,19,,,,,,,,,,,,,,,,,,,,,,,,,,,,,,,,,,,,,,,,,prac,k,k,1,0.9430314999999609,207.68983580000008,None,None,0,,,,,,,,,,,,,,231,22,Female,2022-06-03_17h19.08.280,Main,2022.1.1,60.00646869732698,
,,,,,,,,,,,,,,,,,,,,,,,,,,,,,,,,,,,,,,,,,,,,,,,,,,,,,,,,,,,,,,209.65168670000003,None,209.65168670000003,None,0.08888889,-0.083333336,0,0,0,0.01172894000001179,None,,,231,22,Female,2022-06-03_17h19.08.280,Main,2022.1.1,60.00646869732698,
negative,yellow,2,k,None,,,,,,,,,0,0,0,0,,,,,,,,,,,,,,,,,,,,,,,,,,,,,,,,,224.62411470000006,None,224.62411470000006,None,main,None,None,1,1.4943334999998115,226.69152470000017,None,None,1,,,,,,,,,,,,,,231,22,Female,2022-06-03_17h19.08.280,Main,2022.1.1,60.00646869732698,
positive,red,1,None,None,,,,,,,,,0,1,1,1,,,,,,,,,,,,,,,,,,,,,,,,,,,,,,,,,,,,,main,None,None,1,1.4976857999999993,229.18809229999988,None,None,1,,,,,,,,,,,,,,231,22,Female,2022-06-03_17h19.08.280,Main,2022.1.1,60.00646869732698,
positive,blue,2,k,None,,,,,,,,,0,2,2,2,,,,,,,,,,,,,,,,,,,,,,,,,,,,,,,,,,,,,main,None,None,1,1.5039801000002626,231.68593629999987,None,None,1,,,,,,,,,,,,,,231,22,Female,2022-06-03_17h19.08.280,Main,2022.1.1,60.00646869732698,
positive,blue,1,k,None,,,,,,,,,0,3,3,3,,,,,,,,,,,,,,,,,,,,,,,,,,,,,,,,,,,,,main,None,None,1,1.5105625999999575,234.19373970000015,None,None,1,,,,,,,,,,,,,,231,22,Female,2022-06-03_17h19.08.280,Main,2022.1.1,60.00646869732698,
negative,yellow,2,k,None,,,,,,,,,0,4,4,4,,,,,,,,,,,,,,,,,,,,,,,,,,,,,,,,,,,,,main,None,None,1,1.4981809000000794,236.70356579999998,None,None,1,,,,,,,,,,,,,,231,22,Female,2022-06-03_17h19.08.280,Main,2022.1.1,60.00646869732698,
positive,yellow,2,None,k,,,,,,,,,0,5,5,5,,,,,,,,,,,,,,,,,,,,,,,,,,,,,,,,,,,,,main,k,k,1,1.4457441999998082,239.20384980000017,None,None,0,,,,,,,,,,,,,,231,22,Female,2022-06-03_17h19.08.280,Main,2022.1.1,60.00646869732698,
negative,blue,2,None,k,,,,,,,,,0,6,6,6,,,,,,,,,,,,,,,,,,,,,,,,,,,,,,,,,,,,,main,k,k,1,0.8500036000000364,241.65050070000007,None,None,0,,,,,,,,,,,,,,231,22,Female,2022-06-03_17h19.08.280,Main,2022.1.1,60.00646869732698,
positive,red,2,None,None,,,,,,,,,0,7,7,7,,,,,,,,,,,,,,,,,,,,,,,,,,,,,,,,,,,,,main,None,None,1,1.5023353000001407,243.50429750000012,None,None,1,,,,,,,,,,,,,,231,22,Female,2022-06-03_17h19.08.280,Main,2022.1.1,60.00646869732698,
positive,yellow,1,None,k,,,,,,,,,0,8,8,8,,,,,,,,,,,,,,,,,,,,,,,,,,,,,,,,,,,,,main,k,k,1,0.8799471000002086,246.0100849999999,None,None,0,,,,,,,,,,,,,,231,22,Female,2022-06-03_17h19.08.280,Main,2022.1.1,60.00646869732698,
negative,red,1,None,None,,,,,,,,,0,9,9,9,,,,,,,,,,,,,,,,,,,,,,,,,,,,,,,,,,,,,main,None,None,1,1.5053972000000613,247.89152479999984,None,None,1,,,,,,,,,,,,,,231,22,Female,2022-06-03_17h19.08.280,Main,2022.1.1,60.00646869732698,
positive,yellow,1,None,k,,,,,,,,,0,10,10,10,,,,,,,,,,,,,,,,,,,,,,,,,,,,,,,,,,,,,main,k,k,1,0.8332870999997795,250.39697549999983,None,None,0,,,,,,,,,,,,,,231,22,Female,2022-06-03_17h19.08.280,Main,2022.1.1,60.00646869732698,
negative,yellow,1,k,None,,,,,,,,,0,11,11,11,,,,,,,,,,,,,,,,,,,,,,,,,,,,,,,,,,,,,main,None,None,1,1.510117999999693,252.23333309999998,None,None,1,,,,,,,,,,,,,,231,22,Female,2022-06-03_17h19.08.280,Main,2022.1.1,60.00646869732698,
negative,yellow,1,k,None,,,,,,,,,0,12,12,12,,,,,,,,,,,,,,,,,,,,,,,,,,,,,,,,,,,,,main,None,None,1,1.4995137000000796,254.7462641000002,None,None,1,,,,,,,,,,,,,,231,22,Female,2022-06-03_17h19.08.280,Main,2022.1.1,60.00646869732698,
negative,red,2,None,None,,,,,,,,,0,13,13,13,,,,,,,,,,,,,,,,,,,,,,,,,,,,,,,,,,,,,main,None,None,1,1.5074223999999958,257.2463859999998,None,None,1,,,,,,,,,,,,,,231,22,Female,2022-06-03_17h19.08.280,Main,2022.1.1,60.00646869732698,
positive,yellow,2,None,k,,,,,,,,,0,14,14,14,,,,,,,,,,,,,,,,,,,,,,,,,,,,,,,,,,,,,main,k,k,1,0.8033856000001833,259.7576039999999,None,None,0,,,,,,,,,,,,,,231,22,Female,2022-06-03_17h19.08.280,Main,2022.1.1,60.00646869732698,
positive,blue,1,k,None,,,,,,,,,0,15,15,15,,,,,,,,,,,,,,,,,,,,,,,,,,,,,,,,,,,,,main,None,None,1,1.5102088000003278,261.562363,None,None,1,,,,,,,,,,,,,,231,22,Female,2022-06-03_17h19.08.280,Main,2022.1.1,60.00646869732698,
negative,blue,1,None,k,,,,,,,,,0,16,16,16,,,,,,,,,,,,,,,,,,,,,,,,,,,,,,,,,,,,,main,k,k,1,0.7509832000000642,264.0743550000002,None,None,0,,,,,,,,,,,,,,231,22,Female,2022-06-03_17h19.08.280,Main,2022.1.1,60.00646869732698,
positive,blue,2,k,None,,,,,,,,,0,17,17,17,,,,,,,,,,,,,,,,,,,,,,,,,,,,,,,,,,,,,main,None,None,1,1.4941470000003392,265.82614490000014,None,None,1,,,,,,,,,,,,,,231,22,Female,2022-06-03_17h19.08.280,Main,2022.1.1,60.00646869732698,
negative,blue,2,None,k,,,,,,,,,0,18,18,18,,,,,,,,,,,,,,,,,,,,,,,,,,,,,,,,,,,,,main,k,k,1,0.848855199999889,268.3231211000002,None,None,0,,,,,,,,,,,,,,231,22,Female,2022-06-03_17h19.08.280,Main,2022.1.1,60.00646869732698,
negative,blue,1,None,k,,,,,,,,,0,19,19,19,,,,,,,,,,,,,,,,,,,,,,,,,,,,,,,,,,,,,main,k,k,1,0.9773677000002863,270.1749662000002,None,None,0,,,,,,,,,,,,,,231,22,Female,2022-06-03_17h19.08.280,Main,2022.1.1,60.00646869732698,
negative,blue,1,None,k,,,,,,,,,0,20,20,20,,,,,,,,,,,,,,,,,,,,,,,,,,,,,,,,,,,,,main,k,k,1,0.8744447999997647,272.1532145000001,None,None,0,,,,,,,,,,,,,,231,22,Female,2022-06-03_17h19.08.280,Main,2022.1.1,60.00646869732698,
negative,blue,2,None,k,,,,,,,,,0,21,21,21,,,,,,,,,,,,,,,,,,,,,,,,,,,,,,,,,,,,,main,k,k,1,0.8898042999999234,274.0314423,None,None,0,,,,,,,,,,,,,,231,22,Female,2022-06-03_17h19.08.280,Main,2022.1.1,60.00646869732698,
negative,red,1,None,None,,,,,,,,,0,22,22,22,,,,,,,,,,,,,,,,,,,,,,,,,,,,,,,,,,,,,main,None,None,1,1.4990041999999448,275.9227774000001,None,None,1,,,,,,,,,,,,,,231,22,Female,2022-06-03_17h19.08.280,Main,2022.1.1,60.00646869732698,
positive,red,2,None,None,,,,,,,,,0,23,23,23,,,,,,,,,,,,,,,,,,,,,,,,,,,,,,,,,,,,,main,None,None,1,1.5005911000002925,278.42264840000007,None,None,1,,,,,,,,,,,,,,231,22,Female,2022-06-03_17h19.08.280,Main,2022.1.1,60.00646869732698,
negative,red,2,None,None,,,,,,,,,0,24,24,24,,,,,,,,,,,,,,,,,,,,,,,,,,,,,,,,,,,,,main,None,None,1,1.4948362000000088,280.9242432000001,None,None,1,,,,,,,,,,,,,,231,22,Female,2022-06-03_17h19.08.280,Main,2022.1.1,60.00646869732698,
positive,blue,2,k,None,,,,,,,,,0,25,25,25,,,,,,,,,,,,,,,,,,,,,,,,,,,,,,,,,,,,,main,None,None,1,1.505124799999976,283.4211758000001,None,None,1,,,,,,,,,,,,,,231,22,Female,2022-06-03_17h19.08.280,Main,2022.1.1,60.00646869732698,
negative,yellow,1,k,None,,,,,,,,,0,26,26,26,,,,,,,,,,,,,,,,,,,,,,,,,,,,,,,,,,,,,main,None,None,1,1.501984900000025,285.92720469999995,None,None,1,,,,,,,,,,,,,,231,22,Female,2022-06-03_17h19.08.280,Main,2022.1.1,60.00646869732698,
positive,blue,2,k,None,,,,,,,,,0,27,27,27,,,,,,,,,,,,,,,,,,,,,,,,,,,,,,,,,,,,,main,None,None,1,1.5042530000000625,288.43258890000016,None,None,1,,,,,,,,,,,,,,231,22,Female,2022-06-03_17h19.08.280,Main,2022.1.1,60.00646869732698,
negative,blue,2,None,k,,,,,,,,,0,28,28,28,,,,,,,,,,,,,,,,,,,,,,,,,,,,,,,,,,,,,main,k,k,1,0.7509148999997706,290.9385996000001,None,None,0,,,,,,,,,,,,,,231,22,Female,2022-06-03_17h19.08.280,Main,2022.1.1,60.00646869732698,
positive,red,1,None,None,,,,,,,,,0,29,29,29,,,,,,,,,,,,,,,,,,,,,,,,,,,,,,,,,,,,,main,None,None,1,1.5050380000002406,292.6910545999999,None,None,1,,,,,,,,,,,,,,231,22,Female,2022-06-03_17h19.08.280,Main,2022.1.1,60.00646869732698,
positive,blue,1,k,None,,,,,,,,,0,30,30,30,,,,,,,,,,,,,,,,,,,,,,,,,,,,,,,,,,,,,main,None,None,1,1.5032145000000128,295.1957855999999,None,None,1,,,,,,,,,,,,,,231,22,Female,2022-06-03_17h19.08.280,Main,2022.1.1,60.00646869732698,
positive,yellow,1,None,k,,,,,,,,,0,31,31,31,,,,,,,,,,,,,,,,,,,,,,,,,,,,,,,,,,,,,main,k,k,1,0.6941716999999699,297.70306100000016,None,None,0,,,,,,,,,,,,,,231,22,Female,2022-06-03_17h19.08.280,Main,2022.1.1,60.00646869732698,
negative,yellow,2,k,None,,,,,,,,,0,32,32,32,,,,,,,,,,,,,,,,,,,,,,,,,,,,,,,,,,,,,main,None,None,1,1.498124799999914,299.39571350000006,None,None,1,,,,,,,,,,,,,,231,22,Female,2022-06-03_17h19.08.280,Main,2022.1.1,60.00646869732698,
negative,blue,1,None,k,,,,,,,,,0,33,33,33,,,,,,,,,,,,,,,,,,,,,,,,,,,,,,,,,,,,,main,k,k,1,0.9482049000002917,301.8960926,None,None,0,,,,,,,,,,,,,,231,22,Female,2022-06-03_17h19.08.280,Main,2022.1.1,60.00646869732698,
positive,blue,1,k,None,,,,,,,,,0,34,34,34,,,,,,,,,,,,,,,,,,,,,,,,,,,,,,,,,,,,,main,None,None,1,1.4966521000001194,303.8458258999999,None,None,1,,,,,,,,,,,,,,231,22,Female,2022-06-03_17h19.08.280,Main,2022.1.1,60.00646869732698,
negative,yellow,1,k,None,,,,,,,,,0,35,35,35,,,,,,,,,,,,,,,,,,,,,,,,,,,,,,,,,,,,,main,None,None,1,1.511001600000327,306.34322199999997,None,None,1,,,,,,,,,,,,,,231,22,Female,2022-06-03_17h19.08.280,Main,2022.1.1,60.00646869732698,
positive,yellow,2,None,k,,,,,,,,,0,36,36,36,,,,,,,,,,,,,,,,,,,,,,,,,,,,,,,,,,,,,main,k,k,1,0.7278887000002214,308.85783600000013,None,None,0,,,,,,,,,,,,,,231,22,Female,2022-06-03_17h19.08.280,Main,2022.1.1,60.00646869732698,
positive,yellow,2,None,k,,,,,,,,,0,37,37,37,,,,,,,,,,,,,,,,,,,,,,,,,,,,,,,,,,,,,main,k,k,1,0.6354974999999286,310.58869189999996,None,None,0,,,,,,,,,,,,,,231,22,Female,2022-06-03_17h19.08.280,Main,2022.1.1,60.00646869732698,
negative,yellow,2,k,None,,,,,,,,,0,38,38,38,,,,,,,,,,,,,,,,,,,,,,,,,,,,,,,,,,,,,main,None,None,1,1.5072454999999536,312.2252305000002,None,None,1,,,,,,,,,,,,,,231,22,Female,2022-06-03_17h19.08.280,Main,2022.1.1,60.00646869732698,
positive,yellow,1,None,k,,,,,,,,,0,39,39,39,,,,,,,,,,,,,,,,,,,,,,,,,,,,,,,,,,,,,main,k,k,1,0.8269382999997106,314.73542099999986,None,None,0,,,,,,,,,,,,,,231,22,Female,2022-06-03_17h19.08.280,Main,2022.1.1,60.00646869732698,
negative,yellow,2,k,None,,,,,,,,,0,40,40,40,,,,,,,,,,,,,,,,,,,,,,,,,,,,,,,,,,,,,main,None,None,1,1.4948394000002736,316.5643792999999,None,None,1,,,,,,,,,,,,,,231,22,Female,2022-06-03_17h19.08.280,Main,2022.1.1,60.00646869732698,
positive,blue,2,k,None,,,,,,,,,0,41,41,41,,,,,,,,,,,,,,,,,,,,,,,,,,,,,,,,,,,,,main,None,None,1,1.510815999999977,319.0592144000002,None,None,1,,,,,,,,,,,,,,231,22,Female,2022-06-03_17h19.08.280,Main,2022.1.1,60.00646869732698,
positive,blue,2,k,None,,,,,,,,,0,42,42,42,,,,,,,,,,,,,,,,,,,,,,,,,,,,,,,,,,,,,main,None,None,1,1.5123273999997764,321.5730407000001,None,None,1,,,,,,,,,,,,,,231,22,Female,2022-06-03_17h19.08.280,Main,2022.1.1,60.00646869732698,
negative,blue,2,None,k,,,,,,,,,0,43,43,43,,,,,,,,,,,,,,,,,,,,,,,,,,,,,,,,,,,,,main,k,k,1,0.7012743999998747,324.08852019999995,None,None,0,,,,,,,,,,,,,,231,22,Female,2022-06-03_17h19.08.280,Main,2022.1.1,60.00646869732698,
negative,red,1,None,None,,,,,,,,,0,44,44,44,,,,,,,,,,,,,,,,,,,,,,,,,,,,,,,,,,,,,main,None,None,1,1.5051816999998664,325.7914492,None,None,1,,,,,,,,,,,,,,231,22,Female,2022-06-03_17h19.08.280,Main,2022.1.1,60.00646869732698,
negative,yellow,1,k,None,,,,,,,,,0,45,45,45,,,,,,,,,,,,,,,,,,,,,,,,,,,,,,,,,,,,,main,None,None,1,1.496804599999905,328.3001276,None,None,1,,,,,,,,,,,,,,231,22,Female,2022-06-03_17h19.08.280,Main,2022.1.1,60.00646869732698,
negative,yellow,1,k,None,,,,,,,,,0,46,46,46,,,,,,,,,,,,,,,,,,,,,,,,,,,,,,,,,,,,,main,None,None,1,1.5084192999997867,330.79858749999994,None,None,1,,,,,,,,,,,,,,231,22,Female,2022-06-03_17h19.08.280,Main,2022.1.1,60.00646869732698,
positive,red,1,None,None,,,,,,,,,0,47,47,47,,,,,,,,,,,,,,,,,,,,,,,,,,,,,,,,,,,,,main,None,None,1,1.4951255000000856,333.30704890000015,None,None,1,,,,,,,,,,,,,,231,22,Female,2022-06-03_17h19.08.280,Main,2022.1.1,60.00646869732698,
positive,yellow,1,None,k,,,,,,,,,0,48,48,48,,,,,,,,,,,,,,,,,,,,,,,,,,,,,,,,,,,,,main,k,k,1,0.8942984000000251,335.80458210000006,None,None,0,,,,,,,,,,,,,,231,22,Female,2022-06-03_17h19.08.280,Main,2022.1.1,60.00646869732698,
negative,blue,1,None,k,,,,,,,,,0,49,49,49,,,,,,,,,,,,,,,,,,,,,,,,,,,,,,,,,,,,,main,k,k,1,0.9750711000001502,337.7017264000001,None,None,0,,,,,,,,,,,,,,231,22,Female,2022-06-03_17h19.08.280,Main,2022.1.1,60.00646869732698,
positive,yellow,2,None,k,,,,,,,,,0,50,50,50,,,,,,,,,,,,,,,,,,,,,,,,,,,,,,,,,,,,,main,k,k,1,1.0925875000002634,339.6792019999998,None,None,0,,,,,,,,,,,,,,231,22,Female,2022-06-03_17h19.08.280,Main,2022.1.1,60.00646869732698,
negative,blue,1,None,k,,,,,,,,,0,51,51,51,,,,,,,,,,,,,,,,,,,,,,,,,,,,,,,,,,,,,main,k,k,1,0.8880133000002388,341.77208999999993,None,None,0,,,,,,,,,,,,,,231,22,Female,2022-06-03_17h19.08.280,Main,2022.1.1,60.00646869732698,
positive,red,2,None,None,,,,,,,,,0,52,52,52,,,,,,,,,,,,,,,,,,,,,,,,,,,,,,,,,,,,,main,None,None,1,1.4968705999999656,343.6638152999999,None,None,1,,,,,,,,,,,,,,231,22,Female,2022-06-03_17h19.08.280,Main,2022.1.1,60.00646869732698,
positive,yellow,2,None,k,,,,,,,,,0,53,53,53,,,,,,,,,,,,,,,,,,,,,,,,,,,,,,,,,,,,,main,k,k,1,0.8571225999999115,346.16137590000017,None,None,0,,,,,,,,,,,,,,231,22,Female,2022-06-03_17h19.08.280,Main,2022.1.1,60.00646869732698,
negative,red,2,None,None,,,,,,,,,0,54,54,54,,,,,,,,,,,,,,,,,,,,,,,,,,,,,,,,,,,,,main,None,None,1,1.4979886000000988,348.0195097999999,None,None,1,,,,,,,,,,,,,,231,22,Female,2022-06-03_17h19.08.280,Main,2022.1.1,60.00646869732698,
positive,yellow,1,None,k,,,,,,,,,0,55,55,55,,,,,,,,,,,,,,,,,,,,,,,,,,,,,,,,,,,,,main,k,k,1,0.7817273999999088,350.51987370000006,None,None,0,,,,,,,,,,,,,,231,22,Female,2022-06-03_17h19.08.280,Main,2022.1.1,60.00646869732698,
negative,blue,2,None,k,,,,,,,,,0,56,56,56,,,,,,,,,,,,,,,,,,,,,,,,,,,,,,,,,,,,,main,k,k,1,0.972823900000094,352.3030272000001,None,None,0,,,,,,,,,,,,,,231,22,Female,2022-06-03_17h19.08.280,Main,2022.1.1,60.00646869732698,
positive,blue,1,k,None,,,,,,,,,0,57,57,57,,,,,,,,,,,,,,,,,,,,,,,,,,,,,,,,,,,,,main,None,None,1,1.504143799999838,354.27966879999985,None,None,1,,,,,,,,,,,,,,231,22,Female,2022-06-03_17h19.08.280,Main,2022.1.1,60.00646869732698,
positive,blue,1,k,None,,,,,,,,,0,58,58,58,,,,,,,,,,,,,,,,,,,,,,,,,,,,,,,,,,,,,main,None,None,1,1.4968886000001476,356.7849550000001,None,None,1,,,,,,,,,,,,,,231,22,Female,2022-06-03_17h19.08.280,Main,2022.1.1,60.00646869732698,
negative,yellow,2,k,None,,,,,,,,,0,59,59,59,,,,,,,,,,,,,,,,,,,,,,,,,,,,,,,,,,,,,main,None,k,0,1.1357464000002437,359.28515449999986,None,None,1,,,,,,,,,,,,,,231,22,Female,2022-06-03_17h19.08.280,Main,2022.1.1,60.00646869732698,
positive,red,2,None,None,,,,,,,,,0,60,60,60,,,,,,,,,,,,,,,,,,,,,,,,,,,,,,,,,,,,,main,None,None,1,1.4906727999996292,362.43815829999994,None,None,1,,,,,,,,,,,,,,231,22,Female,2022-06-03_17h19.08.280,Main,2022.1.1,60.00646869732698,
negative,yellow,1,k,None,,,,,,,,,0,61,61,61,,,,,,,,,,,,,,,,,,,,,,,,,,,,,,,,,,,,,main,None,None,1,1.5095955000001595,364.93036459999985,None,None,1,,,,,,,,,,,,,,231,22,Female,2022-06-03_17h19.08.280,Main,2022.1.1,60.00646869732698,
negative,red,1,None,None,,,,,,,,,0,62,62,62,,,,,,,,,,,,,,,,,,,,,,,,,,,,,,,,,,,,,main,None,None,1,1.5102062999999362,367.44229069999983,None,None,1,,,,,,,,,,,,,,231,22,Female,2022-06-03_17h19.08.280,Main,2022.1.1,60.00646869732698,
negative,blue,1,None,k,,,,,,,,,0,63,63,63,,,,,,,,,,,,,,,,,,,,,,,,,,,,,,,,,,,,,main,k,k,1,0.705910700000004,369.9522324999998,None,None,0,,,,,,,,,,,,,,231,22,Female,2022-06-03_17h19.08.280,Main,2022.1.1,60.00646869732698,
positive,blue,2,k,None,,,,,,,,,0,64,64,64,,,,,,,,,,,,,,,,,,,,,,,,,,,,,,,,,,,,,main,None,None,1,1.5075222000000394,371.6616291,None,None,1,,,,,,,,,,,,,,231,22,Female,2022-06-03_17h19.08.280,Main,2022.1.1,60.00646869732698,
negative,yellow,2,k,None,,,,,,,,,0,65,65,65,,,,,,,,,,,,,,,,,,,,,,,,,,,,,,,,,,,,,main,None,None,1,1.5103232000001299,374.1685603000001,None,None,1,,,,,,,,,,,,,,231,22,Female,2022-06-03_17h19.08.280,Main,2022.1.1,60.00646869732698,
positive,yellow,2,None,k,,,,,,,,,0,66,66,66,,,,,,,,,,,,,,,,,,,,,,,,,,,,,,,,,,,,,main,k,k,1,0.6967437000002974,376.6820633000002,None,None,0,,,,,,,,,,,,,,231,22,Female,2022-06-03_17h19.08.280,Main,2022.1.1,60.00646869732698,
positive,yellow,2,None,k,,,,,,,,,0,67,67,67,,,,,,,,,,,,,,,,,,,,,,,,,,,,,,,,,,,,,main,k,k,1,0.7045758999997815,378.38137019999976,None,None,0,,,,,,,,,,,,,,231,22,Female,2022-06-03_17h19.08.280,Main,2022.1.1,60.00646869732698,
positive,red,1,None,None,,,,,,,,,0,68,68,68,,,,,,,,,,,,,,,,,,,,,,,,,,,,,,,,,,,,,main,None,None,1,1.4977741999996397,380.08582509999997,None,None,1,,,,,,,,,,,,,,231,22,Female,2022-06-03_17h19.08.280,Main,2022.1.1,60.00646869732698,
positive,yellow,1,None,k,,,,,,,,,0,69,69,69,,,,,,,,,,,,,,,,,,,,,,,,,,,,,,,,,,,,,main,k,k,1,0.7481422999999268,382.58468200000016,None,None,0,,,,,,,,,,,,,,231,22,Female,2022-06-03_17h19.08.280,Main,2022.1.1,60.00646869732698,
negative,yellow,2,k,None,,,,,,,,,0,70,70,70,,,,,,,,,,,,,,,,,,,,,,,,,,,,,,,,,,,,,main,None,None,1,1.5029018000000178,384.33714229999987,None,None,1,,,,,,,,,,,,,,231,22,Female,2022-06-03_17h19.08.280,Main,2022.1.1,60.00646869732698,
positive,yellow,1,None,k,,,,,,,,,0,71,71,71,,,,,,,,,,,,,,,,,,,,,,,,,,,,,,,,,,,,,main,k,k,1,0.6792364000002635,386.8432974000002,None,None,0,,,,,,,,,,,,,,231,22,Female,2022-06-03_17h19.08.280,Main,2022.1.1,60.00646869732698,
negative,blue,1,None,k,,,,,,,,,0,72,72,72,,,,,,,,,,,,,,,,,,,,,,,,,,,,,,,,,,,,,main,k,k,1,1.0628154000000904,388.52386620000016,None,None,0,,,,,,,,,,,,,,231,22,Female,2022-06-03_17h19.08.280,Main,2022.1.1,60.00646869732698,
negative,red,2,None,None,,,,,,,,,0,73,73,73,,,,,,,,,,,,,,,,,,,,,,,,,,,,,,,,,,,,,main,None,None,1,1.499551899999915,390.58787859999984,None,None,1,,,,,,,,,,,,,,231,22,Female,2022-06-03_17h19.08.280,Main,2022.1.1,60.00646869732698,
positive,blue,2,k,None,,,,,,,,,0,74,74,74,,,,,,,,,,,,,,,,,,,,,,,,,,,,,,,,,,,,,main,None,None,1,1.5100815000000694,393.08882570000014,None,None,1,,,,,,,,,,,,,,231,22,Female,2022-06-03_17h19.08.280,Main,2022.1.1,60.00646869732698,
negative,blue,2,None,k,,,,,,,,,0,75,75,75,,,,,,,,,,,,,,,,,,,,,,,,,,,,,,,,,,,,,main,k,k,1,0.8543814999998176,395.5986407999999,None,None,0,,,,,,,,,,,,,,231,22,Female,2022-06-03_17h19.08.280,Main,2022.1.1,60.00646869732698,
negative,blue,2,None,k,,,,,,,,,0,76,76,76,,,,,,,,,,,,,,,,,,,,,,,,,,,,,,,,,,,,,main,k,k,1,0.912242200000037,397.4560296999998,None,None,0,,,,,,,,,,,,,,231,22,Female,2022-06-03_17h19.08.280,Main,2022.1.1,60.00646869732698,
negative,yellow,1,k,None,,,,,,,,,0,77,77,77,,,,,,,,,,,,,,,,,,,,,,,,,,,,,,,,,,,,,main,None,None,1,1.5088571999999658,399.36973290000014,None,None,1,,,,,,,,,,,,,,231,22,Female,2022-06-03_17h19.08.280,Main,2022.1.1,60.00646869732698,
positive,blue,1,k,None,,,,,,,,,0,78,78,78,,,,,,,,,,,,,,,,,,,,,,,,,,,,,,,,,,,,,main,None,None,1,1.4994805999999699,401.8802363,None,None,1,,,,,,,,,,,,,,231,22,Female,2022-06-03_17h19.08.280,Main,2022.1.1,60.00646869732698,
positive,blue,1,k,None,,,,,,,,,0,79,79,79,,,,,,,,,,,,,,,,,,,,,,,,,,,,,,,,,,,,,main,None,None,1,1.4973904999997103,404.3815430999998,None,None,1,,,,,,,,,,,,,,231,22,Female,2022-06-03_17h19.08.280,Main,2022.1.1,60.00646869732698,
positive,red,2,None,None,,,,,,,,,0,80,80,80,,,,,,,,,,,,,,,,,,,,,,,,,,,,,,,,,,,,,main,None,None,1,1.4993079999999281,406.8796883,None,None,1,,,,,,,,,,,,,,231,22,Female,2022-06-03_17h19.08.280,Main,2022.1.1,60.00646869732698,
positive,yellow,2,None,k,,,,,,,,,0,81,81,81,,,,,,,,,,,,,,,,,,,,,,,,,,,,,,,,,,,,,main,k,k,1,0.8589192999997977,409.3831795000001,None,None,0,,,,,,,,,,,,,,231,22,Female,2022-06-03_17h19.08.280,Main,2022.1.1,60.00646869732698,
positive,blue,1,k,None,,,,,,,,,0,82,82,82,,,,,,,,,,,,,,,,,,,,,,,,,,,,,,,,,,,,,main,None,None,1,1.509611599999971,411.2425896999998,None,None,1,,,,,,,,,,,,,,231,22,Female,2022-06-03_17h19.08.280,Main,2022.1.1,60.00646869732698,
negative,yellow,2,k,None,,,,,,,,,0,83,83,83,,,,,,,,,,,,,,,,,,,,,,,,,,,,,,,,,,,,,main,None,None,1,1.4981709999997292,413.7551322999998,None,None,1,,,,,,,,,,,,,,231,22,Female,2022-06-03_17h19.08.280,Main,2022.1.1,60.00646869732698,
positive,blue,2,k,None,,,,,,,,,0,84,84,84,,,,,,,,,,,,,,,,,,,,,,,,,,,,,,,,,,,,,main,None,None,1,1.4969381999999314,416.2551635,None,None,1,,,,,,,,,,,,,,231,22,Female,2022-06-03_17h19.08.280,Main,2022.1.1,60.00646869732698,
positive,yellow,1,None,k,,,,,,,,,0,85,85,85,,,,,,,,,,,,,,,,,,,,,,,,,,,,,,,,,,,,,main,k,k,1,0.8916650999999547,418.7534872000001,None,None,0,,,,,,,,,,,,,,231,22,Female,2022-06-03_17h19.08.280,Main,2022.1.1,60.00646869732698,
positive,blue,2,k,None,,,,,,,,,0,86,86,86,,,,,,,,,,,,,,,,,,,,,,,,,,,,,,,,,,,,,main,None,None,1,1.5027538999997887,420.6444170999998,None,None,1,,,,,,,,,,,,,,231,22,Female,2022-06-03_17h19.08.280,Main,2022.1.1,60.00646869732698,
positive,blue,1,k,None,,,,,,,,,0,87,87,87,,,,,,,,,,,,,,,,,,,,,,,,,,,,,,,,,,,,,main,None,None,1,1.4981431999999586,423.1507695,None,None,1,,,,,,,,,,,,,,231,22,Female,2022-06-03_17h19.08.280,Main,2022.1.1,60.00646869732698,
negative,yellow,2,k,None,,,,,,,,,0,88,88,88,,,,,,,,,,,,,,,,,,,,,,,,,,,,,,,,,,,,,main,None,None,1,1.5039639999999963,425.6506792,None,None,1,,,,,,,,,,,,,,231,22,Female,2022-06-03_17h19.08.280,Main,2022.1.1,60.00646869732698,
negative,blue,2,None,k,,,,,,,,,0,89,89,89,,,,,,,,,,,,,,,,,,,,,,,,,,,,,,,,,,,,,main,k,k,1,1.1500240999998823,428.15599470000006,None,None,0,,,,,,,,,,,,,,231,22,Female,2022-06-03_17h19.08.280,Main,2022.1.1,60.00646869732698,
positive,yellow,2,None,k,,,,,,,,,0,90,90,90,,,,,,,,,,,,,,,,,,,,,,,,,,,,,,,,,,,,,main,k,k,1,0.7238615000001118,430.30746020000015,None,None,0,,,,,,,,,,,,,,231,22,Female,2022-06-03_17h19.08.280,Main,2022.1.1,60.00646869732698,
negative,yellow,1,k,None,,,,,,,,,0,91,91,91,,,,,,,,,,,,,,,,,,,,,,,,,,,,,,,,,,,,,main,None,None,1,1.4958596999999827,432.0337682999998,None,None,1,,,,,,,,,,,,,,231,22,Female,2022-06-03_17h19.08.280,Main,2022.1.1,60.00646869732698,
negative,red,2,None,None,,,,,,,,,0,92,92,92,,,,,,,,,,,,,,,,,,,,,,,,,,,,,,,,,,,,,main,None,None,1,1.5024008000000322,434.52820059999976,None,None,1,,,,,,,,,,,,,,231,22,Female,2022-06-03_17h19.08.280,Main,2022.1.1,60.00646869732698,
negative,blue,2,None,k,,,,,,,,,0,93,93,93,,,,,,,,,,,,,,,,,,,,,,,,,,,,,,,,,,,,,main,k,k,1,0.7505140000002939,437.0341890999998,None,None,0,,,,,,,,,,,,,,231,22,Female,2022-06-03_17h19.08.280,Main,2022.1.1,60.00646869732698,
negative,blue,1,None,k,,,,,,,,,0,94,94,94,,,,,,,,,,,,,,,,,,,,,,,,,,,,,,,,,,,,,main,k,k,1,1.035989100000279,438.7862077,None,None,0,,,,,,,,,,,,,,231,22,Female,2022-06-03_17h19.08.280,Main,2022.1.1,60.00646869732698,
negative,blue,1,None,k,,,,,,,,,0,95,95,95,,,,,,,,,,,,,,,,,,,,,,,,,,,,,,,,,,,,,main,k,k,1,0.7856384000001526,440.82400610000013,None,None,0,,,,,,,,,,,,,,231,22,Female,2022-06-03_17h19.08.280,Main,2022.1.1,60.00646869732698,
negative,red,1,None,None,,,,,,,,,0,96,96,96,,,,,,,,,,,,,,,,,,,,,,,,,,,,,,,,,,,,,main,None,None,1,1.4958631999998033,442.6131642,None,None,1,,,,,,,,,,,,,,231,22,Female,2022-06-03_17h19.08.280,Main,2022.1.1,60.00646869732698,
positive,yellow,1,None,k,,,,,,,,,0,97,97,97,,,,,,,,,,,,,,,,,,,,,,,,,,,,,,,,,,,,,main,k,k,1,0.8829786999999669,445.10875840000017,None,None,0,,,,,,,,,,,,,,231,22,Female,2022-06-03_17h19.08.280,Main,2022.1.1,60.00646869732698,
negative,yellow,1,k,None,,,,,,,,,0,98,98,98,,,,,,,,,,,,,,,,,,,,,,,,,,,,,,,,,,,,,main,None,None,1,1.4966609999996763,446.99330569999984,None,None,1,,,,,,,,,,,,,,231,22,Female,2022-06-03_17h19.08.280,Main,2022.1.1,60.00646869732698,
positive,red,1,None,None,,,,,,,,,0,99,99,99,,,,,,,,,,,,,,,,,,,,,,,,,,,,,,,,,,,,,main,None,None,1,1.5029481000001397,449.49128199999996,None,None,1,,,,,,,,,,,,,,231,22,Female,2022-06-03_17h19.08.280,Main,2022.1.1,60.00646869732698,
positive,blue,1,k,None,,,,,,,,,0,100,100,100,,,,,,,,,,,,,,,,,,,,,,,,,,,,,,,,,,,,,main,None,None,1,1.5012651000001824,451.99775210000007,None,None,1,,,,,,,,,,,,,,231,22,Female,2022-06-03_17h19.08.280,Main,2022.1.1,60.00646869732698,
negative,yellow,1,k,None,,,,,,,,,0,101,101,101,,,,,,,,,,,,,,,,,,,,,,,,,,,,,,,,,,,,,main,None,None,1,1.5053642000002583,454.5004063000001,None,None,1,,,,,,,,,,,,,,231,22,Female,2022-06-03_17h19.08.280,Main,2022.1.1,60.00646869732698,
negative,blue,2,None,k,,,,,,,,,0,102,102,102,,,,,,,,,,,,,,,,,,,,,,,,,,,,,,,,,,,,,main,k,k,1,0.8328649000000041,457.00687229999994,None,None,0,,,,,,,,,,,,,,231,22,Female,2022-06-03_17h19.08.280,Main,2022.1.1,60.00646869732698,
negative,yellow,2,k,None,,,,,,,,,0,103,103,103,,,,,,,,,,,,,,,,,,,,,,,,,,,,,,,,,,,,,main,None,None,1,1.5061369999998533,458.8411964000002,None,None,1,,,,,,,,,,,,,,231,22,Female,2022-06-03_17h19.08.280,Main,2022.1.1,60.00646869732698,
positive,yellow,2,None,k,,,,,,,,,0,104,104,104,,,,,,,,,,,,,,,,,,,,,,,,,,,,,,,,,,,,,main,k,k,1,0.6445738000002166,461.3503599999999,None,None,0,,,,,,,,,,,,,,231,22,Female,2022-06-03_17h19.08.280,Main,2022.1.1,60.00646869732698,
positive,blue,1,k,None,,,,,,,,,0,105,105,105,,,,,,,,,,,,,,,,,,,,,,,,,,,,,,,,,,,,,main,None,None,1,1.5101171999999679,462.9975545000002,None,None,1,,,,,,,,,,,,,,231,22,Female,2022-06-03_17h19.08.280,Main,2022.1.1,60.00646869732698,
positive,blue,2,k,None,,,,,,,,,0,106,106,106,,,,,,,,,,,,,,,,,,,,,,,,,,,,,,,,,,,,,main,None,None,1,1.508206699999846,465.5060281000001,None,None,1,,,,,,,,,,,,,,231,22,Female,2022-06-03_17h19.08.280,Main,2022.1.1,60.00646869732698,
negative,blue,1,None,k,,,,,,,,,0,107,107,107,,,,,,,,,,,,,,,,,,,,,,,,,,,,,,,,,,,,,main,k,k,1,0.723230699999931,468.0175011000001,None,None,0,,,,,,,,,,,,,,231,22,Female,2022-06-03_17h19.08.280,Main,2022.1.1,60.00646869732698,
positive,yellow,2,None,k,,,,,,,,,0,108,108,108,,,,,,,,,,,,,,,,,,,,,,,,,,,,,,,,,,,,,main,k,k,1,0.7687582000003204,469.7439892000002,None,None,0,,,,,,,,,,,,,,231,22,Female,2022-06-03_17h19.08.280,Main,2022.1.1,60.00646869732698,
negative,yellow,1,k,None,,,,,,,,,0,109,109,109,,,,,,,,,,,,,,,,,,,,,,,,,,,,,,,,,,,,,main,None,None,1,1.5049302000002172,471.5140531000002,None,None,1,,,,,,,,,,,,,,231,22,Female,2022-06-03_17h19.08.280,Main,2022.1.1,60.00646869732698,
negative,blue,2,None,k,,,,,,,,,0,110,110,110,,,,,,,,,,,,,,,,,,,,,,,,,,,,,,,,,,,,,main,k,k,1,0.7833054000002448,474.01899219999996,None,None,0,,,,,,,,,,,,,,231,22,Female,2022-06-03_17h19.08.280,Main,2022.1.1,60.00646869732698,
positive,blue,2,k,None,,,,,,,,,0,111,111,111,,,,,,,,,,,,,,,,,,,,,,,,,,,,,,,,,,,,,main,None,None,1,1.496677599999657,475.8050472,None,None,1,,,,,,,,,,,,,,231,22,Female,2022-06-03_17h19.08.280,Main,2022.1.1,60.00646869732698,
negative,blue,1,None,k,,,,,,,,,0,112,112,112,,,,,,,,,,,,,,,,,,,,,,,,,,,,,,,,,,,,,main,k,k,1,1.0485021999998025,478.3036769999999,None,None,0,,,,,,,,,,,,,,231,22,Female,2022-06-03_17h19.08.280,Main,2022.1.1,60.00646869732698,
positive,yellow,1,None,k,,,,,,,,,0,113,113,113,,,,,,,,,,,,,,,,,,,,,,,,,,,,,,,,,,,,,main,k,k,1,0.7072840999999244,480.35413819999985,None,None,0,,,,,,,,,,,,,,231,22,Female,2022-06-03_17h19.08.280,Main,2022.1.1,60.00646869732698,
negative,red,1,None,None,,,,,,,,,0,114,114,114,,,,,,,,,,,,,,,,,,,,,,,,,,,,,,,,,,,,,main,None,None,1,1.4957799000003433,482.06457219999993,None,None,1,,,,,,,,,,,,,,231,22,Female,2022-06-03_17h19.08.280,Main,2022.1.1,60.00646869732698,
positive,red,1,None,None,,,,,,,,,0,115,115,115,,,,,,,,,,,,,,,,,,,,,,,,,,,,,,,,,,,,,main,None,None,1,1.504763500000081,484.56332040000007,None,None,1,,,,,,,,,,,,,,231,22,Female,2022-06-03_17h19.08.280,Main,2022.1.1,60.00646869732698,
negative,red,2,None,None,,,,,,,,,0,116,116,116,,,,,,,,,,,,,,,,,,,,,,,,,,,,,,,,,,,,,main,None,None,1,1.5045595999999932,487.06921809999994,None,None,1,,,,,,,,,,,,,,231,22,Female,2022-06-03_17h19.08.280,Main,2022.1.1,60.00646869732698,
negative,yellow,2,k,None,,,,,,,,,0,117,117,117,,,,,,,,,,,,,,,,,,,,,,,,,,,,,,,,,,,,,main,None,None,1,1.502828899999713,489.57696769999984,None,None,1,,,,,,,,,,,,,,231,22,Female,2022-06-03_17h19.08.280,Main,2022.1.1,60.00646869732698,
positive,yellow,1,None,k,,,,,,,,,0,118,118,118,,,,,,,,,,,,,,,,,,,,,,,,,,,,,,,,,,,,,main,k,k,1,0.776339900000039,492.0804228000002,None,None,0,,,,,,,,,,,,,,231,22,Female,2022-06-03_17h19.08.280,Main,2022.1.1,60.00646869732698,
positive,red,2,None,None,,,,,,,,,0,119,119,119,,,,,,,,,,,,,,,,,,,,,,,,,,,,,,,,,,,,,main,None,None,1,1.509704099999908,493.8598707000001,None,None,1,,,,,,,,,,,,,,231,22,Female,2022-06-03_17h19.08.280,Main,2022.1.1,60.00646869732698,
positive,blue,2,k,None,,,,,,,,,0,120,120,120,,,,,,,,,,,,,,,,,,,,,,,,,,,,,,,,,,,,,main,None,None,1,1.500055500000144,496.3680291999999,None,None,1,,,,,,,,,,,,,,231,22,Female,2022-06-03_17h19.08.280,Main,2022.1.1,60.00646869732698,
negative,red,1,None,None,,,,,,,,,0,121,121,121,,,,,,,,,,,,,,,,,,,,,,,,,,,,,,,,,,,,,main,None,None,1,1.5009095000000343,498.8694790999998,None,None,1,,,,,,,,,,,,,,231,22,Female,2022-06-03_17h19.08.280,Main,2022.1.1,60.00646869732698,
positive,yellow,2,None,k,,,,,,,,,0,122,122,122,,,,,,,,,,,,,,,,,,,,,,,,,,,,,,,,,,,,,main,k,k,1,0.7997718999999961,501.37412399999994,None,None,0,,,,,,,,,,,,,,231,22,Female,2022-06-03_17h19.08.280,Main,2022.1.1,60.00646869732698,
negative,red,2,None,None,,,,,,,,,0,123,123,123,,,,,,,,,,,,,,,,,,,,,,,,,,,,,,,,,,,,,main,None,None,1,1.5093887000002724,503.17572789999986,None,None,1,,,,,,,,,,,,,,231,22,Female,2022-06-03_17h19.08.280,Main,2022.1.1,60.00646869732698,
negative,yellow,2,k,None,,,,,,,,,0,124,124,124,,,,,,,,,,,,,,,,,,,,,,,,,,,,,,,,,,,,,main,None,None,1,1.5025793999998314,505.6850894999998,None,None,1,,,,,,,,,,,,,,231,22,Female,2022-06-03_17h19.08.280,Main,2022.1.1,60.00646869732698,
positive,red,1,None,None,,,,,,,,,0,125,125,125,,,,,,,,,,,,,,,,,,,,,,,,,,,,,,,,,,,,,main,None,None,1,1.5001713000001473,508.19061250000004,None,None,1,,,,,,,,,,,,,,231,22,Female,2022-06-03_17h19.08.280,Main,2022.1.1,60.00646869732698,
negative,blue,2,None,k,,,,,,,,,0,126,126,126,,,,,,,,,,,,,,,,,,,,,,,,,,,,,,,,,,,,,main,k,k,1,0.7080117000000428,510.69364959999984,None,None,0,,,,,,,,,,,,,,231,22,Female,2022-06-03_17h19.08.280,Main,2022.1.1,60.00646869732698,
negative,blue,1,None,k,,,,,,,,,0,127,127,127,,,,,,,,,,,,,,,,,,,,,,,,,,,,,,,,,,,,,main,k,k,1,0.7651039000002129,512.4006786,None,None,0,,,,,,,,,,,,,,231,22,Female,2022-06-03_17h19.08.280,Main,2022.1.1,60.00646869732698,
negative,yellow,1,k,None,,,,,,,,,0,128,128,128,,,,,,,,,,,,,,,,,,,,,,,,,,,,,,,,,,,,,main,None,None,1,1.4975070000000414,514.1701939,None,None,1,,,,,,,,,,,,,,231,22,Female,2022-06-03_17h19.08.280,Main,2022.1.1,60.00646869732698,
negative,yellow,1,k,None,,,,,,,,,0,129,129,129,,,,,,,,,,,,,,,,,,,,,,,,,,,,,,,,,,,,,main,None,None,1,1.5084764000002906,516.6668162999999,None,None,1,,,,,,,,,,,,,,231,22,Female,2022-06-03_17h19.08.280,Main,2022.1.1,60.00646869732698,
positive,blue,1,k,None,,,,,,,,,0,130,130,130,,,,,,,,,,,,,,,,,,,,,,,,,,,,,,,,,,,,,main,None,None,1,1.4950668999999834,519.1803810000001,None,None,1,,,,,,,,,,,,,,231,22,Female,2022-06-03_17h19.08.280,Main,2022.1.1,60.00646869732698,
negative,blue,1,None,k,,,,,,,,,0,131,131,131,,,,,,,,,,,,,,,,,,,,,,,,,,,,,,,,,,,,,main,k,k,1,0.7240243000001101,521.6757877999999,None,None,0,,,,,,,,,,,,,,231,22,Female,2022-06-03_17h19.08.280,Main,2022.1.1,60.00646869732698,
negative,blue,2,None,k,,,,,,,,,0,132,132,132,,,,,,,,,,,,,,,,,,,,,,,,,,,,,,,,,,,,,main,k,k,1,0.769180299999789,523.4029430999999,None,None,0,,,,,,,,,,,,,,231,22,Female,2022-06-03_17h19.08.280,Main,2022.1.1,60.00646869732698,
positive,blue,2,k,None,,,,,,,,,0,133,133,133,,,,,,,,,,,,,,,,,,,,,,,,,,,,,,,,,,,,,main,None,None,1,1.506847199999811,525.1737742999999,None,None,1,,,,,,,,,,,,,,231,22,Female,2022-06-03_17h19.08.280,Main,2022.1.1,60.00646869732698,
positive,red,2,None,None,,,,,,,,,0,134,134,134,,,,,,,,,,,,,,,,,,,,,,,,,,,,,,,,,,,,,main,None,None,1,1.496166799999628,527.6815114999999,None,None,1,,,,,,,,,,,,,,231,22,Female,2022-06-03_17h19.08.280,Main,2022.1.1,60.00646869732698,
negative,yellow,2,k,None,,,,,,,,,0,135,135,135,,,,,,,,,,,,,,,,,,,,,,,,,,,,,,,,,,,,,main,None,None,1,1.4984858999996504,530.1795481999998,None,None,1,,,,,,,,,,,,,,231,22,Female,2022-06-03_17h19.08.280,Main,2022.1.1,60.00646869732698,
positive,yellow,2,None,k,,,,,,,,,0,136,136,136,,,,,,,,,,,,,,,,,,,,,,,,,,,,,,,,,,,,,main,k,k,1,0.6433806000000004,532.6800334,None,None,0,,,,,,,,,,,,,,231,22,Female,2022-06-03_17h19.08.280,Main,2022.1.1,60.00646869732698,
positive,blue,1,k,None,,,,,,,,,0,137,137,137,,,,,,,,,,,,,,,,,,,,,,,,,,,,,,,,,,,,,main,None,None,1,1.494575199999872,534.3266776999999,None,None,1,,,,,,,,,,,,,,231,22,Female,2022-06-03_17h19.08.280,Main,2022.1.1,60.00646869732698,
positive,yellow,1,None,k,,,,,,,,,0,138,138,138,,,,,,,,,,,,,,,,,,,,,,,,,,,,,,,,,,,,,main,k,k,1,0.924822899999981,536.8228052999998,None,None,0,,,,,,,,,,,,,,231,22,Female,2022-06-03_17h19.08.280,Main,2022.1.1,60.00646869732698,
positive,yellow,1,None,k,,,,,,,,,0,139,139,139,,,,,,,,,,,,,,,,,,,,,,,,,,,,,,,,,,,,,main,k,k,1,0.7145799999998417,538.7470598,None,None,0,,,,,,,,,,,,,,231,22,Female,2022-06-03_17h19.08.280,Main,2022.1.1,60.00646869732698,
positive,yellow,1,None,k,,,,,,,,,0,140,140,140,,,,,,,,,,,,,,,,,,,,,,,,,,,,,,,,,,,,,main,k,k,1,0.6497800000001916,540.4630277000001,None,None,0,,,,,,,,,,,,,,231,22,Female,2022-06-03_17h19.08.280,Main,2022.1.1,60.00646869732698,
positive,blue,1,k,None,,,,,,,,,0,141,141,141,,,,,,,,,,,,,,,,,,,,,,,,,,,,,,,,,,,,,main,None,None,1,1.5088974000000235,542.1144439999998,None,None,1,,,,,,,,,,,,,,231,22,Female,2022-06-03_17h19.08.280,Main,2022.1.1,60.00646869732698,
positive,blue,2,k,None,,,,,,,,,0,142,142,142,,,,,,,,,,,,,,,,,,,,,,,,,,,,,,,,,,,,,main,None,None,1,1.5025448000001234,544.6265678999998,None,None,1,,,,,,,,,,,,,,231,22,Female,2022-06-03_17h19.08.280,Main,2022.1.1,60.00646869732698,
positive,yellow,2,None,k,,,,,,,,,0,143,143,143,,,,,,,,,,,,,,,,,,,,,,,,,,,,,,,,,,,,,main,k,k,1,0.8575695999998061,547.1302031,None,None,0,,,,,,,,,,,,,,231,22,Female,2022-06-03_17h19.08.280,Main,2022.1.1,60.00646869732698,
negative,yellow,2,k,None,,,,,,,,,0,144,144,144,,,,,,,,,,,,,,,,,,,,,,,,,,,,,,,,,,,,,main,None,None,1,1.506003100000271,548.9911956000001,None,None,1,,,,,,,,,,,,,,231,22,Female,2022-06-03_17h19.08.280,Main,2022.1.1,60.00646869732698,
negative,blue,2,None,k,,,,,,,,,0,145,145,145,,,,,,,,,,,,,,,,,,,,,,,,,,,,,,,,,,,,,main,k,k,1,0.8321023000003152,551.4972566000001,None,None,0,,,,,,,,,,,,,,231,22,Female,2022-06-03_17h19.08.280,Main,2022.1.1,60.00646869732698,
negative,red,1,None,None,,,,,,,,,0,146,146,146,,,,,,,,,,,,,,,,,,,,,,,,,,,,,,,,,,,,,main,None,None,1,1.5125873000001775,553.3314442999999,None,None,1,,,,,,,,,,,,,,231,22,Female,2022-06-03_17h19.08.280,Main,2022.1.1,60.00646869732698,
positive,blue,1,k,None,,,,,,,,,0,147,147,147,,,,,,,,,,,,,,,,,,,,,,,,,,,,,,,,,,,,,main,None,None,1,1.50872070000014,555.8449928999999,None,None,1,,,,,,,,,,,,,,231,22,Female,2022-06-03_17h19.08.280,Main,2022.1.1,60.00646869732698,
positive,yellow,1,None,k,,,,,,,,,0,148,148,148,,,,,,,,,,,,,,,,,,,,,,,,,,,,,,,,,,,,,main,k,k,1,0.7892818000000261,558.3565010000002,None,None,0,,,,,,,,,,,,,,231,22,Female,2022-06-03_17h19.08.280,Main,2022.1.1,60.00646869732698,
negative,red,2,None,None,,,,,,,,,0,149,149,149,,,,,,,,,,,,,,,,,,,,,,,,,,,,,,,,,,,,,main,None,None,1,1.5049912999998014,560.1465561999998,None,None,1,,,,,,,,,,,,,,231,22,Female,2022-06-03_17h19.08.280,Main,2022.1.1,60.00646869732698,
negative,blue,1,None,k,,,,,,,,,0,150,150,150,,,,,,,,,,,,,,,,,,,,,,,,,,,,,,,,,,,,,main,k,k,1,0.7576996999996481,562.6542473999998,None,None,0,,,,,,,,,,,,,,231,22,Female,2022-06-03_17h19.08.280,Main,2022.1.1,60.00646869732698,
negative,yellow,2,k,None,,,,,,,,,0,151,151,151,,,,,,,,,,,,,,,,,,,,,,,,,,,,,,,,,,,,,main,None,None,1,1.4933955999999853,564.4145718999998,None,None,1,,,,,,,,,,,,,,231,22,Female,2022-06-03_17h19.08.280,Main,2022.1.1,60.00646869732698,
negative,blue,2,None,k,,,,,,,,,0,152,152,152,,,,,,,,,,,,,,,,,,,,,,,,,,,,,,,,,,,,,main,k,k,1,0.720361000000139,566.9105012999999,None,None,0,,,,,,,,,,,,,,231,22,Female,2022-06-03_17h19.08.280,Main,2022.1.1,60.00646869732698,
negative,yellow,1,k,None,,,,,,,,,0,153,153,153,,,,,,,,,,,,,,,,,,,,,,,,,,,,,,,,,,,,,main,None,None,1,1.511425600000166,568.6343307000002,None,None,1,,,,,,,,,,,,,,231,22,Female,2022-06-03_17h19.08.280,Main,2022.1.1,60.00646869732698,
negative,blue,1,None,k,,,,,,,,,0,154,154,154,,,,,,,,,,,,,,,,,,,,,,,,,,,,,,,,,,,,,main,k,k,1,0.7468851000003269,571.1448116000001,None,None,0,,,,,,,,,,,,,,231,22,Female,2022-06-03_17h19.08.280,Main,2022.1.1,60.00646869732698,
positive,yellow,2,None,k,,,,,,,,,0,155,155,155,,,,,,,,,,,,,,,,,,,,,,,,,,,,,,,,,,,,,main,k,k,1,0.6824139000000287,572.8924983000002,None,None,0,,,,,,,,,,,,,,231,22,Female,2022-06-03_17h19.08.280,Main,2022.1.1,60.00646869732698,
positive,red,2,None,None,,,,,,,,,0,156,156,156,,,,,,,,,,,,,,,,,,,,,,,,,,,,,,,,,,,,,main,None,None,1,1.501177000000098,574.5789218,None,None,1,,,,,,,,,,,,,,231,22,Female,2022-06-03_17h19.08.280,Main,2022.1.1,60.00646869732698,
positive,red,1,None,None,,,,,,,,,0,157,157,157,,,,,,,,,,,,,,,,,,,,,,,,,,,,,,,,,,,,,main,None,None,1,1.4946193000000676,577.0816651999999,None,None,1,,,,,,,,,,,,,,231,22,Female,2022-06-03_17h19.08.280,Main,2022.1.1,60.00646869732698,
positive,blue,2,k,None,,,,,,,,,0,158,158,158,,,,,,,,,,,,,,,,,,,,,,,,,,,,,,,,,,,,,main,None,None,1,1.5050184000001536,579.5753921999999,None,None,1,,,,,,,,,,,,,,231,22,Female,2022-06-03_17h19.08.280,Main,2022.1.1,60.00646869732698,
negative,yellow,1,k,None,,,,,,,,,0,159,159,159,,,,,,,,,,,,,,,,,,,,,,,,,,,,,,,,,,,,,main,None,None,1,1.4987911999996868,582.0844253,None,None,1,,,,,,,,,,,,,,231,22,Female,2022-06-03_17h19.08.280,Main,2022.1.1,60.00646869732698,
negative,red,2,None,None,,,,,,,,,0,160,160,160,,,,,,,,,,,,,,,,,,,,,,,,,,,,,,,,,,,,,main,None,None,1,1.4966060000001562,584.5840045,None,None,1,,,,,,,,,,,,,,231,22,Female,2022-06-03_17h19.08.280,Main,2022.1.1,60.00646869732698,
negative,blue,1,None,k,,,,,,,,,0,161,161,161,,,,,,,,,,,,,,,,,,,,,,,,,,,,,,,,,,,,,main,k,k,1,0.7956476999997903,587.0830885999999,None,None,0,,,,,,,,,,,,,,231,22,Female,2022-06-03_17h19.08.280,Main,2022.1.1,60.00646869732698,
negative,blue,1,None,k,,,,,,,,,0,162,162,162,,,,,,,,,,,,,,,,,,,,,,,,,,,,,,,,,,,,,main,k,k,1,0.834596799999872,588.8797451999999,None,None,0,,,,,,,,,,,,,,231,22,Female,2022-06-03_17h19.08.280,Main,2022.1.1,60.00646869732698,
negative,yellow,1,k,None,,,,,,,,,0,163,163,163,,,,,,,,,,,,,,,,,,,,,,,,,,,,,,,,,,,,,main,None,None,1,1.5045579999996335,590.7160484000001,None,None,1,,,,,,,,,,,,,,231,22,Female,2022-06-03_17h19.08.280,Main,2022.1.1,60.00646869732698,
negative,yellow,1,k,None,,,,,,,,,0,164,164,164,,,,,,,,,,,,,,,,,,,,,,,,,,,,,,,,,,,,,main,None,None,1,1.5123755999998139,593.2216198000001,None,None,1,,,,,,,,,,,,,,231,22,Female,2022-06-03_17h19.08.280,Main,2022.1.1,60.00646869732698,
positive,yellow,1,None,k,,,,,,,,,0,165,165,165,,,,,,,,,,,,,,,,,,,,,,,,,,,,,,,,,,,,,main,k,k,1,0.7686630999996851,595.7371331999998,None,None,0,,,,,,,,,,,,,,231,22,Female,2022-06-03_17h19.08.280,Main,2022.1.1,60.00646869732698,
negative,red,1,None,None,,,,,,,,,0,166,166,166,,,,,,,,,,,,,,,,,,,,,,,,,,,,,,,,,,,,,main,None,None,1,1.5132550000002993,597.5078800000001,None,None,1,,,,,,,,,,,,,,231,22,Female,2022-06-03_17h19.08.280,Main,2022.1.1,60.00646869732698,
negative,yellow,2,k,None,,,,,,,,,0,167,167,167,,,,,,,,,,,,,,,,,,,,,,,,,,,,,,,,,,,,,main,None,None,1,1.4958519000001615,600.0222610000001,None,None,1,,,,,,,,,,,,,,231,22,Female,2022-06-03_17h19.08.280,Main,2022.1.1,60.00646869732698,
positive,blue,2,k,None,,,,,,,,,0,168,168,168,,,,,,,,,,,,,,,,,,,,,,,,,,,,,,,,,,,,,main,None,None,1,1.4961554999999862,602.5212538000001,None,None,1,,,,,,,,,,,,,,231,22,Female,2022-06-03_17h19.08.280,Main,2022.1.1,60.00646869732698,
positive,red,2,None,None,,,,,,,,,0,169,169,169,,,,,,,,,,,,,,,,,,,,,,,,,,,,,,,,,,,,,main,None,None,1,1.51010929999984,605.0201011999998,None,None,1,,,,,,,,,,,,,,231,22,Female,2022-06-03_17h19.08.280,Main,2022.1.1,60.00646869732698,
positive,red,1,None,None,,,,,,,,,0,170,170,170,,,,,,,,,,,,,,,,,,,,,,,,,,,,,,,,,,,,,main,None,None,1,1.4937685999998394,607.5340363,None,None,1,,,,,,,,,,,,,,231,22,Female,2022-06-03_17h19.08.280,Main,2022.1.1,60.00646869732698,
negative,blue,2,None,k,,,,,,,,,0,171,171,171,,,,,,,,,,,,,,,,,,,,,,,,,,,,,,,,,,,,,main,k,k,1,0.6693640000003143,610.0289581000002,None,None,0,,,,,,,,,,,,,,231,22,Female,2022-06-03_17h19.08.280,Main,2022.1.1,60.00646869732698,
positive,blue,2,k,None,,,,,,,,,0,172,172,172,,,,,,,,,,,,,,,,,,,,,,,,,,,,,,,,,,,,,main,None,None,1,1.4960356000001411,611.6999308999998,None,None,1,,,,,,,,,,,,,,231,22,Female,2022-06-03_17h19.08.280,Main,2022.1.1,60.00646869732698,
negative,yellow,2,k,None,,,,,,,,,0,173,173,173,,,,,,,,,,,,,,,,,,,,,,,,,,,,,,,,,,,,,main,None,None,1,1.507841499999813,614.1966212000002,None,None,1,,,,,,,,,,,,,,231,22,Female,2022-06-03_17h19.08.280,Main,2022.1.1,60.00646869732698,
positive,yellow,2,None,k,,,,,,,,,0,174,174,174,,,,,,,,,,,,,,,,,,,,,,,,,,,,,,,,,,,,,main,k,k,1,0.6648240999998052,616.7047502999999,None,None,0,,,,,,,,,,,,,,231,22,Female,2022-06-03_17h19.08.280,Main,2022.1.1,60.00646869732698,
negative,blue,2,None,k,,,,,,,,,0,175,175,175,,,,,,,,,,,,,,,,,,,,,,,,,,,,,,,,,,,,,main,k,k,1,0.8418338999999833,618.3715124,None,None,0,,,,,,,,,,,,,,231,22,Female,2022-06-03_17h19.08.280,Main,2022.1.1,60.00646869732698,
positive,blue,1,k,None,,,,,,,,,0,176,176,176,,,,,,,,,,,,,,,,,,,,,,,,,,,,,,,,,,,,,main,None,None,1,1.5046901999999136,620.2165467,None,None,1,,,,,,,,,,,,,,231,22,Female,2022-06-03_17h19.08.280,Main,2022.1.1,60.00646869732698,
positive,yellow,1,None,k,,,,,,,,,0,177,177,177,,,,,,,,,,,,,,,,,,,,,,,,,,,,,,,,,,,,,main,k,k,1,0.786758700000064,622.7219208000001,None,None,0,,,,,,,,,,,,,,231,22,Female,2022-06-03_17h19.08.280,Main,2022.1.1,60.00646869732698,
positive,blue,1,k,None,,,,,,,,,0,178,178,178,,,,,,,,,,,,,,,,,,,,,,,,,,,,,,,,,,,,,main,None,None,1,1.4958220999997138,624.5123383,None,None,1,,,,,,,,,,,,,,231,22,Female,2022-06-03_17h19.08.280,Main,2022.1.1,60.00646869732698,
positive,yellow,2,None,k,,,,,,,,,0,179,179,179,,,,,,,,,,,,,,,,,,,,,,,,,,,,,,,,,,,,,main,k,k,1,0.920701999999892,627.0090101000001,None,None,0,,,,,,,,,,,,,,231,22,Female,2022-06-03_17h19.08.280,Main,2022.1.1,60.00646869732698,
positive,blue,1,k,None,,,,,,,,,0,180,180,180,,,,,,,,,,,,,,,,,,,,,,,,,,,,,,,,,,,,,main,None,None,1,1.4965094999997746,628.9304192,None,None,1,,,,,,,,,,,,,,231,22,Female,2022-06-03_17h19.08.280,Main,2022.1.1,60.00646869732698,
negative,red,1,None,None,,,,,,,,,0,181,181,181,,,,,,,,,,,,,,,,,,,,,,,,,,,,,,,,,,,,,main,None,None,1,1.503012099999978,631.4283687000002,None,None,1,,,,,,,,,,,,,,231,22,Female,2022-06-03_17h19.08.280,Main,2022.1.1,60.00646869732698,
negative,blue,1,None,k,,,,,,,,,0,182,182,182,,,,,,,,,,,,,,,,,,,,,,,,,,,,,,,,,,,,,main,k,k,1,0.8611605999999483,633.9338367,None,None,0,,,,,,,,,,,,,,231,22,Female,2022-06-03_17h19.08.280,Main,2022.1.1,60.00646869732698,
negative,yellow,2,k,None,,,,,,,,,0,183,183,183,,,,,,,,,,,,,,,,,,,,,,,,,,,,,,,,,,,,,main,None,None,1,1.497172800000044,635.7970249,None,None,1,,,,,,,,,,,,,,231,22,Female,2022-06-03_17h19.08.280,Main,2022.1.1,60.00646869732698,
positive,yellow,2,None,k,,,,,,,,,0,184,184,184,,,,,,,,,,,,,,,,,,,,,,,,,,,,,,,,,,,,,main,k,k,1,0.7412752999998702,638.2960730999998,None,None,0,,,,,,,,,,,,,,231,22,Female,2022-06-03_17h19.08.280,Main,2022.1.1,60.00646869732698,
positive,yellow,1,None,k,,,,,,,,,0,185,185,185,,,,,,,,,,,,,,,,,,,,,,,,,,,,,,,,,,,,,main,k,k,1,0.8019294000000627,640.0403787,None,None,0,,,,,,,,,,,,,,231,22,Female,2022-06-03_17h19.08.280,Main,2022.1.1,60.00646869732698,
positive,red,2,None,None,,,,,,,,,0,186,186,186,,,,,,,,,,,,,,,,,,,,,,,,,,,,,,,,,,,,,main,None,None,1,1.4973550999998224,641.8436986000002,None,None,1,,,,,,,,,,,,,,231,22,Female,2022-06-03_17h19.08.280,Main,2022.1.1,60.00646869732698,
positive,blue,1,k,None,,,,,,,,,0,187,187,187,,,,,,,,,,,,,,,,,,,,,,,,,,,,,,,,,,,,,main,None,None,1,1.509423599999991,644.3421781000002,None,None,1,,,,,,,,,,,,,,231,22,Female,2022-06-03_17h19.08.280,Main,2022.1.1,60.00646869732698,
negative,yellow,1,k,None,,,,,,,,,0,188,188,188,,,,,,,,,,,,,,,,,,,,,,,,,,,,,,,,,,,,,main,None,None,1,1.5115469000002122,646.8516257000001,None,None,1,,,,,,,,,,,,,,231,22,Female,2022-06-03_17h19.08.280,Main,2022.1.1,60.00646869732698,
positive,yellow,2,None,k,,,,,,,,,0,189,189,189,,,,,,,,,,,,,,,,,,,,,,,,,,,,,,,,,,,,,main,k,k,1,1.1162229999999909,649.3651227,None,None,0,,,,,,,,,,,,,,231,22,Female,2022-06-03_17h19.08.280,Main,2022.1.1,60.00646869732698,
negative,yellow,2,k,None,,,,,,,,,0,190,190,190,,,,,,,,,,,,,,,,,,,,,,,,,,,,,,,,,,,,,main,None,None,1,1.5052039000001969,651.4829596999998,None,None,1,,,,,,,,,,,,,,231,22,Female,2022-06-03_17h19.08.280,Main,2022.1.1,60.00646869732698,
negative,yellow,1,k,None,,,,,,,,,0,191,191,191,,,,,,,,,,,,,,,,,,,,,,,,,,,,,,,,,,,,,main,None,None,1,1.5021231999999145,653.9913412999999,None,None,1,,,,,,,,,,,,,,231,22,Female,2022-06-03_17h19.08.280,Main,2022.1.1,60.00646869732698,
positive,blue,2,k,None,,,,,,,,,0,192,192,192,,,,,,,,,,,,,,,,,,,,,,,,,,,,,,,,,,,,,main,None,None,1,1.5002806000002238,656.4966184,None,None,1,,,,,,,,,,,,,,231,22,Female,2022-06-03_17h19.08.280,Main,2022.1.1,60.00646869732698,
positive,yellow,1,None,k,,,,,,,,,0,193,193,193,,,,,,,,,,,,,,,,,,,,,,,,,,,,,,,,,,,,,main,k,k,1,0.9504062999999405,658.9980632000002,None,None,0,,,,,,,,,,,,,,231,22,Female,2022-06-03_17h19.08.280,Main,2022.1.1,60.00646869732698,
negative,red,2,None,None,,,,,,,,,0,194,194,194,,,,,,,,,,,,,,,,,,,,,,,,,,,,,,,,,,,,,main,None,None,1,1.5131540000002133,660.9493579999998,None,None,1,,,,,,,,,,,,,,231,22,Female,2022-06-03_17h19.08.280,Main,2022.1.1,60.00646869732698,
positive,red,1,None,None,,,,,,,,,0,195,195,195,,,,,,,,,,,,,,,,,,,,,,,,,,,,,,,,,,,,,main,None,None,1,1.5020110000000386,663.4648606000001,None,None,1,,,,,,,,,,,,,,231,22,Female,2022-06-03_17h19.08.280,Main,2022.1.1,60.00646869732698,
negative,blue,1,None,k,,,,,,,,,0,196,196,196,,,,,,,,,,,,,,,,,,,,,,,,,,,,,,,,,,,,,main,k,k,1,0.6120092999999542,665.969666,None,None,0,,,,,,,,,,,,,,231,22,Female,2022-06-03_17h19.08.280,Main,2022.1.1,60.00646869732698,
positive,blue,2,k,None,,,,,,,,,0,197,197,197,,,,,,,,,,,,,,,,,,,,,,,,,,,,,,,,,,,,,main,None,None,1,1.5042143999999098,667.5842071000002,None,None,1,,,,,,,,,,,,,,231,22,Female,2022-06-03_17h19.08.280,Main,2022.1.1,60.00646869732698,
negative,blue,2,None,k,,,,,,,,,0,198,198,198,,,,,,,,,,,,,,,,,,,,,,,,,,,,,,,,,,,,,main,k,k,1,0.7099664000002122,670.0893136,None,None,0,,,,,,,,,,,,,,231,22,Female,2022-06-03_17h19.08.280,Main,2022.1.1,60.00646869732698,
negative,blue,2,None,k,,,,,,,,,0,199,199,199,,,,,,,,,,,,,,,,,,,,,,,,,,,,,,,,,,,,,main,k,k,1,0.6955343999998149,671.800628,None,None,0,,,,,,,,,,,,,,231,22,Female,2022-06-03_17h19.08.280,Main,2022.1.1,60.00646869732698,
positive,blue,2,k,None,,,,,,,,,0,200,200,200,,,,,,,,,,,,,,,,,,,,,,,,,,,,,,,,,,,,,main,None,None,1,1.5019925999999941,673.4976464000001,None,None,1,,,,,,,,,,,,,,231,22,Female,2022-06-03_17h19.08.280,Main,2022.1.1,60.00646869732698,
positive,blue,2,k,None,,,,,,,,,0,201,201,201,,,,,,,,,,,,,,,,,,,,,,,,,,,,,,,,,,,,,main,None,None,1,1.4978161000003638,676.0021523999999,None,None,1,,,,,,,,,,,,,,231,22,Female,2022-06-03_17h19.08.280,Main,2022.1.1,60.00646869732698,
negative,yellow,2,k,None,,,,,,,,,0,202,202,202,,,,,,,,,,,,,,,,,,,,,,,,,,,,,,,,,,,,,main,None,None,1,1.495219399999769,678.5022912,None,None,1,,,,,,,,,,,,,,231,22,Female,2022-06-03_17h19.08.280,Main,2022.1.1,60.00646869732698,
positive,red,1,None,None,,,,,,,,,0,203,203,203,,,,,,,,,,,,,,,,,,,,,,,,,,,,,,,,,,,,,main,None,None,1,1.5045430999998644,680.9959678999999,None,None,1,,,,,,,,,,,,,,231,22,Female,2022-06-03_17h19.08.280,Main,2022.1.1,60.00646869732698,
negative,blue,2,None,k,,,,,,,,,0,204,204,204,,,,,,,,,,,,,,,,,,,,,,,,,,,,,,,,,,,,,main,k,k,1,1.0599803999998585,683.5046647999998,None,None,0,,,,,,,,,,,,,,231,22,Female,2022-06-03_17h19.08.280,Main,2022.1.1,60.00646869732698,
negative,red,1,None,None,,,,,,,,,0,205,205,205,,,,,,,,,,,,,,,,,,,,,,,,,,,,,,,,,,,,,main,None,None,1,1.500360400000318,685.5637194000001,None,None,1,,,,,,,,,,,,,,231,22,Female,2022-06-03_17h19.08.280,Main,2022.1.1,60.00646869732698,
negative,blue,2,None,k,,,,,,,,,0,206,206,206,,,,,,,,,,,,,,,,,,,,,,,,,,,,,,,,,,,,,main,k,k,1,0.8500554000002012,688.0676478999999,None,None,0,,,,,,,,,,,,,,231,22,Female,2022-06-03_17h19.08.280,Main,2022.1.1,60.00646869732698,
negative,yellow,2,k,None,,,,,,,,,0,207,207,207,,,,,,,,,,,,,,,,,,,,,,,,,,,,,,,,,,,,,main,None,None,1,1.5035859999998138,689.9196929999998,None,None,1,,,,,,,,,,,,,,231,22,Female,2022-06-03_17h19.08.280,Main,2022.1.1,60.00646869732698,
positive,yellow,2,None,k,,,,,,,,,0,208,208,208,,,,,,,,,,,,,,,,,,,,,,,,,,,,,,,,,,,,,main,k,k,1,0.7150538000000779,692.4238356000001,None,None,0,,,,,,,,,,,,,,231,22,Female,2022-06-03_17h19.08.280,Main,2022.1.1,60.00646869732698,
negative,yellow,1,k,None,,,,,,,,,0,209,209,209,,,,,,,,,,,,,,,,,,,,,,,,,,,,,,,,,,,,,main,None,None,1,1.5111191000000872,694.1402813999998,None,None,1,,,,,,,,,,,,,,231,22,Female,2022-06-03_17h19.08.280,Main,2022.1.1,60.00646869732698,
negative,red,2,None,None,,,,,,,,,0,210,210,210,,,,,,,,,,,,,,,,,,,,,,,,,,,,,,,,,,,,,main,None,None,1,1.4940655000000334,696.6533946999998,None,None,1,,,,,,,,,,,,,,231,22,Female,2022-06-03_17h19.08.280,Main,2022.1.1,60.00646869732698,
negative,blue,1,None,k,,,,,,,,,0,211,211,211,,,,,,,,,,,,,,,,,,,,,,,,,,,,,,,,,,,,,main,k,k,1,0.8160840000000462,699.1496484999998,None,None,0,,,,,,,,,,,,,,231,22,Female,2022-06-03_17h19.08.280,Main,2022.1.1,60.00646869732698,
negative,yellow,1,k,None,,,,,,,,,0,212,212,212,,,,,,,,,,,,,,,,,,,,,,,,,,,,,,,,,,,,,main,None,None,1,1.4970657000003484,700.9663962,None,None,1,,,,,,,,,,,,,,231,22,Female,2022-06-03_17h19.08.280,Main,2022.1.1,60.00646869732698,
positive,blue,1,k,None,,,,,,,,,0,213,213,213,,,,,,,,,,,,,,,,,,,,,,,,,,,,,,,,,,,,,main,None,None,1,1.4952078999999685,703.4649533000002,None,None,1,,,,,,,,,,,,,,231,22,Female,2022-06-03_17h19.08.280,Main,2022.1.1,60.00646869732698,
positive,blue,1,k,None,,,,,,,,,0,214,214,214,,,,,,,,,,,,,,,,,,,,,,,,,,,,,,,,,,,,,main,None,None,1,1.4985959999999068,705.9601517000001,None,None,1,,,,,,,,,,,,,,231,22,Female,2022-06-03_17h19.08.280,Main,2022.1.1,60.00646869732698,
positive,yellow,1,None,k,,,,,,,,,0,215,215,215,,,,,,,,,,,,,,,,,,,,,,,,,,,,,,,,,,,,,main,k,k,1,0.849750700000186,708.4604975000002,None,None,0,,,,,,,,,,,,,,231,22,Female,2022-06-03_17h19.08.280,Main,2022.1.1,60.00646869732698,
positive,yellow,1,None,k,,,,,,,,,0,216,216,216,,,,,,,,,,,,,,,,,,,,,,,,,,,,,,,,,,,,,main,k,k,1,0.8164326999999503,710.3148815,None,None,0,,,,,,,,,,,,,,231,22,Female,2022-06-03_17h19.08.280,Main,2022.1.1,60.00646869732698,
positive,yellow,2,None,k,,,,,,,,,0,217,217,217,,,,,,,,,,,,,,,,,,,,,,,,,,,,,,,,,,,,,main,k,k,1,0.7278450999997403,712.1321051999998,None,None,0,,,,,,,,,,,,,,231,22,Female,2022-06-03_17h19.08.280,Main,2022.1.1,60.00646869732698,
negative,blue,1,None,k,,,,,,,,,0,218,218,218,,,,,,,,,,,,,,,,,,,,,,,,,,,,,,,,,,,,,main,k,k,1,0.7159114999999474,713.8615184,None,None,0,,,,,,,,,,,,,,231,22,Female,2022-06-03_17h19.08.280,Main,2022.1.1,60.00646869732698,
positive,red,2,None,None,,,,,,,,,0,219,219,219,,,,,,,,,,,,,,,,,,,,,,,,,,,,,,,,,,,,,main,None,None,1,1.4994966000003842,715.5775454,None,None,1,,,,,,,,,,,,,,231,22,Female,2022-06-03_17h19.08.280,Main,2022.1.1,60.00646869732698,
positive,yellow,1,None,k,,,,,,,,,0,220,220,220,,,,,,,,,,,,,,,,,,,,,,,,,,,,,,,,,,,,,main,k,k,1,0.816142900000159,718.0794916999998,None,None,0,,,,,,,,,,,,,,231,22,Female,2022-06-03_17h19.08.280,Main,2022.1.1,60.00646869732698,
positive,blue,1,k,None,,,,,,,,,0,221,221,221,,,,,,,,,,,,,,,,,,,,,,,,,,,,,,,,,,,,,main,None,None,1,1.5089060999998765,719.8978074000001,None,None,1,,,,,,,,,,,,,,231,22,Female,2022-06-03_17h19.08.280,Main,2022.1.1,60.00646869732698,
positive,yellow,2,None,k,,,,,,,,,0,222,222,222,,,,,,,,,,,,,,,,,,,,,,,,,,,,,,,,,,,,,main,k,k,1,0.8370334999999614,722.4064210000001,None,None,0,,,,,,,,,,,,,,231,22,Female,2022-06-03_17h19.08.280,Main,2022.1.1,60.00646869732698,
negative,yellow,1,k,None,,,,,,,,,0,223,223,223,,,,,,,,,,,,,,,,,,,,,,,,,,,,,,,,,,,,,main,None,None,1,1.5038117999997667,724.2471741999998,None,None,1,,,,,,,,,,,,,,231,22,Female,2022-06-03_17h19.08.280,Main,2022.1.1,60.00646869732698,
positive,yellow,2,None,k,,,,,,,,,0,224,224,224,,,,,,,,,,,,,,,,,,,,,,,,,,,,,,,,,,,,,main,k,k,1,0.8112196000001859,726.7528023,None,None,0,,,,,,,,,,,,,,231,22,Female,2022-06-03_17h19.08.280,Main,2022.1.1,60.00646869732698,
negative,yellow,2,k,None,,,,,,,,,0,225,225,225,,,,,,,,,,,,,,,,,,,,,,,,,,,,,,,,,,,,,main,None,None,1,1.501800699999876,728.5653714999999,None,None,1,,,,,,,,,,,,,,231,22,Female,2022-06-03_17h19.08.280,Main,2022.1.1,60.00646869732698,
negative,blue,2,None,k,,,,,,,,,0,226,226,226,,,,,,,,,,,,,,,,,,,,,,,,,,,,,,,,,,,,,main,k,k,1,0.7983250999996017,731.0674245,None,None,0,,,,,,,,,,,,,,231,22,Female,2022-06-03_17h19.08.280,Main,2022.1.1,60.00646869732698,
positive,red,2,None,None,,,,,,,,,0,227,227,227,,,,,,,,,,,,,,,,,,,,,,,,,,,,,,,,,,,,,main,None,None,1,1.5057922999999391,732.8679560999999,None,None,1,,,,,,,,,,,,,,231,22,Female,2022-06-03_17h19.08.280,Main,2022.1.1,60.00646869732698,
positive,blue,2,k,None,,,,,,,,,0,228,228,228,,,,,,,,,,,,,,,,,,,,,,,,,,,,,,,,,,,,,main,None,None,1,1.5095900000001166,735.3753271,None,None,1,,,,,,,,,,,,,,231,22,Female,2022-06-03_17h19.08.280,Main,2022.1.1,60.00646869732698,
negative,blue,1,None,k,,,,,,,,,0,229,229,229,,,,,,,,,,,,,,,,,,,,,,,,,,,,,,,,,,,,,main,k,k,1,0.9720664999999826,737.8862049999998,None,None,0,,,,,,,,,,,,,,231,22,Female,2022-06-03_17h19.08.280,Main,2022.1.1,60.00646869732698,
positive,yellow,1,None,k,,,,,,,,,0,230,230,230,,,,,,,,,,,,,,,,,,,,,,,,,,,,,,,,,,,,,main,k,k,1,0.7316424999999072,739.8617313999998,None,None,0,,,,,,,,,,,,,,231,22,Female,2022-06-03_17h19.08.280,Main,2022.1.1,60.00646869732698,
negative,blue,2,None,k,,,,,,,,,0,231,231,231,,,,,,,,,,,,,,,,,,,,,,,,,,,,,,,,,,,,,main,k,k,1,1.0118208999997478,741.5946257999999,None,None,0,,,,,,,,,,,,,,231,22,Female,2022-06-03_17h19.08.280,Main,2022.1.1,60.00646869732698,
negative,red,1,None,None,,,,,,,,,0,232,232,232,,,,,,,,,,,,,,,,,,,,,,,,,,,,,,,,,,,,,main,None,None,1,1.5027251000001343,743.6065739999999,None,None,1,,,,,,,,,,,,,,231,22,Female,2022-06-03_17h19.08.280,Main,2022.1.1,60.00646869732698,
positive,blue,2,k,None,,,,,,,,,0,233,233,233,,,,,,,,,,,,,,,,,,,,,,,,,,,,,,,,,,,,,main,None,None,1,1.5004736000000776,746.1125109,None,None,1,,,,,,,,,,,,,,231,22,Female,2022-06-03_17h19.08.280,Main,2022.1.1,60.00646869732698,
negative,yellow,1,k,None,,,,,,,,,0,234,234,234,,,,,,,,,,,,,,,,,,,,,,,,,,,,,,,,,,,,,main,None,None,1,1.5024325000003955,748.6153789999998,None,None,1,,,,,,,,,,,,,,231,22,Female,2022-06-03_17h19.08.280,Main,2022.1.1,60.00646869732698,
negative,yellow,2,k,None,,,,,,,,,0,235,235,235,,,,,,,,,,,,,,,,,,,,,,,,,,,,,,,,,,,,,main,None,None,1,1.510684300000321,751.118156,None,None,1,,,,,,,,,,,,,,231,22,Female,2022-06-03_17h19.08.280,Main,2022.1.1,60.00646869732698,
positive,red,1,None,None,,,,,,,,,0,236,236,236,,,,,,,,,,,,,,,,,,,,,,,,,,,,,,,,,,,,,main,None,None,1,1.5103378999997403,753.6324413000002,None,None,1,,,,,,,,,,,,,,231,22,Female,2022-06-03_17h19.08.280,Main,2022.1.1,60.00646869732698,
negative,red,2,None,None,,,,,,,,,0,237,237,237,,,,,,,,,,,,,,,,,,,,,,,,,,,,,,,,,,,,,main,None,None,1,1.5105450000000928,756.1443241000002,None,None,1,,,,,,,,,,,,,,231,22,Female,2022-06-03_17h19.08.280,Main,2022.1.1,60.00646869732698,
negative,blue,1,None,k,,,,,,,,,0,238,238,238,,,,,,,,,,,,,,,,,,,,,,,,,,,,,,,,,,,,,main,k,k,1,0.8810241999999562,758.6546969000001,None,None,0,,,,,,,,,,,,,,231,22,Female,2022-06-03_17h19.08.280,Main,2022.1.1,60.00646869732698,
positive,blue,1,k,None,,,,,,,,,0,239,239,239,,,,,,,,,,,,,,,,,,,,,,,,,,,,,,,,,,,,,main,None,None,1,1.5011056999996981,760.5367547000001,None,None,1,,,,,,,,,,,,,,231,22,Female,2022-06-03_17h19.08.280,Main,2022.1.1,60.00646869732698,
,,,,,,,,,,,,,,,,,,,,,,,,,,,,,,,,,,,,,,,,,,,,,,,,,,,,,,,,,,,,,,,,,,,,,,,,,763.0350619000001,None,,,,,,,,
