distractor,target,set,ans1,ans2,rep_loop4.thisRepN,rep_loop4.thisTrialN,rep_loop4.thisN,rep_loop4.thisIndex,st2_prac_loop.thisRepN,st2_prac_loop.thisTrialN,st2_prac_loop.thisN,st2_prac_loop.thisIndex,st2_main_loop.thisRepN,st2_main_loop.thisTrialN,st2_main_loop.thisN,st2_main_loop.thisIndex,image_4.started,image_4.stopped,mouse_7.x,mouse_7.y,mouse_7.leftButton,mouse_7.midButton,mouse_7.rightButton,sound_2.started,sound_2.stopped,key_resp_3.keys,mouse_5.x,mouse_5.y,mouse_5.leftButton,mouse_5.midButton,mouse_5.rightButton,mouse_5.started,mouse_5.stopped,yes_text2.started,yes_text2.stopped,no_text2.started,no_text2.stopped,mouse_3.x,mouse_3.y,mouse_3.leftButton,mouse_3.midButton,mouse_3.rightButton,mouse_3.started,mouse_3.stopped,st_prac_back.started,st_prac_back.stopped,st_prac_text.started,st_prac_text.stopped,st_fix_back.started,st_fix_back.stopped,st_fix_2.started,st_fix_2.stopped,main_prac,st_ans,st_res,st_corr,st_rt,st_back.started,st_back.stopped,st2_resp.keys,st2_resp.corr,st_main_back.started,st_main_back.stopped,st_main_text.started,st_main_text.stopped,mouse_4.x,mouse_4.y,mouse_4.leftButton,mouse_4.midButton,mouse_4.rightButton,mouse_4.started,mouse_4.stopped,text_2.started,text_2.stopped,id*,age*,gender*,date,expName,psychopyVersion,frameRate,
,,,,,,,,,,,,,,,,,105.60889350000025,None,0.17314816,-0.17314816,0,0,0,,,,,,,,,,,,,,,,,,,,,,,,,,,,,,,,,,,,,,,,,,,,,,,,,,,,232,19,Female,2022-06-10_13h59.29.334,Main,2022.1.1,60.002040069452704,
negative,yellow,1,k,None,,,,,0,0,0,0,,,,,,,,,,,,171.5176076300001,None,None,0.04074074,-0.027777778,0,0,0,1.005014979999487,None,172.43448609999996,None,172.43448609999996,None,-0.07037037,-0.09166667,0,0,0,0.013259929999549058,None,173.81789310000022,None,173.81789310000022,None,175.79881090000026,None,175.79881090000026,None,prac,k,None,0,3.2114345999998477,177.8441729000001,None,None,0,,,,,,,,,,,,,,232,19,Female,2022-06-10_13h59.29.334,Main,2022.1.1,60.002040069452704,
positive,red,2,None,None,,,,,0,1,1,1,,,,,,,,,,,,,,,,,,,,,,,,,,,,,,,,,,,,,,,,,prac,None,None,1,1.4935562000000573,183.0991924,None,None,1,,,,,,,,,,,,,,232,19,Female,2022-06-10_13h59.29.334,Main,2022.1.1,60.002040069452704,
negative,blue,2,None,k,,,,,0,2,2,2,,,,,,,,,,,,,,,,,,,,,,,,,,,,,,,,,,,,,,,,,prac,None,None,1,1.5070347999999285,185.59501690000025,None,None,1,,,,,,,,,,,,,,232,19,Female,2022-06-10_13h59.29.334,Main,2022.1.1,60.002040069452704,
positive,yellow,1,None,k,,,,,0,3,3,3,,,,,,,,,,,,,,,,,,,,,,,,,,,,,,,,,,,,,,,,,prac,None,None,1,1.5051397000001998,188.0994958000001,None,None,1,,,,,,,,,,,,,,232,19,Female,2022-06-10_13h59.29.334,Main,2022.1.1,60.002040069452704,
negative,blue,2,None,k,,,,,0,4,4,4,,,,,,,,,,,,,,,,,,,,,,,,,,,,,,,,,,,,,,,,,prac,None,None,1,1.4950192000001152,190.59665129999985,None,None,1,,,,,,,,,,,,,,232,19,Female,2022-06-10_13h59.29.334,Main,2022.1.1,60.002040069452704,
negative,blue,1,None,k,,,,,0,5,5,5,,,,,,,,,,,,,,,,,,,,,,,,,,,,,,,,,,,,,,,,,prac,None,None,1,1.5029480000002877,193.09478470000022,None,None,1,,,,,,,,,,,,,,232,19,Female,2022-06-10_13h59.29.334,Main,2022.1.1,60.002040069452704,
negative,yellow,2,k,None,,,,,0,6,6,6,,,,,,,,,,,,,,,,,,,,,,,,,,,,,,,,,,,,,,,,,prac,k,k,1,1.3019211999999243,195.6017465,None,None,0,,,,,,,,,,,,,,232,19,Female,2022-06-10_13h59.29.334,Main,2022.1.1,60.002040069452704,
negative,red,1,None,None,,,,,0,7,7,7,,,,,,,,,,,,,,,,,,,,,,,,,,,,,,,,,,,,,,,,,prac,None,None,1,1.5129222999999001,197.91333250000025,None,None,1,,,,,,,,,,,,,,232,19,Female,2022-06-10_13h59.29.334,Main,2022.1.1,60.002040069452704,
positive,yellow,2,None,k,,,,,0,8,8,8,,,,,,,,,,,,,,,,,,,,,,,,,,,,,,,,,,,,,,,,,prac,None,None,1,1.5053173999999672,200.41769599999998,None,None,1,,,,,,,,,,,,,,232,19,Female,2022-06-10_13h59.29.334,Main,2022.1.1,60.002040069452704,
negative,yellow,1,k,None,,,,,0,9,9,9,,,,,,,,,,,,,,,,,,,,,,,,,,,,,,,,,,,,,,,,,prac,k,k,1,1.5905319999997118,202.92382880000014,None,None,0,,,,,,,,,,,,,,232,19,Female,2022-06-10_13h59.29.334,Main,2022.1.1,60.002040069452704,
positive,yellow,2,None,k,,,,,0,10,10,10,,,,,,,,,,,,,,,,,,,,,,,,,,,,,,,,,,,,,,,,,prac,None,None,1,1.4896341000003304,206.5147247,None,None,1,,,,,,,,,,,,,,232,19,Female,2022-06-10_13h59.29.334,Main,2022.1.1,60.002040069452704,
negative,yellow,2,k,None,,,,,0,11,11,11,,,,,,,,,,,,,,,,,,,,,,,,,,,,,,,,,,,,,,,,,prac,k,k,1,1.2420789000002515,209.00549760000013,None,None,0,,,,,,,,,,,,,,232,19,Female,2022-06-10_13h59.29.334,Main,2022.1.1,60.002040069452704,
negative,red,2,None,None,,,,,0,12,12,12,,,,,,,,,,,,,,,,,,,,,,,,,,,,,,,,,,,,,,,,,prac,None,None,1,1.5114196999998057,211.24893580000025,None,None,1,,,,,,,,,,,,,,232,19,Female,2022-06-10_13h59.29.334,Main,2022.1.1,60.002040069452704,
positive,red,1,None,None,,,,,0,13,13,13,,,,,,,,,,,,,,,,,,,,,,,,,,,,,,,,,,,,,,,,,prac,None,None,1,1.5061319000001276,213.76112550000016,None,None,1,,,,,,,,,,,,,,232,19,Female,2022-06-10_13h59.29.334,Main,2022.1.1,60.002040069452704,
positive,blue,2,k,None,,,,,0,14,14,14,,,,,,,,,,,,,,,,,,,,,,,,,,,,,,,,,,,,,,,,,prac,k,k,1,0.896665700000085,216.27102430000014,None,None,0,,,,,,,,,,,,,,232,19,Female,2022-06-10_13h59.29.334,Main,2022.1.1,60.002040069452704,
positive,blue,1,k,None,,,,,0,15,15,15,,,,,,,,,,,,,,,,,,,,,,,,,,,,,,,,,,,,,,,,,prac,k,k,1,1.3163886000002094,218.16911759999994,None,None,0,,,,,,,,,,,,,,232,19,Female,2022-06-10_13h59.29.334,Main,2022.1.1,60.002040069452704,
negative,blue,1,None,k,,,,,0,16,16,16,,,,,,,,,,,,,,,,,,,,,,,,,,,,,,,,,,,,,,,,,prac,None,None,1,1.5041587999999138,220.48728660000006,None,None,1,,,,,,,,,,,,,,232,19,Female,2022-06-10_13h59.29.334,Main,2022.1.1,60.002040069452704,
positive,blue,2,k,None,,,,,0,17,17,17,,,,,,,,,,,,,,,,,,,,,,,,,,,,,,,,,,,,,,,,,prac,k,k,1,6.917510999999649,222.99210070000026,None,None,0,,,,,,,,,,,,,,232,19,Female,2022-06-10_13h59.29.334,Main,2022.1.1,60.002040069452704,
positive,blue,1,k,None,,,,,0,18,18,18,,,,,,,,,,,,,,,,,,,,,,,,,,,,,,,,,,,,,,,,,prac,k,k,1,1.223842599999898,231.92819169999984,None,None,0,,,,,,,,,,,,,,232,19,Female,2022-06-10_13h59.29.334,Main,2022.1.1,60.002040069452704,
positive,yellow,1,None,k,,,,,0,19,19,19,,,,,,,,,,,,,,,,,,,,,,,,,,,,,,,,,,,,,,,,,prac,None,None,1,1.5019288000003144,234.1534231999999,None,None,1,,,,,,,,,,,,,,232,19,Female,2022-06-10_13h59.29.334,Main,2022.1.1,60.002040069452704,
negative,yellow,1,k,None,,,,,1,0,20,0,,,,,,,,,,,,,,,,,,,,,,,,,,,,,,,,,,,,,,,,,prac,k,k,1,1.1536473000001024,236.65844500000003,None,None,0,,,,,,,,,,,,,,232,19,Female,2022-06-10_13h59.29.334,Main,2022.1.1,60.002040069452704,
positive,red,2,None,None,,,,,1,1,21,1,,,,,,,,,,,,,,,,,,,,,,,,,,,,,,,,,,,,,,,,,prac,None,None,1,1.5069911999999022,238.82521970000016,None,None,1,,,,,,,,,,,,,,232,19,Female,2022-06-10_13h59.29.334,Main,2022.1.1,60.002040069452704,
negative,blue,2,None,k,,,,,1,2,22,2,,,,,,,,,,,,,,,,,,,,,,,,,,,,,,,,,,,,,,,,,prac,None,None,1,1.4983454999996866,241.3221650999999,None,None,1,,,,,,,,,,,,,,232,19,Female,2022-06-10_13h59.29.334,Main,2022.1.1,60.002040069452704,
positive,yellow,1,None,k,,,,,1,3,23,3,,,,,,,,,,,,,,,,,,,,,,,,,,,,,,,,,,,,,,,,,prac,None,None,1,1.4947870999999395,243.8339019,None,None,1,,,,,,,,,,,,,,232,19,Female,2022-06-10_13h59.29.334,Main,2022.1.1,60.002040069452704,
negative,blue,2,None,k,,,,,1,4,24,4,,,,,,,,,,,,,,,,,,,,,,,,,,,,,,,,,,,,,,,,,prac,None,None,1,1.4968017000001055,246.32097109999995,None,None,1,,,,,,,,,,,,,,232,19,Female,2022-06-10_13h59.29.334,Main,2022.1.1,60.002040069452704,
negative,blue,1,None,k,,,,,1,5,25,5,,,,,,,,,,,,,,,,,,,,,,,,,,,,,,,,,,,,,,,,,prac,None,None,1,1.5061534000001302,248.81939760000023,None,None,1,,,,,,,,,,,,,,232,19,Female,2022-06-10_13h59.29.334,Main,2022.1.1,60.002040069452704,
negative,yellow,2,k,None,,,,,1,6,26,6,,,,,,,,,,,,,,,,,,,,,,,,,,,,,,,,,,,,,,,,,prac,k,k,1,1.314459700000043,251.32766960000026,None,None,0,,,,,,,,,,,,,,232,19,Female,2022-06-10_13h59.29.334,Main,2022.1.1,60.002040069452704,
negative,red,1,None,None,,,,,1,7,27,7,,,,,,,,,,,,,,,,,,,,,,,,,,,,,,,,,,,,,,,,,prac,None,None,1,1.5097068000000036,253.64140869999983,None,None,1,,,,,,,,,,,,,,232,19,Female,2022-06-10_13h59.29.334,Main,2022.1.1,60.002040069452704,
positive,yellow,2,None,k,,,,,1,8,28,8,,,,,,,,,,,,,,,,,,,,,,,,,,,,,,,,,,,,,,,,,prac,None,None,1,1.5039331000002676,256.15416689999984,None,None,1,,,,,,,,,,,,,,232,19,Female,2022-06-10_13h59.29.334,Main,2022.1.1,60.002040069452704,
negative,yellow,1,k,None,,,,,1,9,29,9,,,,,,,,,,,,,,,,,,,,,,,,,,,,,,,,,,,,,,,,,prac,k,k,1,1.196056999999655,258.66164160000017,None,None,0,,,,,,,,,,,,,,232,19,Female,2022-06-10_13h59.29.334,Main,2022.1.1,60.002040069452704,
positive,yellow,2,None,k,,,,,1,10,30,10,,,,,,,,,,,,,,,,,,,,,,,,,,,,,,,,,,,,,,,,,prac,None,None,1,1.498111699999754,260.85986490000005,None,None,1,,,,,,,,,,,,,,232,19,Female,2022-06-10_13h59.29.334,Main,2022.1.1,60.002040069452704,
negative,yellow,2,k,None,,,,,1,11,31,11,,,,,,,,,,,,,,,,,,,,,,,,,,,,,,,,,,,,,,,,,prac,k,k,1,0.798658599999726,263.3576723000001,None,None,0,,,,,,,,,,,,,,232,19,Female,2022-06-10_13h59.29.334,Main,2022.1.1,60.002040069452704,
negative,red,2,None,None,,,,,1,12,32,12,,,,,,,,,,,,,,,,,,,,,,,,,,,,,,,,,,,,,,,,,prac,None,None,1,1.5007714999997006,265.15913839999985,None,None,1,,,,,,,,,,,,,,232,19,Female,2022-06-10_13h59.29.334,Main,2022.1.1,60.002040069452704,
positive,red,1,None,None,,,,,1,13,33,13,,,,,,,,,,,,,,,,,,,,,,,,,,,,,,,,,,,,,,,,,prac,None,None,1,1.5002040999997917,267.66128560000016,None,None,1,,,,,,,,,,,,,,232,19,Female,2022-06-10_13h59.29.334,Main,2022.1.1,60.002040069452704,
positive,blue,2,k,None,,,,,1,14,34,14,,,,,,,,,,,,,,,,,,,,,,,,,,,,,,,,,,,,,,,,,prac,k,k,1,0.7647769999998673,270.1631738000001,None,None,0,,,,,,,,,,,,,,232,19,Female,2022-06-10_13h59.29.334,Main,2022.1.1,60.002040069452704,
positive,blue,1,k,None,,,,,1,15,35,15,,,,,,,,,,,,,,,,,,,,,,,,,,,,,,,,,,,,,,,,,prac,k,k,1,2.0020589000000655,271.9297151999999,None,None,0,,,,,,,,,,,,,,232,19,Female,2022-06-10_13h59.29.334,Main,2022.1.1,60.002040069452704,
negative,blue,1,None,k,,,,,1,16,36,16,,,,,,,,,,,,,,,,,,,,,,,,,,,,,,,,,,,,,,,,,prac,None,None,1,1.4944193999999698,275.9393034999998,None,None,1,,,,,,,,,,,,,,232,19,Female,2022-06-10_13h59.29.334,Main,2022.1.1,60.002040069452704,
positive,blue,2,k,None,,,,,1,17,37,17,,,,,,,,,,,,,,,,,,,,,,,,,,,,,,,,,,,,,,,,,prac,k,k,1,1.1672621000002437,278.4350923000002,None,None,0,,,,,,,,,,,,,,232,19,Female,2022-06-10_13h59.29.334,Main,2022.1.1,60.002040069452704,
positive,blue,1,k,None,,,,,1,18,38,18,,,,,,,,,,,,,,,,,,,,,,,,,,,,,,,,,,,,,,,,,prac,k,k,1,0.9185865999997986,280.60700020000013,None,None,0,,,,,,,,,,,,,,232,19,Female,2022-06-10_13h59.29.334,Main,2022.1.1,60.002040069452704,
positive,yellow,1,None,k,,,,,1,19,39,19,,,,,,,,,,,,,,,,,,,,,,,,,,,,,,,,,,,,,,,,,prac,None,None,1,1.497837200000049,282.5268771000001,None,None,1,,,,,,,,,,,,,,232,19,Female,2022-06-10_13h59.29.334,Main,2022.1.1,60.002040069452704,
,,,,,,,,,,,,,,,,,,,,,,,,,,,,,,,,,,,,,,,,,,,,,,,,,,,,,,,,,,,,,,285.04126769999993,None,285.04126769999993,None,0.06759259,-0.015740741,0,0,0,0.012366429999474349,None,,,232,19,Female,2022-06-10_13h59.29.334,Main,2022.1.1,60.002040069452704,
negative,yellow,2,k,None,,,,,,,,,0,0,0,0,,,,,,,,,,,,,,,,,,,,,,,,,,,,,,,,,286.2564833000001,None,286.2564833000001,None,main,k,k,1,1.8475051000000349,288.31949029999987,None,None,0,,,,,,,,,,,,,,232,19,Female,2022-06-10_13h59.29.334,Main,2022.1.1,60.002040069452704,
positive,red,1,None,None,,,,,,,,,0,1,1,1,,,,,,,,,,,,,,,,,,,,,,,,,,,,,,,,,,,,,main,None,None,1,1.5036110999999437,292.1874839000002,None,None,1,,,,,,,,,,,,,,232,19,Female,2022-06-10_13h59.29.334,Main,2022.1.1,60.002040069452704,
positive,blue,2,k,None,,,,,,,,,0,2,2,2,,,,,,,,,,,,,,,,,,,,,,,,,,,,,,,,,,,,,main,k,k,1,1.018072900000334,294.6927052000001,None,None,0,,,,,,,,,,,,,,232,19,Female,2022-06-10_13h59.29.334,Main,2022.1.1,60.002040069452704,
positive,blue,1,k,None,,,,,,,,,0,3,3,3,,,,,,,,,,,,,,,,,,,,,,,,,,,,,,,,,,,,,main,k,k,1,0.8826705000001311,296.7133742000001,None,None,0,,,,,,,,,,,,,,232,19,Female,2022-06-10_13h59.29.334,Main,2022.1.1,60.002040069452704,
negative,yellow,2,k,None,,,,,,,,,0,4,4,4,,,,,,,,,,,,,,,,,,,,,,,,,,,,,,,,,,,,,main,k,k,1,0.8419289000003118,298.5973527000001,None,None,0,,,,,,,,,,,,,,232,19,Female,2022-06-10_13h59.29.334,Main,2022.1.1,60.002040069452704,
positive,yellow,2,None,k,,,,,,,,,0,5,5,5,,,,,,,,,,,,,,,,,,,,,,,,,,,,,,,,,,,,,main,None,None,1,1.4998052999999345,300.44057969999994,None,None,1,,,,,,,,,,,,,,232,19,Female,2022-06-10_13h59.29.334,Main,2022.1.1,60.002040069452704,
negative,blue,2,None,k,,,,,,,,,0,6,6,6,,,,,,,,,,,,,,,,,,,,,,,,,,,,,,,,,,,,,main,None,None,1,1.4971826000000874,302.94144670000014,None,None,1,,,,,,,,,,,,,,232,19,Female,2022-06-10_13h59.29.334,Main,2022.1.1,60.002040069452704,
positive,red,2,None,None,,,,,,,,,0,7,7,7,,,,,,,,,,,,,,,,,,,,,,,,,,,,,,,,,,,,,main,None,None,1,1.5080116000003727,305.44042320000017,None,None,1,,,,,,,,,,,,,,232,19,Female,2022-06-10_13h59.29.334,Main,2022.1.1,60.002040069452704,
positive,yellow,1,None,k,,,,,,,,,0,8,8,8,,,,,,,,,,,,,,,,,,,,,,,,,,,,,,,,,,,,,main,None,None,1,1.5097042000002148,307.94854410000016,None,None,1,,,,,,,,,,,,,,232,19,Female,2022-06-10_13h59.29.334,Main,2022.1.1,60.002040069452704,
negative,red,1,None,None,,,,,,,,,0,9,9,9,,,,,,,,,,,,,,,,,,,,,,,,,,,,,,,,,,,,,main,None,None,1,1.499698300000091,310.46105510000007,None,None,1,,,,,,,,,,,,,,232,19,Female,2022-06-10_13h59.29.334,Main,2022.1.1,60.002040069452704,
positive,yellow,1,None,k,,,,,,,,,0,10,10,10,,,,,,,,,,,,,,,,,,,,,,,,,,,,,,,,,,,,,main,None,None,1,1.5024978999999803,312.96321260000013,None,None,1,,,,,,,,,,,,,,232,19,Female,2022-06-10_13h59.29.334,Main,2022.1.1,60.002040069452704,
negative,yellow,1,k,None,,,,,,,,,0,11,11,11,,,,,,,,,,,,,,,,,,,,,,,,,,,,,,,,,,,,,main,k,k,1,0.8483615999998619,315.4646723999999,None,None,0,,,,,,,,,,,,,,232,19,Female,2022-06-10_13h59.29.334,Main,2022.1.1,60.002040069452704,
negative,yellow,1,k,None,,,,,,,,,0,12,12,12,,,,,,,,,,,,,,,,,,,,,,,,,,,,,,,,,,,,,main,k,k,1,0.788977100000011,317.3147426999999,None,None,0,,,,,,,,,,,,,,232,19,Female,2022-06-10_13h59.29.334,Main,2022.1.1,60.002040069452704,
negative,red,2,None,None,,,,,,,,,0,13,13,13,,,,,,,,,,,,,,,,,,,,,,,,,,,,,,,,,,,,,main,None,None,1,1.4956089999996038,319.10786640000015,None,None,1,,,,,,,,,,,,,,232,19,Female,2022-06-10_13h59.29.334,Main,2022.1.1,60.002040069452704,
positive,yellow,2,None,k,,,,,,,,,0,14,14,14,,,,,,,,,,,,,,,,,,,,,,,,,,,,,,,,,,,,,main,None,None,1,1.4939626000000317,321.60455409999986,None,None,1,,,,,,,,,,,,,,232,19,Female,2022-06-10_13h59.29.334,Main,2022.1.1,60.002040069452704,
positive,blue,1,k,None,,,,,,,,,0,15,15,15,,,,,,,,,,,,,,,,,,,,,,,,,,,,,,,,,,,,,main,k,k,1,0.9378085000003011,324.09788359999993,None,None,0,,,,,,,,,,,,,,232,19,Female,2022-06-10_13h59.29.334,Main,2022.1.1,60.002040069452704,
negative,blue,1,None,k,,,,,,,,,0,16,16,16,,,,,,,,,,,,,,,,,,,,,,,,,,,,,,,,,,,,,main,None,None,1,1.5023285000002033,326.0395391000002,None,None,1,,,,,,,,,,,,,,232,19,Female,2022-06-10_13h59.29.334,Main,2022.1.1,60.002040069452704,
positive,blue,2,k,None,,,,,,,,,0,17,17,17,,,,,,,,,,,,,,,,,,,,,,,,,,,,,,,,,,,,,main,k,k,1,0.793706899999961,328.5436878999999,None,None,0,,,,,,,,,,,,,,232,19,Female,2022-06-10_13h59.29.334,Main,2022.1.1,60.002040069452704,
negative,blue,2,None,k,,,,,,,,,0,18,18,18,,,,,,,,,,,,,,,,,,,,,,,,,,,,,,,,,,,,,main,None,None,1,1.5023814999999558,330.33944870000005,None,None,1,,,,,,,,,,,,,,232,19,Female,2022-06-10_13h59.29.334,Main,2022.1.1,60.002040069452704,
negative,blue,1,None,k,,,,,,,,,0,19,19,19,,,,,,,,,,,,,,,,,,,,,,,,,,,,,,,,,,,,,main,None,None,1,1.4967611999995825,332.84274760000017,None,None,1,,,,,,,,,,,,,,232,19,Female,2022-06-10_13h59.29.334,Main,2022.1.1,60.002040069452704,
negative,blue,1,None,k,,,,,,,,,0,20,20,20,,,,,,,,,,,,,,,,,,,,,,,,,,,,,,,,,,,,,main,None,None,1,1.49329089999992,335.34094110000024,None,None,1,,,,,,,,,,,,,,232,19,Female,2022-06-10_13h59.29.334,Main,2022.1.1,60.002040069452704,
negative,blue,2,None,k,,,,,,,,,0,21,21,21,,,,,,,,,,,,,,,,,,,,,,,,,,,,,,,,,,,,,main,None,None,1,1.4999836000001778,337.8363657,None,None,1,,,,,,,,,,,,,,232,19,Female,2022-06-10_13h59.29.334,Main,2022.1.1,60.002040069452704,
negative,red,1,None,None,,,,,,,,,0,22,22,22,,,,,,,,,,,,,,,,,,,,,,,,,,,,,,,,,,,,,main,None,None,1,1.4964342999996916,340.3377753,None,None,1,,,,,,,,,,,,,,232,19,Female,2022-06-10_13h59.29.334,Main,2022.1.1,60.002040069452704,
positive,red,2,None,None,,,,,,,,,0,23,23,23,,,,,,,,,,,,,,,,,,,,,,,,,,,,,,,,,,,,,main,None,None,1,1.5099632000001293,342.8367696999999,None,None,1,,,,,,,,,,,,,,232,19,Female,2022-06-10_13h59.29.334,Main,2022.1.1,60.002040069452704,
negative,red,2,None,None,,,,,,,,,0,24,24,24,,,,,,,,,,,,,,,,,,,,,,,,,,,,,,,,,,,,,main,None,None,1,1.5020306999999775,345.3447752000002,None,None,1,,,,,,,,,,,,,,232,19,Female,2022-06-10_13h59.29.334,Main,2022.1.1,60.002040069452704,
positive,blue,2,k,None,,,,,,,,,0,25,25,25,,,,,,,,,,,,,,,,,,,,,,,,,,,,,,,,,,,,,main,k,k,1,1.027837300000101,347.8504828,None,None,0,,,,,,,,,,,,,,232,19,Female,2022-06-10_13h59.29.334,Main,2022.1.1,60.002040069452704,
negative,yellow,1,k,None,,,,,,,,,0,26,26,26,,,,,,,,,,,,,,,,,,,,,,,,,,,,,,,,,,,,,main,k,k,1,1.0510663999998542,349.8777248000001,None,None,0,,,,,,,,,,,,,,232,19,Female,2022-06-10_13h59.29.334,Main,2022.1.1,60.002040069452704,
positive,blue,2,k,None,,,,,,,,,0,27,27,27,,,,,,,,,,,,,,,,,,,,,,,,,,,,,,,,,,,,,main,k,k,1,0.9994796000000861,351.93292580000025,None,None,0,,,,,,,,,,,,,,232,19,Female,2022-06-10_13h59.29.334,Main,2022.1.1,60.002040069452704,
negative,blue,2,None,k,,,,,,,,,0,28,28,28,,,,,,,,,,,,,,,,,,,,,,,,,,,,,,,,,,,,,main,None,None,1,1.5030495000000883,353.9343385000002,None,None,1,,,,,,,,,,,,,,232,19,Female,2022-06-10_13h59.29.334,Main,2022.1.1,60.002040069452704,
positive,red,1,None,None,,,,,,,,,0,29,29,29,,,,,,,,,,,,,,,,,,,,,,,,,,,,,,,,,,,,,main,None,None,1,1.5078951999998935,356.43719409999994,None,None,1,,,,,,,,,,,,,,232,19,Female,2022-06-10_13h59.29.334,Main,2022.1.1,60.002040069452704,
positive,blue,1,k,None,,,,,,,,,0,30,30,30,,,,,,,,,,,,,,,,,,,,,,,,,,,,,,,,,,,,,main,k,k,1,0.9749786999996104,358.94695950000005,None,None,0,,,,,,,,,,,,,,232,19,Female,2022-06-10_13h59.29.334,Main,2022.1.1,60.002040069452704,
positive,yellow,1,None,k,,,,,,,,,0,31,31,31,,,,,,,,,,,,,,,,,,,,,,,,,,,,,,,,,,,,,main,None,None,1,1.4943570999998883,360.92332480000005,None,None,1,,,,,,,,,,,,,,232,19,Female,2022-06-10_13h59.29.334,Main,2022.1.1,60.002040069452704,
negative,yellow,2,k,None,,,,,,,,,0,32,32,32,,,,,,,,,,,,,,,,,,,,,,,,,,,,,,,,,,,,,main,k,k,1,1.2300921000000926,363.4191897999999,None,None,0,,,,,,,,,,,,,,232,19,Female,2022-06-10_13h59.29.334,Main,2022.1.1,60.002040069452704,
negative,blue,1,None,k,,,,,,,,,0,33,33,33,,,,,,,,,,,,,,,,,,,,,,,,,,,,,,,,,,,,,main,None,None,1,1.4964782000001833,365.65158359999987,None,None,1,,,,,,,,,,,,,,232,19,Female,2022-06-10_13h59.29.334,Main,2022.1.1,60.002040069452704,
positive,blue,1,k,None,,,,,,,,,0,34,34,34,,,,,,,,,,,,,,,,,,,,,,,,,,,,,,,,,,,,,main,k,k,1,1.0104910000000018,368.14941350000026,None,None,0,,,,,,,,,,,,,,232,19,Female,2022-06-10_13h59.29.334,Main,2022.1.1,60.002040069452704,
negative,yellow,1,k,None,,,,,,,,,0,35,35,35,,,,,,,,,,,,,,,,,,,,,,,,,,,,,,,,,,,,,main,k,k,1,1.3143692000003284,370.1616432999999,None,None,0,,,,,,,,,,,,,,232,19,Female,2022-06-10_13h59.29.334,Main,2022.1.1,60.002040069452704,
positive,yellow,2,None,k,,,,,,,,,0,36,36,36,,,,,,,,,,,,,,,,,,,,,,,,,,,,,,,,,,,,,main,None,None,1,1.5105663999997887,372.47469360000014,None,None,1,,,,,,,,,,,,,,232,19,Female,2022-06-10_13h59.29.334,Main,2022.1.1,60.002040069452704,
positive,yellow,2,None,k,,,,,,,,,0,37,37,37,,,,,,,,,,,,,,,,,,,,,,,,,,,,,,,,,,,,,main,None,None,1,1.5026247000000694,374.988609,None,None,1,,,,,,,,,,,,,,232,19,Female,2022-06-10_13h59.29.334,Main,2022.1.1,60.002040069452704,
negative,yellow,2,k,None,,,,,,,,,0,38,38,38,,,,,,,,,,,,,,,,,,,,,,,,,,,,,,,,,,,,,main,k,k,1,0.8181349000001319,377.49457429999984,None,None,0,,,,,,,,,,,,,,232,19,Female,2022-06-10_13h59.29.334,Main,2022.1.1,60.002040069452704,
positive,yellow,1,None,k,,,,,,,,,0,39,39,39,,,,,,,,,,,,,,,,,,,,,,,,,,,,,,,,,,,,,main,None,None,1,1.5059713999999076,379.31545529999994,None,None,1,,,,,,,,,,,,,,232,19,Female,2022-06-10_13h59.29.334,Main,2022.1.1,60.002040069452704,
negative,yellow,2,k,None,,,,,,,,,0,40,40,40,,,,,,,,,,,,,,,,,,,,,,,,,,,,,,,,,,,,,main,k,k,1,0.8085858000004009,381.8213513999999,None,None,0,,,,,,,,,,,,,,232,19,Female,2022-06-10_13h59.29.334,Main,2022.1.1,60.002040069452704,
positive,blue,2,k,None,,,,,,,,,0,41,41,41,,,,,,,,,,,,,,,,,,,,,,,,,,,,,,,,,,,,,main,k,k,1,0.7516709000001356,383.63307239999995,None,None,0,,,,,,,,,,,,,,232,19,Female,2022-06-10_13h59.29.334,Main,2022.1.1,60.002040069452704,
positive,blue,2,k,None,,,,,,,,,0,42,42,42,,,,,,,,,,,,,,,,,,,,,,,,,,,,,,,,,,,,,main,k,k,1,0.6710664000001998,385.3860045000001,None,None,0,,,,,,,,,,,,,,232,19,Female,2022-06-10_13h59.29.334,Main,2022.1.1,60.002040069452704,
negative,blue,2,None,k,,,,,,,,,0,43,43,43,,,,,,,,,,,,,,,,,,,,,,,,,,,,,,,,,,,,,main,None,None,1,1.5025556000000506,387.0592356000002,None,None,1,,,,,,,,,,,,,,232,19,Female,2022-06-10_13h59.29.334,Main,2022.1.1,60.002040069452704,
negative,red,1,None,None,,,,,,,,,0,44,44,44,,,,,,,,,,,,,,,,,,,,,,,,,,,,,,,,,,,,,main,None,None,1,1.5040912999998,389.56361370000013,None,None,1,,,,,,,,,,,,,,232,19,Female,2022-06-10_13h59.29.334,Main,2022.1.1,60.002040069452704,
negative,yellow,1,k,None,,,,,,,,,0,45,45,45,,,,,,,,,,,,,,,,,,,,,,,,,,,,,,,,,,,,,main,k,k,1,0.722975299999689,392.06807370000024,None,None,0,,,,,,,,,,,,,,232,19,Female,2022-06-10_13h59.29.334,Main,2022.1.1,60.002040069452704,
negative,yellow,1,k,None,,,,,,,,,0,46,46,46,,,,,,,,,,,,,,,,,,,,,,,,,,,,,,,,,,,,,main,k,k,1,0.6640693000003921,393.7933902,None,None,0,,,,,,,,,,,,,,232,19,Female,2022-06-10_13h59.29.334,Main,2022.1.1,60.002040069452704,
positive,red,1,None,None,,,,,,,,,0,47,47,47,,,,,,,,,,,,,,,,,,,,,,,,,,,,,,,,,,,,,main,None,None,1,1.5097419999997328,395.45830720000004,None,None,1,,,,,,,,,,,,,,232,19,Female,2022-06-10_13h59.29.334,Main,2022.1.1,60.002040069452704,
positive,yellow,1,None,k,,,,,,,,,0,48,48,48,,,,,,,,,,,,,,,,,,,,,,,,,,,,,,,,,,,,,main,None,None,1,1.5065295999997943,397.9699227000001,None,None,1,,,,,,,,,,,,,,232,19,Female,2022-06-10_13h59.29.334,Main,2022.1.1,60.002040069452704,
negative,blue,1,None,k,,,,,,,,,0,49,49,49,,,,,,,,,,,,,,,,,,,,,,,,,,,,,,,,,,,,,main,None,None,1,1.497481599999901,400.4800485999999,None,None,1,,,,,,,,,,,,,,232,19,Female,2022-06-10_13h59.29.334,Main,2022.1.1,60.002040069452704,
positive,yellow,2,None,k,,,,,,,,,0,50,50,50,,,,,,,,,,,,,,,,,,,,,,,,,,,,,,,,,,,,,main,None,None,1,1.5102357000000666,402.9797831000001,None,None,1,,,,,,,,,,,,,,232,19,Female,2022-06-10_13h59.29.334,Main,2022.1.1,60.002040069452704,
negative,blue,1,None,k,,,,,,,,,0,51,51,51,,,,,,,,,,,,,,,,,,,,,,,,,,,,,,,,,,,,,main,None,None,1,1.5075489999999263,405.48853210000016,None,None,1,,,,,,,,,,,,,,232,19,Female,2022-06-10_13h59.29.334,Main,2022.1.1,60.002040069452704,
positive,red,2,None,None,,,,,,,,,0,52,52,52,,,,,,,,,,,,,,,,,,,,,,,,,,,,,,,,,,,,,main,None,None,1,1.5082523999999466,407.99916489999987,None,None,1,,,,,,,,,,,,,,232,19,Female,2022-06-10_13h59.29.334,Main,2022.1.1,60.002040069452704,
positive,yellow,2,None,k,,,,,,,,,0,53,53,53,,,,,,,,,,,,,,,,,,,,,,,,,,,,,,,,,,,,,main,None,None,1,1.5007136999997783,410.5091594999999,None,None,1,,,,,,,,,,,,,,232,19,Female,2022-06-10_13h59.29.334,Main,2022.1.1,60.002040069452704,
negative,red,2,None,None,,,,,,,,,0,54,54,54,,,,,,,,,,,,,,,,,,,,,,,,,,,,,,,,,,,,,main,None,None,1,1.4999195000000327,413.0112743999998,None,None,1,,,,,,,,,,,,,,232,19,Female,2022-06-10_13h59.29.334,Main,2022.1.1,60.002040069452704,
positive,yellow,1,None,k,,,,,,,,,0,55,55,55,,,,,,,,,,,,,,,,,,,,,,,,,,,,,,,,,,,,,main,None,None,1,1.4946844000000965,415.51237089999995,None,None,1,,,,,,,,,,,,,,232,19,Female,2022-06-10_13h59.29.334,Main,2022.1.1,60.002040069452704,
negative,blue,2,None,k,,,,,,,,,0,56,56,56,,,,,,,,,,,,,,,,,,,,,,,,,,,,,,,,,,,,,main,None,None,1,1.5028354999999465,418.0090630999998,None,None,1,,,,,,,,,,,,,,232,19,Female,2022-06-10_13h59.29.334,Main,2022.1.1,60.002040069452704,
positive,blue,1,k,None,,,,,,,,,0,57,57,57,,,,,,,,,,,,,,,,,,,,,,,,,,,,,,,,,,,,,main,k,k,1,1.0900040000001354,420.5127729000001,None,None,0,,,,,,,,,,,,,,232,19,Female,2022-06-10_13h59.29.334,Main,2022.1.1,60.002040069452704,
positive,blue,1,k,None,,,,,,,,,0,58,58,58,,,,,,,,,,,,,,,,,,,,,,,,,,,,,,,,,,,,,main,k,k,1,0.9074281999996856,422.60458849999986,None,None,0,,,,,,,,,,,,,,232,19,Female,2022-06-10_13h59.29.334,Main,2022.1.1,60.002040069452704,
negative,yellow,2,k,None,,,,,,,,,0,59,59,59,,,,,,,,,,,,,,,,,,,,,,,,,,,,,,,,,,,,,main,k,k,1,0.8069390999999086,424.51274999999987,None,None,0,,,,,,,,,,,,,,232,19,Female,2022-06-10_13h59.29.334,Main,2022.1.1,60.002040069452704,
positive,red,2,None,None,,,,,,,,,0,60,60,60,,,,,,,,,,,,,,,,,,,,,,,,,,,,,,,,,,,,,main,None,None,1,1.5074860999998236,426.3195657000001,None,None,1,,,,,,,,,,,,,,232,19,Female,2022-06-10_13h59.29.334,Main,2022.1.1,60.002040069452704,
negative,yellow,1,k,None,,,,,,,,,0,61,61,61,,,,,,,,,,,,,,,,,,,,,,,,,,,,,,,,,,,,,main,k,k,1,0.8229557999998178,428.83027029999994,None,None,0,,,,,,,,,,,,,,232,19,Female,2022-06-10_13h59.29.334,Main,2022.1.1,60.002040069452704,
negative,red,1,None,None,,,,,,,,,0,62,62,62,,,,,,,,,,,,,,,,,,,,,,,,,,,,,,,,,,,,,main,None,None,1,1.5020782999999938,430.65530769999987,None,None,1,,,,,,,,,,,,,,232,19,Female,2022-06-10_13h59.29.334,Main,2022.1.1,60.002040069452704,
negative,blue,1,None,k,,,,,,,,,0,63,63,63,,,,,,,,,,,,,,,,,,,,,,,,,,,,,,,,,,,,,main,None,None,1,1.5086888999999246,433.1586963999998,None,None,1,,,,,,,,,,,,,,232,19,Female,2022-06-10_13h59.29.334,Main,2022.1.1,60.002040069452704,
positive,blue,2,k,None,,,,,,,,,0,64,64,64,,,,,,,,,,,,,,,,,,,,,,,,,,,,,,,,,,,,,main,k,k,1,0.7846232999995664,435.6661782000001,None,None,0,,,,,,,,,,,,,,232,19,Female,2022-06-10_13h59.29.334,Main,2022.1.1,60.002040069452704,
negative,yellow,2,k,None,,,,,,,,,0,65,65,65,,,,,,,,,,,,,,,,,,,,,,,,,,,,,,,,,,,,,main,k,k,1,0.7831759999999122,437.45468489999985,None,None,0,,,,,,,,,,,,,,232,19,Female,2022-06-10_13h59.29.334,Main,2022.1.1,60.002040069452704,
positive,yellow,2,None,k,,,,,,,,,0,66,66,66,,,,,,,,,,,,,,,,,,,,,,,,,,,,,,,,,,,,,main,None,None,1,1.5089155999999093,439.2393095000002,None,None,1,,,,,,,,,,,,,,232,19,Female,2022-06-10_13h59.29.334,Main,2022.1.1,60.002040069452704,
positive,yellow,2,None,k,,,,,,,,,0,67,67,67,,,,,,,,,,,,,,,,,,,,,,,,,,,,,,,,,,,,,main,None,None,1,1.5089242999997623,441.7481455000002,None,None,1,,,,,,,,,,,,,,232,19,Female,2022-06-10_13h59.29.334,Main,2022.1.1,60.002040069452704,
positive,red,1,None,None,,,,,,,,,0,68,68,68,,,,,,,,,,,,,,,,,,,,,,,,,,,,,,,,,,,,,main,None,None,1,1.5017227999996976,444.26020419999986,None,None,1,,,,,,,,,,,,,,232,19,Female,2022-06-10_13h59.29.334,Main,2022.1.1,60.002040069452704,
positive,yellow,1,None,k,,,,,,,,,0,69,69,69,,,,,,,,,,,,,,,,,,,,,,,,,,,,,,,,,,,,,main,None,None,1,1.506092499999795,446.76372119999996,None,None,1,,,,,,,,,,,,,,232,19,Female,2022-06-10_13h59.29.334,Main,2022.1.1,60.002040069452704,
negative,yellow,2,k,None,,,,,,,,,0,70,70,70,,,,,,,,,,,,,,,,,,,,,,,,,,,,,,,,,,,,,main,k,k,1,0.7621538999997028,449.27462289999994,None,None,0,,,,,,,,,,,,,,232,19,Female,2022-06-10_13h59.29.334,Main,2022.1.1,60.002040069452704,
positive,yellow,1,None,k,,,,,,,,,0,71,71,71,,,,,,,,,,,,,,,,,,,,,,,,,,,,,,,,,,,,,main,None,None,1,1.500153699999828,451.0364242999999,None,None,1,,,,,,,,,,,,,,232,19,Female,2022-06-10_13h59.29.334,Main,2022.1.1,60.002040069452704,
negative,blue,1,None,k,,,,,,,,,0,72,72,72,,,,,,,,,,,,,,,,,,,,,,,,,,,,,,,,,,,,,main,None,None,1,1.5081279000000904,453.54013080000004,None,None,1,,,,,,,,,,,,,,232,19,Female,2022-06-10_13h59.29.334,Main,2022.1.1,60.002040069452704,
negative,red,2,None,None,,,,,,,,,0,73,73,73,,,,,,,,,,,,,,,,,,,,,,,,,,,,,,,,,,,,,main,None,None,1,1.5049220000000787,456.04725959999996,None,None,1,,,,,,,,,,,,,,232,19,Female,2022-06-10_13h59.29.334,Main,2022.1.1,60.002040069452704,
positive,blue,2,k,None,,,,,,,,,0,74,74,74,,,,,,,,,,,,,,,,,,,,,,,,,,,,,,,,,,,,,main,k,k,1,1.3265443000000232,458.55674480000016,None,None,0,,,,,,,,,,,,,,232,19,Female,2022-06-10_13h59.29.334,Main,2022.1.1,60.002040069452704,
negative,blue,2,None,k,,,,,,,,,0,75,75,75,,,,,,,,,,,,,,,,,,,,,,,,,,,,,,,,,,,,,main,None,None,1,1.5034810000001926,460.8846853,None,None,1,,,,,,,,,,,,,,232,19,Female,2022-06-10_13h59.29.334,Main,2022.1.1,60.002040069452704,
negative,blue,2,None,k,,,,,,,,,0,76,76,76,,,,,,,,,,,,,,,,,,,,,,,,,,,,,,,,,,,,,main,None,None,1,1.497863199999756,463.38908630000014,None,None,1,,,,,,,,,,,,,,232,19,Female,2022-06-10_13h59.29.334,Main,2022.1.1,60.002040069452704,
negative,yellow,1,k,None,,,,,,,,,0,77,77,77,,,,,,,,,,,,,,,,,,,,,,,,,,,,,,,,,,,,,main,k,k,1,0.9128015999999661,465.8886100999998,None,None,0,,,,,,,,,,,,,,232,19,Female,2022-06-10_13h59.29.334,Main,2022.1.1,60.002040069452704,
positive,blue,1,k,None,,,,,,,,,0,78,78,78,,,,,,,,,,,,,,,,,,,,,,,,,,,,,,,,,,,,,main,k,k,1,0.828895200000261,467.8030437000002,None,None,0,,,,,,,,,,,,,,232,19,Female,2022-06-10_13h59.29.334,Main,2022.1.1,60.002040069452704,
positive,blue,1,k,None,,,,,,,,,0,79,79,79,,,,,,,,,,,,,,,,,,,,,,,,,,,,,,,,,,,,,main,k,k,1,0.6779054999997243,469.6333445,None,None,0,,,,,,,,,,,,,,232,19,Female,2022-06-10_13h59.29.334,Main,2022.1.1,60.002040069452704,
positive,red,2,None,None,,,,,,,,,0,80,80,80,,,,,,,,,,,,,,,,,,,,,,,,,,,,,,,,,,,,,main,None,None,1,1.4989591999997174,471.3138438000001,None,None,1,,,,,,,,,,,,,,232,19,Female,2022-06-10_13h59.29.334,Main,2022.1.1,60.002040069452704,
positive,yellow,2,None,k,,,,,,,,,0,81,81,81,,,,,,,,,,,,,,,,,,,,,,,,,,,,,,,,,,,,,main,None,None,1,1.5049121000001833,473.8118414999999,None,None,1,,,,,,,,,,,,,,232,19,Female,2022-06-10_13h59.29.334,Main,2022.1.1,60.002040069452704,
positive,blue,1,k,None,,,,,,,,,0,82,82,82,,,,,,,,,,,,,,,,,,,,,,,,,,,,,,,,,,,,,main,k,k,1,1.0361338999996406,476.31998120000026,None,None,0,,,,,,,,,,,,,,232,19,Female,2022-06-10_13h59.29.334,Main,2022.1.1,60.002040069452704,
negative,yellow,2,k,None,,,,,,,,,0,83,83,83,,,,,,,,,,,,,,,,,,,,,,,,,,,,,,,,,,,,,main,k,k,1,0.9224610000001121,478.35712779999994,None,None,0,,,,,,,,,,,,,,232,19,Female,2022-06-10_13h59.29.334,Main,2022.1.1,60.002040069452704,
positive,blue,2,k,None,,,,,,,,,0,84,84,84,,,,,,,,,,,,,,,,,,,,,,,,,,,,,,,,,,,,,main,k,k,1,0.9437428999999611,480.2818188000001,None,None,0,,,,,,,,,,,,,,232,19,Female,2022-06-10_13h59.29.334,Main,2022.1.1,60.002040069452704,
positive,yellow,1,None,k,,,,,,,,,0,85,85,85,,,,,,,,,,,,,,,,,,,,,,,,,,,,,,,,,,,,,main,None,None,1,1.4968917000001056,482.22889010000017,None,None,1,,,,,,,,,,,,,,232,19,Female,2022-06-10_13h59.29.334,Main,2022.1.1,60.002040069452704,
positive,blue,2,k,None,,,,,,,,,0,86,86,86,,,,,,,,,,,,,,,,,,,,,,,,,,,,,,,,,,,,,main,k,k,1,0.766544999999951,484.7260409999999,None,None,0,,,,,,,,,,,,,,232,19,Female,2022-06-10_13h59.29.334,Main,2022.1.1,60.002040069452704,
positive,blue,1,k,None,,,,,,,,,0,87,87,87,,,,,,,,,,,,,,,,,,,,,,,,,,,,,,,,,,,,,main,k,k,1,0.721943999999894,486.49725050000006,None,None,0,,,,,,,,,,,,,,232,19,Female,2022-06-10_13h59.29.334,Main,2022.1.1,60.002040069452704,
negative,yellow,2,k,None,,,,,,,,,0,88,88,88,,,,,,,,,,,,,,,,,,,,,,,,,,,,,,,,,,,,,main,k,k,1,0.7925708000002487,488.2201463000001,None,None,0,,,,,,,,,,,,,,232,19,Female,2022-06-10_13h59.29.334,Main,2022.1.1,60.002040069452704,
negative,blue,2,None,k,,,,,,,,,0,89,89,89,,,,,,,,,,,,,,,,,,,,,,,,,,,,,,,,,,,,,main,None,None,1,1.5026060000000143,490.0147621000001,None,None,1,,,,,,,,,,,,,,232,19,Female,2022-06-10_13h59.29.334,Main,2022.1.1,60.002040069452704,
positive,yellow,2,None,k,,,,,,,,,0,90,90,90,,,,,,,,,,,,,,,,,,,,,,,,,,,,,,,,,,,,,main,None,None,1,1.5079588000003241,492.5180356000001,None,None,1,,,,,,,,,,,,,,232,19,Female,2022-06-10_13h59.29.334,Main,2022.1.1,60.002040069452704,
negative,yellow,1,k,None,,,,,,,,,0,91,91,91,,,,,,,,,,,,,,,,,,,,,,,,,,,,,,,,,,,,,main,k,k,1,0.8548884000001635,495.0253302000001,None,None,0,,,,,,,,,,,,,,232,19,Female,2022-06-10_13h59.29.334,Main,2022.1.1,60.002040069452704,
negative,red,2,None,None,,,,,,,,,0,92,92,92,,,,,,,,,,,,,,,,,,,,,,,,,,,,,,,,,,,,,main,None,None,1,1.5008821000001262,496.88420300000007,None,None,1,,,,,,,,,,,,,,232,19,Female,2022-06-10_13h59.29.334,Main,2022.1.1,60.002040069452704,
negative,blue,2,None,k,,,,,,,,,0,93,93,93,,,,,,,,,,,,,,,,,,,,,,,,,,,,,,,,,,,,,main,None,None,1,1.5048649000000296,499.3856879,None,None,1,,,,,,,,,,,,,,232,19,Female,2022-06-10_13h59.29.334,Main,2022.1.1,60.002040069452704,
negative,blue,1,None,k,,,,,,,,,0,94,94,94,,,,,,,,,,,,,,,,,,,,,,,,,,,,,,,,,,,,,main,None,None,1,1.4978580000001784,501.8906998000002,None,None,1,,,,,,,,,,,,,,232,19,Female,2022-06-10_13h59.29.334,Main,2022.1.1,60.002040069452704,
negative,blue,1,None,k,,,,,,,,,0,95,95,95,,,,,,,,,,,,,,,,,,,,,,,,,,,,,,,,,,,,,main,None,None,1,1.508309900000313,504.3933993999999,None,None,1,,,,,,,,,,,,,,232,19,Female,2022-06-10_13h59.29.334,Main,2022.1.1,60.002040069452704,
negative,red,1,None,None,,,,,,,,,0,96,96,96,,,,,,,,,,,,,,,,,,,,,,,,,,,,,,,,,,,,,main,None,None,1,1.505316700000094,506.9027833,None,None,1,,,,,,,,,,,,,,232,19,Female,2022-06-10_13h59.29.334,Main,2022.1.1,60.002040069452704,
positive,yellow,1,None,k,,,,,,,,,0,97,97,97,,,,,,,,,,,,,,,,,,,,,,,,,,,,,,,,,,,,,main,None,None,1,1.5051766999999927,509.40769219999993,None,None,1,,,,,,,,,,,,,,232,19,Female,2022-06-10_13h59.29.334,Main,2022.1.1,60.002040069452704,
negative,yellow,1,k,None,,,,,,,,,0,98,98,98,,,,,,,,,,,,,,,,,,,,,,,,,,,,,,,,,,,,,main,k,k,1,0.8764642000001004,511.9167301000002,None,None,0,,,,,,,,,,,,,,232,19,Female,2022-06-10_13h59.29.334,Main,2022.1.1,60.002040069452704,
positive,red,1,None,None,,,,,,,,,0,99,99,99,,,,,,,,,,,,,,,,,,,,,,,,,,,,,,,,,,,,,main,None,None,1,1.5051241999999547,513.7960189999999,None,None,1,,,,,,,,,,,,,,232,19,Female,2022-06-10_13h59.29.334,Main,2022.1.1,60.002040069452704,
positive,blue,1,k,None,,,,,,,,,0,100,100,100,,,,,,,,,,,,,,,,,,,,,,,,,,,,,,,,,,,,,main,k,k,1,0.9393052000000353,516.3012761,None,None,0,,,,,,,,,,,,,,232,19,Female,2022-06-10_13h59.29.334,Main,2022.1.1,60.002040069452704,
negative,yellow,1,k,None,,,,,,,,,0,101,101,101,,,,,,,,,,,,,,,,,,,,,,,,,,,,,,,,,,,,,main,k,k,1,0.947586499999943,518.2440642000001,None,None,0,,,,,,,,,,,,,,232,19,Female,2022-06-10_13h59.29.334,Main,2022.1.1,60.002040069452704,
negative,blue,2,None,k,,,,,,,,,0,102,102,102,,,,,,,,,,,,,,,,,,,,,,,,,,,,,,,,,,,,,main,None,None,1,1.502043599999979,520.1945602000001,None,None,1,,,,,,,,,,,,,,232,19,Female,2022-06-10_13h59.29.334,Main,2022.1.1,60.002040069452704,
negative,yellow,2,k,None,,,,,,,,,0,103,103,103,,,,,,,,,,,,,,,,,,,,,,,,,,,,,,,,,,,,,main,k,k,1,1.1433688000001894,522.6974116000001,None,None,0,,,,,,,,,,,,,,232,19,Female,2022-06-10_13h59.29.334,Main,2022.1.1,60.002040069452704,
positive,yellow,2,None,k,,,,,,,,,0,104,104,104,,,,,,,,,,,,,,,,,,,,,,,,,,,,,,,,,,,,,main,None,None,1,1.5133083000000624,524.8399951000001,None,None,1,,,,,,,,,,,,,,232,19,Female,2022-06-10_13h59.29.334,Main,2022.1.1,60.002040069452704,
positive,blue,1,k,None,,,,,,,,,0,105,105,105,,,,,,,,,,,,,,,,,,,,,,,,,,,,,,,,,,,,,main,k,k,1,1.0314791999999215,527.3576330000001,None,None,0,,,,,,,,,,,,,,232,19,Female,2022-06-10_13h59.29.334,Main,2022.1.1,60.002040069452704,
positive,blue,2,k,None,,,,,,,,,0,106,106,106,,,,,,,,,,,,,,,,,,,,,,,,,,,,,,,,,,,,,main,k,k,1,0.7407076999998026,529.3922047000001,None,None,0,,,,,,,,,,,,,,232,19,Female,2022-06-10_13h59.29.334,Main,2022.1.1,60.002040069452704,
negative,blue,1,None,k,,,,,,,,,0,107,107,107,,,,,,,,,,,,,,,,,,,,,,,,,,,,,,,,,,,,,main,None,None,1,1.4997652000001835,531.1331349000002,None,None,1,,,,,,,,,,,,,,232,19,Female,2022-06-10_13h59.29.334,Main,2022.1.1,60.002040069452704,
positive,yellow,2,None,k,,,,,,,,,0,108,108,108,,,,,,,,,,,,,,,,,,,,,,,,,,,,,,,,,,,,,main,None,None,1,1.4945381999996243,533.6347068999999,None,None,1,,,,,,,,,,,,,,232,19,Female,2022-06-10_13h59.29.334,Main,2022.1.1,60.002040069452704,
negative,yellow,1,k,None,,,,,,,,,0,109,109,109,,,,,,,,,,,,,,,,,,,,,,,,,,,,,,,,,,,,,main,k,k,1,0.7305441999997129,536.1307952000002,None,None,0,,,,,,,,,,,,,,232,19,Female,2022-06-10_13h59.29.334,Main,2022.1.1,60.002040069452704,
negative,blue,2,None,k,,,,,,,,,0,110,110,110,,,,,,,,,,,,,,,,,,,,,,,,,,,,,,,,,,,,,main,None,None,1,1.4988594999999805,537.8636111999999,None,None,1,,,,,,,,,,,,,,232,19,Female,2022-06-10_13h59.29.334,Main,2022.1.1,60.002040069452704,
positive,blue,2,k,None,,,,,,,,,0,111,111,111,,,,,,,,,,,,,,,,,,,,,,,,,,,,,,,,,,,,,main,k,k,1,0.7815857999999025,540.3637626,None,None,0,,,,,,,,,,,,,,232,19,Female,2022-06-10_13h59.29.334,Main,2022.1.1,60.002040069452704,
negative,blue,1,None,k,,,,,,,,,0,112,112,112,,,,,,,,,,,,,,,,,,,,,,,,,,,,,,,,,,,,,main,None,None,1,1.501474899999721,542.1467044000001,None,None,1,,,,,,,,,,,,,,232,19,Female,2022-06-10_13h59.29.334,Main,2022.1.1,60.002040069452704,
positive,yellow,1,None,k,,,,,,,,,0,113,113,113,,,,,,,,,,,,,,,,,,,,,,,,,,,,,,,,,,,,,main,None,None,1,1.1285803999999189,544.6489547000001,None,None,1,,,,,,,,,,,,,,232,19,Female,2022-06-10_13h59.29.334,Main,2022.1.1,60.002040069452704,
negative,red,1,None,None,,,,,,,,,0,114,114,114,,,,,,,,,,,,,,,,,,,,,,,,,,,,,,,,,,,,,main,None,k,0,1.503385900000012,546.7797547,None,None,1,,,,,,,,,,,,,,232,19,Female,2022-06-10_13h59.29.334,Main,2022.1.1,60.002040069452704,
positive,red,1,None,None,,,,,,,,,0,115,115,115,,,,,,,,,,,,,,,,,,,,,,,,,,,,,,,,,,,,,main,None,None,1,1.4945284000000356,550.2878833999998,None,None,1,,,,,,,,,,,,,,232,19,Female,2022-06-10_13h59.29.334,Main,2022.1.1,60.002040069452704,
negative,red,2,None,None,,,,,,,,,0,116,116,116,,,,,,,,,,,,,,,,,,,,,,,,,,,,,,,,,,,,,main,None,None,1,1.505156899999747,552.7834642000003,None,None,1,,,,,,,,,,,,,,232,19,Female,2022-06-10_13h59.29.334,Main,2022.1.1,60.002040069452704,
negative,yellow,2,k,None,,,,,,,,,0,117,117,117,,,,,,,,,,,,,,,,,,,,,,,,,,,,,,,,,,,,,main,k,k,1,1.1597624999999425,555.2922698000002,None,None,0,,,,,,,,,,,,,,232,19,Female,2022-06-10_13h59.29.334,Main,2022.1.1,60.002040069452704,
positive,yellow,1,None,k,,,,,,,,,0,118,118,118,,,,,,,,,,,,,,,,,,,,,,,,,,,,,,,,,,,,,main,None,None,1,1.499945800000205,557.4512622000002,None,None,1,,,,,,,,,,,,,,232,19,Female,2022-06-10_13h59.29.334,Main,2022.1.1,60.002040069452704,
positive,red,2,None,None,,,,,,,,,0,119,119,119,,,,,,,,,,,,,,,,,,,,,,,,,,,,,,,,,,,,,main,None,None,1,1.5003176999998686,559.9545493999999,None,None,1,,,,,,,,,,,,,,232,19,Female,2022-06-10_13h59.29.334,Main,2022.1.1,60.002040069452704,
positive,blue,2,k,None,,,,,,,,,0,120,120,120,,,,,,,,,,,,,,,,,,,,,,,,,,,,,,,,,,,,,main,k,k,1,0.8690424000001258,562.4565484999998,None,None,0,,,,,,,,,,,,,,232,19,Female,2022-06-10_13h59.29.334,Main,2022.1.1,60.002040069452704,
negative,red,1,None,None,,,,,,,,,0,121,121,121,,,,,,,,,,,,,,,,,,,,,,,,,,,,,,,,,,,,,main,None,None,1,1.4939563000002636,564.3274329000001,None,None,1,,,,,,,,,,,,,,232,19,Female,2022-06-10_13h59.29.334,Main,2022.1.1,60.002040069452704,
positive,yellow,2,None,k,,,,,,,,,0,122,122,122,,,,,,,,,,,,,,,,,,,,,,,,,,,,,,,,,,,,,main,None,None,1,1.512735000000248,566.8228256000002,None,None,1,,,,,,,,,,,,,,232,19,Female,2022-06-10_13h59.29.334,Main,2022.1.1,60.002040069452704,
negative,red,2,None,None,,,,,,,,,0,123,123,123,,,,,,,,,,,,,,,,,,,,,,,,,,,,,,,,,,,,,main,None,None,1,1.4962968999998338,569.3369741000001,None,None,1,,,,,,,,,,,,,,232,19,Female,2022-06-10_13h59.29.334,Main,2022.1.1,60.002040069452704,
negative,yellow,2,k,None,,,,,,,,,0,124,124,124,,,,,,,,,,,,,,,,,,,,,,,,,,,,,,,,,,,,,main,k,k,1,0.933134500000051,571.8324430000002,None,None,0,,,,,,,,,,,,,,232,19,Female,2022-06-10_13h59.29.334,Main,2022.1.1,60.002040069452704,
positive,red,1,None,None,,,,,,,,,0,125,125,125,,,,,,,,,,,,,,,,,,,,,,,,,,,,,,,,,,,,,main,None,None,1,1.5084452000000965,573.7696676999999,None,None,1,,,,,,,,,,,,,,232,19,Female,2022-06-10_13h59.29.334,Main,2022.1.1,60.002040069452704,
negative,blue,2,None,k,,,,,,,,,0,126,126,126,,,,,,,,,,,,,,,,,,,,,,,,,,,,,,,,,,,,,main,None,None,1,1.5089356999997108,576.2782143,None,None,1,,,,,,,,,,,,,,232,19,Female,2022-06-10_13h59.29.334,Main,2022.1.1,60.002040069452704,
negative,blue,1,None,k,,,,,,,,,0,127,127,127,,,,,,,,,,,,,,,,,,,,,,,,,,,,,,,,,,,,,main,None,None,1,1.50251389999994,578.7896148,None,None,1,,,,,,,,,,,,,,232,19,Female,2022-06-10_13h59.29.334,Main,2022.1.1,60.002040069452704,
negative,yellow,1,k,None,,,,,,,,,0,128,128,128,,,,,,,,,,,,,,,,,,,,,,,,,,,,,,,,,,,,,main,k,k,1,1.0446610999997574,581.2929709999999,None,None,0,,,,,,,,,,,,,,232,19,Female,2022-06-10_13h59.29.334,Main,2022.1.1,60.002040069452704,
negative,yellow,1,k,None,,,,,,,,,0,129,129,129,,,,,,,,,,,,,,,,,,,,,,,,,,,,,,,,,,,,,main,k,k,1,0.9222604000001411,583.3400021000002,None,None,0,,,,,,,,,,,,,,232,19,Female,2022-06-10_13h59.29.334,Main,2022.1.1,60.002040069452704,
positive,blue,1,k,None,,,,,,,,,0,130,130,130,,,,,,,,,,,,,,,,,,,,,,,,,,,,,,,,,,,,,main,k,k,1,0.8341746000000967,585.2657465000002,None,None,0,,,,,,,,,,,,,,232,19,Female,2022-06-10_13h59.29.334,Main,2022.1.1,60.002040069452704,
negative,blue,1,None,k,,,,,,,,,0,131,131,131,,,,,,,,,,,,,,,,,,,,,,,,,,,,,,,,,,,,,main,None,None,1,1.5050099999998565,587.1011366000002,None,None,1,,,,,,,,,,,,,,232,19,Female,2022-06-10_13h59.29.334,Main,2022.1.1,60.002040069452704,
negative,blue,2,None,k,,,,,,,,,0,132,132,132,,,,,,,,,,,,,,,,,,,,,,,,,,,,,,,,,,,,,main,None,None,1,1.495504500000152,589.6067424000003,None,None,1,,,,,,,,,,,,,,232,19,Female,2022-06-10_13h59.29.334,Main,2022.1.1,60.002040069452704,
positive,blue,2,k,None,,,,,,,,,0,133,133,133,,,,,,,,,,,,,,,,,,,,,,,,,,,,,,,,,,,,,main,k,k,1,0.8900508000001537,592.1041249999998,None,None,0,,,,,,,,,,,,,,232,19,Female,2022-06-10_13h59.29.334,Main,2022.1.1,60.002040069452704,
positive,red,2,None,None,,,,,,,,,0,134,134,134,,,,,,,,,,,,,,,,,,,,,,,,,,,,,,,,,,,,,main,None,None,1,1.510641299999861,593.9977419000002,None,None,1,,,,,,,,,,,,,,232,19,Female,2022-06-10_13h59.29.334,Main,2022.1.1,60.002040069452704,
negative,yellow,2,k,None,,,,,,,,,0,135,135,135,,,,,,,,,,,,,,,,,,,,,,,,,,,,,,,,,,,,,main,k,k,1,0.9430363000001307,596.5088390000001,None,None,0,,,,,,,,,,,,,,232,19,Female,2022-06-10_13h59.29.334,Main,2022.1.1,60.002040069452704,
positive,yellow,2,None,k,,,,,,,,,0,136,136,136,,,,,,,,,,,,,,,,,,,,,,,,,,,,,,,,,,,,,main,None,None,1,1.4961523000001762,598.4544900999999,None,None,1,,,,,,,,,,,,,,232,19,Female,2022-06-10_13h59.29.334,Main,2022.1.1,60.002040069452704,
positive,blue,1,k,None,,,,,,,,,0,137,137,137,,,,,,,,,,,,,,,,,,,,,,,,,,,,,,,,,,,,,main,k,k,1,0.9073953999995865,600.9511839000002,None,None,0,,,,,,,,,,,,,,232,19,Female,2022-06-10_13h59.29.334,Main,2022.1.1,60.002040069452704,
positive,yellow,1,None,k,,,,,,,,,0,138,138,138,,,,,,,,,,,,,,,,,,,,,,,,,,,,,,,,,,,,,main,None,None,1,1.507447299999967,602.8594978000001,None,None,1,,,,,,,,,,,,,,232,19,Female,2022-06-10_13h59.29.334,Main,2022.1.1,60.002040069452704,
positive,yellow,1,None,k,,,,,,,,,0,139,139,139,,,,,,,,,,,,,,,,,,,,,,,,,,,,,,,,,,,,,main,None,None,1,1.504927399999815,605.3705027000001,None,None,1,,,,,,,,,,,,,,232,19,Female,2022-06-10_13h59.29.334,Main,2022.1.1,60.002040069452704,
positive,yellow,1,None,k,,,,,,,,,0,140,140,140,,,,,,,,,,,,,,,,,,,,,,,,,,,,,,,,,,,,,main,None,None,1,1.5112832999998318,607.8767312,None,None,1,,,,,,,,,,,,,,232,19,Female,2022-06-10_13h59.29.334,Main,2022.1.1,60.002040069452704,
positive,blue,1,k,None,,,,,,,,,0,141,141,141,,,,,,,,,,,,,,,,,,,,,,,,,,,,,,,,,,,,,main,k,k,1,0.8980913999998847,610.3909045999999,None,None,0,,,,,,,,,,,,,,232,19,Female,2022-06-10_13h59.29.334,Main,2022.1.1,60.002040069452704,
positive,blue,2,k,None,,,,,,,,,0,142,142,142,,,,,,,,,,,,,,,,,,,,,,,,,,,,,,,,,,,,,main,k,k,1,0.839227700000265,612.2904162,None,None,0,,,,,,,,,,,,,,232,19,Female,2022-06-10_13h59.29.334,Main,2022.1.1,60.002040069452704,
positive,yellow,2,None,k,,,,,,,,,0,143,143,143,,,,,,,,,,,,,,,,,,,,,,,,,,,,,,,,,,,,,main,None,None,1,1.5071949999996832,614.1317141,None,None,1,,,,,,,,,,,,,,232,19,Female,2022-06-10_13h59.29.334,Main,2022.1.1,60.002040069452704,
negative,yellow,2,k,None,,,,,,,,,0,144,144,144,,,,,,,,,,,,,,,,,,,,,,,,,,,,,,,,,,,,,main,k,k,1,0.8196751999998924,616.6394565,None,None,0,,,,,,,,,,,,,,232,19,Female,2022-06-10_13h59.29.334,Main,2022.1.1,60.002040069452704,
negative,blue,2,None,k,,,,,,,,,0,145,145,145,,,,,,,,,,,,,,,,,,,,,,,,,,,,,,,,,,,,,main,None,None,1,1.5094926000001578,618.4621271999999,None,None,1,,,,,,,,,,,,,,232,19,Female,2022-06-10_13h59.29.334,Main,2022.1.1,60.002040069452704,
negative,red,1,None,None,,,,,,,,,0,146,146,146,,,,,,,,,,,,,,,,,,,,,,,,,,,,,,,,,,,,,main,None,None,1,1.5016709999999875,620.9721558000001,None,None,1,,,,,,,,,,,,,,232,19,Female,2022-06-10_13h59.29.334,Main,2022.1.1,60.002040069452704,
positive,blue,1,k,None,,,,,,,,,0,147,147,147,,,,,,,,,,,,,,,,,,,,,,,,,,,,,,,,,,,,,main,k,k,1,0.8682456999999886,623.4747351000001,None,None,0,,,,,,,,,,,,,,232,19,Female,2022-06-10_13h59.29.334,Main,2022.1.1,60.002040069452704,
positive,yellow,1,None,k,,,,,,,,,0,148,148,148,,,,,,,,,,,,,,,,,,,,,,,,,,,,,,,,,,,,,main,None,None,1,1.5080782,625.3468320000002,None,None,1,,,,,,,,,,,,,,232,19,Female,2022-06-10_13h59.29.334,Main,2022.1.1,60.002040069452704,
negative,red,2,None,None,,,,,,,,,0,149,149,149,,,,,,,,,,,,,,,,,,,,,,,,,,,,,,,,,,,,,main,None,None,1,1.5094799999997122,627.8558243000002,None,None,1,,,,,,,,,,,,,,232,19,Female,2022-06-10_13h59.29.334,Main,2022.1.1,60.002040069452704,
negative,blue,1,None,k,,,,,,,,,0,150,150,150,,,,,,,,,,,,,,,,,,,,,,,,,,,,,,,,,,,,,main,None,None,1,1.4953005000002122,630.3674010999998,None,None,1,,,,,,,,,,,,,,232,19,Female,2022-06-10_13h59.29.334,Main,2022.1.1,60.002040069452704,
negative,yellow,2,k,None,,,,,,,,,0,151,151,151,,,,,,,,,,,,,,,,,,,,,,,,,,,,,,,,,,,,,main,k,k,1,0.8303240999998707,632.863985,None,None,0,,,,,,,,,,,,,,232,19,Female,2022-06-10_13h59.29.334,Main,2022.1.1,60.002040069452704,
negative,blue,2,None,k,,,,,,,,,0,152,152,152,,,,,,,,,,,,,,,,,,,,,,,,,,,,,,,,,,,,,main,None,None,1,1.505623099999866,634.6990334000002,None,None,1,,,,,,,,,,,,,,232,19,Female,2022-06-10_13h59.29.334,Main,2022.1.1,60.002040069452704,
negative,yellow,1,k,None,,,,,,,,,0,153,153,153,,,,,,,,,,,,,,,,,,,,,,,,,,,,,,,,,,,,,main,k,k,1,0.7964771000001747,637.2025076,None,None,0,,,,,,,,,,,,,,232,19,Female,2022-06-10_13h59.29.334,Main,2022.1.1,60.002040069452704,
negative,blue,1,None,k,,,,,,,,,0,154,154,154,,,,,,,,,,,,,,,,,,,,,,,,,,,,,,,,,,,,,main,None,None,1,1.5105610000000524,639.0060836000002,None,None,1,,,,,,,,,,,,,,232,19,Female,2022-06-10_13h59.29.334,Main,2022.1.1,60.002040069452704,
positive,yellow,2,None,k,,,,,,,,,0,155,155,155,,,,,,,,,,,,,,,,,,,,,,,,,,,,,,,,,,,,,main,None,None,1,1.49865600000021,641.5128224999999,None,None,1,,,,,,,,,,,,,,232,19,Female,2022-06-10_13h59.29.334,Main,2022.1.1,60.002040069452704,
positive,red,2,None,None,,,,,,,,,0,156,156,156,,,,,,,,,,,,,,,,,,,,,,,,,,,,,,,,,,,,,main,None,None,1,1.5067880999999943,644.0131790999999,None,None,1,,,,,,,,,,,,,,232,19,Female,2022-06-10_13h59.29.334,Main,2022.1.1,60.002040069452704,
positive,red,1,None,None,,,,,,,,,0,157,157,157,,,,,,,,,,,,,,,,,,,,,,,,,,,,,,,,,,,,,main,None,None,1,1.4972211999997853,646.5206296000001,None,None,1,,,,,,,,,,,,,,232,19,Female,2022-06-10_13h59.29.334,Main,2022.1.1,60.002040069452704,
positive,blue,2,k,None,,,,,,,,,0,158,158,158,,,,,,,,,,,,,,,,,,,,,,,,,,,,,,,,,,,,,main,k,k,1,0.7880992000000333,649.0211101999998,None,None,0,,,,,,,,,,,,,,232,19,Female,2022-06-10_13h59.29.334,Main,2022.1.1,60.002040069452704,
negative,yellow,1,k,None,,,,,,,,,0,159,159,159,,,,,,,,,,,,,,,,,,,,,,,,,,,,,,,,,,,,,main,k,k,1,0.9674027000000933,650.8125152000002,None,None,0,,,,,,,,,,,,,,232,19,Female,2022-06-10_13h59.29.334,Main,2022.1.1,60.002040069452704,
negative,red,2,None,None,,,,,,,,,0,160,160,160,,,,,,,,,,,,,,,,,,,,,,,,,,,,,,,,,,,,,main,None,None,1,1.5045304000000215,652.7818390000002,None,None,1,,,,,,,,,,,,,,232,19,Female,2022-06-10_13h59.29.334,Main,2022.1.1,60.002040069452704,
negative,blue,1,None,k,,,,,,,,,0,161,161,161,,,,,,,,,,,,,,,,,,,,,,,,,,,,,,,,,,,,,main,None,None,1,1.4998012000000926,655.2872578000001,None,None,1,,,,,,,,,,,,,,232,19,Female,2022-06-10_13h59.29.334,Main,2022.1.1,60.002040069452704,
negative,blue,1,None,k,,,,,,,,,0,162,162,162,,,,,,,,,,,,,,,,,,,,,,,,,,,,,,,,,,,,,main,None,None,1,1.4947794999998223,657.7884752,None,None,1,,,,,,,,,,,,,,232,19,Female,2022-06-10_13h59.29.334,Main,2022.1.1,60.002040069452704,
negative,yellow,1,k,None,,,,,,,,,0,163,163,163,,,,,,,,,,,,,,,,,,,,,,,,,,,,,,,,,,,,,main,k,k,1,0.7016330999999809,660.286482,None,None,0,,,,,,,,,,,,,,232,19,Female,2022-06-10_13h59.29.334,Main,2022.1.1,60.002040069452704,
negative,yellow,1,k,None,,,,,,,,,0,164,164,164,,,,,,,,,,,,,,,,,,,,,,,,,,,,,,,,,,,,,main,k,k,1,0.7967680000001565,661.9921539000002,None,None,0,,,,,,,,,,,,,,232,19,Female,2022-06-10_13h59.29.334,Main,2022.1.1,60.002040069452704,
positive,yellow,1,None,k,,,,,,,,,0,165,165,165,,,,,,,,,,,,,,,,,,,,,,,,,,,,,,,,,,,,,main,None,None,1,1.509840599999734,663.7907464999998,None,None,1,,,,,,,,,,,,,,232,19,Female,2022-06-10_13h59.29.334,Main,2022.1.1,60.002040069452704,
negative,red,1,None,None,,,,,,,,,0,166,166,166,,,,,,,,,,,,,,,,,,,,,,,,,,,,,,,,,,,,,main,None,None,1,1.5068375000000742,666.3005268000002,None,None,1,,,,,,,,,,,,,,232,19,Female,2022-06-10_13h59.29.334,Main,2022.1.1,60.002040069452704,
negative,yellow,2,k,None,,,,,,,,,0,167,167,167,,,,,,,,,,,,,,,,,,,,,,,,,,,,,,,,,,,,,main,k,k,1,0.7617499000002681,668.8096196000001,None,None,0,,,,,,,,,,,,,,232,19,Female,2022-06-10_13h59.29.334,Main,2022.1.1,60.002040069452704,
positive,blue,2,k,None,,,,,,,,,0,168,168,168,,,,,,,,,,,,,,,,,,,,,,,,,,,,,,,,,,,,,main,k,k,1,0.8429262999998173,670.5732656,None,None,0,,,,,,,,,,,,,,232,19,Female,2022-06-10_13h59.29.334,Main,2022.1.1,60.002040069452704,
positive,red,2,None,None,,,,,,,,,0,169,169,169,,,,,,,,,,,,,,,,,,,,,,,,,,,,,,,,,,,,,main,None,None,1,1.4930336000002171,672.4162009000001,None,None,1,,,,,,,,,,,,,,232,19,Female,2022-06-10_13h59.29.334,Main,2022.1.1,60.002040069452704,
positive,red,1,None,None,,,,,,,,,0,170,170,170,,,,,,,,,,,,,,,,,,,,,,,,,,,,,,,,,,,,,main,None,None,1,1.5046118999998725,674.9117108,None,None,1,,,,,,,,,,,,,,232,19,Female,2022-06-10_13h59.29.334,Main,2022.1.1,60.002040069452704,
negative,blue,2,None,k,,,,,,,,,0,171,171,171,,,,,,,,,,,,,,,,,,,,,,,,,,,,,,,,,,,,,main,None,None,1,1.5015769999999975,677.4176409000002,None,None,1,,,,,,,,,,,,,,232,19,Female,2022-06-10_13h59.29.334,Main,2022.1.1,60.002040069452704,
positive,blue,2,k,None,,,,,,,,,0,172,172,172,,,,,,,,,,,,,,,,,,,,,,,,,,,,,,,,,,,,,main,k,k,1,0.8058962000000065,679.9230203000002,None,None,0,,,,,,,,,,,,,,232,19,Female,2022-06-10_13h59.29.334,Main,2022.1.1,60.002040069452704,
negative,yellow,2,k,None,,,,,,,,,0,173,173,173,,,,,,,,,,,,,,,,,,,,,,,,,,,,,,,,,,,,,main,k,k,1,0.9237815999999839,681.7296550000001,None,None,0,,,,,,,,,,,,,,232,19,Female,2022-06-10_13h59.29.334,Main,2022.1.1,60.002040069452704,
positive,yellow,2,None,k,,,,,,,,,0,174,174,174,,,,,,,,,,,,,,,,,,,,,,,,,,,,,,,,,,,,,main,None,None,1,1.5046956999999566,683.6558034999998,None,None,1,,,,,,,,,,,,,,232,19,Female,2022-06-10_13h59.29.334,Main,2022.1.1,60.002040069452704,
negative,blue,2,None,k,,,,,,,,,0,175,175,175,,,,,,,,,,,,,,,,,,,,,,,,,,,,,,,,,,,,,main,None,None,1,1.5015921999997772,686.1611941000001,None,None,1,,,,,,,,,,,,,,232,19,Female,2022-06-10_13h59.29.334,Main,2022.1.1,60.002040069452704,
positive,blue,1,k,None,,,,,,,,,0,176,176,176,,,,,,,,,,,,,,,,,,,,,,,,,,,,,,,,,,,,,main,k,k,1,0.9653597000001355,688.6640213999999,None,None,0,,,,,,,,,,,,,,232,19,Female,2022-06-10_13h59.29.334,Main,2022.1.1,60.002040069452704,
positive,yellow,1,None,k,,,,,,,,,0,177,177,177,,,,,,,,,,,,,,,,,,,,,,,,,,,,,,,,,,,,,main,None,None,1,1.5058055999998032,690.6352132000002,None,None,1,,,,,,,,,,,,,,232,19,Female,2022-06-10_13h59.29.334,Main,2022.1.1,60.002040069452704,
positive,blue,1,k,None,,,,,,,,,0,178,178,178,,,,,,,,,,,,,,,,,,,,,,,,,,,,,,,,,,,,,main,k,k,1,0.8275433999997404,693.1415290999998,None,None,0,,,,,,,,,,,,,,232,19,Female,2022-06-10_13h59.29.334,Main,2022.1.1,60.002040069452704,
positive,yellow,2,None,k,,,,,,,,,0,179,179,179,,,,,,,,,,,,,,,,,,,,,,,,,,,,,,,,,,,,,main,None,None,1,1.5042892000001302,694.9711402000003,None,None,1,,,,,,,,,,,,,,232,19,Female,2022-06-10_13h59.29.334,Main,2022.1.1,60.002040069452704,
positive,blue,1,k,None,,,,,,,,,0,180,180,180,,,,,,,,,,,,,,,,,,,,,,,,,,,,,,,,,,,,,main,k,k,1,0.915399399999842,697.4764745000002,None,None,0,,,,,,,,,,,,,,232,19,Female,2022-06-10_13h59.29.334,Main,2022.1.1,60.002040069452704,
negative,red,1,None,None,,,,,,,,,0,181,181,181,,,,,,,,,,,,,,,,,,,,,,,,,,,,,,,,,,,,,main,None,None,1,1.5065558000001147,699.3934346000001,None,None,1,,,,,,,,,,,,,,232,19,Female,2022-06-10_13h59.29.334,Main,2022.1.1,60.002040069452704,
negative,blue,1,None,k,,,,,,,,,0,182,182,182,,,,,,,,,,,,,,,,,,,,,,,,,,,,,,,,,,,,,main,None,None,1,1.4998743999999533,701.8986217000001,None,None,1,,,,,,,,,,,,,,232,19,Female,2022-06-10_13h59.29.334,Main,2022.1.1,60.002040069452704,
negative,yellow,2,k,None,,,,,,,,,0,183,183,183,,,,,,,,,,,,,,,,,,,,,,,,,,,,,,,,,,,,,main,k,k,1,0.859429000000091,704.4000191,None,None,0,,,,,,,,,,,,,,232,19,Female,2022-06-10_13h59.29.334,Main,2022.1.1,60.002040069452704,
positive,yellow,2,None,k,,,,,,,,,0,184,184,184,,,,,,,,,,,,,,,,,,,,,,,,,,,,,,,,,,,,,main,None,None,1,1.5018269000001965,706.2627318999998,None,None,1,,,,,,,,,,,,,,232,19,Female,2022-06-10_13h59.29.334,Main,2022.1.1,60.002040069452704,
positive,yellow,1,None,k,,,,,,,,,0,185,185,185,,,,,,,,,,,,,,,,,,,,,,,,,,,,,,,,,,,,,main,None,None,1,1.4945588999999018,708.7646325000001,None,None,1,,,,,,,,,,,,,,232,19,Female,2022-06-10_13h59.29.334,Main,2022.1.1,60.002040069452704,
positive,red,2,None,None,,,,,,,,,0,186,186,186,,,,,,,,,,,,,,,,,,,,,,,,,,,,,,,,,,,,,main,None,None,1,1.5048882000000958,711.2621911000001,None,None,1,,,,,,,,,,,,,,232,19,Female,2022-06-10_13h59.29.334,Main,2022.1.1,60.002040069452704,
positive,blue,1,k,None,,,,,,,,,0,187,187,187,,,,,,,,,,,,,,,,,,,,,,,,,,,,,,,,,,,,,main,k,k,1,0.9378130000000056,713.7704435,None,None,0,,,,,,,,,,,,,,232,19,Female,2022-06-10_13h59.29.334,Main,2022.1.1,60.002040069452704,
negative,yellow,1,k,None,,,,,,,,,0,188,188,188,,,,,,,,,,,,,,,,,,,,,,,,,,,,,,,,,,,,,main,k,k,1,0.8220425999998042,715.7093548000003,None,None,0,,,,,,,,,,,,,,232,19,Female,2022-06-10_13h59.29.334,Main,2022.1.1,60.002040069452704,
positive,yellow,2,None,k,,,,,,,,,0,189,189,189,,,,,,,,,,,,,,,,,,,,,,,,,,,,,,,,,,,,,main,None,None,1,1.516459599999962,717.5337880000002,None,None,1,,,,,,,,,,,,,,232,19,Female,2022-06-10_13h59.29.334,Main,2022.1.1,60.002040069452704,
negative,yellow,2,k,None,,,,,,,,,0,190,190,190,,,,,,,,,,,,,,,,,,,,,,,,,,,,,,,,,,,,,main,k,k,1,0.8025241000000278,720.0510306000001,None,None,0,,,,,,,,,,,,,,232,19,Female,2022-06-10_13h59.29.334,Main,2022.1.1,60.002040069452704,
negative,yellow,1,k,None,,,,,,,,,0,191,191,191,,,,,,,,,,,,,,,,,,,,,,,,,,,,,,,,,,,,,main,k,k,1,0.7758472000000438,721.8594022000002,None,None,0,,,,,,,,,,,,,,232,19,Female,2022-06-10_13h59.29.334,Main,2022.1.1,60.002040069452704,
positive,blue,2,k,None,,,,,,,,,0,192,192,192,,,,,,,,,,,,,,,,,,,,,,,,,,,,,,,,,,,,,main,k,k,1,0.7161323000000266,723.6314625,None,None,0,,,,,,,,,,,,,,232,19,Female,2022-06-10_13h59.29.334,Main,2022.1.1,60.002040069452704,
positive,yellow,1,None,k,,,,,,,,,0,193,193,193,,,,,,,,,,,,,,,,,,,,,,,,,,,,,,,,,,,,,main,None,None,1,1.5138449999999466,725.3526797,None,None,1,,,,,,,,,,,,,,232,19,Female,2022-06-10_13h59.29.334,Main,2022.1.1,60.002040069452704,
negative,red,2,None,None,,,,,,,,,0,194,194,194,,,,,,,,,,,,,,,,,,,,,,,,,,,,,,,,,,,,,main,None,None,1,1.494870600000013,727.8669175,None,None,1,,,,,,,,,,,,,,232,19,Female,2022-06-10_13h59.29.334,Main,2022.1.1,60.002040069452704,
positive,red,1,None,None,,,,,,,,,0,195,195,195,,,,,,,,,,,,,,,,,,,,,,,,,,,,,,,,,,,,,main,None,None,1,1.5070115999997142,730.3614201999999,None,None,1,,,,,,,,,,,,,,232,19,Female,2022-06-10_13h59.29.334,Main,2022.1.1,60.002040069452704,
negative,blue,1,None,k,,,,,,,,,0,196,196,196,,,,,,,,,,,,,,,,,,,,,,,,,,,,,,,,,,,,,main,None,None,1,1.5039962000000742,732.8723266000002,None,None,1,,,,,,,,,,,,,,232,19,Female,2022-06-10_13h59.29.334,Main,2022.1.1,60.002040069452704,
positive,blue,2,k,None,,,,,,,,,0,197,197,197,,,,,,,,,,,,,,,,,,,,,,,,,,,,,,,,,,,,,main,k,k,1,0.9212057999998251,735.3770388000003,None,None,0,,,,,,,,,,,,,,232,19,Female,2022-06-10_13h59.29.334,Main,2022.1.1,60.002040069452704,
negative,blue,2,None,k,,,,,,,,,0,198,198,198,,,,,,,,,,,,,,,,,,,,,,,,,,,,,,,,,,,,,main,None,None,1,1.5068836000000374,737.3018069,None,None,1,,,,,,,,,,,,,,232,19,Female,2022-06-10_13h59.29.334,Main,2022.1.1,60.002040069452704,
negative,blue,2,None,k,,,,,,,,,0,199,199,199,,,,,,,,,,,,,,,,,,,,,,,,,,,,,,,,,,,,,main,None,None,1,1.4944030000001476,739.8096891999999,None,None,1,,,,,,,,,,,,,,232,19,Female,2022-06-10_13h59.29.334,Main,2022.1.1,60.002040069452704,
positive,blue,2,k,None,,,,,,,,,0,200,200,200,,,,,,,,,,,,,,,,,,,,,,,,,,,,,,,,,,,,,main,k,k,1,0.826890899999853,742.3071377000001,None,None,0,,,,,,,,,,,,,,232,19,Female,2022-06-10_13h59.29.334,Main,2022.1.1,60.002040069452704,
positive,blue,2,k,None,,,,,,,,,0,201,201,201,,,,,,,,,,,,,,,,,,,,,,,,,,,,,,,,,,,,,main,k,k,1,0.7925270000000637,744.1365068999999,None,None,0,,,,,,,,,,,,,,232,19,Female,2022-06-10_13h59.29.334,Main,2022.1.1,60.002040069452704,
negative,yellow,2,k,None,,,,,,,,,0,202,202,202,,,,,,,,,,,,,,,,,,,,,,,,,,,,,,,,,,,,,main,k,k,1,0.8151643000001059,745.9305333000002,None,None,0,,,,,,,,,,,,,,232,19,Female,2022-06-10_13h59.29.334,Main,2022.1.1,60.002040069452704,
positive,red,1,None,None,,,,,,,,,0,203,203,203,,,,,,,,,,,,,,,,,,,,,,,,,,,,,,,,,,,,,main,None,None,1,1.4964571000000433,747.7469523,None,None,1,,,,,,,,,,,,,,232,19,Female,2022-06-10_13h59.29.334,Main,2022.1.1,60.002040069452704,
negative,blue,2,None,k,,,,,,,,,0,204,204,204,,,,,,,,,,,,,,,,,,,,,,,,,,,,,,,,,,,,,main,None,None,1,1.5041035999997803,750.2422916,None,None,1,,,,,,,,,,,,,,232,19,Female,2022-06-10_13h59.29.334,Main,2022.1.1,60.002040069452704,
negative,red,1,None,None,,,,,,,,,0,205,205,205,,,,,,,,,,,,,,,,,,,,,,,,,,,,,,,,,,,,,main,None,None,1,1.500405199999932,752.7504496000001,None,None,1,,,,,,,,,,,,,,232,19,Female,2022-06-10_13h59.29.334,Main,2022.1.1,60.002040069452704,
negative,blue,2,None,k,,,,,,,,,0,206,206,206,,,,,,,,,,,,,,,,,,,,,,,,,,,,,,,,,,,,,main,None,None,1,1.49740249999968,755.2521108000001,None,None,1,,,,,,,,,,,,,,232,19,Female,2022-06-10_13h59.29.334,Main,2022.1.1,60.002040069452704,
negative,yellow,2,k,None,,,,,,,,,0,207,207,207,,,,,,,,,,,,,,,,,,,,,,,,,,,,,,,,,,,,,main,k,k,1,0.6933109000001423,757.7509866999999,None,None,0,,,,,,,,,,,,,,232,19,Female,2022-06-10_13h59.29.334,Main,2022.1.1,60.002040069452704,
positive,yellow,2,None,k,,,,,,,,,0,208,208,208,,,,,,,,,,,,,,,,,,,,,,,,,,,,,,,,,,,,,main,None,None,1,1.509274000000005,759.4458890999999,None,None,1,,,,,,,,,,,,,,232,19,Female,2022-06-10_13h59.29.334,Main,2022.1.1,60.002040069452704,
negative,yellow,1,k,None,,,,,,,,,0,209,209,209,,,,,,,,,,,,,,,,,,,,,,,,,,,,,,,,,,,,,main,k,k,1,1.0129265000000487,761.9558222999999,None,None,0,,,,,,,,,,,,,,232,19,Female,2022-06-10_13h59.29.334,Main,2022.1.1,60.002040069452704,
negative,red,2,None,None,,,,,,,,,0,210,210,210,,,,,,,,,,,,,,,,,,,,,,,,,,,,,,,,,,,,,main,None,None,1,1.5099491999999373,763.9711287999999,None,None,1,,,,,,,,,,,,,,232,19,Female,2022-06-10_13h59.29.334,Main,2022.1.1,60.002040069452704,
negative,blue,1,None,k,,,,,,,,,0,211,211,211,,,,,,,,,,,,,,,,,,,,,,,,,,,,,,,,,,,,,main,None,None,1,1.510221399999864,766.4834021000001,None,None,1,,,,,,,,,,,,,,232,19,Female,2022-06-10_13h59.29.334,Main,2022.1.1,60.002040069452704,
negative,yellow,1,k,None,,,,,,,,,0,212,212,212,,,,,,,,,,,,,,,,,,,,,,,,,,,,,,,,,,,,,main,k,k,1,0.8137734000001728,768.9949864999999,None,None,0,,,,,,,,,,,,,,232,19,Female,2022-06-10_13h59.29.334,Main,2022.1.1,60.002040069452704,
positive,blue,1,k,None,,,,,,,,,0,213,213,213,,,,,,,,,,,,,,,,,,,,,,,,,,,,,,,,,,,,,main,k,k,1,0.7710298000001785,770.8106845000002,None,None,0,,,,,,,,,,,,,,232,19,Female,2022-06-10_13h59.29.334,Main,2022.1.1,60.002040069452704,
positive,blue,1,k,None,,,,,,,,,0,214,214,214,,,,,,,,,,,,,,,,,,,,,,,,,,,,,,,,,,,,,main,k,k,1,0.6686056999997163,772.5829666,None,None,0,,,,,,,,,,,,,,232,19,Female,2022-06-10_13h59.29.334,Main,2022.1.1,60.002040069452704,
positive,yellow,1,None,k,,,,,,,,,0,215,215,215,,,,,,,,,,,,,,,,,,,,,,,,,,,,,,,,,,,,,main,None,None,1,1.5006705000000693,774.2520046,None,None,1,,,,,,,,,,,,,,232,19,Female,2022-06-10_13h59.29.334,Main,2022.1.1,60.002040069452704,
positive,yellow,1,None,k,,,,,,,,,0,216,216,216,,,,,,,,,,,,,,,,,,,,,,,,,,,,,,,,,,,,,main,None,None,1,1.5067802000003212,776.7544046000003,None,None,1,,,,,,,,,,,,,,232,19,Female,2022-06-10_13h59.29.334,Main,2022.1.1,60.002040069452704,
positive,yellow,2,None,k,,,,,,,,,0,217,217,217,,,,,,,,,,,,,,,,,,,,,,,,,,,,,,,,,,,,,main,None,None,1,1.4975784000002932,779.2648506999999,None,None,1,,,,,,,,,,,,,,232,19,Female,2022-06-10_13h59.29.334,Main,2022.1.1,60.002040069452704,
negative,blue,1,None,k,,,,,,,,,0,218,218,218,,,,,,,,,,,,,,,,,,,,,,,,,,,,,,,,,,,,,main,None,None,1,1.5112202000000252,781.7635831000002,None,None,1,,,,,,,,,,,,,,232,19,Female,2022-06-10_13h59.29.334,Main,2022.1.1,60.002040069452704,
positive,red,2,None,None,,,,,,,,,0,219,219,219,,,,,,,,,,,,,,,,,,,,,,,,,,,,,,,,,,,,,main,None,None,1,1.5087761999998293,784.2764373,None,None,1,,,,,,,,,,,,,,232,19,Female,2022-06-10_13h59.29.334,Main,2022.1.1,60.002040069452704,
positive,yellow,1,None,k,,,,,,,,,0,220,220,220,,,,,,,,,,,,,,,,,,,,,,,,,,,,,,,,,,,,,main,None,None,1,1.5047061000000213,786.7861355,None,None,1,,,,,,,,,,,,,,232,19,Female,2022-06-10_13h59.29.334,Main,2022.1.1,60.002040069452704,
positive,blue,1,k,None,,,,,,,,,0,221,221,221,,,,,,,,,,,,,,,,,,,,,,,,,,,,,,,,,,,,,main,k,k,1,0.7994503999998415,789.2939768000001,None,None,0,,,,,,,,,,,,,,232,19,Female,2022-06-10_13h59.29.334,Main,2022.1.1,60.002040069452704,
positive,yellow,2,None,k,,,,,,,,,0,222,222,222,,,,,,,,,,,,,,,,,,,,,,,,,,,,,,,,,,,,,main,None,None,1,1.5059489000000212,791.0953665000002,None,None,1,,,,,,,,,,,,,,232,19,Female,2022-06-10_13h59.29.334,Main,2022.1.1,60.002040069452704,
negative,yellow,1,k,None,,,,,,,,,0,223,223,223,,,,,,,,,,,,,,,,,,,,,,,,,,,,,,,,,,,,,main,k,k,1,0.745161399999688,793.6018666999998,None,None,0,,,,,,,,,,,,,,232,19,Female,2022-06-10_13h59.29.334,Main,2022.1.1,60.002040069452704,
positive,yellow,2,None,k,,,,,,,,,0,224,224,224,,,,,,,,,,,,,,,,,,,,,,,,,,,,,,,,,,,,,main,None,None,1,1.5040779999999359,795.3503909000001,None,None,1,,,,,,,,,,,,,,232,19,Female,2022-06-10_13h59.29.334,Main,2022.1.1,60.002040069452704,
negative,yellow,2,k,None,,,,,,,,,0,225,225,225,,,,,,,,,,,,,,,,,,,,,,,,,,,,,,,,,,,,,main,k,k,1,0.9831899000000703,797.8541740999999,None,None,0,,,,,,,,,,,,,,232,19,Female,2022-06-10_13h59.29.334,Main,2022.1.1,60.002040069452704,
negative,blue,2,None,k,,,,,,,,,0,226,226,226,,,,,,,,,,,,,,,,,,,,,,,,,,,,,,,,,,,,,main,None,None,1,1.5020901000002596,799.8410764999999,None,None,1,,,,,,,,,,,,,,232,19,Female,2022-06-10_13h59.29.334,Main,2022.1.1,60.002040069452704,
positive,red,2,None,None,,,,,,,,,0,227,227,227,,,,,,,,,,,,,,,,,,,,,,,,,,,,,,,,,,,,,main,None,None,1,1.5084944999998697,802.3443676000002,None,None,1,,,,,,,,,,,,,,232,19,Female,2022-06-10_13h59.29.334,Main,2022.1.1,60.002040069452704,
positive,blue,2,k,None,,,,,,,,,0,228,228,228,,,,,,,,,,,,,,,,,,,,,,,,,,,,,,,,,,,,,main,k,k,1,0.9824318999999377,804.8520830000002,None,None,0,,,,,,,,,,,,,,232,19,Female,2022-06-10_13h59.29.334,Main,2022.1.1,60.002040069452704,
negative,blue,1,None,k,,,,,,,,,0,229,229,229,,,,,,,,,,,,,,,,,,,,,,,,,,,,,,,,,,,,,main,None,None,1,1.4951234000000113,806.8388439999999,None,None,1,,,,,,,,,,,,,,232,19,Female,2022-06-10_13h59.29.334,Main,2022.1.1,60.002040069452704,
positive,yellow,1,None,k,,,,,,,,,0,230,230,230,,,,,,,,,,,,,,,,,,,,,,,,,,,,,,,,,,,,,main,None,None,1,1.5063500000001113,809.3342395,None,None,1,,,,,,,,,,,,,,232,19,Female,2022-06-10_13h59.29.334,Main,2022.1.1,60.002040069452704,
negative,blue,2,None,k,,,,,,,,,0,231,231,231,,,,,,,,,,,,,,,,,,,,,,,,,,,,,,,,,,,,,main,None,None,1,1.5020402999998623,811.8442384,None,None,1,,,,,,,,,,,,,,232,19,Female,2022-06-10_13h59.29.334,Main,2022.1.1,60.002040069452704,
negative,red,1,None,None,,,,,,,,,0,232,232,232,,,,,,,,,,,,,,,,,,,,,,,,,,,,,,,,,,,,,main,None,None,1,1.5010440000000926,814.3470912000002,None,None,1,,,,,,,,,,,,,,232,19,Female,2022-06-10_13h59.29.334,Main,2022.1.1,60.002040069452704,
positive,blue,2,k,None,,,,,,,,,0,233,233,233,,,,,,,,,,,,,,,,,,,,,,,,,,,,,,,,,,,,,main,k,k,1,0.867339500000071,816.8505869,None,None,0,,,,,,,,,,,,,,232,19,Female,2022-06-10_13h59.29.334,Main,2022.1.1,60.002040069452704,
negative,yellow,1,k,None,,,,,,,,,0,234,234,234,,,,,,,,,,,,,,,,,,,,,,,,,,,,,,,,,,,,,main,k,k,1,0.917546399999992,818.7189149000001,None,None,0,,,,,,,,,,,,,,232,19,Female,2022-06-10_13h59.29.334,Main,2022.1.1,60.002040069452704,
negative,yellow,2,k,None,,,,,,,,,0,235,235,235,,,,,,,,,,,,,,,,,,,,,,,,,,,,,,,,,,,,,main,k,k,1,0.9016567000003306,820.6400616000001,None,None,0,,,,,,,,,,,,,,232,19,Female,2022-06-10_13h59.29.334,Main,2022.1.1,60.002040069452704,
positive,red,1,None,None,,,,,,,,,0,236,236,236,,,,,,,,,,,,,,,,,,,,,,,,,,,,,,,,,,,,,main,None,None,1,1.5037514000000556,822.543345,None,None,1,,,,,,,,,,,,,,232,19,Female,2022-06-10_13h59.29.334,Main,2022.1.1,60.002040069452704,
negative,red,2,None,None,,,,,,,,,0,237,237,237,,,,,,,,,,,,,,,,,,,,,,,,,,,,,,,,,,,,,main,None,None,1,1.5160142999998243,825.0497804000001,None,None,1,,,,,,,,,,,,,,232,19,Female,2022-06-10_13h59.29.334,Main,2022.1.1,60.002040069452704,
negative,blue,1,None,k,,,,,,,,,0,238,238,238,,,,,,,,,,,,,,,,,,,,,,,,,,,,,,,,,,,,,main,None,None,1,1.501133100000061,827.5687785999999,None,None,1,,,,,,,,,,,,,,232,19,Female,2022-06-10_13h59.29.334,Main,2022.1.1,60.002040069452704,
positive,blue,1,k,None,,,,,,,,,0,239,239,239,,,,,,,,,,,,,,,,,,,,,,,,,,,,,,,,,,,,,main,k,k,1,0.9131105999999818,830.0720903000001,None,None,0,,,,,,,,,,,,,,232,19,Female,2022-06-10_13h59.29.334,Main,2022.1.1,60.002040069452704,
,,,,,,,,,,,,,,,,,,,,,,,,,,,,,,,,,,,,,,,,,,,,,,,,,,,,,,,,,,,,,,,,,,,,,,,,,831.9744805,None,,,,,,,,
