distractor,target,set,ans1,ans2,rep_loop4.thisRepN,rep_loop4.thisTrialN,rep_loop4.thisN,rep_loop4.thisIndex,st2_prac_loop.thisRepN,st2_prac_loop.thisTrialN,st2_prac_loop.thisN,st2_prac_loop.thisIndex,st2_main_loop.thisRepN,st2_main_loop.thisTrialN,st2_main_loop.thisN,st2_main_loop.thisIndex,image_4.started,image_4.stopped,mouse_7.x,mouse_7.y,mouse_7.leftButton,mouse_7.midButton,mouse_7.rightButton,sound_2.started,sound_2.stopped,key_resp_3.keys,mouse_5.x,mouse_5.y,mouse_5.leftButton,mouse_5.midButton,mouse_5.rightButton,mouse_5.started,mouse_5.stopped,yes_text2.started,yes_text2.stopped,no_text2.started,no_text2.stopped,mouse_3.x,mouse_3.y,mouse_3.leftButton,mouse_3.midButton,mouse_3.rightButton,mouse_3.started,mouse_3.stopped,st_prac_back.started,st_prac_back.stopped,st_prac_text.started,st_prac_text.stopped,st_fix_back.started,st_fix_back.stopped,st_fix_2.started,st_fix_2.stopped,main_prac,st_ans,st_res,st_corr,st_rt,st_back.started,st_back.stopped,st2_resp.keys,st2_resp.corr,st_main_back.started,st_main_back.stopped,st_main_text.started,st_main_text.stopped,mouse_4.x,mouse_4.y,mouse_4.leftButton,mouse_4.midButton,mouse_4.rightButton,mouse_4.started,mouse_4.stopped,text_2.started,text_2.stopped,id*,age*,gender*,date,expName,psychopyVersion,frameRate,
,,,,,,,,,,,,,,,,,30.523354200000085,None,0.5888889,-0.17314816,0,0,0,,,,,,,,,,,,,,,,,,,,,,,,,,,,,,,,,,,,,,,,,,,,,,,,,,,,233,28,Female,2022-06-13_17h54.11.702,Main,2022.1.1,59.98210134094505,
negative,yellow,1,k,None,,,,,0,0,0,0,,,,,,,,,,,,36.33250924999993,None,None,0.49537036,-0.40555555,0,0,0,1.0111315499998454,None,92.05910210000002,None,92.05910210000002,None,-0.08796296,-0.09351852,0,0,0,0.012919350000174745,None,94.59839950000014,None,94.59839950000014,None,96.61011950000011,None,96.61011950000011,None,prac,None,None,1,1.504183600000033,98.65648039999996,None,None,1,,,,,,,,,,,,,,233,28,Female,2022-06-13_17h54.11.702,Main,2022.1.1,59.98210134094505,
positive,red,2,None,None,,,,,0,1,1,1,,,,,,,,,,,,,,,,,,,,,,,,,,,,,,,,,,,,,,,,,prac,None,None,1,1.4970711999999367,101.15009250000003,None,None,1,,,,,,,,,,,,,,233,28,Female,2022-06-13_17h54.11.702,Main,2022.1.1,59.98210134094505,
negative,blue,2,None,k,,,,,0,2,2,2,,,,,,,,,,,,,,,,,,,,,,,,,,,,,,,,,,,,,,,,,prac,k,k,1,16.129785699999957,103.64771599999995,None,None,0,,,,,,,,,,,,,,233,28,Female,2022-06-13_17h54.11.702,Main,2022.1.1,59.98210134094505,
positive,yellow,1,None,k,,,,,0,3,3,3,,,,,,,,,,,,,,,,,,,,,,,,,,,,,,,,,,,,,,,,,prac,k,k,1,2.3677528999996866,121.81869340000003,None,None,0,,,,,,,,,,,,,,233,28,Female,2022-06-13_17h54.11.702,Main,2022.1.1,59.98210134094505,
negative,blue,2,None,k,,,,,0,4,4,4,,,,,,,,,,,,,,,,,,,,,,,,,,,,,,,,,,,,,,,,,prac,k,k,1,1.6522085000001425,126.20000279999977,None,None,0,,,,,,,,,,,,,,233,28,Female,2022-06-13_17h54.11.702,Main,2022.1.1,59.98210134094505,
negative,blue,1,None,k,,,,,0,5,5,5,,,,,,,,,,,,,,,,,,,,,,,,,,,,,,,,,,,,,,,,,prac,k,k,1,2.9150911000001543,129.8574752999998,None,None,0,,,,,,,,,,,,,,233,28,Female,2022-06-13_17h54.11.702,Main,2022.1.1,59.98210134094505,
negative,yellow,2,k,None,,,,,0,6,6,6,,,,,,,,,,,,,,,,,,,,,,,,,,,,,,,,,,,,,,,,,prac,None,None,1,1.4899740000000747,134.7735604999998,None,None,1,,,,,,,,,,,,,,233,28,Female,2022-06-13_17h54.11.702,Main,2022.1.1,59.98210134094505,
negative,red,1,None,None,,,,,0,7,7,7,,,,,,,,,,,,,,,,,,,,,,,,,,,,,,,,,,,,,,,,,prac,None,None,1,1.5045708000002378,137.27471409999998,None,None,1,,,,,,,,,,,,,,233,28,Female,2022-06-13_17h54.11.702,Main,2022.1.1,59.98210134094505,
positive,yellow,2,None,k,,,,,0,8,8,8,,,,,,,,,,,,,,,,,,,,,,,,,,,,,,,,,,,,,,,,,prac,k,k,1,1.2639718000000357,139.78112920000012,None,None,0,,,,,,,,,,,,,,233,28,Female,2022-06-13_17h54.11.702,Main,2022.1.1,59.98210134094505,
negative,yellow,1,k,None,,,,,0,9,9,9,,,,,,,,,,,,,,,,,,,,,,,,,,,,,,,,,,,,,,,,,prac,None,None,1,1.4984559999998055,142.03769359999978,None,None,1,,,,,,,,,,,,,,233,28,Female,2022-06-13_17h54.11.702,Main,2022.1.1,59.98210134094505,
positive,yellow,2,None,k,,,,,0,10,10,10,,,,,,,,,,,,,,,,,,,,,,,,,,,,,,,,,,,,,,,,,prac,k,k,1,1.0825713999997788,144.53872490000003,None,None,0,,,,,,,,,,,,,,233,28,Female,2022-06-13_17h54.11.702,Main,2022.1.1,59.98210134094505,
negative,yellow,2,k,None,,,,,0,11,11,11,,,,,,,,,,,,,,,,,,,,,,,,,,,,,,,,,,,,,,,,,prac,None,None,1,1.4978056999998444,146.62321489999977,None,None,1,,,,,,,,,,,,,,233,28,Female,2022-06-13_17h54.11.702,Main,2022.1.1,59.98210134094505,
negative,red,2,None,None,,,,,0,12,12,12,,,,,,,,,,,,,,,,,,,,,,,,,,,,,,,,,,,,,,,,,prac,None,None,1,1.5143852000001061,149.11893069999996,None,None,1,,,,,,,,,,,,,,233,28,Female,2022-06-13_17h54.11.702,Main,2022.1.1,59.98210134094505,
positive,red,1,None,None,,,,,0,13,13,13,,,,,,,,,,,,,,,,,,,,,,,,,,,,,,,,,,,,,,,,,prac,None,None,1,1.5104483000000073,151.64555370000016,None,None,1,,,,,,,,,,,,,,233,28,Female,2022-06-13_17h54.11.702,Main,2022.1.1,59.98210134094505,
positive,blue,2,k,None,,,,,0,14,14,14,,,,,,,,,,,,,,,,,,,,,,,,,,,,,,,,,,,,,,,,,prac,None,None,1,1.5159727000000203,154.1488030999999,None,None,1,,,,,,,,,,,,,,233,28,Female,2022-06-13_17h54.11.702,Main,2022.1.1,59.98210134094505,
positive,blue,1,k,None,,,,,0,15,15,15,,,,,,,,,,,,,,,,,,,,,,,,,,,,,,,,,,,,,,,,,prac,None,None,1,1.502693200000067,156.6668405999999,None,None,1,,,,,,,,,,,,,,233,28,Female,2022-06-13_17h54.11.702,Main,2022.1.1,59.98210134094505,
negative,blue,1,None,k,,,,,0,16,16,16,,,,,,,,,,,,,,,,,,,,,,,,,,,,,,,,,,,,,,,,,prac,k,k,1,6.126325100000031,159.1741659999998,None,None,0,,,,,,,,,,,,,,233,28,Female,2022-06-13_17h54.11.702,Main,2022.1.1,59.98210134094505,
positive,blue,2,k,None,,,,,0,17,17,17,,,,,,,,,,,,,,,,,,,,,,,,,,,,,,,,,,,,,,,,,prac,None,None,1,1.4931086000001415,167.30260050000015,None,None,1,,,,,,,,,,,,,,233,28,Female,2022-06-13_17h54.11.702,Main,2022.1.1,59.98210134094505,
positive,blue,1,k,None,,,,,0,18,18,18,,,,,,,,,,,,,,,,,,,,,,,,,,,,,,,,,,,,,,,,,prac,None,None,1,1.5002967000000353,169.7963149999996,None,None,1,,,,,,,,,,,,,,233,28,Female,2022-06-13_17h54.11.702,Main,2022.1.1,59.98210134094505,
positive,yellow,1,None,k,,,,,0,19,19,19,,,,,,,,,,,,,,,,,,,,,,,,,,,,,,,,,,,,,,,,,prac,k,k,1,0.8491173000002163,172.3016891999996,None,None,0,,,,,,,,,,,,,,233,28,Female,2022-06-13_17h54.11.702,Main,2022.1.1,59.98210134094505,
negative,yellow,1,k,None,,,,,1,0,20,0,,,,,,,,,,,,,,,,,,,,,,,,,,,,,,,,,,,,,,,,,prac,None,None,1,1.5068559000001187,174.1495017999996,None,None,1,,,,,,,,,,,,,,233,28,Female,2022-06-13_17h54.11.702,Main,2022.1.1,59.98210134094505,
positive,red,2,None,None,,,,,1,1,21,1,,,,,,,,,,,,,,,,,,,,,,,,,,,,,,,,,,,,,,,,,prac,None,None,1,1.506217299999662,176.65934879999986,None,None,1,,,,,,,,,,,,,,233,28,Female,2022-06-13_17h54.11.702,Main,2022.1.1,59.98210134094505,
negative,blue,2,None,k,,,,,1,2,22,2,,,,,,,,,,,,,,,,,,,,,,,,,,,,,,,,,,,,,,,,,prac,k,k,1,0.7981691000004503,179.16895870000008,None,None,0,,,,,,,,,,,,,,233,28,Female,2022-06-13_17h54.11.702,Main,2022.1.1,59.98210134094505,
positive,yellow,1,None,k,,,,,1,3,23,3,,,,,,,,,,,,,,,,,,,,,,,,,,,,,,,,,,,,,,,,,prac,k,k,1,1.0007667999998375,180.96536990000004,None,None,0,,,,,,,,,,,,,,233,28,Female,2022-06-13_17h54.11.702,Main,2022.1.1,59.98210134094505,
negative,blue,2,None,k,,,,,1,4,24,4,,,,,,,,,,,,,,,,,,,,,,,,,,,,,,,,,,,,,,,,,prac,k,k,1,1.1936525999999503,182.97135509999953,None,None,0,,,,,,,,,,,,,,233,28,Female,2022-06-13_17h54.11.702,Main,2022.1.1,59.98210134094505,
negative,blue,1,None,k,,,,,1,5,25,5,,,,,,,,,,,,,,,,,,,,,,,,,,,,,,,,,,,,,,,,,prac,k,k,1,1.1160910000007789,185.16316720000032,None,None,0,,,,,,,,,,,,,,233,28,Female,2022-06-13_17h54.11.702,Main,2022.1.1,59.98210134094505,
negative,yellow,2,k,None,,,,,1,6,26,6,,,,,,,,,,,,,,,,,,,,,,,,,,,,,,,,,,,,,,,,,prac,None,None,1,1.5016003999999157,187.27979289999985,None,None,1,,,,,,,,,,,,,,233,28,Female,2022-06-13_17h54.11.702,Main,2022.1.1,59.98210134094505,
negative,red,1,None,None,,,,,1,7,27,7,,,,,,,,,,,,,,,,,,,,,,,,,,,,,,,,,,,,,,,,,prac,None,None,1,1.5030742999997528,189.78704910000033,None,None,1,,,,,,,,,,,,,,233,28,Female,2022-06-13_17h54.11.702,Main,2022.1.1,59.98210134094505,
positive,yellow,2,None,k,,,,,1,8,28,8,,,,,,,,,,,,,,,,,,,,,,,,,,,,,,,,,,,,,,,,,prac,k,k,1,0.7739477000004626,192.29002620000028,None,None,0,,,,,,,,,,,,,,233,28,Female,2022-06-13_17h54.11.702,Main,2022.1.1,59.98210134094505,
negative,yellow,1,k,None,,,,,1,9,29,9,,,,,,,,,,,,,,,,,,,,,,,,,,,,,,,,,,,,,,,,,prac,None,None,1,1.5125434999999925,194.06388009999955,None,None,1,,,,,,,,,,,,,,233,28,Female,2022-06-13_17h54.11.702,Main,2022.1.1,59.98210134094505,
positive,yellow,2,None,k,,,,,1,10,30,10,,,,,,,,,,,,,,,,,,,,,,,,,,,,,,,,,,,,,,,,,prac,k,k,1,1.1345964000001914,196.57725430000028,None,None,0,,,,,,,,,,,,,,233,28,Female,2022-06-13_17h54.11.702,Main,2022.1.1,59.98210134094505,
negative,yellow,2,k,None,,,,,1,11,31,11,,,,,,,,,,,,,,,,,,,,,,,,,,,,,,,,,,,,,,,,,prac,None,None,1,1.5113979999996445,198.71744239999953,None,None,1,,,,,,,,,,,,,,233,28,Female,2022-06-13_17h54.11.702,Main,2022.1.1,59.98210134094505,
negative,red,2,None,None,,,,,1,12,32,12,,,,,,,,,,,,,,,,,,,,,,,,,,,,,,,,,,,,,,,,,prac,None,None,1,1.4990518000004158,201.22687010000027,None,None,1,,,,,,,,,,,,,,233,28,Female,2022-06-13_17h54.11.702,Main,2022.1.1,59.98210134094505,
positive,red,1,None,None,,,,,1,13,33,13,,,,,,,,,,,,,,,,,,,,,,,,,,,,,,,,,,,,,,,,,prac,None,None,1,1.4969238000003315,203.72798160000002,None,None,1,,,,,,,,,,,,,,233,28,Female,2022-06-13_17h54.11.702,Main,2022.1.1,59.98210134094505,
positive,blue,2,k,None,,,,,1,14,34,14,,,,,,,,,,,,,,,,,,,,,,,,,,,,,,,,,,,,,,,,,prac,None,None,1,1.5145991999997932,206.22696730000007,None,None,1,,,,,,,,,,,,,,233,28,Female,2022-06-13_17h54.11.702,Main,2022.1.1,59.98210134094505,
positive,blue,1,k,None,,,,,1,15,35,15,,,,,,,,,,,,,,,,,,,,,,,,,,,,,,,,,,,,,,,,,prac,None,None,1,1.5078247999999803,208.74337899999955,None,None,1,,,,,,,,,,,,,,233,28,Female,2022-06-13_17h54.11.702,Main,2022.1.1,59.98210134094505,
negative,blue,1,None,k,,,,,1,16,36,16,,,,,,,,,,,,,,,,,,,,,,,,,,,,,,,,,,,,,,,,,prac,k,k,1,1.0562480999997206,211.2543999999998,None,None,0,,,,,,,,,,,,,,233,28,Female,2022-06-13_17h54.11.702,Main,2022.1.1,59.98210134094505,
positive,blue,2,k,None,,,,,1,17,37,17,,,,,,,,,,,,,,,,,,,,,,,,,,,,,,,,,,,,,,,,,prac,None,None,1,1.4984176999996635,213.3131555,None,None,1,,,,,,,,,,,,,,233,28,Female,2022-06-13_17h54.11.702,Main,2022.1.1,59.98210134094505,
positive,blue,1,k,None,,,,,1,18,38,18,,,,,,,,,,,,,,,,,,,,,,,,,,,,,,,,,,,,,,,,,prac,None,None,1,1.498111599999902,215.81419819999974,None,None,1,,,,,,,,,,,,,,233,28,Female,2022-06-13_17h54.11.702,Main,2022.1.1,59.98210134094505,
positive,yellow,1,None,k,,,,,1,19,39,19,,,,,,,,,,,,,,,,,,,,,,,,,,,,,,,,,,,,,,,,,prac,k,k,1,0.8492739000002985,218.31333110000014,None,None,0,,,,,,,,,,,,,,233,28,Female,2022-06-13_17h54.11.702,Main,2022.1.1,59.98210134094505,
,,,,,,,,,,,,,,,,,,,,,,,,,,,,,,,,,,,,,,,,,,,,,,,,,,,,,,,,,,,,,,220.18079959999977,None,220.18079959999977,None,0.25925925,0.23888889,0,0,0,0.01159425000059855,None,,,233,28,Female,2022-06-13_17h54.11.702,Main,2022.1.1,59.98210134094505,
negative,yellow,2,k,None,,,,,,,,,0,0,0,0,,,,,,,,,,,,,,,,,,,,,,,,,,,,,,,,,221.7476746000002,None,221.7476746000002,None,main,None,None,1,1.5132630000007339,223.8138613000001,None,None,1,,,,,,,,,,,,,,233,28,Female,2022-06-13_17h54.11.702,Main,2022.1.1,59.98210134094505,
positive,red,1,None,None,,,,,,,,,0,1,1,1,,,,,,,,,,,,,,,,,,,,,,,,,,,,,,,,,,,,,main,None,None,1,1.5114277000002403,226.33278580000024,None,None,1,,,,,,,,,,,,,,233,28,Female,2022-06-13_17h54.11.702,Main,2022.1.1,59.98210134094505,
positive,blue,2,k,None,,,,,,,,,0,2,2,2,,,,,,,,,,,,,,,,,,,,,,,,,,,,,,,,,,,,,main,None,None,1,1.4981347000002643,228.84161649999987,None,None,1,,,,,,,,,,,,,,233,28,Female,2022-06-13_17h54.11.702,Main,2022.1.1,59.98210134094505,
positive,blue,1,k,None,,,,,,,,,0,3,3,3,,,,,,,,,,,,,,,,,,,,,,,,,,,,,,,,,,,,,main,None,None,1,1.5012491000006776,231.34115980000024,None,None,1,,,,,,,,,,,,,,233,28,Female,2022-06-13_17h54.11.702,Main,2022.1.1,59.98210134094505,
negative,yellow,2,k,None,,,,,,,,,0,4,4,4,,,,,,,,,,,,,,,,,,,,,,,,,,,,,,,,,,,,,main,None,None,1,1.493492900000092,233.84775009999976,None,None,1,,,,,,,,,,,,,,233,28,Female,2022-06-13_17h54.11.702,Main,2022.1.1,59.98210134094505,
positive,yellow,2,None,k,,,,,,,,,0,5,5,5,,,,,,,,,,,,,,,,,,,,,,,,,,,,,,,,,,,,,main,k,k,1,0.8689795000000231,236.3426798999999,None,None,0,,,,,,,,,,,,,,233,28,Female,2022-06-13_17h54.11.702,Main,2022.1.1,59.98210134094505,
negative,blue,2,None,k,,,,,,,,,0,6,6,6,,,,,,,,,,,,,,,,,,,,,,,,,,,,,,,,,,,,,main,k,k,1,1.2442203000000518,238.21288499999991,None,None,0,,,,,,,,,,,,,,233,28,Female,2022-06-13_17h54.11.702,Main,2022.1.1,59.98210134094505,
positive,red,2,None,None,,,,,,,,,0,7,7,7,,,,,,,,,,,,,,,,,,,,,,,,,,,,,,,,,,,,,main,None,None,1,1.4989038000003347,240.45545169999968,None,None,1,,,,,,,,,,,,,,233,28,Female,2022-06-13_17h54.11.702,Main,2022.1.1,59.98210134094505,
positive,yellow,1,None,k,,,,,,,,,0,8,8,8,,,,,,,,,,,,,,,,,,,,,,,,,,,,,,,,,,,,,main,k,k,1,0.8155384000001504,242.95629459999964,None,None,0,,,,,,,,,,,,,,233,28,Female,2022-06-13_17h54.11.702,Main,2022.1.1,59.98210134094505,
negative,red,1,None,None,,,,,,,,,0,9,9,9,,,,,,,,,,,,,,,,,,,,,,,,,,,,,,,,,,,,,main,None,None,1,1.5010816000003615,244.77696600000036,None,None,1,,,,,,,,,,,,,,233,28,Female,2022-06-13_17h54.11.702,Main,2022.1.1,59.98210134094505,
positive,yellow,1,None,k,,,,,,,,,0,10,10,10,,,,,,,,,,,,,,,,,,,,,,,,,,,,,,,,,,,,,main,k,k,1,0.872429099999863,247.2790358000002,None,None,0,,,,,,,,,,,,,,233,28,Female,2022-06-13_17h54.11.702,Main,2022.1.1,59.98210134094505,
negative,yellow,1,k,None,,,,,,,,,0,11,11,11,,,,,,,,,,,,,,,,,,,,,,,,,,,,,,,,,,,,,main,None,None,1,1.4969946000001073,249.1549031000004,None,None,1,,,,,,,,,,,,,,233,28,Female,2022-06-13_17h54.11.702,Main,2022.1.1,59.98210134094505,
negative,yellow,1,k,None,,,,,,,,,0,12,12,12,,,,,,,,,,,,,,,,,,,,,,,,,,,,,,,,,,,,,main,None,None,1,1.4998789000001125,251.65308670000013,None,None,1,,,,,,,,,,,,,,233,28,Female,2022-06-13_17h54.11.702,Main,2022.1.1,59.98210134094505,
negative,red,2,None,None,,,,,,,,,0,13,13,13,,,,,,,,,,,,,,,,,,,,,,,,,,,,,,,,,,,,,main,None,None,1,1.4988269000004948,254.15399210000032,None,None,1,,,,,,,,,,,,,,233,28,Female,2022-06-13_17h54.11.702,Main,2022.1.1,59.98210134094505,
positive,yellow,2,None,k,,,,,,,,,0,14,14,14,,,,,,,,,,,,,,,,,,,,,,,,,,,,,,,,,,,,,main,k,k,1,1.1369393000004493,256.6542136999997,None,None,0,,,,,,,,,,,,,,233,28,Female,2022-06-13_17h54.11.702,Main,2022.1.1,59.98210134094505,
positive,blue,1,k,None,,,,,,,,,0,15,15,15,,,,,,,,,,,,,,,,,,,,,,,,,,,,,,,,,,,,,main,None,None,1,1.509132999999565,258.7964657000002,None,None,1,,,,,,,,,,,,,,233,28,Female,2022-06-13_17h54.11.702,Main,2022.1.1,59.98210134094505,
negative,blue,1,None,k,,,,,,,,,0,16,16,16,,,,,,,,,,,,,,,,,,,,,,,,,,,,,,,,,,,,,main,k,k,1,1.0646077999999761,261.30365679999977,None,None,0,,,,,,,,,,,,,,233,28,Female,2022-06-13_17h54.11.702,Main,2022.1.1,59.98210134094505,
positive,blue,2,k,None,,,,,,,,,0,17,17,17,,,,,,,,,,,,,,,,,,,,,,,,,,,,,,,,,,,,,main,None,None,1,1.5028504000001703,263.36904140000024,None,None,1,,,,,,,,,,,,,,233,28,Female,2022-06-13_17h54.11.702,Main,2022.1.1,59.98210134094505,
negative,blue,2,None,k,,,,,,,,,0,18,18,18,,,,,,,,,,,,,,,,,,,,,,,,,,,,,,,,,,,,,main,k,k,1,1.6980359999997745,265.8776834,None,None,0,,,,,,,,,,,,,,233,28,Female,2022-06-13_17h54.11.702,Main,2022.1.1,59.98210134094505,
negative,blue,1,None,k,,,,,,,,,0,19,19,19,,,,,,,,,,,,,,,,,,,,,,,,,,,,,,,,,,,,,main,k,k,1,0.9477617000002283,269.58942509999997,None,None,0,,,,,,,,,,,,,,233,28,Female,2022-06-13_17h54.11.702,Main,2022.1.1,59.98210134094505,
negative,blue,1,None,k,,,,,,,,,0,20,20,20,,,,,,,,,,,,,,,,,,,,,,,,,,,,,,,,,,,,,main,k,k,1,0.8240996000004088,271.5407654999999,None,None,0,,,,,,,,,,,,,,233,28,Female,2022-06-13_17h54.11.702,Main,2022.1.1,59.98210134094505,
negative,blue,2,None,k,,,,,,,,,0,21,21,21,,,,,,,,,,,,,,,,,,,,,,,,,,,,,,,,,,,,,main,k,k,1,0.9685856000005515,273.36563879999994,None,None,0,,,,,,,,,,,,,,233,28,Female,2022-06-13_17h54.11.702,Main,2022.1.1,59.98210134094505,
negative,red,1,None,None,,,,,,,,,0,22,22,22,,,,,,,,,,,,,,,,,,,,,,,,,,,,,,,,,,,,,main,None,None,1,1.5097335000000385,275.33799459999955,None,None,1,,,,,,,,,,,,,,233,28,Female,2022-06-13_17h54.11.702,Main,2022.1.1,59.98210134094505,
positive,red,2,None,None,,,,,,,,,0,23,23,23,,,,,,,,,,,,,,,,,,,,,,,,,,,,,,,,,,,,,main,None,None,1,1.494746700000178,277.84932519999984,None,None,1,,,,,,,,,,,,,,233,28,Female,2022-06-13_17h54.11.702,Main,2022.1.1,59.98210134094505,
negative,red,2,None,None,,,,,,,,,0,24,24,24,,,,,,,,,,,,,,,,,,,,,,,,,,,,,,,,,,,,,main,None,None,1,1.505562600000303,280.3453300000001,None,None,1,,,,,,,,,,,,,,233,28,Female,2022-06-13_17h54.11.702,Main,2022.1.1,59.98210134094505,
positive,blue,2,k,None,,,,,,,,,0,25,25,25,,,,,,,,,,,,,,,,,,,,,,,,,,,,,,,,,,,,,main,None,None,1,1.4979576999994606,282.85489959999995,None,None,1,,,,,,,,,,,,,,233,28,Female,2022-06-13_17h54.11.702,Main,2022.1.1,59.98210134094505,
negative,yellow,1,k,None,,,,,,,,,0,26,26,26,,,,,,,,,,,,,,,,,,,,,,,,,,,,,,,,,,,,,main,None,None,1,1.5074510999993436,285.3546570999997,None,None,1,,,,,,,,,,,,,,233,28,Female,2022-06-13_17h54.11.702,Main,2022.1.1,59.98210134094505,
positive,blue,2,k,None,,,,,,,,,0,27,27,27,,,,,,,,,,,,,,,,,,,,,,,,,,,,,,,,,,,,,main,None,None,1,1.5007574000001114,287.86133770000015,None,None,1,,,,,,,,,,,,,,233,28,Female,2022-06-13_17h54.11.702,Main,2022.1.1,59.98210134094505,
negative,blue,2,None,k,,,,,,,,,0,28,28,28,,,,,,,,,,,,,,,,,,,,,,,,,,,,,,,,,,,,,main,k,k,1,2.9346011999996335,290.3631034,None,None,0,,,,,,,,,,,,,,233,28,Female,2022-06-13_17h54.11.702,Main,2022.1.1,59.98210134094505,
positive,red,1,None,None,,,,,,,,,0,29,29,29,,,,,,,,,,,,,,,,,,,,,,,,,,,,,,,,,,,,,main,None,None,1,1.507385100000647,295.30282030000035,None,None,1,,,,,,,,,,,,,,233,28,Female,2022-06-13_17h54.11.702,Main,2022.1.1,59.98210134094505,
positive,blue,1,k,None,,,,,,,,,0,30,30,30,,,,,,,,,,,,,,,,,,,,,,,,,,,,,,,,,,,,,main,None,None,1,1.4947032999998555,297.8113003999997,None,None,1,,,,,,,,,,,,,,233,28,Female,2022-06-13_17h54.11.702,Main,2022.1.1,59.98210134094505,
positive,yellow,1,None,k,,,,,,,,,0,31,31,31,,,,,,,,,,,,,,,,,,,,,,,,,,,,,,,,,,,,,main,k,k,1,0.9836334000001443,300.3117134000004,None,None,0,,,,,,,,,,,,,,233,28,Female,2022-06-13_17h54.11.702,Main,2022.1.1,59.98210134094505,
negative,yellow,2,k,None,,,,,,,,,0,32,32,32,,,,,,,,,,,,,,,,,,,,,,,,,,,,,,,,,,,,,main,None,None,1,1.4993393999993714,302.2919007999999,None,None,1,,,,,,,,,,,,,,233,28,Female,2022-06-13_17h54.11.702,Main,2022.1.1,59.98210134094505,
negative,blue,1,None,k,,,,,,,,,0,33,33,33,,,,,,,,,,,,,,,,,,,,,,,,,,,,,,,,,,,,,main,k,k,1,0.9058506999999736,304.79294149999987,None,None,0,,,,,,,,,,,,,,233,28,Female,2022-06-13_17h54.11.702,Main,2022.1.1,59.98210134094505,
positive,blue,1,k,None,,,,,,,,,0,34,34,34,,,,,,,,,,,,,,,,,,,,,,,,,,,,,,,,,,,,,main,None,k,0,0.8819421999996848,306.69848939999974,None,None,1,,,,,,,,,,,,,,233,28,Female,2022-06-13_17h54.11.702,Main,2022.1.1,59.98210134094505,
negative,yellow,1,k,None,,,,,,,,,0,35,35,35,,,,,,,,,,,,,,,,,,,,,,,,,,,,,,,,,,,,,main,None,None,1,1.5021097999997437,309.60098449999987,None,None,1,,,,,,,,,,,,,,233,28,Female,2022-06-13_17h54.11.702,Main,2022.1.1,59.98210134094505,
positive,yellow,2,None,k,,,,,,,,,0,36,36,36,,,,,,,,,,,,,,,,,,,,,,,,,,,,,,,,,,,,,main,k,k,1,0.9722606000004816,312.10631569999987,None,None,0,,,,,,,,,,,,,,233,28,Female,2022-06-13_17h54.11.702,Main,2022.1.1,59.98210134094505,
positive,yellow,2,None,k,,,,,,,,,0,37,37,37,,,,,,,,,,,,,,,,,,,,,,,,,,,,,,,,,,,,,main,k,k,1,0.9739767000000938,314.07876080000005,None,None,0,,,,,,,,,,,,,,233,28,Female,2022-06-13_17h54.11.702,Main,2022.1.1,59.98210134094505,
negative,yellow,2,k,None,,,,,,,,,0,38,38,38,,,,,,,,,,,,,,,,,,,,,,,,,,,,,,,,,,,,,main,None,None,1,1.5118077000006451,316.05590759999995,None,None,1,,,,,,,,,,,,,,233,28,Female,2022-06-13_17h54.11.702,Main,2022.1.1,59.98210134094505,
positive,yellow,1,None,k,,,,,,,,,0,39,39,39,,,,,,,,,,,,,,,,,,,,,,,,,,,,,,,,,,,,,main,k,k,1,0.9107484999994995,318.57093950000035,None,None,0,,,,,,,,,,,,,,233,28,Female,2022-06-13_17h54.11.702,Main,2022.1.1,59.98210134094505,
negative,yellow,2,k,None,,,,,,,,,0,40,40,40,,,,,,,,,,,,,,,,,,,,,,,,,,,,,,,,,,,,,main,None,None,1,1.5141057000000728,320.47915269999976,None,None,1,,,,,,,,,,,,,,233,28,Female,2022-06-13_17h54.11.702,Main,2022.1.1,59.98210134094505,
positive,blue,2,k,None,,,,,,,,,0,41,41,41,,,,,,,,,,,,,,,,,,,,,,,,,,,,,,,,,,,,,main,None,None,1,1.4996142999998483,322.99517259999993,None,None,1,,,,,,,,,,,,,,233,28,Female,2022-06-13_17h54.11.702,Main,2022.1.1,59.98210134094505,
positive,blue,2,k,None,,,,,,,,,0,42,42,42,,,,,,,,,,,,,,,,,,,,,,,,,,,,,,,,,,,,,main,None,None,1,1.503725000000486,325.4972834,None,None,1,,,,,,,,,,,,,,233,28,Female,2022-06-13_17h54.11.702,Main,2022.1.1,59.98210134094505,
negative,blue,2,None,k,,,,,,,,,0,43,43,43,,,,,,,,,,,,,,,,,,,,,,,,,,,,,,,,,,,,,main,k,k,1,1.2277927999994063,328.00515989999985,None,None,0,,,,,,,,,,,,,,233,28,Female,2022-06-13_17h54.11.702,Main,2022.1.1,59.98210134094505,
negative,red,1,None,None,,,,,,,,,0,44,44,44,,,,,,,,,,,,,,,,,,,,,,,,,,,,,,,,,,,,,main,None,None,1,1.507399200000691,330.23410520000016,None,None,1,,,,,,,,,,,,,,233,28,Female,2022-06-13_17h54.11.702,Main,2022.1.1,59.98210134094505,
negative,yellow,1,k,None,,,,,,,,,0,45,45,45,,,,,,,,,,,,,,,,,,,,,,,,,,,,,,,,,,,,,main,None,None,1,1.5042164999995293,332.7422280999999,None,None,1,,,,,,,,,,,,,,233,28,Female,2022-06-13_17h54.11.702,Main,2022.1.1,59.98210134094505,
negative,yellow,1,k,None,,,,,,,,,0,46,46,46,,,,,,,,,,,,,,,,,,,,,,,,,,,,,,,,,,,,,main,None,None,1,1.5106802000000243,335.25107389999994,None,None,1,,,,,,,,,,,,,,233,28,Female,2022-06-13_17h54.11.702,Main,2022.1.1,59.98210134094505,
positive,red,1,None,None,,,,,,,,,0,47,47,47,,,,,,,,,,,,,,,,,,,,,,,,,,,,,,,,,,,,,main,None,None,1,1.4972367999998824,337.7643555000004,None,None,1,,,,,,,,,,,,,,233,28,Female,2022-06-13_17h54.11.702,Main,2022.1.1,59.98210134094505,
positive,yellow,1,None,k,,,,,,,,,0,48,48,48,,,,,,,,,,,,,,,,,,,,,,,,,,,,,,,,,,,,,main,k,k,1,0.8369365999997171,340.25890789999994,None,None,0,,,,,,,,,,,,,,233,28,Female,2022-06-13_17h54.11.702,Main,2022.1.1,59.98210134094505,
negative,blue,1,None,k,,,,,,,,,0,49,49,49,,,,,,,,,,,,,,,,,,,,,,,,,,,,,,,,,,,,,main,k,k,1,1.0280129999991914,342.10100109999985,None,None,0,,,,,,,,,,,,,,233,28,Female,2022-06-13_17h54.11.702,Main,2022.1.1,59.98210134094505,
positive,yellow,2,None,k,,,,,,,,,0,50,50,50,,,,,,,,,,,,,,,,,,,,,,,,,,,,,,,,,,,,,main,k,k,1,1.2971392999997988,344.13088609999977,None,None,0,,,,,,,,,,,,,,233,28,Female,2022-06-13_17h54.11.702,Main,2022.1.1,59.98210134094505,
negative,blue,1,None,k,,,,,,,,,0,51,51,51,,,,,,,,,,,,,,,,,,,,,,,,,,,,,,,,,,,,,main,k,k,1,0.9643353000001298,346.42954089999967,None,None,0,,,,,,,,,,,,,,233,28,Female,2022-06-13_17h54.11.702,Main,2022.1.1,59.98210134094505,
positive,red,2,None,None,,,,,,,,,0,52,52,52,,,,,,,,,,,,,,,,,,,,,,,,,,,,,,,,,,,,,main,None,None,1,1.5146162000000913,348.39220899999964,None,None,1,,,,,,,,,,,,,,233,28,Female,2022-06-13_17h54.11.702,Main,2022.1.1,59.98210134094505,
positive,yellow,2,None,k,,,,,,,,,0,53,53,53,,,,,,,,,,,,,,,,,,,,,,,,,,,,,,,,,,,,,main,k,k,1,0.7318590000004406,350.90814899999987,None,None,0,,,,,,,,,,,,,,233,28,Female,2022-06-13_17h54.11.702,Main,2022.1.1,59.98210134094505,
negative,red,2,None,None,,,,,,,,,0,54,54,54,,,,,,,,,,,,,,,,,,,,,,,,,,,,,,,,,,,,,main,None,None,1,1.4974642000006497,352.6422117000002,None,None,1,,,,,,,,,,,,,,233,28,Female,2022-06-13_17h54.11.702,Main,2022.1.1,59.98210134094505,
positive,yellow,1,None,k,,,,,,,,,0,55,55,55,,,,,,,,,,,,,,,,,,,,,,,,,,,,,,,,,,,,,main,k,k,1,0.8151871000000028,355.14382620000015,None,None,0,,,,,,,,,,,,,,233,28,Female,2022-06-13_17h54.11.702,Main,2022.1.1,59.98210134094505,
negative,blue,2,None,k,,,,,,,,,0,56,56,56,,,,,,,,,,,,,,,,,,,,,,,,,,,,,,,,,,,,,main,k,k,1,0.8955249000000549,356.9569110000002,None,None,0,,,,,,,,,,,,,,233,28,Female,2022-06-13_17h54.11.702,Main,2022.1.1,59.98210134094505,
positive,blue,1,k,None,,,,,,,,,0,57,57,57,,,,,,,,,,,,,,,,,,,,,,,,,,,,,,,,,,,,,main,None,None,1,1.500444499999503,358.8562179999999,None,None,1,,,,,,,,,,,,,,233,28,Female,2022-06-13_17h54.11.702,Main,2022.1.1,59.98210134094505,
positive,blue,1,k,None,,,,,,,,,0,58,58,58,,,,,,,,,,,,,,,,,,,,,,,,,,,,,,,,,,,,,main,None,None,1,1.5119392000005973,361.3580017000004,None,None,1,,,,,,,,,,,,,,233,28,Female,2022-06-13_17h54.11.702,Main,2022.1.1,59.98210134094505,
negative,yellow,2,k,None,,,,,,,,,0,59,59,59,,,,,,,,,,,,,,,,,,,,,,,,,,,,,,,,,,,,,main,None,None,1,1.4993733999999677,363.87189240000043,None,None,1,,,,,,,,,,,,,,233,28,Female,2022-06-13_17h54.11.702,Main,2022.1.1,59.98210134094505,
positive,red,2,None,None,,,,,,,,,0,60,60,60,,,,,,,,,,,,,,,,,,,,,,,,,,,,,,,,,,,,,main,None,None,1,1.5020634000002246,366.37286029999996,None,None,1,,,,,,,,,,,,,,233,28,Female,2022-06-13_17h54.11.702,Main,2022.1.1,59.98210134094505,
negative,yellow,1,k,None,,,,,,,,,0,61,61,61,,,,,,,,,,,,,,,,,,,,,,,,,,,,,,,,,,,,,main,None,None,1,1.5036313999999038,368.88025000000016,None,None,1,,,,,,,,,,,,,,233,28,Female,2022-06-13_17h54.11.702,Main,2022.1.1,59.98210134094505,
negative,red,1,None,None,,,,,,,,,0,62,62,62,,,,,,,,,,,,,,,,,,,,,,,,,,,,,,,,,,,,,main,None,None,1,1.5041773999992074,371.38390379999964,None,None,1,,,,,,,,,,,,,,233,28,Female,2022-06-13_17h54.11.702,Main,2022.1.1,59.98210134094505,
negative,blue,1,None,k,,,,,,,,,0,63,63,63,,,,,,,,,,,,,,,,,,,,,,,,,,,,,,,,,,,,,main,k,k,1,1.0754102000000785,373.8880111999997,None,None,0,,,,,,,,,,,,,,233,28,Female,2022-06-13_17h54.11.702,Main,2022.1.1,59.98210134094505,
positive,blue,2,k,None,,,,,,,,,0,64,64,64,,,,,,,,,,,,,,,,,,,,,,,,,,,,,,,,,,,,,main,None,None,1,1.5006483000006483,375.96683479999956,None,None,1,,,,,,,,,,,,,,233,28,Female,2022-06-13_17h54.11.702,Main,2022.1.1,59.98210134094505,
negative,yellow,2,k,None,,,,,,,,,0,65,65,65,,,,,,,,,,,,,,,,,,,,,,,,,,,,,,,,,,,,,main,None,None,1,1.5162666999995054,378.4696131999999,None,None,1,,,,,,,,,,,,,,233,28,Female,2022-06-13_17h54.11.702,Main,2022.1.1,59.98210134094505,
positive,yellow,2,None,k,,,,,,,,,0,66,66,66,,,,,,,,,,,,,,,,,,,,,,,,,,,,,,,,,,,,,main,k,k,1,0.850644199999806,380.9870566999998,None,None,0,,,,,,,,,,,,,,233,28,Female,2022-06-13_17h54.11.702,Main,2022.1.1,59.98210134094505,
positive,yellow,2,None,k,,,,,,,,,0,67,67,67,,,,,,,,,,,,,,,,,,,,,,,,,,,,,,,,,,,,,main,k,k,1,0.8134487999996054,382.8436743000002,None,None,0,,,,,,,,,,,,,,233,28,Female,2022-06-13_17h54.11.702,Main,2022.1.1,59.98210134094505,
positive,red,1,None,None,,,,,,,,,0,68,68,68,,,,,,,,,,,,,,,,,,,,,,,,,,,,,,,,,,,,,main,None,None,1,1.4936512999993283,384.6577686999999,None,None,1,,,,,,,,,,,,,,233,28,Female,2022-06-13_17h54.11.702,Main,2022.1.1,59.98210134094505,
positive,yellow,1,None,k,,,,,,,,,0,69,69,69,,,,,,,,,,,,,,,,,,,,,,,,,,,,,,,,,,,,,main,k,k,1,1.2185907000002771,387.1516422000004,None,None,0,,,,,,,,,,,,,,233,28,Female,2022-06-13_17h54.11.702,Main,2022.1.1,59.98210134094505,
negative,yellow,2,k,None,,,,,,,,,0,70,70,70,,,,,,,,,,,,,,,,,,,,,,,,,,,,,,,,,,,,,main,None,None,1,1.5132297000000108,389.37579430000005,None,None,1,,,,,,,,,,,,,,233,28,Female,2022-06-13_17h54.11.702,Main,2022.1.1,59.98210134094505,
positive,yellow,1,None,k,,,,,,,,,0,71,71,71,,,,,,,,,,,,,,,,,,,,,,,,,,,,,,,,,,,,,main,k,k,1,0.9035474000002068,391.8869464999998,None,None,0,,,,,,,,,,,,,,233,28,Female,2022-06-13_17h54.11.702,Main,2022.1.1,59.98210134094505,
negative,blue,1,None,k,,,,,,,,,0,72,72,72,,,,,,,,,,,,,,,,,,,,,,,,,,,,,,,,,,,,,main,k,k,1,1.0980046999993647,393.79617899999994,None,None,0,,,,,,,,,,,,,,233,28,Female,2022-06-13_17h54.11.702,Main,2022.1.1,59.98210134094505,
negative,red,2,None,None,,,,,,,,,0,73,73,73,,,,,,,,,,,,,,,,,,,,,,,,,,,,,,,,,,,,,main,None,None,1,1.5015199999998003,395.89617220000036,None,None,1,,,,,,,,,,,,,,233,28,Female,2022-06-13_17h54.11.702,Main,2022.1.1,59.98210134094505,
positive,blue,2,k,None,,,,,,,,,0,74,74,74,,,,,,,,,,,,,,,,,,,,,,,,,,,,,,,,,,,,,main,None,None,1,1.4931391999998596,398.3976332000002,None,None,1,,,,,,,,,,,,,,233,28,Female,2022-06-13_17h54.11.702,Main,2022.1.1,59.98210134094505,
negative,blue,2,None,k,,,,,,,,,0,75,75,75,,,,,,,,,,,,,,,,,,,,,,,,,,,,,,,,,,,,,main,k,k,1,1.011577600000237,400.8939234999998,None,None,0,,,,,,,,,,,,,,233,28,Female,2022-06-13_17h54.11.702,Main,2022.1.1,59.98210134094505,
negative,blue,2,None,k,,,,,,,,,0,76,76,76,,,,,,,,,,,,,,,,,,,,,,,,,,,,,,,,,,,,,main,k,k,1,0.8467571000001044,402.9057952000003,None,None,0,,,,,,,,,,,,,,233,28,Female,2022-06-13_17h54.11.702,Main,2022.1.1,59.98210134094505,
negative,yellow,1,k,None,,,,,,,,,0,77,77,77,,,,,,,,,,,,,,,,,,,,,,,,,,,,,,,,,,,,,main,None,None,1,1.4986033999994106,404.75068850000025,None,None,1,,,,,,,,,,,,,,233,28,Female,2022-06-13_17h54.11.702,Main,2022.1.1,59.98210134094505,
positive,blue,1,k,None,,,,,,,,,0,78,78,78,,,,,,,,,,,,,,,,,,,,,,,,,,,,,,,,,,,,,main,None,None,1,1.5022362999998222,407.2517577999997,None,None,1,,,,,,,,,,,,,,233,28,Female,2022-06-13_17h54.11.702,Main,2022.1.1,59.98210134094505,
positive,blue,1,k,None,,,,,,,,,0,79,79,79,,,,,,,,,,,,,,,,,,,,,,,,,,,,,,,,,,,,,main,None,None,1,1.5101719999993293,409.75856289999956,None,None,1,,,,,,,,,,,,,,233,28,Female,2022-06-13_17h54.11.702,Main,2022.1.1,59.98210134094505,
positive,red,2,None,None,,,,,,,,,0,80,80,80,,,,,,,,,,,,,,,,,,,,,,,,,,,,,,,,,,,,,main,None,None,1,1.4972600000000966,412.2703203000001,None,None,1,,,,,,,,,,,,,,233,28,Female,2022-06-13_17h54.11.702,Main,2022.1.1,59.98210134094505,
positive,yellow,2,None,k,,,,,,,,,0,81,81,81,,,,,,,,,,,,,,,,,,,,,,,,,,,,,,,,,,,,,main,k,k,1,0.8503282000001491,414.76574900000014,None,None,0,,,,,,,,,,,,,,233,28,Female,2022-06-13_17h54.11.702,Main,2022.1.1,59.98210134094505,
positive,blue,1,k,None,,,,,,,,,0,82,82,82,,,,,,,,,,,,,,,,,,,,,,,,,,,,,,,,,,,,,main,None,None,1,1.496111500000552,416.6177114000002,None,None,1,,,,,,,,,,,,,,233,28,Female,2022-06-13_17h54.11.702,Main,2022.1.1,59.98210134094505,
negative,yellow,2,k,None,,,,,,,,,0,83,83,83,,,,,,,,,,,,,,,,,,,,,,,,,,,,,,,,,,,,,main,None,None,1,1.5051088999998683,419.11999469999955,None,None,1,,,,,,,,,,,,,,233,28,Female,2022-06-13_17h54.11.702,Main,2022.1.1,59.98210134094505,
positive,blue,2,k,None,,,,,,,,,0,84,84,84,,,,,,,,,,,,,,,,,,,,,,,,,,,,,,,,,,,,,main,None,None,1,1.4960817000001043,421.62542570000005,None,None,1,,,,,,,,,,,,,,233,28,Female,2022-06-13_17h54.11.702,Main,2022.1.1,59.98210134094505,
positive,yellow,1,None,k,,,,,,,,,0,85,85,85,,,,,,,,,,,,,,,,,,,,,,,,,,,,,,,,,,,,,main,k,k,1,0.9115134000003309,424.12324139999964,None,None,0,,,,,,,,,,,,,,233,28,Female,2022-06-13_17h54.11.702,Main,2022.1.1,59.98210134094505,
positive,blue,2,k,None,,,,,,,,,0,86,86,86,,,,,,,,,,,,,,,,,,,,,,,,,,,,,,,,,,,,,main,None,None,1,1.5124532999998337,426.03506800000014,None,None,1,,,,,,,,,,,,,,233,28,Female,2022-06-13_17h54.11.702,Main,2022.1.1,59.98210134094505,
positive,blue,1,k,None,,,,,,,,,0,87,87,87,,,,,,,,,,,,,,,,,,,,,,,,,,,,,,,,,,,,,main,None,None,1,1.497697299999345,428.54895639999995,None,None,1,,,,,,,,,,,,,,233,28,Female,2022-06-13_17h54.11.702,Main,2022.1.1,59.98210134094505,
negative,yellow,2,k,None,,,,,,,,,0,88,88,88,,,,,,,,,,,,,,,,,,,,,,,,,,,,,,,,,,,,,main,None,None,1,1.502721400000155,431.05085020000024,None,None,1,,,,,,,,,,,,,,233,28,Female,2022-06-13_17h54.11.702,Main,2022.1.1,59.98210134094505,
negative,blue,2,None,k,,,,,,,,,0,89,89,89,,,,,,,,,,,,,,,,,,,,,,,,,,,,,,,,,,,,,main,k,k,1,0.9021492000001672,433.55550889999995,None,None,0,,,,,,,,,,,,,,233,28,Female,2022-06-13_17h54.11.702,Main,2022.1.1,59.98210134094505,
positive,yellow,2,None,k,,,,,,,,,0,90,90,90,,,,,,,,,,,,,,,,,,,,,,,,,,,,,,,,,,,,,main,k,k,1,0.7763861999992514,435.4574534000003,None,None,0,,,,,,,,,,,,,,233,28,Female,2022-06-13_17h54.11.702,Main,2022.1.1,59.98210134094505,
negative,yellow,1,k,None,,,,,,,,,0,91,91,91,,,,,,,,,,,,,,,,,,,,,,,,,,,,,,,,,,,,,main,None,None,1,1.501766299999872,437.2392767000001,None,None,1,,,,,,,,,,,,,,233,28,Female,2022-06-13_17h54.11.702,Main,2022.1.1,59.98210134094505,
negative,red,2,None,None,,,,,,,,,0,92,92,92,,,,,,,,,,,,,,,,,,,,,,,,,,,,,,,,,,,,,main,None,None,1,1.5087866000003487,439.7401407999996,None,None,1,,,,,,,,,,,,,,233,28,Female,2022-06-13_17h54.11.702,Main,2022.1.1,59.98210134094505,
negative,blue,2,None,k,,,,,,,,,0,93,93,93,,,,,,,,,,,,,,,,,,,,,,,,,,,,,,,,,,,,,main,k,k,1,0.785442299999886,442.2476478999997,None,None,0,,,,,,,,,,,,,,233,28,Female,2022-06-13_17h54.11.702,Main,2022.1.1,59.98210134094505,
negative,blue,1,None,k,,,,,,,,,0,94,94,94,,,,,,,,,,,,,,,,,,,,,,,,,,,,,,,,,,,,,main,k,k,1,0.8810741999996026,444.0376706999996,None,None,0,,,,,,,,,,,,,,233,28,Female,2022-06-13_17h54.11.702,Main,2022.1.1,59.98210134094505,
negative,blue,1,None,k,,,,,,,,,0,95,95,95,,,,,,,,,,,,,,,,,,,,,,,,,,,,,,,,,,,,,main,k,k,1,0.5444027000003189,445.92222519999996,None,None,0,,,,,,,,,,,,,,233,28,Female,2022-06-13_17h54.11.702,Main,2022.1.1,59.98210134094505,
negative,red,1,None,None,,,,,,,,,0,96,96,96,,,,,,,,,,,,,,,,,,,,,,,,,,,,,,,,,,,,,main,None,None,1,1.4988553000002867,447.46641,None,None,1,,,,,,,,,,,,,,233,28,Female,2022-06-13_17h54.11.702,Main,2022.1.1,59.98210134094505,
positive,yellow,1,None,k,,,,,,,,,0,97,97,97,,,,,,,,,,,,,,,,,,,,,,,,,,,,,,,,,,,,,main,k,k,1,0.6094592999997985,449.96408840000004,None,None,0,,,,,,,,,,,,,,233,28,Female,2022-06-13_17h54.11.702,Main,2022.1.1,59.98210134094505,
negative,yellow,1,k,None,,,,,,,,,0,98,98,98,,,,,,,,,,,,,,,,,,,,,,,,,,,,,,,,,,,,,main,None,None,1,1.4996351999998296,451.57649560000027,None,None,1,,,,,,,,,,,,,,233,28,Female,2022-06-13_17h54.11.702,Main,2022.1.1,59.98210134094505,
positive,red,1,None,None,,,,,,,,,0,99,99,99,,,,,,,,,,,,,,,,,,,,,,,,,,,,,,,,,,,,,main,None,None,1,1.499138099999982,454.07766809999976,None,None,1,,,,,,,,,,,,,,233,28,Female,2022-06-13_17h54.11.702,Main,2022.1.1,59.98210134094505,
positive,blue,1,k,None,,,,,,,,,0,100,100,100,,,,,,,,,,,,,,,,,,,,,,,,,,,,,,,,,,,,,main,None,None,1,1.4978151999994225,456.57907479999994,None,None,1,,,,,,,,,,,,,,233,28,Female,2022-06-13_17h54.11.702,Main,2022.1.1,59.98210134094505,
negative,yellow,1,k,None,,,,,,,,,0,101,101,101,,,,,,,,,,,,,,,,,,,,,,,,,,,,,,,,,,,,,main,None,None,1,1.49916630000007,459.0789907999997,None,None,1,,,,,,,,,,,,,,233,28,Female,2022-06-13_17h54.11.702,Main,2022.1.1,59.98210134094505,
negative,blue,2,None,k,,,,,,,,,0,102,102,102,,,,,,,,,,,,,,,,,,,,,,,,,,,,,,,,,,,,,main,k,k,1,0.7994153999998161,461.5791263000001,None,None,0,,,,,,,,,,,,,,233,28,Female,2022-06-13_17h54.11.702,Main,2022.1.1,59.98210134094505,
negative,yellow,2,k,None,,,,,,,,,0,103,103,103,,,,,,,,,,,,,,,,,,,,,,,,,,,,,,,,,,,,,main,None,None,1,1.5017658999995547,463.3842021999999,None,None,1,,,,,,,,,,,,,,233,28,Female,2022-06-13_17h54.11.702,Main,2022.1.1,59.98210134094505,
positive,yellow,2,None,k,,,,,,,,,0,104,104,104,,,,,,,,,,,,,,,,,,,,,,,,,,,,,,,,,,,,,main,k,k,1,0.9750398000005589,465.8865410999997,None,None,0,,,,,,,,,,,,,,233,28,Female,2022-06-13_17h54.11.702,Main,2022.1.1,59.98210134094505,
positive,blue,1,k,None,,,,,,,,,0,105,105,105,,,,,,,,,,,,,,,,,,,,,,,,,,,,,,,,,,,,,main,None,None,1,1.5079516000005242,467.86263119999967,None,None,1,,,,,,,,,,,,,,233,28,Female,2022-06-13_17h54.11.702,Main,2022.1.1,59.98210134094505,
positive,blue,2,k,None,,,,,,,,,0,106,106,106,,,,,,,,,,,,,,,,,,,,,,,,,,,,,,,,,,,,,main,None,None,1,1.4981303999993543,470.3716059999997,None,None,1,,,,,,,,,,,,,,233,28,Female,2022-06-13_17h54.11.702,Main,2022.1.1,59.98210134094505,
negative,blue,1,None,k,,,,,,,,,0,107,107,107,,,,,,,,,,,,,,,,,,,,,,,,,,,,,,,,,,,,,main,k,k,1,0.8178497999997489,472.8709335000003,None,None,0,,,,,,,,,,,,,,233,28,Female,2022-06-13_17h54.11.702,Main,2022.1.1,59.98210134094505,
positive,yellow,2,None,k,,,,,,,,,0,108,108,108,,,,,,,,,,,,,,,,,,,,,,,,,,,,,,,,,,,,,main,k,k,1,0.8666858000005959,474.69284510000034,None,None,0,,,,,,,,,,,,,,233,28,Female,2022-06-13_17h54.11.702,Main,2022.1.1,59.98210134094505,
negative,yellow,1,k,None,,,,,,,,,0,109,109,109,,,,,,,,,,,,,,,,,,,,,,,,,,,,,,,,,,,,,main,None,None,1,1.5078606000006403,476.5629836999997,None,None,1,,,,,,,,,,,,,,233,28,Female,2022-06-13_17h54.11.702,Main,2022.1.1,59.98210134094505,
negative,blue,2,None,k,,,,,,,,,0,110,110,110,,,,,,,,,,,,,,,,,,,,,,,,,,,,,,,,,,,,,main,k,k,1,1.1185209999994186,479.0700635000003,None,None,0,,,,,,,,,,,,,,233,28,Female,2022-06-13_17h54.11.702,Main,2022.1.1,59.98210134094505,
positive,blue,2,k,None,,,,,,,,,0,111,111,111,,,,,,,,,,,,,,,,,,,,,,,,,,,,,,,,,,,,,main,None,None,1,1.503543499999978,481.1927175999999,None,None,1,,,,,,,,,,,,,,233,28,Female,2022-06-13_17h54.11.702,Main,2022.1.1,59.98210134094505,
negative,blue,1,None,k,,,,,,,,,0,112,112,112,,,,,,,,,,,,,,,,,,,,,,,,,,,,,,,,,,,,,main,k,k,1,1.3885929999996733,483.69910979999986,None,None,0,,,,,,,,,,,,,,233,28,Female,2022-06-13_17h54.11.702,Main,2022.1.1,59.98210134094505,
positive,yellow,1,None,k,,,,,,,,,0,113,113,113,,,,,,,,,,,,,,,,,,,,,,,,,,,,,,,,,,,,,main,k,k,1,0.8539403000004313,486.0904461,None,None,0,,,,,,,,,,,,,,233,28,Female,2022-06-13_17h54.11.702,Main,2022.1.1,59.98210134094505,
negative,red,1,None,None,,,,,,,,,0,114,114,114,,,,,,,,,,,,,,,,,,,,,,,,,,,,,,,,,,,,,main,None,None,1,1.5006300000004558,487.9425897000001,None,None,1,,,,,,,,,,,,,,233,28,Female,2022-06-13_17h54.11.702,Main,2022.1.1,59.98210134094505,
positive,red,1,None,None,,,,,,,,,0,115,115,115,,,,,,,,,,,,,,,,,,,,,,,,,,,,,,,,,,,,,main,None,None,1,1.5100564999993367,490.4479288000002,None,None,1,,,,,,,,,,,,,,233,28,Female,2022-06-13_17h54.11.702,Main,2022.1.1,59.98210134094505,
negative,red,2,None,None,,,,,,,,,0,116,116,116,,,,,,,,,,,,,,,,,,,,,,,,,,,,,,,,,,,,,main,None,None,1,1.509148500000265,492.95571649999965,None,None,1,,,,,,,,,,,,,,233,28,Female,2022-06-13_17h54.11.702,Main,2022.1.1,59.98210134094505,
negative,yellow,2,k,None,,,,,,,,,0,117,117,117,,,,,,,,,,,,,,,,,,,,,,,,,,,,,,,,,,,,,main,None,None,1,1.5009081000007427,495.4702354000001,None,None,1,,,,,,,,,,,,,,233,28,Female,2022-06-13_17h54.11.702,Main,2022.1.1,59.98210134094505,
positive,yellow,1,None,k,,,,,,,,,0,118,118,118,,,,,,,,,,,,,,,,,,,,,,,,,,,,,,,,,,,,,main,k,k,1,1.2441218000003573,497.9723573000001,None,None,0,,,,,,,,,,,,,,233,28,Female,2022-06-13_17h54.11.702,Main,2022.1.1,59.98210134094505,
positive,red,2,None,None,,,,,,,,,0,119,119,119,,,,,,,,,,,,,,,,,,,,,,,,,,,,,,,,,,,,,main,None,None,1,1.5078640000001542,500.2225718999998,None,None,1,,,,,,,,,,,,,,233,28,Female,2022-06-13_17h54.11.702,Main,2022.1.1,59.98210134094505,
positive,blue,2,k,None,,,,,,,,,0,120,120,120,,,,,,,,,,,,,,,,,,,,,,,,,,,,,,,,,,,,,main,None,None,1,1.4960301000000982,502.7324158000001,None,None,1,,,,,,,,,,,,,,233,28,Female,2022-06-13_17h54.11.702,Main,2022.1.1,59.98210134094505,
negative,red,1,None,None,,,,,,,,,0,121,121,121,,,,,,,,,,,,,,,,,,,,,,,,,,,,,,,,,,,,,main,None,None,1,1.5105397000006633,505.23080389999996,None,None,1,,,,,,,,,,,,,,233,28,Female,2022-06-13_17h54.11.702,Main,2022.1.1,59.98210134094505,
positive,yellow,2,None,k,,,,,,,,,0,122,122,122,,,,,,,,,,,,,,,,,,,,,,,,,,,,,,,,,,,,,main,k,k,1,1.0235288999992918,507.7383055999999,None,None,0,,,,,,,,,,,,,,233,28,Female,2022-06-13_17h54.11.702,Main,2022.1.1,59.98210134094505,
negative,red,2,None,None,,,,,,,,,0,123,123,123,,,,,,,,,,,,,,,,,,,,,,,,,,,,,,,,,,,,,main,None,None,1,1.5060104000003776,509.7663799000002,None,None,1,,,,,,,,,,,,,,233,28,Female,2022-06-13_17h54.11.702,Main,2022.1.1,59.98210134094505,
negative,yellow,2,k,None,,,,,,,,,0,124,124,124,,,,,,,,,,,,,,,,,,,,,,,,,,,,,,,,,,,,,main,None,None,1,1.5109131999997771,512.2708488999997,None,None,1,,,,,,,,,,,,,,233,28,Female,2022-06-13_17h54.11.702,Main,2022.1.1,59.98210134094505,
positive,red,1,None,None,,,,,,,,,0,125,125,125,,,,,,,,,,,,,,,,,,,,,,,,,,,,,,,,,,,,,main,None,None,1,1.5142899000002217,514.7854746000003,None,None,1,,,,,,,,,,,,,,233,28,Female,2022-06-13_17h54.11.702,Main,2022.1.1,59.98210134094505,
negative,blue,2,None,k,,,,,,,,,0,126,126,126,,,,,,,,,,,,,,,,,,,,,,,,,,,,,,,,,,,,,main,k,k,1,0.9695959000000585,517.3032076,None,None,0,,,,,,,,,,,,,,233,28,Female,2022-06-13_17h54.11.702,Main,2022.1.1,59.98210134094505,
negative,blue,1,None,k,,,,,,,,,0,127,127,127,,,,,,,,,,,,,,,,,,,,,,,,,,,,,,,,,,,,,main,k,k,1,0.7150805000001128,519.2775083999995,None,None,0,,,,,,,,,,,,,,233,28,Female,2022-06-13_17h54.11.702,Main,2022.1.1,59.98210134094505,
negative,yellow,1,k,None,,,,,,,,,0,128,128,128,,,,,,,,,,,,,,,,,,,,,,,,,,,,,,,,,,,,,main,None,None,1,1.5027502000002642,520.9951023000003,None,None,1,,,,,,,,,,,,,,233,28,Female,2022-06-13_17h54.11.702,Main,2022.1.1,59.98210134094505,
negative,yellow,1,k,None,,,,,,,,,0,129,129,129,,,,,,,,,,,,,,,,,,,,,,,,,,,,,,,,,,,,,main,None,None,1,1.5059669000002032,523.4967800000004,None,None,1,,,,,,,,,,,,,,233,28,Female,2022-06-13_17h54.11.702,Main,2022.1.1,59.98210134094505,
positive,blue,1,k,None,,,,,,,,,0,130,130,130,,,,,,,,,,,,,,,,,,,,,,,,,,,,,,,,,,,,,main,None,None,1,1.5048612000000503,526.0064521000004,None,None,1,,,,,,,,,,,,,,233,28,Female,2022-06-13_17h54.11.702,Main,2022.1.1,59.98210134094505,
negative,blue,1,None,k,,,,,,,,,0,131,131,131,,,,,,,,,,,,,,,,,,,,,,,,,,,,,,,,,,,,,main,k,k,1,1.1733045999999376,528.5139534999998,None,None,0,,,,,,,,,,,,,,233,28,Female,2022-06-13_17h54.11.702,Main,2022.1.1,59.98210134094505,
negative,blue,2,None,k,,,,,,,,,0,132,132,132,,,,,,,,,,,,,,,,,,,,,,,,,,,,,,,,,,,,,main,k,k,1,0.9063444000003074,530.6849493,None,None,0,,,,,,,,,,,,,,233,28,Female,2022-06-13_17h54.11.702,Main,2022.1.1,59.98210134094505,
positive,blue,2,k,None,,,,,,,,,0,133,133,133,,,,,,,,,,,,,,,,,,,,,,,,,,,,,,,,,,,,,main,None,None,1,1.494351800000004,532.5959528000003,None,None,1,,,,,,,,,,,,,,233,28,Female,2022-06-13_17h54.11.702,Main,2022.1.1,59.98210134094505,
positive,red,2,None,None,,,,,,,,,0,134,134,134,,,,,,,,,,,,,,,,,,,,,,,,,,,,,,,,,,,,,main,None,None,1,1.5094415999992634,535.0930711999999,None,None,1,,,,,,,,,,,,,,233,28,Female,2022-06-13_17h54.11.702,Main,2022.1.1,59.98210134094505,
negative,yellow,2,k,None,,,,,,,,,0,135,135,135,,,,,,,,,,,,,,,,,,,,,,,,,,,,,,,,,,,,,main,None,None,1,1.4997953000001871,537.6015485999997,None,None,1,,,,,,,,,,,,,,233,28,Female,2022-06-13_17h54.11.702,Main,2022.1.1,59.98210134094505,
positive,yellow,2,None,k,,,,,,,,,0,136,136,136,,,,,,,,,,,,,,,,,,,,,,,,,,,,,,,,,,,,,main,k,k,1,0.9318505999999616,540.1015680999999,None,None,0,,,,,,,,,,,,,,233,28,Female,2022-06-13_17h54.11.702,Main,2022.1.1,59.98210134094505,
positive,blue,1,k,None,,,,,,,,,0,137,137,137,,,,,,,,,,,,,,,,,,,,,,,,,,,,,,,,,,,,,main,None,None,1,1.5011870999996972,542.0393965000003,None,None,1,,,,,,,,,,,,,,233,28,Female,2022-06-13_17h54.11.702,Main,2022.1.1,59.98210134094505,
positive,yellow,1,None,k,,,,,,,,,0,138,138,138,,,,,,,,,,,,,,,,,,,,,,,,,,,,,,,,,,,,,main,k,k,1,1.113219900000331,544.5411092000004,None,None,0,,,,,,,,,,,,,,233,28,Female,2022-06-13_17h54.11.702,Main,2022.1.1,59.98210134094505,
positive,yellow,1,None,k,,,,,,,,,0,139,139,139,,,,,,,,,,,,,,,,,,,,,,,,,,,,,,,,,,,,,main,k,k,1,0.8042100000002392,546.6565254999996,None,None,0,,,,,,,,,,,,,,233,28,Female,2022-06-13_17h54.11.702,Main,2022.1.1,59.98210134094505,
positive,yellow,1,None,k,,,,,,,,,0,140,140,140,,,,,,,,,,,,,,,,,,,,,,,,,,,,,,,,,,,,,main,k,k,1,0.6572376000003715,548.4608538000002,None,None,0,,,,,,,,,,,,,,233,28,Female,2022-06-13_17h54.11.702,Main,2022.1.1,59.98210134094505,
positive,blue,1,k,None,,,,,,,,,0,141,141,141,,,,,,,,,,,,,,,,,,,,,,,,,,,,,,,,,,,,,main,None,None,1,1.5014810000002399,550.1209945,None,None,1,,,,,,,,,,,,,,233,28,Female,2022-06-13_17h54.11.702,Main,2022.1.1,59.98210134094505,
positive,blue,2,k,None,,,,,,,,,0,142,142,142,,,,,,,,,,,,,,,,,,,,,,,,,,,,,,,,,,,,,main,None,None,1,1.498043499999767,552.6233476999996,None,None,1,,,,,,,,,,,,,,233,28,Female,2022-06-13_17h54.11.702,Main,2022.1.1,59.98210134094505,
positive,yellow,2,None,k,,,,,,,,,0,143,143,143,,,,,,,,,,,,,,,,,,,,,,,,,,,,,,,,,,,,,main,k,k,1,0.9060717000002114,555.1235591000004,None,None,0,,,,,,,,,,,,,,233,28,Female,2022-06-13_17h54.11.702,Main,2022.1.1,59.98210134094505,
negative,yellow,2,k,None,,,,,,,,,0,144,144,144,,,,,,,,,,,,,,,,,,,,,,,,,,,,,,,,,,,,,main,None,None,1,1.5052231999998185,557.0289651000003,None,None,1,,,,,,,,,,,,,,233,28,Female,2022-06-13_17h54.11.702,Main,2022.1.1,59.98210134094505,
negative,blue,2,None,k,,,,,,,,,0,145,145,145,,,,,,,,,,,,,,,,,,,,,,,,,,,,,,,,,,,,,main,k,k,1,0.8774082999998427,559.5392236999996,None,None,0,,,,,,,,,,,,,,233,28,Female,2022-06-13_17h54.11.702,Main,2022.1.1,59.98210134094505,
negative,red,1,None,None,,,,,,,,,0,146,146,146,,,,,,,,,,,,,,,,,,,,,,,,,,,,,,,,,,,,,main,None,None,1,1.5072595000001456,561.4181994,None,None,1,,,,,,,,,,,,,,233,28,Female,2022-06-13_17h54.11.702,Main,2022.1.1,59.98210134094505,
positive,blue,1,k,None,,,,,,,,,0,147,147,147,,,,,,,,,,,,,,,,,,,,,,,,,,,,,,,,,,,,,main,None,None,1,1.4937300000001414,563.9254325000002,None,None,1,,,,,,,,,,,,,,233,28,Female,2022-06-13_17h54.11.702,Main,2022.1.1,59.98210134094505,
positive,yellow,1,None,k,,,,,,,,,0,148,148,148,,,,,,,,,,,,,,,,,,,,,,,,,,,,,,,,,,,,,main,k,k,1,0.9430727999997544,566.4234174000003,None,None,0,,,,,,,,,,,,,,233,28,Female,2022-06-13_17h54.11.702,Main,2022.1.1,59.98210134094505,
negative,red,2,None,None,,,,,,,,,0,149,149,149,,,,,,,,,,,,,,,,,,,,,,,,,,,,,,,,,,,,,main,None,None,1,1.5016685999999027,568.3681470000001,None,None,1,,,,,,,,,,,,,,233,28,Female,2022-06-13_17h54.11.702,Main,2022.1.1,59.98210134094505,
negative,blue,1,None,k,,,,,,,,,0,150,150,150,,,,,,,,,,,,,,,,,,,,,,,,,,,,,,,,,,,,,main,k,k,1,0.9151019000000815,570.8716857999998,None,None,0,,,,,,,,,,,,,,233,28,Female,2022-06-13_17h54.11.702,Main,2022.1.1,59.98210134094505,
negative,yellow,2,k,None,,,,,,,,,0,151,151,151,,,,,,,,,,,,,,,,,,,,,,,,,,,,,,,,,,,,,main,None,None,1,1.5114417000004323,572.7886115000001,None,None,1,,,,,,,,,,,,,,233,28,Female,2022-06-13_17h54.11.702,Main,2022.1.1,59.98210134094505,
negative,blue,2,None,k,,,,,,,,,0,152,152,152,,,,,,,,,,,,,,,,,,,,,,,,,,,,,,,,,,,,,main,k,k,1,1.3425445000002583,575.2978314000002,None,None,0,,,,,,,,,,,,,,233,28,Female,2022-06-13_17h54.11.702,Main,2022.1.1,59.98210134094505,
negative,yellow,1,k,None,,,,,,,,,0,153,153,153,,,,,,,,,,,,,,,,,,,,,,,,,,,,,,,,,,,,,main,None,None,1,1.5080099999995582,577.6478605000002,None,None,1,,,,,,,,,,,,,,233,28,Female,2022-06-13_17h54.11.702,Main,2022.1.1,59.98210134094505,
negative,blue,1,None,k,,,,,,,,,0,154,154,154,,,,,,,,,,,,,,,,,,,,,,,,,,,,,,,,,,,,,main,k,k,1,1.0119668999996065,580.1566131,None,None,0,,,,,,,,,,,,,,233,28,Female,2022-06-13_17h54.11.702,Main,2022.1.1,59.98210134094505,
positive,yellow,2,None,k,,,,,,,,,0,155,155,155,,,,,,,,,,,,,,,,,,,,,,,,,,,,,,,,,,,,,main,k,k,1,0.8818111999999019,582.1714691999996,None,None,0,,,,,,,,,,,,,,233,28,Female,2022-06-13_17h54.11.702,Main,2022.1.1,59.98210134094505,
positive,red,2,None,None,,,,,,,,,0,156,156,156,,,,,,,,,,,,,,,,,,,,,,,,,,,,,,,,,,,,,main,None,None,1,1.5010245000003124,584.0542820000001,None,None,1,,,,,,,,,,,,,,233,28,Female,2022-06-13_17h54.11.702,Main,2022.1.1,59.98210134094505,
positive,red,1,None,None,,,,,,,,,0,157,157,157,,,,,,,,,,,,,,,,,,,,,,,,,,,,,,,,,,,,,main,None,None,1,1.4961902999993981,586.5565041,None,None,1,,,,,,,,,,,,,,233,28,Female,2022-06-13_17h54.11.702,Main,2022.1.1,59.98210134094505,
positive,blue,2,k,None,,,,,,,,,0,158,158,158,,,,,,,,,,,,,,,,,,,,,,,,,,,,,,,,,,,,,main,None,None,1,1.5082930000007764,589.0544319,None,None,1,,,,,,,,,,,,,,233,28,Female,2022-06-13_17h54.11.702,Main,2022.1.1,59.98210134094505,
negative,yellow,1,k,None,,,,,,,,,0,159,159,159,,,,,,,,,,,,,,,,,,,,,,,,,,,,,,,,,,,,,main,None,None,1,1.507713099999819,591.5642166999996,None,None,1,,,,,,,,,,,,,,233,28,Female,2022-06-13_17h54.11.702,Main,2022.1.1,59.98210134094505,
negative,red,2,None,None,,,,,,,,,0,160,160,160,,,,,,,,,,,,,,,,,,,,,,,,,,,,,,,,,,,,,main,None,None,1,1.5055451999996876,594.0719161999996,None,None,1,,,,,,,,,,,,,,233,28,Female,2022-06-13_17h54.11.702,Main,2022.1.1,59.98210134094505,
negative,blue,1,None,k,,,,,,,,,0,161,161,161,,,,,,,,,,,,,,,,,,,,,,,,,,,,,,,,,,,,,main,k,k,1,1.2522875000004206,596.5773737,None,None,0,,,,,,,,,,,,,,233,28,Female,2022-06-13_17h54.11.702,Main,2022.1.1,59.98210134094505,
negative,blue,1,None,k,,,,,,,,,0,162,162,162,,,,,,,,,,,,,,,,,,,,,,,,,,,,,,,,,,,,,main,k,k,1,1.026321299999836,598.8360765999996,None,None,0,,,,,,,,,,,,,,233,28,Female,2022-06-13_17h54.11.702,Main,2022.1.1,59.98210134094505,
negative,yellow,1,k,None,,,,,,,,,0,163,163,163,,,,,,,,,,,,,,,,,,,,,,,,,,,,,,,,,,,,,main,None,None,1,1.497107999999571,600.8631936000002,None,None,1,,,,,,,,,,,,,,233,28,Female,2022-06-13_17h54.11.702,Main,2022.1.1,59.98210134094505,
negative,yellow,1,k,None,,,,,,,,,0,164,164,164,,,,,,,,,,,,,,,,,,,,,,,,,,,,,,,,,,,,,main,None,None,1,1.5052332999994178,603.3631458,None,None,1,,,,,,,,,,,,,,233,28,Female,2022-06-13_17h54.11.702,Main,2022.1.1,59.98210134094505,
positive,yellow,1,None,k,,,,,,,,,0,165,165,165,,,,,,,,,,,,,,,,,,,,,,,,,,,,,,,,,,,,,main,k,k,1,1.052167400000144,605.8687403000004,None,None,0,,,,,,,,,,,,,,233,28,Female,2022-06-13_17h54.11.702,Main,2022.1.1,59.98210134094505,
negative,red,1,None,None,,,,,,,,,0,166,166,166,,,,,,,,,,,,,,,,,,,,,,,,,,,,,,,,,,,,,main,None,None,1,1.5059547000000748,607.9229550999999,None,None,1,,,,,,,,,,,,,,233,28,Female,2022-06-13_17h54.11.702,Main,2022.1.1,59.98210134094505,
negative,yellow,2,k,None,,,,,,,,,0,167,167,167,,,,,,,,,,,,,,,,,,,,,,,,,,,,,,,,,,,,,main,None,None,1,1.5112516000008327,610.4336309,None,None,1,,,,,,,,,,,,,,233,28,Female,2022-06-13_17h54.11.702,Main,2022.1.1,59.98210134094505,
positive,blue,2,k,None,,,,,,,,,0,168,168,168,,,,,,,,,,,,,,,,,,,,,,,,,,,,,,,,,,,,,main,None,k,0,0.8825333000004321,612.9424932000002,None,None,1,,,,,,,,,,,,,,233,28,Female,2022-06-13_17h54.11.702,Main,2022.1.1,59.98210134094505,
positive,red,2,None,None,,,,,,,,,0,169,169,169,,,,,,,,,,,,,,,,,,,,,,,,,,,,,,,,,,,,,main,None,None,1,1.504513400000178,615.8445085000003,None,None,1,,,,,,,,,,,,,,233,28,Female,2022-06-13_17h54.11.702,Main,2022.1.1,59.98210134094505,
positive,red,1,None,None,,,,,,,,,0,170,170,170,,,,,,,,,,,,,,,,,,,,,,,,,,,,,,,,,,,,,main,None,None,1,1.5088484000007156,618.3501149000003,None,None,1,,,,,,,,,,,,,,233,28,Female,2022-06-13_17h54.11.702,Main,2022.1.1,59.98210134094505,
negative,blue,2,None,k,,,,,,,,,0,171,171,171,,,,,,,,,,,,,,,,,,,,,,,,,,,,,,,,,,,,,main,k,k,1,1.0664495999999417,620.8612604,None,None,0,,,,,,,,,,,,,,233,28,Female,2022-06-13_17h54.11.702,Main,2022.1.1,59.98210134094505,
positive,blue,2,k,None,,,,,,,,,0,172,172,172,,,,,,,,,,,,,,,,,,,,,,,,,,,,,,,,,,,,,main,None,None,1,1.4993878999994195,622.9296345000002,None,None,1,,,,,,,,,,,,,,233,28,Female,2022-06-13_17h54.11.702,Main,2022.1.1,59.98210134094505,
negative,yellow,2,k,None,,,,,,,,,0,173,173,173,,,,,,,,,,,,,,,,,,,,,,,,,,,,,,,,,,,,,main,None,None,1,1.506993599999987,625.4306768999995,None,None,1,,,,,,,,,,,,,,233,28,Female,2022-06-13_17h54.11.702,Main,2022.1.1,59.98210134094505,
positive,yellow,2,None,k,,,,,,,,,0,174,174,174,,,,,,,,,,,,,,,,,,,,,,,,,,,,,,,,,,,,,main,k,k,1,0.9527290999994875,627.9376830000001,None,None,0,,,,,,,,,,,,,,233,28,Female,2022-06-13_17h54.11.702,Main,2022.1.1,59.98210134094505,
negative,blue,2,None,k,,,,,,,,,0,175,175,175,,,,,,,,,,,,,,,,,,,,,,,,,,,,,,,,,,,,,main,k,k,1,0.9599504000007073,629.8955373999997,None,None,0,,,,,,,,,,,,,,233,28,Female,2022-06-13_17h54.11.702,Main,2022.1.1,59.98210134094505,
positive,blue,1,k,None,,,,,,,,,0,176,176,176,,,,,,,,,,,,,,,,,,,,,,,,,,,,,,,,,,,,,main,None,None,1,1.5118983000002117,631.8545419000002,None,None,1,,,,,,,,,,,,,,233,28,Female,2022-06-13_17h54.11.702,Main,2022.1.1,59.98210134094505,
positive,yellow,1,None,k,,,,,,,,,0,177,177,177,,,,,,,,,,,,,,,,,,,,,,,,,,,,,,,,,,,,,main,k,k,1,1.1408983000001172,634.3703861000004,None,None,0,,,,,,,,,,,,,,233,28,Female,2022-06-13_17h54.11.702,Main,2022.1.1,59.98210134094505,
positive,blue,1,k,None,,,,,,,,,0,178,178,178,,,,,,,,,,,,,,,,,,,,,,,,,,,,,,,,,,,,,main,None,None,1,1.4949189999997543,636.5152259999995,None,None,1,,,,,,,,,,,,,,233,28,Female,2022-06-13_17h54.11.702,Main,2022.1.1,59.98210134094505,
positive,yellow,2,None,k,,,,,,,,,0,179,179,179,,,,,,,,,,,,,,,,,,,,,,,,,,,,,,,,,,,,,main,k,k,1,0.9107642000008127,639.0121955000004,None,None,0,,,,,,,,,,,,,,233,28,Female,2022-06-13_17h54.11.702,Main,2022.1.1,59.98210134094505,
positive,blue,1,k,None,,,,,,,,,0,180,180,180,,,,,,,,,,,,,,,,,,,,,,,,,,,,,,,,,,,,,main,None,None,1,1.5047961000000214,640.9246778999996,None,None,1,,,,,,,,,,,,,,233,28,Female,2022-06-13_17h54.11.702,Main,2022.1.1,59.98210134094505,
negative,red,1,None,None,,,,,,,,,0,181,181,181,,,,,,,,,,,,,,,,,,,,,,,,,,,,,,,,,,,,,main,None,None,1,1.4954342999999426,643.4311066999999,None,None,1,,,,,,,,,,,,,,233,28,Female,2022-06-13_17h54.11.702,Main,2022.1.1,59.98210134094505,
negative,blue,1,None,k,,,,,,,,,0,182,182,182,,,,,,,,,,,,,,,,,,,,,,,,,,,,,,,,,,,,,main,k,k,1,0.8333184999992227,645.9285370999996,None,None,0,,,,,,,,,,,,,,233,28,Female,2022-06-13_17h54.11.702,Main,2022.1.1,59.98210134094505,
negative,yellow,2,k,None,,,,,,,,,0,183,183,183,,,,,,,,,,,,,,,,,,,,,,,,,,,,,,,,,,,,,main,None,None,1,1.5008911000004446,647.7633017999997,None,None,1,,,,,,,,,,,,,,233,28,Female,2022-06-13_17h54.11.702,Main,2022.1.1,59.98210134094505,
positive,yellow,2,None,k,,,,,,,,,0,184,184,184,,,,,,,,,,,,,,,,,,,,,,,,,,,,,,,,,,,,,main,k,k,1,0.8566816000002291,650.2642979000002,None,None,0,,,,,,,,,,,,,,233,28,Female,2022-06-13_17h54.11.702,Main,2022.1.1,59.98210134094505,
positive,yellow,1,None,k,,,,,,,,,0,185,185,185,,,,,,,,,,,,,,,,,,,,,,,,,,,,,,,,,,,,,main,k,k,1,1.2313716999997268,652.1204626999997,None,None,0,,,,,,,,,,,,,,233,28,Female,2022-06-13_17h54.11.702,Main,2022.1.1,59.98210134094505,
positive,red,2,None,None,,,,,,,,,0,186,186,186,,,,,,,,,,,,,,,,,,,,,,,,,,,,,,,,,,,,,main,None,None,1,1.4982994000001781,654.3532656999996,None,None,1,,,,,,,,,,,,,,233,28,Female,2022-06-13_17h54.11.702,Main,2022.1.1,59.98210134094505,
positive,blue,1,k,None,,,,,,,,,0,187,187,187,,,,,,,,,,,,,,,,,,,,,,,,,,,,,,,,,,,,,main,None,None,1,1.5096380999993926,656.8531370000001,None,None,1,,,,,,,,,,,,,,233,28,Female,2022-06-13_17h54.11.702,Main,2022.1.1,59.98210134094505,
negative,yellow,1,k,None,,,,,,,,,0,188,188,188,,,,,,,,,,,,,,,,,,,,,,,,,,,,,,,,,,,,,main,None,None,1,1.5126856999995653,659.3658606999998,None,None,1,,,,,,,,,,,,,,233,28,Female,2022-06-13_17h54.11.702,Main,2022.1.1,59.98210134094505,
positive,yellow,2,None,k,,,,,,,,,0,189,189,189,,,,,,,,,,,,,,,,,,,,,,,,,,,,,,,,,,,,,main,k,k,1,1.219170700000177,661.8828645000003,None,None,0,,,,,,,,,,,,,,233,28,Female,2022-06-13_17h54.11.702,Main,2022.1.1,59.98210134094505,
negative,yellow,2,k,None,,,,,,,,,0,190,190,190,,,,,,,,,,,,,,,,,,,,,,,,,,,,,,,,,,,,,main,None,None,1,1.5003554000004442,664.1073249000001,None,None,1,,,,,,,,,,,,,,233,28,Female,2022-06-13_17h54.11.702,Main,2022.1.1,59.98210134094505,
negative,yellow,1,k,None,,,,,,,,,0,191,191,191,,,,,,,,,,,,,,,,,,,,,,,,,,,,,,,,,,,,,main,None,None,1,1.498148399999991,666.6096390000002,None,None,1,,,,,,,,,,,,,,233,28,Female,2022-06-13_17h54.11.702,Main,2022.1.1,59.98210134094505,
positive,blue,2,k,None,,,,,,,,,0,192,192,192,,,,,,,,,,,,,,,,,,,,,,,,,,,,,,,,,,,,,main,None,None,1,1.498773400000573,669.1085522000003,None,None,1,,,,,,,,,,,,,,233,28,Female,2022-06-13_17h54.11.702,Main,2022.1.1,59.98210134094505,
positive,yellow,1,None,k,,,,,,,,,0,193,193,193,,,,,,,,,,,,,,,,,,,,,,,,,,,,,,,,,,,,,main,k,k,1,0.9300688000002992,671.6095476,None,None,0,,,,,,,,,,,,,,233,28,Female,2022-06-13_17h54.11.702,Main,2022.1.1,59.98210134094505,
negative,red,2,None,None,,,,,,,,,0,194,194,194,,,,,,,,,,,,,,,,,,,,,,,,,,,,,,,,,,,,,main,None,None,1,1.4985497999996369,673.5415325000004,None,None,1,,,,,,,,,,,,,,233,28,Female,2022-06-13_17h54.11.702,Main,2022.1.1,59.98210134094505,
positive,red,1,None,None,,,,,,,,,0,195,195,195,,,,,,,,,,,,,,,,,,,,,,,,,,,,,,,,,,,,,main,None,None,1,1.4982419999996637,676.0407658000004,None,None,1,,,,,,,,,,,,,,233,28,Female,2022-06-13_17h54.11.702,Main,2022.1.1,59.98210134094505,
negative,blue,1,None,k,,,,,,,,,0,196,196,196,,,,,,,,,,,,,,,,,,,,,,,,,,,,,,,,,,,,,main,k,k,1,1.06457330000012,678.5404842999997,None,None,0,,,,,,,,,,,,,,233,28,Female,2022-06-13_17h54.11.702,Main,2022.1.1,59.98210134094505,
positive,blue,2,k,None,,,,,,,,,0,197,197,197,,,,,,,,,,,,,,,,,,,,,,,,,,,,,,,,,,,,,main,None,None,1,1.506089299999985,680.6072285999999,None,None,1,,,,,,,,,,,,,,233,28,Female,2022-06-13_17h54.11.702,Main,2022.1.1,59.98210134094505,
negative,blue,2,None,k,,,,,,,,,0,198,198,198,,,,,,,,,,,,,,,,,,,,,,,,,,,,,,,,,,,,,main,k,k,1,0.8195343999996112,683.1138896000002,None,None,0,,,,,,,,,,,,,,233,28,Female,2022-06-13_17h54.11.702,Main,2022.1.1,59.98210134094505,
negative,blue,2,None,k,,,,,,,,,0,199,199,199,,,,,,,,,,,,,,,,,,,,,,,,,,,,,,,,,,,,,main,k,k,1,0.8167247999999745,684.9376272999998,None,None,0,,,,,,,,,,,,,,233,28,Female,2022-06-13_17h54.11.702,Main,2022.1.1,59.98210134094505,
positive,blue,2,k,None,,,,,,,,,0,200,200,200,,,,,,,,,,,,,,,,,,,,,,,,,,,,,,,,,,,,,main,None,None,1,1.4985252000005858,686.7564555999998,None,None,1,,,,,,,,,,,,,,233,28,Female,2022-06-13_17h54.11.702,Main,2022.1.1,59.98210134094505,
positive,blue,2,k,None,,,,,,,,,0,201,201,201,,,,,,,,,,,,,,,,,,,,,,,,,,,,,,,,,,,,,main,None,None,1,1.4936300999997911,689.2557932,None,None,1,,,,,,,,,,,,,,233,28,Female,2022-06-13_17h54.11.702,Main,2022.1.1,59.98210134094505,
negative,yellow,2,k,None,,,,,,,,,0,202,202,202,,,,,,,,,,,,,,,,,,,,,,,,,,,,,,,,,,,,,main,None,None,1,1.5050559000001158,691.7506160000003,None,None,1,,,,,,,,,,,,,,233,28,Female,2022-06-13_17h54.11.702,Main,2022.1.1,59.98210134094505,
positive,red,1,None,None,,,,,,,,,0,203,203,203,,,,,,,,,,,,,,,,,,,,,,,,,,,,,,,,,,,,,main,None,None,1,1.5034770000002027,694.2611531000002,None,None,1,,,,,,,,,,,,,,233,28,Female,2022-06-13_17h54.11.702,Main,2022.1.1,59.98210134094505,
negative,blue,2,None,k,,,,,,,,,0,204,204,204,,,,,,,,,,,,,,,,,,,,,,,,,,,,,,,,,,,,,main,k,k,1,1.1774092999994537,696.7606395000003,None,None,0,,,,,,,,,,,,,,233,28,Female,2022-06-13_17h54.11.702,Main,2022.1.1,59.98210134094505,
negative,red,1,None,None,,,,,,,,,0,205,205,205,,,,,,,,,,,,,,,,,,,,,,,,,,,,,,,,,,,,,main,None,None,1,1.5050449999998818,698.9422686999997,None,None,1,,,,,,,,,,,,,,233,28,Female,2022-06-13_17h54.11.702,Main,2022.1.1,59.98210134094505,
negative,blue,2,None,k,,,,,,,,,0,206,206,206,,,,,,,,,,,,,,,,,,,,,,,,,,,,,,,,,,,,,main,k,k,1,0.9994566999994277,701.4457667999995,None,None,0,,,,,,,,,,,,,,233,28,Female,2022-06-13_17h54.11.702,Main,2022.1.1,59.98210134094505,
negative,yellow,2,k,None,,,,,,,,,0,207,207,207,,,,,,,,,,,,,,,,,,,,,,,,,,,,,,,,,,,,,main,None,None,1,1.5058118999995713,703.4472042999996,None,None,1,,,,,,,,,,,,,,233,28,Female,2022-06-13_17h54.11.702,Main,2022.1.1,59.98210134094505,
positive,yellow,2,None,k,,,,,,,,,0,208,208,208,,,,,,,,,,,,,,,,,,,,,,,,,,,,,,,,,,,,,main,k,k,1,0.7244450999996843,705.9567924000003,None,None,0,,,,,,,,,,,,,,233,28,Female,2022-06-13_17h54.11.702,Main,2022.1.1,59.98210134094505,
negative,yellow,1,k,None,,,,,,,,,0,209,209,209,,,,,,,,,,,,,,,,,,,,,,,,,,,,,,,,,,,,,main,None,None,1,1.5028686999994534,707.6838349,None,None,1,,,,,,,,,,,,,,233,28,Female,2022-06-13_17h54.11.702,Main,2022.1.1,59.98210134094505,
negative,red,2,None,None,,,,,,,,,0,210,210,210,,,,,,,,,,,,,,,,,,,,,,,,,,,,,,,,,,,,,main,None,None,1,1.5095103000003292,710.1882502999997,None,None,1,,,,,,,,,,,,,,233,28,Female,2022-06-13_17h54.11.702,Main,2022.1.1,59.98210134094505,
negative,blue,1,None,k,,,,,,,,,0,211,211,211,,,,,,,,,,,,,,,,,,,,,,,,,,,,,,,,,,,,,main,k,k,1,1.002522400000089,712.6993929,None,None,0,,,,,,,,,,,,,,233,28,Female,2022-06-13_17h54.11.702,Main,2022.1.1,59.98210134094505,
negative,yellow,1,k,None,,,,,,,,,0,212,212,212,,,,,,,,,,,,,,,,,,,,,,,,,,,,,,,,,,,,,main,None,None,1,1.5139369999997143,714.7039558999995,None,None,1,,,,,,,,,,,,,,233,28,Female,2022-06-13_17h54.11.702,Main,2022.1.1,59.98210134094505,
positive,blue,1,k,None,,,,,,,,,0,213,213,213,,,,,,,,,,,,,,,,,,,,,,,,,,,,,,,,,,,,,main,None,None,1,1.5005417000002126,717.2188173000004,None,None,1,,,,,,,,,,,,,,233,28,Female,2022-06-13_17h54.11.702,Main,2022.1.1,59.98210134094505,
positive,blue,1,k,None,,,,,,,,,0,214,214,214,,,,,,,,,,,,,,,,,,,,,,,,,,,,,,,,,,,,,main,None,None,1,1.5117772000003242,719.7211009000002,None,None,1,,,,,,,,,,,,,,233,28,Female,2022-06-13_17h54.11.702,Main,2022.1.1,59.98210134094505,
positive,yellow,1,None,k,,,,,,,,,0,215,215,215,,,,,,,,,,,,,,,,,,,,,,,,,,,,,,,,,,,,,main,k,k,1,1.010823800000253,722.2359106000004,None,None,0,,,,,,,,,,,,,,233,28,Female,2022-06-13_17h54.11.702,Main,2022.1.1,59.98210134094505,
positive,yellow,1,None,k,,,,,,,,,0,216,216,216,,,,,,,,,,,,,,,,,,,,,,,,,,,,,,,,,,,,,main,k,k,1,0.7994471000001795,724.2469021999996,None,None,0,,,,,,,,,,,,,,233,28,Female,2022-06-13_17h54.11.702,Main,2022.1.1,59.98210134094505,
positive,yellow,2,None,k,,,,,,,,,0,217,217,217,,,,,,,,,,,,,,,,,,,,,,,,,,,,,,,,,,,,,main,k,k,1,0.9975277999992613,726.0476570000001,None,None,0,,,,,,,,,,,,,,233,28,Female,2022-06-13_17h54.11.702,Main,2022.1.1,59.98210134094505,
negative,blue,1,None,k,,,,,,,,,0,218,218,218,,,,,,,,,,,,,,,,,,,,,,,,,,,,,,,,,,,,,main,k,k,1,1.386168699999871,728.0479308000004,None,None,0,,,,,,,,,,,,,,233,28,Female,2022-06-13_17h54.11.702,Main,2022.1.1,59.98210134094505,
positive,red,2,None,None,,,,,,,,,0,219,219,219,,,,,,,,,,,,,,,,,,,,,,,,,,,,,,,,,,,,,main,None,None,1,1.510829100000592,730.4360481000003,None,None,1,,,,,,,,,,,,,,233,28,Female,2022-06-13_17h54.11.702,Main,2022.1.1,59.98210134094505,
positive,yellow,1,None,k,,,,,,,,,0,220,220,220,,,,,,,,,,,,,,,,,,,,,,,,,,,,,,,,,,,,,main,k,k,1,1.0754258000006303,732.9434868999997,None,None,0,,,,,,,,,,,,,,233,28,Female,2022-06-13_17h54.11.702,Main,2022.1.1,59.98210134094505,
positive,blue,1,k,None,,,,,,,,,0,221,221,221,,,,,,,,,,,,,,,,,,,,,,,,,,,,,,,,,,,,,main,None,None,1,1.5103085000000647,735.0237225999999,None,None,1,,,,,,,,,,,,,,233,28,Female,2022-06-13_17h54.11.702,Main,2022.1.1,59.98210134094505,
positive,yellow,2,None,k,,,,,,,,,0,222,222,222,,,,,,,,,,,,,,,,,,,,,,,,,,,,,,,,,,,,,main,k,k,1,1.037367599999925,737.5372184999997,None,None,0,,,,,,,,,,,,,,233,28,Female,2022-06-13_17h54.11.702,Main,2022.1.1,59.98210134094505,
negative,yellow,1,k,None,,,,,,,,,0,223,223,223,,,,,,,,,,,,,,,,,,,,,,,,,,,,,,,,,,,,,main,None,None,1,1.4985326999994868,739.5766186999999,None,None,1,,,,,,,,,,,,,,233,28,Female,2022-06-13_17h54.11.702,Main,2022.1.1,59.98210134094505,
positive,yellow,2,None,k,,,,,,,,,0,224,224,224,,,,,,,,,,,,,,,,,,,,,,,,,,,,,,,,,,,,,main,k,k,1,0.8489500999994561,742.0775523000002,None,None,0,,,,,,,,,,,,,,233,28,Female,2022-06-13_17h54.11.702,Main,2022.1.1,59.98210134094505,
negative,yellow,2,k,None,,,,,,,,,0,225,225,225,,,,,,,,,,,,,,,,,,,,,,,,,,,,,,,,,,,,,main,None,None,1,1.5044860999996672,743.9277990999999,None,None,1,,,,,,,,,,,,,,233,28,Female,2022-06-13_17h54.11.702,Main,2022.1.1,59.98210134094505,
negative,blue,2,None,k,,,,,,,,,0,226,226,226,,,,,,,,,,,,,,,,,,,,,,,,,,,,,,,,,,,,,main,k,k,1,0.8416785999997956,746.4338207000001,None,None,0,,,,,,,,,,,,,,233,28,Female,2022-06-13_17h54.11.702,Main,2022.1.1,59.98210134094505,
positive,red,2,None,None,,,,,,,,,0,227,227,227,,,,,,,,,,,,,,,,,,,,,,,,,,,,,,,,,,,,,main,None,None,1,1.4976738999994268,748.2772879000004,None,None,1,,,,,,,,,,,,,,233,28,Female,2022-06-13_17h54.11.702,Main,2022.1.1,59.98210134094505,
positive,blue,2,k,None,,,,,,,,,0,228,228,228,,,,,,,,,,,,,,,,,,,,,,,,,,,,,,,,,,,,,main,None,None,1,1.5079541999994035,750.7732818000004,None,None,1,,,,,,,,,,,,,,233,28,Female,2022-06-13_17h54.11.702,Main,2022.1.1,59.98210134094505,
negative,blue,1,None,k,,,,,,,,,0,229,229,229,,,,,,,,,,,,,,,,,,,,,,,,,,,,,,,,,,,,,main,k,k,1,0.7073725999998715,753.2840630000001,None,None,0,,,,,,,,,,,,,,233,28,Female,2022-06-13_17h54.11.702,Main,2022.1.1,59.98210134094505,
positive,yellow,1,None,k,,,,,,,,,0,230,230,230,,,,,,,,,,,,,,,,,,,,,,,,,,,,,,,,,,,,,main,k,k,1,0.9379454999998416,754.9918647000004,None,None,0,,,,,,,,,,,,,,233,28,Female,2022-06-13_17h54.11.702,Main,2022.1.1,59.98210134094505,
negative,blue,2,None,k,,,,,,,,,0,231,231,231,,,,,,,,,,,,,,,,,,,,,,,,,,,,,,,,,,,,,main,k,k,1,0.907444100000248,756.9332658000003,None,None,0,,,,,,,,,,,,,,233,28,Female,2022-06-13_17h54.11.702,Main,2022.1.1,59.98210134094505,
negative,red,1,None,None,,,,,,,,,0,232,232,232,,,,,,,,,,,,,,,,,,,,,,,,,,,,,,,,,,,,,main,None,None,1,1.504341800000475,758.8416809999999,None,None,1,,,,,,,,,,,,,,233,28,Female,2022-06-13_17h54.11.702,Main,2022.1.1,59.98210134094505,
positive,blue,2,k,None,,,,,,,,,0,233,233,233,,,,,,,,,,,,,,,,,,,,,,,,,,,,,,,,,,,,,main,None,None,1,1.508327200000167,761.3522446999996,None,None,1,,,,,,,,,,,,,,233,28,Female,2022-06-13_17h54.11.702,Main,2022.1.1,59.98210134094505,
negative,yellow,1,k,None,,,,,,,,,0,234,234,234,,,,,,,,,,,,,,,,,,,,,,,,,,,,,,,,,,,,,main,None,None,1,1.49815690000014,763.8549995000003,None,None,1,,,,,,,,,,,,,,233,28,Female,2022-06-13_17h54.11.702,Main,2022.1.1,59.98210134094505,
negative,yellow,2,k,None,,,,,,,,,0,235,235,235,,,,,,,,,,,,,,,,,,,,,,,,,,,,,,,,,,,,,main,None,None,1,1.5023535999998785,766.3583877000001,None,None,1,,,,,,,,,,,,,,233,28,Female,2022-06-13_17h54.11.702,Main,2022.1.1,59.98210134094505,
positive,red,1,None,None,,,,,,,,,0,236,236,236,,,,,,,,,,,,,,,,,,,,,,,,,,,,,,,,,,,,,main,None,None,1,1.5097273999999743,768.8624717000002,None,None,1,,,,,,,,,,,,,,233,28,Female,2022-06-13_17h54.11.702,Main,2022.1.1,59.98210134094505,
negative,red,2,None,None,,,,,,,,,0,237,237,237,,,,,,,,,,,,,,,,,,,,,,,,,,,,,,,,,,,,,main,None,None,1,1.5079617000001235,771.3699434999999,None,None,1,,,,,,,,,,,,,,233,28,Female,2022-06-13_17h54.11.702,Main,2022.1.1,59.98210134094505,
negative,blue,1,None,k,,,,,,,,,0,238,238,238,,,,,,,,,,,,,,,,,,,,,,,,,,,,,,,,,,,,,main,k,k,1,3.5509689999998955,773.8814681000003,None,None,0,,,,,,,,,,,,,,233,28,Female,2022-06-13_17h54.11.702,Main,2022.1.1,59.98210134094505,
positive,blue,1,k,None,,,,,,,,,0,239,239,239,,,,,,,,,,,,,,,,,,,,,,,,,,,,,,,,,,,,,main,None,None,1,1.4902664999999615,779.4574973999997,None,None,1,,,,,,,,,,,,,,233,28,Female,2022-06-13_17h54.11.702,Main,2022.1.1,59.98210134094505,
,,,,,,,,,,,,,,,,,,,,,,,,,,,,,,,,,,,,,,,,,,,,,,,,,,,,,,,,,,,,,,,,,,,,,,,,,781.9383099999995,None,,,,,,,,
