name,TrialNum,Word,WordCategory,FishType,WordList,WordValence,WordReputation,CorrectResp,IncorrectResp,FishTypeFile,Round,WordType,Condition,LoopforOrange.thisRepN,LoopforOrange.thisTrialN,LoopforOrange.thisN,LoopforOrange.thisIndex,OrangeInstLoop.thisRepN,OrangeInstLoop.thisTrialN,OrangeInstLoop.thisN,OrangeInstLoop.thisIndex,OrangePrac.thisRepN,OrangePrac.thisTrialN,OrangePrac.thisN,OrangePrac.thisIndex,temp1.thisRepN,temp1.thisTrialN,temp1.thisN,temp1.thisIndex,OrangeRound1.thisRepN,OrangeRound1.thisTrialN,OrangeRound1.thisN,OrangeRound1.thisIndex,OrangeRound2.thisRepN,OrangeRound2.thisTrialN,OrangeRound2.thisN,OrangeRound2.thisIndex,OrangeRound3.thisRepN,OrangeRound3.thisTrialN,OrangeRound3.thisN,OrangeRound3.thisIndex,OrangeRound4.thisRepN,OrangeRound4.thisTrialN,OrangeRound4.thisN,OrangeRound4.thisIndex,OrangeRound5.thisRepN,OrangeRound5.thisTrialN,OrangeRound5.thisN,OrangeRound5.thisIndex,LoopForGreen.thisRepN,LoopForGreen.thisTrialN,LoopForGreen.thisN,LoopForGreen.thisIndex,text_2.started,text_2.stopped,text_3.started,text_3.stopped,key_resp.keys,key_resp.rt,key_resp.started,key_resp.stopped,PassI_2.started,PassI_2.stopped,PassInst_2.keys,PassInst_2.rt,PassInst_2.started,PassInst_2.stopped,mouse_2.x,mouse_2.y,mouse_2.leftButton,mouse_2.midButton,mouse_2.rightButton,mouse_2.started,mouse_2.stopped,image.started,image.stopped,text_5.started,text_5.stopped,text_6.started,text_6.stopped,text_7.started,text_7.stopped,text_8.started,text_8.stopped,slider_2.response,slider_2.rt,slider_2.started,slider_2.stopped,Response_2,Feedback_2,BackGround_2.started,BackGround_2.stopped,Fish_2.started,Fish_2.stopped,WordBox_2.started,WordBox_2.stopped,Words_2.started,Words_2.stopped,BackGround_Feedback_2.started,BackGround_Feedback_2.stopped,Feedbacks_2.started,Feedbacks_2.stopped,Continue_or_not.keys,Continue_or_not.rt,Continue_or_not.started,Continue_or_not.stopped,image_3.started,image_3.stopped,mouse_3.x,mouse_3.y,mouse_3.leftButton,mouse_3.midButton,mouse_3.rightButton,mouse_3.started,mouse_3.stopped,startmain.started,startmain.stopped,slider.response,slider.rt,slider.started,slider.stopped,Response,Feedback,BackGround.started,BackGround.stopped,Fish.started,Fish.stopped,WordBox.started,WordBox.stopped,Words.started,Words.stopped,BackGround_Feedback.started,BackGround_Feedback.stopped,Feedbacks.started,Feedbacks.stopped,text.started,text.stopped,break_interval.started,break_interval.stopped,mouse.x,mouse.y,mouse.leftButton,mouse.midButton,mouse.rightButton,mouse.started,mouse.stopped,stratnextround.started,stratnextround.stopped,endgame.started,endgame.stopped,participant,date,expName,psychopyVersion,frameRate,
,,,,,,,,,,,,,,,,,,,,,,,,,,,,,,,,,,,,,,,,,,,,,,,,,,,,,,20.058136999839917,None,20.058136999839917,None,space,0.3939743002410978,20.55733300000429,None,,,,,,,,,,,,,,,,,,,,,,,,,,,,,,,,,,,,,,,,,,,,,,,,,,,,,,,,,,,,,,,,,,,,,,,,,,,,,,,,,,,,,,,,,,101,2023-03-27_10h29.07.541,FishGame,2022.1.1,59.887447496818794,
물고기과제_instruction(참가자용)OrangeVersion.mp4,,,,,,,,,,,,,,0,0,0,0,0,0,0,0,,,,,,,,,,,,,,,,,,,,,,,,,,,,,,,,,,,,,,,,,24.04037839989178,None,n,3.6557595001067966,24.04037839989178,None,,,,,,,,,,,,,,,,,,,,,,,,,,,,,,,,,,,,,,,,,,,,,,,,,,,,,,,,,,,,,,,,,,,,,,,,,,,,,,,,,,,,101,2023-03-27_10h29.07.541,FishGame,2022.1.1,59.887447496818794,
,1,넌 교활해,5,Green,B,2.333333333333333,2.133333333333333,ScrollUp,ScrollDown,Green.png,practice,,,0,0,0,0,,,,,0,0,0,0,0,0,0,0,,,,,,,,,,,,,,,,,,,,,,,,,,,,,,,,,,,,,,,0.03888889,-0.22314815,1,0,0,0.5132110102567822,None,27.72073129983619,None,34.05727029987611,35.557002699933946,35.59033149993047,36.54040689999238,36.59038919978775,37.54029109980911,37.54029109980911,None,1.6358024651805558,1.3941536000929773,38.83207929995842,None,ScrollUp,정답입니다,38.83207929995842,None,38.83207929995842,None,38.83207929995842,None,38.83207929995842,None,39.920806099893525,None,39.920806099893525,40.42355740000494,,,,,,,,,,,,,,,,,,,,,,,,,,,,,,,,,,,,,,,,,,,,,,,,,101,2023-03-27_10h29.07.541,FishGame,2022.1.1,59.887447496818794,
,2,넌 슬기로워,2,Orange,A,6.166666666666667,4.1,ScrollDown,ScrollUp,Orange.png,practice,,,0,0,0,0,,,,,0,0,0,0,0,1,1,1,,,,,,,,,,,,,,,,,,,,,,,,,,,,,,,,,,,,,,,,,,,,,,,,,,,,,,,,1.1635802586873372,0.8287798999808729,41.04834149987437,None,ScrollDown,정답입니다,41.04834149987437,None,41.04834149987437,None,41.04834149987437,None,41.04834149987437,None,41.77079789992422,None,41.77079789992422,42.27338759996928,,,,,,,,,,,,,,,,,,,,,,,,,,,,,,,,,,,,,,,,,,,,,,,,,101,2023-03-27_10h29.07.541,FishGame,2022.1.1,59.887447496818794,
,3,나를 보내줘,6,Orange,A,0,0,ScrollUp,ScrollDown,Orange.png,practice,,,0,0,0,0,,,,,0,0,0,0,0,2,2,2,,,,,,,,,,,,,,,,,,,,,,,,,,,,,,,,,,,,,,,,,,,,,,,,,,,,,,,,1.5354938271145024,1.7291697999462485,42.898686699802056,None,NoResponse,무응답입니다,42.898686699802056,None,42.898686699802056,None,42.898686699802056,None,42.898686699802056,None,44.52081789984368,None,44.52081789984368,45.0234304999467,,,,,,,,,,,,,,,,,,,,,,,,,,,,,,,,,,,,,,,,,,,,,,,,,101,2023-03-27_10h29.07.541,FishGame,2022.1.1,59.887447496818794,
,4,나를 데려가줘,6,Green,B,0,0,ScrollDown,ScrollUp,Green.png,practice,,,0,0,0,0,,,,,0,0,0,0,0,3,3,3,,,,,,,,,,,,,,,,,,,,,,,,,,,,,,,,,,,,,,,,,,,,,,,,,,,,,,,,1.040123442808787,1.3153405000921339,45.64046389982104,None,ScrollDown,정답입니다,45.64046389982104,None,45.64046389982104,None,45.64046389982104,None,45.64046389982104,None,46.853740399936214,None,46.853740399936214,47.3537626999896,,,,,,,,,,,,,,,,,,,,,,,,,,,,,,,,,,,,,,,,,,,,,,,,,101,2023-03-27_10h29.07.541,FishGame,2022.1.1,59.887447496818794,
,1,넌 교활해,5,Green,B,2.333333333333333,2.133333333333333,ScrollUp,ScrollDown,Green.png,practice,,,0,0,0,0,,,,,0,0,0,0,,,,,,,,,,,,,,,,,,,,,,,,,,,,,,,,,,,,,,,,,,,,,,,,,,,,,,,,,,,,,,,,,,,,,,,,,,,,,,n,7.597381500061601,47.85385459987447,None,47.85385459987447,None,,,,,,,,,,,,,,,,,,,,,,,,,,,,,,,,,,,,,,,,,,,101,2023-03-27_10h29.07.541,FishGame,2022.1.1,59.887447496818794,
,1,넌 따뜻해,1,Green,B,6.083333333333333,5.6,ScrollUp,ScrollDown,Green.png,1,Positive,Incongruent,0,0,0,0,,,,,,,,,,,,,0,0,0,0,,,,,,,,,,,,,,,,,,,,,,,,,,,,,,,,,,,,,,,,,,,,57.570245599839836,59.07338059996255,59.10676019988023,60.05668759997934,60.10673819994554,61.05656069982797,61.05656069982797,None,,,,,,,,,,,,,,,,,,,,,,,,,0.035185184,-0.13148148,1,0,0,0.31528970994986594,None,55.470263299997896,None,1.9089506218830745,1.4412589001003653,62.351290999911726,None,ScrollUp,정답입니다,62.351290999911726,None,62.351290999911726,None,62.351290999911726,None,62.351290999911726,None,63.48707269993611,None,63.48707269993611,63.9870519998949,,,,,,,,,,,,,,,,101,2023-03-27_10h29.07.541,FishGame,2022.1.1,59.887447496818794,
,2,넌 기품있어,2,Green,B,5.791666666666668,4.5,ScrollUp,ScrollDown,Green.png,1,Positive,Incongruent,0,0,0,0,,,,,,,,,,,,,0,1,1,1,,,,,,,,,,,,,,,,,,,,,,,,,,,,,,,,,,,,,,,,,,,,,,,,,,,,,,,,,,,,,,,,,,,,,,,,,,,,,,,,,,,,,2,0.9957695000339299,64.62323119980283,None,ScrollUp,정답입니다,64.62323119980283,None,64.62323119980283,None,64.62323119980283,None,64.62323119980283,None,65.50641489983536,None,65.50641489983536,66.01094429986551,,,,,,,,,,,,,,,,101,2023-03-27_10h29.07.541,FishGame,2022.1.1,59.887447496818794,
,3,나를 보내줘,6,Orange,A,0,0,ScrollUp,ScrollDown,Orange.png,1,NonTarget,NonTarget,0,0,0,0,,,,,,,,,,,,,0,2,2,2,,,,,,,,,,,,,,,,,,,,,,,,,,,,,,,,,,,,,,,,,,,,,,,,,,,,,,,,,,,,,,,,,,,,,,,,,,,,,,,,,,,,,1.9675925771395366,1.2986254000570625,66.65006449981593,None,ScrollUp,정답입니다,66.65006449981593,None,66.65006449981593,None,66.65006449981593,None,66.65006449981593,None,67.83668389986269,None,67.83668389986269,68.33671379997395,,,,,,,,,,,,,,,,101,2023-03-27_10h29.07.541,FishGame,2022.1.1,59.887447496818794,
,4,넌 수동적이야,4,Orange,A,2.833333333333333,2.933333333333333,ScrollDown,ScrollUp,Orange.png,1,Negative,Incongruent,0,0,0,0,,,,,,,,,,,,,0,3,3,3,,,,,,,,,,,,,,,,,,,,,,,,,,,,,,,,,,,,,,,,,,,,,,,,,,,,,,,,,,,,,,,,,,,,,,,,,,,,,,,,,,,,,1.0293209950129192,1.148610700154677,68.98187149991281,None,ScrollDown,정답입니다,68.98187149991281,None,68.98187149991281,None,68.98187149991281,None,68.98187149991281,None,70.00632319995202,None,70.00632319995202,70.52298519993201,,,,,,,,,,,,,,,,101,2023-03-27_10h29.07.541,FishGame,2022.1.1,59.887447496818794,
,5,넌 사심이 없어,3,Green,B,4.916666666666666,4.333333333333333,ScrollUp,ScrollDown,Green.png,1,Neutral,Neutral,0,0,0,0,,,,,,,,,,,,,0,4,4,4,,,,,,,,,,,,,,,,,,,,,,,,,,,,,,,,,,,,,,,,,,,,,,,,,,,,,,,,,,,,,,,,,,,,,,,,,,,,,,,,,,,,,1.486111110386749,0.9790362999774516,71.13667969987728,None,NoResponse,무응답입니다,71.13667969987728,None,71.13667969987728,None,71.13667969987728,None,71.13667969987728,None,71.99035379989073,None,71.99035379989073,72.48952069994994,,,,,,,,,,,,,,,,101,2023-03-27_10h29.07.541,FishGame,2022.1.1,59.887447496818794,
,6,넌 헤퍼,5,Orange,A,2.458333333333334,2.233333333333333,ScrollDown,ScrollUp,Orange.png,1,Negative,Incongruent,0,0,0,0,,,,,,,,,,,,,0,5,5,5,,,,,,,,,,,,,,,,,,,,,,,,,,,,,,,,,,,,,,,,,,,,,,,,,,,,,,,,,,,,,,,,,,,,,,,,,,,,,,,,,,,,,1.0694444576899211,0.9457275001332164,73.11818699981086,None,ScrollDown,정답입니다,73.11818699981086,None,73.11818699981086,None,73.11818699981086,None,73.11818699981086,None,73.9533541998826,None,73.9533541998826,74.45346889994107,,,,,,,,,,,,,,,,101,2023-03-27_10h29.07.541,FishGame,2022.1.1,59.887447496818794,
,7,넌 말쑥해,3,Orange,A,4.833333333333334,4.333333333333333,ScrollDown,ScrollUp,Orange.png,1,Neutral,Neutral,0,0,0,0,,,,,,,,,,,,,0,6,6,6,,,,,,,,,,,,,,,,,,,,,,,,,,,,,,,,,,,,,,,,,,,,,,,,,,,,,,,,,,,,,,,,,,,,,,,,,,,,,,,,,,,,,1,0.945841700071469,75.09116569999605,None,ScrollDown,정답입니다,75.09116569999605,None,75.09116569999605,None,75.09116569999605,None,75.09116569999605,None,75.92014029994607,None,75.92014029994607,76.42010989994742,,,,,,,,,,,,,,,,101,2023-03-27_10h29.07.541,FishGame,2022.1.1,59.887447496818794,
,8,넌 투덜거려,5,Green,B,2.541666666666667,2.266666666666667,ScrollUp,ScrollDown,Green.png,1,Negative,Congruent,0,0,0,0,,,,,,,,,,,,,0,7,7,7,,,,,,,,,,,,,,,,,,,,,,,,,,,,,,,,,,,,,,,,,,,,,,,,,,,,,,,,,,,,,,,,,,,,,,,,,,,,,,,,,,,,,1.9922839502493541,0.9648133001755923,77.05740119982511,None,ScrollUp,정답입니다,77.05740119982511,None,77.05740119982511,None,77.05740119982511,None,77.05740119982511,None,77.90614719991572,None,77.90614719991572,78.40611989982426,,,,,,,,,,,,,,,,101,2023-03-27_10h29.07.541,FishGame,2022.1.1,59.887447496818794,
,9,넌 적극적이야,1,Orange,A,5.708333333333333,5.533333333333333,ScrollDown,ScrollUp,Orange.png,1,Positive,Congruent,0,0,0,0,,,,,,,,,,,,,0,8,8,8,,,,,,,,,,,,,,,,,,,,,,,,,,,,,,,,,,,,,,,,,,,,,,,,,,,,,,,,,,,,,,,,,,,,,,,,,,,,,,,,,,,,,1,1.0124665000475943,79.03405999997631,None,ScrollDown,정답입니다,79.03405999997631,None,79.03405999997631,None,79.03405999997631,None,79.03405999997631,None,79.93952049990185,None,79.93952049990185,80.43944079987705,,,,,,,,,,,,,,,,101,2023-03-27_10h29.07.541,FishGame,2022.1.1,59.887447496818794,
,10,넌 재미없어,4,Green,B,2.625,2.966666666666667,ScrollUp,ScrollDown,Green.png,1,Negative,Congruent,0,0,0,0,,,,,,,,,,,,,0,9,9,9,,,,,,,,,,,,,,,,,,,,,,,,,,,,,,,,,,,,,,,,,,,,,,,,,,,,,,,,,,,,,,,,,,,,,,,,,,,,,,,,,,,,,2,0.9987355000339448,81.0776338998694,None,ScrollUp,정답입니다,81.0776338998694,None,81.0776338998694,None,81.0776338998694,None,81.0776338998694,None,81.96976409992203,None,81.96976409992203,82.4697390999645,,,,,,,,,,,,,,,,101,2023-03-27_10h29.07.541,FishGame,2022.1.1,59.887447496818794,
,11,넌 명석해,2,Orange,A,5.875,4.033333333333333,ScrollDown,ScrollUp,Orange.png,1,Positive,Congruent,0,0,0,0,,,,,,,,,,,,,0,10,10,10,,,,,,,,,,,,,,,,,,,,,,,,,,,,,,,,,,,,,,,,,,,,,,,,,,,,,,,,,,,,,,,,,,,,,,,,,,,,,,,,,,,,,1.0030864079793294,0.8074892999138683,83.09930539992638,None,ScrollDown,정답입니다,83.09930539992638,None,83.09930539992638,None,83.09930539992638,None,83.09930539992638,None,83.78673249995336,None,83.78673249995336,84.28943429980427,,,,,,,,,,,,,,,,101,2023-03-27_10h29.07.541,FishGame,2022.1.1,59.887447496818794,
,12,나를 데려가줘,6,Green,B,0,0,ScrollDown,ScrollUp,Green.png,1,NonTarget,NonTarget,0,0,0,0,,,,,,,,,,,,,0,11,11,11,,,,,,,,,,,,,,,,,,,,,,,,,,,,,,,,,,,,,,,,,,,,,,,,,,,,,,,,,,,,,,,,,,,,,,,,,,,,,,,,,,,,,1.0185184975465138,1.21495379996486,84.9164473998826,None,ScrollDown,정답입니다,84.9164473998826,None,84.9164473998826,None,84.9164473998826,None,84.9164473998826,None,86.02273649978451,None,86.02273649978451,86.52270949981175,,,,,,,,,,,,,,,,101,2023-03-27_10h29.07.541,FishGame,2022.1.1,59.887447496818794,
,13,넌 소심해,4,Orange,A,3,3.1,ScrollDown,ScrollUp,Orange.png,1,Negative,Incongruent,0,0,0,0,,,,,,,,,,,,,0,12,12,12,,,,,,,,,,,,,,,,,,,,,,,,,,,,,,,,,,,,,,,,,,,,,,,,,,,,,,,,,,,,,,,,,,,,,,,,,,,,,,,,,,,,,1,0.9914601999334991,87.1596172999125,None,ScrollDown,정답입니다,87.1596172999125,None,87.1596172999125,None,87.1596172999125,None,87.1596172999125,None,88.03934529982507,None,88.03934529982507,88.53919039992616,,,,,,,,,,,,,,,,101,2023-03-27_10h29.07.541,FishGame,2022.1.1,59.887447496818794,
,14,넌 합리적이야,2,Orange,A,5.583333333333333,4.733333333333333,ScrollDown,ScrollUp,Orange.png,1,Positive,Congruent,0,0,0,0,,,,,,,,,,,,,0,13,13,13,,,,,,,,,,,,,,,,,,,,,,,,,,,,,,,,,,,,,,,,,,,,,,,,,,,,,,,,,,,,,,,,,,,,,,,,,,,,,,,,,,,,,1,1.0290403000544757,89.16835099994205,None,ScrollDown,정답입니다,89.16835099994205,None,89.16835099994205,None,89.16835099994205,None,89.16835099994205,None,90.08654399984516,None,90.08654399984516,90.58920959988609,,,,,,,,,,,,,,,,101,2023-03-27_10h29.07.541,FishGame,2022.1.1,59.887447496818794,
,15,넌 무자비해,5,Green,B,2.333333333333333,2.1,ScrollUp,ScrollDown,Green.png,1,Negative,Congruent,0,0,0,0,,,,,,,,,,,,,0,14,14,14,,,,,,,,,,,,,,,,,,,,,,,,,,,,,,,,,,,,,,,,,,,,,,,,,,,,,,,,,,,,,,,,,,,,,,,,,,,,,,,,,,,,,2,0.8986908001825213,91.21787089994177,None,ScrollUp,정답입니다,91.21787089994177,None,91.21787089994177,None,91.21787089994177,None,91.21787089994177,None,92.00600569997914,None,92.00600569997914,92.50585069996305,,,,,,,,,,,,,,,,101,2023-03-27_10h29.07.541,FishGame,2022.1.1,59.887447496818794,
,16,나를 보내줘,6,Orange,A,0,0,ScrollUp,ScrollDown,Orange.png,1,NonTarget,NonTarget,0,0,0,0,,,,,,,,,,,,,0,15,15,15,,,,,,,,,,,,,,,,,,,,,,,,,,,,,,,,,,,,,,,,,,,,,,,,,,,,,,,,,,,,,,,,,,,,,,,,,,,,,,,,,,,,,1.9706790049870808,1.2620240999385715,93.13628679979593,None,ScrollUp,정답입니다,93.13628679979593,None,93.13628679979593,None,93.13628679979593,None,93.13628679979593,None,94.28913629986346,None,94.28913629986346,94.78916889987886,,,,,,,,,,,,,,,,101,2023-03-27_10h29.07.541,FishGame,2022.1.1,59.887447496818794,
,17,넌 현실적이야,3,Green,B,4.608695652173913,4.766666666666667,ScrollUp,ScrollDown,Green.png,1,Neutral,Neutral,0,0,0,0,,,,,,,,,,,,,0,16,16,16,,,,,,,,,,,,,,,,,,,,,,,,,,,,,,,,,,,,,,,,,,,,,,,,,,,,,,,,,,,,,,,,,,,,,,,,,,,,,,,,,,,,,1.9089506218830745,1.3790986000094563,95.41577779990621,None,ScrollUp,정답입니다,95.41577779990621,None,95.41577779990621,None,95.41577779990621,None,95.41577779990621,None,96.68645059992559,None,96.68645059992559,97.18907989980653,,,,,,,,,,,,,,,,101,2023-03-27_10h29.07.541,FishGame,2022.1.1,59.887447496818794,
,18,넌 의리있어,1,Green,B,5.833333333333334,5.633333333333334,ScrollUp,ScrollDown,Green.png,1,Positive,Incongruent,0,0,0,0,,,,,,,,,,,,,0,17,17,17,,,,,,,,,,,,,,,,,,,,,,,,,,,,,,,,,,,,,,,,,,,,,,,,,,,,,,,,,,,,,,,,,,,,,,,,,,,,,,,,,,,,,2,0.8816704000346363,97.81465159985237,None,ScrollUp,정답입니다,97.81465159985237,None,97.81465159985237,None,97.81465159985237,None,97.81465159985237,None,98.5891122999601,None,98.5891122999601,99.08640249981545,,,,,,,,,,,,,,,,101,2023-03-27_10h29.07.541,FishGame,2022.1.1,59.887447496818794,
,19,넌 신경과민이야,5,Orange,A,2.541666666666667,2.166666666666667,ScrollDown,ScrollUp,Orange.png,1,Negative,Incongruent,0,0,0,0,,,,,,,,,,,,,0,18,18,18,,,,,,,,,,,,,,,,,,,,,,,,,,,,,,,,,,,,,,,,,,,,,,,,,,,,,,,,,,,,,,,,,,,,,,,,,,,,,,,,,,,,,1,0.9292297000065446,99.72282779985107,None,ScrollDown,정답입니다,99.72282779985107,None,99.72282779985107,None,99.72282779985107,None,99.72282779985107,None,100.53909459989518,None,100.53909459989518,101.0390080998186,,,,,,,,,,,,,,,,101,2023-03-27_10h29.07.541,FishGame,2022.1.1,59.887447496818794,
,20,넌 편안해,1,Orange,A,5.916666666666666,5.866666666666666,ScrollDown,ScrollUp,Orange.png,1,Positive,Congruent,0,0,0,0,,,,,,,,,,,,,0,19,19,19,,,,,,,,,,,,,,,,,,,,,,,,,,,,,,,,,,,,,,,,,,,,,,,,,,,,,,,,,,,,,,,,,,,,,,,,,,,,,,,,,,,,,1,0.8124323000665754,101.6674015999306,None,ScrollDown,정답입니다,101.6674015999306,None,101.6674015999306,None,101.6674015999306,None,101.6674015999306,None,102.36961840000004,None,102.36961840000004,102.87232369999401,,,,,,,,,,,,,,,,101,2023-03-27_10h29.07.541,FishGame,2022.1.1,59.887447496818794,
,21,넌 품위있어,2,Green,B,5.291666666666666,4.466666666666667,ScrollUp,ScrollDown,Green.png,1,Positive,Incongruent,0,0,0,0,,,,,,,,,,,,,0,20,20,20,,,,,,,,,,,,,,,,,,,,,,,,,,,,,,,,,,,,,,,,,,,,,,,,,,,,,,,,,,,,,,,,,,,,,,,,,,,,,,,,,,,,,2,0.8793899000156671,103.49914469989017,None,ScrollUp,정답입니다,103.49914469989017,None,103.49914469989017,None,103.49914469989017,None,103.49914469989017,None,104.26958099985495,None,104.26958099985495,104.77226319978945,,,,,,,,,,,,,,,,101,2023-03-27_10h29.07.541,FishGame,2022.1.1,59.887447496818794,
,22,넌 빈틈없어,3,Orange,A,4.833333333333333,3.966666666666667,ScrollDown,ScrollUp,Orange.png,1,Neutral,Neutral,0,0,0,0,,,,,,,,,,,,,0,21,21,21,,,,,,,,,,,,,,,,,,,,,,,,,,,,,,,,,,,,,,,,,,,,,,,,,,,,,,,,,,,,,,,,,,,,,,,,,,,,,,,,,,,,,1,0.8623577998951077,105.40206120000221,None,ScrollDown,정답입니다,105.40206120000221,None,105.40206120000221,None,105.40206120000221,None,105.40206120000221,None,106.15558639983647,None,106.15558639983647,106.65559149999171,,,,,,,,,,,,,,,,101,2023-03-27_10h29.07.541,FishGame,2022.1.1,59.887447496818794,
,23,넌 상상력없어,4,Green,B,2.833333333333333,3.133333333333333,ScrollUp,ScrollDown,Green.png,1,Negative,Congruent,0,0,0,0,,,,,,,,,,,,,0,22,22,22,,,,,,,,,,,,,,,,,,,,,,,,,,,,,,,,,,,,,,,,,,,,,,,,,,,,,,,,,,,,,,,,,,,,,,,,,,,,,,,,,,,,,2,0.9289331999607384,107.28278269991279,None,ScrollUp,정답입니다,107.28278269991279,None,107.28278269991279,None,107.28278269991279,None,107.28278269991279,None,108.10292819980532,None,108.10292819980532,108.60559029993601,,,,,,,,,,,,,,,,101,2023-03-27_10h29.07.541,FishGame,2022.1.1,59.887447496818794,
,24,넌 지혜로워,2,Green,B,6.333333333333334,4.633333333333334,ScrollUp,ScrollDown,Green.png,1,Positive,Incongruent,0,0,0,0,,,,,,,,,,,,,0,23,23,23,,,,,,,,,,,,,,,,,,,,,,,,,,,,,,,,,,,,,,,,,,,,,,,,,,,,,,,,,,,,,,,,,,,,,,,,,,,,,,,,,,,,,2,0.9117648000828922,109.24874049983919,None,ScrollUp,정답입니다,109.24874049983919,None,109.24874049983919,None,109.24874049983919,None,109.24874049983919,None,110.0359388999641,None,110.0359388999641,110.53596839983948,,,,,,,,,,,,,,,,101,2023-03-27_10h29.07.541,FishGame,2022.1.1,59.887447496818794,
,25,넌 시끄러워,4,Orange,A,2.833333333333333,3.033333333333333,ScrollDown,ScrollUp,Orange.png,1,Negative,Incongruent,0,0,0,0,,,,,,,,,,,,,0,24,24,24,,,,,,,,,,,,,,,,,,,,,,,,,,,,,,,,,,,,,,,,,,,,,,,,,,,,,,,,,,,,,,,,,,,,,,,,,,,,,,,,,,,,,1,0.8651803999673575,111.17209429992363,None,ScrollDown,정답입니다,111.17209429992363,None,111.17209429992363,None,111.17209429992363,None,111.17209429992363,None,111.91924569988623,None,111.91924569988623,112.42224819981493,,,,,,,,,,,,,,,,101,2023-03-27_10h29.07.541,FishGame,2022.1.1,59.887447496818794,
,26,넌 만사태평이야,3,Green,B,4,4.333333333333333,ScrollUp,ScrollDown,Green.png,1,Neutral,Neutral,0,0,0,0,,,,,,,,,,,,,0,25,25,25,,,,,,,,,,,,,,,,,,,,,,,,,,,,,,,,,,,,,,,,,,,,,,,,,,,,,,,,,,,,,,,,,,,,,,,,,,,,,,,,,,,,,2,0.8983958000317216,113.05210139998235,None,ScrollUp,정답입니다,113.05210139998235,None,113.05210139998235,None,113.05210139998235,None,113.05210139998235,None,113.83895289991051,None,113.83895289991051,114.33887929981574,,,,,,,,,,,,,,,,101,2023-03-27_10h29.07.541,FishGame,2022.1.1,59.887447496818794,
,27,넌 붙임성있어,1,Orange,A,5.708333333333333,5.633333333333334,ScrollDown,ScrollUp,Orange.png,1,Positive,Congruent,0,0,0,0,,,,,,,,,,,,,0,26,26,26,,,,,,,,,,,,,,,,,,,,,,,,,,,,,,,,,,,,,,,,,,,,,,,,,,,,,,,,,,,,,,,,,,,,,,,,,,,,,,,,,,,,,1,0.9956276000011712,114.97082219994627,None,ScrollDown,정답입니다,114.97082219994627,None,114.97082219994627,None,114.97082219994627,None,114.97082219994627,None,115.85272539989091,None,115.85272539989091,116.35539459995925,,,,,,,,,,,,,,,,101,2023-03-27_10h29.07.541,FishGame,2022.1.1,59.887447496818794,
,28,넌 영리해,2,Orange,A,6,4.033333333333333,ScrollDown,ScrollUp,Orange.png,1,Positive,Congruent,0,0,0,0,,,,,,,,,,,,,0,27,27,27,,,,,,,,,,,,,,,,,,,,,,,,,,,,,,,,,,,,,,,,,,,,,,,,,,,,,,,,,,,,,,,,,,,,,,,,,,,,,,,,,,,,,1,0.8456733000930399,116.98280099988915,None,ScrollDown,정답입니다,116.98280099988915,None,116.98280099988915,None,116.98280099988915,None,116.98280099988915,None,117.7220890999306,None,117.7220890999306,118.22202909993939,,,,,,,,,,,,,,,,101,2023-03-27_10h29.07.541,FishGame,2022.1.1,59.887447496818794,
,29,넌 열심이야,1,Green,B,6.041666666666667,5.833333333333333,ScrollUp,ScrollDown,Green.png,1,Positive,Incongruent,0,0,0,0,,,,,,,,,,,,,0,28,28,28,,,,,,,,,,,,,,,,,,,,,,,,,,,,,,,,,,,,,,,,,,,,,,,,,,,,,,,,,,,,,,,,,,,,,,,,,,,,,,,,,,,,,2,0.8626502000261098,118.84851149981841,None,ScrollUp,정답입니다,118.84851149981841,None,118.84851149981841,None,118.84851149981841,None,118.84851149981841,None,119.60535039985552,None,119.60535039985552,120.1053390998859,,,,,,,,,,,,,,,,101,2023-03-27_10h29.07.541,FishGame,2022.1.1,59.887447496818794,
,30,넌 인기없어,4,Green,B,3,3.3,ScrollUp,ScrollDown,Green.png,1,Negative,Congruent,0,0,0,0,,,,,,,,,,,,,0,29,29,29,,,,,,,,,,,,,,,,,,,,,,,,,,,,,,,,,,,,,,,,,,,,,,,,,,,,,,,,,,,,,,,,,,,,,,,,,,,,,,,,,,,,,2,0.8815799001604319,120.73133009998128,None,ScrollUp,정답입니다,120.73133009998128,None,120.73133009998128,None,120.73133009998128,None,120.73133009998128,None,121.50278389989398,None,121.50278389989398,122.0053899998311,,,,,,,,,,,,,,,,101,2023-03-27_10h29.07.541,FishGame,2022.1.1,59.887447496818794,
,31,넌 익살스러워,3,Orange,A,4.708333333333334,4.833333333333333,ScrollDown,ScrollUp,Orange.png,1,Neutral,Neutral,0,0,0,0,,,,,,,,,,,,,0,30,30,30,,,,,,,,,,,,,,,,,,,,,,,,,,,,,,,,,,,,,,,,,,,,,,,,,,,,,,,,,,,,,,,,,,,,,,,,,,,,,,,,,,,,,1,0.8957056999206543,122.63605629978701,None,ScrollDown,정답입니다,122.63605629978701,None,122.63605629978701,None,122.63605629978701,None,122.63605629978701,None,123.41926789982244,None,123.41926789982244,123.92192019987851,,,,,,,,,,,,,,,,101,2023-03-27_10h29.07.541,FishGame,2022.1.1,59.887447496818794,
,32,넌 이기적이야,5,Green,B,2.291666666666667,2.333333333333333,ScrollUp,ScrollDown,Green.png,1,Negative,Congruent,0,0,0,0,,,,,,,,,,,,,0,31,31,31,,,,,,,,,,,,,,,,,,,,,,,,,,,,,,,,,,,,,,,,,,,,,,,,,,,,,,,,,,,,,,,,,,,,,,,,,,,,,,,,,,,,,1.9722222189108531,0.7957872999832034,124.544272699859,None,ScrollUp,정답입니다,124.544272699859,None,124.544272699859,None,124.544272699859,None,124.544272699859,None,125.23590339999646,None,125.23590339999646,125.73855679994449,,,,,,,,,,,,,,,,101,2023-03-27_10h29.07.541,FishGame,2022.1.1,59.887447496818794,
,33,나를 데려가줘,6,Green,B,0,0,ScrollDown,ScrollUp,Green.png,1,NonTarget,NonTarget,0,0,0,0,,,,,,,,,,,,,0,32,32,32,,,,,,,,,,,,,,,,,,,,,,,,,,,,,,,,,,,,,,,,,,,,,,,,,,,,,,,,,,,,,,,,,,,,,,,,,,,,,,,,,,,,,2,0.9121296999510378,126.36130679980852,None,ScrollUp,오답입니다,126.36130679980852,None,126.36130679980852,None,126.36130679980852,None,126.36130679980852,None,127.16919970000163,None,127.16919970000163,127.6718883998692,,,,,,,,,,,,,,,,101,2023-03-27_10h29.07.541,FishGame,2022.1.1,59.887447496818794,
,34,넌 기회주의자야,5,Orange,A,2.875,2.133333333333333,ScrollDown,ScrollUp,Orange.png,1,Negative,Incongruent,0,0,0,0,,,,,,,,,,,,,0,33,33,33,,,,,,,,,,,,,,,,,,,,,,,,,,,,,,,,,,,,,,,,,,,,,,,,,,,,,,,,,,,,,,,,,,,,,,,,,,,,,,,,,,,,,1,0.9290474001318216,128.30898809991777,None,ScrollDown,정답입니다,128.30898809991777,None,128.30898809991777,None,128.30898809991777,None,128.30898809991777,None,129.11918919999152,None,129.11918919999152,129.62195289996453,,,,,,,,,,,,,,,,101,2023-03-27_10h29.07.541,FishGame,2022.1.1,59.887447496818794,
,1,넌 미성숙해,4,Orange,A,3,3.2,ScrollDown,ScrollUp,Orange.png,2,Negative,Incongruent,0,0,0,0,,,,,,,,,,,,,,,,,0,0,0,0,,,,,,,,,,,,,,,,,,,,,,,,,,,,,,,,,,,,,,,,161.63497189991176,163.1351569998078,163.16831249999814,164.12147279991768,164.1548825998325,165.1048329998739,165.1048329998739,None,,,,,,,,,,,,,,,,,,,,,,,,,,,,,,,,,,1,1.1395064000971615,166.2150676997844,None,ScrollDown,정답입니다,166.2150676997844,None,166.2150676997844,None,166.2150676997844,None,166.2150676997844,None,167.23511409992352,None,167.23511409992352,167.73536829999648,130.1219492999371,None,130.1219492999371,None,0.026851851,-0.083333336,1,0,0,0.01608970994129777,None,160.1213958999142,None,,,101,2023-03-27_10h29.07.541,FishGame,2022.1.1,59.887447496818794,
,2,넌 반사회적이야,5,Green,B,2.416666666666667,2.033333333333333,ScrollUp,ScrollDown,Green.png,2,Negative,Congruent,0,0,0,0,,,,,,,,,,,,,,,,,0,1,1,1,,,,,,,,,,,,,,,,,,,,,,,,,,,,,,,,,,,,,,,,,,,,,,,,,,,,,,,,,,,,,,,,,,,,,,,,,,,,,,,,,2,0.9621495001483709,168.36434319987893,None,ScrollUp,정답입니다,168.36434319987893,None,168.36434319987893,None,168.36434319987893,None,168.36434319987893,None,169.21845539985225,None,169.21845539985225,169.7211374999024,,,,,,,,,,,,,,,,101,2023-03-27_10h29.07.541,FishGame,2022.1.1,59.887447496818794,
,3,넌 유능해,2,Orange,A,6.208333333333333,4.433333333333334,ScrollDown,ScrollUp,Orange.png,2,Positive,Congruent,0,0,0,0,,,,,,,,,,,,,,,,,0,2,2,2,,,,,,,,,,,,,,,,,,,,,,,,,,,,,,,,,,,,,,,,,,,,,,,,,,,,,,,,,,,,,,,,,,,,,,,,,,,,,,,,,1,0.9485814000945538,170.35080349980853,None,ScrollDown,정답입니다,170.35080349980853,None,170.35080349980853,None,170.35080349980853,None,170.35080349980853,None,171.18781569995917,None,171.18781569995917,171.68782250001095,,,,,,,,,,,,,,,,101,2023-03-27_10h29.07.541,FishGame,2022.1.1,59.887447496818794,
,4,넌 능숙해,2,Green,B,5.666666666666667,4.733333333333333,ScrollUp,ScrollDown,Green.png,2,Positive,Incongruent,0,0,0,0,,,,,,,,,,,,,,,,,0,3,3,3,,,,,,,,,,,,,,,,,,,,,,,,,,,,,,,,,,,,,,,,,,,,,,,,,,,,,,,,,,,,,,,,,,,,,,,,,,,,,,,,,2,0.9958500999491662,172.31048459978774,None,ScrollUp,정답입니다,172.31048459978774,None,172.31048459978774,None,172.31048459978774,None,172.31048459978774,None,173.2016654999461,None,173.2016654999461,173.70432529994287,,,,,,,,,,,,,,,,101,2023-03-27_10h29.07.541,FishGame,2022.1.1,59.887447496818794,
,5,넌 진부해,4,Green,B,2.458333333333333,3.166666666666667,ScrollUp,ScrollDown,Green.png,2,Negative,Congruent,0,0,0,0,,,,,,,,,,,,,,,,,0,4,4,4,,,,,,,,,,,,,,,,,,,,,,,,,,,,,,,,,,,,,,,,,,,,,,,,,,,,,,,,,,,,,,,,,,,,,,,,,,,,,,,,,2,0.9621278999838978,174.33067589998245,None,ScrollUp,정답입니다,174.33067589998245,None,174.33067589998245,None,174.33067589998245,None,174.33067589998245,None,175.1849988999311,None,175.1849988999311,175.6876605998259,,,,,,,,,,,,,,,,101,2023-03-27_10h29.07.541,FishGame,2022.1.1,59.887447496818794,
,6,나를 보내줘,6,Orange,A,0,0,ScrollUp,ScrollDown,Orange.png,2,NonTarget,NonTarget,0,0,0,0,,,,,,,,,,,,,,,,,0,5,5,5,,,,,,,,,,,,,,,,,,,,,,,,,,,,,,,,,,,,,,,,,,,,,,,,,,,,,,,,,,,,,,,,,,,,,,,,,,,,,,,,,2,1.1624959998298436,176.31230069999583,None,ScrollUp,정답입니다,176.31230069999583,None,176.31230069999583,None,176.31230069999583,None,176.31230069999583,None,177.37094399984926,None,177.37094399984926,177.87099009985104,,,,,,,,,,,,,,,,101,2023-03-27_10h29.07.541,FishGame,2022.1.1,59.887447496818794,
,7,넌 엄격해,3,Orange,A,4.166666666666666,4.1,ScrollDown,ScrollUp,Orange.png,2,Neutral,Neutral,0,0,0,0,,,,,,,,,,,,,,,,,0,6,6,6,,,,,,,,,,,,,,,,,,,,,,,,,,,,,,,,,,,,,,,,,,,,,,,,,,,,,,,,,,,,,,,,,,,,,,,,,,,,,,,,,1,0.9292621999047697,178.50026289978996,None,ScrollDown,정답입니다,178.50026289978996,None,178.50026289978996,None,178.50026289978996,None,178.50026289978996,None,179.32102479995228,None,179.32102479995228,179.84251779993065,,,,,,,,,,,,,,,,101,2023-03-27_10h29.07.541,FishGame,2022.1.1,59.887447496818794,
,8,나를 보내줘,6,Orange,A,0,0,ScrollUp,ScrollDown,Orange.png,2,NonTarget,NonTarget,0,0,0,0,,,,,,,,,,,,,,,,,0,7,7,7,,,,,,,,,,,,,,,,,,,,,,,,,,,,,,,,,,,,,,,,,,,,,,,,,,,,,,,,,,,,,,,,,,,,,,,,,,,,,,,,,2,0.9650853998027742,180.4565663000103,None,ScrollUp,정답입니다,180.4565663000103,None,180.4565663000103,None,180.4565663000103,None,180.4565663000103,None,181.31795239984058,None,181.31795239984058,181.8183810999617,,,,,,,,,,,,,,,,101,2023-03-27_10h29.07.541,FishGame,2022.1.1,59.887447496818794,
,9,넌 대담해,3,Green,B,4.875,4.866666666666666,ScrollUp,ScrollDown,Green.png,2,Neutral,Neutral,0,0,0,0,,,,,,,,,,,,,,,,,0,8,8,8,,,,,,,,,,,,,,,,,,,,,,,,,,,,,,,,,,,,,,,,,,,,,,,,,,,,,,,,,,,,,,,,,,,,,,,,,,,,,,,,,2,0.8803121000528336,182.44443659996614,None,ScrollUp,정답입니다,182.44443659996614,None,182.44443659996614,None,182.44443659996614,None,182.44443659996614,None,183.2179455999285,None,183.2179455999285,183.71795429987833,,,,,,,,,,,,,,,,101,2023-03-27_10h29.07.541,FishGame,2022.1.1,59.887447496818794,
,10,넌 꾸준해,1,Orange,A,5.916666666666668,5.8,ScrollDown,ScrollUp,Orange.png,2,Positive,Congruent,0,0,0,0,,,,,,,,,,,,,,,,,0,9,9,9,,,,,,,,,,,,,,,,,,,,,,,,,,,,,,,,,,,,,,,,,,,,,,,,,,,,,,,,,,,,,,,,,,,,,,,,,,,,,,,,,1,0.9844239999074489,184.35518199997023,None,ScrollDown,정답입니다,184.35518199997023,None,184.35518199997023,None,184.35518199997023,None,184.35518199997023,None,185.2209131999407,None,185.2209131999407,185.7209206998814,,,,,,,,,,,,,,,,101,2023-03-27_10h29.07.541,FishGame,2022.1.1,59.887447496818794,
,11,나를 데려가줘,6,Green,B,0,0,ScrollDown,ScrollUp,Green.png,2,NonTarget,NonTarget,0,0,0,0,,,,,,,,,,,,,,,,,0,10,10,10,,,,,,,,,,,,,,,,,,,,,,,,,,,,,,,,,,,,,,,,,,,,,,,,,,,,,,,,,,,,,,,,,,,,,,,,,,,,,,,,,1.0771604776382446,1.1459263998549432,186.34416629979387,None,ScrollDown,정답입니다,186.34416629979387,None,186.34416629979387,None,186.34416629979387,None,186.34416629979387,None,187.3874997999519,None,187.3874997999519,187.88749859994277,,,,,,,,,,,,,,,,101,2023-03-27_10h29.07.541,FishGame,2022.1.1,59.887447496818794,
,12,넌 독선적이야,5,Orange,A,2.458333333333333,1.933333333333333,ScrollDown,ScrollUp,Orange.png,2,Negative,Incongruent,0,0,0,0,,,,,,,,,,,,,,,,,0,11,11,11,,,,,,,,,,,,,,,,,,,,,,,,,,,,,,,,,,,,,,,,,,,,,,,,,,,,,,,,,,,,,,,,,,,,,,,,,,,,,,,,,1.0108024775981903,0.9910534000955522,188.52831279998645,None,ScrollDown,정답입니다,188.52831279998645,None,188.52831279998645,None,188.52831279998645,None,188.52831279998645,None,189.4011266999878,None,189.4011266999878,189.90109529998153,,,,,,,,,,,,,,,,101,2023-03-27_10h29.07.541,FishGame,2022.1.1,59.887447496818794,
,13,나를 보내줘,6,Orange,A,0,0,ScrollUp,ScrollDown,Orange.png,2,NonTarget,NonTarget,0,0,0,0,,,,,,,,,,,,,,,,,0,12,12,12,,,,,,,,,,,,,,,,,,,,,,,,,,,,,,,,,,,,,,,,,,,,,,,,,,,,,,,,,,,,,,,,,,,,,,,,,,,,,,,,,2,1.065007400000468,190.5291343999561,None,ScrollUp,정답입니다,190.5291343999561,None,190.5291343999561,None,190.5291343999561,None,190.5291343999561,None,191.48444989998825,None,191.48444989998825,191.98743949993514,,,,,,,,,,,,,,,,101,2023-03-27_10h29.07.541,FishGame,2022.1.1,59.887447496818794,
,14,넌 책임감있어,1,Green,B,6.347826086956522,6,ScrollUp,ScrollDown,Green.png,2,Positive,Incongruent,0,0,0,0,,,,,,,,,,,,,,,,,0,13,13,13,,,,,,,,,,,,,,,,,,,,,,,,,,,,,,,,,,,,,,,,,,,,,,,,,,,,,,,,,,,,,,,,,,,,,,,,,,,,,,,,,2,1.5319980001077056,192.61448099999689,None,ScrollUp,정답입니다,192.61448099999689,None,192.61448099999689,None,192.61448099999689,None,192.61448099999689,None,194.03747579990886,None,194.03747579990886,194.5374068999663,,,,,,,,,,,,,,,,101,2023-03-27_10h29.07.541,FishGame,2022.1.1,59.887447496818794,
,15,넌 문학적이야,3,Orange,A,4.708333333333334,4.333333333333333,ScrollDown,ScrollUp,Orange.png,2,Neutral,Neutral,0,0,0,0,,,,,,,,,,,,,,,,,0,14,14,14,,,,,,,,,,,,,,,,,,,,,,,,,,,,,,,,,,,,,,,,,,,,,,,,,,,,,,,,,,,,,,,,,,,,,,,,,,,,,,,,,1,0.9414387000724673,195.1782227999065,None,ScrollDown,정답입니다,195.1782227999065,None,195.1782227999065,None,195.1782227999065,None,195.1782227999065,None,196.00124319992028,None,196.00124319992028,196.503918599803,,,,,,,,,,,,,,,,101,2023-03-27_10h29.07.541,FishGame,2022.1.1,59.887447496818794,
,16,넌 재미있어,1,Green,B,5.875,5.7,ScrollUp,ScrollDown,Green.png,2,Positive,Incongruent,0,0,0,0,,,,,,,,,,,,,,,,,0,15,15,15,,,,,,,,,,,,,,,,,,,,,,,,,,,,,,,,,,,,,,,,,,,,,,,,,,,,,,,,,,,,,,,,,,,,,,,,,,,,,,,,,1.9459876318772633,0.8789685999508947,197.12636569980532,None,ScrollUp,정답입니다,197.12636569980532,None,197.12636569980532,None,197.12636569980532,None,197.12636569980532,None,197.90126629988663,None,197.90126629988663,198.40123029984534,,,,,,,,,,,,,,,,101,2023-03-27_10h29.07.541,FishGame,2022.1.1,59.887447496818794,
,17,나를 데려가줘,6,Green,B,0,0,ScrollDown,ScrollUp,Green.png,2,NonTarget,NonTarget,0,0,0,0,,,,,,,,,,,,,,,,,0,16,16,16,,,,,,,,,,,,,,,,,,,,,,,,,,,,,,,,,,,,,,,,,,,,,,,,,,,,,,,,,,,,,,,,,,,,,,,,,,,,,,,,,1.1141975373029709,1.195858099963516,199.0270465000067,None,ScrollDown,정답입니다,199.0270465000067,None,199.0270465000067,None,199.0270465000067,None,199.0270465000067,None,200.12065029982477,None,200.12065029982477,200.63719079992734,,,,,,,,,,,,,,,,101,2023-03-27_10h29.07.541,FishGame,2022.1.1,59.887447496818794,
,18,넌 협력적이야,1,Orange,A,5.625,5.633333333333334,ScrollDown,ScrollUp,Orange.png,2,Positive,Congruent,0,0,0,0,,,,,,,,,,,,,,,,,0,17,17,17,,,,,,,,,,,,,,,,,,,,,,,,,,,,,,,,,,,,,,,,,,,,,,,,,,,,,,,,,,,,,,,,,,,,,,,,,,,,,,,,,1,0.7125468999147415,201.2655605999753,None,ScrollDown,정답입니다,201.2655605999753,None,201.2655605999753,None,201.2655605999753,None,201.2655605999753,None,201.86789409979247,None,201.86789409979247,202.37053379998542,,,,,,,,,,,,,,,,101,2023-03-27_10h29.07.541,FishGame,2022.1.1,59.887447496818794,
,19,넌 평범해,3,Green,B,4.333333333333332,4.233333333333333,ScrollUp,ScrollDown,Green.png,2,Neutral,Neutral,0,0,0,0,,,,,,,,,,,,,,,,,0,18,18,18,,,,,,,,,,,,,,,,,,,,,,,,,,,,,,,,,,,,,,,,,,,,,,,,,,,,,,,,,,,,,,,,,,,,,,,,,,,,,,,,,1.9089506218830745,1.3473103998694569,203.0005887998268,None,ScrollUp,정답입니다,203.0005887998268,None,203.0005887998268,None,203.0005887998268,None,203.0005887998268,None,204.23418749985285,None,204.23418749985285,204.73415849986486,,,,,,,,,,,,,,,,101,2023-03-27_10h29.07.541,FishGame,2022.1.1,59.887447496818794,
,20,넌 오만해,5,Orange,A,2.333333333333333,2,ScrollDown,ScrollUp,Orange.png,2,Negative,Incongruent,0,0,0,0,,,,,,,,,,,,,,,,,0,19,19,19,,,,,,,,,,,,,,,,,,,,,,,,,,,,,,,,,,,,,,,,,,,,,,,,,,,,,,,,,,,,,,,,,,,,,,,,,,,,,,,,,1.0277777810891469,0.8181181999389082,205.36168370000087,None,ScrollDown,정답입니다,205.36168370000087,None,205.36168370000087,None,205.36168370000087,None,205.36168370000087,None,206.06782619981095,None,206.06782619981095,206.57053049979731,,,,,,,,,,,,,,,,101,2023-03-27_10h29.07.541,FishGame,2022.1.1,59.887447496818794,
,21,넌 운이없어,4,Green,B,3,3.466666666666667,ScrollUp,ScrollDown,Green.png,2,Negative,Congruent,0,0,0,0,,,,,,,,,,,,,,,,,0,20,20,20,,,,,,,,,,,,,,,,,,,,,,,,,,,,,,,,,,,,,,,,,,,,,,,,,,,,,,,,,,,,,,,,,,,,,,,,,,,,,,,,,2,0.845729700056836,207.19708149996586,None,ScrollUp,정답입니다,207.19708149996586,None,207.19708149996586,None,207.19708149996586,None,207.19708149996586,None,207.9371571999509,None,207.9371571999509,208.4371511999052,,,,,,,,,,,,,,,,101,2023-03-27_10h29.07.541,FishGame,2022.1.1,59.887447496818794,
,22,넌 창조적이야,2,Green,B,6.125,4.633333333333334,ScrollUp,ScrollDown,Green.png,2,Positive,Incongruent,0,0,0,0,,,,,,,,,,,,,,,,,0,21,21,21,,,,,,,,,,,,,,,,,,,,,,,,,,,,,,,,,,,,,,,,,,,,,,,,,,,,,,,,,,,,,,,,,,,,,,,,,,,,,,,,,2,0.7790327998809516,209.0655060999561,None,ScrollUp,정답입니다,209.0655060999561,None,209.0655060999561,None,209.0655060999561,None,209.0655060999561,None,209.73408249998465,None,209.73408249998465,210.23429879988544,,,,,,,,,,,,,,,,101,2023-03-27_10h29.07.541,FishGame,2022.1.1,59.887447496818794,
,23,나를 보내줘,6,Orange,A,0,0,ScrollUp,ScrollDown,Orange.png,2,NonTarget,NonTarget,0,0,0,0,,,,,,,,,,,,,,,,,0,22,22,22,,,,,,,,,,,,,,,,,,,,,,,,,,,,,,,,,,,,,,,,,,,,,,,,,,,,,,,,,,,,,,,,,,,,,,,,,,,,,,,,,2,1.451347100082785,210.85708169988357,None,ScrollUp,정답입니다,210.85708169988357,None,210.85708169988357,None,210.85708169988357,None,210.85708169988357,None,212.20111229992472,None,212.20111229992472,212.70374709996395,,,,,,,,,,,,,,,,101,2023-03-27_10h29.07.541,FishGame,2022.1.1,59.887447496818794,
,24,넌 통찰력있어,2,Orange,A,6.5,4.8,ScrollDown,ScrollUp,Orange.png,2,Positive,Congruent,0,0,0,0,,,,,,,,,,,,,,,,,0,23,23,23,,,,,,,,,,,,,,,,,,,,,,,,,,,,,,,,,,,,,,,,,,,,,,,,,,,,,,,,,,,,,,,,,,,,,,,,,,,,,,,,,1.0308642089366913,0.8981723000761122,213.33383139991201,None,ScrollDown,정답입니다,213.33383139991201,None,213.33383139991201,None,213.33383139991201,None,213.33383139991201,None,214.11766369990073,None,214.11766369990073,214.62033169995993,,,,,,,,,,,,,,,,101,2023-03-27_10h29.07.541,FishGame,2022.1.1,59.887447496818794,
,25,넌 경솔해,5,Green,B,2.458333333333333,2.266666666666667,ScrollUp,ScrollDown,Green.png,2,Negative,Congruent,0,0,0,0,,,,,,,,,,,,,,,,,0,24,24,24,,,,,,,,,,,,,,,,,,,,,,,,,,,,,,,,,,,,,,,,,,,,,,,,,,,,,,,,,,,,,,,,,,,,,,,,,,,,,,,,,2,0.7956199001055211,215.24638289981522,None,ScrollUp,정답입니다,215.24638289981522,None,215.24638289981522,None,215.24638289981522,None,215.24638289981522,None,215.9342094999738,None,215.9342094999738,216.43693139986135,,,,,,,,,,,,,,,,101,2023-03-27_10h29.07.541,FishGame,2022.1.1,59.887447496818794,
,26,넌 초조해,4,Orange,A,2.916666666666667,3.133333333333333,ScrollDown,ScrollUp,Orange.png,2,Negative,Incongruent,0,0,0,0,,,,,,,,,,,,,,,,,0,25,25,25,,,,,,,,,,,,,,,,,,,,,,,,,,,,,,,,,,,,,,,,,,,,,,,,,,,,,,,,,,,,,,,,,,,,,,,,,,,,,,,,,1,0.8458612998947501,217.06666419981048,None,ScrollDown,정답입니다,217.06666419981048,None,217.06666419981048,None,217.06666419981048,None,217.06666419981048,None,217.80084059992805,None,217.80084059992805,218.30353939998895,,,,,,,,,,,,,,,,101,2023-03-27_10h29.07.541,FishGame,2022.1.1,59.887447496818794,
,27,넌 무관심해,4,Green,B,2.833333333333333,2.9,ScrollUp,ScrollDown,Green.png,2,Negative,Congruent,0,0,0,0,,,,,,,,,,,,,,,,,0,26,26,26,,,,,,,,,,,,,,,,,,,,,,,,,,,,,,,,,,,,,,,,,,,,,,,,,,,,,,,,,,,,,,,,,,,,,,,,,,,,,,,,,1.9351851840813954,0.8292058000806719,218.92956809978932,None,ScrollUp,정답입니다,218.92956809978932,None,218.92956809978932,None,218.92956809978932,None,218.92956809978932,None,219.65081289992668,None,219.65081289992668,220.15350549994037,,,,,,,,,,,,,,,,101,2023-03-27_10h29.07.541,FishGame,2022.1.1,59.887447496818794,
,28,넌 감성적이야,3,Green,B,4.125,4.166666666666667,ScrollUp,ScrollDown,Green.png,2,Neutral,Neutral,0,0,0,0,,,,,,,,,,,,,,,,,0,27,27,27,,,,,,,,,,,,,,,,,,,,,,,,,,,,,,,,,,,,,,,,,,,,,,,,,,,,,,,,,,,,,,,,,,,,,,,,,,,,,,,,,1.7500000099341075,0.781554999994114,220.77795799984597,None,ScrollUp,정답입니다,220.77795799984597,None,220.77795799984597,None,220.77795799984597,None,220.77795799984597,None,221.45353339985013,None,221.45353339985013,221.95081639988348,,,,,,,,,,,,,,,,101,2023-03-27_10h29.07.541,FishGame,2022.1.1,59.887447496818794,
,29,넌 배려심있어,1,Orange,A,6.083333333333333,5.5,ScrollDown,ScrollUp,Orange.png,2,Positive,Congruent,0,0,0,0,,,,,,,,,,,,,,,,,0,28,28,28,,,,,,,,,,,,,,,,,,,,,,,,,,,,,,,,,,,,,,,,,,,,,,,,,,,,,,,,,,,,,,,,,,,,,,,,,,,,,,,,,1.1712963034709294,0.7973553999327123,222.5820094998926,None,ScrollDown,정답입니다,222.5820094998926,None,222.5820094998926,None,222.5820094998926,None,222.5820094998926,None,223.26749389991164,None,223.26749389991164,223.767486799974,,,,,,,,,,,,,,,,101,2023-03-27_10h29.07.541,FishGame,2022.1.1,59.887447496818794,
,30,넌 숨김없어,3,Orange,A,4.5,4.933333333333334,ScrollDown,ScrollUp,Orange.png,2,Neutral,Neutral,0,0,0,0,,,,,,,,,,,,,,,,,0,29,29,29,,,,,,,,,,,,,,,,,,,,,,,,,,,,,,,,,,,,,,,,,,,,,,,,,,,,,,,,,,,,,,,,,,,,,,,,,,,,,,,,,1.1558641890684764,0.9912435999140143,224.4076858998742,None,ScrollDown,정답입니다,224.4076858998742,None,224.4076858998742,None,224.4076858998742,None,224.4076858998742,None,225.28676639986224,None,225.28676639986224,225.7867154998239,,,,,,,,,,,,,,,,101,2023-03-27_10h29.07.541,FishGame,2022.1.1,59.887447496818794,
,31,넌 훌륭해,2,Green,B,5.916666666666667,4.033333333333333,ScrollUp,ScrollDown,Green.png,2,Positive,Incongruent,0,0,0,0,,,,,,,,,,,,,,,,,0,30,30,30,,,,,,,,,,,,,,,,,,,,,,,,,,,,,,,,,,,,,,,,,,,,,,,,,,,,,,,,,,,,,,,,,,,,,,,,,,,,,,,,,1.8441358109315236,0.7957635000348091,226.41415570001118,None,ScrollUp,정답입니다,226.41415570001118,None,226.41415570001118,None,226.41415570001118,None,226.41415570001118,None,227.10341709991917,None,227.10341709991917,227.60339189996012,,,,,,,,,,,,,,,,101,2023-03-27_10h29.07.541,FishGame,2022.1.1,59.887447496818794,
,32,넌 슬기로워,2,Orange,A,6.166666666666667,4.1,ScrollDown,ScrollUp,Orange.png,2,Positive,Congruent,0,0,0,0,,,,,,,,,,,,,,,,,0,31,31,31,,,,,,,,,,,,,,,,,,,,,,,,,,,,,,,,,,,,,,,,,,,,,,,,,,,,,,,,,,,,,,,,,,,,,,,,,,,,,,,,,1.200617293516795,0.7456451000180095,228.23168899980374,None,ScrollDown,정답입니다,228.23168899980374,None,228.23168899980374,None,228.23168899980374,None,228.23168899980374,None,228.8674528999254,None,228.8674528999254,229.37442529993132,,,,,,,,,,,,,,,,101,2023-03-27_10h29.07.541,FishGame,2022.1.1,59.887447496818794,
,33,넌 냉혹해,5,Orange,A,2.583333333333333,2.1,ScrollDown,ScrollUp,Orange.png,2,Negative,Incongruent,0,0,0,0,,,,,,,,,,,,,,,,,0,32,32,32,,,,,,,,,,,,,,,,,,,,,,,,,,,,,,,,,,,,,,,,,,,,,,,,,,,,,,,,,,,,,,,,,,,,,,,,,,,,,,,,,1,0.8481658999808133,229.99441489996389,None,ScrollDown,정답입니다,229.99441489996389,None,229.99441489996389,None,229.99441489996389,None,229.99441489996389,None,230.73371359985322,None,230.73371359985322,231.23417249997146,,,,,,,,,,,,,,,,101,2023-03-27_10h29.07.541,FishGame,2022.1.1,59.887447496818794,
,34,나를 데려가줘,6,Green,B,0,0,ScrollDown,ScrollUp,Green.png,2,NonTarget,NonTarget,0,0,0,0,,,,,,,,,,,,,,,,,0,33,33,33,,,,,,,,,,,,,,,,,,,,,,,,,,,,,,,,,,,,,,,,,,,,,,,,,,,,,,,,,,,,,,,,,,,,,,,,,,,,,,,,,1.9151234527428944,0.9317652999889106,231.8575867000036,None,ScrollUp,오답입니다,231.8575867000036,None,231.8575867000036,None,231.8575867000036,None,231.8575867000036,None,232.68374849995598,None,232.68374849995598,233.18370539997704,,,,,,,,,,,,,,,,101,2023-03-27_10h29.07.541,FishGame,2022.1.1,59.887447496818794,
,35,넌 편파적이야,5,Green,B,2.125,2,ScrollUp,ScrollDown,Green.png,2,Negative,Congruent,0,0,0,0,,,,,,,,,,,,,,,,,0,34,34,34,,,,,,,,,,,,,,,,,,,,,,,,,,,,,,,,,,,,,,,,,,,,,,,,,,,,,,,,,,,,,,,,,,,,,,,,,,,,,,,,,1.8472222139437993,0.82903190003708,233.81358389998786,None,ScrollUp,정답입니다,233.81358389998786,None,233.81358389998786,None,233.81358389998786,None,233.81358389998786,None,234.53404219984077,None,234.53404219984077,235.03672059997916,,,,,,,,,,,,,,,,101,2023-03-27_10h29.07.541,FishGame,2022.1.1,59.887447496818794,
,36,넌 슬퍼,4,Orange,A,2.583333333333333,3.066666666666667,ScrollDown,ScrollUp,Orange.png,2,Negative,Incongruent,0,0,0,0,,,,,,,,,,,,,,,,,0,35,35,35,,,,,,,,,,,,,,,,,,,,,,,,,,,,,,,,,,,,,,,,,,,,,,,,,,,,,,,,,,,,,,,,,,,,,,,,,,,,,,,,,1.1049382785956066,0.7821678998880088,235.6614210999105,None,ScrollDown,정답입니다,235.6614210999105,None,235.6614210999105,None,235.6614210999105,None,235.6614210999105,None,236.33666689996608,None,236.33666689996608,236.8502594998572,,,,,,,,,,,,,,,,101,2023-03-27_10h29.07.541,FishGame,2022.1.1,59.887447496818794,
,37,나를 데려가줘,6,Green,B,0,0,ScrollDown,ScrollUp,Green.png,2,NonTarget,NonTarget,0,0,0,0,,,,,,,,,,,,,,,,,0,36,36,36,,,,,,,,,,,,,,,,,,,,,,,,,,,,,,,,,,,,,,,,,,,,,,,,,,,,,,,,,,,,,,,,,,,,,,,,,,,,,,,,,1.0416666567325592,1.0991532998159528,237.47101199999452,None,ScrollDown,정답입니다,237.47101199999452,None,237.47101199999452,None,237.47101199999452,None,237.47101199999452,None,238.4668987998739,None,238.4668987998739,238.96694039995782,,,,,,,,,,,,,,,,101,2023-03-27_10h29.07.541,FishGame,2022.1.1,59.887447496818794,
,38,넌 친절해,1,Green,B,6.041666666666667,5.533333333333333,ScrollUp,ScrollDown,Green.png,2,Positive,Incongruent,0,0,0,0,,,,,,,,,,,,,,,,,0,37,37,37,,,,,,,,,,,,,,,,,,,,,,,,,,,,,,,,,,,,,,,,,,,,,,,,,,,,,,,,,,,,,,,,,,,,,,,,,,,,,,,,,2,0.8484789000358433,239.5974390998017,None,ScrollUp,정답입니다,239.5974390998017,None,239.5974390998017,None,239.5974390998017,None,239.5974390998017,None,240.33387109986506,None,240.33387109986506,240.836559999967,,,,,,,,,,,,,,,,101,2023-03-27_10h29.07.541,FishGame,2022.1.1,59.887447496818794,
,1,넌 엉성해,4,Orange,A,3,3.3,ScrollDown,ScrollUp,Orange.png,3,Negative,Incongruent,0,0,0,0,,,,,,,,,,,,,,,,,,,,,0,0,0,0,,,,,,,,,,,,,,,,,,,,,,,,,,,,,,,,,,,,272.85702589992434,274.3693200999405,274.38600499997847,275.33599689998664,275.3859885998536,276.3359803999774,276.3359803999774,None,,,,,,,,,,,,,,,,,,,,,,,,,,,,,,,,,,1.060185174147288,1.0890615000389516,277.4417303998489,None,ScrollDown,정답입니다,277.4417303998489,None,277.4417303998489,None,277.4417303998489,None,277.4417303998489,None,278.4191507999785,None,278.4191507999785,278.91962369997054,241.33656879980117,None,241.33656879980117,None,0.05740741,-0.083333336,1,0,0,0.016254710033535957,None,271.3359324999619,None,,,101,2023-03-27_10h29.07.541,FishGame,2022.1.1,59.887447496818794,
,2,나를 보내줘,6,Orange,A,0,0,ScrollUp,ScrollDown,Orange.png,3,NonTarget,NonTarget,0,0,0,0,,,,,,,,,,,,,,,,,,,,,0,1,1,1,,,,,,,,,,,,,,,,,,,,,,,,,,,,,,,,,,,,,,,,,,,,,,,,,,,,,,,,,,,,,,,,,,,,,,,,,,,,,1.9475308458010356,0.8954849999863654,279.54440889996476,None,ScrollUp,정답입니다,279.54440889996476,None,279.54440889996476,None,279.54440889996476,None,279.54440889996476,None,280.3357555998955,None,280.3357555998955,280.8357659999747,,,,,,,,,,,,,,,,101,2023-03-27_10h29.07.541,FishGame,2022.1.1,59.887447496818794,
,3,넌 활발해,1,Green,B,5.666666666666667,5.6,ScrollUp,ScrollDown,Green.png,3,Positive,Incongruent,0,0,0,0,,,,,,,,,,,,,,,,,,,,,0,2,2,2,,,,,,,,,,,,,,,,,,,,,,,,,,,,,,,,,,,,,,,,,,,,,,,,,,,,,,,,,,,,,,,,,,,,,,,,,,,,,2,0.7986449999734759,281.47426309995353,None,ScrollUp,정답입니다,281.47426309995353,None,281.47426309995353,None,281.47426309995353,None,281.47426309995353,None,282.1661229999736,None,282.1661229999736,282.6660809998866,,,,,,,,,,,,,,,,101,2023-03-27_10h29.07.541,FishGame,2022.1.1,59.887447496818794,
,4,넌 논리적이야,2,Orange,A,5.666666666666666,4.633333333333334,ScrollDown,ScrollUp,Orange.png,3,Positive,Congruent,0,0,0,0,,,,,,,,,,,,,,,,,,,,,0,3,3,3,,,,,,,,,,,,,,,,,,,,,,,,,,,,,,,,,,,,,,,,,,,,,,,,,,,,,,,,,,,,,,,,,,,,,,,,,,,,,1,0.8285936000756919,283.2984736999497,None,ScrollDown,정답입니다,283.2984736999497,None,283.2984736999497,None,283.2984736999497,None,283.2984736999497,None,284.01612709998153,None,284.01612709998153,284.5192969997879,,,,,,,,,,,,,,,,101,2023-03-27_10h29.07.541,FishGame,2022.1.1,59.887447496818794,
,5,넌 과묵해,3,Orange,A,3.875,4.4,ScrollDown,ScrollUp,Orange.png,3,Neutral,Neutral,0,0,0,0,,,,,,,,,,,,,,,,,,,,,0,4,4,4,,,,,,,,,,,,,,,,,,,,,,,,,,,,,,,,,,,,,,,,,,,,,,,,,,,,,,,,,,,,,,,,,,,,,,,,,,,,,1,0.8320910998154432,285.14782849978656,None,ScrollDown,정답입니다,285.14782849978656,None,285.14782849978656,None,285.14782849978656,None,285.14782849978656,None,285.86926750000566,None,285.86926750000566,286.36902659991756,,,,,,,,,,,,,,,,101,2023-03-27_10h29.07.541,FishGame,2022.1.1,59.887447496818794,
,6,나를 데려가줘,6,Green,B,0,0,ScrollDown,ScrollUp,Green.png,3,NonTarget,NonTarget,0,0,0,0,,,,,,,,,,,,,,,,,,,,,0,5,5,5,,,,,,,,,,,,,,,,,,,,,,,,,,,,,,,,,,,,,,,,,,,,,,,,,,,,,,,,,,,,,,,,,,,,,,,,,,,,,1.1512345721324284,1.3082157999742776,287.0000656999182,None,ScrollDown,정답입니다,287.0000656999182,None,287.0000656999182,None,287.0000656999182,None,287.0000656999182,None,288.1995831998065,None,288.1995831998065,288.7022271999158,,,,,,,,,,,,,,,,101,2023-03-27_10h29.07.541,FishGame,2022.1.1,59.887447496818794,
,7,넌 미숙해,4,Green,B,3,3,ScrollUp,ScrollDown,Green.png,3,Negative,Congruent,0,0,0,0,,,,,,,,,,,,,,,,,,,,,0,6,6,6,,,,,,,,,,,,,,,,,,,,,,,,,,,,,,,,,,,,,,,,,,,,,,,,,,,,,,,,,,,,,,,,,,,,,,,,,,,,,2,0.8320528001058847,289.3250055999961,None,ScrollUp,정답입니다,289.3250055999961,None,289.3250055999961,None,289.3250055999961,None,289.3250055999961,None,290.04957149992697,None,290.04957149992697,290.55217279982753,,,,,,,,,,,,,,,,101,2023-03-27_10h29.07.541,FishGame,2022.1.1,59.887447496818794,
,8,나를 보내줘,6,Orange,A,0,0,ScrollUp,ScrollDown,Orange.png,3,NonTarget,NonTarget,0,0,0,0,,,,,,,,,,,,,,,,,,,,,0,7,7,7,,,,,,,,,,,,,,,,,,,,,,,,,,,,,,,,,,,,,,,,,,,,,,,,,,,,,,,,,,,,,,,,,,,,,,,,,,,,,1.9768518606821697,0.9290575999766588,291.1775493999012,None,ScrollUp,정답입니다,291.1775493999012,None,291.1775493999012,None,291.1775493999012,None,291.1775493999012,None,292.0022636000067,None,292.0022636000067,292.5189347998239,,,,,,,,,,,,,,,,101,2023-03-27_10h29.07.541,FishGame,2022.1.1,59.887447496818794,
,9,넌 자신만만해,3,Green,B,4.833333333333334,4.333333333333333,ScrollUp,ScrollDown,Green.png,3,Neutral,Neutral,0,0,0,0,,,,,,,,,,,,,,,,,,,,,0,8,8,8,,,,,,,,,,,,,,,,,,,,,,,,,,,,,,,,,,,,,,,,,,,,,,,,,,,,,,,,,,,,,,,,,,,,,,,,,,,,,1.9537037014961243,0.9954816000536084,293.1296497997828,None,ScrollUp,정답입니다,293.1296497997828,None,293.1296497997828,None,293.1296497997828,None,293.1296497997828,None,294.0158691999968,None,294.0158691999968,294.5158719997853,,,,,,,,,,,,,,,,101,2023-03-27_10h29.07.541,FishGame,2022.1.1,59.887447496818794,
,10,넌 탐욕스러워,5,Orange,A,2.25,2.1,ScrollDown,ScrollUp,Orange.png,3,Negative,Incongruent,0,0,0,0,,,,,,,,,,,,,,,,,,,,,0,9,9,9,,,,,,,,,,,,,,,,,,,,,,,,,,,,,,,,,,,,,,,,,,,,,,,,,,,,,,,,,,,,,,,,,,,,,,,,,,,,,1.0385802288850148,1.0471001998521388,295.1472270998638,None,ScrollDown,정답입니다,295.1472270998638,None,295.1472270998638,None,295.1472270998638,None,295.1472270998638,None,296.0825372999534,None,296.0825372999534,296.58551449980587,,,,,,,,,,,,,,,,101,2023-03-27_10h29.07.541,FishGame,2022.1.1,59.887447496818794,
,11,넌 인기있어,2,Orange,A,5.458333333333333,4.5,ScrollDown,ScrollUp,Orange.png,3,Positive,Congruent,0,0,0,0,,,,,,,,,,,,,,,,,,,,,0,10,10,10,,,,,,,,,,,,,,,,,,,,,,,,,,,,,,,,,,,,,,,,,,,,,,,,,,,,,,,,,,,,,,,,,,,,,,,,,,,,,1,0.7959707998670638,297.21073579997756,None,ScrollDown,정답입니다,297.21073579997756,None,297.21073579997756,None,297.21073579997756,None,297.21073579997756,None,297.8995150998235,None,297.8995150998235,298.40216589998454,,,,,,,,,,,,,,,,101,2023-03-27_10h29.07.541,FishGame,2022.1.1,59.887447496818794,
,12,나를 데려가줘,6,Green,B,0,0,ScrollDown,ScrollUp,Green.png,3,NonTarget,NonTarget,0,0,0,0,,,,,,,,,,,,,,,,,,,,,0,11,11,11,,,,,,,,,,,,,,,,,,,,,,,,,,,,,,,,,,,,,,,,,,,,,,,,,,,,,,,,,,,,,,,,,,,,,,,,,,,,,1,1.1245400998741388,299.02990679978393,None,ScrollDown,정답입니다,299.02990679978393,None,299.02990679978393,None,299.02990679978393,None,299.02990679978393,None,300.04937769984826,None,300.04937769984826,300.55201729992405,,,,,,,,,,,,,,,,101,2023-03-27_10h29.07.541,FishGame,2022.1.1,59.887447496818794,
,13,넌 뛰어나,2,Green,B,6.166666666666667,4,ScrollUp,ScrollDown,Green.png,3,Positive,Incongruent,0,0,0,0,,,,,,,,,,,,,,,,,,,,,0,12,12,12,,,,,,,,,,,,,,,,,,,,,,,,,,,,,,,,,,,,,,,,,,,,,,,,,,,,,,,,,,,,,,,,,,,,,,,,,,,,,1.9506172736485798,0.8291205998975784,301.1785342998337,None,ScrollUp,정답입니다,301.1785342998337,None,301.1785342998337,None,301.1785342998337,None,301.1785342998337,None,301.90208069980145,None,301.90208069980145,302.40202379995026,,,,,,,,,,,,,,,,101,2023-03-27_10h29.07.541,FishGame,2022.1.1,59.887447496818794,
,14,넌 낙관적이야,1,Orange,A,5.75,5.8,ScrollDown,ScrollUp,Orange.png,3,Positive,Congruent,0,0,0,0,,,,,,,,,,,,,,,,,,,,,0,13,13,13,,,,,,,,,,,,,,,,,,,,,,,,,,,,,,,,,,,,,,,,,,,,,,,,,,,,,,,,,,,,,,,,,,,,,,,,,,,,,1.0663580298423767,1.0457319000270218,303.03124649985693,None,ScrollDown,정답입니다,303.03124649985693,None,303.03124649985693,None,303.03124649985693,None,303.03124649985693,None,303.9659264998045,None,303.9659264998045,304.4686068999581,,,,,,,,,,,,,,,,101,2023-03-27_10h29.07.541,FishGame,2022.1.1,59.887447496818794,
,15,넌 산만해,4,Green,B,2.695652173913043,3.033333333333333,ScrollUp,ScrollDown,Green.png,3,Negative,Congruent,0,0,0,0,,,,,,,,,,,,,,,,,,,,,0,14,14,14,,,,,,,,,,,,,,,,,,,,,,,,,,,,,,,,,,,,,,,,,,,,,,,,,,,,,,,,,,,,,,,,,,,,,,,,,,,,,2,0.7957478000316769,305.09443209995516,None,ScrollUp,정답입니다,305.09443209995516,None,305.09443209995516,None,305.09443209995516,None,305.09443209995516,None,305.7825354000088,None,305.7825354000088,306.28255329979584,,,,,,,,,,,,,,,,101,2023-03-27_10h29.07.541,FishGame,2022.1.1,59.887447496818794,
,16,나를 보내줘,6,Orange,A,0,0,ScrollUp,ScrollDown,Orange.png,3,NonTarget,NonTarget,0,0,0,0,,,,,,,,,,,,,,,,,,,,,0,15,15,15,,,,,,,,,,,,,,,,,,,,,,,,,,,,,,,,,,,,,,,,,,,,,,,,,,,,,,,,,,,,,,,,,,,,,,,,,,,,,1.6913580298423767,1.2956806998699903,306.90993179986253,None,ScrollUp,정답입니다,306.90993179986253,None,306.90993179986253,None,306.90993179986253,None,306.90993179986253,None,308.1019443999976,None,308.1019443999976,308.60188319999725,,,,,,,,,,,,,,,,101,2023-03-27_10h29.07.541,FishGame,2022.1.1,59.887447496818794,
,17,넌 교활해,5,Green,B,2.333333333333333,2.133333333333333,ScrollUp,ScrollDown,Green.png,3,Negative,Congruent,0,0,0,0,,,,,,,,,,,,,,,,,,,,,0,16,16,16,,,,,,,,,,,,,,,,,,,,,,,,,,,,,,,,,,,,,,,,,,,,,,,,,,,,,,,,,,,,,,,,,,,,,,,,,,,,,2,1.2290283001493663,309.2270115998108,None,ScrollUp,정답입니다,309.2270115998108,None,309.2270115998108,None,309.2270115998108,None,309.2270115998108,None,310.3518775999546,None,310.3518775999546,310.85186579986475,,,,,,,,,,,,,,,,101,2023-03-27_10h29.07.541,FishGame,2022.1.1,59.887447496818794,
,18,나를 보내줘,6,Orange,A,0,0,ScrollUp,ScrollDown,Orange.png,3,NonTarget,NonTarget,0,0,0,0,,,,,,,,,,,,,,,,,,,,,0,17,17,17,,,,,,,,,,,,,,,,,,,,,,,,,,,,,,,,,,,,,,,,,,,,,,,,,,,,,,,,,,,,,,,,,,,,,,,,,,,,,1.7746913582086563,1.0119008999317884,311.48508709995076,None,ScrollUp,정답입니다,311.48508709995076,None,311.48508709995076,None,311.48508709995076,None,311.48508709995076,None,312.38221179996617,None,312.38221179996617,312.8822572999634,,,,,,,,,,,,,,,,101,2023-03-27_10h29.07.541,FishGame,2022.1.1,59.887447496818794,
,19,넌 불친절해,5,Green,B,2.208333333333333,2.033333333333333,ScrollUp,ScrollDown,Green.png,3,Negative,Congruent,0,0,0,0,,,,,,,,,,,,,,,,,,,,,0,18,18,18,,,,,,,,,,,,,,,,,,,,,,,,,,,,,,,,,,,,,,,,,,,,,,,,,,,,,,,,,,,,,,,,,,,,,,,,,,,,,2,0.7454586999956518,313.5126228998415,None,ScrollUp,정답입니다,313.5126228998415,None,313.5126228998415,None,313.5126228998415,None,313.5126228998415,None,314.1488995999098,None,314.1488995999098,314.6520851999521,,,,,,,,,,,,,,,,101,2023-03-27_10h29.07.541,FishGame,2022.1.1,59.887447496818794,
,20,넌 지적이야,2,Green,B,5.75,4.366666666666666,ScrollUp,ScrollDown,Green.png,3,Positive,Incongruent,0,0,0,0,,,,,,,,,,,,,,,,,,,,,0,19,19,19,,,,,,,,,,,,,,,,,,,,,,,,,,,,,,,,,,,,,,,,,,,,,,,,,,,,,,,,,,,,,,,,,,,,,,,,,,,,,2,0.78208849998191,315.2752130997833,None,ScrollUp,정답입니다,315.2752130997833,None,315.2752130997833,None,315.2752130997833,None,315.2752130997833,None,315.9518693999853,None,315.9518693999853,316.45182109996676,,,,,,,,,,,,,,,,101,2023-03-27_10h29.07.541,FishGame,2022.1.1,59.887447496818794,
,21,넌 우유부단해,4,Orange,A,2.666666666666667,3.166666666666667,ScrollDown,ScrollUp,Orange.png,3,Negative,Incongruent,0,0,0,0,,,,,,,,,,,,,,,,,,,,,0,20,20,20,,,,,,,,,,,,,,,,,,,,,,,,,,,,,,,,,,,,,,,,,,,,,,,,,,,,,,,,,,,,,,,,,,,,,,,,,,,,,2,0.8456544000655413,317.0820394998882,None,ScrollUp,오답입니다,317.0820394998882,None,317.0820394998882,None,317.0820394998882,None,317.0820394998882,None,317.81537169986404,None,317.81537169986404,318.3154863999225,,,,,,,,,,,,,,,,101,2023-03-27_10h29.07.541,FishGame,2022.1.1,59.887447496818794,
,22,나를 데려가줘,6,Green,B,0,0,ScrollDown,ScrollUp,Green.png,3,NonTarget,NonTarget,0,0,0,0,,,,,,,,,,,,,,,,,,,,,0,21,21,21,,,,,,,,,,,,,,,,,,,,,,,,,,,,,,,,,,,,,,,,,,,,,,,,,,,,,,,,,,,,,,,,,,,,,,,,,,,,,1.0046296219031017,1.2127443999052048,318.9425781997852,None,ScrollDown,정답입니다,318.9425781997852,None,318.9425781997852,None,318.9425781997852,None,318.9425781997852,None,320.04876069980673,None,320.04876069980673,320.55236889980733,,,,,,,,,,,,,,,,101,2023-03-27_10h29.07.541,FishGame,2022.1.1,59.887447496818794,
,23,넌 성실해,1,Green,B,6.041666666666666,5.7,ScrollUp,ScrollDown,Green.png,3,Positive,Incongruent,0,0,0,0,,,,,,,,,,,,,,,,,,,,,0,22,22,22,,,,,,,,,,,,,,,,,,,,,,,,,,,,,,,,,,,,,,,,,,,,,,,,,,,,,,,,,,,,,,,,,,,,,,,,,,,,,2,0.9956471000332385,321.17465119995177,None,ScrollUp,정답입니다,321.17465119995177,None,321.17465119995177,None,321.17465119995177,None,321.17465119995177,None,322.0684390999377,None,322.0684390999377,322.5683931999374,,,,,,,,,,,,,,,,101,2023-03-27_10h29.07.541,FishGame,2022.1.1,59.887447496818794,
,24,넌 현실주의적이야,3,Orange,A,4.625,4.4,ScrollDown,ScrollUp,Orange.png,3,Neutral,Neutral,0,0,0,0,,,,,,,,,,,,,,,,,,,,,0,23,23,23,,,,,,,,,,,,,,,,,,,,,,,,,,,,,,,,,,,,,,,,,,,,,,,,,,,,,,,,,,,,,,,,,,,,,,,,,,,,,1.0324074228604634,1.0790564001072198,323.1951095999684,None,ScrollDown,정답입니다,323.1951095999684,None,323.1951095999684,None,323.1951095999684,None,323.1951095999684,None,324.16553809982724,None,324.16553809982724,324.66823359997943,,,,,,,,,,,,,,,,101,2023-03-27_10h29.07.541,FishGame,2022.1.1,59.887447496818794,
,25,넌 진실돼,1,Orange,A,6.625,5.566666666666666,ScrollDown,ScrollUp,Orange.png,3,Positive,Congruent,0,0,0,0,,,,,,,,,,,,,,,,,,,,,0,24,24,24,,,,,,,,,,,,,,,,,,,,,,,,,,,,,,,,,,,,,,,,,,,,,,,,,,,,,,,,,,,,,,,,,,,,,,,,,,,,,1.1234567960103352,0.7624886000994593,325.2966246998403,None,ScrollDown,정답입니다,325.2966246998403,None,325.2966246998403,None,325.2966246998403,None,325.2966246998403,None,325.94885349995457,None,325.94885349995457,326.45153029984795,,,,,,,,,,,,,,,,101,2023-03-27_10h29.07.541,FishGame,2022.1.1,59.887447496818794,
,26,넌 천진난만해,3,Green,B,4.958333333333334,4.833333333333333,ScrollUp,ScrollDown,Green.png,3,Neutral,Neutral,0,0,0,0,,,,,,,,,,,,,,,,,,,,,0,25,25,25,,,,,,,,,,,,,,,,,,,,,,,,,,,,,,,,,,,,,,,,,,,,,,,,,,,,,,,,,,,,,,,,,,,,,,,,,,,,,2,0.895578800002113,327.0795678999275,None,ScrollUp,정답입니다,327.0795678999275,None,327.0795678999275,None,327.0795678999275,None,327.0795678999275,None,327.8681258999277,None,327.8681258999277,328.3681790998671,,,,,,,,,,,,,,,,101,2023-03-27_10h29.07.541,FishGame,2022.1.1,59.887447496818794,
,27,넌 교양없어,5,Orange,A,2.416666666666667,2.2,ScrollDown,ScrollUp,Orange.png,3,Negative,Incongruent,0,0,0,0,,,,,,,,,,,,,,,,,,,,,0,26,26,26,,,,,,,,,,,,,,,,,,,,,,,,,,,,,,,,,,,,,,,,,,,,,,,,,,,,,,,,,,,,,,,,,,,,,,,,,,,,,1.9876543084780376,0.9151769001036882,328.9965479997918,None,ScrollUp,오답입니다,328.9965479997918,None,328.9965479997918,None,328.9965479997918,None,328.9965479997918,None,329.7988248998299,None,329.7988248998299,330.30151219991967,,,,,,,,,,,,,,,,101,2023-03-27_10h29.07.541,FishGame,2022.1.1,59.887447496818794,
,28,나를 보내줘,6,Orange,A,0,0,ScrollUp,ScrollDown,Orange.png,3,NonTarget,NonTarget,0,0,0,0,,,,,,,,,,,,,,,,,,,,,0,27,27,27,,,,,,,,,,,,,,,,,,,,,,,,,,,,,,,,,,,,,,,,,,,,,,,,,,,,,,,,,,,,,,,,,,,,,,,,,,,,,2,1.0288535999134183,330.92717169993557,None,ScrollUp,정답입니다,330.92717169993557,None,330.92717169993557,None,330.92717169993557,None,330.92717169993557,None,331.8487221999094,None,331.8487221999094,332.3514107998926,,,,,,,,,,,,,,,,101,2023-03-27_10h29.07.541,FishGame,2022.1.1,59.887447496818794,
,29,넌 엉뚱스러워,3,Orange,A,4.166666666666667,4.133333333333334,ScrollDown,ScrollUp,Orange.png,3,Neutral,Neutral,0,0,0,0,,,,,,,,,,,,,,,,,,,,,0,28,28,28,,,,,,,,,,,,,,,,,,,,,,,,,,,,,,,,,,,,,,,,,,,,,,,,,,,,,,,,,,,,,,,,,,,,,,,,,,,,,1,1.22921759984456,332.99066219991073,None,ScrollDown,정답입니다,332.99066219991073,None,332.99066219991073,None,332.99066219991073,None,332.99066219991073,None,334.098747999873,None,334.098747999873,334.60140349995345,,,,,,,,,,,,,,,,101,2023-03-27_10h29.07.541,FishGame,2022.1.1,59.887447496818794,
,30,넌 무지해,4,Green,B,2.541666666666667,3.066666666666667,ScrollUp,ScrollDown,Green.png,3,Negative,Congruent,0,0,0,0,,,,,,,,,,,,,,,,,,,,,0,29,29,29,,,,,,,,,,,,,,,,,,,,,,,,,,,,,,,,,,,,,,,,,,,,,,,,,,,,,,,,,,,,,,,,,,,,,,,,,,,,,2,0.8787624000106007,335.22448059986345,None,ScrollUp,정답입니다,335.22448059986345,None,335.22448059986345,None,335.22448059986345,None,335.22448059986345,None,336.0014011999592,None,336.0014011999592,336.5013872999698,,,,,,,,,,,,,,,,101,2023-03-27_10h29.07.541,FishGame,2022.1.1,59.887447496818794,
,31,넌 음울해,5,Green,B,2.25,2.233333333333333,ScrollUp,ScrollDown,Green.png,3,Negative,Congruent,0,0,0,0,,,,,,,,,,,,,,,,,,,,,0,30,30,30,,,,,,,,,,,,,,,,,,,,,,,,,,,,,,,,,,,,,,,,,,,,,,,,,,,,,,,,,,,,,,,,,,,,,,,,,,,,,1.9490740597248077,0.7622611001133919,337.12917109997943,None,ScrollUp,정답입니다,337.12917109997943,None,337.12917109997943,None,337.12917109997943,None,337.12917109997943,None,337.7849236999173,None,337.7849236999173,338.2894134998787,,,,,,,,,,,,,,,,101,2023-03-27_10h29.07.541,FishGame,2022.1.1,59.887447496818794,
,32,넌 냉소적이야,5,Orange,A,2.916666666666667,2.4,ScrollDown,ScrollUp,Orange.png,3,Negative,Incongruent,0,0,0,0,,,,,,,,,,,,,,,,,,,,,0,31,31,31,,,,,,,,,,,,,,,,,,,,,,,,,,,,,,,,,,,,,,,,,,,,,,,,,,,,,,,,,,,,,,,,,,,,,,,,,,,,,1,1.0983164999634027,338.9250422997866,None,ScrollDown,정답입니다,338.9250422997866,None,338.9250422997866,None,338.9250422997866,None,338.9250422997866,None,339.9150194998365,None,339.9150194998365,340.41506729996763,,,,,,,,,,,,,,,,101,2023-03-27_10h29.07.541,FishGame,2022.1.1,59.887447496818794,
,33,나를 데려가줘,6,Green,B,0,0,ScrollDown,ScrollUp,Green.png,3,NonTarget,NonTarget,0,0,0,0,,,,,,,,,,,,,,,,,,,,,0,32,32,32,,,,,,,,,,,,,,,,,,,,,,,,,,,,,,,,,,,,,,,,,,,,,,,,,,,,,,,,,,,,,,,,,,,,,,,,,,,,,2,0.8011309001594782,341.03865229990333,None,ScrollUp,오답입니다,341.03865229990333,None,341.03865229990333,None,341.03865229990333,None,341.03865229990333,None,341.73483249987476,None,341.73483249987476,342.2346556999255,,,,,,,,,,,,,,,,101,2023-03-27_10h29.07.541,FishGame,2022.1.1,59.887447496818794,
,34,넌 쾌활해,1,Orange,A,5.541666666666666,5.733333333333333,ScrollDown,ScrollUp,Orange.png,3,Positive,Congruent,0,0,0,0,,,,,,,,,,,,,,,,,,,,,0,33,33,33,,,,,,,,,,,,,,,,,,,,,,,,,,,,,,,,,,,,,,,,,,,,,,,,,,,,,,,,,,,,,,,,,,,,,,,,,,,,,1,0.8792654999997467,342.8693756998982,None,ScrollDown,정답입니다,342.8693756998982,None,342.8693756998982,None,342.8693756998982,None,342.8693756998982,None,343.6348530999385,None,343.6348530999385,344.13938909978606,,,,,,,,,,,,,,,,101,2023-03-27_10h29.07.541,FishGame,2022.1.1,59.887447496818794,
,35,나를 보내줘,6,Orange,A,0,0,ScrollUp,ScrollDown,Orange.png,3,NonTarget,NonTarget,0,0,0,0,,,,,,,,,,,,,,,,,,,,,0,34,34,34,,,,,,,,,,,,,,,,,,,,,,,,,,,,,,,,,,,,,,,,,,,,,,,,,,,,,,,,,,,,,,,,,,,,,,,,,,,,,1.9583333432674408,1.0317464999388903,344.77130279992707,None,ScrollUp,정답입니다,344.77130279992707,None,344.77130279992707,None,344.77130279992707,None,344.77130279992707,None,345.69826239999384,None,345.69826239999384,346.1982727998402,,,,,,,,,,,,,,,,101,2023-03-27_10h29.07.541,FishGame,2022.1.1,59.887447496818794,
,36,넌 명랑해,1,Green,B,5.739130434782609,5.666666666666667,ScrollUp,ScrollDown,Green.png,3,Positive,Incongruent,0,0,0,0,,,,,,,,,,,,,,,,,,,,,0,35,35,35,,,,,,,,,,,,,,,,,,,,,,,,,,,,,,,,,,,,,,,,,,,,,,,,,,,,,,,,,,,,,,,,,,,,,,,,,,,,,2,0.9815190997906029,346.8228495998774,None,ScrollUp,정답입니다,346.8228495998774,None,346.8228495998774,None,346.8228495998774,None,346.8228495998774,None,347.6982587999664,None,347.6982587999664,348.20129769993946,,,,,,,,,,,,,,,,101,2023-03-27_10h29.07.541,FishGame,2022.1.1,59.887447496818794,
,37,넌 멍해,4,Orange,A,2.833333333333333,3.4,ScrollDown,ScrollUp,Orange.png,3,Negative,Incongruent,0,0,0,0,,,,,,,,,,,,,,,,,,,,,0,36,36,36,,,,,,,,,,,,,,,,,,,,,,,,,,,,,,,,,,,,,,,,,,,,,,,,,,,,,,,,,,,,,,,,,,,,,,,,,,,,,1,0.9459204999729991,348.8296299998183,None,ScrollDown,정답입니다,348.8296299998183,None,348.8296299998183,None,348.8296299998183,None,348.8296299998183,None,349.66789819998667,None,349.66789819998667,350.1678557000123,,,,,,,,,,,,,,,,101,2023-03-27_10h29.07.541,FishGame,2022.1.1,59.887447496818794,
,38,나를 데려가줘,6,Green,B,0,0,ScrollDown,ScrollUp,Green.png,3,NonTarget,NonTarget,0,0,0,0,,,,,,,,,,,,,,,,,,,,,0,37,37,37,,,,,,,,,,,,,,,,,,,,,,,,,,,,,,,,,,,,,,,,,,,,,,,,,,,,,,,,,,,,,,,,,,,,,,,,,,,,,1,1.3620731998234987,350.7912810998969,None,ScrollDown,정답입니다,350.7912810998969,None,350.7912810998969,None,350.7912810998969,None,350.7912810998969,None,352.0481163999066,None,352.0481163999066,352.54812809987925,,,,,,,,,,,,,,,,101,2023-03-27_10h29.07.541,FishGame,2022.1.1,59.887447496818794,
,39,넌 현명해,2,Orange,A,6.541666666666666,4.533333333333333,ScrollDown,ScrollUp,Orange.png,3,Positive,Congruent,0,0,0,0,,,,,,,,,,,,,,,,,,,,,0,38,38,38,,,,,,,,,,,,,,,,,,,,,,,,,,,,,,,,,,,,,,,,,,,,,,,,,,,,,,,,,,,,,,,,,,,,,,,,,,,,,1,0.9481650998350233,353.1711652998347,None,ScrollDown,정답입니다,353.1711652998347,None,353.1711652998347,None,353.1711652998347,None,353.1711652998347,None,354.01784989982843,None,354.01784989982843,354.5177817000076,,,,,,,,,,,,,,,,101,2023-03-27_10h29.07.541,FishGame,2022.1.1,59.887447496818794,
,40,넌 수줍어,3,Green,B,3.541666666666666,4.366666666666666,ScrollUp,ScrollDown,Green.png,3,Neutral,Neutral,0,0,0,0,,,,,,,,,,,,,,,,,,,,,0,39,39,39,,,,,,,,,,,,,,,,,,,,,,,,,,,,,,,,,,,,,,,,,,,,,,,,,,,,,,,,,,,,,,,,,,,,,,,,,,,,,2,0.929212300106883,355.1439356999472,None,ScrollUp,정답입니다,355.1439356999472,None,355.1439356999472,None,355.1439356999472,None,355.1439356999472,None,355.96513669984415,None,355.96513669984415,356.4676979999058,,,,,,,,,,,,,,,,101,2023-03-27_10h29.07.541,FishGame,2022.1.1,59.887447496818794,
,41,나를 데려가줘,6,Green,B,0,0,ScrollDown,ScrollUp,Green.png,3,NonTarget,NonTarget,0,0,0,0,,,,,,,,,,,,,,,,,,,,,0,40,40,40,,,,,,,,,,,,,,,,,,,,,,,,,,,,,,,,,,,,,,,,,,,,,,,,,,,,,,,,,,,,,,,,,,,,,,,,,,,,,1,1.2788329999893904,357.09125629998744,None,ScrollDown,정답입니다,357.09125629998744,None,357.09125629998744,None,357.09125629998744,None,357.09125629998744,None,358.2675345998723,None,358.2675345998723,358.7675773999654,,,,,,,,,,,,,,,,101,2023-03-27_10h29.07.541,FishGame,2022.1.1,59.887447496818794,
,42,넌 성숙해,2,Green,B,5.833333333333333,4.533333333333333,ScrollUp,ScrollDown,Green.png,3,Positive,Incongruent,0,0,0,0,,,,,,,,,,,,,,,,,,,,,0,41,41,41,,,,,,,,,,,,,,,,,,,,,,,,,,,,,,,,,,,,,,,,,,,,,,,,,,,,,,,,,,,,,,,,,,,,,,,,,,,,,2,0.9293194999918342,359.39012989983894,None,ScrollUp,정답입니다,359.39012989983894,None,359.39012989983894,None,359.39012989983894,None,359.39012989983894,None,360.2176792998798,None,360.2176792998798,360.7176065999083,,,,,,,,,,,,,,,,101,2023-03-27_10h29.07.541,FishGame,2022.1.1,59.887447496818794,
,1,넌 매력적이야,2,Green,B,6.125,4.666666666666667,ScrollUp,ScrollDown,Green.png,4,Positive,Incongruent,0,0,0,0,,,,,,,,,,,,,,,,,,,,,,,,,0,0,0,0,,,,,,,,,,,,,,,,,,,,,,,,,,,,,,,,392.4505440997891,393.9505467999261,393.9838831999805,394.9337124999147,394.98371509998105,395.9337423997931,395.9337423997931,None,,,,,,,,,,,,,,,,,,,,,,,,,,,,,,,,,,2,1.1645659001078457,397.04286689986475,None,ScrollUp,정답입니다,397.04286689986475,None,397.04286689986475,None,397.04286689986475,None,397.04286689986475,None,398.10016079992056,None,398.10016079992056,398.60020859981887,361.214902699925,None,361.214902699925,None,-0.027777778,-0.11111111,1,0,0,0.01624630973674357,None,391.21409559994936,None,,,101,2023-03-27_10h29.07.541,FishGame,2022.1.1,59.887447496818794,
,2,나를 보내줘,6,Orange,A,0,0,ScrollUp,ScrollDown,Orange.png,4,NonTarget,NonTarget,0,0,0,0,,,,,,,,,,,,,,,,,,,,,,,,,0,1,1,1,,,,,,,,,,,,,,,,,,,,,,,,,,,,,,,,,,,,,,,,,,,,,,,,,,,,,,,,,,,,,,,,,,,,,,,,,2,0.9455659999512136,399.22563999984413,None,ScrollUp,정답입니다,399.22563999984413,None,399.22563999984413,None,399.22563999984413,None,399.22563999984413,None,400.0668695999775,None,400.0668695999775,400.5668488999363,,,,,,,,,,,,,,,,101,2023-03-27_10h29.07.541,FishGame,2022.1.1,59.887447496818794,
,3,넌 조심스러워,3,Orange,A,4.791666666666666,4.666666666666667,ScrollDown,ScrollUp,Orange.png,4,Neutral,Neutral,0,0,0,0,,,,,,,,,,,,,,,,,,,,,,,,,0,2,2,2,,,,,,,,,,,,,,,,,,,,,,,,,,,,,,,,,,,,,,,,,,,,,,,,,,,,,,,,,,,,,,,,,,,,,,,,,1.0154321193695068,0.9126012001652271,401.1930503998883,None,ScrollDown,정답입니다,401.1930503998883,None,401.1930503998883,None,401.1930503998883,None,401.1930503998883,None,401.9975715999026,None,401.9975715999026,402.50016029994003,,,,,,,,,,,,,,,,101,2023-03-27_10h29.07.541,FishGame,2022.1.1,59.887447496818794,
,4,넌 철학적이야,3,Green,B,4.5,4.266666666666667,ScrollUp,ScrollDown,Green.png,4,Neutral,Neutral,0,0,0,0,,,,,,,,,,,,,,,,,,,,,,,,,0,3,3,3,,,,,,,,,,,,,,,,,,,,,,,,,,,,,,,,,,,,,,,,,,,,,,,,,,,,,,,,,,,,,,,,,,,,,,,,,1.9552469154198964,0.9291813001036644,403.129139599856,None,ScrollUp,정답입니다,403.129139599856,None,403.129139599856,None,403.129139599856,None,403.129139599856,None,403.947391099995,None,403.947391099995,404.45004079979844,,,,,,,,,,,,,,,,101,2023-03-27_10h29.07.541,FishGame,2022.1.1,59.887447496818794,
,5,넌 쩨쩨해,5,Orange,A,2.375,2.133333333333333,ScrollDown,ScrollUp,Orange.png,4,Negative,Incongruent,0,0,0,0,,,,,,,,,,,,,,,,,,,,,,,,,0,4,4,4,,,,,,,,,,,,,,,,,,,,,,,,,,,,,,,,,,,,,,,,,,,,,,,,,,,,,,,,,,,,,,,,,,,,,,,,,1,0.8954561999998987,405.0854669997934,None,ScrollDown,정답입니다,405.0854669997934,None,405.0854669997934,None,405.0854669997934,None,405.0854669997934,None,405.86668489989825,None,405.86668489989825,406.3666965998709,,,,,,,,,,,,,,,,101,2023-03-27_10h29.07.541,FishGame,2022.1.1,59.887447496818794,
,6,나를 데려가줘,6,Green,B,0,0,ScrollDown,ScrollUp,Green.png,4,NonTarget,NonTarget,0,0,0,0,,,,,,,,,,,,,,,,,,,,,,,,,0,5,5,5,,,,,,,,,,,,,,,,,,,,,,,,,,,,,,,,,,,,,,,,,,,,,,,,,,,,,,,,,,,,,,,,,,,,,,,,,1,1.3816641999874264,406.9896914998535,None,ScrollDown,정답입니다,406.9896914998535,None,406.9896914998535,None,406.9896914998535,None,406.9896914998535,None,408.2667219999712,None,408.2667219999712,408.76669239997864,,,,,,,,,,,,,,,,101,2023-03-27_10h29.07.541,FishGame,2022.1.1,59.887447496818794,
,7,넌 고집불통이야,5,Green,B,2.875,2,ScrollUp,ScrollDown,Green.png,4,Negative,Congruent,0,0,0,0,,,,,,,,,,,,,,,,,,,,,,,,,0,6,6,6,,,,,,,,,,,,,,,,,,,,,,,,,,,,,,,,,,,,,,,,,,,,,,,,,,,,,,,,,,,,,,,,,,,,,,,,,2,0.8455588999204338,409.3951120998245,None,ScrollUp,정답입니다,409.3951120998245,None,409.3951120998245,None,409.3951120998245,None,409.3951120998245,None,410.1306739000138,None,410.1306739000138,410.6333633000031,,,,,,,,,,,,,,,,101,2023-03-27_10h29.07.541,FishGame,2022.1.1,59.887447496818794,
,8,넌 무심해,4,Orange,A,2.875,3.2,ScrollDown,ScrollUp,Orange.png,4,Negative,Incongruent,0,0,0,0,,,,,,,,,,,,,,,,,,,,,,,,,0,7,7,7,,,,,,,,,,,,,,,,,,,,,,,,,,,,,,,,,,,,,,,,,,,,,,,,,,,,,,,,,,,,,,,,,,,,,,,,,1,0.8295503000263125,411.2581371997949,None,ScrollDown,정답입니다,411.2581371997949,None,411.2581371997949,None,411.2581371997949,None,411.2581371997949,None,411.98034829995595,None,411.98034829995595,412.4803859000094,,,,,,,,,,,,,,,,101,2023-03-27_10h29.07.541,FishGame,2022.1.1,59.887447496818794,
,9,넌 정겨워,1,Orange,A,5.791666666666667,5.666666666666667,ScrollDown,ScrollUp,Orange.png,4,Positive,Congruent,0,0,0,0,,,,,,,,,,,,,,,,,,,,,,,,,0,8,8,8,,,,,,,,,,,,,,,,,,,,,,,,,,,,,,,,,,,,,,,,,,,,,,,,,,,,,,,,,,,,,,,,,,,,,,,,,1,0.9129206999205053,413.1138385999948,None,ScrollDown,정답입니다,413.1138385999948,None,413.1138385999948,None,413.1138385999948,None,413.1138385999948,None,413.9168308998924,None,413.9168308998924,414.41665839985944,,,,,,,,,,,,,,,,101,2023-03-27_10h29.07.541,FishGame,2022.1.1,59.887447496818794,
,10,나를 데려가줘,6,Green,B,0,0,ScrollDown,ScrollUp,Green.png,4,NonTarget,NonTarget,0,0,0,0,,,,,,,,,,,,,,,,,,,,,,,,,0,9,9,9,,,,,,,,,,,,,,,,,,,,,,,,,,,,,,,,,,,,,,,,,,,,,,,,,,,,,,,,,,,,,,,,,,,,,,,,,1,1.0788864998612553,415.04081909987144,None,ScrollDown,정답입니다,415.04081909987144,None,415.04081909987144,None,415.04081909987144,None,415.04081909987144,None,416.0167896999046,None,416.0167896999046,416.53748669987544,,,,,,,,,,,,,,,,101,2023-03-27_10h29.07.541,FishGame,2022.1.1,59.887447496818794,
,11,넌 체제순응적이야,4,Green,B,3,3.6,ScrollUp,ScrollDown,Green.png,4,Negative,Congruent,0,0,0,0,,,,,,,,,,,,,,,,,,,,,,,,,0,10,10,10,,,,,,,,,,,,,,,,,,,,,,,,,,,,,,,,,,,,,,,,,,,,,,,,,,,,,,,,,,,,,,,,,,,,,,,,,2,1.0631052001845092,417.1630266997963,None,ScrollUp,정답입니다,417.1630266997963,None,417.1630266997963,None,417.1630266997963,None,417.1630266997963,None,418.11353229987435,None,418.11353229987435,418.61361019988544,,,,,,,,,,,,,,,,101,2023-03-27_10h29.07.541,FishGame,2022.1.1,59.887447496818794,
,12,나를 보내줘,6,Orange,A,0,0,ScrollUp,ScrollDown,Orange.png,4,NonTarget,NonTarget,0,0,0,0,,,,,,,,,,,,,,,,,,,,,,,,,0,11,11,11,,,,,,,,,,,,,,,,,,,,,,,,,,,,,,,,,,,,,,,,,,,,,,,,,,,,,,,,,,,,,,,,,,,,,,,,,1.8904321044683456,1.0151909999549389,419.24100049980916,None,ScrollUp,정답입니다,419.24100049980916,None,419.24100049980916,None,419.24100049980916,None,419.24100049980916,None,420.1468757998664,None,420.1468757998664,420.65006649983115,,,,,,,,,,,,,,,,101,2023-03-27_10h29.07.541,FishGame,2022.1.1,59.887447496818794,
,13,넌 박식해,2,Orange,A,5.625,3.933333333333333,ScrollDown,ScrollUp,Orange.png,4,Positive,Congruent,0,0,0,0,,,,,,,,,,,,,,,,,,,,,,,,,0,12,12,12,,,,,,,,,,,,,,,,,,,,,,,,,,,,,,,,,,,,,,,,,,,,,,,,,,,,,,,,,,,,,,,,,,,,,,,,,1,0.8454825999215245,421.28314499999397,None,ScrollDown,정답입니다,421.28314499999397,None,421.28314499999397,None,421.28314499999397,None,421.28314499999397,None,422.016570399981,None,422.016570399981,422.51655369997025,,,,,,,,,,,,,,,,101,2023-03-27_10h29.07.541,FishGame,2022.1.1,59.887447496818794,
,14,나를 보내줘,6,Orange,A,0,0,ScrollUp,ScrollDown,Orange.png,4,NonTarget,NonTarget,0,0,0,0,,,,,,,,,,,,,,,,,,,,,,,,,0,13,13,13,,,,,,,,,,,,,,,,,,,,,,,,,,,,,,,,,,,,,,,,,,,,,,,,,,,,,,,,,,,,,,,,,,,,,,,,,2,0.9275911999866366,423.14237539982423,None,ScrollUp,정답입니다,423.14237539982423,None,423.14237539982423,None,423.14237539982423,None,423.14237539982423,None,423.94947659992613,None,423.94947659992613,424.4634077998344,,,,,,,,,,,,,,,,101,2023-03-27_10h29.07.541,FishGame,2022.1.1,59.887447496818794,
,15,넌 침착해,1,Green,B,5.458333333333333,5.566666666666666,ScrollUp,ScrollDown,Green.png,4,Positive,Incongruent,0,0,0,0,,,,,,,,,,,,,,,,,,,,,,,,,0,14,14,14,,,,,,,,,,,,,,,,,,,,,,,,,,,,,,,,,,,,,,,,,,,,,,,,,,,,,,,,,,,,,,,,,,,,,,,,,2,1.0810155000071973,425.0896874999162,None,ScrollUp,정답입니다,425.0896874999162,None,425.0896874999162,None,425.0896874999162,None,425.0896874999162,None,426.06343019986525,None,426.06343019986525,426.5664230999537,,,,,,,,,,,,,,,,101,2023-03-27_10h29.07.541,FishGame,2022.1.1,59.887447496818794,
,16,나를 데려가줘,6,Green,B,0,0,ScrollDown,ScrollUp,Green.png,4,NonTarget,NonTarget,0,0,0,0,,,,,,,,,,,,,,,,,,,,,,,,,0,15,15,15,,,,,,,,,,,,,,,,,,,,,,,,,,,,,,,,,,,,,,,,,,,,,,,,,,,,,,,,,,,,,,,,,,,,,,,,,1,1.1321325001772493,427.1887793999631,None,ScrollDown,정답입니다,427.1887793999631,None,427.1887793999631,None,427.1887793999631,None,427.1887793999631,None,428.21365859988146,None,428.21365859988146,428.71637679985724,,,,,,,,,,,,,,,,101,2023-03-27_10h29.07.541,FishGame,2022.1.1,59.887447496818794,
,17,넌 행복해,1,Orange,A,6.416666666666666,6.166666666666667,ScrollDown,ScrollUp,Orange.png,4,Positive,Congruent,0,0,0,0,,,,,,,,,,,,,,,,,,,,,,,,,0,16,16,16,,,,,,,,,,,,,,,,,,,,,,,,,,,,,,,,,,,,,,,,,,,,,,,,,,,,,,,,,,,,,,,,,,,,,,,,,1,0.8953197000082582,429.35479449993,None,ScrollDown,정답입니다,429.35479449993,None,429.35479449993,None,429.35479449993,None,429.35479449993,None,430.12991099990904,None,430.12991099990904,430.63017359981313,,,,,,,,,,,,,,,,101,2023-03-27_10h29.07.541,FishGame,2022.1.1,59.887447496818794,
,18,넌 겸손해,2,Green,B,5.791666666666667,4.766666666666667,ScrollUp,ScrollDown,Green.png,4,Positive,Incongruent,0,0,0,0,,,,,,,,,,,,,,,,,,,,,,,,,0,17,17,17,,,,,,,,,,,,,,,,,,,,,,,,,,,,,,,,,,,,,,,,,,,,,,,,,,,,,,,,,,,,,,,,,,,,,,,,,2,0.8461969001218677,431.2584092998877,None,ScrollUp,정답입니다,431.2584092998877,None,431.2584092998877,None,431.2584092998877,None,431.2584092998877,None,431.99667719984427,None,431.99667719984427,432.4998166000005,,,,,,,,,,,,,,,,101,2023-03-27_10h29.07.541,FishGame,2022.1.1,59.887447496818794,
,19,나를 보내줘,6,Orange,A,0,0,ScrollUp,ScrollDown,Orange.png,4,NonTarget,NonTarget,0,0,0,0,,,,,,,,,,,,,,,,,,,,,,,,,0,18,18,18,,,,,,,,,,,,,,,,,,,,,,,,,,,,,,,,,,,,,,,,,,,,,,,,,,,,,,,,,,,,,,,,,,,,,,,,,1.9675925771395366,1.0817350000143051,433.12407849985175,None,ScrollUp,정답입니다,433.12407849985175,None,433.12407849985175,None,433.12407849985175,None,433.12407849985175,None,434.09973729983903,None,434.09973729983903,434.59960509999655,,,,,,,,,,,,,,,,101,2023-03-27_10h29.07.541,FishGame,2022.1.1,59.887447496818794,
,20,넌 의심없어,3,Orange,A,4.166666666666667,4.6,ScrollDown,ScrollUp,Orange.png,4,Neutral,Neutral,0,0,0,0,,,,,,,,,,,,,,,,,,,,,,,,,0,19,19,19,,,,,,,,,,,,,,,,,,,,,,,,,,,,,,,,,,,,,,,,,,,,,,,,,,,,,,,,,,,,,,,,,,,,,,,,,1,1.245234299916774,435.22858889983036,None,ScrollDown,정답입니다,435.22858889983036,None,435.22858889983036,None,435.22858889983036,None,435.22858889983036,None,436.363190199947,None,436.363190199947,436.8631766999606,,,,,,,,,,,,,,,,101,2023-03-27_10h29.07.541,FishGame,2022.1.1,59.887447496818794,
,21,넌 시시해,4,Orange,A,2.666666666666667,2.966666666666667,ScrollDown,ScrollUp,Orange.png,4,Negative,Incongruent,0,0,0,0,,,,,,,,,,,,,,,,,,,,,,,,,0,20,20,20,,,,,,,,,,,,,,,,,,,,,,,,,,,,,,,,,,,,,,,,,,,,,,,,,,,,,,,,,,,,,,,,,,,,,,,,,1.0061728358268738,1.1514574999455363,437.4872630999889,None,ScrollDown,정답입니다,437.4872630999889,None,437.4872630999889,None,437.4872630999889,None,437.4872630999889,None,438.5329018998891,None,438.5329018998891,439.0328664998524,,,,,,,,,,,,,,,,101,2023-03-27_10h29.07.541,FishGame,2022.1.1,59.887447496818794,
,22,나를 데려가줘,6,Green,B,0,0,ScrollDown,ScrollUp,Green.png,4,NonTarget,NonTarget,0,0,0,0,,,,,,,,,,,,,,,,,,,,,,,,,0,21,21,21,,,,,,,,,,,,,,,,,,,,,,,,,,,,,,,,,,,,,,,,,,,,,,,,,,,,,,,,,,,,,,,,,,,,,,,,,1.0679012437661488,0.9987061999272555,439.6548173998017,None,ScrollDown,정답입니다,439.6548173998017,None,439.6548173998017,None,439.6548173998017,None,439.6548173998017,None,440.54678009985946,None,440.54678009985946,441.04948099981993,,,,,,,,,,,,,,,,101,2023-03-27_10h29.07.541,FishGame,2022.1.1,59.887447496818794,
,23,넌 무정해,5,Orange,A,2.5,2.2,ScrollDown,ScrollUp,Orange.png,4,Negative,Incongruent,0,0,0,0,,,,,,,,,,,,,,,,,,,,,,,,,0,22,22,22,,,,,,,,,,,,,,,,,,,,,,,,,,,,,,,,,,,,,,,,,,,,,,,,,,,,,,,,,,,,,,,,,,,,,,,,,1,0.9456067001447082,441.6726885999087,None,ScrollDown,정답입니다,441.6726885999087,None,441.6726885999087,None,441.6726885999087,None,441.6726885999087,None,442.5132956998423,None,442.5132956998423,443.0159956999123,,,,,,,,,,,,,,,,101,2023-03-27_10h29.07.541,FishGame,2022.1.1,59.887447496818794,
,24,넌 긍정적이야,1,Green,B,6.041666666666667,6.066666666666666,ScrollUp,ScrollDown,Green.png,4,Positive,Incongruent,0,0,0,0,,,,,,,,,,,,,,,,,,,,,,,,,0,23,23,23,,,,,,,,,,,,,,,,,,,,,,,,,,,,,,,,,,,,,,,,,,,,,,,,,,,,,,,,,,,,,,,,,,,,,,,,,2,0.9456835999153554,443.64132519997656,None,ScrollUp,정답입니다,443.64132519997656,None,443.64132519997656,None,443.64132519997656,None,443.64132519997656,None,444.48259979998693,None,444.48259979998693,444.98266179999337,,,,,,,,,,,,,,,,101,2023-03-27_10h29.07.541,FishGame,2022.1.1,59.887447496818794,
,25,나를 보내줘,6,Orange,A,0,0,ScrollUp,ScrollDown,Orange.png,4,NonTarget,NonTarget,0,0,0,0,,,,,,,,,,,,,,,,,,,,,,,,,0,24,24,24,,,,,,,,,,,,,,,,,,,,,,,,,,,,,,,,,,,,,,,,,,,,,,,,,,,,,,,,,,,,,,,,,,,,,,,,,2,0.895956400083378,445.606400199933,None,ScrollUp,정답입니다,445.606400199933,None,445.606400199933,None,445.606400199933,None,445.606400199933,None,446.39673879998736,None,446.39673879998736,446.8992746998556,,,,,,,,,,,,,,,,101,2023-03-27_10h29.07.541,FishGame,2022.1.1,59.887447496818794,
,26,넌 시기심이 많아,5,Green,B,2.458333333333333,2.233333333333333,ScrollUp,ScrollDown,Green.png,4,Negative,Congruent,0,0,0,0,,,,,,,,,,,,,,,,,,,,,,,,,0,25,25,25,,,,,,,,,,,,,,,,,,,,,,,,,,,,,,,,,,,,,,,,,,,,,,,,,,,,,,,,,,,,,,,,,,,,,,,,,2,1.112320899963379,447.52637470001355,None,ScrollUp,정답입니다,447.52637470001355,None,447.52637470001355,None,447.52637470001355,None,447.52637470001355,None,448.52994069992565,None,448.52994069992565,449.03263469995,,,,,,,,,,,,,,,,101,2023-03-27_10h29.07.541,FishGame,2022.1.1,59.887447496818794,
,27,넌 탁월해,2,Orange,A,5.708333333333334,4.5,ScrollDown,ScrollUp,Orange.png,4,Positive,Congruent,0,0,0,0,,,,,,,,,,,,,,,,,,,,,,,,,0,26,26,26,,,,,,,,,,,,,,,,,,,,,,,,,,,,,,,,,,,,,,,,,,,,,,,,,,,,,,,,,,,,,,,,,,,,,,,,,1,1.1324916000012308,449.65611169999465,None,ScrollDown,정답입니다,449.65611169999465,None,449.65611169999465,None,449.65611169999465,None,449.65611169999465,None,450.6629110998474,None,450.6629110998474,451.1630481998436,,,,,,,,,,,,,,,,101,2023-03-27_10h29.07.541,FishGame,2022.1.1,59.887447496818794,
,28,나를 데려가줘,6,Green,B,0,0,ScrollDown,ScrollUp,Green.png,4,NonTarget,NonTarget,0,0,0,0,,,,,,,,,,,,,,,,,,,,,,,,,0,27,27,27,,,,,,,,,,,,,,,,,,,,,,,,,,,,,,,,,,,,,,,,,,,,,,,,,,,,,,,,,,,,,,,,,,,,,,,,,1,1.197983899852261,451.80371059989557,None,ScrollDown,정답입니다,451.80371059989557,None,451.80371059989557,None,451.80371059989557,None,451.80371059989557,None,452.8799542998895,None,452.8799542998895,453.38257009978406,,,,,,,,,,,,,,,,101,2023-03-27_10h29.07.541,FishGame,2022.1.1,59.887447496818794,
,29,넌 조용해,3,Green,B,4.333333333333333,4.166666666666667,ScrollUp,ScrollDown,Green.png,4,Neutral,Neutral,0,0,0,0,,,,,,,,,,,,,,,,,,,,,,,,,0,28,28,28,,,,,,,,,,,,,,,,,,,,,,,,,,,,,,,,,,,,,,,,,,,,,,,,,,,,,,,,,,,,,,,,,,,,,,,,,2,1.1818522999528795,454.0071658999659,None,ScrollUp,정답입니다,454.0071658999659,None,454.0071658999659,None,454.0071658999659,None,454.0071658999659,None,455.08259849995375,None,455.08259849995375,455.59614279982634,,,,,,,,,,,,,,,,101,2023-03-27_10h29.07.541,FishGame,2022.1.1,59.887447496818794,
,30,넌 다정해,1,Orange,A,5.833333333333334,5.7,ScrollDown,ScrollUp,Orange.png,4,Positive,Congruent,0,0,0,0,,,,,,,,,,,,,,,,,,,,,,,,,0,29,29,29,,,,,,,,,,,,,,,,,,,,,,,,,,,,,,,,,,,,,,,,,,,,,,,,,,,,,,,,,,,,,,,,,,,,,,,,,1,0.8965924000367522,456.2218052998651,None,ScrollDown,정답입니다,456.2218052998651,None,456.2218052998651,None,456.2218052998651,None,456.2218052998651,None,457.01281559979543,None,457.01281559979543,457.5128410998732,,,,,,,,,,,,,,,,101,2023-03-27_10h29.07.541,FishGame,2022.1.1,59.887447496818794,
,31,넌 능력있어,2,Green,B,6.166666666666666,4.6,ScrollUp,ScrollDown,Green.png,4,Positive,Incongruent,0,0,0,0,,,,,,,,,,,,,,,,,,,,,,,,,0,30,30,30,,,,,,,,,,,,,,,,,,,,,,,,,,,,,,,,,,,,,,,,,,,,,,,,,,,,,,,,,,,,,,,,,,,,,,,,,2,0.8817234002053738,458.13519469997846,None,ScrollUp,정답입니다,458.13519469997846,None,458.13519469997846,None,458.13519469997846,None,458.13519469997846,None,458.9130998000037,None,458.9130998000037,459.4157943997998,,,,,,,,,,,,,,,,101,2023-03-27_10h29.07.541,FishGame,2022.1.1,59.887447496818794,
,32,넌 불쾌해,5,Orange,A,2.125,1.933333333333333,ScrollDown,ScrollUp,Orange.png,4,Negative,Incongruent,0,0,0,0,,,,,,,,,,,,,,,,,,,,,,,,,0,31,31,31,,,,,,,,,,,,,,,,,,,,,,,,,,,,,,,,,,,,,,,,,,,,,,,,,,,,,,,,,,,,,,,,,,,,,,,,,1,0.9651238999795169,460.0397778998595,None,ScrollDown,정답입니다,460.0397778998595,None,460.0397778998595,None,460.0397778998595,None,460.0397778998595,None,460.896393999923,None,460.896393999923,461.39605519990437,,,,,,,,,,,,,,,,101,2023-03-27_10h29.07.541,FishGame,2022.1.1,59.887447496818794,
,33,나를 데려가줘,6,Green,B,0,0,ScrollDown,ScrollUp,Green.png,4,NonTarget,NonTarget,0,0,0,0,,,,,,,,,,,,,,,,,,,,,,,,,0,32,32,32,,,,,,,,,,,,,,,,,,,,,,,,,,,,,,,,,,,,,,,,,,,,,,,,,,,,,,,,,,,,,,,,,,,,,,,,,1,1.0483490999322385,462.0151336998679,None,ScrollDown,정답입니다,462.0151336998679,None,462.0151336998679,None,462.0151336998679,None,462.0151336998679,None,462.96275159996003,None,462.96275159996003,463.46273959986866,,,,,,,,,,,,,,,,101,2023-03-27_10h29.07.541,FishGame,2022.1.1,59.887447496818794,
,34,넌 유순해,3,Orange,A,4.458333333333333,5,ScrollDown,ScrollUp,Orange.png,4,Neutral,Neutral,0,0,0,0,,,,,,,,,,,,,,,,,,,,,,,,,0,33,33,33,,,,,,,,,,,,,,,,,,,,,,,,,,,,,,,,,,,,,,,,,,,,,,,,,,,,,,,,,,,,,,,,,,,,,,,,,1,0.8819569998886436,464.09548789984547,None,ScrollDown,정답입니다,464.09548789984547,None,464.09548789984547,None,464.09548789984547,None,464.09548789984547,None,464.8657069997862,None,464.8657069997862,465.3656883998774,,,,,,,,,,,,,,,,101,2023-03-27_10h29.07.541,FishGame,2022.1.1,59.887447496818794,
,35,넌 근심스러워,4,Green,B,2.708333333333333,3.133333333333333,ScrollUp,ScrollDown,Green.png,4,Negative,Congruent,0,0,0,0,,,,,,,,,,,,,,,,,,,,,,,,,0,34,34,34,,,,,,,,,,,,,,,,,,,,,,,,,,,,,,,,,,,,,,,,,,,,,,,,,,,,,,,,,,,,,,,,,,,,,,,,,2,0.9125038001220673,465.9911970999092,None,ScrollUp,정답입니다,465.9911970999092,None,465.9911970999092,None,465.9911970999092,None,465.9911970999092,None,466.7990898999851,None,466.7990898999851,467.30362659995444,,,,,,,,,,,,,,,,101,2023-03-27_10h29.07.541,FishGame,2022.1.1,59.887447496818794,
,36,넌 세련되었어,2,Orange,A,5.5,4.6,ScrollDown,ScrollUp,Orange.png,4,Positive,Congruent,0,0,0,0,,,,,,,,,,,,,,,,,,,,,,,,,0,35,35,35,,,,,,,,,,,,,,,,,,,,,,,,,,,,,,,,,,,,,,,,,,,,,,,,,,,,,,,,,,,,,,,,,,,,,,,,,1,0.9335711998865008,467.9419725998305,None,ScrollDown,정답입니다,467.9419725998305,None,467.9419725998305,None,467.9419725998305,None,467.9419725998305,None,468.7625639999751,None,468.7625639999751,469.2626205999404,,,,,,,,,,,,,,,,101,2023-03-27_10h29.07.541,FishGame,2022.1.1,59.887447496818794,
,37,나를 보내줘,6,Orange,A,0,0,ScrollUp,ScrollDown,Orange.png,4,NonTarget,NonTarget,0,0,0,0,,,,,,,,,,,,,,,,,,,,,,,,,0,36,36,36,,,,,,,,,,,,,,,,,,,,,,,,,,,,,,,,,,,,,,,,,,,,,,,,,,,,,,,,,,,,,,,,,,,,,,,,,1.9922839502493541,1.1331003999803215,469.88829889986664,None,ScrollUp,정답입니다,469.88829889986664,None,469.88829889986664,None,469.88829889986664,None,469.88829889986664,None,470.91289179981686,None,470.91289179981686,471.4161399998702,,,,,,,,,,,,,,,,101,2023-03-27_10h29.07.541,FishGame,2022.1.1,59.887447496818794,
,38,넌 확고해,3,Green,B,4.708333333333334,4.566666666666666,ScrollUp,ScrollDown,Green.png,4,Neutral,Neutral,0,0,0,0,,,,,,,,,,,,,,,,,,,,,,,,,0,37,37,37,,,,,,,,,,,,,,,,,,,,,,,,,,,,,,,,,,,,,,,,,,,,,,,,,,,,,,,,,,,,,,,,,,,,,,,,,2,0.8971634998451918,472.04048379999585,None,ScrollUp,정답입니다,472.04048379999585,None,472.04048379999585,None,472.04048379999585,None,472.04048379999585,None,472.82951159984805,None,472.82951159984805,473.33666569995694,,,,,,,,,,,,,,,,101,2023-03-27_10h29.07.541,FishGame,2022.1.1,59.887447496818794,
,39,넌 이해심이 많아,1,Green,B,6.041666666666668,5.533333333333333,ScrollUp,ScrollDown,Green.png,4,Positive,Incongruent,0,0,0,0,,,,,,,,,,,,,,,,,,,,,,,,,0,38,38,38,,,,,,,,,,,,,,,,,,,,,,,,,,,,,,,,,,,,,,,,,,,,,,,,,,,,,,,,,,,,,,,,,,,,,,,,,2,0.8318856998812407,473.9497260998469,None,ScrollUp,정답입니다,473.9497260998469,None,473.9497260998469,None,473.9497260998469,None,473.9497260998469,None,474.6791040999815,None,474.6791040999815,475.1791357998736,,,,,,,,,,,,,,,,101,2023-03-27_10h29.07.541,FishGame,2022.1.1,59.887447496818794,
,40,나를 보내줘,6,Orange,A,0,0,ScrollUp,ScrollDown,Orange.png,4,NonTarget,NonTarget,0,0,0,0,,,,,,,,,,,,,,,,,,,,,,,,,0,39,39,39,,,,,,,,,,,,,,,,,,,,,,,,,,,,,,,,,,,,,,,,,,,,,,,,,,,,,,,,,,,,,,,,,,,,,,,,,2,1.0978465001098812,475.81171539984643,None,ScrollUp,정답입니다,475.81171539984643,None,475.81171539984643,None,475.81171539984643,None,475.81171539984643,None,476.7988290998619,None,476.7988290998619,477.2988070999272,,,,,,,,,,,,,,,,101,2023-03-27_10h29.07.541,FishGame,2022.1.1,59.887447496818794,
,41,넌 거칠어,4,Orange,A,2.625,3.033333333333333,ScrollDown,ScrollUp,Orange.png,4,Negative,Incongruent,0,0,0,0,,,,,,,,,,,,,,,,,,,,,,,,,0,40,40,40,,,,,,,,,,,,,,,,,,,,,,,,,,,,,,,,,,,,,,,,,,,,,,,,,,,,,,,,,,,,,,,,,,,,,,,,,1.0046296219031017,0.895793299889192,477.93095969990827,None,ScrollDown,정답입니다,477.93095969990827,None,477.93095969990827,None,477.93095969990827,None,477.93095969990827,None,478.7154319998808,None,478.7154319998808,479.21541409986094,,,,,,,,,,,,,,,,101,2023-03-27_10h29.07.541,FishGame,2022.1.1,59.887447496818794,
,42,넌 변덕맞아,5,Green,B,2.75,2.166666666666667,ScrollUp,ScrollDown,Green.png,4,Negative,Congruent,0,0,0,0,,,,,,,,,,,,,,,,,,,,,,,,,0,41,41,41,,,,,,,,,,,,,,,,,,,,,,,,,,,,,,,,,,,,,,,,,,,,,,,,,,,,,,,,,,,,,,,,,,,,,,,,,2,0.8465025997720659,479.85839809989557,None,ScrollUp,정답입니다,479.85839809989557,None,479.85839809989557,None,479.85839809989557,None,479.85839809989557,None,480.5956877998542,None,480.5956877998542,481.0959618999623,,,,,,,,,,,,,,,,101,2023-03-27_10h29.07.541,FishGame,2022.1.1,59.887447496818794,
,43,나를 데려가줘,6,Green,B,0,0,ScrollDown,ScrollUp,Green.png,4,NonTarget,NonTarget,0,0,0,0,,,,,,,,,,,,,,,,,,,,,,,,,0,42,42,42,,,,,,,,,,,,,,,,,,,,,,,,,,,,,,,,,,,,,,,,,,,,,,,,,,,,,,,,,,,,,,,,,,,,,,,,,2,0.8317158001009375,481.7223555999808,None,ScrollUp,오답입니다,481.7223555999808,None,481.7223555999808,None,481.7223555999808,None,481.7223555999808,None,482.4460505999159,None,482.4460505999159,482.9487206998747,,,,,,,,,,,,,,,,101,2023-03-27_10h29.07.541,FishGame,2022.1.1,59.887447496818794,
,44,넌 외로워,4,Green,B,2.833333333333333,3.3,ScrollUp,ScrollDown,Green.png,4,Negative,Congruent,0,0,0,0,,,,,,,,,,,,,,,,,,,,,,,,,0,43,43,43,,,,,,,,,,,,,,,,,,,,,,,,,,,,,,,,,,,,,,,,,,,,,,,,,,,,,,,,,,,,,,,,,,,,,,,,,2,0.9620922000613064,483.57350299996324,None,ScrollUp,정답입니다,483.57350299996324,None,483.57350299996324,None,483.57350299996324,None,483.57350299996324,None,484.4293199998792,None,484.4293199998792,484.9319934998639,,,,,,,,,,,,,,,,101,2023-03-27_10h29.07.541,FishGame,2022.1.1,59.887447496818794,
,1,넌 불평스러워,5,Orange,A,2.25,2.066666666666667,ScrollDown,ScrollUp,Orange.png,5,Negative,Incongruent,0,0,0,0,,,,,,,,,,,,,,,,,,,,,,,,,,,,,0,0,0,0,,,,,,,,,,,,,,,,,,,,,,,,,,,,521.9949054999743,523.4950089999475,523.5285806998145,524.4782281999942,524.531430499861,525.4814283999149,525.4814283999149,None,,,,,,,,,,,,,,,,,,,,,,,,,,,,,,,,,,1,0.7957548999693245,526.5901799998246,None,ScrollDown,정답입니다,526.5901799998246,None,526.5901799998246,None,526.5901799998246,None,526.5901799998246,None,527.2811083998531,None,527.2811083998531,527.7810655999929,485.43645819998346,None,485.43645819998346,None,0.012037037,-0.13240741,1,0,0,0.016415809746831656,None,515.4481006998103,None,,,101,2023-03-27_10h29.07.541,FishGame,2022.1.1,59.887447496818794,
,2,나를 보내줘,6,Orange,A,0,0,ScrollUp,ScrollDown,Orange.png,5,NonTarget,NonTarget,0,0,0,0,,,,,,,,,,,,,,,,,,,,,,,,,,,,,0,1,1,1,,,,,,,,,,,,,,,,,,,,,,,,,,,,,,,,,,,,,,,,,,,,,,,,,,,,,,,,,,,,,,,,,,,,,2,0.9121954999864101,528.4048773997929,None,ScrollUp,정답입니다,528.4048773997929,None,528.4048773997929,None,528.4048773997929,None,528.4048773997929,None,529.211854999885,None,529.211854999885,529.7117871998344,,,,,,,,,,,,,,,,101,2023-03-27_10h29.07.541,FishGame,2022.1.1,59.887447496818794,
,3,넌 다재다능해,2,Green,B,6.208333333333333,4.5,ScrollUp,ScrollDown,Green.png,5,Positive,Incongruent,0,0,0,0,,,,,,,,,,,,,,,,,,,,,,,,,,,,,0,2,2,2,,,,,,,,,,,,,,,,,,,,,,,,,,,,,,,,,,,,,,,,,,,,,,,,,,,,,,,,,,,,,,,,,,,,,2,0.8129557999782264,530.3369644999038,None,ScrollUp,정답입니다,530.3369644999038,None,530.3369644999038,None,530.3369644999038,None,530.3369644999038,None,531.0477272998542,None,531.0477272998542,531.5477101998404,,,,,,,,,,,,,,,,101,2023-03-27_10h29.07.541,FishGame,2022.1.1,59.887447496818794,
,4,넌 과감해,3,Orange,A,4.833333333333334,4.6,ScrollDown,ScrollUp,Orange.png,5,Neutral,Neutral,0,0,0,0,,,,,,,,,,,,,,,,,,,,,,,,,,,,,0,3,3,3,,,,,,,,,,,,,,,,,,,,,,,,,,,,,,,,,,,,,,,,,,,,,,,,,,,,,,,,,,,,,,,,,,,,,1,0.982223300030455,532.1827463998925,None,ScrollDown,정답입니다,532.1827463998925,None,532.1827463998925,None,532.1827463998925,None,532.1827463998925,None,533.0613324998412,None,533.0613324998412,533.5613938998431,,,,,,,,,,,,,,,,101,2023-03-27_10h29.07.541,FishGame,2022.1.1,59.887447496818794,
,5,넌 고분고분해,3,Green,B,3.75,4.033333333333333,ScrollUp,ScrollDown,Green.png,5,Neutral,Neutral,0,0,0,0,,,,,,,,,,,,,,,,,,,,,,,,,,,,,0,4,4,4,,,,,,,,,,,,,,,,,,,,,,,,,,,,,,,,,,,,,,,,,,,,,,,,,,,,,,,,,,,,,,,,,,,,,2,0.8817952000536025,534.1861890999135,None,ScrollUp,정답입니다,534.1861890999135,None,534.1861890999135,None,534.1861890999135,None,534.1861890999135,None,534.9617132998537,None,534.9617132998537,535.4643363999203,,,,,,,,,,,,,,,,101,2023-03-27_10h29.07.541,FishGame,2022.1.1,59.887447496818794,
,6,나를 보내줘,6,Orange,A,0,0,ScrollUp,ScrollDown,Orange.png,5,NonTarget,NonTarget,0,0,0,0,,,,,,,,,,,,,,,,,,,,,,,,,,,,,0,5,5,5,,,,,,,,,,,,,,,,,,,,,,,,,,,,,,,,,,,,,,,,,,,,,,,,,,,,,,,,,,,,,,,,,,,,,2,1.0622690999880433,536.0883986998815,None,ScrollUp,정답입니다,536.0883986998815,None,536.0883986998815,None,536.0883986998815,None,536.0883986998815,None,537.0450281999074,None,537.0450281999074,537.5476119997911,,,,,,,,,,,,,,,,101,2023-03-27_10h29.07.541,FishGame,2022.1.1,59.887447496818794,
,7,넌 잘 잊어,4,Orange,A,3,3.7,ScrollDown,ScrollUp,Orange.png,5,Negative,Incongruent,0,0,0,0,,,,,,,,,,,,,,,,,,,,,,,,,,,,,0,6,6,6,,,,,,,,,,,,,,,,,,,,,,,,,,,,,,,,,,,,,,,,,,,,,,,,,,,,,,,,,,,,,,,,,,,,,1,0.8818567998241633,538.170671899803,None,ScrollDown,정답입니다,538.170671899803,None,538.170671899803,None,538.170671899803,None,538.170671899803,None,538.9445874998346,None,538.9445874998346,539.444605599856,,,,,,,,,,,,,,,,101,2023-03-27_10h29.07.541,FishGame,2022.1.1,59.887447496818794,
,8,넌 탐구심이없어,4,Green,B,2.833333333333333,3.066666666666667,ScrollUp,ScrollDown,Green.png,5,Negative,Congruent,0,0,0,0,,,,,,,,,,,,,,,,,,,,,,,,,,,,,0,7,7,7,,,,,,,,,,,,,,,,,,,,,,,,,,,,,,,,,,,,,,,,,,,,,,,,,,,,,,,,,,,,,,,,,,,,,2,0.8286041000392288,540.0798772999551,None,ScrollUp,정답입니다,540.0798772999551,None,540.0798772999551,None,540.0798772999551,None,540.0798772999551,None,540.7976331999525,None,540.7976331999525,541.297555899946,,,,,,,,,,,,,,,,101,2023-03-27_10h29.07.541,FishGame,2022.1.1,59.887447496818794,
,9,나를 데려가줘,6,Green,B,0,0,ScrollDown,ScrollUp,Green.png,5,NonTarget,NonTarget,0,0,0,0,,,,,,,,,,,,,,,,,,,,,,,,,,,,,0,8,8,8,,,,,,,,,,,,,,,,,,,,,,,,,,,,,,,,,,,,,,,,,,,,,,,,,,,,,,,,,,,,,,,,,,,,,1,1.0652640999760479,541.9194282998797,None,ScrollDown,정답입니다,541.9194282998797,None,541.9194282998797,None,541.9194282998797,None,541.9194282998797,None,542.8808716998901,None,542.8808716998901,543.3808567998931,,,,,,,,,,,,,,,,101,2023-03-27_10h29.07.541,FishGame,2022.1.1,59.887447496818794,
,10,넌 참되어,2,Orange,A,6.041666666666664,4.733333333333333,ScrollDown,ScrollUp,Orange.png,5,Positive,Congruent,0,0,0,0,,,,,,,,,,,,,,,,,,,,,,,,,,,,,0,9,9,9,,,,,,,,,,,,,,,,,,,,,,,,,,,,,,,,,,,,,,,,,,,,,,,,,,,,,,,,,,,,,,,,,,,,,1,0.8243684999179095,544.0190365999006,None,ScrollDown,정답입니다,544.0190365999006,None,544.0190365999006,None,544.0190365999006,None,544.0190365999006,None,544.7278179000132,None,544.7278179000132,545.2284758999012,,,,,,,,,,,,,,,,101,2023-03-27_10h29.07.541,FishGame,2022.1.1,59.887447496818794,
,11,넌 생기있어,1,Green,B,5.875,5.633333333333334,ScrollUp,ScrollDown,Green.png,5,Positive,Incongruent,0,0,0,0,,,,,,,,,,,,,,,,,,,,,,,,,,,,,0,10,10,10,,,,,,,,,,,,,,,,,,,,,,,,,,,,,,,,,,,,,,,,,,,,,,,,,,,,,,,,,,,,,,,,,,,,,2,0.7629886001814157,545.854895999888,None,ScrollUp,정답입니다,545.854895999888,None,545.854895999888,None,545.854895999888,None,545.854895999888,None,546.5111168997828,None,546.5111168997828,547.0111455000006,,,,,,,,,,,,,,,,101,2023-03-27_10h29.07.541,FishGame,2022.1.1,59.887447496818794,
,12,넌 비사교적이야,4,Green,B,2.875,2.9,ScrollUp,ScrollDown,Green.png,5,Negative,Congruent,0,0,0,0,,,,,,,,,,,,,,,,,,,,,,,,,,,,,0,11,11,11,,,,,,,,,,,,,,,,,,,,,,,,,,,,,,,,,,,,,,,,,,,,,,,,,,,,,,,,,,,,,,,,,,,,,2,0.7812705999240279,547.6457027997822,None,ScrollUp,정답입니다,547.6457027997822,None,547.6457027997822,None,547.6457027997822,None,547.6457027997822,None,548.3140891999938,None,548.3140891999938,548.8140729998704,,,,,,,,,,,,,,,,101,2023-03-27_10h29.07.541,FishGame,2022.1.1,59.887447496818794,
,13,나를 데려가줘,6,Green,B,0,0,ScrollDown,ScrollUp,Green.png,5,NonTarget,NonTarget,0,0,0,0,,,,,,,,,,,,,,,,,,,,,,,,,,,,,0,12,12,12,,,,,,,,,,,,,,,,,,,,,,,,,,,,,,,,,,,,,,,,,,,,,,,,,,,,,,,,,,,,,,,,,,,,,1,1.0125508001074195,549.4360632000025,None,ScrollDown,정답입니다,549.4360632000025,None,549.4360632000025,None,549.4360632000025,None,549.4360632000025,None,550.3474191999994,None,550.3474191999994,550.8473751000129,,,,,,,,,,,,,,,,101,2023-03-27_10h29.07.541,FishGame,2022.1.1,59.887447496818794,
,14,넌 고독해,4,Orange,A,2.916666666666667,3.233333333333333,ScrollDown,ScrollUp,Orange.png,5,Negative,Incongruent,0,0,0,0,,,,,,,,,,,,,,,,,,,,,,,,,,,,,0,13,13,13,,,,,,,,,,,,,,,,,,,,,,,,,,,,,,,,,,,,,,,,,,,,,,,,,,,,,,,,,,,,,,,,,,,,,1,0.9805812002159655,551.4713516999036,None,ScrollDown,정답입니다,551.4713516999036,None,551.4713516999036,None,551.4713516999036,None,551.4713516999036,None,552.3445358998142,None,552.3445358998142,552.8472336998675,,,,,,,,,,,,,,,,101,2023-03-27_10h29.07.541,FishGame,2022.1.1,59.887447496818794,
,15,넌 신경질적이야,5,Green,B,2.375,2.233333333333333,ScrollUp,ScrollDown,Green.png,5,Negative,Congruent,0,0,0,0,,,,,,,,,,,,,,,,,,,,,,,,,,,,,0,14,14,14,,,,,,,,,,,,,,,,,,,,,,,,,,,,,,,,,,,,,,,,,,,,,,,,,,,,,,,,,,,,,,,,,,,,,2,0.8626142998691648,553.4795995999593,None,ScrollUp,정답입니다,553.4795995999593,None,553.4795995999593,None,553.4795995999593,None,553.4795995999593,None,554.2305589998141,None,554.2305589998141,554.7305423999205,,,,,,,,,,,,,,,,101,2023-03-27_10h29.07.541,FishGame,2022.1.1,59.887447496818794,
,16,넌 똑똑해,2,Green,B,5.666666666666667,3.966666666666667,ScrollUp,ScrollDown,Green.png,5,Positive,Incongruent,0,0,0,0,,,,,,,,,,,,,,,,,,,,,,,,,,,,,0,15,15,15,,,,,,,,,,,,,,,,,,,,,,,,,,,,,,,,,,,,,,,,,,,,,,,,,,,,,,,,,,,,,,,,,,,,,2,0.9456470999866724,555.3637473999988,None,ScrollUp,정답입니다,555.3637473999988,None,555.3637473999988,None,555.3637473999988,None,555.3637473999988,None,556.1971872998402,None,556.1971872998402,556.71104319999,,,,,,,,,,,,,,,,101,2023-03-27_10h29.07.541,FishGame,2022.1.1,59.887447496818794,
,17,나를 보내줘,6,Orange,A,0,0,ScrollUp,ScrollDown,Orange.png,5,NonTarget,NonTarget,0,0,0,0,,,,,,,,,,,,,,,,,,,,,,,,,,,,,0,16,16,16,,,,,,,,,,,,,,,,,,,,,,,,,,,,,,,,,,,,,,,,,,,,,,,,,,,,,,,,,,,,,,,,,,,,,2,1.0624671999830753,557.320975399809,None,ScrollUp,정답입니다,557.320975399809,None,557.320975399809,None,557.320975399809,None,557.320975399809,None,558.2805516999215,None,558.2805516999215,558.7805162998848,,,,,,,,,,,,,,,,101,2023-03-27_10h29.07.541,FishGame,2022.1.1,59.887447496818794,
,18,넌 협조적이야,1,Orange,A,5.625,5.666666666666667,ScrollDown,ScrollUp,Orange.png,5,Positive,Congruent,0,0,0,0,,,,,,,,,,,,,,,,,,,,,,,,,,,,,0,17,17,17,,,,,,,,,,,,,,,,,,,,,,,,,,,,,,,,,,,,,,,,,,,,,,,,,,,,,,,,,,,,,,,,,,,,,1,0.9622716999147087,559.4102276999038,None,ScrollDown,정답입니다,559.4102276999038,None,559.4102276999038,None,559.4102276999038,None,559.4102276999038,None,560.261067799991,None,560.261067799991,560.7637670999393,,,,,,,,,,,,,,,,101,2023-03-27_10h29.07.541,FishGame,2022.1.1,59.887447496818794,
,19,나를 데려가줘,6,Green,B,0,0,ScrollDown,ScrollUp,Green.png,5,NonTarget,NonTarget,0,0,0,0,,,,,,,,,,,,,,,,,,,,,,,,,,,,,0,18,18,18,,,,,,,,,,,,,,,,,,,,,,,,,,,,,,,,,,,,,,,,,,,,,,,,,,,,,,,,,,,,,,,,,,,,,2,0.795731799909845,561.3852963999379,None,ScrollUp,오답입니다,561.3852963999379,None,561.3852963999379,None,561.3852963999379,None,561.3852963999379,None,562.0805150999222,None,562.0805150999222,562.5803912999108,,,,,,,,,,,,,,,,101,2023-03-27_10h29.07.541,FishGame,2022.1.1,59.887447496818794,
,20,넌 몰인정해,5,Green,B,2.541666666666667,2.066666666666667,ScrollUp,ScrollDown,Green.png,5,Negative,Congruent,0,0,0,0,,,,,,,,,,,,,,,,,,,,,,,,,,,,,0,19,19,19,,,,,,,,,,,,,,,,,,,,,,,,,,,,,,,,,,,,,,,,,,,,,,,,,,,,,,,,,,,,,,,,,,,,,2,1.0292738999705762,563.2073917998932,None,ScrollUp,정답입니다,563.2073917998932,None,563.2073917998932,None,563.2073917998932,None,563.2073917998932,None,564.1277330999728,None,564.1277330999728,564.6303645998705,,,,,,,,,,,,,,,,101,2023-03-27_10h29.07.541,FishGame,2022.1.1,59.887447496818794,
,21,나를 데려가줘,6,Green,B,0,0,ScrollDown,ScrollUp,Green.png,5,NonTarget,NonTarget,0,0,0,0,,,,,,,,,,,,,,,,,,,,,,,,,,,,,0,20,20,20,,,,,,,,,,,,,,,,,,,,,,,,,,,,,,,,,,,,,,,,,,,,,,,,,,,,,,,,,,,,,,,,,,,,,1.0231481393178303,0.9620451999362558,565.2532088998705,None,ScrollDown,정답입니다,565.2532088998705,None,565.2532088998705,None,565.2532088998705,None,565.2532088998705,None,566.1107669000048,None,566.1107669000048,566.6107276999392,,,,,,,,,,,,,,,,101,2023-03-27_10h29.07.541,FishGame,2022.1.1,59.887447496818794,
,22,넌 순진해,3,Green,B,4.125,4.166666666666667,ScrollUp,ScrollDown,Green.png,5,Neutral,Neutral,0,0,0,0,,,,,,,,,,,,,,,,,,,,,,,,,,,,,0,21,21,21,,,,,,,,,,,,,,,,,,,,,,,,,,,,,,,,,,,,,,,,,,,,,,,,,,,,,,,,,,,,,,,,,,,,,2,1.0949172000400722,567.2391048998106,None,ScrollUp,정답입니다,567.2391048998106,None,567.2391048998106,None,567.2391048998106,None,567.2391048998106,None,568.2273824999575,None,568.2273824999575,568.7303930998314,,,,,,,,,,,,,,,,101,2023-03-27_10h29.07.541,FishGame,2022.1.1,59.887447496818794,
,23,넌 신뢰할만해,1,Orange,A,6.625,5.533333333333333,ScrollDown,ScrollUp,Orange.png,5,Positive,Congruent,0,0,0,0,,,,,,,,,,,,,,,,,,,,,,,,,,,,,0,22,22,22,,,,,,,,,,,,,,,,,,,,,,,,,,,,,,,,,,,,,,,,,,,,,,,,,,,,,,,,,,,,,,,,,,,,,1.0138889054457347,1.1796026001684368,569.3607426998205,None,ScrollDown,정답입니다,569.3607426998205,None,569.3607426998205,None,569.3607426998205,None,569.3607426998205,None,570.4303966998123,None,570.4303966998123,570.9303384998348,,,,,,,,,,,,,,,,101,2023-03-27_10h29.07.541,FishGame,2022.1.1,59.887447496818794,
,24,나를 보내줘,6,Orange,A,0,0,ScrollUp,ScrollDown,Orange.png,5,NonTarget,NonTarget,0,0,0,0,,,,,,,,,,,,,,,,,,,,,,,,,,,,,0,23,23,23,,,,,,,,,,,,,,,,,,,,,,,,,,,,,,,,,,,,,,,,,,,,,,,,,,,,,,,,,,,,,,,,,,,,,1.9706790049870808,1.262608100194484,571.5548844998702,None,ScrollUp,정답입니다,571.5548844998702,None,571.5548844998702,None,571.5548844998702,None,571.5548844998702,None,572.7108261999674,None,572.7108261999674,573.2135015998501,,,,,,,,,,,,,,,,101,2023-03-27_10h29.07.541,FishGame,2022.1.1,59.887447496818794,
