name,TrialNum,Word,WordCategory,FishType,WordList,WordValence,WordReputation,CorrectResp,IncorrectResp,FishTypeFile,Round,WordType,Condition,LoopforOrange.thisRepN,LoopforOrange.thisTrialN,LoopforOrange.thisN,LoopforOrange.thisIndex,LoopForGreen.thisRepN,LoopForGreen.thisTrialN,LoopForGreen.thisN,LoopForGreen.thisIndex,GreenInstLoop.thisRepN,GreenInstLoop.thisTrialN,GreenInstLoop.thisN,GreenInstLoop.thisIndex,GreenPrac.thisRepN,GreenPrac.thisTrialN,GreenPrac.thisN,GreenPrac.thisIndex,trials_2.thisRepN,trials_2.thisTrialN,trials_2.thisN,trials_2.thisIndex,GreenRound1.thisRepN,GreenRound1.thisTrialN,GreenRound1.thisN,GreenRound1.thisIndex,GreenRound2.thisRepN,GreenRound2.thisTrialN,GreenRound2.thisN,GreenRound2.thisIndex,GreenRound3.thisRepN,GreenRound3.thisTrialN,GreenRound3.thisN,GreenRound3.thisIndex,GreenRound4.thisRepN,GreenRound4.thisTrialN,GreenRound4.thisN,GreenRound4.thisIndex,GreenRound5.thisRepN,GreenRound5.thisTrialN,GreenRound5.thisN,GreenRound5.thisIndex,text_2.started,text_2.stopped,text_3.started,text_3.stopped,key_resp.keys,key_resp.rt,key_resp.started,key_resp.stopped,PassI.started,PassI.stopped,PassInst.keys,PassInst.rt,PassInst.started,PassInst.stopped,mouse_2.x,mouse_2.y,mouse_2.leftButton,mouse_2.midButton,mouse_2.rightButton,mouse_2.started,mouse_2.stopped,image.started,image.stopped,text_5.started,text_5.stopped,text_6.started,text_6.stopped,text_7.started,text_7.stopped,text_8.started,text_8.stopped,slider_3.response,slider_3.rt,slider_3.started,slider_3.stopped,Response_3,Feedback_3,BackGround_3.started,BackGround_3.stopped,Fish_3.started,Fish_3.stopped,WordBox_3.started,WordBox_3.stopped,Words_3.started,Words_3.stopped,BackGround_Feedback_3.started,BackGround_Feedback_3.stopped,Feedbacks_3.started,Feedbacks_3.stopped,Continue_or_not_2.keys,Continue_or_not_2.rt,Continue_or_not_2.started,Continue_or_not_2.stopped,image_4.started,image_4.stopped,mouse_3.x,mouse_3.y,mouse_3.leftButton,mouse_3.midButton,mouse_3.rightButton,mouse_3.started,mouse_3.stopped,startmain.started,startmain.stopped,slider_4.response,slider_4.rt,slider_4.started,slider_4.stopped,Response_4,Feedback_4,BackGround_4.started,BackGround_4.stopped,Fish_4.started,Fish_4.stopped,WordBox_4.started,WordBox_4.stopped,Words_4.started,Words_4.stopped,BackGround_Feedback_4.started,BackGround_Feedback_4.stopped,Feedbacks_4.started,Feedbacks_4.stopped,text.started,text.stopped,break_interval.started,break_interval.stopped,mouse.x,mouse.y,mouse.leftButton,mouse.midButton,mouse.rightButton,mouse.started,mouse.stopped,stratnextround.started,stratnextround.stopped,endgame.started,endgame.stopped,participant,date,expName,psychopyVersion,frameRate,
,,,,,,,,,,,,,,,,,,,,,,,,,,,,,,,,,,,,,,,,,,,,,,,,,,,,,,19.1035499998834,None,19.1035499998834,None,space,2.247042100178078,19.59631529985927,None,,,,,,,,,,,,,,,,,,,,,,,,,,,,,,,,,,,,,,,,,,,,,,,,,,,,,,,,,,,,,,,,,,,,,,,,,,,,,,,,,,,,,,,,,,102,2023-03-28_13h57.14.732,FishGame,2022.1.1,60.121806812213734,
물고기과제_instruction(참가자용)GreenVersion.mp4,,,,,,,,,,,,,,,,,,0,0,0,0,0,0,0,0,,,,,,,,,,,,,,,,,,,,,,,,,,,,,,,,,,,,,96.20692169992253,None,n,2.6686859000474215,96.20692169992253,None,,,,,,,,,,,,,,,,,,,,,,,,,,,,,,,,,,,,,,,,,,,,,,,,,,,,,,,,,,,,,,,,,,,,,,,,,,,,,,,,,,,,102,2023-03-28_13h57.14.732,FishGame,2022.1.1,60.121806812213734,
,1,넌 교활해,5,Orange,B,2.333333333333333,2.133333333333333,ScrollUp,ScrollDown,Orange.png,practice,,,,,,,0,0,0,0,,,,,0,0,0,0,0,0,0,0,,,,,,,,,,,,,,,,,,,,,,,,,,,,,,,,,,,0.053703703,-0.21018519,1,0,0,0.5141700799576938,None,98.90685159992427,None,104.34002899983898,105.84014059999026,105.8734604998026,106.82775909989141,106.8778252999764,107.83715709997341,107.82334159989841,None,2,2.44520330009982,109.1149869998917,None,ScrollUp,정답입니다,109.1149869998917,None,109.1149869998917,None,109.1149869998917,None,109.1149869998917,None,111.25356399989687,None,111.25356399989687,111.75649219984189,,,,,,,,,,,,,,,,,,,,,,,,,,,,,,,,,,,,,,,,,,,,,,,,,102,2023-03-28_13h57.14.732,FishGame,2022.1.1,60.121806812213734,
,2,넌 슬기로워,2,Green,A,6.166666666666667,4.1,ScrollDown,ScrollUp,Green.png,practice,,,,,,,0,0,0,0,,,,,0,0,0,0,0,1,1,1,,,,,,,,,,,,,,,,,,,,,,,,,,,,,,,,,,,,,,,,,,,,,,,,,,,,1,1.7332778999116272,112.37861899985,None,ScrollDown,정답입니다,112.37861899985,None,112.37861899985,None,112.37861899985,None,112.37861899985,None,114.0064085999038,None,114.0064085999038,114.50644049979746,,,,,,,,,,,,,,,,,,,,,,,,,,,,,,,,,,,,,,,,,,,,,,,,,102,2023-03-28_13h57.14.732,FishGame,2022.1.1,60.121806812213734,
,3,나를 보내줘,6,Green,A,0,0,ScrollUp,ScrollDown,Green.png,practice,,,,,,,0,0,0,0,,,,,0,0,0,0,0,2,2,2,,,,,,,,,,,,,,,,,,,,,,,,,,,,,,,,,,,,,,,,,,,,,,,,,,,,2,1.6499274000525475,115.12940459977835,None,ScrollUp,정답입니다,115.12940459977835,None,115.12940459977835,None,115.12940459977835,None,115.12940459977835,None,116.67291739978828,None,116.67291739978828,117.1729320997838,,,,,,,,,,,,,,,,,,,,,,,,,,,,,,,,,,,,,,,,,,,,,,,,,102,2023-03-28_13h57.14.732,FishGame,2022.1.1,60.121806812213734,
,4,나를 데려가줘,6,Orange,B,0,0,ScrollDown,ScrollUp,Orange.png,practice,,,,,,,0,0,0,0,,,,,0,0,0,0,0,3,3,3,,,,,,,,,,,,,,,,,,,,,,,,,,,,,,,,,,,,,,,,,,,,,,,,,,,,1,1.5480527998879552,117.7966707998421,None,ScrollDown,정답입니다,117.7966707998421,None,117.7966707998421,None,117.7966707998421,None,117.7966707998421,None,119.23970839986578,None,119.23970839986578,119.73955529998057,,,,,,,,,,,,,,,,,,,,,,,,,,,,,,,,,,,,,,,,,,,,,,,,,102,2023-03-28_13h57.14.732,FishGame,2022.1.1,60.121806812213734,
,1,넌 교활해,5,Orange,B,2.333333333333333,2.133333333333333,ScrollUp,ScrollDown,Orange.png,practice,,,,,,,0,0,0,0,,,,,0,0,0,0,,,,,,,,,,,,,,,,,,,,,,,,,,,,,,,,,,,,,,,,,,,,,,,,,,,,,,,,,,,,,,,,,,,,,,,,,,y,9.383649400202557,120.2395872999914,None,120.2395872999914,None,,,,,,,,,,,,,,,,,,,,,,,,,,,,,,,,,,,,,,,,,,,102,2023-03-28_13h57.14.732,FishGame,2022.1.1,60.121806812213734,
,1,넌 교활해,5,Orange,B,2.333333333333333,2.133333333333333,ScrollUp,ScrollDown,Orange.png,practice,,,,,,,0,0,0,0,,,,,0,1,1,1,0,0,0,0,,,,,,,,,,,,,,,,,,,,,,,,,,,,,,,,,,,,,,,,,,,,,,,,,,,,2,1.4596902998164296,129.78280199994333,None,ScrollUp,정답입니다,129.78280199994333,None,129.78280199994333,None,129.78280199994333,None,129.78280199994333,None,131.13647589995526,None,131.13647589995526,131.63645359990187,,,,,,,,,,,,,,,,,,,,,,,,,,,,,,,,,,,,,,,,,,,,,,,,,102,2023-03-28_13h57.14.732,FishGame,2022.1.1,60.121806812213734,
,2,넌 슬기로워,2,Green,A,6.166666666666667,4.1,ScrollDown,ScrollUp,Green.png,practice,,,,,,,0,0,0,0,,,,,0,1,1,1,0,1,1,1,,,,,,,,,,,,,,,,,,,,,,,,,,,,,,,,,,,,,,,,,,,,,,,,,,,,1,1.0832942998968065,132.2592235999182,None,ScrollDown,정답입니다,132.2592235999182,None,132.2592235999182,None,132.2592235999182,None,132.2592235999182,None,133.23674549977295,None,133.23674549977295,133.73936069989577,,,,,,,,,,,,,,,,,,,,,,,,,,,,,,,,,,,,,,,,,,,,,,,,,102,2023-03-28_13h57.14.732,FishGame,2022.1.1,60.121806812213734,
,3,나를 보내줘,6,Green,A,0,0,ScrollUp,ScrollDown,Green.png,practice,,,,,,,0,0,0,0,,,,,0,1,1,1,0,2,2,2,,,,,,,,,,,,,,,,,,,,,,,,,,,,,,,,,,,,,,,,,,,,,,,,,,,,2,1.4780262999702245,134.35977839981206,None,ScrollUp,정답입니다,134.35977839981206,None,134.35977839981206,None,134.35977839981206,None,134.35977839981206,None,135.73633359977975,None,135.73633359977975,136.2363223999273,,,,,,,,,,,,,,,,,,,,,,,,,,,,,,,,,,,,,,,,,,,,,,,,,102,2023-03-28_13h57.14.732,FishGame,2022.1.1,60.121806812213734,
,4,나를 데려가줘,6,Orange,B,0,0,ScrollDown,ScrollUp,Orange.png,practice,,,,,,,0,0,0,0,,,,,0,1,1,1,0,3,3,3,,,,,,,,,,,,,,,,,,,,,,,,,,,,,,,,,,,,,,,,,,,,,,,,,,,,1,0.9338487000204623,136.86102059995756,None,ScrollDown,정답입니다,136.86102059995756,None,136.86102059995756,None,136.86102059995756,None,136.86102059995756,None,137.68634609994479,None,137.68634609994479,138.18931719986722,,,,,,,,,,,,,,,,,,,,,,,,,,,,,,,,,,,,,,,,,,,,,,,,,102,2023-03-28_13h57.14.732,FishGame,2022.1.1,60.121806812213734,
,2,넌 슬기로워,2,Green,A,6.166666666666667,4.1,ScrollDown,ScrollUp,Green.png,practice,,,,,,,0,0,0,0,,,,,0,1,1,1,,,,,,,,,,,,,,,,,,,,,,,,,,,,,,,,,,,,,,,,,,,,,,,,,,,,,,,,,,,,,,,,,,,,,,,,,,n,7.23218600009568,138.68932049977593,None,138.68932049977593,None,,,,,,,,,,,,,,,,,,,,,,,,,,,,,,,,,,,,,,,,,,,102,2023-03-28_13h57.14.732,FishGame,2022.1.1,60.121806812213734,
,1,넌 따뜻해,1,Orange,B,6.083333333333333,5.6,ScrollUp,ScrollDown,Orange.png,1,Positive,Incongruent,,,,,0,0,0,0,,,,,,,,,,,,,0,0,0,0,,,,,,,,,,,,,,,,,,,,,,,,,,,,,,,,,,,,,,,,147.22648119996302,148.73914649989456,148.75580199994147,149.705827599857,149.75584269990213,150.70577099989168,150.70577099989168,None,,,,,,,,,,,,,,,,,,,,,,,,,0.0027777778,-0.10925926,1,0,0,0.3151975800283253,None,145.93930569989607,None,2,1.7764089000411332,152.0027858999092,None,ScrollUp,정답입니다,152.0027858999092,None,152.0027858999092,None,152.0027858999092,None,152.0027858999092,None,153.46959809982218,None,153.46959809982218,153.97224979987368,,,,,,,,,,,,,,,,102,2023-03-28_13h57.14.732,FishGame,2022.1.1,60.121806812213734,
,2,넌 기품있어,2,Orange,B,5.791666666666668,4.5,ScrollUp,ScrollDown,Orange.png,1,Positive,Incongruent,,,,,0,0,0,0,,,,,,,,,,,,,0,1,1,1,,,,,,,,,,,,,,,,,,,,,,,,,,,,,,,,,,,,,,,,,,,,,,,,,,,,,,,,,,,,,,,,,,,,,,,,,,,,,,,,,2,1.548026599921286,154.60242539993487,None,ScrollUp,정답입니다,154.60242539993487,None,154.60242539993487,None,154.60242539993487,None,154.60242539993487,None,156.03904729988426,None,156.03904729988426,156.5388644998893,,,,,,,,,,,,,,,,102,2023-03-28_13h57.14.732,FishGame,2022.1.1,60.121806812213734,
,3,나를 보내줘,6,Green,A,0,0,ScrollUp,ScrollDown,Green.png,1,NonTarget,NonTarget,,,,,0,0,0,0,,,,,,,,,,,,,0,2,2,2,,,,,,,,,,,,,,,,,,,,,,,,,,,,,,,,,,,,,,,,,,,,,,,,,,,,,,,,,,,,,,,,,,,,,,,,,,,,,,,,,2,1.7813381999731064,157.19824769999832,None,ScrollUp,정답입니다,157.19824769999832,None,157.19824769999832,None,157.19824769999832,None,157.19824769999832,None,158.8554135998711,None,158.8554135998711,159.35545199993066,,,,,,,,,,,,,,,,102,2023-03-28_13h57.14.732,FishGame,2022.1.1,60.121806812213734,
,4,넌 수동적이야,4,Green,A,2.833333333333333,2.933333333333333,ScrollDown,ScrollUp,Green.png,1,Negative,Incongruent,,,,,0,0,0,0,,,,,,,,,,,,,0,3,3,3,,,,,,,,,,,,,,,,,,,,,,,,,,,,,,,,,,,,,,,,,,,,,,,,,,,,,,,,,,,,,,,,,,,,,,,,,,,,,,,,,1,1.7000247999094427,159.99199619982392,None,ScrollDown,정답입니다,159.99199619982392,None,159.99199619982392,None,159.99199619982392,None,159.99199619982392,None,161.5695240998175,None,161.5695240998175,162.07207859982736,,,,,,,,,,,,,,,,102,2023-03-28_13h57.14.732,FishGame,2022.1.1,60.121806812213734,
,5,넌 사심이 없어,3,Orange,B,4.916666666666666,4.333333333333333,ScrollUp,ScrollDown,Orange.png,1,Neutral,Neutral,,,,,0,0,0,0,,,,,,,,,,,,,0,4,4,4,,,,,,,,,,,,,,,,,,,,,,,,,,,,,,,,,,,,,,,,,,,,,,,,,,,,,,,,,,,,,,,,,,,,,,,,,,,,,,,,,2,1.500568499788642,162.70198419992812,None,ScrollUp,정답입니다,162.70198419992812,None,162.70198419992812,None,162.70198419992812,None,162.70198419992812,None,164.0887746999506,None,164.0887746999506,164.5887249999214,,,,,,,,,,,,,,,,102,2023-03-28_13h57.14.732,FishGame,2022.1.1,60.121806812213734,
,6,넌 헤퍼,5,Green,A,2.458333333333334,2.233333333333333,ScrollDown,ScrollUp,Green.png,1,Negative,Incongruent,,,,,0,0,0,0,,,,,,,,,,,,,0,5,5,5,,,,,,,,,,,,,,,,,,,,,,,,,,,,,,,,,,,,,,,,,,,,,,,,,,,,,,,,,,,,,,,,,,,,,,,,,,,,,,,,,1,1.6620728000998497,165.21684689982794,None,ScrollDown,정답입니다,165.21684689982794,None,165.21684689982794,None,165.21684689982794,None,165.21684689982794,None,166.7690437999554,None,166.7690437999554,167.27020199992694,,,,,,,,,,,,,,,,102,2023-03-28_13h57.14.732,FishGame,2022.1.1,60.121806812213734,
,7,넌 말쑥해,3,Green,A,4.833333333333334,4.333333333333333,ScrollDown,ScrollUp,Green.png,1,Neutral,Neutral,,,,,0,0,0,0,,,,,,,,,,,,,0,6,6,6,,,,,,,,,,,,,,,,,,,,,,,,,,,,,,,,,,,,,,,,,,,,,,,,,,,,,,,,,,,,,,,,,,,,,,,,,,,,,,,,,1,1.3196131000295281,167.894851999823,None,ScrollDown,정답입니다,167.894851999823,None,167.894851999823,None,167.894851999823,None,167.894851999823,None,169.10269839991815,None,169.10269839991815,169.60531729995273,,,,,,,,,,,,,,,,102,2023-03-28_13h57.14.732,FishGame,2022.1.1,60.121806812213734,
,8,넌 투덜거려,5,Orange,B,2.541666666666667,2.266666666666667,ScrollUp,ScrollDown,Orange.png,1,Negative,Congruent,,,,,0,0,0,0,,,,,,,,,,,,,0,7,7,7,,,,,,,,,,,,,,,,,,,,,,,,,,,,,,,,,,,,,,,,,,,,,,,,,,,,,,,,,,,,,,,,,,,,,,,,,,,,,,,,,2,1.2147035000380129,170.2379991998896,None,ScrollUp,정답입니다,170.2379991998896,None,170.2379991998896,None,170.2379991998896,None,170.2379991998896,None,171.33869529981166,None,171.33869529981166,171.8385958999861,,,,,,,,,,,,,,,,102,2023-03-28_13h57.14.732,FishGame,2022.1.1,60.121806812213734,
,9,넌 적극적이야,1,Green,A,5.708333333333333,5.533333333333333,ScrollDown,ScrollUp,Green.png,1,Positive,Congruent,,,,,0,0,0,0,,,,,,,,,,,,,0,8,8,8,,,,,,,,,,,,,,,,,,,,,,,,,,,,,,,,,,,,,,,,,,,,,,,,,,,,,,,,,,,,,,,,,,,,,,,,,,,,,,,,,1,1.1286732000298798,172.46359369996935,None,ScrollDown,정답입니다,172.46359369996935,None,172.46359369996935,None,172.46359369996935,None,172.46359369996935,None,173.48558359988965,None,173.48558359988965,173.9855991997756,,,,,,,,,,,,,,,,102,2023-03-28_13h57.14.732,FishGame,2022.1.1,60.121806812213734,
,10,넌 재미없어,4,Orange,B,2.625,2.966666666666667,ScrollUp,ScrollDown,Orange.png,1,Negative,Congruent,,,,,0,0,0,0,,,,,,,,,,,,,0,9,9,9,,,,,,,,,,,,,,,,,,,,,,,,,,,,,,,,,,,,,,,,,,,,,,,,,,,,,,,,,,,,,,,,,,,,,,,,,,,,,,,,,2,1.2332222000695765,174.61141799995676,None,ScrollUp,정답입니다,174.61141799995676,None,174.61141799995676,None,174.61141799995676,None,174.61141799995676,None,175.73558819992468,None,175.73558819992468,176.23855629982427,,,,,,,,,,,,,,,,102,2023-03-28_13h57.14.732,FishGame,2022.1.1,60.121806812213734,
,11,넌 명석해,2,Green,A,5.875,4.033333333333333,ScrollDown,ScrollUp,Green.png,1,Positive,Congruent,,,,,0,0,0,0,,,,,,,,,,,,,0,10,10,10,,,,,,,,,,,,,,,,,,,,,,,,,,,,,,,,,,,,,,,,,,,,,,,,,,,,,,,,,,,,,,,,,,,,,,,,,,,,,,,,,1,1.082949599949643,176.86760569992475,None,ScrollDown,정답입니다,176.86760569992475,None,176.86760569992475,None,176.86760569992475,None,176.86760569992475,None,177.838525199797,None,177.838525199797,178.3384750999976,,,,,,,,,,,,,,,,102,2023-03-28_13h57.14.732,FishGame,2022.1.1,60.121806812213734,
,12,나를 데려가줘,6,Orange,B,0,0,ScrollDown,ScrollUp,Orange.png,1,NonTarget,NonTarget,,,,,0,0,0,0,,,,,,,,,,,,,0,11,11,11,,,,,,,,,,,,,,,,,,,,,,,,,,,,,,,,,,,,,,,,,,,,,,,,,,,,,,,,,,,,,,,,,,,,,,,,,,,,,,,,,1,1.1625014999881387,178.96696979994886,None,ScrollDown,정답입니다,178.96696979994886,None,178.96696979994886,None,178.96696979994886,None,178.96696979994886,None,180.0046065999195,None,180.0046065999195,180.51876239990816,,,,,,,,,,,,,,,,102,2023-03-28_13h57.14.732,FishGame,2022.1.1,60.121806812213734,
,13,넌 소심해,4,Green,A,3,3.1,ScrollDown,ScrollUp,Green.png,1,Negative,Incongruent,,,,,0,0,0,0,,,,,,,,,,,,,0,12,12,12,,,,,,,,,,,,,,,,,,,,,,,,,,,,,,,,,,,,,,,,,,,,,,,,,,,,,,,,,,,,,,,,,,,,,,,,,,,,,,,,,1,1.6314460998401046,181.1411154998932,None,ScrollDown,정답입니다,181.1411154998932,None,181.1411154998932,None,181.1411154998932,None,181.1411154998932,None,182.6687751999125,None,182.6687751999125,183.17171589983627,,,,,,,,,,,,,,,,102,2023-03-28_13h57.14.732,FishGame,2022.1.1,60.121806812213734,
,14,넌 합리적이야,2,Green,A,5.583333333333333,4.733333333333333,ScrollDown,ScrollUp,Green.png,1,Positive,Congruent,,,,,0,0,0,0,,,,,,,,,,,,,0,13,13,13,,,,,,,,,,,,,,,,,,,,,,,,,,,,,,,,,,,,,,,,,,,,,,,,,,,,,,,,,,,,,,,,,,,,,,,,,,,,,,,,,1,1.0334955998696387,183.80027059977874,None,ScrollDown,정답입니다,183.80027059977874,None,183.80027059977874,None,183.80027059977874,None,183.80027059977874,None,184.72166819986887,None,184.72166819986887,185.2216942999512,,,,,,,,,,,,,,,,102,2023-03-28_13h57.14.732,FishGame,2022.1.1,60.121806812213734,
,15,넌 무자비해,5,Orange,B,2.333333333333333,2.1,ScrollUp,ScrollDown,Orange.png,1,Negative,Congruent,,,,,0,0,0,0,,,,,,,,,,,,,0,14,14,14,,,,,,,,,,,,,,,,,,,,,,,,,,,,,,,,,,,,,,,,,,,,,,,,,,,,,,,,,,,,,,,,,,,,,,,,,,,,,,,,,2,0.9615962000098079,185.8578280999791,None,ScrollUp,정답입니다,185.8578280999791,None,185.8578280999791,None,185.8578280999791,None,185.8578280999791,None,186.70197369996458,None,186.70197369996458,187.20196779980324,,,,,,,,,,,,,,,,102,2023-03-28_13h57.14.732,FishGame,2022.1.1,60.121806812213734,
,16,나를 보내줘,6,Green,A,0,0,ScrollUp,ScrollDown,Green.png,1,NonTarget,NonTarget,,,,,0,0,0,0,,,,,,,,,,,,,0,15,15,15,,,,,,,,,,,,,,,,,,,,,,,,,,,,,,,,,,,,,,,,,,,,,,,,,,,,,,,,,,,,,,,,,,,,,,,,,,,,,,,,,2,1.4330262998118997,187.82326519978233,None,ScrollUp,정답입니다,187.82326519978233,None,187.82326519978233,None,187.82326519978233,None,187.82326519978233,None,189.15486459992826,None,189.15486459992826,189.65488109993748,,,,,,,,,,,,,,,,102,2023-03-28_13h57.14.732,FishGame,2022.1.1,60.121806812213734,
,17,넌 현실적이야,3,Orange,B,4.608695652173913,4.766666666666667,ScrollUp,ScrollDown,Orange.png,1,Neutral,Neutral,,,,,0,0,0,0,,,,,,,,,,,,,0,16,16,16,,,,,,,,,,,,,,,,,,,,,,,,,,,,,,,,,,,,,,,,,,,,,,,,,,,,,,,,,,,,,,,,,,,,,,,,,,,,,,,,,2,1.2455632998608053,190.28337169997394,None,ScrollUp,정답입니다,190.28337169997394,None,190.28337169997394,None,190.28337169997394,None,190.28337169997394,None,191.42151189991273,None,191.42151189991273,191.92581699998118,,,,,,,,,,,,,,,,102,2023-03-28_13h57.14.732,FishGame,2022.1.1,60.121806812213734,
,18,넌 의리있어,1,Orange,B,5.833333333333334,5.633333333333334,ScrollUp,ScrollDown,Orange.png,1,Positive,Incongruent,,,,,0,0,0,0,,,,,,,,,,,,,0,17,17,17,,,,,,,,,,,,,,,,,,,,,,,,,,,,,,,,,,,,,,,,,,,,,,,,,,,,,,,,,,,,,,,,,,,,,,,,,,,,,,,,,2,0.8948073000647128,192.56727659981698,None,ScrollUp,정답입니다,192.56727659981698,None,192.56727659981698,None,192.56727659981698,None,192.56727659981698,None,193.35184619994834,None,193.35184619994834,193.85183339985088,,,,,,,,,,,,,,,,102,2023-03-28_13h57.14.732,FishGame,2022.1.1,60.121806812213734,
,19,넌 신경과민이야,5,Green,A,2.541666666666667,2.166666666666667,ScrollDown,ScrollUp,Green.png,1,Negative,Incongruent,,,,,0,0,0,0,,,,,,,,,,,,,0,18,18,18,,,,,,,,,,,,,,,,,,,,,,,,,,,,,,,,,,,,,,,,,,,,,,,,,,,,,,,,,,,,,,,,,,,,,,,,,,,,,,,,,1.182098776102066,0.8695789999328554,194.4805033998564,None,ScrollDown,정답입니다,194.4805033998564,None,194.4805033998564,None,194.4805033998564,None,194.4805033998564,None,195.23817869997583,None,195.23817869997583,195.73815399990417,,,,,,,,,,,,,,,,102,2023-03-28_13h57.14.732,FishGame,2022.1.1,60.121806812213734,
,20,넌 편안해,1,Green,A,5.916666666666666,5.866666666666666,ScrollDown,ScrollUp,Green.png,1,Positive,Congruent,,,,,0,0,0,0,,,,,,,,,,,,,0,19,19,19,,,,,,,,,,,,,,,,,,,,,,,,,,,,,,,,,,,,,,,,,,,,,,,,,,,,,,,,,,,,,,,,,,,,,,,,,,,,,,,,,1,0.9330664000008255,196.36420959979296,None,ScrollDown,정답입니다,196.36420959979296,None,196.36420959979296,None,196.36420959979296,None,196.36420959979296,None,197.1854632999748,None,197.1854632999748,197.68811309989542,,,,,,,,,,,,,,,,102,2023-03-28_13h57.14.732,FishGame,2022.1.1,60.121806812213734,
,21,넌 품위있어,2,Orange,B,5.291666666666666,4.466666666666667,ScrollUp,ScrollDown,Orange.png,1,Positive,Incongruent,,,,,0,0,0,0,,,,,,,,,,,,,0,20,20,20,,,,,,,,,,,,,,,,,,,,,,,,,,,,,,,,,,,,,,,,,,,,,,,,,,,,,,,,,,,,,,,,,,,,,,,,,,,,,,,,,2,0.9813675000332296,198.31502479990013,None,ScrollUp,정답입니다,198.31502479990013,None,198.31502479990013,None,198.31502479990013,None,198.31502479990013,None,199.18529179994948,None,199.18529179994948,199.68798809987493,,,,,,,,,,,,,,,,102,2023-03-28_13h57.14.732,FishGame,2022.1.1,60.121806812213734,
,22,넌 빈틈없어,3,Green,A,4.833333333333333,3.966666666666667,ScrollDown,ScrollUp,Green.png,1,Neutral,Neutral,,,,,0,0,0,0,,,,,,,,,,,,,0,21,21,21,,,,,,,,,,,,,,,,,,,,,,,,,,,,,,,,,,,,,,,,,,,,,,,,,,,,,,,,,,,,,,,,,,,,,,,,,,,,,,,,,1,1.3313863000366837,200.31711529986933,None,ScrollDown,정답입니다,200.31711529986933,None,200.31711529986933,None,200.31711529986933,None,200.31711529986933,None,201.5352860998828,None,201.5352860998828,202.03791279997677,,,,,,,,,,,,,,,,102,2023-03-28_13h57.14.732,FishGame,2022.1.1,60.121806812213734,
,23,넌 상상력없어,4,Orange,B,2.833333333333333,3.133333333333333,ScrollUp,ScrollDown,Orange.png,1,Negative,Congruent,,,,,0,0,0,0,,,,,,,,,,,,,0,22,22,22,,,,,,,,,,,,,,,,,,,,,,,,,,,,,,,,,,,,,,,,,,,,,,,,,,,,,,,,,,,,,,,,,,,,,,,,,,,,,,,,,2,1.0306997001171112,202.66572859999724,None,ScrollUp,정답입니다,202.66572859999724,None,202.66572859999724,None,202.66572859999724,None,202.66572859999724,None,203.5878964997828,None,203.5878964997828,204.08793479995802,,,,,,,,,,,,,,,,102,2023-03-28_13h57.14.732,FishGame,2022.1.1,60.121806812213734,
,24,넌 지혜로워,2,Orange,B,6.333333333333334,4.633333333333334,ScrollUp,ScrollDown,Orange.png,1,Positive,Incongruent,,,,,0,0,0,0,,,,,,,,,,,,,0,23,23,23,,,,,,,,,,,,,,,,,,,,,,,,,,,,,,,,,,,,,,,,,,,,,,,,,,,,,,,,,,,,,,,,,,,,,,,,,,,,,,,,,2,1.04559429991059,204.71766759990714,None,ScrollUp,정답입니다,204.71766759990714,None,204.71766759990714,None,204.71766759990714,None,204.71766759990714,None,205.65197829995304,None,205.65197829995304,206.15466899983585,,,,,,,,,,,,,,,,102,2023-03-28_13h57.14.732,FishGame,2022.1.1,60.121806812213734,
,25,넌 시끄러워,4,Green,A,2.833333333333333,3.033333333333333,ScrollDown,ScrollUp,Green.png,1,Negative,Incongruent,,,,,0,0,0,0,,,,,,,,,,,,,0,24,24,24,,,,,,,,,,,,,,,,,,,,,,,,,,,,,,,,,,,,,,,,,,,,,,,,,,,,,,,,,,,,,,,,,,,,,,,,,,,,,,,,,1.0262345671653748,0.8409264001529664,206.79242549999617,None,ScrollDown,정답입니다,206.79242549999617,None,206.79242549999617,None,206.79242549999617,None,206.79242549999617,None,207.51821149978787,None,207.51821149978787,208.01820959988981,,,,,,,,,,,,,,,,102,2023-03-28_13h57.14.732,FishGame,2022.1.1,60.121806812213734,
,26,넌 만사태평이야,3,Orange,B,4,4.333333333333333,ScrollUp,ScrollDown,Orange.png,1,Neutral,Neutral,,,,,0,0,0,0,,,,,,,,,,,,,0,25,25,25,,,,,,,,,,,,,,,,,,,,,,,,,,,,,,,,,,,,,,,,,,,,,,,,,,,,,,,,,,,,,,,,,,,,,,,,,,,,,,,,,1.9876543084780376,0.9493962000124156,208.65230059996247,None,ScrollUp,정답입니다,208.65230059996247,None,208.65230059996247,None,208.65230059996247,None,208.65230059996247,None,209.4880092998501,None,209.4880092998501,209.98789339978248,,,,,,,,,,,,,,,,102,2023-03-28_13h57.14.732,FishGame,2022.1.1,60.121806812213734,
,27,넌 붙임성있어,1,Green,A,5.708333333333333,5.633333333333334,ScrollDown,ScrollUp,Green.png,1,Positive,Congruent,,,,,0,0,0,0,,,,,,,,,,,,,0,26,26,26,,,,,,,,,,,,,,,,,,,,,,,,,,,,,,,,,,,,,,,,,,,,,,,,,,,,,,,,,,,,,,,,,,,,,,,,,,,,,,,,,1,0.7500179000198841,210.61503059999086,None,ScrollDown,정답입니다,210.61503059999086,None,210.61503059999086,None,210.61503059999086,None,210.61503059999086,None,211.25184819987044,None,211.25184819987044,211.75452269986272,,,,,,,,,,,,,,,,102,2023-03-28_13h57.14.732,FishGame,2022.1.1,60.121806812213734,
,28,넌 영리해,2,Green,A,6,4.033333333333333,ScrollDown,ScrollUp,Green.png,1,Positive,Congruent,,,,,0,0,0,0,,,,,,,,,,,,,0,27,27,27,,,,,,,,,,,,,,,,,,,,,,,,,,,,,,,,,,,,,,,,,,,,,,,,,,,,,,,,,,,,,,,,,,,,,,,,,,,,,,,,,1.0154321193695068,0.8284854998346418,212.379288099939,None,ScrollDown,정답입니다,212.379288099939,None,212.379288099939,None,212.379288099939,None,212.379288099939,None,213.1014654999599,None,213.1014654999599,213.6014865997713,,,,,,,,,,,,,,,,102,2023-03-28_13h57.14.732,FishGame,2022.1.1,60.121806812213734,
,29,넌 열심이야,1,Orange,B,6.041666666666667,5.833333333333333,ScrollUp,ScrollDown,Orange.png,1,Positive,Incongruent,,,,,0,0,0,0,,,,,,,,,,,,,0,28,28,28,,,,,,,,,,,,,,,,,,,,,,,,,,,,,,,,,,,,,,,,,,,,,,,,,,,,,,,,,,,,,,,,,,,,,,,,,,,,,,,,,1.884259248773257,0.8304558000527322,214.2298251998145,None,ScrollUp,정답입니다,214.2298251998145,None,214.2298251998145,None,214.2298251998145,None,214.2298251998145,None,214.9514957999345,None,214.9514957999345,215.4514434998855,,,,,,,,,,,,,,,,102,2023-03-28_13h57.14.732,FishGame,2022.1.1,60.121806812213734,
,30,넌 인기없어,4,Orange,B,3,3.3,ScrollUp,ScrollDown,Orange.png,1,Negative,Congruent,,,,,0,0,0,0,,,,,,,,,,,,,0,29,29,29,,,,,,,,,,,,,,,,,,,,,,,,,,,,,,,,,,,,,,,,,,,,,,,,,,,,,,,,,,,,,,,,,,,,,,,,,,,,,,,,,1.8873456766208012,0.8293671999126673,216.08211179985665,None,ScrollUp,정답입니다,216.08211179985665,None,216.08211179985665,None,216.08211179985665,None,216.08211179985665,None,216.80448559997603,None,216.80448559997603,217.3043831998948,,,,,,,,,,,,,,,,102,2023-03-28_13h57.14.732,FishGame,2022.1.1,60.121806812213734,
,31,넌 익살스러워,3,Green,A,4.708333333333334,4.833333333333333,ScrollDown,ScrollUp,Green.png,1,Neutral,Neutral,,,,,0,0,0,0,,,,,,,,,,,,,0,30,30,30,,,,,,,,,,,,,,,,,,,,,,,,,,,,,,,,,,,,,,,,,,,,,,,,,,,,,,,,,,,,,,,,,,,,,,,,,,,,,,,,,1.0231481393178303,0.7980404000263661,217.9320891997777,None,ScrollDown,정답입니다,217.9320891997777,None,217.9320891997777,None,217.9320891997777,None,217.9320891997777,None,218.62115649995394,None,218.62115649995394,219.12549449992366,,,,,,,,,,,,,,,,102,2023-03-28_13h57.14.732,FishGame,2022.1.1,60.121806812213734,
,32,넌 이기적이야,5,Orange,B,2.291666666666667,2.333333333333333,ScrollUp,ScrollDown,Orange.png,1,Negative,Congruent,,,,,0,0,0,0,,,,,,,,,,,,,0,31,31,31,,,,,,,,,,,,,,,,,,,,,,,,,,,,,,,,,,,,,,,,,,,,,,,,,,,,,,,,,,,,,,,,,,,,,,,,,,,,,,,,,2,0.9149428999517113,219.75675909989513,None,ScrollUp,정답입니다,219.75675909989513,None,219.75675909989513,None,219.75675909989513,None,219.75675909989513,None,220.56790279992856,None,220.56790279992856,221.06802679994144,,,,,,,,,,,,,,,,102,2023-03-28_13h57.14.732,FishGame,2022.1.1,60.121806812213734,
,33,나를 데려가줘,6,Orange,B,0,0,ScrollDown,ScrollUp,Orange.png,1,NonTarget,NonTarget,,,,,0,0,0,0,,,,,,,,,,,,,0,32,32,32,,,,,,,,,,,,,,,,,,,,,,,,,,,,,,,,,,,,,,,,,,,,,,,,,,,,,,,,,,,,,,,,,,,,,,,,,,,,,,,,,1.0679012437661488,1.2674323001410812,221.70271599991247,None,ScrollDown,정답입니다,221.70271599991247,None,221.70271599991247,None,221.70271599991247,None,221.70271599991247,None,222.85432499996386,None,222.85432499996386,223.35427049989812,,,,,,,,,,,,,,,,102,2023-03-28_13h57.14.732,FishGame,2022.1.1,60.121806812213734,
,34,넌 기회주의자야,5,Green,A,2.875,2.133333333333333,ScrollDown,ScrollUp,Green.png,1,Negative,Incongruent,,,,,0,0,0,0,,,,,,,,,,,,,0,33,33,33,,,,,,,,,,,,,,,,,,,,,,,,,,,,,,,,,,,,,,,,,,,,,,,,,,,,,,,,,,,,,,,,,,,,,,,,,,,,,,,,,1.0972222338120143,1.4125435999594629,223.98862909991294,None,ScrollDown,정답입니다,223.98862909991294,None,223.98862909991294,None,223.98862909991294,None,223.98862909991294,None,225.2705937998835,None,225.2705937998835,225.78452589991502,,,,,,,,,,,,,,,,102,2023-03-28_13h57.14.732,FishGame,2022.1.1,60.121806812213734,
,1,넌 미성숙해,4,Green,A,3,3.2,ScrollDown,ScrollUp,Green.png,2,Negative,Incongruent,,,,,0,0,0,0,,,,,,,,,,,,,,,,,0,0,0,0,,,,,,,,,,,,,,,,,,,,,,,,,,,,,,,,,,,,259.6868336999323,261.1840749999974,261.220193099929,262.17020419985056,262.2201746997889,263.1673609998543,263.1673609998543,None,,,,,,,,,,,,,,,,,,,,,,,,,,,,,,,,,,1.0478395124276478,0.8917465000413358,264.2707536998205,None,ScrollDown,정답입니다,264.2707536998205,None,264.2707536998205,None,264.2707536998205,None,264.2707536998205,None,265.050701999804,None,265.050701999804,265.5533122997731,226.28454909985885,None,226.28454909985885,None,0.25555557,-0.06944445,1,0,0,0.016108480049297214,None,256.2839099999983,None,,,102,2023-03-28_13h57.14.732,FishGame,2022.1.1,60.121806812213734,
,2,넌 반사회적이야,5,Orange,B,2.416666666666667,2.033333333333333,ScrollUp,ScrollDown,Orange.png,2,Negative,Congruent,,,,,0,0,0,0,,,,,,,,,,,,,,,,,0,1,1,1,,,,,,,,,,,,,,,,,,,,,,,,,,,,,,,,,,,,,,,,,,,,,,,,,,,,,,,,,,,,,,,,,,,,,,,,,,,,,2,0.8663475001230836,266.18117449991405,None,ScrollUp,정답입니다,266.18117449991405,None,266.18117449991405,None,266.18117449991405,None,266.18117449991405,None,266.93399199983105,None,266.93399199983105,267.4340086998418,,,,,,,,,,,,,,,,102,2023-03-28_13h57.14.732,FishGame,2022.1.1,60.121806812213734,
,3,넌 유능해,2,Green,A,6.208333333333333,4.433333333333334,ScrollDown,ScrollUp,Green.png,2,Positive,Congruent,,,,,0,0,0,0,,,,,,,,,,,,,,,,,0,2,2,2,,,,,,,,,,,,,,,,,,,,,,,,,,,,,,,,,,,,,,,,,,,,,,,,,,,,,,,,,,,,,,,,,,,,,,,,,,,,,1.0895061641931534,0.681689300108701,268.062907199841,None,ScrollDown,정답입니다,268.062907199841,None,268.062907199841,None,268.062907199841,None,268.062907199841,None,268.6340095999185,None,268.6340095999185,269.13365139998496,,,,,,,,,,,,,,,,102,2023-03-28_13h57.14.732,FishGame,2022.1.1,60.121806812213734,
,4,넌 능숙해,2,Orange,B,5.666666666666667,4.733333333333333,ScrollUp,ScrollDown,Orange.png,2,Positive,Incongruent,,,,,0,0,0,0,,,,,,,,,,,,,,,,,0,3,3,3,,,,,,,,,,,,,,,,,,,,,,,,,,,,,,,,,,,,,,,,,,,,,,,,,,,,,,,,,,,,,,,,,,,,,,,,,,,,,1.9969135920206706,0.7148405998013914,269.7555441998411,None,ScrollUp,정답입니다,269.7555441998411,None,269.7555441998411,None,269.7555441998411,None,269.7555441998411,None,270.36698239995167,None,270.36698239995167,270.8669423998799,,,,,,,,,,,,,,,,102,2023-03-28_13h57.14.732,FishGame,2022.1.1,60.121806812213734,
,5,넌 진부해,4,Orange,B,2.458333333333333,3.166666666666667,ScrollUp,ScrollDown,Orange.png,2,Negative,Congruent,,,,,0,0,0,0,,,,,,,,,,,,,,,,,0,4,4,4,,,,,,,,,,,,,,,,,,,,,,,,,,,,,,,,,,,,,,,,,,,,,,,,,,,,,,,,,,,,,,,,,,,,,,,,,,,,,1.9074074079593022,0.8172874001320451,271.49920969991945,None,ScrollUp,정답입니다,271.49920969991945,None,271.49920969991945,None,271.49920969991945,None,271.49920969991945,None,272.2033127998002,None,272.2033127998002,272.7032248999458,,,,,,,,,,,,,,,,102,2023-03-28_13h57.14.732,FishGame,2022.1.1,60.121806812213734,
,6,나를 보내줘,6,Green,A,0,0,ScrollUp,ScrollDown,Green.png,2,NonTarget,NonTarget,,,,,0,0,0,0,,,,,,,,,,,,,,,,,0,5,5,5,,,,,,,,,,,,,,,,,,,,,,,,,,,,,,,,,,,,,,,,,,,,,,,,,,,,,,,,,,,,,,,,,,,,,,,,,,,,,1.9429012537002563,1.2490989998914301,273.3260212999303,None,ScrollUp,정답입니다,273.3260212999303,None,273.3260212999303,None,273.3260212999303,None,273.3260212999303,None,274.47000899980776,None,274.47000899980776,274.96721409983,,,,,,,,,,,,,,,,102,2023-03-28_13h57.14.732,FishGame,2022.1.1,60.121806812213734,
,7,넌 엄격해,3,Green,A,4.166666666666666,4.1,ScrollDown,ScrollUp,Green.png,2,Neutral,Neutral,,,,,0,0,0,0,,,,,,,,,,,,,,,,,0,6,6,6,,,,,,,,,,,,,,,,,,,,,,,,,,,,,,,,,,,,,,,,,,,,,,,,,,,,,,,,,,,,,,,,,,,,,,,,,,,,,1.0262345671653748,0.8133240002207458,275.60865659988485,None,ScrollDown,정답입니다,275.60865659988485,None,275.60865659988485,None,275.60865659988485,None,275.60865659988485,None,276.3168539998587,None,276.3168539998587,276.81690929993056,,,,,,,,,,,,,,,,102,2023-03-28_13h57.14.732,FishGame,2022.1.1,60.121806812213734,
,8,나를 보내줘,6,Green,A,0,0,ScrollUp,ScrollDown,Green.png,2,NonTarget,NonTarget,,,,,0,0,0,0,,,,,,,,,,,,,,,,,0,7,7,7,,,,,,,,,,,,,,,,,,,,,,,,,,,,,,,,,,,,,,,,,,,,,,,,,,,,,,,,,,,,,,,,,,,,,,,,,,,,,1.9861110945542653,1.7011775998398662,277.4391355998814,None,ScrollUp,정답입니다,277.4391355998814,None,277.4391355998814,None,277.4391355998814,None,277.4391355998814,None,279.0365887999069,None,279.0365887999069,279.53646599990316,,,,,,,,,,,,,,,,102,2023-03-28_13h57.14.732,FishGame,2022.1.1,60.121806812213734,
,9,넌 대담해,3,Orange,B,4.875,4.866666666666666,ScrollUp,ScrollDown,Orange.png,2,Neutral,Neutral,,,,,0,0,0,0,,,,,,,,,,,,,,,,,0,8,8,8,,,,,,,,,,,,,,,,,,,,,,,,,,,,,,,,,,,,,,,,,,,,,,,,,,,,,,,,,,,,,,,,,,,,,,,,,,,,,1.9490740597248077,1.2482776001561433,280.16444599977694,None,ScrollUp,정답입니다,280.16444599977694,None,280.16444599977694,None,280.16444599977694,None,280.16444599977694,None,281.30307759996504,None,281.30307759996504,281.8030718998052,,,,,,,,,,,,,,,,102,2023-03-28_13h57.14.732,FishGame,2022.1.1,60.121806812213734,
,10,넌 꾸준해,1,Green,A,5.916666666666668,5.8,ScrollDown,ScrollUp,Green.png,2,Positive,Congruent,,,,,0,0,0,0,,,,,,,,,,,,,,,,,0,9,9,9,,,,,,,,,,,,,,,,,,,,,,,,,,,,,,,,,,,,,,,,,,,,,,,,,,,,,,,,,,,,,,,,,,,,,,,,,,,,,1.040123442808787,0.790870500029996,282.43913939991035,None,ScrollDown,정답입니다,282.43913939991035,None,282.43913939991035,None,282.43913939991035,None,282.43913939991035,None,283.11670369980857,None,283.11670369980857,283.6166937998496,,,,,,,,,,,,,,,,102,2023-03-28_13h57.14.732,FishGame,2022.1.1,60.121806812213734,
,11,나를 데려가줘,6,Orange,B,0,0,ScrollDown,ScrollUp,Orange.png,2,NonTarget,NonTarget,,,,,0,0,0,0,,,,,,,,,,,,,,,,,0,10,10,10,,,,,,,,,,,,,,,,,,,,,,,,,,,,,,,,,,,,,,,,,,,,,,,,,,,,,,,,,,,,,,,,,,,,,,,,,,,,,1,1.149938200134784,284.2393144997768,None,ScrollDown,정답입니다,284.2393144997768,None,284.2393144997768,None,284.2393144997768,None,284.2393144997768,None,285.28634749981575,None,285.28634749981575,285.7863662999589,,,,,,,,,,,,,,,,102,2023-03-28_13h57.14.732,FishGame,2022.1.1,60.121806812213734,
,12,넌 독선적이야,5,Green,A,2.458333333333333,1.933333333333333,ScrollDown,ScrollUp,Green.png,2,Negative,Incongruent,,,,,0,0,0,0,,,,,,,,,,,,,,,,,0,11,11,11,,,,,,,,,,,,,,,,,,,,,,,,,,,,,,,,,,,,,,,,,,,,,,,,,,,,,,,,,,,,,,,,,,,,,,,,,,,,,1.0293209950129192,0.8833349999040365,286.4128895998001,None,ScrollDown,정답입니다,286.4128895998001,None,286.4128895998001,None,286.4128895998001,None,286.4128895998001,None,287.18638239987195,None,287.18638239987195,287.68627249985,,,,,,,,,,,,,,,,102,2023-03-28_13h57.14.732,FishGame,2022.1.1,60.121806812213734,
,13,나를 보내줘,6,Green,A,0,0,ScrollUp,ScrollDown,Green.png,2,NonTarget,NonTarget,,,,,0,0,0,0,,,,,,,,,,,,,,,,,0,12,12,12,,,,,,,,,,,,,,,,,,,,,,,,,,,,,,,,,,,,,,,,,,,,,,,,,,,,,,,,,,,,,,,,,,,,,,,,,,,,,2,2.213895400054753,288.30868309992366,None,ScrollUp,정답입니다,288.30868309992366,None,288.30868309992366,None,288.30868309992366,None,288.30868309992366,None,290.4195574999321,None,290.4195574999321,290.9194925997872,,,,,,,,,,,,,,,,102,2023-03-28_13h57.14.732,FishGame,2022.1.1,60.121806812213734,
,14,넌 책임감있어,1,Orange,B,6.347826086956522,6,ScrollUp,ScrollDown,Orange.png,2,Positive,Incongruent,,,,,0,0,0,0,,,,,,,,,,,,,,,,,0,13,13,13,,,,,,,,,,,,,,,,,,,,,,,,,,,,,,,,,,,,,,,,,,,,,,,,,,,,,,,,,,,,,,,,,,,,,,,,,,,,,1.7947530895471573,1.5000996000599116,291.5475038997829,None,ScrollUp,정답입니다,291.5475038997829,None,291.5475038997829,None,291.5475038997829,None,291.5475038997829,None,292.9334875999484,None,292.9334875999484,293.43609799980186,,,,,,,,,,,,,,,,102,2023-03-28_13h57.14.732,FishGame,2022.1.1,60.121806812213734,
,15,넌 문학적이야,3,Green,A,4.708333333333334,4.333333333333333,ScrollDown,ScrollUp,Green.png,2,Neutral,Neutral,,,,,0,0,0,0,,,,,,,,,,,,,,,,,0,14,14,14,,,,,,,,,,,,,,,,,,,,,,,,,,,,,,,,,,,,,,,,,,,,,,,,,,,,,,,,,,,,,,,,,,,,,,,,,,,,,1,0.8140283001121134,294.06249069981277,None,ScrollDown,정답입니다,294.06249069981277,None,294.06249069981277,None,294.06249069981277,None,294.06249069981277,None,294.7694387999363,None,294.7694387999363,295.2695166999474,,,,,,,,,,,,,,,,102,2023-03-28_13h57.14.732,FishGame,2022.1.1,60.121806812213734,
,16,넌 재미있어,1,Orange,B,5.875,5.7,ScrollUp,ScrollDown,Orange.png,2,Positive,Incongruent,,,,,0,0,0,0,,,,,,,,,,,,,,,,,0,15,15,15,,,,,,,,,,,,,,,,,,,,,,,,,,,,,,,,,,,,,,,,,,,,,,,,,,,,,,,,,,,,,,,,,,,,,,,,,,,,,2,0.9621953999157995,295.8934020998422,None,ScrollUp,정답입니다,295.8934020998422,None,295.8934020998422,None,295.8934020998422,None,295.8934020998422,None,296.7501169999596,None,296.7501169999596,297.25273589999415,,,,,,,,,,,,,,,,102,2023-03-28_13h57.14.732,FishGame,2022.1.1,60.121806812213734,
,17,나를 데려가줘,6,Orange,B,0,0,ScrollDown,ScrollUp,Orange.png,2,NonTarget,NonTarget,,,,,0,0,0,0,,,,,,,,,,,,,,,,,0,16,16,16,,,,,,,,,,,,,,,,,,,,,,,,,,,,,,,,,,,,,,,,,,,,,,,,,,,,,,,,,,,,,,,,,,,,,,,,,,,,,1,1.1491694999858737,297.8773131999187,None,ScrollDown,정답입니다,297.8773131999187,None,297.8773131999187,None,297.8773131999187,None,297.8773131999187,None,298.9166272999719,None,298.9166272999719,299.4193135998212,,,,,,,,,,,,,,,,102,2023-03-28_13h57.14.732,FishGame,2022.1.1,60.121806812213734,
,18,넌 협력적이야,1,Green,A,5.625,5.633333333333334,ScrollDown,ScrollUp,Green.png,2,Positive,Congruent,,,,,0,0,0,0,,,,,,,,,,,,,,,,,0,17,17,17,,,,,,,,,,,,,,,,,,,,,,,,,,,,,,,,,,,,,,,,,,,,,,,,,,,,,,,,,,,,,,,,,,,,,,,,,,,,,1,0.8789276999887079,300.0444651998114,None,ScrollDown,정답입니다,300.0444651998114,None,300.0444651998114,None,300.0444651998114,None,300.0444651998114,None,300.81662499997765,None,300.81662499997765,301.3192064999603,,,,,,,,,,,,,,,,102,2023-03-28_13h57.14.732,FishGame,2022.1.1,60.121806812213734,
,19,넌 평범해,3,Orange,B,4.333333333333332,4.233333333333333,ScrollUp,ScrollDown,Orange.png,2,Neutral,Neutral,,,,,0,0,0,0,,,,,,,,,,,,,,,,,0,18,18,18,,,,,,,,,,,,,,,,,,,,,,,,,,,,,,,,,,,,,,,,,,,,,,,,,,,,,,,,,,,,,,,,,,,,,,,,,,,,,1.629629634320736,0.7807059998158365,301.9461753999349,None,ScrollUp,정답입니다,301.9461753999349,None,301.9461753999349,None,301.9461753999349,None,301.9461753999349,None,302.6192548999097,None,302.6192548999097,303.1193004997913,,,,,,,,,,,,,,,,102,2023-03-28_13h57.14.732,FishGame,2022.1.1,60.121806812213734,
,20,넌 오만해,5,Green,A,2.333333333333333,2,ScrollDown,ScrollUp,Green.png,2,Negative,Incongruent,,,,,0,0,0,0,,,,,,,,,,,,,,,,,0,19,19,19,,,,,,,,,,,,,,,,,,,,,,,,,,,,,,,,,,,,,,,,,,,,,,,,,,,,,,,,,,,,,,,,,,,,,,,,,,,,,1.0756172637144725,0.8146903999149799,303.74409599998035,None,ScrollDown,정답입니다,303.74409599998035,None,303.74409599998035,None,303.74409599998035,None,303.74409599998035,None,304.45275099994615,None,304.45275099994615,304.9526072998997,,,,,,,,,,,,,,,,102,2023-03-28_13h57.14.732,FishGame,2022.1.1,60.121806812213734,
,21,넌 운이없어,4,Orange,B,3,3.466666666666667,ScrollUp,ScrollDown,Orange.png,2,Negative,Congruent,,,,,0,0,0,0,,,,,,,,,,,,,,,,,0,20,20,20,,,,,,,,,,,,,,,,,,,,,,,,,,,,,,,,,,,,,,,,,,,,,,,,,,,,,,,,,,,,,,,,,,,,,,,,,,,,,1.879629631837209,0.7259609000757337,305.59050259995274,None,ScrollUp,정답입니다,305.59050259995274,None,305.59050259995274,None,305.59050259995274,None,305.59050259995274,None,306.19958539982326,None,306.19958539982326,306.69957249984145,,,,,,,,,,,,,,,,102,2023-03-28_13h57.14.732,FishGame,2022.1.1,60.121806812213734,
,22,넌 창조적이야,2,Orange,B,6.125,4.633333333333334,ScrollUp,ScrollDown,Orange.png,2,Positive,Incongruent,,,,,0,0,0,0,,,,,,,,,,,,,,,,,0,21,21,21,,,,,,,,,,,,,,,,,,,,,,,,,,,,,,,,,,,,,,,,,,,,,,,,,,,,,,,,,,,,,,,,,,,,,,,,,,,,,1.8657407313585281,1.0615373000036925,307.3331098998897,None,ScrollUp,정답입니다,307.3331098998897,None,307.3331098998897,None,307.3331098998897,None,307.3331098998897,None,308.2829249999486,None,308.2829249999486,308.785896099871,,,,,,,,,,,,,,,,102,2023-03-28_13h57.14.732,FishGame,2022.1.1,60.121806812213734,
,23,나를 보내줘,6,Green,A,0,0,ScrollUp,ScrollDown,Green.png,2,NonTarget,NonTarget,,,,,0,0,0,0,,,,,,,,,,,,,,,,,0,22,22,22,,,,,,,,,,,,,,,,,,,,,,,,,,,,,,,,,,,,,,,,,,,,,,,,,,,,,,,,,,,,,,,,,,,,,,,,,,,,,1.904320980111758,1.1499733999371529,309.4083688999526,None,ScrollUp,정답입니다,309.4083688999526,None,309.4083688999526,None,309.4083688999526,None,309.4083688999526,None,310.452585299965,None,310.452585299965,310.95258539984934,,,,,,,,,,,,,,,,102,2023-03-28_13h57.14.732,FishGame,2022.1.1,60.121806812213734,
,24,넌 통찰력있어,2,Green,A,6.5,4.8,ScrollDown,ScrollUp,Green.png,2,Positive,Congruent,,,,,0,0,0,0,,,,,,,,,,,,,,,,,0,23,23,23,,,,,,,,,,,,,,,,,,,,,,,,,,,,,,,,,,,,,,,,,,,,,,,,,,,,,,,,,,,,,,,,,,,,,,,,,,,,,1.0092592636744182,0.9426607999484986,311.5885334999766,None,ScrollDown,정답입니다,311.5885334999766,None,311.5885334999766,None,311.5885334999766,None,311.5885334999766,None,312.41614429978654,None,312.41614429978654,312.9161016999278,,,,,,,,,,,,,,,,102,2023-03-28_13h57.14.732,FishGame,2022.1.1,60.121806812213734,
,25,넌 경솔해,5,Orange,B,2.458333333333333,2.266666666666667,ScrollUp,ScrollDown,Orange.png,2,Negative,Congruent,,,,,0,0,0,0,,,,,,,,,,,,,,,,,0,24,24,24,,,,,,,,,,,,,,,,,,,,,,,,,,,,,,,,,,,,,,,,,,,,,,,,,,,,,,,,,,,,,,,,,,,,,,,,,,,,,2,1.569531099870801,313.5409135997761,None,ScrollUp,정답입니다,313.5409135997761,None,313.5409135997761,None,313.5409135997761,None,313.5409135997761,None,315.00246289977804,None,315.00246289977804,315.50241199997254,,,,,,,,,,,,,,,,102,2023-03-28_13h57.14.732,FishGame,2022.1.1,60.121806812213734,
,26,넌 초조해,4,Green,A,2.916666666666667,3.133333333333333,ScrollDown,ScrollUp,Green.png,2,Negative,Incongruent,,,,,0,0,0,0,,,,,,,,,,,,,,,,,0,25,25,25,,,,,,,,,,,,,,,,,,,,,,,,,,,,,,,,,,,,,,,,,,,,,,,,,,,,,,,,,,,,,,,,,,,,,,,,,,,,,1,0.8334220999386162,316.1265902998857,None,ScrollDown,정답입니다,316.1265902998857,None,316.1265902998857,None,316.1265902998857,None,316.1265902998857,None,316.8497234999668,None,316.8497234999668,317.35234389989637,,,,,,,,,,,,,,,,102,2023-03-28_13h57.14.732,FishGame,2022.1.1,60.121806812213734,
,27,넌 무관심해,4,Orange,B,2.833333333333333,2.9,ScrollUp,ScrollDown,Orange.png,2,Negative,Congruent,,,,,0,0,0,0,,,,,,,,,,,,,,,,,0,26,26,26,,,,,,,,,,,,,,,,,,,,,,,,,,,,,,,,,,,,,,,,,,,,,,,,,,,,,,,,,,,,,,,,,,,,,,,,,,,,,1.8518518557151158,1.0306794000789523,317.97915169992484,None,ScrollUp,정답입니다,317.97915169992484,None,317.97915169992484,None,317.97915169992484,None,317.97915169992484,None,318.89931979984976,None,318.89931979984976,319.39930439996533,,,,,,,,,,,,,,,,102,2023-03-28_13h57.14.732,FishGame,2022.1.1,60.121806812213734,
,28,넌 감성적이야,3,Orange,B,4.125,4.166666666666667,ScrollUp,ScrollDown,Orange.png,2,Neutral,Neutral,,,,,0,0,0,0,,,,,,,,,,,,,,,,,0,27,27,27,,,,,,,,,,,,,,,,,,,,,,,,,,,,,,,,,,,,,,,,,,,,,,,,,,,,,,,,,,,,,,,,,,,,,,,,,,,,,1.7283950646718345,0.9192003000061959,320.0256811999716,None,ScrollUp,정답입니다,320.0256811999716,None,320.0256811999716,None,320.0256811999716,None,320.0256811999716,None,320.8357359999791,None,320.8357359999791,321.33560169977136,,,,,,,,,,,,,,,,102,2023-03-28_13h57.14.732,FishGame,2022.1.1,60.121806812213734,
,29,넌 배려심있어,1,Green,A,6.083333333333333,5.5,ScrollDown,ScrollUp,Green.png,2,Positive,Congruent,,,,,0,0,0,0,,,,,,,,,,,,,,,,,0,28,28,28,,,,,,,,,,,,,,,,,,,,,,,,,,,,,,,,,,,,,,,,,,,,,,,,,,,,,,,,,,,,,,,,,,,,,,,,,,,,,1.0570987462997437,0.8474071000237018,321.96058729989454,None,ScrollDown,정답입니다,321.96058729989454,None,321.96058729989454,None,321.96058729989454,None,321.96058729989454,None,322.702220399864,None,322.702220399864,323.2022809998598,,,,,,,,,,,,,,,,102,2023-03-28_13h57.14.732,FishGame,2022.1.1,60.121806812213734,
,30,넌 숨김없어,3,Green,A,4.5,4.933333333333334,ScrollDown,ScrollUp,Green.png,2,Neutral,Neutral,,,,,0,0,0,0,,,,,,,,,,,,,,,,,0,29,29,29,,,,,,,,,,,,,,,,,,,,,,,,,,,,,,,,,,,,,,,,,,,,,,,,,,,,,,,,,,,,,,,,,,,,,,,,,,,,,1.0123456915219624,0.7335997999180108,323.8452252999414,None,ScrollDown,정답입니다,323.8452252999414,None,323.8452252999414,None,323.8452252999414,None,323.8452252999414,None,324.465890099993,None,324.465890099993,324.96585539984517,,,,,,,,,,,,,,,,102,2023-03-28_13h57.14.732,FishGame,2022.1.1,60.121806812213734,
,31,넌 훌륭해,2,Orange,B,5.916666666666667,4.033333333333333,ScrollUp,ScrollDown,Orange.png,2,Positive,Incongruent,,,,,0,0,0,0,,,,,,,,,,,,,,,,,0,30,30,30,,,,,,,,,,,,,,,,,,,,,,,,,,,,,,,,,,,,,,,,,,,,,,,,,,,,,,,,,,,,,,,,,,,,,,,,,,,,,1.7638888855775197,0.9502453999593854,325.59436639980413,None,ScrollUp,정답입니다,325.59436639980413,None,325.59436639980413,None,325.59436639980413,None,325.59436639980413,None,326.4354714998044,None,326.4354714998044,326.93554389989004,,,,,,,,,,,,,,,,102,2023-03-28_13h57.14.732,FishGame,2022.1.1,60.121806812213734,
,32,넌 슬기로워,2,Green,A,6.166666666666667,4.1,ScrollDown,ScrollUp,Green.png,2,Positive,Congruent,,,,,0,0,0,0,,,,,,,,,,,,,,,,,0,31,31,31,,,,,,,,,,,,,,,,,,,,,,,,,,,,,,,,,,,,,,,,,,,,,,,,,,,,,,,,,,,,,,,,,,,,,,,,,,,,,1.0493827263514202,0.8484328000340611,327.56019269977696,None,ScrollDown,정답입니다,327.56019269977696,None,327.56019269977696,None,327.56019269977696,None,327.56019269977696,None,328.29945979989134,None,328.29945979989134,328.80215509980917,,,,,,,,,,,,,,,,102,2023-03-28_13h57.14.732,FishGame,2022.1.1,60.121806812213734,
,33,넌 냉혹해,5,Green,A,2.583333333333333,2.1,ScrollDown,ScrollUp,Green.png,2,Negative,Incongruent,,,,,0,0,0,0,,,,,,,,,,,,,,,,,0,32,32,32,,,,,,,,,,,,,,,,,,,,,,,,,,,,,,,,,,,,,,,,,,,,,,,,,,,,,,,,,,,,,,,,,,,,,,,,,,,,,1.233024686574936,0.7954937999602407,329.4370038998313,None,ScrollDown,정답입니다,329.4370038998313,None,329.4370038998313,None,329.4370038998313,None,329.4370038998313,None,330.1160062998533,None,330.1160062998533,330.6186738999095,,,,,,,,,,,,,,,,102,2023-03-28_13h57.14.732,FishGame,2022.1.1,60.121806812213734,
,34,나를 데려가줘,6,Orange,B,0,0,ScrollDown,ScrollUp,Orange.png,2,NonTarget,NonTarget,,,,,0,0,0,0,,,,,,,,,,,,,,,,,0,33,33,33,,,,,,,,,,,,,,,,,,,,,,,,,,,,,,,,,,,,,,,,,,,,,,,,,,,,,,,,,,,,,,,,,,,,,,,,,,,,,1.0462962985038757,1.164864799939096,331.24544129986316,None,ScrollDown,정답입니다,331.24544129986316,None,331.24544129986316,None,331.24544129986316,None,331.24544129986316,None,332.30199059983715,None,332.30199059983715,332.80195389990695,,,,,,,,,,,,,,,,102,2023-03-28_13h57.14.732,FishGame,2022.1.1,60.121806812213734,
,35,넌 편파적이야,5,Orange,B,2.125,2,ScrollUp,ScrollDown,Orange.png,2,Negative,Congruent,,,,,0,0,0,0,,,,,,,,,,,,,,,,,0,34,34,34,,,,,,,,,,,,,,,,,,,,,,,,,,,,,,,,,,,,,,,,,,,,,,,,,,,,,,,,,,,,,,,,,,,,,,,,,,,,,1.7901234477758408,1.0502889000345021,333.43477859999985,None,ScrollUp,정답입니다,333.43477859999985,None,333.43477859999985,None,333.43477859999985,None,333.43477859999985,None,334.3686010998208,None,334.3686010998208,334.86859739990905,,,,,,,,,,,,,,,,102,2023-03-28_13h57.14.732,FishGame,2022.1.1,60.121806812213734,
,36,넌 슬퍼,4,Green,A,2.583333333333333,3.066666666666667,ScrollDown,ScrollUp,Green.png,2,Negative,Incongruent,,,,,0,0,0,0,,,,,,,,,,,,,,,,,0,35,35,35,,,,,,,,,,,,,,,,,,,,,,,,,,,,,,,,,,,,,,,,,,,,,,,,,,,,,,,,,,,,,,,,,,,,,,,,,,,,,1.115740751226743,1.198126900009811,335.490716899978,None,ScrollDown,정답입니다,335.490716899978,None,335.490716899978,None,335.490716899978,None,335.490716899978,None,336.58259049989283,None,336.58259049989283,337.08527129981667,,,,,,,,,,,,,,,,102,2023-03-28_13h57.14.732,FishGame,2022.1.1,60.121806812213734,
,37,나를 데려가줘,6,Orange,B,0,0,ScrollDown,ScrollUp,Orange.png,2,NonTarget,NonTarget,,,,,0,0,0,0,,,,,,,,,,,,,,,,,0,36,36,36,,,,,,,,,,,,,,,,,,,,,,,,,,,,,,,,,,,,,,,,,,,,,,,,,,,,,,,,,,,,,,,,,,,,,,,,,,,,,1.2469135870536168,1.048541999887675,337.70987709984183,None,ScrollDown,정답입니다,337.70987709984183,None,337.70987709984183,None,337.70987709984183,None,337.70987709984183,None,338.64918009983376,None,338.64918009983376,339.14919979986735,,,,,,,,,,,,,,,,102,2023-03-28_13h57.14.732,FishGame,2022.1.1,60.121806812213734,
,38,넌 친절해,1,Orange,B,6.041666666666667,5.533333333333333,ScrollUp,ScrollDown,Orange.png,2,Positive,Incongruent,,,,,0,0,0,0,,,,,,,,,,,,,,,,,0,37,37,37,,,,,,,,,,,,,,,,,,,,,,,,,,,,,,,,,,,,,,,,,,,,,,,,,,,,,,,,,,,,,,,,,,,,,,,,,,,,,1.5617283955216408,0.9168021001387388,339.779709499795,None,ScrollUp,정답입니다,339.779709499795,None,339.779709499795,None,339.779709499795,None,339.779709499795,None,340.5825512998272,None,340.5825512998272,341.0852161999792,,,,,,,,,,,,,,,,102,2023-03-28_13h57.14.732,FishGame,2022.1.1,60.121806812213734,
,1,넌 엉성해,4,Green,A,3,3.3,ScrollDown,ScrollUp,Green.png,3,Negative,Incongruent,,,,,0,0,0,0,,,,,,,,,,,,,,,,,,,,,0,0,0,0,,,,,,,,,,,,,,,,,,,,,,,,,,,,,,,,373.36793139996007,374.8723285999149,374.8891098999884,375.85121199977584,375.9012618998531,376.8512283999007,376.8512283999007,None,,,,,,,,,,,,,,,,,,,,,,,,,,,,,,,,,,1,1.1921800000127405,377.9518038998358,None,ScrollDown,정답입니다,377.9518038998358,None,377.9518038998358,None,377.9518038998358,None,377.9518038998358,None,379.0344198998064,None,379.0344198998064,379.53437239979394,341.58522449992597,None,341.58522449992597,None,0.21944444,-0.10462963,1,0,0,0.01636097999289632,None,371.59824469988234,None,,,102,2023-03-28_13h57.14.732,FishGame,2022.1.1,60.121806812213734,
,2,나를 보내줘,6,Green,A,0,0,ScrollUp,ScrollDown,Green.png,3,NonTarget,NonTarget,,,,,0,0,0,0,,,,,,,,,,,,,,,,,,,,,0,1,1,1,,,,,,,,,,,,,,,,,,,,,,,,,,,,,,,,,,,,,,,,,,,,,,,,,,,,,,,,,,,,,,,,,,,,,,,,,1.6882716019948325,1.4332211001310498,380.16015789983794,None,ScrollUp,정답입니다,380.16015789983794,None,380.16015789983794,None,380.16015789983794,None,380.16015789983794,None,381.48453269992024,None,381.48453269992024,381.9843513998203,,,,,,,,,,,,,,,,102,2023-03-28_13h57.14.732,FishGame,2022.1.1,60.121806812213734,
,3,넌 활발해,1,Orange,B,5.666666666666667,5.6,ScrollUp,ScrollDown,Orange.png,3,Positive,Incongruent,,,,,0,0,0,0,,,,,,,,,,,,,,,,,,,,,0,2,2,2,,,,,,,,,,,,,,,,,,,,,,,,,,,,,,,,,,,,,,,,,,,,,,,,,,,,,,,,,,,,,,,,,,,,,,,,,1.6080246890584626,1.017121999990195,382.61205319990404,None,ScrollUp,정답입니다,382.61205319990404,None,382.61205319990404,None,382.61205319990404,None,382.61205319990404,None,383.5150124998763,None,383.5150124998763,384.02206149999984,,,,,,,,,,,,,,,,102,2023-03-28_13h57.14.732,FishGame,2022.1.1,60.121806812213734,
,4,넌 논리적이야,2,Green,A,5.666666666666666,4.633333333333334,ScrollDown,ScrollUp,Green.png,3,Positive,Congruent,,,,,0,0,0,0,,,,,,,,,,,,,,,,,,,,,0,3,3,3,,,,,,,,,,,,,,,,,,,,,,,,,,,,,,,,,,,,,,,,,,,,,,,,,,,,,,,,,,,,,,,,,,,,,,,,,1.0895061641931534,0.830644299974665,384.64093679981306,None,ScrollDown,정답입니다,384.64093679981306,None,384.64093679981306,None,384.64093679981306,None,384.64093679981306,None,385.3646501998883,None,385.3646501998883,385.8647734997794,,,,,,,,,,,,,,,,102,2023-03-28_13h57.14.732,FishGame,2022.1.1,60.121806812213734,
,5,넌 과묵해,3,Green,A,3.875,4.4,ScrollDown,ScrollUp,Green.png,3,Neutral,Neutral,,,,,0,0,0,0,,,,,,,,,,,,,,,,,,,,,0,4,4,4,,,,,,,,,,,,,,,,,,,,,,,,,,,,,,,,,,,,,,,,,,,,,,,,,,,,,,,,,,,,,,,,,,,,,,,,,1.0493827263514202,0.813263599993661,386.49073429987766,None,ScrollDown,정답입니다,386.49073429987766,None,386.49073429987766,None,386.49073429987766,None,386.49073429987766,None,387.19825709983706,None,387.19825709983706,387.70109539991245,,,,,,,,,,,,,,,,102,2023-03-28_13h57.14.732,FishGame,2022.1.1,60.121806812213734,
,6,나를 데려가줘,6,Orange,B,0,0,ScrollDown,ScrollUp,Orange.png,3,NonTarget,NonTarget,,,,,0,0,0,0,,,,,,,,,,,,,,,,,,,,,0,5,5,5,,,,,,,,,,,,,,,,,,,,,,,,,,,,,,,,,,,,,,,,,,,,,,,,,,,,,,,,,,,,,,,,,,,,,,,,,1,1.0815452001988888,388.32624109997414,None,ScrollDown,정답입니다,388.32624109997414,None,388.32624109997414,None,388.32624109997414,None,388.32624109997414,None,389.2982586999424,None,389.2982586999424,389.80090189981274,,,,,,,,,,,,,,,,102,2023-03-28_13h57.14.732,FishGame,2022.1.1,60.121806812213734,
,7,넌 미숙해,4,Orange,B,3,3,ScrollUp,ScrollDown,Orange.png,3,Negative,Congruent,,,,,0,0,0,0,,,,,,,,,,,,,,,,,,,,,0,6,6,6,,,,,,,,,,,,,,,,,,,,,,,,,,,,,,,,,,,,,,,,,,,,,,,,,,,,,,,,,,,,,,,,,,,,,,,,,1.5154320988804102,0.7977841999381781,390.4262218999211,None,NoResponse,무응답입니다,390.4262218999211,None,390.4262218999211,None,390.4262218999211,None,390.4262218999211,None,391.1145637999289,None,391.1145637999289,391.61452219984494,,,,,,,,,,,,,,,,102,2023-03-28_13h57.14.732,FishGame,2022.1.1,60.121806812213734,
,8,나를 보내줘,6,Green,A,0,0,ScrollUp,ScrollDown,Green.png,3,NonTarget,NonTarget,,,,,0,0,0,0,,,,,,,,,,,,,,,,,,,,,0,7,7,7,,,,,,,,,,,,,,,,,,,,,,,,,,,,,,,,,,,,,,,,,,,,,,,,,,,,,,,,,,,,,,,,,,,,,,,,,2,1.8194324998185039,392.2367225999478,None,ScrollUp,정답입니다,392.2367225999478,None,392.2367225999478,None,392.2367225999478,None,392.2367225999478,None,393.950841399841,None,393.950841399841,394.4507952998392,,,,,,,,,,,,,,,,102,2023-03-28_13h57.14.732,FishGame,2022.1.1,60.121806812213734,
,9,넌 자신만만해,3,Orange,B,4.833333333333334,4.333333333333333,ScrollUp,ScrollDown,Orange.png,3,Neutral,Neutral,,,,,0,0,0,0,,,,,,,,,,,,,,,,,,,,,0,8,8,8,,,,,,,,,,,,,,,,,,,,,,,,,,,,,,,,,,,,,,,,,,,,,,,,,,,,,,,,,,,,,,,,,,,,,,,,,1.9490740597248077,1.496335599804297,395.0749739999883,None,ScrollUp,정답입니다,395.0749739999883,None,395.0749739999883,None,395.0749739999883,None,395.0749739999883,None,396.4644157998264,None,396.4644157998264,396.9644118999131,,,,,,,,,,,,,,,,102,2023-03-28_13h57.14.732,FishGame,2022.1.1,60.121806812213734,
,10,넌 탐욕스러워,5,Green,A,2.25,2.1,ScrollDown,ScrollUp,Green.png,3,Negative,Incongruent,,,,,0,0,0,0,,,,,,,,,,,,,,,,,,,,,0,9,9,9,,,,,,,,,,,,,,,,,,,,,,,,,,,,,,,,,,,,,,,,,,,,,,,,,,,,,,,,,,,,,,,,,,,,,,,,,1.0709876716136932,0.9309247001074255,397.5902760999743,None,ScrollDown,정답입니다,397.5902760999743,None,397.5902760999743,None,397.5902760999743,None,397.5902760999743,None,398.41457899985835,None,398.41457899985835,398.91738929995336,,,,,,,,,,,,,,,,102,2023-03-28_13h57.14.732,FishGame,2022.1.1,60.121806812213734,
,11,넌 인기있어,2,Green,A,5.458333333333333,4.5,ScrollDown,ScrollUp,Green.png,3,Positive,Congruent,,,,,0,0,0,0,,,,,,,,,,,,,,,,,,,,,0,10,10,10,,,,,,,,,,,,,,,,,,,,,,,,,,,,,,,,,,,,,,,,,,,,,,,,,,,,,,,,,,,,,,,,,,,,,,,,,1.0200617114702861,0.9166725999675691,399.5427268999629,None,ScrollDown,정답입니다,399.5427268999629,None,399.5427268999629,None,399.5427268999629,None,399.5427268999629,None,400.3506842998322,None,400.3506842998322,400.8673437999096,,,,,,,,,,,,,,,,102,2023-03-28_13h57.14.732,FishGame,2022.1.1,60.121806812213734,
,12,나를 데려가줘,6,Orange,B,0,0,ScrollDown,ScrollUp,Orange.png,3,NonTarget,NonTarget,,,,,0,0,0,0,,,,,,,,,,,,,,,,,,,,,0,11,11,11,,,,,,,,,,,,,,,,,,,,,,,,,,,,,,,,,,,,,,,,,,,,,,,,,,,,,,,,,,,,,,,,,,,,,,,,,1,1.063869700068608,401.4755676998757,None,ScrollDown,정답입니다,401.4755676998757,None,401.4755676998757,None,401.4755676998757,None,401.4755676998757,None,402.4309665998444,None,402.4309665998444,402.93095849989913,,,,,,,,,,,,,,,,102,2023-03-28_13h57.14.732,FishGame,2022.1.1,60.121806812213734,
,13,넌 뛰어나,2,Orange,B,6.166666666666667,4,ScrollUp,ScrollDown,Orange.png,3,Positive,Incongruent,,,,,0,0,0,0,,,,,,,,,,,,,,,,,,,,,0,12,12,12,,,,,,,,,,,,,,,,,,,,,,,,,,,,,,,,,,,,,,,,,,,,,,,,,,,,,,,,,,,,,,,,,,,,,,,,,1.817901223897934,1.1327412999235094,403.5657239998691,None,ScrollUp,정답입니다,403.5657239998691,None,403.5657239998691,None,403.5657239998691,None,403.5657239998691,None,404.583903899882,None,404.583903899882,405.08394129993394,,,,,,,,,,,,,,,,102,2023-03-28_13h57.14.732,FishGame,2022.1.1,60.121806812213734,
,14,넌 낙관적이야,1,Green,A,5.75,5.8,ScrollDown,ScrollUp,Green.png,3,Positive,Congruent,,,,,0,0,0,0,,,,,,,,,,,,,,,,,,,,,0,13,13,13,,,,,,,,,,,,,,,,,,,,,,,,,,,,,,,,,,,,,,,,,,,,,,,,,,,,,,,,,,,,,,,,,,,,,,,,,1.2546296318372092,0.8140646999236196,405.70977229997516,None,ScrollDown,정답입니다,405.70977229997516,None,405.70977229997516,None,405.70977229997516,None,405.70977229997516,None,406.4172359998338,None,406.4172359998338,406.917207499966,,,,,,,,,,,,,,,,102,2023-03-28_13h57.14.732,FishGame,2022.1.1,60.121806812213734,
,15,넌 산만해,4,Orange,B,2.695652173913043,3.033333333333333,ScrollUp,ScrollDown,Orange.png,3,Negative,Congruent,,,,,0,0,0,0,,,,,,,,,,,,,,,,,,,,,0,14,14,14,,,,,,,,,,,,,,,,,,,,,,,,,,,,,,,,,,,,,,,,,,,,,,,,,,,,,,,,,,,,,,,,,,,,,,,,,1.8966049353281658,0.8999008000828326,407.54402079991996,None,ScrollUp,정답입니다,407.54402079991996,None,407.54402079991996,None,407.54402079991996,None,407.54402079991996,None,408.3337863998022,None,408.3337863998022,408.83376249996945,,,,,,,,,,,,,,,,102,2023-03-28_13h57.14.732,FishGame,2022.1.1,60.121806812213734,
,16,나를 보내줘,6,Green,A,0,0,ScrollUp,ScrollDown,Green.png,3,NonTarget,NonTarget,,,,,0,0,0,0,,,,,,,,,,,,,,,,,,,,,0,15,15,15,,,,,,,,,,,,,,,,,,,,,,,,,,,,,,,,,,,,,,,,,,,,,,,,,,,,,,,,,,,,,,,,,,,,,,,,,1.7577160547176998,1.0648467000573874,409.4553820998408,None,ScrollUp,정답입니다,409.4553820998408,None,409.4553820998408,None,409.4553820998408,None,409.4553820998408,None,410.4143920999486,None,410.4143920999486,410.91704239998944,,,,,,,,,,,,,,,,102,2023-03-28_13h57.14.732,FishGame,2022.1.1,60.121806812213734,
,17,넌 교활해,5,Orange,B,2.333333333333333,2.133333333333333,ScrollUp,ScrollDown,Orange.png,3,Negative,Congruent,,,,,0,0,0,0,,,,,,,,,,,,,,,,,,,,,0,16,16,16,,,,,,,,,,,,,,,,,,,,,,,,,,,,,,,,,,,,,,,,,,,,,,,,,,,,,,,,,,,,,,,,,,,,,,,,,1.6712962985038757,0.983286099974066,411.5435328998137,None,ScrollUp,정답입니다,411.5435328998137,None,411.5435328998137,None,411.5435328998137,None,411.5435328998137,None,412.4170654998161,None,412.4170654998161,412.9170069999527,,,,,,,,,,,,,,,,102,2023-03-28_13h57.14.732,FishGame,2022.1.1,60.121806812213734,
,18,나를 보내줘,6,Green,A,0,0,ScrollUp,ScrollDown,Green.png,3,NonTarget,NonTarget,,,,,0,0,0,0,,,,,,,,,,,,,,,,,,,,,0,17,17,17,,,,,,,,,,,,,,,,,,,,,,,,,,,,,,,,,,,,,,,,,,,,,,,,,,,,,,,,,,,,,,,,,,,,,,,,,1.6496913532416024,1.0833066999912262,413.5391454999335,None,ScrollUp,정답입니다,413.5391454999335,None,413.5391454999335,None,413.5391454999335,None,413.5391454999335,None,414.51435009995475,None,414.51435009995475,415.0170290998649,,,,,,,,,,,,,,,,102,2023-03-28_13h57.14.732,FishGame,2022.1.1,60.121806812213734,
,19,넌 불친절해,5,Orange,B,2.208333333333333,2.033333333333333,ScrollUp,ScrollDown,Orange.png,3,Negative,Congruent,,,,,0,0,0,0,,,,,,,,,,,,,,,,,,,,,0,18,18,18,,,,,,,,,,,,,,,,,,,,,,,,,,,,,,,,,,,,,,,,,,,,,,,,,,,,,,,,,,,,,,,,,,,,,,,,,1.4398148121933143,0.9453289001248777,415.6443475999404,None,ScrollDown,오답입니다,415.6443475999404,None,415.6443475999404,None,415.6443475999404,None,415.6443475999404,None,416.48396039986983,None,416.48396039986983,416.98365739989094,,,,,,,,,,,,,,,,102,2023-03-28_13h57.14.732,FishGame,2022.1.1,60.121806812213734,
,20,넌 지적이야,2,Orange,B,5.75,4.366666666666666,ScrollUp,ScrollDown,Orange.png,3,Positive,Incongruent,,,,,0,0,0,0,,,,,,,,,,,,,,,,,,,,,0,19,19,19,,,,,,,,,,,,,,,,,,,,,,,,,,,,,,,,,,,,,,,,,,,,,,,,,,,,,,,,,,,,,,,,,,,,,,,,,1.9768518606821697,1.3625578999053687,417.6262935998384,None,ScrollUp,정답입니다,417.6262935998384,None,417.6262935998384,None,417.6262935998384,None,417.6262935998384,None,418.88087759981863,None,418.88087759981863,419.38356539979577,,,,,,,,,,,,,,,,102,2023-03-28_13h57.14.732,FishGame,2022.1.1,60.121806812213734,
,21,넌 우유부단해,4,Green,A,2.666666666666667,3.166666666666667,ScrollDown,ScrollUp,Green.png,3,Negative,Incongruent,,,,,0,0,0,0,,,,,,,,,,,,,,,,,,,,,0,20,20,20,,,,,,,,,,,,,,,,,,,,,,,,,,,,,,,,,,,,,,,,,,,,,,,,,,,,,,,,,,,,,,,,,,,,,,,,,1.1558641890684764,0.7667392001021653,420.00963099999353,None,ScrollDown,정답입니다,420.00963099999353,None,420.00963099999353,None,420.00963099999353,None,420.00963099999353,None,420.66686769993976,None,420.66686769993976,421.16686149989255,,,,,,,,,,,,,,,,102,2023-03-28_13h57.14.732,FishGame,2022.1.1,60.121806812213734,
,22,나를 데려가줘,6,Orange,B,0,0,ScrollDown,ScrollUp,Orange.png,3,NonTarget,NonTarget,,,,,0,0,0,0,,,,,,,,,,,,,,,,,,,,,0,21,21,21,,,,,,,,,,,,,,,,,,,,,,,,,,,,,,,,,,,,,,,,,,,,,,,,,,,,,,,,,,,,,,,,,,,,,,,,,1,1.4454789999872446,421.79149409988895,None,ScrollDown,정답입니다,421.79149409988895,None,421.79149409988895,None,421.79149409988895,None,421.79149409988895,None,423.13084679981694,None,423.13084679981694,423.6335117998533,,,,,,,,,,,,,,,,102,2023-03-28_13h57.14.732,FishGame,2022.1.1,60.121806812213734,
,23,넌 성실해,1,Orange,B,6.041666666666666,5.7,ScrollUp,ScrollDown,Orange.png,3,Positive,Incongruent,,,,,0,0,0,0,,,,,,,,,,,,,,,,,,,,,0,22,22,22,,,,,,,,,,,,,,,,,,,,,,,,,,,,,,,,,,,,,,,,,,,,,,,,,,,,,,,,,,,,,,,,,,,,,,,,,2,1.6166451999451965,424.2578672999516,None,ScrollUp,정답입니다,424.2578672999516,None,424.2578672999516,None,424.2578672999516,None,424.2578672999516,None,425.7641561999917,None,425.7641561999917,426.2712938999757,,,,,,,,,,,,,,,,102,2023-03-28_13h57.14.732,FishGame,2022.1.1,60.121806812213734,
,24,넌 현실주의적이야,3,Green,A,4.625,4.4,ScrollDown,ScrollUp,Green.png,3,Neutral,Neutral,,,,,0,0,0,0,,,,,,,,,,,,,,,,,,,,,0,23,23,23,,,,,,,,,,,,,,,,,,,,,,,,,,,,,,,,,,,,,,,,,,,,,,,,,,,,,,,,,,,,,,,,,,,,,,,,,1,0.9646034000907093,426.8849440999329,None,ScrollDown,정답입니다,426.8849440999329,None,426.8849440999329,None,426.8849440999329,None,426.8849440999329,None,427.7471166998148,None,427.7471166998148,428.24716529995203,,,,,,,,,,,,,,,,102,2023-03-28_13h57.14.732,FishGame,2022.1.1,60.121806812213734,
,25,넌 진실돼,1,Green,A,6.625,5.566666666666666,ScrollDown,ScrollUp,Green.png,3,Positive,Congruent,,,,,0,0,0,0,,,,,,,,,,,,,,,,,,,,,0,24,24,24,,,,,,,,,,,,,,,,,,,,,,,,,,,,,,,,,,,,,,,,,,,,,,,,,,,,,,,,,,,,,,,,,,,,,,,,,1,1.099726299988106,428.8725639998447,None,ScrollDown,정답입니다,428.8725639998447,None,428.8725639998447,None,428.8725639998447,None,428.8725639998447,None,429.8667613998987,None,429.8667613998987,430.3667780999094,,,,,,,,,,,,,,,,102,2023-03-28_13h57.14.732,FishGame,2022.1.1,60.121806812213734,
,26,넌 천진난만해,3,Orange,B,4.958333333333334,4.833333333333333,ScrollUp,ScrollDown,Orange.png,3,Neutral,Neutral,,,,,0,0,0,0,,,,,,,,,,,,,,,,,,,,,0,25,25,25,,,,,,,,,,,,,,,,,,,,,,,,,,,,,,,,,,,,,,,,,,,,,,,,,,,,,,,,,,,,,,,,,,,,,,,,,2,1.0138257998041809,430.9956488998141,None,ScrollUp,정답입니다,430.9956488998141,None,430.9956488998141,None,430.9956488998141,None,430.9956488998141,None,431.8999827997759,None,431.8999827997759,432.4136877998244,,,,,,,,,,,,,,,,102,2023-03-28_13h57.14.732,FishGame,2022.1.1,60.121806812213734,
,27,넌 교양없어,5,Green,A,2.416666666666667,2.2,ScrollDown,ScrollUp,Green.png,3,Negative,Incongruent,,,,,0,0,0,0,,,,,,,,,,,,,,,,,,,,,0,26,26,26,,,,,,,,,,,,,,,,,,,,,,,,,,,,,,,,,,,,,,,,,,,,,,,,,,,,,,,,,,,,,,,,,,,,,,,,,1,0.9965113999787718,433.04173159995116,None,ScrollDown,정답입니다,433.04173159995116,None,433.04173159995116,None,433.04173159995116,None,433.04173159995116,None,433.9303360998165,None,433.9303360998165,434.43037869990803,,,,,,,,,,,,,,,,102,2023-03-28_13h57.14.732,FishGame,2022.1.1,60.121806812213734,
,28,나를 보내줘,6,Green,A,0,0,ScrollUp,ScrollDown,Green.png,3,NonTarget,NonTarget,,,,,0,0,0,0,,,,,,,,,,,,,,,,,,,,,0,27,27,27,,,,,,,,,,,,,,,,,,,,,,,,,,,,,,,,,,,,,,,,,,,,,,,,,,,,,,,,,,,,,,,,,,,,,,,,,2,1.1982191000133753,435.0552493999712,None,ScrollUp,정답입니다,435.0552493999712,None,435.0552493999712,None,435.0552493999712,None,435.0552493999712,None,436.1499667998869,None,436.1499667998869,436.64993509999476,,,,,,,,,,,,,,,,102,2023-03-28_13h57.14.732,FishGame,2022.1.1,60.121806812213734,
,29,넌 엉뚱스러워,3,Green,A,4.166666666666667,4.133333333333334,ScrollDown,ScrollUp,Green.png,3,Neutral,Neutral,,,,,0,0,0,0,,,,,,,,,,,,,,,,,,,,,0,28,28,28,,,,,,,,,,,,,,,,,,,,,,,,,,,,,,,,,,,,,,,,,,,,,,,,,,,,,,,,,,,,,,,,,,,,,,,,,1,1.2970110999885947,437.27466649981216,None,ScrollDown,정답입니다,437.27466649981216,None,437.27466649981216,None,437.27466649981216,None,437.27466649981216,None,438.4635648999829,None,438.4635648999829,438.963635499822,,,,,,,,,,,,,,,,102,2023-03-28_13h57.14.732,FishGame,2022.1.1,60.121806812213734,
,30,넌 무지해,4,Orange,B,2.541666666666667,3.066666666666667,ScrollUp,ScrollDown,Orange.png,3,Negative,Congruent,,,,,0,0,0,0,,,,,,,,,,,,,,,,,,,,,0,29,29,29,,,,,,,,,,,,,,,,,,,,,,,,,,,,,,,,,,,,,,,,,,,,,,,,,,,,,,,,,,,,,,,,,,,,,,,,,1.8086419651905696,0.8978593000210822,439.58801309997216,None,ScrollUp,정답입니다,439.58801309997216,None,439.58801309997216,None,439.58801309997216,None,439.58801309997216,None,440.3802618999034,None,440.3802618999034,440.8832004999276,,,,,,,,,,,,,,,,102,2023-03-28_13h57.14.732,FishGame,2022.1.1,60.121806812213734,
,31,넌 음울해,5,Orange,B,2.25,2.233333333333333,ScrollUp,ScrollDown,Orange.png,3,Negative,Congruent,,,,,0,0,0,0,,,,,,,,,,,,,,,,,,,,,0,30,30,30,,,,,,,,,,,,,,,,,,,,,,,,,,,,,,,,,,,,,,,,,,,,,,,,,,,,,,,,,,,,,,,,,,,,,,,,,1.9768518606821697,1.1806163000874221,441.5112645998597,None,ScrollUp,정답입니다,441.5112645998597,None,441.5112645998597,None,441.5112645998597,None,441.5112645998597,None,442.5831433997955,None,442.5831433997955,443.0831436999142,,,,,,,,,,,,,,,,102,2023-03-28_13h57.14.732,FishGame,2022.1.1,60.121806812213734,
,32,넌 냉소적이야,5,Green,A,2.916666666666667,2.4,ScrollDown,ScrollUp,Green.png,3,Negative,Incongruent,,,,,0,0,0,0,,,,,,,,,,,,,,,,,,,,,0,31,31,31,,,,,,,,,,,,,,,,,,,,,,,,,,,,,,,,,,,,,,,,,,,,,,,,,,,,,,,,,,,,,,,,,,,,,,,,,1,0.9784964001737535,443.70604229997844,None,ScrollDown,정답입니다,443.70604229997844,None,443.70604229997844,None,443.70604229997844,None,443.70604229997844,None,444.58009509998374,None,444.58009509998374,445.08018039981835,,,,,,,,,,,,,,,,102,2023-03-28_13h57.14.732,FishGame,2022.1.1,60.121806812213734,
,33,나를 데려가줘,6,Orange,B,0,0,ScrollDown,ScrollUp,Orange.png,3,NonTarget,NonTarget,,,,,0,0,0,0,,,,,,,,,,,,,,,,,,,,,0,32,32,32,,,,,,,,,,,,,,,,,,,,,,,,,,,,,,,,,,,,,,,,,,,,,,,,,,,,,,,,,,,,,,,,,,,,,,,,,1,1.0622775999363512,445.7059492999688,None,ScrollDown,정답입니다,445.7059492999688,None,445.7059492999688,None,445.7059492999688,None,445.7059492999688,None,446.66345709981397,None,446.66345709981397,447.1664574998431,,,,,,,,,,,,,,,,102,2023-03-28_13h57.14.732,FishGame,2022.1.1,60.121806812213734,
,34,넌 쾌활해,1,Green,A,5.541666666666666,5.733333333333333,ScrollDown,ScrollUp,Green.png,3,Positive,Congruent,,,,,0,0,0,0,,,,,,,,,,,,,,,,,,,,,0,33,33,33,,,,,,,,,,,,,,,,,,,,,,,,,,,,,,,,,,,,,,,,,,,,,,,,,,,,,,,,,,,,,,,,,,,,,,,,,1.2623456766208014,2.0500560998916626,447.79127029981464,None,ScrollDown,정답입니다,447.79127029981464,None,447.79127029981464,None,447.79127029981464,None,447.79127029981464,None,449.7329656998627,None,449.7329656998627,450.2329599999357,,,,,,,,,,,,,,,,102,2023-03-28_13h57.14.732,FishGame,2022.1.1,60.121806812213734,
,35,나를 보내줘,6,Green,A,0,0,ScrollUp,ScrollDown,Green.png,3,NonTarget,NonTarget,,,,,0,0,0,0,,,,,,,,,,,,,,,,,,,,,0,34,34,34,,,,,,,,,,,,,,,,,,,,,,,,,,,,,,,,,,,,,,,,,,,,,,,,,,,,,,,,,,,,,,,,,,,,,,,,,2,1.2648704999592155,450.8551998999901,None,ScrollUp,정답입니다,450.8551998999901,None,450.8551998999901,None,450.8551998999901,None,450.8551998999901,None,452.01363659999333,None,452.01363659999333,452.5162932998501,,,,,,,,,,,,,,,,102,2023-03-28_13h57.14.732,FishGame,2022.1.1,60.121806812213734,
,36,넌 명랑해,1,Orange,B,5.739130434782609,5.666666666666667,ScrollUp,ScrollDown,Orange.png,3,Positive,Incongruent,,,,,0,0,0,0,,,,,,,,,,,,,,,,,,,,,0,35,35,35,,,,,,,,,,,,,,,,,,,,,,,,,,,,,,,,,,,,,,,,,,,,,,,,,,,,,,,,,,,,,,,,,,,,,,,,,1.9444444676240284,1.216694600181654,453.1427110999357,None,ScrollUp,정답입니다,453.1427110999357,None,453.1427110999357,None,453.1427110999357,None,453.1427110999357,None,454.24692299985327,None,454.24692299985327,454.74954239977524,,,,,,,,,,,,,,,,102,2023-03-28_13h57.14.732,FishGame,2022.1.1,60.121806812213734,
,37,넌 멍해,4,Green,A,2.833333333333333,3.4,ScrollDown,ScrollUp,Green.png,3,Negative,Incongruent,,,,,0,0,0,0,,,,,,,,,,,,,,,,,,,,,0,36,36,36,,,,,,,,,,,,,,,,,,,,,,,,,,,,,,,,,,,,,,,,,,,,,,,,,,,,,,,,,,,,,,,,,,,,,,,,,1,0.9997725998982787,455.37869209982455,None,ScrollDown,정답입니다,455.37869209982455,None,455.37869209982455,None,455.37869209982455,None,455.37869209982455,None,456.26346579985693,None,456.26346579985693,456.76616299990565,,,,,,,,,,,,,,,,102,2023-03-28_13h57.14.732,FishGame,2022.1.1,60.121806812213734,
,38,나를 데려가줘,6,Orange,B,0,0,ScrollDown,ScrollUp,Orange.png,3,NonTarget,NonTarget,,,,,0,0,0,0,,,,,,,,,,,,,,,,,,,,,0,37,37,37,,,,,,,,,,,,,,,,,,,,,,,,,,,,,,,,,,,,,,,,,,,,,,,,,,,,,,,,,,,,,,,,,,,,,,,,,1,1.464803900104016,457.3903248999268,None,ScrollDown,정답입니다,457.3903248999268,None,457.3903248999268,None,457.3903248999268,None,457.3903248999268,None,458.74939079978503,None,458.74939079978503,459.24942829995416,,,,,,,,,,,,,,,,102,2023-03-28_13h57.14.732,FishGame,2022.1.1,60.121806812213734,
,39,넌 현명해,2,Green,A,6.541666666666666,4.533333333333333,ScrollDown,ScrollUp,Green.png,3,Positive,Congruent,,,,,0,0,0,0,,,,,,,,,,,,,,,,,,,,,0,38,38,38,,,,,,,,,,,,,,,,,,,,,,,,,,,,,,,,,,,,,,,,,,,,,,,,,,,,,,,,,,,,,,,,,,,,,,,,,1,1.1335447998717427,459.8707539997995,None,ScrollDown,정답입니다,459.8707539997995,None,459.8707539997995,None,459.8707539997995,None,459.8707539997995,None,460.89678709977306,None,460.89678709977306,461.3994107998442,,,,,,,,,,,,,,,,102,2023-03-28_13h57.14.732,FishGame,2022.1.1,60.121806812213734,
,40,넌 수줍어,3,Orange,B,3.541666666666666,4.366666666666666,ScrollUp,ScrollDown,Orange.png,3,Neutral,Neutral,,,,,0,0,0,0,,,,,,,,,,,,,,,,,,,,,0,39,39,39,,,,,,,,,,,,,,,,,,,,,,,,,,,,,,,,,,,,,,,,,,,,,,,,,,,,,,,,,,,,,,,,,,,,,,,,,2,0.9784514000639319,462.0330967998598,None,ScrollUp,정답입니다,462.0330967998598,None,462.0330967998598,None,462.0330967998598,None,462.0330967998598,None,462.8966827997938,None,462.8966827997938,463.39931289991364,,,,,,,,,,,,,,,,102,2023-03-28_13h57.14.732,FishGame,2022.1.1,60.121806812213734,
,41,나를 데려가줘,6,Orange,B,0,0,ScrollDown,ScrollUp,Orange.png,3,NonTarget,NonTarget,,,,,0,0,0,0,,,,,,,,,,,,,,,,,,,,,0,40,40,40,,,,,,,,,,,,,,,,,,,,,,,,,,,,,,,,,,,,,,,,,,,,,,,,,,,,,,,,,,,,,,,,,,,,,,,,,1,1.7473305000457913,464.0241817999631,None,ScrollDown,정답입니다,464.0241817999631,None,464.0241817999631,None,464.0241817999631,None,464.0241817999631,None,465.6660294998437,None,465.6660294998437,466.16597119998187,,,,,,,,,,,,,,,,102,2023-03-28_13h57.14.732,FishGame,2022.1.1,60.121806812213734,
,42,넌 성숙해,2,Orange,B,5.833333333333333,4.533333333333333,ScrollUp,ScrollDown,Orange.png,3,Positive,Incongruent,,,,,0,0,0,0,,,,,,,,,,,,,,,,,,,,,0,41,41,41,,,,,,,,,,,,,,,,,,,,,,,,,,,,,,,,,,,,,,,,,,,,,,,,,,,,,,,,,,,,,,,,,,,,,,,,,2,1.6314112998079509,466.79556119977497,None,ScrollUp,정답입니다,466.79556119977497,None,466.79556119977497,None,466.79556119977497,None,466.79556119977497,None,468.3132905999664,None,468.3132905999664,468.8159683998674,,,,,,,,,,,,,,,,102,2023-03-28_13h57.14.732,FishGame,2022.1.1,60.121806812213734,
,1,넌 매력적이야,2,Orange,B,6.125,4.666666666666667,ScrollUp,ScrollDown,Orange.png,4,Positive,Incongruent,,,,,0,0,0,0,,,,,,,,,,,,,,,,,,,,,,,,,0,0,0,0,,,,,,,,,,,,,,,,,,,,,,,,,,,,503.0819648997858,504.58614249993116,504.6197714000009,505.5819475997705,505.61528879986145,506.5818965998478,506.56526249996386,None,,,,,,,,,,,,,,,,,,,,,,,,,,,,,,,,,,2,1.2908708001486957,507.6697696999181,None,ScrollUp,정답입니다,507.6697696999181,None,507.6697696999181,None,507.6697696999181,None,507.6697696999181,None,508.84835689980537,None,508.84835689980537,509.3484238998499,469.31598489987664,None,469.31598489987664,None,0.10555556,-0.12592593,1,0,0,0.016175180207937956,None,499.3152866999153,None,,,102,2023-03-28_13h57.14.732,FishGame,2022.1.1,60.121806812213734,
,2,나를 보내줘,6,Green,A,0,0,ScrollUp,ScrollDown,Green.png,4,NonTarget,NonTarget,,,,,0,0,0,0,,,,,,,,,,,,,,,,,,,,,,,,,0,1,1,1,,,,,,,,,,,,,,,,,,,,,,,,,,,,,,,,,,,,,,,,,,,,,,,,,,,,,,,,,,,,,,,,,,,,,2,1.366653700126335,509.97011409979314,None,ScrollUp,정답입니다,509.97011409979314,None,509.97011409979314,None,509.97011409979314,None,509.97011409979314,None,511.22891979990527,None,511.22891979990527,511.7317237998359,,,,,,,,,,,,,,,,102,2023-03-28_13h57.14.732,FishGame,2022.1.1,60.121806812213734,
,3,넌 조심스러워,3,Green,A,4.791666666666666,4.666666666666667,ScrollDown,ScrollUp,Green.png,4,Neutral,Neutral,,,,,0,0,0,0,,,,,,,,,,,,,,,,,,,,,,,,,0,2,2,2,,,,,,,,,,,,,,,,,,,,,,,,,,,,,,,,,,,,,,,,,,,,,,,,,,,,,,,,,,,,,,,,,,,,,1,1.0332747001666576,512.3600303998683,None,ScrollDown,정답입니다,512.3600303998683,None,512.3600303998683,None,512.3600303998683,None,512.3600303998683,None,513.2790673999116,None,513.2790673999116,513.7816249998286,,,,,,,,,,,,,,,,102,2023-03-28_13h57.14.732,FishGame,2022.1.1,60.121806812213734,
,4,넌 철학적이야,3,Orange,B,4.5,4.266666666666667,ScrollUp,ScrollDown,Orange.png,4,Neutral,Neutral,,,,,0,0,0,0,,,,,,,,,,,,,,,,,,,,,,,,,0,3,3,3,,,,,,,,,,,,,,,,,,,,,,,,,,,,,,,,,,,,,,,,,,,,,,,,,,,,,,,,,,,,,,,,,,,,,2,1.150017699925229,514.4082173998468,None,ScrollUp,정답입니다,514.4082173998468,None,514.4082173998468,None,514.4082173998468,None,514.4082173998468,None,515.4482800997794,None,515.4482800997794,515.9482373998035,,,,,,,,,,,,,,,,102,2023-03-28_13h57.14.732,FishGame,2022.1.1,60.121806812213734,
,5,넌 쩨쩨해,5,Green,A,2.375,2.133333333333333,ScrollDown,ScrollUp,Green.png,4,Negative,Incongruent,,,,,0,0,0,0,,,,,,,,,,,,,,,,,,,,,,,,,0,4,4,4,,,,,,,,,,,,,,,,,,,,,,,,,,,,,,,,,,,,,,,,,,,,,,,,,,,,,,,,,,,,,,,,,,,,,1,1.1168041001074016,516.5720756999217,None,ScrollDown,정답입니다,516.5720756999217,None,516.5720756999217,None,516.5720756999217,None,516.5720756999217,None,517.5789188998751,None,517.5789188998751,518.0815973998979,,,,,,,,,,,,,,,,102,2023-03-28_13h57.14.732,FishGame,2022.1.1,60.121806812213734,
,6,나를 데려가줘,6,Orange,B,0,0,ScrollDown,ScrollUp,Orange.png,4,NonTarget,NonTarget,,,,,0,0,0,0,,,,,,,,,,,,,,,,,,,,,,,,,0,5,5,5,,,,,,,,,,,,,,,,,,,,,,,,,,,,,,,,,,,,,,,,,,,,,,,,,,,,,,,,,,,,,,,,,,,,,1,1.1659701000899076,518.7073782999068,None,ScrollDown,정답입니다,518.7073782999068,None,518.7073782999068,None,518.7073782999068,None,518.7073782999068,None,519.762196799973,None,519.762196799973,520.2648766997736,,,,,,,,,,,,,,,,102,2023-03-28_13h57.14.732,FishGame,2022.1.1,60.121806812213734,
,7,넌 고집불통이야,5,Orange,B,2.875,2,ScrollUp,ScrollDown,Orange.png,4,Negative,Congruent,,,,,0,0,0,0,,,,,,,,,,,,,,,,,,,,,,,,,0,6,6,6,,,,,,,,,,,,,,,,,,,,,,,,,,,,,,,,,,,,,,,,,,,,,,,,,,,,,,,,,,,,,,,,,,,,,2,1.0799961001612246,520.8911700998433,None,ScrollUp,정답입니다,520.8911700998433,None,520.8911700998433,None,520.8911700998433,None,520.8911700998433,None,521.861875699833,None,521.861875699833,522.3619190999307,,,,,,,,,,,,,,,,102,2023-03-28_13h57.14.732,FishGame,2022.1.1,60.121806812213734,
,8,넌 무심해,4,Green,A,2.875,3.2,ScrollDown,ScrollUp,Green.png,4,Negative,Incongruent,,,,,0,0,0,0,,,,,,,,,,,,,,,,,,,,,,,,,0,7,7,7,,,,,,,,,,,,,,,,,,,,,,,,,,,,,,,,,,,,,,,,,,,,,,,,,,,,,,,,,,,,,,,,,,,,,1,0.7959338999353349,522.9863311999943,None,ScrollDown,정답입니다,522.9863311999943,None,522.9863311999943,None,522.9863311999943,None,522.9863311999943,None,523.6785094998777,None,523.6785094998777,524.1815291999374,,,,,,,,,,,,,,,,102,2023-03-28_13h57.14.732,FishGame,2022.1.1,60.121806812213734,
,9,넌 정겨워,1,Green,A,5.791666666666667,5.666666666666667,ScrollDown,ScrollUp,Green.png,4,Positive,Congruent,,,,,0,0,0,0,,,,,,,,,,,,,,,,,,,,,,,,,0,8,8,8,,,,,,,,,,,,,,,,,,,,,,,,,,,,,,,,,,,,,,,,,,,,,,,,,,,,,,,,,,,,,,,,,,,,,1,0.8808520999737084,524.8074331998359,None,ScrollDown,정답입니다,524.8074331998359,None,524.8074331998359,None,524.8074331998359,None,524.8074331998359,None,525.5815743999556,None,525.5815743999556,526.0814765999094,,,,,,,,,,,,,,,,102,2023-03-28_13h57.14.732,FishGame,2022.1.1,60.121806812213734,
,10,나를 데려가줘,6,Orange,B,0,0,ScrollDown,ScrollUp,Orange.png,4,NonTarget,NonTarget,,,,,0,0,0,0,,,,,,,,,,,,,,,,,,,,,,,,,0,9,9,9,,,,,,,,,,,,,,,,,,,,,,,,,,,,,,,,,,,,,,,,,,,,,,,,,,,,,,,,,,,,,,,,,,,,,1,1.2665840000845492,526.7060257999692,None,ScrollDown,정답입니다,526.7060257999692,None,526.7060257999692,None,526.7060257999692,None,526.7060257999692,None,527.8620202997699,None,527.8620202997699,528.3646708999295,,,,,,,,,,,,,,,,102,2023-03-28_13h57.14.732,FishGame,2022.1.1,60.121806812213734,
,11,넌 체제순응적이야,4,Orange,B,3,3.6,ScrollUp,ScrollDown,Orange.png,4,Negative,Congruent,,,,,0,0,0,0,,,,,,,,,,,,,,,,,,,,,,,,,0,10,10,10,,,,,,,,,,,,,,,,,,,,,,,,,,,,,,,,,,,,,,,,,,,,,,,,,,,,,,,,,,,,,,,,,,,,,1.919753094514211,1.0661069999914616,528.9983018999919,None,ScrollUp,정답입니다,528.9983018999919,None,528.9983018999919,None,528.9983018999919,None,528.9983018999919,None,529.9453172998037,None,529.9453172998037,530.4479571999982,,,,,,,,,,,,,,,,102,2023-03-28_13h57.14.732,FishGame,2022.1.1,60.121806812213734,
,12,나를 보내줘,6,Green,A,0,0,ScrollUp,ScrollDown,Green.png,4,NonTarget,NonTarget,,,,,0,0,0,0,,,,,,,,,,,,,,,,,,,,,,,,,0,11,11,11,,,,,,,,,,,,,,,,,,,,,,,,,,,,,,,,,,,,,,,,,,,,,,,,,,,,,,,,,,,,,,,,,,,,,2,1.13142260001041,531.0696210998576,None,ScrollUp,정답입니다,531.0696210998576,None,531.0696210998576,None,531.0696210998576,None,531.0696210998576,None,532.0953326998278,None,532.0953326998278,532.5979327999521,,,,,,,,,,,,,,,,102,2023-03-28_13h57.14.732,FishGame,2022.1.1,60.121806812213734,
,13,넌 박식해,2,Green,A,5.625,3.933333333333333,ScrollDown,ScrollUp,Green.png,4,Positive,Congruent,,,,,0,0,0,0,,,,,,,,,,,,,,,,,,,,,,,,,0,12,12,12,,,,,,,,,,,,,,,,,,,,,,,,,,,,,,,,,,,,,,,,,,,,,,,,,,,,,,,,,,,,,,,,,,,,,1,1.4332611998543143,533.2228893998545,None,ScrollDown,정답입니다,533.2228893998545,None,533.2228893998545,None,533.2228893998545,None,533.2228893998545,None,534.5452756998129,None,534.5452756998129,535.0478865997866,,,,,,,,,,,,,,,,102,2023-03-28_13h57.14.732,FishGame,2022.1.1,60.121806812213734,
,14,나를 보내줘,6,Green,A,0,0,ScrollUp,ScrollDown,Green.png,4,NonTarget,NonTarget,,,,,0,0,0,0,,,,,,,,,,,,,,,,,,,,,,,,,0,13,13,13,,,,,,,,,,,,,,,,,,,,,,,,,,,,,,,,,,,,,,,,,,,,,,,,,,,,,,,,,,,,,,,,,,,,,2,2.2472999999299645,535.6668880998623,None,ScrollUp,정답입니다,535.6668880998623,None,535.6668880998623,None,535.6668880998623,None,535.6668880998623,None,537.8118920999113,None,537.8118920999113,538.3144843999762,,,,,,,,,,,,,,,,102,2023-03-28_13h57.14.732,FishGame,2022.1.1,60.121806812213734,
,15,넌 침착해,1,Orange,B,5.458333333333333,5.566666666666666,ScrollUp,ScrollDown,Orange.png,4,Positive,Incongruent,,,,,0,0,0,0,,,,,,,,,,,,,,,,,,,,,,,,,0,14,14,14,,,,,,,,,,,,,,,,,,,,,,,,,,,,,,,,,,,,,,,,,,,,,,,,,,,,,,,,,,,,,,,,,,,,,2,2.0500394001137465,538.9501389998477,None,ScrollUp,정답입니다,538.9501389998477,None,538.9501389998477,None,538.9501389998477,None,538.9501389998477,None,540.8785066998098,None,540.8785066998098,541.381145699881,,,,,,,,,,,,,,,,102,2023-03-28_13h57.14.732,FishGame,2022.1.1,60.121806812213734,
,16,나를 데려가줘,6,Orange,B,0,0,ScrollDown,ScrollUp,Orange.png,4,NonTarget,NonTarget,,,,,0,0,0,0,,,,,,,,,,,,,,,,,,,,,,,,,0,15,15,15,,,,,,,,,,,,,,,,,,,,,,,,,,,,,,,,,,,,,,,,,,,,,,,,,,,,,,,,,,,,,,,,,,,,,1,1.1665281001478434,542.0039826999418,None,ScrollDown,정답입니다,542.0039826999418,None,542.0039826999418,None,542.0039826999418,None,542.0039826999418,None,543.0643593999557,None,543.0643593999557,543.5643727998249,,,,,,,,,,,,,,,,102,2023-03-28_13h57.14.732,FishGame,2022.1.1,60.121806812213734,
,17,넌 행복해,1,Green,A,6.416666666666666,6.166666666666667,ScrollDown,ScrollUp,Green.png,4,Positive,Congruent,,,,,0,0,0,0,,,,,,,,,,,,,,,,,,,,,,,,,0,16,16,16,,,,,,,,,,,,,,,,,,,,,,,,,,,,,,,,,,,,,,,,,,,,,,,,,,,,,,,,,,,,,,,,,,,,,1,1.145550400018692,544.1868035998195,None,ScrollDown,정답입니다,544.1868035998195,None,544.1868035998195,None,544.1868035998195,None,544.1868035998195,None,545.2309663998894,None,545.2309663998894,545.7310049999505,,,,,,,,,,,,,,,,102,2023-03-28_13h57.14.732,FishGame,2022.1.1,60.121806812213734,
,18,넌 겸손해,2,Orange,B,5.791666666666667,4.766666666666667,ScrollUp,ScrollDown,Orange.png,4,Positive,Incongruent,,,,,0,0,0,0,,,,,,,,,,,,,,,,,,,,,,,,,0,17,17,17,,,,,,,,,,,,,,,,,,,,,,,,,,,,,,,,,,,,,,,,,,,,,,,,,,,,,,,,,,,,,,,,,,,,,1.8765432039896648,1.0308046999853104,546.3585277998354,None,ScrollUp,정답입니다,546.3585277998354,None,546.3585277998354,None,546.3585277998354,None,546.3585277998354,None,547.2810486999806,None,547.2810486999806,547.7809951999225,,,,,,,,,,,,,,,,102,2023-03-28_13h57.14.732,FishGame,2022.1.1,60.121806812213734,
,19,나를 보내줘,6,Green,A,0,0,ScrollUp,ScrollDown,Green.png,4,NonTarget,NonTarget,,,,,0,0,0,0,,,,,,,,,,,,,,,,,,,,,,,,,0,18,18,18,,,,,,,,,,,,,,,,,,,,,,,,,,,,,,,,,,,,,,,,,,,,,,,,,,,,,,,,,,,,,,,,,,,,,1.9891975224018097,1.0483141001313925,548.403053099988,None,ScrollUp,정답입니다,548.403053099988,None,548.403053099988,None,548.403053099988,None,548.403053099988,None,549.34498049994,None,549.34498049994,549.8476094999351,,,,,,,,,,,,,,,,102,2023-03-28_13h57.14.732,FishGame,2022.1.1,60.121806812213734,
,20,넌 의심없어,3,Green,A,4.166666666666667,4.6,ScrollDown,ScrollUp,Green.png,4,Neutral,Neutral,,,,,0,0,0,0,,,,,,,,,,,,,,,,,,,,,,,,,0,19,19,19,,,,,,,,,,,,,,,,,,,,,,,,,,,,,,,,,,,,,,,,,,,,,,,,,,,,,,,,,,,,,,,,,,,,,1.0246913532416027,1.4428586000576615,550.480715099955,None,ScrollDown,정답입니다,550.480715099955,None,550.480715099955,None,550.480715099955,None,550.480715099955,None,551.8112635998987,None,551.8112635998987,552.3112563998438,,,,,,,,,,,,,,,,102,2023-03-28_13h57.14.732,FishGame,2022.1.1,60.121806812213734,
,21,넌 시시해,4,Green,A,2.666666666666667,2.966666666666667,ScrollDown,ScrollUp,Green.png,4,Negative,Incongruent,,,,,0,0,0,0,,,,,,,,,,,,,,,,,,,,,,,,,0,20,20,20,,,,,,,,,,,,,,,,,,,,,,,,,,,,,,,,,,,,,,,,,,,,,,,,,,,,,,,,,,,,,,,,,,,,,1.0246913532416027,0.9480244000442326,552.9335524998605,None,ScrollDown,정답입니다,552.9335524998605,None,552.9335524998605,None,552.9335524998605,None,552.9335524998605,None,553.7779558999464,None,553.7779558999464,554.2809198999312,,,,,,,,,,,,,,,,102,2023-03-28_13h57.14.732,FishGame,2022.1.1,60.121806812213734,
,22,나를 데려가줘,6,Orange,B,0,0,ScrollDown,ScrollUp,Orange.png,4,NonTarget,NonTarget,,,,,0,0,0,0,,,,,,,,,,,,,,,,,,,,,,,,,0,21,21,21,,,,,,,,,,,,,,,,,,,,,,,,,,,,,,,,,,,,,,,,,,,,,,,,,,,,,,,,,,,,,,,,,,,,,1,1.1648177998140454,554.9055910999887,None,ScrollDown,정답입니다,554.9055910999887,None,554.9055910999887,None,554.9055910999887,None,554.9055910999887,None,555.9641453998629,None,555.9641453998629,556.4641571999528,,,,,,,,,,,,,,,,102,2023-03-28_13h57.14.732,FishGame,2022.1.1,60.121806812213734,
,23,넌 무정해,5,Green,A,2.5,2.2,ScrollDown,ScrollUp,Green.png,4,Negative,Incongruent,,,,,0,0,0,0,,,,,,,,,,,,,,,,,,,,,,,,,0,22,22,22,,,,,,,,,,,,,,,,,,,,,,,,,,,,,,,,,,,,,,,,,,,,,,,,,,,,,,,,,,,,,,,,,,,,,1,1.3829884000588208,557.0858901999891,None,ScrollDown,정답입니다,557.0858901999891,None,557.0858901999891,None,557.0858901999891,None,557.0858901999891,None,558.3613595999777,None,558.3613595999777,558.8640604999382,,,,,,,,,,,,,,,,102,2023-03-28_13h57.14.732,FishGame,2022.1.1,60.121806812213734,
,24,넌 긍정적이야,1,Orange,B,6.041666666666667,6.066666666666666,ScrollUp,ScrollDown,Orange.png,4,Positive,Incongruent,,,,,0,0,0,0,,,,,,,,,,,,,,,,,,,,,,,,,0,23,23,23,,,,,,,,,,,,,,,,,,,,,,,,,,,,,,,,,,,,,,,,,,,,,,,,,,,,,,,,,,,,,,,,,,,,,2,0.9331688000820577,559.4924493997823,None,ScrollUp,정답입니다,559.4924493997823,None,559.4924493997823,None,559.4924493997823,None,559.4924493997823,None,560.311410299968,None,560.311410299968,560.8140191999264,,,,,,,,,,,,,,,,102,2023-03-28_13h57.14.732,FishGame,2022.1.1,60.121806812213734,
,25,나를 보내줘,6,Green,A,0,0,ScrollUp,ScrollDown,Green.png,4,NonTarget,NonTarget,,,,,0,0,0,0,,,,,,,,,,,,,,,,,,,,,,,,,0,24,24,24,,,,,,,,,,,,,,,,,,,,,,,,,,,,,,,,,,,,,,,,,,,,,,,,,,,,,,,,,,,,,,,,,,,,,2,0.9973371000960469,561.4359237998724,None,ScrollUp,정답입니다,561.4359237998724,None,561.4359237998724,None,561.4359237998724,None,561.4359237998724,None,562.3306565999519,None,562.3306565999519,562.8306987998076,,,,,,,,,,,,,,,,102,2023-03-28_13h57.14.732,FishGame,2022.1.1,60.121806812213734,
,26,넌 시기심이 많아,5,Orange,B,2.458333333333333,2.233333333333333,ScrollUp,ScrollDown,Orange.png,4,Negative,Congruent,,,,,0,0,0,0,,,,,,,,,,,,,,,,,,,,,,,,,0,25,25,25,,,,,,,,,,,,,,,,,,,,,,,,,,,,,,,,,,,,,,,,,,,,,,,,,,,,,,,,,,,,,,,,,,,,,2,1.4001154000870883,563.4611437998246,None,ScrollUp,정답입니다,563.4611437998246,None,563.4611437998246,None,563.4611437998246,None,563.4611437998246,None,564.7474078999367,None,564.7474078999367,565.2473502999637,,,,,,,,,,,,,,,,102,2023-03-28_13h57.14.732,FishGame,2022.1.1,60.121806812213734,
,27,넌 탁월해,2,Green,A,5.708333333333334,4.5,ScrollDown,ScrollUp,Green.png,4,Positive,Congruent,,,,,0,0,0,0,,,,,,,,,,,,,,,,,,,,,,,,,0,26,26,26,,,,,,,,,,,,,,,,,,,,,,,,,,,,,,,,,,,,,,,,,,,,,,,,,,,,,,,,,,,,,,,,,,,,,1,0.9816006000619382,565.8718312999699,None,ScrollDown,정답입니다,565.8718312999699,None,565.8718312999699,None,565.8718312999699,None,565.8718312999699,None,566.7446345998906,None,566.7446345998906,567.2472784998827,,,,,,,,,,,,,,,,102,2023-03-28_13h57.14.732,FishGame,2022.1.1,60.121806812213734,
,28,나를 데려가줘,6,Orange,B,0,0,ScrollDown,ScrollUp,Orange.png,4,NonTarget,NonTarget,,,,,0,0,0,0,,,,,,,,,,,,,,,,,,,,,,,,,0,27,27,27,,,,,,,,,,,,,,,,,,,,,,,,,,,,,,,,,,,,,,,,,,,,,,,,,,,,,,,,,,,,,,,,,,,,,1,1.3103324000257999,567.873408799991,None,ScrollDown,정답입니다,567.873408799991,None,567.873408799991,None,567.873408799991,None,567.873408799991,None,569.0779134999029,None,569.0779134999029,569.5805315999314,,,,,,,,,,,,,,,,102,2023-03-28_13h57.14.732,FishGame,2022.1.1,60.121806812213734,
,29,넌 조용해,3,Orange,B,4.333333333333333,4.166666666666667,ScrollUp,ScrollDown,Orange.png,4,Neutral,Neutral,,,,,0,0,0,0,,,,,,,,,,,,,,,,,,,,,,,,,0,28,28,28,,,,,,,,,,,,,,,,,,,,,,,,,,,,,,,,,,,,,,,,,,,,,,,,,,,,,,,,,,,,,,,,,,,,,2,1.0501947000157088,570.2098663998768,None,ScrollUp,정답입니다,570.2098663998768,None,570.2098663998768,None,570.2098663998768,None,570.2098663998768,None,571.1472662999295,None,571.1472662999295,571.6471959999762,,,,,,,,,,,,,,,,102,2023-03-28_13h57.14.732,FishGame,2022.1.1,60.121806812213734,
,30,넌 다정해,1,Green,A,5.833333333333334,5.7,ScrollDown,ScrollUp,Green.png,4,Positive,Congruent,,,,,0,0,0,0,,,,,,,,,,,,,,,,,,,,,,,,,0,29,29,29,,,,,,,,,,,,,,,,,,,,,,,,,,,,,,,,,,,,,,,,,,,,,,,,,,,,,,,,,,,,,,,,,,,,,1,1.009226500056684,572.2830587998033,None,ScrollDown,정답입니다,572.2830587998033,None,572.2830587998033,None,572.2830587998033,None,572.2830587998033,None,573.1775287999772,None,573.1775287999772,573.6774919999298,,,,,,,,,,,,,,,,102,2023-03-28_13h57.14.732,FishGame,2022.1.1,60.121806812213734,
,31,넌 능력있어,2,Orange,B,6.166666666666666,4.6,ScrollUp,ScrollDown,Orange.png,4,Positive,Incongruent,,,,,0,0,0,0,,,,,,,,,,,,,,,,,,,,,,,,,0,30,30,30,,,,,,,,,,,,,,,,,,,,,,,,,,,,,,,,,,,,,,,,,,,,,,,,,,,,,,,,,,,,,,,,,,,,,2,1.2365015000104904,574.3018358999398,None,ScrollUp,정답입니다,574.3018358999398,None,574.3018358999398,None,574.3018358999398,None,574.3018358999398,None,575.4305437000003,None,575.4305437000003,575.9304470999632,,,,,,,,,,,,,,,,102,2023-03-28_13h57.14.732,FishGame,2022.1.1,60.121806812213734,
,32,넌 불쾌해,5,Green,A,2.125,1.933333333333333,ScrollDown,ScrollUp,Green.png,4,Negative,Incongruent,,,,,0,0,0,0,,,,,,,,,,,,,,,,,,,,,,,,,0,31,31,31,,,,,,,,,,,,,,,,,,,,,,,,,,,,,,,,,,,,,,,,,,,,,,,,,,,,,,,,,,,,,,,,,,,,,1,0.8982540001161397,576.5524061999749,None,ScrollDown,정답입니다,576.5524061999749,None,576.5524061999749,None,576.5524061999749,None,576.5524061999749,None,577.3470503999852,None,577.3470503999852,577.8470873998012,,,,,,,,,,,,,,,,102,2023-03-28_13h57.14.732,FishGame,2022.1.1,60.121806812213734,
,33,나를 데려가줘,6,Orange,B,0,0,ScrollDown,ScrollUp,Orange.png,4,NonTarget,NonTarget,,,,,0,0,0,0,,,,,,,,,,,,,,,,,,,,,,,,,0,32,32,32,,,,,,,,,,,,,,,,,,,,,,,,,,,,,,,,,,,,,,,,,,,,,,,,,,,,,,,,,,,,,,,,,,,,,1,1.0427103000693023,578.4800420999527,None,ScrollDown,정답입니다,578.4800420999527,None,578.4800420999527,None,578.4800420999527,None,578.4800420999527,None,579.4107101999689,None,579.4107101999689,579.9109600998927,,,,,,,,,,,,,,,,102,2023-03-28_13h57.14.732,FishGame,2022.1.1,60.121806812213734,
,34,넌 유순해,3,Green,A,4.458333333333333,5,ScrollDown,ScrollUp,Green.png,4,Neutral,Neutral,,,,,0,0,0,0,,,,,,,,,,,,,,,,,,,,,,,,,0,33,33,33,,,,,,,,,,,,,,,,,,,,,,,,,,,,,,,,,,,,,,,,,,,,,,,,,,,,,,,,,,,,,,,,,,,,,1,0.9841358999256045,580.5297505999915,None,ScrollDown,정답입니다,580.5297505999915,None,580.5297505999915,None,580.5297505999915,None,580.5297505999915,None,581.4137420998886,None,581.4137420998886,581.9136682997923,,,,,,,,,,,,,,,,102,2023-03-28_13h57.14.732,FishGame,2022.1.1,60.121806812213734,
,35,넌 근심스러워,4,Orange,B,2.708333333333333,3.133333333333333,ScrollUp,ScrollDown,Orange.png,4,Negative,Congruent,,,,,0,0,0,0,,,,,,,,,,,,,,,,,,,,,,,,,0,34,34,34,,,,,,,,,,,,,,,,,,,,,,,,,,,,,,,,,,,,,,,,,,,,,,,,,,,,,,,,,,,,,,,,,,,,,2,0.8830154000315815,582.5418251999654,None,ScrollUp,정답입니다,582.5418251999654,None,582.5418251999654,None,582.5418251999654,None,582.5418251999654,None,583.3136301999912,None,583.3136301999912,583.8136981998105,,,,,,,,,,,,,,,,102,2023-03-28_13h57.14.732,FishGame,2022.1.1,60.121806812213734,
,36,넌 세련되었어,2,Green,A,5.5,4.6,ScrollDown,ScrollUp,Green.png,4,Positive,Congruent,,,,,0,0,0,0,,,,,,,,,,,,,,,,,,,,,,,,,0,35,35,35,,,,,,,,,,,,,,,,,,,,,,,,,,,,,,,,,,,,,,,,,,,,,,,,,,,,,,,,,,,,,,,,,,,,,1,0.9285544999875128,584.4477417999879,None,ScrollDown,정답입니다,584.4477417999879,None,584.4477417999879,None,584.4477417999879,None,584.4477417999879,None,585.2605964997783,None,585.2605964997783,585.7613887998741,,,,,,,,,,,,,,,,102,2023-03-28_13h57.14.732,FishGame,2022.1.1,60.121806812213734,
,37,나를 보내줘,6,Green,A,0,0,ScrollUp,ScrollDown,Green.png,4,NonTarget,NonTarget,,,,,0,0,0,0,,,,,,,,,,,,,,,,,,,,,,,,,0,36,36,36,,,,,,,,,,,,,,,,,,,,,,,,,,,,,,,,,,,,,,,,,,,,,,,,,,,,,,,,,,,,,,,,,,,,,2,1.2489247000776231,586.3823943999596,None,ScrollUp,정답입니다,586.3823943999596,None,586.3823943999596,None,586.3823943999596,None,586.3823943999596,None,587.5303107998334,None,587.5303107998334,588.0302170999348,,,,,,,,,,,,,,,,102,2023-03-28_13h57.14.732,FishGame,2022.1.1,60.121806812213734,
,38,넌 확고해,3,Orange,B,4.708333333333334,4.566666666666666,ScrollUp,ScrollDown,Orange.png,4,Neutral,Neutral,,,,,0,0,0,0,,,,,,,,,,,,,,,,,,,,,,,,,0,37,37,37,,,,,,,,,,,,,,,,,,,,,,,,,,,,,,,,,,,,,,,,,,,,,,,,,,,,,,,,,,,,,,,,,,,,,2,1.4496468999423087,588.6566164998803,None,ScrollUp,정답입니다,588.6566164998803,None,588.6566164998803,None,588.6566164998803,None,588.6566164998803,None,589.9970151998568,None,589.9970151998568,590.4968597998377,,,,,,,,,,,,,,,,102,2023-03-28_13h57.14.732,FishGame,2022.1.1,60.121806812213734,
,39,넌 이해심이 많아,1,Orange,B,6.041666666666668,5.533333333333333,ScrollUp,ScrollDown,Orange.png,4,Positive,Incongruent,,,,,0,0,0,0,,,,,,,,,,,,,,,,,,,,,,,,,0,38,38,38,,,,,,,,,,,,,,,,,,,,,,,,,,,,,,,,,,,,,,,,,,,,,,,,,,,,,,,,,,,,,,,,,,,,,2,0.997111399890855,591.1172867999412,None,ScrollUp,정답입니다,591.1172867999412,None,591.1172867999412,None,591.1172867999412,None,591.1172867999412,None,592.0134279998019,None,592.0134279998019,592.5134435999207,,,,,,,,,,,,,,,,102,2023-03-28_13h57.14.732,FishGame,2022.1.1,60.121806812213734,
,40,나를 보내줘,6,Green,A,0,0,ScrollUp,ScrollDown,Green.png,4,NonTarget,NonTarget,,,,,0,0,0,0,,,,,,,,,,,,,,,,,,,,,,,,,0,39,39,39,,,,,,,,,,,,,,,,,,,,,,,,,,,,,,,,,,,,,,,,,,,,,,,,,,,,,,,,,,,,,,,,,,,,,2,0.933501899940893,593.1431934998836,None,ScrollUp,정답입니다,593.1431934998836,None,593.1431934998836,None,593.1431934998836,None,593.1431934998836,None,593.9770901999436,None,593.9770901999436,594.4770508999936,,,,,,,,,,,,,,,,102,2023-03-28_13h57.14.732,FishGame,2022.1.1,60.121806812213734,
,41,넌 거칠어,4,Green,A,2.625,3.033333333333333,ScrollDown,ScrollUp,Green.png,4,Negative,Incongruent,,,,,0,0,0,0,,,,,,,,,,,,,,,,,,,,,,,,,0,40,40,40,,,,,,,,,,,,,,,,,,,,,,,,,,,,,,,,,,,,,,,,,,,,,,,,,,,,,,,,,,,,,,,,,,,,,1,0.934287799987942,595.1048260999378,None,ScrollDown,정답입니다,595.1048260999378,None,595.1048260999378,None,595.1048260999378,None,595.1048260999378,None,595.9303142998833,None,595.9303142998833,596.4300694998819,,,,,,,,,,,,,,,,102,2023-03-28_13h57.14.732,FishGame,2022.1.1,60.121806812213734,
,42,넌 변덕맞아,5,Orange,B,2.75,2.166666666666667,ScrollUp,ScrollDown,Orange.png,4,Negative,Congruent,,,,,0,0,0,0,,,,,,,,,,,,,,,,,,,,,,,,,0,41,41,41,,,,,,,,,,,,,,,,,,,,,,,,,,,,,,,,,,,,,,,,,,,,,,,,,,,,,,,,,,,,,,,,,,,,,2,0.8646649001166224,597.0546510999557,None,ScrollUp,정답입니다,597.0546510999557,None,597.0546510999557,None,597.0546510999557,None,597.0546510999557,None,597.8106754999608,None,597.8106754999608,598.3133303998038,,,,,,,,,,,,,,,,102,2023-03-28_13h57.14.732,FishGame,2022.1.1,60.121806812213734,
,43,나를 데려가줘,6,Orange,B,0,0,ScrollDown,ScrollUp,Orange.png,4,NonTarget,NonTarget,,,,,0,0,0,0,,,,,,,,,,,,,,,,,,,,,,,,,0,42,42,42,,,,,,,,,,,,,,,,,,,,,,,,,,,,,,,,,,,,,,,,,,,,,,,,,,,,,,,,,,,,,,,,,,,,,1,1.1615478000603616,598.9355443997774,None,ScrollDown,정답입니다,598.9355443997774,None,598.9355443997774,None,598.9355443997774,None,598.9355443997774,None,599.9936405997723,None,599.9936405997723,600.4936536999885,,,,,,,,,,,,,,,,102,2023-03-28_13h57.14.732,FishGame,2022.1.1,60.121806812213734,
,44,넌 외로워,4,Orange,B,2.833333333333333,3.3,ScrollUp,ScrollDown,Orange.png,4,Negative,Congruent,,,,,0,0,0,0,,,,,,,,,,,,,,,,,,,,,,,,,0,43,43,43,,,,,,,,,,,,,,,,,,,,,,,,,,,,,,,,,,,,,,,,,,,,,,,,,,,,,,,,,,,,,,,,,,,,,2,1.4165314000565559,601.118632099824,None,ScrollUp,정답입니다,601.118632099824,None,601.118632099824,None,601.118632099824,None,601.118632099824,None,602.4300213998649,None,602.4300213998649,602.9299148998689,,,,,,,,,,,,,,,,102,2023-03-28_13h57.14.732,FishGame,2022.1.1,60.121806812213734,
,1,넌 불평스러워,5,Green,A,2.25,2.066666666666667,ScrollDown,ScrollUp,Green.png,5,Negative,Incongruent,,,,,0,0,0,0,,,,,,,,,,,,,,,,,,,,,,,,,,,,,0,0,0,0,,,,,,,,,,,,,,,,,,,,,,,,636.5595532997977,638.059589299839,638.0964290997945,639.0460870999377,639.0960335999262,640.0505184999201,640.0336797998752,None,,,,,,,,,,,,,,,,,,,,,,,,,,,,,,,,,,1,2.1041203001514077,641.1418390998151,None,ScrollDown,정답입니다,641.1418390998151,None,641.1418390998151,None,641.1418390998151,None,641.1418390998151,None,643.1458172998391,None,643.1458172998391,643.6428730997723,603.4299303998705,None,603.4299303998705,None,0.12222222,-0.08981481,1,0,0,0.016204579966142774,None,633.4291941998526,None,,,102,2023-03-28_13h57.14.732,FishGame,2022.1.1,60.121806812213734,
,2,나를 보내줘,6,Green,A,0,0,ScrollUp,ScrollDown,Green.png,5,NonTarget,NonTarget,,,,,0,0,0,0,,,,,,,,,,,,,,,,,,,,,,,,,,,,,0,1,1,1,,,,,,,,,,,,,,,,,,,,,,,,,,,,,,,,,,,,,,,,,,,,,,,,,,,,,,,,,,,,,,,,,2,1.1473610999528319,644.2856419999152,None,ScrollUp,정답입니다,644.2856419999152,None,644.2856419999152,None,644.2856419999152,None,644.2856419999152,None,645.3264097999781,None,645.3264097999781,645.828988699941,,,,,,,,,,,,,,,,102,2023-03-28_13h57.14.732,FishGame,2022.1.1,60.121806812213734,
,3,넌 다재다능해,2,Orange,B,6.208333333333333,4.5,ScrollUp,ScrollDown,Orange.png,5,Positive,Incongruent,,,,,0,0,0,0,,,,,,,,,,,,,,,,,,,,,,,,,,,,,0,2,2,2,,,,,,,,,,,,,,,,,,,,,,,,,,,,,,,,,,,,,,,,,,,,,,,,,,,,,,,,,,,,,,,,,1.839506169160207,1.1454629998188466,646.4519862998277,None,ScrollUp,정답입니다,646.4519862998277,None,646.4519862998277,None,646.4519862998277,None,646.4519862998277,None,647.4926884998567,None,647.4926884998567,647.9936192999594,,,,,,,,,,,,,,,,102,2023-03-28_13h57.14.732,FishGame,2022.1.1,60.121806812213734,
,4,넌 과감해,3,Green,A,4.833333333333334,4.6,ScrollDown,ScrollUp,Green.png,5,Neutral,Neutral,,,,,0,0,0,0,,,,,,,,,,,,,,,,,,,,,,,,,,,,,0,3,3,3,,,,,,,,,,,,,,,,,,,,,,,,,,,,,,,,,,,,,,,,,,,,,,,,,,,,,,,,,,,,,,,,,1.0324074228604634,1.0842571000102907,648.6105918998364,None,ScrollDown,정답입니다,648.6105918998364,None,648.6105918998364,None,648.6105918998364,None,648.6105918998364,None,649.595816699788,None,649.595816699788,650.0956198999193,,,,,,,,,,,,,,,,102,2023-03-28_13h57.14.732,FishGame,2022.1.1,60.121806812213734,
,5,넌 고분고분해,3,Orange,B,3.75,4.033333333333333,ScrollUp,ScrollDown,Orange.png,5,Neutral,Neutral,,,,,0,0,0,0,,,,,,,,,,,,,,,,,,,,,,,,,,,,,0,4,4,4,,,,,,,,,,,,,,,,,,,,,,,,,,,,,,,,,,,,,,,,,,,,,,,,,,,,,,,,,,,,,,,,,1.9475308458010356,1.1481049000285566,650.7202187997755,None,ScrollUp,정답입니다,650.7202187997755,None,650.7202187997755,None,650.7202187997755,None,650.7202187997755,None,651.762416199781,None,651.762416199781,652.2622743998654,,,,,,,,,,,,,,,,102,2023-03-28_13h57.14.732,FishGame,2022.1.1,60.121806812213734,
,6,나를 보내줘,6,Green,A,0,0,ScrollUp,ScrollDown,Green.png,5,NonTarget,NonTarget,,,,,0,0,0,0,,,,,,,,,,,,,,,,,,,,,,,,,,,,,0,5,5,5,,,,,,,,,,,,,,,,,,,,,,,,,,,,,,,,,,,,,,,,,,,,,,,,,,,,,,,,,,,,,,,,,2,1.9817563998512924,652.8994230998214,None,ScrollUp,정답입니다,652.8994230998214,None,652.8994230998214,None,652.8994230998214,None,652.8994230998214,None,654.7758948998526,None,654.7758948998526,655.2762019999791,,,,,,,,,,,,,,,,102,2023-03-28_13h57.14.732,FishGame,2022.1.1,60.121806812213734,
,7,넌 잘 잊어,4,Green,A,3,3.7,ScrollDown,ScrollUp,Green.png,5,Negative,Incongruent,,,,,0,0,0,0,,,,,,,,,,,,,,,,,,,,,,,,,,,,,0,6,6,6,,,,,,,,,,,,,,,,,,,,,,,,,,,,,,,,,,,,,,,,,,,,,,,,,,,,,,,,,,,,,,,,,1.200617293516795,2.045518900034949,655.9004739997908,None,ScrollDown,정답입니다,655.9004739997908,None,655.9004739997908,None,655.9004739997908,None,655.9004739997908,None,657.845540799899,None,657.845540799899,658.3454283999745,,,,,,,,,,,,,,,,102,2023-03-28_13h57.14.732,FishGame,2022.1.1,60.121806812213734,
,8,넌 탐구심이없어,4,Orange,B,2.833333333333333,3.066666666666667,ScrollUp,ScrollDown,Orange.png,5,Negative,Congruent,,,,,0,0,0,0,,,,,,,,,,,,,,,,,,,,,,,,,,,,,0,7,7,7,,,,,,,,,,,,,,,,,,,,,,,,,,,,,,,,,,,,,,,,,,,,,,,,,,,,,,,,,,,,,,,,,1.8858024626970291,0.9287998001091182,658.9714565998875,None,ScrollUp,정답입니다,658.9714565998875,None,658.9714565998875,None,658.9714565998875,None,658.9714565998875,None,659.7953305998817,None,659.7953305998817,660.2953901998699,,,,,,,,,,,,,,,,102,2023-03-28_13h57.14.732,FishGame,2022.1.1,60.121806812213734,
,9,나를 데려가줘,6,Orange,B,0,0,ScrollDown,ScrollUp,Orange.png,5,NonTarget,NonTarget,,,,,0,0,0,0,,,,,,,,,,,,,,,,,,,,,,,,,,,,,0,8,8,8,,,,,,,,,,,,,,,,,,,,,,,,,,,,,,,,,,,,,,,,,,,,,,,,,,,,,,,,,,,,,,,,,1,1.1966054001823068,660.9184972997755,None,ScrollDown,정답입니다,660.9184972997755,None,660.9184972997755,None,660.9184972997755,None,660.9184972997755,None,662.0092644998804,None,662.0092644998804,662.5119473999366,,,,,,,,,,,,,,,,102,2023-03-28_13h57.14.732,FishGame,2022.1.1,60.121806812213734,
,10,넌 참되어,2,Green,A,6.041666666666664,4.733333333333333,ScrollDown,ScrollUp,Green.png,5,Positive,Congruent,,,,,0,0,0,0,,,,,,,,,,,,,,,,,,,,,,,,,,,,,0,9,9,9,,,,,,,,,,,,,,,,,,,,,,,,,,,,,,,,,,,,,,,,,,,,,,,,,,,,,,,,,,,,,,,,,1,1.013814999954775,663.1317808998283,None,ScrollDown,정답입니다,663.1317808998283,None,663.1317808998283,None,663.1317808998283,None,663.1317808998283,None,664.0425909999758,None,664.0425909999758,664.5452507999726,,,,,,,,,,,,,,,,102,2023-03-28_13h57.14.732,FishGame,2022.1.1,60.121806812213734,
,11,넌 생기있어,1,Orange,B,5.875,5.633333333333334,ScrollUp,ScrollDown,Orange.png,5,Positive,Incongruent,,,,,0,0,0,0,,,,,,,,,,,,,,,,,,,,,,,,,,,,,0,10,10,10,,,,,,,,,,,,,,,,,,,,,,,,,,,,,,,,,,,,,,,,,,,,,,,,,,,,,,,,,,,,,,,,,1.629629634320736,1.1499232000205666,665.16913869977,None,ScrollUp,정답입니다,665.16913869977,None,665.16913869977,None,665.16913869977,None,665.16913869977,None,666.2092611999251,None,666.2092611999251,666.711942799855,,,,,,,,,,,,,,,,102,2023-03-28_13h57.14.732,FishGame,2022.1.1,60.121806812213734,
,12,넌 비사교적이야,4,Orange,B,2.875,2.9,ScrollUp,ScrollDown,Orange.png,5,Negative,Congruent,,,,,0,0,0,0,,,,,,,,,,,,,,,,,,,,,,,,,,,,,0,11,11,11,,,,,,,,,,,,,,,,,,,,,,,,,,,,,,,,,,,,,,,,,,,,,,,,,,,,,,,,,,,,,,,,,1.8503086417913437,1.4164960999041796,667.3325752997771,None,ScrollUp,정답입니다,667.3325752997771,None,667.3325752997771,None,667.3325752997771,None,667.3325752997771,None,668.6422262999695,None,668.6422262999695,669.1430408000015,,,,,,,,,,,,,,,,102,2023-03-28_13h57.14.732,FishGame,2022.1.1,60.121806812213734,
,13,나를 데려가줘,6,Orange,B,0,0,ScrollDown,ScrollUp,Orange.png,5,NonTarget,NonTarget,,,,,0,0,0,0,,,,,,,,,,,,,,,,,,,,,,,,,,,,,0,12,12,12,,,,,,,,,,,,,,,,,,,,,,,,,,,,,,,,,,,,,,,,,,,,,,,,,,,,,,,,,,,,,,,,,1,1.2982071998994797,669.7649152998347,None,ScrollDown,정답입니다,669.7649152998347,None,669.7649152998347,None,669.7649152998347,None,669.7649152998347,None,670.9618934998289,None,670.9618934998289,671.4618979999796,,,,,,,,,,,,,,,,102,2023-03-28_13h57.14.732,FishGame,2022.1.1,60.121806812213734,
,14,넌 고독해,4,Green,A,2.916666666666667,3.233333333333333,ScrollDown,ScrollUp,Green.png,5,Negative,Incongruent,,,,,0,0,0,0,,,,,,,,,,,,,,,,,,,,,,,,,,,,,0,13,13,13,,,,,,,,,,,,,,,,,,,,,,,,,,,,,,,,,,,,,,,,,,,,,,,,,,,,,,,,,,,,,,,,,1.0339506367842357,1.064607399981469,672.083114599809,None,ScrollDown,정답입니다,672.083114599809,None,672.083114599809,None,672.083114599809,None,672.083114599809,None,673.0424679999705,None,673.0424679999705,673.5451415998396,,,,,,,,,,,,,,,,102,2023-03-28_13h57.14.732,FishGame,2022.1.1,60.121806812213734,
,15,넌 신경질적이야,5,Orange,B,2.375,2.233333333333333,ScrollUp,ScrollDown,Orange.png,5,Negative,Congruent,,,,,0,0,0,0,,,,,,,,,,,,,,,,,,,,,,,,,,,,,0,14,14,14,,,,,,,,,,,,,,,,,,,,,,,,,,,,,,,,,,,,,,,,,,,,,,,,,,,,,,,,,,,,,,,,,1.564814817160368,1.0129491998814046,674.1729735999834,None,ScrollUp,정답입니다,674.1729735999834,None,674.1729735999834,None,674.1729735999834,None,674.1729735999834,None,675.0754471998662,None,675.0754471998662,675.5754438999575,,,,,,,,,,,,,,,,102,2023-03-28_13h57.14.732,FishGame,2022.1.1,60.121806812213734,
,16,넌 똑똑해,2,Orange,B,5.666666666666667,3.966666666666667,ScrollUp,ScrollDown,Orange.png,5,Positive,Incongruent,,,,,0,0,0,0,,,,,,,,,,,,,,,,,,,,,,,,,,,,,0,15,15,15,,,,,,,,,,,,,,,,,,,,,,,,,,,,,,,,,,,,,,,,,,,,,,,,,,,,,,,,,,,,,,,,,1.765432099501292,1.0817451998591423,676.1990260998718,None,ScrollUp,정답입니다,676.1990260998718,None,676.1990260998718,None,676.1990260998718,None,676.1990260998718,None,677.1784663998988,None,677.1784663998988,677.6784196998924,,,,,,,,,,,,,,,,102,2023-03-28_13h57.14.732,FishGame,2022.1.1,60.121806812213734,
,17,나를 보내줘,6,Green,A,0,0,ScrollUp,ScrollDown,Green.png,5,NonTarget,NonTarget,,,,,0,0,0,0,,,,,,,,,,,,,,,,,,,,,,,,,,,,,0,16,16,16,,,,,,,,,,,,,,,,,,,,,,,,,,,,,,,,,,,,,,,,,,,,,,,,,,,,,,,,,,,,,,,,,1.71913580596447,1.1306901001371443,678.2988253999501,None,ScrollUp,정답입니다,678.2988253999501,None,678.2988253999501,None,678.2988253999501,None,678.2988253999501,None,679.3283663999755,None,679.3283663999755,679.8331597999204,,,,,,,,,,,,,,,,102,2023-03-28_13h57.14.732,FishGame,2022.1.1,60.121806812213734,
,18,넌 협조적이야,1,Green,A,5.625,5.666666666666667,ScrollDown,ScrollUp,Green.png,5,Positive,Congruent,,,,,0,0,0,0,,,,,,,,,,,,,,,,,,,,,,,,,,,,,0,17,17,17,,,,,,,,,,,,,,,,,,,,,,,,,,,,,,,,,,,,,,,,,,,,,,,,,,,,,,,,,,,,,,,,,1.367283950249354,1.1455675999168307,680.4652822997887,None,ScrollDown,정답입니다,680.4652822997887,None,680.4652822997887,None,680.4652822997887,None,680.4652822997887,None,681.5086529999971,None,681.5086529999971,682.008682299871,,,,,,,,,,,,,,,,102,2023-03-28_13h57.14.732,FishGame,2022.1.1,60.121806812213734,
,19,나를 데려가줘,6,Orange,B,0,0,ScrollDown,ScrollUp,Orange.png,5,NonTarget,NonTarget,,,,,0,0,0,0,,,,,,,,,,,,,,,,,,,,,,,,,,,,,0,18,18,18,,,,,,,,,,,,,,,,,,,,,,,,,,,,,,,,,,,,,,,,,,,,,,,,,,,,,,,,,,,,,,,,,1.1527777860562007,1.0194790998939425,682.6298980999272,None,ScrollDown,정답입니다,682.6298980999272,None,682.6298980999272,None,682.6298980999272,None,682.6298980999272,None,683.5449741999619,None,683.5449741999619,684.0449250999372,,,,,,,,,,,,,,,,102,2023-03-28_13h57.14.732,FishGame,2022.1.1,60.121806812213734,
