name,TrialNum,Word,WordCategory,FishType,WordList,WordValence,WordReputation,CorrectResp,IncorrectResp,FishTypeFile,Round,WordType,Condition,LoopforOrange.thisRepN,LoopforOrange.thisTrialN,LoopforOrange.thisN,LoopforOrange.thisIndex,OrangeInstLoop.thisRepN,OrangeInstLoop.thisTrialN,OrangeInstLoop.thisN,OrangeInstLoop.thisIndex,OrangePrac.thisRepN,OrangePrac.thisTrialN,OrangePrac.thisN,OrangePrac.thisIndex,temp1.thisRepN,temp1.thisTrialN,temp1.thisN,temp1.thisIndex,OrangeRound1.thisRepN,OrangeRound1.thisTrialN,OrangeRound1.thisN,OrangeRound1.thisIndex,OrangeRound2.thisRepN,OrangeRound2.thisTrialN,OrangeRound2.thisN,OrangeRound2.thisIndex,OrangeRound3.thisRepN,OrangeRound3.thisTrialN,OrangeRound3.thisN,OrangeRound3.thisIndex,OrangeRound4.thisRepN,OrangeRound4.thisTrialN,OrangeRound4.thisN,OrangeRound4.thisIndex,OrangeRound5.thisRepN,OrangeRound5.thisTrialN,OrangeRound5.thisN,OrangeRound5.thisIndex,LoopForGreen.thisRepN,LoopForGreen.thisTrialN,LoopForGreen.thisN,LoopForGreen.thisIndex,text_2.started,text_2.stopped,text_3.started,text_3.stopped,key_resp.keys,key_resp.rt,key_resp.started,key_resp.stopped,PassI_2.started,PassI_2.stopped,PassInst_2.keys,PassInst_2.rt,PassInst_2.started,PassInst_2.stopped,mouse_2.x,mouse_2.y,mouse_2.leftButton,mouse_2.midButton,mouse_2.rightButton,mouse_2.started,mouse_2.stopped,image.started,image.stopped,text_5.started,text_5.stopped,text_6.started,text_6.stopped,text_7.started,text_7.stopped,text_8.started,text_8.stopped,slider_2.response,slider_2.rt,slider_2.started,slider_2.stopped,Response_2,Feedback_2,BackGround_2.started,BackGround_2.stopped,Fish_2.started,Fish_2.stopped,WordBox_2.started,WordBox_2.stopped,Words_2.started,Words_2.stopped,BackGround_Feedback_2.started,BackGround_Feedback_2.stopped,Feedbacks_2.started,Feedbacks_2.stopped,Continue_or_not.keys,Continue_or_not.rt,Continue_or_not.started,Continue_or_not.stopped,image_3.started,image_3.stopped,mouse_3.x,mouse_3.y,mouse_3.leftButton,mouse_3.midButton,mouse_3.rightButton,mouse_3.started,mouse_3.stopped,startmain.started,startmain.stopped,slider.response,slider.rt,slider.started,slider.stopped,Response,Feedback,BackGround.started,BackGround.stopped,Fish.started,Fish.stopped,WordBox.started,WordBox.stopped,Words.started,Words.stopped,BackGround_Feedback.started,BackGround_Feedback.stopped,Feedbacks.started,Feedbacks.stopped,text.started,text.stopped,break_interval.started,break_interval.stopped,mouse.x,mouse.y,mouse.leftButton,mouse.midButton,mouse.rightButton,mouse.started,mouse.stopped,stratnextround.started,stratnextround.stopped,endgame.started,endgame.stopped,participant,date,expName,psychopyVersion,frameRate,
,,,,,,,,,,,,,,,,,,,,,,,,,,,,,,,,,,,,,,,,,,,,,,,,,,,,,,18.309430900029838,None,18.309430900029838,None,space,1.6079668998718262,18.801644300110638,None,,,,,,,,,,,,,,,,,,,,,,,,,,,,,,,,,,,,,,,,,,,,,,,,,,,,,,,,,,,,,,,,,,,,,,,,,,,,,,,,,,,,,,,,,,103,2023-03-28_17h00.13.213,FishGame,2022.1.1,59.99037758190652,
물고기과제_instruction(참가자용)OrangeVersion.mp4,,,,,,,,,,,,,,0,0,0,0,0,0,0,0,,,,,,,,,,,,,,,,,,,,,,,,,,,,,,,,,,,,,,,,,92.3125277000945,None,n,2.1139500997960567,92.3125277000945,None,,,,,,,,,,,,,,,,,,,,,,,,,,,,,,,,,,,,,,,,,,,,,,,,,,,,,,,,,,,,,,,,,,,,,,,,,,,,,,,,,,,,103,2023-03-28_17h00.13.213,FishGame,2022.1.1,59.99037758190652,
,1,넌 교활해,5,Green,B,2.333333333333333,2.133333333333333,ScrollUp,ScrollDown,Green.png,practice,,,0,0,0,0,,,,,0,0,0,0,0,0,0,0,,,,,,,,,,,,,,,,,,,,,,,,,,,,,,,,,,,,,,,0.025,-0.20555556,1,0,0,0.5134684997610748,None,94.44301940011792,None,98.55934419995174,100.06253690016456,100.07916030008346,101.03368090000004,101.08366150013171,102.04281090013683,102.04281090013683,None,1.7577160547176998,1.3866013998631388,103.34354600007646,None,ScrollUp,정답입니다,103.34354600007646,None,103.34354600007646,None,103.34354600007646,None,103.34354600007646,None,104.4258524000179,None,104.4258524000179,104.92580950004049,,,,,,,,,,,,,,,,,,,,,,,,,,,,,,,,,,,,,,,,,,,,,,,,,103,2023-03-28_17h00.13.213,FishGame,2022.1.1,59.99037758190652,
,2,넌 슬기로워,2,Orange,A,6.166666666666667,4.1,ScrollDown,ScrollUp,Orange.png,practice,,,0,0,0,0,,,,,0,0,0,0,0,1,1,1,,,,,,,,,,,,,,,,,,,,,,,,,,,,,,,,,,,,,,,,,,,,,,,,,,,,,,,,1.4891975312493742,0.935132100014016,105.5570660000667,None,NoResponse,무응답입니다,105.5570660000667,None,105.5570660000667,None,105.5570660000667,None,105.5570660000667,None,106.37634810013697,None,106.37634810013697,106.87881330004893,,,,,,,,,,,,,,,,,,,,,,,,,,,,,,,,,,,,,,,,,,,,,,,,,103,2023-03-28_17h00.13.213,FishGame,2022.1.1,59.99037758190652,
,3,나를 보내줘,6,Orange,A,0,0,ScrollUp,ScrollDown,Orange.png,practice,,,0,0,0,0,,,,,0,0,0,0,0,2,2,2,,,,,,,,,,,,,,,,,,,,,,,,,,,,,,,,,,,,,,,,,,,,,,,,,,,,,,,,1.6111111169060073,1.4315322001930326,107.50457939994521,None,ScrollUp,정답입니다,107.50457939994521,None,107.50457939994521,None,107.50457939994521,None,107.50457939994521,None,108.82872730004601,None,108.82872730004601,109.328725800151,,,,,,,,,,,,,,,,,,,,,,,,,,,,,,,,,,,,,,,,,,,,,,,,,103,2023-03-28_17h00.13.213,FishGame,2022.1.1,59.99037758190652,
,4,나를 데려가줘,6,Green,B,0,0,ScrollDown,ScrollUp,Green.png,practice,,,0,0,0,0,,,,,0,0,0,0,0,3,3,3,,,,,,,,,,,,,,,,,,,,,,,,,,,,,,,,,,,,,,,,,,,,,,,,,,,,,,,,1,1.6791870999149978,109.95055619999766,None,ScrollDown,정답입니다,109.95055619999766,None,109.95055619999766,None,109.95055619999766,None,109.95055619999766,None,111.5286216000095,None,111.5286216000095,112.02861450007185,,,,,,,,,,,,,,,,,,,,,,,,,,,,,,,,,,,,,,,,,,,,,,,,,103,2023-03-28_17h00.13.213,FishGame,2022.1.1,59.99037758190652,
,1,넌 교활해,5,Green,B,2.333333333333333,2.133333333333333,ScrollUp,ScrollDown,Green.png,practice,,,0,0,0,0,,,,,0,0,0,0,,,,,,,,,,,,,,,,,,,,,,,,,,,,,,,,,,,,,,,,,,,,,,,,,,,,,,,,,,,,,,,,,,,,,,,,,,,,,,n,8.06125389994122,112.52864659996703,None,112.52864659996703,None,,,,,,,,,,,,,,,,,,,,,,,,,,,,,,,,,,,,,,,,,,,103,2023-03-28_17h00.13.213,FishGame,2022.1.1,59.99037758190652,
,1,넌 따뜻해,1,Green,B,6.083333333333333,5.6,ScrollUp,ScrollDown,Green.png,1,Positive,Incongruent,0,0,0,0,,,,,,,,,,,,,0,0,0,0,,,,,,,,,,,,,,,,,,,,,,,,,,,,,,,,,,,,,,,,,,,,127.72853510011919,129.2284605000168,129.26176939997822,130.21172000002116,130.2617273000069,131.21182880015112,131.21182880015112,None,,,,,,,,,,,,,,,,,,,,,,,,,0.025925925,-0.11111111,1,0,0,0.3147919001057744,None,120.61188949993812,None,1.8719135870536168,1.4600075001362711,132.50568730011582,None,ScrollUp,정답입니다,132.50568730011582,None,132.50568730011582,None,132.50568730011582,None,132.50568730011582,None,133.65885370015167,None,133.65885370015167,134.16154270013794,,,,,,,,,,,,,,,,103,2023-03-28_17h00.13.213,FishGame,2022.1.1,59.99037758190652,
,2,넌 기품있어,2,Green,B,5.791666666666668,4.5,ScrollUp,ScrollDown,Green.png,1,Positive,Incongruent,0,0,0,0,,,,,,,,,,,,,0,1,1,1,,,,,,,,,,,,,,,,,,,,,,,,,,,,,,,,,,,,,,,,,,,,,,,,,,,,,,,,,,,,,,,,,,,,,,,,,,,,,,,,,,,,,1.7978395173947017,0.9955659999977797,134.7899581999518,None,ScrollUp,정답입니다,134.7899581999518,None,134.7899581999518,None,134.7899581999518,None,134.7899581999518,None,135.67817980004475,None,135.67817980004475,136.17872299999,,,,,,,,,,,,,,,,103,2023-03-28_17h00.13.213,FishGame,2022.1.1,59.99037758190652,
,3,나를 보내줘,6,Orange,A,0,0,ScrollUp,ScrollDown,Orange.png,1,NonTarget,NonTarget,0,0,0,0,,,,,,,,,,,,,0,2,2,2,,,,,,,,,,,,,,,,,,,,,,,,,,,,,,,,,,,,,,,,,,,,,,,,,,,,,,,,,,,,,,,,,,,,,,,,,,,,,,,,,,,,,1.817901223897934,1.2789400001056492,136.809877499938,None,ScrollUp,정답입니다,136.809877499938,None,136.809877499938,None,136.809877499938,None,136.809877499938,None,137.9782189000398,None,137.9782189000398,138.49181629996747,,,,,,,,,,,,,,,,103,2023-03-28_17h00.13.213,FishGame,2022.1.1,59.99037758190652,
,4,넌 수동적이야,4,Orange,A,2.833333333333333,2.933333333333333,ScrollDown,ScrollUp,Orange.png,1,Negative,Incongruent,0,0,0,0,,,,,,,,,,,,,0,3,3,3,,,,,,,,,,,,,,,,,,,,,,,,,,,,,,,,,,,,,,,,,,,,,,,,,,,,,,,,,,,,,,,,,,,,,,,,,,,,,,,,,,,,,1,1.0150357999373227,139.1216060000006,None,ScrollDown,정답입니다,139.1216060000006,None,139.1216060000006,None,139.1216060000006,None,139.1216060000006,None,140.02513250010088,None,140.02513250010088,140.52539510000497,,,,,,,,,,,,,,,,103,2023-03-28_17h00.13.213,FishGame,2022.1.1,59.99037758190652,
,5,넌 사심이 없어,3,Green,B,4.916666666666666,4.333333333333333,ScrollUp,ScrollDown,Green.png,1,Neutral,Neutral,0,0,0,0,,,,,,,,,,,,,0,4,4,4,,,,,,,,,,,,,,,,,,,,,,,,,,,,,,,,,,,,,,,,,,,,,,,,,,,,,,,,,,,,,,,,,,,,,,,,,,,,,,,,,,,,,1.9305555423100789,0.9821361999493092,141.15576300001703,None,ScrollUp,정답입니다,141.15576300001703,None,141.15576300001703,None,141.15576300001703,None,141.15576300001703,None,142.02817060006782,None,142.02817060006782,142.52812060015276,,,,,,,,,,,,,,,,103,2023-03-28_17h00.13.213,FishGame,2022.1.1,59.99037758190652,
,6,넌 헤퍼,5,Orange,A,2.458333333333334,2.233333333333333,ScrollDown,ScrollUp,Orange.png,1,Negative,Incongruent,0,0,0,0,,,,,,,,,,,,,0,5,5,5,,,,,,,,,,,,,,,,,,,,,,,,,,,,,,,,,,,,,,,,,,,,,,,,,,,,,,,,,,,,,,,,,,,,,,,,,,,,,,,,,,,,,1,0.9444102998822927,143.15605290001258,None,ScrollDown,정답입니다,143.15605290001258,None,143.15605290001258,None,143.15605290001258,None,143.15605290001258,None,143.9888325999491,None,143.9888325999491,144.49177540000528,,,,,,,,,,,,,,,,103,2023-03-28_17h00.13.213,FishGame,2022.1.1,59.99037758190652,
,7,넌 말쑥해,3,Orange,A,4.833333333333334,4.333333333333333,ScrollDown,ScrollUp,Orange.png,1,Neutral,Neutral,0,0,0,0,,,,,,,,,,,,,0,6,6,6,,,,,,,,,,,,,,,,,,,,,,,,,,,,,,,,,,,,,,,,,,,,,,,,,,,,,,,,,,,,,,,,,,,,,,,,,,,,,,,,,,,,,1,0.8296020999550819,145.12587510002777,None,ScrollDown,정답입니다,145.12587510002777,None,145.12587510002777,None,145.12587510002777,None,145.12587510002777,None,145.84171309997328,None,145.84171309997328,146.3416885000188,,,,,,,,,,,,,,,,103,2023-03-28_17h00.13.213,FishGame,2022.1.1,59.99037758190652,
,8,넌 투덜거려,5,Green,B,2.541666666666667,2.266666666666667,ScrollUp,ScrollDown,Green.png,1,Negative,Congruent,0,0,0,0,,,,,,,,,,,,,0,7,7,7,,,,,,,,,,,,,,,,,,,,,,,,,,,,,,,,,,,,,,,,,,,,,,,,,,,,,,,,,,,,,,,,,,,,,,,,,,,,,,,,,,,,,1.8472222139437993,0.9792959000915289,146.97100060014054,None,ScrollUp,정답입니다,146.97100060014054,None,146.97100060014054,None,146.97100060014054,None,146.97100060014054,None,147.84172710007988,None,147.84172710007988,148.3416790999472,,,,,,,,,,,,,,,,103,2023-03-28_17h00.13.213,FishGame,2022.1.1,59.99037758190652,
,9,넌 적극적이야,1,Orange,A,5.708333333333333,5.533333333333333,ScrollDown,ScrollUp,Orange.png,1,Positive,Congruent,0,0,0,0,,,,,,,,,,,,,0,8,8,8,,,,,,,,,,,,,,,,,,,,,,,,,,,,,,,,,,,,,,,,,,,,,,,,,,,,,,,,,,,,,,,,,,,,,,,,,,,,,,,,,,,,,1.1512345721324284,0.8320704998914152,148.971734700026,None,ScrollDown,정답입니다,148.971734700026,None,148.971734700026,None,148.971734700026,None,148.971734700026,None,149.6919486001134,None,149.6919486001134,150.19463420007378,,,,,,,,,,,,,,,,103,2023-03-28_17h00.13.213,FishGame,2022.1.1,59.99037758190652,
,10,넌 재미없어,4,Green,B,2.625,2.966666666666667,ScrollUp,ScrollDown,Green.png,1,Negative,Congruent,0,0,0,0,,,,,,,,,,,,,0,9,9,9,,,,,,,,,,,,,,,,,,,,,,,,,,,,,,,,,,,,,,,,,,,,,,,,,,,,,,,,,,,,,,,,,,,,,,,,,,,,,,,,,,,,,1.8086419651905696,0.8289109000470489,150.82123759994283,None,ScrollUp,정답입니다,150.82123759994283,None,150.82123759994283,None,150.82123759994283,None,150.82123759994283,None,151.54190400009975,None,151.54190400009975,152.04154130001552,,,,,,,,,,,,,,,,103,2023-03-28_17h00.13.213,FishGame,2022.1.1,59.99037758190652,
,11,넌 명석해,2,Orange,A,5.875,4.033333333333333,ScrollDown,ScrollUp,Orange.png,1,Positive,Congruent,0,0,0,0,,,,,,,,,,,,,0,10,10,10,,,,,,,,,,,,,,,,,,,,,,,,,,,,,,,,,,,,,,,,,,,,,,,,,,,,,,,,,,,,,,,,,,,,,,,,,,,,,,,,,,,,,1,0.8305595999117941,152.66857099998742,None,ScrollDown,정답입니다,152.66857099998742,None,152.66857099998742,None,152.66857099998742,None,152.66857099998742,None,153.39156770007685,None,153.39156770007685,153.89155940013006,,,,,,,,,,,,,,,,103,2023-03-28_17h00.13.213,FishGame,2022.1.1,59.99037758190652,
,12,나를 데려가줘,6,Green,B,0,0,ScrollDown,ScrollUp,Green.png,1,NonTarget,NonTarget,0,0,0,0,,,,,,,,,,,,,0,11,11,11,,,,,,,,,,,,,,,,,,,,,,,,,,,,,,,,,,,,,,,,,,,,,,,,,,,,,,,,,,,,,,,,,,,,,,,,,,,,,,,,,,,,,1,1.2485341001302004,154.5181569000706,None,ScrollDown,정답입니다,154.5181569000706,None,154.5181569000706,None,154.5181569000706,None,154.5181569000706,None,155.6612158000935,None,155.6612158000935,156.1611975999549,,,,,,,,,,,,,,,,103,2023-03-28_17h00.13.213,FishGame,2022.1.1,59.99037758190652,
,13,넌 소심해,4,Orange,A,3,3.1,ScrollDown,ScrollUp,Orange.png,1,Negative,Incongruent,0,0,0,0,,,,,,,,,,,,,0,12,12,12,,,,,,,,,,,,,,,,,,,,,,,,,,,,,,,,,,,,,,,,,,,,,,,,,,,,,,,,,,,,,,,,,,,,,,,,,,,,,,,,,,,,,1,1.0887554998043925,156.78828900004737,None,ScrollDown,정답입니다,156.78828900004737,None,156.78828900004737,None,156.78828900004737,None,156.78828900004737,None,157.77185659995303,None,157.77185659995303,158.27475020010024,,,,,,,,,,,,,,,,103,2023-03-28_17h00.13.213,FishGame,2022.1.1,59.99037758190652,
,14,넌 합리적이야,2,Orange,A,5.583333333333333,4.733333333333333,ScrollDown,ScrollUp,Orange.png,1,Positive,Congruent,0,0,0,0,,,,,,,,,,,,,0,13,13,13,,,,,,,,,,,,,,,,,,,,,,,,,,,,,,,,,,,,,,,,,,,,,,,,,,,,,,,,,,,,,,,,,,,,,,,,,,,,,,,,,,,,,1,0.8317410000599921,158.90132370009087,None,ScrollDown,정답입니다,158.90132370009087,None,158.90132370009087,None,158.90132370009087,None,158.90132370009087,None,159.6247253001202,None,159.6247253001202,160.1247815999668,,,,,,,,,,,,,,,,103,2023-03-28_17h00.13.213,FishGame,2022.1.1,59.99037758190652,
,15,넌 무자비해,5,Green,B,2.333333333333333,2.1,ScrollUp,ScrollDown,Green.png,1,Negative,Congruent,0,0,0,0,,,,,,,,,,,,,0,14,14,14,,,,,,,,,,,,,,,,,,,,,,,,,,,,,,,,,,,,,,,,,,,,,,,,,,,,,,,,,,,,,,,,,,,,,,,,,,,,,,,,,,,,,1.7746913582086563,0.7792605001013726,160.7555293000769,None,ScrollUp,정답입니다,160.7555293000769,None,160.7555293000769,None,160.7555293000769,None,160.7555293000769,None,161.42775960010476,None,161.42775960010476,161.9279336000327,,,,,,,,,,,,,,,,103,2023-03-28_17h00.13.213,FishGame,2022.1.1,59.99037758190652,
,16,나를 보내줘,6,Orange,A,0,0,ScrollUp,ScrollDown,Orange.png,1,NonTarget,NonTarget,0,0,0,0,,,,,,,,,,,,,0,15,15,15,,,,,,,,,,,,,,,,,,,,,,,,,,,,,,,,,,,,,,,,,,,,,,,,,,,,,,,,,,,,,,,,,,,,,,,,,,,,,,,,,,,,,1.0987654229005177,0.845982400001958,162.55254020006396,None,ScrollDown,오답입니다,162.55254020006396,None,162.55254020006396,None,162.55254020006396,None,162.55254020006396,None,163.29171929997392,None,163.29171929997392,163.79890780011192,,,,,,,,,,,,,,,,103,2023-03-28_17h00.13.213,FishGame,2022.1.1,59.99037758190652,
,17,넌 현실적이야,3,Green,B,4.608695652173913,4.766666666666667,ScrollUp,ScrollDown,Green.png,1,Neutral,Neutral,0,0,0,0,,,,,,,,,,,,,0,16,16,16,,,,,,,,,,,,,,,,,,,,,,,,,,,,,,,,,,,,,,,,,,,,,,,,,,,,,,,,,,,,,,,,,,,,,,,,,,,,,,,,,,,,,1.89969136317571,1.0324953000526875,164.41630040016025,None,ScrollUp,정답입니다,164.41630040016025,None,164.41630040016025,None,164.41630040016025,None,164.41630040016025,None,165.3412603000179,None,165.3412603000179,165.84132850007154,,,,,,,,,,,,,,,,103,2023-03-28_17h00.13.213,FishGame,2022.1.1,59.99037758190652,
,18,넌 의리있어,1,Green,B,5.833333333333334,5.633333333333334,ScrollUp,ScrollDown,Green.png,1,Positive,Incongruent,0,0,0,0,,,,,,,,,,,,,0,17,17,17,,,,,,,,,,,,,,,,,,,,,,,,,,,,,,,,,,,,,,,,,,,,,,,,,,,,,,,,,,,,,,,,,,,,,,,,,,,,,,,,,,,,,1.8549382835626602,0.8850111998617649,166.4664704001043,None,ScrollUp,정답입니다,166.4664704001043,None,166.4664704001043,None,166.4664704001043,None,166.4664704001043,None,167.24165980005637,None,167.24165980005637,167.74426660011522,,,,,,,,,,,,,,,,103,2023-03-28_17h00.13.213,FishGame,2022.1.1,59.99037758190652,
,19,넌 신경과민이야,5,Orange,A,2.541666666666667,2.166666666666667,ScrollDown,ScrollUp,Orange.png,1,Negative,Incongruent,0,0,0,0,,,,,,,,,,,,,0,18,18,18,,,,,,,,,,,,,,,,,,,,,,,,,,,,,,,,,,,,,,,,,,,,,,,,,,,,,,,,,,,,,,,,,,,,,,,,,,,,,,,,,,,,,1.0432098706563313,0.9454203001223505,168.3766193999909,None,ScrollDown,정답입니다,168.3766193999909,None,168.3766193999909,None,168.3766193999909,None,168.3766193999909,None,169.2109926000703,None,169.2109926000703,169.71084950002842,,,,,,,,,,,,,,,,103,2023-03-28_17h00.13.213,FishGame,2022.1.1,59.99037758190652,
,20,넌 편안해,1,Orange,A,5.916666666666666,5.866666666666666,ScrollDown,ScrollUp,Orange.png,1,Positive,Congruent,0,0,0,0,,,,,,,,,,,,,0,19,19,19,,,,,,,,,,,,,,,,,,,,,,,,,,,,,,,,,,,,,,,,,,,,,,,,,,,,,,,,,,,,,,,,,,,,,,,,,,,,,,,,,,,,,1.060185174147288,0.8317710999399424,170.35547260008752,None,ScrollDown,정답입니다,170.35547260008752,None,170.35547260008752,None,170.35547260008752,None,170.35547260008752,None,171.07453919993713,None,171.07453919993713,171.57451570010744,,,,,,,,,,,,,,,,103,2023-03-28_17h00.13.213,FishGame,2022.1.1,59.99037758190652,
,21,넌 품위있어,2,Green,B,5.291666666666666,4.466666666666667,ScrollUp,ScrollDown,Green.png,1,Positive,Incongruent,0,0,0,0,,,,,,,,,,,,,0,20,20,20,,,,,,,,,,,,,,,,,,,,,,,,,,,,,,,,,,,,,,,,,,,,,,,,,,,,,,,,,,,,,,,,,,,,,,,,,,,,,,,,,,,,,1.8163580348094304,0.8011968999635428,172.2091894999612,None,ScrollUp,정답입니다,172.2091894999612,None,172.2091894999612,None,172.2091894999612,None,172.2091894999612,None,172.89155469997786,None,172.89155469997786,173.39416999998502,,,,,,,,,,,,,,,,103,2023-03-28_17h00.13.213,FishGame,2022.1.1,59.99037758190652,
,22,넌 빈틈없어,3,Orange,A,4.833333333333333,3.966666666666667,ScrollDown,ScrollUp,Orange.png,1,Neutral,Neutral,0,0,0,0,,,,,,,,,,,,,0,21,21,21,,,,,,,,,,,,,,,,,,,,,,,,,,,,,,,,,,,,,,,,,,,,,,,,,,,,,,,,,,,,,,,,,,,,,,,,,,,,,,,,,,,,,1,0.8457567000295967,174.02306880010292,None,ScrollDown,정답입니다,174.02306880010292,None,174.02306880010292,None,174.02306880010292,None,174.02306880010292,None,174.76080849999562,None,174.76080849999562,175.26078839995898,,,,,,,,,,,,,,,,103,2023-03-28_17h00.13.213,FishGame,2022.1.1,59.99037758190652,
,23,넌 상상력없어,4,Green,B,2.833333333333333,3.133333333333333,ScrollUp,ScrollDown,Green.png,1,Negative,Congruent,0,0,0,0,,,,,,,,,,,,,0,22,22,22,,,,,,,,,,,,,,,,,,,,,,,,,,,,,,,,,,,,,,,,,,,,,,,,,,,,,,,,,,,,,,,,,,,,,,,,,,,,,,,,,,,,,1.8966049353281658,0.8790573999285698,175.89255190012045,None,ScrollUp,정답입니다,175.89255190012045,None,175.89255190012045,None,175.89255190012045,None,175.89255190012045,None,176.65799630014226,None,176.65799630014226,177.16066509997472,,,,,,,,,,,,,,,,103,2023-03-28_17h00.13.213,FishGame,2022.1.1,59.99037758190652,
,24,넌 지혜로워,2,Green,B,6.333333333333334,4.633333333333334,ScrollUp,ScrollDown,Green.png,1,Positive,Incongruent,0,0,0,0,,,,,,,,,,,,,0,23,23,23,,,,,,,,,,,,,,,,,,,,,,,,,,,,,,,,,,,,,,,,,,,,,,,,,,,,,,,,,,,,,,,,,,,,,,,,,,,,,,,,,,,,,1.7978395173947017,0.796077499864623,177.78821770008653,None,ScrollUp,정답입니다,177.78821770008653,None,177.78821770008653,None,177.78821770008653,None,177.78821770008653,None,178.47729349997826,None,178.47729349997826,178.97730390005745,,,,,,,,,,,,,,,,103,2023-03-28_17h00.13.213,FishGame,2022.1.1,59.99037758190652,
,25,넌 시끄러워,4,Orange,A,2.833333333333333,3.033333333333333,ScrollDown,ScrollUp,Orange.png,1,Negative,Incongruent,0,0,0,0,,,,,,,,,,,,,0,24,24,24,,,,,,,,,,,,,,,,,,,,,,,,,,,,,,,,,,,,,,,,,,,,,,,,,,,,,,,,,,,,,,,,,,,,,,,,,,,,,,,,,,,,,1.0246913532416027,0.896332300035283,179.60691169998609,None,ScrollDown,정답입니다,179.60691169998609,None,179.60691169998609,None,179.60691169998609,None,179.60691169998609,None,180.39129250007682,None,180.39129250007682,180.89397360011935,,,,,,,,,,,,,,,,103,2023-03-28_17h00.13.213,FishGame,2022.1.1,59.99037758190652,
,26,넌 만사태평이야,3,Green,B,4,4.333333333333333,ScrollUp,ScrollDown,Green.png,1,Neutral,Neutral,0,0,0,0,,,,,,,,,,,,,0,25,25,25,,,,,,,,,,,,,,,,,,,,,,,,,,,,,,,,,,,,,,,,,,,,,,,,,,,,,,,,,,,,,,,,,,,,,,,,,,,,,,,,,,,,,1.8719135870536168,0.912050399929285,181.52801580005325,None,ScrollUp,정답입니다,181.52801580005325,None,181.52801580005325,None,181.52801580005325,None,181.52801580005325,None,182.3245639000088,None,182.3245639000088,182.8271892000921,,,,,,,,,,,,,,,,103,2023-03-28_17h00.13.213,FishGame,2022.1.1,59.99037758190652,
,27,넌 붙임성있어,1,Orange,A,5.708333333333333,5.633333333333334,ScrollDown,ScrollUp,Orange.png,1,Positive,Congruent,0,0,0,0,,,,,,,,,,,,,0,26,26,26,,,,,,,,,,,,,,,,,,,,,,,,,,,,,,,,,,,,,,,,,,,,,,,,,,,,,,,,,,,,,,,,,,,,,,,,,,,,,,,,,,,,,1.0509259402751923,0.7459995998069644,183.45719650015235,None,ScrollDown,정답입니다,183.45719650015235,None,183.45719650015235,None,183.45719650015235,None,183.45719650015235,None,184.09386399993673,None,184.09386399993673,184.5938297000248,,,,,,,,,,,,,,,,103,2023-03-28_17h00.13.213,FishGame,2022.1.1,59.99037758190652,
,28,넌 영리해,2,Orange,A,6,4.033333333333333,ScrollDown,ScrollUp,Orange.png,1,Positive,Congruent,0,0,0,0,,,,,,,,,,,,,0,27,27,27,,,,,,,,,,,,,,,,,,,,,,,,,,,,,,,,,,,,,,,,,,,,,,,,,,,,,,,,,,,,,,,,,,,,,,,,,,,,,,,,,,,,,1.0709876716136932,0.7818152001127601,185.22089260001667,None,ScrollDown,정답입니다,185.22089260001667,None,185.22089260001667,None,185.22089260001667,None,185.22089260001667,None,185.8912770000752,None,185.8912770000752,186.39379450003617,,,,,,,,,,,,,,,,103,2023-03-28_17h00.13.213,FishGame,2022.1.1,59.99037758190652,
,29,넌 열심이야,1,Green,B,6.041666666666667,5.833333333333333,ScrollUp,ScrollDown,Green.png,1,Positive,Incongruent,0,0,0,0,,,,,,,,,,,,,0,28,28,28,,,,,,,,,,,,,,,,,,,,,,,,,,,,,,,,,,,,,,,,,,,,,,,,,,,,,,,,,,,,,,,,,,,,,,,,,,,,,,,,,,,,,1.807098776102066,0.9126262001227587,187.01911059999838,None,ScrollUp,정답입니다,187.01911059999838,None,187.01911059999838,None,187.01911059999838,None,187.01911059999838,None,187.82728770002723,None,187.82728770002723,188.3271654001437,,,,,,,,,,,,,,,,103,2023-03-28_17h00.13.213,FishGame,2022.1.1,59.99037758190652,
,30,넌 인기없어,4,Green,B,3,3.3,ScrollUp,ScrollDown,Green.png,1,Negative,Congruent,0,0,0,0,,,,,,,,,,,,,0,29,29,29,,,,,,,,,,,,,,,,,,,,,,,,,,,,,,,,,,,,,,,,,,,,,,,,,,,,,,,,,,,,,,,,,,,,,,,,,,,,,,,,,,,,,1.9305555423100789,0.7796867999713868,188.96629630005918,None,ScrollUp,정답입니다,188.96629630005918,None,188.96629630005918,None,188.96629630005918,None,188.96629630005918,None,189.64079380012117,None,189.64079380012117,190.14179669995792,,,,,,,,,,,,,,,,103,2023-03-28_17h00.13.213,FishGame,2022.1.1,59.99037758190652,
,31,넌 익살스러워,3,Orange,A,4.708333333333334,4.833333333333333,ScrollDown,ScrollUp,Orange.png,1,Neutral,Neutral,0,0,0,0,,,,,,,,,,,,,0,30,30,30,,,,,,,,,,,,,,,,,,,,,,,,,,,,,,,,,,,,,,,,,,,,,,,,,,,,,,,,,,,,,,,,,,,,,,,,,,,,,,,,,,,,,1.0447530845801036,0.9012141001876444,190.7718392999377,None,ScrollDown,정답입니다,190.7718392999377,None,190.7718392999377,None,190.7718392999377,None,190.7718392999377,None,191.56046300008893,None,191.56046300008893,192.06048730015755,,,,,,,,,,,,,,,,103,2023-03-28_17h00.13.213,FishGame,2022.1.1,59.99037758190652,
,32,넌 이기적이야,5,Green,B,2.291666666666667,2.333333333333333,ScrollUp,ScrollDown,Green.png,1,Negative,Congruent,0,0,0,0,,,,,,,,,,,,,0,31,31,31,,,,,,,,,,,,,,,,,,,,,,,,,,,,,,,,,,,,,,,,,,,,,,,,,,,,,,,,,,,,,,,,,,,,,,,,,,,,,,,,,,,,,1.8317901243766148,0.8817996999714524,192.6865976001136,None,ScrollUp,정답입니다,192.6865976001136,None,192.6865976001136,None,192.6865976001136,None,192.6865976001136,None,193.4577693999745,None,193.4577693999745,193.9604281000793,,,,,,,,,,,,,,,,103,2023-03-28_17h00.13.213,FishGame,2022.1.1,59.99037758190652,
,33,나를 데려가줘,6,Green,B,0,0,ScrollDown,ScrollUp,Green.png,1,NonTarget,NonTarget,0,0,0,0,,,,,,,,,,,,,0,32,32,32,,,,,,,,,,,,,,,,,,,,,,,,,,,,,,,,,,,,,,,,,,,,,,,,,,,,,,,,,,,,,,,,,,,,,,,,,,,,,,,,,,,,,1.0524691541989644,1.0621231999248266,194.58780720015056,None,ScrollDown,정답입니다,194.58780720015056,None,194.58780720015056,None,194.58780720015056,None,194.58780720015056,None,195.54092629998922,None,195.54092629998922,196.04406830016524,,,,,,,,,,,,,,,,103,2023-03-28_17h00.13.213,FishGame,2022.1.1,59.99037758190652,
,34,넌 기회주의자야,5,Orange,A,2.875,2.133333333333333,ScrollDown,ScrollUp,Orange.png,1,Negative,Incongruent,0,0,0,0,,,,,,,,,,,,,0,33,33,33,,,,,,,,,,,,,,,,,,,,,,,,,,,,,,,,,,,,,,,,,,,,,,,,,,,,,,,,,,,,,,,,,,,,,,,,,,,,,,,,,,,,,1.060185174147288,0.9308734000660479,196.67249789997004,None,ScrollDown,정답입니다,196.67249789997004,None,196.67249789997004,None,196.67249789997004,None,196.67249789997004,None,197.49093520012684,None,197.49093520012684,197.99359520012513,,,,,,,,,,,,,,,,103,2023-03-28_17h00.13.213,FishGame,2022.1.1,59.99037758190652,
,1,넌 미성숙해,4,Orange,A,3,3.2,ScrollDown,ScrollUp,Orange.png,2,Negative,Incongruent,0,0,0,0,,,,,,,,,,,,,,,,,0,0,0,0,,,,,,,,,,,,,,,,,,,,,,,,,,,,,,,,,,,,,,,,234.43990580015816,235.94311300013214,235.97646820009686,236.92640749993734,236.97644540015608,237.92643340001814,237.92643340001814,None,,,,,,,,,,,,,,,,,,,,,,,,,,,,,,,,,,1,1.227815299993381,239.04004290001467,None,ScrollDown,정답입니다,239.04004290001467,None,239.04004290001467,None,239.04004290001467,None,239.04004290001467,None,240.15670779999346,None,240.15670779999346,240.6567331000697,198.4909493001178,None,198.4909493001178,None,0.16666667,-0.094444446,1,0,0,0.016082100104540586,None,228.4900636000093,None,,,103,2023-03-28_17h00.13.213,FishGame,2022.1.1,59.99037758190652,
,2,넌 반사회적이야,5,Green,B,2.416666666666667,2.033333333333333,ScrollUp,ScrollDown,Green.png,2,Negative,Congruent,0,0,0,0,,,,,,,,,,,,,,,,,0,1,1,1,,,,,,,,,,,,,,,,,,,,,,,,,,,,,,,,,,,,,,,,,,,,,,,,,,,,,,,,,,,,,,,,,,,,,,,,,,,,,,,,,1.878086417913437,0.8954294000286609,241.28488839999773,None,ScrollUp,정답입니다,241.28488839999773,None,241.28488839999773,None,241.28488839999773,None,241.28488839999773,None,242.0760389000643,None,242.0760389000643,242.57610910013318,,,,,,,,,,,,,,,,103,2023-03-28_17h00.13.213,FishGame,2022.1.1,59.99037758190652,
,3,넌 유능해,2,Orange,A,6.208333333333333,4.433333333333334,ScrollDown,ScrollUp,Orange.png,2,Positive,Congruent,0,0,0,0,,,,,,,,,,,,,,,,,0,2,2,2,,,,,,,,,,,,,,,,,,,,,,,,,,,,,,,,,,,,,,,,,,,,,,,,,,,,,,,,,,,,,,,,,,,,,,,,,,,,,,,,,1,0.8956408000085503,243.20470630005002,None,ScrollDown,정답입니다,243.20470630005002,None,243.20470630005002,None,243.20470630005002,None,243.20470630005002,None,243.9927383000031,None,243.9927383000031,244.49275290011428,,,,,,,,,,,,,,,,103,2023-03-28_17h00.13.213,FishGame,2022.1.1,59.99037758190652,
,4,넌 능숙해,2,Green,B,5.666666666666667,4.733333333333333,ScrollUp,ScrollDown,Green.png,2,Positive,Incongruent,0,0,0,0,,,,,,,,,,,,,,,,,0,3,3,3,,,,,,,,,,,,,,,,,,,,,,,,,,,,,,,,,,,,,,,,,,,,,,,,,,,,,,,,,,,,,,,,,,,,,,,,,,,,,,,,,2,0.8791159000247717,245.11545599997044,None,ScrollUp,정답입니다,245.11545599997044,None,245.11545599997044,None,245.11545599997044,None,245.11545599997044,None,245.8899058001116,None,245.8899058001116,246.39258520002477,,,,,,,,,,,,,,,,103,2023-03-28_17h00.13.213,FishGame,2022.1.1,59.99037758190652,
,5,넌 진부해,4,Green,B,2.458333333333333,3.166666666666667,ScrollUp,ScrollDown,Green.png,2,Negative,Congruent,0,0,0,0,,,,,,,,,,,,,,,,,0,4,4,4,,,,,,,,,,,,,,,,,,,,,,,,,,,,,,,,,,,,,,,,,,,,,,,,,,,,,,,,,,,,,,,,,,,,,,,,,,,,,,,,,1.858024686574936,0.762606899952516,247.01780329993926,None,ScrollUp,정답입니다,247.01780329993926,None,247.01780329993926,None,247.01780329993926,None,247.01780329993926,None,247.67604120005853,None,247.67604120005853,248.1925707999617,,,,,,,,,,,,,,,,103,2023-03-28_17h00.13.213,FishGame,2022.1.1,59.99037758190652,
,6,나를 보내줘,6,Orange,A,0,0,ScrollUp,ScrollDown,Orange.png,2,NonTarget,NonTarget,0,0,0,0,,,,,,,,,,,,,,,,,0,5,5,5,,,,,,,,,,,,,,,,,,,,,,,,,,,,,,,,,,,,,,,,,,,,,,,,,,,,,,,,,,,,,,,,,,,,,,,,,,,,,,,,,1.9552469154198964,1.0455172001384199,248.80477369995788,None,ScrollUp,정답입니다,248.80477369995788,None,248.80477369995788,None,248.80477369995788,None,248.80477369995788,None,249.74256639997475,None,249.74256639997475,250.24255650001578,,,,,,,,,,,,,,,,103,2023-03-28_17h00.13.213,FishGame,2022.1.1,59.99037758190652,
,7,넌 엄격해,3,Orange,A,4.166666666666666,4.1,ScrollDown,ScrollUp,Orange.png,2,Neutral,Neutral,0,0,0,0,,,,,,,,,,,,,,,,,0,6,6,6,,,,,,,,,,,,,,,,,,,,,,,,,,,,,,,,,,,,,,,,,,,,,,,,,,,,,,,,,,,,,,,,,,,,,,,,,,,,,,,,,1,0.8625823999755085,250.87073389999568,None,ScrollDown,정답입니다,250.87073389999568,None,250.87073389999568,None,250.87073389999568,None,250.87073389999568,None,251.62588250008412,None,251.62588250008412,252.1258404001128,,,,,,,,,,,,,,,,103,2023-03-28_17h00.13.213,FishGame,2022.1.1,59.99037758190652,
,8,나를 보내줘,6,Orange,A,0,0,ScrollUp,ScrollDown,Orange.png,2,NonTarget,NonTarget,0,0,0,0,,,,,,,,,,,,,,,,,0,7,7,7,,,,,,,,,,,,,,,,,,,,,,,,,,,,,,,,,,,,,,,,,,,,,,,,,,,,,,,,,,,,,,,,,,,,,,,,,,,,,,,,,1.9861110945542653,0.9126362001989037,252.75034640007652,None,ScrollUp,정답입니다,252.75034640007652,None,252.75034640007652,None,252.75034640007652,None,252.75034640007652,None,253.5565377001185,None,253.5565377001185,254.0639440000523,,,,,,,,,,,,,,,,103,2023-03-28_17h00.13.213,FishGame,2022.1.1,59.99037758190652,
,9,넌 대담해,3,Green,B,4.875,4.866666666666666,ScrollUp,ScrollDown,Green.png,2,Neutral,Neutral,0,0,0,0,,,,,,,,,,,,,,,,,0,8,8,8,,,,,,,,,,,,,,,,,,,,,,,,,,,,,,,,,,,,,,,,,,,,,,,,,,,,,,,,,,,,,,,,,,,,,,,,,,,,,,,,,1.878086417913437,0.8813688000664115,254.68629560014233,None,ScrollUp,정답입니다,254.68629560014233,None,254.68629560014233,None,254.68629560014233,None,254.68629560014233,None,255.45616489998065,None,255.45616489998065,255.95626040012576,,,,,,,,,,,,,,,,103,2023-03-28_17h00.13.213,FishGame,2022.1.1,59.99037758190652,
,10,넌 꾸준해,1,Orange,A,5.916666666666668,5.8,ScrollDown,ScrollUp,Orange.png,2,Positive,Congruent,0,0,0,0,,,,,,,,,,,,,,,,,0,9,9,9,,,,,,,,,,,,,,,,,,,,,,,,,,,,,,,,,,,,,,,,,,,,,,,,,,,,,,,,,,,,,,,,,,,,,,,,,,,,,,,,,1.0879629751046498,0.8513611000962555,256.5845389000606,None,ScrollDown,정답입니다,256.5845389000606,None,256.5845389000606,None,256.5845389000606,None,256.5845389000606,None,257.32318029995076,None,257.32318029995076,257.8231164000463,,,,,,,,,,,,,,,,103,2023-03-28_17h00.13.213,FishGame,2022.1.1,59.99037758190652,
,11,나를 데려가줘,6,Green,B,0,0,ScrollDown,ScrollUp,Green.png,2,NonTarget,NonTarget,0,0,0,0,,,,,,,,,,,,,,,,,0,10,10,10,,,,,,,,,,,,,,,,,,,,,,,,,,,,,,,,,,,,,,,,,,,,,,,,,,,,,,,,,,,,,,,,,,,,,,,,,,,,,,,,,1.0632716019948323,1.012351999990642,258.4489045001101,None,ScrollDown,정답입니다,258.4489045001101,None,258.4489045001101,None,258.4489045001101,None,258.4489045001101,None,259.3591452999972,None,259.3591452999972,259.8591577000916,,,,,,,,,,,,,,,,103,2023-03-28_17h00.13.213,FishGame,2022.1.1,59.99037758190652,
,12,넌 독선적이야,5,Orange,A,2.458333333333333,1.933333333333333,ScrollDown,ScrollUp,Orange.png,2,Negative,Incongruent,0,0,0,0,,,,,,,,,,,,,,,,,0,11,11,11,,,,,,,,,,,,,,,,,,,,,,,,,,,,,,,,,,,,,,,,,,,,,,,,,,,,,,,,,,,,,,,,,,,,,,,,,,,,,,,,,1.095679019888242,0.8412091999780387,260.49846670008264,None,ScrollDown,정답입니다,260.49846670008264,None,260.49846670008264,None,260.49846670008264,None,260.49846670008264,None,261.2227161000483,None,261.2227161000483,261.7226873000618,,,,,,,,,,,,,,,,103,2023-03-28_17h00.13.213,FishGame,2022.1.1,59.99037758190652,
,13,나를 보내줘,6,Orange,A,0,0,ScrollUp,ScrollDown,Orange.png,2,NonTarget,NonTarget,0,0,0,0,,,,,,,,,,,,,,,,,0,12,12,12,,,,,,,,,,,,,,,,,,,,,,,,,,,,,,,,,,,,,,,,,,,,,,,,,,,,,,,,,,,,,,,,,,,,,,,,,,,,,,,,,1.8503086417913437,1.0147976998705417,262.3493453999981,None,ScrollUp,정답입니다,262.3493453999981,None,262.3493453999981,None,262.3493453999981,None,262.3493453999981,None,263.25605250010267,None,263.25605250010267,263.75905010011047,,,,,,,,,,,,,,,,103,2023-03-28_17h00.13.213,FishGame,2022.1.1,59.99037758190652,
,14,넌 책임감있어,1,Green,B,6.347826086956522,6,ScrollUp,ScrollDown,Green.png,2,Positive,Incongruent,0,0,0,0,,,,,,,,,,,,,,,,,0,13,13,13,,,,,,,,,,,,,,,,,,,,,,,,,,,,,,,,,,,,,,,,,,,,,,,,,,,,,,,,,,,,,,,,,,,,,,,,,,,,,,,,,1.983024666706721,0.8291887999512255,264.385531200096,None,ScrollUp,정답입니다,264.385531200096,None,264.385531200096,None,264.385531200096,None,264.385531200096,None,265.109094100073,None,265.109094100073,265.60900880000554,,,,,,,,,,,,,,,,103,2023-03-28_17h00.13.213,FishGame,2022.1.1,59.99037758190652,
,15,넌 문학적이야,3,Orange,A,4.708333333333334,4.333333333333333,ScrollDown,ScrollUp,Orange.png,2,Neutral,Neutral,0,0,0,0,,,,,,,,,,,,,,,,,0,14,14,14,,,,,,,,,,,,,,,,,,,,,,,,,,,,,,,,,,,,,,,,,,,,,,,,,,,,,,,,,,,,,,,,,,,,,,,,,,,,,,,,,1.0879629751046498,0.8292559999972582,266.2378319001291,None,ScrollDown,정답입니다,266.2378319001291,None,266.2378319001291,None,266.2378319001291,None,266.2378319001291,None,266.95613800012507,None,266.95613800012507,267.4559121001512,,,,,,,,,,,,,,,,103,2023-03-28_17h00.13.213,FishGame,2022.1.1,59.99037758190652,
,16,넌 재미있어,1,Green,B,5.875,5.7,ScrollUp,ScrollDown,Green.png,2,Positive,Incongruent,0,0,0,0,,,,,,,,,,,,,,,,,0,15,15,15,,,,,,,,,,,,,,,,,,,,,,,,,,,,,,,,,,,,,,,,,,,,,,,,,,,,,,,,,,,,,,,,,,,,,,,,,,,,,,,,,1.8904321044683456,0.8165384000167251,268.07641239999793,None,ScrollUp,정답입니다,268.07641239999793,None,268.07641239999793,None,268.07641239999793,None,268.07641239999793,None,268.7892032000236,None,268.7892032000236,269.28926260001026,,,,,,,,,,,,,,,,103,2023-03-28_17h00.13.213,FishGame,2022.1.1,59.99037758190652,
,17,나를 데려가줘,6,Green,B,0,0,ScrollDown,ScrollUp,Green.png,2,NonTarget,NonTarget,0,0,0,0,,,,,,,,,,,,,,,,,0,16,16,16,,,,,,,,,,,,,,,,,,,,,,,,,,,,,,,,,,,,,,,,,,,,,,,,,,,,,,,,,,,,,,,,,,,,,,,,,,,,,,,,,1.0185184975465138,1.215380399953574,269.91851090011187,None,ScrollDown,정답입니다,269.91851090011187,None,269.91851090011187,None,269.91851090011187,None,269.91851090011187,None,271.02285220008343,None,271.02285220008343,271.5255082999356,,,,,,,,,,,,,,,,103,2023-03-28_17h00.13.213,FishGame,2022.1.1,59.99037758190652,
,18,넌 협력적이야,1,Orange,A,5.625,5.633333333333334,ScrollDown,ScrollUp,Orange.png,2,Positive,Congruent,0,0,0,0,,,,,,,,,,,,,,,,,0,17,17,17,,,,,,,,,,,,,,,,,,,,,,,,,,,,,,,,,,,,,,,,,,,,,,,,,,,,,,,,,,,,,,,,,,,,,,,,,,,,,,,,,1.2206790000200272,0.8621662000659853,272.1535374999512,None,ScrollDown,정답입니다,272.1535374999512,None,272.1535374999512,None,272.1535374999512,None,272.1535374999512,None,272.9061465000268,None,272.9061465000268,273.4057845999487,,,,,,,,,,,,,,,,103,2023-03-28_17h00.13.213,FishGame,2022.1.1,59.99037758190652,
,19,넌 평범해,3,Green,B,4.333333333333332,4.233333333333333,ScrollUp,ScrollDown,Green.png,2,Neutral,Neutral,0,0,0,0,,,,,,,,,,,,,,,,,0,18,18,18,,,,,,,,,,,,,,,,,,,,,,,,,,,,,,,,,,,,,,,,,,,,,,,,,,,,,,,,,,,,,,,,,,,,,,,,,,,,,,,,,1.8410493830839794,0.7648783999029547,274.02876330004074,None,ScrollUp,정답입니다,274.02876330004074,None,274.02876330004074,None,274.02876330004074,None,274.02876330004074,None,274.6891098001506,None,274.6891098001506,275.1891169999726,,,,,,,,,,,,,,,,103,2023-03-28_17h00.13.213,FishGame,2022.1.1,59.99037758190652,
,20,넌 오만해,5,Orange,A,2.333333333333333,2,ScrollDown,ScrollUp,Orange.png,2,Negative,Incongruent,0,0,0,0,,,,,,,,,,,,,,,,,0,19,19,19,,,,,,,,,,,,,,,,,,,,,,,,,,,,,,,,,,,,,,,,,,,,,,,,,,,,,,,,,,,,,,,,,,,,,,,,,,,,,,,,,1.0972222338120143,1.1790017001330853,275.81937550008297,None,ScrollDown,정답입니다,275.81937550008297,None,275.81937550008297,None,275.81937550008297,None,275.81937550008297,None,276.8894021001179,None,276.8894021001179,277.3920587000903,,,,,,,,,,,,,,,,103,2023-03-28_17h00.13.213,FishGame,2022.1.1,59.99037758190652,
,21,넌 운이없어,4,Green,B,3,3.466666666666667,ScrollUp,ScrollDown,Green.png,2,Negative,Congruent,0,0,0,0,,,,,,,,,,,,,,,,,0,20,20,20,,,,,,,,,,,,,,,,,,,,,,,,,,,,,,,,,,,,,,,,,,,,,,,,,,,,,,,,,,,,,,,,,,,,,,,,,,,,,,,,,1.8626543283462524,0.8287920001894236,278.0192804001272,None,ScrollUp,정답입니다,278.0192804001272,None,278.0192804001272,None,278.0192804001272,None,278.0192804001272,None,278.7419869999867,None,278.7419869999867,279.24200400011614,,,,,,,,,,,,,,,,103,2023-03-28_17h00.13.213,FishGame,2022.1.1,59.99037758190652,
,22,넌 창조적이야,2,Green,B,6.125,4.633333333333334,ScrollUp,ScrollDown,Green.png,2,Positive,Incongruent,0,0,0,0,,,,,,,,,,,,,,,,,0,21,21,21,,,,,,,,,,,,,,,,,,,,,,,,,,,,,,,,,,,,,,,,,,,,,,,,,,,,,,,,,,,,,,,,,,,,,,,,,,,,,,,,,1.959876557191213,0.7954277999233454,279.8692990001291,None,ScrollUp,정답입니다,279.8692990001291,None,279.8692990001291,None,279.8692990001291,None,279.8692990001291,None,280.55589980003424,None,280.55589980003424,281.05862700007856,,,,,,,,,,,,,,,,103,2023-03-28_17h00.13.213,FishGame,2022.1.1,59.99037758190652,
,23,나를 보내줘,6,Orange,A,0,0,ScrollUp,ScrollDown,Orange.png,2,NonTarget,NonTarget,0,0,0,0,,,,,,,,,,,,,,,,,0,22,22,22,,,,,,,,,,,,,,,,,,,,,,,,,,,,,,,,,,,,,,,,,,,,,,,,,,,,,,,,,,,,,,,,,,,,,,,,,,,,,,,,,1.7746913582086563,1.0626290999352932,281.68278850009665,None,ScrollUp,정답입니다,281.68278850009665,None,281.68278850009665,None,281.68278850009665,None,281.68278850009665,None,282.64199639996514,None,282.64199639996514,283.14186320011504,,,,,,,,,,,,,,,,103,2023-03-28_17h00.13.213,FishGame,2022.1.1,59.99037758190652,
,24,넌 통찰력있어,2,Orange,A,6.5,4.8,ScrollDown,ScrollUp,Orange.png,2,Positive,Congruent,0,0,0,0,,,,,,,,,,,,,,,,,0,23,23,23,,,,,,,,,,,,,,,,,,,,,,,,,,,,,,,,,,,,,,,,,,,,,,,,,,,,,,,,,,,,,,,,,,,,,,,,,,,,,,,,,1.115740751226743,0.8126369998790324,283.77024680003524,None,ScrollDown,정답입니다,283.77024680003524,None,283.77024680003524,None,283.77024680003524,None,283.77024680003524,None,284.4725132000167,None,284.4725132000167,284.9751826999709,,,,,,,,,,,,,,,,103,2023-03-28_17h00.13.213,FishGame,2022.1.1,59.99037758190652,
,25,넌 경솔해,5,Green,B,2.458333333333333,2.266666666666667,ScrollUp,ScrollDown,Green.png,2,Negative,Congruent,0,0,0,0,,,,,,,,,,,,,,,,,0,24,24,24,,,,,,,,,,,,,,,,,,,,,,,,,,,,,,,,,,,,,,,,,,,,,,,,,,,,,,,,,,,,,,,,,,,,,,,,,,,,,,,,,1.8302469104528427,0.8954837000928819,285.59998990013264,None,ScrollUp,정답입니다,285.59998990013264,None,285.59998990013264,None,285.59998990013264,None,285.59998990013264,None,286.3919170999434,None,286.3919170999434,286.89185869996436,,,,,,,,,,,,,,,,103,2023-03-28_17h00.13.213,FishGame,2022.1.1,59.99037758190652,
,26,넌 초조해,4,Orange,A,2.916666666666667,3.133333333333333,ScrollDown,ScrollUp,Orange.png,2,Negative,Incongruent,0,0,0,0,,,,,,,,,,,,,,,,,0,25,25,25,,,,,,,,,,,,,,,,,,,,,,,,,,,,,,,,,,,,,,,,,,,,,,,,,,,,,,,,,,,,,,,,,,,,,,,,,,,,,,,,,1.0864197611808777,0.8466050000861287,287.52456080005504,None,ScrollDown,정답입니다,287.52456080005504,None,287.52456080005504,None,287.52456080005504,None,287.52456080005504,None,288.2554828999564,None,288.2554828999564,288.75550840003416,,,,,,,,,,,,,,,,103,2023-03-28_17h00.13.213,FishGame,2022.1.1,59.99037758190652,
,27,넌 무관심해,4,Green,B,2.833333333333333,2.9,ScrollUp,ScrollDown,Green.png,2,Negative,Congruent,0,0,0,0,,,,,,,,,,,,,,,,,0,26,26,26,,,,,,,,,,,,,,,,,,,,,,,,,,,,,,,,,,,,,,,,,,,,,,,,,,,,,,,,,,,,,,,,,,,,,,,,,,,,,,,,,1.9135802388191223,0.9121726001612842,289.3846740000881,None,ScrollUp,정답입니다,289.3846740000881,None,289.3846740000881,None,289.3846740000881,None,289.3846740000881,None,290.1888470000122,None,290.1888470000122,290.6918168000411,,,,,,,,,,,,,,,,103,2023-03-28_17h00.13.213,FishGame,2022.1.1,59.99037758190652,
,28,넌 감성적이야,3,Green,B,4.125,4.166666666666667,ScrollUp,ScrollDown,Green.png,2,Neutral,Neutral,0,0,0,0,,,,,,,,,,,,,,,,,0,27,27,27,,,,,,,,,,,,,,,,,,,,,,,,,,,,,,,,,,,,,,,,,,,,,,,,,,,,,,,,,,,,,,,,,,,,,,,,,,,,,,,,,1.8827160596847534,0.7790137000847608,291.31521259993315,None,ScrollUp,정답입니다,291.31521259993315,None,291.31521259993315,None,291.31521259993315,None,291.31521259993315,None,291.9917574999854,None,291.9917574999854,292.491791700013,,,,,,,,,,,,,,,,103,2023-03-28_17h00.13.213,FishGame,2022.1.1,59.99037758190652,
,29,넌 배려심있어,1,Orange,A,6.083333333333333,5.5,ScrollDown,ScrollUp,Orange.png,2,Positive,Congruent,0,0,0,0,,,,,,,,,,,,,,,,,0,28,28,28,,,,,,,,,,,,,,,,,,,,,,,,,,,,,,,,,,,,,,,,,,,,,,,,,,,,,,,,,,,,,,,,,,,,,,,,,,,,,,,,,1.0756172637144725,0.758665099972859,293.1194639999885,None,ScrollDown,정답입니다,293.1194639999885,None,293.1194639999885,None,293.1194639999885,None,293.1194639999885,None,293.755598800024,None,293.755598800024,294.2582624000497,,,,,,,,,,,,,,,,103,2023-03-28_17h00.13.213,FishGame,2022.1.1,59.99037758190652,
,30,넌 숨김없어,3,Orange,A,4.5,4.933333333333334,ScrollDown,ScrollUp,Orange.png,2,Neutral,Neutral,0,0,0,0,,,,,,,,,,,,,,,,,0,29,29,29,,,,,,,,,,,,,,,,,,,,,,,,,,,,,,,,,,,,,,,,,,,,,,,,,,,,,,,,,,,,,,,,,,,,,,,,,,,,,,,,,1.1172839403152466,0.8122457999270409,294.8869672000874,None,ScrollDown,정답입니다,294.8869672000874,None,294.8869672000874,None,294.8869672000874,None,294.8869672000874,None,295.58895180001855,None,295.58895180001855,296.0915926999878,,,,,,,,,,,,,,,,103,2023-03-28_17h00.13.213,FishGame,2022.1.1,59.99037758190652,
,31,넌 훌륭해,2,Green,B,5.916666666666667,4.033333333333333,ScrollUp,ScrollDown,Green.png,2,Positive,Incongruent,0,0,0,0,,,,,,,,,,,,,,,,,0,30,30,30,,,,,,,,,,,,,,,,,,,,,,,,,,,,,,,,,,,,,,,,,,,,,,,,,,,,,,,,,,,,,,,,,,,,,,,,,,,,,,,,,1.8657407313585281,0.78324000001885,296.7176496000029,None,ScrollUp,정답입니다,296.7176496000029,None,296.7176496000029,None,296.7176496000029,None,296.7176496000029,None,297.3916348000057,None,297.3916348000057,297.89158910000697,,,,,,,,,,,,,,,,103,2023-03-28_17h00.13.213,FishGame,2022.1.1,59.99037758190652,
,32,넌 슬기로워,2,Orange,A,6.166666666666667,4.1,ScrollDown,ScrollUp,Orange.png,2,Positive,Congruent,0,0,0,0,,,,,,,,,,,,,,,,,0,31,31,31,,,,,,,,,,,,,,,,,,,,,,,,,,,,,,,,,,,,,,,,,,,,,,,,,,,,,,,,,,,,,,,,,,,,,,,,,,,,,,,,,1.0740740497907002,0.8292632999364287,298.51846650009975,None,ScrollDown,정답입니다,298.51846650009975,None,298.51846650009975,None,298.51846650009975,None,298.51846650009975,None,299.2415816001594,None,299.2415816001594,299.741563500138,,,,,,,,,,,,,,,,103,2023-03-28_17h00.13.213,FishGame,2022.1.1,59.99037758190652,
,33,넌 냉혹해,5,Orange,A,2.583333333333333,2.1,ScrollDown,ScrollUp,Orange.png,2,Negative,Incongruent,0,0,0,0,,,,,,,,,,,,,,,,,0,32,32,32,,,,,,,,,,,,,,,,,,,,,,,,,,,,,,,,,,,,,,,,,,,,,,,,,,,,,,,,,,,,,,,,,,,,,,,,,,,,,,,,,1.0339506367842357,0.8123347000218928,300.36978320009075,None,ScrollDown,정답입니다,300.36978320009075,None,300.36978320009075,None,300.36978320009075,None,300.36978320009075,None,301.0750198001042,None,301.0750198001042,301.57491570012644,,,,,,,,,,,,,,,,103,2023-03-28_17h00.13.213,FishGame,2022.1.1,59.99037758190652,
,34,나를 데려가줘,6,Green,B,0,0,ScrollDown,ScrollUp,Green.png,2,NonTarget,NonTarget,0,0,0,0,,,,,,,,,,,,,,,,,0,33,33,33,,,,,,,,,,,,,,,,,,,,,,,,,,,,,,,,,,,,,,,,,,,,,,,,,,,,,,,,,,,,,,,,,,,,,,,,,,,,,,,,,1.1018518507480621,0.9313371998723596,302.2230772001203,None,ScrollDown,정답입니다,302.2230772001203,None,302.2230772001203,None,302.2230772001203,None,302.2230772001203,None,303.03877190011553,None,303.03877190011553,303.54147400008515,,,,,,,,,,,,,,,,103,2023-03-28_17h00.13.213,FishGame,2022.1.1,59.99037758190652,
,35,넌 편파적이야,5,Green,B,2.125,2,ScrollUp,ScrollDown,Green.png,2,Negative,Congruent,0,0,0,0,,,,,,,,,,,,,,,,,0,34,34,34,,,,,,,,,,,,,,,,,,,,,,,,,,,,,,,,,,,,,,,,,,,,,,,,,,,,,,,,,,,,,,,,,,,,,,,,,,,,,,,,,1.9969135920206706,0.8626548000611365,304.1775663001463,None,ScrollUp,정답입니다,304.1775663001463,None,304.1775663001463,None,304.1775663001463,None,304.1775663001463,None,304.9220970000606,None,304.9220970000606,305.4247562000528,,,,,,,,,,,,,,,,103,2023-03-28_17h00.13.213,FishGame,2022.1.1,59.99037758190652,
,36,넌 슬퍼,4,Orange,A,2.583333333333333,3.066666666666667,ScrollDown,ScrollUp,Orange.png,2,Negative,Incongruent,0,0,0,0,,,,,,,,,,,,,,,,,0,35,35,35,,,,,,,,,,,,,,,,,,,,,,,,,,,,,,,,,,,,,,,,,,,,,,,,,,,,,,,,,,,,,,,,,,,,,,,,,,,,,,,,,1,0.8624321001116186,306.0485674000811,None,ScrollDown,정답입니다,306.0485674000811,None,306.0485674000811,None,306.0485674000811,None,306.0485674000811,None,306.8081080999691,None,306.8081080999691,307.3080635999795,,,,,,,,,,,,,,,,103,2023-03-28_17h00.13.213,FishGame,2022.1.1,59.99037758190652,
,37,나를 데려가줘,6,Green,B,0,0,ScrollDown,ScrollUp,Green.png,2,NonTarget,NonTarget,0,0,0,0,,,,,,,,,,,,,,,,,0,36,36,36,,,,,,,,,,,,,,,,,,,,,,,,,,,,,,,,,,,,,,,,,,,,,,,,,,,,,,,,,,,,,,,,,,,,,,,,,,,,,,,,,1,0.9654041000176221,307.9305090000853,None,ScrollDown,정답입니다,307.9305090000853,None,307.9305090000853,None,307.9305090000853,None,307.9305090000853,None,308.7915364000946,None,308.7915364000946,309.29139070003293,,,,,,,,,,,,,,,,103,2023-03-28_17h00.13.213,FishGame,2022.1.1,59.99037758190652,
,38,넌 친절해,1,Green,B,6.041666666666667,5.533333333333333,ScrollUp,ScrollDown,Green.png,2,Positive,Incongruent,0,0,0,0,,,,,,,,,,,,,,,,,0,37,37,37,,,,,,,,,,,,,,,,,,,,,,,,,,,,,,,,,,,,,,,,,,,,,,,,,,,,,,,,,,,,,,,,,,,,,,,,,,,,,,,,,2,0.8986587000545114,309.9178730000276,None,ScrollUp,정답입니다,309.9178730000276,None,309.9178730000276,None,309.9178730000276,None,309.9178730000276,None,310.7081015999429,None,310.7081015999429,311.2216876000166,,,,,,,,,,,,,,,,103,2023-03-28_17h00.13.213,FishGame,2022.1.1,59.99037758190652,
,1,넌 엉성해,4,Orange,A,3,3.3,ScrollDown,ScrollUp,Orange.png,3,Negative,Incongruent,0,0,0,0,,,,,,,,,,,,,,,,,,,,,0,0,0,0,,,,,,,,,,,,,,,,,,,,,,,,,,,,,,,,,,,,343.121050799964,344.6212418000214,344.6576032000594,345.60754949995317,345.65754349995404,346.60754550015554,346.60754550015554,None,,,,,,,,,,,,,,,,,,,,,,,,,,,,,,,,,,1.0231481393178303,1.1569030999671668,347.7079674999695,None,ScrollDown,정답입니다,347.7079674999695,None,347.7079674999695,None,347.7079674999695,None,347.7079674999695,None,348.7572592999786,None,348.7572592999786,349.25722949998453,311.7219992999453,None,311.7219992999453,None,-0.035185184,-0.1,1,0,0,0.016409599920734763,None,341.724136200035,None,,,103,2023-03-28_17h00.13.213,FishGame,2022.1.1,59.99037758190652,
,2,나를 보내줘,6,Orange,A,0,0,ScrollUp,ScrollDown,Orange.png,3,NonTarget,NonTarget,0,0,0,0,,,,,,,,,,,,,,,,,,,,,0,1,1,1,,,,,,,,,,,,,,,,,,,,,,,,,,,,,,,,,,,,,,,,,,,,,,,,,,,,,,,,,,,,,,,,,,,,,,,,,,,,,1.7608024577299755,0.9953413000330329,349.88214260013774,None,ScrollUp,정답입니다,349.88214260013774,None,349.88214260013774,None,349.88214260013774,None,349.88214260013774,None,350.7712112001609,None,350.7712112001609,351.271035999991,,,,,,,,,,,,,,,,103,2023-03-28_17h00.13.213,FishGame,2022.1.1,59.99037758190652,
,3,넌 활발해,1,Green,B,5.666666666666667,5.6,ScrollUp,ScrollDown,Green.png,3,Positive,Incongruent,0,0,0,0,,,,,,,,,,,,,,,,,,,,,0,2,2,2,,,,,,,,,,,,,,,,,,,,,,,,,,,,,,,,,,,,,,,,,,,,,,,,,,,,,,,,,,,,,,,,,,,,,,,,,,,,,1.8472222139437993,0.8125366999302059,351.90190739999525,None,ScrollUp,정답입니다,351.90190739999525,None,351.90190739999525,None,351.90190739999525,None,351.90190739999525,None,352.60722719994374,None,352.60722719994374,353.1071975999512,,,,,,,,,,,,,,,,103,2023-03-28_17h00.13.213,FishGame,2022.1.1,59.99037758190652,
,4,넌 논리적이야,2,Orange,A,5.666666666666666,4.633333333333334,ScrollDown,ScrollUp,Orange.png,3,Positive,Congruent,0,0,0,0,,,,,,,,,,,,,,,,,,,,,0,3,3,3,,,,,,,,,,,,,,,,,,,,,,,,,,,,,,,,,,,,,,,,,,,,,,,,,,,,,,,,,,,,,,,,,,,,,,,,,,,,,1.0570987462997437,0.7958016998600215,353.7477977001108,None,ScrollDown,정답입니다,353.7477977001108,None,353.7477977001108,None,353.7477977001108,None,353.7477977001108,None,354.42113670008257,None,354.42113670008257,354.9208134000655,,,,,,,,,,,,,,,,103,2023-03-28_17h00.13.213,FishGame,2022.1.1,59.99037758190652,
,5,넌 과묵해,3,Orange,A,3.875,4.4,ScrollDown,ScrollUp,Orange.png,3,Neutral,Neutral,0,0,0,0,,,,,,,,,,,,,,,,,,,,,0,4,4,4,,,,,,,,,,,,,,,,,,,,,,,,,,,,,,,,,,,,,,,,,,,,,,,,,,,,,,,,,,,,,,,,,,,,,,,,,,,,,1.0462962985038757,0.7817154000513256,355.54563660011627,None,ScrollDown,정답입니다,355.54563660011627,None,355.54563660011627,None,355.54563660011627,None,355.54563660011627,None,356.2208060999401,None,356.2208060999401,356.7208289001137,,,,,,,,,,,,,,,,103,2023-03-28_17h00.13.213,FishGame,2022.1.1,59.99037758190652,
,6,나를 데려가줘,6,Green,B,0,0,ScrollDown,ScrollUp,Green.png,3,NonTarget,NonTarget,0,0,0,0,,,,,,,,,,,,,,,,,,,,,0,5,5,5,,,,,,,,,,,,,,,,,,,,,,,,,,,,,,,,,,,,,,,,,,,,,,,,,,,,,,,,,,,,,,,,,,,,,,,,,,,,,1.0262345671653748,0.9987770998850465,357.3461870001629,None,ScrollDown,정답입니다,357.3461870001629,None,357.3461870001629,None,357.3461870001629,None,357.3461870001629,None,358.2405880000442,None,358.2405880000442,358.74041510000825,,,,,,,,,,,,,,,,103,2023-03-28_17h00.13.213,FishGame,2022.1.1,59.99037758190652,
,7,넌 미숙해,4,Green,B,3,3,ScrollUp,ScrollDown,Green.png,3,Negative,Congruent,0,0,0,0,,,,,,,,,,,,,,,,,,,,,0,6,6,6,,,,,,,,,,,,,,,,,,,,,,,,,,,,,,,,,,,,,,,,,,,,,,,,,,,,,,,,,,,,,,,,,,,,,,,,,,,,,1.879629631837209,0.9622743001673371,359.3628710999619,None,ScrollUp,정답입니다,359.3628710999619,None,359.3628710999619,None,359.3628710999619,None,359.3628710999619,None,360.2239119000733,None,360.2239119000733,360.7282523000613,,,,,,,,,,,,,,,,103,2023-03-28_17h00.13.213,FishGame,2022.1.1,59.99037758190652,
,8,나를 보내줘,6,Orange,A,0,0,ScrollUp,ScrollDown,Orange.png,3,NonTarget,NonTarget,0,0,0,0,,,,,,,,,,,,,,,,,,,,,0,7,7,7,,,,,,,,,,,,,,,,,,,,,,,,,,,,,,,,,,,,,,,,,,,,,,,,,,,,,,,,,,,,,,,,,,,,,,,,,,,,,1.9104938358068466,1.031898100161925,361.3598130000755,None,ScrollUp,정답입니다,361.3598130000755,None,361.3598130000755,None,361.3598130000755,None,361.3598130000755,None,362.2873337001074,None,362.2873337001074,362.7873756000772,,,,,,,,,,,,,,,,103,2023-03-28_17h00.13.213,FishGame,2022.1.1,59.99037758190652,
,9,넌 자신만만해,3,Green,B,4.833333333333334,4.333333333333333,ScrollUp,ScrollDown,Green.png,3,Neutral,Neutral,0,0,0,0,,,,,,,,,,,,,,,,,,,,,0,8,8,8,,,,,,,,,,,,,,,,,,,,,,,,,,,,,,,,,,,,,,,,,,,,,,,,,,,,,,,,,,,,,,,,,,,,,,,,,,,,,1.8950617214043934,0.9125645000021905,363.41862810007297,None,ScrollUp,정답입니다,363.41862810007297,None,363.41862810007297,None,363.41862810007297,None,363.41862810007297,None,364.2236814999487,None,364.2236814999487,364.72367010009475,,,,,,,,,,,,,,,,103,2023-03-28_17h00.13.213,FishGame,2022.1.1,59.99037758190652,
,10,넌 탐욕스러워,5,Orange,A,2.25,2.1,ScrollDown,ScrollUp,Orange.png,3,Negative,Incongruent,0,0,0,0,,,,,,,,,,,,,,,,,,,,,0,9,9,9,,,,,,,,,,,,,,,,,,,,,,,,,,,,,,,,,,,,,,,,,,,,,,,,,,,,,,,,,,,,,,,,,,,,,,,,,,,,,1.0663580298423767,0.765303699998185,365.3527258001268,None,ScrollDown,정답입니다,365.3527258001268,None,365.3527258001268,None,365.3527258001268,None,365.3527258001268,None,366.0069951999467,None,366.0069951999467,366.5068863001652,,,,,,,,,,,,,,,,103,2023-03-28_17h00.13.213,FishGame,2022.1.1,59.99037758190652,
,11,넌 인기있어,2,Orange,A,5.458333333333333,4.5,ScrollDown,ScrollUp,Orange.png,3,Positive,Congruent,0,0,0,0,,,,,,,,,,,,,,,,,,,,,0,10,10,10,,,,,,,,,,,,,,,,,,,,,,,,,,,,,,,,,,,,,,,,,,,,,,,,,,,,,,,,,,,,,,,,,,,,,,,,,,,,,1.016975333293279,0.8320832001045346,367.13153679994866,None,ScrollDown,정답입니다,367.13153679994866,None,367.13153679994866,None,367.13153679994866,None,367.13153679994866,None,367.8569308000151,None,367.8569308000151,368.3782152000349,,,,,,,,,,,,,,,,103,2023-03-28_17h00.13.213,FishGame,2022.1.1,59.99037758190652,
,12,나를 데려가줘,6,Green,B,0,0,ScrollDown,ScrollUp,Green.png,3,NonTarget,NonTarget,0,0,0,0,,,,,,,,,,,,,,,,,,,,,0,11,11,11,,,,,,,,,,,,,,,,,,,,,,,,,,,,,,,,,,,,,,,,,,,,,,,,,,,,,,,,,,,,,,,,,,,,,,,,,,,,,1.0108024775981903,0.9654556999448687,368.99571020016447,None,ScrollDown,정답입니다,368.99571020016447,None,368.99571020016447,None,368.99571020016447,None,368.99571020016447,None,369.8538277000189,None,369.8538277000189,370.3538890001364,,,,,,,,,,,,,,,,103,2023-03-28_17h00.13.213,FishGame,2022.1.1,59.99037758190652,
,13,넌 뛰어나,2,Green,B,6.166666666666667,4,ScrollUp,ScrollDown,Green.png,3,Positive,Incongruent,0,0,0,0,,,,,,,,,,,,,,,,,,,,,0,12,12,12,,,,,,,,,,,,,,,,,,,,,,,,,,,,,,,,,,,,,,,,,,,,,,,,,,,,,,,,,,,,,,,,,,,,,,,,,,,,,1.9413580397764842,0.8486981999594718,370.9786988000851,None,ScrollUp,정답입니다,370.9786988000851,None,370.9786988000851,None,370.9786988000851,None,370.9786988000851,None,371.72354670008644,None,371.72354670008644,372.22352370014414,,,,,,,,,,,,,,,,103,2023-03-28_17h00.13.213,FishGame,2022.1.1,59.99037758190652,
,14,넌 낙관적이야,1,Orange,A,5.75,5.8,ScrollDown,ScrollUp,Orange.png,3,Positive,Congruent,0,0,0,0,,,,,,,,,,,,,,,,,,,,,0,13,13,13,,,,,,,,,,,,,,,,,,,,,,,,,,,,,,,,,,,,,,,,,,,,,,,,,,,,,,,,,,,,,,,,,,,,,,,,,,,,,1.1033950646718342,0.7955212998203933,372.85165269998834,None,ScrollDown,정답입니다,372.85165269998834,None,372.85165269998834,None,372.85165269998834,None,372.85165269998834,None,373.54024829994887,None,373.54024829994887,374.0401105999481,,,,,,,,,,,,,,,,103,2023-03-28_17h00.13.213,FishGame,2022.1.1,59.99037758190652,
,15,넌 산만해,4,Green,B,2.695652173913043,3.033333333333333,ScrollUp,ScrollDown,Green.png,3,Negative,Congruent,0,0,0,0,,,,,,,,,,,,,,,,,,,,,0,14,14,14,,,,,,,,,,,,,,,,,,,,,,,,,,,,,,,,,,,,,,,,,,,,,,,,,,,,,,,,,,,,,,,,,,,,,,,,,,,,,2,0.7747841000091285,374.6692393999547,None,ScrollUp,정답입니다,374.6692393999547,None,374.6692393999547,None,374.6692393999547,None,374.6692393999547,None,375.3401173001621,None,375.3401173001621,375.8400254000444,,,,,,,,,,,,,,,,103,2023-03-28_17h00.13.213,FishGame,2022.1.1,59.99037758190652,
,16,나를 보내줘,6,Orange,A,0,0,ScrollUp,ScrollDown,Orange.png,3,NonTarget,NonTarget,0,0,0,0,,,,,,,,,,,,,,,,,,,,,0,15,15,15,,,,,,,,,,,,,,,,,,,,,,,,,,,,,,,,,,,,,,,,,,,,,,,,,,,,,,,,,,,,,,,,,,,,,,,,,,,,,1.9783950746059418,1.029423400061205,376.4644383001141,None,ScrollUp,정답입니다,376.4644383001141,None,376.4644383001141,None,376.4644383001141,None,376.4644383001141,None,377.3899883001577,None,377.3899883001577,377.88996749999933,,,,,,,,,,,,,,,,103,2023-03-28_17h00.13.213,FishGame,2022.1.1,59.99037758190652,
,17,넌 교활해,5,Green,B,2.333333333333333,2.133333333333333,ScrollUp,ScrollDown,Green.png,3,Negative,Congruent,0,0,0,0,,,,,,,,,,,,,,,,,,,,,0,16,16,16,,,,,,,,,,,,,,,,,,,,,,,,,,,,,,,,,,,,,,,,,,,,,,,,,,,,,,,,,,,,,,,,,,,,,,,,,,,,,1.9645061492919922,0.8819854001048952,378.53209100011736,None,ScrollUp,정답입니다,378.53209100011736,None,378.53209100011736,None,378.53209100011736,None,378.53209100011736,None,379.30393370008096,None,379.30393370008096,379.8066277001053,,,,,,,,,,,,,,,,103,2023-03-28_17h00.13.213,FishGame,2022.1.1,59.99037758190652,
,18,나를 보내줘,6,Orange,A,0,0,ScrollUp,ScrollDown,Orange.png,3,NonTarget,NonTarget,0,0,0,0,,,,,,,,,,,,,,,,,,,,,0,17,17,17,,,,,,,,,,,,,,,,,,,,,,,,,,,,,,,,,,,,,,,,,,,,,,,,,,,,,,,,,,,,,,,,,,,,,,,,,,,,,2,0.9960057998541743,380.43115360010415,None,ScrollUp,정답입니다,380.43115360010415,None,380.43115360010415,None,380.43115360010415,None,380.43115360010415,None,381.3232305001002,None,381.3232305001002,381.8232631001156,,,,,,,,,,,,,,,,103,2023-03-28_17h00.13.213,FishGame,2022.1.1,59.99037758190652,
,19,넌 불친절해,5,Green,B,2.208333333333333,2.033333333333333,ScrollUp,ScrollDown,Green.png,3,Negative,Congruent,0,0,0,0,,,,,,,,,,,,,,,,,,,,,0,18,18,18,,,,,,,,,,,,,,,,,,,,,,,,,,,,,,,,,,,,,,,,,,,,,,,,,,,,,,,,,,,,,,,,,,,,,,,,,,,,,2,0.8957919999957085,382.4483779000584,None,ScrollUp,정답입니다,382.4483779000584,None,382.4483779000584,None,382.4483779000584,None,382.4483779000584,None,383.2372520000208,None,383.2372520000208,383.7398739999626,,,,,,,,,,,,,,,,103,2023-03-28_17h00.13.213,FishGame,2022.1.1,59.99037758190652,
,20,넌 지적이야,2,Green,B,5.75,4.366666666666666,ScrollUp,ScrollDown,Green.png,3,Positive,Incongruent,0,0,0,0,,,,,,,,,,,,,,,,,,,,,0,19,19,19,,,,,,,,,,,,,,,,,,,,,,,,,,,,,,,,,,,,,,,,,,,,,,,,,,,,,,,,,,,,,,,,,,,,,,,,,,,,,1.9336419701576233,0.7956016000825912,384.36696260003373,None,ScrollUp,정답입니다,384.36696260003373,None,384.36696260003373,None,384.36696260003373,None,384.36696260003373,None,385.0538061000407,None,385.0538061000407,385.55644750013016,,,,,,,,,,,,,,,,103,2023-03-28_17h00.13.213,FishGame,2022.1.1,59.99037758190652,
,21,넌 우유부단해,4,Orange,A,2.666666666666667,3.166666666666667,ScrollDown,ScrollUp,Orange.png,3,Negative,Incongruent,0,0,0,0,,,,,,,,,,,,,,,,,,,,,0,20,20,20,,,,,,,,,,,,,,,,,,,,,,,,,,,,,,,,,,,,,,,,,,,,,,,,,,,,,,,,,,,,,,,,,,,,,,,,,,,,,1.140432099501292,0.8127029000315815,386.18478720006533,None,ScrollDown,정답입니다,386.18478720006533,None,386.18478720006533,None,386.18478720006533,None,386.18478720006533,None,386.8898273999803,None,386.8898273999803,387.389766599983,,,,,,,,,,,,,,,,103,2023-03-28_17h00.13.213,FishGame,2022.1.1,59.99037758190652,
,22,나를 데려가줘,6,Green,B,0,0,ScrollDown,ScrollUp,Green.png,3,NonTarget,NonTarget,0,0,0,0,,,,,,,,,,,,,,,,,,,,,0,21,21,21,,,,,,,,,,,,,,,,,,,,,,,,,,,,,,,,,,,,,,,,,,,,,,,,,,,,,,,,,,,,,,,,,,,,,,,,,,,,,1.0833333333333333,0.9293028998654336,388.0125019000843,None,ScrollDown,정답입니다,388.0125019000843,None,388.0125019000843,None,388.0125019000843,None,388.0125019000843,None,388.83982110000215,None,388.83982110000215,389.3564232001081,,,,,,,,,,,,,,,,103,2023-03-28_17h00.13.213,FishGame,2022.1.1,59.99037758190652,
,23,넌 성실해,1,Green,B,6.041666666666666,5.7,ScrollUp,ScrollDown,Green.png,3,Positive,Incongruent,0,0,0,0,,,,,,,,,,,,,,,,,,,,,0,22,22,22,,,,,,,,,,,,,,,,,,,,,,,,,,,,,,,,,,,,,,,,,,,,,,,,,,,,,,,,,,,,,,,,,,,,,,,,,,,,,2,0.8458647998049855,389.9623205999378,None,ScrollUp,정답입니다,389.9623205999378,None,389.9623205999378,None,389.9623205999378,None,389.9623205999378,None,390.7065294999629,None,390.7065294999629,391.2200788001064,,,,,,,,,,,,,,,,103,2023-03-28_17h00.13.213,FishGame,2022.1.1,59.99037758190652,
,24,넌 현실주의적이야,3,Orange,A,4.625,4.4,ScrollDown,ScrollUp,Orange.png,3,Neutral,Neutral,0,0,0,0,,,,,,,,,,,,,,,,,,,,,0,23,23,23,,,,,,,,,,,,,,,,,,,,,,,,,,,,,,,,,,,,,,,,,,,,,,,,,,,,,,,,,,,,,,,,,,,,,,,,,,,,,1.0895061641931534,0.831644699908793,391.8443774001207,None,ScrollDown,정답입니다,391.8443774001207,None,391.8443774001207,None,391.8443774001207,None,391.8443774001207,None,392.5700231001247,None,392.5700231001247,393.0701024001464,,,,,,,,,,,,,,,,103,2023-03-28_17h00.13.213,FishGame,2022.1.1,59.99037758190652,
,25,넌 진실돼,1,Orange,A,6.625,5.566666666666666,ScrollDown,ScrollUp,Orange.png,3,Positive,Congruent,0,0,0,0,,,,,,,,,,,,,,,,,,,,,0,24,24,24,,,,,,,,,,,,,,,,,,,,,,,,,,,,,,,,,,,,,,,,,,,,,,,,,,,,,,,,,,,,,,,,,,,,,,,,,,,,,1,0.9117910000495613,393.70441360003315,None,ScrollDown,정답입니다,393.70441360003315,None,393.70441360003315,None,393.70441360003315,None,393.70441360003315,None,394.5037043001503,None,394.5037043001503,395.0063624000177,,,,,,,,,,,,,,,,103,2023-03-28_17h00.13.213,FishGame,2022.1.1,59.99037758190652,
,26,넌 천진난만해,3,Green,B,4.958333333333334,4.833333333333333,ScrollUp,ScrollDown,Green.png,3,Neutral,Neutral,0,0,0,0,,,,,,,,,,,,,,,,,,,,,0,25,25,25,,,,,,,,,,,,,,,,,,,,,,,,,,,,,,,,,,,,,,,,,,,,,,,,,,,,,,,,,,,,,,,,,,,,,,,,,,,,,1.9969135920206706,0.8320203998591751,395.6333236999344,None,ScrollUp,정답입니다,395.6333236999344,None,395.6333236999344,None,395.6333236999344,None,395.6333236999344,None,396.35366220003925,None,396.35366220003925,396.86092899995856,,,,,,,,,,,,,,,,103,2023-03-28_17h00.13.213,FishGame,2022.1.1,59.99037758190652,
,27,넌 교양없어,5,Orange,A,2.416666666666667,2.2,ScrollDown,ScrollUp,Orange.png,3,Negative,Incongruent,0,0,0,0,,,,,,,,,,,,,,,,,,,,,0,26,26,26,,,,,,,,,,,,,,,,,,,,,,,,,,,,,,,,,,,,,,,,,,,,,,,,,,,,,,,,,,,,,,,,,,,,,,,,,,,,,1.0910493781169255,0.8149342001415789,397.47922520013526,None,ScrollDown,정답입니다,397.47922520013526,None,397.47922520013526,None,397.47922520013526,None,397.47922520013526,None,398.18662229995243,None,398.18662229995243,398.6865799999796,,,,,,,,,,,,,,,,103,2023-03-28_17h00.13.213,FishGame,2022.1.1,59.99037758190652,
,28,나를 보내줘,6,Orange,A,0,0,ScrollUp,ScrollDown,Orange.png,3,NonTarget,NonTarget,0,0,0,0,,,,,,,,,,,,,,,,,,,,,0,27,27,27,,,,,,,,,,,,,,,,,,,,,,,,,,,,,,,,,,,,,,,,,,,,,,,,,,,,,,,,,,,,,,,,,,,,,,,,,,,,,1.7731481442848842,0.929571800166741,399.31695520016365,None,ScrollUp,정답입니다,399.31695520016365,None,399.31695520016365,None,399.31695520016365,None,399.31695520016365,None,400.1396383000538,None,400.1396383000538,400.63961230008863,,,,,,,,,,,,,,,,103,2023-03-28_17h00.13.213,FishGame,2022.1.1,59.99037758190652,
,29,넌 엉뚱스러워,3,Orange,A,4.166666666666667,4.133333333333334,ScrollDown,ScrollUp,Orange.png,3,Neutral,Neutral,0,0,0,0,,,,,,,,,,,,,,,,,,,,,0,28,28,28,,,,,,,,,,,,,,,,,,,,,,,,,,,,,,,,,,,,,,,,,,,,,,,,,,,,,,,,,,,,,,,,,,,,,,,,,,,,,1.1728395173947017,0.7818672999273986,401.2747697001323,None,ScrollDown,정답입니다,401.2747697001323,None,401.2747697001323,None,401.2747697001323,None,401.2747697001323,None,401.93686680006795,None,401.93686680006795,402.439564100001,,,,,,,,,,,,,,,,103,2023-03-28_17h00.13.213,FishGame,2022.1.1,59.99037758190652,
,30,넌 무지해,4,Green,B,2.541666666666667,3.066666666666667,ScrollUp,ScrollDown,Green.png,3,Negative,Congruent,0,0,0,0,,,,,,,,,,,,,,,,,,,,,0,29,29,29,,,,,,,,,,,,,,,,,,,,,,,,,,,,,,,,,,,,,,,,,,,,,,,,,,,,,,,,,,,,,,,,,,,,,,,,,,,,,1.9012345770994823,0.7745298000518233,403.0660981000401,None,ScrollUp,정답입니다,403.0660981000401,None,403.0660981000401,None,403.0660981000401,None,403.0660981000401,None,403.73680120008066,None,403.73680120008066,404.2394344001077,,,,,,,,,,,,,,,,103,2023-03-28_17h00.13.213,FishGame,2022.1.1,59.99037758190652,
,31,넌 음울해,5,Green,B,2.25,2.233333333333333,ScrollUp,ScrollDown,Green.png,3,Negative,Congruent,0,0,0,0,,,,,,,,,,,,,,,,,,,,,0,30,30,30,,,,,,,,,,,,,,,,,,,,,,,,,,,,,,,,,,,,,,,,,,,,,,,,,,,,,,,,,,,,,,,,,,,,,,,,,,,,,1.8873456766208012,0.8652430998627096,404.86532710003667,None,ScrollUp,정답입니다,404.86532710003667,None,404.86532710003667,None,404.86532710003667,None,404.86532710003667,None,405.62282759998925,None,405.62282759998925,406.1227812001016,,,,,,,,,,,,,,,,103,2023-03-28_17h00.13.213,FishGame,2022.1.1,59.99037758190652,
,32,넌 냉소적이야,5,Orange,A,2.916666666666667,2.4,ScrollDown,ScrollUp,Orange.png,3,Negative,Incongruent,0,0,0,0,,,,,,,,,,,,,,,,,,,,,0,31,31,31,,,,,,,,,,,,,,,,,,,,,,,,,,,,,,,,,,,,,,,,,,,,,,,,,,,,,,,,,,,,,,,,,,,,,,,,,,,,,1.0478395124276478,0.8124356002081186,406.75130180013366,None,ScrollDown,정답입니다,406.75130180013366,None,406.75130180013366,None,406.75130180013366,None,406.75130180013366,None,407.453332999954,None,407.453332999954,407.95605599996634,,,,,,,,,,,,,,,,103,2023-03-28_17h00.13.213,FishGame,2022.1.1,59.99037758190652,
,33,나를 데려가줘,6,Green,B,0,0,ScrollDown,ScrollUp,Green.png,3,NonTarget,NonTarget,0,0,0,0,,,,,,,,,,,,,,,,,,,,,0,32,32,32,,,,,,,,,,,,,,,,,,,,,,,,,,,,,,,,,,,,,,,,,,,,,,,,,,,,,,,,,,,,,,,,,,,,,,,,,,,,,1.0555555323759716,0.9316469000186771,408.57567710010335,None,ScrollDown,정답입니다,408.57567710010335,None,408.57567710010335,None,408.57567710010335,None,408.57567710010335,None,409.4060257000383,None,409.4060257000383,409.92263170005754,,,,,,,,,,,,,,,,103,2023-03-28_17h00.13.213,FishGame,2022.1.1,59.99037758190652,
,34,넌 쾌활해,1,Orange,A,5.541666666666666,5.733333333333333,ScrollDown,ScrollUp,Orange.png,3,Positive,Congruent,0,0,0,0,,,,,,,,,,,,,,,,,,,,,0,33,33,33,,,,,,,,,,,,,,,,,,,,,,,,,,,,,,,,,,,,,,,,,,,,,,,,,,,,,,,,,,,,,,,,,,,,,,,,,,,,,1.1234567960103352,0.8958408997859806,410.5326785000507,None,ScrollDown,정답입니다,410.5326785000507,None,410.5326785000507,None,410.5326785000507,None,410.5326785000507,None,411.32262849994004,None,411.32262849994004,411.82265490014106,,,,,,,,,,,,,,,,103,2023-03-28_17h00.13.213,FishGame,2022.1.1,59.99037758190652,
,35,나를 보내줘,6,Orange,A,0,0,ScrollUp,ScrollDown,Orange.png,3,NonTarget,NonTarget,0,0,0,0,,,,,,,,,,,,,,,,,,,,,0,34,34,34,,,,,,,,,,,,,,,,,,,,,,,,,,,,,,,,,,,,,,,,,,,,,,,,,,,,,,,,,,,,,,,,,,,,,,,,,,,,,2,0.9794848999008536,412.45023780013435,None,ScrollUp,정답입니다,412.45023780013435,None,412.45023780013435,None,412.45023780013435,None,412.45023780013435,None,413.3199805000331,None,413.3199805000331,413.8228170000948,,,,,,,,,,,,,,,,103,2023-03-28_17h00.13.213,FishGame,2022.1.1,59.99037758190652,
,36,넌 명랑해,1,Green,B,5.739130434782609,5.666666666666667,ScrollUp,ScrollDown,Green.png,3,Positive,Incongruent,0,0,0,0,,,,,,,,,,,,,,,,,,,,,0,35,35,35,,,,,,,,,,,,,,,,,,,,,,,,,,,,,,,,,,,,,,,,,,,,,,,,,,,,,,,,,,,,,,,,,,,,,,,,,,,,,1.8657407313585281,0.8792946999892592,414.44792190007865,None,ScrollUp,정답입니다,414.44792190007865,None,414.44792190007865,None,414.44792190007865,None,414.44792190007865,None,415.2226134999655,None,415.2226134999655,415.736331500113,,,,,,,,,,,,,,,,103,2023-03-28_17h00.13.213,FishGame,2022.1.1,59.99037758190652,
,37,넌 멍해,4,Orange,A,2.833333333333333,3.4,ScrollDown,ScrollUp,Orange.png,3,Negative,Incongruent,0,0,0,0,,,,,,,,,,,,,,,,,,,,,0,36,36,36,,,,,,,,,,,,,,,,,,,,,,,,,,,,,,,,,,,,,,,,,,,,,,,,,,,,,,,,,,,,,,,,,,,,,,,,,,,,,1.1172839403152466,0.8833579001948237,416.3628684999421,None,ScrollDown,정답입니다,416.3628684999421,None,416.3628684999421,None,416.3628684999421,None,416.3628684999421,None,417.13620900013484,None,417.13620900013484,417.6362338999752,,,,,,,,,,,,,,,,103,2023-03-28_17h00.13.213,FishGame,2022.1.1,59.99037758190652,
,38,나를 데려가줘,6,Green,B,0,0,ScrollDown,ScrollUp,Green.png,3,NonTarget,NonTarget,0,0,0,0,,,,,,,,,,,,,,,,,,,,,0,37,37,37,,,,,,,,,,,,,,,,,,,,,,,,,,,,,,,,,,,,,,,,,,,,,,,,,,,,,,,,,,,,,,,,,,,,,,,,,,,,,1.095679019888242,0.9947099999990314,418.27225270005874,None,ScrollDown,정답입니다,418.27225270005874,None,418.27225270005874,None,418.27225270005874,None,418.27225270005874,None,419.1528853001073,None,419.1528853001073,419.65595469996333,,,,,,,,,,,,,,,,103,2023-03-28_17h00.13.213,FishGame,2022.1.1,59.99037758190652,
,39,넌 현명해,2,Orange,A,6.541666666666666,4.533333333333333,ScrollDown,ScrollUp,Orange.png,3,Positive,Congruent,0,0,0,0,,,,,,,,,,,,,,,,,,,,,0,38,38,38,,,,,,,,,,,,,,,,,,,,,,,,,,,,,,,,,,,,,,,,,,,,,,,,,,,,,,,,,,,,,,,,,,,,,,,,,,,,,1,0.8958741000387818,420.28068720013835,None,ScrollDown,정답입니다,420.28068720013835,None,420.28068720013835,None,420.28068720013835,None,420.28068720013835,None,421.0725525999442,None,421.0725525999442,421.57251930003986,,,,,,,,,,,,,,,,103,2023-03-28_17h00.13.213,FishGame,2022.1.1,59.99037758190652,
,40,넌 수줍어,3,Green,B,3.541666666666666,4.366666666666666,ScrollUp,ScrollDown,Green.png,3,Neutral,Neutral,0,0,0,0,,,,,,,,,,,,,,,,,,,,,0,39,39,39,,,,,,,,,,,,,,,,,,,,,,,,,,,,,,,,,,,,,,,,,,,,,,,,,,,,,,,,,,,,,,,,,,,,,,,,,,,,,1.9861110945542653,0.8754456997849047,422.20500580011867,None,ScrollUp,정답입니다,422.20500580011867,None,422.20500580011867,None,422.20500580011867,None,422.20500580011867,None,422.95273940009065,None,422.95273940009065,423.4527641001623,,,,,,,,,,,,,,,,103,2023-03-28_17h00.13.213,FishGame,2022.1.1,59.99037758190652,
,41,나를 데려가줘,6,Green,B,0,0,ScrollDown,ScrollUp,Green.png,3,NonTarget,NonTarget,0,0,0,0,,,,,,,,,,,,,,,,,,,,,0,40,40,40,,,,,,,,,,,,,,,,,,,,,,,,,,,,,,,,,,,,,,,,,,,,,,,,,,,,,,,,,,,,,,,,,,,,,,,,,,,,,1.0154321193695068,0.9482578998431563,424.0738715000916,None,ScrollDown,정답입니다,424.0738715000916,None,424.0738715000916,None,424.0738715000916,None,424.0738715000916,None,424.9194374999497,None,424.9194374999497,425.4194380999543,,,,,,,,,,,,,,,,103,2023-03-28_17h00.13.213,FishGame,2022.1.1,59.99037758190652,
,42,넌 성숙해,2,Green,B,5.833333333333333,4.533333333333333,ScrollUp,ScrollDown,Green.png,3,Positive,Incongruent,0,0,0,0,,,,,,,,,,,,,,,,,,,,,0,41,41,41,,,,,,,,,,,,,,,,,,,,,,,,,,,,,,,,,,,,,,,,,,,,,,,,,,,,,,,,,,,,,,,,,,,,,,,,,,,,,1.9074074079593022,0.8289739000611007,426.044898299966,None,ScrollUp,정답입니다,426.044898299966,None,426.044898299966,None,426.044898299966,None,426.044898299966,None,426.76971410005353,None,426.76971410005353,427.27240020013414,,,,,,,,,,,,,,,,103,2023-03-28_17h00.13.213,FishGame,2022.1.1,59.99037758190652,
,1,넌 매력적이야,2,Green,B,6.125,4.666666666666667,ScrollUp,ScrollDown,Green.png,4,Positive,Incongruent,0,0,0,0,,,,,,,,,,,,,,,,,,,,,,,,,0,0,0,0,,,,,,,,,,,,,,,,,,,,,,,,,,,,,,,,461.46867800015025,462.97187709994614,462.98855070001446,463.93849730002694,463.9885338000022,464.93832550011575,464.93832550011575,None,,,,,,,,,,,,,,,,,,,,,,,,,,,,,,,,,,1.9444444676240284,0.9737054000142962,466.0368480000179,None,ScrollUp,정답입니다,466.0368480000179,None,466.0368480000179,None,466.0368480000179,None,466.0368480000179,None,466.9021386001259,None,466.9021386001259,467.4047946999781,427.77237839996815,None,427.77237839996815,None,0.15462963,-0.11481482,1,0,0,0.016158999875187874,None,457.7717794000637,None,,,103,2023-03-28_17h00.13.213,FishGame,2022.1.1,59.99037758190652,
,2,나를 보내줘,6,Orange,A,0,0,ScrollUp,ScrollDown,Orange.png,4,NonTarget,NonTarget,0,0,0,0,,,,,,,,,,,,,,,,,,,,,,,,,0,1,1,1,,,,,,,,,,,,,,,,,,,,,,,,,,,,,,,,,,,,,,,,,,,,,,,,,,,,,,,,,,,,,,,,,,,,,,,,,1.8425925970077515,0.9953652999829501,468.0296136001125,None,ScrollUp,정답입니다,468.0296136001125,None,468.0296136001125,None,468.0296136001125,None,468.0296136001125,None,468.9214660001453,None,468.9214660001453,469.42148649995215,,,,,,,,,,,,,,,,103,2023-03-28_17h00.13.213,FishGame,2022.1.1,59.99037758190652,
,3,넌 조심스러워,3,Orange,A,4.791666666666666,4.666666666666667,ScrollDown,ScrollUp,Orange.png,4,Neutral,Neutral,0,0,0,0,,,,,,,,,,,,,,,,,,,,,,,,,0,2,2,2,,,,,,,,,,,,,,,,,,,,,,,,,,,,,,,,,,,,,,,,,,,,,,,,,,,,,,,,,,,,,,,,,,,,,,,,,1.0586419602235158,0.8627673999872059,470.0464264000766,None,ScrollDown,정답입니다,470.0464264000766,None,470.0464264000766,None,470.0464264000766,None,470.0464264000766,None,470.80210170010105,None,470.80210170010105,471.30178189999424,,,,,,,,,,,,,,,,103,2023-03-28_17h00.13.213,FishGame,2022.1.1,59.99037758190652,
,4,넌 철학적이야,3,Green,B,4.5,4.266666666666667,ScrollUp,ScrollDown,Green.png,4,Neutral,Neutral,0,0,0,0,,,,,,,,,,,,,,,,,,,,,,,,,0,3,3,3,,,,,,,,,,,,,,,,,,,,,,,,,,,,,,,,,,,,,,,,,,,,,,,,,,,,,,,,,,,,,,,,,,,,,,,,,2,0.8960090999025851,471.9280839001294,None,ScrollUp,정답입니다,471.9280839001294,None,471.9280839001294,None,471.9280839001294,None,471.9280839001294,None,472.7184284001123,None,472.7184284001123,473.2184715999756,,,,,,,,,,,,,,,,103,2023-03-28_17h00.13.213,FishGame,2022.1.1,59.99037758190652,
,5,넌 쩨쩨해,5,Orange,A,2.375,2.133333333333333,ScrollDown,ScrollUp,Orange.png,4,Negative,Incongruent,0,0,0,0,,,,,,,,,,,,,,,,,,,,,,,,,0,4,4,4,,,,,,,,,,,,,,,,,,,,,,,,,,,,,,,,,,,,,,,,,,,,,,,,,,,,,,,,,,,,,,,,,,,,,,,,,1.1250000099341075,0.7984970000106841,473.8455085000023,None,ScrollDown,정답입니다,473.8455085000023,None,473.8455085000023,None,473.8455085000023,None,473.8455085000023,None,474.5380727001466,None,474.5380727001466,475.0380476000719,,,,,,,,,,,,,,,,103,2023-03-28_17h00.13.213,FishGame,2022.1.1,59.99037758190652,
,6,나를 데려가줘,6,Green,B,0,0,ScrollDown,ScrollUp,Green.png,4,NonTarget,NonTarget,0,0,0,0,,,,,,,,,,,,,,,,,,,,,,,,,0,5,5,5,,,,,,,,,,,,,,,,,,,,,,,,,,,,,,,,,,,,,,,,,,,,,,,,,,,,,,,,,,,,,,,,,,,,,,,,,1.126543199022611,1.0787241999059916,475.663800700102,None,ScrollDown,정답입니다,475.663800700102,None,475.663800700102,None,475.663800700102,None,475.663800700102,None,476.6380372000858,None,476.6380372000858,477.1426820999477,,,,,,,,,,,,,,,,103,2023-03-28_17h00.13.213,FishGame,2022.1.1,59.99037758190652,
,7,넌 고집불통이야,5,Green,B,2.875,2,ScrollUp,ScrollDown,Green.png,4,Negative,Congruent,0,0,0,0,,,,,,,,,,,,,,,,,,,,,,,,,0,6,6,6,,,,,,,,,,,,,,,,,,,,,,,,,,,,,,,,,,,,,,,,,,,,,,,,,,,,,,,,,,,,,,,,,,,,,,,,,2,0.8789770998992026,477.7647325999569,None,ScrollUp,정답입니다,477.7647325999569,None,477.7647325999569,None,477.7647325999569,None,477.7647325999569,None,478.53523300006054,None,478.53523300006054,479.03791059996,,,,,,,,,,,,,,,,103,2023-03-28_17h00.13.213,FishGame,2022.1.1,59.99037758190652,
,8,넌 무심해,4,Orange,A,2.875,3.2,ScrollDown,ScrollUp,Orange.png,4,Negative,Incongruent,0,0,0,0,,,,,,,,,,,,,,,,,,,,,,,,,0,7,7,7,,,,,,,,,,,,,,,,,,,,,,,,,,,,,,,,,,,,,,,,,,,,,,,,,,,,,,,,,,,,,,,,,,,,,,,,,1.0694444576899211,0.7957792999222875,479.6619581000414,None,ScrollDown,정답입니다,479.6619581000414,None,479.6619581000414,None,479.6619581000414,None,479.6619581000414,None,480.3518594999332,None,480.3518594999332,480.85459500015713,,,,,,,,,,,,,,,,103,2023-03-28_17h00.13.213,FishGame,2022.1.1,59.99037758190652,
,9,넌 정겨워,1,Orange,A,5.791666666666667,5.666666666666667,ScrollDown,ScrollUp,Orange.png,4,Positive,Congruent,0,0,0,0,,,,,,,,,,,,,,,,,,,,,,,,,0,8,8,8,,,,,,,,,,,,,,,,,,,,,,,,,,,,,,,,,,,,,,,,,,,,,,,,,,,,,,,,,,,,,,,,,,,,,,,,,1.162037044763565,0.8126449000556022,481.4829838001169,None,ScrollDown,정답입니다,481.4829838001169,None,481.4829838001169,None,481.4829838001169,None,481.4829838001169,None,482.187866399996,None,482.187866399996,482.7045322000049,,,,,,,,,,,,,,,,103,2023-03-28_17h00.13.213,FishGame,2022.1.1,59.99037758190652,
,10,나를 데려가줘,6,Green,B,0,0,ScrollDown,ScrollUp,Green.png,4,NonTarget,NonTarget,0,0,0,0,,,,,,,,,,,,,,,,,,,,,,,,,0,9,9,9,,,,,,,,,,,,,,,,,,,,,,,,,,,,,,,,,,,,,,,,,,,,,,,,,,,,,,,,,,,,,,,,,,,,,,,,,1.182098776102066,0.7938604999799281,483.3157770000398,None,ScrollDown,정답입니다,483.3157770000398,None,483.3157770000398,None,483.3157770000398,None,483.3157770000398,None,484.001861799974,None,484.001861799974,484.5088782000821,,,,,,,,,,,,,,,,103,2023-03-28_17h00.13.213,FishGame,2022.1.1,59.99037758190652,
,11,넌 체제순응적이야,4,Green,B,3,3.6,ScrollUp,ScrollDown,Green.png,4,Negative,Congruent,0,0,0,0,,,,,,,,,,,,,,,,,,,,,,,,,0,10,10,10,,,,,,,,,,,,,,,,,,,,,,,,,,,,,,,,,,,,,,,,,,,,,,,,,,,,,,,,,,,,,,,,,,,,,,,,,1.9459876318772633,0.8467151001095772,485.133560199989,None,ScrollUp,정답입니다,485.133560199989,None,485.133560199989,None,485.133560199989,None,485.133560199989,None,485.8681684001349,None,485.8681684001349,486.3682020001579,,,,,,,,,,,,,,,,103,2023-03-28_17h00.13.213,FishGame,2022.1.1,59.99037758190652,
,12,나를 보내줘,6,Orange,A,0,0,ScrollUp,ScrollDown,Orange.png,4,NonTarget,NonTarget,0,0,0,0,,,,,,,,,,,,,,,,,,,,,,,,,0,11,11,11,,,,,,,,,,,,,,,,,,,,,,,,,,,,,,,,,,,,,,,,,,,,,,,,,,,,,,,,,,,,,,,,,,,,,,,,,1.8364197413126628,1.0182907001581043,486.9933184001129,None,ScrollUp,정답입니다,486.9933184001129,None,486.9933184001129,None,486.9933184001129,None,486.9933184001129,None,487.9045716000255,None,487.9045716000255,488.4045659999829,,,,,,,,,,,,,,,,103,2023-03-28_17h00.13.213,FishGame,2022.1.1,59.99037758190652,
,13,넌 박식해,2,Orange,A,5.625,3.933333333333333,ScrollDown,ScrollUp,Orange.png,4,Positive,Congruent,0,0,0,0,,,,,,,,,,,,,,,,,,,,,,,,,0,12,12,12,,,,,,,,,,,,,,,,,,,,,,,,,,,,,,,,,,,,,,,,,,,,,,,,,,,,,,,,,,,,,,,,,,,,,,,,,1.0848765472571056,0.8151179999113083,489.0338620999828,None,ScrollDown,정답입니다,489.0338620999828,None,489.0338620999828,None,489.0338620999828,None,489.0338620999828,None,489.73775069997646,None,489.73775069997646,490.23774120002054,,,,,,,,,,,,,,,,103,2023-03-28_17h00.13.213,FishGame,2022.1.1,59.99037758190652,
,14,나를 보내줘,6,Orange,A,0,0,ScrollUp,ScrollDown,Orange.png,4,NonTarget,NonTarget,0,0,0,0,,,,,,,,,,,,,,,,,,,,,,,,,0,13,13,13,,,,,,,,,,,,,,,,,,,,,,,,,,,,,,,,,,,,,,,,,,,,,,,,,,,,,,,,,,,,,,,,,,,,,,,,,1.825617293516795,1.0125700000207871,490.86227210005745,None,ScrollUp,정답입니다,490.86227210005745,None,490.86227210005745,None,490.86227210005745,None,490.86227210005745,None,491.76826329994947,None,491.76826329994947,492.27100170007907,,,,,,,,,,,,,,,,103,2023-03-28_17h00.13.213,FishGame,2022.1.1,59.99037758190652,
,15,넌 침착해,1,Green,B,5.458333333333333,5.566666666666666,ScrollUp,ScrollDown,Green.png,4,Positive,Incongruent,0,0,0,0,,,,,,,,,,,,,,,,,,,,,,,,,0,14,14,14,,,,,,,,,,,,,,,,,,,,,,,,,,,,,,,,,,,,,,,,,,,,,,,,,,,,,,,,,,,,,,,,,,,,,,,,,1.8503086417913437,0.9817800000309944,492.89677150011994,None,ScrollUp,정답입니다,492.89677150011994,None,492.89677150011994,None,492.89677150011994,None,492.89677150011994,None,493.7682632000651,None,493.7682632000651,494.27092329994775,,,,,,,,,,,,,,,,103,2023-03-28_17h00.13.213,FishGame,2022.1.1,59.99037758190652,
,16,나를 데려가줘,6,Green,B,0,0,ScrollDown,ScrollUp,Green.png,4,NonTarget,NonTarget,0,0,0,0,,,,,,,,,,,,,,,,,,,,,,,,,0,15,15,15,,,,,,,,,,,,,,,,,,,,,,,,,,,,,,,,,,,,,,,,,,,,,,,,,,,,,,,,,,,,,,,,,,,,,,,,,1.2854938358068466,0.8290975999552757,494.8937944001518,None,ScrollDown,정답입니다,494.8937944001518,None,494.8937944001518,None,494.8937944001518,None,494.8937944001518,None,495.62096400000155,None,495.62096400000155,496.12091880012304,,,,,,,,,,,,,,,,103,2023-03-28_17h00.13.213,FishGame,2022.1.1,59.99037758190652,
,17,넌 행복해,1,Orange,A,6.416666666666666,6.166666666666667,ScrollDown,ScrollUp,Orange.png,4,Positive,Congruent,0,0,0,0,,,,,,,,,,,,,,,,,,,,,,,,,0,16,16,16,,,,,,,,,,,,,,,,,,,,,,,,,,,,,,,,,,,,,,,,,,,,,,,,,,,,,,,,,,,,,,,,,,,,,,,,,1.0385802288850148,0.8793314001522958,496.74915280006826,None,ScrollDown,정답입니다,496.74915280006826,None,496.74915280006826,None,496.74915280006826,None,496.74915280006826,None,497.52092280006036,None,497.52092280006036,498.02091560000554,,,,,,,,,,,,,,,,103,2023-03-28_17h00.13.213,FishGame,2022.1.1,59.99037758190652,
,18,넌 겸손해,2,Green,B,5.791666666666667,4.766666666666667,ScrollUp,ScrollDown,Green.png,4,Positive,Incongruent,0,0,0,0,,,,,,,,,,,,,,,,,,,,,,,,,0,17,17,17,,,,,,,,,,,,,,,,,,,,,,,,,,,,,,,,,,,,,,,,,,,,,,,,,,,,,,,,,,,,,,,,,,,,,,,,,2,0.8621460001450032,498.64805339998566,None,ScrollUp,정답입니다,498.64805339998566,None,498.64805339998566,None,498.64805339998566,None,498.64805339998566,None,499.4014362001326,None,499.4014362001326,499.9014395000413,,,,,,,,,,,,,,,,103,2023-03-28_17h00.13.213,FishGame,2022.1.1,59.99037758190652,
,19,나를 보내줘,6,Orange,A,0,0,ScrollUp,ScrollDown,Orange.png,4,NonTarget,NonTarget,0,0,0,0,,,,,,,,,,,,,,,,,,,,,,,,,0,18,18,18,,,,,,,,,,,,,,,,,,,,,,,,,,,,,,,,,,,,,,,,,,,,,,,,,,,,,,,,,,,,,,,,,,,,,,,,,1.8564814726511638,0.9290519999340177,500.52882200013846,None,ScrollUp,정답입니다,500.52882200013846,None,500.52882200013846,None,500.52882200013846,None,500.52882200013846,None,501.3514107000083,None,501.3514107000083,501.8514582000207,,,,,,,,,,,,,,,,103,2023-03-28_17h00.13.213,FishGame,2022.1.1,59.99037758190652,
,20,넌 의심없어,3,Orange,A,4.166666666666667,4.6,ScrollDown,ScrollUp,Orange.png,4,Neutral,Neutral,0,0,0,0,,,,,,,,,,,,,,,,,,,,,,,,,0,19,19,19,,,,,,,,,,,,,,,,,,,,,,,,,,,,,,,,,,,,,,,,,,,,,,,,,,,,,,,,,,,,,,,,,,,,,,,,,1.0262345671653748,0.8645615999121219,502.47894040006213,None,ScrollDown,정답입니다,502.47894040006213,None,502.47894040006213,None,502.47894040006213,None,502.47894040006213,None,503.2347470000386,None,503.2347470000386,503.7374768999871,,,,,,,,,,,,,,,,103,2023-03-28_17h00.13.213,FishGame,2022.1.1,59.99037758190652,
,21,넌 시시해,4,Orange,A,2.666666666666667,2.966666666666667,ScrollDown,ScrollUp,Orange.png,4,Negative,Incongruent,0,0,0,0,,,,,,,,,,,,,,,,,,,,,,,,,0,20,20,20,,,,,,,,,,,,,,,,,,,,,,,,,,,,,,,,,,,,,,,,,,,,,,,,,,,,,,,,,,,,,,,,,,,,,,,,,1,0.9293448000680655,504.361265799962,None,ScrollDown,정답입니다,504.361265799962,None,504.361265799962,None,504.361265799962,None,504.361265799962,None,505.18478549993597,None,505.18478549993597,505.68737880000845,,,,,,,,,,,,,,,,103,2023-03-28_17h00.13.213,FishGame,2022.1.1,59.99037758190652,
,22,나를 데려가줘,6,Green,B,0,0,ScrollDown,ScrollUp,Green.png,4,NonTarget,NonTarget,0,0,0,0,,,,,,,,,,,,,,,,,,,,,,,,,0,21,21,21,,,,,,,,,,,,,,,,,,,,,,,,,,,,,,,,,,,,,,,,,,,,,,,,,,,,,,,,,,,,,,,,,,,,,,,,,1.0308642089366913,1.0792916000355035,506.3146283000242,None,ScrollDown,정답입니다,506.3146283000242,None,506.3146283000242,None,506.3146283000242,None,506.3146283000242,None,507.2876033000648,None,507.2876033000648,507.78731569997035,,,,,,,,,,,,,,,,103,2023-03-28_17h00.13.213,FishGame,2022.1.1,59.99037758190652,
,23,넌 무정해,5,Orange,A,2.5,2.2,ScrollDown,ScrollUp,Orange.png,4,Negative,Incongruent,0,0,0,0,,,,,,,,,,,,,,,,,,,,,,,,,0,22,22,22,,,,,,,,,,,,,,,,,,,,,,,,,,,,,,,,,,,,,,,,,,,,,,,,,,,,,,,,,,,,,,,,,,,,,,,,,1.0987654229005177,0.8459761999547482,508.4115951999556,None,ScrollDown,정답입니다,508.4115951999556,None,508.4115951999556,None,508.4115951999556,None,508.4115951999556,None,509.15134930005297,None,509.15134930005297,509.654001200106,,,,,,,,,,,,,,,,103,2023-03-28_17h00.13.213,FishGame,2022.1.1,59.99037758190652,
,24,넌 긍정적이야,1,Green,B,6.041666666666667,6.066666666666666,ScrollUp,ScrollDown,Green.png,4,Positive,Incongruent,0,0,0,0,,,,,,,,,,,,,,,,,,,,,,,,,0,23,23,23,,,,,,,,,,,,,,,,,,,,,,,,,,,,,,,,,,,,,,,,,,,,,,,,,,,,,,,,,,,,,,,,,,,,,,,,,1.959876557191213,0.8985686998348683,510.2799130999483,None,ScrollUp,정답입니다,510.2799130999483,None,510.2799130999483,None,510.2799130999483,None,510.2799130999483,None,511.0679834000766,None,511.0679834000766,511.5706313000992,,,,,,,,,,,,,,,,103,2023-03-28_17h00.13.213,FishGame,2022.1.1,59.99037758190652,
,25,나를 보내줘,6,Orange,A,0,0,ScrollUp,ScrollDown,Orange.png,4,NonTarget,NonTarget,0,0,0,0,,,,,,,,,,,,,,,,,,,,,,,,,0,24,24,24,,,,,,,,,,,,,,,,,,,,,,,,,,,,,,,,,,,,,,,,,,,,,,,,,,,,,,,,,,,,,,,,,,,,,,,,,1.9722222189108531,0.9576333998702466,512.1994291001465,None,ScrollUp,정답입니다,512.1994291001465,None,512.1994291001465,None,512.1994291001465,None,512.1994291001465,None,513.0509447001386,None,513.0509447001386,513.5509236000944,,,,,,,,,,,,,,,,103,2023-03-28_17h00.13.213,FishGame,2022.1.1,59.99037758190652,
,26,넌 시기심이 많아,5,Green,B,2.458333333333333,2.233333333333333,ScrollUp,ScrollDown,Green.png,4,Negative,Congruent,0,0,0,0,,,,,,,,,,,,,,,,,,,,,,,,,0,25,25,25,,,,,,,,,,,,,,,,,,,,,,,,,,,,,,,,,,,,,,,,,,,,,,,,,,,,,,,,,,,,,,,,,,,,,,,,,1.873456800977389,0.934251100057736,514.1790235999506,None,ScrollUp,정답입니다,514.1790235999506,None,514.1790235999506,None,514.1790235999506,None,514.1790235999506,None,515.0039133001119,None,515.0039133001119,515.5039387000725,,,,,,,,,,,,,,,,103,2023-03-28_17h00.13.213,FishGame,2022.1.1,59.99037758190652,
,27,넌 탁월해,2,Orange,A,5.708333333333334,4.5,ScrollDown,ScrollUp,Orange.png,4,Positive,Congruent,0,0,0,0,,,,,,,,,,,,,,,,,,,,,,,,,0,26,26,26,,,,,,,,,,,,,,,,,,,,,,,,,,,,,,,,,,,,,,,,,,,,,,,,,,,,,,,,,,,,,,,,,,,,,,,,,1.192901223897934,0.8458616998977959,516.1323007999454,None,ScrollDown,정답입니다,516.1323007999454,None,516.1323007999454,None,516.1323007999454,None,516.1323007999454,None,516.8706374999601,None,516.8706374999601,517.3705587000586,,,,,,,,,,,,,,,,103,2023-03-28_17h00.13.213,FishGame,2022.1.1,59.99037758190652,
,28,나를 데려가줘,6,Green,B,0,0,ScrollDown,ScrollUp,Green.png,4,NonTarget,NonTarget,0,0,0,0,,,,,,,,,,,,,,,,,,,,,,,,,0,27,27,27,,,,,,,,,,,,,,,,,,,,,,,,,,,,,,,,,,,,,,,,,,,,,,,,,,,,,,,,,,,,,,,,,,,,,,,,,1.162037044763565,0.9320582000073045,518.0044964000117,None,ScrollDown,정답입니다,518.0044964000117,None,518.0044964000117,None,518.0044964000117,None,518.0044964000117,None,518.8341745000798,None,518.8341745000798,519.3341363000218,,,,,,,,,,,,,,,,103,2023-03-28_17h00.13.213,FishGame,2022.1.1,59.99037758190652,
,29,넌 조용해,3,Green,B,4.333333333333333,4.166666666666667,ScrollUp,ScrollDown,Green.png,4,Neutral,Neutral,0,0,0,0,,,,,,,,,,,,,,,,,,,,,,,,,0,28,28,28,,,,,,,,,,,,,,,,,,,,,,,,,,,,,,,,,,,,,,,,,,,,,,,,,,,,,,,,,,,,,,,,,,,,,,,,,1.9691357910633087,0.8679945999756455,519.9595721999649,None,ScrollUp,정답입니다,519.9595721999649,None,519.9595721999649,None,519.9595721999649,None,519.9595721999649,None,520.7206040001474,None,520.7206040001474,521.2204487000126,,,,,,,,,,,,,,,,103,2023-03-28_17h00.13.213,FishGame,2022.1.1,59.99037758190652,
,30,넌 다정해,1,Orange,A,5.833333333333334,5.7,ScrollDown,ScrollUp,Orange.png,4,Positive,Congruent,0,0,0,0,,,,,,,,,,,,,,,,,,,,,,,,,0,29,29,29,,,,,,,,,,,,,,,,,,,,,,,,,,,,,,,,,,,,,,,,,,,,,,,,,,,,,,,,,,,,,,,,,,,,,,,,,1.0632716019948323,0.8985133001115173,521.8476440999657,None,ScrollDown,정답입니다,521.8476440999657,None,521.8476440999657,None,521.8476440999657,None,521.8476440999657,None,522.634442599956,None,522.634442599956,523.1370884999633,,,,,,,,,,,,,,,,103,2023-03-28_17h00.13.213,FishGame,2022.1.1,59.99037758190652,
,31,넌 능력있어,2,Green,B,6.166666666666666,4.6,ScrollUp,ScrollDown,Green.png,4,Positive,Incongruent,0,0,0,0,,,,,,,,,,,,,,,,,,,,,,,,,0,30,30,30,,,,,,,,,,,,,,,,,,,,,,,,,,,,,,,,,,,,,,,,,,,,,,,,,,,,,,,,,,,,,,,,,,,,,,,,,2,0.8912140999455005,523.7691594001371,None,ScrollUp,정답입니다,523.7691594001371,None,523.7691594001371,None,523.7691594001371,None,523.7691594001371,None,524.5506814001128,None,524.5506814001128,525.0506870001554,,,,,,,,,,,,,,,,103,2023-03-28_17h00.13.213,FishGame,2022.1.1,59.99037758190652,
,32,넌 불쾌해,5,Orange,A,2.125,1.933333333333333,ScrollDown,ScrollUp,Orange.png,4,Negative,Incongruent,0,0,0,0,,,,,,,,,,,,,,,,,,,,,,,,,0,31,31,31,,,,,,,,,,,,,,,,,,,,,,,,,,,,,,,,,,,,,,,,,,,,,,,,,,,,,,,,,,,,,,,,,,,,,,,,,1.120370368162791,0.8162269999738783,525.6734500001185,None,ScrollDown,정답입니다,525.6734500001185,None,525.6734500001185,None,525.6734500001185,None,525.6734500001185,None,526.3840338999871,None,526.3840338999871,526.8870743999723,,,,,,,,,,,,,,,,103,2023-03-28_17h00.13.213,FishGame,2022.1.1,59.99037758190652,
,33,나를 데려가줘,6,Green,B,0,0,ScrollDown,ScrollUp,Green.png,4,NonTarget,NonTarget,0,0,0,0,,,,,,,,,,,,,,,,,,,,,,,,,0,32,32,32,,,,,,,,,,,,,,,,,,,,,,,,,,,,,,,,,,,,,,,,,,,,,,,,,,,,,,,,,,,,,,,,,,,,,,,,,1.1666666616996129,0.82906059990637,527.510168600129,None,ScrollDown,정답입니다,527.510168600129,None,527.510168600129,None,527.510168600129,None,527.510168600129,None,528.2370132999495,None,528.2370132999495,528.73705970007,,,,,,,,,,,,,,,,103,2023-03-28_17h00.13.213,FishGame,2022.1.1,59.99037758190652,
,34,넌 유순해,3,Orange,A,4.458333333333333,5,ScrollDown,ScrollUp,Orange.png,4,Neutral,Neutral,0,0,0,0,,,,,,,,,,,,,,,,,,,,,,,,,0,33,33,33,,,,,,,,,,,,,,,,,,,,,,,,,,,,,,,,,,,,,,,,,,,,,,,,,,,,,,,,,,,,,,,,,,,,,,,,,1.1543209999799728,0.8123373000416905,529.362349400064,None,ScrollDown,정답입니다,529.362349400064,None,529.362349400064,None,529.362349400064,None,529.362349400064,None,530.0674964000937,None,530.0674964000937,530.5701852999628,,,,,,,,,,,,,,,,103,2023-03-28_17h00.13.213,FishGame,2022.1.1,59.99037758190652,
,35,넌 근심스러워,4,Green,B,2.708333333333333,3.133333333333333,ScrollUp,ScrollDown,Green.png,4,Negative,Congruent,0,0,0,0,,,,,,,,,,,,,,,,,,,,,,,,,0,34,34,34,,,,,,,,,,,,,,,,,,,,,,,,,,,,,,,,,,,,,,,,,,,,,,,,,,,,,,,,,,,,,,,,,,,,,,,,,1.9413580397764842,0.8292364999651909,531.1955331000499,None,ScrollUp,정답입니다,531.1955331000499,None,531.1955331000499,None,531.1955331000499,None,531.1955331000499,None,531.917455600109,None,531.917455600109,532.4201432000846,,,,,,,,,,,,,,,,103,2023-03-28_17h00.13.213,FishGame,2022.1.1,59.99037758190652,
,36,넌 세련되었어,2,Orange,A,5.5,4.6,ScrollDown,ScrollUp,Orange.png,4,Positive,Congruent,0,0,0,0,,,,,,,,,,,,,,,,,,,,,,,,,0,35,35,35,,,,,,,,,,,,,,,,,,,,,,,,,,,,,,,,,,,,,,,,,,,,,,,,,,,,,,,,,,,,,,,,,,,,,,,,,1.1342592686414719,0.8819168999325484,533.0520602001343,None,ScrollDown,정답입니다,533.0520602001343,None,533.0520602001343,None,533.0520602001343,None,533.0520602001343,None,533.8201874999795,None,533.8201874999795,534.3201109999791,,,,,,,,,,,,,,,,103,2023-03-28_17h00.13.213,FishGame,2022.1.1,59.99037758190652,
,37,나를 보내줘,6,Orange,A,0,0,ScrollUp,ScrollDown,Orange.png,4,NonTarget,NonTarget,0,0,0,0,,,,,,,,,,,,,,,,,,,,,,,,,0,36,36,36,,,,,,,,,,,,,,,,,,,,,,,,,,,,,,,,,,,,,,,,,,,,,,,,,,,,,,,,,,,,,,,,,,,,,,,,,1.652777781089147,1.0297381000127643,534.9612751000095,None,ScrollUp,정답입니다,534.9612751000095,None,534.9612751000095,None,534.9612751000095,None,534.9612751000095,None,535.8868309999816,None,535.8868309999816,536.4034232001286,,,,,,,,,,,,,,,,103,2023-03-28_17h00.13.213,FishGame,2022.1.1,59.99037758190652,
,38,넌 확고해,3,Green,B,4.708333333333334,4.566666666666666,ScrollUp,ScrollDown,Green.png,4,Neutral,Neutral,0,0,0,0,,,,,,,,,,,,,,,,,,,,,,,,,0,37,37,37,,,,,,,,,,,,,,,,,,,,,,,,,,,,,,,,,,,,,,,,,,,,,,,,,,,,,,,,,,,,,,,,,,,,,,,,,2,0.895637399982661,537.0115801999345,None,ScrollUp,정답입니다,537.0115801999345,None,537.0115801999345,None,537.0115801999345,None,537.0115801999345,None,537.8008141000755,None,537.8008141000755,538.303421900142,,,,,,,,,,,,,,,,103,2023-03-28_17h00.13.213,FishGame,2022.1.1,59.99037758190652,
,39,넌 이해심이 많아,1,Green,B,6.041666666666668,5.533333333333333,ScrollUp,ScrollDown,Green.png,4,Positive,Incongruent,0,0,0,0,,,,,,,,,,,,,,,,,,,,,,,,,0,38,38,38,,,,,,,,,,,,,,,,,,,,,,,,,,,,,,,,,,,,,,,,,,,,,,,,,,,,,,,,,,,,,,,,,,,,,,,,,2,0.8956452999264002,538.9264491000213,None,ScrollUp,정답입니다,538.9264491000213,None,538.9264491000213,None,538.9264491000213,None,538.9264491000213,None,539.7201193000656,None,539.7201193000656,540.2199711001012,,,,,,,,,,,,,,,,103,2023-03-28_17h00.13.213,FishGame,2022.1.1,59.99037758190652,
,40,나를 보내줘,6,Orange,A,0,0,ScrollUp,ScrollDown,Orange.png,4,NonTarget,NonTarget,0,0,0,0,,,,,,,,,,,,,,,,,,,,,,,,,0,39,39,39,,,,,,,,,,,,,,,,,,,,,,,,,,,,,,,,,,,,,,,,,,,,,,,,,,,,,,,,,,,,,,,,,,,,,,,,,1.89969136317571,0.9293354998808354,540.8439170001075,None,ScrollUp,정답입니다,540.8439170001075,None,540.8439170001075,None,540.8439170001075,None,540.8439170001075,None,541.6699922000989,None,541.6699922000989,542.1699447000865,,,,,,,,,,,,,,,,103,2023-03-28_17h00.13.213,FishGame,2022.1.1,59.99037758190652,
,41,넌 거칠어,4,Orange,A,2.625,3.033333333333333,ScrollDown,ScrollUp,Orange.png,4,Negative,Incongruent,0,0,0,0,,,,,,,,,,,,,,,,,,,,,,,,,0,40,40,40,,,,,,,,,,,,,,,,,,,,,,,,,,,,,,,,,,,,,,,,,,,,,,,,,,,,,,,,,,,,,,,,,,,,,,,,,1.0787036915620167,0.8958141999319196,542.7969100000337,None,ScrollDown,정답입니다,542.7969100000337,None,542.7969100000337,None,542.7969100000337,None,542.7969100000337,None,543.5866304000374,None,543.5866304000374,544.1032672999427,,,,,,,,,,,,,,,,103,2023-03-28_17h00.13.213,FishGame,2022.1.1,59.99037758190652,
,42,넌 변덕맞아,5,Green,B,2.75,2.166666666666667,ScrollUp,ScrollDown,Green.png,4,Negative,Congruent,0,0,0,0,,,,,,,,,,,,,,,,,,,,,,,,,0,41,41,41,,,,,,,,,,,,,,,,,,,,,,,,,,,,,,,,,,,,,,,,,,,,,,,,,,,,,,,,,,,,,,,,,,,,,,,,,2,0.8791764001362026,544.7142853001133,None,ScrollUp,정답입니다,544.7142853001133,None,544.7142853001133,None,544.7142853001133,None,544.7142853001133,None,545.4865771001205,None,545.4865771001205,545.986577700125,,,,,,,,,,,,,,,,103,2023-03-28_17h00.13.213,FishGame,2022.1.1,59.99037758190652,
,43,나를 데려가줘,6,Green,B,0,0,ScrollDown,ScrollUp,Green.png,4,NonTarget,NonTarget,0,0,0,0,,,,,,,,,,,,,,,,,,,,,,,,,0,42,42,42,,,,,,,,,,,,,,,,,,,,,,,,,,,,,,,,,,,,,,,,,,,,,,,,,,,,,,,,,,,,,,,,,,,,,,,,,1.0293209950129192,0.9624773999676108,546.6092871001456,None,ScrollDown,정답입니다,546.6092871001456,None,546.6092871001456,None,546.6092871001456,None,546.6092871001456,None,547.4672227001283,None,547.4672227001283,547.9742926000617,,,,,,,,,,,,,,,,103,2023-03-28_17h00.13.213,FishGame,2022.1.1,59.99037758190652,
,44,넌 외로워,4,Green,B,2.833333333333333,3.3,ScrollUp,ScrollDown,Green.png,4,Negative,Congruent,0,0,0,0,,,,,,,,,,,,,,,,,,,,,,,,,0,43,43,43,,,,,,,,,,,,,,,,,,,,,,,,,,,,,,,,,,,,,,,,,,,,,,,,,,,,,,,,,,,,,,,,,,,,,,,,,1.8935185074806213,0.8465223000384867,548.5914700999856,None,ScrollUp,정답입니다,548.5914700999856,None,548.5914700999856,None,548.5914700999856,None,548.5914700999856,None,549.3335583000444,None,549.3335583000444,549.8337636000942,,,,,,,,,,,,,,,,103,2023-03-28_17h00.13.213,FishGame,2022.1.1,59.99037758190652,
,1,넌 불평스러워,5,Orange,A,2.25,2.066666666666667,ScrollDown,ScrollUp,Orange.png,5,Negative,Incongruent,0,0,0,0,,,,,,,,,,,,,,,,,,,,,,,,,,,,,0,0,0,0,,,,,,,,,,,,,,,,,,,,,,,,,,,,581.6662306999788,583.1693983001169,583.2027615001425,584.1527355001308,584.2027360000648,585.156981300097,585.1403602999635,None,,,,,,,,,,,,,,,,,,,,,,,,,,,,,,,,,,1.0833333333333333,1.1062670999672264,586.250960299978,None,ScrollDown,정답입니다,586.250960299978,None,586.250960299978,None,586.250960299978,None,586.250960299978,None,587.2496716999449,None,587.2496716999449,587.7523817999754,550.3336913001258,None,550.3336913001258,None,-0.028703704,-0.12407407,1,0,0,0.016407999908551574,None,580.3401840999722,None,,,103,2023-03-28_17h00.13.213,FishGame,2022.1.1,59.99037758190652,
,2,나를 보내줘,6,Orange,A,0,0,ScrollUp,ScrollDown,Orange.png,5,NonTarget,NonTarget,0,0,0,0,,,,,,,,,,,,,,,,,,,,,,,,,,,,,0,1,1,1,,,,,,,,,,,,,,,,,,,,,,,,,,,,,,,,,,,,,,,,,,,,,,,,,,,,,,,,,,,,,,,,,,,,,1.9382716119289398,0.9483905001543462,588.3802311001346,None,ScrollUp,정답입니다,588.3802311001346,None,588.3802311001346,None,588.3802311001346,None,588.3802311001346,None,589.21901300014,None,589.21901300014,589.7190078999847,,,,,,,,,,,,,,,,103,2023-03-28_17h00.13.213,FishGame,2022.1.1,59.99037758190652,
,3,넌 다재다능해,2,Green,B,6.208333333333333,4.5,ScrollUp,ScrollDown,Green.png,5,Positive,Incongruent,0,0,0,0,,,,,,,,,,,,,,,,,,,,,,,,,,,,,0,2,2,2,,,,,,,,,,,,,,,,,,,,,,,,,,,,,,,,,,,,,,,,,,,,,,,,,,,,,,,,,,,,,,,,,,,,,1.9382716119289398,0.8293031000066549,590.3418378999922,None,ScrollUp,정답입니다,590.3418378999922,None,590.3418378999922,None,590.3418378999922,None,590.3418378999922,None,591.0660320001189,None,591.0660320001189,591.5672850999981,,,,,,,,,,,,,,,,103,2023-03-28_17h00.13.213,FishGame,2022.1.1,59.99037758190652,
,4,넌 과감해,3,Orange,A,4.833333333333334,4.6,ScrollDown,ScrollUp,Orange.png,5,Neutral,Neutral,0,0,0,0,,,,,,,,,,,,,,,,,,,,,,,,,,,,,0,3,3,3,,,,,,,,,,,,,,,,,,,,,,,,,,,,,,,,,,,,,,,,,,,,,,,,,,,,,,,,,,,,,,,,,,,,,1.0663580298423767,0.8317539000418037,592.1925931000151,None,ScrollDown,정답입니다,592.1925931000151,None,592.1925931000151,None,592.1925931000151,None,592.1925931000151,None,592.9160242001526,None,592.9160242001526,593.4190366000403,,,,,,,,,,,,,,,,103,2023-03-28_17h00.13.213,FishGame,2022.1.1,59.99037758190652,
,5,넌 고분고분해,3,Green,B,3.75,4.033333333333333,ScrollUp,ScrollDown,Green.png,5,Neutral,Neutral,0,0,0,0,,,,,,,,,,,,,,,,,,,,,,,,,,,,,0,4,4,4,,,,,,,,,,,,,,,,,,,,,,,,,,,,,,,,,,,,,,,,,,,,,,,,,,,,,,,,,,,,,,,,,,,,,1.9336419701576233,0.7776976998429745,594.0471224000212,None,ScrollUp,정답입니다,594.0471224000212,None,594.0471224000212,None,594.0471224000212,None,594.0471224000212,None,594.7162975999527,None,594.7162975999527,595.2189885000698,,,,,,,,,,,,,,,,103,2023-03-28_17h00.13.213,FishGame,2022.1.1,59.99037758190652,
,6,나를 보내줘,6,Orange,A,0,0,ScrollUp,ScrollDown,Orange.png,5,NonTarget,NonTarget,0,0,0,0,,,,,,,,,,,,,,,,,,,,,,,,,,,,,0,5,5,5,,,,,,,,,,,,,,,,,,,,,,,,,,,,,,,,,,,,,,,,,,,,,,,,,,,,,,,,,,,,,,,,,,,,,2,0.8957976999226958,595.8438482999336,None,ScrollUp,정답입니다,595.8438482999336,None,595.8438482999336,None,595.8438482999336,None,595.8438482999336,None,596.6328632000368,None,596.6328632000368,597.1354964000639,,,,,,,,,,,,,,,,103,2023-03-28_17h00.13.213,FishGame,2022.1.1,59.99037758190652,
,7,넌 잘 잊어,4,Orange,A,3,3.7,ScrollDown,ScrollUp,Orange.png,5,Negative,Incongruent,0,0,0,0,,,,,,,,,,,,,,,,,,,,,,,,,,,,,0,6,6,6,,,,,,,,,,,,,,,,,,,,,,,,,,,,,,,,,,,,,,,,,,,,,,,,,,,,,,,,,,,,,,,,,,,,,1.1882716069618862,0.8293180998880416,597.7639057999477,None,ScrollDown,정답입니다,597.7639057999477,None,597.7639057999477,None,597.7639057999477,None,597.7639057999477,None,598.4855074000079,None,598.4855074000079,598.9854760000017,,,,,,,,,,,,,,,,103,2023-03-28_17h00.13.213,FishGame,2022.1.1,59.99037758190652,
,8,넌 탐구심이없어,4,Green,B,2.833333333333333,3.066666666666667,ScrollUp,ScrollDown,Green.png,5,Negative,Congruent,0,0,0,0,,,,,,,,,,,,,,,,,,,,,,,,,,,,,0,7,7,7,,,,,,,,,,,,,,,,,,,,,,,,,,,,,,,,,,,,,,,,,,,,,,,,,,,,,,,,,,,,,,,,,,,,,1.8564814726511638,0.7790551001671702,599.6114825000986,None,ScrollUp,정답입니다,599.6114825000986,None,599.6114825000986,None,599.6114825000986,None,599.6114825000986,None,600.2855223999359,None,600.2855223999359,600.7827882999554,,,,,,,,,,,,,,,,103,2023-03-28_17h00.13.213,FishGame,2022.1.1,59.99037758190652,
,9,나를 데려가줘,6,Green,B,0,0,ScrollDown,ScrollUp,Green.png,5,NonTarget,NonTarget,0,0,0,0,,,,,,,,,,,,,,,,,,,,,,,,,,,,,0,8,8,8,,,,,,,,,,,,,,,,,,,,,,,,,,,,,,,,,,,,,,,,,,,,,,,,,,,,,,,,,,,,,,,,,,,,,1.0524691541989644,0.8790448000654578,601.4081953000277,None,ScrollDown,정답입니다,601.4081953000277,None,601.4081953000277,None,601.4081953000277,None,601.4081953000277,None,602.1854683000129,None,602.1854683000129,602.682747800136,,,,,,,,,,,,,,,,103,2023-03-28_17h00.13.213,FishGame,2022.1.1,59.99037758190652,
,10,넌 참되어,2,Orange,A,6.041666666666664,4.733333333333333,ScrollDown,ScrollUp,Orange.png,5,Positive,Congruent,0,0,0,0,,,,,,,,,,,,,,,,,,,,,,,,,,,,,0,9,9,9,,,,,,,,,,,,,,,,,,,,,,,,,,,,,,,,,,,,,,,,,,,,,,,,,,,,,,,,,,,,,,,,,,,,,1.2175925970077515,0.82892100000754,603.3129221000709,None,ScrollDown,정답입니다,603.3129221000709,None,603.3129221000709,None,603.3129221000709,None,603.3129221000709,None,604.035386600066,None,604.035386600066,604.5353517001495,,,,,,,,,,,,,,,,103,2023-03-28_17h00.13.213,FishGame,2022.1.1,59.99037758190652,
,11,넌 생기있어,1,Green,B,5.875,5.633333333333334,ScrollUp,ScrollDown,Green.png,5,Positive,Incongruent,0,0,0,0,,,,,,,,,,,,,,,,,,,,,,,,,,,,,0,10,10,10,,,,,,,,,,,,,,,,,,,,,,,,,,,,,,,,,,,,,,,,,,,,,,,,,,,,,,,,,,,,,,,,,,,,,1.751543199022611,0.7793231001123786,605.1607346001547,None,ScrollUp,정답입니다,605.1607346001547,None,605.1607346001547,None,605.1607346001547,None,605.1607346001547,None,605.8326640001033,None,605.8326640001033,606.3353752000257,,,,,,,,,,,,,,,,103,2023-03-28_17h00.13.213,FishGame,2022.1.1,59.99037758190652,
,12,넌 비사교적이야,4,Green,B,2.875,2.9,ScrollUp,ScrollDown,Green.png,5,Negative,Congruent,0,0,0,0,,,,,,,,,,,,,,,,,,,,,,,,,,,,,0,11,11,11,,,,,,,,,,,,,,,,,,,,,,,,,,,,,,,,,,,,,,,,,,,,,,,,,,,,,,,,,,,,,,,,,,,,,1.9506172736485798,0.7789823999628425,606.9582392000593,None,ScrollUp,정답입니다,606.9582392000593,None,606.9582392000593,None,606.9582392000593,None,606.9582392000593,None,607.6353202001192,None,607.6353202001192,608.1352760000154,,,,,,,,,,,,,,,,103,2023-03-28_17h00.13.213,FishGame,2022.1.1,59.99037758190652,
,13,나를 데려가줘,6,Green,B,0,0,ScrollDown,ScrollUp,Green.png,5,NonTarget,NonTarget,0,0,0,0,,,,,,,,,,,,,,,,,,,,,,,,,,,,,0,12,12,12,,,,,,,,,,,,,,,,,,,,,,,,,,,,,,,,,,,,,,,,,,,,,,,,,,,,,,,,,,,,,,,,,,,,,1.0632716019948323,0.9458618999924511,608.7586111000273,None,ScrollDown,정답입니다,608.7586111000273,None,608.7586111000273,None,608.7586111000273,None,608.7586111000273,None,609.5994106000289,None,609.5994106000289,610.1019534999505,,,,,,,,,,,,,,,,103,2023-03-28_17h00.13.213,FishGame,2022.1.1,59.99037758190652,
,14,넌 고독해,4,Orange,A,2.916666666666667,3.233333333333333,ScrollDown,ScrollUp,Orange.png,5,Negative,Incongruent,0,0,0,0,,,,,,,,,,,,,,,,,,,,,,,,,,,,,0,13,13,13,,,,,,,,,,,,,,,,,,,,,,,,,,,,,,,,,,,,,,,,,,,,,,,,,,,,,,,,,,,,,,,,,,,,,1.121913582086563,0.7960095000453293,610.7276357000228,None,ScrollDown,정답입니다,610.7276357000228,None,610.7276357000228,None,610.7276357000228,None,610.7276357000228,None,611.4186385001522,None,611.4186385001522,611.9322339000646,,,,,,,,,,,,,,,,103,2023-03-28_17h00.13.213,FishGame,2022.1.1,59.99037758190652,
,15,넌 신경질적이야,5,Green,B,2.375,2.233333333333333,ScrollUp,ScrollDown,Green.png,5,Negative,Congruent,0,0,0,0,,,,,,,,,,,,,,,,,,,,,,,,,,,,,0,14,14,14,,,,,,,,,,,,,,,,,,,,,,,,,,,,,,,,,,,,,,,,,,,,,,,,,,,,,,,,,,,,,,,,,,,,,1.9552469154198964,0.8132466000970453,612.5611654999666,None,ScrollUp,정답입니다,612.5611654999666,None,612.5611654999666,None,612.5611654999666,None,612.5611654999666,None,613.2655925999861,None,613.2655925999861,613.765581100015,,,,,,,,,,,,,,,,103,2023-03-28_17h00.13.213,FishGame,2022.1.1,59.99037758190652,
,16,넌 똑똑해,2,Green,B,5.666666666666667,3.966666666666667,ScrollUp,ScrollDown,Green.png,5,Positive,Incongruent,0,0,0,0,,,,,,,,,,,,,,,,,,,,,,,,,,,,,0,15,15,15,,,,,,,,,,,,,,,,,,,,,,,,,,,,,,,,,,,,,,,,,,,,,,,,,,,,,,,,,,,,,,,,,,,,,1.9475308458010356,0.7624129999894649,614.4004162999336,None,ScrollUp,정답입니다,614.4004162999336,None,614.4004162999336,None,614.4004162999336,None,614.4004162999336,None,615.0488569999579,None,615.0488569999579,615.5489110001363,,,,,,,,,,,,,,,,103,2023-03-28_17h00.13.213,FishGame,2022.1.1,59.99037758190652,
,17,나를 보내줘,6,Orange,A,0,0,ScrollUp,ScrollDown,Orange.png,5,NonTarget,NonTarget,0,0,0,0,,,,,,,,,,,,,,,,,,,,,,,,,,,,,0,16,16,16,,,,,,,,,,,,,,,,,,,,,,,,,,,,,,,,,,,,,,,,,,,,,,,,,,,,,,,,,,,,,,,,,,,,,1.8225308656692505,0.932198999915272,616.1841217000037,None,ScrollUp,정답입니다,616.1841217000037,None,616.1841217000037,None,616.1841217000037,None,616.1841217000037,None,616.9991685000714,None,616.9991685000714,617.5018681001384,,,,,,,,,,,,,,,,103,2023-03-28_17h00.13.213,FishGame,2022.1.1,59.99037758190652,
,18,넌 협조적이야,1,Orange,A,5.625,5.666666666666667,ScrollDown,ScrollUp,Orange.png,5,Positive,Congruent,0,0,0,0,,,,,,,,,,,,,,,,,,,,,,,,,,,,,0,17,17,17,,,,,,,,,,,,,,,,,,,,,,,,,,,,,,,,,,,,,,,,,,,,,,,,,,,,,,,,,,,,,,,,,,,,,1.0138889054457347,0.8122659001965076,618.1277054001112,None,ScrollDown,정답입니다,618.1277054001112,None,618.1277054001112,None,618.1277054001112,None,618.1277054001112,None,618.8351702000946,None,618.8351702000946,619.3487577000633,,,,,,,,,,,,,,,,103,2023-03-28_17h00.13.213,FishGame,2022.1.1,59.99037758190652,
,19,나를 데려가줘,6,Green,B,0,0,ScrollDown,ScrollUp,Green.png,5,NonTarget,NonTarget,0,0,0,0,,,,,,,,,,,,,,,,,,,,,,,,,,,,,0,18,18,18,,,,,,,,,,,,,,,,,,,,,,,,,,,,,,,,,,,,,,,,,,,,,,,,,,,,,,,,,,,,,,,,,,,,,1.1095678955316544,0.9136393999215215,619.9724127000663,None,ScrollDown,정답입니다,619.9724127000663,None,619.9724127000663,None,619.9724127000663,None,619.9724127000663,None,620.7820618001278,None,620.7820618001278,621.2821973001119,,,,,,,,,,,,,,,,103,2023-03-28_17h00.13.213,FishGame,2022.1.1,59.99037758190652,
,20,넌 몰인정해,5,Green,B,2.541666666666667,2.066666666666667,ScrollUp,ScrollDown,Green.png,5,Negative,Congruent,0,0,0,0,,,,,,,,,,,,,,,,,,,,,,,,,,,,,0,19,19,19,,,,,,,,,,,,,,,,,,,,,,,,,,,,,,,,,,,,,,,,,,,,,,,,,,,,,,,,,,,,,,,,,,,,,1.9012345770994823,0.8318052999675274,621.9131484001409,None,ScrollUp,정답입니다,621.9131484001409,None,621.9131484001409,None,621.9131484001409,None,621.9131484001409,None,622.6350662000477,None,622.6350662000477,623.1350799000356,,,,,,,,,,,,,,,,103,2023-03-28_17h00.13.213,FishGame,2022.1.1,59.99037758190652,
,21,나를 데려가줘,6,Green,B,0,0,ScrollDown,ScrollUp,Green.png,5,NonTarget,NonTarget,0,0,0,0,,,,,,,,,,,,,,,,,,,,,,,,,,,,,0,20,20,20,,,,,,,,,,,,,,,,,,,,,,,,,,,,,,,,,,,,,,,,,,,,,,,,,,,,,,,,,,,,,,,,,,,,,1.0493827263514202,0.8462581001222134,623.7617156000342,None,ScrollDown,정답입니다,623.7617156000342,None,623.7617156000342,None,623.7617156000342,None,623.7617156000342,None,624.4993322000373,None,624.4993322000373,625.0059279000852,,,,,,,,,,,,,,,,103,2023-03-28_17h00.13.213,FishGame,2022.1.1,59.99037758190652,
,22,넌 순진해,3,Green,B,4.125,4.166666666666667,ScrollUp,ScrollDown,Green.png,5,Neutral,Neutral,0,0,0,0,,,,,,,,,,,,,,,,,,,,,,,,,,,,,0,21,21,21,,,,,,,,,,,,,,,,,,,,,,,,,,,,,,,,,,,,,,,,,,,,,,,,,,,,,,,,,,,,,,,,,,,,,1.9151234527428944,0.8643358999397606,625.6278220000677,None,ScrollUp,정답입니다,625.6278220000677,None,625.6278220000677,None,625.6278220000677,None,625.6278220000677,None,626.3819798999466,None,626.3819798999466,626.8820976000279,,,,,,,,,,,,,,,,103,2023-03-28_17h00.13.213,FishGame,2022.1.1,59.99037758190652,
