name,TrialNum,Word,WordCategory,FishType,WordList,WordValence,WordReputation,CorrectResp,IncorrectResp,FishTypeFile,Round,WordType,Condition,LoopforOrange.thisRepN,LoopforOrange.thisTrialN,LoopforOrange.thisN,LoopforOrange.thisIndex,LoopForGreen.thisRepN,LoopForGreen.thisTrialN,LoopForGreen.thisN,LoopForGreen.thisIndex,GreenInstLoop.thisRepN,GreenInstLoop.thisTrialN,GreenInstLoop.thisN,GreenInstLoop.thisIndex,GreenPrac.thisRepN,GreenPrac.thisTrialN,GreenPrac.thisN,GreenPrac.thisIndex,trials_2.thisRepN,trials_2.thisTrialN,trials_2.thisN,trials_2.thisIndex,GreenRound1.thisRepN,GreenRound1.thisTrialN,GreenRound1.thisN,GreenRound1.thisIndex,GreenRound2.thisRepN,GreenRound2.thisTrialN,GreenRound2.thisN,GreenRound2.thisIndex,GreenRound3.thisRepN,GreenRound3.thisTrialN,GreenRound3.thisN,GreenRound3.thisIndex,GreenRound4.thisRepN,GreenRound4.thisTrialN,GreenRound4.thisN,GreenRound4.thisIndex,GreenRound5.thisRepN,GreenRound5.thisTrialN,GreenRound5.thisN,GreenRound5.thisIndex,text_2.started,text_2.stopped,text_3.started,text_3.stopped,key_resp.keys,key_resp.rt,key_resp.started,key_resp.stopped,PassI.started,PassI.stopped,PassInst.keys,PassInst.rt,PassInst.started,PassInst.stopped,mouse_2.x,mouse_2.y,mouse_2.leftButton,mouse_2.midButton,mouse_2.rightButton,mouse_2.started,mouse_2.stopped,image.started,image.stopped,text_5.started,text_5.stopped,text_6.started,text_6.stopped,text_7.started,text_7.stopped,text_8.started,text_8.stopped,slider_3.response,slider_3.rt,slider_3.started,slider_3.stopped,Response_3,Feedback_3,BackGround_3.started,BackGround_3.stopped,Fish_3.started,Fish_3.stopped,WordBox_3.started,WordBox_3.stopped,Words_3.started,Words_3.stopped,BackGround_Feedback_3.started,BackGround_Feedback_3.stopped,Feedbacks_3.started,Feedbacks_3.stopped,Continue_or_not_2.keys,Continue_or_not_2.rt,Continue_or_not_2.started,Continue_or_not_2.stopped,image_4.started,image_4.stopped,mouse_3.x,mouse_3.y,mouse_3.leftButton,mouse_3.midButton,mouse_3.rightButton,mouse_3.started,mouse_3.stopped,startmain.started,startmain.stopped,slider_4.response,slider_4.rt,slider_4.started,slider_4.stopped,Response_4,Feedback_4,BackGround_4.started,BackGround_4.stopped,Fish_4.started,Fish_4.stopped,WordBox_4.started,WordBox_4.stopped,Words_4.started,Words_4.stopped,BackGround_Feedback_4.started,BackGround_Feedback_4.stopped,Feedbacks_4.started,Feedbacks_4.stopped,text.started,text.stopped,break_interval.started,break_interval.stopped,mouse.x,mouse.y,mouse.leftButton,mouse.midButton,mouse.rightButton,mouse.started,mouse.stopped,stratnextround.started,stratnextround.stopped,endgame.started,endgame.stopped,participant,date,expName,psychopyVersion,frameRate,
,,,,,,,,,,,,,,,,,,,,,,,,,,,,,,,,,,,,,,,,,,,,,,,,,,,,,,22.319102899869904,None,22.319102899869904,None,space,6.44938540016301,22.804814899805933,None,,,,,,,,,,,,,,,,,,,,,,,,,,,,,,,,,,,,,,,,,,,,,,,,,,,,,,,,,,,,,,,,,,,,,,,,,,,,,,,,,,,,,,,,,,104,2023-03-29_13h52.57.438,FishGame,2022.1.1,59.99498440904964,
물고기과제_instruction(참가자용)GreenVersion.mp4,,,,,,,,,,,,,,,,,,0,0,0,0,0,0,0,0,,,,,,,,,,,,,,,,,,,,,,,,,,,,,,,,,,,,,100.70037949993275,None,n,2.6738700000569224,100.70037949993275,None,,,,,,,,,,,,,,,,,,,,,,,,,,,,,,,,,,,,,,,,,,,,,,,,,,,,,,,,,,,,,,,,,,,,,,,,,,,,,,,,,,,,104,2023-03-29_13h52.57.438,FishGame,2022.1.1,59.99498440904964,
,1,넌 교활해,5,Orange,B,2.333333333333333,2.133333333333333,ScrollUp,ScrollDown,Orange.png,practice,,,,,,,0,0,0,0,,,,,0,0,0,0,0,0,0,0,,,,,,,,,,,,,,,,,,,,,,,,,,,,,,,,,,,0.036111113,-0.22962964,1,0,0,0.519021799787879,None,103.40037359995767,None,118.5663929998409,120.06641789991409,120.09989439998753,121.05289619998075,121.1029305998236,122.05289509985596,122.05289509985596,None,2,2.088364299852401,123.34843180002645,None,ScrollUp,정답입니다,123.34843180002645,None,123.34843180002645,None,123.34843180002645,None,123.34843180002645,None,125.13322429987602,None,125.13322429987602,125.63585469988175,,,,,,,,,,,,,,,,,,,,,,,,,,,,,,,,,,,,,,,,,,,,,,,,,104,2023-03-29_13h52.57.438,FishGame,2022.1.1,59.99498440904964,
,2,넌 슬기로워,2,Green,A,6.166666666666667,4.1,ScrollDown,ScrollUp,Green.png,practice,,,,,,,0,0,0,0,,,,,0,0,0,0,0,1,1,1,,,,,,,,,,,,,,,,,,,,,,,,,,,,,,,,,,,,,,,,,,,,,,,,,,,,1.1496913582086563,0.9118360001593828,126.25872539984994,None,ScrollDown,정답입니다,126.25872539984994,None,126.25872539984994,None,126.25872539984994,None,126.25872539984994,None,127.06651239981875,None,127.06651239981875,127.56918059987947,,,,,,,,,,,,,,,,,,,,,,,,,,,,,,,,,,,,,,,,,,,,,,,,,104,2023-03-29_13h52.57.438,FishGame,2022.1.1,59.99498440904964,
,3,나를 보내줘,6,Green,A,0,0,ScrollUp,ScrollDown,Green.png,practice,,,,,,,0,0,0,0,,,,,0,0,0,0,0,2,2,2,,,,,,,,,,,,,,,,,,,,,,,,,,,,,,,,,,,,,,,,,,,,,,,,,,,,1,0.8287778999656439,128.19280379987322,None,ScrollDown,오답입니다,128.19280379987322,None,128.19280379987322,None,128.19280379987322,None,128.19280379987322,None,128.91648839996196,None,128.91648839996196,129.42368659982458,,,,,,,,,,,,,,,,,,,,,,,,,,,,,,,,,,,,,,,,,,,,,,,,,104,2023-03-29_13h52.57.438,FishGame,2022.1.1,59.99498440904964,
,4,나를 데려가줘,6,Orange,B,0,0,ScrollDown,ScrollUp,Orange.png,practice,,,,,,,0,0,0,0,,,,,0,0,0,0,0,3,3,3,,,,,,,,,,,,,,,,,,,,,,,,,,,,,,,,,,,,,,,,,,,,,,,,,,,,1,1.2311980000231415,130.04210179997608,None,ScrollDown,정답입니다,130.04210179997608,None,130.04210179997608,None,130.04210179997608,None,130.04210179997608,None,131.16615069983527,None,131.16615069983527,131.6661729000043,,,,,,,,,,,,,,,,,,,,,,,,,,,,,,,,,,,,,,,,,,,,,,,,,104,2023-03-29_13h52.57.438,FishGame,2022.1.1,59.99498440904964,
,1,넌 교활해,5,Orange,B,2.333333333333333,2.133333333333333,ScrollUp,ScrollDown,Orange.png,practice,,,,,,,0,0,0,0,,,,,0,0,0,0,,,,,,,,,,,,,,,,,,,,,,,,,,,,,,,,,,,,,,,,,,,,,,,,,,,,,,,,,,,,,,,,,,,,,,,,,,n,4.800979200052097,132.16919719986618,None,132.16919719986618,None,,,,,,,,,,,,,,,,,,,,,,,,,,,,,,,,,,,,,,,,,,,104,2023-03-29_13h52.57.438,FishGame,2022.1.1,59.99498440904964,
,1,넌 따뜻해,1,Orange,B,6.083333333333333,5.6,ScrollUp,ScrollDown,Orange.png,1,Positive,Incongruent,,,,,0,0,0,0,,,,,,,,,,,,,0,0,0,0,,,,,,,,,,,,,,,,,,,,,,,,,,,,,,,,,,,,,,,,148.0157910999842,149.51575789996423,149.54907680000179,150.50230970000848,150.55232479982078,151.50228199991398,151.50228199991398,None,,,,,,,,,,,,,,,,,,,,,,,,,0.08796296,-0.08148148,1,0,0,0.3157276001293212,None,136.9993497999385,None,2,1.3897823002189398,152.82071849983186,None,ScrollUp,정답입니다,152.82071849983186,None,152.82071849983186,None,152.82071849983186,None,152.82071849983186,None,153.8992831998039,None,153.8992831998039,154.39944759989157,,,,,,,,,,,,,,,,104,2023-03-29_13h52.57.438,FishGame,2022.1.1,59.99498440904964,
,2,넌 기품있어,2,Orange,B,5.791666666666668,4.5,ScrollUp,ScrollDown,Orange.png,1,Positive,Incongruent,,,,,0,0,0,0,,,,,,,,,,,,,0,1,1,1,,,,,,,,,,,,,,,,,,,,,,,,,,,,,,,,,,,,,,,,,,,,,,,,,,,,,,,,,,,,,,,,,,,,,,,,,,,,,,,,,1.9922839502493541,1.1455192000139505,155.03605329990387,None,ScrollUp,정답입니다,155.03605329990387,None,155.03605329990387,None,155.03605329990387,None,155.03605329990387,None,156.06855449988507,None,156.06855449988507,156.56858780002221,,,,,,,,,,,,,,,,104,2023-03-29_13h52.57.438,FishGame,2022.1.1,59.99498440904964,
,3,나를 보내줘,6,Green,A,0,0,ScrollUp,ScrollDown,Green.png,1,NonTarget,NonTarget,,,,,0,0,0,0,,,,,,,,,,,,,0,2,2,2,,,,,,,,,,,,,,,,,,,,,,,,,,,,,,,,,,,,,,,,,,,,,,,,,,,,,,,,,,,,,,,,,,,,,,,,,,,,,,,,,1.9645061492919922,1.162592900218442,157.19758049980737,None,ScrollUp,정답입니다,157.19758049980737,None,157.19758049980737,None,157.19758049980737,None,157.19758049980737,None,158.25193829997443,None,158.25193829997443,158.76856859982945,,,,,,,,,,,,,,,,104,2023-03-29_13h52.57.438,FishGame,2022.1.1,59.99498440904964,
,4,넌 수동적이야,4,Green,A,2.833333333333333,2.933333333333333,ScrollDown,ScrollUp,Green.png,1,Negative,Incongruent,,,,,0,0,0,0,,,,,,,,,,,,,0,3,3,3,,,,,,,,,,,,,,,,,,,,,,,,,,,,,,,,,,,,,,,,,,,,,,,,,,,,,,,,,,,,,,,,,,,,,,,,,,,,,,,,,1.0447530845801036,1.2288573998957872,159.38235869980417,None,ScrollDown,정답입니다,159.38235869980417,None,159.38235869980417,None,159.38235869980417,None,159.38235869980417,None,160.49887979985215,None,160.49887979985215,160.9988549000118,,,,,,,,,,,,,,,,104,2023-03-29_13h52.57.438,FishGame,2022.1.1,59.99498440904964,
,5,넌 사심이 없어,3,Orange,B,4.916666666666666,4.333333333333333,ScrollUp,ScrollDown,Orange.png,1,Neutral,Neutral,,,,,0,0,0,0,,,,,,,,,,,,,0,4,4,4,,,,,,,,,,,,,,,,,,,,,,,,,,,,,,,,,,,,,,,,,,,,,,,,,,,,,,,,,,,,,,,,,,,,,,,,,,,,,,,,,1.9614197711149852,1.0647754999808967,161.63138909987174,None,ScrollUp,정답입니다,161.63138909987174,None,161.63138909987174,None,161.63138909987174,None,161.63138909987174,None,162.585178299807,None,162.585178299807,163.0852220999077,,,,,,,,,,,,,,,,104,2023-03-29_13h52.57.438,FishGame,2022.1.1,59.99498440904964,
,6,넌 헤퍼,5,Green,A,2.458333333333334,2.233333333333333,ScrollDown,ScrollUp,Green.png,1,Negative,Incongruent,,,,,0,0,0,0,,,,,,,,,,,,,0,5,5,5,,,,,,,,,,,,,,,,,,,,,,,,,,,,,,,,,,,,,,,,,,,,,,,,,,,,,,,,,,,,,,,,,,,,,,,,,,,,,,,,,1,1.1958693000487983,163.71074649994262,None,ScrollDown,정답입니다,163.71074649994262,None,163.71074649994262,None,163.71074649994262,None,163.71074649994262,None,164.7991441998165,None,164.7991441998165,165.30611579981633,,,,,,,,,,,,,,,,104,2023-03-29_13h52.57.438,FishGame,2022.1.1,59.99498440904964,
,7,넌 말쑥해,3,Green,A,4.833333333333334,4.333333333333333,ScrollDown,ScrollUp,Green.png,1,Neutral,Neutral,,,,,0,0,0,0,,,,,,,,,,,,,0,6,6,6,,,,,,,,,,,,,,,,,,,,,,,,,,,,,,,,,,,,,,,,,,,,,,,,,,,,,,,,,,,,,,,,,,,,,,,,,,,,,,,,,1.0432098706563313,0.9630360999144614,165.92665769997984,None,ScrollDown,정답입니다,165.92665769997984,None,165.92665769997984,None,165.92665769997984,None,165.92665769997984,None,166.78207780001685,None,166.78207780001685,167.28216549986973,,,,,,,,,,,,,,,,104,2023-03-29_13h52.57.438,FishGame,2022.1.1,59.99498440904964,
,8,넌 투덜거려,5,Orange,B,2.541666666666667,2.266666666666667,ScrollUp,ScrollDown,Orange.png,1,Negative,Congruent,,,,,0,0,0,0,,,,,,,,,,,,,0,7,7,7,,,,,,,,,,,,,,,,,,,,,,,,,,,,,,,,,,,,,,,,,,,,,,,,,,,,,,,,,,,,,,,,,,,,,,,,,,,,,,,,,2,1.1986455998849124,167.92262999992818,None,ScrollUp,정답입니다,167.92262999992818,None,167.92262999992818,None,167.92262999992818,None,167.92262999992818,None,169.00170489982702,None,169.00170489982702,169.50170609983616,,,,,,,,,,,,,,,,104,2023-03-29_13h52.57.438,FishGame,2022.1.1,59.99498440904964,
,9,넌 적극적이야,1,Green,A,5.708333333333333,5.533333333333333,ScrollDown,ScrollUp,Green.png,1,Positive,Congruent,,,,,0,0,0,0,,,,,,,,,,,,,0,8,8,8,,,,,,,,,,,,,,,,,,,,,,,,,,,,,,,,,,,,,,,,,,,,,,,,,,,,,,,,,,,,,,,,,,,,,,,,,,,,,,,,,1.0354938507080078,1.1121159999165684,170.12734139990062,None,ScrollDown,정답입니다,170.12734139990062,None,170.12734139990062,None,170.12734139990062,None,170.12734139990062,None,171.13498229999095,None,171.13498229999095,171.6486888998188,,,,,,,,,,,,,,,,104,2023-03-29_13h52.57.438,FishGame,2022.1.1,59.99498440904964,
,10,넌 재미없어,4,Orange,B,2.625,2.966666666666667,ScrollUp,ScrollDown,Orange.png,1,Negative,Congruent,,,,,0,0,0,0,,,,,,,,,,,,,0,9,9,9,,,,,,,,,,,,,,,,,,,,,,,,,,,,,,,,,,,,,,,,,,,,,,,,,,,,,,,,,,,,,,,,,,,,,,,,,,,,,,,,,2,1.0151200001128018,172.27498969994485,None,ScrollUp,정답입니다,172.27498969994485,None,172.27498969994485,None,172.27498969994485,None,172.27498969994485,None,173.18192330002785,None,173.18192330002785,173.68197539984249,,,,,,,,,,,,,,,,104,2023-03-29_13h52.57.438,FishGame,2022.1.1,59.99498440904964,
,11,넌 명석해,2,Green,A,5.875,4.033333333333333,ScrollDown,ScrollUp,Green.png,1,Positive,Congruent,,,,,0,0,0,0,,,,,,,,,,,,,0,10,10,10,,,,,,,,,,,,,,,,,,,,,,,,,,,,,,,,,,,,,,,,,,,,,,,,,,,,,,,,,,,,,,,,,,,,,,,,,,,,,,,,,1.141975313425064,1.162417900050059,174.31152939982712,None,ScrollDown,정답입니다,174.31152939982712,None,174.31152939982712,None,174.31152939982712,None,174.31152939982712,None,175.36826989986002,None,175.36826989986002,175.86824679980054,,,,,,,,,,,,,,,,104,2023-03-29_13h52.57.438,FishGame,2022.1.1,59.99498440904964,
,12,나를 데려가줘,6,Orange,B,0,0,ScrollDown,ScrollUp,Orange.png,1,NonTarget,NonTarget,,,,,0,0,0,0,,,,,,,,,,,,,0,11,11,11,,,,,,,,,,,,,,,,,,,,,,,,,,,,,,,,,,,,,,,,,,,,,,,,,,,,,,,,,,,,,,,,,,,,,,,,,,,,,,,,,1.0972222338120143,1.2289066999219358,176.49686879990622,None,ScrollDown,정답입니다,176.49686879990622,None,176.49686879990622,None,176.49686879990622,None,176.49686879990622,None,177.61821480002254,None,177.61821480002254,178.1181449999567,,,,,,,,,,,,,,,,104,2023-03-29_13h52.57.438,FishGame,2022.1.1,59.99498440904964,
,13,넌 소심해,4,Green,A,3,3.1,ScrollDown,ScrollUp,Green.png,1,Negative,Incongruent,,,,,0,0,0,0,,,,,,,,,,,,,0,12,12,12,,,,,,,,,,,,,,,,,,,,,,,,,,,,,,,,,,,,,,,,,,,,,,,,,,,,,,,,,,,,,,,,,,,,,,,,,,,,,,,,,1.1141975373029709,1.1576533000916243,178.7532126000151,None,ScrollDown,정답입니다,178.7532126000151,None,178.7532126000151,None,178.7532126000151,None,178.7532126000151,None,179.7984688000288,None,179.7984688000288,180.29848649981432,,,,,,,,,,,,,,,,104,2023-03-29_13h52.57.438,FishGame,2022.1.1,59.99498440904964,
,14,넌 합리적이야,2,Green,A,5.583333333333333,4.733333333333333,ScrollDown,ScrollUp,Green.png,1,Positive,Congruent,,,,,0,0,0,0,,,,,,,,,,,,,0,13,13,13,,,,,,,,,,,,,,,,,,,,,,,,,,,,,,,,,,,,,,,,,,,,,,,,,,,,,,,,,,,,,,,,,,,,,,,,,,,,,,,,,1.126543199022611,0.9677995000965893,180.9312144999858,None,ScrollDown,정답입니다,180.9312144999858,None,180.9312144999858,None,180.9312144999858,None,180.9312144999858,None,181.78493079985492,None,181.78493079985492,182.28480239980854,,,,,,,,,,,,,,,,104,2023-03-29_13h52.57.438,FishGame,2022.1.1,59.99498440904964,
,15,넌 무자비해,5,Orange,B,2.333333333333333,2.1,ScrollUp,ScrollDown,Orange.png,1,Negative,Congruent,,,,,0,0,0,0,,,,,,,,,,,,,0,14,14,14,,,,,,,,,,,,,,,,,,,,,,,,,,,,,,,,,,,,,,,,,,,,,,,,,,,,,,,,,,,,,,,,,,,,,,,,,,,,,,,,,1.8873456766208012,1.0291279000230134,182.91472559981048,None,ScrollUp,정답입니다,182.91472559981048,None,182.91472559981048,None,182.91472559981048,None,182.91472559981048,None,183.83487379993312,None,183.83487379993312,184.33473069989122,,,,,,,,,,,,,,,,104,2023-03-29_13h52.57.438,FishGame,2022.1.1,59.99498440904964,
,16,나를 보내줘,6,Green,A,0,0,ScrollUp,ScrollDown,Green.png,1,NonTarget,NonTarget,,,,,0,0,0,0,,,,,,,,,,,,,0,15,15,15,,,,,,,,,,,,,,,,,,,,,,,,,,,,,,,,,,,,,,,,,,,,,,,,,,,,,,,,,,,,,,,,,,,,,,,,,,,,,,,,,1.873456800977389,0.898625300033018,184.96799929998815,None,ScrollUp,정답입니다,184.96799929998815,None,184.96799929998815,None,184.96799929998815,None,184.96799929998815,None,185.76502799987793,None,185.76502799987793,186.26586019992828,,,,,,,,,,,,,,,,104,2023-03-29_13h52.57.438,FishGame,2022.1.1,59.99498440904964,
,17,넌 현실적이야,3,Orange,B,4.608695652173913,4.766666666666667,ScrollUp,ScrollDown,Orange.png,1,Neutral,Neutral,,,,,0,0,0,0,,,,,,,,,,,,,0,16,16,16,,,,,,,,,,,,,,,,,,,,,,,,,,,,,,,,,,,,,,,,,,,,,,,,,,,,,,,,,,,,,,,,,,,,,,,,,,,,,,,,,1.8425925970077515,1.215218700002879,186.89619729993865,None,ScrollUp,정답입니다,186.89619729993865,None,186.89619729993865,None,186.89619729993865,None,186.89619729993865,None,188.00127119990066,None,188.00127119990066,188.50132239982486,,,,,,,,,,,,,,,,104,2023-03-29_13h52.57.438,FishGame,2022.1.1,59.99498440904964,
,18,넌 의리있어,1,Orange,B,5.833333333333334,5.633333333333334,ScrollUp,ScrollDown,Orange.png,1,Positive,Incongruent,,,,,0,0,0,0,,,,,,,,,,,,,0,17,17,17,,,,,,,,,,,,,,,,,,,,,,,,,,,,,,,,,,,,,,,,,,,,,,,,,,,,,,,,,,,,,,,,,,,,,,,,,,,,,,,,,2,1.0123970001004636,189.12883269996382,None,ScrollUp,정답입니다,189.12883269996382,None,189.12883269996382,None,189.12883269996382,None,189.12883269996382,None,190.03458759980276,None,190.03458759980276,190.5345957998652,,,,,,,,,,,,,,,,104,2023-03-29_13h52.57.438,FishGame,2022.1.1,59.99498440904964,
,19,넌 신경과민이야,5,Green,A,2.541666666666667,2.166666666666667,ScrollDown,ScrollUp,Green.png,1,Negative,Incongruent,,,,,0,0,0,0,,,,,,,,,,,,,0,18,18,18,,,,,,,,,,,,,,,,,,,,,,,,,,,,,,,,,,,,,,,,,,,,,,,,,,,,,,,,,,,,,,,,,,,,,,,,,,,,,,,,,1.0462962985038757,0.9486338999122381,191.17470169998705,None,ScrollDown,정답입니다,191.17470169998705,None,191.17470169998705,None,191.17470169998705,None,191.17470169998705,None,192.01484509999864,None,192.01484509999864,192.5150893998798,,,,,,,,,,,,,,,,104,2023-03-29_13h52.57.438,FishGame,2022.1.1,59.99498440904964,
,20,넌 편안해,1,Green,A,5.916666666666666,5.866666666666666,ScrollDown,ScrollUp,Green.png,1,Positive,Congruent,,,,,0,0,0,0,,,,,,,,,,,,,0,19,19,19,,,,,,,,,,,,,,,,,,,,,,,,,,,,,,,,,,,,,,,,,,,,,,,,,,,,,,,,,,,,,,,,,,,,,,,,,,,,,,,,,1,0.80120879993774,193.14090349990875,None,ScrollDown,정답입니다,193.14090349990875,None,193.14090349990875,None,193.14090349990875,None,193.14090349990875,None,193.83189609996043,None,193.83189609996043,194.33455749996938,,,,,,,,,,,,,,,,104,2023-03-29_13h52.57.438,FishGame,2022.1.1,59.99498440904964,
,21,넌 품위있어,2,Orange,B,5.291666666666666,4.466666666666667,ScrollUp,ScrollDown,Orange.png,1,Positive,Incongruent,,,,,0,0,0,0,,,,,,,,,,,,,0,20,20,20,,,,,,,,,,,,,,,,,,,,,,,,,,,,,,,,,,,,,,,,,,,,,,,,,,,,,,,,,,,,,,,,,,,,,,,,,,,,,,,,,1.9521604875723522,0.9954188999254256,194.96223960001953,None,ScrollUp,정답입니다,194.96223960001953,None,194.96223960001953,None,194.96223960001953,None,194.96223960001953,None,195.84847730002366,None,195.84847730002366,196.35113670001738,,,,,,,,,,,,,,,,104,2023-03-29_13h52.57.438,FishGame,2022.1.1,59.99498440904964,
,22,넌 빈틈없어,3,Green,A,4.833333333333333,3.966666666666667,ScrollDown,ScrollUp,Green.png,1,Neutral,Neutral,,,,,0,0,0,0,,,,,,,,,,,,,0,21,21,21,,,,,,,,,,,,,,,,,,,,,,,,,,,,,,,,,,,,,,,,,,,,,,,,,,,,,,,,,,,,,,,,,,,,,,,,,,,,,,,,,1,0.981498199980706,196.97243899991736,None,ScrollDown,정답입니다,196.97243899991736,None,196.97243899991736,None,196.97243899991736,None,196.97243899991736,None,197.84809409989975,None,197.84809409989975,198.34849240002222,,,,,,,,,,,,,,,,104,2023-03-29_13h52.57.438,FishGame,2022.1.1,59.99498440904964,
,23,넌 상상력없어,4,Orange,B,2.833333333333333,3.133333333333333,ScrollUp,ScrollDown,Orange.png,1,Negative,Congruent,,,,,0,0,0,0,,,,,,,,,,,,,0,22,22,22,,,,,,,,,,,,,,,,,,,,,,,,,,,,,,,,,,,,,,,,,,,,,,,,,,,,,,,,,,,,,,,,,,,,,,,,,,,,,,,,,2,0.9982529999688268,198.9774615999777,None,ScrollUp,정답입니다,198.9774615999777,None,198.9774615999777,None,198.9774615999777,None,198.9774615999777,None,199.86774079990573,None,199.86774079990573,200.36774529982358,,,,,,,,,,,,,,,,104,2023-03-29_13h52.57.438,FishGame,2022.1.1,59.99498440904964,
,24,넌 지혜로워,2,Orange,B,6.333333333333334,4.633333333333334,ScrollUp,ScrollDown,Orange.png,1,Positive,Incongruent,,,,,0,0,0,0,,,,,,,,,,,,,0,23,23,23,,,,,,,,,,,,,,,,,,,,,,,,,,,,,,,,,,,,,,,,,,,,,,,,,,,,,,,,,,,,,,,,,,,,,,,,,,,,,,,,,2,0.9289033999666572,200.99795759981498,None,ScrollUp,정답입니다,200.99795759981498,None,200.99795759981498,None,200.99795759981498,None,200.99795759981498,None,201.8150194999762,None,201.8150194999762,202.31771129998378,,,,,,,,,,,,,,,,104,2023-03-29_13h52.57.438,FishGame,2022.1.1,59.99498440904964,
,25,넌 시끄러워,4,Green,A,2.833333333333333,3.033333333333333,ScrollDown,ScrollUp,Green.png,1,Negative,Incongruent,,,,,0,0,0,0,,,,,,,,,,,,,0,24,24,24,,,,,,,,,,,,,,,,,,,,,,,,,,,,,,,,,,,,,,,,,,,,,,,,,,,,,,,,,,,,,,,,,,,,,,,,,,,,,,,,,1.0864197611808777,1.1077519000973552,202.9501622999087,None,ScrollDown,정답입니다,202.9501622999087,None,202.9501622999087,None,202.9501622999087,None,202.9501622999087,None,203.9510156000033,None,203.9510156000033,204.4509254998993,,,,,,,,,,,,,,,,104,2023-03-29_13h52.57.438,FishGame,2022.1.1,59.99498440904964,
,26,넌 만사태평이야,3,Orange,B,4,4.333333333333333,ScrollUp,ScrollDown,Orange.png,1,Neutral,Neutral,,,,,0,0,0,0,,,,,,,,,,,,,0,25,25,25,,,,,,,,,,,,,,,,,,,,,,,,,,,,,,,,,,,,,,,,,,,,,,,,,,,,,,,,,,,,,,,,,,,,,,,,,,,,,,,,,2,0.9125123000703752,205.0812148998957,None,ScrollUp,정답입니다,205.0812148998957,None,205.0812148998957,None,205.0812148998957,None,205.0812148998957,None,205.88426869991235,None,205.88426869991235,206.3842025999911,,,,,,,,,,,,,,,,104,2023-03-29_13h52.57.438,FishGame,2022.1.1,59.99498440904964,
,27,넌 붙임성있어,1,Green,A,5.708333333333333,5.633333333333334,ScrollDown,ScrollUp,Green.png,1,Positive,Congruent,,,,,0,0,0,0,,,,,,,,,,,,,0,26,26,26,,,,,,,,,,,,,,,,,,,,,,,,,,,,,,,,,,,,,,,,,,,,,,,,,,,,,,,,,,,,,,,,,,,,,,,,,,,,,,,,,1,0.9122973999474198,207.01177759980783,None,ScrollDown,정답입니다,207.01177759980783,None,207.01177759980783,None,207.01177759980783,None,207.01177759980783,None,207.8149166998919,None,207.8149166998919,208.31485740002245,,,,,,,,,,,,,,,,104,2023-03-29_13h52.57.438,FishGame,2022.1.1,59.99498440904964,
,28,넌 영리해,2,Green,A,6,4.033333333333333,ScrollDown,ScrollUp,Green.png,1,Positive,Congruent,,,,,0,0,0,0,,,,,,,,,,,,,0,27,27,27,,,,,,,,,,,,,,,,,,,,,,,,,,,,,,,,,,,,,,,,,,,,,,,,,,,,,,,,,,,,,,,,,,,,,,,,,,,,,,,,,1.1049382785956066,0.8121948000043631,208.94697509985417,None,ScrollDown,정답입니다,208.94697509985417,None,208.94697509985417,None,208.94697509985417,None,208.94697509985417,None,209.64787229988724,None,209.64787229988724,210.1478281999007,,,,,,,,,,,,,,,,104,2023-03-29_13h52.57.438,FishGame,2022.1.1,59.99498440904964,
,29,넌 열심이야,1,Orange,B,6.041666666666667,5.833333333333333,ScrollUp,ScrollDown,Orange.png,1,Positive,Incongruent,,,,,0,0,0,0,,,,,,,,,,,,,0,28,28,28,,,,,,,,,,,,,,,,,,,,,,,,,,,,,,,,,,,,,,,,,,,,,,,,,,,,,,,,,,,,,,,,,,,,,,,,,,,,,,,,,1.9629629850387573,1.6315411999821663,210.7735835998319,None,ScrollUp,정답입니다,210.7735835998319,None,210.7735835998319,None,210.7735835998319,None,210.7735835998319,None,212.29784559994005,None,212.29784559994005,212.800918799825,,,,,,,,,,,,,,,,104,2023-03-29_13h52.57.438,FishGame,2022.1.1,59.99498440904964,
,30,넌 인기없어,4,Orange,B,3,3.3,ScrollUp,ScrollDown,Orange.png,1,Negative,Congruent,,,,,0,0,0,0,,,,,,,,,,,,,0,29,29,29,,,,,,,,,,,,,,,,,,,,,,,,,,,,,,,,,,,,,,,,,,,,,,,,,,,,,,,,,,,,,,,,,,,,,,,,,,,,,,,,,1.9691357910633087,0.8818857001606375,213.42877019988373,None,ScrollUp,정답입니다,213.42877019988373,None,213.42877019988373,None,213.42877019988373,None,213.42877019988373,None,214.2008318998851,None,214.2008318998851,214.70082129980437,,,,,,,,,,,,,,,,104,2023-03-29_13h52.57.438,FishGame,2022.1.1,59.99498440904964,
,31,넌 익살스러워,3,Green,A,4.708333333333334,4.833333333333333,ScrollDown,ScrollUp,Green.png,1,Neutral,Neutral,,,,,0,0,0,0,,,,,,,,,,,,,0,30,30,30,,,,,,,,,,,,,,,,,,,,,,,,,,,,,,,,,,,,,,,,,,,,,,,,,,,,,,,,,,,,,,,,,,,,,,,,,,,,,,,,,1.0108024775981903,0.9110482002142817,215.32843220001087,None,ScrollDown,정답입니다,215.32843220001087,None,215.32843220001087,None,215.32843220001087,None,215.32843220001087,None,216.12814949988388,None,216.12814949988388,216.63118639984168,,,,,,,,,,,,,,,,104,2023-03-29_13h52.57.438,FishGame,2022.1.1,59.99498440904964,
,32,넌 이기적이야,5,Orange,B,2.291666666666667,2.333333333333333,ScrollUp,ScrollDown,Orange.png,1,Negative,Congruent,,,,,0,0,0,0,,,,,,,,,,,,,0,31,31,31,,,,,,,,,,,,,,,,,,,,,,,,,,,,,,,,,,,,,,,,,,,,,,,,,,,,,,,,,,,,,,,,,,,,,,,,,,,,,,,,,2,1.1127841998822987,217.26192629989237,None,ScrollUp,정답입니다,217.26192629989237,None,217.26192629989237,None,217.26192629989237,None,217.26192629989237,None,218.26442949986085,None,218.26442949986085,218.76434719981626,,,,,,,,,,,,,,,,104,2023-03-29_13h52.57.438,FishGame,2022.1.1,59.99498440904964,
,33,나를 데려가줘,6,Orange,B,0,0,ScrollDown,ScrollUp,Orange.png,1,NonTarget,NonTarget,,,,,0,0,0,0,,,,,,,,,,,,,0,32,32,32,,,,,,,,,,,,,,,,,,,,,,,,,,,,,,,,,,,,,,,,,,,,,,,,,,,,,,,,,,,,,,,,,,,,,,,,,,,,,,,,,1,1.2153586999047548,219.39214359992184,None,ScrollDown,정답입니다,219.39214359992184,None,219.39214359992184,None,219.39214359992184,None,219.39214359992184,None,220.50070819980465,None,220.50070819980465,221.00076429988258,,,,,,,,,,,,,,,,104,2023-03-29_13h52.57.438,FishGame,2022.1.1,59.99498440904964,
,34,넌 기회주의자야,5,Green,A,2.875,2.133333333333333,ScrollDown,ScrollUp,Green.png,1,Negative,Incongruent,,,,,0,0,0,0,,,,,,,,,,,,,0,33,33,33,,,,,,,,,,,,,,,,,,,,,,,,,,,,,,,,,,,,,,,,,,,,,,,,,,,,,,,,,,,,,,,,,,,,,,,,,,,,,,,,,1,0.9820994001347572,221.62740649981424,None,ScrollDown,정답입니다,221.62740649981424,None,221.62740649981424,None,221.62740649981424,None,221.62740649981424,None,222.49792360002175,None,222.49792360002175,223.00061819981784,,,,,,,,,,,,,,,,104,2023-03-29_13h52.57.438,FishGame,2022.1.1,59.99498440904964,
,1,넌 미성숙해,4,Green,A,3,3.2,ScrollDown,ScrollUp,Green.png,2,Negative,Incongruent,,,,,0,0,0,0,,,,,,,,,,,,,,,,,0,0,0,0,,,,,,,,,,,,,,,,,,,,,,,,,,,,,,,,,,,,259.7801407999359,261.28008709987625,261.31465139985085,262.26663179998286,262.31664570001885,263.26665689982474,263.26665689982474,None,,,,,,,,,,,,,,,,,,,,,,,,,,,,,,,,,,1,1.2016493000555784,264.3874513998162,None,ScrollDown,정답입니다,264.3874513998162,None,264.3874513998162,None,264.3874513998162,None,264.3874513998162,None,265.48296969989315,None,265.48296969989315,265.9829572997987,223.4975580999162,None,223.4975580999162,None,0.25648147,-0.10277778,1,0,0,0.016616699984297156,None,253.5043022998143,None,,,104,2023-03-29_13h52.57.438,FishGame,2022.1.1,59.99498440904964,
,2,넌 반사회적이야,5,Orange,B,2.416666666666667,2.033333333333333,ScrollUp,ScrollDown,Orange.png,2,Negative,Congruent,,,,,0,0,0,0,,,,,,,,,,,,,,,,,0,1,1,1,,,,,,,,,,,,,,,,,,,,,,,,,,,,,,,,,,,,,,,,,,,,,,,,,,,,,,,,,,,,,,,,,,,,,,,,,,,,,2,1.0787622998468578,266.61090680002235,None,ScrollUp,정답입니다,266.61090680002235,None,266.61090680002235,None,266.61090680002235,None,266.61090680002235,None,267.5830965999048,None,267.5830965999048,268.08296949998476,,,,,,,,,,,,,,,,104,2023-03-29_13h52.57.438,FishGame,2022.1.1,59.99498440904964,
,3,넌 유능해,2,Green,A,6.208333333333333,4.433333333333334,ScrollDown,ScrollUp,Green.png,2,Positive,Congruent,,,,,0,0,0,0,,,,,,,,,,,,,,,,,0,2,2,2,,,,,,,,,,,,,,,,,,,,,,,,,,,,,,,,,,,,,,,,,,,,,,,,,,,,,,,,,,,,,,,,,,,,,,,,,,,,,1.1867283930381138,0.8625189999584109,268.71116059995256,None,ScrollDown,정답입니다,268.71116059995256,None,268.71116059995256,None,268.71116059995256,None,268.71116059995256,None,269.4663229000289,None,269.4663229000289,269.966268699849,,,,,,,,,,,,,,,,104,2023-03-29_13h52.57.438,FishGame,2022.1.1,59.99498440904964,
,4,넌 능숙해,2,Orange,B,5.666666666666667,4.733333333333333,ScrollUp,ScrollDown,Orange.png,2,Positive,Incongruent,,,,,0,0,0,0,,,,,,,,,,,,,,,,,0,3,3,3,,,,,,,,,,,,,,,,,,,,,,,,,,,,,,,,,,,,,,,,,,,,,,,,,,,,,,,,,,,,,,,,,,,,,,,,,,,,,2,1.0316977999173105,270.60266450000927,None,ScrollUp,정답입니다,270.60266450000927,None,270.60266450000927,None,270.60266450000927,None,270.60266450000927,None,271.5299207000062,None,271.5299207000062,272.0299146999605,,,,,,,,,,,,,,,,104,2023-03-29_13h52.57.438,FishGame,2022.1.1,59.99498440904964,
,5,넌 진부해,4,Orange,B,2.458333333333333,3.166666666666667,ScrollUp,ScrollDown,Orange.png,2,Negative,Congruent,,,,,0,0,0,0,,,,,,,,,,,,,,,,,0,4,4,4,,,,,,,,,,,,,,,,,,,,,,,,,,,,,,,,,,,,,,,,,,,,,,,,,,,,,,,,,,,,,,,,,,,,,,,,,,,,,2,0.951611400116235,272.6576902999077,None,ScrollUp,정답입니다,272.6576902999077,None,272.6576902999077,None,272.6576902999077,None,272.6576902999077,None,273.49690419994295,None,273.49690419994295,273.9995489998255,,,,,,,,,,,,,,,,104,2023-03-29_13h52.57.438,FishGame,2022.1.1,59.99498440904964,
,6,나를 보내줘,6,Green,A,0,0,ScrollUp,ScrollDown,Green.png,2,NonTarget,NonTarget,,,,,0,0,0,0,,,,,,,,,,,,,,,,,0,5,5,5,,,,,,,,,,,,,,,,,,,,,,,,,,,,,,,,,,,,,,,,,,,,,,,,,,,,,,,,,,,,,,,,,,,,,,,,,,,,,1.8657407313585281,0.9984252001158893,274.6218864999246,None,ScrollUp,정답입니다,274.6218864999246,None,274.6218864999246,None,274.6218864999246,None,274.6218864999246,None,275.5162366000004,None,275.5162366000004,276.01617049984634,,,,,,,,,,,,,,,,104,2023-03-29_13h52.57.438,FishGame,2022.1.1,59.99498440904964,
,7,넌 엄격해,3,Green,A,4.166666666666666,4.1,ScrollDown,ScrollUp,Green.png,2,Neutral,Neutral,,,,,0,0,0,0,,,,,,,,,,,,,,,,,0,6,6,6,,,,,,,,,,,,,,,,,,,,,,,,,,,,,,,,,,,,,,,,,,,,,,,,,,,,,,,,,,,,,,,,,,,,,,,,,,,,,1.0308642089366913,0.9649409998673946,276.65317199984565,None,ScrollDown,정답입니다,276.65317199984565,None,276.65317199984565,None,276.65317199984565,None,276.65317199984565,None,277.5131170998793,None,277.5131170998793,278.0130878998898,,,,,,,,,,,,,,,,104,2023-03-29_13h52.57.438,FishGame,2022.1.1,59.99498440904964,
,8,나를 보내줘,6,Green,A,0,0,ScrollUp,ScrollDown,Green.png,2,NonTarget,NonTarget,,,,,0,0,0,0,,,,,,,,,,,,,,,,,0,7,7,7,,,,,,,,,,,,,,,,,,,,,,,,,,,,,,,,,,,,,,,,,,,,,,,,,,,,,,,,,,,,,,,,,,,,,,,,,,,,,1.9305555423100789,0.9945204998366535,278.64424990001135,None,ScrollUp,정답입니다,278.64424990001135,None,278.64424990001135,None,278.64424990001135,None,278.64424990001135,None,279.53286819998175,None,279.53286819998175,280.0327951000072,,,,,,,,,,,,,,,,104,2023-03-29_13h52.57.438,FishGame,2022.1.1,59.99498440904964,
,9,넌 대담해,3,Orange,B,4.875,4.866666666666666,ScrollUp,ScrollDown,Orange.png,2,Neutral,Neutral,,,,,0,0,0,0,,,,,,,,,,,,,,,,,0,8,8,8,,,,,,,,,,,,,,,,,,,,,,,,,,,,,,,,,,,,,,,,,,,,,,,,,,,,,,,,,,,,,,,,,,,,,,,,,,,,,2,1.0986637000460178,280.6612394999247,None,ScrollUp,정답입니다,280.6612394999247,None,280.6612394999247,None,280.6612394999247,None,280.6612394999247,None,281.6494159998838,None,281.6494159998838,282.14937419979833,,,,,,,,,,,,,,,,104,2023-03-29_13h52.57.438,FishGame,2022.1.1,59.99498440904964,
,10,넌 꾸준해,1,Green,A,5.916666666666668,5.8,ScrollDown,ScrollUp,Green.png,2,Positive,Congruent,,,,,0,0,0,0,,,,,,,,,,,,,,,,,0,9,9,9,,,,,,,,,,,,,,,,,,,,,,,,,,,,,,,,,,,,,,,,,,,,,,,,,,,,,,,,,,,,,,,,,,,,,,,,,,,,,1.1589506169160206,0.8956907999236137,282.77539479988627,None,ScrollDown,정답입니다,282.77539479988627,None,282.77539479988627,None,282.77539479988627,None,282.77539479988627,None,283.565923999995,None,283.565923999995,284.08260779990815,,,,,,,,,,,,,,,,104,2023-03-29_13h52.57.438,FishGame,2022.1.1,59.99498440904964,
,11,나를 데려가줘,6,Orange,B,0,0,ScrollDown,ScrollUp,Orange.png,2,NonTarget,NonTarget,,,,,0,0,0,0,,,,,,,,,,,,,,,,,0,10,10,10,,,,,,,,,,,,,,,,,,,,,,,,,,,,,,,,,,,,,,,,,,,,,,,,,,,,,,,,,,,,,,,,,,,,,,,,,,,,,1.1095678955316544,1.0457528999540955,284.69113229983486,None,ScrollDown,정답입니다,284.69113229983486,None,284.69113229983486,None,284.69113229983486,None,284.69113229983486,None,285.62988050002605,None,285.62988050002605,286.132533099968,,,,,,,,,,,,,,,,104,2023-03-29_13h52.57.438,FishGame,2022.1.1,59.99498440904964,
,12,넌 독선적이야,5,Green,A,2.458333333333333,1.933333333333333,ScrollDown,ScrollUp,Green.png,2,Negative,Incongruent,,,,,0,0,0,0,,,,,,,,,,,,,,,,,0,11,11,11,,,,,,,,,,,,,,,,,,,,,,,,,,,,,,,,,,,,,,,,,,,,,,,,,,,,,,,,,,,,,,,,,,,,,,,,,,,,,1.1296296268701553,0.9960458998102695,286.76078379992396,None,ScrollDown,정답입니다,286.76078379992396,None,286.76078379992396,None,286.76078379992396,None,286.76078379992396,None,287.64650539983995,None,287.64650539983995,288.1491686999798,,,,,,,,,,,,,,,,104,2023-03-29_13h52.57.438,FishGame,2022.1.1,59.99498440904964,
,13,나를 보내줘,6,Green,A,0,0,ScrollUp,ScrollDown,Green.png,2,NonTarget,NonTarget,,,,,0,0,0,0,,,,,,,,,,,,,,,,,0,12,12,12,,,,,,,,,,,,,,,,,,,,,,,,,,,,,,,,,,,,,,,,,,,,,,,,,,,,,,,,,,,,,,,,,,,,,,,,,,,,,1.9027777661879857,0.945211100159213,288.78165269992314,None,ScrollUp,정답입니다,288.78165269992314,None,288.78165269992314,None,288.78165269992314,None,288.78165269992314,None,289.6159162998665,None,289.6159162998665,290.11582849989645,,,,,,,,,,,,,,,,104,2023-03-29_13h52.57.438,FishGame,2022.1.1,59.99498440904964,
,14,넌 책임감있어,1,Orange,B,6.347826086956522,6,ScrollUp,ScrollDown,Orange.png,2,Positive,Incongruent,,,,,0,0,0,0,,,,,,,,,,,,,,,,,0,13,13,13,,,,,,,,,,,,,,,,,,,,,,,,,,,,,,,,,,,,,,,,,,,,,,,,,,,,,,,,,,,,,,,,,,,,,,,,,,,,,1.9182098805904388,1.1120541000273079,290.7471562998835,None,ScrollUp,정답입니다,290.7471562998835,None,290.7471562998835,None,290.7471562998835,None,290.7471562998835,None,291.7461225998122,None,291.7461225998122,292.2461213998031,,,,,,,,,,,,,,,,104,2023-03-29_13h52.57.438,FishGame,2022.1.1,59.99498440904964,
,15,넌 문학적이야,3,Green,A,4.708333333333334,4.333333333333333,ScrollDown,ScrollUp,Green.png,2,Neutral,Neutral,,,,,0,0,0,0,,,,,,,,,,,,,,,,,0,14,14,14,,,,,,,,,,,,,,,,,,,,,,,,,,,,,,,,,,,,,,,,,,,,,,,,,,,,,,,,,,,,,,,,,,,,,,,,,,,,,1.141975313425064,0.9488800999242812,292.87318119988777,None,ScrollDown,정답입니다,292.87318119988777,None,292.87318119988777,None,292.87318119988777,None,292.87318119988777,None,293.71594759984873,None,293.71594759984873,294.21579779987223,,,,,,,,,,,,,,,,104,2023-03-29_13h52.57.438,FishGame,2022.1.1,59.99498440904964,
,16,넌 재미있어,1,Orange,B,5.875,5.7,ScrollUp,ScrollDown,Orange.png,2,Positive,Incongruent,,,,,0,0,0,0,,,,,,,,,,,,,,,,,0,15,15,15,,,,,,,,,,,,,,,,,,,,,,,,,,,,,,,,,,,,,,,,,,,,,,,,,,,,,,,,,,,,,,,,,,,,,,,,,,,,,1.9799382885297139,0.9486219000536948,294.84102589986287,None,ScrollUp,정답입니다,294.84102589986287,None,294.84102589986287,None,294.84102589986287,None,294.84102589986287,None,295.6797839999199,None,295.6797839999199,296.1824487999547,,,,,,,,,,,,,,,,104,2023-03-29_13h52.57.438,FishGame,2022.1.1,59.99498440904964,
,17,나를 데려가줘,6,Orange,B,0,0,ScrollDown,ScrollUp,Orange.png,2,NonTarget,NonTarget,,,,,0,0,0,0,,,,,,,,,,,,,,,,,0,16,16,16,,,,,,,,,,,,,,,,,,,,,,,,,,,,,,,,,,,,,,,,,,,,,,,,,,,,,,,,,,,,,,,,,,,,,,,,,,,,,1.0478395124276478,1.0288766000885516,296.80814519990236,None,ScrollDown,정답입니다,296.80814519990236,None,296.80814519990236,None,296.80814519990236,None,296.80814519990236,None,297.7293632000219,None,297.7293632000219,298.2293310998939,,,,,,,,,,,,,,,,104,2023-03-29_13h52.57.438,FishGame,2022.1.1,59.99498440904964,
,18,넌 협력적이야,1,Green,A,5.625,5.633333333333334,ScrollDown,ScrollUp,Green.png,2,Positive,Congruent,,,,,0,0,0,0,,,,,,,,,,,,,,,,,0,17,17,17,,,,,,,,,,,,,,,,,,,,,,,,,,,,,,,,,,,,,,,,,,,,,,,,,,,,,,,,,,,,,,,,,,,,,,,,,,,,,1.0262345671653748,0.9963308998849243,298.8593844999559,None,ScrollDown,정답입니다,298.8593844999559,None,298.8593844999559,None,298.8593844999559,None,298.8593844999559,None,299.74600999988616,None,299.74600999988616,300.24904099991545,,,,,,,,,,,,,,,,104,2023-03-29_13h52.57.438,FishGame,2022.1.1,59.99498440904964,
,19,넌 평범해,3,Orange,B,4.333333333333332,4.233333333333333,ScrollUp,ScrollDown,Orange.png,2,Neutral,Neutral,,,,,0,0,0,0,,,,,,,,,,,,,,,,,0,18,18,18,,,,,,,,,,,,,,,,,,,,,,,,,,,,,,,,,,,,,,,,,,,,,,,,,,,,,,,,,,,,,,,,,,,,,,,,,,,,,2,0.9153597000986338,300.87631129985675,None,ScrollUp,정답입니다,300.87631129985675,None,300.87631129985675,None,300.87631129985675,None,300.87631129985675,None,301.67966719996184,None,301.67966719996184,302.1822718998883,,,,,,,,,,,,,,,,104,2023-03-29_13h52.57.438,FishGame,2022.1.1,59.99498440904964,
,20,넌 오만해,5,Green,A,2.333333333333333,2,ScrollDown,ScrollUp,Green.png,2,Negative,Incongruent,,,,,0,0,0,0,,,,,,,,,,,,,,,,,0,19,19,19,,,,,,,,,,,,,,,,,,,,,,,,,,,,,,,,,,,,,,,,,,,,,,,,,,,,,,,,,,,,,,,,,,,,,,,,,,,,,1,0.9625019000377506,302.8119049000088,None,ScrollDown,정답입니다,302.8119049000088,None,302.8119049000088,None,302.8119049000088,None,302.8119049000088,None,303.6656574998051,None,303.6656574998051,304.16549359983765,,,,,,,,,,,,,,,,104,2023-03-29_13h52.57.438,FishGame,2022.1.1,59.99498440904964,
,21,넌 운이없어,4,Orange,B,3,3.466666666666667,ScrollUp,ScrollDown,Orange.png,2,Negative,Congruent,,,,,0,0,0,0,,,,,,,,,,,,,,,,,0,20,20,20,,,,,,,,,,,,,,,,,,,,,,,,,,,,,,,,,,,,,,,,,,,,,,,,,,,,,,,,,,,,,,,,,,,,,,,,,,,,,1.8919753183921177,0.862381299957633,304.7944892998785,None,ScrollUp,정답입니다,304.7944892998785,None,304.7944892998785,None,304.7944892998785,None,304.7944892998785,None,305.5487307999283,None,305.5487307999283,306.0487895999104,,,,,,,,,,,,,,,,104,2023-03-29_13h52.57.438,FishGame,2022.1.1,59.99498440904964,
,22,넌 창조적이야,2,Orange,B,6.125,4.633333333333334,ScrollUp,ScrollDown,Orange.png,2,Positive,Incongruent,,,,,0,0,0,0,,,,,,,,,,,,,,,,,0,21,21,21,,,,,,,,,,,,,,,,,,,,,,,,,,,,,,,,,,,,,,,,,,,,,,,,,,,,,,,,,,,,,,,,,,,,,,,,,,,,,2,0.9623827000614256,306.6776383998804,None,ScrollUp,정답입니다,306.6776383998804,None,306.6776383998804,None,306.6776383998804,None,306.6776383998804,None,307.5321890998166,None,307.5321890998166,308.0321217998862,,,,,,,,,,,,,,,,104,2023-03-29_13h52.57.438,FishGame,2022.1.1,59.99498440904964,
,23,나를 보내줘,6,Green,A,0,0,ScrollUp,ScrollDown,Green.png,2,NonTarget,NonTarget,,,,,0,0,0,0,,,,,,,,,,,,,,,,,0,22,22,22,,,,,,,,,,,,,,,,,,,,,,,,,,,,,,,,,,,,,,,,,,,,,,,,,,,,,,,,,,,,,,,,,,,,,,,,,,,,,1.9567901293436687,0.9624101999215782,308.654255699832,None,ScrollUp,정답입니다,308.654255699832,None,308.654255699832,None,308.654255699832,None,308.654255699832,None,309.5127863998059,None,309.5127863998059,310.0154370998498,,,,,,,,,,,,,,,,104,2023-03-29_13h52.57.438,FishGame,2022.1.1,59.99498440904964,
,24,넌 통찰력있어,2,Green,A,6.5,4.8,ScrollDown,ScrollUp,Green.png,2,Positive,Congruent,,,,,0,0,0,0,,,,,,,,,,,,,,,,,0,23,23,23,,,,,,,,,,,,,,,,,,,,,,,,,,,,,,,,,,,,,,,,,,,,,,,,,,,,,,,,,,,,,,,,,,,,,,,,,,,,,1.0972222338120143,0.907825700007379,310.6438629999757,None,ScrollDown,정답입니다,310.6438629999757,None,310.6438629999757,None,310.6438629999757,None,310.6438629999757,None,311.4457137999125,None,311.4457137999125,311.9457234998699,,,,,,,,,,,,,,,,104,2023-03-29_13h52.57.438,FishGame,2022.1.1,59.99498440904964,
,25,넌 경솔해,5,Orange,B,2.458333333333333,2.266666666666667,ScrollUp,ScrollDown,Orange.png,2,Negative,Congruent,,,,,0,0,0,0,,,,,,,,,,,,,,,,,0,24,24,24,,,,,,,,,,,,,,,,,,,,,,,,,,,,,,,,,,,,,,,,,,,,,,,,,,,,,,,,,,,,,,,,,,,,,,,,,,,,,2,0.9821218999568373,312.57258319994435,None,ScrollUp,정답입니다,312.57258319994435,None,312.57258319994435,None,312.57258319994435,None,312.57258319994435,None,313.4487741999328,None,313.4487741999328,313.94881420000456,,,,,,,,,,,,,,,,104,2023-03-29_13h52.57.438,FishGame,2022.1.1,59.99498440904964,
,26,넌 초조해,4,Green,A,2.916666666666667,3.133333333333333,ScrollDown,ScrollUp,Green.png,2,Negative,Incongruent,,,,,0,0,0,0,,,,,,,,,,,,,,,,,0,25,25,25,,,,,,,,,,,,,,,,,,,,,,,,,,,,,,,,,,,,,,,,,,,,,,,,,,,,,,,,,,,,,,,,,,,,,,,,,,,,,1.1111111094554265,0.9457219000905752,314.57658589980565,None,ScrollDown,정답입니다,314.57658589980565,None,314.57658589980565,None,314.57658589980565,None,314.57658589980565,None,315.4153854998294,None,315.4153854998294,315.915350999916,,,,,,,,,,,,,,,,104,2023-03-29_13h52.57.438,FishGame,2022.1.1,59.99498440904964,
,27,넌 무관심해,4,Orange,B,2.833333333333333,2.9,ScrollUp,ScrollDown,Orange.png,2,Negative,Congruent,,,,,0,0,0,0,,,,,,,,,,,,,,,,,0,26,26,26,,,,,,,,,,,,,,,,,,,,,,,,,,,,,,,,,,,,,,,,,,,,,,,,,,,,,,,,,,,,,,,,,,,,,,,,,,,,,2,0.979815199971199,316.55913379997946,None,ScrollUp,정답입니다,316.55913379997946,None,316.55913379997946,None,316.55913379997946,None,316.55913379997946,None,317.428959999932,None,317.428959999932,317.9289275999181,,,,,,,,,,,,,,,,104,2023-03-29_13h52.57.438,FishGame,2022.1.1,59.99498440904964,
,28,넌 감성적이야,3,Orange,B,4.125,4.166666666666667,ScrollUp,ScrollDown,Orange.png,2,Neutral,Neutral,,,,,0,0,0,0,,,,,,,,,,,,,,,,,0,27,27,27,,,,,,,,,,,,,,,,,,,,,,,,,,,,,,,,,,,,,,,,,,,,,,,,,,,,,,,,,,,,,,,,,,,,,,,,,,,,,2,0.8983030000235885,318.561204199912,None,ScrollUp,정답입니다,318.561204199912,None,318.561204199912,None,318.561204199912,None,318.561204199912,None,319.34867719979957,None,319.34867719979957,319.8486281000078,,,,,,,,,,,,,,,,104,2023-03-29_13h52.57.438,FishGame,2022.1.1,59.99498440904964,
,29,넌 배려심있어,1,Green,A,6.083333333333333,5.5,ScrollDown,ScrollUp,Green.png,2,Positive,Congruent,,,,,0,0,0,0,,,,,,,,,,,,,,,,,0,28,28,28,,,,,,,,,,,,,,,,,,,,,,,,,,,,,,,,,,,,,,,,,,,,,,,,,,,,,,,,,,,,,,,,,,,,,,,,,,,,,1,0.9744720999151468,320.48444209992886,None,ScrollDown,정답입니다,320.48444209992886,None,320.48444209992886,None,320.48444209992886,None,320.48444209992886,None,321.3458966999315,None,321.3458966999315,321.8485612999648,,,,,,,,,,,,,,,,104,2023-03-29_13h52.57.438,FishGame,2022.1.1,59.99498440904964,
,30,넌 숨김없어,3,Green,A,4.5,4.933333333333334,ScrollDown,ScrollUp,Green.png,2,Neutral,Neutral,,,,,0,0,0,0,,,,,,,,,,,,,,,,,0,29,29,29,,,,,,,,,,,,,,,,,,,,,,,,,,,,,,,,,,,,,,,,,,,,,,,,,,,,,,,,,,,,,,,,,,,,,,,,,,,,,1,0.8411828000098467,322.4803372998722,None,ScrollDown,정답입니다,322.4803372998722,None,322.4803372998722,None,322.4803372998722,None,322.4803372998722,None,323.2124180998653,None,323.2124180998653,323.7151073999703,,,,,,,,,,,,,,,,104,2023-03-29_13h52.57.438,FishGame,2022.1.1,59.99498440904964,
,31,넌 훌륭해,2,Orange,B,5.916666666666667,4.033333333333333,ScrollUp,ScrollDown,Orange.png,2,Positive,Incongruent,,,,,0,0,0,0,,,,,,,,,,,,,,,,,0,30,30,30,,,,,,,,,,,,,,,,,,,,,,,,,,,,,,,,,,,,,,,,,,,,,,,,,,,,,,,,,,,,,,,,,,,,,,,,,,,,,2,0.91223039990291,324.3434247998521,None,ScrollUp,정답입니다,324.3434247998521,None,324.3434247998521,None,324.3434247998521,None,324.3434247998521,None,325.14845879981294,None,325.14845879981294,325.64841169980355,,,,,,,,,,,,,,,,104,2023-03-29_13h52.57.438,FishGame,2022.1.1,59.99498440904964,
,32,넌 슬기로워,2,Green,A,6.166666666666667,4.1,ScrollDown,ScrollUp,Green.png,2,Positive,Congruent,,,,,0,0,0,0,,,,,,,,,,,,,,,,,0,31,31,31,,,,,,,,,,,,,,,,,,,,,,,,,,,,,,,,,,,,,,,,,,,,,,,,,,,,,,,,,,,,,,,,,,,,,,,,,,,,,1.0246913532416027,0.8954957001842558,326.27345929993317,None,ScrollDown,정답입니다,326.27345929993317,None,326.27345929993317,None,326.27345929993317,None,326.27345929993317,None,327.0623790998943,None,327.0623790998943,327.5650478999596,,,,,,,,,,,,,,,,104,2023-03-29_13h52.57.438,FishGame,2022.1.1,59.99498440904964,
,33,넌 냉혹해,5,Green,A,2.583333333333333,2.1,ScrollDown,ScrollUp,Green.png,2,Negative,Incongruent,,,,,0,0,0,0,,,,,,,,,,,,,,,,,0,32,32,32,,,,,,,,,,,,,,,,,,,,,,,,,,,,,,,,,,,,,,,,,,,,,,,,,,,,,,,,,,,,,,,,,,,,,,,,,,,,,1.0200617114702861,0.8953792999964207,328.1911547998898,None,ScrollDown,정답입니다,328.1911547998898,None,328.1911547998898,None,328.1911547998898,None,328.1911547998898,None,328.9786751999054,None,328.9786751999054,329.47870199987665,,,,,,,,,,,,,,,,104,2023-03-29_13h52.57.438,FishGame,2022.1.1,59.99498440904964,
,34,나를 데려가줘,6,Orange,B,0,0,ScrollDown,ScrollUp,Orange.png,2,NonTarget,NonTarget,,,,,0,0,0,0,,,,,,,,,,,,,,,,,0,33,33,33,,,,,,,,,,,,,,,,,,,,,,,,,,,,,,,,,,,,,,,,,,,,,,,,,,,,,,,,,,,,,,,,,,,,,,,,,,,,,1.095679019888242,1.0158174999523908,330.101675799815,None,ScrollDown,정답입니다,330.101675799815,None,330.101675799815,None,330.101675799815,None,330.101675799815,None,331.01204719999805,None,331.01204719999805,331.51509909983724,,,,,,,,,,,,,,,,104,2023-03-29_13h52.57.438,FishGame,2022.1.1,59.99498440904964,
,35,넌 편파적이야,5,Orange,B,2.125,2,ScrollUp,ScrollDown,Orange.png,2,Negative,Congruent,,,,,0,0,0,0,,,,,,,,,,,,,,,,,0,34,34,34,,,,,,,,,,,,,,,,,,,,,,,,,,,,,,,,,,,,,,,,,,,,,,,,,,,,,,,,,,,,,,,,,,,,,,,,,,,,,2,0.9956948000472039,332.1426580999978,None,ScrollUp,정답입니다,332.1426580999978,None,332.1426580999978,None,332.1426580999978,None,332.1426580999978,None,333.031661399873,None,333.031661399873,333.53166639991105,,,,,,,,,,,,,,,,104,2023-03-29_13h52.57.438,FishGame,2022.1.1,59.99498440904964,
,36,넌 슬퍼,4,Green,A,2.583333333333333,3.066666666666667,ScrollDown,ScrollUp,Green.png,2,Negative,Incongruent,,,,,0,0,0,0,,,,,,,,,,,,,,,,,0,35,35,35,,,,,,,,,,,,,,,,,,,,,,,,,,,,,,,,,,,,,,,,,,,,,,,,,,,,,,,,,,,,,,,,,,,,,,,,,,,,,1.1188271542390187,0.8624671001452953,334.1539139999077,None,ScrollDown,정답입니다,334.1539139999077,None,334.1539139999077,None,334.1539139999077,None,334.1539139999077,None,334.91220209980384,None,334.91220209980384,335.4149149998557,,,,,,,,,,,,,,,,104,2023-03-29_13h52.57.438,FishGame,2022.1.1,59.99498440904964,
,37,나를 데려가줘,6,Orange,B,0,0,ScrollDown,ScrollUp,Orange.png,2,NonTarget,NonTarget,,,,,0,0,0,0,,,,,,,,,,,,,,,,,0,36,36,36,,,,,,,,,,,,,,,,,,,,,,,,,,,,,,,,,,,,,,,,,,,,,,,,,,,,,,,,,,,,,,,,,,,,,,,,,,,,,1.115740751226743,0.8967181001789868,336.0394327000249,None,ScrollDown,정답입니다,336.0394327000249,None,336.0394327000249,None,336.0394327000249,None,336.0394327000249,None,336.82888049981557,None,336.82888049981557,337.3314720999915,,,,,,,,,,,,,,,,104,2023-03-29_13h52.57.438,FishGame,2022.1.1,59.99498440904964,
,38,넌 친절해,1,Orange,B,6.041666666666667,5.533333333333333,ScrollUp,ScrollDown,Orange.png,2,Positive,Incongruent,,,,,0,0,0,0,,,,,,,,,,,,,,,,,0,37,37,37,,,,,,,,,,,,,,,,,,,,,,,,,,,,,,,,,,,,,,,,,,,,,,,,,,,,,,,,,,,,,,,,,,,,,,,,,,,,,1.9182098805904388,0.9456662000156939,337.9600755998399,None,ScrollUp,정답입니다,337.9600755998399,None,337.9600755998399,None,337.9600755998399,None,337.9600755998399,None,338.79815529985353,None,338.79815529985353,339.2981413998641,,,,,,,,,,,,,,,,104,2023-03-29_13h52.57.438,FishGame,2022.1.1,59.99498440904964,
,1,넌 엉성해,4,Green,A,3,3.3,ScrollDown,ScrollUp,Green.png,3,Negative,Incongruent,,,,,0,0,0,0,,,,,,,,,,,,,,,,,,,,,0,0,0,0,,,,,,,,,,,,,,,,,,,,,,,,,,,,,,,,371.714382099919,373.21420399984345,373.2475935998373,374.21418439992703,374.2475323998369,375.1975095998496,375.1975095998496,None,,,,,,,,,,,,,,,,,,,,,,,,,,,,,,,,,,1,1.1317046999465674,376.32130740000866,None,ScrollDown,정답입니다,376.32130740000866,None,376.32130740000866,None,376.32130740000866,None,376.32130740000866,None,377.3446516999975,None,377.3446516999975,377.8473270998802,339.7981566998642,None,339.7981566998642,None,0.26481482,-0.06944445,1,0,0,0.01645399979315698,None,369.7975563998334,None,,,104,2023-03-29_13h52.57.438,FishGame,2022.1.1,59.99498440904964,
,2,나를 보내줘,6,Green,A,0,0,ScrollUp,ScrollDown,Green.png,3,NonTarget,NonTarget,,,,,0,0,0,0,,,,,,,,,,,,,,,,,,,,,0,1,1,1,,,,,,,,,,,,,,,,,,,,,,,,,,,,,,,,,,,,,,,,,,,,,,,,,,,,,,,,,,,,,,,,,,,,,,,,,1.9861110945542653,0.9453958000522107,378.46977439988405,None,ScrollUp,정답입니다,378.46977439988405,None,378.46977439988405,None,378.46977439988405,None,378.46977439988405,None,379.3113023999613,None,379.3113023999613,379.81395459990017,,,,,,,,,,,,,,,,104,2023-03-29_13h52.57.438,FishGame,2022.1.1,59.99498440904964,
,3,넌 활발해,1,Orange,B,5.666666666666667,5.6,ScrollUp,ScrollDown,Orange.png,3,Positive,Incongruent,,,,,0,0,0,0,,,,,,,,,,,,,,,,,,,,,0,2,2,2,,,,,,,,,,,,,,,,,,,,,,,,,,,,,,,,,,,,,,,,,,,,,,,,,,,,,,,,,,,,,,,,,,,,,,,,,2,0.8955936999991536,380.44323989981785,None,ScrollUp,정답입니다,380.44323989981785,None,380.44323989981785,None,380.44323989981785,None,380.44323989981785,None,381.22763809980825,None,381.22763809980825,381.7276087999344,,,,,,,,,,,,,,,,104,2023-03-29_13h52.57.438,FishGame,2022.1.1,59.99498440904964,
,4,넌 논리적이야,2,Green,A,5.666666666666666,4.633333333333334,ScrollDown,ScrollUp,Green.png,3,Positive,Congruent,,,,,0,0,0,0,,,,,,,,,,,,,,,,,,,,,0,3,3,3,,,,,,,,,,,,,,,,,,,,,,,,,,,,,,,,,,,,,,,,,,,,,,,,,,,,,,,,,,,,,,,,,,,,,,,,,1,1.0806253000628203,382.3550582998432,None,ScrollDown,정답입니다,382.3550582998432,None,382.3550582998432,None,382.3550582998432,None,382.3550582998432,None,383.32762110000476,None,383.32762110000476,383.83064999990165,,,,,,,,,,,,,,,,104,2023-03-29_13h52.57.438,FishGame,2022.1.1,59.99498440904964,
,5,넌 과묵해,3,Green,A,3.875,4.4,ScrollDown,ScrollUp,Green.png,3,Neutral,Neutral,,,,,0,0,0,0,,,,,,,,,,,,,,,,,,,,,0,4,4,4,,,,,,,,,,,,,,,,,,,,,,,,,,,,,,,,,,,,,,,,,,,,,,,,,,,,,,,,,,,,,,,,,,,,,,,,,1.0787036915620167,0.7957929999101907,384.4585686000064,None,ScrollDown,정답입니다,384.4585686000064,None,384.4585686000064,None,384.4585686000064,None,384.4585686000064,None,385.14724049996585,None,385.14724049996585,385.6472465998959,,,,,,,,,,,,,,,,104,2023-03-29_13h52.57.438,FishGame,2022.1.1,59.99498440904964,
,6,나를 데려가줘,6,Orange,B,0,0,ScrollDown,ScrollUp,Orange.png,3,NonTarget,NonTarget,,,,,0,0,0,0,,,,,,,,,,,,,,,,,,,,,0,5,5,5,,,,,,,,,,,,,,,,,,,,,,,,,,,,,,,,,,,,,,,,,,,,,,,,,,,,,,,,,,,,,,,,,,,,,,,,,1.0709876716136932,0.9289713001344353,386.2841306999326,None,ScrollDown,정답입니다,386.2841306999326,None,386.2841306999326,None,386.2841306999326,None,386.2841306999326,None,387.09718289994635,None,387.09718289994635,387.59712099982426,,,,,,,,,,,,,,,,104,2023-03-29_13h52.57.438,FishGame,2022.1.1,59.99498440904964,
,7,넌 미숙해,4,Orange,B,3,3,ScrollUp,ScrollDown,Orange.png,3,Negative,Congruent,,,,,0,0,0,0,,,,,,,,,,,,,,,,,,,,,0,6,6,6,,,,,,,,,,,,,,,,,,,,,,,,,,,,,,,,,,,,,,,,,,,,,,,,,,,,,,,,,,,,,,,,,,,,,,,,,1.8456790000200272,0.9461558999028057,388.2215852998197,None,ScrollUp,정답입니다,388.2215852998197,None,388.2215852998197,None,388.2215852998197,None,388.2215852998197,None,389.06385419983417,None,389.06385419983417,389.56375959981233,,,,,,,,,,,,,,,,104,2023-03-29_13h52.57.438,FishGame,2022.1.1,59.99498440904964,
,8,나를 보내줘,6,Green,A,0,0,ScrollUp,ScrollDown,Green.png,3,NonTarget,NonTarget,,,,,0,0,0,0,,,,,,,,,,,,,,,,,,,,,0,7,7,7,,,,,,,,,,,,,,,,,,,,,,,,,,,,,,,,,,,,,,,,,,,,,,,,,,,,,,,,,,,,,,,,,,,,,,,,,1.959876557191213,0.9621204000432044,390.1862111999653,None,ScrollUp,정답입니다,390.1862111999653,None,390.1862111999653,None,390.1862111999653,None,390.1862111999653,None,391.0440736999735,None,391.0440736999735,391.54407539987005,,,,,,,,,,,,,,,,104,2023-03-29_13h52.57.438,FishGame,2022.1.1,59.99498440904964,
,9,넌 자신만만해,3,Orange,B,4.833333333333334,4.333333333333333,ScrollUp,ScrollDown,Orange.png,3,Neutral,Neutral,,,,,0,0,0,0,,,,,,,,,,,,,,,,,,,,,0,8,8,8,,,,,,,,,,,,,,,,,,,,,,,,,,,,,,,,,,,,,,,,,,,,,,,,,,,,,,,,,,,,,,,,,,,,,,,,,1.7947530895471573,1.181523900013417,392.1822104000021,None,ScrollUp,정답입니다,392.1822104000021,None,392.1822104000021,None,392.1822104000021,None,392.1822104000021,None,393.24707979988307,None,393.24707979988307,393.7470666000154,,,,,,,,,,,,,,,,104,2023-03-29_13h52.57.438,FishGame,2022.1.1,59.99498440904964,
,10,넌 탐욕스러워,5,Green,A,2.25,2.1,ScrollDown,ScrollUp,Green.png,3,Negative,Incongruent,,,,,0,0,0,0,,,,,,,,,,,,,,,,,,,,,0,9,9,9,,,,,,,,,,,,,,,,,,,,,,,,,,,,,,,,,,,,,,,,,,,,,,,,,,,,,,,,,,,,,,,,,,,,,,,,,1.0817901194095612,0.9621153001207858,394.376553399954,None,ScrollDown,정답입니다,394.376553399954,None,394.376553399954,None,394.376553399954,None,394.376553399954,None,395.2304044999182,None,395.2304044999182,395.73038219986483,,,,,,,,,,,,,,,,104,2023-03-29_13h52.57.438,FishGame,2022.1.1,59.99498440904964,
,11,넌 인기있어,2,Green,A,5.458333333333333,4.5,ScrollDown,ScrollUp,Green.png,3,Positive,Congruent,,,,,0,0,0,0,,,,,,,,,,,,,,,,,,,,,0,10,10,10,,,,,,,,,,,,,,,,,,,,,,,,,,,,,,,,,,,,,,,,,,,,,,,,,,,,,,,,,,,,,,,,,,,,,,,,,1.0509259402751923,0.9122810000553727,396.3532042999286,None,ScrollDown,정답입니다,396.3532042999286,None,396.3532042999286,None,396.3532042999286,None,396.3532042999286,None,397.1608845000155,None,397.1608845000155,397.6635385998525,,,,,,,,,,,,,,,,104,2023-03-29_13h52.57.438,FishGame,2022.1.1,59.99498440904964,
,12,나를 데려가줘,6,Orange,B,0,0,ScrollDown,ScrollUp,Orange.png,3,NonTarget,NonTarget,,,,,0,0,0,0,,,,,,,,,,,,,,,,,,,,,0,11,11,11,,,,,,,,,,,,,,,,,,,,,,,,,,,,,,,,,,,,,,,,,,,,,,,,,,,,,,,,,,,,,,,,,,,,,,,,,1.0524691541989644,0.8625419999007136,398.2885496998206,None,ScrollDown,정답입니다,398.2885496998206,None,398.2885496998206,None,398.2885496998206,None,398.2885496998206,None,399.04420999996364,None,399.04420999996364,399.5468397999648,,,,,,,,,,,,,,,,104,2023-03-29_13h52.57.438,FishGame,2022.1.1,59.99498440904964,
,13,넌 뛰어나,2,Orange,B,6.166666666666667,4,ScrollUp,ScrollDown,Orange.png,3,Positive,Incongruent,,,,,0,0,0,0,,,,,,,,,,,,,,,,,,,,,0,12,12,12,,,,,,,,,,,,,,,,,,,,,,,,,,,,,,,,,,,,,,,,,,,,,,,,,,,,,,,,,,,,,,,,,,,,,,,,,1.9012345770994823,1.012673299992457,400.17365409992635,None,ScrollUp,정답입니다,400.17365409992635,None,400.17365409992635,None,400.17365409992635,None,400.17365409992635,None,401.08018319983967,None,401.08018319983967,401.58014400000684,,,,,,,,,,,,,,,,104,2023-03-29_13h52.57.438,FishGame,2022.1.1,59.99498440904964,
,14,넌 낙관적이야,1,Green,A,5.75,5.8,ScrollDown,ScrollUp,Green.png,3,Positive,Congruent,,,,,0,0,0,0,,,,,,,,,,,,,,,,,,,,,0,13,13,13,,,,,,,,,,,,,,,,,,,,,,,,,,,,,,,,,,,,,,,,,,,,,,,,,,,,,,,,,,,,,,,,,,,,,,,,,1.200617293516795,0.9623477000277489,402.20531699992716,None,ScrollDown,정답입니다,402.20531699992716,None,402.20531699992716,None,402.20531699992716,None,402.20531699992716,None,403.0635035999585,None,403.0635035999585,403.56355810002424,,,,,,,,,,,,,,,,104,2023-03-29_13h52.57.438,FishGame,2022.1.1,59.99498440904964,
,15,넌 산만해,4,Orange,B,2.695652173913043,3.033333333333333,ScrollUp,ScrollDown,Orange.png,3,Negative,Congruent,,,,,0,0,0,0,,,,,,,,,,,,,,,,,,,,,0,14,14,14,,,,,,,,,,,,,,,,,,,,,,,,,,,,,,,,,,,,,,,,,,,,,,,,,,,,,,,,,,,,,,,,,,,,,,,,,1.904320980111758,0.928905799984932,404.213350799866,None,ScrollUp,정답입니다,404.213350799866,None,404.213350799866,None,404.213350799866,None,404.213350799866,None,405.0271454998292,None,405.0271454998292,405.5272164000198,,,,,,,,,,,,,,,,104,2023-03-29_13h52.57.438,FishGame,2022.1.1,59.99498440904964,
,16,나를 보내줘,6,Green,A,0,0,ScrollUp,ScrollDown,Green.png,3,NonTarget,NonTarget,,,,,0,0,0,0,,,,,,,,,,,,,,,,,,,,,0,15,15,15,,,,,,,,,,,,,,,,,,,,,,,,,,,,,,,,,,,,,,,,,,,,,,,,,,,,,,,,,,,,,,,,,,,,,,,,,1.8101851791143417,0.8770246999338269,406.1558969998732,None,ScrollUp,정답입니다,406.1558969998732,None,406.1558969998732,None,406.1558969998732,None,406.1558969998732,None,406.9271529999096,None,406.9271529999096,407.43017089995556,,,,,,,,,,,,,,,,104,2023-03-29_13h52.57.438,FishGame,2022.1.1,59.99498440904964,
,17,넌 교활해,5,Orange,B,2.333333333333333,2.133333333333333,ScrollUp,ScrollDown,Orange.png,3,Negative,Congruent,,,,,0,0,0,0,,,,,,,,,,,,,,,,,,,,,0,16,16,16,,,,,,,,,,,,,,,,,,,,,,,,,,,,,,,,,,,,,,,,,,,,,,,,,,,,,,,,,,,,,,,,,,,,,,,,,1.9922839502493541,0.9956873999908566,408.0572319999337,None,ScrollUp,정답입니다,408.0572319999337,None,408.0572319999337,None,408.0572319999337,None,408.0572319999337,None,408.94679880002514,None,408.94679880002514,409.44672139990143,,,,,,,,,,,,,,,,104,2023-03-29_13h52.57.438,FishGame,2022.1.1,59.99498440904964,
,18,나를 보내줘,6,Green,A,0,0,ScrollUp,ScrollDown,Green.png,3,NonTarget,NonTarget,,,,,0,0,0,0,,,,,,,,,,,,,,,,,,,,,0,17,17,17,,,,,,,,,,,,,,,,,,,,,,,,,,,,,,,,,,,,,,,,,,,,,,,,,,,,,,,,,,,,,,,,,,,,,,,,,1.9212963084379833,1.1789424000307918,410.0696570998989,None,ScrollUp,정답입니다,410.0696570998989,None,410.0696570998989,None,410.0696570998989,None,410.0696570998989,None,411.1439231999684,None,411.1439231999684,411.64663430000655,,,,,,,,,,,,,,,,104,2023-03-29_13h52.57.438,FishGame,2022.1.1,59.99498440904964,
,19,넌 불친절해,5,Orange,B,2.208333333333333,2.033333333333333,ScrollUp,ScrollDown,Orange.png,3,Negative,Congruent,,,,,0,0,0,0,,,,,,,,,,,,,,,,,,,,,0,18,18,18,,,,,,,,,,,,,,,,,,,,,,,,,,,,,,,,,,,,,,,,,,,,,,,,,,,,,,,,,,,,,,,,,,,,,,,,,1.8410493830839794,1.0986139001324773,412.2718460999895,None,ScrollUp,정답입니다,412.2718460999895,None,412.2718460999895,None,412.2718460999895,None,412.2718460999895,None,413.2605422998313,None,413.2605422998313,413.76322929980233,,,,,,,,,,,,,,,,104,2023-03-29_13h52.57.438,FishGame,2022.1.1,59.99498440904964,
,20,넌 지적이야,2,Orange,B,5.75,4.366666666666666,ScrollUp,ScrollDown,Orange.png,3,Positive,Incongruent,,,,,0,0,0,0,,,,,,,,,,,,,,,,,,,,,0,19,19,19,,,,,,,,,,,,,,,,,,,,,,,,,,,,,,,,,,,,,,,,,,,,,,,,,,,,,,,,,,,,,,,,,,,,,,,,,1.6358024651805558,1.0626505999825895,414.3956100998912,None,ScrollUp,정답입니다,414.3956100998912,None,414.3956100998912,None,414.3956100998912,None,414.3956100998912,None,415.3465042000171,None,415.3465042000171,415.846571699949,,,,,,,,,,,,,,,,104,2023-03-29_13h52.57.438,FishGame,2022.1.1,59.99498440904964,
,21,넌 우유부단해,4,Green,A,2.666666666666667,3.166666666666667,ScrollDown,ScrollUp,Green.png,3,Negative,Incongruent,,,,,0,0,0,0,,,,,,,,,,,,,,,,,,,,,0,20,20,20,,,,,,,,,,,,,,,,,,,,,,,,,,,,,,,,,,,,,,,,,,,,,,,,,,,,,,,,,,,,,,,,,,,,,,,,,1.0046296219031017,0.9292798999231309,416.4894736998249,None,ScrollDown,정답입니다,416.4894736998249,None,416.4894736998249,None,416.4894736998249,None,416.4894736998249,None,417.31319969985634,None,417.31319969985634,417.8131905000191,,,,,,,,,,,,,,,,104,2023-03-29_13h52.57.438,FishGame,2022.1.1,59.99498440904964,
,22,나를 데려가줘,6,Orange,B,0,0,ScrollDown,ScrollUp,Orange.png,3,NonTarget,NonTarget,,,,,0,0,0,0,,,,,,,,,,,,,,,,,,,,,0,21,21,21,,,,,,,,,,,,,,,,,,,,,,,,,,,,,,,,,,,,,,,,,,,,,,,,,,,,,,,,,,,,,,,,,,,,,,,,,1,1.0964970998466015,418.4525350998156,None,ScrollDown,정답입니다,418.4525350998156,None,418.4525350998156,None,418.4525350998156,None,418.4525350998156,None,419.44347819988616,None,419.44347819988616,419.94353279983625,,,,,,,,,,,,,,,,104,2023-03-29_13h52.57.438,FishGame,2022.1.1,59.99498440904964,
,23,넌 성실해,1,Orange,B,6.041666666666666,5.7,ScrollUp,ScrollDown,Orange.png,3,Positive,Incongruent,,,,,0,0,0,0,,,,,,,,,,,,,,,,,,,,,0,22,22,22,,,,,,,,,,,,,,,,,,,,,,,,,,,,,,,,,,,,,,,,,,,,,,,,,,,,,,,,,,,,,,,,,,,,,,,,,1.9521604875723522,0.9515587000641972,420.5676485998556,None,ScrollUp,정답입니다,420.5676485998556,None,420.5676485998556,None,420.5676485998556,None,420.5676485998556,None,421.41329990001395,None,421.41329990001395,421.91316200001165,,,,,,,,,,,,,,,,104,2023-03-29_13h52.57.438,FishGame,2022.1.1,59.99498440904964,
,24,넌 현실주의적이야,3,Green,A,4.625,4.4,ScrollDown,ScrollUp,Green.png,3,Neutral,Neutral,,,,,0,0,0,0,,,,,,,,,,,,,,,,,,,,,0,23,23,23,,,,,,,,,,,,,,,,,,,,,,,,,,,,,,,,,,,,,,,,,,,,,,,,,,,,,,,,,,,,,,,,,,,,,,,,,1,1.3289316999725997,422.5361889998894,None,ScrollDown,정답입니다,422.5361889998894,None,422.5361889998894,None,422.5361889998894,None,422.5361889998894,None,423.76312239980325,None,423.76312239980325,424.26747989980504,,,,,,,,,,,,,,,,104,2023-03-29_13h52.57.438,FishGame,2022.1.1,59.99498440904964,
,25,넌 진실돼,1,Green,A,6.625,5.566666666666666,ScrollDown,ScrollUp,Green.png,3,Positive,Congruent,,,,,0,0,0,0,,,,,,,,,,,,,,,,,,,,,0,24,24,24,,,,,,,,,,,,,,,,,,,,,,,,,,,,,,,,,,,,,,,,,,,,,,,,,,,,,,,,,,,,,,,,,,,,,,,,,1,0.9152111001312733,424.89941349998116,None,ScrollDown,정답입니다,424.89941349998116,None,424.89941349998116,None,424.89941349998116,None,424.89941349998116,None,425.71002219989896,None,425.71002219989896,426.2103968998417,,,,,,,,,,,,,,,,104,2023-03-29_13h52.57.438,FishGame,2022.1.1,59.99498440904964,
,26,넌 천진난만해,3,Orange,B,4.958333333333334,4.833333333333333,ScrollUp,ScrollDown,Orange.png,3,Neutral,Neutral,,,,,0,0,0,0,,,,,,,,,,,,,,,,,,,,,0,25,25,25,,,,,,,,,,,,,,,,,,,,,,,,,,,,,,,,,,,,,,,,,,,,,,,,,,,,,,,,,,,,,,,,,,,,,,,,,2,1.0482840999029577,426.8366854998749,None,ScrollUp,정답입니다,426.8366854998749,None,426.8366854998749,None,426.8366854998749,None,426.8366854998749,None,427.7767272000201,None,427.7767272000201,428.27972389990464,,,,,,,,,,,,,,,,104,2023-03-29_13h52.57.438,FishGame,2022.1.1,59.99498440904964,
,27,넌 교양없어,5,Green,A,2.416666666666667,2.2,ScrollDown,ScrollUp,Green.png,3,Negative,Incongruent,,,,,0,0,0,0,,,,,,,,,,,,,,,,,,,,,0,26,26,26,,,,,,,,,,,,,,,,,,,,,,,,,,,,,,,,,,,,,,,,,,,,,,,,,,,,,,,,,,,,,,,,,,,,,,,,,1.1759259204069774,1.031848100014031,428.90490500000305,None,ScrollDown,정답입니다,428.90490500000305,None,428.90490500000305,None,428.90490500000305,None,428.90490500000305,None,429.8270059998613,None,429.8270059998613,430.32967230002396,,,,,,,,,,,,,,,,104,2023-03-29_13h52.57.438,FishGame,2022.1.1,59.99498440904964,
,28,나를 보내줘,6,Green,A,0,0,ScrollUp,ScrollDown,Green.png,3,NonTarget,NonTarget,,,,,0,0,0,0,,,,,,,,,,,,,,,,,,,,,0,27,27,27,,,,,,,,,,,,,,,,,,,,,,,,,,,,,,,,,,,,,,,,,,,,,,,,,,,,,,,,,,,,,,,,,,,,,,,,,2,0.9817187001463026,430.95253879996017,None,ScrollUp,정답입니다,430.95253879996017,None,430.95253879996017,None,430.95253879996017,None,430.95253879996017,None,431.8268299999181,None,431.8268299999181,432.3295628998894,,,,,,,,,,,,,,,,104,2023-03-29_13h52.57.438,FishGame,2022.1.1,59.99498440904964,
,29,넌 엉뚱스러워,3,Green,A,4.166666666666667,4.133333333333334,ScrollDown,ScrollUp,Green.png,3,Neutral,Neutral,,,,,0,0,0,0,,,,,,,,,,,,,,,,,,,,,0,28,28,28,,,,,,,,,,,,,,,,,,,,,,,,,,,,,,,,,,,,,,,,,,,,,,,,,,,,,,,,,,,,,,,,,,,,,,,,,1.1172839403152466,0.8818733000662178,432.95497579989024,None,ScrollDown,정답입니다,432.95497579989024,None,432.95497579989024,None,432.95497579989024,None,432.95497579989024,None,433.72676879982464,None,433.72676879982464,434.229455600027,,,,,,,,,,,,,,,,104,2023-03-29_13h52.57.438,FishGame,2022.1.1,59.99498440904964,
,30,넌 무지해,4,Orange,B,2.541666666666667,3.066666666666667,ScrollUp,ScrollDown,Orange.png,3,Negative,Congruent,,,,,0,0,0,0,,,,,,,,,,,,,,,,,,,,,0,29,29,29,,,,,,,,,,,,,,,,,,,,,,,,,,,,,,,,,,,,,,,,,,,,,,,,,,,,,,,,,,,,,,,,,,,,,,,,,1.9012345770994823,0.9955458000767976,434.85445179999806,None,ScrollUp,정답입니다,434.85445179999806,None,434.85445179999806,None,434.85445179999806,None,434.85445179999806,None,435.74623819999397,None,435.74623819999397,436.2461021998897,,,,,,,,,,,,,,,,104,2023-03-29_13h52.57.438,FishGame,2022.1.1,59.99498440904964,
,31,넌 음울해,5,Orange,B,2.25,2.233333333333333,ScrollUp,ScrollDown,Orange.png,3,Negative,Congruent,,,,,0,0,0,0,,,,,,,,,,,,,,,,,,,,,0,30,30,30,,,,,,,,,,,,,,,,,,,,,,,,,,,,,,,,,,,,,,,,,,,,,,,,,,,,,,,,,,,,,,,,,,,,,,,,,2,0.8623329000547528,436.87850989983417,None,ScrollUp,정답입니다,436.87850989983417,None,436.87850989983417,None,436.87850989983417,None,436.87850989983417,None,437.62676459993236,None,437.62676459993236,438.12943989993073,,,,,,,,,,,,,,,,104,2023-03-29_13h52.57.438,FishGame,2022.1.1,59.99498440904964,
,32,넌 냉소적이야,5,Green,A,2.916666666666667,2.4,ScrollDown,ScrollUp,Green.png,3,Negative,Incongruent,,,,,0,0,0,0,,,,,,,,,,,,,,,,,,,,,0,31,31,31,,,,,,,,,,,,,,,,,,,,,,,,,,,,,,,,,,,,,,,,,,,,,,,,,,,,,,,,,,,,,,,,,,,,,,,,,1,1.0290874000638723,438.7573298998177,None,ScrollDown,정답입니다,438.7573298998177,None,438.7573298998177,None,438.7573298998177,None,438.7573298998177,None,439.6766287998762,None,439.6766287998762,440.17664129985496,,,,,,,,,,,,,,,,104,2023-03-29_13h52.57.438,FishGame,2022.1.1,59.99498440904964,
,33,나를 데려가줘,6,Orange,B,0,0,ScrollDown,ScrollUp,Orange.png,3,NonTarget,NonTarget,,,,,0,0,0,0,,,,,,,,,,,,,,,,,,,,,0,32,32,32,,,,,,,,,,,,,,,,,,,,,,,,,,,,,,,,,,,,,,,,,,,,,,,,,,,,,,,,,,,,,,,,,,,,,,,,,1.0061728358268738,0.8958562000188977,440.80384599999525,None,ScrollDown,정답입니다,440.80384599999525,None,440.80384599999525,None,440.80384599999525,None,440.80384599999525,None,441.596040799981,None,441.596040799981,442.09599039983004,,,,,,,,,,,,,,,,104,2023-03-29_13h52.57.438,FishGame,2022.1.1,59.99498440904964,
,34,넌 쾌활해,1,Green,A,5.541666666666666,5.733333333333333,ScrollDown,ScrollUp,Green.png,3,Positive,Congruent,,,,,0,0,0,0,,,,,,,,,,,,,,,,,,,,,0,33,33,33,,,,,,,,,,,,,,,,,,,,,,,,,,,,,,,,,,,,,,,,,,,,,,,,,,,,,,,,,,,,,,,,,,,,,,,,,1.1373456716537476,1.1289331000298262,442.7198394997977,None,ScrollDown,정답입니다,442.7198394997977,None,442.7198394997977,None,442.7198394997977,None,442.7198394997977,None,443.74599059997126,None,443.74599059997126,444.2626308000181,,,,,,,,,,,,,,,,104,2023-03-29_13h52.57.438,FishGame,2022.1.1,59.99498440904964,
,35,나를 보내줘,6,Green,A,0,0,ScrollUp,ScrollDown,Green.png,3,NonTarget,NonTarget,,,,,0,0,0,0,,,,,,,,,,,,,,,,,,,,,0,34,34,34,,,,,,,,,,,,,,,,,,,,,,,,,,,,,,,,,,,,,,,,,,,,,,,,,,,,,,,,,,,,,,,,,,,,,,,,,1.8950617214043934,0.9123758000787348,444.868530199863,None,ScrollUp,정답입니다,444.868530199863,None,444.868530199863,None,444.868530199863,None,444.868530199863,None,445.67932439991273,None,445.67932439991273,446.1793577999342,,,,,,,,,,,,,,,,104,2023-03-29_13h52.57.438,FishGame,2022.1.1,59.99498440904964,
,36,넌 명랑해,1,Orange,B,5.739130434782609,5.666666666666667,ScrollUp,ScrollDown,Orange.png,3,Positive,Incongruent,,,,,0,0,0,0,,,,,,,,,,,,,,,,,,,,,0,35,35,35,,,,,,,,,,,,,,,,,,,,,,,,,,,,,,,,,,,,,,,,,,,,,,,,,,,,,,,,,,,,,,,,,,,,,,,,,2,1.0077980000060052,446.81709379982203,None,ScrollUp,정답입니다,446.81709379982203,None,446.81709379982203,None,446.81709379982203,None,446.81709379982203,None,447.7095837998204,None,447.7095837998204,448.2099994998425,,,,,,,,,,,,,,,,104,2023-03-29_13h52.57.438,FishGame,2022.1.1,59.99498440904964,
,37,넌 멍해,4,Green,A,2.833333333333333,3.4,ScrollDown,ScrollUp,Green.png,3,Negative,Incongruent,,,,,0,0,0,0,,,,,,,,,,,,,,,,,,,,,0,36,36,36,,,,,,,,,,,,,,,,,,,,,,,,,,,,,,,,,,,,,,,,,,,,,,,,,,,,,,,,,,,,,,,,,,,,,,,,,1.0648148159186046,0.8996003998909146,448.83396509988233,None,ScrollDown,정답입니다,448.83396509988233,None,448.83396509988233,None,448.83396509988233,None,448.83396509988233,None,449.62626239983365,None,449.62626239983365,450.1292611998506,,,,,,,,,,,,,,,,104,2023-03-29_13h52.57.438,FishGame,2022.1.1,59.99498440904964,
,38,나를 데려가줘,6,Orange,B,0,0,ScrollDown,ScrollUp,Orange.png,3,NonTarget,NonTarget,,,,,0,0,0,0,,,,,,,,,,,,,,,,,,,,,0,37,37,37,,,,,,,,,,,,,,,,,,,,,,,,,,,,,,,,,,,,,,,,,,,,,,,,,,,,,,,,,,,,,,,,,,,,,,,,,1.0447530845801036,0.8453933000564575,450.7544707998168,None,ScrollDown,정답입니다,450.7544707998168,None,450.7544707998168,None,450.7544707998168,None,450.7544707998168,None,451.4959360000212,None,451.4959360000212,451.99582939990796,,,,,,,,,,,,,,,,104,2023-03-29_13h52.57.438,FishGame,2022.1.1,59.99498440904964,
,39,넌 현명해,2,Green,A,6.541666666666666,4.533333333333333,ScrollDown,ScrollUp,Green.png,3,Positive,Congruent,,,,,0,0,0,0,,,,,,,,,,,,,,,,,,,,,0,38,38,38,,,,,,,,,,,,,,,,,,,,,,,,,,,,,,,,,,,,,,,,,,,,,,,,,,,,,,,,,,,,,,,,,,,,,,,,,1.0262345671653748,1.5954852001741529,452.62510569998994,None,ScrollDown,정답입니다,452.62510569998994,None,452.62510569998994,None,452.62510569998994,None,452.62510569998994,None,454.10945430002175,None,454.10945430002175,454.6094496999867,,,,,,,,,,,,,,,,104,2023-03-29_13h52.57.438,FishGame,2022.1.1,59.99498440904964,
,40,넌 수줍어,3,Orange,B,3.541666666666666,4.366666666666666,ScrollUp,ScrollDown,Orange.png,3,Neutral,Neutral,,,,,0,0,0,0,,,,,,,,,,,,,,,,,,,,,0,39,39,39,,,,,,,,,,,,,,,,,,,,,,,,,,,,,,,,,,,,,,,,,,,,,,,,,,,,,,,,,,,,,,,,,,,,,,,,,2,0.981597299920395,455.2371026999317,None,ScrollUp,정답입니다,455.2371026999317,None,455.2371026999317,None,455.2371026999317,None,455.2371026999317,None,456.112404699903,None,456.112404699903,456.61243769992143,,,,,,,,,,,,,,,,104,2023-03-29_13h52.57.438,FishGame,2022.1.1,59.99498440904964,
,41,나를 데려가줘,6,Orange,B,0,0,ScrollDown,ScrollUp,Orange.png,3,NonTarget,NonTarget,,,,,0,0,0,0,,,,,,,,,,,,,,,,,,,,,0,40,40,40,,,,,,,,,,,,,,,,,,,,,,,,,,,,,,,,,,,,,,,,,,,,,,,,,,,,,,,,,,,,,,,,,,,,,,,,,1.0493827263514202,0.9485075999982655,457.23757679993287,None,ScrollDown,정답입니다,457.23757679993287,None,457.23757679993287,None,457.23757679993287,None,457.23757679993287,None,458.07909529982135,None,458.07909529982135,458.57905319985,,,,,,,,,,,,,,,,104,2023-03-29_13h52.57.438,FishGame,2022.1.1,59.99498440904964,
,42,넌 성숙해,2,Orange,B,5.833333333333333,4.533333333333333,ScrollUp,ScrollDown,Orange.png,3,Positive,Incongruent,,,,,0,0,0,0,,,,,,,,,,,,,,,,,,,,,0,41,41,41,,,,,,,,,,,,,,,,,,,,,,,,,,,,,,,,,,,,,,,,,,,,,,,,,,,,,,,,,,,,,,,,,,,,,,,,,2,1.0964089999906719,459.2195046998095,None,ScrollUp,정답입니다,459.2195046998095,None,459.2195046998095,None,459.2195046998095,None,459.2195046998095,None,460.20933509990573,None,460.20933509990573,460.70936889993027,,,,,,,,,,,,,,,,104,2023-03-29_13h52.57.438,FishGame,2022.1.1,59.99498440904964,
,1,넌 매력적이야,2,Orange,B,6.125,4.666666666666667,ScrollUp,ScrollDown,Orange.png,4,Positive,Incongruent,,,,,0,0,0,0,,,,,,,,,,,,,,,,,,,,,,,,,0,0,0,0,,,,,,,,,,,,,,,,,,,,,,,,,,,,491.97569360001944,493.4785352998879,493.51195219997317,494.4616993998643,494.5116997999139,495.46165689988993,495.46165689988993,None,,,,,,,,,,,,,,,,,,,,,,,,,,,,,,,,,,1.9089506218830745,1.1673451999668032,496.5678602999542,None,ScrollUp,정답입니다,496.5678602999542,None,496.5678602999542,None,496.5678602999542,None,496.5678602999542,None,497.6282027999405,None,497.6282027999405,498.12815109989606,461.2093662000261,None,461.2093662000261,None,0.2212963,-0.097222224,1,0,0,0.01656969985924661,None,491.2087375000119,None,,,104,2023-03-29_13h52.57.438,FishGame,2022.1.1,59.99498440904964,
,2,나를 보내줘,6,Green,A,0,0,ScrollUp,ScrollDown,Green.png,4,NonTarget,NonTarget,,,,,0,0,0,0,,,,,,,,,,,,,,,,,,,,,,,,,0,1,1,1,,,,,,,,,,,,,,,,,,,,,,,,,,,,,,,,,,,,,,,,,,,,,,,,,,,,,,,,,,,,,,,,,,,,,1.9907407363255818,0.8952892001252621,498.7502257998567,None,ScrollUp,정답입니다,498.7502257998567,None,498.7502257998567,None,498.7502257998567,None,498.7502257998567,None,499.54478979995474,None,499.54478979995474,500.0448054999579,,,,,,,,,,,,,,,,104,2023-03-29_13h52.57.438,FishGame,2022.1.1,59.99498440904964,
,3,넌 조심스러워,3,Green,A,4.791666666666666,4.666666666666667,ScrollDown,ScrollUp,Green.png,4,Neutral,Neutral,,,,,0,0,0,0,,,,,,,,,,,,,,,,,,,,,,,,,0,2,2,2,,,,,,,,,,,,,,,,,,,,,,,,,,,,,,,,,,,,,,,,,,,,,,,,,,,,,,,,,,,,,,,,,,,,,1.1296296268701553,0.8625867001246661,500.66757239983417,None,ScrollDown,정답입니다,500.66757239983417,None,500.66757239983417,None,500.66757239983417,None,500.66757239983417,None,501.4282783998642,None,501.4282783998642,501.9281482999213,,,,,,,,,,,,,,,,104,2023-03-29_13h52.57.438,FishGame,2022.1.1,59.99498440904964,
,4,넌 철학적이야,3,Orange,B,4.5,4.266666666666667,ScrollUp,ScrollDown,Orange.png,4,Neutral,Neutral,,,,,0,0,0,0,,,,,,,,,,,,,,,,,,,,,,,,,0,3,3,3,,,,,,,,,,,,,,,,,,,,,,,,,,,,,,,,,,,,,,,,,,,,,,,,,,,,,,,,,,,,,,,,,,,,,1.9413580397764842,0.9837272998411208,502.56756829982623,None,ScrollUp,정답입니다,502.56756829982623,None,502.56756829982623,None,502.56756829982623,None,502.56756829982623,None,503.44177039992064,None,503.44177039992064,503.9417934999801,,,,,,,,,,,,,,,,104,2023-03-29_13h52.57.438,FishGame,2022.1.1,59.99498440904964,
,5,넌 쩨쩨해,5,Green,A,2.375,2.133333333333333,ScrollDown,ScrollUp,Green.png,4,Negative,Incongruent,,,,,0,0,0,0,,,,,,,,,,,,,,,,,,,,,,,,,0,4,4,4,,,,,,,,,,,,,,,,,,,,,,,,,,,,,,,,,,,,,,,,,,,,,,,,,,,,,,,,,,,,,,,,,,,,,1.180555562178294,0.831435700180009,504.5696057998575,None,ScrollDown,정답입니다,504.5696057998575,None,504.5696057998575,None,504.5696057998575,None,504.5696057998575,None,505.29499079985544,None,505.29499079985544,505.7948125000112,,,,,,,,,,,,,,,,104,2023-03-29_13h52.57.438,FishGame,2022.1.1,59.99498440904964,
,6,나를 데려가줘,6,Orange,B,0,0,ScrollDown,ScrollUp,Orange.png,4,NonTarget,NonTarget,,,,,0,0,0,0,,,,,,,,,,,,,,,,,,,,,,,,,0,5,5,5,,,,,,,,,,,,,,,,,,,,,,,,,,,,,,,,,,,,,,,,,,,,,,,,,,,,,,,,,,,,,,,,,,,,,1.1111111094554265,0.8460383999627084,506.42010019999,None,ScrollDown,정답입니다,506.42010019999,None,506.42010019999,None,506.42010019999,None,506.42010019999,None,507.1614557998255,None,507.1614557998255,507.66136409994215,,,,,,,,,,,,,,,,104,2023-03-29_13h52.57.438,FishGame,2022.1.1,59.99498440904964,
,7,넌 고집불통이야,5,Orange,B,2.875,2,ScrollUp,ScrollDown,Orange.png,4,Negative,Congruent,,,,,0,0,0,0,,,,,,,,,,,,,,,,,,,,,,,,,0,6,6,6,,,,,,,,,,,,,,,,,,,,,,,,,,,,,,,,,,,,,,,,,,,,,,,,,,,,,,,,,,,,,,,,,,,,,2,0.9579041998367757,508.3006086999085,None,ScrollUp,정답입니다,508.3006086999085,None,508.3006086999085,None,508.3006086999085,None,508.3006086999085,None,509.14161729998887,None,509.14161729998887,509.6417927998118,,,,,,,,,,,,,,,,104,2023-03-29_13h52.57.438,FishGame,2022.1.1,59.99498440904964,
,8,넌 무심해,4,Green,A,2.875,3.2,ScrollDown,ScrollUp,Green.png,4,Negative,Incongruent,,,,,0,0,0,0,,,,,,,,,,,,,,,,,,,,,,,,,0,7,7,7,,,,,,,,,,,,,,,,,,,,,,,,,,,,,,,,,,,,,,,,,,,,,,,,,,,,,,,,,,,,,,,,,,,,,1.1342592686414719,0.8656599000096321,510.26260189991444,None,ScrollDown,정답입니다,510.26260189991444,None,510.26260189991444,None,510.26260189991444,None,510.26260189991444,None,511.02498249989003,None,511.02498249989003,511.52797429985367,,,,,,,,,,,,,,,,104,2023-03-29_13h52.57.438,FishGame,2022.1.1,59.99498440904964,
,9,넌 정겨워,1,Green,A,5.791666666666667,5.666666666666667,ScrollDown,ScrollUp,Green.png,4,Positive,Congruent,,,,,0,0,0,0,,,,,,,,,,,,,,,,,,,,,,,,,0,8,8,8,,,,,,,,,,,,,,,,,,,,,,,,,,,,,,,,,,,,,,,,,,,,,,,,,,,,,,,,,,,,,,,,,,,,,1.1512345721324284,0.8122993998695165,512.1557962999213,None,ScrollDown,정답입니다,512.1557962999213,None,512.1557962999213,None,512.1557962999213,None,512.1557962999213,None,512.8586391999852,None,512.8586391999852,513.3612420000136,,,,,,,,,,,,,,,,104,2023-03-29_13h52.57.438,FishGame,2022.1.1,59.99498440904964,
,10,나를 데려가줘,6,Orange,B,0,0,ScrollDown,ScrollUp,Orange.png,4,NonTarget,NonTarget,,,,,0,0,0,0,,,,,,,,,,,,,,,,,,,,,,,,,0,9,9,9,,,,,,,,,,,,,,,,,,,,,,,,,,,,,,,,,,,,,,,,,,,,,,,,,,,,,,,,,,,,,,,,,,,,,1.120370368162791,0.844689300050959,513.9947577998973,None,ScrollDown,정답입니다,513.9947577998973,None,513.9947577998973,None,513.9947577998973,None,513.9947577998973,None,514.7251200999599,None,514.7251200999599,515.2277879000176,,,,,,,,,,,,,,,,104,2023-03-29_13h52.57.438,FishGame,2022.1.1,59.99498440904964,
,11,넌 체제순응적이야,4,Orange,B,3,3.6,ScrollUp,ScrollDown,Orange.png,4,Negative,Congruent,,,,,0,0,0,0,,,,,,,,,,,,,,,,,,,,,,,,,0,10,10,10,,,,,,,,,,,,,,,,,,,,,,,,,,,,,,,,,,,,,,,,,,,,,,,,,,,,,,,,,,,,,,,,,,,,,1.9459876318772633,0.9625454000197351,515.859728399897,None,ScrollUp,정답입니다,515.859728399897,None,515.859728399897,None,515.859728399897,None,515.859728399897,None,516.7084386998322,None,516.7084386998322,517.2110464000143,,,,,,,,,,,,,,,,104,2023-03-29_13h52.57.438,FishGame,2022.1.1,59.99498440904964,
,12,나를 보내줘,6,Green,A,0,0,ScrollUp,ScrollDown,Green.png,4,NonTarget,NonTarget,,,,,0,0,0,0,,,,,,,,,,,,,,,,,,,,,,,,,0,11,11,11,,,,,,,,,,,,,,,,,,,,,,,,,,,,,,,,,,,,,,,,,,,,,,,,,,,,,,,,,,,,,,,,,,,,,1.9583333432674408,0.8961551000829786,517.8325284998864,None,ScrollUp,정답입니다,517.8325284998864,None,517.8325284998864,None,517.8325284998864,None,517.8325284998864,None,518.6277391999029,None,518.6277391999029,519.127726299921,,,,,,,,,,,,,,,,104,2023-03-29_13h52.57.438,FishGame,2022.1.1,59.99498440904964,
,13,넌 박식해,2,Green,A,5.625,3.933333333333333,ScrollDown,ScrollUp,Green.png,4,Positive,Congruent,,,,,0,0,0,0,,,,,,,,,,,,,,,,,,,,,,,,,0,12,12,12,,,,,,,,,,,,,,,,,,,,,,,,,,,,,,,,,,,,,,,,,,,,,,,,,,,,,,,,,,,,,,,,,,,,,1.1234567960103352,0.8819575998932123,519.7534477999434,None,ScrollDown,정답입니다,519.7534477999434,None,519.7534477999434,None,519.7534477999434,None,519.7534477999434,None,520.5277565999422,None,520.5277565999422,521.0277203998994,,,,,,,,,,,,,,,,104,2023-03-29_13h52.57.438,FishGame,2022.1.1,59.99498440904964,
,14,나를 보내줘,6,Green,A,0,0,ScrollUp,ScrollDown,Green.png,4,NonTarget,NonTarget,,,,,0,0,0,0,,,,,,,,,,,,,,,,,,,,,,,,,0,13,13,13,,,,,,,,,,,,,,,,,,,,,,,,,,,,,,,,,,,,,,,,,,,,,,,,,,,,,,,,,,,,,,,,,,,,,1.873456800977389,0.9119264001492411,521.6556154999416,None,ScrollUp,정답입니다,521.6556154999416,None,521.6556154999416,None,521.6556154999416,None,521.6556154999416,None,522.4580204000231,None,522.4580204000231,522.9580369999167,,,,,,,,,,,,,,,,104,2023-03-29_13h52.57.438,FishGame,2022.1.1,59.99498440904964,
,15,넌 침착해,1,Orange,B,5.458333333333333,5.566666666666666,ScrollUp,ScrollDown,Orange.png,4,Positive,Incongruent,,,,,0,0,0,0,,,,,,,,,,,,,,,,,,,,,,,,,0,14,14,14,,,,,,,,,,,,,,,,,,,,,,,,,,,,,,,,,,,,,,,,,,,,,,,,,,,,,,,,,,,,,,,,,,,,,2,1.099796200171113,523.5916365999728,None,ScrollUp,정답입니다,523.5916365999728,None,523.5916365999728,None,523.5916365999728,None,523.5916365999728,None,524.5776576998178,None,524.5776576998178,525.0776725998148,,,,,,,,,,,,,,,,104,2023-03-29_13h52.57.438,FishGame,2022.1.1,59.99498440904964,
,16,나를 데려가줘,6,Orange,B,0,0,ScrollDown,ScrollUp,Orange.png,4,NonTarget,NonTarget,,,,,0,0,0,0,,,,,,,,,,,,,,,,,,,,,,,,,0,15,15,15,,,,,,,,,,,,,,,,,,,,,,,,,,,,,,,,,,,,,,,,,,,,,,,,,,,,,,,,,,,,,,,,,,,,,1.0632716019948323,0.8485688001383096,525.7025778000243,None,ScrollDown,정답입니다,525.7025778000243,None,525.7025778000243,None,525.7025778000243,None,525.7025778000243,None,526.441418599803,None,526.441418599803,526.9443192000035,,,,,,,,,,,,,,,,104,2023-03-29_13h52.57.438,FishGame,2022.1.1,59.99498440904964,
,17,넌 행복해,1,Green,A,6.416666666666666,6.166666666666667,ScrollDown,ScrollUp,Green.png,4,Positive,Congruent,,,,,0,0,0,0,,,,,,,,,,,,,,,,,,,,,,,,,0,16,16,16,,,,,,,,,,,,,,,,,,,,,,,,,,,,,,,,,,,,,,,,,,,,,,,,,,,,,,,,,,,,,,,,,,,,,1.120370368162791,0.8316796000581235,527.5740644999314,None,ScrollDown,정답입니다,527.5740644999314,None,527.5740644999314,None,527.5740644999314,None,527.5740644999314,None,528.2943414999172,None,528.2943414999172,528.794217800023,,,,,,,,,,,,,,,,104,2023-03-29_13h52.57.438,FishGame,2022.1.1,59.99498440904964,
,18,넌 겸손해,2,Orange,B,5.791666666666667,4.766666666666667,ScrollUp,ScrollDown,Orange.png,4,Positive,Incongruent,,,,,0,0,0,0,,,,,,,,,,,,,,,,,,,,,,,,,0,17,17,17,,,,,,,,,,,,,,,,,,,,,,,,,,,,,,,,,,,,,,,,,,,,,,,,,,,,,,,,,,,,,,,,,,,,,2,1.0126494001597166,529.4222242999822,None,ScrollUp,정답입니다,529.4222242999822,None,529.4222242999822,None,529.4222242999822,None,529.4222242999822,None,530.3276094999164,None,530.3276094999164,530.8275150998961,,,,,,,,,,,,,,,,104,2023-03-29_13h52.57.438,FishGame,2022.1.1,59.99498440904964,
,19,나를 보내줘,6,Green,A,0,0,ScrollUp,ScrollDown,Green.png,4,NonTarget,NonTarget,,,,,0,0,0,0,,,,,,,,,,,,,,,,,,,,,,,,,0,18,18,18,,,,,,,,,,,,,,,,,,,,,,,,,,,,,,,,,,,,,,,,,,,,,,,,,,,,,,,,,,,,,,,,,,,,,1.9922839502493541,0.8801434999331832,531.4497028999031,None,ScrollUp,정답입니다,531.4497028999031,None,531.4497028999031,None,531.4497028999031,None,531.4497028999031,None,532.2244992998894,None,532.2244992998894,532.7245283999946,,,,,,,,,,,,,,,,104,2023-03-29_13h52.57.438,FishGame,2022.1.1,59.99498440904964,
,20,넌 의심없어,3,Green,A,4.166666666666667,4.6,ScrollDown,ScrollUp,Green.png,4,Neutral,Neutral,,,,,0,0,0,0,,,,,,,,,,,,,,,,,,,,,,,,,0,19,19,19,,,,,,,,,,,,,,,,,,,,,,,,,,,,,,,,,,,,,,,,,,,,,,,,,,,,,,,,,,,,,,,,,,,,,1,0.9646354001015425,533.3445726998616,None,ScrollDown,정답입니다,533.3445726998616,None,533.3445726998616,None,533.3445726998616,None,533.3445726998616,None,534.2078383998014,None,534.2078383998014,534.7108495000284,,,,,,,,,,,,,,,,104,2023-03-29_13h52.57.438,FishGame,2022.1.1,59.99498440904964,
,21,넌 시시해,4,Green,A,2.666666666666667,2.966666666666667,ScrollDown,ScrollUp,Green.png,4,Negative,Incongruent,,,,,0,0,0,0,,,,,,,,,,,,,,,,,,,,,,,,,0,20,20,20,,,,,,,,,,,,,,,,,,,,,,,,,,,,,,,,,,,,,,,,,,,,,,,,,,,,,,,,,,,,,,,,,,,,,1.0493827263514202,0.812619199976325,535.3322901998181,None,ScrollDown,정답입니다,535.3322901998181,None,535.3322901998181,None,535.3322901998181,None,535.3322901998181,None,536.0414189000148,None,536.0414189000148,536.5440914998762,,,,,,,,,,,,,,,,104,2023-03-29_13h52.57.438,FishGame,2022.1.1,59.99498440904964,
,22,나를 데려가줘,6,Orange,B,0,0,ScrollDown,ScrollUp,Orange.png,4,NonTarget,NonTarget,,,,,0,0,0,0,,,,,,,,,,,,,,,,,,,,,,,,,0,21,21,21,,,,,,,,,,,,,,,,,,,,,,,,,,,,,,,,,,,,,,,,,,,,,,,,,,,,,,,,,,,,,,,,,,,,,1,0.9290283999871463,537.173583699856,None,ScrollDown,정답입니다,537.173583699856,None,537.173583699856,None,537.173583699856,None,537.173583699856,None,537.9913139999844,None,537.9913139999844,538.4939770000055,,,,,,,,,,,,,,,,104,2023-03-29_13h52.57.438,FishGame,2022.1.1,59.99498440904964,
,23,넌 무정해,5,Green,A,2.5,2.2,ScrollDown,ScrollUp,Green.png,4,Negative,Incongruent,,,,,0,0,0,0,,,,,,,,,,,,,,,,,,,,,,,,,0,22,22,22,,,,,,,,,,,,,,,,,,,,,,,,,,,,,,,,,,,,,,,,,,,,,,,,,,,,,,,,,,,,,,,,,,,,,1,0.848798899911344,539.1145540999714,None,ScrollDown,정답입니다,539.1145540999714,None,539.1145540999714,None,539.1145540999714,None,539.1145540999714,None,539.8606071998365,None,539.8606071998365,540.360611199867,,,,,,,,,,,,,,,,104,2023-03-29_13h52.57.438,FishGame,2022.1.1,59.99498440904964,
,24,넌 긍정적이야,1,Orange,B,6.041666666666667,6.066666666666666,ScrollUp,ScrollDown,Orange.png,4,Positive,Incongruent,,,,,0,0,0,0,,,,,,,,,,,,,,,,,,,,,,,,,0,23,23,23,,,,,,,,,,,,,,,,,,,,,,,,,,,,,,,,,,,,,,,,,,,,,,,,,,,,,,,,,,,,,,,,,,,,,1.9922839502493541,1.0151670998893678,540.994364899816,None,ScrollUp,정답입니다,540.994364899816,None,540.994364899816,None,540.994364899816,None,540.994364899816,None,541.8913191999309,None,541.8913191999309,542.3939371998422,,,,,,,,,,,,,,,,104,2023-03-29_13h52.57.438,FishGame,2022.1.1,59.99498440904964,
,25,나를 보내줘,6,Green,A,0,0,ScrollUp,ScrollDown,Green.png,4,NonTarget,NonTarget,,,,,0,0,0,0,,,,,,,,,,,,,,,,,,,,,,,,,0,24,24,24,,,,,,,,,,,,,,,,,,,,,,,,,,,,,,,,,,,,,,,,,,,,,,,,,,,,,,,,,,,,,,,,,,,,,1.9382716119289398,0.895938100060448,543.0256903998088,None,ScrollUp,정답입니다,543.0256903998088,None,543.0256903998088,None,543.0256903998088,None,543.0256903998088,None,543.8106125998311,None,543.8106125998311,544.3105442998931,,,,,,,,,,,,,,,,104,2023-03-29_13h52.57.438,FishGame,2022.1.1,59.99498440904964,
,26,넌 시기심이 많아,5,Orange,B,2.458333333333333,2.233333333333333,ScrollUp,ScrollDown,Orange.png,4,Negative,Congruent,,,,,0,0,0,0,,,,,,,,,,,,,,,,,,,,,,,,,0,25,25,25,,,,,,,,,,,,,,,,,,,,,,,,,,,,,,,,,,,,,,,,,,,,,,,,,,,,,,,,,,,,,,,,,,,,,1.9429012537002563,1.045559300109744,544.9399494999088,None,ScrollUp,정답입니다,544.9399494999088,None,544.9399494999088,None,544.9399494999088,None,544.9399494999088,None,545.8772317999974,None,545.8772317999974,546.3772324998863,,,,,,,,,,,,,,,,104,2023-03-29_13h52.57.438,FishGame,2022.1.1,59.99498440904964,
,27,넌 탁월해,2,Green,A,5.708333333333334,4.5,ScrollDown,ScrollUp,Green.png,4,Positive,Congruent,,,,,0,0,0,0,,,,,,,,,,,,,,,,,,,,,,,,,0,26,26,26,,,,,,,,,,,,,,,,,,,,,,,,,,,,,,,,,,,,,,,,,,,,,,,,,,,,,,,,,,,,,,,,,,,,,1.0787036915620167,0.82991460012272,547.018413099926,None,ScrollDown,정답입니다,547.018413099926,None,547.018413099926,None,547.018413099926,None,547.018413099926,None,547.7408578998875,None,547.7408578998875,548.240856999997,,,,,,,,,,,,,,,,104,2023-03-29_13h52.57.438,FishGame,2022.1.1,59.99498440904964,
,28,나를 데려가줘,6,Orange,B,0,0,ScrollDown,ScrollUp,Orange.png,4,NonTarget,NonTarget,,,,,0,0,0,0,,,,,,,,,,,,,,,,,,,,,,,,,0,27,27,27,,,,,,,,,,,,,,,,,,,,,,,,,,,,,,,,,,,,,,,,,,,,,,,,,,,,,,,,,,,,,,,,,,,,,1.0416666567325592,0.8682250999845564,548.8698497998994,None,ScrollDown,정답입니다,548.8698497998994,None,548.8698497998994,None,548.8698497998994,None,548.8698497998994,None,549.62720109988,None,549.62720109988,550.1278106998652,,,,,,,,,,,,,,,,104,2023-03-29_13h52.57.438,FishGame,2022.1.1,59.99498440904964,
,29,넌 조용해,3,Orange,B,4.333333333333333,4.166666666666667,ScrollUp,ScrollDown,Orange.png,4,Neutral,Neutral,,,,,0,0,0,0,,,,,,,,,,,,,,,,,,,,,,,,,0,28,28,28,,,,,,,,,,,,,,,,,,,,,,,,,,,,,,,,,,,,,,,,,,,,,,,,,,,,,,,,,,,,,,,,,,,,,2,0.998714999994263,550.7540837998968,None,ScrollUp,정답입니다,550.7540837998968,None,550.7540837998968,None,550.7540837998968,None,550.7540837998968,None,551.6439763999078,None,551.6439763999078,552.1437991999555,,,,,,,,,,,,,,,,104,2023-03-29_13h52.57.438,FishGame,2022.1.1,59.99498440904964,
,30,넌 다정해,1,Green,A,5.833333333333334,5.7,ScrollDown,ScrollUp,Green.png,4,Positive,Congruent,,,,,0,0,0,0,,,,,,,,,,,,,,,,,,,,,,,,,0,29,29,29,,,,,,,,,,,,,,,,,,,,,,,,,,,,,,,,,,,,,,,,,,,,,,,,,,,,,,,,,,,,,,,,,,,,,1.0895061641931534,0.8319063000380993,552.7784428999294,None,ScrollDown,정답입니다,552.7784428999294,None,552.7784428999294,None,552.7784428999294,None,552.7784428999294,None,553.5073688998818,None,553.5073688998818,554.0073820999824,,,,,,,,,,,,,,,,104,2023-03-29_13h52.57.438,FishGame,2022.1.1,59.99498440904964,
,31,넌 능력있어,2,Orange,B,6.166666666666666,4.6,ScrollUp,ScrollDown,Orange.png,4,Positive,Incongruent,,,,,0,0,0,0,,,,,,,,,,,,,,,,,,,,,,,,,0,30,30,30,,,,,,,,,,,,,,,,,,,,,,,,,,,,,,,,,,,,,,,,,,,,,,,,,,,,,,,,,,,,,,,,,,,,,1.884259248773257,1.1608051999937743,554.6444438998587,None,ScrollUp,정답입니다,554.6444438998587,None,554.6444438998587,None,554.6444438998587,None,554.6444438998587,None,555.6937553000171,None,555.6937553000171,556.1936756998766,,,,,,,,,,,,,,,,104,2023-03-29_13h52.57.438,FishGame,2022.1.1,59.99498440904964,
,32,넌 불쾌해,5,Green,A,2.125,1.933333333333333,ScrollDown,ScrollUp,Green.png,4,Negative,Incongruent,,,,,0,0,0,0,,,,,,,,,,,,,,,,,,,,,,,,,0,31,31,31,,,,,,,,,,,,,,,,,,,,,,,,,,,,,,,,,,,,,,,,,,,,,,,,,,,,,,,,,,,,,,,,,,,,,1,1.3620474999770522,556.8136614998803,None,ScrollDown,정답입니다,556.8136614998803,None,556.8136614998803,None,556.8136614998803,None,556.8136614998803,None,558.0770069998689,None,558.0770069998689,558.5906183000188,,,,,,,,,,,,,,,,104,2023-03-29_13h52.57.438,FishGame,2022.1.1,59.99498440904964,
,33,나를 데려가줘,6,Orange,B,0,0,ScrollDown,ScrollUp,Orange.png,4,NonTarget,NonTarget,,,,,0,0,0,0,,,,,,,,,,,,,,,,,,,,,,,,,0,32,32,32,,,,,,,,,,,,,,,,,,,,,,,,,,,,,,,,,,,,,,,,,,,,,,,,,,,,,,,,,,,,,,,,,,,,,1.1990740795930226,0.8975842001382262,559.213305799989,None,ScrollDown,정답입니다,559.213305799989,None,559.213305799989,None,559.213305799989,None,559.213305799989,None,560.007205999922,None,560.007205999922,560.5074036000296,,,,,,,,,,,,,,,,104,2023-03-29_13h52.57.438,FishGame,2022.1.1,59.99498440904964,
,34,넌 유순해,3,Green,A,4.458333333333333,5,ScrollDown,ScrollUp,Green.png,4,Neutral,Neutral,,,,,0,0,0,0,,,,,,,,,,,,,,,,,,,,,,,,,0,33,33,33,,,,,,,,,,,,,,,,,,,,,,,,,,,,,,,,,,,,,,,,,,,,,,,,,,,,,,,,,,,,,,,,,,,,,1.0725308855374653,1.0843300998676568,561.1304051999468,None,ScrollDown,정답입니다,561.1304051999468,None,561.1304051999468,None,561.1304051999468,None,561.1304051999468,None,562.1104350998066,None,562.1104350998066,562.6102338000201,,,,,,,,,,,,,,,,104,2023-03-29_13h52.57.438,FishGame,2022.1.1,59.99498440904964,
,35,넌 근심스러워,4,Orange,B,2.708333333333333,3.133333333333333,ScrollUp,ScrollDown,Orange.png,4,Negative,Congruent,,,,,0,0,0,0,,,,,,,,,,,,,,,,,,,,,,,,,0,34,34,34,,,,,,,,,,,,,,,,,,,,,,,,,,,,,,,,,,,,,,,,,,,,,,,,,,,,,,,,,,,,,,,,,,,,,1.9814815024534862,1.0484722999390215,563.2534675998613,None,ScrollUp,정답입니다,563.2534675998613,None,563.2534675998613,None,563.2534675998613,None,563.2534675998613,None,564.1768445998896,None,564.1768445998896,564.6904915999621,,,,,,,,,,,,,,,,104,2023-03-29_13h52.57.438,FishGame,2022.1.1,59.99498440904964,
,36,넌 세련되었어,2,Green,A,5.5,4.6,ScrollDown,ScrollUp,Green.png,4,Positive,Congruent,,,,,0,0,0,0,,,,,,,,,,,,,,,,,,,,,,,,,0,35,35,35,,,,,,,,,,,,,,,,,,,,,,,,,,,,,,,,,,,,,,,,,,,,,,,,,,,,,,,,,,,,,,,,,,,,,1.1450617164373398,0.8299139000009745,565.3214626000263,None,ScrollDown,정답입니다,565.3214626000263,None,565.3214626000263,None,565.3214626000263,None,565.3214626000263,None,566.0405067999382,None,566.0405067999382,566.5405011998955,,,,,,,,,,,,,,,,104,2023-03-29_13h52.57.438,FishGame,2022.1.1,59.99498440904964,
,37,나를 보내줘,6,Green,A,0,0,ScrollUp,ScrollDown,Green.png,4,NonTarget,NonTarget,,,,,0,0,0,0,,,,,,,,,,,,,,,,,,,,,,,,,0,36,36,36,,,,,,,,,,,,,,,,,,,,,,,,,,,,,,,,,,,,,,,,,,,,,,,,,,,,,,,,,,,,,,,,,,,,,1.8858024626970291,0.9981525999028236,567.1699667000212,None,ScrollUp,정답입니다,567.1699667000212,None,567.1699667000212,None,567.1699667000212,None,567.1699667000212,None,568.0601156000048,None,568.0601156000048,568.5601113999728,,,,,,,,,,,,,,,,104,2023-03-29_13h52.57.438,FishGame,2022.1.1,59.99498440904964,
,38,넌 확고해,3,Orange,B,4.708333333333334,4.566666666666666,ScrollUp,ScrollDown,Orange.png,4,Neutral,Neutral,,,,,0,0,0,0,,,,,,,,,,,,,,,,,,,,,,,,,0,37,37,37,,,,,,,,,,,,,,,,,,,,,,,,,,,,,,,,,,,,,,,,,,,,,,,,,,,,,,,,,,,,,,,,,,,,,1.8672839452823002,1.0652217001188546,569.1863302998245,None,ScrollUp,정답입니다,569.1863302998245,None,569.1863302998245,None,569.1863302998245,None,569.1863302998245,None,570.1434492999688,None,570.1434492999688,570.6570176000241,,,,,,,,,,,,,,,,104,2023-03-29_13h52.57.438,FishGame,2022.1.1,59.99498440904964,
,39,넌 이해심이 많아,1,Orange,B,6.041666666666668,5.533333333333333,ScrollUp,ScrollDown,Orange.png,4,Positive,Incongruent,,,,,0,0,0,0,,,,,,,,,,,,,,,,,,,,,,,,,0,38,38,38,,,,,,,,,,,,,,,,,,,,,,,,,,,,,,,,,,,,,,,,,,,,,,,,,,,,,,,,,,,,,,,,,,,,,1.9336419701576233,1.1483921001199633,571.2799062998965,None,ScrollUp,정답입니다,571.2799062998965,None,571.2799062998965,None,571.2799062998965,None,571.2799062998965,None,572.3237681998871,None,572.3237681998871,572.8237805999815,,,,,,,,,,,,,,,,104,2023-03-29_13h52.57.438,FishGame,2022.1.1,59.99498440904964,
,40,나를 보내줘,6,Green,A,0,0,ScrollUp,ScrollDown,Green.png,4,NonTarget,NonTarget,,,,,0,0,0,0,,,,,,,,,,,,,,,,,,,,,,,,,0,39,39,39,,,,,,,,,,,,,,,,,,,,,,,,,,,,,,,,,,,,,,,,,,,,,,,,,,,,,,,,,,,,,,,,,,,,,1.9907407363255818,0.9623463999014348,573.4493632998783,None,ScrollUp,정답입니다,573.4493632998783,None,573.4493632998783,None,573.4493632998783,None,573.4493632998783,None,574.3073495998979,None,574.3073495998979,574.8099619999994,,,,,,,,,,,,,,,,104,2023-03-29_13h52.57.438,FishGame,2022.1.1,59.99498440904964,
,41,넌 거칠어,4,Green,A,2.625,3.033333333333333,ScrollDown,ScrollUp,Green.png,4,Negative,Incongruent,,,,,0,0,0,0,,,,,,,,,,,,,,,,,,,,,,,,,0,40,40,40,,,,,,,,,,,,,,,,,,,,,,,,,,,,,,,,,,,,,,,,,,,,,,,,,,,,,,,,,,,,,,,,,,,,,1,0.9637791002169251,575.4460712999571,None,ScrollDown,정답입니다,575.4460712999571,None,575.4460712999571,None,575.4460712999571,None,575.4460712999571,None,576.2932900998276,None,576.2932900998276,576.80691569997,,,,,,,,,,,,,,,,104,2023-03-29_13h52.57.438,FishGame,2022.1.1,59.99498440904964,
,42,넌 변덕맞아,5,Orange,B,2.75,2.166666666666667,ScrollUp,ScrollDown,Orange.png,4,Negative,Congruent,,,,,0,0,0,0,,,,,,,,,,,,,,,,,,,,,,,,,0,41,41,41,,,,,,,,,,,,,,,,,,,,,,,,,,,,,,,,,,,,,,,,,,,,,,,,,,,,,,,,,,,,,,,,,,,,,1.9922839502493541,1.5151899999473244,577.4373541998211,None,ScrollUp,정답입니다,577.4373541998211,None,577.4373541998211,None,577.4373541998211,None,577.4373541998211,None,578.8402430999558,None,578.8402430999558,579.3432567999698,,,,,,,,,,,,,,,,104,2023-03-29_13h52.57.438,FishGame,2022.1.1,59.99498440904964,
,43,나를 데려가줘,6,Orange,B,0,0,ScrollDown,ScrollUp,Orange.png,4,NonTarget,NonTarget,,,,,0,0,0,0,,,,,,,,,,,,,,,,,,,,,,,,,0,42,42,42,,,,,,,,,,,,,,,,,,,,,,,,,,,,,,,,,,,,,,,,,,,,,,,,,,,,,,,,,,,,,,,,,,,,,1.1543209999799728,0.9121258000377566,579.9663449998479,None,ScrollDown,정답입니다,579.9663449998479,None,579.9663449998479,None,579.9663449998479,None,579.9663449998479,None,580.7765124998987,None,580.7765124998987,581.2765245998744,,,,,,,,,,,,,,,,104,2023-03-29_13h52.57.438,FishGame,2022.1.1,59.99498440904964,
,44,넌 외로워,4,Orange,B,2.833333333333333,3.3,ScrollUp,ScrollDown,Orange.png,4,Negative,Congruent,,,,,0,0,0,0,,,,,,,,,,,,,,,,,,,,,,,,,0,43,43,43,,,,,,,,,,,,,,,,,,,,,,,,,,,,,,,,,,,,,,,,,,,,,,,,,,,,,,,,,,,,,,,,,,,,,1.9444444676240284,0.9452736000530422,581.903347699903,None,ScrollUp,정답입니다,581.903347699903,None,581.903347699903,None,581.903347699903,None,581.903347699903,None,582.7401299998164,None,582.7401299998164,583.2400946998969,,,,,,,,,,,,,,,,104,2023-03-29_13h52.57.438,FishGame,2022.1.1,59.99498440904964,
,1,넌 불평스러워,5,Green,A,2.25,2.066666666666667,ScrollDown,ScrollUp,Green.png,5,Negative,Incongruent,,,,,0,0,0,0,,,,,,,,,,,,,,,,,,,,,,,,,,,,,0,0,0,0,,,,,,,,,,,,,,,,,,,,,,,,615.2228438998573,616.7259702999145,616.7593248998746,617.7137815000024,617.7467975998297,618.7062889998779,618.7062889998779,None,,,,,,,,,,,,,,,,,,,,,,,,,,,,,,,,,,1.0756172637144725,1.0831999001093209,619.8162055998109,None,ScrollDown,정답입니다,619.8162055998109,None,619.8162055998109,None,619.8162055998109,None,619.8162055998109,None,620.7893297998235,None,620.7893297998235,621.2893983998802,583.7400971997995,None,583.7400971997995,None,0.25648147,-0.08796296,1,0,0,0.016445300076156855,None,613.7394731999375,None,,,104,2023-03-29_13h52.57.438,FishGame,2022.1.1,59.99498440904964,
,2,나를 보내줘,6,Green,A,0,0,ScrollUp,ScrollDown,Green.png,5,NonTarget,NonTarget,,,,,0,0,0,0,,,,,,,,,,,,,,,,,,,,,,,,,,,,,0,1,1,1,,,,,,,,,,,,,,,,,,,,,,,,,,,,,,,,,,,,,,,,,,,,,,,,,,,,,,,,,,,,,,,,,1.9891975224018097,0.9313606000505388,621.9150437000208,None,ScrollUp,정답입니다,621.9150437000208,None,621.9150437000208,None,621.9150437000208,None,621.9150437000208,None,622.7424023998901,None,622.7424023998901,623.2423280000221,,,,,,,,,,,,,,,,104,2023-03-29_13h52.57.438,FishGame,2022.1.1,59.99498440904964,
,3,넌 다재다능해,2,Orange,B,6.208333333333333,4.5,ScrollUp,ScrollDown,Orange.png,5,Positive,Incongruent,,,,,0,0,0,0,,,,,,,,,,,,,,,,,,,,,,,,,,,,,0,2,2,2,,,,,,,,,,,,,,,,,,,,,,,,,,,,,,,,,,,,,,,,,,,,,,,,,,,,,,,,,,,,,,,,,1.9799382885297139,1.032151099992916,623.870390499942,None,ScrollUp,정답입니다,623.870390499942,None,623.870390499942,None,623.870390499942,None,623.870390499942,None,624.792240299983,None,624.792240299983,625.2922465000302,,,,,,,,,,,,,,,,104,2023-03-29_13h52.57.438,FishGame,2022.1.1,59.99498440904964,
,4,넌 과감해,3,Green,A,4.833333333333334,4.6,ScrollDown,ScrollUp,Green.png,5,Neutral,Neutral,,,,,0,0,0,0,,,,,,,,,,,,,,,,,,,,,,,,,,,,,0,3,3,3,,,,,,,,,,,,,,,,,,,,,,,,,,,,,,,,,,,,,,,,,,,,,,,,,,,,,,,,,,,,,,,,,1.1311728407939274,0.8954546998720616,625.9197132999543,None,ScrollDown,정답입니다,625.9197132999543,None,625.9197132999543,None,625.9197132999543,None,625.9197132999543,None,626.7061220000032,None,626.7061220000032,627.2088130000047,,,,,,,,,,,,,,,,104,2023-03-29_13h52.57.438,FishGame,2022.1.1,59.99498440904964,
,5,넌 고분고분해,3,Orange,B,3.75,4.033333333333333,ScrollUp,ScrollDown,Orange.png,5,Neutral,Neutral,,,,,0,0,0,0,,,,,,,,,,,,,,,,,,,,,,,,,,,,,0,4,4,4,,,,,,,,,,,,,,,,,,,,,,,,,,,,,,,,,,,,,,,,,,,,,,,,,,,,,,,,,,,,,,,,,1.9552469154198964,0.9627954999450594,627.8362089998554,None,ScrollUp,정답입니다,627.8362089998554,None,627.8362089998554,None,627.8362089998554,None,627.8362089998554,None,628.689431599807,None,628.689431599807,629.1921188998967,,,,,,,,,,,,,,,,104,2023-03-29_13h52.57.438,FishGame,2022.1.1,59.99498440904964,
,6,나를 보내줘,6,Green,A,0,0,ScrollUp,ScrollDown,Green.png,5,NonTarget,NonTarget,,,,,0,0,0,0,,,,,,,,,,,,,,,,,,,,,,,,,,,,,0,5,5,5,,,,,,,,,,,,,,,,,,,,,,,,,,,,,,,,,,,,,,,,,,,,,,,,,,,,,,,,,,,,,,,,,2,0.9147955998778343,629.8115773999598,None,ScrollUp,정답입니다,629.8115773999598,None,629.8115773999598,None,629.8115773999598,None,629.8115773999598,None,630.6227869000286,None,630.6227869000286,631.1254387998488,,,,,,,,,,,,,,,,104,2023-03-29_13h52.57.438,FishGame,2022.1.1,59.99498440904964,
,7,넌 잘 잊어,4,Green,A,3,3.7,ScrollDown,ScrollUp,Green.png,5,Negative,Incongruent,,,,,0,0,0,0,,,,,,,,,,,,,,,,,,,,,,,,,,,,,0,6,6,6,,,,,,,,,,,,,,,,,,,,,,,,,,,,,,,,,,,,,,,,,,,,,,,,,,,,,,,,,,,,,,,,,1.0987654229005177,0.8618107999209315,631.7521587999072,None,ScrollDown,정답입니다,631.7521587999072,None,631.7521587999072,None,631.7521587999072,None,631.7521587999072,None,632.5057506000157,None,632.5057506000157,633.0066020998638,,,,,,,,,,,,,,,,104,2023-03-29_13h52.57.438,FishGame,2022.1.1,59.99498440904964,
,8,넌 탐구심이없어,4,Orange,B,2.833333333333333,3.066666666666667,ScrollUp,ScrollDown,Orange.png,5,Negative,Congruent,,,,,0,0,0,0,,,,,,,,,,,,,,,,,,,,,,,,,,,,,0,7,7,7,,,,,,,,,,,,,,,,,,,,,,,,,,,,,,,,,,,,,,,,,,,,,,,,,,,,,,,,,,,,,,,,,1.9413580397764842,0.7817891999147832,633.6298199000303,None,ScrollUp,정답입니다,633.6298199000303,None,633.6298199000303,None,633.6298199000303,None,633.6298199000303,None,634.3057663999498,None,634.3057663999498,634.8057678998448,,,,,,,,,,,,,,,,104,2023-03-29_13h52.57.438,FishGame,2022.1.1,59.99498440904964,
,9,나를 데려가줘,6,Orange,B,0,0,ScrollDown,ScrollUp,Orange.png,5,NonTarget,NonTarget,,,,,0,0,0,0,,,,,,,,,,,,,,,,,,,,,,,,,,,,,0,8,8,8,,,,,,,,,,,,,,,,,,,,,,,,,,,,,,,,,,,,,,,,,,,,,,,,,,,,,,,,,,,,,,,,,1.095679019888242,0.9456766999792308,635.4312611999922,None,ScrollDown,정답입니다,635.4312611999922,None,635.4312611999922,None,635.4312611999922,None,635.4312611999922,None,636.2754326998256,None,636.2754326998256,636.7753931998741,,,,,,,,,,,,,,,,104,2023-03-29_13h52.57.438,FishGame,2022.1.1,59.99498440904964,
,10,넌 참되어,2,Green,A,6.041666666666664,4.733333333333333,ScrollDown,ScrollUp,Green.png,5,Positive,Congruent,,,,,0,0,0,0,,,,,,,,,,,,,,,,,,,,,,,,,,,,,0,9,9,9,,,,,,,,,,,,,,,,,,,,,,,,,,,,,,,,,,,,,,,,,,,,,,,,,,,,,,,,,,,,,,,,,1,1.0456332000903785,637.4007304999977,None,ScrollDown,정답입니다,637.4007304999977,None,637.4007304999977,None,637.4007304999977,None,637.4007304999977,None,638.3392024999484,None,638.3392024999484,638.8418750998098,,,,,,,,,,,,,,,,104,2023-03-29_13h52.57.438,FishGame,2022.1.1,59.99498440904964,
,11,넌 생기있어,1,Orange,B,5.875,5.633333333333334,ScrollUp,ScrollDown,Orange.png,5,Positive,Incongruent,,,,,0,0,0,0,,,,,,,,,,,,,,,,,,,,,,,,,,,,,0,10,10,10,,,,,,,,,,,,,,,,,,,,,,,,,,,,,,,,,,,,,,,,,,,,,,,,,,,,,,,,,,,,,,,,,1.8919753183921177,0.9793046000413597,639.4695049999282,None,ScrollUp,정답입니다,639.4695049999282,None,639.4695049999282,None,639.4695049999282,None,639.4695049999282,None,640.3392125000246,None,640.3392125000246,640.841861799825,,,,,,,,,,,,,,,,104,2023-03-29_13h52.57.438,FishGame,2022.1.1,59.99498440904964,
,12,넌 비사교적이야,4,Orange,B,2.875,2.9,ScrollUp,ScrollDown,Orange.png,5,Negative,Congruent,,,,,0,0,0,0,,,,,,,,,,,,,,,,,,,,,,,,,,,,,0,11,11,11,,,,,,,,,,,,,,,,,,,,,,,,,,,,,,,,,,,,,,,,,,,,,,,,,,,,,,,,,,,,,,,,,1.8935185074806213,0.829037900082767,641.4667775998823,None,ScrollUp,정답입니다,641.4667775998823,None,641.4667775998823,None,641.4667775998823,None,641.4667775998823,None,642.1918218999635,None,642.1918218999635,642.6918389999773,,,,,,,,,,,,,,,,104,2023-03-29_13h52.57.438,FishGame,2022.1.1,59.99498440904964,
,13,나를 데려가줘,6,Orange,B,0,0,ScrollDown,ScrollUp,Orange.png,5,NonTarget,NonTarget,,,,,0,0,0,0,,,,,,,,,,,,,,,,,,,,,,,,,,,,,0,12,12,12,,,,,,,,,,,,,,,,,,,,,,,,,,,,,,,,,,,,,,,,,,,,,,,,,,,,,,,,,,,,,,,,,1.1018518507480621,0.8318573001306504,643.3167443999555,None,ScrollDown,정답입니다,643.3167443999555,None,643.3167443999555,None,643.3167443999555,None,643.3167443999555,None,644.0419201999903,None,644.0419201999903,644.5585081998724,,,,,,,,,,,,,,,,104,2023-03-29_13h52.57.438,FishGame,2022.1.1,59.99498440904964,
,14,넌 고독해,4,Green,A,2.916666666666667,3.233333333333333,ScrollDown,ScrollUp,Green.png,5,Negative,Incongruent,,,,,0,0,0,0,,,,,,,,,,,,,,,,,,,,,,,,,,,,,0,13,13,13,,,,,,,,,,,,,,,,,,,,,,,,,,,,,,,,,,,,,,,,,,,,,,,,,,,,,,,,,,,,,,,,,1.2037036965290706,0.8624370000325143,645.1681905998848,None,ScrollDown,정답입니다,645.1681905998848,None,645.1681905998848,None,645.1681905998848,None,645.1681905998848,None,645.9221473999787,None,645.9221473999787,646.4221129999496,,,,,,,,,,,,,,,,104,2023-03-29_13h52.57.438,FishGame,2022.1.1,59.99498440904964,
,15,넌 신경질적이야,5,Orange,B,2.375,2.233333333333333,ScrollUp,ScrollDown,Orange.png,5,Negative,Congruent,,,,,0,0,0,0,,,,,,,,,,,,,,,,,,,,,,,,,,,,,0,14,14,14,,,,,,,,,,,,,,,,,,,,,,,,,,,,,,,,,,,,,,,,,,,,,,,,,,,,,,,,,,,,,,,,,1.8626543283462524,0.9627495999448001,647.0534573998302,None,ScrollUp,정답입니다,647.0534573998302,None,647.0534573998302,None,647.0534573998302,None,647.0534573998302,None,647.9054476998281,None,647.9054476998281,648.4085062998347,,,,,,,,,,,,,,,,104,2023-03-29_13h52.57.438,FishGame,2022.1.1,59.99498440904964,
,16,넌 똑똑해,2,Orange,B,5.666666666666667,3.966666666666667,ScrollUp,ScrollDown,Orange.png,5,Positive,Incongruent,,,,,0,0,0,0,,,,,,,,,,,,,,,,,,,,,,,,,,,,,0,15,15,15,,,,,,,,,,,,,,,,,,,,,,,,,,,,,,,,,,,,,,,,,,,,,,,,,,,,,,,,,,,,,,,,,2,1.148441799916327,649.0424901000224,None,ScrollUp,정답입니다,649.0424901000224,None,649.0424901000224,None,649.0424901000224,None,649.0424901000224,None,650.072413199814,None,650.072413199814,650.575089099817,,,,,,,,,,,,,,,,104,2023-03-29_13h52.57.438,FishGame,2022.1.1,59.99498440904964,
,17,나를 보내줘,6,Green,A,0,0,ScrollUp,ScrollDown,Green.png,5,NonTarget,NonTarget,,,,,0,0,0,0,,,,,,,,,,,,,,,,,,,,,,,,,,,,,0,16,16,16,,,,,,,,,,,,,,,,,,,,,,,,,,,,,,,,,,,,,,,,,,,,,,,,,,,,,,,,,,,,,,,,,1.9537037014961243,0.9285933999344707,651.2014001000207,None,ScrollUp,정답입니다,651.2014001000207,None,651.2014001000207,None,651.2014001000207,None,651.2014001000207,None,652.0220084998291,None,652.0220084998291,652.5219868998975,,,,,,,,,,,,,,,,104,2023-03-29_13h52.57.438,FishGame,2022.1.1,59.99498440904964,
,18,넌 협조적이야,1,Green,A,5.625,5.666666666666667,ScrollDown,ScrollUp,Green.png,5,Positive,Congruent,,,,,0,0,0,0,,,,,,,,,,,,,,,,,,,,,,,,,,,,,0,17,17,17,,,,,,,,,,,,,,,,,,,,,,,,,,,,,,,,,,,,,,,,,,,,,,,,,,,,,,,,,,,,,,,,,1.115740751226743,0.8829270000569522,653.1465948999394,None,ScrollDown,정답입니다,653.1465948999394,None,653.1465948999394,None,653.1465948999394,None,653.1465948999394,None,653.9220116999932,None,653.9220116999932,654.4250125000253,,,,,,,,,,,,,,,,104,2023-03-29_13h52.57.438,FishGame,2022.1.1,59.99498440904964,
,19,나를 데려가줘,6,Orange,B,0,0,ScrollDown,ScrollUp,Orange.png,5,NonTarget,NonTarget,,,,,0,0,0,0,,,,,,,,,,,,,,,,,,,,,,,,,,,,,0,18,18,18,,,,,,,,,,,,,,,,,,,,,,,,,,,,,,,,,,,,,,,,,,,,,,,,,,,,,,,,,,,,,,,,,1.2083333383003871,0.7983479001559317,655.0498998998664,None,ScrollDown,정답입니다,655.0498998998664,None,655.0498998998664,None,655.0498998998664,None,655.0498998998664,None,655.7390069998801,None,655.7390069998801,656.241647399962,,,,,,,,,,,,,,,,104,2023-03-29_13h52.57.438,FishGame,2022.1.1,59.99498440904964,
,20,넌 몰인정해,5,Orange,B,2.541666666666667,2.066666666666667,ScrollUp,ScrollDown,Orange.png,5,Negative,Congruent,,,,,0,0,0,0,,,,,,,,,,,,,,,,,,,,,,,,,,,,,0,19,19,19,,,,,,,,,,,,,,,,,,,,,,,,,,,,,,,,,,,,,,,,,,,,,,,,,,,,,,,,,,,,,,,,,2,0.9315708000212908,656.8691288998816,None,ScrollUp,정답입니다,656.8691288998816,None,656.8691288998816,None,656.8691288998816,None,656.8691288998816,None,657.691573199816,None,657.691573199816,658.2081459998153,,,,,,,,,,,,,,,,104,2023-03-29_13h52.57.438,FishGame,2022.1.1,59.99498440904964,
,21,나를 데려가줘,6,Orange,B,0,0,ScrollDown,ScrollUp,Orange.png,5,NonTarget,NonTarget,,,,,0,0,0,0,,,,,,,,,,,,,,,,,,,,,,,,,,,,,0,20,20,20,,,,,,,,,,,,,,,,,,,,,,,,,,,,,,,,,,,,,,,,,,,,,,,,,,,,,,,,,,,,,,,,,1.0740740497907002,0.8290822000708431,658.8153251998592,None,ScrollDown,정답입니다,658.8153251998592,None,658.8153251998592,None,658.8153251998592,None,658.8153251998592,None,659.5414316998795,None,659.5414316998795,660.0414676999208,,,,,,,,,,,,,,,,104,2023-03-29_13h52.57.438,FishGame,2022.1.1,59.99498440904964,
,22,넌 순진해,3,Orange,B,4.125,4.166666666666667,ScrollUp,ScrollDown,Orange.png,5,Neutral,Neutral,,,,,0,0,0,0,,,,,,,,,,,,,,,,,,,,,,,,,,,,,0,21,21,21,,,,,,,,,,,,,,,,,,,,,,,,,,,,,,,,,,,,,,,,,,,,,,,,,,,,,,,,,,,,,,,,,2,0.8626137999817729,660.6631435998715,None,ScrollUp,정답입니다,660.6631435998715,None,660.6631435998715,None,660.6631435998715,None,660.6631435998715,None,661.4248556999955,None,661.4248556999955,661.941406799946,,,,,,,,,,,,,,,,104,2023-03-29_13h52.57.438,FishGame,2022.1.1,59.99498440904964,
,23,넌 신뢰할만해,1,Green,A,6.625,5.533333333333333,ScrollDown,ScrollUp,Green.png,5,Positive,Congruent,,,,,0,0,0,0,,,,,,,,,,,,,,,,,,,,,,,,,,,,,0,22,22,22,,,,,,,,,,,,,,,,,,,,,,,,,,,,,,,,,,,,,,,,,,,,,,,,,,,,,,,,,,,,,,,,,1.160493830839793,0.8489925998728722,662.551664599916,None,ScrollDown,정답입니다,662.551664599916,None,662.551664599916,None,662.551664599916,None,662.551664599916,None,663.2914292998612,None,663.2914292998612,663.7913491998333,,,,,,,,,,,,,,,,104,2023-03-29_13h52.57.438,FishGame,2022.1.1,59.99498440904964,
