name,TrialNum,Word,WordCategory,FishType,WordList,WordValence,WordReputation,CorrectResp,IncorrectResp,FishTypeFile,Round,WordType,Condition,LoopforOrange.thisRepN,LoopforOrange.thisTrialN,LoopforOrange.thisN,LoopforOrange.thisIndex,OrangeInstLoop.thisRepN,OrangeInstLoop.thisTrialN,OrangeInstLoop.thisN,OrangeInstLoop.thisIndex,OrangePrac.thisRepN,OrangePrac.thisTrialN,OrangePrac.thisN,OrangePrac.thisIndex,temp1.thisRepN,temp1.thisTrialN,temp1.thisN,temp1.thisIndex,OrangeRound1.thisRepN,OrangeRound1.thisTrialN,OrangeRound1.thisN,OrangeRound1.thisIndex,OrangeRound2.thisRepN,OrangeRound2.thisTrialN,OrangeRound2.thisN,OrangeRound2.thisIndex,OrangeRound3.thisRepN,OrangeRound3.thisTrialN,OrangeRound3.thisN,OrangeRound3.thisIndex,OrangeRound4.thisRepN,OrangeRound4.thisTrialN,OrangeRound4.thisN,OrangeRound4.thisIndex,OrangeRound5.thisRepN,OrangeRound5.thisTrialN,OrangeRound5.thisN,OrangeRound5.thisIndex,LoopForGreen.thisRepN,LoopForGreen.thisTrialN,LoopForGreen.thisN,LoopForGreen.thisIndex,text_2.started,text_2.stopped,text_3.started,text_3.stopped,key_resp.keys,key_resp.rt,key_resp.started,key_resp.stopped,PassI_2.started,PassI_2.stopped,PassInst_2.keys,PassInst_2.rt,PassInst_2.started,PassInst_2.stopped,mouse_2.x,mouse_2.y,mouse_2.leftButton,mouse_2.midButton,mouse_2.rightButton,mouse_2.started,mouse_2.stopped,image.started,image.stopped,text_5.started,text_5.stopped,text_6.started,text_6.stopped,text_7.started,text_7.stopped,text_8.started,text_8.stopped,slider_2.response,slider_2.rt,slider_2.started,slider_2.stopped,Response_2,Feedback_2,BackGround_2.started,BackGround_2.stopped,Fish_2.started,Fish_2.stopped,WordBox_2.started,WordBox_2.stopped,Words_2.started,Words_2.stopped,BackGround_Feedback_2.started,BackGround_Feedback_2.stopped,Feedbacks_2.started,Feedbacks_2.stopped,Continue_or_not.keys,Continue_or_not.rt,Continue_or_not.started,Continue_or_not.stopped,image_3.started,image_3.stopped,mouse_3.x,mouse_3.y,mouse_3.leftButton,mouse_3.midButton,mouse_3.rightButton,mouse_3.started,mouse_3.stopped,startmain.started,startmain.stopped,slider.response,slider.rt,slider.started,slider.stopped,Response,Feedback,BackGround.started,BackGround.stopped,Fish.started,Fish.stopped,WordBox.started,WordBox.stopped,Words.started,Words.stopped,BackGround_Feedback.started,BackGround_Feedback.stopped,Feedbacks.started,Feedbacks.stopped,text.started,text.stopped,break_interval.started,break_interval.stopped,mouse.x,mouse.y,mouse.leftButton,mouse.midButton,mouse.rightButton,mouse.started,mouse.stopped,stratnextround.started,stratnextround.stopped,endgame.started,endgame.stopped,participant,date,expName,psychopyVersion,frameRate,
,,,,,,,,,,,,,,,,,,,,,,,,,,,,,,,,,,,,,,,,,,,,,,,,,,,,,,18.106618900084868,None,18.106618900084868,None,space,1.020715500228107,18.586464500054717,None,,,,,,,,,,,,,,,,,,,,,,,,,,,,,,,,,,,,,,,,,,,,,,,,,,,,,,,,,,,,,,,,,,,,,,,,,,,,,,,,,,,,,,,,,,105,2023-03-29_19h07.37.357,FishGame,2022.1.1,58.843951744539645,
물고기과제_instruction(참가자용)OrangeVersion.mp4,,,,,,,,,,,,,,0,0,0,0,0,0,0,0,,,,,,,,,,,,,,,,,,,,,,,,,,,,,,,,,,,,,,,,,90.03215959994122,None,n,1.6630061003379524,90.03215959994122,None,,,,,,,,,,,,,,,,,,,,,,,,,,,,,,,,,,,,,,,,,,,,,,,,,,,,,,,,,,,,,,,,,,,,,,,,,,,,,,,,,,,,105,2023-03-29_19h07.37.357,FishGame,2022.1.1,58.843951744539645,
,1,넌 교활해,5,Green,B,2.333333333333333,2.133333333333333,ScrollUp,ScrollDown,Green.png,practice,,,0,0,0,0,,,,,0,0,0,0,0,0,0,0,,,,,,,,,,,,,,,,,,,,,,,,,,,,,,,,,,,,,,,0.02962963,-0.21851853,1,0,0,0.4997711698524654,None,91.71820129989646,None,95.11518249986693,96.61829950008541,96.65168870007619,97.60163330007344,97.65164200006984,98.59865599987097,98.59865599987097,None,1.7777777860562007,1.602295600110665,99.87804999994114,None,ScrollUp,정답입니다,99.87804999994114,None,99.87804999994114,None,99.87804999994114,None,99.87804999994114,None,101.18195299990475,None,101.18195299990475,101.6846455000341,,,,,,,,,,,,,,,,,,,,,,,,,,,,,,,,,,,,,,,,,,,,,,,,,105,2023-03-29_19h07.37.357,FishGame,2022.1.1,58.843951744539645,
,2,넌 슬기로워,2,Orange,A,6.166666666666667,4.1,ScrollDown,ScrollUp,Orange.png,practice,,,0,0,0,0,,,,,0,0,0,0,0,1,1,1,,,,,,,,,,,,,,,,,,,,,,,,,,,,,,,,,,,,,,,,,,,,,,,,,,,,,,,,1.2839506218830743,0.9469757999759167,102.31138109997846,None,ScrollDown,정답입니다,102.31138109997846,None,102.31138109997846,None,102.31138109997846,None,102.31138109997846,None,103.15122390002944,None,103.15122390002944,103.65130280004814,,,,,,,,,,,,,,,,,,,,,,,,,,,,,,,,,,,,,,,,,,,,,,,,,105,2023-03-29_19h07.37.357,FishGame,2022.1.1,58.843951744539645,
,3,나를 보내줘,6,Orange,A,0,0,ScrollUp,ScrollDown,Orange.png,practice,,,0,0,0,0,,,,,0,0,0,0,0,2,2,2,,,,,,,,,,,,,,,,,,,,,,,,,,,,,,,,,,,,,,,,,,,,,,,,,,,,,,,,1.6728395000100136,1.0986222000792623,104.28976439987309,None,ScrollUp,정답입니다,104.28976439987309,None,104.28976439987309,None,104.28976439987309,None,104.28976439987309,None,105.2815702999942,None,105.2815702999942,105.78162600006908,,,,,,,,,,,,,,,,,,,,,,,,,,,,,,,,,,,,,,,,,,,,,,,,,105,2023-03-29_19h07.37.357,FishGame,2022.1.1,58.843951744539645,
,4,나를 데려가줘,6,Green,B,0,0,ScrollDown,ScrollUp,Green.png,practice,,,0,0,0,0,,,,,0,0,0,0,0,3,3,3,,,,,,,,,,,,,,,,,,,,,,,,,,,,,,,,,,,,,,,,,,,,,,,,,,,,,,,,1.2175925970077515,1.4817831998225302,106.40441150008701,None,ScrollDown,정답입니다,106.40441150008701,None,106.40441150008701,None,106.40441150008701,None,106.40441150008701,None,107.7845264999196,None,107.7845264999196,108.2845657998696,,,,,,,,,,,,,,,,,,,,,,,,,,,,,,,,,,,,,,,,,,,,,,,,,105,2023-03-29_19h07.37.357,FishGame,2022.1.1,58.843951744539645,
,1,넌 교활해,5,Green,B,2.333333333333333,2.133333333333333,ScrollUp,ScrollDown,Green.png,practice,,,0,0,0,0,,,,,0,0,0,0,,,,,,,,,,,,,,,,,,,,,,,,,,,,,,,,,,,,,,,,,,,,,,,,,,,,,,,,,,,,,,,,,,,,,,,,,,,,,,n,13.40246170014143,108.7846083000768,None,108.7846083000768,None,,,,,,,,,,,,,,,,,,,,,,,,,,,,,,,,,,,,,,,,,,,105,2023-03-29_19h07.37.357,FishGame,2022.1.1,58.843951744539645,
,1,넌 따뜻해,1,Green,B,6.083333333333333,5.6,ScrollUp,ScrollDown,Green.png,1,Positive,Incongruent,0,0,0,0,,,,,,,,,,,,,0,0,0,0,,,,,,,,,,,,,,,,,,,,,,,,,,,,,,,,,,,,,,,,,,,,123.8478820999153,125.35109329991974,125.3844395999331,126.33450150000863,126.3844325998798,127.33422100008465,127.33422100008465,None,,,,,,,,,,,,,,,,,,,,,,,,,0.018518519,-0.12037037,1,0,0,0.3149163699708879,None,122.21457320009358,None,1.8024691343307495,1.6320663997903466,128.62233390007168,None,ScrollUp,정답입니다,128.62233390007168,None,128.62233390007168,None,128.62233390007168,None,128.62233390007168,None,129.9481343999505,None,129.9481343999505,130.450694500003,,,,,,,,,,,,,,,,105,2023-03-29_19h07.37.357,FishGame,2022.1.1,58.843951744539645,
,2,넌 기품있어,2,Green,B,5.791666666666668,4.5,ScrollUp,ScrollDown,Green.png,1,Positive,Incongruent,0,0,0,0,,,,,,,,,,,,,0,1,1,1,,,,,,,,,,,,,,,,,,,,,,,,,,,,,,,,,,,,,,,,,,,,,,,,,,,,,,,,,,,,,,,,,,,,,,,,,,,,,,,,,,,,,1.8086419651905696,0.9957399999257177,131.07911209994927,None,ScrollUp,정답입니다,131.07911209994927,None,131.07911209994927,None,131.07911209994927,None,131.07911209994927,None,131.9674917999655,None,131.9674917999655,132.46735400008038,,,,,,,,,,,,,,,,105,2023-03-29_19h07.37.357,FishGame,2022.1.1,58.843951744539645,
,3,나를 보내줘,6,Orange,A,0,0,ScrollUp,ScrollDown,Orange.png,1,NonTarget,NonTarget,0,0,0,0,,,,,,,,,,,,,0,2,2,2,,,,,,,,,,,,,,,,,,,,,,,,,,,,,,,,,,,,,,,,,,,,,,,,,,,,,,,,,,,,,,,,,,,,,,,,,,,,,,,,,,,,,1.7222222338120141,1.0622521000914276,133.09907289990224,None,ScrollUp,정답입니다,133.09907289990224,None,133.09907289990224,None,133.09907289990224,None,133.09907289990224,None,134.04768879991025,None,134.04768879991025,134.54766859998927,,,,,,,,,,,,,,,,105,2023-03-29_19h07.37.357,FishGame,2022.1.1,58.843951744539645,
,4,넌 수동적이야,4,Orange,A,2.833333333333333,2.933333333333333,ScrollDown,ScrollUp,Orange.png,1,Negative,Incongruent,0,0,0,0,,,,,,,,,,,,,0,3,3,3,,,,,,,,,,,,,,,,,,,,,,,,,,,,,,,,,,,,,,,,,,,,,,,,,,,,,,,,,,,,,,,,,,,,,,,,,,,,,,,,,,,,,1.1851851791143417,1.064837499987334,135.1781075000763,None,ScrollDown,정답입니다,135.1781075000763,None,135.1781075000763,None,135.1781075000763,None,135.1781075000763,None,136.1309966999106,None,136.1309966999106,136.63401150004938,,,,,,,,,,,,,,,,105,2023-03-29_19h07.37.357,FishGame,2022.1.1,58.843951744539645,
,5,넌 사심이 없어,3,Green,B,4.916666666666666,4.333333333333333,ScrollUp,ScrollDown,Green.png,1,Neutral,Neutral,0,0,0,0,,,,,,,,,,,,,0,4,4,4,,,,,,,,,,,,,,,,,,,,,,,,,,,,,,,,,,,,,,,,,,,,,,,,,,,,,,,,,,,,,,,,,,,,,,,,,,,,,,,,,,,,,1.6975308607021966,0.9955428999383003,137.26201960002072,None,ScrollUp,정답입니다,137.26201960002072,None,137.26201960002072,None,137.26201960002072,None,137.26201960002072,None,138.15066779986955,None,138.15066779986955,138.6505879999604,,,,,,,,,,,,,,,,105,2023-03-29_19h07.37.357,FishGame,2022.1.1,58.843951744539645,
,6,넌 헤퍼,5,Orange,A,2.458333333333334,2.233333333333333,ScrollDown,ScrollUp,Orange.png,1,Negative,Incongruent,0,0,0,0,,,,,,,,,,,,,0,5,5,5,,,,,,,,,,,,,,,,,,,,,,,,,,,,,,,,,,,,,,,,,,,,,,,,,,,,,,,,,,,,,,,,,,,,,,,,,,,,,,,,,,,,,1.1666666616996129,0.9624910999555141,139.277994700009,None,ScrollDown,정답입니다,139.277994700009,None,139.277994700009,None,139.277994700009,None,139.277994700009,None,140.1311264000833,None,140.1311264000833,140.63119089999236,,,,,,,,,,,,,,,,105,2023-03-29_19h07.37.357,FishGame,2022.1.1,58.843951744539645,
,7,넌 말쑥해,3,Orange,A,4.833333333333334,4.333333333333333,ScrollDown,ScrollUp,Orange.png,1,Neutral,Neutral,0,0,0,0,,,,,,,,,,,,,0,6,6,6,,,,,,,,,,,,,,,,,,,,,,,,,,,,,,,,,,,,,,,,,,,,,,,,,,,,,,,,,,,,,,,,,,,,,,,,,,,,,,,,,,,,,1.1435185273488362,1.0291151001583785,141.26210689987056,None,ScrollDown,정답입니다,141.26210689987056,None,141.26210689987056,None,141.26210689987056,None,141.26210689987056,None,142.18116570007987,None,142.18116570007987,142.68097029998899,,,,,,,,,,,,,,,,105,2023-03-29_19h07.37.357,FishGame,2022.1.1,58.843951744539645,
,8,넌 투덜거려,5,Green,B,2.541666666666667,2.266666666666667,ScrollUp,ScrollDown,Green.png,1,Negative,Congruent,0,0,0,0,,,,,,,,,,,,,0,7,7,7,,,,,,,,,,,,,,,,,,,,,,,,,,,,,,,,,,,,,,,,,,,,,,,,,,,,,,,,,,,,,,,,,,,,,,,,,,,,,,,,,,,,,1.654320982595285,0.9955788000952452,143.31384219997562,None,ScrollUp,정답입니다,143.31384219997562,None,143.31384219997562,None,143.31384219997562,None,143.31384219997562,None,144.19778320007026,None,144.19778320007026,144.69760569999926,,,,,,,,,,,,,,,,105,2023-03-29_19h07.37.357,FishGame,2022.1.1,58.843951744539645,
,9,넌 적극적이야,1,Orange,A,5.708333333333333,5.533333333333333,ScrollDown,ScrollUp,Orange.png,1,Positive,Congruent,0,0,0,0,,,,,,,,,,,,,0,8,8,8,,,,,,,,,,,,,,,,,,,,,,,,,,,,,,,,,,,,,,,,,,,,,,,,,,,,,,,,,,,,,,,,,,,,,,,,,,,,,,,,,,,,,1.192901223897934,0.979494399856776,145.33263369998895,None,ScrollDown,정답입니다,145.33263369998895,None,145.33263369998895,None,145.33263369998895,None,145.33263369998895,None,146.20061210007407,None,146.20061210007407,146.70041859988123,,,,,,,,,,,,,,,,105,2023-03-29_19h07.37.357,FishGame,2022.1.1,58.843951744539645,
,10,넌 재미없어,4,Green,B,2.625,2.966666666666667,ScrollUp,ScrollDown,Green.png,1,Negative,Congruent,0,0,0,0,,,,,,,,,,,,,0,9,9,9,,,,,,,,,,,,,,,,,,,,,,,,,,,,,,,,,,,,,,,,,,,,,,,,,,,,,,,,,,,,,,,,,,,,,,,,,,,,,,,,,,,,,1.7098765472571054,0.948356700129807,147.34131320007145,None,ScrollUp,정답입니다,147.34131320007145,None,147.34131320007145,None,147.34131320007145,None,147.34131320007145,None,148.18073130003177,None,148.18073130003177,148.68069719988853,,,,,,,,,,,,,,,,105,2023-03-29_19h07.37.357,FishGame,2022.1.1,58.843951744539645,
,11,넌 명석해,2,Orange,A,5.875,4.033333333333333,ScrollDown,ScrollUp,Orange.png,1,Positive,Congruent,0,0,0,0,,,,,,,,,,,,,0,10,10,10,,,,,,,,,,,,,,,,,,,,,,,,,,,,,,,,,,,,,,,,,,,,,,,,,,,,,,,,,,,,,,,,,,,,,,,,,,,,,,,,,,,,,1.2299382835626602,1.0320204000454396,149.30869419989176,None,ScrollDown,정답입니다,149.30869419989176,None,149.30869419989176,None,149.30869419989176,None,149.30869419989176,None,150.23391669988632,None,150.23391669988632,150.73389540007338,,,,,,,,,,,,,,,,105,2023-03-29_19h07.37.357,FishGame,2022.1.1,58.843951744539645,
,12,나를 데려가줘,6,Green,B,0,0,ScrollDown,ScrollUp,Green.png,1,NonTarget,NonTarget,0,0,0,0,,,,,,,,,,,,,0,11,11,11,,,,,,,,,,,,,,,,,,,,,,,,,,,,,,,,,,,,,,,,,,,,,,,,,,,,,,,,,,,,,,,,,,,,,,,,,,,,,,,,,,,,,1.1851851791143417,1.1315830999519676,151.38343929988332,None,ScrollDown,정답입니다,151.38343929988332,None,151.38343929988332,None,151.38343929988332,None,151.38343929988332,None,152.4002729000058,None,152.4002729000058,152.91439360007644,,,,,,,,,,,,,,,,105,2023-03-29_19h07.37.357,FishGame,2022.1.1,58.843951744539645,
,13,넌 소심해,4,Orange,A,3,3.1,ScrollDown,ScrollUp,Orange.png,1,Negative,Incongruent,0,0,0,0,,,,,,,,,,,,,0,12,12,12,,,,,,,,,,,,,,,,,,,,,,,,,,,,,,,,,,,,,,,,,,,,,,,,,,,,,,,,,,,,,,,,,,,,,,,,,,,,,,,,,,,,,1.2268518557151158,0.9743388998322189,153.53860619990155,None,ScrollDown,정답입니다,153.53860619990155,None,153.53860619990155,None,153.53860619990155,None,153.53860619990155,None,154.39723249990493,None,154.39723249990493,154.89733539987355,,,,,,,,,,,,,,,,105,2023-03-29_19h07.37.357,FishGame,2022.1.1,58.843951744539645,
,14,넌 합리적이야,2,Orange,A,5.583333333333333,4.733333333333333,ScrollDown,ScrollUp,Orange.png,1,Positive,Congruent,0,0,0,0,,,,,,,,,,,,,0,13,13,13,,,,,,,,,,,,,,,,,,,,,,,,,,,,,,,,,,,,,,,,,,,,,,,,,,,,,,,,,,,,,,,,,,,,,,,,,,,,,,,,,,,,,1.2299382835626602,1.056499999947846,155.52384390006773,None,ScrollDown,정답입니다,155.52384390006773,None,155.52384390006773,None,155.52384390006773,None,155.52384390006773,None,156.45790849998593,None,156.45790849998593,156.96705859992653,,,,,,,,,,,,,,,,105,2023-03-29_19h07.37.357,FishGame,2022.1.1,58.843951744539645,
,15,넌 무자비해,5,Green,B,2.333333333333333,2.1,ScrollUp,ScrollDown,Green.png,1,Negative,Congruent,0,0,0,0,,,,,,,,,,,,,0,14,14,14,,,,,,,,,,,,,,,,,,,,,,,,,,,,,,,,,,,,,,,,,,,,,,,,,,,,,,,,,,,,,,,,,,,,,,,,,,,,,,,,,,,,,1.5910493855675063,0.9955770000815392,157.59455919987522,None,ScrollUp,정답입니다,157.59455919987522,None,157.59455919987522,None,157.59455919987522,None,157.59455919987522,None,158.4835431999527,None,158.4835431999527,158.98355449992232,,,,,,,,,,,,,,,,105,2023-03-29_19h07.37.357,FishGame,2022.1.1,58.843951744539645,
,16,나를 보내줘,6,Orange,A,0,0,ScrollUp,ScrollDown,Orange.png,1,NonTarget,NonTarget,0,0,0,0,,,,,,,,,,,,,0,15,15,15,,,,,,,,,,,,,,,,,,,,,,,,,,,,,,,,,,,,,,,,,,,,,,,,,,,,,,,,,,,,,,,,,,,,,,,,,,,,,,,,,,,,,1.5864197500050068,1.057705600047484,159.6222971000243,None,ScrollUp,정답입니다,159.6222971000243,None,159.6222971000243,None,159.6222971000243,None,159.6222971000243,None,160.56378749990836,None,160.56378749990836,161.06379759986885,,,,,,,,,,,,,,,,105,2023-03-29_19h07.37.357,FishGame,2022.1.1,58.843951744539645,
,17,넌 현실적이야,3,Green,B,4.608695652173913,4.766666666666667,ScrollUp,ScrollDown,Green.png,1,Neutral,Neutral,0,0,0,0,,,,,,,,,,,,,0,16,16,16,,,,,,,,,,,,,,,,,,,,,,,,,,,,,,,,,,,,,,,,,,,,,,,,,,,,,,,,,,,,,,,,,,,,,,,,,,,,,,,,,,,,,1.5416666672875485,1.168107399949804,161.6905099998694,None,NoResponse,무응답입니다,161.6905099998694,None,161.6905099998694,None,161.6905099998694,None,161.6905099998694,None,162.74751250003465,None,162.74751250003465,163.25015119998716,,,,,,,,,,,,,,,,105,2023-03-29_19h07.37.357,FishGame,2022.1.1,58.843951744539645,
,18,넌 의리있어,1,Green,B,5.833333333333334,5.633333333333334,ScrollUp,ScrollDown,Green.png,1,Positive,Incongruent,0,0,0,0,,,,,,,,,,,,,0,17,17,17,,,,,,,,,,,,,,,,,,,,,,,,,,,,,,,,,,,,,,,,,,,,,,,,,,,,,,,,,,,,,,,,,,,,,,,,,,,,,,,,,,,,,1.6111111169060073,1.9986162998247892,163.87499179993756,None,ScrollUp,정답입니다,163.87499179993756,None,163.87499179993756,None,163.87499179993756,None,163.87499179993756,None,165.7668308999855,None,165.7668308999855,166.28036969993263,,,,,,,,,,,,,,,,105,2023-03-29_19h07.37.357,FishGame,2022.1.1,58.843951744539645,
,19,넌 신경과민이야,5,Orange,A,2.541666666666667,2.166666666666667,ScrollDown,ScrollUp,Orange.png,1,Negative,Incongruent,0,0,0,0,,,,,,,,,,,,,0,18,18,18,,,,,,,,,,,,,,,,,,,,,,,,,,,,,,,,,,,,,,,,,,,,,,,,,,,,,,,,,,,,,,,,,,,,,,,,,,,,,,,,,,,,,1.256172845760981,1.1316696000285447,166.90933379996568,None,ScrollDown,정답입니다,166.90933379996568,None,166.90933379996568,None,166.90933379996568,None,166.90933379996568,None,167.9303403000813,None,167.9303403000813,168.4303607000038,,,,,,,,,,,,,,,,105,2023-03-29_19h07.37.357,FishGame,2022.1.1,58.843951744539645,
,20,넌 편안해,1,Orange,A,5.916666666666666,5.866666666666666,ScrollDown,ScrollUp,Orange.png,1,Positive,Congruent,0,0,0,0,,,,,,,,,,,,,0,19,19,19,,,,,,,,,,,,,,,,,,,,,,,,,,,,,,,,,,,,,,,,,,,,,,,,,,,,,,,,,,,,,,,,,,,,,,,,,,,,,,,,,,,,,1.1512345721324284,0.931919900001958,169.0670435000211,None,ScrollDown,정답입니다,169.0670435000211,None,169.0670435000211,None,169.0670435000211,None,169.0670435000211,None,169.8833415999543,None,169.8833415999543,170.38331310008653,,,,,,,,,,,,,,,,105,2023-03-29_19h07.37.357,FishGame,2022.1.1,58.843951744539645,
,21,넌 품위있어,2,Green,B,5.291666666666666,4.466666666666667,ScrollUp,ScrollDown,Green.png,1,Positive,Incongruent,0,0,0,0,,,,,,,,,,,,,0,20,20,20,,,,,,,,,,,,,,,,,,,,,,,,,,,,,,,,,,,,,,,,,,,,,,,,,,,,,,,,,,,,,,,,,,,,,,,,,,,,,,,,,,,,,1.6481481517354646,0.9454827001318336,171.00837310007773,None,ScrollUp,정답입니다,171.00837310007773,None,171.00837310007773,None,171.00837310007773,None,171.00837310007773,None,171.85007619997486,None,171.85007619997486,172.34990300005302,,,,,,,,,,,,,,,,105,2023-03-29_19h07.37.357,FishGame,2022.1.1,58.843951744539645,
,22,넌 빈틈없어,3,Orange,A,4.833333333333333,3.966666666666667,ScrollDown,ScrollUp,Orange.png,1,Neutral,Neutral,0,0,0,0,,,,,,,,,,,,,0,21,21,21,,,,,,,,,,,,,,,,,,,,,,,,,,,,,,,,,,,,,,,,,,,,,,,,,,,,,,,,,,,,,,,,,,,,,,,,,,,,,,,,,,,,,1.0725308855374653,1.0076675999443978,172.98302989988588,None,ScrollDown,정답입니다,172.98302989988588,None,172.98302989988588,None,172.98302989988588,None,172.98302989988588,None,173.88047529989854,None,173.88047529989854,174.3835227000527,,,,,,,,,,,,,,,,105,2023-03-29_19h07.37.357,FishGame,2022.1.1,58.843951744539645,
,23,넌 상상력없어,4,Green,B,2.833333333333333,3.133333333333333,ScrollUp,ScrollDown,Green.png,1,Negative,Congruent,0,0,0,0,,,,,,,,,,,,,0,22,22,22,,,,,,,,,,,,,,,,,,,,,,,,,,,,,,,,,,,,,,,,,,,,,,,,,,,,,,,,,,,,,,,,,,,,,,,,,,,,,,,,,,,,,1.6188271616895995,0.9289144000504166,175.00866839988157,None,ScrollUp,정답입니다,175.00866839988157,None,175.00866839988157,None,175.00866839988157,None,175.00866839988157,None,175.83327759988606,None,175.83327759988606,176.3331182000693,,,,,,,,,,,,,,,,105,2023-03-29_19h07.37.357,FishGame,2022.1.1,58.843951744539645,
,24,넌 지혜로워,2,Green,B,6.333333333333334,4.633333333333334,ScrollUp,ScrollDown,Green.png,1,Positive,Incongruent,0,0,0,0,,,,,,,,,,,,,0,23,23,23,,,,,,,,,,,,,,,,,,,,,,,,,,,,,,,,,,,,,,,,,,,,,,,,,,,,,,,,,,,,,,,,,,,,,,,,,,,,,,,,,,,,,1.68364197264115,1.012544000055641,176.96092469990253,None,ScrollUp,정답입니다,176.96092469990253,None,176.96092469990253,None,176.96092469990253,None,176.96092469990253,None,177.8663333998993,None,177.8663333998993,178.3664257999044,,,,,,,,,,,,,,,,105,2023-03-29_19h07.37.357,FishGame,2022.1.1,58.843951744539645,
,25,넌 시끄러워,4,Orange,A,2.833333333333333,3.033333333333333,ScrollDown,ScrollUp,Orange.png,1,Negative,Incongruent,0,0,0,0,,,,,,,,,,,,,0,24,24,24,,,,,,,,,,,,,,,,,,,,,,,,,,,,,,,,,,,,,,,,,,,,,,,,,,,,,,,,,,,,,,,,,,,,,,,,,,,,,,,,,,,,,1.1311728407939274,0.9459717001300305,178.99602379999124,None,ScrollDown,정답입니다,178.99602379999124,None,178.99602379999124,None,178.99602379999124,None,178.99602379999124,None,179.83311520004645,None,179.83311520004645,180.34673810005188,,,,,,,,,,,,,,,,105,2023-03-29_19h07.37.357,FishGame,2022.1.1,58.843951744539645,
,26,넌 만사태평이야,3,Green,B,4,4.333333333333333,ScrollUp,ScrollDown,Green.png,1,Neutral,Neutral,0,0,0,0,,,,,,,,,,,,,0,25,25,25,,,,,,,,,,,,,,,,,,,,,,,,,,,,,,,,,,,,,,,,,,,,,,,,,,,,,,,,,,,,,,,,,,,,,,,,,,,,,,,,,,,,,1.5756172835826874,0.8818268999457359,180.97212360007688,None,ScrollUp,정답입니다,180.97212360007688,None,180.97212360007688,None,180.97212360007688,None,180.97212360007688,None,181.7467028000392,None,181.7467028000392,182.24676709994674,,,,,,,,,,,,,,,,105,2023-03-29_19h07.37.357,FishGame,2022.1.1,58.843951744539645,
,27,넌 붙임성있어,1,Orange,A,5.708333333333333,5.633333333333334,ScrollDown,ScrollUp,Orange.png,1,Positive,Congruent,0,0,0,0,,,,,,,,,,,,,0,26,26,26,,,,,,,,,,,,,,,,,,,,,,,,,,,,,,,,,,,,,,,,,,,,,,,,,,,,,,,,,,,,,,,,,,,,,,,,,,,,,,,,,,,,,1.1589506169160206,0.9983728998340666,182.87685290002264,None,ScrollDown,정답입니다,182.87685290002264,None,182.87685290002264,None,182.87685290002264,None,182.87685290002264,None,183.7637680999469,None,183.7637680999469,184.2664775000885,,,,,,,,,,,,,,,,105,2023-03-29_19h07.37.357,FishGame,2022.1.1,58.843951744539645,
,28,넌 영리해,2,Orange,A,6,4.033333333333333,ScrollDown,ScrollUp,Orange.png,1,Positive,Congruent,0,0,0,0,,,,,,,,,,,,,0,27,27,27,,,,,,,,,,,,,,,,,,,,,,,,,,,,,,,,,,,,,,,,,,,,,,,,,,,,,,,,,,,,,,,,,,,,,,,,,,,,,,,,,,,,,1.1851851791143417,0.9620194998569787,184.89417039998807,None,ScrollDown,정답입니다,184.89417039998807,None,184.89417039998807,None,184.89417039998807,None,184.89417039998807,None,185.74969369987957,None,185.74969369987957,186.24965439992957,,,,,,,,,,,,,,,,105,2023-03-29_19h07.37.357,FishGame,2022.1.1,58.843951744539645,
,29,넌 열심이야,1,Green,B,6.041666666666667,5.833333333333333,ScrollUp,ScrollDown,Green.png,1,Positive,Incongruent,0,0,0,0,,,,,,,,,,,,,0,28,28,28,,,,,,,,,,,,,,,,,,,,,,,,,,,,,,,,,,,,,,,,,,,,,,,,,,,,,,,,,,,,,,,,,,,,,,,,,,,,,,,,,,,,,1.6033950597047806,0.8574872000608593,186.877747700084,None,ScrollUp,정답입니다,186.877747700084,None,186.877747700084,None,186.877747700084,None,186.877747700084,None,187.62991739995778,None,187.62991739995778,188.13003970007412,,,,,,,,,,,,,,,,105,2023-03-29_19h07.37.357,FishGame,2022.1.1,58.843951744539645,
,30,넌 인기없어,4,Green,B,3,3.3,ScrollUp,ScrollDown,Green.png,1,Negative,Congruent,0,0,0,0,,,,,,,,,,,,,0,29,29,29,,,,,,,,,,,,,,,,,,,,,,,,,,,,,,,,,,,,,,,,,,,,,,,,,,,,,,,,,,,,,,,,,,,,,,,,,,,,,,,,,,,,,1.5709876542290053,0.9482589999679476,188.7658321999479,None,ScrollUp,정답입니다,188.7658321999479,None,188.7658321999479,None,188.7658321999479,None,188.7658321999479,None,189.59961150004528,None,189.59961150004528,190.09962940006517,,,,,,,,,,,,,,,,105,2023-03-29_19h07.37.357,FishGame,2022.1.1,58.843951744539645,
,31,넌 익살스러워,3,Orange,A,4.708333333333334,4.833333333333333,ScrollDown,ScrollUp,Orange.png,1,Neutral,Neutral,0,0,0,0,,,,,,,,,,,,,0,30,30,30,,,,,,,,,,,,,,,,,,,,,,,,,,,,,,,,,,,,,,,,,,,,,,,,,,,,,,,,,,,,,,,,,,,,,,,,,,,,,,,,,,,,,1.1296296268701553,0.9650127000641078,190.72966339997947,None,ScrollDown,정답입니다,190.72966339997947,None,190.72966339997947,None,190.72966339997947,None,190.72966339997947,None,191.5830363999121,None,191.5830363999121,192.08288519992493,,,,,,,,,,,,,,,,105,2023-03-29_19h07.37.357,FishGame,2022.1.1,58.843951744539645,
,32,넌 이기적이야,5,Green,B,2.291666666666667,2.333333333333333,ScrollUp,ScrollDown,Green.png,1,Negative,Congruent,0,0,0,0,,,,,,,,,,,,,0,31,31,31,,,,,,,,,,,,,,,,,,,,,,,,,,,,,,,,,,,,,,,,,,,,,,,,,,,,,,,,,,,,,,,,,,,,,,,,,,,,,,,,,,,,,1.5617283955216408,0.8781389000359923,192.71049259998836,None,ScrollUp,정답입니다,192.71049259998836,None,192.71049259998836,None,192.71049259998836,None,192.71049259998836,None,193.47978649986908,None,193.47978649986908,193.97985460003838,,,,,,,,,,,,,,,,105,2023-03-29_19h07.37.357,FishGame,2022.1.1,58.843951744539645,
,33,나를 데려가줘,6,Green,B,0,0,ScrollDown,ScrollUp,Green.png,1,NonTarget,NonTarget,0,0,0,0,,,,,,,,,,,,,0,32,32,32,,,,,,,,,,,,,,,,,,,,,,,,,,,,,,,,,,,,,,,,,,,,,,,,,,,,,,,,,,,,,,,,,,,,,,,,,,,,,,,,,,,,,1.0725308855374653,1.0459143999032676,194.6059997000266,None,ScrollDown,정답입니다,194.6059997000266,None,194.6059997000266,None,194.6059997000266,None,194.6059997000266,None,195.54945309995674,None,195.54945309995674,196.04946430004202,,,,,,,,,,,,,,,,105,2023-03-29_19h07.37.357,FishGame,2022.1.1,58.843951744539645,
,34,넌 기회주의자야,5,Orange,A,2.875,2.133333333333333,ScrollDown,ScrollUp,Orange.png,1,Negative,Incongruent,0,0,0,0,,,,,,,,,,,,,0,33,33,33,,,,,,,,,,,,,,,,,,,,,,,,,,,,,,,,,,,,,,,,,,,,,,,,,,,,,,,,,,,,,,,,,,,,,,,,,,,,,,,,,,,,,1.1697530895471573,1.0283288999926299,196.68014449998736,None,ScrollDown,정답입니다,196.68014449998736,None,196.68014449998736,None,196.68014449998736,None,196.68014449998736,None,197.59945810004137,None,197.59945810004137,198.09938369994052,,,,,,,,,,,,,,,,105,2023-03-29_19h07.37.357,FishGame,2022.1.1,58.843951744539645,
,1,넌 미성숙해,4,Orange,A,3,3.2,ScrollDown,ScrollUp,Orange.png,2,Negative,Incongruent,0,0,0,0,,,,,,,,,,,,,,,,,0,0,0,0,,,,,,,,,,,,,,,,,,,,,,,,,,,,,,,,,,,,,,,,229.79592800000682,231.29577369987965,231.32911500008777,232.28225989989005,232.3322463000659,233.28225819999352,233.28225819999352,None,,,,,,,,,,,,,,,,,,,,,,,,,,,,,,,,,,1.095679019888242,0.9143656000960618,234.37565939989872,None,ScrollDown,정답입니다,234.37565939989872,None,234.37565939989872,None,234.37565939989872,None,234.37565939989872,None,235.17923790006898,None,235.17923790006898,235.68190789991058,198.5994293000549,None,198.5994293000549,None,0.05740741,-0.085185185,1,0,0,0.01617696974426508,None,228.59881699993275,None,,,105,2023-03-29_19h07.37.357,FishGame,2022.1.1,58.843951744539645,
,2,넌 반사회적이야,5,Green,B,2.416666666666667,2.033333333333333,ScrollUp,ScrollDown,Green.png,2,Negative,Congruent,0,0,0,0,,,,,,,,,,,,,,,,,0,1,1,1,,,,,,,,,,,,,,,,,,,,,,,,,,,,,,,,,,,,,,,,,,,,,,,,,,,,,,,,,,,,,,,,,,,,,,,,,,,,,,,,,1.6898148159186044,0.9621143001131713,236.30747670005076,None,ScrollUp,정답입니다,236.30747670005076,None,236.30747670005076,None,236.30747670005076,None,236.30747670005076,None,237.16517749987543,None,237.16517749987543,237.66524520004168,,,,,,,,,,,,,,,,105,2023-03-29_19h07.37.357,FishGame,2022.1.1,58.843951744539645,
,3,넌 유능해,2,Orange,A,6.208333333333333,4.433333333333334,ScrollDown,ScrollUp,Orange.png,2,Positive,Congruent,0,0,0,0,,,,,,,,,,,,,,,,,0,2,2,2,,,,,,,,,,,,,,,,,,,,,,,,,,,,,,,,,,,,,,,,,,,,,,,,,,,,,,,,,,,,,,,,,,,,,,,,,,,,,,,,,1.1296296268701553,0.8835196001455188,238.29351349989884,None,ScrollDown,정답입니다,238.29351349989884,None,238.29351349989884,None,238.29351349989884,None,238.29351349989884,None,239.06525869993493,None,239.06525869993493,239.56520269997418,,,,,,,,,,,,,,,,105,2023-03-29_19h07.37.357,FishGame,2022.1.1,58.843951744539645,
,4,넌 능숙해,2,Green,B,5.666666666666667,4.733333333333333,ScrollUp,ScrollDown,Green.png,2,Positive,Incongruent,0,0,0,0,,,,,,,,,,,,,,,,,0,3,3,3,,,,,,,,,,,,,,,,,,,,,,,,,,,,,,,,,,,,,,,,,,,,,,,,,,,,,,,,,,,,,,,,,,,,,,,,,,,,,,,,,1.634259263674418,0.8989279000088573,240.19919939991087,None,ScrollUp,정답입니다,240.19919939991087,None,240.19919939991087,None,240.19919939991087,None,240.19919939991087,None,240.9954953000415,None,240.9954953000415,241.49551700009033,,,,,,,,,,,,,,,,105,2023-03-29_19h07.37.357,FishGame,2022.1.1,58.843951744539645,
,5,넌 진부해,4,Green,B,2.458333333333333,3.166666666666667,ScrollUp,ScrollDown,Green.png,2,Negative,Congruent,0,0,0,0,,,,,,,,,,,,,,,,,0,4,4,4,,,,,,,,,,,,,,,,,,,,,,,,,,,,,,,,,,,,,,,,,,,,,,,,,,,,,,,,,,,,,,,,,,,,,,,,,,,,,,,,,1.7577160547176998,0.8795145999174565,242.12388870003633,None,ScrollUp,정답입니다,242.12388870003633,None,242.12388870003633,None,242.12388870003633,None,242.12388870003633,None,242.89849699987099,None,242.89849699987099,243.39851030008867,,,,,,,,,,,,,,,,105,2023-03-29_19h07.37.357,FishGame,2022.1.1,58.843951744539645,
,6,나를 보내줘,6,Orange,A,0,0,ScrollUp,ScrollDown,Orange.png,2,NonTarget,NonTarget,0,0,0,0,,,,,,,,,,,,,,,,,0,5,5,5,,,,,,,,,,,,,,,,,,,,,,,,,,,,,,,,,,,,,,,,,,,,,,,,,,,,,,,,,,,,,,,,,,,,,,,,,,,,,,,,,1.6712962985038757,0.912123599788174,244.0236466000788,None,ScrollUp,정답입니다,244.0236466000788,None,244.0236466000788,None,244.0236466000788,None,244.0236466000788,None,244.83182909991592,None,244.83182909991592,245.33185860002413,,,,,,,,,,,,,,,,105,2023-03-29_19h07.37.357,FishGame,2022.1.1,58.843951744539645,
,7,넌 엄격해,3,Orange,A,4.166666666666666,4.1,ScrollDown,ScrollUp,Orange.png,2,Neutral,Neutral,0,0,0,0,,,,,,,,,,,,,,,,,0,6,6,6,,,,,,,,,,,,,,,,,,,,,,,,,,,,,,,,,,,,,,,,,,,,,,,,,,,,,,,,,,,,,,,,,,,,,,,,,,,,,,,,,1.121913582086563,0.8655423000454903,245.959977600025,None,ScrollDown,정답입니다,245.959977600025,None,245.959977600025,None,245.959977600025,None,245.959977600025,None,246.71513979998417,None,246.71513979998417,247.21950010000728,,,,,,,,,,,,,,,,105,2023-03-29_19h07.37.357,FishGame,2022.1.1,58.843951744539645,
,8,나를 보내줘,6,Orange,A,0,0,ScrollUp,ScrollDown,Orange.png,2,NonTarget,NonTarget,0,0,0,0,,,,,,,,,,,,,,,,,0,7,7,7,,,,,,,,,,,,,,,,,,,,,,,,,,,,,,,,,,,,,,,,,,,,,,,,,,,,,,,,,,,,,,,,,,,,,,,,,,,,,,,,,1.6959876591960588,0.848699799971655,247.85052229999565,None,ScrollUp,정답입니다,247.85052229999565,None,247.85052229999565,None,247.85052229999565,None,247.85052229999565,None,248.5953840999864,None,248.5953840999864,249.09542019991204,,,,,,,,,,,,,,,,105,2023-03-29_19h07.37.357,FishGame,2022.1.1,58.843951744539645,
,9,넌 대담해,3,Green,B,4.875,4.866666666666666,ScrollUp,ScrollDown,Green.png,2,Neutral,Neutral,0,0,0,0,,,,,,,,,,,,,,,,,0,8,8,8,,,,,,,,,,,,,,,,,,,,,,,,,,,,,,,,,,,,,,,,,,,,,,,,,,,,,,,,,,,,,,,,,,,,,,,,,,,,,,,,,1.68364197264115,0.9820045998785645,249.72345980000682,None,ScrollUp,정답입니다,249.72345980000682,None,249.72345980000682,None,249.72345980000682,None,249.72345980000682,None,250.59846820007078,None,250.59846820007078,251.09835310000926,,,,,,,,,,,,,,,,105,2023-03-29_19h07.37.357,FishGame,2022.1.1,58.843951744539645,
,10,넌 꾸준해,1,Orange,A,5.916666666666668,5.8,ScrollDown,ScrollUp,Orange.png,2,Positive,Congruent,0,0,0,0,,,,,,,,,,,,,,,,,0,9,9,9,,,,,,,,,,,,,,,,,,,,,,,,,,,,,,,,,,,,,,,,,,,,,,,,,,,,,,,,,,,,,,,,,,,,,,,,,,,,,,,,,1.1049382785956066,0.93195839994587,251.72646589996293,None,ScrollDown,정답입니다,251.72646589996293,None,251.72646589996293,None,251.72646589996293,None,251.72646589996293,None,252.5483752998989,None,252.5483752998989,253.0483067999594,,,,,,,,,,,,,,,,105,2023-03-29_19h07.37.357,FishGame,2022.1.1,58.843951744539645,
,11,나를 데려가줘,6,Green,B,0,0,ScrollDown,ScrollUp,Green.png,2,NonTarget,NonTarget,0,0,0,0,,,,,,,,,,,,,,,,,0,10,10,10,,,,,,,,,,,,,,,,,,,,,,,,,,,,,,,,,,,,,,,,,,,,,,,,,,,,,,,,,,,,,,,,,,,,,,,,,,,,,,,,,1.1697530895471573,1.1243483000434935,253.67994800000452,None,ScrollDown,정답입니다,253.67994800000452,None,253.67994800000452,None,253.67994800000452,None,253.67994800000452,None,254.69524789997377,None,254.69524789997377,255.19528519990854,,,,,,,,,,,,,,,,105,2023-03-29_19h07.37.357,FishGame,2022.1.1,58.843951744539645,
,12,넌 독선적이야,5,Orange,A,2.458333333333333,1.933333333333333,ScrollDown,ScrollUp,Orange.png,2,Negative,Incongruent,0,0,0,0,,,,,,,,,,,,,,,,,0,11,11,11,,,,,,,,,,,,,,,,,,,,,,,,,,,,,,,,,,,,,,,,,,,,,,,,,,,,,,,,,,,,,,,,,,,,,,,,,,,,,,,,,1.0972222338120143,1.1651540000457317,255.83017740002833,None,ScrollDown,정답입니다,255.83017740002833,None,255.83017740002833,None,255.83017740002833,None,255.83017740002833,None,256.8817056999542,None,256.8817056999542,257.3815878999885,,,,,,,,,,,,,,,,105,2023-03-29_19h07.37.357,FishGame,2022.1.1,58.843951744539645,
,13,나를 보내줘,6,Orange,A,0,0,ScrollUp,ScrollDown,Orange.png,2,NonTarget,NonTarget,0,0,0,0,,,,,,,,,,,,,,,,,0,12,12,12,,,,,,,,,,,,,,,,,,,,,,,,,,,,,,,,,,,,,,,,,,,,,,,,,,,,,,,,,,,,,,,,,,,,,,,,,,,,,,,,,1.5972222226361432,0.9120855000801384,258.00642220000736,None,ScrollUp,정답입니다,258.00642220000736,None,258.00642220000736,None,258.00642220000736,None,258.00642220000736,None,258.81495500006713,None,258.81495500006713,259.3148586000316,,,,,,,,,,,,,,,,105,2023-03-29_19h07.37.357,FishGame,2022.1.1,58.843951744539645,
,14,넌 책임감있어,1,Green,B,6.347826086956522,6,ScrollUp,ScrollDown,Green.png,2,Positive,Incongruent,0,0,0,0,,,,,,,,,,,,,,,,,0,13,13,13,,,,,,,,,,,,,,,,,,,,,,,,,,,,,,,,,,,,,,,,,,,,,,,,,,,,,,,,,,,,,,,,,,,,,,,,,,,,,,,,,1.6913580298423767,0.9318710998632014,259.9522595999297,None,ScrollUp,정답입니다,259.9522595999297,None,259.9522595999297,None,259.9522595999297,None,259.9522595999297,None,260.778468699893,None,260.778468699893,261.2785074999556,,,,,,,,,,,,,,,,105,2023-03-29_19h07.37.357,FishGame,2022.1.1,58.843951744539645,
,15,넌 문학적이야,3,Orange,A,4.708333333333334,4.333333333333333,ScrollDown,ScrollUp,Orange.png,2,Neutral,Neutral,0,0,0,0,,,,,,,,,,,,,,,,,0,14,14,14,,,,,,,,,,,,,,,,,,,,,,,,,,,,,,,,,,,,,,,,,,,,,,,,,,,,,,,,,,,,,,,,,,,,,,,,,,,,,,,,,1.0817901194095612,0.9648377001285553,261.9096659999341,None,ScrollDown,정답입니다,261.9096659999341,None,261.9096659999341,None,261.9096659999341,None,261.9096659999341,None,262.7649463999551,None,262.7649463999551,263.26478399988264,,,,,,,,,,,,,,,,105,2023-03-29_19h07.37.357,FishGame,2022.1.1,58.843951744539645,
,16,넌 재미있어,1,Green,B,5.875,5.7,ScrollUp,ScrollDown,Green.png,2,Positive,Incongruent,0,0,0,0,,,,,,,,,,,,,,,,,0,15,15,15,,,,,,,,,,,,,,,,,,,,,,,,,,,,,,,,,,,,,,,,,,,,,,,,,,,,,,,,,,,,,,,,,,,,,,,,,,,,,,,,,1.6064814875523248,0.8482256000861526,263.8870844999328,None,ScrollUp,정답입니다,263.8870844999328,None,263.8870844999328,None,263.8870844999328,None,263.8870844999328,None,264.63154689990915,None,264.63154689990915,265.13140359986573,,,,,,,,,,,,,,,,105,2023-03-29_19h07.37.357,FishGame,2022.1.1,58.843951744539645,
,17,나를 데려가줘,6,Green,B,0,0,ScrollDown,ScrollUp,Green.png,2,NonTarget,NonTarget,0,0,0,0,,,,,,,,,,,,,,,,,0,16,16,16,,,,,,,,,,,,,,,,,,,,,,,,,,,,,,,,,,,,,,,,,,,,,,,,,,,,,,,,,,,,,,,,,,,,,,,,,,,,,,,,,1.1188271542390187,0.8578379999380559,265.76348439999856,None,ScrollDown,정답입니다,265.76348439999856,None,265.76348439999856,None,265.76348439999856,None,265.76348439999856,None,266.51170810009353,None,266.51170810009353,267.01165500003844,,,,,,,,,,,,,,,,105,2023-03-29_19h07.37.357,FishGame,2022.1.1,58.843951744539645,
,18,넌 협력적이야,1,Orange,A,5.625,5.633333333333334,ScrollDown,ScrollUp,Orange.png,2,Positive,Congruent,0,0,0,0,,,,,,,,,,,,,,,,,0,17,17,17,,,,,,,,,,,,,,,,,,,,,,,,,,,,,,,,,,,,,,,,,,,,,,,,,,,,,,,,,,,,,,,,,,,,,,,,,,,,,,,,,1.1111111094554265,0.8650336000137031,267.636719699949,None,ScrollDown,정답입니다,267.636719699949,None,267.636719699949,None,267.636719699949,None,267.636719699949,None,268.39501570002176,None,268.39501570002176,268.89795819995925,,,,,,,,,,,,,,,,105,2023-03-29_19h07.37.357,FishGame,2022.1.1,58.843951744539645,
,19,넌 평범해,3,Green,B,4.333333333333332,4.233333333333333,ScrollUp,ScrollDown,Green.png,2,Neutral,Neutral,0,0,0,0,,,,,,,,,,,,,,,,,0,18,18,18,,,,,,,,,,,,,,,,,,,,,,,,,,,,,,,,,,,,,,,,,,,,,,,,,,,,,,,,,,,,,,,,,,,,,,,,,,,,,,,,,1.564814817160368,0.8487140000797808,269.5225366000086,None,ScrollUp,정답입니다,269.5225366000086,None,269.5225366000086,None,269.5225366000086,None,269.5225366000086,None,270.2646387000568,None,270.2646387000568,270.76462949998677,,,,,,,,,,,,,,,,105,2023-03-29_19h07.37.357,FishGame,2022.1.1,58.843951744539645,
,20,넌 오만해,5,Orange,A,2.333333333333333,2,ScrollDown,ScrollUp,Orange.png,2,Negative,Incongruent,0,0,0,0,,,,,,,,,,,,,,,,,0,19,19,19,,,,,,,,,,,,,,,,,,,,,,,,,,,,,,,,,,,,,,,,,,,,,,,,,,,,,,,,,,,,,,,,,,,,,,,,,,,,,,,,,1.1250000099341075,0.8285705000162125,271.39174279989675,None,ScrollDown,정답입니다,271.39174279989675,None,271.39174279989675,None,271.39174279989675,None,271.39174279989675,None,272.1118147999514,None,272.1118147999514,272.6145365999546,,,,,,,,,,,,,,,,105,2023-03-29_19h07.37.357,FishGame,2022.1.1,58.843951744539645,
,21,넌 운이없어,4,Green,B,3,3.466666666666667,ScrollUp,ScrollDown,Green.png,2,Negative,Congruent,0,0,0,0,,,,,,,,,,,,,,,,,0,20,20,20,,,,,,,,,,,,,,,,,,,,,,,,,,,,,,,,,,,,,,,,,,,,,,,,,,,,,,,,,,,,,,,,,,,,,,,,,,,,,,,,,1.6003086442748704,0.7955652000382543,273.2392945000902,None,ScrollUp,정답입니다,273.2392945000902,None,273.2392945000902,None,273.2392945000902,None,273.2392945000902,None,273.9311631999444,None,273.9311631999444,274.43112429999746,,,,,,,,,,,,,,,,105,2023-03-29_19h07.37.357,FishGame,2022.1.1,58.843951744539645,
,22,넌 창조적이야,2,Green,B,6.125,4.633333333333334,ScrollUp,ScrollDown,Green.png,2,Positive,Incongruent,0,0,0,0,,,,,,,,,,,,,,,,,0,21,21,21,,,,,,,,,,,,,,,,,,,,,,,,,,,,,,,,,,,,,,,,,,,,,,,,,,,,,,,,,,,,,,,,,,,,,,,,,,,,,,,,,1.6358024651805558,0.8290317999199033,275.0574880000204,None,ScrollUp,정답입니다,275.0574880000204,None,275.0574880000204,None,275.0574880000204,None,275.0574880000204,None,275.77841989998706,None,275.77841989998706,276.2811076999642,,,,,,,,,,,,,,,,105,2023-03-29_19h07.37.357,FishGame,2022.1.1,58.843951744539645,
,23,나를 보내줘,6,Orange,A,0,0,ScrollUp,ScrollDown,Orange.png,2,NonTarget,NonTarget,0,0,0,0,,,,,,,,,,,,,,,,,0,22,22,22,,,,,,,,,,,,,,,,,,,,,,,,,,,,,,,,,,,,,,,,,,,,,,,,,,,,,,,,,,,,,,,,,,,,,,,,,,,,,,,,,1.7145061641931534,0.9283624000381678,276.90634400001727,None,ScrollUp,정답입니다,276.90634400001727,None,276.90634400001727,None,276.90634400001727,None,276.90634400001727,None,277.73117209994234,None,277.73117209994234,278.2310581000056,,,,,,,,,,,,,,,,105,2023-03-29_19h07.37.357,FishGame,2022.1.1,58.843951744539645,
,24,넌 통찰력있어,2,Orange,A,6.5,4.8,ScrollDown,ScrollUp,Orange.png,2,Positive,Congruent,0,0,0,0,,,,,,,,,,,,,,,,,0,23,23,23,,,,,,,,,,,,,,,,,,,,,,,,,,,,,,,,,,,,,,,,,,,,,,,,,,,,,,,,,,,,,,,,,,,,,,,,,,,,,,,,,1.1234567960103352,0.7958052000030875,278.8593860999681,None,ScrollDown,정답입니다,278.8593860999681,None,278.8593860999681,None,278.8593860999681,None,278.8593860999681,None,279.54776409990154,None,279.54776409990154,280.04773440002464,,,,,,,,,,,,,,,,105,2023-03-29_19h07.37.357,FishGame,2022.1.1,58.843951744539645,
,25,넌 경솔해,5,Green,B,2.458333333333333,2.266666666666667,ScrollUp,ScrollDown,Green.png,2,Negative,Congruent,0,0,0,0,,,,,,,,,,,,,,,,,0,24,24,24,,,,,,,,,,,,,,,,,,,,,,,,,,,,,,,,,,,,,,,,,,,,,,,,,,,,,,,,,,,,,,,,,,,,,,,,,,,,,,,,,1.6404320945342383,0.8818373999092728,280.6836955000181,None,ScrollUp,정답입니다,280.6836955000181,None,280.6836955000181,None,280.6836955000181,None,280.6836955000181,None,281.4613651998807,None,281.4613651998807,281.9614395000972,,,,,,,,,,,,,,,,105,2023-03-29_19h07.37.357,FishGame,2022.1.1,58.843951744539645,
,26,넌 초조해,4,Orange,A,2.916666666666667,3.133333333333333,ScrollDown,ScrollUp,Orange.png,2,Negative,Incongruent,0,0,0,0,,,,,,,,,,,,,,,,,0,25,25,25,,,,,,,,,,,,,,,,,,,,,,,,,,,,,,,,,,,,,,,,,,,,,,,,,,,,,,,,,,,,,,,,,,,,,,,,,,,,,,,,,1.0925925920406978,0.8314884998835623,282.5884700000752,None,ScrollDown,정답입니다,282.5884700000752,None,282.5884700000752,None,282.5884700000752,None,282.5884700000752,None,283.3143994999118,None,283.3143994999118,283.814348799875,,,,,,,,,,,,,,,,105,2023-03-29_19h07.37.357,FishGame,2022.1.1,58.843951744539645,
,27,넌 무관심해,4,Green,B,2.833333333333333,2.9,ScrollUp,ScrollDown,Green.png,2,Negative,Congruent,0,0,0,0,,,,,,,,,,,,,,,,,0,26,26,26,,,,,,,,,,,,,,,,,,,,,,,,,,,,,,,,,,,,,,,,,,,,,,,,,,,,,,,,,,,,,,,,,,,,,,,,,,,,,,,,,1.5385802456488213,0.8954735000152141,284.4400498000905,None,NoResponse,무응답입니다,284.4400498000905,None,284.4400498000905,None,284.4400498000905,None,284.4400498000905,None,285.2284639000427,None,285.2284639000427,285.73097810009494,,,,,,,,,,,,,,,,105,2023-03-29_19h07.37.357,FishGame,2022.1.1,58.843951744539645,
,28,넌 감성적이야,3,Green,B,4.125,4.166666666666667,ScrollUp,ScrollDown,Green.png,2,Neutral,Neutral,0,0,0,0,,,,,,,,,,,,,,,,,0,27,27,27,,,,,,,,,,,,,,,,,,,,,,,,,,,,,,,,,,,,,,,,,,,,,,,,,,,,,,,,,,,,,,,,,,,,,,,,,,,,,,,,,1.634259263674418,1.0077223000116646,286.36296240007505,None,ScrollUp,정답입니다,286.36296240007505,None,286.36296240007505,None,286.36296240007505,None,286.36296240007505,None,287.2612191999797,None,287.2612191999797,287.76123280008323,,,,,,,,,,,,,,,,105,2023-03-29_19h07.37.357,FishGame,2022.1.1,58.843951744539645,
,29,넌 배려심있어,1,Orange,A,6.083333333333333,5.5,ScrollDown,ScrollUp,Orange.png,2,Positive,Congruent,0,0,0,0,,,,,,,,,,,,,,,,,0,28,28,28,,,,,,,,,,,,,,,,,,,,,,,,,,,,,,,,,,,,,,,,,,,,,,,,,,,,,,,,,,,,,,,,,,,,,,,,,,,,,,,,,1.0833333333333333,0.9658418998587877,288.3935201000422,None,ScrollDown,정답입니다,288.3935201000422,None,288.3935201000422,None,288.3935201000422,None,288.3935201000422,None,289.24496429995634,None,289.24496429995634,289.7475799000822,,,,,,,,,,,,,,,,105,2023-03-29_19h07.37.357,FishGame,2022.1.1,58.843951744539645,
,30,넌 숨김없어,3,Orange,A,4.5,4.933333333333334,ScrollDown,ScrollUp,Orange.png,2,Neutral,Neutral,0,0,0,0,,,,,,,,,,,,,,,,,0,29,29,29,,,,,,,,,,,,,,,,,,,,,,,,,,,,,,,,,,,,,,,,,,,,,,,,,,,,,,,,,,,,,,,,,,,,,,,,,,,,,,,,,1.160493830839793,1.1316301000770181,290.3758717000019,None,ScrollDown,정답입니다,290.3758717000019,None,290.3758717000019,None,290.3758717000019,None,290.3758717000019,None,291.39756829990074,None,291.39756829990074,291.89751209993847,,,,,,,,,,,,,,,,105,2023-03-29_19h07.37.357,FishGame,2022.1.1,58.843951744539645,
,31,넌 훌륭해,2,Green,B,5.916666666666667,4.033333333333333,ScrollUp,ScrollDown,Green.png,2,Positive,Incongruent,0,0,0,0,,,,,,,,,,,,,,,,,0,30,30,30,,,,,,,,,,,,,,,,,,,,,,,,,,,,,,,,,,,,,,,,,,,,,,,,,,,,,,,,,,,,,,,,,,,,,,,,,,,,,,,,,1.5432098750025034,0.9122371000703424,292.52280889987014,None,NoResponse,무응답입니다,292.52280889987014,None,292.52280889987014,None,292.52280889987014,None,292.52280889987014,None,293.3280477998778,None,293.3280477998778,293.83069449989125,,,,,,,,,,,,,,,,105,2023-03-29_19h07.37.357,FishGame,2022.1.1,58.843951744539645,
,32,넌 슬기로워,2,Orange,A,6.166666666666667,4.1,ScrollDown,ScrollUp,Orange.png,2,Positive,Congruent,0,0,0,0,,,,,,,,,,,,,,,,,0,31,31,31,,,,,,,,,,,,,,,,,,,,,,,,,,,,,,,,,,,,,,,,,,,,,,,,,,,,,,,,,,,,,,,,,,,,,,,,,,,,,,,,,1.121913582086563,0.8455732997972518,294.45729349995963,None,ScrollDown,정답입니다,294.45729349995963,None,294.45729349995963,None,294.45729349995963,None,294.45729349995963,None,295.19469400006346,None,295.19469400006346,295.69735109992325,,,,,,,,,,,,,,,,105,2023-03-29_19h07.37.357,FishGame,2022.1.1,58.843951744539645,
,33,넌 냉혹해,5,Orange,A,2.583333333333333,2.1,ScrollDown,ScrollUp,Orange.png,2,Negative,Incongruent,0,0,0,0,,,,,,,,,,,,,,,,,0,32,32,32,,,,,,,,,,,,,,,,,,,,,,,,,,,,,,,,,,,,,,,,,,,,,,,,,,,,,,,,,,,,,,,,,,,,,,,,,,,,,,,,,1.2114197413126628,0.8955109999515116,296.3255030999426,None,ScrollDown,정답입니다,296.3255030999426,None,296.3255030999426,None,296.3255030999426,None,296.3255030999426,None,297.11413410003297,None,297.11413410003297,297.6306368999649,,,,,,,,,,,,,,,,105,2023-03-29_19h07.37.357,FishGame,2022.1.1,58.843951744539645,
,34,나를 데려가줘,6,Green,B,0,0,ScrollDown,ScrollUp,Green.png,2,NonTarget,NonTarget,0,0,0,0,,,,,,,,,,,,,,,,,0,33,33,33,,,,,,,,,,,,,,,,,,,,,,,,,,,,,,,,,,,,,,,,,,,,,,,,,,,,,,,,,,,,,,,,,,,,,,,,,,,,,,,,,1.0771604776382446,1.0806558998301625,298.2363473000005,None,ScrollDown,정답입니다,298.2363473000005,None,298.2363473000005,None,298.2363473000005,None,298.2363473000005,None,299.2113254999276,None,299.2113254999276,299.7146183999721,,,,,,,,,,,,,,,,105,2023-03-29_19h07.37.357,FishGame,2022.1.1,58.843951744539645,
,35,넌 편파적이야,5,Green,B,2.125,2,ScrollUp,ScrollDown,Green.png,2,Negative,Congruent,0,0,0,0,,,,,,,,,,,,,,,,,0,34,34,34,,,,,,,,,,,,,,,,,,,,,,,,,,,,,,,,,,,,,,,,,,,,,,,,,,,,,,,,,,,,,,,,,,,,,,,,,,,,,,,,,1.7206790198882422,0.8790050998795778,300.3391398000531,None,ScrollUp,정답입니다,300.3391398000531,None,300.3391398000531,None,300.3391398000531,None,300.3391398000531,None,301.1139666000381,None,301.1139666000381,301.6187005999964,,,,,,,,,,,,,,,,105,2023-03-29_19h07.37.357,FishGame,2022.1.1,58.843951744539645,
,36,넌 슬퍼,4,Orange,A,2.583333333333333,3.066666666666667,ScrollDown,ScrollUp,Orange.png,2,Negative,Incongruent,0,0,0,0,,,,,,,,,,,,,,,,,0,35,35,35,,,,,,,,,,,,,,,,,,,,,,,,,,,,,,,,,,,,,,,,,,,,,,,,,,,,,,,,,,,,,,,,,,,,,,,,,,,,,,,,,1.1358024577299755,0.7813222999684513,302.25019990000874,None,ScrollDown,정답입니다,302.25019990000874,None,302.25019990000874,None,302.25019990000874,None,302.25019990000874,None,302.92761179991066,None,302.92761179991066,303.4275996000506,,,,,,,,,,,,,,,,105,2023-03-29_19h07.37.357,FishGame,2022.1.1,58.843951744539645,
,37,나를 데려가줘,6,Green,B,0,0,ScrollDown,ScrollUp,Green.png,2,NonTarget,NonTarget,0,0,0,0,,,,,,,,,,,,,,,,,0,36,36,36,,,,,,,,,,,,,,,,,,,,,,,,,,,,,,,,,,,,,,,,,,,,,,,,,,,,,,,,,,,,,,,,,,,,,,,,,,,,,,,,,1.1435185273488362,0.9668324999511242,304.05215110001154,None,ScrollDown,정답입니다,304.05215110001154,None,304.05215110001154,None,304.05215110001154,None,304.05215110001154,None,304.9139795000665,None,304.9139795000665,305.41392319998704,,,,,,,,,,,,,,,,105,2023-03-29_19h07.37.357,FishGame,2022.1.1,58.843951744539645,
,38,넌 친절해,1,Green,B,6.041666666666667,5.533333333333333,ScrollUp,ScrollDown,Green.png,2,Positive,Incongruent,0,0,0,0,,,,,,,,,,,,,,,,,0,37,37,37,,,,,,,,,,,,,,,,,,,,,,,,,,,,,,,,,,,,,,,,,,,,,,,,,,,,,,,,,,,,,,,,,,,,,,,,,,,,,,,,,1.6311728358268738,0.8953381997998804,306.0401794000063,None,ScrollUp,정답입니다,306.0401794000063,None,306.0401794000063,None,306.0401794000063,None,306.0401794000063,None,306.83069449989125,None,306.83069449989125,307.33498040004633,,,,,,,,,,,,,,,,105,2023-03-29_19h07.37.357,FishGame,2022.1.1,58.843951744539645,
,1,넌 엉성해,4,Orange,A,3,3.3,ScrollDown,ScrollUp,Orange.png,3,Negative,Incongruent,0,0,0,0,,,,,,,,,,,,,,,,,,,,,0,0,0,0,,,,,,,,,,,,,,,,,,,,,,,,,,,,,,,,,,,,338.8768722000532,340.37691210000776,340.4134271000512,341.3634373000823,341.3966930999886,342.35113140009344,342.35113140009344,None,,,,,,,,,,,,,,,,,,,,,,,,,,,,,,,,,,1.0432098706563313,0.9163748999126256,343.45678510004655,None,ScrollDown,정답입니다,343.45678510004655,None,343.45678510004655,None,343.45678510004655,None,343.45678510004655,None,344.26303760008886,None,344.26303760008886,344.76304950006306,307.8442688998766,None,307.8442688998766,None,0.11203704,-0.09907407,1,0,0,0.01643656985834241,None,337.8435654998757,None,,,105,2023-03-29_19h07.37.357,FishGame,2022.1.1,58.843951744539645,
,2,나를 보내줘,6,Orange,A,0,0,ScrollUp,ScrollDown,Orange.png,3,NonTarget,NonTarget,0,0,0,0,,,,,,,,,,,,,,,,,,,,,0,1,1,1,,,,,,,,,,,,,,,,,,,,,,,,,,,,,,,,,,,,,,,,,,,,,,,,,,,,,,,,,,,,,,,,,,,,,,,,,,,,,1.746913582086563,0.9953563997987658,345.3870717000682,None,ScrollUp,정답입니다,345.3870717000682,None,345.3870717000682,None,345.3870717000682,None,345.3870717000682,None,346.2798057999462,None,346.2798057999462,346.77969749993645,,,,,,,,,,,,,,,,105,2023-03-29_19h07.37.357,FishGame,2022.1.1,58.843951744539645,
,3,넌 활발해,1,Green,B,5.666666666666667,5.6,ScrollUp,ScrollDown,Green.png,3,Positive,Incongruent,0,0,0,0,,,,,,,,,,,,,,,,,,,,,0,2,2,2,,,,,,,,,,,,,,,,,,,,,,,,,,,,,,,,,,,,,,,,,,,,,,,,,,,,,,,,,,,,,,,,,,,,,,,,,,,,,1.751543199022611,0.8791302000172436,347.40519790002145,None,ScrollUp,정답입니다,347.40519790002145,None,347.40519790002145,None,347.40519790002145,None,347.40519790002145,None,348.1796245998703,None,348.1796245998703,348.69635109999217,,,,,,,,,,,,,,,,105,2023-03-29_19h07.37.357,FishGame,2022.1.1,58.843951744539645,
,4,넌 논리적이야,2,Orange,A,5.666666666666666,4.633333333333334,ScrollDown,ScrollUp,Orange.png,3,Positive,Congruent,0,0,0,0,,,,,,,,,,,,,,,,,,,,,0,3,3,3,,,,,,,,,,,,,,,,,,,,,,,,,,,,,,,,,,,,,,,,,,,,,,,,,,,,,,,,,,,,,,,,,,,,,,,,,,,,,1.0570987462997437,0.8985286999959499,349.3182870999444,None,ScrollDown,정답입니다,349.3182870999444,None,349.3182870999444,None,349.3182870999444,None,349.3182870999444,None,350.10996140004136,None,350.10996140004136,350.61004860000685,,,,,,,,,,,,,,,,105,2023-03-29_19h07.37.357,FishGame,2022.1.1,58.843951744539645,
,5,넌 과묵해,3,Orange,A,3.875,4.4,ScrollDown,ScrollUp,Orange.png,3,Neutral,Neutral,0,0,0,0,,,,,,,,,,,,,,,,,,,,,0,4,4,4,,,,,,,,,,,,,,,,,,,,,,,,,,,,,,,,,,,,,,,,,,,,,,,,,,,,,,,,,,,,,,,,,,,,,,,,,,,,,1,0.9123831000179052,351.24480800004676,None,ScrollDown,정답입니다,351.24480800004676,None,351.24480800004676,None,351.24480800004676,None,351.24480800004676,None,352.04332410008647,None,352.04332410008647,352.5433221999556,,,,,,,,,,,,,,,,105,2023-03-29_19h07.37.357,FishGame,2022.1.1,58.843951744539645,
,6,나를 데려가줘,6,Green,B,0,0,ScrollDown,ScrollUp,Green.png,3,NonTarget,NonTarget,0,0,0,0,,,,,,,,,,,,,,,,,,,,,0,5,5,5,,,,,,,,,,,,,,,,,,,,,,,,,,,,,,,,,,,,,,,,,,,,,,,,,,,,,,,,,,,,,,,,,,,,,,,,,,,,,1,0.9122010001447052,353.1683300998993,None,ScrollDown,정답입니다,353.1683300998993,None,353.1683300998993,None,353.1683300998993,None,353.1683300998993,None,353.97959650005214,None,353.97959650005214,354.4796325999778,,,,,,,,,,,,,,,,105,2023-03-29_19h07.37.357,FishGame,2022.1.1,58.843951744539645,
,7,넌 미숙해,4,Green,B,3,3,ScrollUp,ScrollDown,Green.png,3,Negative,Congruent,0,0,0,0,,,,,,,,,,,,,,,,,,,,,0,6,6,6,,,,,,,,,,,,,,,,,,,,,,,,,,,,,,,,,,,,,,,,,,,,,,,,,,,,,,,,,,,,,,,,,,,,,,,,,,,,,1.8287036965290706,0.8953895000740886,355.10185500001535,None,ScrollUp,정답입니다,355.10185500001535,None,355.10185500001535,None,355.10185500001535,None,355.10185500001535,None,355.8962260999251,None,355.8962260999251,356.39622920006514,,,,,,,,,,,,,,,,105,2023-03-29_19h07.37.357,FishGame,2022.1.1,58.843951744539645,
,8,나를 보내줘,6,Orange,A,0,0,ScrollUp,ScrollDown,Orange.png,3,NonTarget,NonTarget,0,0,0,0,,,,,,,,,,,,,,,,,,,,,0,7,7,7,,,,,,,,,,,,,,,,,,,,,,,,,,,,,,,,,,,,,,,,,,,,,,,,,,,,,,,,,,,,,,,,,,,,,,,,,,,,,1.8564814726511638,0.9578126999549568,357.0253397000488,None,ScrollUp,정답입니다,357.0253397000488,None,357.0253397000488,None,357.0253397000488,None,357.0253397000488,None,357.87944809999317,None,357.87944809999317,358.3794472999871,,,,,,,,,,,,,,,,105,2023-03-29_19h07.37.357,FishGame,2022.1.1,58.843951744539645,
,9,넌 자신만만해,3,Green,B,4.833333333333334,4.333333333333333,ScrollUp,ScrollDown,Green.png,3,Neutral,Neutral,0,0,0,0,,,,,,,,,,,,,,,,,,,,,0,8,8,8,,,,,,,,,,,,,,,,,,,,,,,,,,,,,,,,,,,,,,,,,,,,,,,,,,,,,,,,,,,,,,,,,,,,,,,,,,,,,1.7314814925193787,0.8958456998225302,359.00189059996046,None,ScrollUp,정답입니다,359.00189059996046,None,359.00189059996046,None,359.00189059996046,None,359.00189059996046,None,359.7961325000506,None,359.7961325000506,360.29612509999424,,,,,,,,,,,,,,,,105,2023-03-29_19h07.37.357,FishGame,2022.1.1,58.843951744539645,
,10,넌 탐욕스러워,5,Orange,A,2.25,2.1,ScrollDown,ScrollUp,Orange.png,3,Negative,Incongruent,0,0,0,0,,,,,,,,,,,,,,,,,,,,,0,9,9,9,,,,,,,,,,,,,,,,,,,,,,,,,,,,,,,,,,,,,,,,,,,,,,,,,,,,,,,,,,,,,,,,,,,,,,,,,,,,,1.0679012437661488,0.8405329000670463,360.9280739000533,None,ScrollDown,정답입니다,360.9280739000533,None,360.9280739000533,None,360.9280739000533,None,360.9280739000533,None,361.6597633000929,None,361.6597633000929,362.15977469994687,,,,,,,,,,,,,,,,105,2023-03-29_19h07.37.357,FishGame,2022.1.1,58.843951744539645,
,11,넌 인기있어,2,Orange,A,5.458333333333333,4.5,ScrollDown,ScrollUp,Orange.png,3,Positive,Congruent,0,0,0,0,,,,,,,,,,,,,,,,,,,,,0,10,10,10,,,,,,,,,,,,,,,,,,,,,,,,,,,,,,,,,,,,,,,,,,,,,,,,,,,,,,,,,,,,,,,,,,,,,,,,,,,,,1,0.8796932999975979,362.79697760008276,None,ScrollDown,정답입니다,362.79697760008276,None,362.79697760008276,None,362.79697760008276,None,362.79697760008276,None,363.5601292999927,None,363.5601292999927,364.06276679993607,,,,,,,,,,,,,,,,105,2023-03-29_19h07.37.357,FishGame,2022.1.1,58.843951744539645,
,12,나를 데려가줘,6,Green,B,0,0,ScrollDown,ScrollUp,Green.png,3,NonTarget,NonTarget,0,0,0,0,,,,,,,,,,,,,,,,,,,,,0,11,11,11,,,,,,,,,,,,,,,,,,,,,,,,,,,,,,,,,,,,,,,,,,,,,,,,,,,,,,,,,,,,,,,,,,,,,,,,,,,,,1,1.0147369001060724,364.68305650004186,None,ScrollDown,정답입니다,364.68305650004186,None,364.68305650004186,None,364.68305650004186,None,364.68305650004186,None,365.59610560000874,None,365.59610560000874,366.0959938999731,,,,,,,,,,,,,,,,105,2023-03-29_19h07.37.357,FishGame,2022.1.1,58.843951744539645,
,13,넌 뛰어나,2,Green,B,6.166666666666667,4,ScrollUp,ScrollDown,Green.png,3,Positive,Incongruent,0,0,0,0,,,,,,,,,,,,,,,,,,,,,0,12,12,12,,,,,,,,,,,,,,,,,,,,,,,,,,,,,,,,,,,,,,,,,,,,,,,,,,,,,,,,,,,,,,,,,,,,,,,,,,,,,1.8163580348094304,0.8745321000460535,366.73006809991784,None,ScrollUp,정답입니다,366.73006809991784,None,366.73006809991784,None,366.73006809991784,None,366.73006809991784,None,367.4932323999237,None,367.4932323999237,367.9959273999557,,,,,,,,,,,,,,,,105,2023-03-29_19h07.37.357,FishGame,2022.1.1,58.843951744539645,
,14,넌 낙관적이야,1,Orange,A,5.75,5.8,ScrollDown,ScrollUp,Orange.png,3,Positive,Congruent,0,0,0,0,,,,,,,,,,,,,,,,,,,,,0,13,13,13,,,,,,,,,,,,,,,,,,,,,,,,,,,,,,,,,,,,,,,,,,,,,,,,,,,,,,,,,,,,,,,,,,,,,,,,,,,,,1.120370368162791,0.9125451000872999,368.62311580008827,None,ScrollDown,정답입니다,368.62311580008827,None,368.62311580008827,None,368.62311580008827,None,368.62311580008827,None,369.4264102000743,None,369.4264102000743,369.9292242000811,,,,,,,,,,,,,,,,105,2023-03-29_19h07.37.357,FishGame,2022.1.1,58.843951744539645,
,15,넌 산만해,4,Green,B,2.695652173913043,3.033333333333333,ScrollUp,ScrollDown,Green.png,3,Negative,Congruent,0,0,0,0,,,,,,,,,,,,,,,,,,,,,0,14,14,14,,,,,,,,,,,,,,,,,,,,,,,,,,,,,,,,,,,,,,,,,,,,,,,,,,,,,,,,,,,,,,,,,,,,,,,,,,,,,1.702160490055879,0.8817445999011397,370.55337999993935,None,ScrollUp,정답입니다,370.55337999993935,None,370.55337999993935,None,370.55337999993935,None,370.55337999993935,None,371.3265404999256,None,371.3265404999256,371.8292234998662,,,,,,,,,,,,,,,,105,2023-03-29_19h07.37.357,FishGame,2022.1.1,58.843951744539645,
,16,나를 보내줘,6,Orange,A,0,0,ScrollUp,ScrollDown,Orange.png,3,NonTarget,NonTarget,0,0,0,0,,,,,,,,,,,,,,,,,,,,,0,15,15,15,,,,,,,,,,,,,,,,,,,,,,,,,,,,,,,,,,,,,,,,,,,,,,,,,,,,,,,,,,,,,,,,,,,,,,,,,,,,,1.89969136317571,1.028768700081855,372.457925299881,None,ScrollUp,정답입니다,372.457925299881,None,372.457925299881,None,372.457925299881,None,372.457925299881,None,373.3761970999185,None,373.3761970999185,373.8761648000218,,,,,,,,,,,,,,,,105,2023-03-29_19h07.37.357,FishGame,2022.1.1,58.843951744539645,
,17,넌 교활해,5,Green,B,2.333333333333333,2.133333333333333,ScrollUp,ScrollDown,Green.png,3,Negative,Congruent,0,0,0,0,,,,,,,,,,,,,,,,,,,,,0,16,16,16,,,,,,,,,,,,,,,,,,,,,,,,,,,,,,,,,,,,,,,,,,,,,,,,,,,,,,,,,,,,,,,,,,,,,,,,,,,,,1.7824074029922485,1.018195000011474,374.5004241000861,None,ScrollUp,정답입니다,374.5004241000861,None,374.5004241000861,None,374.5004241000861,None,374.5004241000861,None,375.4099047000054,None,375.4099047000054,375.91249109990895,,,,,,,,,,,,,,,,105,2023-03-29_19h07.37.357,FishGame,2022.1.1,58.843951744539645,
,18,나를 보내줘,6,Orange,A,0,0,ScrollUp,ScrollDown,Orange.png,3,NonTarget,NonTarget,0,0,0,0,,,,,,,,,,,,,,,,,,,,,0,17,17,17,,,,,,,,,,,,,,,,,,,,,,,,,,,,,,,,,,,,,,,,,,,,,,,,,,,,,,,,,,,,,,,,,,,,,,,,,,,,,1.858024686574936,0.9318218000698835,376.5368415999692,None,ScrollUp,정답입니다,376.5368415999692,None,376.5368415999692,None,376.5368415999692,None,376.5368415999692,None,377.36253240006045,None,377.36253240006045,377.86247829999775,,,,,,,,,,,,,,,,105,2023-03-29_19h07.37.357,FishGame,2022.1.1,58.843951744539645,
,19,넌 불친절해,5,Green,B,2.208333333333333,2.033333333333333,ScrollUp,ScrollDown,Green.png,3,Negative,Congruent,0,0,0,0,,,,,,,,,,,,,,,,,,,,,0,18,18,18,,,,,,,,,,,,,,,,,,,,,,,,,,,,,,,,,,,,,,,,,,,,,,,,,,,,,,,,,,,,,,,,,,,,,,,,,,,,,1.7453703681627908,0.9953403000254184,378.49184040003456,None,ScrollUp,정답입니다,378.49184040003456,None,378.49184040003456,None,378.49184040003456,None,378.49184040003456,None,379.3760903000366,None,379.3760903000366,379.87604380003177,,,,,,,,,,,,,,,,105,2023-03-29_19h07.37.357,FishGame,2022.1.1,58.843951744539645,
,20,넌 지적이야,2,Green,B,5.75,4.366666666666666,ScrollUp,ScrollDown,Green.png,3,Positive,Incongruent,0,0,0,0,,,,,,,,,,,,,,,,,,,,,0,19,19,19,,,,,,,,,,,,,,,,,,,,,,,,,,,,,,,,,,,,,,,,,,,,,,,,,,,,,,,,,,,,,,,,,,,,,,,,,,,,,1.733024681607882,0.8149309998843819,380.49829509994015,None,ScrollUp,정답입니다,380.49829509994015,None,380.49829509994015,None,380.49829509994015,None,380.49829509994015,None,381.2124641998671,None,381.2124641998671,381.71239300002344,,,,,,,,,,,,,,,,105,2023-03-29_19h07.37.357,FishGame,2022.1.1,58.843951744539645,
,21,넌 우유부단해,4,Orange,A,2.666666666666667,3.166666666666667,ScrollDown,ScrollUp,Orange.png,3,Negative,Incongruent,0,0,0,0,,,,,,,,,,,,,,,,,,,,,0,20,20,20,,,,,,,,,,,,,,,,,,,,,,,,,,,,,,,,,,,,,,,,,,,,,,,,,,,,,,,,,,,,,,,,,,,,,,,,,,,,,1.0324074228604634,0.8468909000512213,382.350170499878,None,ScrollDown,정답입니다,382.350170499878,None,382.350170499878,None,382.350170499878,None,382.350170499878,None,383.0790685999673,None,383.0790685999673,383.5789995000232,,,,,,,,,,,,,,,,105,2023-03-29_19h07.37.357,FishGame,2022.1.1,58.843951744539645,
,22,나를 데려가줘,6,Green,B,0,0,ScrollDown,ScrollUp,Green.png,3,NonTarget,NonTarget,0,0,0,0,,,,,,,,,,,,,,,,,,,,,0,21,21,21,,,,,,,,,,,,,,,,,,,,,,,,,,,,,,,,,,,,,,,,,,,,,,,,,,,,,,,,,,,,,,,,,,,,,,,,,,,,,1.016975333293279,0.8954602999147028,384.20151509996504,None,ScrollDown,정답입니다,384.20151509996504,None,384.20151509996504,None,384.20151509996504,None,384.20151509996504,None,384.9928695000708,None,384.9928695000708,385.495519899996,,,,,,,,,,,,,,,,105,2023-03-29_19h07.37.357,FishGame,2022.1.1,58.843951744539645,
,23,넌 성실해,1,Green,B,6.041666666666666,5.7,ScrollUp,ScrollDown,Green.png,3,Positive,Incongruent,0,0,0,0,,,,,,,,,,,,,,,,,,,,,0,22,22,22,,,,,,,,,,,,,,,,,,,,,,,,,,,,,,,,,,,,,,,,,,,,,,,,,,,,,,,,,,,,,,,,,,,,,,,,,,,,,1.8225308656692505,0.8810158001724631,386.1171969999559,None,ScrollUp,정답입니다,386.1171969999559,None,386.1171969999559,None,386.1171969999559,None,386.1171969999559,None,386.89283000002615,None,386.89283000002615,387.39284339989536,,,,,,,,,,,,,,,,105,2023-03-29_19h07.37.357,FishGame,2022.1.1,58.843951744539645,
,24,넌 현실주의적이야,3,Orange,A,4.625,4.4,ScrollDown,ScrollUp,Orange.png,3,Neutral,Neutral,0,0,0,0,,,,,,,,,,,,,,,,,,,,,0,23,23,23,,,,,,,,,,,,,,,,,,,,,,,,,,,,,,,,,,,,,,,,,,,,,,,,,,,,,,,,,,,,,,,,,,,,,,,,,,,,,1,0.8958753999322653,388.0206736000255,None,ScrollDown,정답입니다,388.0206736000255,None,388.0206736000255,None,388.0206736000255,None,388.0206736000255,None,388.81224399991333,None,388.81224399991333,389.3288098999765,,,,,,,,,,,,,,,,105,2023-03-29_19h07.37.357,FishGame,2022.1.1,58.843951744539645,
,25,넌 진실돼,1,Orange,A,6.625,5.566666666666666,ScrollDown,ScrollUp,Orange.png,3,Positive,Congruent,0,0,0,0,,,,,,,,,,,,,,,,,,,,,0,24,24,24,,,,,,,,,,,,,,,,,,,,,,,,,,,,,,,,,,,,,,,,,,,,,,,,,,,,,,,,,,,,,,,,,,,,,,,,,,,,,1.0061728358268738,0.8289783000946045,389.9386505999137,None,ScrollDown,정답입니다,389.9386505999137,None,389.9386505999137,None,389.9386505999137,None,389.9386505999137,None,390.662186200032,None,390.662186200032,391.16218969994225,,,,,,,,,,,,,,,,105,2023-03-29_19h07.37.357,FishGame,2022.1.1,58.843951744539645,
,26,넌 천진난만해,3,Green,B,4.958333333333334,4.833333333333333,ScrollUp,ScrollDown,Green.png,3,Neutral,Neutral,0,0,0,0,,,,,,,,,,,,,,,,,,,,,0,25,25,25,,,,,,,,,,,,,,,,,,,,,,,,,,,,,,,,,,,,,,,,,,,,,,,,,,,,,,,,,,,,,,,,,,,,,,,,,,,,,1.9413580397764842,0.9121123000513762,391.79270029999316,None,ScrollUp,정답입니다,391.79270029999316,None,391.79270029999316,None,391.79270029999316,None,391.79270029999316,None,392.592452700017,None,392.592452700017,393.0924404000398,,,,,,,,,,,,,,,,105,2023-03-29_19h07.37.357,FishGame,2022.1.1,58.843951744539645,
,27,넌 교양없어,5,Orange,A,2.416666666666667,2.2,ScrollDown,ScrollUp,Orange.png,3,Negative,Incongruent,0,0,0,0,,,,,,,,,,,,,,,,,,,,,0,26,26,26,,,,,,,,,,,,,,,,,,,,,,,,,,,,,,,,,,,,,,,,,,,,,,,,,,,,,,,,,,,,,,,,,,,,,,,,,,,,,1.0462962985038757,0.8153628001455218,393.7171901999973,None,ScrollDown,정답입니다,393.7171901999973,None,393.7171901999973,None,393.7171901999973,None,393.7171901999973,None,394.4258244999219,None,394.4258244999219,394.92881030007266,,,,,,,,,,,,,,,,105,2023-03-29_19h07.37.357,FishGame,2022.1.1,58.843951744539645,
,28,나를 보내줘,6,Orange,A,0,0,ScrollUp,ScrollDown,Orange.png,3,NonTarget,NonTarget,0,0,0,0,,,,,,,,,,,,,,,,,,,,,0,27,27,27,,,,,,,,,,,,,,,,,,,,,,,,,,,,,,,,,,,,,,,,,,,,,,,,,,,,,,,,,,,,,,,,,,,,,,,,,,,,,1.8333333383003871,0.9651864001061767,395.5541205999907,None,ScrollUp,정답입니다,395.5541205999907,None,395.5541205999907,None,395.5541205999907,None,395.5541205999907,None,396.41218609991483,None,396.41218609991483,396.9120759998914,,,,,,,,,,,,,,,,105,2023-03-29_19h07.37.357,FishGame,2022.1.1,58.843951744539645,
,29,넌 엉뚱스러워,3,Orange,A,4.166666666666667,4.133333333333334,ScrollDown,ScrollUp,Orange.png,3,Neutral,Neutral,0,0,0,0,,,,,,,,,,,,,,,,,,,,,0,28,28,28,,,,,,,,,,,,,,,,,,,,,,,,,,,,,,,,,,,,,,,,,,,,,,,,,,,,,,,,,,,,,,,,,,,,,,,,,,,,,1,0.9120146001223475,397.53963240003213,None,ScrollDown,정답입니다,397.53963240003213,None,397.53963240003213,None,397.53963240003213,None,397.53963240003213,None,398.3425620000344,None,398.3425620000344,398.8453001999296,,,,,,,,,,,,,,,,105,2023-03-29_19h07.37.357,FishGame,2022.1.1,58.843951744539645,
,30,넌 무지해,4,Green,B,2.541666666666667,3.066666666666667,ScrollUp,ScrollDown,Green.png,3,Negative,Congruent,0,0,0,0,,,,,,,,,,,,,,,,,,,,,0,29,29,29,,,,,,,,,,,,,,,,,,,,,,,,,,,,,,,,,,,,,,,,,,,,,,,,,,,,,,,,,,,,,,,,,,,,,,,,,,,,,1.9182098805904388,0.8625662999693304,399.46696750004776,None,ScrollUp,정답입니다,399.46696750004776,None,399.46696750004776,None,399.46696750004776,None,399.46696750004776,None,400.2258937000297,None,400.2258937000297,400.7285565000493,,,,,,,,,,,,,,,,105,2023-03-29_19h07.37.357,FishGame,2022.1.1,58.843951744539645,
,31,넌 음울해,5,Green,B,2.25,2.233333333333333,ScrollUp,ScrollDown,Green.png,3,Negative,Congruent,0,0,0,0,,,,,,,,,,,,,,,,,,,,,0,30,30,30,,,,,,,,,,,,,,,,,,,,,,,,,,,,,,,,,,,,,,,,,,,,,,,,,,,,,,,,,,,,,,,,,,,,,,,,,,,,,1.9552469154198964,0.8983960000332445,401.3510221000761,None,ScrollUp,정답입니다,401.3510221000761,None,401.3510221000761,None,401.3510221000761,None,401.3510221000761,None,402.1452426998876,None,402.1452426998876,402.6452301000245,,,,,,,,,,,,,,,,105,2023-03-29_19h07.37.357,FishGame,2022.1.1,58.843951744539645,
,32,넌 냉소적이야,5,Orange,A,2.916666666666667,2.4,ScrollDown,ScrollUp,Orange.png,3,Negative,Incongruent,0,0,0,0,,,,,,,,,,,,,,,,,,,,,0,31,31,31,,,,,,,,,,,,,,,,,,,,,,,,,,,,,,,,,,,,,,,,,,,,,,,,,,,,,,,,,,,,,,,,,,,,,,,,,,,,,1.0046296219031017,0.7960402998141944,403.26992230000906,None,ScrollDown,정답입니다,403.26992230000906,None,403.26992230000906,None,403.26992230000906,None,403.26992230000906,None,403.96186979999766,None,403.96186979999766,404.46187729993835,,,,,,,,,,,,,,,,105,2023-03-29_19h07.37.357,FishGame,2022.1.1,58.843951744539645,
,33,나를 데려가줘,6,Green,B,0,0,ScrollDown,ScrollUp,Green.png,3,NonTarget,NonTarget,0,0,0,0,,,,,,,,,,,,,,,,,,,,,0,32,32,32,,,,,,,,,,,,,,,,,,,,,,,,,,,,,,,,,,,,,,,,,,,,,,,,,,,,,,,,,,,,,,,,,,,,,,,,,,,,,1,0.9456839000340551,405.08415320003405,None,ScrollDown,정답입니다,405.08415320003405,None,405.08415320003405,None,405.08415320003405,None,405.08415320003405,None,405.9286323999986,None,405.9286323999986,406.4421737000812,,,,,,,,,,,,,,,,105,2023-03-29_19h07.37.357,FishGame,2022.1.1,58.843951744539645,
,34,넌 쾌활해,1,Orange,A,5.541666666666666,5.733333333333333,ScrollDown,ScrollUp,Orange.png,3,Positive,Congruent,0,0,0,0,,,,,,,,,,,,,,,,,,,,,0,33,33,33,,,,,,,,,,,,,,,,,,,,,,,,,,,,,,,,,,,,,,,,,,,,,,,,,,,,,,,,,,,,,,,,,,,,,,,,,,,,,1.060185174147288,0.830717499833554,407.0716653999407,None,ScrollDown,정답입니다,407.0716653999407,None,407.0716653999407,None,407.0716653999407,None,407.0716653999407,None,407.79215459991246,None,407.79215459991246,408.29215619992465,,,,,,,,,,,,,,,,105,2023-03-29_19h07.37.357,FishGame,2022.1.1,58.843951744539645,
,35,나를 보내줘,6,Orange,A,0,0,ScrollUp,ScrollDown,Orange.png,3,NonTarget,NonTarget,0,0,0,0,,,,,,,,,,,,,,,,,,,,,0,34,34,34,,,,,,,,,,,,,,,,,,,,,,,,,,,,,,,,,,,,,,,,,,,,,,,,,,,,,,,,,,,,,,,,,,,,,,,,,,,,,1.8703703731298447,0.9346545999869704,408.91700719995424,None,ScrollUp,정답입니다,408.91700719995424,None,408.91700719995424,None,408.91700719995424,None,408.91700719995424,None,409.74531150003895,None,409.74531150003895,410.24514880008064,,,,,,,,,,,,,,,,105,2023-03-29_19h07.37.357,FishGame,2022.1.1,58.843951744539645,
,36,넌 명랑해,1,Green,B,5.739130434782609,5.666666666666667,ScrollUp,ScrollDown,Green.png,3,Positive,Incongruent,0,0,0,0,,,,,,,,,,,,,,,,,,,,,0,35,35,35,,,,,,,,,,,,,,,,,,,,,,,,,,,,,,,,,,,,,,,,,,,,,,,,,,,,,,,,,,,,,,,,,,,,,,,,,,,,,1.7391975373029709,0.8454162999987602,410.86979510006495,None,ScrollUp,정답입니다,410.86979510006495,None,410.86979510006495,None,410.86979510006495,None,410.86979510006495,None,411.6118995998986,None,411.6118995998986,412.12538839993067,,,,,,,,,,,,,,,,105,2023-03-29_19h07.37.357,FishGame,2022.1.1,58.843951744539645,
,37,넌 멍해,4,Orange,A,2.833333333333333,3.4,ScrollDown,ScrollUp,Orange.png,3,Negative,Incongruent,0,0,0,0,,,,,,,,,,,,,,,,,,,,,0,36,36,36,,,,,,,,,,,,,,,,,,,,,,,,,,,,,,,,,,,,,,,,,,,,,,,,,,,,,,,,,,,,,,,,,,,,,,,,,,,,,1,1.0651426000986248,412.75030339998193,None,ScrollDown,정답입니다,412.75030339998193,None,412.75030339998193,None,412.75030339998193,None,412.75030339998193,None,413.7087719999254,None,413.7087719999254,414.20874279993586,,,,,,,,,,,,,,,,105,2023-03-29_19h07.37.357,FishGame,2022.1.1,58.843951744539645,
,38,나를 데려가줘,6,Green,B,0,0,ScrollDown,ScrollUp,Green.png,3,NonTarget,NonTarget,0,0,0,0,,,,,,,,,,,,,,,,,,,,,0,37,37,37,,,,,,,,,,,,,,,,,,,,,,,,,,,,,,,,,,,,,,,,,,,,,,,,,,,,,,,,,,,,,,,,,,,,,,,,,,,,,1.016975333293279,0.995619900058955,414.8343368000351,None,ScrollDown,정답입니다,414.8343368000351,None,414.8343368000351,None,414.8343368000351,None,414.8343368000351,None,415.728389200056,None,415.728389200056,416.2283731000498,,,,,,,,,,,,,,,,105,2023-03-29_19h07.37.357,FishGame,2022.1.1,58.843951744539645,
,39,넌 현명해,2,Orange,A,6.541666666666666,4.533333333333333,ScrollDown,ScrollUp,Orange.png,3,Positive,Congruent,0,0,0,0,,,,,,,,,,,,,,,,,,,,,0,38,38,38,,,,,,,,,,,,,,,,,,,,,,,,,,,,,,,,,,,,,,,,,,,,,,,,,,,,,,,,,,,,,,,,,,,,,,,,,,,,,1,0.8453025999478996,416.85323289991356,None,ScrollDown,정답입니다,416.85323289991356,None,416.85323289991356,None,416.85323289991356,None,416.85323289991356,None,417.5923121999949,None,417.5923121999949,418.0919240000658,,,,,,,,,,,,,,,,105,2023-03-29_19h07.37.357,FishGame,2022.1.1,58.843951744539645,
,40,넌 수줍어,3,Green,B,3.541666666666666,4.366666666666666,ScrollUp,ScrollDown,Green.png,3,Neutral,Neutral,0,0,0,0,,,,,,,,,,,,,,,,,,,,,0,39,39,39,,,,,,,,,,,,,,,,,,,,,,,,,,,,,,,,,,,,,,,,,,,,,,,,,,,,,,,,,,,,,,,,,,,,,,,,,,,,,1.9783950746059418,0.9143964000977576,418.7146032000892,None,ScrollUp,정답입니다,418.7146032000892,None,418.7146032000892,None,418.7146032000892,None,418.7146032000892,None,419.52527950005606,None,419.52527950005606,420.025280199945,,,,,,,,,,,,,,,,105,2023-03-29_19h07.37.357,FishGame,2022.1.1,58.843951744539645,
,41,나를 데려가줘,6,Green,B,0,0,ScrollDown,ScrollUp,Green.png,3,NonTarget,NonTarget,0,0,0,0,,,,,,,,,,,,,,,,,,,,,0,40,40,40,,,,,,,,,,,,,,,,,,,,,,,,,,,,,,,,,,,,,,,,,,,,,,,,,,,,,,,,,,,,,,,,,,,,,,,,,,,,,1,0.8457390998955816,420.6515522999689,None,ScrollDown,정답입니다,420.6515522999689,None,420.6515522999689,None,420.6515522999689,None,420.6515522999689,None,421.3949392999057,None,421.3949392999057,421.8949062000029,,,,,,,,,,,,,,,,105,2023-03-29_19h07.37.357,FishGame,2022.1.1,58.843951744539645,
,42,넌 성숙해,2,Green,B,5.833333333333333,4.533333333333333,ScrollUp,ScrollDown,Green.png,3,Positive,Incongruent,0,0,0,0,,,,,,,,,,,,,,,,,,,,,0,41,41,41,,,,,,,,,,,,,,,,,,,,,,,,,,,,,,,,,,,,,,,,,,,,,,,,,,,,,,,,,,,,,,,,,,,,,,,,,,,,,1.7916666616996129,0.9984732999000698,422.51726099988446,None,ScrollUp,정답입니다,422.51726099988446,None,422.51726099988446,None,422.51726099988446,None,422.51726099988446,None,423.4088846000377,None,423.4088846000377,423.91611069999635,,,,,,,,,,,,,,,,105,2023-03-29_19h07.37.357,FishGame,2022.1.1,58.843951744539645,
,1,넌 매력적이야,2,Green,B,6.125,4.666666666666667,ScrollUp,ScrollDown,Green.png,4,Positive,Incongruent,0,0,0,0,,,,,,,,,,,,,,,,,,,,,,,,,0,0,0,0,,,,,,,,,,,,,,,,,,,,,,,,,,,,,,,,455.19119829987176,456.6944132000208,456.71108589996584,457.6610212000087,457.71107499999925,458.6610228000209,458.6610228000209,None,,,,,,,,,,,,,,,,,,,,,,,,,,,,,,,,,,1.9336419701576233,0.929909999947995,459.7521488999482,None,ScrollUp,정답입니다,459.7521488999482,None,459.7521488999482,None,459.7521488999482,None,459.7521488999482,None,460.5774185000919,None,460.5774185000919,461.0773463998921,424.4084789000917,None,424.4084789000917,None,0.17962962,-0.05925926,1,0,0,0.01625177008099854,None,454.40788610000163,None,,,105,2023-03-29_19h07.37.357,FishGame,2022.1.1,58.843951744539645,
,2,나를 보내줘,6,Orange,A,0,0,ScrollUp,ScrollDown,Orange.png,4,NonTarget,NonTarget,0,0,0,0,,,,,,,,,,,,,,,,,,,,,,,,,0,1,1,1,,,,,,,,,,,,,,,,,,,,,,,,,,,,,,,,,,,,,,,,,,,,,,,,,,,,,,,,,,,,,,,,,,,,,,,,,2,0.9289265000261366,461.70197149994783,None,ScrollUp,정답입니다,461.70197149994783,None,461.70197149994783,None,461.70197149994783,None,461.70197149994783,None,462.52742490009405,None,462.52742490009405,463.02466919994913,,,,,,,,,,,,,,,,105,2023-03-29_19h07.37.357,FishGame,2022.1.1,58.843951744539645,
,3,넌 조심스러워,3,Orange,A,4.791666666666666,4.666666666666667,ScrollDown,ScrollUp,Orange.png,4,Neutral,Neutral,0,0,0,0,,,,,,,,,,,,,,,,,,,,,,,,,0,2,2,2,,,,,,,,,,,,,,,,,,,,,,,,,,,,,,,,,,,,,,,,,,,,,,,,,,,,,,,,,,,,,,,,,,,,,,,,,1.0663580298423767,0.8292821999639273,463.65265489998274,None,ScrollDown,정답입니다,463.65265489998274,None,463.65265489998274,None,463.65265489998274,None,463.65265489998274,None,464.37734030000865,None,464.37734030000865,464.8817640999332,,,,,,,,,,,,,,,,105,2023-03-29_19h07.37.357,FishGame,2022.1.1,58.843951744539645,
,4,넌 철학적이야,3,Green,B,4.5,4.266666666666667,ScrollUp,ScrollDown,Green.png,4,Neutral,Neutral,0,0,0,0,,,,,,,,,,,,,,,,,,,,,,,,,0,3,3,3,,,,,,,,,,,,,,,,,,,,,,,,,,,,,,,,,,,,,,,,,,,,,,,,,,,,,,,,,,,,,,,,,,,,,,,,,1.959876557191213,0.8985212000552565,465.5135109999683,None,ScrollUp,정답입니다,465.5135109999683,None,465.5135109999683,None,465.5135109999683,None,465.5135109999683,None,466.30766059993766,None,466.30766059993766,466.80761689995416,,,,,,,,,,,,,,,,105,2023-03-29_19h07.37.357,FishGame,2022.1.1,58.843951744539645,
,5,넌 쩨쩨해,5,Orange,A,2.375,2.133333333333333,ScrollDown,ScrollUp,Orange.png,4,Negative,Incongruent,0,0,0,0,,,,,,,,,,,,,,,,,,,,,,,,,0,4,4,4,,,,,,,,,,,,,,,,,,,,,,,,,,,,,,,,,,,,,,,,,,,,,,,,,,,,,,,,,,,,,,,,,,,,,,,,,1.0061728358268738,0.9817258000839502,467.43725379998796,None,ScrollDown,정답입니다,467.43725379998796,None,467.43725379998796,None,467.43725379998796,None,467.43725379998796,None,468.31062930007465,None,468.31062930007465,468.8106358998921,,,,,,,,,,,,,,,,105,2023-03-29_19h07.37.357,FishGame,2022.1.1,58.843951744539645,
,6,나를 데려가줘,6,Green,B,0,0,ScrollDown,ScrollUp,Green.png,4,NonTarget,NonTarget,0,0,0,0,,,,,,,,,,,,,,,,,,,,,,,,,0,5,5,5,,,,,,,,,,,,,,,,,,,,,,,,,,,,,,,,,,,,,,,,,,,,,,,,,,,,,,,,,,,,,,,,,,,,,,,,,1.0200617114702861,0.9289913999382406,469.43292939988896,None,ScrollDown,정답입니다,469.43292939988896,None,469.43292939988896,None,469.43292939988896,None,469.43292939988896,None,470.2606126999017,None,470.2606126999017,470.7605623998679,,,,,,,,,,,,,,,,105,2023-03-29_19h07.37.357,FishGame,2022.1.1,58.843951744539645,
,7,넌 고집불통이야,5,Green,B,2.875,2,ScrollUp,ScrollDown,Green.png,4,Negative,Congruent,0,0,0,0,,,,,,,,,,,,,,,,,,,,,,,,,0,6,6,6,,,,,,,,,,,,,,,,,,,,,,,,,,,,,,,,,,,,,,,,,,,,,,,,,,,,,,,,,,,,,,,,,,,,,,,,,1.9753086467583973,0.8299610000103712,471.4051405999344,None,ScrollUp,정답입니다,471.4051405999344,None,471.4051405999344,None,471.4051405999344,None,471.4051405999344,None,472.12419550004415,None,472.12419550004415,472.6242485998664,,,,,,,,,,,,,,,,105,2023-03-29_19h07.37.357,FishGame,2022.1.1,58.843951744539645,
,8,넌 무심해,4,Orange,A,2.875,3.2,ScrollDown,ScrollUp,Orange.png,4,Negative,Incongruent,0,0,0,0,,,,,,,,,,,,,,,,,,,,,,,,,0,7,7,7,,,,,,,,,,,,,,,,,,,,,,,,,,,,,,,,,,,,,,,,,,,,,,,,,,,,,,,,,,,,,,,,,,,,,,,,,1,0.91805289988406,473.24840299994685,None,ScrollDown,정답입니다,473.24840299994685,None,473.24840299994685,None,473.24840299994685,None,473.24840299994685,None,474.0605150000192,None,474.0605150000192,474.5604989998974,,,,,,,,,,,,,,,,105,2023-03-29_19h07.37.357,FishGame,2022.1.1,58.843951744539645,
,9,넌 정겨워,1,Orange,A,5.791666666666667,5.666666666666667,ScrollDown,ScrollUp,Orange.png,4,Positive,Congruent,0,0,0,0,,,,,,,,,,,,,,,,,,,,,,,,,0,8,8,8,,,,,,,,,,,,,,,,,,,,,,,,,,,,,,,,,,,,,,,,,,,,,,,,,,,,,,,,,,,,,,,,,,,,,,,,,1,0.8315924999769777,475.18817440001294,None,ScrollDown,정답입니다,475.18817440001294,None,475.18817440001294,None,475.18817440001294,None,475.18817440001294,None,475.90777759999037,None,475.90777759999037,476.4103856999427,,,,,,,,,,,,,,,,105,2023-03-29_19h07.37.357,FishGame,2022.1.1,58.843951744539645,
,10,나를 데려가줘,6,Green,B,0,0,ScrollDown,ScrollUp,Green.png,4,NonTarget,NonTarget,0,0,0,0,,,,,,,,,,,,,,,,,,,,,,,,,0,9,9,9,,,,,,,,,,,,,,,,,,,,,,,,,,,,,,,,,,,,,,,,,,,,,,,,,,,,,,,,,,,,,,,,,,,,,,,,,1,0.9245857999194413,477.0422590000089,None,ScrollDown,정답입니다,477.0422590000089,None,477.0422590000089,None,477.0422590000089,None,477.0422590000089,None,477.8574280999601,None,477.8574280999601,478.35738940001465,,,,,,,,,,,,,,,,105,2023-03-29_19h07.37.357,FishGame,2022.1.1,58.843951744539645,
,11,넌 체제순응적이야,4,Green,B,3,3.6,ScrollUp,ScrollDown,Green.png,4,Negative,Congruent,0,0,0,0,,,,,,,,,,,,,,,,,,,,,,,,,0,10,10,10,,,,,,,,,,,,,,,,,,,,,,,,,,,,,,,,,,,,,,,,,,,,,,,,,,,,,,,,,,,,,,,,,,,,,,,,,2,0.9783142001833767,478.9878441998735,None,ScrollUp,정답입니다,478.9878441998735,None,478.9878441998735,None,478.9878441998735,None,478.9878441998735,None,479.85776889999397,None,479.85776889999397,480.3603733999189,,,,,,,,,,,,,,,,105,2023-03-29_19h07.37.357,FishGame,2022.1.1,58.843951744539645,
,12,나를 보내줘,6,Orange,A,0,0,ScrollUp,ScrollDown,Orange.png,4,NonTarget,NonTarget,0,0,0,0,,,,,,,,,,,,,,,,,,,,,,,,,0,11,11,11,,,,,,,,,,,,,,,,,,,,,,,,,,,,,,,,,,,,,,,,,,,,,,,,,,,,,,,,,,,,,,,,,,,,,,,,,1.9243827362855275,0.9954968998208642,480.9848102000542,None,ScrollUp,정답입니다,480.9848102000542,None,480.9848102000542,None,480.9848102000542,None,480.9848102000542,None,481.87708009989,None,481.87708009989,482.3743282998912,,,,,,,,,,,,,,,,105,2023-03-29_19h07.37.357,FishGame,2022.1.1,58.843951744539645,
,13,넌 박식해,2,Orange,A,5.625,3.933333333333333,ScrollDown,ScrollUp,Orange.png,4,Positive,Congruent,0,0,0,0,,,,,,,,,,,,,,,,,,,,,,,,,0,12,12,12,,,,,,,,,,,,,,,,,,,,,,,,,,,,,,,,,,,,,,,,,,,,,,,,,,,,,,,,,,,,,,,,,,,,,,,,,1,0.8623152000363916,483.0101763999555,None,ScrollDown,정답입니다,483.0101763999555,None,483.0101763999555,None,483.0101763999555,None,483.0101763999555,None,483.7602897998877,None,483.7602897998877,484.2602369999513,,,,,,,,,,,,,,,,105,2023-03-29_19h07.37.357,FishGame,2022.1.1,58.843951744539645,
,14,나를 보내줘,6,Orange,A,0,0,ScrollUp,ScrollDown,Orange.png,4,NonTarget,NonTarget,0,0,0,0,,,,,,,,,,,,,,,,,,,,,,,,,0,13,13,13,,,,,,,,,,,,,,,,,,,,,,,,,,,,,,,,,,,,,,,,,,,,,,,,,,,,,,,,,,,,,,,,,,,,,,,,,1.9706790049870808,0.9459388998802751,484.8847487999592,None,ScrollUp,정답입니다,484.8847487999592,None,484.8847487999592,None,484.8847487999592,None,484.8847487999592,None,485.72404680005275,None,485.72404680005275,486.2268642000854,,,,,,,,,,,,,,,,105,2023-03-29_19h07.37.357,FishGame,2022.1.1,58.843951744539645,
,15,넌 침착해,1,Green,B,5.458333333333333,5.566666666666666,ScrollUp,ScrollDown,Green.png,4,Positive,Incongruent,0,0,0,0,,,,,,,,,,,,,,,,,,,,,,,,,0,14,14,14,,,,,,,,,,,,,,,,,,,,,,,,,,,,,,,,,,,,,,,,,,,,,,,,,,,,,,,,,,,,,,,,,,,,,,,,,1.8209876517454784,0.9317360001150519,486.85299990000203,None,ScrollUp,정답입니다,486.85299990000203,None,486.85299990000203,None,486.85299990000203,None,486.85299990000203,None,487.67690140008926,None,487.67690140008926,488.1768869999796,,,,,,,,,,,,,,,,105,2023-03-29_19h07.37.357,FishGame,2022.1.1,58.843951744539645,
,16,나를 데려가줘,6,Green,B,0,0,ScrollDown,ScrollUp,Green.png,4,NonTarget,NonTarget,0,0,0,0,,,,,,,,,,,,,,,,,,,,,,,,,0,15,15,15,,,,,,,,,,,,,,,,,,,,,,,,,,,,,,,,,,,,,,,,,,,,,,,,,,,,,,,,,,,,,,,,,,,,,,,,,1,0.963838699972257,488.79892010008916,None,ScrollDown,정답입니다,488.79892010008916,None,488.79892010008916,None,488.79892010008916,None,488.79892010008916,None,489.6571545000188,None,489.6571545000188,490.1572350000497,,,,,,,,,,,,,,,,105,2023-03-29_19h07.37.357,FishGame,2022.1.1,58.843951744539645,
,17,넌 행복해,1,Orange,A,6.416666666666666,6.166666666666667,ScrollDown,ScrollUp,Orange.png,4,Positive,Congruent,0,0,0,0,,,,,,,,,,,,,,,,,,,,,,,,,0,16,16,16,,,,,,,,,,,,,,,,,,,,,,,,,,,,,,,,,,,,,,,,,,,,,,,,,,,,,,,,,,,,,,,,,,,,,,,,,1.0293209950129192,0.8817738001234829,490.78804040001705,None,ScrollDown,정답입니다,490.78804040001705,None,490.78804040001705,None,490.78804040001705,None,490.78804040001705,None,491.5571582999546,None,491.5571582999546,492.0601902999915,,,,,,,,,,,,,,,,105,2023-03-29_19h07.37.357,FishGame,2022.1.1,58.843951744539645,
,18,넌 겸손해,2,Green,B,5.791666666666667,4.766666666666667,ScrollUp,ScrollDown,Green.png,4,Positive,Incongruent,0,0,0,0,,,,,,,,,,,,,,,,,,,,,,,,,0,17,17,17,,,,,,,,,,,,,,,,,,,,,,,,,,,,,,,,,,,,,,,,,,,,,,,,,,,,,,,,,,,,,,,,,,,,,,,,,1.9166666666666667,0.9458264000713825,492.6942509999499,None,ScrollUp,정답입니다,492.6942509999499,None,492.6942509999499,None,492.6942509999499,None,492.6942509999499,None,493.524108099984,None,493.524108099984,494.0267853999976,,,,,,,,,,,,,,,,105,2023-03-29_19h07.37.357,FishGame,2022.1.1,58.843951744539645,
,19,나를 보내줘,6,Orange,A,0,0,ScrollUp,ScrollDown,Orange.png,4,NonTarget,NonTarget,0,0,0,0,,,,,,,,,,,,,,,,,,,,,,,,,0,18,18,18,,,,,,,,,,,,,,,,,,,,,,,,,,,,,,,,,,,,,,,,,,,,,,,,,,,,,,,,,,,,,,,,,,,,,,,,,1.805555562178294,0.8790969999972731,494.65139609994367,None,ScrollUp,정답입니다,494.65139609994367,None,494.65139609994367,None,494.65139609994367,None,494.65139609994367,None,495.4239356000908,None,495.4239356000908,495.9266327000223,,,,,,,,,,,,,,,,105,2023-03-29_19h07.37.357,FishGame,2022.1.1,58.843951744539645,
,20,넌 의심없어,3,Orange,A,4.166666666666667,4.6,ScrollDown,ScrollUp,Orange.png,4,Neutral,Neutral,0,0,0,0,,,,,,,,,,,,,,,,,,,,,,,,,0,19,19,19,,,,,,,,,,,,,,,,,,,,,,,,,,,,,,,,,,,,,,,,,,,,,,,,,,,,,,,,,,,,,,,,,,,,,,,,,1,0.8121392000466585,496.55248399986885,None,ScrollDown,정답입니다,496.55248399986885,None,496.55248399986885,None,496.55248399986885,None,496.55248399986885,None,497.2572778998874,None,497.2572778998874,497.75994120002724,,,,,,,,,,,,,,,,105,2023-03-29_19h07.37.357,FishGame,2022.1.1,58.843951744539645,
,21,넌 시시해,4,Orange,A,2.666666666666667,2.966666666666667,ScrollDown,ScrollUp,Orange.png,4,Negative,Incongruent,0,0,0,0,,,,,,,,,,,,,,,,,,,,,,,,,0,20,20,20,,,,,,,,,,,,,,,,,,,,,,,,,,,,,,,,,,,,,,,,,,,,,,,,,,,,,,,,,,,,,,,,,,,,,,,,,1,0.8458734001033008,498.38324130000547,None,ScrollDown,정답입니다,498.38324130000547,None,498.38324130000547,None,498.38324130000547,None,498.38324130000547,None,499.12660029996186,None,499.12660029996186,499.6266274000518,,,,,,,,,,,,,,,,105,2023-03-29_19h07.37.357,FishGame,2022.1.1,58.843951744539645,
,22,나를 데려가줘,6,Green,B,0,0,ScrollDown,ScrollUp,Green.png,4,NonTarget,NonTarget,0,0,0,0,,,,,,,,,,,,,,,,,,,,,,,,,0,21,21,21,,,,,,,,,,,,,,,,,,,,,,,,,,,,,,,,,,,,,,,,,,,,,,,,,,,,,,,,,,,,,,,,,,,,,,,,,1.0185184975465138,0.9318642001599073,500.24840789986774,None,ScrollDown,정답입니다,500.24840789986774,None,500.24840789986774,None,500.24840789986774,None,500.24840789986774,None,501.07662809989415,None,501.07662809989415,501.59320389991626,,,,,,,,,,,,,,,,105,2023-03-29_19h07.37.357,FishGame,2022.1.1,58.843951744539645,
,23,넌 무정해,5,Orange,A,2.5,2.2,ScrollDown,ScrollUp,Orange.png,4,Negative,Incongruent,0,0,0,0,,,,,,,,,,,,,,,,,,,,,,,,,0,22,22,22,,,,,,,,,,,,,,,,,,,,,,,,,,,,,,,,,,,,,,,,,,,,,,,,,,,,,,,,,,,,,,,,,,,,,,,,,1,0.9125163999851793,502.2004837000277,None,ScrollDown,정답입니다,502.2004837000277,None,502.2004837000277,None,502.2004837000277,None,502.2004837000277,None,503.0098951999098,None,503.0098951999098,503.5098991000559,,,,,,,,,,,,,,,,105,2023-03-29_19h07.37.357,FishGame,2022.1.1,58.843951744539645,
,24,넌 긍정적이야,1,Green,B,6.041666666666667,6.066666666666666,ScrollUp,ScrollDown,Green.png,4,Positive,Incongruent,0,0,0,0,,,,,,,,,,,,,,,,,,,,,,,,,0,23,23,23,,,,,,,,,,,,,,,,,,,,,,,,,,,,,,,,,,,,,,,,,,,,,,,,,,,,,,,,,,,,,,,,,,,,,,,,,1.9660493632157643,0.8486738000065088,504.1357607000973,None,ScrollUp,정답입니다,504.1357607000973,None,504.1357607000973,None,504.1357607000973,None,504.1357607000973,None,504.8767671000678,None,504.8767671000678,505.39017860009335,,,,,,,,,,,,,,,,105,2023-03-29_19h07.37.357,FishGame,2022.1.1,58.843951744539645,
,25,나를 보내줘,6,Orange,A,0,0,ScrollUp,ScrollDown,Orange.png,4,NonTarget,NonTarget,0,0,0,0,,,,,,,,,,,,,,,,,,,,,,,,,0,24,24,24,,,,,,,,,,,,,,,,,,,,,,,,,,,,,,,,,,,,,,,,,,,,,,,,,,,,,,,,,,,,,,,,,,,,,,,,,1.9074074079593022,0.8984124001581222,506.0157137999777,None,ScrollUp,정답입니다,506.0157137999777,None,506.0157137999777,None,506.0157137999777,None,506.0157137999777,None,506.80679810000584,None,506.80679810000584,507.30686399992555,,,,,,,,,,,,,,,,105,2023-03-29_19h07.37.357,FishGame,2022.1.1,58.843951744539645,
,26,넌 시기심이 많아,5,Green,B,2.458333333333333,2.233333333333333,ScrollUp,ScrollDown,Green.png,4,Negative,Congruent,0,0,0,0,,,,,,,,,,,,,,,,,,,,,,,,,0,25,25,25,,,,,,,,,,,,,,,,,,,,,,,,,,,,,,,,,,,,,,,,,,,,,,,,,,,,,,,,,,,,,,,,,,,,,,,,,1.7947530895471573,0.8284570001997054,507.9439934999682,None,ScrollUp,정답입니다,507.9439934999682,None,507.9439934999682,None,507.9439934999682,None,507.9439934999682,None,508.6598135998938,None,508.6598135998938,509.1598362000659,,,,,,,,,,,,,,,,105,2023-03-29_19h07.37.357,FishGame,2022.1.1,58.843951744539645,
,27,넌 탁월해,2,Orange,A,5.708333333333334,4.5,ScrollDown,ScrollUp,Orange.png,4,Positive,Congruent,0,0,0,0,,,,,,,,,,,,,,,,,,,,,,,,,0,26,26,26,,,,,,,,,,,,,,,,,,,,,,,,,,,,,,,,,,,,,,,,,,,,,,,,,,,,,,,,,,,,,,,,,,,,,,,,,1,0.8321571999695152,509.7874370999634,None,ScrollDown,정답입니다,509.7874370999634,None,509.7874370999634,None,509.7874370999634,None,509.7874370999634,None,510.50984439998865,None,510.50984439998865,511.0234268999193,,,,,,,,,,,,,,,,105,2023-03-29_19h07.37.357,FishGame,2022.1.1,58.843951744539645,
,28,나를 데려가줘,6,Green,B,0,0,ScrollDown,ScrollUp,Green.png,4,NonTarget,NonTarget,0,0,0,0,,,,,,,,,,,,,,,,,,,,,,,,,0,27,27,27,,,,,,,,,,,,,,,,,,,,,,,,,,,,,,,,,,,,,,,,,,,,,,,,,,,,,,,,,,,,,,,,,,,,,,,,,1,0.9318535998463631,511.6434547000099,None,ScrollDown,정답입니다,511.6434547000099,None,511.6434547000099,None,511.6434547000099,None,511.6434547000099,None,512.4733992998954,None,512.4733992998954,512.9733978000004,,,,,,,,,,,,,,,,105,2023-03-29_19h07.37.357,FishGame,2022.1.1,58.843951744539645,
,29,넌 조용해,3,Green,B,4.333333333333333,4.166666666666667,ScrollUp,ScrollDown,Green.png,4,Neutral,Neutral,0,0,0,0,,,,,,,,,,,,,,,,,,,,,,,,,0,28,28,28,,,,,,,,,,,,,,,,,,,,,,,,,,,,,,,,,,,,,,,,,,,,,,,,,,,,,,,,,,,,,,,,,,,,,,,,,1.8518518557151158,0.8123399000614882,513.603786899941,None,ScrollUp,정답입니다,513.603786899941,None,513.603786899941,None,513.603786899941,None,513.603786899941,None,514.3097804998979,None,514.3097804998979,514.8096906000283,,,,,,,,,,,,,,,,105,2023-03-29_19h07.37.357,FishGame,2022.1.1,58.843951744539645,
,30,넌 다정해,1,Orange,A,5.833333333333334,5.7,ScrollDown,ScrollUp,Orange.png,4,Positive,Congruent,0,0,0,0,,,,,,,,,,,,,,,,,,,,,,,,,0,29,29,29,,,,,,,,,,,,,,,,,,,,,,,,,,,,,,,,,,,,,,,,,,,,,,,,,,,,,,,,,,,,,,,,,,,,,,,,,1.0478395124276478,0.7957343999296427,515.4369514000136,None,ScrollDown,정답입니다,515.4369514000136,None,515.4369514000136,None,515.4369514000136,None,515.4369514000136,None,516.1264738999307,None,516.1264738999307,516.6262673998717,,,,,,,,,,,,,,,,105,2023-03-29_19h07.37.357,FishGame,2022.1.1,58.843951744539645,
,31,넌 능력있어,2,Green,B,6.166666666666666,4.6,ScrollUp,ScrollDown,Green.png,4,Positive,Incongruent,0,0,0,0,,,,,,,,,,,,,,,,,,,,,,,,,0,30,30,30,,,,,,,,,,,,,,,,,,,,,,,,,,,,,,,,,,,,,,,,,,,,,,,,,,,,,,,,,,,,,,,,,,,,,,,,,1.873456800977389,0.8124786999542266,517.247969900025,None,ScrollUp,정답입니다,517.247969900025,None,517.247969900025,None,517.247969900025,None,517.247969900025,None,517.9568717000075,None,517.9568717000075,518.4595250000712,,,,,,,,,,,,,,,,105,2023-03-29_19h07.37.357,FishGame,2022.1.1,58.843951744539645,
,32,넌 불쾌해,5,Orange,A,2.125,1.933333333333333,ScrollDown,ScrollUp,Orange.png,4,Negative,Incongruent,0,0,0,0,,,,,,,,,,,,,,,,,,,,,,,,,0,31,31,31,,,,,,,,,,,,,,,,,,,,,,,,,,,,,,,,,,,,,,,,,,,,,,,,,,,,,,,,,,,,,,,,,,,,,,,,,1,0.7806565000209957,519.0886009000242,None,ScrollDown,정답입니다,519.0886009000242,None,519.0886009000242,None,519.0886009000242,None,519.0886009000242,None,519.7568073000293,None,519.7568073000293,520.2594961998984,,,,,,,,,,,,,,,,105,2023-03-29_19h07.37.357,FishGame,2022.1.1,58.843951744539645,
,33,나를 데려가줘,6,Green,B,0,0,ScrollDown,ScrollUp,Green.png,4,NonTarget,NonTarget,0,0,0,0,,,,,,,,,,,,,,,,,,,,,,,,,0,32,32,32,,,,,,,,,,,,,,,,,,,,,,,,,,,,,,,,,,,,,,,,,,,,,,,,,,,,,,,,,,,,,,,,,,,,,,,,,1,1.028938999865204,520.8819098998792,None,ScrollDown,정답입니다,520.8819098998792,None,520.8819098998792,None,520.8819098998792,None,520.8819098998792,None,521.8095376999117,None,521.8095376999117,522.3094794999342,,,,,,,,,,,,,,,,105,2023-03-29_19h07.37.357,FishGame,2022.1.1,58.843951744539645,
,34,넌 유순해,3,Orange,A,4.458333333333333,5,ScrollDown,ScrollUp,Orange.png,4,Neutral,Neutral,0,0,0,0,,,,,,,,,,,,,,,,,,,,,,,,,0,33,33,33,,,,,,,,,,,,,,,,,,,,,,,,,,,,,,,,,,,,,,,,,,,,,,,,,,,,,,,,,,,,,,,,,,,,,,,,,1,0.8624563000630587,522.9382547000423,None,ScrollDown,정답입니다,522.9382547000423,None,522.9382547000423,None,522.9382547000423,None,522.9382547000423,None,523.6928435000591,None,523.6928435000591,524.1927787999157,,,,,,,,,,,,,,,,105,2023-03-29_19h07.37.357,FishGame,2022.1.1,58.843951744539645,
,35,넌 근심스러워,4,Green,B,2.708333333333333,3.133333333333333,ScrollUp,ScrollDown,Green.png,4,Negative,Congruent,0,0,0,0,,,,,,,,,,,,,,,,,,,,,,,,,0,34,34,34,,,,,,,,,,,,,,,,,,,,,,,,,,,,,,,,,,,,,,,,,,,,,,,,,,,,,,,,,,,,,,,,,,,,,,,,,2,0.8415202000178397,524.8223687000573,None,ScrollUp,정답입니다,524.8223687000573,None,524.8223687000573,None,524.8223687000573,None,524.8223687000573,None,525.5594432998914,None,525.5594432998914,526.0593987000175,,,,,,,,,,,,,,,,105,2023-03-29_19h07.37.357,FishGame,2022.1.1,58.843951744539645,
,36,넌 세련되었어,2,Orange,A,5.5,4.6,ScrollDown,ScrollUp,Orange.png,4,Positive,Congruent,0,0,0,0,,,,,,,,,,,,,,,,,,,,,,,,,0,35,35,35,,,,,,,,,,,,,,,,,,,,,,,,,,,,,,,,,,,,,,,,,,,,,,,,,,,,,,,,,,,,,,,,,,,,,,,,,1,0.8458457000087947,526.7012690000702,None,ScrollDown,정답입니다,526.7012690000702,None,526.7012690000702,None,526.7012690000702,None,526.7012690000702,None,527.4261070999783,None,527.4261070999783,527.9260505998973,,,,,,,,,,,,,,,,105,2023-03-29_19h07.37.357,FishGame,2022.1.1,58.843951744539645,
,37,나를 보내줘,6,Orange,A,0,0,ScrollUp,ScrollDown,Orange.png,4,NonTarget,NonTarget,0,0,0,0,,,,,,,,,,,,,,,,,,,,,,,,,0,36,36,36,,,,,,,,,,,,,,,,,,,,,,,,,,,,,,,,,,,,,,,,,,,,,,,,,,,,,,,,,,,,,,,,,,,,,,,,,2,0.9458982001524419,528.5503907999955,None,ScrollUp,정답입니다,528.5503907999955,None,528.5503907999955,None,528.5503907999955,None,528.5503907999955,None,529.3927819000091,None,529.3927819000091,529.8926748000085,,,,,,,,,,,,,,,,105,2023-03-29_19h07.37.357,FishGame,2022.1.1,58.843951744539645,
,38,넌 확고해,3,Green,B,4.708333333333334,4.566666666666666,ScrollUp,ScrollDown,Green.png,4,Neutral,Neutral,0,0,0,0,,,,,,,,,,,,,,,,,,,,,,,,,0,37,37,37,,,,,,,,,,,,,,,,,,,,,,,,,,,,,,,,,,,,,,,,,,,,,,,,,,,,,,,,,,,,,,,,,,,,,,,,,2,0.8987170001491904,530.533555299975,None,ScrollUp,정답입니다,530.533555299975,None,530.533555299975,None,530.533555299975,None,530.533555299975,None,531.3261219998822,None,531.3261219998822,531.8468539998867,,,,,,,,,,,,,,,,105,2023-03-29_19h07.37.357,FishGame,2022.1.1,58.843951744539645,
,39,넌 이해심이 많아,1,Green,B,6.041666666666668,5.533333333333333,ScrollUp,ScrollDown,Green.png,4,Positive,Incongruent,0,0,0,0,,,,,,,,,,,,,,,,,,,,,,,,,0,38,38,38,,,,,,,,,,,,,,,,,,,,,,,,,,,,,,,,,,,,,,,,,,,,,,,,,,,,,,,,,,,,,,,,,,,,,,,,,2,0.8633302999660373,532.4709330999758,None,ScrollUp,정답입니다,532.4709330999758,None,532.4709330999758,None,532.4709330999758,None,532.4709330999758,None,533.2229609000497,None,533.2229609000497,533.7230169998948,,,,,,,,,,,,,,,,105,2023-03-29_19h07.37.357,FishGame,2022.1.1,58.843951744539645,
,40,나를 보내줘,6,Orange,A,0,0,ScrollUp,ScrollDown,Orange.png,4,NonTarget,NonTarget,0,0,0,0,,,,,,,,,,,,,,,,,,,,,,,,,0,39,39,39,,,,,,,,,,,,,,,,,,,,,,,,,,,,,,,,,,,,,,,,,,,,,,,,,,,,,,,,,,,,,,,,,,,,,,,,,1.8225308656692505,1.0130779999308288,534.3581318000797,None,ScrollUp,정답입니다,534.3581318000797,None,534.3581318000797,None,534.3581318000797,None,534.3581318000797,None,535.2592571000569,None,535.2592571000569,535.7592305999715,,,,,,,,,,,,,,,,105,2023-03-29_19h07.37.357,FishGame,2022.1.1,58.843951744539645,
,41,넌 거칠어,4,Orange,A,2.625,3.033333333333333,ScrollDown,ScrollUp,Orange.png,4,Negative,Incongruent,0,0,0,0,,,,,,,,,,,,,,,,,,,,,,,,,0,40,40,40,,,,,,,,,,,,,,,,,,,,,,,,,,,,,,,,,,,,,,,,,,,,,,,,,,,,,,,,,,,,,,,,,,,,,,,,,1,0.895479999948293,536.3863570000976,None,ScrollDown,정답입니다,536.3863570000976,None,536.3863570000976,None,536.3863570000976,None,536.3863570000976,None,537.1732250999194,None,537.1732250999194,537.67588720005,,,,,,,,,,,,,,,,105,2023-03-29_19h07.37.357,FishGame,2022.1.1,58.843951744539645,
,42,넌 변덕맞아,5,Green,B,2.75,2.166666666666667,ScrollUp,ScrollDown,Green.png,4,Negative,Congruent,0,0,0,0,,,,,,,,,,,,,,,,,,,,,,,,,0,41,41,41,,,,,,,,,,,,,,,,,,,,,,,,,,,,,,,,,,,,,,,,,,,,,,,,,,,,,,,,,,,,,,,,,,,,,,,,,1.8765432039896648,0.86504239984788,538.2973181998823,None,ScrollUp,정답입니다,538.2973181998823,None,538.2973181998823,None,538.2973181998823,None,538.2973181998823,None,539.056187500013,None,539.056187500013,539.5561410998926,,,,,,,,,,,,,,,,105,2023-03-29_19h07.37.357,FishGame,2022.1.1,58.843951744539645,
,43,나를 데려가줘,6,Green,B,0,0,ScrollDown,ScrollUp,Green.png,4,NonTarget,NonTarget,0,0,0,0,,,,,,,,,,,,,,,,,,,,,,,,,0,42,42,42,,,,,,,,,,,,,,,,,,,,,,,,,,,,,,,,,,,,,,,,,,,,,,,,,,,,,,,,,,,,,,,,,,,,,,,,,1,0.8790110000409186,540.1818818999454,None,ScrollDown,정답입니다,540.1818818999454,None,540.1818818999454,None,540.1818818999454,None,540.1818818999454,None,540.9592343999539,None,540.9592343999539,541.4591828000266,,,,,,,,,,,,,,,,105,2023-03-29_19h07.37.357,FishGame,2022.1.1,58.843951744539645,
,44,넌 외로워,4,Green,B,2.833333333333333,3.3,ScrollUp,ScrollDown,Green.png,4,Negative,Congruent,0,0,0,0,,,,,,,,,,,,,,,,,,,,,,,,,0,43,43,43,,,,,,,,,,,,,,,,,,,,,,,,,,,,,,,,,,,,,,,,,,,,,,,,,,,,,,,,,,,,,,,,,,,,,,,,,1.9212963084379833,0.8958954999689013,542.0841482998803,None,ScrollUp,정답입니다,542.0841482998803,None,542.0841482998803,None,542.0841482998803,None,542.0841482998803,None,542.8757915000897,None,542.8757915000897,543.375768299913,,,,,,,,,,,,,,,,105,2023-03-29_19h07.37.357,FishGame,2022.1.1,58.843951744539645,
,1,넌 불평스러워,5,Orange,A,2.25,2.066666666666667,ScrollDown,ScrollUp,Orange.png,5,Negative,Incongruent,0,0,0,0,,,,,,,,,,,,,,,,,,,,,,,,,,,,,0,0,0,0,,,,,,,,,,,,,,,,,,,,,,,,,,,,574.8054436999373,576.3054732000455,576.3387889999431,577.2919608999509,577.3419937998988,578.2919657998718,578.2919657998718,None,,,,,,,,,,,,,,,,,,,,,,,,,,,,,,,,,,1,0.9413028999697417,579.3928296999075,None,ScrollDown,정답입니다,579.3928296999075,None,579.3928296999075,None,579.3928296999075,None,579.3928296999075,None,580.2250677999109,None,580.2250677999109,580.724957899889,543.8758795000613,None,543.8758795000613,None,0.17870371,-0.09259259,1,0,0,0.0162747697904706,None,573.8751884000376,None,,,105,2023-03-29_19h07.37.357,FishGame,2022.1.1,58.843951744539645,
,2,나를 보내줘,6,Orange,A,0,0,ScrollUp,ScrollDown,Orange.png,5,NonTarget,NonTarget,0,0,0,0,,,,,,,,,,,,,,,,,,,,,,,,,,,,,0,1,1,1,,,,,,,,,,,,,,,,,,,,,,,,,,,,,,,,,,,,,,,,,,,,,,,,,,,,,,,,,,,,,,,,,,,,,1.8132716069618862,0.9952189000323415,581.3610459999181,None,ScrollUp,정답입니다,581.3610459999181,None,581.3610459999181,None,581.3610459999181,None,581.3610459999181,None,582.2386274000164,None,582.2386274000164,582.7386884998996,,,,,,,,,,,,,,,,105,2023-03-29_19h07.37.357,FishGame,2022.1.1,58.843951744539645,
,3,넌 다재다능해,2,Green,B,6.208333333333333,4.5,ScrollUp,ScrollDown,Green.png,5,Positive,Incongruent,0,0,0,0,,,,,,,,,,,,,,,,,,,,,,,,,,,,,0,2,2,2,,,,,,,,,,,,,,,,,,,,,,,,,,,,,,,,,,,,,,,,,,,,,,,,,,,,,,,,,,,,,,,,,,,,,2,0.8463205001316965,583.363646700047,None,ScrollUp,정답입니다,583.363646700047,None,583.363646700047,None,583.363646700047,None,583.363646700047,None,584.105309000006,None,584.105309000006,584.6083259999286,,,,,,,,,,,,,,,,105,2023-03-29_19h07.37.357,FishGame,2022.1.1,58.843951744539645,
,4,넌 과감해,3,Orange,A,4.833333333333334,4.6,ScrollDown,ScrollUp,Orange.png,5,Neutral,Neutral,0,0,0,0,,,,,,,,,,,,,,,,,,,,,,,,,,,,,0,3,3,3,,,,,,,,,,,,,,,,,,,,,,,,,,,,,,,,,,,,,,,,,,,,,,,,,,,,,,,,,,,,,,,,,,,,,1.0478395124276478,1.062301900004968,585.2327729000244,None,ScrollDown,정답입니다,585.2327729000244,None,585.2327729000244,None,585.2327729000244,None,585.2327729000244,None,586.1889060998801,None,586.1889060998801,586.6915187998675,,,,,,,,,,,,,,,,105,2023-03-29_19h07.37.357,FishGame,2022.1.1,58.843951744539645,
,5,넌 고분고분해,3,Green,B,3.75,4.033333333333333,ScrollUp,ScrollDown,Green.png,5,Neutral,Neutral,0,0,0,0,,,,,,,,,,,,,,,,,,,,,,,,,,,,,0,4,4,4,,,,,,,,,,,,,,,,,,,,,,,,,,,,,,,,,,,,,,,,,,,,,,,,,,,,,,,,,,,,,,,,,,,,,2,0.8454762999899685,587.3234476000071,None,ScrollUp,정답입니다,587.3234476000071,None,587.3234476000071,None,587.3234476000071,None,587.3234476000071,None,588.0551525000483,None,588.0551525000483,588.5552270999178,,,,,,,,,,,,,,,,105,2023-03-29_19h07.37.357,FishGame,2022.1.1,58.843951744539645,
,6,나를 보내줘,6,Orange,A,0,0,ScrollUp,ScrollDown,Orange.png,5,NonTarget,NonTarget,0,0,0,0,,,,,,,,,,,,,,,,,,,,,,,,,,,,,0,5,5,5,,,,,,,,,,,,,,,,,,,,,,,,,,,,,,,,,,,,,,,,,,,,,,,,,,,,,,,,,,,,,,,,,,,,,1.9799382885297139,0.8961831999476999,589.1821181999985,None,ScrollUp,정답입니다,589.1821181999985,None,589.1821181999985,None,589.1821181999985,None,589.1821181999985,None,589.971807599999,None,589.971807599999,590.4718196000904,,,,,,,,,,,,,,,,105,2023-03-29_19h07.37.357,FishGame,2022.1.1,58.843951744539645,
,7,넌 잘 잊어,4,Orange,A,3,3.7,ScrollDown,ScrollUp,Orange.png,5,Negative,Incongruent,0,0,0,0,,,,,,,,,,,,,,,,,,,,,,,,,,,,,0,6,6,6,,,,,,,,,,,,,,,,,,,,,,,,,,,,,,,,,,,,,,,,,,,,,,,,,,,,,,,,,,,,,,,,,,,,,1,0.8816918001975864,591.1016090000048,None,ScrollDown,정답입니다,591.1016090000048,None,591.1016090000048,None,591.1016090000048,None,591.1016090000048,None,591.8718403000385,None,591.8718403000385,592.3748691999353,,,,,,,,,,,,,,,,105,2023-03-29_19h07.37.357,FishGame,2022.1.1,58.843951744539645,
,8,넌 탐구심이없어,4,Green,B,2.833333333333333,3.066666666666667,ScrollUp,ScrollDown,Green.png,5,Negative,Congruent,0,0,0,0,,,,,,,,,,,,,,,,,,,,,,,,,,,,,0,7,7,7,,,,,,,,,,,,,,,,,,,,,,,,,,,,,,,,,,,,,,,,,,,,,,,,,,,,,,,,,,,,,,,,,,,,,1.8919753183921177,0.8817743000108749,593.0008451000322,None,ScrollUp,정답입니다,593.0008451000322,None,593.0008451000322,None,593.0008451000322,None,593.0008451000322,None,593.774890499888,None,593.774890499888,594.2747708000243,,,,,,,,,,,,,,,,105,2023-03-29_19h07.37.357,FishGame,2022.1.1,58.843951744539645,
,9,나를 데려가줘,6,Green,B,0,0,ScrollDown,ScrollUp,Green.png,5,NonTarget,NonTarget,0,0,0,0,,,,,,,,,,,,,,,,,,,,,,,,,,,,,0,8,8,8,,,,,,,,,,,,,,,,,,,,,,,,,,,,,,,,,,,,,,,,,,,,,,,,,,,,,,,,,,,,,,,,,,,,,1,0.8955345000140369,594.8973983998876,None,ScrollDown,정답입니다,594.8973983998876,None,594.8973983998876,None,594.8973983998876,None,594.8973983998876,None,595.6912760999985,None,595.6912760999985,596.1912684999406,,,,,,,,,,,,,,,,105,2023-03-29_19h07.37.357,FishGame,2022.1.1,58.843951744539645,
,10,넌 참되어,2,Orange,A,6.041666666666664,4.733333333333333,ScrollDown,ScrollUp,Orange.png,5,Positive,Congruent,0,0,0,0,,,,,,,,,,,,,,,,,,,,,,,,,,,,,0,9,9,9,,,,,,,,,,,,,,,,,,,,,,,,,,,,,,,,,,,,,,,,,,,,,,,,,,,,,,,,,,,,,,,,,,,,,1.0077160497506459,0.8959194999188185,596.8177195000462,None,ScrollDown,정답입니다,596.8177195000462,None,596.8177195000462,None,596.8177195000462,None,596.8177195000462,None,597.6052641998976,None,597.6052641998976,598.1079066998791,,,,,,,,,,,,,,,,105,2023-03-29_19h07.37.357,FishGame,2022.1.1,58.843951744539645,
,11,넌 생기있어,1,Green,B,5.875,5.633333333333334,ScrollUp,ScrollDown,Green.png,5,Positive,Incongruent,0,0,0,0,,,,,,,,,,,,,,,,,,,,,,,,,,,,,0,10,10,10,,,,,,,,,,,,,,,,,,,,,,,,,,,,,,,,,,,,,,,,,,,,,,,,,,,,,,,,,,,,,,,,,,,,,1.8858024626970291,1.0623345000203699,598.7324608000927,None,ScrollUp,정답입니다,598.7324608000927,None,598.7324608000927,None,598.7324608000927,None,598.7324608000927,None,599.6912295999937,None,599.6912295999937,600.1912201999221,,,,,,,,,,,,,,,,105,2023-03-29_19h07.37.357,FishGame,2022.1.1,58.843951744539645,
,12,넌 비사교적이야,4,Green,B,2.875,2.9,ScrollUp,ScrollDown,Green.png,5,Negative,Congruent,0,0,0,0,,,,,,,,,,,,,,,,,,,,,,,,,,,,,0,11,11,11,,,,,,,,,,,,,,,,,,,,,,,,,,,,,,,,,,,,,,,,,,,,,,,,,,,,,,,,,,,,,,,,,,,,,1.9660493632157643,0.8289960999973118,600.8136634998955,None,ScrollUp,정답입니다,600.8136634998955,None,600.8136634998955,None,600.8136634998955,None,600.8136634998955,None,601.5412641998846,None,601.5412641998846,602.0412093000486,,,,,,,,,,,,,,,,105,2023-03-29_19h07.37.357,FishGame,2022.1.1,58.843951744539645,
,13,나를 데려가줘,6,Green,B,0,0,ScrollDown,ScrollUp,Green.png,5,NonTarget,NonTarget,0,0,0,0,,,,,,,,,,,,,,,,,,,,,,,,,,,,,0,12,12,12,,,,,,,,,,,,,,,,,,,,,,,,,,,,,,,,,,,,,,,,,,,,,,,,,,,,,,,,,,,,,,,,,,,,,1,0.9285381999798119,602.6688200999051,None,ScrollDown,정답입니다,602.6688200999051,None,602.6688200999051,None,602.6688200999051,None,602.6688200999051,None,603.4882241000887,None,603.4882241000887,603.9881774999667,,,,,,,,,,,,,,,,105,2023-03-29_19h07.37.357,FishGame,2022.1.1,58.843951744539645,
,14,넌 고독해,4,Orange,A,2.916666666666667,3.233333333333333,ScrollDown,ScrollUp,Orange.png,5,Negative,Incongruent,0,0,0,0,,,,,,,,,,,,,,,,,,,,,,,,,,,,,0,13,13,13,,,,,,,,,,,,,,,,,,,,,,,,,,,,,,,,,,,,,,,,,,,,,,,,,,,,,,,,,,,,,,,,,,,,,1,0.9148699999786913,604.6137892000843,None,ScrollDown,정답입니다,604.6137892000843,None,604.6137892000843,None,604.6137892000843,None,604.6137892000843,None,605.4215591999236,None,605.4215591999236,605.9246360999532,,,,,,,,,,,,,,,,105,2023-03-29_19h07.37.357,FishGame,2022.1.1,58.843951744539645,
,15,넌 신경질적이야,5,Green,B,2.375,2.233333333333333,ScrollUp,ScrollDown,Green.png,5,Negative,Congruent,0,0,0,0,,,,,,,,,,,,,,,,,,,,,,,,,,,,,0,14,14,14,,,,,,,,,,,,,,,,,,,,,,,,,,,,,,,,,,,,,,,,,,,,,,,,,,,,,,,,,,,,,,,,,,,,,2,0.9122452000156045,606.5581159999128,None,ScrollUp,정답입니다,606.5581159999128,None,606.5581159999128,None,606.5581159999128,None,606.5581159999128,None,607.3578619000036,None,607.3578619000036,607.8577711000107,,,,,,,,,,,,,,,,105,2023-03-29_19h07.37.357,FishGame,2022.1.1,58.843951744539645,
,16,넌 똑똑해,2,Green,B,5.666666666666667,3.966666666666667,ScrollUp,ScrollDown,Green.png,5,Positive,Incongruent,0,0,0,0,,,,,,,,,,,,,,,,,,,,,,,,,,,,,0,15,15,15,,,,,,,,,,,,,,,,,,,,,,,,,,,,,,,,,,,,,,,,,,,,,,,,,,,,,,,,,,,,,,,,,,,,,1.9074074079593022,0.8621994000859559,608.4861158998683,None,ScrollUp,정답입니다,608.4861158998683,None,608.4861158998683,None,608.4861158998683,None,608.4861158998683,None,609.238073799992,None,609.238073799992,609.7381450000685,,,,,,,,,,,,,,,,105,2023-03-29_19h07.37.357,FishGame,2022.1.1,58.843951744539645,
,17,나를 보내줘,6,Orange,A,0,0,ScrollUp,ScrollDown,Orange.png,5,NonTarget,NonTarget,0,0,0,0,,,,,,,,,,,,,,,,,,,,,,,,,,,,,0,16,16,16,,,,,,,,,,,,,,,,,,,,,,,,,,,,,,,,,,,,,,,,,,,,,,,,,,,,,,,,,,,,,,,,,,,,,1.9845678806304932,0.9793819000478834,610.3641778000165,None,ScrollUp,정답입니다,610.3641778000165,None,610.3641778000165,None,610.3641778000165,None,610.3641778000165,None,611.2380643000361,None,611.2380643000361,611.7380637999158,,,,,,,,,,,,,,,,105,2023-03-29_19h07.37.357,FishGame,2022.1.1,58.843951744539645,
,18,넌 협조적이야,1,Orange,A,5.625,5.666666666666667,ScrollDown,ScrollUp,Orange.png,5,Positive,Congruent,0,0,0,0,,,,,,,,,,,,,,,,,,,,,,,,,,,,,0,17,17,17,,,,,,,,,,,,,,,,,,,,,,,,,,,,,,,,,,,,,,,,,,,,,,,,,,,,,,,,,,,,,,,,,,,,,1,1.151290399953723,612.3667246999685,None,ScrollDown,정답입니다,612.3667246999685,None,612.3667246999685,None,612.3667246999685,None,612.3667246999685,None,613.4050811999477,None,613.4050811999477,613.9077427000739,,,,,,,,,,,,,,,,105,2023-03-29_19h07.37.357,FishGame,2022.1.1,58.843951744539645,
,19,나를 데려가줘,6,Green,B,0,0,ScrollDown,ScrollUp,Green.png,5,NonTarget,NonTarget,0,0,0,0,,,,,,,,,,,,,,,,,,,,,,,,,,,,,0,18,18,18,,,,,,,,,,,,,,,,,,,,,,,,,,,,,,,,,,,,,,,,,,,,,,,,,,,,,,,,,,,,,,,,,,,,,1,0.9816753000486642,614.530550400028,None,ScrollDown,정답입니다,614.530550400028,None,614.530550400028,None,614.530550400028,None,614.530550400028,None,615.4077282999642,None,615.4077282999642,615.907724800054,,,,,,,,,,,,,,,,105,2023-03-29_19h07.37.357,FishGame,2022.1.1,58.843951744539645,
,20,넌 몰인정해,5,Green,B,2.541666666666667,2.066666666666667,ScrollUp,ScrollDown,Green.png,5,Negative,Congruent,0,0,0,0,,,,,,,,,,,,,,,,,,,,,,,,,,,,,0,19,19,19,,,,,,,,,,,,,,,,,,,,,,,,,,,,,,,,,,,,,,,,,,,,,,,,,,,,,,,,,,,,,,,,,,,,,1.9351851840813954,0.9076107000000775,616.5437868000008,None,ScrollUp,정답입니다,616.5437868000008,None,616.5437868000008,None,616.5437868000008,None,616.5437868000008,None,617.3379202000797,None,617.3379202000797,617.8379784999415,,,,,,,,,,,,,,,,105,2023-03-29_19h07.37.357,FishGame,2022.1.1,58.843951744539645,
,21,나를 데려가줘,6,Green,B,0,0,ScrollDown,ScrollUp,Green.png,5,NonTarget,NonTarget,0,0,0,0,,,,,,,,,,,,,,,,,,,,,,,,,,,,,0,20,20,20,,,,,,,,,,,,,,,,,,,,,,,,,,,,,,,,,,,,,,,,,,,,,,,,,,,,,,,,,,,,,,,,,,,,,1,0.9796052000019699,618.46232219995,None,ScrollDown,정답입니다,618.46232219995,None,618.46232219995,None,618.46232219995,None,618.46232219995,None,619.3379091999959,None,619.3379091999959,619.8409434000496,,,,,,,,,,,,,,,,105,2023-03-29_19h07.37.357,FishGame,2022.1.1,58.843951744539645,
,22,넌 순진해,3,Green,B,4.125,4.166666666666667,ScrollUp,ScrollDown,Green.png,5,Neutral,Neutral,0,0,0,0,,,,,,,,,,,,,,,,,,,,,,,,,,,,,0,21,21,21,,,,,,,,,,,,,,,,,,,,,,,,,,,,,,,,,,,,,,,,,,,,,,,,,,,,,,,,,,,,,,,,,,,,,2,0.9150805999524891,620.4632482999004,None,ScrollUp,정답입니다,620.4632482999004,None,620.4632482999004,None,620.4632482999004,None,620.4632482999004,None,621.2742441000883,None,621.2742441000883,621.7742222000379,,,,,,,,,,,,,,,,105,2023-03-29_19h07.37.357,FishGame,2022.1.1,58.843951744539645,
