name,TrialNum,Word,WordCategory,FishType,WordList,WordValence,WordReputation,CorrectResp,IncorrectResp,FishTypeFile,Round,WordType,Condition,LoopforOrange.thisRepN,LoopforOrange.thisTrialN,LoopforOrange.thisN,LoopforOrange.thisIndex,LoopForGreen.thisRepN,LoopForGreen.thisTrialN,LoopForGreen.thisN,LoopForGreen.thisIndex,GreenInstLoop.thisRepN,GreenInstLoop.thisTrialN,GreenInstLoop.thisN,GreenInstLoop.thisIndex,GreenPrac.thisRepN,GreenPrac.thisTrialN,GreenPrac.thisN,GreenPrac.thisIndex,trials_2.thisRepN,trials_2.thisTrialN,trials_2.thisN,trials_2.thisIndex,GreenRound1.thisRepN,GreenRound1.thisTrialN,GreenRound1.thisN,GreenRound1.thisIndex,GreenRound2.thisRepN,GreenRound2.thisTrialN,GreenRound2.thisN,GreenRound2.thisIndex,GreenRound3.thisRepN,GreenRound3.thisTrialN,GreenRound3.thisN,GreenRound3.thisIndex,GreenRound4.thisRepN,GreenRound4.thisTrialN,GreenRound4.thisN,GreenRound4.thisIndex,GreenRound5.thisRepN,GreenRound5.thisTrialN,GreenRound5.thisN,GreenRound5.thisIndex,text_2.started,text_2.stopped,text_3.started,text_3.stopped,key_resp.keys,key_resp.rt,key_resp.started,key_resp.stopped,PassI.started,PassI.stopped,PassInst.keys,PassInst.rt,PassInst.started,PassInst.stopped,mouse_2.x,mouse_2.y,mouse_2.leftButton,mouse_2.midButton,mouse_2.rightButton,mouse_2.started,mouse_2.stopped,image.started,image.stopped,text_5.started,text_5.stopped,text_6.started,text_6.stopped,text_7.started,text_7.stopped,text_8.started,text_8.stopped,slider_3.response,slider_3.rt,slider_3.started,slider_3.stopped,Response_3,Feedback_3,BackGround_3.started,BackGround_3.stopped,Fish_3.started,Fish_3.stopped,WordBox_3.started,WordBox_3.stopped,Words_3.started,Words_3.stopped,BackGround_Feedback_3.started,BackGround_Feedback_3.stopped,Feedbacks_3.started,Feedbacks_3.stopped,Continue_or_not_2.keys,Continue_or_not_2.rt,Continue_or_not_2.started,Continue_or_not_2.stopped,image_4.started,image_4.stopped,mouse_3.x,mouse_3.y,mouse_3.leftButton,mouse_3.midButton,mouse_3.rightButton,mouse_3.started,mouse_3.stopped,startmain.started,startmain.stopped,slider_4.response,slider_4.rt,slider_4.started,slider_4.stopped,Response_4,Feedback_4,BackGround_4.started,BackGround_4.stopped,Fish_4.started,Fish_4.stopped,WordBox_4.started,WordBox_4.stopped,Words_4.started,Words_4.stopped,BackGround_Feedback_4.started,BackGround_Feedback_4.stopped,Feedbacks_4.started,Feedbacks_4.stopped,text.started,text.stopped,break_interval.started,break_interval.stopped,mouse.x,mouse.y,mouse.leftButton,mouse.midButton,mouse.rightButton,mouse.started,mouse.stopped,stratnextround.started,stratnextround.stopped,endgame.started,endgame.stopped,participant,date,expName,psychopyVersion,frameRate,
,,,,,,,,,,,,,,,,,,,,,,,,,,,,,,,,,,,,,,,,,,,,,,,,,,,,,,19.369469299999764,None,19.369469299999764,None,space,1.3852121999952942,19.845325800000865,None,,,,,,,,,,,,,,,,,,,,,,,,,,,,,,,,,,,,,,,,,,,,,,,,,,,,,,,,,,,,,,,,,,,,,,,,,,,,,,,,,,,,,,,,,,106,2023-03-30_13h58.15.096,FishGame,2022.1.1,60.9178121234282,
물고기과제_instruction(참가자용)GreenVersion.mp4,,,,,,,,,,,,,,,,,,0,0,0,0,0,0,0,0,,,,,,,,,,,,,,,,,,,,,,,,,,,,,,,,,,,,,92.40732839999691,None,n,9.257052799999656,92.40732839999691,None,,,,,,,,,,,,,,,,,,,,,,,,,,,,,,,,,,,,,,,,,,,,,,,,,,,,,,,,,,,,,,,,,,,,,,,,,,,,,,,,,,,,106,2023-03-30_13h58.15.096,FishGame,2022.1.1,60.9178121234282,
,1,넌 교활해,5,Orange,B,2.333333333333333,2.133333333333333,ScrollUp,ScrollDown,Orange.png,practice,,,,,,,0,0,0,0,,,,,0,0,0,0,0,0,0,0,,,,,,,,,,,,,,,,,,,,,,,,,,,,,,,,,,,0.06388889,-0.22777778,1,0,0,0.4998041299986653,None,101.69035859999713,None,107.93808839999838,109.44030719999864,109.47367739999754,110.42362020000292,110.47362019999855,111.42359369999758,111.42359369999758,None,1.266975318392118,1.470824399999401,112.71236599999975,None,ScrollDown,오답입니다,112.71236599999975,None,112.71236599999975,None,112.71236599999975,None,112.71236599999975,None,113.89017130000138,None,113.89017130000138,114.39006979999976,,,,,,,,,,,,,,,,,,,,,,,,,,,,,,,,,,,,,,,,,,,,,,,,,106,2023-03-30_13h58.15.096,FishGame,2022.1.1,60.9178121234282,
,2,넌 슬기로워,2,Green,A,6.166666666666667,4.1,ScrollDown,ScrollUp,Green.png,practice,,,,,,,0,0,0,0,,,,,0,0,0,0,0,1,1,1,,,,,,,,,,,,,,,,,,,,,,,,,,,,,,,,,,,,,,,,,,,,,,,,,,,,1.2314814726511638,1.4463112000012188,115.01306080000359,None,ScrollDown,정답입니다,115.01306080000359,None,115.01306080000359,None,115.01306080000359,None,115.01306080000359,None,116.35458700000163,None,116.35458700000163,116.85659830000077,,,,,,,,,,,,,,,,,,,,,,,,,,,,,,,,,,,,,,,,,,,,,,,,,106,2023-03-30_13h58.15.096,FishGame,2022.1.1,60.9178121234282,
,3,나를 보내줘,6,Green,A,0,0,ScrollUp,ScrollDown,Green.png,practice,,,,,,,0,0,0,0,,,,,0,0,0,0,0,2,2,2,,,,,,,,,,,,,,,,,,,,,,,,,,,,,,,,,,,,,,,,,,,,,,,,,,,,1.6250000049670539,1.2961426000038045,117.47331600000325,None,ScrollUp,정답입니다,117.47331600000325,None,117.47331600000325,None,117.47331600000325,None,117.47331600000325,None,118.6732486999972,None,118.6732486999972,119.1732583999983,,,,,,,,,,,,,,,,,,,,,,,,,,,,,,,,,,,,,,,,,,,,,,,,,106,2023-03-30_13h58.15.096,FishGame,2022.1.1,60.9178121234282,
,4,나를 데려가줘,6,Orange,B,0,0,ScrollDown,ScrollUp,Orange.png,practice,,,,,,,0,0,0,0,,,,,0,0,0,0,0,3,3,3,,,,,,,,,,,,,,,,,,,,,,,,,,,,,,,,,,,,,,,,,,,,,,,,,,,,1.1651234477758408,1.4128485999972327,119.79141939999681,None,ScrollDown,정답입니다,119.79141939999681,None,119.79141939999681,None,119.79141939999681,None,119.79141939999681,None,121.10443530000339,None,121.10443530000339,121.60646100000304,,,,,,,,,,,,,,,,,,,,,,,,,,,,,,,,,,,,,,,,,,,,,,,,,106,2023-03-30_13h58.15.096,FishGame,2022.1.1,60.9178121234282,
,1,넌 교활해,5,Orange,B,2.333333333333333,2.133333333333333,ScrollUp,ScrollDown,Orange.png,practice,,,,,,,0,0,0,0,,,,,0,0,0,0,,,,,,,,,,,,,,,,,,,,,,,,,,,,,,,,,,,,,,,,,,,,,,,,,,,,,,,,,,,,,,,,,,,,,,,,,,n,5.20002480000403,122.10647420000168,None,122.10647420000168,None,,,,,,,,,,,,,,,,,,,,,,,,,,,,,,,,,,,,,,,,,,,106,2023-03-30_13h58.15.096,FishGame,2022.1.1,60.9178121234282,
,1,넌 따뜻해,1,Orange,B,6.083333333333333,5.6,ScrollUp,ScrollDown,Orange.png,1,Positive,Incongruent,,,,,0,0,0,0,,,,,,,,,,,,,0,0,0,0,,,,,,,,,,,,,,,,,,,,,,,,,,,,,,,,,,,,,,,,129.5395301000026,131.0398490000007,131.0732108000011,132.02316930000234,132.0731534000006,133.039800999999,133.02310759999818,None,,,,,,,,,,,,,,,,,,,,,,,,,0.036111113,-0.119444445,1,0,0,0.31512613000086276,None,127.33964289999858,None,1.4691358022391796,1.4662706999952206,134.32927550000022,None,NoResponse,무응답입니다,134.32927550000022,None,134.32927550000022,None,134.32927550000022,None,134.32927550000022,None,135.48755160000292,None,135.48755160000292,135.98951349999697,,,,,,,,,,,,,,,,106,2023-03-30_13h58.15.096,FishGame,2022.1.1,60.9178121234282,
,2,넌 기품있어,2,Orange,B,5.791666666666668,4.5,ScrollUp,ScrollDown,Orange.png,1,Positive,Incongruent,,,,,0,0,0,0,,,,,,,,,,,,,0,1,1,1,,,,,,,,,,,,,,,,,,,,,,,,,,,,,,,,,,,,,,,,,,,,,,,,,,,,,,,,,,,,,,,,,,,,,,,,,,,,,,,,,1.6805555572112403,1.3149883000005502,136.61246219999884,None,ScrollUp,정답입니다,136.61246219999884,None,136.61246219999884,None,136.61246219999884,None,136.61246219999884,None,137.82084380000015,None,137.82084380000015,138.32280750000064,,,,,,,,,,,,,,,,106,2023-03-30_13h58.15.096,FishGame,2022.1.1,60.9178121234282,
,3,나를 보내줘,6,Green,A,0,0,ScrollUp,ScrollDown,Green.png,1,NonTarget,NonTarget,,,,,0,0,0,0,,,,,,,,,,,,,0,2,2,2,,,,,,,,,,,,,,,,,,,,,,,,,,,,,,,,,,,,,,,,,,,,,,,,,,,,,,,,,,,,,,,,,,,,,,,,,,,,,,,,,1.7484567960103354,1.195973199995933,138.94537229999696,None,ScrollUp,정답입니다,138.94537229999696,None,138.94537229999696,None,138.94537229999696,None,138.94537229999696,None,140.03947119999793,None,140.03947119999793,140.53947999999946,,,,,,,,,,,,,,,,106,2023-03-30_13h58.15.096,FishGame,2022.1.1,60.9178121234282,
,4,넌 수동적이야,4,Green,A,2.833333333333333,2.933333333333333,ScrollDown,ScrollUp,Green.png,1,Negative,Incongruent,,,,,0,0,0,0,,,,,,,,,,,,,0,3,3,3,,,,,,,,,,,,,,,,,,,,,,,,,,,,,,,,,,,,,,,,,,,,,,,,,,,,,,,,,,,,,,,,,,,,,,,,,,,,,,,,,1.0987654229005177,1.2596126999997068,141.17864230000123,None,ScrollDown,정답입니다,141.17864230000123,None,141.17864230000123,None,141.17864230000123,None,141.17864230000123,None,142.3204224000001,None,142.3204224000001,142.8204209999967,,,,,,,,,,,,,,,,106,2023-03-30_13h58.15.096,FishGame,2022.1.1,60.9178121234282,
,5,넌 사심이 없어,3,Orange,B,4.916666666666666,4.333333333333333,ScrollUp,ScrollDown,Orange.png,1,Neutral,Neutral,,,,,0,0,0,0,,,,,,,,,,,,,0,4,4,4,,,,,,,,,,,,,,,,,,,,,,,,,,,,,,,,,,,,,,,,,,,,,,,,,,,,,,,,,,,,,,,,,,,,,,,,,,,,,,,,,1.7253086368242898,1.1836664999937057,143.4441297000012,None,ScrollUp,정답입니다,143.4441297000012,None,143.4441297000012,None,143.4441297000012,None,143.4441297000012,None,144.5228449999995,None,144.5228449999995,145.0205885000032,,,,,,,,,,,,,,,,106,2023-03-30_13h58.15.096,FishGame,2022.1.1,60.9178121234282,
,6,넌 헤퍼,5,Green,A,2.458333333333334,2.233333333333333,ScrollDown,ScrollUp,Green.png,1,Negative,Incongruent,,,,,0,0,0,0,,,,,,,,,,,,,0,5,5,5,,,,,,,,,,,,,,,,,,,,,,,,,,,,,,,,,,,,,,,,,,,,,,,,,,,,,,,,,,,,,,,,,,,,,,,,,,,,,,,,,1.0200617114702861,1.0127915999983088,145.641773000003,None,ScrollDown,정답입니다,145.641773000003,None,145.641773000003,None,145.641773000003,None,145.641773000003,None,146.5536837999971,None,146.5536837999971,147.053797200002,,,,,,,,,,,,,,,,106,2023-03-30_13h58.15.096,FishGame,2022.1.1,60.9178121234282,
,7,넌 말쑥해,3,Green,A,4.833333333333334,4.333333333333333,ScrollDown,ScrollUp,Green.png,1,Neutral,Neutral,,,,,0,0,0,0,,,,,,,,,,,,,0,6,6,6,,,,,,,,,,,,,,,,,,,,,,,,,,,,,,,,,,,,,,,,,,,,,,,,,,,,,,,,,,,,,,,,,,,,,,,,,,,,,,,,,1,1.0657277999998769,147.67503769999894,None,ScrollDown,정답입니다,147.67503769999894,None,147.67503769999894,None,147.67503769999894,None,147.67503769999894,None,148.63946579999902,None,148.63946579999902,149.1393859000018,,,,,,,,,,,,,,,,106,2023-03-30_13h58.15.096,FishGame,2022.1.1,60.9178121234282,
,8,넌 투덜거려,5,Orange,B,2.541666666666667,2.266666666666667,ScrollUp,ScrollDown,Orange.png,1,Negative,Congruent,,,,,0,0,0,0,,,,,,,,,,,,,0,7,7,7,,,,,,,,,,,,,,,,,,,,,,,,,,,,,,,,,,,,,,,,,,,,,,,,,,,,,,,,,,,,,,,,,,,,,,,,,,,,,,,,,1.799382706483205,0.9300118000028306,149.76322819999768,None,ScrollUp,정답입니다,149.76322819999768,None,149.76322819999768,None,149.76322819999768,None,149.76322819999768,None,150.58946209999704,None,150.58946209999704,151.0893578000032,,,,,,,,,,,,,,,,106,2023-03-30_13h58.15.096,FishGame,2022.1.1,60.9178121234282,
,9,넌 적극적이야,1,Green,A,5.708333333333333,5.533333333333333,ScrollDown,ScrollUp,Green.png,1,Positive,Congruent,,,,,0,0,0,0,,,,,,,,,,,,,0,8,8,8,,,,,,,,,,,,,,,,,,,,,,,,,,,,,,,,,,,,,,,,,,,,,,,,,,,,,,,,,,,,,,,,,,,,,,,,,,,,,,,,,1.0432098706563313,1.014889400001266,151.71017640000355,None,ScrollDown,정답입니다,151.71017640000355,None,151.71017640000355,None,151.71017640000355,None,151.71017640000355,None,152.62259579999954,None,152.62259579999954,153.12251649999962,,,,,,,,,,,,,,,,106,2023-03-30_13h58.15.096,FishGame,2022.1.1,60.9178121234282,
,10,넌 재미없어,4,Orange,B,2.625,2.966666666666667,ScrollUp,ScrollDown,Orange.png,1,Negative,Congruent,,,,,0,0,0,0,,,,,,,,,,,,,0,9,9,9,,,,,,,,,,,,,,,,,,,,,,,,,,,,,,,,,,,,,,,,,,,,,,,,,,,,,,,,,,,,,,,,,,,,,,,,,,,,,,,,,1.8410493830839794,0.8617339999982505,153.7470719999983,None,ScrollUp,정답입니다,153.7470719999983,None,153.7470719999983,None,153.7470719999983,None,153.7470719999983,None,154.50600850000046,None,154.50600850000046,155.00582739999663,,,,,,,,,,,,,,,,106,2023-03-30_13h58.15.096,FishGame,2022.1.1,60.9178121234282,
,11,넌 명석해,2,Green,A,5.875,4.033333333333333,ScrollDown,ScrollUp,Green.png,1,Positive,Congruent,,,,,0,0,0,0,,,,,,,,,,,,,0,10,10,10,,,,,,,,,,,,,,,,,,,,,,,,,,,,,,,,,,,,,,,,,,,,,,,,,,,,,,,,,,,,,,,,,,,,,,,,,,,,,,,,,1.1064814925193787,1.059801299998071,155.649405199998,None,ScrollDown,정답입니다,155.649405199998,None,155.649405199998,None,155.649405199998,None,155.649405199998,None,156.60345809999853,None,156.60345809999853,157.10344980000082,,,,,,,,,,,,,,,,106,2023-03-30_13h58.15.096,FishGame,2022.1.1,60.9178121234282,
,12,나를 데려가줘,6,Orange,B,0,0,ScrollDown,ScrollUp,Orange.png,1,NonTarget,NonTarget,,,,,0,0,0,0,,,,,,,,,,,,,0,11,11,11,,,,,,,,,,,,,,,,,,,,,,,,,,,,,,,,,,,,,,,,,,,,,,,,,,,,,,,,,,,,,,,,,,,,,,,,,,,,,,,,,1.0046296219031017,1.0321632000050158,157.72572909999872,None,ScrollDown,정답입니다,157.72572909999872,None,157.72572909999872,None,157.72572909999872,None,157.72572909999872,None,158.65592679999827,None,158.65592679999827,159.15585350000038,,,,,,,,,,,,,,,,106,2023-03-30_13h58.15.096,FishGame,2022.1.1,60.9178121234282,
,13,넌 소심해,4,Green,A,3,3.1,ScrollDown,ScrollUp,Green.png,1,Negative,Incongruent,,,,,0,0,0,0,,,,,,,,,,,,,0,12,12,12,,,,,,,,,,,,,,,,,,,,,,,,,,,,,,,,,,,,,,,,,,,,,,,,,,,,,,,,,,,,,,,,,,,,,,,,,,,,,,,,,1,1.1146584000016446,159.77392130000226,None,ScrollDown,정답입니다,159.77392130000226,None,159.77392130000226,None,159.77392130000226,None,159.77392130000226,None,160.789254299998,None,160.789254299998,161.28900360000262,,,,,,,,,,,,,,,,106,2023-03-30_13h58.15.096,FishGame,2022.1.1,60.9178121234282,
,14,넌 합리적이야,2,Green,A,5.583333333333333,4.733333333333333,ScrollDown,ScrollUp,Green.png,1,Positive,Congruent,,,,,0,0,0,0,,,,,,,,,,,,,0,13,13,13,,,,,,,,,,,,,,,,,,,,,,,,,,,,,,,,,,,,,,,,,,,,,,,,,,,,,,,,,,,,,,,,,,,,,,,,,,,,,,,,,1.0077160497506459,0.9483766999983345,161.90901239999948,None,ScrollDown,정답입니다,161.90901239999948,None,161.90901239999948,None,161.90901239999948,None,161.90901239999948,None,162.75570139999763,None,162.75570139999763,163.25568609999755,,,,,,,,,,,,,,,,106,2023-03-30_13h58.15.096,FishGame,2022.1.1,60.9178121234282,
,15,넌 무자비해,5,Orange,B,2.333333333333333,2.1,ScrollUp,ScrollDown,Orange.png,1,Negative,Congruent,,,,,0,0,0,0,,,,,,,,,,,,,0,14,14,14,,,,,,,,,,,,,,,,,,,,,,,,,,,,,,,,,,,,,,,,,,,,,,,,,,,,,,,,,,,,,,,,,,,,,,,,,,,,,,,,,1.8688271592060726,0.893278299998201,163.88031369999953,None,ScrollUp,정답입니다,163.88031369999953,None,163.88031369999953,None,163.88031369999953,None,163.88031369999953,None,164.67220369999995,None,164.67220369999995,165.17222369999945,,,,,,,,,,,,,,,,106,2023-03-30_13h58.15.096,FishGame,2022.1.1,60.9178121234282,
,16,나를 보내줘,6,Green,A,0,0,ScrollUp,ScrollDown,Green.png,1,NonTarget,NonTarget,,,,,0,0,0,0,,,,,,,,,,,,,0,15,15,15,,,,,,,,,,,,,,,,,,,,,,,,,,,,,,,,,,,,,,,,,,,,,,,,,,,,,,,,,,,,,,,,,,,,,,,,,,,,,,,,,1.9629629850387573,1.062843100000464,165.78787459999876,None,ScrollUp,정답입니다,165.78787459999876,None,165.78787459999876,None,165.78787459999876,None,165.78787459999876,None,166.75574439999764,None,166.75574439999764,167.2555699000004,,,,,,,,,,,,,,,,106,2023-03-30_13h58.15.096,FishGame,2022.1.1,60.9178121234282,
,17,넌 현실적이야,3,Orange,B,4.608695652173913,4.766666666666667,ScrollUp,ScrollDown,Orange.png,1,Neutral,Neutral,,,,,0,0,0,0,,,,,,,,,,,,,0,16,16,16,,,,,,,,,,,,,,,,,,,,,,,,,,,,,,,,,,,,,,,,,,,,,,,,,,,,,,,,,,,,,,,,,,,,,,,,,,,,,,,,,1.9614197711149852,0.9459761000034632,167.87720419999823,None,ScrollUp,정답입니다,167.87720419999823,None,167.87720419999823,None,167.87720419999823,None,167.87720419999823,None,168.71993530000327,None,168.71993530000327,169.2199221999981,,,,,,,,,,,,,,,,106,2023-03-30_13h58.15.096,FishGame,2022.1.1,60.9178121234282,
,18,넌 의리있어,1,Orange,B,5.833333333333334,5.633333333333334,ScrollUp,ScrollDown,Orange.png,1,Positive,Incongruent,,,,,0,0,0,0,,,,,,,,,,,,,0,17,17,17,,,,,,,,,,,,,,,,,,,,,,,,,,,,,,,,,,,,,,,,,,,,,,,,,,,,,,,,,,,,,,,,,,,,,,,,,,,,,,,,,2,0.8637130999995861,169.8393225999971,None,ScrollUp,정답입니다,169.8393225999971,None,169.8393225999971,None,169.8393225999971,None,169.8393225999971,None,170.60321359999944,None,170.60321359999944,171.10562919999938,,,,,,,,,,,,,,,,106,2023-03-30_13h58.15.096,FishGame,2022.1.1,60.9178121234282,
,19,넌 신경과민이야,5,Green,A,2.541666666666667,2.166666666666667,ScrollDown,ScrollUp,Green.png,1,Negative,Incongruent,,,,,0,0,0,0,,,,,,,,,,,,,0,18,18,18,,,,,,,,,,,,,,,,,,,,,,,,,,,,,,,,,,,,,,,,,,,,,,,,,,,,,,,,,,,,,,,,,,,,,,,,,,,,,,,,,1.0817901194095612,1.3649861000012606,171.73899130000063,None,ScrollDown,정답입니다,171.73899130000063,None,171.73899130000063,None,171.73899130000063,None,171.73899130000063,None,172.9894970000023,None,172.9894970000023,173.48874570000044,,,,,,,,,,,,,,,,106,2023-03-30_13h58.15.096,FishGame,2022.1.1,60.9178121234282,
,20,넌 편안해,1,Green,A,5.916666666666666,5.866666666666666,ScrollDown,ScrollUp,Green.png,1,Positive,Congruent,,,,,0,0,0,0,,,,,,,,,,,,,0,19,19,19,,,,,,,,,,,,,,,,,,,,,,,,,,,,,,,,,,,,,,,,,,,,,,,,,,,,,,,,,,,,,,,,,,,,,,,,,,,,,,,,,1.0987654229005177,0.8296208000028855,174.10803999999916,None,ScrollDown,정답입니다,174.10803999999916,None,174.10803999999916,None,174.10803999999916,None,174.10803999999916,None,174.83672030000162,None,174.83672030000162,175.33875409999746,,,,,,,,,,,,,,,,106,2023-03-30_13h58.15.096,FishGame,2022.1.1,60.9178121234282,
,21,넌 품위있어,2,Orange,B,5.291666666666666,4.466666666666667,ScrollUp,ScrollDown,Orange.png,1,Positive,Incongruent,,,,,0,0,0,0,,,,,,,,,,,,,0,20,20,20,,,,,,,,,,,,,,,,,,,,,,,,,,,,,,,,,,,,,,,,,,,,,,,,,,,,,,,,,,,,,,,,,,,,,,,,,,,,,,,,,1.8364197413126628,0.9118114000011701,175.9618085999973,None,ScrollUp,정답입니다,175.9618085999973,None,175.9618085999973,None,175.9618085999973,None,175.9618085999973,None,176.77207250000356,None,176.77207250000356,177.27198700000008,,,,,,,,,,,,,,,,106,2023-03-30_13h58.15.096,FishGame,2022.1.1,60.9178121234282,
,22,넌 빈틈없어,3,Green,A,4.833333333333333,3.966666666666667,ScrollDown,ScrollUp,Green.png,1,Neutral,Neutral,,,,,0,0,0,0,,,,,,,,,,,,,0,21,21,21,,,,,,,,,,,,,,,,,,,,,,,,,,,,,,,,,,,,,,,,,,,,,,,,,,,,,,,,,,,,,,,,,,,,,,,,,,,,,,,,,1.0277777810891469,0.913129199994728,177.89127279999957,None,ScrollDown,정답입니다,177.89127279999957,None,177.89127279999957,None,177.89127279999957,None,177.89127279999957,None,178.70329630000197,None,178.70329630000197,179.20535669999663,,,,,,,,,,,,,,,,106,2023-03-30_13h58.15.096,FishGame,2022.1.1,60.9178121234282,
,23,넌 상상력없어,4,Orange,B,2.833333333333333,3.133333333333333,ScrollUp,ScrollDown,Orange.png,1,Negative,Congruent,,,,,0,0,0,0,,,,,,,,,,,,,0,22,22,22,,,,,,,,,,,,,,,,,,,,,,,,,,,,,,,,,,,,,,,,,,,,,,,,,,,,,,,,,,,,,,,,,,,,,,,,,,,,,,,,,2,0.8957511999979033,179.82664970000042,None,ScrollUp,정답입니다,179.82664970000042,None,179.82664970000042,None,179.82664970000042,None,179.82664970000042,None,180.61962620000122,None,180.61962620000122,181.11966280000343,,,,,,,,,,,,,,,,106,2023-03-30_13h58.15.096,FishGame,2022.1.1,60.9178121234282,
,24,넌 지혜로워,2,Orange,B,6.333333333333334,4.633333333333334,ScrollUp,ScrollDown,Orange.png,1,Positive,Incongruent,,,,,0,0,0,0,,,,,,,,,,,,,0,23,23,23,,,,,,,,,,,,,,,,,,,,,,,,,,,,,,,,,,,,,,,,,,,,,,,,,,,,,,,,,,,,,,,,,,,,,,,,,,,,,,,,,1.8749999900658925,1.0295829000024241,181.74541299999692,None,ScrollUp,정답입니다,181.74541299999692,None,181.74541299999692,None,181.74541299999692,None,181.74541299999692,None,182.6696357999972,None,182.6696357999972,183.17199309999705,,,,,,,,,,,,,,,,106,2023-03-30_13h58.15.096,FishGame,2022.1.1,60.9178121234282,
,25,넌 시끄러워,4,Green,A,2.833333333333333,3.033333333333333,ScrollDown,ScrollUp,Green.png,1,Negative,Incongruent,,,,,0,0,0,0,,,,,,,,,,,,,0,24,24,24,,,,,,,,,,,,,,,,,,,,,,,,,,,,,,,,,,,,,,,,,,,,,,,,,,,,,,,,,,,,,,,,,,,,,,,,,,,,,,,,,1.0632716019948323,1.0481289999952423,183.79222819999995,None,ScrollDown,정답입니다,183.79222819999995,None,183.79222819999995,None,183.79222819999995,None,183.79222819999995,None,184.73871009999857,None,184.73871009999857,185.24206409999897,,,,,,,,,,,,,,,,106,2023-03-30_13h58.15.096,FishGame,2022.1.1,60.9178121234282,
,26,넌 만사태평이야,3,Orange,B,4,4.333333333333333,ScrollUp,ScrollDown,Orange.png,1,Neutral,Neutral,,,,,0,0,0,0,,,,,,,,,,,,,0,25,25,25,,,,,,,,,,,,,,,,,,,,,,,,,,,,,,,,,,,,,,,,,,,,,,,,,,,,,,,,,,,,,,,,,,,,,,,,,,,,,,,,,2,0.9318091000022832,185.86165649999748,None,ScrollUp,정답입니다,185.86165649999748,None,185.86165649999748,None,185.86165649999748,None,185.86165649999748,None,186.6885301000002,None,186.6885301000002,187.1885059999986,,,,,,,,,,,,,,,,106,2023-03-30_13h58.15.096,FishGame,2022.1.1,60.9178121234282,
,27,넌 붙임성있어,1,Green,A,5.708333333333333,5.633333333333334,ScrollDown,ScrollUp,Green.png,1,Positive,Congruent,,,,,0,0,0,0,,,,,,,,,,,,,0,26,26,26,,,,,,,,,,,,,,,,,,,,,,,,,,,,,,,,,,,,,,,,,,,,,,,,,,,,,,,,,,,,,,,,,,,,,,,,,,,,,,,,,1.0108024775981903,0.9297153000006801,187.81482790000155,None,ScrollDown,정답입니다,187.81482790000155,None,187.81482790000155,None,187.81482790000155,None,187.81482790000155,None,188.6384962000011,None,188.6384962000011,189.13844450000033,,,,,,,,,,,,,,,,106,2023-03-30_13h58.15.096,FishGame,2022.1.1,60.9178121234282,
,28,넌 영리해,2,Green,A,6,4.033333333333333,ScrollDown,ScrollUp,Green.png,1,Positive,Congruent,,,,,0,0,0,0,,,,,,,,,,,,,0,27,27,27,,,,,,,,,,,,,,,,,,,,,,,,,,,,,,,,,,,,,,,,,,,,,,,,,,,,,,,,,,,,,,,,,,,,,,,,,,,,,,,,,1.1867283930381138,0.89612930000294,189.75659489999816,None,ScrollDown,정답입니다,189.75659489999816,None,189.75659489999816,None,189.75659489999816,None,189.75659489999816,None,190.5527454999974,None,190.5527454999974,191.05274959999952,,,,,,,,,,,,,,,,106,2023-03-30_13h58.15.096,FishGame,2022.1.1,60.9178121234282,
,29,넌 열심이야,1,Orange,B,6.041666666666667,5.833333333333333,ScrollUp,ScrollDown,Orange.png,1,Positive,Incongruent,,,,,0,0,0,0,,,,,,,,,,,,,0,28,28,28,,,,,,,,,,,,,,,,,,,,,,,,,,,,,,,,,,,,,,,,,,,,,,,,,,,,,,,,,,,,,,,,,,,,,,,,,,,,,,,,,1.9027777661879857,0.8644220999995014,191.67215939999733,None,ScrollUp,정답입니다,191.67215939999733,None,191.67215939999733,None,191.67215939999733,None,191.67215939999733,None,192.43609090000245,None,192.43609090000245,192.9384945999991,,,,,,,,,,,,,,,,106,2023-03-30_13h58.15.096,FishGame,2022.1.1,60.9178121234282,
,30,넌 인기없어,4,Orange,B,3,3.3,ScrollUp,ScrollDown,Orange.png,1,Negative,Congruent,,,,,0,0,0,0,,,,,,,,,,,,,0,29,29,29,,,,,,,,,,,,,,,,,,,,,,,,,,,,,,,,,,,,,,,,,,,,,,,,,,,,,,,,,,,,,,,,,,,,,,,,,,,,,,,,,2,0.962982799996098,193.55959330000042,None,ScrollUp,정답입니다,193.55959330000042,None,193.55959330000042,None,193.55959330000042,None,193.55959330000042,None,194.42191029999958,None,194.42191029999958,194.92498389999673,,,,,,,,,,,,,,,,106,2023-03-30_13h58.15.096,FishGame,2022.1.1,60.9178121234282,
,31,넌 익살스러워,3,Green,A,4.708333333333334,4.833333333333333,ScrollDown,ScrollUp,Green.png,1,Neutral,Neutral,,,,,0,0,0,0,,,,,,,,,,,,,0,30,30,30,,,,,,,,,,,,,,,,,,,,,,,,,,,,,,,,,,,,,,,,,,,,,,,,,,,,,,,,,,,,,,,,,,,,,,,,,,,,,,,,,1,0.8650835000007646,195.5419660999978,None,ScrollDown,정답입니다,195.5419660999978,None,195.5419660999978,None,195.5419660999978,None,195.5419660999978,None,196.30492010000307,None,196.30492010000307,196.80509370000073,,,,,,,,,,,,,,,,106,2023-03-30_13h58.15.096,FishGame,2022.1.1,60.9178121234282,
,32,넌 이기적이야,5,Orange,B,2.291666666666667,2.333333333333333,ScrollUp,ScrollDown,Orange.png,1,Negative,Congruent,,,,,0,0,0,0,,,,,,,,,,,,,0,31,31,31,,,,,,,,,,,,,,,,,,,,,,,,,,,,,,,,,,,,,,,,,,,,,,,,,,,,,,,,,,,,,,,,,,,,,,,,,,,,,,,,,1.9737654328346252,0.9982443000044441,197.42905929999688,None,ScrollUp,정답입니다,197.42905929999688,None,197.42905929999688,None,197.42905929999688,None,197.42905929999688,None,198.3214988999971,None,198.3214988999971,198.82152260000294,,,,,,,,,,,,,,,,106,2023-03-30_13h58.15.096,FishGame,2022.1.1,60.9178121234282,
,33,나를 데려가줘,6,Orange,B,0,0,ScrollDown,ScrollUp,Orange.png,1,NonTarget,NonTarget,,,,,0,0,0,0,,,,,,,,,,,,,0,32,32,32,,,,,,,,,,,,,,,,,,,,,,,,,,,,,,,,,,,,,,,,,,,,,,,,,,,,,,,,,,,,,,,,,,,,,,,,,,,,,,,,,1.8873456766208012,0.7650569000034011,199.43944909999846,None,ScrollUp,오답입니다,199.43944909999846,None,199.43944909999846,None,199.43944909999846,None,199.43944909999846,None,200.10503089999838,None,200.10503089999838,200.6048776000025,,,,,,,,,,,,,,,,106,2023-03-30_13h58.15.096,FishGame,2022.1.1,60.9178121234282,
,34,넌 기회주의자야,5,Green,A,2.875,2.133333333333333,ScrollDown,ScrollUp,Green.png,1,Negative,Incongruent,,,,,0,0,0,0,,,,,,,,,,,,,0,33,33,33,,,,,,,,,,,,,,,,,,,,,,,,,,,,,,,,,,,,,,,,,,,,,,,,,,,,,,,,,,,,,,,,,,,,,,,,,,,,,,,,,1.1342592686414719,1.0465451999989455,201.2253905999969,None,ScrollDown,정답입니다,201.2253905999969,None,201.2253905999969,None,201.2253905999969,None,201.2253905999969,None,202.1691589999973,None,202.1691589999973,202.66928429999825,,,,,,,,,,,,,,,,106,2023-03-30_13h58.15.096,FishGame,2022.1.1,60.9178121234282,
,1,넌 미성숙해,4,Green,A,3,3.2,ScrollDown,ScrollUp,Green.png,2,Negative,Incongruent,,,,,0,0,0,0,,,,,,,,,,,,,,,,,0,0,0,0,,,,,,,,,,,,,,,,,,,,,,,,,,,,,,,,,,,,234.8208169999998,236.32092179999745,236.35427999999956,237.30738610000117,237.3407170999999,238.30425410000316,238.30425410000316,None,,,,,,,,,,,,,,,,,,,,,,,,,,,,,,,,,,1.0324074228604634,1.1071582000004128,239.40495129999908,None,ScrollDown,정답입니다,239.40495129999908,None,239.40495129999908,None,239.40495129999908,None,239.40495129999908,None,240.40169779999997,None,240.40169779999997,240.90168779999658,203.16929269999673,None,203.16929269999673,None,0.16851851,-0.06851852,1,0,0,0.0160835299975588,None,233.17070899999817,None,,,106,2023-03-30_13h58.15.096,FishGame,2022.1.1,60.9178121234282,
,2,넌 반사회적이야,5,Orange,B,2.416666666666667,2.033333333333333,ScrollUp,ScrollDown,Orange.png,2,Negative,Congruent,,,,,0,0,0,0,,,,,,,,,,,,,,,,,0,1,1,1,,,,,,,,,,,,,,,,,,,,,,,,,,,,,,,,,,,,,,,,,,,,,,,,,,,,,,,,,,,,,,,,,,,,,,,,,,,,,1.89969136317571,0.966945799998939,241.52304049999657,None,ScrollUp,정답입니다,241.52304049999657,None,241.52304049999657,None,241.52304049999657,None,241.52304049999657,None,242.3874769000031,None,242.3874769000031,242.8873728000035,,,,,,,,,,,,,,,,106,2023-03-30_13h58.15.096,FishGame,2022.1.1,60.9178121234282,
,3,넌 유능해,2,Green,A,6.208333333333333,4.433333333333334,ScrollDown,ScrollUp,Green.png,2,Positive,Congruent,,,,,0,0,0,0,,,,,,,,,,,,,,,,,0,2,2,2,,,,,,,,,,,,,,,,,,,,,,,,,,,,,,,,,,,,,,,,,,,,,,,,,,,,,,,,,,,,,,,,,,,,,,,,,,,,,1,0.8647713999962434,243.50686809999752,None,ScrollDown,정답입니다,243.50686809999752,None,243.50686809999752,None,243.50686809999752,None,243.50686809999752,None,244.27090339999995,None,244.27090339999995,244.7706943000012,,,,,,,,,,,,,,,,106,2023-03-30_13h58.15.096,FishGame,2022.1.1,60.9178121234282,
,4,넌 능숙해,2,Orange,B,5.666666666666667,4.733333333333333,ScrollUp,ScrollDown,Orange.png,2,Positive,Incongruent,,,,,0,0,0,0,,,,,,,,,,,,,,,,,0,3,3,3,,,,,,,,,,,,,,,,,,,,,,,,,,,,,,,,,,,,,,,,,,,,,,,,,,,,,,,,,,,,,,,,,,,,,,,,,,,,,1.884259248773257,0.7629958999968949,245.38862920000247,None,ScrollUp,정답입니다,245.38862920000247,None,245.38862920000247,None,245.38862920000247,None,245.38862920000247,None,246.05389640000067,None,246.05389640000067,246.5538430000015,,,,,,,,,,,,,,,,106,2023-03-30_13h58.15.096,FishGame,2022.1.1,60.9178121234282,
,5,넌 진부해,4,Orange,B,2.458333333333333,3.166666666666667,ScrollUp,ScrollDown,Orange.png,2,Negative,Congruent,,,,,0,0,0,0,,,,,,,,,,,,,,,,,0,4,4,4,,,,,,,,,,,,,,,,,,,,,,,,,,,,,,,,,,,,,,,,,,,,,,,,,,,,,,,,,,,,,,,,,,,,,,,,,,,,,1.9737654328346252,0.9148356000005151,247.17992960000265,None,ScrollUp,정답입니다,247.17992960000265,None,247.17992960000265,None,247.17992960000265,None,247.17992960000265,None,247.9851060000001,None,247.9851060000001,248.4871303999971,,,,,,,,,,,,,,,,106,2023-03-30_13h58.15.096,FishGame,2022.1.1,60.9178121234282,
,6,나를 보내줘,6,Green,A,0,0,ScrollUp,ScrollDown,Green.png,2,NonTarget,NonTarget,,,,,0,0,0,0,,,,,,,,,,,,,,,,,0,5,5,5,,,,,,,,,,,,,,,,,,,,,,,,,,,,,,,,,,,,,,,,,,,,,,,,,,,,,,,,,,,,,,,,,,,,,,,,,,,,,2,1.0337548999959836,249.09958349999943,None,ScrollUp,정답입니다,249.09958349999943,None,249.09958349999943,None,249.09958349999943,None,249.09958349999943,None,250.03715699999884,None,250.03715699999884,250.53710419999697,,,,,,,,,,,,,,,,106,2023-03-30_13h58.15.096,FishGame,2022.1.1,60.9178121234282,
,7,넌 엄격해,3,Green,A,4.166666666666666,4.1,ScrollDown,ScrollUp,Green.png,2,Neutral,Neutral,,,,,0,0,0,0,,,,,,,,,,,,,,,,,0,6,6,6,,,,,,,,,,,,,,,,,,,,,,,,,,,,,,,,,,,,,,,,,,,,,,,,,,,,,,,,,,,,,,,,,,,,,,,,,,,,,1,0.9817679000043427,251.15641560000222,None,ScrollDown,정답입니다,251.15641560000222,None,251.15641560000222,None,251.15641560000222,None,251.15641560000222,None,252.03712950000045,None,252.03712950000045,252.53704270000162,,,,,,,,,,,,,,,,106,2023-03-30_13h58.15.096,FishGame,2022.1.1,60.9178121234282,
,8,나를 보내줘,6,Green,A,0,0,ScrollUp,ScrollDown,Green.png,2,NonTarget,NonTarget,,,,,0,0,0,0,,,,,,,,,,,,,,,,,0,7,7,7,,,,,,,,,,,,,,,,,,,,,,,,,,,,,,,,,,,,,,,,,,,,,,,,,,,,,,,,,,,,,,,,,,,,,,,,,,,,,1.9567901293436687,0.9963621999995667,253.15289800000028,None,ScrollUp,정답입니다,253.15289800000028,None,253.15289800000028,None,253.15289800000028,None,253.15289800000028,None,254.051624599997,None,254.051624599997,254.55372699999862,,,,,,,,,,,,,,,,106,2023-03-30_13h58.15.096,FishGame,2022.1.1,60.9178121234282,
,9,넌 대담해,3,Orange,B,4.875,4.866666666666666,ScrollUp,ScrollDown,Orange.png,2,Neutral,Neutral,,,,,0,0,0,0,,,,,,,,,,,,,,,,,0,8,8,8,,,,,,,,,,,,,,,,,,,,,,,,,,,,,,,,,,,,,,,,,,,,,,,,,,,,,,,,,,,,,,,,,,,,,,,,,,,,,2,0.9982713999997941,255.17553999999654,None,ScrollUp,정답입니다,255.17553999999654,None,255.17553999999654,None,255.17553999999654,None,255.17553999999654,None,256.0703568000026,None,256.0703568000026,256.5703419999991,,,,,,,,,,,,,,,,106,2023-03-30_13h58.15.096,FishGame,2022.1.1,60.9178121234282,
,10,넌 꾸준해,1,Green,A,5.916666666666668,5.8,ScrollDown,ScrollUp,Green.png,2,Positive,Congruent,,,,,0,0,0,0,,,,,,,,,,,,,,,,,0,9,9,9,,,,,,,,,,,,,,,,,,,,,,,,,,,,,,,,,,,,,,,,,,,,,,,,,,,,,,,,,,,,,,,,,,,,,,,,,,,,,1.6604938258727393,0.8929348000019672,257.1972956000027,None,ScrollUp,오답입니다,257.1972956000027,None,257.1972956000027,None,257.1972956000027,None,257.1972956000027,None,257.984641199997,None,257.984641199997,258.485632099997,,,,,,,,,,,,,,,,106,2023-03-30_13h58.15.096,FishGame,2022.1.1,60.9178121234282,
,11,나를 데려가줘,6,Orange,B,0,0,ScrollDown,ScrollUp,Orange.png,2,NonTarget,NonTarget,,,,,0,0,0,0,,,,,,,,,,,,,,,,,0,10,10,10,,,,,,,,,,,,,,,,,,,,,,,,,,,,,,,,,,,,,,,,,,,,,,,,,,,,,,,,,,,,,,,,,,,,,,,,,,,,,1.1481481442848842,1.081640399999742,259.10027049999917,None,ScrollDown,정답입니다,259.10027049999917,None,259.10027049999917,None,259.10027049999917,None,259.10027049999917,None,260.08704540000326,None,260.08704540000326,260.5870412000004,,,,,,,,,,,,,,,,106,2023-03-30_13h58.15.096,FishGame,2022.1.1,60.9178121234282,
,12,넌 독선적이야,5,Green,A,2.458333333333333,1.933333333333333,ScrollDown,ScrollUp,Green.png,2,Negative,Incongruent,,,,,0,0,0,0,,,,,,,,,,,,,,,,,0,11,11,11,,,,,,,,,,,,,,,,,,,,,,,,,,,,,,,,,,,,,,,,,,,,,,,,,,,,,,,,,,,,,,,,,,,,,,,,,,,,,1.1759259204069774,0.7984568999963813,261.20690759999707,None,ScrollDown,정답입니다,261.20690759999707,None,261.20690759999707,None,261.20690759999707,None,261.20690759999707,None,261.903819500003,None,261.903819500003,262.40372780000325,,,,,,,,,,,,,,,,106,2023-03-30_13h58.15.096,FishGame,2022.1.1,60.9178121234282,
,13,나를 보내줘,6,Green,A,0,0,ScrollUp,ScrollDown,Green.png,2,NonTarget,NonTarget,,,,,0,0,0,0,,,,,,,,,,,,,,,,,0,12,12,12,,,,,,,,,,,,,,,,,,,,,,,,,,,,,,,,,,,,,,,,,,,,,,,,,,,,,,,,,,,,,,,,,,,,,,,,,,,,,1.9459876318772633,1.0483505000011064,263.0200790000017,None,ScrollUp,정답입니다,263.0200790000017,None,263.0200790000017,None,263.0200790000017,None,263.0200790000017,None,263.97025920000306,None,263.97025920000306,264.4733367000008,,,,,,,,,,,,,,,,106,2023-03-30_13h58.15.096,FishGame,2022.1.1,60.9178121234282,
,14,넌 책임감있어,1,Orange,B,6.347826086956522,6,ScrollUp,ScrollDown,Orange.png,2,Positive,Incongruent,,,,,0,0,0,0,,,,,,,,,,,,,,,,,0,13,13,13,,,,,,,,,,,,,,,,,,,,,,,,,,,,,,,,,,,,,,,,,,,,,,,,,,,,,,,,,,,,,,,,,,,,,,,,,,,,,1.7160493781169257,0.9314914999995381,265.0923305000033,None,ScrollUp,정답입니다,265.0923305000033,None,265.0923305000033,None,265.0923305000033,None,265.0923305000033,None,265.91807510000217,None,265.91807510000217,266.41805439999735,,,,,,,,,,,,,,,,106,2023-03-30_13h58.15.096,FishGame,2022.1.1,60.9178121234282,
,15,넌 문학적이야,3,Green,A,4.708333333333334,4.333333333333333,ScrollDown,ScrollUp,Green.png,2,Neutral,Neutral,,,,,0,0,0,0,,,,,,,,,,,,,,,,,0,14,14,14,,,,,,,,,,,,,,,,,,,,,,,,,,,,,,,,,,,,,,,,,,,,,,,,,,,,,,,,,,,,,,,,,,,,,,,,,,,,,1.182098776102066,0.9460034999938216,267.03992260000086,None,ScrollDown,정답입니다,267.03992260000086,None,267.03992260000086,None,267.03992260000086,None,267.03992260000086,None,267.8867437000008,None,267.8867437000008,268.3867750999998,,,,,,,,,,,,,,,,106,2023-03-30_13h58.15.096,FishGame,2022.1.1,60.9178121234282,
,16,넌 재미있어,1,Orange,B,5.875,5.7,ScrollUp,ScrollDown,Orange.png,2,Positive,Incongruent,,,,,0,0,0,0,,,,,,,,,,,,,,,,,0,15,15,15,,,,,,,,,,,,,,,,,,,,,,,,,,,,,,,,,,,,,,,,,,,,,,,,,,,,,,,,,,,,,,,,,,,,,,,,,,,,,1.1574074029922485,0.8649661000017659,269.0053568000003,None,ScrollDown,오답입니다,269.0053568000003,None,269.0053568000003,None,269.0053568000003,None,269.0053568000003,None,269.7679859999989,None,269.7679859999989,270.269984999999,,,,,,,,,,,,,,,,106,2023-03-30_13h58.15.096,FishGame,2022.1.1,60.9178121234282,
,17,나를 데려가줘,6,Orange,B,0,0,ScrollDown,ScrollUp,Orange.png,2,NonTarget,NonTarget,,,,,0,0,0,0,,,,,,,,,,,,,,,,,0,16,16,16,,,,,,,,,,,,,,,,,,,,,,,,,,,,,,,,,,,,,,,,,,,,,,,,,,,,,,,,,,,,,,,,,,,,,,,,,,,,,1.1975308656692505,1.198536600000807,270.88786719999916,None,ScrollDown,정답입니다,270.88786719999916,None,270.88786719999916,None,270.88786719999916,None,270.88786719999916,None,271.9866039999979,None,271.9866039999979,272.4866250999985,,,,,,,,,,,,,,,,106,2023-03-30_13h58.15.096,FishGame,2022.1.1,60.9178121234282,
,18,넌 협력적이야,1,Green,A,5.625,5.633333333333334,ScrollDown,ScrollUp,Green.png,2,Positive,Congruent,,,,,0,0,0,0,,,,,,,,,,,,,,,,,0,17,17,17,,,,,,,,,,,,,,,,,,,,,,,,,,,,,,,,,,,,,,,,,,,,,,,,,,,,,,,,,,,,,,,,,,,,,,,,,,,,,1.2037036965290706,0.9129985000035958,273.10601199999655,None,ScrollDown,정답입니다,273.10601199999655,None,273.10601199999655,None,273.10601199999655,None,273.10601199999655,None,273.9199950999973,None,273.9199950999973,274.4232017000031,,,,,,,,,,,,,,,,106,2023-03-30_13h58.15.096,FishGame,2022.1.1,60.9178121234282,
,19,넌 평범해,3,Orange,B,4.333333333333332,4.233333333333333,ScrollUp,ScrollDown,Orange.png,2,Neutral,Neutral,,,,,0,0,0,0,,,,,,,,,,,,,,,,,0,18,18,18,,,,,,,,,,,,,,,,,,,,,,,,,,,,,,,,,,,,,,,,,,,,,,,,,,,,,,,,,,,,,,,,,,,,,,,,,,,,,1.6728395000100136,0.9629480999938096,275.04008690000046,None,ScrollUp,정답입니다,275.04008690000046,None,275.04008690000046,None,275.04008690000046,None,275.04008690000046,None,275.90314840000065,None,275.90314840000065,276.4031939999986,,,,,,,,,,,,,,,,106,2023-03-30_13h58.15.096,FishGame,2022.1.1,60.9178121234282,
,20,넌 오만해,5,Green,A,2.333333333333333,2,ScrollDown,ScrollUp,Green.png,2,Negative,Incongruent,,,,,0,0,0,0,,,,,,,,,,,,,,,,,0,19,19,19,,,,,,,,,,,,,,,,,,,,,,,,,,,,,,,,,,,,,,,,,,,,,,,,,,,,,,,,,,,,,,,,,,,,,,,,,,,,,1.1358024577299755,1.164941800001543,277.02113239999744,None,ScrollDown,정답입니다,277.02113239999744,None,277.02113239999744,None,277.02113239999744,None,277.02113239999744,None,278.0867084999991,None,278.0867084999991,278.5865801999971,,,,,,,,,,,,,,,,106,2023-03-30_13h58.15.096,FishGame,2022.1.1,60.9178121234282,
,21,넌 운이없어,4,Orange,B,3,3.466666666666667,ScrollUp,ScrollDown,Orange.png,2,Negative,Congruent,,,,,0,0,0,0,,,,,,,,,,,,,,,,,0,20,20,20,,,,,,,,,,,,,,,,,,,,,,,,,,,,,,,,,,,,,,,,,,,,,,,,,,,,,,,,,,,,,,,,,,,,,,,,,,,,,1.8348765522241592,0.9125975999995717,279.2121072000009,None,ScrollUp,정답입니다,279.2121072000009,None,279.2121072000009,None,279.2121072000009,None,279.2121072000009,None,280.01778690000356,None,280.01778690000356,280.51975559999846,,,,,,,,,,,,,,,,106,2023-03-30_13h58.15.096,FishGame,2022.1.1,60.9178121234282,
,22,넌 창조적이야,2,Orange,B,6.125,4.633333333333334,ScrollUp,ScrollDown,Orange.png,2,Positive,Incongruent,,,,,0,0,0,0,,,,,,,,,,,,,,,,,0,21,21,21,,,,,,,,,,,,,,,,,,,,,,,,,,,,,,,,,,,,,,,,,,,,,,,,,,,,,,,,,,,,,,,,,,,,,,,,,,,,,1.7793209999799728,0.8817400999978418,281.1420029000001,None,ScrollUp,정답입니다,281.1420029000001,None,281.1420029000001,None,281.1420029000001,None,281.1420029000001,None,281.91775829999824,None,281.91775829999824,282.41981300000043,,,,,,,,,,,,,,,,106,2023-03-30_13h58.15.096,FishGame,2022.1.1,60.9178121234282,
,23,나를 보내줘,6,Green,A,0,0,ScrollUp,ScrollDown,Green.png,2,NonTarget,NonTarget,,,,,0,0,0,0,,,,,,,,,,,,,,,,,0,22,22,22,,,,,,,,,,,,,,,,,,,,,,,,,,,,,,,,,,,,,,,,,,,,,,,,,,,,,,,,,,,,,,,,,,,,,,,,,,,,,2,1.281367000003229,283.03601250000065,None,ScrollUp,정답입니다,283.03601250000065,None,283.03601250000065,None,283.03601250000065,None,283.03601250000065,None,284.2198197000034,None,284.2198197000034,284.71964489999664,,,,,,,,,,,,,,,,106,2023-03-30_13h58.15.096,FishGame,2022.1.1,60.9178121234282,
,24,넌 통찰력있어,2,Green,A,6.5,4.8,ScrollDown,ScrollUp,Green.png,2,Positive,Congruent,,,,,0,0,0,0,,,,,,,,,,,,,,,,,0,23,23,23,,,,,,,,,,,,,,,,,,,,,,,,,,,,,,,,,,,,,,,,,,,,,,,,,,,,,,,,,,,,,,,,,,,,,,,,,,,,,1.0432098706563313,0.9150914999991073,285.3555168000021,None,ScrollDown,정답입니다,285.3555168000021,None,285.3555168000021,None,285.3555168000021,None,285.3555168000021,None,286.16761140000017,None,286.16761140000017,286.6696404000031,,,,,,,,,,,,,,,,106,2023-03-30_13h58.15.096,FishGame,2022.1.1,60.9178121234282,
,25,넌 경솔해,5,Orange,B,2.458333333333333,2.266666666666667,ScrollUp,ScrollDown,Orange.png,2,Negative,Congruent,,,,,0,0,0,0,,,,,,,,,,,,,,,,,0,24,24,24,,,,,,,,,,,,,,,,,,,,,,,,,,,,,,,,,,,,,,,,,,,,,,,,,,,,,,,,,,,,,,,,,,,,,,,,,,,,,1.7391975373029709,0.7797276999990572,287.29048319999856,None,ScrollUp,정답입니다,287.29048319999856,None,287.29048319999856,None,287.29048319999856,None,287.29048319999856,None,287.9696662999995,None,287.9696662999995,288.4696571000022,,,,,,,,,,,,,,,,106,2023-03-30_13h58.15.096,FishGame,2022.1.1,60.9178121234282,
,26,넌 초조해,4,Green,A,2.916666666666667,3.133333333333333,ScrollDown,ScrollUp,Green.png,2,Negative,Incongruent,,,,,0,0,0,0,,,,,,,,,,,,,,,,,0,25,25,25,,,,,,,,,,,,,,,,,,,,,,,,,,,,,,,,,,,,,,,,,,,,,,,,,,,,,,,,,,,,,,,,,,,,,,,,,,,,,1.1234567960103352,0.79593069999828,289.09293060000346,None,ScrollDown,정답입니다,289.09293060000346,None,289.09293060000346,None,289.09293060000346,None,289.09293060000346,None,289.7862513,None,289.7862513,290.2862174999973,,,,,,,,,,,,,,,,106,2023-03-30_13h58.15.096,FishGame,2022.1.1,60.9178121234282,
,27,넌 무관심해,4,Orange,B,2.833333333333333,2.9,ScrollUp,ScrollDown,Orange.png,2,Negative,Congruent,,,,,0,0,0,0,,,,,,,,,,,,,,,,,0,26,26,26,,,,,,,,,,,,,,,,,,,,,,,,,,,,,,,,,,,,,,,,,,,,,,,,,,,,,,,,,,,,,,,,,,,,,,,,,,,,,1.7716049303611119,0.9147432999961893,290.9064204000024,None,ScrollUp,정답입니다,290.9064204000024,None,290.9064204000024,None,290.9064204000024,None,290.9064204000024,None,291.7195914999975,None,291.7195914999975,292.2195495999986,,,,,,,,,,,,,,,,106,2023-03-30_13h58.15.096,FishGame,2022.1.1,60.9178121234282,
,28,넌 감성적이야,3,Orange,B,4.125,4.166666666666667,ScrollUp,ScrollDown,Orange.png,2,Neutral,Neutral,,,,,0,0,0,0,,,,,,,,,,,,,,,,,0,27,27,27,,,,,,,,,,,,,,,,,,,,,,,,,,,,,,,,,,,,,,,,,,,,,,,,,,,,,,,,,,,,,,,,,,,,,,,,,,,,,1.6512345671653748,0.7650412000002689,292.8376008999985,None,ScrollUp,정답입니다,292.8376008999985,None,292.8376008999985,None,292.8376008999985,None,292.8376008999985,None,293.5029093999983,None,293.5029093999983,294.00616530000116,,,,,,,,,,,,,,,,106,2023-03-30_13h58.15.096,FishGame,2022.1.1,60.9178121234282,
,29,넌 배려심있어,1,Green,A,6.083333333333333,5.5,ScrollDown,ScrollUp,Green.png,2,Positive,Congruent,,,,,0,0,0,0,,,,,,,,,,,,,,,,,0,28,28,28,,,,,,,,,,,,,,,,,,,,,,,,,,,,,,,,,,,,,,,,,,,,,,,,,,,,,,,,,,,,,,,,,,,,,,,,,,,,,1.2407407313585281,0.7795819999955711,294.6207551999978,None,ScrollDown,정답입니다,294.6207551999978,None,294.6207551999978,None,294.6207551999978,None,294.6207551999978,None,295.3029003999982,None,295.3029003999982,295.8027688000002,,,,,,,,,,,,,,,,106,2023-03-30_13h58.15.096,FishGame,2022.1.1,60.9178121234282,
,30,넌 숨김없어,3,Green,A,4.5,4.933333333333334,ScrollDown,ScrollUp,Green.png,2,Neutral,Neutral,,,,,0,0,0,0,,,,,,,,,,,,,,,,,0,29,29,29,,,,,,,,,,,,,,,,,,,,,,,,,,,,,,,,,,,,,,,,,,,,,,,,,,,,,,,,,,,,,,,,,,,,,,,,,,,,,1.212962955236435,0.712753400002839,296.42281199999707,None,ScrollDown,정답입니다,296.42281199999707,None,296.42281199999707,None,296.42281199999707,None,296.42281199999707,None,297.03625250000186,None,297.03625250000186,297.5361495000034,,,,,,,,,,,,,,,,106,2023-03-30_13h58.15.096,FishGame,2022.1.1,60.9178121234282,
,31,넌 훌륭해,2,Orange,B,5.916666666666667,4.033333333333333,ScrollUp,ScrollDown,Orange.png,2,Positive,Incongruent,,,,,0,0,0,0,,,,,,,,,,,,,,,,,0,30,30,30,,,,,,,,,,,,,,,,,,,,,,,,,,,,,,,,,,,,,,,,,,,,,,,,,,,,,,,,,,,,,,,,,,,,,,,,,,,,,1.6018518519898257,0.8289162999935797,298.1574341000014,None,ScrollUp,정답입니다,298.1574341000014,None,298.1574341000014,None,298.1574341000014,None,298.1574341000014,None,298.88377279999986,None,298.88377279999986,299.38384190000215,,,,,,,,,,,,,,,,106,2023-03-30_13h58.15.096,FishGame,2022.1.1,60.9178121234282,
,32,넌 슬기로워,2,Green,A,6.166666666666667,4.1,ScrollDown,ScrollUp,Green.png,2,Positive,Congruent,,,,,0,0,0,0,,,,,,,,,,,,,,,,,0,31,31,31,,,,,,,,,,,,,,,,,,,,,,,,,,,,,,,,,,,,,,,,,,,,,,,,,,,,,,,,,,,,,,,,,,,,,,,,,,,,,1.233024686574936,0.8454017999974894,300.00295429999824,None,ScrollDown,정답입니다,300.00295429999824,None,300.00295429999824,None,300.00295429999824,None,300.00295429999824,None,300.7504581999965,None,300.7504581999965,301.2529207999978,,,,,,,,,,,,,,,,106,2023-03-30_13h58.15.096,FishGame,2022.1.1,60.9178121234282,
,33,넌 냉혹해,5,Green,A,2.583333333333333,2.1,ScrollDown,ScrollUp,Green.png,2,Negative,Incongruent,,,,,0,0,0,0,,,,,,,,,,,,,,,,,0,32,32,32,,,,,,,,,,,,,,,,,,,,,,,,,,,,,,,,,,,,,,,,,,,,,,,,,,,,,,,,,,,,,,,,,,,,,,,,,,,,,1.182098776102066,0.8484966000032728,301.87184369999886,None,ScrollDown,정답입니다,301.87184369999886,None,301.87184369999886,None,301.87184369999886,None,301.87184369999886,None,302.6196388000026,None,302.6196388000026,303.1194736999969,,,,,,,,,,,,,,,,106,2023-03-30_13h58.15.096,FishGame,2022.1.1,60.9178121234282,
,34,나를 데려가줘,6,Orange,B,0,0,ScrollDown,ScrollUp,Orange.png,2,NonTarget,NonTarget,,,,,0,0,0,0,,,,,,,,,,,,,,,,,0,33,33,33,,,,,,,,,,,,,,,,,,,,,,,,,,,,,,,,,,,,,,,,,,,,,,,,,,,,,,,,,,,,,,,,,,,,,,,,,,,,,1.584876542290052,0.6591016999955173,303.74571509999805,None,ScrollUp,오답입니다,303.74571509999805,None,303.74571509999805,None,303.74571509999805,None,303.74571509999805,None,304.3003230999966,None,304.3003230999966,304.8004041000022,,,,,,,,,,,,,,,,106,2023-03-30_13h58.15.096,FishGame,2022.1.1,60.9178121234282,
,35,넌 편파적이야,5,Orange,B,2.125,2,ScrollUp,ScrollDown,Orange.png,2,Negative,Congruent,,,,,0,0,0,0,,,,,,,,,,,,,,,,,0,34,34,34,,,,,,,,,,,,,,,,,,,,,,,,,,,,,,,,,,,,,,,,,,,,,,,,,,,,,,,,,,,,,,,,,,,,,,,,,,,,,1.1959876517454784,1.0980086000054143,305.42000939999707,None,ScrollDown,오답입니다,305.42000939999707,None,305.42000939999707,None,305.42000939999707,None,305.42000939999707,None,306.41701650000323,None,306.41701650000323,306.91942299999937,,,,,,,,,,,,,,,,106,2023-03-30_13h58.15.096,FishGame,2022.1.1,60.9178121234282,
,36,넌 슬퍼,4,Green,A,2.583333333333333,3.066666666666667,ScrollDown,ScrollUp,Green.png,2,Negative,Incongruent,,,,,0,0,0,0,,,,,,,,,,,,,,,,,0,35,35,35,,,,,,,,,,,,,,,,,,,,,,,,,,,,,,,,,,,,,,,,,,,,,,,,,,,,,,,,,,,,,,,,,,,,,,,,,,,,,1.194444437821706,1.5315770999950473,307.5344674000007,None,ScrollDown,정답입니다,307.5344674000007,None,307.5344674000007,None,307.5344674000007,None,307.5344674000007,None,308.969519899998,None,308.969519899998,309.46923799999786,,,,,,,,,,,,,,,,106,2023-03-30_13h58.15.096,FishGame,2022.1.1,60.9178121234282,
,37,나를 데려가줘,6,Orange,B,0,0,ScrollDown,ScrollUp,Orange.png,2,NonTarget,NonTarget,,,,,0,0,0,0,,,,,,,,,,,,,,,,,0,36,36,36,,,,,,,,,,,,,,,,,,,,,,,,,,,,,,,,,,,,,,,,,,,,,,,,,,,,,,,,,,,,,,,,,,,,,,,,,,,,,1.1774691343307495,1.048372199998994,310.08752609999647,None,ScrollDown,정답입니다,310.08752609999647,None,310.08752609999647,None,310.08752609999647,None,310.08752609999647,None,311.03593569999794,None,311.03593569999794,311.53588850000233,,,,,,,,,,,,,,,,106,2023-03-30_13h58.15.096,FishGame,2022.1.1,60.9178121234282,
,38,넌 친절해,1,Orange,B,6.041666666666667,5.533333333333333,ScrollUp,ScrollDown,Orange.png,2,Positive,Incongruent,,,,,0,0,0,0,,,,,,,,,,,,,,,,,0,37,37,37,,,,,,,,,,,,,,,,,,,,,,,,,,,,,,,,,,,,,,,,,,,,,,,,,,,,,,,,,,,,,,,,,,,,,,,,,,,,,1.6373456791043282,0.829490000003716,312.156696500002,None,ScrollUp,정답입니다,312.156696500002,None,312.156696500002,None,312.156696500002,None,312.156696500002,None,312.88572150000255,None,312.88572150000255,313.3857441,,,,,,,,,,,,,,,,106,2023-03-30_13h58.15.096,FishGame,2022.1.1,60.9178121234282,
,1,넌 엉성해,4,Green,A,3,3.3,ScrollDown,ScrollUp,Green.png,3,Negative,Incongruent,,,,,0,0,0,0,,,,,,,,,,,,,,,,,,,,,0,0,0,0,,,,,,,,,,,,,,,,,,,,,,,,,,,,,,,,345.9183481,347.4185859999998,347.4519319000028,348.401887,348.451922799999,349.4018694999977,349.4018694999977,None,,,,,,,,,,,,,,,,,,,,,,,,,,,,,,,,,,1.1080246816078823,1.0824972999980673,350.50069639999856,None,ScrollDown,정답입니다,350.50069639999856,None,350.50069639999856,None,350.50069639999856,None,350.50069639999856,None,351.4851656000028,None,351.4851656000028,351.98500900000363,313.8857821999991,None,313.8857821999991,None,-0.042592593,-0.24444444,1,0,0,0.01623612999537727,None,343.885125599998,None,,,106,2023-03-30_13h58.15.096,FishGame,2022.1.1,60.9178121234282,
,2,나를 보내줘,6,Green,A,0,0,ScrollUp,ScrollDown,Green.png,3,NonTarget,NonTarget,,,,,0,0,0,0,,,,,,,,,,,,,,,,,,,,,0,1,1,1,,,,,,,,,,,,,,,,,,,,,,,,,,,,,,,,,,,,,,,,,,,,,,,,,,,,,,,,,,,,,,,,,,,,,,,,,1.5879629639287791,0.89591289999953,352.5999101999987,None,ScrollUp,정답입니다,352.5999101999987,None,352.5999101999987,None,352.5999101999987,None,352.5999101999987,None,353.39952990000165,None,353.39952990000165,353.9015244999973,,,,,,,,,,,,,,,,106,2023-03-30_13h58.15.096,FishGame,2022.1.1,60.9178121234282,
,3,넌 활발해,1,Orange,B,5.666666666666667,5.6,ScrollUp,ScrollDown,Orange.png,3,Positive,Incongruent,,,,,0,0,0,0,,,,,,,,,,,,,,,,,,,,,0,2,2,2,,,,,,,,,,,,,,,,,,,,,,,,,,,,,,,,,,,,,,,,,,,,,,,,,,,,,,,,,,,,,,,,,,,,,,,,,1.6419753084580102,1.2464245999944978,354.5221707000019,None,ScrollUp,정답입니다,354.5221707000019,None,354.5221707000019,None,354.5221707000019,None,354.5221707000019,None,355.6683655000015,None,355.6683655000015,356.16825719999906,,,,,,,,,,,,,,,,106,2023-03-30_13h58.15.096,FishGame,2022.1.1,60.9178121234282,
,4,넌 논리적이야,2,Green,A,5.666666666666666,4.633333333333334,ScrollDown,ScrollUp,Green.png,3,Positive,Congruent,,,,,0,0,0,0,,,,,,,,,,,,,,,,,,,,,0,3,3,3,,,,,,,,,,,,,,,,,,,,,,,,,,,,,,,,,,,,,,,,,,,,,,,,,,,,,,,,,,,,,,,,,,,,,,,,,1.2407407313585281,1.312581999998656,356.79140129999723,None,ScrollDown,정답입니다,356.79140129999723,None,356.79140129999723,None,356.79140129999723,None,356.79140129999723,None,358.0015140000032,None,358.0015140000032,358.4994002000021,,,,,,,,,,,,,,,,106,2023-03-30_13h58.15.096,FishGame,2022.1.1,60.9178121234282,
,5,넌 과묵해,3,Green,A,3.875,4.4,ScrollDown,ScrollUp,Green.png,3,Neutral,Neutral,,,,,0,0,0,0,,,,,,,,,,,,,,,,,,,,,0,4,4,4,,,,,,,,,,,,,,,,,,,,,,,,,,,,,,,,,,,,,,,,,,,,,,,,,,,,,,,,,,,,,,,,,,,,,,,,,1,0.929704700000002,359.11829209999996,None,ScrollDown,정답입니다,359.11829209999996,None,359.11829209999996,None,359.11829209999996,None,359.11829209999996,None,359.9514928999997,None,359.9514928999997,360.45146360000217,,,,,,,,,,,,,,,,106,2023-03-30_13h58.15.096,FishGame,2022.1.1,60.9178121234282,
,6,나를 데려가줘,6,Orange,B,0,0,ScrollDown,ScrollUp,Orange.png,3,NonTarget,NonTarget,,,,,0,0,0,0,,,,,,,,,,,,,,,,,,,,,0,5,5,5,,,,,,,,,,,,,,,,,,,,,,,,,,,,,,,,,,,,,,,,,,,,,,,,,,,,,,,,,,,,,,,,,,,,,,,,,1,1.0626303000026383,361.06776949999767,None,ScrollDown,정답입니다,361.06776949999767,None,361.06776949999767,None,361.06776949999767,None,361.06776949999767,None,362.0324255000014,None,362.0324255000014,362.5323991999976,,,,,,,,,,,,,,,,106,2023-03-30_13h58.15.096,FishGame,2022.1.1,60.9178121234282,
,7,넌 미숙해,4,Orange,B,3,3,ScrollUp,ScrollDown,Orange.png,3,Negative,Congruent,,,,,0,0,0,0,,,,,,,,,,,,,,,,,,,,,0,6,6,6,,,,,,,,,,,,,,,,,,,,,,,,,,,,,,,,,,,,,,,,,,,,,,,,,,,,,,,,,,,,,,,,,,,,,,,,,1.89969136317571,0.9476911000019754,363.1471412000028,None,ScrollUp,정답입니다,363.1471412000028,None,363.1471412000028,None,363.1471412000028,None,363.1471412000028,None,363.99910850000015,None,363.99910850000015,364.4992115999994,,,,,,,,,,,,,,,,106,2023-03-30_13h58.15.096,FishGame,2022.1.1,60.9178121234282,
,8,나를 보내줘,6,Green,A,0,0,ScrollUp,ScrollDown,Green.png,3,NonTarget,NonTarget,,,,,0,0,0,0,,,,,,,,,,,,,,,,,,,,,0,7,7,7,,,,,,,,,,,,,,,,,,,,,,,,,,,,,,,,,,,,,,,,,,,,,,,,,,,,,,,,,,,,,,,,,,,,,,,,,1.6203703756133714,0.9818459000016446,365.1167295999985,None,ScrollUp,정답입니다,365.1167295999985,None,365.1167295999985,None,365.1167295999985,None,365.1167295999985,None,366.0015577000013,None,366.0015577000013,366.5014568999977,,,,,,,,,,,,,,,,106,2023-03-30_13h58.15.096,FishGame,2022.1.1,60.9178121234282,
,9,넌 자신만만해,3,Orange,B,4.833333333333334,4.333333333333333,ScrollUp,ScrollDown,Orange.png,3,Neutral,Neutral,,,,,0,0,0,0,,,,,,,,,,,,,,,,,,,,,0,8,8,8,,,,,,,,,,,,,,,,,,,,,,,,,,,,,,,,,,,,,,,,,,,,,,,,,,,,,,,,,,,,,,,,,,,,,,,,,1.878086417913437,0.9290572000027169,367.11800380000204,None,ScrollUp,정답입니다,367.11800380000204,None,367.11800380000204,None,367.11800380000204,None,367.11800380000204,None,367.9489781000011,None,367.9489781000011,368.4489426,,,,,,,,,,,,,,,,106,2023-03-30_13h58.15.096,FishGame,2022.1.1,60.9178121234282,
,10,넌 탐욕스러워,5,Green,A,2.25,2.1,ScrollDown,ScrollUp,Green.png,3,Negative,Incongruent,,,,,0,0,0,0,,,,,,,,,,,,,,,,,,,,,0,9,9,9,,,,,,,,,,,,,,,,,,,,,,,,,,,,,,,,,,,,,,,,,,,,,,,,,,,,,,,,,,,,,,,,,,,,,,,,,1.2731481492519379,0.881752499997674,369.06450120000227,None,ScrollDown,정답입니다,369.06450120000227,None,369.06450120000227,None,369.06450120000227,None,369.06450120000227,None,369.8489811000036,None,369.8489811000036,370.3489639000036,,,,,,,,,,,,,,,,106,2023-03-30_13h58.15.096,FishGame,2022.1.1,60.9178121234282,
,11,넌 인기있어,2,Green,A,5.458333333333333,4.5,ScrollDown,ScrollUp,Green.png,3,Positive,Congruent,,,,,0,0,0,0,,,,,,,,,,,,,,,,,,,,,0,10,10,10,,,,,,,,,,,,,,,,,,,,,,,,,,,,,,,,,,,,,,,,,,,,,,,,,,,,,,,,,,,,,,,,,,,,,,,,,1.2052469104528427,0.914846599996963,370.9667188000021,None,ScrollDown,정답입니다,370.9667188000021,None,370.9667188000021,None,370.9667188000021,None,370.9667188000021,None,371.7846913999965,None,371.7846913999965,372.2846409999984,,,,,,,,,,,,,,,,106,2023-03-30_13h58.15.096,FishGame,2022.1.1,60.9178121234282,
,12,나를 데려가줘,6,Orange,B,0,0,ScrollDown,ScrollUp,Orange.png,3,NonTarget,NonTarget,,,,,0,0,0,0,,,,,,,,,,,,,,,,,,,,,0,11,11,11,,,,,,,,,,,,,,,,,,,,,,,,,,,,,,,,,,,,,,,,,,,,,,,,,,,,,,,,,,,,,,,,,,,,,,,,,1.2114197413126628,0.885085000001709,372.9014613000036,None,ScrollDown,정답입니다,372.9014613000036,None,372.9014613000036,None,372.9014613000036,None,372.9014613000036,None,373.6877007000003,None,373.6877007000003,374.2011229999989,,,,,,,,,,,,,,,,106,2023-03-30_13h58.15.096,FishGame,2022.1.1,60.9178121234282,
,13,넌 뛰어나,2,Orange,B,6.166666666666667,4,ScrollUp,ScrollDown,Orange.png,3,Positive,Incongruent,,,,,0,0,0,0,,,,,,,,,,,,,,,,,,,,,0,12,12,12,,,,,,,,,,,,,,,,,,,,,,,,,,,,,,,,,,,,,,,,,,,,,,,,,,,,,,,,,,,,,,,,,,,,,,,,,1.7253086368242898,1.0318607000008342,374.8208242000037,None,ScrollUp,정답입니다,374.8208242000037,None,374.8208242000037,None,374.8208242000037,None,374.8208242000037,None,375.75108409999666,None,375.75108409999666,376.2512435000026,,,,,,,,,,,,,,,,106,2023-03-30_13h58.15.096,FishGame,2022.1.1,60.9178121234282,
,14,넌 낙관적이야,1,Green,A,5.75,5.8,ScrollDown,ScrollUp,Green.png,3,Positive,Congruent,,,,,0,0,0,0,,,,,,,,,,,,,,,,,,,,,0,13,13,13,,,,,,,,,,,,,,,,,,,,,,,,,,,,,,,,,,,,,,,,,,,,,,,,,,,,,,,,,,,,,,,,,,,,,,,,,1.2916666666666665,0.8458333999951719,376.87461469999835,None,ScrollDown,정답입니다,376.87461469999835,None,376.87461469999835,None,376.87461469999835,None,376.87461469999835,None,377.6154672999983,None,377.6154672999983,378.115412500003,,,,,,,,,,,,,,,,106,2023-03-30_13h58.15.096,FishGame,2022.1.1,60.9178121234282,
,15,넌 산만해,4,Orange,B,2.695652173913043,3.033333333333333,ScrollUp,ScrollDown,Orange.png,3,Negative,Congruent,,,,,0,0,0,0,,,,,,,,,,,,,,,,,,,,,0,14,14,14,,,,,,,,,,,,,,,,,,,,,,,,,,,,,,,,,,,,,,,,,,,,,,,,,,,,,,,,,,,,,,,,,,,,,,,,,1.723765422900518,0.8814013000010164,378.73189450000064,None,ScrollUp,정답입니다,378.73189450000064,None,378.73189450000064,None,378.73189450000064,None,378.73189450000064,None,379.5154626000003,None,379.5154626000003,380.0179035999972,,,,,,,,,,,,,,,,106,2023-03-30_13h58.15.096,FishGame,2022.1.1,60.9178121234282,
,16,나를 보내줘,6,Green,A,0,0,ScrollUp,ScrollDown,Green.png,3,NonTarget,NonTarget,,,,,0,0,0,0,,,,,,,,,,,,,,,,,,,,,0,15,15,15,,,,,,,,,,,,,,,,,,,,,,,,,,,,,,,,,,,,,,,,,,,,,,,,,,,,,,,,,,,,,,,,,,,,,,,,,1.7283950646718345,0.9126447000016924,380.63287729999865,None,ScrollUp,정답입니다,380.63287729999865,None,380.63287729999865,None,380.63287729999865,None,380.63287729999865,None,381.45131080000283,None,381.45131080000283,381.9511338000011,,,,,,,,,,,,,,,,106,2023-03-30_13h58.15.096,FishGame,2022.1.1,60.9178121234282,
,17,넌 교활해,5,Orange,B,2.333333333333333,2.133333333333333,ScrollUp,ScrollDown,Orange.png,3,Negative,Congruent,,,,,0,0,0,0,,,,,,,,,,,,,,,,,,,,,0,16,16,16,,,,,,,,,,,,,,,,,,,,,,,,,,,,,,,,,,,,,,,,,,,,,,,,,,,,,,,,,,,,,,,,,,,,,,,,,1.5987654303510985,0.9126089000055799,382.56902940000145,None,ScrollUp,정답입니다,382.56902940000145,None,382.56902940000145,None,382.56902940000145,None,382.56902940000145,None,383.3843718999997,None,383.3843718999997,383.88230199999816,,,,,,,,,,,,,,,,106,2023-03-30_13h58.15.096,FishGame,2022.1.1,60.9178121234282,
,18,나를 보내줘,6,Green,A,0,0,ScrollUp,ScrollDown,Green.png,3,NonTarget,NonTarget,,,,,0,0,0,0,,,,,,,,,,,,,,,,,,,,,0,17,17,17,,,,,,,,,,,,,,,,,,,,,,,,,,,,,,,,,,,,,,,,,,,,,,,,,,,,,,,,,,,,,,,,,,,,,,,,,1.496913580301528,0.8793354999943404,384.49795659999654,None,NoResponse,무응답입니다,384.49795659999654,None,384.49795659999654,None,384.49795659999654,None,384.49795659999654,None,385.2819390000004,None,385.2819390000004,385.7819245999999,,,,,,,,,,,,,,,,106,2023-03-30_13h58.15.096,FishGame,2022.1.1,60.9178121234282,
,19,넌 불친절해,5,Orange,B,2.208333333333333,2.033333333333333,ScrollUp,ScrollDown,Orange.png,3,Negative,Congruent,,,,,0,0,0,0,,,,,,,,,,,,,,,,,,,,,0,18,18,18,,,,,,,,,,,,,,,,,,,,,,,,,,,,,,,,,,,,,,,,,,,,,,,,,,,,,,,,,,,,,,,,,,,,,,,,,1.6311728358268738,0.9987189000021317,386.40342280000186,None,ScrollUp,정답입니다,386.40342280000186,None,386.40342280000186,None,386.40342280000186,None,386.40342280000186,None,387.3010970999967,None,387.3010970999967,387.80098480000015,,,,,,,,,,,,,,,,106,2023-03-30_13h58.15.096,FishGame,2022.1.1,60.9178121234282,
,20,넌 지적이야,2,Orange,B,5.75,4.366666666666666,ScrollUp,ScrollDown,Orange.png,3,Positive,Incongruent,,,,,0,0,0,0,,,,,,,,,,,,,,,,,,,,,0,19,19,19,,,,,,,,,,,,,,,,,,,,,,,,,,,,,,,,,,,,,,,,,,,,,,,,,,,,,,,,,,,,,,,,,,,,,,,,,1.7623456716537476,0.9982393999962369,388.4182354000004,None,ScrollUp,정답입니다,388.4182354000004,None,388.4182354000004,None,388.4182354000004,None,388.4182354000004,None,389.3177827000036,None,389.3177827000036,389.81761710000137,,,,,,,,,,,,,,,,106,2023-03-30_13h58.15.096,FishGame,2022.1.1,60.9178121234282,
,21,넌 우유부단해,4,Green,A,2.666666666666667,3.166666666666667,ScrollDown,ScrollUp,Green.png,3,Negative,Incongruent,,,,,0,0,0,0,,,,,,,,,,,,,,,,,,,,,0,20,20,20,,,,,,,,,,,,,,,,,,,,,,,,,,,,,,,,,,,,,,,,,,,,,,,,,,,,,,,,,,,,,,,,,,,,,,,,,1.2407407313585281,0.8628576999981306,390.43779429999995,None,ScrollDown,정답입니다,390.43779429999995,None,390.43779429999995,None,390.43779429999995,None,390.43779429999995,None,391.20085039999685,None,391.20085039999685,391.70077519999904,,,,,,,,,,,,,,,,106,2023-03-30_13h58.15.096,FishGame,2022.1.1,60.9178121234282,
,22,나를 데려가줘,6,Orange,B,0,0,ScrollDown,ScrollUp,Orange.png,3,NonTarget,NonTarget,,,,,0,0,0,0,,,,,,,,,,,,,,,,,,,,,0,21,21,21,,,,,,,,,,,,,,,,,,,,,,,,,,,,,,,,,,,,,,,,,,,,,,,,,,,,,,,,,,,,,,,,,,,,,,,,,1.6975308607021966,0.6480813000016497,392.31762270000036,None,ScrollUp,오답입니다,392.31762270000036,None,392.31762270000036,None,392.31762270000036,None,392.31762270000036,None,392.8653618000026,None,392.8653618000026,393.3673603999996,,,,,,,,,,,,,,,,106,2023-03-30_13h58.15.096,FishGame,2022.1.1,60.9178121234282,
,23,넌 성실해,1,Orange,B,6.041666666666666,5.7,ScrollUp,ScrollDown,Orange.png,3,Positive,Incongruent,,,,,0,0,0,0,,,,,,,,,,,,,,,,,,,,,0,22,22,22,,,,,,,,,,,,,,,,,,,,,,,,,,,,,,,,,,,,,,,,,,,,,,,,,,,,,,,,,,,,,,,,,,,,,,,,,1.8950617214043934,1.0482055000029504,393.9839787000019,None,ScrollUp,정답입니다,393.9839787000019,None,393.9839787000019,None,393.9839787000019,None,393.9839787000019,None,394.93204459999833,None,394.93204459999833,395.43408949999866,,,,,,,,,,,,,,,,106,2023-03-30_13h58.15.096,FishGame,2022.1.1,60.9178121234282,
,24,넌 현실주의적이야,3,Green,A,4.625,4.4,ScrollDown,ScrollUp,Green.png,3,Neutral,Neutral,,,,,0,0,0,0,,,,,,,,,,,,,,,,,,,,,0,23,23,23,,,,,,,,,,,,,,,,,,,,,,,,,,,,,,,,,,,,,,,,,,,,,,,,,,,,,,,,,,,,,,,,,,,,,,,,,1.2824074079593024,1.0126703999994788,396.0501396000036,None,ScrollDown,정답입니다,396.0501396000036,None,396.0501396000036,None,396.0501396000036,None,396.0501396000036,None,396.96501369999896,None,396.96501369999896,397.4650072000004,,,,,,,,,,,,,,,,106,2023-03-30_13h58.15.096,FishGame,2022.1.1,60.9178121234282,
,25,넌 진실돼,1,Green,A,6.625,5.566666666666666,ScrollDown,ScrollUp,Green.png,3,Positive,Congruent,,,,,0,0,0,0,,,,,,,,,,,,,,,,,,,,,0,24,24,24,,,,,,,,,,,,,,,,,,,,,,,,,,,,,,,,,,,,,,,,,,,,,,,,,,,,,,,,,,,,,,,,,,,,,,,,,1.253086417913437,0.8312716000000364,398.0786361999999,None,ScrollDown,정답입니다,398.0786361999999,None,398.0786361999999,None,398.0786361999999,None,398.0786361999999,None,398.8150384999972,None,398.8150384999972,399.31744920000347,,,,,,,,,,,,,,,,106,2023-03-30_13h58.15.096,FishGame,2022.1.1,60.9178121234282,
,26,넌 천진난만해,3,Orange,B,4.958333333333334,4.833333333333333,ScrollUp,ScrollDown,Orange.png,3,Neutral,Neutral,,,,,0,0,0,0,,,,,,,,,,,,,,,,,,,,,0,25,25,25,,,,,,,,,,,,,,,,,,,,,,,,,,,,,,,,,,,,,,,,,,,,,,,,,,,,,,,,,,,,,,,,,,,,,,,,,1.6558641965190568,0.8483734999972512,399.9378715999992,None,ScrollUp,정답입니다,399.9378715999992,None,399.9378715999992,None,399.9378715999992,None,399.9378715999992,None,400.68411729999934,None,400.68411729999934,401.1841229999991,,,,,,,,,,,,,,,,106,2023-03-30_13h58.15.096,FishGame,2022.1.1,60.9178121234282,
,27,넌 교양없어,5,Green,A,2.416666666666667,2.2,ScrollDown,ScrollUp,Green.png,3,Negative,Incongruent,,,,,0,0,0,0,,,,,,,,,,,,,,,,,,,,,0,26,26,26,,,,,,,,,,,,,,,,,,,,,,,,,,,,,,,,,,,,,,,,,,,,,,,,,,,,,,,,,,,,,,,,,,,,,,,,,1.2685185074806213,0.8961631999991369,401.802236800002,None,ScrollDown,정답입니다,401.802236800002,None,401.802236800002,None,401.802236800002,None,401.802236800002,None,402.6006139000019,None,402.6006139000019,403.10052369999903,,,,,,,,,,,,,,,,106,2023-03-30_13h58.15.096,FishGame,2022.1.1,60.9178121234282,
,28,나를 보내줘,6,Green,A,0,0,ScrollUp,ScrollDown,Green.png,3,NonTarget,NonTarget,,,,,0,0,0,0,,,,,,,,,,,,,,,,,,,,,0,27,27,27,,,,,,,,,,,,,,,,,,,,,,,,,,,,,,,,,,,,,,,,,,,,,,,,,,,,,,,,,,,,,,,,,,,,,,,,,1.5679012325902781,0.8979920000056154,403.7147235000011,None,ScrollUp,정답입니다,403.7147235000011,None,403.7147235000011,None,403.7147235000011,None,403.7147235000011,None,404.51717009999993,None,404.51717009999993,405.01720190000196,,,,,,,,,,,,,,,,106,2023-03-30_13h58.15.096,FishGame,2022.1.1,60.9178121234282,
,29,넌 엉뚱스러워,3,Green,A,4.166666666666667,4.133333333333334,ScrollDown,ScrollUp,Green.png,3,Neutral,Neutral,,,,,0,0,0,0,,,,,,,,,,,,,,,,,,,,,0,28,28,28,,,,,,,,,,,,,,,,,,,,,,,,,,,,,,,,,,,,,,,,,,,,,,,,,,,,,,,,,,,,,,,,,,,,,,,,,1.2901234527428946,0.742716399996425,405.64329030000226,None,ScrollDown,정답입니다,405.64329030000226,None,405.64329030000226,None,405.64329030000226,None,405.64329030000226,None,406.2814836000034,None,406.2814836000034,406.7814776000014,,,,,,,,,,,,,,,,106,2023-03-30_13h58.15.096,FishGame,2022.1.1,60.9178121234282,
,30,넌 무지해,4,Orange,B,2.541666666666667,3.066666666666667,ScrollUp,ScrollDown,Orange.png,3,Negative,Congruent,,,,,0,0,0,0,,,,,,,,,,,,,,,,,,,,,0,29,29,29,,,,,,,,,,,,,,,,,,,,,,,,,,,,,,,,,,,,,,,,,,,,,,,,,,,,,,,,,,,,,,,,,,,,,,,,,1.4753086424122255,1.2166337000016938,407.39502150000044,None,NoResponse,무응답입니다,407.39502150000044,None,407.39502150000044,None,407.39502150000044,None,407.39502150000044,None,408.517213500003,None,408.517213500003,409.0171960000007,,,,,,,,,,,,,,,,106,2023-03-30_13h58.15.096,FishGame,2022.1.1,60.9178121234282,
,31,넌 음울해,5,Orange,B,2.25,2.233333333333333,ScrollUp,ScrollDown,Orange.png,3,Negative,Congruent,,,,,0,0,0,0,,,,,,,,,,,,,,,,,,,,,0,30,30,30,,,,,,,,,,,,,,,,,,,,,,,,,,,,,,,,,,,,,,,,,,,,,,,,,,,,,,,,,,,,,,,,,,,,,,,,,1.8117283930381138,0.8980928000019048,409.636685999998,None,ScrollUp,정답입니다,409.636685999998,None,409.636685999998,None,409.636685999998,None,409.636685999998,None,410.4340525000007,None,410.4340525000007,410.933858299999,,,,,,,,,,,,,,,,106,2023-03-30_13h58.15.096,FishGame,2022.1.1,60.9178121234282,
,32,넌 냉소적이야,5,Green,A,2.916666666666667,2.4,ScrollDown,ScrollUp,Green.png,3,Negative,Incongruent,,,,,0,0,0,0,,,,,,,,,,,,,,,,,,,,,0,31,31,31,,,,,,,,,,,,,,,,,,,,,,,,,,,,,,,,,,,,,,,,,,,,,,,,,,,,,,,,,,,,,,,,,,,,,,,,,1.2299382835626602,0.8126711000004434,411.54864349999843,None,ScrollDown,정답입니다,411.54864349999843,None,411.54864349999843,None,411.54864349999843,None,411.54864349999843,None,412.2670244999972,None,412.2670244999972,412.7669870000027,,,,,,,,,,,,,,,,106,2023-03-30_13h58.15.096,FishGame,2022.1.1,60.9178121234282,
,33,나를 데려가줘,6,Orange,B,0,0,ScrollDown,ScrollUp,Orange.png,3,NonTarget,NonTarget,,,,,0,0,0,0,,,,,,,,,,,,,,,,,,,,,0,32,32,32,,,,,,,,,,,,,,,,,,,,,,,,,,,,,,,,,,,,,,,,,,,,,,,,,,,,,,,,,,,,,,,,,,,,,,,,,1.1033950646718342,0.9781249999941792,413.3867936000024,None,ScrollDown,정답입니다,413.3867936000024,None,413.3867936000024,None,413.3867936000024,None,413.3867936000024,None,414.2669489999971,None,414.2669489999971,414.7669457000011,,,,,,,,,,,,,,,,106,2023-03-30_13h58.15.096,FishGame,2022.1.1,60.9178121234282,
,34,넌 쾌활해,1,Green,A,5.541666666666666,5.733333333333333,ScrollDown,ScrollUp,Green.png,3,Positive,Congruent,,,,,0,0,0,0,,,,,,,,,,,,,,,,,,,,,0,33,33,33,,,,,,,,,,,,,,,,,,,,,,,,,,,,,,,,,,,,,,,,,,,,,,,,,,,,,,,,,,,,,,,,,,,,,,,,,1.296296296020349,0.8627794999993057,415.3887936000028,None,ScrollDown,정답입니다,415.3887936000028,None,415.3887936000028,None,415.3887936000028,None,415.3887936000028,None,416.1481827000025,None,416.1481827000025,416.65022699999827,,,,,,,,,,,,,,,,106,2023-03-30_13h58.15.096,FishGame,2022.1.1,60.9178121234282,
,35,나를 보내줘,6,Green,A,0,0,ScrollUp,ScrollDown,Green.png,3,NonTarget,NonTarget,,,,,0,0,0,0,,,,,,,,,,,,,,,,,,,,,0,34,34,34,,,,,,,,,,,,,,,,,,,,,,,,,,,,,,,,,,,,,,,,,,,,,,,,,,,,,,,,,,,,,,,,,,,,,,,,,1.2438271592060726,0.6798003000003519,417.26474459999736,None,ScrollDown,오답입니다,417.26474459999736,None,417.26474459999736,None,417.26474459999736,None,417.26474459999736,None,417.8481996999981,None,417.8481996999981,418.3502578999978,,,,,,,,,,,,,,,,106,2023-03-30_13h58.15.096,FishGame,2022.1.1,60.9178121234282,
,36,넌 명랑해,1,Orange,B,5.739130434782609,5.666666666666667,ScrollUp,ScrollDown,Orange.png,3,Positive,Incongruent,,,,,0,0,0,0,,,,,,,,,,,,,,,,,,,,,0,35,35,35,,,,,,,,,,,,,,,,,,,,,,,,,,,,,,,,,,,,,,,,,,,,,,,,,,,,,,,,,,,,,,,,,,,,,,,,,1.6219135771195092,1.0624777999983053,418.9737460999968,None,ScrollUp,정답입니다,418.9737460999968,None,418.9737460999968,None,418.9737460999968,None,418.9737460999968,None,419.9312135,None,419.9312135,420.4311736000018,,,,,,,,,,,,,,,,106,2023-03-30_13h58.15.096,FishGame,2022.1.1,60.9178121234282,
,37,넌 멍해,4,Green,A,2.833333333333333,3.4,ScrollDown,ScrollUp,Green.png,3,Negative,Incongruent,,,,,0,0,0,0,,,,,,,,,,,,,,,,,,,,,0,36,36,36,,,,,,,,,,,,,,,,,,,,,,,,,,,,,,,,,,,,,,,,,,,,,,,,,,,,,,,,,,,,,,,,,,,,,,,,,1.192901223897934,1.1633121000049869,421.05748409999796,None,ScrollDown,정답입니다,421.05748409999796,None,421.05748409999796,None,421.05748409999796,None,421.05748409999796,None,422.1170325999992,None,422.1170325999992,422.6169368999981,,,,,,,,,,,,,,,,106,2023-03-30_13h58.15.096,FishGame,2022.1.1,60.9178121234282,
,38,나를 데려가줘,6,Orange,B,0,0,ScrollDown,ScrollUp,Orange.png,3,NonTarget,NonTarget,,,,,0,0,0,0,,,,,,,,,,,,,,,,,,,,,0,37,37,37,,,,,,,,,,,,,,,,,,,,,,,,,,,,,,,,,,,,,,,,,,,,,,,,,,,,,,,,,,,,,,,,,,,,,,,,,1.2993827114502587,1.5150001000001794,423.2333304999993,None,ScrollDown,정답입니다,423.2333304999993,None,423.2333304999993,None,423.2333304999993,None,423.2333304999993,None,424.6501954999985,None,424.6501954999985,425.1536085999978,,,,,,,,,,,,,,,,106,2023-03-30_13h58.15.096,FishGame,2022.1.1,60.9178121234282,
,39,넌 현명해,2,Green,A,6.541666666666666,4.533333333333333,ScrollDown,ScrollUp,Green.png,3,Positive,Congruent,,,,,0,0,0,0,,,,,,,,,,,,,,,,,,,,,0,38,38,38,,,,,,,,,,,,,,,,,,,,,,,,,,,,,,,,,,,,,,,,,,,,,,,,,,,,,,,,,,,,,,,,,,,,,,,,,1.0385802288850148,0.9481186999983038,425.7650211,None,ScrollDown,정답입니다,425.7650211,None,425.7650211,None,425.7650211,None,425.7650211,None,426.61672610000096,None,426.61672610000096,427.1167235999965,,,,,,,,,,,,,,,,106,2023-03-30_13h58.15.096,FishGame,2022.1.1,60.9178121234282,
,40,넌 수줍어,3,Orange,B,3.541666666666666,4.366666666666666,ScrollUp,ScrollDown,Orange.png,3,Neutral,Neutral,,,,,0,0,0,0,,,,,,,,,,,,,,,,,,,,,0,39,39,39,,,,,,,,,,,,,,,,,,,,,,,,,,,,,,,,,,,,,,,,,,,,,,,,,,,,,,,,,,,,,,,,,,,,,,,,,1.6265432064731917,1.1149373000007472,427.7368263000026,None,ScrollUp,정답입니다,427.7368263000026,None,427.7368263000026,None,427.7368263000026,None,427.7368263000026,None,428.7499402999965,None,428.7499402999965,429.2499295000016,,,,,,,,,,,,,,,,106,2023-03-30_13h58.15.096,FishGame,2022.1.1,60.9178121234282,
,41,나를 데려가줘,6,Orange,B,0,0,ScrollDown,ScrollUp,Orange.png,3,NonTarget,NonTarget,,,,,0,0,0,0,,,,,,,,,,,,,,,,,,,,,0,40,40,40,,,,,,,,,,,,,,,,,,,,,,,,,,,,,,,,,,,,,,,,,,,,,,,,,,,,,,,,,,,,,,,,,,,,,,,,,1.5663580248753228,1.0481222000016714,429.86629769999854,None,ScrollUp,오답입니다,429.86629769999854,None,429.86629769999854,None,429.86629769999854,None,429.86629769999854,None,430.81456790000084,None,430.81456790000084,431.31660980000015,,,,,,,,,,,,,,,,106,2023-03-30_13h58.15.096,FishGame,2022.1.1,60.9178121234282,
,42,넌 성숙해,2,Orange,B,5.833333333333333,4.533333333333333,ScrollUp,ScrollDown,Orange.png,3,Positive,Incongruent,,,,,0,0,0,0,,,,,,,,,,,,,,,,,,,,,0,41,41,41,,,,,,,,,,,,,,,,,,,,,,,,,,,,,,,,,,,,,,,,,,,,,,,,,,,,,,,,,,,,,,,,,,,,,,,,,1.8101851791143417,1.1598411000013584,431.93351870000333,None,ScrollUp,정답입니다,431.93351870000333,None,431.93351870000333,None,431.93351870000333,None,431.93351870000333,None,432.99307789999875,None,432.99307789999875,433.4976362000016,,,,,,,,,,,,,,,,106,2023-03-30_13h58.15.096,FishGame,2022.1.1,60.9178121234282,
,1,넌 매력적이야,2,Orange,B,6.125,4.666666666666667,ScrollUp,ScrollDown,Orange.png,4,Positive,Incongruent,,,,,0,0,0,0,,,,,,,,,,,,,,,,,,,,,,,,,0,0,0,0,,,,,,,,,,,,,,,,,,,,,,,,,,,,465.465764200002,466.9659466000012,466.99932960000297,467.94932880000124,467.99932409999747,468.9493086000002,468.9493086000002,None,,,,,,,,,,,,,,,,,,,,,,,,,,,,,,,,,,1.8827160596847534,1.2792397000011988,470.05946689999837,None,ScrollUp,정답입니다,470.05946689999837,None,470.05946689999837,None,470.05946689999837,None,470.05946689999837,None,471.23009849999653,None,471.23009849999653,471.7300719999985,433.9976319999987,None,433.9976319999987,None,0.15555556,-0.32037038,1,0,0,0.01636882999446243,None,463.99914620000345,None,,,106,2023-03-30_13h58.15.096,FishGame,2022.1.1,60.9178121234282,
,2,나를 보내줘,6,Green,A,0,0,ScrollUp,ScrollDown,Green.png,4,NonTarget,NonTarget,,,,,0,0,0,0,,,,,,,,,,,,,,,,,,,,,,,,,0,1,1,1,,,,,,,,,,,,,,,,,,,,,,,,,,,,,,,,,,,,,,,,,,,,,,,,,,,,,,,,,,,,,,,,,,,,,1.8163580348094304,1.0169548999983817,472.34391799999867,None,ScrollUp,정답입니다,472.34391799999867,None,472.34391799999867,None,472.34391799999867,None,472.34391799999867,None,473.26598789999844,None,473.26598789999844,473.76586020000104,,,,,,,,,,,,,,,,106,2023-03-30_13h58.15.096,FishGame,2022.1.1,60.9178121234282,
,3,넌 조심스러워,3,Green,A,4.791666666666666,4.666666666666667,ScrollDown,ScrollUp,Green.png,4,Neutral,Neutral,,,,,0,0,0,0,,,,,,,,,,,,,,,,,,,,,,,,,0,2,2,2,,,,,,,,,,,,,,,,,,,,,,,,,,,,,,,,,,,,,,,,,,,,,,,,,,,,,,,,,,,,,,,,,,,,,1.2206790000200272,0.9191859000056866,474.38510400000087,None,ScrollDown,정답입니다,474.38510400000087,None,474.38510400000087,None,474.38510400000087,None,474.38510400000087,None,475.20675250000204,None,475.20675250000204,475.715632200001,,,,,,,,,,,,,,,,106,2023-03-30_13h58.15.096,FishGame,2022.1.1,60.9178121234282,
,4,넌 철학적이야,3,Orange,B,4.5,4.266666666666667,ScrollUp,ScrollDown,Orange.png,4,Neutral,Neutral,,,,,0,0,0,0,,,,,,,,,,,,,,,,,,,,,,,,,0,3,3,3,,,,,,,,,,,,,,,,,,,,,,,,,,,,,,,,,,,,,,,,,,,,,,,,,,,,,,,,,,,,,,,,,,,,,1.8302469104528427,1.06547860000137,476.3358208999998,None,ScrollUp,정답입니다,476.3358208999998,None,476.3358208999998,None,476.3358208999998,None,476.3358208999998,None,477.29899750000186,None,477.29899750000186,477.7990374000001,,,,,,,,,,,,,,,,106,2023-03-30_13h58.15.096,FishGame,2022.1.1,60.9178121234282,
,5,넌 쩨쩨해,5,Green,A,2.375,2.133333333333333,ScrollDown,ScrollUp,Green.png,4,Negative,Incongruent,,,,,0,0,0,0,,,,,,,,,,,,,,,,,,,,,,,,,0,4,4,4,,,,,,,,,,,,,,,,,,,,,,,,,,,,,,,,,,,,,,,,,,,,,,,,,,,,,,,,,,,,,,,,,,,,,1.2222222139437993,1.1263481999994838,478.4234776000012,None,ScrollDown,정답입니다,478.4234776000012,None,478.4234776000012,None,478.4234776000012,None,478.4234776000012,None,479.4488366000005,None,479.4488366000005,479.9488266999979,,,,,,,,,,,,,,,,106,2023-03-30_13h58.15.096,FishGame,2022.1.1,60.9178121234282,
,6,나를 데려가줘,6,Orange,B,0,0,ScrollDown,ScrollUp,Orange.png,4,NonTarget,NonTarget,,,,,0,0,0,0,,,,,,,,,,,,,,,,,,,,,,,,,0,5,5,5,,,,,,,,,,,,,,,,,,,,,,,,,,,,,,,,,,,,,,,,,,,,,,,,,,,,,,,,,,,,,,,,,,,,,1.1049382785956066,1.1459814999980154,480.5651532999982,None,ScrollDown,정답입니다,480.5651532999982,None,480.5651532999982,None,480.5651532999982,None,480.5651532999982,None,481.61555390000285,None,481.61555390000285,482.1155457999994,,,,,,,,,,,,,,,,106,2023-03-30_13h58.15.096,FishGame,2022.1.1,60.9178121234282,
,7,넌 고집불통이야,5,Orange,B,2.875,2,ScrollUp,ScrollDown,Orange.png,4,Negative,Congruent,,,,,0,0,0,0,,,,,,,,,,,,,,,,,,,,,,,,,0,6,6,6,,,,,,,,,,,,,,,,,,,,,,,,,,,,,,,,,,,,,,,,,,,,,,,,,,,,,,,,,,,,,,,,,,,,,1.6203703756133714,0.829398100002436,482.7363759,None,ScrollUp,정답입니다,482.7363759,None,482.7363759,None,482.7363759,None,482.7363759,None,483.4635583999989,None,483.4635583999989,483.96878450000077,,,,,,,,,,,,,,,,106,2023-03-30_13h58.15.096,FishGame,2022.1.1,60.9178121234282,
,8,넌 무심해,4,Green,A,2.875,3.2,ScrollDown,ScrollUp,Green.png,4,Negative,Incongruent,,,,,0,0,0,0,,,,,,,,,,,,,,,,,,,,,,,,,0,7,7,7,,,,,,,,,,,,,,,,,,,,,,,,,,,,,,,,,,,,,,,,,,,,,,,,,,,,,,,,,,,,,,,,,,,,,1.2499999900658925,1.01264529999753,484.5789181,None,ScrollDown,정답입니다,484.5789181,None,484.5789181,None,484.5789181,None,484.5789181,None,485.49878719999833,None,485.49878719999833,485.99873359999765,,,,,,,,,,,,,,,,106,2023-03-30_13h58.15.096,FishGame,2022.1.1,60.9178121234282,
,9,넌 정겨워,1,Green,A,5.791666666666667,5.666666666666667,ScrollDown,ScrollUp,Green.png,4,Positive,Congruent,,,,,0,0,0,0,,,,,,,,,,,,,,,,,,,,,,,,,0,8,8,8,,,,,,,,,,,,,,,,,,,,,,,,,,,,,,,,,,,,,,,,,,,,,,,,,,,,,,,,,,,,,,,,,,,,,1.31635802735885,0.8148645000037504,486.634461200003,None,ScrollDown,정답입니다,486.634461200003,None,486.634461200003,None,486.634461200003,None,486.634461200003,None,487.34875979999924,None,487.34875979999924,487.8488148000033,,,,,,,,,,,,,,,,106,2023-03-30_13h58.15.096,FishGame,2022.1.1,60.9178121234282,
,10,나를 데려가줘,6,Orange,B,0,0,ScrollDown,ScrollUp,Orange.png,4,NonTarget,NonTarget,,,,,0,0,0,0,,,,,,,,,,,,,,,,,,,,,,,,,0,9,9,9,,,,,,,,,,,,,,,,,,,,,,,,,,,,,,,,,,,,,,,,,,,,,,,,,,,,,,,,,,,,,,,,,,,,,1.1311728407939274,0.9962378999989596,488.47109420000197,None,ScrollDown,정답입니다,488.47109420000197,None,488.47109420000197,None,488.47109420000197,None,488.47109420000197,None,489.3630298999997,None,489.3630298999997,489.8638850999996,,,,,,,,,,,,,,,,106,2023-03-30_13h58.15.096,FishGame,2022.1.1,60.9178121234282,
,11,넌 체제순응적이야,4,Orange,B,3,3.6,ScrollUp,ScrollDown,Orange.png,4,Negative,Congruent,,,,,0,0,0,0,,,,,,,,,,,,,,,,,,,,,,,,,0,10,10,10,,,,,,,,,,,,,,,,,,,,,,,,,,,,,,,,,,,,,,,,,,,,,,,,,,,,,,,,,,,,,,,,,,,,,1.4799382717659075,0.998043300001882,490.48582149999856,None,NoResponse,무응답입니다,490.48582149999856,None,490.48582149999856,None,490.48582149999856,None,490.48582149999856,None,491.379735399998,None,491.379735399998,491.8820936999982,,,,,,,,,,,,,,,,106,2023-03-30_13h58.15.096,FishGame,2022.1.1,60.9178121234282,
,12,나를 보내줘,6,Green,A,0,0,ScrollUp,ScrollDown,Green.png,4,NonTarget,NonTarget,,,,,0,0,0,0,,,,,,,,,,,,,,,,,,,,,,,,,0,11,11,11,,,,,,,,,,,,,,,,,,,,,,,,,,,,,,,,,,,,,,,,,,,,,,,,,,,,,,,,,,,,,,,,,,,,,1.6203703756133714,1.032080599994515,492.4964051999996,None,ScrollUp,정답입니다,492.4964051999996,None,492.4964051999996,None,492.4964051999996,None,492.4964051999996,None,493.43207260000054,None,493.43207260000054,493.93207209999673,,,,,,,,,,,,,,,,106,2023-03-30_13h58.15.096,FishGame,2022.1.1,60.9178121234282,
,13,넌 박식해,2,Green,A,5.625,3.933333333333333,ScrollDown,ScrollUp,Green.png,4,Positive,Congruent,,,,,0,0,0,0,,,,,,,,,,,,,,,,,,,,,,,,,0,12,12,12,,,,,,,,,,,,,,,,,,,,,,,,,,,,,,,,,,,,,,,,,,,,,,,,,,,,,,,,,,,,,,,,,,,,,1.3595679054657617,0.8126810000030673,494.55587869999727,None,ScrollDown,정답입니다,494.55587869999727,None,494.55587869999727,None,494.55587869999727,None,494.55587869999727,None,495.26543200000015,None,495.26543200000015,495.76526049999666,,,,,,,,,,,,,,,,106,2023-03-30_13h58.15.096,FishGame,2022.1.1,60.9178121234282,
,14,나를 보내줘,6,Green,A,0,0,ScrollUp,ScrollDown,Green.png,4,NonTarget,NonTarget,,,,,0,0,0,0,,,,,,,,,,,,,,,,,,,,,,,,,0,13,13,13,,,,,,,,,,,,,,,,,,,,,,,,,,,,,,,,,,,,,,,,,,,,,,,,,,,,,,,,,,,,,,,,,,,,,1.5570987661679587,0.7796047000010731,496.3778222999972,None,ScrollUp,정답입니다,496.3778222999972,None,496.3778222999972,None,496.3778222999972,None,496.3778222999972,None,497.06284700000106,None,497.06284700000106,497.562872399998,,,,,,,,,,,,,,,,106,2023-03-30_13h58.15.096,FishGame,2022.1.1,60.9178121234282,
,15,넌 침착해,1,Orange,B,5.458333333333333,5.566666666666666,ScrollUp,ScrollDown,Orange.png,4,Positive,Incongruent,,,,,0,0,0,0,,,,,,,,,,,,,,,,,,,,,,,,,0,14,14,14,,,,,,,,,,,,,,,,,,,,,,,,,,,,,,,,,,,,,,,,,,,,,,,,,,,,,,,,,,,,,,,,,,,,,1.5123456787938871,0.8660353000013856,498.1819048000034,None,NoResponse,무응답입니다,498.1819048000034,None,498.1819048000034,None,498.1819048000034,None,498.1819048000034,None,498.9462360000034,None,498.9462360000034,499.44645039999887,,,,,,,,,,,,,,,,106,2023-03-30_13h58.15.096,FishGame,2022.1.1,60.9178121234282,
,16,나를 데려가줘,6,Orange,B,0,0,ScrollDown,ScrollUp,Orange.png,4,NonTarget,NonTarget,,,,,0,0,0,0,,,,,,,,,,,,,,,,,,,,,,,,,0,15,15,15,,,,,,,,,,,,,,,,,,,,,,,,,,,,,,,,,,,,,,,,,,,,,,,,,,,,,,,,,,,,,,,,,,,,,1.1959876517454784,1.0298187000007601,500.0689540000021,None,ScrollDown,정답입니다,500.0689540000021,None,500.0689540000021,None,500.0689540000021,None,500.0689540000021,None,500.99861319999764,None,500.99861319999764,501.4985902999979,,,,,,,,,,,,,,,,106,2023-03-30_13h58.15.096,FishGame,2022.1.1,60.9178121234282,
,17,넌 행복해,1,Green,A,6.416666666666666,6.166666666666667,ScrollDown,ScrollUp,Green.png,4,Positive,Congruent,,,,,0,0,0,0,,,,,,,,,,,,,,,,,,,,,,,,,0,16,16,16,,,,,,,,,,,,,,,,,,,,,,,,,,,,,,,,,,,,,,,,,,,,,,,,,,,,,,,,,,,,,,,,,,,,,1.162037044763565,0.7980088999975123,502.12122120000276,None,ScrollDown,정답입니다,502.12122120000276,None,502.12122120000276,None,502.12122120000276,None,502.12122120000276,None,502.81508290000056,None,502.81508290000056,503.3150431999966,,,,,,,,,,,,,,,,106,2023-03-30_13h58.15.096,FishGame,2022.1.1,60.9178121234282,
,18,넌 겸손해,2,Orange,B,5.791666666666667,4.766666666666667,ScrollUp,ScrollDown,Orange.png,4,Positive,Incongruent,,,,,0,0,0,0,,,,,,,,,,,,,,,,,,,,,,,,,0,17,17,17,,,,,,,,,,,,,,,,,,,,,,,,,,,,,,,,,,,,,,,,,,,,,,,,,,,,,,,,,,,,,,,,,,,,,1.679012343287468,0.9959444999985863,503.9366889000012,None,ScrollUp,정답입니다,503.9366889000012,None,503.9366889000012,None,503.9366889000012,None,503.9366889000012,None,504.8294066000017,None,504.8294066000017,505.32948320000287,,,,,,,,,,,,,,,,106,2023-03-30_13h58.15.096,FishGame,2022.1.1,60.9178121234282,
,19,나를 보내줘,6,Green,A,0,0,ScrollUp,ScrollDown,Green.png,4,NonTarget,NonTarget,,,,,0,0,0,0,,,,,,,,,,,,,,,,,,,,,,,,,0,18,18,18,,,,,,,,,,,,,,,,,,,,,,,,,,,,,,,,,,,,,,,,,,,,,,,,,,,,,,,,,,,,,,,,,,,,,1.7361111094554267,0.9961439999970025,505.9445129000014,None,ScrollUp,정답입니다,505.9445129000014,None,505.9445129000014,None,505.9445129000014,None,505.9445129000014,None,506.84604930000205,None,506.84604930000205,507.3483963000035,,,,,,,,,,,,,,,,106,2023-03-30_13h58.15.096,FishGame,2022.1.1,60.9178121234282,
,20,넌 의심없어,3,Green,A,4.166666666666667,4.6,ScrollDown,ScrollUp,Green.png,4,Neutral,Neutral,,,,,0,0,0,0,,,,,,,,,,,,,,,,,,,,,,,,,0,19,19,19,,,,,,,,,,,,,,,,,,,,,,,,,,,,,,,,,,,,,,,,,,,,,,,,,,,,,,,,,,,,,,,,,,,,,1.1095678955316544,0.9319211999973049,507.9644391999973,None,ScrollDown,정답입니다,507.9644391999973,None,507.9644391999973,None,507.9644391999973,None,507.9644391999973,None,508.79843860000256,None,508.79843860000256,509.2982536999989,,,,,,,,,,,,,,,,106,2023-03-30_13h58.15.096,FishGame,2022.1.1,60.9178121234282,
,21,넌 시시해,4,Green,A,2.666666666666667,2.966666666666667,ScrollDown,ScrollUp,Green.png,4,Negative,Incongruent,,,,,0,0,0,0,,,,,,,,,,,,,,,,,,,,,,,,,0,20,20,20,,,,,,,,,,,,,,,,,,,,,,,,,,,,,,,,,,,,,,,,,,,,,,,,,,,,,,,,,,,,,,,,,,,,,1,0.9151210000054562,509.91253850000066,None,ScrollDown,정답입니다,509.91253850000066,None,509.91253850000066,None,509.91253850000066,None,509.91253850000066,None,510.73155730000144,None,510.73155730000144,511.2315738999969,,,,,,,,,,,,,,,,106,2023-03-30_13h58.15.096,FishGame,2022.1.1,60.9178121234282,
,22,나를 데려가줘,6,Orange,B,0,0,ScrollDown,ScrollUp,Orange.png,4,NonTarget,NonTarget,,,,,0,0,0,0,,,,,,,,,,,,,,,,,,,,,,,,,0,21,21,21,,,,,,,,,,,,,,,,,,,,,,,,,,,,,,,,,,,,,,,,,,,,,,,,,,,,,,,,,,,,,,,,,,,,,1.2623456766208014,0.8462606999964919,511.853463200001,None,ScrollDown,정답입니다,511.853463200001,None,511.853463200001,None,511.853463200001,None,511.853463200001,None,512.5981771000006,None,512.5981771000006,513.0981207000004,,,,,,,,,,,,,,,,106,2023-03-30_13h58.15.096,FishGame,2022.1.1,60.9178121234282,
,23,넌 무정해,5,Green,A,2.5,2.2,ScrollDown,ScrollUp,Green.png,4,Negative,Incongruent,,,,,0,0,0,0,,,,,,,,,,,,,,,,,,,,,,,,,0,22,22,22,,,,,,,,,,,,,,,,,,,,,,,,,,,,,,,,,,,,,,,,,,,,,,,,,,,,,,,,,,,,,,,,,,,,,1.652777781089147,0.9799066999985371,513.7119573000018,None,ScrollUp,오답입니다,513.7119573000018,None,513.7119573000018,None,513.7119573000018,None,513.7119573000018,None,514.5981794999971,None,514.5981794999971,515.0981350000002,,,,,,,,,,,,,,,,106,2023-03-30_13h58.15.096,FishGame,2022.1.1,60.9178121234282,
,24,넌 긍정적이야,1,Orange,B,6.041666666666667,6.066666666666666,ScrollUp,ScrollDown,Orange.png,4,Positive,Incongruent,,,,,0,0,0,0,,,,,,,,,,,,,,,,,,,,,,,,,0,23,23,23,,,,,,,,,,,,,,,,,,,,,,,,,,,,,,,,,,,,,,,,,,,,,,,,,,,,,,,,,,,,,,,,,,,,,1.4537037033587694,1.5627816999985953,515.7163470000014,None,NoResponse,무응답입니다,515.7163470000014,None,515.7163470000014,None,515.7163470000014,None,515.7163470000014,None,517.1814157999979,None,517.1814157999979,517.6980156999998,,,,,,,,,,,,,,,,106,2023-03-30_13h58.15.096,FishGame,2022.1.1,60.9178121234282,
,25,나를 보내줘,6,Green,A,0,0,ScrollUp,ScrollDown,Green.png,4,NonTarget,NonTarget,,,,,0,0,0,0,,,,,,,,,,,,,,,,,,,,,,,,,0,24,24,24,,,,,,,,,,,,,,,,,,,,,,,,,,,,,,,,,,,,,,,,,,,,,,,,,,,,,,,,,,,,,,,,,,,,,1.787037044763565,1.2315631999954348,518.2951612999968,None,ScrollUp,정답입니다,518.2951612999968,None,518.2951612999968,None,518.2951612999968,None,518.2951612999968,None,519.4293060999989,None,519.4293060999989,519.9313142000028,,,,,,,,,,,,,,,,106,2023-03-30_13h58.15.096,FishGame,2022.1.1,60.9178121234282,
,26,넌 시기심이 많아,5,Orange,B,2.458333333333333,2.233333333333333,ScrollUp,ScrollDown,Orange.png,4,Negative,Congruent,,,,,0,0,0,0,,,,,,,,,,,,,,,,,,,,,,,,,0,25,25,25,,,,,,,,,,,,,,,,,,,,,,,,,,,,,,,,,,,,,,,,,,,,,,,,,,,,,,,,,,,,,,,,,,,,,1.8611111144224803,1.2459717000019737,520.5530639999997,None,ScrollUp,정답입니다,520.5530639999997,None,520.5530639999997,None,520.5530639999997,None,520.5530639999997,None,521.6980210999973,None,521.6980210999973,522.1980406000002,,,,,,,,,,,,,,,,106,2023-03-30_13h58.15.096,FishGame,2022.1.1,60.9178121234282,
,27,넌 탁월해,2,Green,A,5.708333333333334,4.5,ScrollDown,ScrollUp,Green.png,4,Positive,Congruent,,,,,0,0,0,0,,,,,,,,,,,,,,,,,,,,,,,,,0,26,26,26,,,,,,,,,,,,,,,,,,,,,,,,,,,,,,,,,,,,,,,,,,,,,,,,,,,,,,,,,,,,,,,,,,,,,1.2793209801117578,0.8291709999975865,522.8149226000023,None,ScrollDown,정답입니다,522.8149226000023,None,522.8149226000023,None,522.8149226000023,None,522.8149226000023,None,523.5456565999993,None,523.5456565999993,524.0465014000001,,,,,,,,,,,,,,,,106,2023-03-30_13h58.15.096,FishGame,2022.1.1,60.9178121234282,
,28,나를 데려가줘,6,Orange,B,0,0,ScrollDown,ScrollUp,Orange.png,4,NonTarget,NonTarget,,,,,0,0,0,0,,,,,,,,,,,,,,,,,,,,,,,,,0,27,27,27,,,,,,,,,,,,,,,,,,,,,,,,,,,,,,,,,,,,,,,,,,,,,,,,,,,,,,,,,,,,,,,,,,,,,1.266975318392118,0.9305552999940119,524.6603965000031,None,ScrollDown,정답입니다,524.6603965000031,None,524.6603965000031,None,524.6603965000031,None,524.6603965000031,None,525.4956372000015,None,525.4956372000015,525.9980368000033,,,,,,,,,,,,,,,,106,2023-03-30_13h58.15.096,FishGame,2022.1.1,60.9178121234282,
,29,넌 조용해,3,Orange,B,4.333333333333333,4.166666666666667,ScrollUp,ScrollDown,Orange.png,4,Neutral,Neutral,,,,,0,0,0,0,,,,,,,,,,,,,,,,,,,,,,,,,0,28,28,28,,,,,,,,,,,,,,,,,,,,,,,,,,,,,,,,,,,,,,,,,,,,,,,,,,,,,,,,,,,,,,,,,,,,,1.7762345721324284,0.915371299997787,526.6177150000003,None,ScrollUp,정답입니다,526.6177150000003,None,526.6177150000003,None,526.6177150000003,None,526.6177150000003,None,527.4313271999999,None,527.4313271999999,527.9312033000024,,,,,,,,,,,,,,,,106,2023-03-30_13h58.15.096,FishGame,2022.1.1,60.9178121234282,
,30,넌 다정해,1,Green,A,5.833333333333334,5.7,ScrollDown,ScrollUp,Green.png,4,Positive,Congruent,,,,,0,0,0,0,,,,,,,,,,,,,,,,,,,,,,,,,0,29,29,29,,,,,,,,,,,,,,,,,,,,,,,,,,,,,,,,,,,,,,,,,,,,,,,,,,,,,,,,,,,,,,,,,,,,,1.1496913582086563,0.8630312000022968,528.5493627999967,None,ScrollDown,정답입니다,528.5493627999967,None,528.5493627999967,None,528.5493627999967,None,528.5493627999967,None,529.3144928999973,None,529.3144928999973,529.8145405999967,,,,,,,,,,,,,,,,106,2023-03-30_13h58.15.096,FishGame,2022.1.1,60.9178121234282,
,31,넌 능력있어,2,Orange,B,6.166666666666666,4.6,ScrollUp,ScrollDown,Orange.png,4,Positive,Incongruent,,,,,0,0,0,0,,,,,,,,,,,,,,,,,,,,,,,,,0,30,30,30,,,,,,,,,,,,,,,,,,,,,,,,,,,,,,,,,,,,,,,,,,,,,,,,,,,,,,,,,,,,,,,,,,,,,1.5339506162951388,0.809541899994656,530.4350109000006,None,NoResponse,무응답입니다,530.4350109000006,None,530.4350109000006,None,530.4350109000006,None,530.4350109000006,None,531.1457373000012,None,531.1457373000012,531.647745299997,,,,,,,,,,,,,,,,106,2023-03-30_13h58.15.096,FishGame,2022.1.1,60.9178121234282,
,32,넌 불쾌해,5,Green,A,2.125,1.933333333333333,ScrollDown,ScrollUp,Green.png,4,Negative,Incongruent,,,,,0,0,0,0,,,,,,,,,,,,,,,,,,,,,,,,,0,31,31,31,,,,,,,,,,,,,,,,,,,,,,,,,,,,,,,,,,,,,,,,,,,,,,,,,,,,,,,,,,,,,,,,,,,,,1.2114197413126628,0.7818255000020145,532.257577700002,None,ScrollDown,정답입니다,532.257577700002,None,532.257577700002,None,532.257577700002,None,532.257577700002,None,532.9457430999973,None,532.9457430999973,533.4477751000013,,,,,,,,,,,,,,,,106,2023-03-30_13h58.15.096,FishGame,2022.1.1,60.9178121234282,
,33,나를 데려가줘,6,Orange,B,0,0,ScrollDown,ScrollUp,Orange.png,4,NonTarget,NonTarget,,,,,0,0,0,0,,,,,,,,,,,,,,,,,,,,,,,,,0,32,32,32,,,,,,,,,,,,,,,,,,,,,,,,,,,,,,,,,,,,,,,,,,,,,,,,,,,,,,,,,,,,,,,,,,,,,1.095679019888242,1.0628370999984327,534.0700578999968,None,ScrollDown,정답입니다,534.0700578999968,None,534.0700578999968,None,534.0700578999968,None,534.0700578999968,None,535.0287215999997,None,535.0287215999997,535.5287642999974,,,,,,,,,,,,,,,,106,2023-03-30_13h58.15.096,FishGame,2022.1.1,60.9178121234282,
,34,넌 유순해,3,Green,A,4.458333333333333,5,ScrollDown,ScrollUp,Green.png,4,Neutral,Neutral,,,,,0,0,0,0,,,,,,,,,,,,,,,,,,,,,,,,,0,33,33,33,,,,,,,,,,,,,,,,,,,,,,,,,,,,,,,,,,,,,,,,,,,,,,,,,,,,,,,,,,,,,,,,,,,,,1.162037044763565,0.8320128999985172,536.1408787000037,None,ScrollDown,정답입니다,536.1408787000037,None,536.1408787000037,None,536.1408787000037,None,536.1408787000037,None,536.8812054000009,None,536.8812054000009,537.3811093999975,,,,,,,,,,,,,,,,106,2023-03-30_13h58.15.096,FishGame,2022.1.1,60.9178121234282,
,35,넌 근심스러워,4,Orange,B,2.708333333333333,3.133333333333333,ScrollUp,ScrollDown,Orange.png,4,Negative,Congruent,,,,,0,0,0,0,,,,,,,,,,,,,,,,,,,,,,,,,0,34,34,34,,,,,,,,,,,,,,,,,,,,,,,,,,,,,,,,,,,,,,,,,,,,,,,,,,,,,,,,,,,,,,,,,,,,,1.6759259278575578,0.9984019999974407,537.9996264000001,None,ScrollUp,정답입니다,537.9996264000001,None,537.9996264000001,None,537.9996264000001,None,537.9996264000001,None,538.8977594000025,None,538.8977594000025,539.4142802999995,,,,,,,,,,,,,,,,106,2023-03-30_13h58.15.096,FishGame,2022.1.1,60.9178121234282,
,36,넌 세련되었어,2,Green,A,5.5,4.6,ScrollDown,ScrollUp,Green.png,4,Positive,Congruent,,,,,0,0,0,0,,,,,,,,,,,,,,,,,,,,,,,,,0,35,35,35,,,,,,,,,,,,,,,,,,,,,,,,,,,,,,,,,,,,,,,,,,,,,,,,,,,,,,,,,,,,,,,,,,,,,1.2932098805904388,0.7982132000033744,540.0177526999978,None,ScrollDown,정답입니다,540.0177526999978,None,540.0177526999978,None,540.0177526999978,None,540.0177526999978,None,540.7142816999985,None,540.7142816999985,541.2142677000011,,,,,,,,,,,,,,,,106,2023-03-30_13h58.15.096,FishGame,2022.1.1,60.9178121234282,
,37,나를 보내줘,6,Green,A,0,0,ScrollUp,ScrollDown,Green.png,4,NonTarget,NonTarget,,,,,0,0,0,0,,,,,,,,,,,,,,,,,,,,,,,,,0,36,36,36,,,,,,,,,,,,,,,,,,,,,,,,,,,,,,,,,,,,,,,,,,,,,,,,,,,,,,,,,,,,,,,,,,,,,1.6126543184121451,0.9296097000042209,541.8357512000002,None,ScrollUp,정답입니다,541.8357512000002,None,541.8357512000002,None,541.8357512000002,None,541.8357512000002,None,542.6641146999973,None,542.6641146999973,543.1641473999989,,,,,,,,,,,,,,,,106,2023-03-30_13h58.15.096,FishGame,2022.1.1,60.9178121234282,
,38,넌 확고해,3,Orange,B,4.708333333333334,4.566666666666666,ScrollUp,ScrollDown,Orange.png,4,Neutral,Neutral,,,,,0,0,0,0,,,,,,,,,,,,,,,,,,,,,,,,,0,37,37,37,,,,,,,,,,,,,,,,,,,,,,,,,,,,,,,,,,,,,,,,,,,,,,,,,,,,,,,,,,,,,,,,,,,,,1.6697530845801034,0.8482986999952118,543.7822462999975,None,ScrollUp,정답입니다,543.7822462999975,None,543.7822462999975,None,543.7822462999975,None,543.7822462999975,None,544.5287805999978,None,544.5287805999978,545.0308195999969,,,,,,,,,,,,,,,,106,2023-03-30_13h58.15.096,FishGame,2022.1.1,60.9178121234282,
,39,넌 이해심이 많아,1,Orange,B,6.041666666666668,5.533333333333333,ScrollUp,ScrollDown,Orange.png,4,Positive,Incongruent,,,,,0,0,0,0,,,,,,,,,,,,,,,,,,,,,,,,,0,38,38,38,,,,,,,,,,,,,,,,,,,,,,,,,,,,,,,,,,,,,,,,,,,,,,,,,,,,,,,,,,,,,,,,,,,,,1.7638888855775197,0.8319208999964758,545.6487028999982,None,ScrollUp,정답입니다,545.6487028999982,None,545.6487028999982,None,545.6487028999982,None,545.6487028999982,None,546.3808533999982,None,546.3808533999982,546.8840220999991,,,,,,,,,,,,,,,,106,2023-03-30_13h58.15.096,FishGame,2022.1.1,60.9178121234282,
,40,나를 보내줘,6,Green,A,0,0,ScrollUp,ScrollDown,Green.png,4,NonTarget,NonTarget,,,,,0,0,0,0,,,,,,,,,,,,,,,,,,,,,,,,,0,39,39,39,,,,,,,,,,,,,,,,,,,,,,,,,,,,,,,,,,,,,,,,,,,,,,,,,,,,,,,,,,,,,,,,,,,,,1.634259263674418,0.765173899999354,547.4923855000015,None,ScrollUp,정답입니다,547.4923855000015,None,547.4923855000015,None,547.4923855000015,None,547.4923855000015,None,548.1640087999986,None,548.1640087999986,548.6640127999999,,,,,,,,,,,,,,,,106,2023-03-30_13h58.15.096,FishGame,2022.1.1,60.9178121234282,
,41,넌 거칠어,4,Green,A,2.625,3.033333333333333,ScrollDown,ScrollUp,Green.png,4,Negative,Incongruent,,,,,0,0,0,0,,,,,,,,,,,,,,,,,,,,,,,,,0,40,40,40,,,,,,,,,,,,,,,,,,,,,,,,,,,,,,,,,,,,,,,,,,,,,,,,,,,,,,,,,,,,,,,,,,,,,1.1882716069618862,0.8983140000054846,549.2807676000011,None,ScrollDown,정답입니다,549.2807676000011,None,549.2807676000011,None,549.2807676000011,None,549.2807676000011,None,550.0806672000035,None,550.0806672000035,550.5807276999985,,,,,,,,,,,,,,,,106,2023-03-30_13h58.15.096,FishGame,2022.1.1,60.9178121234282,
,42,넌 변덕맞아,5,Orange,B,2.75,2.166666666666667,ScrollUp,ScrollDown,Orange.png,4,Negative,Congruent,,,,,0,0,0,0,,,,,,,,,,,,,,,,,,,,,,,,,0,41,41,41,,,,,,,,,,,,,,,,,,,,,,,,,,,,,,,,,,,,,,,,,,,,,,,,,,,,,,,,,,,,,,,,,,,,,1.5756172835826874,0.9294812000007369,551.2030401000011,None,ScrollUp,정답입니다,551.2030401000011,None,551.2030401000011,None,551.2030401000011,None,551.2030401000011,None,552.0306160999971,None,552.0306160999971,552.5306283000027,,,,,,,,,,,,,,,,106,2023-03-30_13h58.15.096,FishGame,2022.1.1,60.9178121234282,
,43,나를 데려가줘,6,Orange,B,0,0,ScrollDown,ScrollUp,Orange.png,4,NonTarget,NonTarget,,,,,0,0,0,0,,,,,,,,,,,,,,,,,,,,,,,,,0,42,42,42,,,,,,,,,,,,,,,,,,,,,,,,,,,,,,,,,,,,,,,,,,,,,,,,,,,,,,,,,,,,,,,,,,,,,1.7175925920406976,1.0496724000040558,553.1451476000002,None,ScrollUp,오답입니다,553.1451476000002,None,553.1451476000002,None,553.1451476000002,None,553.1451476000002,None,554.0972877000022,None,554.0972877000022,554.5972887000025,,,,,,,,,,,,,,,,106,2023-03-30_13h58.15.096,FishGame,2022.1.1,60.9178121234282,
,44,넌 외로워,4,Orange,B,2.833333333333333,3.3,ScrollUp,ScrollDown,Orange.png,4,Negative,Congruent,,,,,0,0,0,0,,,,,,,,,,,,,,,,,,,,,,,,,0,43,43,43,,,,,,,,,,,,,,,,,,,,,,,,,,,,,,,,,,,,,,,,,,,,,,,,,,,,,,,,,,,,,,,,,,,,,1.7376543233791986,1.1150838999965345,555.2169136000011,None,ScrollUp,정답입니다,555.2169136000011,None,555.2169136000011,None,555.2169136000011,None,555.2169136000011,None,556.230569899999,None,556.230569899999,556.7305984999985,,,,,,,,,,,,,,,,106,2023-03-30_13h58.15.096,FishGame,2022.1.1,60.9178121234282,
,1,넌 불평스러워,5,Green,A,2.25,2.066666666666667,ScrollDown,ScrollUp,Green.png,5,Negative,Incongruent,,,,,0,0,0,0,,,,,,,,,,,,,,,,,,,,,,,,,,,,,0,0,0,0,,,,,,,,,,,,,,,,,,,,,,,,589.1799049999972,590.6800184000022,590.7133728999979,591.6633358000036,591.713333300002,592.6633023999966,592.6633023999966,None,,,,,,,,,,,,,,,,,,,,,,,,,,,,,,,,,,1.2299382835626602,0.9231500999958371,593.7556171999968,None,ScrollDown,정답입니다,593.7556171999968,None,593.7556171999968,None,593.7556171999968,None,593.7556171999968,None,594.5798492999966,None,594.5798492999966,595.0830623000002,557.2305361000035,None,557.2305361000035,None,0.1425926,-0.19166666,1,0,0,0.016166529996553436,None,587.2297806999995,None,,,106,2023-03-30_13h58.15.096,FishGame,2022.1.1,60.9178121234282,
,2,나를 보내줘,6,Green,A,0,0,ScrollUp,ScrollDown,Green.png,5,NonTarget,NonTarget,,,,,0,0,0,0,,,,,,,,,,,,,,,,,,,,,,,,,,,,,0,1,1,1,,,,,,,,,,,,,,,,,,,,,,,,,,,,,,,,,,,,,,,,,,,,,,,,,,,,,,,,,,,,,,,,,1.6466049378116927,0.6795520000014221,595.6928383999984,None,ScrollUp,정답입니다,595.6928383999984,None,595.6928383999984,None,595.6928383999984,None,595.6928383999984,None,596.2776814000026,None,596.2776814000026,596.7796621000016,,,,,,,,,,,,,,,,106,2023-03-30_13h58.15.096,FishGame,2022.1.1,60.9178121234282,
,3,넌 다재다능해,2,Orange,B,6.208333333333333,4.5,ScrollUp,ScrollDown,Orange.png,5,Positive,Incongruent,,,,,0,0,0,0,,,,,,,,,,,,,,,,,,,,,,,,,,,,,0,2,2,2,,,,,,,,,,,,,,,,,,,,,,,,,,,,,,,,,,,,,,,,,,,,,,,,,,,,,,,,,,,,,,,,,1.9475308458010356,1.0982631000006222,597.3964874000012,None,ScrollUp,정답입니다,597.3964874000012,None,597.3964874000012,None,597.3964874000012,None,597.3964874000012,None,598.3963264999984,None,598.3963264999984,598.8963529999965,,,,,,,,,,,,,,,,106,2023-03-30_13h58.15.096,FishGame,2022.1.1,60.9178121234282,
,4,넌 과감해,3,Green,A,4.833333333333334,4.6,ScrollDown,ScrollUp,Green.png,5,Neutral,Neutral,,,,,0,0,0,0,,,,,,,,,,,,,,,,,,,,,,,,,,,,,0,3,3,3,,,,,,,,,,,,,,,,,,,,,,,,,,,,,,,,,,,,,,,,,,,,,,,,,,,,,,,,,,,,,,,,,1.0231481393178303,1.2625029000046197,599.5111204999994,None,ScrollDown,정답입니다,599.5111204999994,None,599.5111204999994,None,599.5111204999994,None,599.5111204999994,None,600.6773275000014,None,600.6773275000014,601.1773022999987,,,,,,,,,,,,,,,,106,2023-03-30_13h58.15.096,FishGame,2022.1.1,60.9178121234282,
,5,넌 고분고분해,3,Orange,B,3.75,4.033333333333333,ScrollUp,ScrollDown,Orange.png,5,Neutral,Neutral,,,,,0,0,0,0,,,,,,,,,,,,,,,,,,,,,,,,,,,,,0,4,4,4,,,,,,,,,,,,,,,,,,,,,,,,,,,,,,,,,,,,,,,,,,,,,,,,,,,,,,,,,,,,,,,,,1.5632716032365956,0.7154317000022274,601.8013114999994,None,ScrollUp,정답입니다,601.8013114999994,None,601.8013114999994,None,601.8013114999994,None,601.8013114999994,None,602.4132557999983,None,602.4132557999983,602.913175200003,,,,,,,,,,,,,,,,106,2023-03-30_13h58.15.096,FishGame,2022.1.1,60.9178121234282,
,6,나를 보내줘,6,Green,A,0,0,ScrollUp,ScrollDown,Green.png,5,NonTarget,NonTarget,,,,,0,0,0,0,,,,,,,,,,,,,,,,,,,,,,,,,,,,,0,5,5,5,,,,,,,,,,,,,,,,,,,,,,,,,,,,,,,,,,,,,,,,,,,,,,,,,,,,,,,,,,,,,,,,,1.4182098793486755,0.7317796999996062,603.5267162000018,None,ScrollDown,오답입니다,603.5267162000018,None,603.5267162000018,None,603.5267162000018,None,603.5267162000018,None,604.1631302000023,None,604.1631302000023,604.6608252000005,,,,,,,,,,,,,,,,106,2023-03-30_13h58.15.096,FishGame,2022.1.1,60.9178121234282,
,7,넌 잘 잊어,4,Green,A,3,3.7,ScrollDown,ScrollUp,Green.png,5,Negative,Incongruent,,,,,0,0,0,0,,,,,,,,,,,,,,,,,,,,,,,,,,,,,0,6,6,6,,,,,,,,,,,,,,,,,,,,,,,,,,,,,,,,,,,,,,,,,,,,,,,,,,,,,,,,,,,,,,,,,1.3796296243866284,0.8961975000056555,605.2816720999981,None,ScrollDown,정답입니다,605.2816720999981,None,605.2816720999981,None,605.2816720999981,None,605.2816720999981,None,606.0794897000014,None,606.0794897000014,606.5795425000033,,,,,,,,,,,,,,,,106,2023-03-30_13h58.15.096,FishGame,2022.1.1,60.9178121234282,
,8,넌 탐구심이없어,4,Orange,B,2.833333333333333,3.066666666666667,ScrollUp,ScrollDown,Orange.png,5,Negative,Congruent,,,,,0,0,0,0,,,,,,,,,,,,,,,,,,,,,,,,,,,,,0,7,7,7,,,,,,,,,,,,,,,,,,,,,,,,,,,,,,,,,,,,,,,,,,,,,,,,,,,,,,,,,,,,,,,,,1.6820987711350122,0.8597021999958088,607.201476000002,None,ScrollUp,정답입니다,607.201476000002,None,607.201476000002,None,607.201476000002,None,607.201476000002,None,607.9607364999974,None,607.9607364999974,608.4627483000004,,,,,,,,,,,,,,,,106,2023-03-30_13h58.15.096,FishGame,2022.1.1,60.9178121234282,
,9,나를 데려가줘,6,Orange,B,0,0,ScrollDown,ScrollUp,Orange.png,5,NonTarget,NonTarget,,,,,0,0,0,0,,,,,,,,,,,,,,,,,,,,,,,,,,,,,0,8,8,8,,,,,,,,,,,,,,,,,,,,,,,,,,,,,,,,,,,,,,,,,,,,,,,,,,,,,,,,,,,,,,,,,1.3132715995113053,0.9983074999981909,609.0807509000006,None,ScrollDown,정답입니다,609.0807509000006,None,609.0807509000006,None,609.0807509000006,None,609.0807509000006,None,609.979502000002,None,609.979502000002,610.4794404999993,,,,,,,,,,,,,,,,106,2023-03-30_13h58.15.096,FishGame,2022.1.1,60.9178121234282,
,10,넌 참되어,2,Green,A,6.041666666666664,4.733333333333333,ScrollDown,ScrollUp,Green.png,5,Positive,Congruent,,,,,0,0,0,0,,,,,,,,,,,,,,,,,,,,,,,,,,,,,0,9,9,9,,,,,,,,,,,,,,,,,,,,,,,,,,,,,,,,,,,,,,,,,,,,,,,,,,,,,,,,,,,,,,,,,1.5756172835826874,0.9126178000005893,611.0951627999966,None,ScrollUp,오답입니다,611.0951627999966,None,611.0951627999966,None,611.0951627999966,None,611.0951627999966,None,611.9104317000019,None,611.9104317000019,612.4103956000035,,,,,,,,,,,,,,,,106,2023-03-30_13h58.15.096,FishGame,2022.1.1,60.9178121234282,
,11,넌 생기있어,1,Orange,B,5.875,5.633333333333334,ScrollUp,ScrollDown,Orange.png,5,Positive,Incongruent,,,,,0,0,0,0,,,,,,,,,,,,,,,,,,,,,,,,,,,,,0,10,10,10,,,,,,,,,,,,,,,,,,,,,,,,,,,,,,,,,,,,,,,,,,,,,,,,,,,,,,,,,,,,,,,,,1.5740740758677325,0.9663082000042778,613.0277818000031,None,ScrollUp,정답입니다,613.0277818000031,None,613.0277818000031,None,613.0277818000031,None,613.0277818000031,None,613.8962191000028,None,613.8962191000028,614.3961555999995,,,,,,,,,,,,,,,,106,2023-03-30_13h58.15.096,FishGame,2022.1.1,60.9178121234282,
,12,넌 비사교적이야,4,Orange,B,2.875,2.9,ScrollUp,ScrollDown,Orange.png,5,Negative,Congruent,,,,,0,0,0,0,,,,,,,,,,,,,,,,,,,,,,,,,,,,,0,11,11,11,,,,,,,,,,,,,,,,,,,,,,,,,,,,,,,,,,,,,,,,,,,,,,,,,,,,,,,,,,,,,,,,,1.5833333345750966,0.7618099999963306,615.0239825000026,None,ScrollUp,정답입니다,615.0239825000026,None,615.0239825000026,None,615.0239825000026,None,615.0239825000026,None,615.6795140999966,None,615.6795140999966,616.1794681000029,,,,,,,,,,,,,,,,106,2023-03-30_13h58.15.096,FishGame,2022.1.1,60.9178121234282,
,13,나를 데려가줘,6,Orange,B,0,0,ScrollDown,ScrollUp,Orange.png,5,NonTarget,NonTarget,,,,,0,0,0,0,,,,,,,,,,,,,,,,,,,,,,,,,,,,,0,12,12,12,,,,,,,,,,,,,,,,,,,,,,,,,,,,,,,,,,,,,,,,,,,,,,,,,,,,,,,,,,,,,,,,,1.1435185273488362,0.8119155000022147,616.8026822000029,None,ScrollDown,정답입니다,616.8026822000029,None,616.8026822000029,None,616.8026822000029,None,616.8026822000029,None,617.5126012999972,None,617.5126012999972,618.0125628000023,,,,,,,,,,,,,,,,106,2023-03-30_13h58.15.096,FishGame,2022.1.1,60.9178121234282,
,14,넌 고독해,4,Green,A,2.916666666666667,3.233333333333333,ScrollDown,ScrollUp,Green.png,5,Negative,Incongruent,,,,,0,0,0,0,,,,,,,,,,,,,,,,,,,,,,,,,,,,,0,13,13,13,,,,,,,,,,,,,,,,,,,,,,,,,,,,,,,,,,,,,,,,,,,,,,,,,,,,,,,,,,,,,,,,,1.1574074029922485,0.8291073000000324,618.6255384000033,None,ScrollDown,정답입니다,618.6255384000033,None,618.6255384000033,None,618.6255384000033,None,618.6255384000033,None,619.3602552000011,None,619.3602552000011,619.8602354000031,,,,,,,,,,,,,,,,106,2023-03-30_13h58.15.096,FishGame,2022.1.1,60.9178121234282,
,15,넌 신경질적이야,5,Orange,B,2.375,2.233333333333333,ScrollUp,ScrollDown,Orange.png,5,Negative,Congruent,,,,,0,0,0,0,,,,,,,,,,,,,,,,,,,,,,,,,,,,,0,14,14,14,,,,,,,,,,,,,,,,,,,,,,,,,,,,,,,,,,,,,,,,,,,,,,,,,,,,,,,,,,,,,,,,,1.4783950624987483,0.8813496000002488,620.4864723999999,None,NoResponse,무응답입니다,620.4864723999999,None,620.4864723999999,None,620.4864723999999,None,620.4864723999999,None,621.2602656000017,None,621.2602656000017,621.7602628000022,,,,,,,,,,,,,,,,106,2023-03-30_13h58.15.096,FishGame,2022.1.1,60.9178121234282,
,16,넌 똑똑해,2,Orange,B,5.666666666666667,3.966666666666667,ScrollUp,ScrollDown,Orange.png,5,Positive,Incongruent,,,,,0,0,0,0,,,,,,,,,,,,,,,,,,,,,,,,,,,,,0,15,15,15,,,,,,,,,,,,,,,,,,,,,,,,,,,,,,,,,,,,,,,,,,,,,,,,,,,,,,,,,,,,,,,,,1.6898148159186044,1.2984109000026365,622.3808276999989,None,ScrollUp,정답입니다,622.3808276999989,None,622.3808276999989,None,622.3808276999989,None,622.3808276999989,None,623.5793247999973,None,623.5793247999973,624.0790879999986,,,,,,,,,,,,,,,,106,2023-03-30_13h58.15.096,FishGame,2022.1.1,60.9178121234282,
,17,나를 보내줘,6,Green,A,0,0,ScrollUp,ScrollDown,Green.png,5,NonTarget,NonTarget,,,,,0,0,0,0,,,,,,,,,,,,,,,,,,,,,,,,,,,,,0,16,16,16,,,,,,,,,,,,,,,,,,,,,,,,,,,,,,,,,,,,,,,,,,,,,,,,,,,,,,,,,,,,,,,,,2,1.1818046999978833,624.6940929999982,None,ScrollUp,정답입니다,624.6940929999982,None,624.6940929999982,None,624.6940929999982,None,624.6940929999982,None,625.7791743999987,None,625.7791743999987,626.2791106000004,,,,,,,,,,,,,,,,106,2023-03-30_13h58.15.096,FishGame,2022.1.1,60.9178121234282,
,18,넌 협조적이야,1,Green,A,5.625,5.666666666666667,ScrollDown,ScrollUp,Green.png,5,Positive,Congruent,,,,,0,0,0,0,,,,,,,,,,,,,,,,,,,,,,,,,,,,,0,17,17,17,,,,,,,,,,,,,,,,,,,,,,,,,,,,,,,,,,,,,,,,,,,,,,,,,,,,,,,,,,,,,,,,,1.09413580596447,0.7960043999992195,626.8989145000014,None,ScrollDown,정답입니다,626.8989145000014,None,626.8989145000014,None,626.8989145000014,None,626.8989145000014,None,627.5936805000019,None,627.5936805000019,628.0956508000017,,,,,,,,,,,,,,,,106,2023-03-30_13h58.15.096,FishGame,2022.1.1,60.9178121234282,
,19,나를 데려가줘,6,Orange,B,0,0,ScrollDown,ScrollUp,Orange.png,5,NonTarget,NonTarget,,,,,0,0,0,0,,,,,,,,,,,,,,,,,,,,,,,,,,,,,0,18,18,18,,,,,,,,,,,,,,,,,,,,,,,,,,,,,,,,,,,,,,,,,,,,,,,,,,,,,,,,,,,,,,,,,1.0910493781169255,0.9434334999968996,628.7127951000002,None,ScrollDown,정답입니다,628.7127951000002,None,628.7127951000002,None,628.7127951000002,None,628.7127951000002,None,629.5555318999977,None,629.5555318999977,630.0601068999968,,,,,,,,,,,,,,,,106,2023-03-30_13h58.15.096,FishGame,2022.1.1,60.9178121234282,
,20,넌 몰인정해,5,Orange,B,2.541666666666667,2.066666666666667,ScrollUp,ScrollDown,Orange.png,5,Negative,Congruent,,,,,0,0,0,0,,,,,,,,,,,,,,,,,,,,,,,,,,,,,0,19,19,19,,,,,,,,,,,,,,,,,,,,,,,,,,,,,,,,,,,,,,,,,,,,,,,,,,,,,,,,,,,,,,,,,2,1.1984164000023156,630.6775828000027,None,ScrollUp,정답입니다,630.6775828000027,None,630.6775828000027,None,630.6775828000027,None,630.6775828000027,None,631.7767348999987,None,631.7767348999987,632.2766966999989,,,,,,,,,,,,,,,,106,2023-03-30_13h58.15.096,FishGame,2022.1.1,60.9178121234282,
,21,나를 데려가줘,6,Orange,B,0,0,ScrollDown,ScrollUp,Orange.png,5,NonTarget,NonTarget,,,,,0,0,0,0,,,,,,,,,,,,,,,,,,,,,,,,,,,,,0,20,20,20,,,,,,,,,,,,,,,,,,,,,,,,,,,,,,,,,,,,,,,,,,,,,,,,,,,,,,,,,,,,,,,,,1,0.8505401999937021,632.8927064000018,None,ScrollDown,정답입니다,632.8927064000018,None,632.8927064000018,None,632.8927064000018,None,632.8927064000018,None,633.6457594000021,None,633.6457594000021,634.1457223000034,,,,,,,,,,,,,,,,106,2023-03-30_13h58.15.096,FishGame,2022.1.1,60.9178121234282,
,22,넌 순진해,3,Orange,B,4.125,4.166666666666667,ScrollUp,ScrollDown,Orange.png,5,Neutral,Neutral,,,,,0,0,0,0,,,,,,,,,,,,,,,,,,,,,,,,,,,,,0,21,21,21,,,,,,,,,,,,,,,,,,,,,,,,,,,,,,,,,,,,,,,,,,,,,,,,,,,,,,,,,,,,,,,,,1.7592592686414719,0.6648234000022057,634.7625199999966,None,ScrollUp,정답입니다,634.7625199999966,None,634.7625199999966,None,634.7625199999966,None,634.7625199999966,None,635.3291243999993,None,635.3291243999993,635.8289959999966,,,,,,,,,,,,,,,,106,2023-03-30_13h58.15.096,FishGame,2022.1.1,60.9178121234282,
