name,TrialNum,Word,WordCategory,FishType,WordList,WordValence,WordReputation,CorrectResp,IncorrectResp,FishTypeFile,Round,WordType,Condition,LoopforOrange.thisRepN,LoopforOrange.thisTrialN,LoopforOrange.thisN,LoopforOrange.thisIndex,OrangeInstLoop.thisRepN,OrangeInstLoop.thisTrialN,OrangeInstLoop.thisN,OrangeInstLoop.thisIndex,OrangePrac.thisRepN,OrangePrac.thisTrialN,OrangePrac.thisN,OrangePrac.thisIndex,temp1.thisRepN,temp1.thisTrialN,temp1.thisN,temp1.thisIndex,OrangeRound1.thisRepN,OrangeRound1.thisTrialN,OrangeRound1.thisN,OrangeRound1.thisIndex,OrangeRound2.thisRepN,OrangeRound2.thisTrialN,OrangeRound2.thisN,OrangeRound2.thisIndex,OrangeRound3.thisRepN,OrangeRound3.thisTrialN,OrangeRound3.thisN,OrangeRound3.thisIndex,OrangeRound4.thisRepN,OrangeRound4.thisTrialN,OrangeRound4.thisN,OrangeRound4.thisIndex,OrangeRound5.thisRepN,OrangeRound5.thisTrialN,OrangeRound5.thisN,OrangeRound5.thisIndex,LoopForGreen.thisRepN,LoopForGreen.thisTrialN,LoopForGreen.thisN,LoopForGreen.thisIndex,text_2.started,text_2.stopped,text_3.started,text_3.stopped,key_resp.keys,key_resp.rt,key_resp.started,key_resp.stopped,PassI_2.started,PassI_2.stopped,PassInst_2.keys,PassInst_2.rt,PassInst_2.started,PassInst_2.stopped,mouse_2.x,mouse_2.y,mouse_2.leftButton,mouse_2.midButton,mouse_2.rightButton,mouse_2.started,mouse_2.stopped,image.started,image.stopped,text_5.started,text_5.stopped,text_6.started,text_6.stopped,text_7.started,text_7.stopped,text_8.started,text_8.stopped,slider_2.response,slider_2.rt,slider_2.started,slider_2.stopped,Response_2,Feedback_2,BackGround_2.started,BackGround_2.stopped,Fish_2.started,Fish_2.stopped,WordBox_2.started,WordBox_2.stopped,Words_2.started,Words_2.stopped,BackGround_Feedback_2.started,BackGround_Feedback_2.stopped,Feedbacks_2.started,Feedbacks_2.stopped,Continue_or_not.keys,Continue_or_not.rt,Continue_or_not.started,Continue_or_not.stopped,image_3.started,image_3.stopped,mouse_3.x,mouse_3.y,mouse_3.leftButton,mouse_3.midButton,mouse_3.rightButton,mouse_3.started,mouse_3.stopped,startmain.started,startmain.stopped,slider.response,slider.rt,slider.started,slider.stopped,Response,Feedback,BackGround.started,BackGround.stopped,Fish.started,Fish.stopped,WordBox.started,WordBox.stopped,Words.started,Words.stopped,BackGround_Feedback.started,BackGround_Feedback.stopped,Feedbacks.started,Feedbacks.stopped,text.started,text.stopped,break_interval.started,break_interval.stopped,mouse.x,mouse.y,mouse.leftButton,mouse.midButton,mouse.rightButton,mouse.started,mouse.stopped,stratnextround.started,stratnextround.stopped,endgame.started,endgame.stopped,participant,date,expName,psychopyVersion,frameRate,
,,,,,,,,,,,,,,,,,,,,,,,,,,,,,,,,,,,,,,,,,,,,,,,,,,,,,,17.78598559999955,None,17.78598559999955,None,space,0.38051969998923596,18.273632199998247,None,,,,,,,,,,,,,,,,,,,,,,,,,,,,,,,,,,,,,,,,,,,,,,,,,,,,,,,,,,,,,,,,,,,,,,,,,,,,,,,,,,,,,,,,,,107,2023-03-30_15h20.25.088,FishGame,2022.1.1,60.057390840966896,
물고기과제_instruction(참가자용)OrangeVersion.mp4,,,,,,,,,,,,,,0,0,0,0,0,0,0,0,,,,,,,,,,,,,,,,,,,,,,,,,,,,,,,,,,,,,,,,,89.48563809999905,None,n,1.6487522999959765,89.48563809999905,None,,,,,,,,,,,,,,,,,,,,,,,,,,,,,,,,,,,,,,,,,,,,,,,,,,,,,,,,,,,,,,,,,,,,,,,,,,,,,,,,,,,,107,2023-03-30_15h20.25.088,FishGame,2022.1.1,60.057390840966896,
,1,넌 교활해,5,Green,B,2.333333333333333,2.133333333333333,ScrollUp,ScrollDown,Green.png,practice,,,0,0,0,0,,,,,0,0,0,0,0,0,0,0,,,,,,,,,,,,,,,,,,,,,,,,,,,,,,,,,,,,,,,0.083333336,-0.225,1,0,0,0.5138385099999141,None,91.15200230000482,None,94.68843840000045,96.20208230000571,96.21878270000161,97.16939439999987,97.21883250000246,98.16879650000192,98.16879650000192,None,1.703703703979651,2.459484599996358,99.44927930000995,None,ScrollUp,정답입니다,99.44927930000995,None,99.44927930000995,None,99.44927930000995,None,99.44927930000995,None,101.61619440000504,None,101.61619440000504,102.11724140000297,,,,,,,,,,,,,,,,,,,,,,,,,,,,,,,,,,,,,,,,,,,,,,,,,107,2023-03-30_15h20.25.088,FishGame,2022.1.1,60.057390840966896,
,2,넌 슬기로워,2,Orange,A,6.166666666666667,4.1,ScrollDown,ScrollUp,Orange.png,practice,,,0,0,0,0,,,,,0,0,0,0,0,1,1,1,,,,,,,,,,,,,,,,,,,,,,,,,,,,,,,,,,,,,,,,,,,,,,,,,,,,,,,,1,1.9504823000024771,102.73287540000456,None,ScrollDown,정답입니다,102.73287540000456,None,102.73287540000456,None,102.73287540000456,None,102.73287540000456,None,104.58527209999738,None,104.58527209999738,105.08525119999831,,,,,,,,,,,,,,,,,,,,,,,,,,,,,,,,,,,,,,,,,,,,,,,,,107,2023-03-30_15h20.25.088,FishGame,2022.1.1,60.057390840966896,
,3,나를 보내줘,6,Orange,A,0,0,ScrollUp,ScrollDown,Orange.png,practice,,,0,0,0,0,,,,,0,0,0,0,0,2,2,2,,,,,,,,,,,,,,,,,,,,,,,,,,,,,,,,,,,,,,,,,,,,,,,,,,,,,,,,1.8425925970077515,1.5644107999978587,105.70673410000745,None,ScrollUp,정답입니다,105.70673410000745,None,105.70673410000745,None,105.70673410000745,None,105.70673410000745,None,107.16627879999578,None,107.16627879999578,107.66831950000778,,,,,,,,,,,,,,,,,,,,,,,,,,,,,,,,,,,,,,,,,,,,,,,,,107,2023-03-30_15h20.25.088,FishGame,2022.1.1,60.057390840966896,
,4,나를 데려가줘,6,Green,B,0,0,ScrollDown,ScrollUp,Green.png,practice,,,0,0,0,0,,,,,0,0,0,0,0,3,3,3,,,,,,,,,,,,,,,,,,,,,,,,,,,,,,,,,,,,,,,,,,,,,,,,,,,,,,,,1.1466049303611119,1.4293127999990247,108.2854318000027,None,ScrollDown,정답입니다,108.2854318000027,None,108.2854318000027,None,108.2854318000027,None,108.2854318000027,None,109.61605170000985,None,109.61605170000985,110.1160011000029,,,,,,,,,,,,,,,,,,,,,,,,,,,,,,,,,,,,,,,,,,,,,,,,,107,2023-03-30_15h20.25.088,FishGame,2022.1.1,60.057390840966896,
,1,넌 교활해,5,Green,B,2.333333333333333,2.133333333333333,ScrollUp,ScrollDown,Green.png,practice,,,0,0,0,0,,,,,0,0,0,0,,,,,,,,,,,,,,,,,,,,,,,,,,,,,,,,,,,,,,,,,,,,,,,,,,,,,,,,,,,,,,,,,,,,,,,,,,,,,,n,4.581548699992709,110.619122899996,None,110.619122899996,None,,,,,,,,,,,,,,,,,,,,,,,,,,,,,,,,,,,,,,,,,,,107,2023-03-30_15h20.25.088,FishGame,2022.1.1,60.057390840966896,
,1,넌 따뜻해,1,Green,B,6.083333333333333,5.6,ScrollUp,ScrollDown,Green.png,1,Positive,Incongruent,0,0,0,0,,,,,,,,,,,,,0,0,0,0,,,,,,,,,,,,,,,,,,,,,,,,,,,,,,,,,,,,,,,,,,,,117.23468540000613,118.73795589999645,118.75485409999965,119.7182751000073,119.76833360000455,120.72135970000818,120.70499189999828,None,,,,,,,,,,,,,,,,,,,,,,,,,0.06388889,-0.12777779,1,0,0,0.31504100999154616,None,115.21811280000838,None,1.9182098805904388,1.8326153999951202,122.01788710000983,None,ScrollUp,정답입니다,122.01788710000983,None,122.01788710000983,None,122.01788710000983,None,122.01788710000983,None,123.55149880000681,None,123.55149880000681,124.05128030000196,,,,,,,,,,,,,,,,107,2023-03-30_15h20.25.088,FishGame,2022.1.1,60.057390840966896,
,2,넌 기품있어,2,Green,B,5.791666666666668,4.5,ScrollUp,ScrollDown,Green.png,1,Positive,Incongruent,0,0,0,0,,,,,,,,,,,,,0,1,1,1,,,,,,,,,,,,,,,,,,,,,,,,,,,,,,,,,,,,,,,,,,,,,,,,,,,,,,,,,,,,,,,,,,,,,,,,,,,,,,,,,,,,,2,1.3955679000064265,124.6762516000017,None,ScrollUp,정답입니다,124.6762516000017,None,124.6762516000017,None,124.6762516000017,None,124.6762516000017,None,125.96803479999653,None,125.96803479999653,126.46793520000938,,,,,,,,,,,,,,,,107,2023-03-30_15h20.25.088,FishGame,2022.1.1,60.057390840966896,
,3,나를 보내줘,6,Orange,A,0,0,ScrollUp,ScrollDown,Orange.png,1,NonTarget,NonTarget,0,0,0,0,,,,,,,,,,,,,0,2,2,2,,,,,,,,,,,,,,,,,,,,,,,,,,,,,,,,,,,,,,,,,,,,,,,,,,,,,,,,,,,,,,,,,,,,,,,,,,,,,,,,,,,,,2,1.6479277000034926,127.09390649999841,None,ScrollUp,정답입니다,127.09390649999841,None,127.09390649999841,None,127.09390649999841,None,127.09390649999841,None,128.63463060000504,None,128.63463060000504,129.13517989999673,,,,,,,,,,,,,,,,107,2023-03-30_15h20.25.088,FishGame,2022.1.1,60.057390840966896,
,4,넌 수동적이야,4,Orange,A,2.833333333333333,2.933333333333333,ScrollDown,ScrollUp,Orange.png,1,Negative,Incongruent,0,0,0,0,,,,,,,,,,,,,0,3,3,3,,,,,,,,,,,,,,,,,,,,,,,,,,,,,,,,,,,,,,,,,,,,,,,,,,,,,,,,,,,,,,,,,,,,,,,,,,,,,,,,,,,,,1,1.514703400011058,129.7661250000092,None,ScrollDown,정답입니다,129.7661250000092,None,129.7661250000092,None,129.7661250000092,None,129.7661250000092,None,131.16579430000274,None,131.16579430000274,131.66782299999613,,,,,,,,,,,,,,,,107,2023-03-30_15h20.25.088,FishGame,2022.1.1,60.057390840966896,
,5,넌 사심이 없어,3,Green,B,4.916666666666666,4.333333333333333,ScrollUp,ScrollDown,Green.png,1,Neutral,Neutral,0,0,0,0,,,,,,,,,,,,,0,4,4,4,,,,,,,,,,,,,,,,,,,,,,,,,,,,,,,,,,,,,,,,,,,,,,,,,,,,,,,,,,,,,,,,,,,,,,,,,,,,,,,,,,,,,2,1.4645483000058448,132.29481680000026,None,ScrollUp,정답입니다,132.29481680000026,None,132.29481680000026,None,132.29481680000026,None,132.29481680000026,None,133.65116910000506,None,133.65116910000506,134.1511754999956,,,,,,,,,,,,,,,,107,2023-03-30_15h20.25.088,FishGame,2022.1.1,60.057390840966896,
,6,넌 헤퍼,5,Orange,A,2.458333333333334,2.233333333333333,ScrollDown,ScrollUp,Orange.png,1,Negative,Incongruent,0,0,0,0,,,,,,,,,,,,,0,5,5,5,,,,,,,,,,,,,,,,,,,,,,,,,,,,,,,,,,,,,,,,,,,,,,,,,,,,,,,,,,,,,,,,,,,,,,,,,,,,,,,,,,,,,1,1.542945300010615,134.77675689999887,None,ScrollDown,정답입니다,134.77675689999887,None,134.77675689999887,None,134.77675689999887,None,134.77675689999887,None,136.21780959999887,None,136.21780959999887,136.71778439999616,,,,,,,,,,,,,,,,107,2023-03-30_15h20.25.088,FishGame,2022.1.1,60.057390840966896,
,7,넌 말쑥해,3,Orange,A,4.833333333333334,4.333333333333333,ScrollDown,ScrollUp,Orange.png,1,Neutral,Neutral,0,0,0,0,,,,,,,,,,,,,0,6,6,6,,,,,,,,,,,,,,,,,,,,,,,,,,,,,,,,,,,,,,,,,,,,,,,,,,,,,,,,,,,,,,,,,,,,,,,,,,,,,,,,,,,,,1,1.562560400008806,137.34430379999685,None,ScrollDown,정답입니다,137.34430379999685,None,137.34430379999685,None,137.34430379999685,None,137.34430379999685,None,138.79869959999633,None,138.79869959999633,139.29870030000166,,,,,,,,,,,,,,,,107,2023-03-30_15h20.25.088,FishGame,2022.1.1,60.057390840966896,
,8,넌 투덜거려,5,Green,B,2.541666666666667,2.266666666666667,ScrollUp,ScrollDown,Green.png,1,Negative,Congruent,0,0,0,0,,,,,,,,,,,,,0,7,7,7,,,,,,,,,,,,,,,,,,,,,,,,,,,,,,,,,,,,,,,,,,,,,,,,,,,,,,,,,,,,,,,,,,,,,,,,,,,,,,,,,,,,,1.9722222189108531,1.2844929999992019,139.92558120000467,None,ScrollUp,정답입니다,139.92558120000467,None,139.92558120000467,None,139.92558120000467,None,139.92558120000467,None,141.10113029999775,None,141.10113029999775,141.60108890000265,,,,,,,,,,,,,,,,107,2023-03-30_15h20.25.088,FishGame,2022.1.1,60.057390840966896,
,9,넌 적극적이야,1,Orange,A,5.708333333333333,5.533333333333333,ScrollDown,ScrollUp,Orange.png,1,Positive,Congruent,0,0,0,0,,,,,,,,,,,,,0,8,8,8,,,,,,,,,,,,,,,,,,,,,,,,,,,,,,,,,,,,,,,,,,,,,,,,,,,,,,,,,,,,,,,,,,,,,,,,,,,,,,,,,,,,,1,1.379764299999806,142.2241789999971,None,ScrollDown,정답입니다,142.2241789999971,None,142.2241789999971,None,142.2241789999971,None,142.2241789999971,None,143.50093999999808,None,143.50093999999808,144.00093000000925,,,,,,,,,,,,,,,,107,2023-03-30_15h20.25.088,FishGame,2022.1.1,60.057390840966896,
,10,넌 재미없어,4,Green,B,2.625,2.966666666666667,ScrollUp,ScrollDown,Green.png,1,Negative,Congruent,0,0,0,0,,,,,,,,,,,,,0,9,9,9,,,,,,,,,,,,,,,,,,,,,,,,,,,,,,,,,,,,,,,,,,,,,,,,,,,,,,,,,,,,,,,,,,,,,,,,,,,,,,,,,,,,,1.8549382835626602,1.0951507999998285,144.62473950001004,None,ScrollUp,정답입니다,144.62473950001004,None,144.62473950001004,None,144.62473950001004,None,144.62473950001004,None,145.61764409999887,None,145.61764409999887,146.11757550000038,,,,,,,,,,,,,,,,107,2023-03-30_15h20.25.088,FishGame,2022.1.1,60.057390840966896,
,11,넌 명석해,2,Orange,A,5.875,4.033333333333333,ScrollDown,ScrollUp,Orange.png,1,Positive,Congruent,0,0,0,0,,,,,,,,,,,,,0,10,10,10,,,,,,,,,,,,,,,,,,,,,,,,,,,,,,,,,,,,,,,,,,,,,,,,,,,,,,,,,,,,,,,,,,,,,,,,,,,,,,,,,,,,,1,1.2626156999904197,146.75912729999982,None,ScrollDown,정답입니다,146.75912729999982,None,146.75912729999982,None,146.75912729999982,None,146.75912729999982,None,147.9174561999971,None,147.9174561999971,148.41748770000413,,,,,,,,,,,,,,,,107,2023-03-30_15h20.25.088,FishGame,2022.1.1,60.057390840966896,
,12,나를 데려가줘,6,Green,B,0,0,ScrollDown,ScrollUp,Green.png,1,NonTarget,NonTarget,0,0,0,0,,,,,,,,,,,,,0,11,11,11,,,,,,,,,,,,,,,,,,,,,,,,,,,,,,,,,,,,,,,,,,,,,,,,,,,,,,,,,,,,,,,,,,,,,,,,,,,,,,,,,,,,,1,1.1630189999996219,149.038169499996,None,ScrollDown,정답입니다,149.038169499996,None,149.038169499996,None,149.038169499996,None,149.038169499996,None,150.10087150000618,None,150.10087150000618,150.59867930000473,,,,,,,,,,,,,,,,107,2023-03-30_15h20.25.088,FishGame,2022.1.1,60.057390840966896,
,13,넌 소심해,4,Orange,A,3,3.1,ScrollDown,ScrollUp,Orange.png,1,Negative,Incongruent,0,0,0,0,,,,,,,,,,,,,0,12,12,12,,,,,,,,,,,,,,,,,,,,,,,,,,,,,,,,,,,,,,,,,,,,,,,,,,,,,,,,,,,,,,,,,,,,,,,,,,,,,,,,,,,,,1,1.176198100001784,151.22981089999666,None,ScrollDown,정답입니다,151.22981089999666,None,151.22981089999666,None,151.22981089999666,None,151.22981089999666,None,152.29842819999612,None,152.29842819999612,152.79894330000388,,,,,,,,,,,,,,,,107,2023-03-30_15h20.25.088,FishGame,2022.1.1,60.057390840966896,
,14,넌 합리적이야,2,Orange,A,5.583333333333333,4.733333333333333,ScrollDown,ScrollUp,Orange.png,1,Positive,Congruent,0,0,0,0,,,,,,,,,,,,,0,13,13,13,,,,,,,,,,,,,,,,,,,,,,,,,,,,,,,,,,,,,,,,,,,,,,,,,,,,,,,,,,,,,,,,,,,,,,,,,,,,,,,,,,,,,1,1.1687527000030968,153.42153730000427,None,ScrollDown,정답입니다,153.42153730000427,None,153.42153730000427,None,153.42153730000427,None,153.42153730000427,None,154.48416859999998,None,154.48416859999998,154.98481380000885,,,,,,,,,,,,,,,,107,2023-03-30_15h20.25.088,FishGame,2022.1.1,60.057390840966896,
,15,넌 무자비해,5,Green,B,2.333333333333333,2.1,ScrollUp,ScrollDown,Green.png,1,Negative,Congruent,0,0,0,0,,,,,,,,,,,,,0,14,14,14,,,,,,,,,,,,,,,,,,,,,,,,,,,,,,,,,,,,,,,,,,,,,,,,,,,,,,,,,,,,,,,,,,,,,,,,,,,,,,,,,,,,,1.8271604826052983,1.1480690000025788,155.6065038000088,None,ScrollUp,정답입니다,155.6065038000088,None,155.6065038000088,None,155.6065038000088,None,155.6065038000088,None,156.65068130000145,None,156.65068130000145,157.15062820000458,,,,,,,,,,,,,,,,107,2023-03-30_15h20.25.088,FishGame,2022.1.1,60.057390840966896,
,16,나를 보내줘,6,Orange,A,0,0,ScrollUp,ScrollDown,Orange.png,1,NonTarget,NonTarget,0,0,0,0,,,,,,,,,,,,,0,15,15,15,,,,,,,,,,,,,,,,,,,,,,,,,,,,,,,,,,,,,,,,,,,,,,,,,,,,,,,,,,,,,,,,,,,,,,,,,,,,,,,,,,,,,1,1.247626800002763,157.77015369999572,None,ScrollDown,오답입니다,157.77015369999572,None,157.77015369999572,None,157.77015369999572,None,157.77015369999572,None,158.91521459999785,None,158.91521459999785,159.4172366999992,,,,,,,,,,,,,,,,107,2023-03-30_15h20.25.088,FishGame,2022.1.1,60.057390840966896,
,17,넌 현실적이야,3,Green,B,4.608695652173913,4.766666666666667,ScrollUp,ScrollDown,Green.png,1,Neutral,Neutral,0,0,0,0,,,,,,,,,,,,,0,16,16,16,,,,,,,,,,,,,,,,,,,,,,,,,,,,,,,,,,,,,,,,,,,,,,,,,,,,,,,,,,,,,,,,,,,,,,,,,,,,,,,,,,,,,1.7700617164373398,1.3502349999907892,160.03835339999932,None,ScrollUp,정답입니다,160.03835339999932,None,160.03835339999932,None,160.03835339999932,None,160.03835339999932,None,161.283875299996,None,161.283875299996,161.78385740000522,,,,,,,,,,,,,,,,107,2023-03-30_15h20.25.088,FishGame,2022.1.1,60.057390840966896,
,18,넌 의리있어,1,Green,B,5.833333333333334,5.633333333333334,ScrollUp,ScrollDown,Green.png,1,Positive,Incongruent,0,0,0,0,,,,,,,,,,,,,0,17,17,17,,,,,,,,,,,,,,,,,,,,,,,,,,,,,,,,,,,,,,,,,,,,,,,,,,,,,,,,,,,,,,,,,,,,,,,,,,,,,,,,,,,,,1.8503086417913437,1.362282200003392,162.40405890000693,None,ScrollUp,정답입니다,162.40405890000693,None,162.40405890000693,None,162.40405890000693,None,162.40405890000693,None,163.66485220000322,None,163.66485220000322,164.16490489999705,,,,,,,,,,,,,,,,107,2023-03-30_15h20.25.088,FishGame,2022.1.1,60.057390840966896,
,19,넌 신경과민이야,5,Orange,A,2.541666666666667,2.166666666666667,ScrollDown,ScrollUp,Orange.png,1,Negative,Incongruent,0,0,0,0,,,,,,,,,,,,,0,18,18,18,,,,,,,,,,,,,,,,,,,,,,,,,,,,,,,,,,,,,,,,,,,,,,,,,,,,,,,,,,,,,,,,,,,,,,,,,,,,,,,,,,,,,1.0663580298423767,1.2149152999918442,164.79428290000942,None,ScrollDown,정답입니다,164.79428290000942,None,164.79428290000942,None,164.79428290000942,None,164.79428290000942,None,165.9005460000044,None,165.9005460000044,166.40055459999712,,,,,,,,,,,,,,,,107,2023-03-30_15h20.25.088,FishGame,2022.1.1,60.057390840966896,
,20,넌 편안해,1,Orange,A,5.916666666666666,5.866666666666666,ScrollDown,ScrollUp,Orange.png,1,Positive,Congruent,0,0,0,0,,,,,,,,,,,,,0,19,19,19,,,,,,,,,,,,,,,,,,,,,,,,,,,,,,,,,,,,,,,,,,,,,,,,,,,,,,,,,,,,,,,,,,,,,,,,,,,,,,,,,,,,,1.121913582086563,1.196934899999178,167.02352420000534,None,ScrollDown,정답입니다,167.02352420000534,None,167.02352420000534,None,167.02352420000534,None,167.02352420000534,None,168.11476199999743,None,168.11476199999743,168.61473529999785,,,,,,,,,,,,,,,,107,2023-03-30_15h20.25.088,FishGame,2022.1.1,60.057390840966896,
,21,넌 품위있어,2,Green,B,5.291666666666666,4.466666666666667,ScrollUp,ScrollDown,Green.png,1,Positive,Incongruent,0,0,0,0,,,,,,,,,,,,,0,20,20,20,,,,,,,,,,,,,,,,,,,,,,,,,,,,,,,,,,,,,,,,,,,,,,,,,,,,,,,,,,,,,,,,,,,,,,,,,,,,,,,,,,,,,1.6574074104428291,1.066418700007489,169.23416039999574,None,ScrollUp,정답입니다,169.23416039999574,None,169.23416039999574,None,169.23416039999574,None,169.23416039999574,None,170.2004716000083,None,170.2004716000083,170.70045299999765,,,,,,,,,,,,,,,,107,2023-03-30_15h20.25.088,FishGame,2022.1.1,60.057390840966896,
,22,넌 빈틈없어,3,Orange,A,4.833333333333333,3.966666666666667,ScrollDown,ScrollUp,Orange.png,1,Neutral,Neutral,0,0,0,0,,,,,,,,,,,,,0,21,21,21,,,,,,,,,,,,,,,,,,,,,,,,,,,,,,,,,,,,,,,,,,,,,,,,,,,,,,,,,,,,,,,,,,,,,,,,,,,,,,,,,,,,,1.180555562178294,1.1644157999980962,171.32422609999776,None,ScrollDown,정답입니다,171.32422609999776,None,171.32422609999776,None,171.32422609999776,None,171.32422609999776,None,172.3835706999962,None,172.3835706999962,172.88363070000196,,,,,,,,,,,,,,,,107,2023-03-30_15h20.25.088,FishGame,2022.1.1,60.057390840966896,
,23,넌 상상력없어,4,Green,B,2.833333333333333,3.133333333333333,ScrollUp,ScrollDown,Green.png,1,Negative,Congruent,0,0,0,0,,,,,,,,,,,,,0,22,22,22,,,,,,,,,,,,,,,,,,,,,,,,,,,,,,,,,,,,,,,,,,,,,,,,,,,,,,,,,,,,,,,,,,,,,,,,,,,,,,,,,,,,,1.9336419701576233,1.147626499994658,173.50410360000387,None,ScrollUp,정답입니다,173.50410360000387,None,173.50410360000387,None,173.50410360000387,None,173.50410360000387,None,174.55036180000752,None,174.55036180000752,175.05027880000125,,,,,,,,,,,,,,,,107,2023-03-30_15h20.25.088,FishGame,2022.1.1,60.057390840966896,
,24,넌 지혜로워,2,Green,B,6.333333333333334,4.633333333333334,ScrollUp,ScrollDown,Green.png,1,Positive,Incongruent,0,0,0,0,,,,,,,,,,,,,0,23,23,23,,,,,,,,,,,,,,,,,,,,,,,,,,,,,,,,,,,,,,,,,,,,,,,,,,,,,,,,,,,,,,,,,,,,,,,,,,,,,,,,,,,,,1.8271604826052983,1.0314916999923298,175.67705230000138,None,ScrollUp,정답입니다,175.67705230000138,None,175.67705230000138,None,175.67705230000138,None,175.67705230000138,None,176.60022079999908,None,176.60022079999908,177.10021950000373,,,,,,,,,,,,,,,,107,2023-03-30_15h20.25.088,FishGame,2022.1.1,60.057390840966896,
,25,넌 시끄러워,4,Orange,A,2.833333333333333,3.033333333333333,ScrollDown,ScrollUp,Orange.png,1,Negative,Incongruent,0,0,0,0,,,,,,,,,,,,,0,24,24,24,,,,,,,,,,,,,,,,,,,,,,,,,,,,,,,,,,,,,,,,,,,,,,,,,,,,,,,,,,,,,,,,,,,,,,,,,,,,,,,,,,,,,1.0540123681227367,1.0812901000026613,177.72467579999648,None,ScrollDown,정답입니다,177.72467579999648,None,177.72467579999648,None,177.72467579999648,None,177.72467579999648,None,178.69783790000656,None,178.69783790000656,179.19784160000563,,,,,,,,,,,,,,,,107,2023-03-30_15h20.25.088,FishGame,2022.1.1,60.057390840966896,
,26,넌 만사태평이야,3,Green,B,4,4.333333333333333,ScrollUp,ScrollDown,Green.png,1,Neutral,Neutral,0,0,0,0,,,,,,,,,,,,,0,25,25,25,,,,,,,,,,,,,,,,,,,,,,,,,,,,,,,,,,,,,,,,,,,,,,,,,,,,,,,,,,,,,,,,,,,,,,,,,,,,,,,,,,,,,1.7793209999799728,1.1139616000000387,179.8251154000027,None,ScrollUp,정답입니다,179.8251154000027,None,179.8251154000027,None,179.8251154000027,None,179.8251154000027,None,180.83372560000862,None,180.83372560000862,181.33357109999633,,,,,,,,,,,,,,,,107,2023-03-30_15h20.25.088,FishGame,2022.1.1,60.057390840966896,
,27,넌 붙임성있어,1,Orange,A,5.708333333333333,5.633333333333334,ScrollDown,ScrollUp,Orange.png,1,Positive,Congruent,0,0,0,0,,,,,,,,,,,,,0,26,26,26,,,,,,,,,,,,,,,,,,,,,,,,,,,,,,,,,,,,,,,,,,,,,,,,,,,,,,,,,,,,,,,,,,,,,,,,,,,,,,,,,,,,,1.016975333293279,1.2171753000002354,181.95897000000696,None,ScrollDown,정답입니다,181.95897000000696,None,181.95897000000696,None,181.95897000000696,None,181.95897000000696,None,183.06471880000026,None,183.06471880000026,183.56714179999835,,,,,,,,,,,,,,,,107,2023-03-30_15h20.25.088,FishGame,2022.1.1,60.057390840966896,
,28,넌 영리해,2,Orange,A,6,4.033333333333333,ScrollDown,ScrollUp,Orange.png,1,Positive,Congruent,0,0,0,0,,,,,,,,,,,,,0,27,27,27,,,,,,,,,,,,,,,,,,,,,,,,,,,,,,,,,,,,,,,,,,,,,,,,,,,,,,,,,,,,,,,,,,,,,,,,,,,,,,,,,,,,,1.0493827263514202,1.1500801000074716,184.18919570000435,None,ScrollDown,정답입니다,184.18919570000435,None,184.18919570000435,None,184.18919570000435,None,184.18919570000435,None,185.2334389000025,None,185.2334389000025,185.7333864999964,,,,,,,,,,,,,,,,107,2023-03-30_15h20.25.088,FishGame,2022.1.1,60.057390840966896,
,29,넌 열심이야,1,Green,B,6.041666666666667,5.833333333333333,ScrollUp,ScrollDown,Green.png,1,Positive,Incongruent,0,0,0,0,,,,,,,,,,,,,0,28,28,28,,,,,,,,,,,,,,,,,,,,,,,,,,,,,,,,,,,,,,,,,,,,,,,,,,,,,,,,,,,,,,,,,,,,,,,,,,,,,,,,,,,,,2,1.3286860999942292,186.35353540000506,None,ScrollUp,정답입니다,186.35353540000506,None,186.35353540000506,None,186.35353540000506,None,186.35353540000506,None,187.5809894999984,None,187.5809894999984,188.08098260000406,,,,,,,,,,,,,,,,107,2023-03-30_15h20.25.088,FishGame,2022.1.1,60.057390840966896,
,30,넌 인기없어,4,Green,B,3,3.3,ScrollUp,ScrollDown,Green.png,1,Negative,Congruent,0,0,0,0,,,,,,,,,,,,,0,29,29,29,,,,,,,,,,,,,,,,,,,,,,,,,,,,,,,,,,,,,,,,,,,,,,,,,,,,,,,,,,,,,,,,,,,,,,,,,,,,,,,,,,,,,1.9753086467583973,1.1976927000068827,188.7039819000056,None,ScrollUp,정답입니다,188.7039819000056,None,188.7039819000056,None,188.7039819000056,None,188.7039819000056,None,189.80010730000504,None,189.80010730000504,190.3005475999962,,,,,,,,,,,,,,,,107,2023-03-30_15h20.25.088,FishGame,2022.1.1,60.057390840966896,
,31,넌 익살스러워,3,Orange,A,4.708333333333334,4.833333333333333,ScrollDown,ScrollUp,Orange.png,1,Neutral,Neutral,0,0,0,0,,,,,,,,,,,,,0,30,30,30,,,,,,,,,,,,,,,,,,,,,,,,,,,,,,,,,,,,,,,,,,,,,,,,,,,,,,,,,,,,,,,,,,,,,,,,,,,,,,,,,,,,,1.0709876716136932,1.1458696000045165,190.9244910999987,None,ScrollDown,정답입니다,190.9244910999987,None,190.9244910999987,None,190.9244910999987,None,190.9244910999987,None,191.96656359999906,None,191.96656359999906,192.46655310000642,,,,,,,,,,,,,,,,107,2023-03-30_15h20.25.088,FishGame,2022.1.1,60.057390840966896,
,32,넌 이기적이야,5,Green,B,2.291666666666667,2.333333333333333,ScrollUp,ScrollDown,Green.png,1,Negative,Congruent,0,0,0,0,,,,,,,,,,,,,0,31,31,31,,,,,,,,,,,,,,,,,,,,,,,,,,,,,,,,,,,,,,,,,,,,,,,,,,,,,,,,,,,,,,,,,,,,,,,,,,,,,,,,,,,,,1.7746913582086563,1.1642917999997735,193.08470040000975,None,ScrollUp,정답입니다,193.08470040000975,None,193.08470040000975,None,193.08470040000975,None,193.08470040000975,None,194.14991780000855,None,194.14991780000855,194.65046099999745,,,,,,,,,,,,,,,,107,2023-03-30_15h20.25.088,FishGame,2022.1.1,60.057390840966896,
,33,나를 데려가줘,6,Green,B,0,0,ScrollDown,ScrollUp,Green.png,1,NonTarget,NonTarget,0,0,0,0,,,,,,,,,,,,,0,32,32,32,,,,,,,,,,,,,,,,,,,,,,,,,,,,,,,,,,,,,,,,,,,,,,,,,,,,,,,,,,,,,,,,,,,,,,,,,,,,,,,,,,,,,1,1.2147407000011299,195.26762500000768,None,ScrollDown,정답입니다,195.26762500000768,None,195.26762500000768,None,195.26762500000768,None,195.26762500000768,None,196.38104680000106,None,196.38104680000106,196.88305659999605,,,,,,,,,,,,,,,,107,2023-03-30_15h20.25.088,FishGame,2022.1.1,60.057390840966896,
,34,넌 기회주의자야,5,Orange,A,2.875,2.133333333333333,ScrollDown,ScrollUp,Orange.png,1,Negative,Incongruent,0,0,0,0,,,,,,,,,,,,,0,33,33,33,,,,,,,,,,,,,,,,,,,,,,,,,,,,,,,,,,,,,,,,,,,,,,,,,,,,,,,,,,,,,,,,,,,,,,,,,,,,,,,,,,,,,1.0432098706563313,1.1313053000048967,197.50709389999975,None,ScrollDown,정답입니다,197.50709389999975,None,197.50709389999975,None,197.50709389999975,None,197.50709389999975,None,198.53308200000902,None,198.53308200000902,199.0330859000096,,,,,,,,,,,,,,,,107,2023-03-30_15h20.25.088,FishGame,2022.1.1,60.057390840966896,
,1,넌 미성숙해,4,Orange,A,3,3.2,ScrollDown,ScrollUp,Orange.png,2,Negative,Incongruent,0,0,0,0,,,,,,,,,,,,,,,,,0,0,0,0,,,,,,,,,,,,,,,,,,,,,,,,,,,,,,,,,,,,,,,,232.51563890000398,234.01579830000992,234.0496434000088,234.99961660000554,235.04909650000627,235.9991677000071,235.9991677000071,None,,,,,,,,,,,,,,,,,,,,,,,,,,,,,,,,,,1,1.4873032000032254,237.0981247000018,None,ScrollDown,정답입니다,237.0981247000018,None,237.0981247000018,None,237.0981247000018,None,237.0981247000018,None,238.47989850000886,None,238.47989850000886,238.9798829000065,199.53312269999878,None,199.53312269999878,None,0.05277778,-0.11111111,1,0,0,0.016233210000791587,None,229.5323148000025,None,,,107,2023-03-30_15h20.25.088,FishGame,2022.1.1,60.057390840966896,
,2,넌 반사회적이야,5,Green,B,2.416666666666667,2.033333333333333,ScrollUp,ScrollDown,Green.png,2,Negative,Congruent,0,0,0,0,,,,,,,,,,,,,,,,,0,1,1,1,,,,,,,,,,,,,,,,,,,,,,,,,,,,,,,,,,,,,,,,,,,,,,,,,,,,,,,,,,,,,,,,,,,,,,,,,,,,,,,,,1.743827154239019,1.1618575000029523,239.60352930000226,None,ScrollUp,정답입니다,239.60352930000226,None,239.60352930000226,None,239.60352930000226,None,239.60352930000226,None,240.66323370000464,None,240.66323370000464,241.16560920000484,,,,,,,,,,,,,,,,107,2023-03-30_15h20.25.088,FishGame,2022.1.1,60.057390840966896,
,3,넌 유능해,2,Orange,A,6.208333333333333,4.433333333333334,ScrollDown,ScrollUp,Orange.png,2,Positive,Congruent,0,0,0,0,,,,,,,,,,,,,,,,,0,2,2,2,,,,,,,,,,,,,,,,,,,,,,,,,,,,,,,,,,,,,,,,,,,,,,,,,,,,,,,,,,,,,,,,,,,,,,,,,,,,,,,,,1.016975333293279,1.133161799996742,241.78903379999974,None,ScrollDown,정답입니다,241.78903379999974,None,241.78903379999974,None,241.78903379999974,None,241.78903379999974,None,242.81557940000494,None,242.81557940000494,243.3186415000091,,,,,,,,,,,,,,,,107,2023-03-30_15h20.25.088,FishGame,2022.1.1,60.057390840966896,
,4,넌 능숙해,2,Green,B,5.666666666666667,4.733333333333333,ScrollUp,ScrollDown,Green.png,2,Positive,Incongruent,0,0,0,0,,,,,,,,,,,,,,,,,0,3,3,3,,,,,,,,,,,,,,,,,,,,,,,,,,,,,,,,,,,,,,,,,,,,,,,,,,,,,,,,,,,,,,,,,,,,,,,,,,,,,,,,,1.9367283980051677,1.2164615000074264,243.93279180000536,None,ScrollUp,정답입니다,243.93279180000536,None,243.93279180000536,None,243.93279180000536,None,243.93279180000536,None,245.04873380000936,None,245.04873380000936,245.54931250000664,,,,,,,,,,,,,,,,107,2023-03-30_15h20.25.088,FishGame,2022.1.1,60.057390840966896,
,5,넌 진부해,4,Green,B,2.458333333333333,3.166666666666667,ScrollUp,ScrollDown,Green.png,2,Negative,Congruent,0,0,0,0,,,,,,,,,,,,,,,,,0,4,4,4,,,,,,,,,,,,,,,,,,,,,,,,,,,,,,,,,,,,,,,,,,,,,,,,,,,,,,,,,,,,,,,,,,,,,,,,,,,,,,,,,2,1.2315166000043973,246.16856859999825,None,ScrollUp,정답입니다,246.16856859999825,None,246.16856859999825,None,246.16856859999825,None,246.16856859999825,None,247.29660689999582,None,247.29660689999582,247.7986477000086,,,,,,,,,,,,,,,,107,2023-03-30_15h20.25.088,FishGame,2022.1.1,60.057390840966896,
,6,나를 보내줘,6,Orange,A,0,0,ScrollUp,ScrollDown,Orange.png,2,NonTarget,NonTarget,0,0,0,0,,,,,,,,,,,,,,,,,0,5,5,5,,,,,,,,,,,,,,,,,,,,,,,,,,,,,,,,,,,,,,,,,,,,,,,,,,,,,,,,,,,,,,,,,,,,,,,,,,,,,,,,,1.9737654328346252,1.348330500011798,248.4177328000078,None,ScrollUp,정답입니다,248.4177328000078,None,248.4177328000078,None,248.4177328000078,None,248.4177328000078,None,249.6653517000086,None,249.6653517000086,250.1658432999975,,,,,,,,,,,,,,,,107,2023-03-30_15h20.25.088,FishGame,2022.1.1,60.057390840966896,
,7,넌 엄격해,3,Orange,A,4.166666666666666,4.1,ScrollDown,ScrollUp,Orange.png,2,Neutral,Neutral,0,0,0,0,,,,,,,,,,,,,,,,,0,6,6,6,,,,,,,,,,,,,,,,,,,,,,,,,,,,,,,,,,,,,,,,,,,,,,,,,,,,,,,,,,,,,,,,,,,,,,,,,,,,,,,,,1,1.262775099996361,250.7942550000007,None,ScrollDown,정답입니다,250.7942550000007,None,250.7942550000007,None,250.7942550000007,None,250.7942550000007,None,251.94856279999658,None,251.94856279999658,252.4491493999958,,,,,,,,,,,,,,,,107,2023-03-30_15h20.25.088,FishGame,2022.1.1,60.057390840966896,
,8,나를 보내줘,6,Orange,A,0,0,ScrollUp,ScrollDown,Orange.png,2,NonTarget,NonTarget,0,0,0,0,,,,,,,,,,,,,,,,,0,7,7,7,,,,,,,,,,,,,,,,,,,,,,,,,,,,,,,,,,,,,,,,,,,,,,,,,,,,,,,,,,,,,,,,,,,,,,,,,,,,,,,,,1.7839506169160206,1.063732800001162,253.06746069999645,None,ScrollUp,정답입니다,253.06746069999645,None,253.06746069999645,None,253.06746069999645,None,253.06746069999645,None,254.03194939999958,None,254.03194939999958,254.53182060000836,,,,,,,,,,,,,,,,107,2023-03-30_15h20.25.088,FishGame,2022.1.1,60.057390840966896,
,9,넌 대담해,3,Green,B,4.875,4.866666666666666,ScrollUp,ScrollDown,Green.png,2,Neutral,Neutral,0,0,0,0,,,,,,,,,,,,,,,,,0,8,8,8,,,,,,,,,,,,,,,,,,,,,,,,,,,,,,,,,,,,,,,,,,,,,,,,,,,,,,,,,,,,,,,,,,,,,,,,,,,,,,,,,2,1.5831479000044055,255.15241180000885,None,ScrollUp,정답입니다,255.15241180000885,None,255.15241180000885,None,255.15241180000885,None,255.15241180000885,None,256.63181520000217,None,256.63181520000217,257.1318011999974,,,,,,,,,,,,,,,,107,2023-03-30_15h20.25.088,FishGame,2022.1.1,60.057390840966896,
,10,넌 꾸준해,1,Orange,A,5.916666666666668,5.8,ScrollDown,ScrollUp,Orange.png,2,Positive,Congruent,0,0,0,0,,,,,,,,,,,,,,,,,0,9,9,9,,,,,,,,,,,,,,,,,,,,,,,,,,,,,,,,,,,,,,,,,,,,,,,,,,,,,,,,,,,,,,,,,,,,,,,,,,,,,,,,,1.0061728358268738,1.483640699996613,257.75563729999703,None,ScrollDown,정답입니다,257.75563729999703,None,257.75563729999703,None,257.75563729999703,None,257.75563729999703,None,259.1318483000068,None,259.1318483000068,259.63497080000525,,,,,,,,,,,,,,,,107,2023-03-30_15h20.25.088,FishGame,2022.1.1,60.057390840966896,
,11,나를 데려가줘,6,Green,B,0,0,ScrollDown,ScrollUp,Green.png,2,NonTarget,NonTarget,0,0,0,0,,,,,,,,,,,,,,,,,0,10,10,10,,,,,,,,,,,,,,,,,,,,,,,,,,,,,,,,,,,,,,,,,,,,,,,,,,,,,,,,,,,,,,,,,,,,,,,,,,,,,,,,,1,1.3815055999875767,260.2492318000004,None,ScrollDown,정답입니다,260.2492318000004,None,260.2492318000004,None,260.2492318000004,None,260.2492318000004,None,261.529641000001,None,261.529641000001,262.0316499000037,,,,,,,,,,,,,,,,107,2023-03-30_15h20.25.088,FishGame,2022.1.1,60.057390840966896,
,12,넌 독선적이야,5,Orange,A,2.458333333333333,1.933333333333333,ScrollDown,ScrollUp,Orange.png,2,Negative,Incongruent,0,0,0,0,,,,,,,,,,,,,,,,,0,11,11,11,,,,,,,,,,,,,,,,,,,,,,,,,,,,,,,,,,,,,,,,,,,,,,,,,,,,,,,,,,,,,,,,,,,,,,,,,,,,,,,,,1,1.3316535000049043,262.65448359999573,None,ScrollDown,정답입니다,262.65448359999573,None,262.65448359999573,None,262.65448359999573,None,262.65448359999573,None,263.8816923999984,None,263.8816923999984,264.3816791999998,,,,,,,,,,,,,,,,107,2023-03-30_15h20.25.088,FishGame,2022.1.1,60.057390840966896,
,13,나를 보내줘,6,Orange,A,0,0,ScrollUp,ScrollDown,Orange.png,2,NonTarget,NonTarget,0,0,0,0,,,,,,,,,,,,,,,,,0,12,12,12,,,,,,,,,,,,,,,,,,,,,,,,,,,,,,,,,,,,,,,,,,,,,,,,,,,,,,,,,,,,,,,,,,,,,,,,,,,,,,,,,2,1.1424662000063108,265.00865319999866,None,ScrollUp,정답입니다,265.00865319999866,None,265.00865319999866,None,265.00865319999866,None,265.00865319999866,None,266.0459495999967,None,266.0459495999967,266.5459264000092,,,,,,,,,,,,,,,,107,2023-03-30_15h20.25.088,FishGame,2022.1.1,60.057390840966896,
,14,넌 책임감있어,1,Green,B,6.347826086956522,6,ScrollUp,ScrollDown,Green.png,2,Positive,Incongruent,0,0,0,0,,,,,,,,,,,,,,,,,0,13,13,13,,,,,,,,,,,,,,,,,,,,,,,,,,,,,,,,,,,,,,,,,,,,,,,,,,,,,,,,,,,,,,,,,,,,,,,,,,,,,,,,,1.9722222189108531,1.2521635000011884,267.17167999999947,None,ScrollUp,정답입니다,267.17167999999947,None,267.17167999999947,None,267.17167999999947,None,267.17167999999947,None,268.3149950000079,None,268.3149950000079,268.8150209000014,,,,,,,,,,,,,,,,107,2023-03-30_15h20.25.088,FishGame,2022.1.1,60.057390840966896,
,15,넌 문학적이야,3,Orange,A,4.708333333333334,4.333333333333333,ScrollDown,ScrollUp,Orange.png,2,Neutral,Neutral,0,0,0,0,,,,,,,,,,,,,,,,,0,14,14,14,,,,,,,,,,,,,,,,,,,,,,,,,,,,,,,,,,,,,,,,,,,,,,,,,,,,,,,,,,,,,,,,,,,,,,,,,,,,,,,,,1,1.1312561000086134,269.43928679999954,None,ScrollDown,정답입니다,269.43928679999954,None,269.43928679999954,None,269.43928679999954,None,269.43928679999954,None,270.46283669999684,None,270.46283669999684,270.9648495000001,,,,,,,,,,,,,,,,107,2023-03-30_15h20.25.088,FishGame,2022.1.1,60.057390840966896,
,16,넌 재미있어,1,Green,B,5.875,5.7,ScrollUp,ScrollDown,Green.png,2,Positive,Incongruent,0,0,0,0,,,,,,,,,,,,,,,,,0,15,15,15,,,,,,,,,,,,,,,,,,,,,,,,,,,,,,,,,,,,,,,,,,,,,,,,,,,,,,,,,,,,,,,,,,,,,,,,,,,,,,,,,1.8009259204069774,1.1664080000045942,271.58178439999756,None,ScrollUp,정답입니다,271.58178439999756,None,271.58178439999756,None,271.58178439999756,None,271.58178439999756,None,272.6481452000007,None,272.6481452000007,273.14812179999717,,,,,,,,,,,,,,,,107,2023-03-30_15h20.25.088,FishGame,2022.1.1,60.057390840966896,
,17,나를 데려가줘,6,Green,B,0,0,ScrollDown,ScrollUp,Green.png,2,NonTarget,NonTarget,0,0,0,0,,,,,,,,,,,,,,,,,0,16,16,16,,,,,,,,,,,,,,,,,,,,,,,,,,,,,,,,,,,,,,,,,,,,,,,,,,,,,,,,,,,,,,,,,,,,,,,,,,,,,,,,,1,1.2500445999903604,273.76492460000736,None,ScrollDown,정답입니다,273.76492460000736,None,273.76492460000736,None,273.76492460000736,None,273.76492460000736,None,274.9147617999988,None,274.9147617999988,275.41469869999855,,,,,,,,,,,,,,,,107,2023-03-30_15h20.25.088,FishGame,2022.1.1,60.057390840966896,
,18,넌 협력적이야,1,Orange,A,5.625,5.633333333333334,ScrollDown,ScrollUp,Orange.png,2,Positive,Congruent,0,0,0,0,,,,,,,,,,,,,,,,,0,17,17,17,,,,,,,,,,,,,,,,,,,,,,,,,,,,,,,,,,,,,,,,,,,,,,,,,,,,,,,,,,,,,,,,,,,,,,,,,,,,,,,,,1,1.1479113999957917,276.03764770001,None,ScrollDown,정답입니다,276.03764770001,None,276.03764770001,None,276.03764770001,None,276.03764770001,None,277.0814589000074,None,277.0814589000074,277.59804170001007,,,,,,,,,,,,,,,,107,2023-03-30_15h20.25.088,FishGame,2022.1.1,60.057390840966896,
,19,넌 평범해,3,Green,B,4.333333333333332,4.233333333333333,ScrollUp,ScrollDown,Green.png,2,Neutral,Neutral,0,0,0,0,,,,,,,,,,,,,,,,,0,18,18,18,,,,,,,,,,,,,,,,,,,,,,,,,,,,,,,,,,,,,,,,,,,,,,,,,,,,,,,,,,,,,,,,,,,,,,,,,,,,,,,,,1.8086419651905696,1.014940300010494,278.2054305000056,None,ScrollUp,정답입니다,278.2054305000056,None,278.2054305000056,None,278.2054305000056,None,278.2054305000056,None,279.1146371000068,None,279.1146371000068,279.61463179999555,,,,,,,,,,,,,,,,107,2023-03-30_15h20.25.088,FishGame,2022.1.1,60.057390840966896,
,20,넌 오만해,5,Orange,A,2.333333333333333,2,ScrollDown,ScrollUp,Orange.png,2,Negative,Incongruent,0,0,0,0,,,,,,,,,,,,,,,,,0,19,19,19,,,,,,,,,,,,,,,,,,,,,,,,,,,,,,,,,,,,,,,,,,,,,,,,,,,,,,,,,,,,,,,,,,,,,,,,,,,,,,,,,1,1.1470677000033902,280.2369316999975,None,ScrollDown,정답입니다,280.2369316999975,None,280.2369316999975,None,280.2369316999975,None,280.2369316999975,None,281.2789712000085,None,281.2789712000085,281.77894570000353,,,,,,,,,,,,,,,,107,2023-03-30_15h20.25.088,FishGame,2022.1.1,60.057390840966896,
,21,넌 운이없어,4,Green,B,3,3.466666666666667,ScrollUp,ScrollDown,Green.png,2,Negative,Congruent,0,0,0,0,,,,,,,,,,,,,,,,,0,20,20,20,,,,,,,,,,,,,,,,,,,,,,,,,,,,,,,,,,,,,,,,,,,,,,,,,,,,,,,,,,,,,,,,,,,,,,,,,,,,,,,,,1.8827160596847534,1.0649298999924213,282.4005627000006,None,ScrollUp,정답입니다,282.4005627000006,None,282.4005627000006,None,282.4005627000006,None,282.4005627000006,None,283.3648016000079,None,283.3648016000079,283.8646807000041,,,,,,,,,,,,,,,,107,2023-03-30_15h20.25.088,FishGame,2022.1.1,60.057390840966896,
,22,넌 창조적이야,2,Green,B,6.125,4.633333333333334,ScrollUp,ScrollDown,Green.png,2,Positive,Incongruent,0,0,0,0,,,,,,,,,,,,,,,,,0,21,21,21,,,,,,,,,,,,,,,,,,,,,,,,,,,,,,,,,,,,,,,,,,,,,,,,,,,,,,,,,,,,,,,,,,,,,,,,,,,,,,,,,1.9753086467583973,1.1149071999971056,284.4863542000094,None,ScrollUp,정답입니다,284.4863542000094,None,284.4863542000094,None,284.4863542000094,None,284.4863542000094,None,285.4978679000051,None,285.4978679000051,285.9978128000075,,,,,,,,,,,,,,,,107,2023-03-30_15h20.25.088,FishGame,2022.1.1,60.057390840966896,
,23,나를 보내줘,6,Orange,A,0,0,ScrollUp,ScrollDown,Orange.png,2,NonTarget,NonTarget,0,0,0,0,,,,,,,,,,,,,,,,,0,22,22,22,,,,,,,,,,,,,,,,,,,,,,,,,,,,,,,,,,,,,,,,,,,,,,,,,,,,,,,,,,,,,,,,,,,,,,,,,,,,,,,,,1.8657407313585281,1.1981232999969507,286.6155938000011,None,ScrollUp,정답입니다,286.6155938000011,None,286.6155938000011,None,286.6155938000011,None,286.6155938000011,None,287.714498500005,None,287.714498500005,288.21439100000134,,,,,,,,,,,,,,,,107,2023-03-30_15h20.25.088,FishGame,2022.1.1,60.057390840966896,
,24,넌 통찰력있어,2,Orange,A,6.5,4.8,ScrollDown,ScrollUp,Orange.png,2,Positive,Congruent,0,0,0,0,,,,,,,,,,,,,,,,,0,23,23,23,,,,,,,,,,,,,,,,,,,,,,,,,,,,,,,,,,,,,,,,,,,,,,,,,,,,,,,,,,,,,,,,,,,,,,,,,,,,,,,,,1.0354938507080078,1.331406799989054,288.8349518000032,None,ScrollDown,정답입니다,288.8349518000032,None,288.8349518000032,None,288.8349518000032,None,288.8349518000032,None,290.0643856999959,None,290.0643856999959,290.56440329999896,,,,,,,,,,,,,,,,107,2023-03-30_15h20.25.088,FishGame,2022.1.1,60.057390840966896,
,25,넌 경솔해,5,Green,B,2.458333333333333,2.266666666666667,ScrollUp,ScrollDown,Green.png,2,Negative,Congruent,0,0,0,0,,,,,,,,,,,,,,,,,0,24,24,24,,,,,,,,,,,,,,,,,,,,,,,,,,,,,,,,,,,,,,,,,,,,,,,,,,,,,,,,,,,,,,,,,,,,,,,,,,,,,,,,,1.703703703979651,0.9142844000016339,291.1839372999966,None,ScrollUp,정답입니다,291.1839372999966,None,291.1839372999966,None,291.1839372999966,None,291.1839372999966,None,291.99773250000726,None,291.99773250000726,292.4976999000064,,,,,,,,,,,,,,,,107,2023-03-30_15h20.25.088,FishGame,2022.1.1,60.057390840966896,
,26,넌 초조해,4,Orange,A,2.916666666666667,3.133333333333333,ScrollDown,ScrollUp,Orange.png,2,Negative,Incongruent,0,0,0,0,,,,,,,,,,,,,,,,,0,25,25,25,,,,,,,,,,,,,,,,,,,,,,,,,,,,,,,,,,,,,,,,,,,,,,,,,,,,,,,,,,,,,,,,,,,,,,,,,,,,,,,,,1.1280864129463832,1.1460572999931173,293.1223054000002,None,ScrollDown,정답입니다,293.1223054000002,None,293.1223054000002,None,293.1223054000002,None,293.1223054000002,None,294.164365500008,None,294.164365500008,294.6643591000029,,,,,,,,,,,,,,,,107,2023-03-30_15h20.25.088,FishGame,2022.1.1,60.057390840966896,
,27,넌 무관심해,4,Green,B,2.833333333333333,2.9,ScrollUp,ScrollDown,Green.png,2,Negative,Congruent,0,0,0,0,,,,,,,,,,,,,,,,,0,26,26,26,,,,,,,,,,,,,,,,,,,,,,,,,,,,,,,,,,,,,,,,,,,,,,,,,,,,,,,,,,,,,,,,,,,,,,,,,,,,,,,,,1.8441358109315236,1.0269588000082877,295.2863189000054,None,ScrollUp,정답입니다,295.2863189000054,None,295.2863189000054,None,295.2863189000054,None,295.2863189000054,None,296.2143393000006,None,296.2143393000006,296.71442760000355,,,,,,,,,,,,,,,,107,2023-03-30_15h20.25.088,FishGame,2022.1.1,60.057390840966896,
,28,넌 감성적이야,3,Green,B,4.125,4.166666666666667,ScrollUp,ScrollDown,Green.png,2,Neutral,Neutral,0,0,0,0,,,,,,,,,,,,,,,,,0,27,27,27,,,,,,,,,,,,,,,,,,,,,,,,,,,,,,,,,,,,,,,,,,,,,,,,,,,,,,,,,,,,,,,,,,,,,,,,,,,,,,,,,1.8287036965290706,0.9779333000042243,297.33263469999656,None,ScrollUp,정답입니다,297.33263469999656,None,297.33263469999656,None,297.33263469999656,None,297.33263469999656,None,298.2142454999994,None,298.2142454999994,298.7147388000012,,,,,,,,,,,,,,,,107,2023-03-30_15h20.25.088,FishGame,2022.1.1,60.057390840966896,
,29,넌 배려심있어,1,Orange,A,6.083333333333333,5.5,ScrollDown,ScrollUp,Orange.png,2,Positive,Congruent,0,0,0,0,,,,,,,,,,,,,,,,,0,28,28,28,,,,,,,,,,,,,,,,,,,,,,,,,,,,,,,,,,,,,,,,,,,,,,,,,,,,,,,,,,,,,,,,,,,,,,,,,,,,,,,,,1,1.0315187999949558,299.33647180000844,None,ScrollDown,정답입니다,299.33647180000844,None,299.33647180000844,None,299.33647180000844,None,299.33647180000844,None,300.2619183000061,None,300.2619183000061,300.7618661000015,,,,,,,,,,,,,,,,107,2023-03-30_15h20.25.088,FishGame,2022.1.1,60.057390840966896,
,30,넌 숨김없어,3,Orange,A,4.5,4.933333333333334,ScrollDown,ScrollUp,Orange.png,2,Neutral,Neutral,0,0,0,0,,,,,,,,,,,,,,,,,0,29,29,29,,,,,,,,,,,,,,,,,,,,,,,,,,,,,,,,,,,,,,,,,,,,,,,,,,,,,,,,,,,,,,,,,,,,,,,,,,,,,,,,,1.0108024775981903,1.0338735999976052,301.3829330000008,None,ScrollDown,정답입니다,301.3829330000008,None,301.3829330000008,None,301.3829330000008,None,301.3829330000008,None,302.31437530000403,None,302.31437530000403,302.8142760000046,,,,,,,,,,,,,,,,107,2023-03-30_15h20.25.088,FishGame,2022.1.1,60.057390840966896,
,31,넌 훌륭해,2,Green,B,5.916666666666667,4.033333333333333,ScrollUp,ScrollDown,Green.png,2,Positive,Incongruent,0,0,0,0,,,,,,,,,,,,,,,,,0,30,30,30,,,,,,,,,,,,,,,,,,,,,,,,,,,,,,,,,,,,,,,,,,,,,,,,,,,,,,,,,,,,,,,,,,,,,,,,,,,,,,,,,1.8950617214043934,0.9639286000019638,303.44046810000145,None,ScrollUp,정답입니다,303.44046810000145,None,303.44046810000145,None,303.44046810000145,None,303.44046810000145,None,304.30076369999733,None,304.30076369999733,304.81411020000814,,,,,,,,,,,,,,,,107,2023-03-30_15h20.25.088,FishGame,2022.1.1,60.057390840966896,
,32,넌 슬기로워,2,Orange,A,6.166666666666667,4.1,ScrollDown,ScrollUp,Orange.png,2,Positive,Congruent,0,0,0,0,,,,,,,,,,,,,,,,,0,31,31,31,,,,,,,,,,,,,,,,,,,,,,,,,,,,,,,,,,,,,,,,,,,,,,,,,,,,,,,,,,,,,,,,,,,,,,,,,,,,,,,,,1,1.0956259999948088,305.4360947999958,None,ScrollDown,정답입니다,305.4360947999958,None,305.4360947999958,None,305.4360947999958,None,305.4360947999958,None,306.43076519999886,None,306.43076519999886,306.9289567000087,,,,,,,,,,,,,,,,107,2023-03-30_15h20.25.088,FishGame,2022.1.1,60.057390840966896,
,33,넌 냉혹해,5,Orange,A,2.583333333333333,2.1,ScrollDown,ScrollUp,Orange.png,2,Negative,Incongruent,0,0,0,0,,,,,,,,,,,,,,,,,0,32,32,32,,,,,,,,,,,,,,,,,,,,,,,,,,,,,,,,,,,,,,,,,,,,,,,,,,,,,,,,,,,,,,,,,,,,,,,,,,,,,,,,,1,1.010947099988698,307.5602685000049,None,ScrollDown,정답입니다,307.5602685000049,None,307.5602685000049,None,307.5602685000049,None,307.5602685000049,None,308.4620409000054,None,308.4620409000054,308.9639489999972,,,,,,,,,,,,,,,,107,2023-03-30_15h20.25.088,FishGame,2022.1.1,60.057390840966896,
,34,나를 데려가줘,6,Green,B,0,0,ScrollDown,ScrollUp,Green.png,2,NonTarget,NonTarget,0,0,0,0,,,,,,,,,,,,,,,,,0,33,33,33,,,,,,,,,,,,,,,,,,,,,,,,,,,,,,,,,,,,,,,,,,,,,,,,,,,,,,,,,,,,,,,,,,,,,,,,,,,,,,,,,1,1.1629318000050262,309.58018730000185,None,ScrollDown,정답입니다,309.58018730000185,None,309.58018730000185,None,309.58018730000185,None,309.58018730000185,None,310.64527459999954,None,310.64527459999954,311.14728849999665,,,,,,,,,,,,,,,,107,2023-03-30_15h20.25.088,FishGame,2022.1.1,60.057390840966896,
,35,넌 편파적이야,5,Green,B,2.125,2,ScrollUp,ScrollDown,Green.png,2,Negative,Congruent,0,0,0,0,,,,,,,,,,,,,,,,,0,34,34,34,,,,,,,,,,,,,,,,,,,,,,,,,,,,,,,,,,,,,,,,,,,,,,,,,,,,,,,,,,,,,,,,,,,,,,,,,,,,,,,,,1.6882716019948325,0.9471486000111327,311.765527800002,None,ScrollUp,정답입니다,311.765527800002,None,311.765527800002,None,311.765527800002,None,311.765527800002,None,312.61159939999925,None,312.61159939999925,313.1127225000091,,,,,,,,,,,,,,,,107,2023-03-30_15h20.25.088,FishGame,2022.1.1,60.057390840966896,
,36,넌 슬퍼,4,Orange,A,2.583333333333333,3.066666666666667,ScrollDown,ScrollUp,Orange.png,2,Negative,Incongruent,0,0,0,0,,,,,,,,,,,,,,,,,0,35,35,35,,,,,,,,,,,,,,,,,,,,,,,,,,,,,,,,,,,,,,,,,,,,,,,,,,,,,,,,,,,,,,,,,,,,,,,,,,,,,,,,,1.0185184975465138,1.0315372000040952,313.7320536000043,None,ScrollDown,정답입니다,313.7320536000043,None,313.7320536000043,None,313.7320536000043,None,313.7320536000043,None,314.66161110000394,None,314.66161110000394,315.1640050999995,,,,,,,,,,,,,,,,107,2023-03-30_15h20.25.088,FishGame,2022.1.1,60.057390840966896,
,37,나를 데려가줘,6,Green,B,0,0,ScrollDown,ScrollUp,Green.png,2,NonTarget,NonTarget,0,0,0,0,,,,,,,,,,,,,,,,,0,36,36,36,,,,,,,,,,,,,,,,,,,,,,,,,,,,,,,,,,,,,,,,,,,,,,,,,,,,,,,,,,,,,,,,,,,,,,,,,,,,,,,,,1.0385802288850148,1.0492266000073869,315.7815452000068,None,ScrollDown,정답입니다,315.7815452000068,None,315.7815452000068,None,315.7815452000068,None,315.7815452000068,None,316.73071250000794,None,316.73071250000794,317.23048919999565,,,,,,,,,,,,,,,,107,2023-03-30_15h20.25.088,FishGame,2022.1.1,60.057390840966896,
,38,넌 친절해,1,Green,B,6.041666666666667,5.533333333333333,ScrollUp,ScrollDown,Green.png,2,Positive,Incongruent,0,0,0,0,,,,,,,,,,,,,,,,,0,37,37,37,,,,,,,,,,,,,,,,,,,,,,,,,,,,,,,,,,,,,,,,,,,,,,,,,,,,,,,,,,,,,,,,,,,,,,,,,,,,,,,,,1.8287036965290706,0.9983171000058064,317.8500067999994,None,ScrollUp,정답입니다,317.8500067999994,None,317.8500067999994,None,317.8500067999994,None,317.8500067999994,None,318.74726770000416,None,318.74726770000416,319.2472293000028,,,,,,,,,,,,,,,,107,2023-03-30_15h20.25.088,FishGame,2022.1.1,60.057390840966896,
,1,넌 엉성해,4,Orange,A,3,3.3,ScrollDown,ScrollUp,Orange.png,3,Negative,Incongruent,0,0,0,0,,,,,,,,,,,,,,,,,,,,,0,0,0,0,,,,,,,,,,,,,,,,,,,,,,,,,,,,,,,,,,,,351.1297096000053,352.6299723999982,352.66619170000195,353.62988239999686,353.6632634999987,354.6132188000047,354.6132188000047,None,,,,,,,,,,,,,,,,,,,,,,,,,,,,,,,,,,1.1111111094554265,1.1979835999954958,355.7159998999996,None,ScrollDown,정답입니다,355.7159998999996,None,355.7159998999996,None,355.7159998999996,None,355.7159998999996,None,356.81299400000717,None,356.81299400000717,357.33000100000936,319.7471680000017,None,319.7471680000017,None,0.13518518,-0.14444445,1,0,0,0.01629410998430103,None,349.74630090000574,None,,,107,2023-03-30_15h20.25.088,FishGame,2022.1.1,60.057390840966896,
,2,나를 보내줘,6,Orange,A,0,0,ScrollUp,ScrollDown,Orange.png,3,NonTarget,NonTarget,0,0,0,0,,,,,,,,,,,,,,,,,,,,,0,1,1,1,,,,,,,,,,,,,,,,,,,,,,,,,,,,,,,,,,,,,,,,,,,,,,,,,,,,,,,,,,,,,,,,,,,,,,,,,,,,,1.8703703731298447,1.1832267999998294,357.93097729999863,None,ScrollUp,정답입니다,357.93097729999863,None,357.93097729999863,None,357.93097729999863,None,357.93097729999863,None,359.0128861999983,None,359.0128861999983,359.5128790000017,,,,,,,,,,,,,,,,107,2023-03-30_15h20.25.088,FishGame,2022.1.1,60.057390840966896,
,3,넌 활발해,1,Green,B,5.666666666666667,5.6,ScrollUp,ScrollDown,Green.png,3,Positive,Incongruent,0,0,0,0,,,,,,,,,,,,,,,,,,,,,0,2,2,2,,,,,,,,,,,,,,,,,,,,,,,,,,,,,,,,,,,,,,,,,,,,,,,,,,,,,,,,,,,,,,,,,,,,,,,,,,,,,1.8456790000200272,1.2147476999962237,360.130677299996,None,ScrollUp,정답입니다,360.130677299996,None,360.130677299996,None,360.130677299996,None,360.130677299996,None,361.2462624000036,None,361.2462624000036,361.7462563000008,,,,,,,,,,,,,,,,107,2023-03-30_15h20.25.088,FishGame,2022.1.1,60.057390840966896,
,4,넌 논리적이야,2,Orange,A,5.666666666666666,4.633333333333334,ScrollDown,ScrollUp,Orange.png,3,Positive,Congruent,0,0,0,0,,,,,,,,,,,,,,,,,,,,,0,3,3,3,,,,,,,,,,,,,,,,,,,,,,,,,,,,,,,,,,,,,,,,,,,,,,,,,,,,,,,,,,,,,,,,,,,,,,,,,,,,,1,1.0285384000017075,362.3711115000042,None,ScrollDown,정답입니다,362.3711115000042,None,362.3711115000042,None,362.3711115000042,None,362.3711115000042,None,363.2961316000001,None,363.2961316000001,363.7967548000015,,,,,,,,,,,,,,,,107,2023-03-30_15h20.25.088,FishGame,2022.1.1,60.057390840966896,
,5,넌 과묵해,3,Orange,A,3.875,4.4,ScrollDown,ScrollUp,Orange.png,3,Neutral,Neutral,0,0,0,0,,,,,,,,,,,,,,,,,,,,,0,4,4,4,,,,,,,,,,,,,,,,,,,,,,,,,,,,,,,,,,,,,,,,,,,,,,,,,,,,,,,,,,,,,,,,,,,,,,,,,,,,,1,1.1456909000116866,364.42036240000743,None,ScrollDown,정답입니다,364.42036240000743,None,364.42036240000743,None,364.42036240000743,None,364.42036240000743,None,365.4607706999959,None,365.4607706999959,365.9627598000079,,,,,,,,,,,,,,,,107,2023-03-30_15h20.25.088,FishGame,2022.1.1,60.057390840966896,
,6,나를 데려가줘,6,Green,B,0,0,ScrollDown,ScrollUp,Green.png,3,NonTarget,NonTarget,0,0,0,0,,,,,,,,,,,,,,,,,,,,,0,5,5,5,,,,,,,,,,,,,,,,,,,,,,,,,,,,,,,,,,,,,,,,,,,,,,,,,,,,,,,,,,,,,,,,,,,,,,,,,,,,,1,1.1458624000078999,366.5840351000079,None,ScrollDown,정답입니다,366.5840351000079,None,366.5840351000079,None,366.5840351000079,None,366.5840351000079,None,367.62707919999957,None,367.62707919999957,368.1278117000038,,,,,,,,,,,,,,,,107,2023-03-30_15h20.25.088,FishGame,2022.1.1,60.057390840966896,
,7,넌 미숙해,4,Green,B,3,3,ScrollUp,ScrollDown,Green.png,3,Negative,Congruent,0,0,0,0,,,,,,,,,,,,,,,,,,,,,0,6,6,6,,,,,,,,,,,,,,,,,,,,,,,,,,,,,,,,,,,,,,,,,,,,,,,,,,,,,,,,,,,,,,,,,,,,,,,,,,,,,1.8441358109315236,0.9172451000049477,368.740380800009,None,ScrollUp,정답입니다,368.740380800009,None,368.740380800009,None,368.740380800009,None,368.740380800009,None,369.5628941000032,None,369.5628941000032,370.0628346000012,,,,,,,,,,,,,,,,107,2023-03-30_15h20.25.088,FishGame,2022.1.1,60.057390840966896,
,8,나를 보내줘,6,Orange,A,0,0,ScrollUp,ScrollDown,Orange.png,3,NonTarget,NonTarget,0,0,0,0,,,,,,,,,,,,,,,,,,,,,0,7,7,7,,,,,,,,,,,,,,,,,,,,,,,,,,,,,,,,,,,,,,,,,,,,,,,,,,,,,,,,,,,,,,,,,,,,,,,,,,,,,1.8364197413126628,1.0804711999953724,370.68151619999844,None,ScrollUp,정답입니다,370.68151619999844,None,370.68151619999844,None,370.68151619999844,None,370.68151619999844,None,371.66267920000246,None,371.66267920000246,372.16261480000685,,,,,,,,,,,,,,,,107,2023-03-30_15h20.25.088,FishGame,2022.1.1,60.057390840966896,
,9,넌 자신만만해,3,Green,B,4.833333333333334,4.333333333333333,ScrollUp,ScrollDown,Green.png,3,Neutral,Neutral,0,0,0,0,,,,,,,,,,,,,,,,,,,,,0,8,8,8,,,,,,,,,,,,,,,,,,,,,,,,,,,,,,,,,,,,,,,,,,,,,,,,,,,,,,,,,,,,,,,,,,,,,,,,,,,,,1.9012345770994823,0.9978261000069324,372.78183680000075,None,ScrollUp,정답입니다,372.78183680000075,None,372.78183680000075,None,372.78183680000075,None,372.78183680000075,None,373.6792875999963,None,373.6792875999963,374.17985359999875,,,,,,,,,,,,,,,,107,2023-03-30_15h20.25.088,FishGame,2022.1.1,60.057390840966896,
,10,넌 탐욕스러워,5,Orange,A,2.25,2.1,ScrollDown,ScrollUp,Orange.png,3,Negative,Incongruent,0,0,0,0,,,,,,,,,,,,,,,,,,,,,0,9,9,9,,,,,,,,,,,,,,,,,,,,,,,,,,,,,,,,,,,,,,,,,,,,,,,,,,,,,,,,,,,,,,,,,,,,,,,,,,,,,1,1.0594450000062352,374.8083320000005,None,ScrollDown,정답입니다,374.8083320000005,None,374.8083320000005,None,374.8083320000005,None,374.8083320000005,None,375.7602578000078,None,375.7602578000078,376.26021220000985,,,,,,,,,,,,,,,,107,2023-03-30_15h20.25.088,FishGame,2022.1.1,60.057390840966896,
,11,넌 인기있어,2,Orange,A,5.458333333333333,4.5,ScrollDown,ScrollUp,Orange.png,3,Positive,Congruent,0,0,0,0,,,,,,,,,,,,,,,,,,,,,0,10,10,10,,,,,,,,,,,,,,,,,,,,,,,,,,,,,,,,,,,,,,,,,,,,,,,,,,,,,,,,,,,,,,,,,,,,,,,,,,,,,1,1.034179900001618,376.87571690000186,None,ScrollDown,정답입니다,376.87571690000186,None,376.87571690000186,None,376.87571690000186,None,376.87571690000186,None,377.8126481000072,None,377.8126481000072,378.3126209000038,,,,,,,,,,,,,,,,107,2023-03-30_15h20.25.088,FishGame,2022.1.1,60.057390840966896,
,12,나를 데려가줘,6,Green,B,0,0,ScrollDown,ScrollUp,Green.png,3,NonTarget,NonTarget,0,0,0,0,,,,,,,,,,,,,,,,,,,,,0,11,11,11,,,,,,,,,,,,,,,,,,,,,,,,,,,,,,,,,,,,,,,,,,,,,,,,,,,,,,,,,,,,,,,,,,,,,,,,,,,,,1,1.1775172999914503,378.9295279000071,None,ScrollDown,정답입니다,378.9295279000071,None,378.9295279000071,None,378.9295279000071,None,378.9295279000071,None,380.0057286000083,None,380.0057286000083,380.5101246999984,,,,,,,,,,,,,,,,107,2023-03-30_15h20.25.088,FishGame,2022.1.1,60.057390840966896,
,13,넌 뛰어나,2,Green,B,6.166666666666667,4,ScrollUp,ScrollDown,Green.png,3,Positive,Incongruent,0,0,0,0,,,,,,,,,,,,,,,,,,,,,0,12,12,12,,,,,,,,,,,,,,,,,,,,,,,,,,,,,,,,,,,,,,,,,,,,,,,,,,,,,,,,,,,,,,,,,,,,,,,,,,,,,1.7361111094554267,0.9820275999954902,381.1296571999992,None,ScrollUp,정답입니다,381.1296571999992,None,381.1296571999992,None,381.1296571999992,None,381.1296571999992,None,382.01014700000815,None,382.01014700000815,382.51014890000806,,,,,,,,,,,,,,,,107,2023-03-30_15h20.25.088,FishGame,2022.1.1,60.057390840966896,
,14,넌 낙관적이야,1,Orange,A,5.75,5.8,ScrollDown,ScrollUp,Orange.png,3,Positive,Congruent,0,0,0,0,,,,,,,,,,,,,,,,,,,,,0,13,13,13,,,,,,,,,,,,,,,,,,,,,,,,,,,,,,,,,,,,,,,,,,,,,,,,,,,,,,,,,,,,,,,,,,,,,,,,,,,,,1,1.031470600006287,383.1349629000033,None,ScrollDown,정답입니다,383.1349629000033,None,383.1349629000033,None,383.1349629000033,None,383.1349629000033,None,384.06255729999975,None,384.06255729999975,384.56247370000347,,,,,,,,,,,,,,,,107,2023-03-30_15h20.25.088,FishGame,2022.1.1,60.057390840966896,
,15,넌 산만해,4,Green,B,2.695652173913043,3.033333333333333,ScrollUp,ScrollDown,Green.png,3,Negative,Congruent,0,0,0,0,,,,,,,,,,,,,,,,,,,,,0,14,14,14,,,,,,,,,,,,,,,,,,,,,,,,,,,,,,,,,,,,,,,,,,,,,,,,,,,,,,,,,,,,,,,,,,,,,,,,,,,,,1.983024666706721,1.0317478000069968,385.1808277000091,None,ScrollUp,정답입니다,385.1808277000091,None,385.1808277000091,None,385.1808277000091,None,385.1808277000091,None,386.1123818000051,None,386.1123818000051,386.6123358000041,,,,,,,,,,,,,,,,107,2023-03-30_15h20.25.088,FishGame,2022.1.1,60.057390840966896,
,16,나를 보내줘,6,Orange,A,0,0,ScrollUp,ScrollDown,Orange.png,3,NonTarget,NonTarget,0,0,0,0,,,,,,,,,,,,,,,,,,,,,0,15,15,15,,,,,,,,,,,,,,,,,,,,,,,,,,,,,,,,,,,,,,,,,,,,,,,,,,,,,,,,,,,,,,,,,,,,,,,,,,,,,1.9645061492919922,1.1277610999968601,387.2387371000077,None,ScrollUp,정답입니다,387.2387371000077,None,387.2387371000077,None,387.2387371000077,None,387.2387371000077,None,388.2599679999985,None,388.2599679999985,388.76002689999586,,,,,,,,,,,,,,,,107,2023-03-30_15h20.25.088,FishGame,2022.1.1,60.057390840966896,
,17,넌 교활해,5,Green,B,2.333333333333333,2.133333333333333,ScrollUp,ScrollDown,Green.png,3,Negative,Congruent,0,0,0,0,,,,,,,,,,,,,,,,,,,,,0,16,16,16,,,,,,,,,,,,,,,,,,,,,,,,,,,,,,,,,,,,,,,,,,,,,,,,,,,,,,,,,,,,,,,,,,,,,,,,,,,,,1.873456800977389,1.1024651999905473,389.37768250000954,None,ScrollUp,정답입니다,389.37768250000954,None,389.37768250000954,None,389.37768250000954,None,389.37768250000954,None,390.3790197000053,None,390.3790197000053,390.87901450000936,,,,,,,,,,,,,,,,107,2023-03-30_15h20.25.088,FishGame,2022.1.1,60.057390840966896,
,18,나를 보내줘,6,Orange,A,0,0,ScrollUp,ScrollDown,Orange.png,3,NonTarget,NonTarget,0,0,0,0,,,,,,,,,,,,,,,,,,,,,0,17,17,17,,,,,,,,,,,,,,,,,,,,,,,,,,,,,,,,,,,,,,,,,,,,,,,,,,,,,,,,,,,,,,,,,,,,,,,,,,,,,1.9629629850387573,1.0479150000028312,391.4963576000009,None,ScrollUp,정답입니다,391.4963576000009,None,391.4963576000009,None,391.4963576000009,None,391.4963576000009,None,392.4457034000079,None,392.4457034000079,392.9456127000012,,,,,,,,,,,,,,,,107,2023-03-30_15h20.25.088,FishGame,2022.1.1,60.057390840966896,
,19,넌 불친절해,5,Green,B,2.208333333333333,2.033333333333333,ScrollUp,ScrollDown,Green.png,3,Negative,Congruent,0,0,0,0,,,,,,,,,,,,,,,,,,,,,0,18,18,18,,,,,,,,,,,,,,,,,,,,,,,,,,,,,,,,,,,,,,,,,,,,,,,,,,,,,,,,,,,,,,,,,,,,,,,,,,,,,1.8950617214043934,1.0980181000049924,393.5648643000022,None,ScrollUp,정답입니다,393.5648643000022,None,393.5648643000022,None,393.5648643000022,None,393.5648643000022,None,394.5623218999972,None,394.5623218999972,395.0621439999959,,,,,,,,,,,,,,,,107,2023-03-30_15h20.25.088,FishGame,2022.1.1,60.057390840966896,
,20,넌 지적이야,2,Green,B,5.75,4.366666666666666,ScrollUp,ScrollDown,Green.png,3,Positive,Incongruent,0,0,0,0,,,,,,,,,,,,,,,,,,,,,0,19,19,19,,,,,,,,,,,,,,,,,,,,,,,,,,,,,,,,,,,,,,,,,,,,,,,,,,,,,,,,,,,,,,,,,,,,,,,,,,,,,1.9938271641731262,1.1426090999884764,395.68694670000696,None,ScrollUp,정답입니다,395.68694670000696,None,395.68694670000696,None,395.68694670000696,None,395.68694670000696,None,396.72643110000354,None,396.72643110000354,397.22649990000355,,,,,,,,,,,,,,,,107,2023-03-30_15h20.25.088,FishGame,2022.1.1,60.057390840966896,
,21,넌 우유부단해,4,Orange,A,2.666666666666667,3.166666666666667,ScrollDown,ScrollUp,Orange.png,3,Negative,Incongruent,0,0,0,0,,,,,,,,,,,,,,,,,,,,,0,20,20,20,,,,,,,,,,,,,,,,,,,,,,,,,,,,,,,,,,,,,,,,,,,,,,,,,,,,,,,,,,,,,,,,,,,,,,,,,,,,,1,1.0838765999942552,397.8480458999984,None,ScrollDown,정답입니다,397.8480458999984,None,397.8480458999984,None,397.8480458999984,None,397.8480458999984,None,398.82890960000805,None,398.82890960000805,399.3295464999974,,,,,,,,,,,,,,,,107,2023-03-30_15h20.25.088,FishGame,2022.1.1,60.057390840966896,
,22,나를 데려가줘,6,Green,B,0,0,ScrollDown,ScrollUp,Green.png,3,NonTarget,NonTarget,0,0,0,0,,,,,,,,,,,,,,,,,,,,,0,21,21,21,,,,,,,,,,,,,,,,,,,,,,,,,,,,,,,,,,,,,,,,,,,,,,,,,,,,,,,,,,,,,,,,,,,,,,,,,,,,,1,1.2617219000094337,399.94478250000975,None,ScrollDown,정답입니다,399.94478250000975,None,399.94478250000975,None,399.94478250000975,None,399.94478250000975,None,401.10972390000825,None,401.10972390000825,401.60966060000646,,,,,,,,,,,,,,,,107,2023-03-30_15h20.25.088,FishGame,2022.1.1,60.057390840966896,
,23,넌 성실해,1,Green,B,6.041666666666666,5.7,ScrollUp,ScrollDown,Green.png,3,Positive,Incongruent,0,0,0,0,,,,,,,,,,,,,,,,,,,,,0,22,22,22,,,,,,,,,,,,,,,,,,,,,,,,,,,,,,,,,,,,,,,,,,,,,,,,,,,,,,,,,,,,,,,,,,,,,,,,,,,,,1.9660493632157643,1.0487207999976818,402.22390769999765,None,ScrollUp,정답입니다,402.22390769999765,None,402.22390769999765,None,402.22390769999765,None,402.22390769999765,None,403.1764777000062,None,403.1764777000062,403.67873820000386,,,,,,,,,,,,,,,,107,2023-03-30_15h20.25.088,FishGame,2022.1.1,60.057390840966896,
,24,넌 현실주의적이야,3,Orange,A,4.625,4.4,ScrollDown,ScrollUp,Orange.png,3,Neutral,Neutral,0,0,0,0,,,,,,,,,,,,,,,,,,,,,0,23,23,23,,,,,,,,,,,,,,,,,,,,,,,,,,,,,,,,,,,,,,,,,,,,,,,,,,,,,,,,,,,,,,,,,,,,,,,,,,,,,1.0725308855374653,1.065456099997391,404.2981904000044,None,ScrollDown,정답입니다,404.2981904000044,None,404.2981904000044,None,404.2981904000044,None,404.2981904000044,None,405.2600272999989,None,405.2600272999989,405.7624280000018,,,,,,,,,,,,,,,,107,2023-03-30_15h20.25.088,FishGame,2022.1.1,60.057390840966896,
,25,넌 진실돼,1,Orange,A,6.625,5.566666666666666,ScrollDown,ScrollUp,Orange.png,3,Positive,Congruent,0,0,0,0,,,,,,,,,,,,,,,,,,,,,0,24,24,24,,,,,,,,,,,,,,,,,,,,,,,,,,,,,,,,,,,,,,,,,,,,,,,,,,,,,,,,,,,,,,,,,,,,,,,,,,,,,1,1.13083199999528,406.38515489999554,None,ScrollDown,정답입니다,406.38515489999554,None,406.38515489999554,None,406.38515489999554,None,406.38515489999554,None,407.40954770000826,None,407.40954770000826,407.90953750000335,,,,,,,,,,,,,,,,107,2023-03-30_15h20.25.088,FishGame,2022.1.1,60.057390840966896,
,26,넌 천진난만해,3,Green,B,4.958333333333334,4.833333333333333,ScrollUp,ScrollDown,Green.png,3,Neutral,Neutral,0,0,0,0,,,,,,,,,,,,,,,,,,,,,0,25,25,25,,,,,,,,,,,,,,,,,,,,,,,,,,,,,,,,,,,,,,,,,,,,,,,,,,,,,,,,,,,,,,,,,,,,,,,,,,,,,2,1.085987300000852,408.52801320000435,None,ScrollUp,정답입니다,408.52801320000435,None,408.52801320000435,None,408.52801320000435,None,408.52801320000435,None,409.51199529999576,None,409.51199529999576,410.0119401999982,,,,,,,,,,,,,,,,107,2023-03-30_15h20.25.088,FishGame,2022.1.1,60.057390840966896,
,27,넌 교양없어,5,Orange,A,2.416666666666667,2.2,ScrollDown,ScrollUp,Orange.png,3,Negative,Incongruent,0,0,0,0,,,,,,,,,,,,,,,,,,,,,0,26,26,26,,,,,,,,,,,,,,,,,,,,,,,,,,,,,,,,,,,,,,,,,,,,,,,,,,,,,,,,,,,,,,,,,,,,,,,,,,,,,1,1.1293185999966227,410.63464920000115,None,ScrollDown,정답입니다,410.63464920000115,None,410.63464920000115,None,410.63464920000115,None,410.63464920000115,None,411.66197519999696,None,411.66197519999696,412.1618903000053,,,,,,,,,,,,,,,,107,2023-03-30_15h20.25.088,FishGame,2022.1.1,60.057390840966896,
,28,나를 보내줘,6,Orange,A,0,0,ScrollUp,ScrollDown,Orange.png,3,NonTarget,NonTarget,0,0,0,0,,,,,,,,,,,,,,,,,,,,,0,27,27,27,,,,,,,,,,,,,,,,,,,,,,,,,,,,,,,,,,,,,,,,,,,,,,,,,,,,,,,,,,,,,,,,,,,,,,,,,,,,,1.9876543084780376,1.079512700001942,412.7806382999988,None,ScrollUp,정답입니다,412.7806382999988,None,412.7806382999988,None,412.7806382999988,None,412.7806382999988,None,413.76179070000944,None,413.76179070000944,414.26172190000943,,,,,,,,,,,,,,,,107,2023-03-30_15h20.25.088,FishGame,2022.1.1,60.057390840966896,
,29,넌 엉뚱스러워,3,Orange,A,4.166666666666667,4.133333333333334,ScrollDown,ScrollUp,Orange.png,3,Neutral,Neutral,0,0,0,0,,,,,,,,,,,,,,,,,,,,,0,28,28,28,,,,,,,,,,,,,,,,,,,,,,,,,,,,,,,,,,,,,,,,,,,,,,,,,,,,,,,,,,,,,,,,,,,,,,,,,,,,,1,1.1160517999960575,414.8883962999971,None,ScrollDown,정답입니다,414.8883962999971,None,414.8883962999971,None,414.8883962999971,None,414.8883962999971,None,415.89502090000315,None,415.89502090000315,416.3949300999957,,,,,,,,,,,,,,,,107,2023-03-30_15h20.25.088,FishGame,2022.1.1,60.057390840966896,
,30,넌 무지해,4,Green,B,2.541666666666667,3.066666666666667,ScrollUp,ScrollDown,Green.png,3,Negative,Congruent,0,0,0,0,,,,,,,,,,,,,,,,,,,,,0,29,29,29,,,,,,,,,,,,,,,,,,,,,,,,,,,,,,,,,,,,,,,,,,,,,,,,,,,,,,,,,,,,,,,,,,,,,,,,,,,,,1.9614197711149852,0.9815548000042327,417.0114337999985,None,ScrollUp,정답입니다,417.0114337999985,None,417.0114337999985,None,417.0114337999985,None,417.0114337999985,None,417.89503030000196,None,417.89503030000196,418.3949726999999,,,,,,,,,,,,,,,,107,2023-03-30_15h20.25.088,FishGame,2022.1.1,60.057390840966896,
,31,넌 음울해,5,Green,B,2.25,2.233333333333333,ScrollUp,ScrollDown,Green.png,3,Negative,Congruent,0,0,0,0,,,,,,,,,,,,,,,,,,,,,0,30,30,30,,,,,,,,,,,,,,,,,,,,,,,,,,,,,,,,,,,,,,,,,,,,,,,,,,,,,,,,,,,,,,,,,,,,,,,,,,,,,1.9305555423100789,0.8951087999885203,419.0160754999961,None,ScrollUp,정답입니다,419.0160754999961,None,419.0160754999961,None,419.0160754999961,None,419.0160754999961,None,419.8092933000007,None,419.8092933000007,420.3094160000037,,,,,,,,,,,,,,,,107,2023-03-30_15h20.25.088,FishGame,2022.1.1,60.057390840966896,
,32,넌 냉소적이야,5,Orange,A,2.916666666666667,2.4,ScrollDown,ScrollUp,Orange.png,3,Negative,Incongruent,0,0,0,0,,,,,,,,,,,,,,,,,,,,,0,31,31,31,,,,,,,,,,,,,,,,,,,,,,,,,,,,,,,,,,,,,,,,,,,,,,,,,,,,,,,,,,,,,,,,,,,,,,,,,,,,,1,0.9482348000019556,420.9294510000036,None,ScrollDown,정답입니다,420.9294510000036,None,420.9294510000036,None,420.9294510000036,None,420.9294510000036,None,421.7759439000074,None,421.7759439000074,422.2785365000018,,,,,,,,,,,,,,,,107,2023-03-30_15h20.25.088,FishGame,2022.1.1,60.057390840966896,
,33,나를 데려가줘,6,Green,B,0,0,ScrollDown,ScrollUp,Green.png,3,NonTarget,NonTarget,0,0,0,0,,,,,,,,,,,,,,,,,,,,,0,32,32,32,,,,,,,,,,,,,,,,,,,,,,,,,,,,,,,,,,,,,,,,,,,,,,,,,,,,,,,,,,,,,,,,,,,,,,,,,,,,,1,1.1343706000043312,422.89359890000196,None,ScrollDown,정답입니다,422.89359890000196,None,422.89359890000196,None,422.89359890000196,None,422.89359890000196,None,423.931588300009,None,423.931588300009,424.44532310000795,,,,,,,,,,,,,,,,107,2023-03-30_15h20.25.088,FishGame,2022.1.1,60.057390840966896,
,34,넌 쾌활해,1,Orange,A,5.541666666666666,5.733333333333333,ScrollDown,ScrollUp,Orange.png,3,Positive,Congruent,0,0,0,0,,,,,,,,,,,,,,,,,,,,,0,33,33,33,,,,,,,,,,,,,,,,,,,,,,,,,,,,,,,,,,,,,,,,,,,,,,,,,,,,,,,,,,,,,,,,,,,,,,,,,,,,,1.1049382785956066,1.0151102999952855,425.0657668000058,None,ScrollDown,정답입니다,425.0657668000058,None,425.0657668000058,None,425.0657668000058,None,425.0657668000058,None,425.97817630000645,None,425.97817630000645,426.478159899998,,,,,,,,,,,,,,,,107,2023-03-30_15h20.25.088,FishGame,2022.1.1,60.057390840966896,
,35,나를 보내줘,6,Orange,A,0,0,ScrollUp,ScrollDown,Orange.png,3,NonTarget,NonTarget,0,0,0,0,,,,,,,,,,,,,,,,,,,,,0,34,34,34,,,,,,,,,,,,,,,,,,,,,,,,,,,,,,,,,,,,,,,,,,,,,,,,,,,,,,,,,,,,,,,,,,,,,,,,,,,,,2,1.6759055000002263,427.1044339000073,None,ScrollUp,정답입니다,427.1044339000073,None,427.1044339000073,None,427.1044339000073,None,427.1044339000073,None,428.6757370999985,None,428.6757370999985,429.17877600000065,,,,,,,,,,,,,,,,107,2023-03-30_15h20.25.088,FishGame,2022.1.1,60.057390840966896,
,36,넌 명랑해,1,Green,B,5.739130434782609,5.666666666666667,ScrollUp,ScrollDown,Green.png,3,Positive,Incongruent,0,0,0,0,,,,,,,,,,,,,,,,,,,,,0,35,35,35,,,,,,,,,,,,,,,,,,,,,,,,,,,,,,,,,,,,,,,,,,,,,,,,,,,,,,,,,,,,,,,,,,,,,,,,,,,,,1.7947530895471573,1.0509862000035355,429.7973471000005,None,ScrollUp,정답입니다,429.7973471000005,None,429.7973471000005,None,429.7973471000005,None,429.7973471000005,None,430.7448540000041,None,430.7448540000041,431.2447938999976,,,,,,,,,,,,,,,,107,2023-03-30_15h20.25.088,FishGame,2022.1.1,60.057390840966896,
,37,넌 멍해,4,Orange,A,2.833333333333333,3.4,ScrollDown,ScrollUp,Orange.png,3,Negative,Incongruent,0,0,0,0,,,,,,,,,,,,,,,,,,,,,0,36,36,36,,,,,,,,,,,,,,,,,,,,,,,,,,,,,,,,,,,,,,,,,,,,,,,,,,,,,,,,,,,,,,,,,,,,,,,,,,,,,1.0447530845801036,1.0626529000001028,431.86749540000164,None,ScrollDown,정답입니다,431.86749540000164,None,431.86749540000164,None,431.86749540000164,None,431.86749540000164,None,432.8279079000058,None,432.8279079000058,433.3279416000005,,,,,,,,,,,,,,,,107,2023-03-30_15h20.25.088,FishGame,2022.1.1,60.057390840966896,
,38,나를 데려가줘,6,Green,B,0,0,ScrollDown,ScrollUp,Green.png,3,NonTarget,NonTarget,0,0,0,0,,,,,,,,,,,,,,,,,,,,,0,37,37,37,,,,,,,,,,,,,,,,,,,,,,,,,,,,,,,,,,,,,,,,,,,,,,,,,,,,,,,,,,,,,,,,,,,,,,,,,,,,,1.0447530845801036,1.1476305999967735,433.946277199997,None,ScrollDown,정답입니다,433.946277199997,None,433.946277199997,None,433.946277199997,None,433.946277199997,None,434.9945834999962,None,434.9945834999962,435.4946278999996,,,,,,,,,,,,,,,,107,2023-03-30_15h20.25.088,FishGame,2022.1.1,60.057390840966896,
,39,넌 현명해,2,Orange,A,6.541666666666666,4.533333333333333,ScrollDown,ScrollUp,Orange.png,3,Positive,Congruent,0,0,0,0,,,,,,,,,,,,,,,,,,,,,0,38,38,38,,,,,,,,,,,,,,,,,,,,,,,,,,,,,,,,,,,,,,,,,,,,,,,,,,,,,,,,,,,,,,,,,,,,,,,,,,,,,1.0663580298423767,1.0812371000065468,436.11343090000446,None,ScrollDown,정답입니다,436.11343090000446,None,436.11343090000446,None,436.11343090000446,None,436.11343090000446,None,437.0944670000026,None,437.0944670000026,437.5948677999986,,,,,,,,,,,,,,,,107,2023-03-30_15h20.25.088,FishGame,2022.1.1,60.057390840966896,
,40,넌 수줍어,3,Green,B,3.541666666666666,4.366666666666666,ScrollUp,ScrollDown,Green.png,3,Neutral,Neutral,0,0,0,0,,,,,,,,,,,,,,,,,,,,,0,39,39,39,,,,,,,,,,,,,,,,,,,,,,,,,,,,,,,,,,,,,,,,,,,,,,,,,,,,,,,,,,,,,,,,,,,,,,,,,,,,,1.9336419701576233,1.0813183999998728,438.2139740999992,None,ScrollUp,정답입니다,438.2139740999992,None,438.2139740999992,None,438.2139740999992,None,438.2139740999992,None,439.19451060000574,None,439.19451060000574,439.69456889999856,,,,,,,,,,,,,,,,107,2023-03-30_15h20.25.088,FishGame,2022.1.1,60.057390840966896,
,41,나를 데려가줘,6,Green,B,0,0,ScrollDown,ScrollUp,Green.png,3,NonTarget,NonTarget,0,0,0,0,,,,,,,,,,,,,,,,,,,,,0,40,40,40,,,,,,,,,,,,,,,,,,,,,,,,,,,,,,,,,,,,,,,,,,,,,,,,,,,,,,,,,,,,,,,,,,,,,,,,,,,,,1.0262345671653748,1.0500061999919126,440.3124899999966,None,ScrollDown,정답입니다,440.3124899999966,None,440.3124899999966,None,440.3124899999966,None,440.3124899999966,None,441.2612162000005,None,441.2612162000005,441.7610512999963,,,,,,,,,,,,,,,,107,2023-03-30_15h20.25.088,FishGame,2022.1.1,60.057390840966896,
,42,넌 성숙해,2,Green,B,5.833333333333333,4.533333333333333,ScrollUp,ScrollDown,Green.png,3,Positive,Incongruent,0,0,0,0,,,,,,,,,,,,,,,,,,,,,0,41,41,41,,,,,,,,,,,,,,,,,,,,,,,,,,,,,,,,,,,,,,,,,,,,,,,,,,,,,,,,,,,,,,,,,,,,,,,,,,,,,1.839506169160207,0.9809771000000183,442.38266309999744,None,ScrollUp,정답입니다,442.38266309999744,None,442.38266309999744,None,442.38266309999744,None,442.38266309999744,None,443.25900320000073,None,443.25900320000073,443.7615087000013,,,,,,,,,,,,,,,,107,2023-03-30_15h20.25.088,FishGame,2022.1.1,60.057390840966896,
,1,넌 매력적이야,2,Green,B,6.125,4.666666666666667,ScrollUp,ScrollDown,Green.png,4,Positive,Incongruent,0,0,0,0,,,,,,,,,,,,,,,,,,,,,,,,,0,0,0,0,,,,,,,,,,,,,,,,,,,,,,,,,,,,,,,,475.243664499998,476.7438545000041,476.7771834000014,477.7301418999996,477.7636521000095,478.72717369999737,478.72717369999737,None,,,,,,,,,,,,,,,,,,,,,,,,,,,,,,,,,,1.884259248773257,1.2360403999919072,479.8284454000095,None,ScrollUp,정답입니다,479.8284454000095,None,479.8284454000095,None,479.8284454000095,None,479.8284454000095,None,480.9579231000098,None,480.9579231000098,481.4589125000057,444.26113749999786,None,444.26113749999786,None,-0.026851851,-0.11018518,1,0,0,0.01627660999656655,None,474.2608098000055,None,,,107,2023-03-30_15h20.25.088,FishGame,2022.1.1,60.057390840966896,
,2,나를 보내줘,6,Orange,A,0,0,ScrollUp,ScrollDown,Orange.png,4,NonTarget,NonTarget,0,0,0,0,,,,,,,,,,,,,,,,,,,,,,,,,0,1,1,1,,,,,,,,,,,,,,,,,,,,,,,,,,,,,,,,,,,,,,,,,,,,,,,,,,,,,,,,,,,,,,,,,,,,,,,,,1.8549382835626602,1.1172624000028009,482.0773876000021,None,ScrollUp,정답입니다,482.0773876000021,None,482.0773876000021,None,482.0773876000021,None,482.0773876000021,None,483.09367630000634,None,483.09367630000634,483.59364880000066,,,,,,,,,,,,,,,,107,2023-03-30_15h20.25.088,FishGame,2022.1.1,60.057390840966896,
,3,넌 조심스러워,3,Orange,A,4.791666666666666,4.666666666666667,ScrollDown,ScrollUp,Orange.png,4,Neutral,Neutral,0,0,0,0,,,,,,,,,,,,,,,,,,,,,,,,,0,2,2,2,,,,,,,,,,,,,,,,,,,,,,,,,,,,,,,,,,,,,,,,,,,,,,,,,,,,,,,,,,,,,,,,,,,,,,,,,1,1.098210399999516,484.21305869999924,None,ScrollDown,정답입니다,484.21305869999924,None,484.21305869999924,None,484.21305869999924,None,484.21305869999924,None,485.2102401000011,None,485.2102401000011,485.71013890000177,,,,,,,,,,,,,,,,107,2023-03-30_15h20.25.088,FishGame,2022.1.1,60.057390840966896,
,4,넌 철학적이야,3,Green,B,4.5,4.266666666666667,ScrollUp,ScrollDown,Green.png,4,Neutral,Neutral,0,0,0,0,,,,,,,,,,,,,,,,,,,,,,,,,0,3,3,3,,,,,,,,,,,,,,,,,,,,,,,,,,,,,,,,,,,,,,,,,,,,,,,,,,,,,,,,,,,,,,,,,,,,,,,,,1.858024686574936,1.0478363000001991,486.3295969000028,None,ScrollUp,정답입니다,486.3295969000028,None,486.3295969000028,None,486.3295969000028,None,486.3295969000028,None,487.27445779999834,None,487.27445779999834,487.7747837000061,,,,,,,,,,,,,,,,107,2023-03-30_15h20.25.088,FishGame,2022.1.1,60.057390840966896,
,5,넌 쩨쩨해,5,Orange,A,2.375,2.133333333333333,ScrollDown,ScrollUp,Orange.png,4,Negative,Incongruent,0,0,0,0,,,,,,,,,,,,,,,,,,,,,,,,,0,4,4,4,,,,,,,,,,,,,,,,,,,,,,,,,,,,,,,,,,,,,,,,,,,,,,,,,,,,,,,,,,,,,,,,,,,,,,,,,1,1.0998315000033472,488.39405820000684,None,ScrollDown,정답입니다,488.39405820000684,None,488.39405820000684,None,488.39405820000684,None,488.39405820000684,None,489.39354810000805,None,489.39354810000805,489.8935038000054,,,,,,,,,,,,,,,,107,2023-03-30_15h20.25.088,FishGame,2022.1.1,60.057390840966896,
,6,나를 데려가줘,6,Green,B,0,0,ScrollDown,ScrollUp,Green.png,4,NonTarget,NonTarget,0,0,0,0,,,,,,,,,,,,,,,,,,,,,,,,,0,5,5,5,,,,,,,,,,,,,,,,,,,,,,,,,,,,,,,,,,,,,,,,,,,,,,,,,,,,,,,,,,,,,,,,,,,,,,,,,1,1.2118612000049325,490.5115614999959,None,ScrollDown,정답입니다,490.5115614999959,None,490.5115614999959,None,490.5115614999959,None,490.5115614999959,None,491.62671320000663,None,491.62671320000663,492.1266534000024,,,,,,,,,,,,,,,,107,2023-03-30_15h20.25.088,FishGame,2022.1.1,60.057390840966896,
,7,넌 고집불통이야,5,Green,B,2.875,2,ScrollUp,ScrollDown,Green.png,4,Negative,Congruent,0,0,0,0,,,,,,,,,,,,,,,,,,,,,,,,,0,6,6,6,,,,,,,,,,,,,,,,,,,,,,,,,,,,,,,,,,,,,,,,,,,,,,,,,,,,,,,,,,,,,,,,,,,,,,,,,1.8364197413126628,0.9333956000045873,492.7478082000016,None,ScrollUp,정답입니다,492.7478082000016,None,492.7478082000016,None,492.7478082000016,None,492.7478082000016,None,493.5766874999972,None,493.5766874999972,494.0766868000064,,,,,,,,,,,,,,,,107,2023-03-30_15h20.25.088,FishGame,2022.1.1,60.057390840966896,
,8,넌 무심해,4,Orange,A,2.875,3.2,ScrollDown,ScrollUp,Orange.png,4,Negative,Incongruent,0,0,0,0,,,,,,,,,,,,,,,,,,,,,,,,,0,7,7,7,,,,,,,,,,,,,,,,,,,,,,,,,,,,,,,,,,,,,,,,,,,,,,,,,,,,,,,,,,,,,,,,,,,,,,,,,1,1.046226900012698,494.694719799998,None,ScrollDown,정답입니다,494.694719799998,None,494.694719799998,None,494.694719799998,None,494.694719799998,None,495.6432330000098,None,495.6432330000098,496.14321370000835,,,,,,,,,,,,,,,,107,2023-03-30_15h20.25.088,FishGame,2022.1.1,60.057390840966896,
,9,넌 정겨워,1,Orange,A,5.791666666666667,5.666666666666667,ScrollDown,ScrollUp,Orange.png,4,Positive,Congruent,0,0,0,0,,,,,,,,,,,,,,,,,,,,,,,,,0,8,8,8,,,,,,,,,,,,,,,,,,,,,,,,,,,,,,,,,,,,,,,,,,,,,,,,,,,,,,,,,,,,,,,,,,,,,,,,,1.0077160497506459,1.0813881999929436,496.76574410000467,None,ScrollDown,정답입니다,496.76574410000467,None,496.76574410000467,None,496.76574410000467,None,496.76574410000467,None,497.74120630000834,None,497.74120630000834,498.24323160000495,,,,,,,,,,,,,,,,107,2023-03-30_15h20.25.088,FishGame,2022.1.1,60.057390840966896,
,10,나를 데려가줘,6,Green,B,0,0,ScrollDown,ScrollUp,Green.png,4,NonTarget,NonTarget,0,0,0,0,,,,,,,,,,,,,,,,,,,,,,,,,0,9,9,9,,,,,,,,,,,,,,,,,,,,,,,,,,,,,,,,,,,,,,,,,,,,,,,,,,,,,,,,,,,,,,,,,,,,,,,,,1,1.0798658999992767,498.8671314999956,None,ScrollDown,정답입니다,498.8671314999956,None,498.8671314999956,None,498.8671314999956,None,498.8671314999956,None,499.84086170000955,None,499.84086170000955,500.3408393999998,,,,,,,,,,,,,,,,107,2023-03-30_15h20.25.088,FishGame,2022.1.1,60.057390840966896,
,11,넌 체제순응적이야,4,Green,B,3,3.6,ScrollUp,ScrollDown,Green.png,4,Negative,Congruent,0,0,0,0,,,,,,,,,,,,,,,,,,,,,,,,,0,10,10,10,,,,,,,,,,,,,,,,,,,,,,,,,,,,,,,,,,,,,,,,,,,,,,,,,,,,,,,,,,,,,,,,,,,,,,,,,1.8657407313585281,0.9515901999984635,500.9646616999962,None,ScrollUp,정답입니다,500.9646616999962,None,500.9646616999962,None,500.9646616999962,None,500.9646616999962,None,501.8099837000045,None,501.8099837000045,502.309920300002,,,,,,,,,,,,,,,,107,2023-03-30_15h20.25.088,FishGame,2022.1.1,60.057390840966896,
,12,나를 보내줘,6,Orange,A,0,0,ScrollUp,ScrollDown,Orange.png,4,NonTarget,NonTarget,0,0,0,0,,,,,,,,,,,,,,,,,,,,,,,,,0,11,11,11,,,,,,,,,,,,,,,,,,,,,,,,,,,,,,,,,,,,,,,,,,,,,,,,,,,,,,,,,,,,,,,,,,,,,,,,,1.8425925970077515,0.9783805999904871,502.9285891000036,None,ScrollUp,정답입니다,502.9285891000036,None,502.9285891000036,None,502.9285891000036,None,502.9285891000036,None,503.8030121000047,None,503.8030121000047,504.3082420999999,,,,,,,,,,,,,,,,107,2023-03-30_15h20.25.088,FishGame,2022.1.1,60.057390840966896,
,13,넌 박식해,2,Orange,A,5.625,3.933333333333333,ScrollDown,ScrollUp,Orange.png,4,Positive,Congruent,0,0,0,0,,,,,,,,,,,,,,,,,,,,,,,,,0,12,12,12,,,,,,,,,,,,,,,,,,,,,,,,,,,,,,,,,,,,,,,,,,,,,,,,,,,,,,,,,,,,,,,,,,,,,,,,,1,0.949371999988216,504.93813670000236,None,ScrollDown,정답입니다,504.93813670000236,None,504.93813670000236,None,504.93813670000236,None,504.93813670000236,None,505.7741368999996,None,505.7741368999996,506.2764387000061,,,,,,,,,,,,,,,,107,2023-03-30_15h20.25.088,FishGame,2022.1.1,60.057390840966896,
,14,나를 보내줘,6,Orange,A,0,0,ScrollUp,ScrollDown,Orange.png,4,NonTarget,NonTarget,0,0,0,0,,,,,,,,,,,,,,,,,,,,,,,,,0,13,13,13,,,,,,,,,,,,,,,,,,,,,,,,,,,,,,,,,,,,,,,,,,,,,,,,,,,,,,,,,,,,,,,,,,,,,,,,,1.7731481442848842,0.9815593000093941,506.89643259999866,None,ScrollUp,정답입니다,506.89643259999866,None,506.89643259999866,None,506.89643259999866,None,506.89643259999866,None,507.7765111000044,None,507.7765111000044,508.27648329999647,,,,,,,,,,,,,,,,107,2023-03-30_15h20.25.088,FishGame,2022.1.1,60.057390840966896,
,15,넌 침착해,1,Green,B,5.458333333333333,5.566666666666666,ScrollUp,ScrollDown,Green.png,4,Positive,Incongruent,0,0,0,0,,,,,,,,,,,,,,,,,,,,,,,,,0,14,14,14,,,,,,,,,,,,,,,,,,,,,,,,,,,,,,,,,,,,,,,,,,,,,,,,,,,,,,,,,,,,,,,,,,,,,,,,,1.9182098805904388,1.0798070000018924,508.8987131000031,None,ScrollUp,정답입니다,508.8987131000031,None,508.8987131000031,None,508.8987131000031,None,508.8987131000031,None,509.87683619999734,None,509.87683619999734,510.3767879000079,,,,,,,,,,,,,,,,107,2023-03-30_15h20.25.088,FishGame,2022.1.1,60.057390840966896,
,16,나를 데려가줘,6,Green,B,0,0,ScrollDown,ScrollUp,Green.png,4,NonTarget,NonTarget,0,0,0,0,,,,,,,,,,,,,,,,,,,,,,,,,0,15,15,15,,,,,,,,,,,,,,,,,,,,,,,,,,,,,,,,,,,,,,,,,,,,,,,,,,,,,,,,,,,,,,,,,,,,,,,,,1,0.9618206000013743,510.99435249999806,None,ScrollDown,정답입니다,510.99435249999806,None,510.99435249999806,None,510.99435249999806,None,510.99435249999806,None,511.8595629000047,None,511.8595629000047,512.3595243000018,,,,,,,,,,,,,,,,107,2023-03-30_15h20.25.088,FishGame,2022.1.1,60.057390840966896,
,17,넌 행복해,1,Orange,A,6.416666666666666,6.166666666666667,ScrollDown,ScrollUp,Orange.png,4,Positive,Congruent,0,0,0,0,,,,,,,,,,,,,,,,,,,,,,,,,0,16,16,16,,,,,,,,,,,,,,,,,,,,,,,,,,,,,,,,,,,,,,,,,,,,,,,,,,,,,,,,,,,,,,,,,,,,,,,,,1.0725308855374653,0.9457132999959867,512.986447800009,None,ScrollDown,정답입니다,512.986447800009,None,512.986447800009,None,512.986447800009,None,512.986447800009,None,513.8263292000047,None,513.8263292000047,514.3292892000027,,,,,,,,,,,,,,,,107,2023-03-30_15h20.25.088,FishGame,2022.1.1,60.057390840966896,
,18,넌 겸손해,2,Green,B,5.791666666666667,4.766666666666667,ScrollUp,ScrollDown,Green.png,4,Positive,Incongruent,0,0,0,0,,,,,,,,,,,,,,,,,,,,,,,,,0,17,17,17,,,,,,,,,,,,,,,,,,,,,,,,,,,,,,,,,,,,,,,,,,,,,,,,,,,,,,,,,,,,,,,,,,,,,,,,,1.9166666666666667,1.0961941999994451,514.946236600008,None,ScrollUp,정답입니다,514.946236600008,None,514.946236600008,None,514.946236600008,None,514.946236600008,None,515.9427624000091,None,515.9427624000091,516.4428171000036,,,,,,,,,,,,,,,,107,2023-03-30_15h20.25.088,FishGame,2022.1.1,60.057390840966896,
,19,나를 보내줘,6,Orange,A,0,0,ScrollUp,ScrollDown,Orange.png,4,NonTarget,NonTarget,0,0,0,0,,,,,,,,,,,,,,,,,,,,,,,,,0,18,18,18,,,,,,,,,,,,,,,,,,,,,,,,,,,,,,,,,,,,,,,,,,,,,,,,,,,,,,,,,,,,,,,,,,,,,,,,,1.9012345770994823,1.1148027000017464,517.0661096999975,None,ScrollUp,정답입니다,517.0661096999975,None,517.0661096999975,None,517.0661096999975,None,517.0661096999975,None,518.0761932000023,None,518.0761932000023,518.5767058000056,,,,,,,,,,,,,,,,107,2023-03-30_15h20.25.088,FishGame,2022.1.1,60.057390840966896,
,20,넌 의심없어,3,Orange,A,4.166666666666667,4.6,ScrollDown,ScrollUp,Orange.png,4,Neutral,Neutral,0,0,0,0,,,,,,,,,,,,,,,,,,,,,,,,,0,19,19,19,,,,,,,,,,,,,,,,,,,,,,,,,,,,,,,,,,,,,,,,,,,,,,,,,,,,,,,,,,,,,,,,,,,,,,,,,1.0108024775981903,0.995203099999344,519.2008617999963,None,ScrollDown,정답입니다,519.2008617999963,None,519.2008617999963,None,519.2008617999963,None,519.2008617999963,None,520.0904289000027,None,520.0904289000027,520.5904058000015,,,,,,,,,,,,,,,,107,2023-03-30_15h20.25.088,FishGame,2022.1.1,60.057390840966896,
,21,넌 시시해,4,Orange,A,2.666666666666667,2.966666666666667,ScrollDown,ScrollUp,Orange.png,4,Negative,Incongruent,0,0,0,0,,,,,,,,,,,,,,,,,,,,,,,,,0,20,20,20,,,,,,,,,,,,,,,,,,,,,,,,,,,,,,,,,,,,,,,,,,,,,,,,,,,,,,,,,,,,,,,,,,,,,,,,,1.0632716019948323,1.0157060000055935,521.209663200003,None,ScrollDown,정답입니다,521.209663200003,None,521.209663200003,None,521.209663200003,None,521.209663200003,None,522.1237536999979,None,522.1237536999979,522.6261531000055,,,,,,,,,,,,,,,,107,2023-03-30_15h20.25.088,FishGame,2022.1.1,60.057390840966896,
,22,나를 데려가줘,6,Green,B,0,0,ScrollDown,ScrollUp,Green.png,4,NonTarget,NonTarget,0,0,0,0,,,,,,,,,,,,,,,,,,,,,,,,,0,21,21,21,,,,,,,,,,,,,,,,,,,,,,,,,,,,,,,,,,,,,,,,,,,,,,,,,,,,,,,,,,,,,,,,,,,,,,,,,1,1.064258800004609,523.2486352999986,None,ScrollDown,정답입니다,523.2486352999986,None,523.2486352999986,None,523.2486352999986,None,523.2486352999986,None,524.2125524000003,None,524.2125524000003,524.7259903000086,,,,,,,,,,,,,,,,107,2023-03-30_15h20.25.088,FishGame,2022.1.1,60.057390840966896,
,23,넌 무정해,5,Orange,A,2.5,2.2,ScrollDown,ScrollUp,Orange.png,4,Negative,Incongruent,0,0,0,0,,,,,,,,,,,,,,,,,,,,,,,,,0,22,22,22,,,,,,,,,,,,,,,,,,,,,,,,,,,,,,,,,,,,,,,,,,,,,,,,,,,,,,,,,,,,,,,,,,,,,,,,,1,1.2150161000026856,525.3451687000052,None,ScrollDown,정답입니다,525.3451687000052,None,525.3451687000052,None,525.3451687000052,None,525.3451687000052,None,526.4593120000063,None,526.4593120000063,526.9598511000077,,,,,,,,,,,,,,,,107,2023-03-30_15h20.25.088,FishGame,2022.1.1,60.057390840966896,
,24,넌 긍정적이야,1,Green,B,6.041666666666667,6.066666666666666,ScrollUp,ScrollDown,Green.png,4,Positive,Incongruent,0,0,0,0,,,,,,,,,,,,,,,,,,,,,,,,,0,23,23,23,,,,,,,,,,,,,,,,,,,,,,,,,,,,,,,,,,,,,,,,,,,,,,,,,,,,,,,,,,,,,,,,,,,,,,,,,1.7345678955316544,0.929762200001278,527.5794437000004,None,ScrollUp,정답입니다,527.5794437000004,None,527.5794437000004,None,527.5794437000004,None,527.5794437000004,None,528.4092074000073,None,528.4092074000073,528.9091427000094,,,,,,,,,,,,,,,,107,2023-03-30_15h20.25.088,FishGame,2022.1.1,60.057390840966896,
,25,나를 보내줘,6,Orange,A,0,0,ScrollUp,ScrollDown,Orange.png,4,NonTarget,NonTarget,0,0,0,0,,,,,,,,,,,,,,,,,,,,,,,,,0,24,24,24,,,,,,,,,,,,,,,,,,,,,,,,,,,,,,,,,,,,,,,,,,,,,,,,,,,,,,,,,,,,,,,,,,,,,,,,,1.8564814726511638,1.031876100008958,529.5277712000097,None,ScrollUp,정답입니다,529.5277712000097,None,529.5277712000097,None,529.5277712000097,None,529.5277712000097,None,530.459188000008,None,530.459188000008,530.9591634000099,,,,,,,,,,,,,,,,107,2023-03-30_15h20.25.088,FishGame,2022.1.1,60.057390840966896,
,26,넌 시기심이 많아,5,Green,B,2.458333333333333,2.233333333333333,ScrollUp,ScrollDown,Green.png,4,Negative,Congruent,0,0,0,0,,,,,,,,,,,,,,,,,,,,,,,,,0,25,25,25,,,,,,,,,,,,,,,,,,,,,,,,,,,,,,,,,,,,,,,,,,,,,,,,,,,,,,,,,,,,,,,,,,,,,,,,,1.6697530845801034,0.9988866000057897,531.5793922000012,None,ScrollUp,정답입니다,531.5793922000012,None,531.5793922000012,None,531.5793922000012,None,531.5793922000012,None,532.4737488999963,None,532.4737488999963,532.9757191000099,,,,,,,,,,,,,,,,107,2023-03-30_15h20.25.088,FishGame,2022.1.1,60.057390840966896,
,27,넌 탁월해,2,Orange,A,5.708333333333334,4.5,ScrollDown,ScrollUp,Orange.png,4,Positive,Congruent,0,0,0,0,,,,,,,,,,,,,,,,,,,,,,,,,0,26,26,26,,,,,,,,,,,,,,,,,,,,,,,,,,,,,,,,,,,,,,,,,,,,,,,,,,,,,,,,,,,,,,,,,,,,,,,,,1,0.9163152000110131,533.596082300006,None,ScrollDown,정답입니다,533.596082300006,None,533.596082300006,None,533.596082300006,None,533.596082300006,None,534.4090817999968,None,534.4090817999968,534.9090739999956,,,,,,,,,,,,,,,,107,2023-03-30_15h20.25.088,FishGame,2022.1.1,60.057390840966896,
,28,나를 데려가줘,6,Green,B,0,0,ScrollDown,ScrollUp,Green.png,4,NonTarget,NonTarget,0,0,0,0,,,,,,,,,,,,,,,,,,,,,,,,,0,27,27,27,,,,,,,,,,,,,,,,,,,,,,,,,,,,,,,,,,,,,,,,,,,,,,,,,,,,,,,,,,,,,,,,,,,,,,,,,1.1975308656692505,0.9803838999941945,535.5292209000036,None,ScrollDown,정답입니다,535.5292209000036,None,535.5292209000036,None,535.5292209000036,None,535.5292209000036,None,536.4090884000034,None,536.4090884000034,536.9069440000021,,,,,,,,,,,,,,,,107,2023-03-30_15h20.25.088,FishGame,2022.1.1,60.057390840966896,
,29,넌 조용해,3,Green,B,4.333333333333333,4.166666666666667,ScrollUp,ScrollDown,Green.png,4,Neutral,Neutral,0,0,0,0,,,,,,,,,,,,,,,,,,,,,,,,,0,28,28,28,,,,,,,,,,,,,,,,,,,,,,,,,,,,,,,,,,,,,,,,,,,,,,,,,,,,,,,,,,,,,,,,,,,,,,,,,1.8703703731298447,1.0813342000037665,537.5279769000044,None,ScrollUp,정답입니다,537.5279769000044,None,537.5279769000044,None,537.5279769000044,None,537.5279769000044,None,538.5069348999968,None,538.5069348999968,539.0094286000094,,,,,,,,,,,,,,,,107,2023-03-30_15h20.25.088,FishGame,2022.1.1,60.057390840966896,
,30,넌 다정해,1,Orange,A,5.833333333333334,5.7,ScrollDown,ScrollUp,Orange.png,4,Positive,Congruent,0,0,0,0,,,,,,,,,,,,,,,,,,,,,,,,,0,29,29,29,,,,,,,,,,,,,,,,,,,,,,,,,,,,,,,,,,,,,,,,,,,,,,,,,,,,,,,,,,,,,,,,,,,,,,,,,1.0740740497907002,0.9983361999911722,539.6365824999957,None,ScrollDown,정답입니다,539.6365824999957,None,539.6365824999957,None,539.6365824999957,None,539.6365824999957,None,540.5257145000069,None,540.5257145000069,541.0257057999988,,,,,,,,,,,,,,,,107,2023-03-30_15h20.25.088,FishGame,2022.1.1,60.057390840966896,
,31,넌 능력있어,2,Green,B,6.166666666666666,4.6,ScrollUp,ScrollDown,Green.png,4,Positive,Incongruent,0,0,0,0,,,,,,,,,,,,,,,,,,,,,,,,,0,30,30,30,,,,,,,,,,,,,,,,,,,,,,,,,,,,,,,,,,,,,,,,,,,,,,,,,,,,,,,,,,,,,,,,,,,,,,,,,1.7500000099341075,0.9481816000043182,541.6451940999978,None,ScrollUp,정답입니다,541.6451940999978,None,541.6451940999978,None,541.6451940999978,None,541.6451940999978,None,542.4923405000009,None,542.4923405000009,542.9922595000098,,,,,,,,,,,,,,,,107,2023-03-30_15h20.25.088,FishGame,2022.1.1,60.057390840966896,
,32,넌 불쾌해,5,Orange,A,2.125,1.933333333333333,ScrollDown,ScrollUp,Orange.png,4,Negative,Incongruent,0,0,0,0,,,,,,,,,,,,,,,,,,,,,,,,,0,31,31,31,,,,,,,,,,,,,,,,,,,,,,,,,,,,,,,,,,,,,,,,,,,,,,,,,,,,,,,,,,,,,,,,,,,,,,,,,1.0509259402751923,1.029015599997365,543.6113998000073,None,ScrollDown,정답입니다,543.6113998000073,None,543.6113998000073,None,543.6113998000073,None,543.6113998000073,None,544.5398809000035,None,544.5398809000035,545.0398627999966,,,,,,,,,,,,,,,,107,2023-03-30_15h20.25.088,FishGame,2022.1.1,60.057390840966896,
,33,나를 데려가줘,6,Green,B,0,0,ScrollDown,ScrollUp,Green.png,4,NonTarget,NonTarget,0,0,0,0,,,,,,,,,,,,,,,,,,,,,,,,,0,32,32,32,,,,,,,,,,,,,,,,,,,,,,,,,,,,,,,,,,,,,,,,,,,,,,,,,,,,,,,,,,,,,,,,,,,,,,,,,1,1.1024424000061117,545.6546211999957,None,ScrollDown,정답입니다,545.6546211999957,None,545.6546211999957,None,545.6546211999957,None,545.6546211999957,None,546.6589681000041,None,546.6589681000041,547.1596330000029,,,,,,,,,,,,,,,,107,2023-03-30_15h20.25.088,FishGame,2022.1.1,60.057390840966896,
,34,넌 유순해,3,Orange,A,4.458333333333333,5,ScrollDown,ScrollUp,Orange.png,4,Neutral,Neutral,0,0,0,0,,,,,,,,,,,,,,,,,,,,,,,,,0,33,33,33,,,,,,,,,,,,,,,,,,,,,,,,,,,,,,,,,,,,,,,,,,,,,,,,,,,,,,,,,,,,,,,,,,,,,,,,,1,1.0319614000036381,547.7773442000034,None,ScrollDown,정답입니다,547.7773442000034,None,547.7773442000034,None,547.7773442000034,None,547.7773442000034,None,548.7089628999965,None,548.7089628999965,549.2087356999982,,,,,,,,,,,,,,,,107,2023-03-30_15h20.25.088,FishGame,2022.1.1,60.057390840966896,
,35,넌 근심스러워,4,Green,B,2.708333333333333,3.133333333333333,ScrollUp,ScrollDown,Green.png,4,Negative,Congruent,0,0,0,0,,,,,,,,,,,,,,,,,,,,,,,,,0,34,34,34,,,,,,,,,,,,,,,,,,,,,,,,,,,,,,,,,,,,,,,,,,,,,,,,,,,,,,,,,,,,,,,,,,,,,,,,,1.873456800977389,1.0310895000002347,549.8277617999993,None,ScrollUp,정답입니다,549.8277617999993,None,549.8277617999993,None,549.8277617999993,None,549.8277617999993,None,550.7587300000014,None,550.7587300000014,551.2593043000088,,,,,,,,,,,,,,,,107,2023-03-30_15h20.25.088,FishGame,2022.1.1,60.057390840966896,
,36,넌 세련되었어,2,Orange,A,5.5,4.6,ScrollDown,ScrollUp,Orange.png,4,Positive,Congruent,0,0,0,0,,,,,,,,,,,,,,,,,,,,,,,,,0,35,35,35,,,,,,,,,,,,,,,,,,,,,,,,,,,,,,,,,,,,,,,,,,,,,,,,,,,,,,,,,,,,,,,,,,,,,,,,,1.115740751226743,0.999891800005571,551.8911078000092,None,ScrollDown,정답입니다,551.8911078000092,None,551.8911078000092,None,551.8911078000092,None,551.8911078000092,None,552.7753595999966,None,552.7753595999966,553.2753394000028,,,,,,,,,,,,,,,,107,2023-03-30_15h20.25.088,FishGame,2022.1.1,60.057390840966896,
,37,나를 보내줘,6,Orange,A,0,0,ScrollUp,ScrollDown,Orange.png,4,NonTarget,NonTarget,0,0,0,0,,,,,,,,,,,,,,,,,,,,,,,,,0,36,36,36,,,,,,,,,,,,,,,,,,,,,,,,,,,,,,,,,,,,,,,,,,,,,,,,,,,,,,,,,,,,,,,,,,,,,,,,,1.858024686574936,0.9649176999955671,553.8988892000052,None,ScrollUp,정답입니다,553.8988892000052,None,553.8988892000052,None,553.8988892000052,None,553.8988892000052,None,554.7587092000031,None,554.7587092000031,555.2586421000015,,,,,,,,,,,,,,,,107,2023-03-30_15h20.25.088,FishGame,2022.1.1,60.057390840966896,
,38,넌 확고해,3,Green,B,4.708333333333334,4.566666666666666,ScrollUp,ScrollDown,Green.png,4,Neutral,Neutral,0,0,0,0,,,,,,,,,,,,,,,,,,,,,,,,,0,37,37,37,,,,,,,,,,,,,,,,,,,,,,,,,,,,,,,,,,,,,,,,,,,,,,,,,,,,,,,,,,,,,,,,,,,,,,,,,1.8009259204069774,1.0315855000080774,555.8780551000091,None,ScrollUp,정답입니다,555.8780551000091,None,555.8780551000091,None,555.8780551000091,None,555.8780551000091,None,556.8086802000034,None,556.8086802000034,557.3085234000027,,,,,,,,,,,,,,,,107,2023-03-30_15h20.25.088,FishGame,2022.1.1,60.057390840966896,
,39,넌 이해심이 많아,1,Green,B,6.041666666666668,5.533333333333333,ScrollUp,ScrollDown,Green.png,4,Positive,Incongruent,0,0,0,0,,,,,,,,,,,,,,,,,,,,,,,,,0,38,38,38,,,,,,,,,,,,,,,,,,,,,,,,,,,,,,,,,,,,,,,,,,,,,,,,,,,,,,,,,,,,,,,,,,,,,,,,,1.8626543283462524,0.9501178000064101,557.926014800003,None,ScrollUp,정답입니다,557.926014800003,None,557.926014800003,None,557.926014800003,None,557.926014800003,None,558.773165000006,None,558.773165000006,559.2752067999972,,,,,,,,,,,,,,,,107,2023-03-30_15h20.25.088,FishGame,2022.1.1,60.057390840966896,
,40,나를 보내줘,6,Orange,A,0,0,ScrollUp,ScrollDown,Orange.png,4,NonTarget,NonTarget,0,0,0,0,,,,,,,,,,,,,,,,,,,,,,,,,0,39,39,39,,,,,,,,,,,,,,,,,,,,,,,,,,,,,,,,,,,,,,,,,,,,,,,,,,,,,,,,,,,,,,,,,,,,,,,,,1.8858024626970291,0.9329144000075758,559.8988644000056,None,ScrollUp,정답입니다,559.8988644000056,None,559.8988644000056,None,559.8988644000056,None,559.8988644000056,None,560.7231766000041,None,560.7231766000041,561.2257459999964,,,,,,,,,,,,,,,,107,2023-03-30_15h20.25.088,FishGame,2022.1.1,60.057390840966896,
,41,넌 거칠어,4,Orange,A,2.625,3.033333333333333,ScrollDown,ScrollUp,Orange.png,4,Negative,Incongruent,0,0,0,0,,,,,,,,,,,,,,,,,,,,,,,,,0,40,40,40,,,,,,,,,,,,,,,,,,,,,,,,,,,,,,,,,,,,,,,,,,,,,,,,,,,,,,,,,,,,,,,,,,,,,,,,,1,1.0602040999947349,561.8539543000079,None,ScrollDown,정답입니다,561.8539543000079,None,561.8539543000079,None,561.8539543000079,None,561.8539543000079,None,562.806147299998,None,562.806147299998,563.306882799996,,,,,,,,,,,,,,,,107,2023-03-30_15h20.25.088,FishGame,2022.1.1,60.057390840966896,
,42,넌 변덕맞아,5,Green,B,2.75,2.166666666666667,ScrollUp,ScrollDown,Green.png,4,Negative,Congruent,0,0,0,0,,,,,,,,,,,,,,,,,,,,,,,,,0,41,41,41,,,,,,,,,,,,,,,,,,,,,,,,,,,,,,,,,,,,,,,,,,,,,,,,,,,,,,,,,,,,,,,,,,,,,,,,,1.819444437821706,0.965009600011399,563.9307048000046,None,ScrollUp,정답입니다,563.9307048000046,None,563.9307048000046,None,563.9307048000046,None,563.9307048000046,None,564.7918939000083,None,564.7918939000083,565.2918540999963,,,,,,,,,,,,,,,,107,2023-03-30_15h20.25.088,FishGame,2022.1.1,60.057390840966896,
,43,나를 데려가줘,6,Green,B,0,0,ScrollDown,ScrollUp,Green.png,4,NonTarget,NonTarget,0,0,0,0,,,,,,,,,,,,,,,,,,,,,,,,,0,42,42,42,,,,,,,,,,,,,,,,,,,,,,,,,,,,,,,,,,,,,,,,,,,,,,,,,,,,,,,,,,,,,,,,,,,,,,,,,1,1.0981570000003558,565.9097148000001,None,ScrollDown,정답입니다,565.9097148000001,None,565.9097148000001,None,565.9097148000001,None,565.9097148000001,None,566.9085207000026,None,566.9085207000026,567.4083210999961,,,,,,,,,,,,,,,,107,2023-03-30_15h20.25.088,FishGame,2022.1.1,60.057390840966896,
,44,넌 외로워,4,Green,B,2.833333333333333,3.3,ScrollUp,ScrollDown,Green.png,4,Negative,Congruent,0,0,0,0,,,,,,,,,,,,,,,,,,,,,,,,,0,43,43,43,,,,,,,,,,,,,,,,,,,,,,,,,,,,,,,,,,,,,,,,,,,,,,,,,,,,,,,,,,,,,,,,,,,,,,,,,1.8719135870536168,0.9984285000100499,568.0270507000096,None,ScrollUp,정답입니다,568.0270507000096,None,568.0270507000096,None,568.0270507000096,None,568.0270507000096,None,568.9250647000008,None,568.9250647000008,569.4255762999965,,,,,,,,,,,,,,,,107,2023-03-30_15h20.25.088,FishGame,2022.1.1,60.057390840966896,
,1,넌 불평스러워,5,Orange,A,2.25,2.066666666666667,ScrollDown,ScrollUp,Orange.png,5,Negative,Incongruent,0,0,0,0,,,,,,,,,,,,,,,,,,,,,,,,,,,,,0,0,0,0,,,,,,,,,,,,,,,,,,,,,,,,,,,,601.0555628000002,602.5577988000005,602.5911421000055,603.5410975999985,603.5911056000041,604.5389173000003,604.5389173000003,None,,,,,,,,,,,,,,,,,,,,,,,,,,,,,,,,,,1.1049382785956066,1.2301366000028793,605.6465650000027,None,ScrollDown,정답입니다,605.6465650000027,None,605.6465650000027,None,605.6465650000027,None,605.6465650000027,None,606.7741919999971,None,606.7741919999971,607.2740921000077,569.9250810000085,None,569.9250810000085,None,0.025925925,-0.1287037,1,0,0,0.01627551000274252,None,599.9248482999974,None,,,107,2023-03-30_15h20.25.088,FishGame,2022.1.1,60.057390840966896,
,2,나를 보내줘,6,Orange,A,0,0,ScrollUp,ScrollDown,Orange.png,5,NonTarget,NonTarget,0,0,0,0,,,,,,,,,,,,,,,,,,,,,,,,,,,,,0,1,1,1,,,,,,,,,,,,,,,,,,,,,,,,,,,,,,,,,,,,,,,,,,,,,,,,,,,,,,,,,,,,,,,,,,,,,1.7623456716537476,1.0306841999990866,607.894512800005,None,ScrollUp,정답입니다,607.894512800005,None,607.894512800005,None,607.894512800005,None,607.894512800005,None,608.8241216000024,None,608.8241216000024,609.3245782000013,,,,,,,,,,,,,,,,107,2023-03-30_15h20.25.088,FishGame,2022.1.1,60.057390840966896,
,3,넌 다재다능해,2,Green,B,6.208333333333333,4.5,ScrollUp,ScrollDown,Green.png,5,Positive,Incongruent,0,0,0,0,,,,,,,,,,,,,,,,,,,,,,,,,,,,,0,2,2,2,,,,,,,,,,,,,,,,,,,,,,,,,,,,,,,,,,,,,,,,,,,,,,,,,,,,,,,,,,,,,,,,,,,,,1.7839506169160206,0.9645071000122698,609.941986699996,None,ScrollUp,정답입니다,609.941986699996,None,609.941986699996,None,609.941986699996,None,609.941986699996,None,610.8075041999982,None,610.8075041999982,611.307959400001,,,,,,,,,,,,,,,,107,2023-03-30_15h20.25.088,FishGame,2022.1.1,60.057390840966896,
,4,넌 과감해,3,Orange,A,4.833333333333334,4.6,ScrollDown,ScrollUp,Orange.png,5,Neutral,Neutral,0,0,0,0,,,,,,,,,,,,,,,,,,,,,,,,,,,,,0,3,3,3,,,,,,,,,,,,,,,,,,,,,,,,,,,,,,,,,,,,,,,,,,,,,,,,,,,,,,,,,,,,,,,,,,,,,1.0354938507080078,1.0793391000042902,611.9256606999988,None,ScrollDown,정답입니다,611.9256606999988,None,611.9256606999988,None,611.9256606999988,None,611.9256606999988,None,612.9050359999965,None,612.9050359999965,613.4050376000087,,,,,,,,,,,,,,,,107,2023-03-30_15h20.25.088,FishGame,2022.1.1,60.057390840966896,
,5,넌 고분고분해,3,Green,B,3.75,4.033333333333333,ScrollUp,ScrollDown,Green.png,5,Neutral,Neutral,0,0,0,0,,,,,,,,,,,,,,,,,,,,,,,,,,,,,0,4,4,4,,,,,,,,,,,,,,,,,,,,,,,,,,,,,,,,,,,,,,,,,,,,,,,,,,,,,,,,,,,,,,,,,,,,,1.8333333383003871,1.1509398999914993,614.0204708000092,None,ScrollUp,정답입니다,614.0204708000092,None,614.0204708000092,None,614.0204708000092,None,614.0204708000092,None,615.0742075000016,None,615.0742075000016,615.5741435000091,,,,,,,,,,,,,,,,107,2023-03-30_15h20.25.088,FishGame,2022.1.1,60.057390840966896,
,6,나를 보내줘,6,Orange,A,0,0,ScrollUp,ScrollDown,Orange.png,5,NonTarget,NonTarget,0,0,0,0,,,,,,,,,,,,,,,,,,,,,,,,,,,,,0,5,5,5,,,,,,,,,,,,,,,,,,,,,,,,,,,,,,,,,,,,,,,,,,,,,,,,,,,,,,,,,,,,,,,,,,,,,1.8935185074806213,1.0150199000054272,616.1933853000082,None,ScrollUp,정답입니다,616.1933853000082,None,616.1933853000082,None,616.1933853000082,None,616.1933853000082,None,617.107424700007,None,617.107424700007,617.607247699998,,,,,,,,,,,,,,,,107,2023-03-30_15h20.25.088,FishGame,2022.1.1,60.057390840966896,
,7,넌 잘 잊어,4,Orange,A,3,3.7,ScrollDown,ScrollUp,Orange.png,5,Negative,Incongruent,0,0,0,0,,,,,,,,,,,,,,,,,,,,,,,,,,,,,0,6,6,6,,,,,,,,,,,,,,,,,,,,,,,,,,,,,,,,,,,,,,,,,,,,,,,,,,,,,,,,,,,,,,,,,,,,,1,1.08338179999555,618.2299060000078,None,ScrollDown,정답입니다,618.2299060000078,None,618.2299060000078,None,618.2299060000078,None,618.2299060000078,None,619.2073281000048,None,619.2073281000048,619.7072536000051,,,,,,,,,,,,,,,,107,2023-03-30_15h20.25.088,FishGame,2022.1.1,60.057390840966896,
,8,넌 탐구심이없어,4,Green,B,2.833333333333333,3.066666666666667,ScrollUp,ScrollDown,Green.png,5,Negative,Congruent,0,0,0,0,,,,,,,,,,,,,,,,,,,,,,,,,,,,,0,7,7,7,,,,,,,,,,,,,,,,,,,,,,,,,,,,,,,,,,,,,,,,,,,,,,,,,,,,,,,,,,,,,,,,,,,,,1.8811728457609813,0.9999674999999115,620.3271708999964,None,ScrollUp,정답입니다,620.3271708999964,None,620.3271708999964,None,620.3271708999964,None,620.3271708999964,None,621.223843300002,None,621.223843300002,621.7237526000099,,,,,,,,,,,,,,,,107,2023-03-30_15h20.25.088,FishGame,2022.1.1,60.057390840966896,
,9,나를 데려가줘,6,Green,B,0,0,ScrollDown,ScrollUp,Green.png,5,NonTarget,NonTarget,0,0,0,0,,,,,,,,,,,,,,,,,,,,,,,,,,,,,0,8,8,8,,,,,,,,,,,,,,,,,,,,,,,,,,,,,,,,,,,,,,,,,,,,,,,,,,,,,,,,,,,,,,,,,,,,,1,1.0835599999991246,622.3379335000063,None,ScrollDown,정답입니다,622.3379335000063,None,622.3379335000063,None,622.3379335000063,None,622.3379335000063,None,623.3239058000036,None,623.3239058000036,623.8238148000091,,,,,,,,,,,,,,,,107,2023-03-30_15h20.25.088,FishGame,2022.1.1,60.057390840966896,
,10,넌 참되어,2,Orange,A,6.041666666666664,4.733333333333333,ScrollDown,ScrollUp,Orange.png,5,Positive,Congruent,0,0,0,0,,,,,,,,,,,,,,,,,,,,,,,,,,,,,0,9,9,9,,,,,,,,,,,,,,,,,,,,,,,,,,,,,,,,,,,,,,,,,,,,,,,,,,,,,,,,,,,,,,,,,,,,,1,1.047427700003027,624.4460897000099,None,ScrollDown,정답입니다,624.4460897000099,None,624.4460897000099,None,624.4460897000099,None,624.4460897000099,None,625.3881050000055,None,625.3881050000055,625.8891785000014,,,,,,,,,,,,,,,,107,2023-03-30_15h20.25.088,FishGame,2022.1.1,60.057390840966896,
,11,넌 생기있어,1,Green,B,5.875,5.633333333333334,ScrollUp,ScrollDown,Green.png,5,Positive,Incongruent,0,0,0,0,,,,,,,,,,,,,,,,,,,,,,,,,,,,,0,10,10,10,,,,,,,,,,,,,,,,,,,,,,,,,,,,,,,,,,,,,,,,,,,,,,,,,,,,,,,,,,,,,,,,,,,,,1.9336419701576233,1.0481290000025183,626.5078505999991,None,ScrollUp,정답입니다,626.5078505999991,None,626.5078505999991,None,626.5078505999991,None,626.5078505999991,None,627.4571678000066,None,627.4571678000066,627.9579309999972,,,,,,,,,,,,,,,,107,2023-03-30_15h20.25.088,FishGame,2022.1.1,60.057390840966896,
,12,넌 비사교적이야,4,Green,B,2.875,2.9,ScrollUp,ScrollDown,Green.png,5,Negative,Congruent,0,0,0,0,,,,,,,,,,,,,,,,,,,,,,,,,,,,,0,11,11,11,,,,,,,,,,,,,,,,,,,,,,,,,,,,,,,,,,,,,,,,,,,,,,,,,,,,,,,,,,,,,,,,,,,,,1.8472222139437993,0.9192489999986719,628.5757564000087,None,ScrollUp,정답입니다,628.5757564000087,None,628.5757564000087,None,628.5757564000087,None,628.5757564000087,None,629.4003548000037,None,629.4003548000037,629.9069888000085,,,,,,,,,,,,,,,,107,2023-03-30_15h20.25.088,FishGame,2022.1.1,60.057390840966896,
,13,나를 데려가줘,6,Green,B,0,0,ScrollDown,ScrollUp,Green.png,5,NonTarget,NonTarget,0,0,0,0,,,,,,,,,,,,,,,,,,,,,,,,,,,,,0,12,12,12,,,,,,,,,,,,,,,,,,,,,,,,,,,,,,,,,,,,,,,,,,,,,,,,,,,,,,,,,,,,,,,,,,,,,1,0.9983159999974305,630.5234519000078,None,ScrollDown,정답입니다,630.5234519000078,None,630.5234519000078,None,630.5234519000078,None,630.5234519000078,None,631.4236715000006,None,631.4236715000006,631.9241272000072,,,,,,,,,,,,,,,,107,2023-03-30_15h20.25.088,FishGame,2022.1.1,60.057390840966896,
,14,넌 고독해,4,Orange,A,2.916666666666667,3.233333333333333,ScrollDown,ScrollUp,Orange.png,5,Negative,Incongruent,0,0,0,0,,,,,,,,,,,,,,,,,,,,,,,,,,,,,0,13,13,13,,,,,,,,,,,,,,,,,,,,,,,,,,,,,,,,,,,,,,,,,,,,,,,,,,,,,,,,,,,,,,,,,,,,,1,1.177599700007704,632.5497841000033,None,ScrollDown,정답입니다,632.5497841000033,None,632.5497841000033,None,632.5497841000033,None,632.5497841000033,None,633.6212748999969,None,633.6212748999969,634.1212615999975,,,,,,,,,,,,,,,,107,2023-03-30_15h20.25.088,FishGame,2022.1.1,60.057390840966896,
,15,넌 신경질적이야,5,Green,B,2.375,2.233333333333333,ScrollUp,ScrollDown,Green.png,5,Negative,Congruent,0,0,0,0,,,,,,,,,,,,,,,,,,,,,,,,,,,,,0,14,14,14,,,,,,,,,,,,,,,,,,,,,,,,,,,,,,,,,,,,,,,,,,,,,,,,,,,,,,,,,,,,,,,,,,,,,1.8209876517454784,0.9997995000012452,634.7507360000018,None,ScrollUp,정답입니다,634.7507360000018,None,634.7507360000018,None,634.7507360000018,None,634.7507360000018,None,635.640347499997,None,635.640347499997,636.1403354000067,,,,,,,,,,,,,,,,107,2023-03-30_15h20.25.088,FishGame,2022.1.1,60.057390840966896,
,16,넌 똑똑해,2,Green,B,5.666666666666667,3.966666666666667,ScrollUp,ScrollDown,Green.png,5,Positive,Incongruent,0,0,0,0,,,,,,,,,,,,,,,,,,,,,,,,,,,,,0,15,15,15,,,,,,,,,,,,,,,,,,,,,,,,,,,,,,,,,,,,,,,,,,,,,,,,,,,,,,,,,,,,,,,,,,,,,1.9629629850387573,0.9789081999915652,636.7594027000014,None,ScrollUp,정답입니다,636.7594027000014,None,636.7594027000014,None,636.7594027000014,None,636.7594027000014,None,637.6380411999999,None,637.6380411999999,638.1378901999997,,,,,,,,,,,,,,,,107,2023-03-30_15h20.25.088,FishGame,2022.1.1,60.057390840966896,
,17,나를 보내줘,6,Orange,A,0,0,ScrollUp,ScrollDown,Orange.png,5,NonTarget,NonTarget,0,0,0,0,,,,,,,,,,,,,,,,,,,,,,,,,,,,,0,16,16,16,,,,,,,,,,,,,,,,,,,,,,,,,,,,,,,,,,,,,,,,,,,,,,,,,,,,,,,,,,,,,,,,,,,,,1.8348765522241592,1.0129939000034938,638.7595000000001,None,ScrollUp,정답입니다,638.7595000000001,None,638.7595000000001,None,638.7595000000001,None,638.7595000000001,None,639.6711806000094,None,639.6711806000094,640.1735348000075,,,,,,,,,,,,,,,,107,2023-03-30_15h20.25.088,FishGame,2022.1.1,60.057390840966896,
,18,넌 협조적이야,1,Orange,A,5.625,5.666666666666667,ScrollDown,ScrollUp,Orange.png,5,Positive,Congruent,0,0,0,0,,,,,,,,,,,,,,,,,,,,,,,,,,,,,0,17,17,17,,,,,,,,,,,,,,,,,,,,,,,,,,,,,,,,,,,,,,,,,,,,,,,,,,,,,,,,,,,,,,,,,,,,,1,1.0150012999947648,640.7942045000091,None,ScrollDown,정답입니다,640.7942045000091,None,640.7942045000091,None,640.7942045000091,None,640.7942045000091,None,641.7068722999975,None,641.7068722999975,642.2102037000004,,,,,,,,,,,,,,,,107,2023-03-30_15h20.25.088,FishGame,2022.1.1,60.057390840966896,
,19,나를 데려가줘,6,Green,B,0,0,ScrollDown,ScrollUp,Green.png,5,NonTarget,NonTarget,0,0,0,0,,,,,,,,,,,,,,,,,,,,,,,,,,,,,0,18,18,18,,,,,,,,,,,,,,,,,,,,,,,,,,,,,,,,,,,,,,,,,,,,,,,,,,,,,,,,,,,,,,,,,,,,,1,1.029062999994494,642.8237550000049,None,ScrollDown,정답입니다,642.8237550000049,None,642.8237550000049,None,642.8237550000049,None,642.8237550000049,None,643.7568036000011,None,643.7568036000011,644.256730699999,,,,,,,,,,,,,,,,107,2023-03-30_15h20.25.088,FishGame,2022.1.1,60.057390840966896,
,20,넌 몰인정해,5,Green,B,2.541666666666667,2.066666666666667,ScrollUp,ScrollDown,Green.png,5,Negative,Congruent,0,0,0,0,,,,,,,,,,,,,,,,,,,,,,,,,,,,,0,19,19,19,,,,,,,,,,,,,,,,,,,,,,,,,,,,,,,,,,,,,,,,,,,,,,,,,,,,,,,,,,,,,,,,,,,,,1.8456790000200272,0.9613706999953138,644.8838169000082,None,ScrollUp,정답입니다,644.8838169000082,None,644.8838169000082,None,644.8838169000082,None,644.8838169000082,None,645.7376456000056,None,645.7376456000056,646.2383781000099,,,,,,,,,,,,,,,,107,2023-03-30_15h20.25.088,FishGame,2022.1.1,60.057390840966896,
,21,나를 데려가줘,6,Green,B,0,0,ScrollDown,ScrollUp,Green.png,5,NonTarget,NonTarget,0,0,0,0,,,,,,,,,,,,,,,,,,,,,,,,,,,,,0,20,20,20,,,,,,,,,,,,,,,,,,,,,,,,,,,,,,,,,,,,,,,,,,,,,,,,,,,,,,,,,,,,,,,,,,,,,1,1.0833990999963135,646.8525551000057,None,ScrollDown,정답입니다,646.8525551000057,None,646.8525551000057,None,646.8525551000057,None,646.8525551000057,None,647.8400844999996,None,647.8400844999996,648.3400765999977,,,,,,,,,,,,,,,,107,2023-03-30_15h20.25.088,FishGame,2022.1.1,60.057390840966896,
,22,넌 순진해,3,Green,B,4.125,4.166666666666667,ScrollUp,ScrollDown,Green.png,5,Neutral,Neutral,0,0,0,0,,,,,,,,,,,,,,,,,,,,,,,,,,,,,0,21,21,21,,,,,,,,,,,,,,,,,,,,,,,,,,,,,,,,,,,,,,,,,,,,,,,,,,,,,,,,,,,,,,,,,,,,,1.9089506218830745,1.0680331000039587,648.9567917999957,None,ScrollUp,정답입니다,648.9567917999957,None,648.9567917999957,None,648.9567917999957,None,648.9567917999957,None,649.9266940000089,None,649.9266940000089,650.4399178000021,,,,,,,,,,,,,,,,107,2023-03-30_15h20.25.088,FishGame,2022.1.1,60.057390840966896,
,23,넌 신뢰할만해,1,Orange,A,6.625,5.533333333333333,ScrollDown,ScrollUp,Orange.png,5,Positive,Congruent,0,0,0,0,,,,,,,,,,,,,,,,,,,,,,,,,,,,,0,22,22,22,,,,,,,,,,,,,,,,,,,,,,,,,,,,,,,,,,,,,,,,,,,,,,,,,,,,,,,,,,,,,,,,,,,,,1,1.0634728000004543,651.0627364999964,None,ScrollDown,정답입니다,651.0627364999964,None,651.0627364999964,None,651.0627364999964,None,651.0627364999964,None,652.023179900003,None,652.023179900003,652.5263968000072,,,,,,,,,,,,,,,,107,2023-03-30_15h20.25.088,FishGame,2022.1.1,60.057390840966896,
