name,TrialNum,Word,WordCategory,FishType,WordList,WordValence,WordReputation,CorrectResp,IncorrectResp,FishTypeFile,Round,WordType,Condition,LoopforOrange.thisRepN,LoopforOrange.thisTrialN,LoopforOrange.thisN,LoopforOrange.thisIndex,LoopForGreen.thisRepN,LoopForGreen.thisTrialN,LoopForGreen.thisN,LoopForGreen.thisIndex,GreenInstLoop.thisRepN,GreenInstLoop.thisTrialN,GreenInstLoop.thisN,GreenInstLoop.thisIndex,GreenPrac.thisRepN,GreenPrac.thisTrialN,GreenPrac.thisN,GreenPrac.thisIndex,trials_2.thisRepN,trials_2.thisTrialN,trials_2.thisN,trials_2.thisIndex,GreenRound1.thisRepN,GreenRound1.thisTrialN,GreenRound1.thisN,GreenRound1.thisIndex,GreenRound2.thisRepN,GreenRound2.thisTrialN,GreenRound2.thisN,GreenRound2.thisIndex,GreenRound3.thisRepN,GreenRound3.thisTrialN,GreenRound3.thisN,GreenRound3.thisIndex,GreenRound4.thisRepN,GreenRound4.thisTrialN,GreenRound4.thisN,GreenRound4.thisIndex,GreenRound5.thisRepN,GreenRound5.thisTrialN,GreenRound5.thisN,GreenRound5.thisIndex,text_2.started,text_2.stopped,text_3.started,text_3.stopped,key_resp.keys,key_resp.rt,key_resp.started,key_resp.stopped,PassI.started,PassI.stopped,PassInst.keys,PassInst.rt,PassInst.started,PassInst.stopped,mouse_2.x,mouse_2.y,mouse_2.leftButton,mouse_2.midButton,mouse_2.rightButton,mouse_2.started,mouse_2.stopped,image.started,image.stopped,text_5.started,text_5.stopped,text_6.started,text_6.stopped,text_7.started,text_7.stopped,text_8.started,text_8.stopped,slider_3.response,slider_3.rt,slider_3.started,slider_3.stopped,Response_3,Feedback_3,BackGround_3.started,BackGround_3.stopped,Fish_3.started,Fish_3.stopped,WordBox_3.started,WordBox_3.stopped,Words_3.started,Words_3.stopped,BackGround_Feedback_3.started,BackGround_Feedback_3.stopped,Feedbacks_3.started,Feedbacks_3.stopped,Continue_or_not_2.keys,Continue_or_not_2.rt,Continue_or_not_2.started,Continue_or_not_2.stopped,image_4.started,image_4.stopped,mouse_3.x,mouse_3.y,mouse_3.leftButton,mouse_3.midButton,mouse_3.rightButton,mouse_3.started,mouse_3.stopped,startmain.started,startmain.stopped,slider_4.response,slider_4.rt,slider_4.started,slider_4.stopped,Response_4,Feedback_4,BackGround_4.started,BackGround_4.stopped,Fish_4.started,Fish_4.stopped,WordBox_4.started,WordBox_4.stopped,Words_4.started,Words_4.stopped,BackGround_Feedback_4.started,BackGround_Feedback_4.stopped,Feedbacks_4.started,Feedbacks_4.stopped,text.started,text.stopped,break_interval.started,break_interval.stopped,mouse.x,mouse.y,mouse.leftButton,mouse.midButton,mouse.rightButton,mouse.started,mouse.stopped,stratnextround.started,stratnextround.stopped,endgame.started,endgame.stopped,participant,date,expName,psychopyVersion,frameRate,
,,,,,,,,,,,,,,,,,,,,,,,,,,,,,,,,,,,,,,,,,,,,,,,,,,,,,,19.54988459998276,None,19.54988459998276,None,space,2.2066640999983065,20.045025999977952,None,,,,,,,,,,,,,,,,,,,,,,,,,,,,,,,,,,,,,,,,,,,,,,,,,,,,,,,,,,,,,,,,,,,,,,,,,,,,,,,,,,,,,,,,,,108,2023-03-31_17h45.42.362,FishGame,2022.1.1,59.926745539591764,
물고기과제_instruction(참가자용)GreenVersion.mp4,,,,,,,,,,,,,,,,,,0,0,0,0,0,0,0,0,,,,,,,,,,,,,,,,,,,,,,,,,,,,,,,,,,,,,24.058033699984662,None,y,2.049986500001978,24.058033699984662,None,,,,,,,,,,,,,,,,,,,,,,,,,,,,,,,,,,,,,,,,,,,,,,,,,,,,,,,,,,,,,,,,,,,,,,,,,,,,,,,,,,,,108,2023-03-31_17h45.42.362,FishGame,2022.1.1,59.926745539591764,
물고기과제_instruction(참가자용)GreenVersion.mp4,,,,,,,,,,,,,,,,,,0,0,0,0,0,1,1,1,,,,,,,,,,,,,,,,,,,,,,,,,,,,,,,,,,,,,95.79017699998803,None,n,4.270194499986246,95.79017699998803,None,,,,,,,,,,,,,,,,,,,,,,,,,,,,,,,,,,,,,,,,,,,,,,,,,,,,,,,,,,,,,,,,,,,,,,,,,,,,,,,,,,,,108,2023-03-31_17h45.42.362,FishGame,2022.1.1,59.926745539591764,
,1,넌 교활해,5,Orange,B,2.333333333333333,2.133333333333333,ScrollUp,ScrollDown,Orange.png,practice,,,,,,,0,0,0,0,,,,,0,0,0,0,0,0,0,0,,,,,,,,,,,,,,,,,,,,,,,,,,,,,,,,,,,0.062962964,-0.23333333,1,0,0,0.5144191100262105,None,100.09000899997773,None,109.40621259997715,110.90655099999276,110.93988239997998,111.8898138999939,111.93982429997413,112.88980029997765,112.88980029997765,None,1.594135800997416,1.2638340000121389,114.20170889998553,None,ScrollUp,정답입니다,114.20170889998553,None,114.20170889998553,None,114.20170889998553,None,114.20170889998553,None,115.15630259999307,None,115.15630259999307,115.65616299997782,,,,,,,,,,,,,,,,,,,,,,,,,,,,,,,,,,,,,,,,,,,,,,,,,108,2023-03-31_17h45.42.362,FishGame,2022.1.1,59.926745539591764,
,2,넌 슬기로워,2,Green,A,6.166666666666667,4.1,ScrollDown,ScrollUp,Green.png,practice,,,,,,,0,0,0,0,,,,,0,0,0,0,0,1,1,1,,,,,,,,,,,,,,,,,,,,,,,,,,,,,,,,,,,,,,,,,,,,,,,,,,,,1.2746913631757102,0.7791291000030469,116.27417729998706,None,ScrollDown,정답입니다,116.27417729998706,None,116.27417729998706,None,116.27417729998706,None,116.27417729998706,None,116.95611659999122,None,116.95611659999122,117.45615529999486,,,,,,,,,,,,,,,,,,,,,,,,,,,,,,,,,,,,,,,,,,,,,,,,,108,2023-03-31_17h45.42.362,FishGame,2022.1.1,59.926745539591764,
,3,나를 보내줘,6,Green,A,0,0,ScrollUp,ScrollDown,Green.png,practice,,,,,,,0,0,0,0,,,,,0,0,0,0,0,2,2,2,,,,,,,,,,,,,,,,,,,,,,,,,,,,,,,,,,,,,,,,,,,,,,,,,,,,1.4953703702582668,1.1127808999735862,118.0738091999956,None,NoResponse,무응답입니다,118.0738091999956,None,118.0738091999956,None,118.0738091999956,None,118.0738091999956,None,119.08746309997514,None,119.08746309997514,119.58948389999568,,,,,,,,,,,,,,,,,,,,,,,,,,,,,,,,,,,,,,,,,,,,,,,,,108,2023-03-31_17h45.42.362,FishGame,2022.1.1,59.926745539591764,
,4,나를 데려가줘,6,Orange,B,0,0,ScrollDown,ScrollUp,Orange.png,practice,,,,,,,0,0,0,0,,,,,0,0,0,0,0,3,3,3,,,,,,,,,,,,,,,,,,,,,,,,,,,,,,,,,,,,,,,,,,,,,,,,,,,,1.0787036915620167,1.1959643999871332,120.20836539997254,None,ScrollDown,정답입니다,120.20836539997254,None,120.20836539997254,None,120.20836539997254,None,120.20836539997254,None,121.30377649998991,None,121.30377649998991,121.80384859998594,,,,,,,,,,,,,,,,,,,,,,,,,,,,,,,,,,,,,,,,,,,,,,,,,108,2023-03-31_17h45.42.362,FishGame,2022.1.1,59.926745539591764,
,1,넌 교활해,5,Orange,B,2.333333333333333,2.133333333333333,ScrollUp,ScrollDown,Orange.png,practice,,,,,,,0,0,0,0,,,,,0,0,0,0,,,,,,,,,,,,,,,,,,,,,,,,,,,,,,,,,,,,,,,,,,,,,,,,,,,,,,,,,,,,,,,,,,,,,,,,,,n,4.695195800013607,122.30383469999651,None,122.30383469999651,None,,,,,,,,,,,,,,,,,,,,,,,,,,,,,,,,,,,,,,,,,,,108,2023-03-31_17h45.42.362,FishGame,2022.1.1,59.926745539591764,
,1,넌 따뜻해,1,Orange,B,6.083333333333333,5.6,ScrollUp,ScrollDown,Orange.png,1,Positive,Incongruent,,,,,0,0,0,0,,,,,,,,,,,,,0,0,0,0,,,,,,,,,,,,,,,,,,,,,,,,,,,,,,,,,,,,,,,,130.222503099998,131.72273189999396,131.75603979997686,132.70605419998174,132.75606669997796,133.7060195999802,133.7060195999802,None,,,,,,,,,,,,,,,,,,,,,,,,,0.12777779,-0.06574074,1,0,0,0.3147976099862717,None,127.02261899999576,None,1.8364197413126628,1.2401942999858875,134.99988219997613,None,ScrollUp,정답입니다,134.99988219997613,None,134.99988219997613,None,134.99988219997613,None,134.99988219997613,None,135.93916009998065,None,135.93916009998065,136.4390605999797,,,,,,,,,,,,,,,,108,2023-03-31_17h45.42.362,FishGame,2022.1.1,59.926745539591764,
,2,넌 기품있어,2,Orange,B,5.791666666666668,4.5,ScrollUp,ScrollDown,Orange.png,1,Positive,Incongruent,,,,,0,0,0,0,,,,,,,,,,,,,0,1,1,1,,,,,,,,,,,,,,,,,,,,,,,,,,,,,,,,,,,,,,,,,,,,,,,,,,,,,,,,,,,,,,,,,,,,,,,,,,,,,,,,,1.858024686574936,1.059123900020495,137.06449289998272,None,ScrollUp,정답입니다,137.06449289998272,None,137.06449289998272,None,137.06449289998272,None,137.06449289998272,None,138.01559839997208,None,138.01559839997208,138.52006669997354,,,,,,,,,,,,,,,,108,2023-03-31_17h45.42.362,FishGame,2022.1.1,59.926745539591764,
,3,나를 보내줘,6,Green,A,0,0,ScrollUp,ScrollDown,Green.png,1,NonTarget,NonTarget,,,,,0,0,0,0,,,,,,,,,,,,,0,2,2,2,,,,,,,,,,,,,,,,,,,,,,,,,,,,,,,,,,,,,,,,,,,,,,,,,,,,,,,,,,,,,,,,,,,,,,,,,,,,,,,,,1.6959876591960588,1.1674700000148732,139.1408417999919,None,ScrollUp,정답입니다,139.1408417999919,None,139.1408417999919,None,139.1408417999919,None,139.1408417999919,None,140.20640479997382,None,140.20640479997382,140.72251929997583,,,,,,,,,,,,,,,,108,2023-03-31_17h45.42.362,FishGame,2022.1.1,59.926745539591764,
,4,넌 수동적이야,4,Green,A,2.833333333333333,2.933333333333333,ScrollDown,ScrollUp,Green.png,1,Negative,Incongruent,,,,,0,0,0,0,,,,,,,,,,,,,0,3,3,3,,,,,,,,,,,,,,,,,,,,,,,,,,,,,,,,,,,,,,,,,,,,,,,,,,,,,,,,,,,,,,,,,,,,,,,,,,,,,,,,,1.2283950696388881,0.8982955999963451,141.33162859998993,None,ScrollDown,정답입니다,141.33162859998993,None,141.33162859998993,None,141.33162859998993,None,141.33162859998993,None,142.12252159998752,None,142.12252159998752,142.62586289999308,,,,,,,,,,,,,,,,108,2023-03-31_17h45.42.362,FishGame,2022.1.1,59.926745539591764,
,5,넌 사심이 없어,3,Orange,B,4.916666666666666,4.333333333333333,ScrollUp,ScrollDown,Orange.png,1,Neutral,Neutral,,,,,0,0,0,0,,,,,,,,,,,,,0,4,4,4,,,,,,,,,,,,,,,,,,,,,,,,,,,,,,,,,,,,,,,,,,,,,,,,,,,,,,,,,,,,,,,,,,,,,,,,,,,,,,,,,1.8719135870536168,0.898444999998901,143.24642479998874,None,ScrollUp,정답입니다,143.24642479998874,None,143.24642479998874,None,143.24642479998874,None,143.24642479998874,None,144.0389760999824,None,144.0389760999824,144.53900109999813,,,,,,,,,,,,,,,,108,2023-03-31_17h45.42.362,FishGame,2022.1.1,59.926745539591764,
,6,넌 헤퍼,5,Green,A,2.458333333333334,2.233333333333333,ScrollDown,ScrollUp,Green.png,1,Negative,Incongruent,,,,,0,0,0,0,,,,,,,,,,,,,0,5,5,5,,,,,,,,,,,,,,,,,,,,,,,,,,,,,,,,,,,,,,,,,,,,,,,,,,,,,,,,,,,,,,,,,,,,,,,,,,,,,,,,,1.1527777860562007,0.8961156000150368,145.1587246999843,None,ScrollDown,정답입니다,145.1587246999843,None,145.1587246999843,None,145.1587246999843,None,145.1587246999843,None,145.9555704999948,None,145.9555704999948,146.45588189997943,,,,,,,,,,,,,,,,108,2023-03-31_17h45.42.362,FishGame,2022.1.1,59.926745539591764,
,7,넌 말쑥해,3,Green,A,4.833333333333334,4.333333333333333,ScrollDown,ScrollUp,Green.png,1,Neutral,Neutral,,,,,0,0,0,0,,,,,,,,,,,,,0,6,6,6,,,,,,,,,,,,,,,,,,,,,,,,,,,,,,,,,,,,,,,,,,,,,,,,,,,,,,,,,,,,,,,,,,,,,,,,,,,,,,,,,1.0354938507080078,0.9128822000056971,147.0759301999933,None,ScrollDown,정답입니다,147.0759301999933,None,147.0759301999933,None,147.0759301999933,None,147.0759301999933,None,147.88889740000013,None,147.88889740000013,148.38886709997314,,,,,,,,,,,,,,,,108,2023-03-31_17h45.42.362,FishGame,2022.1.1,59.926745539591764,
,8,넌 투덜거려,5,Orange,B,2.541666666666667,2.266666666666667,ScrollUp,ScrollDown,Orange.png,1,Negative,Congruent,,,,,0,0,0,0,,,,,,,,,,,,,0,7,7,7,,,,,,,,,,,,,,,,,,,,,,,,,,,,,,,,,,,,,,,,,,,,,,,,,,,,,,,,,,,,,,,,,,,,,,,,,,,,,,,,,1.825617293516795,0.9956059999822173,149.0136886999826,None,ScrollUp,정답입니다,149.0136886999826,None,149.0136886999826,None,149.0136886999826,None,149.0136886999826,None,149.90313979997882,None,149.90313979997882,150.40313249998144,,,,,,,,,,,,,,,,108,2023-03-31_17h45.42.362,FishGame,2022.1.1,59.926745539591764,
,9,넌 적극적이야,1,Green,A,5.708333333333333,5.533333333333333,ScrollDown,ScrollUp,Green.png,1,Positive,Congruent,,,,,0,0,0,0,,,,,,,,,,,,,0,8,8,8,,,,,,,,,,,,,,,,,,,,,,,,,,,,,,,,,,,,,,,,,,,,,,,,,,,,,,,,,,,,,,,,,,,,,,,,,,,,,,,,,1,0.9166563999897335,151.02070259998436,None,ScrollDown,정답입니다,151.02070259998436,None,151.02070259998436,None,151.02070259998436,None,151.02070259998436,None,151.83887519998825,None,151.83887519998825,152.3395469999814,,,,,,,,,,,,,,,,108,2023-03-31_17h45.42.362,FishGame,2022.1.1,59.926745539591764,
,10,넌 재미없어,4,Orange,B,2.625,2.966666666666667,ScrollUp,ScrollDown,Orange.png,1,Negative,Congruent,,,,,0,0,0,0,,,,,,,,,,,,,0,9,9,9,,,,,,,,,,,,,,,,,,,,,,,,,,,,,,,,,,,,,,,,,,,,,,,,,,,,,,,,,,,,,,,,,,,,,,,,,,,,,,,,,1.9629629850387573,1.0315943000023253,152.96187749999808,None,ScrollUp,정답입니다,152.96187749999808,None,152.96187749999808,None,152.96187749999808,None,152.96187749999808,None,153.88892249998753,None,153.88892249998753,154.38885099999607,,,,,,,,,,,,,,,,108,2023-03-31_17h45.42.362,FishGame,2022.1.1,59.926745539591764,
,11,넌 명석해,2,Green,A,5.875,4.033333333333333,ScrollDown,ScrollUp,Green.png,1,Positive,Congruent,,,,,0,0,0,0,,,,,,,,,,,,,0,10,10,10,,,,,,,,,,,,,,,,,,,,,,,,,,,,,,,,,,,,,,,,,,,,,,,,,,,,,,,,,,,,,,,,,,,,,,,,,,,,,,,,,1,0.8983124999795109,155.00935670000035,None,ScrollDown,정답입니다,155.00935670000035,None,155.00935670000035,None,155.00935670000035,None,155.00935670000035,None,155.8053704999911,None,155.8053704999911,156.30534599997918,,,,,,,,,,,,,,,,108,2023-03-31_17h45.42.362,FishGame,2022.1.1,59.926745539591764,
,12,나를 데려가줘,6,Orange,B,0,0,ScrollDown,ScrollUp,Orange.png,1,NonTarget,NonTarget,,,,,0,0,0,0,,,,,,,,,,,,,0,11,11,11,,,,,,,,,,,,,,,,,,,,,,,,,,,,,,,,,,,,,,,,,,,,,,,,,,,,,,,,,,,,,,,,,,,,,,,,,,,,,,,,,1.1342592686414719,1.2610509999794886,156.93563709998853,None,ScrollDown,정답입니다,156.93563709998853,None,156.93563709998853,None,156.93563709998853,None,156.93563709998853,None,158.08632569998736,None,158.08632569998736,158.58627989998786,,,,,,,,,,,,,,,,108,2023-03-31_17h45.42.362,FishGame,2022.1.1,59.926745539591764,
,13,넌 소심해,4,Green,A,3,3.1,ScrollDown,ScrollUp,Green.png,1,Negative,Incongruent,,,,,0,0,0,0,,,,,,,,,,,,,0,12,12,12,,,,,,,,,,,,,,,,,,,,,,,,,,,,,,,,,,,,,,,,,,,,,,,,,,,,,,,,,,,,,,,,,,,,,,,,,,,,,,,,,1.200617293516795,0.8688470000051893,159.20781529997475,None,ScrollDown,정답입니다,159.20781529997475,None,159.20781529997475,None,159.20781529997475,None,159.20781529997475,None,159.96035879998817,None,159.96035879998817,160.47272829999565,,,,,,,,,,,,,,,,108,2023-03-31_17h45.42.362,FishGame,2022.1.1,59.926745539591764,
,14,넌 합리적이야,2,Green,A,5.583333333333333,4.733333333333333,ScrollDown,ScrollUp,Green.png,1,Positive,Congruent,,,,,0,0,0,0,,,,,,,,,,,,,0,13,13,13,,,,,,,,,,,,,,,,,,,,,,,,,,,,,,,,,,,,,,,,,,,,,,,,,,,,,,,,,,,,,,,,,,,,,,,,,,,,,,,,,1.0478395124276478,0.975882200000342,161.09308859999874,None,ScrollDown,정답입니다,161.09308859999874,None,161.09308859999874,None,161.09308859999874,None,161.09308859999874,None,161.96507729997393,None,161.96507729997393,162.4723524999863,,,,,,,,,,,,,,,,108,2023-03-31_17h45.42.362,FishGame,2022.1.1,59.926745539591764,
,15,넌 무자비해,5,Orange,B,2.333333333333333,2.1,ScrollUp,ScrollDown,Orange.png,1,Negative,Congruent,,,,,0,0,0,0,,,,,,,,,,,,,0,14,14,14,,,,,,,,,,,,,,,,,,,,,,,,,,,,,,,,,,,,,,,,,,,,,,,,,,,,,,,,,,,,,,,,,,,,,,,,,,,,,,,,,1.7901234477758408,0.8148424999963026,163.09545559997787,None,ScrollUp,정답입니다,163.09545559997787,None,163.09545559997787,None,163.09545559997787,None,163.09545559997787,None,163.80551369997556,None,163.80551369997556,164.3051878999977,,,,,,,,,,,,,,,,108,2023-03-31_17h45.42.362,FishGame,2022.1.1,59.926745539591764,
,16,나를 보내줘,6,Green,A,0,0,ScrollUp,ScrollDown,Green.png,1,NonTarget,NonTarget,,,,,0,0,0,0,,,,,,,,,,,,,0,15,15,15,,,,,,,,,,,,,,,,,,,,,,,,,,,,,,,,,,,,,,,,,,,,,,,,,,,,,,,,,,,,,,,,,,,,,,,,,,,,,,,,,1.9629629850387573,1.0794139000063296,164.927452599979,None,ScrollUp,정답입니다,164.927452599979,None,164.927452599979,None,164.927452599979,None,164.927452599979,None,165.90280369998072,None,165.90280369998072,166.402792399982,,,,,,,,,,,,,,,,108,2023-03-31_17h45.42.362,FishGame,2022.1.1,59.926745539591764,
,17,넌 현실적이야,3,Orange,B,4.608695652173913,4.766666666666667,ScrollUp,ScrollDown,Orange.png,1,Neutral,Neutral,,,,,0,0,0,0,,,,,,,,,,,,,0,16,16,16,,,,,,,,,,,,,,,,,,,,,,,,,,,,,,,,,,,,,,,,,,,,,,,,,,,,,,,,,,,,,,,,,,,,,,,,,,,,,,,,,1.9444444676240284,0.9313278999761678,167.02992439997615,None,ScrollUp,정답입니다,167.02992439997615,None,167.02992439997615,None,167.02992439997615,None,167.02992439997615,None,167.85283159997198,None,167.85283159997198,168.35517709999112,,,,,,,,,,,,,,,,108,2023-03-31_17h45.42.362,FishGame,2022.1.1,59.926745539591764,
,18,넌 의리있어,1,Orange,B,5.833333333333334,5.633333333333334,ScrollUp,ScrollDown,Orange.png,1,Positive,Incongruent,,,,,0,0,0,0,,,,,,,,,,,,,0,17,17,17,,,,,,,,,,,,,,,,,,,,,,,,,,,,,,,,,,,,,,,,,,,,,,,,,,,,,,,,,,,,,,,,,,,,,,,,,,,,,,,,,1.9336419701576233,1.0314060999953654,168.9775233999826,None,ScrollUp,정답입니다,168.9775233999826,None,168.9775233999826,None,168.9775233999826,None,168.9775233999826,None,169.90515229999437,None,169.90515229999437,170.40821149997646,,,,,,,,,,,,,,,,108,2023-03-31_17h45.42.362,FishGame,2022.1.1,59.926745539591764,
,19,넌 신경과민이야,5,Green,A,2.541666666666667,2.166666666666667,ScrollDown,ScrollUp,Green.png,1,Negative,Incongruent,,,,,0,0,0,0,,,,,,,,,,,,,0,18,18,18,,,,,,,,,,,,,,,,,,,,,,,,,,,,,,,,,,,,,,,,,,,,,,,,,,,,,,,,,,,,,,,,,,,,,,,,,,,,,,,,,1.0246913532416027,1.0147868000203744,171.02836709999247,None,ScrollDown,정답입니다,171.02836709999247,None,171.02836709999247,None,171.02836709999247,None,171.02836709999247,None,171.9383120999846,None,171.9383120999846,172.43849389997195,,,,,,,,,,,,,,,,108,2023-03-31_17h45.42.362,FishGame,2022.1.1,59.926745539591764,
,20,넌 편안해,1,Green,A,5.916666666666666,5.866666666666666,ScrollDown,ScrollUp,Green.png,1,Positive,Congruent,,,,,0,0,0,0,,,,,,,,,,,,,0,19,19,19,,,,,,,,,,,,,,,,,,,,,,,,,,,,,,,,,,,,,,,,,,,,,,,,,,,,,,,,,,,,,,,,,,,,,,,,,,,,,,,,,1,0.8643880999879912,173.05849019999732,None,ScrollDown,정답입니다,173.05849019999732,None,173.05849019999732,None,173.05849019999732,None,173.05849019999732,None,173.81929699998,None,173.81929699998,174.32027349999407,,,,,,,,,,,,,,,,108,2023-03-31_17h45.42.362,FishGame,2022.1.1,59.926745539591764,
,21,넌 품위있어,2,Orange,B,5.291666666666666,4.466666666666667,ScrollUp,ScrollDown,Orange.png,1,Positive,Incongruent,,,,,0,0,0,0,,,,,,,,,,,,,0,20,20,20,,,,,,,,,,,,,,,,,,,,,,,,,,,,,,,,,,,,,,,,,,,,,,,,,,,,,,,,,,,,,,,,,,,,,,,,,,,,,,,,,1.8533950696388881,0.8982037000241689,174.93867129998398,None,ScrollUp,정답입니다,174.93867129998398,None,174.93867129998398,None,174.93867129998398,None,174.93867129998398,None,175.73597929999232,None,175.73597929999232,176.2383619999746,,,,,,,,,,,,,,,,108,2023-03-31_17h45.42.362,FishGame,2022.1.1,59.926745539591764,
,22,넌 빈틈없어,3,Green,A,4.833333333333333,3.966666666666667,ScrollDown,ScrollUp,Green.png,1,Neutral,Neutral,,,,,0,0,0,0,,,,,,,,,,,,,0,21,21,21,,,,,,,,,,,,,,,,,,,,,,,,,,,,,,,,,,,,,,,,,,,,,,,,,,,,,,,,,,,,,,,,,,,,,,,,,,,,,,,,,1.0123456915219624,0.8476854999898933,176.859982999973,None,ScrollDown,정답입니다,176.859982999973,None,176.859982999973,None,176.859982999973,None,176.859982999973,None,177.60506829997757,None,177.60506829997757,178.10806589998538,,,,,,,,,,,,,,,,108,2023-03-31_17h45.42.362,FishGame,2022.1.1,59.926745539591764,
,23,넌 상상력없어,4,Orange,B,2.833333333333333,3.133333333333333,ScrollUp,ScrollDown,Orange.png,1,Negative,Congruent,,,,,0,0,0,0,,,,,,,,,,,,,0,22,22,22,,,,,,,,,,,,,,,,,,,,,,,,,,,,,,,,,,,,,,,,,,,,,,,,,,,,,,,,,,,,,,,,,,,,,,,,,,,,,,,,,1.5709876542290053,0.7980688000097871,178.72755129999132,None,ScrollUp,정답입니다,178.72755129999132,None,178.72755129999132,None,178.72755129999132,None,178.72755129999132,None,179.421503199992,None,179.421503199992,179.92198889999418,,,,,,,,,,,,,,,,108,2023-03-31_17h45.42.362,FishGame,2022.1.1,59.926745539591764,
,24,넌 지혜로워,2,Orange,B,6.333333333333334,4.633333333333334,ScrollUp,ScrollDown,Orange.png,1,Positive,Incongruent,,,,,0,0,0,0,,,,,,,,,,,,,0,23,23,23,,,,,,,,,,,,,,,,,,,,,,,,,,,,,,,,,,,,,,,,,,,,,,,,,,,,,,,,,,,,,,,,,,,,,,,,,,,,,,,,,1.9614197711149852,0.894644399988465,180.55425339998328,None,ScrollUp,정답입니다,180.55425339998328,None,180.55425339998328,None,180.55425339998328,None,180.55425339998328,None,181.33804099998088,None,181.33804099998088,181.83805949997623,,,,,,,,,,,,,,,,108,2023-03-31_17h45.42.362,FishGame,2022.1.1,59.926745539591764,
,25,넌 시끄러워,4,Green,A,2.833333333333333,3.033333333333333,ScrollDown,ScrollUp,Green.png,1,Negative,Incongruent,,,,,0,0,0,0,,,,,,,,,,,,,0,24,24,24,,,,,,,,,,,,,,,,,,,,,,,,,,,,,,,,,,,,,,,,,,,,,,,,,,,,,,,,,,,,,,,,,,,,,,,,,,,,,,,,,1,0.8280209999938961,182.4644382999977,None,ScrollDown,정답입니다,182.4644382999977,None,182.4644382999977,None,182.4644382999977,None,182.4644382999977,None,183.18809189999592,None,183.18809189999592,183.68808219998027,,,,,,,,,,,,,,,,108,2023-03-31_17h45.42.362,FishGame,2022.1.1,59.926745539591764,
,26,넌 만사태평이야,3,Orange,B,4,4.333333333333333,ScrollUp,ScrollDown,Orange.png,1,Neutral,Neutral,,,,,0,0,0,0,,,,,,,,,,,,,0,25,25,25,,,,,,,,,,,,,,,,,,,,,,,,,,,,,,,,,,,,,,,,,,,,,,,,,,,,,,,,,,,,,,,,,,,,,,,,,,,,,,,,,1.9212963084379833,0.8319109999865759,184.31220179999946,None,ScrollUp,정답입니다,184.31220179999946,None,184.31220179999946,None,184.31220179999946,None,184.31220179999946,None,185.03806529997382,None,185.03806529997382,185.55465009997715,,,,,,,,,,,,,,,,108,2023-03-31_17h45.42.362,FishGame,2022.1.1,59.926745539591764,
,27,넌 붙임성있어,1,Green,A,5.708333333333333,5.633333333333334,ScrollDown,ScrollUp,Green.png,1,Positive,Congruent,,,,,0,0,0,0,,,,,,,,,,,,,0,26,26,26,,,,,,,,,,,,,,,,,,,,,,,,,,,,,,,,,,,,,,,,,,,,,,,,,,,,,,,,,,,,,,,,,,,,,,,,,,,,,,,,,1.0509259402751923,0.7458983999968041,186.1597502999939,None,ScrollDown,정답입니다,186.1597502999939,None,186.1597502999939,None,186.1597502999939,None,186.1597502999939,None,186.80459569999948,None,186.80459569999948,187.30462889999035,,,,,,,,,,,,,,,,108,2023-03-31_17h45.42.362,FishGame,2022.1.1,59.926745539591764,
,28,넌 영리해,2,Green,A,6,4.033333333333333,ScrollDown,ScrollUp,Green.png,1,Positive,Congruent,,,,,0,0,0,0,,,,,,,,,,,,,0,27,27,27,,,,,,,,,,,,,,,,,,,,,,,,,,,,,,,,,,,,,,,,,,,,,,,,,,,,,,,,,,,,,,,,,,,,,,,,,,,,,,,,,1,0.8149357000074815,187.92328160000034,None,ScrollDown,정답입니다,187.92328160000034,None,187.92328160000034,None,187.92328160000034,None,187.92328160000034,None,188.63796999998158,None,188.63796999998158,189.13847789997817,,,,,,,,,,,,,,,,108,2023-03-31_17h45.42.362,FishGame,2022.1.1,59.926745539591764,
,29,넌 열심이야,1,Orange,B,6.041666666666667,5.833333333333333,ScrollUp,ScrollDown,Orange.png,1,Positive,Incongruent,,,,,0,0,0,0,,,,,,,,,,,,,0,28,28,28,,,,,,,,,,,,,,,,,,,,,,,,,,,,,,,,,,,,,,,,,,,,,,,,,,,,,,,,,,,,,,,,,,,,,,,,,,,,,,,,,1.8950617214043934,0.928697800001828,189.76512869997532,None,ScrollUp,정답입니다,189.76512869997532,None,189.76512869997532,None,189.76512869997532,None,189.76512869997532,None,190.58561389998067,None,190.58561389998067,191.08558269997593,,,,,,,,,,,,,,,,108,2023-03-31_17h45.42.362,FishGame,2022.1.1,59.926745539591764,
,30,넌 인기없어,4,Orange,B,3,3.3,ScrollUp,ScrollDown,Orange.png,1,Negative,Congruent,,,,,0,0,0,0,,,,,,,,,,,,,0,29,29,29,,,,,,,,,,,,,,,,,,,,,,,,,,,,,,,,,,,,,,,,,,,,,,,,,,,,,,,,,,,,,,,,,,,,,,,,,,,,,,,,,2,0.8640724999713711,191.7101227999956,None,ScrollUp,정답입니다,191.7101227999956,None,191.7101227999956,None,191.7101227999956,None,191.7101227999956,None,192.46896459997515,None,192.46896459997515,192.96909689999302,,,,,,,,,,,,,,,,108,2023-03-31_17h45.42.362,FishGame,2022.1.1,59.926745539591764,
,31,넌 익살스러워,3,Green,A,4.708333333333334,4.833333333333333,ScrollDown,ScrollUp,Green.png,1,Neutral,Neutral,,,,,0,0,0,0,,,,,,,,,,,,,0,30,30,30,,,,,,,,,,,,,,,,,,,,,,,,,,,,,,,,,,,,,,,,,,,,,,,,,,,,,,,,,,,,,,,,,,,,,,,,,,,,,,,,,1.0216049253940582,0.7334921000001486,193.59327279997524,None,ScrollDown,정답입니다,193.59327279997524,None,193.59327279997524,None,193.59327279997524,None,193.59327279997524,None,194.22133329999633,None,194.22133329999633,194.72138919998542,,,,,,,,,,,,,,,,108,2023-03-31_17h45.42.362,FishGame,2022.1.1,59.926745539591764,
,32,넌 이기적이야,5,Orange,B,2.291666666666667,2.333333333333333,ScrollUp,ScrollDown,Orange.png,1,Negative,Congruent,,,,,0,0,0,0,,,,,,,,,,,,,0,31,31,31,,,,,,,,,,,,,,,,,,,,,,,,,,,,,,,,,,,,,,,,,,,,,,,,,,,,,,,,,,,,,,,,,,,,,,,,,,,,,,,,,1.9104938358068466,0.6952958000183571,195.34326629998395,None,ScrollUp,정답입니다,195.34326629998395,None,195.34326629998395,None,195.34326629998395,None,195.34326629998395,None,195.93788249997306,None,195.93788249997306,196.43830139999045,,,,,,,,,,,,,,,,108,2023-03-31_17h45.42.362,FishGame,2022.1.1,59.926745539591764,
,33,나를 데려가줘,6,Orange,B,0,0,ScrollDown,ScrollUp,Orange.png,1,NonTarget,NonTarget,,,,,0,0,0,0,,,,,,,,,,,,,0,32,32,32,,,,,,,,,,,,,,,,,,,,,,,,,,,,,,,,,,,,,,,,,,,,,,,,,,,,,,,,,,,,,,,,,,,,,,,,,,,,,,,,,1.9382716119289398,0.8791218000114895,197.06200489998446,None,ScrollUp,오답입니다,197.06200489998446,None,197.06200489998446,None,197.06200489998446,None,197.06200489998446,None,197.83546819997719,None,197.83546819997719,198.33542759998818,,,,,,,,,,,,,,,,108,2023-03-31_17h45.42.362,FishGame,2022.1.1,59.926745539591764,
,34,넌 기회주의자야,5,Green,A,2.875,2.133333333333333,ScrollDown,ScrollUp,Green.png,1,Negative,Incongruent,,,,,0,0,0,0,,,,,,,,,,,,,0,33,33,33,,,,,,,,,,,,,,,,,,,,,,,,,,,,,,,,,,,,,,,,,,,,,,,,,,,,,,,,,,,,,,,,,,,,,,,,,,,,,,,,,1.0586419602235158,0.8025266000186093,198.95383709997986,None,ScrollDown,정답입니다,198.95383709997986,None,198.95383709997986,None,198.95383709997986,None,198.95383709997986,None,199.65461039997172,None,199.65461039997172,200.1545172999904,,,,,,,,,,,,,,,,108,2023-03-31_17h45.42.362,FishGame,2022.1.1,59.926745539591764,
,1,넌 미성숙해,4,Green,A,3,3.2,ScrollDown,ScrollUp,Green.png,2,Negative,Incongruent,,,,,0,0,0,0,,,,,,,,,,,,,,,,,0,0,0,0,,,,,,,,,,,,,,,,,,,,,,,,,,,,,,,,,,,,233.07030229998054,234.57045079997624,234.603801499994,235.55376529999194,235.60377289997996,236.5542745999992,236.5542745999992,None,,,,,,,,,,,,,,,,,,,,,,,,,,,,,,,,,,1.0910493781169255,0.8703283999930136,237.65638359999866,None,ScrollDown,정답입니다,237.65638359999866,None,237.65638359999866,None,237.65638359999866,None,237.65638359999866,None,238.41787989999284,None,238.41787989999284,238.91791319998447,200.65452469998854,None,200.65452469998854,None,0.009259259,-0.22870371,1,0,0,0.016159110004082322,None,230.65364989999216,None,,,108,2023-03-31_17h45.42.362,FishGame,2022.1.1,59.926745539591764,
,2,넌 반사회적이야,5,Orange,B,2.416666666666667,2.033333333333333,ScrollUp,ScrollDown,Orange.png,2,Negative,Congruent,,,,,0,0,0,0,,,,,,,,,,,,,,,,,0,1,1,1,,,,,,,,,,,,,,,,,,,,,,,,,,,,,,,,,,,,,,,,,,,,,,,,,,,,,,,,,,,,,,,,,,,,,,,,,,,,,1.8765432039896648,0.7649613000103272,239.53740909998305,None,ScrollUp,정답입니다,239.53740909998305,None,239.53740909998305,None,239.53740909998305,None,239.53740909998305,None,240.20122429999174,None,240.20122429999174,240.70374949998222,,,,,,,,,,,,,,,,108,2023-03-31_17h45.42.362,FishGame,2022.1.1,59.926745539591764,
,3,넌 유능해,2,Green,A,6.208333333333333,4.433333333333334,ScrollDown,ScrollUp,Green.png,2,Positive,Congruent,,,,,0,0,0,0,,,,,,,,,,,,,,,,,0,2,2,2,,,,,,,,,,,,,,,,,,,,,,,,,,,,,,,,,,,,,,,,,,,,,,,,,,,,,,,,,,,,,,,,,,,,,,,,,,,,,1.060185174147288,0.8794609000033233,241.32439239998348,None,ScrollDown,정답입니다,241.32439239998348,None,241.32439239998348,None,241.32439239998348,None,241.32439239998348,None,242.10360529998434,None,242.10360529998434,242.60356719998526,,,,,,,,,,,,,,,,108,2023-03-31_17h45.42.362,FishGame,2022.1.1,59.926745539591764,
,4,넌 능숙해,2,Orange,B,5.666666666666667,4.733333333333333,ScrollUp,ScrollDown,Orange.png,2,Positive,Incongruent,,,,,0,0,0,0,,,,,,,,,,,,,,,,,0,3,3,3,,,,,,,,,,,,,,,,,,,,,,,,,,,,,,,,,,,,,,,,,,,,,,,,,,,,,,,,,,,,,,,,,,,,,,,,,,,,,1.7083333333333335,0.7149801999912597,243.22188749999623,None,ScrollUp,정답입니다,243.22188749999623,None,243.22188749999623,None,243.22188749999623,None,243.22188749999623,None,243.83674699999392,None,243.83674699999392,244.33673579999595,,,,,,,,,,,,,,,,108,2023-03-31_17h45.42.362,FishGame,2022.1.1,59.926745539591764,
,5,넌 진부해,4,Orange,B,2.458333333333333,3.166666666666667,ScrollUp,ScrollDown,Orange.png,2,Negative,Congruent,,,,,0,0,0,0,,,,,,,,,,,,,,,,,0,4,4,4,,,,,,,,,,,,,,,,,,,,,,,,,,,,,,,,,,,,,,,,,,,,,,,,,,,,,,,,,,,,,,,,,,,,,,,,,,,,,1.7746913582086563,0.744646199978888,244.96594129997538,None,ScrollUp,정답입니다,244.96594129997538,None,244.96594129997538,None,244.96594129997538,None,244.96594129997538,None,245.60108519997448,None,245.60108519997448,246.10123839997686,,,,,,,,,,,,,,,,108,2023-03-31_17h45.42.362,FishGame,2022.1.1,59.926745539591764,
,6,나를 보내줘,6,Green,A,0,0,ScrollUp,ScrollDown,Green.png,2,NonTarget,NonTarget,,,,,0,0,0,0,,,,,,,,,,,,,,,,,0,5,5,5,,,,,,,,,,,,,,,,,,,,,,,,,,,,,,,,,,,,,,,,,,,,,,,,,,,,,,,,,,,,,,,,,,,,,,,,,,,,,1.6080246890584626,1.0481615999888163,246.7150594999839,None,ScrollUp,정답입니다,246.7150594999839,None,246.7150594999839,None,246.7150594999839,None,246.7150594999839,None,247.66775389999384,None,247.66775389999384,248.1701342999877,,,,,,,,,,,,,,,,108,2023-03-31_17h45.42.362,FishGame,2022.1.1,59.926745539591764,
,7,넌 엄격해,3,Green,A,4.166666666666666,4.1,ScrollDown,ScrollUp,Green.png,2,Neutral,Neutral,,,,,0,0,0,0,,,,,,,,,,,,,,,,,0,6,6,6,,,,,,,,,,,,,,,,,,,,,,,,,,,,,,,,,,,,,,,,,,,,,,,,,,,,,,,,,,,,,,,,,,,,,,,,,,,,,1,0.831770199991297,248.79047029998037,None,ScrollDown,정답입니다,248.79047029998037,None,248.79047029998037,None,248.79047029998037,None,248.79047029998037,None,249.52020979998633,None,249.52020979998633,250.0233882999746,,,,,,,,,,,,,,,,108,2023-03-31_17h45.42.362,FishGame,2022.1.1,59.926745539591764,
,8,나를 보내줘,6,Green,A,0,0,ScrollUp,ScrollDown,Green.png,2,NonTarget,NonTarget,,,,,0,0,0,0,,,,,,,,,,,,,,,,,0,7,7,7,,,,,,,,,,,,,,,,,,,,,,,,,,,,,,,,,,,,,,,,,,,,,,,,,,,,,,,,,,,,,,,,,,,,,,,,,,,,,1.8919753183921177,1.031626599986339,250.63588889999664,None,ScrollUp,정답입니다,250.63588889999664,None,250.63588889999664,None,250.63588889999664,None,250.63588889999664,None,251.5700198999839,None,251.5700198999839,252.06992239999818,,,,,,,,,,,,,,,,108,2023-03-31_17h45.42.362,FishGame,2022.1.1,59.926745539591764,
,9,넌 대담해,3,Orange,B,4.875,4.866666666666666,ScrollUp,ScrollDown,Orange.png,2,Neutral,Neutral,,,,,0,0,0,0,,,,,,,,,,,,,,,,,0,8,8,8,,,,,,,,,,,,,,,,,,,,,,,,,,,,,,,,,,,,,,,,,,,,,,,,,,,,,,,,,,,,,,,,,,,,,,,,,,,,,1.6959876591960588,0.8807028000010177,252.69693139998708,None,ScrollUp,정답입니다,252.69693139998708,None,252.69693139998708,None,252.69693139998708,None,252.69693139998708,None,253.4678195999877,None,253.4678195999877,253.96984219999285,,,,,,,,,,,,,,,,108,2023-03-31_17h45.42.362,FishGame,2022.1.1,59.926745539591764,
,10,넌 꾸준해,1,Green,A,5.916666666666668,5.8,ScrollDown,ScrollUp,Green.png,2,Positive,Congruent,,,,,0,0,0,0,,,,,,,,,,,,,,,,,0,9,9,9,,,,,,,,,,,,,,,,,,,,,,,,,,,,,,,,,,,,,,,,,,,,,,,,,,,,,,,,,,,,,,,,,,,,,,,,,,,,,1,0.8456737000087742,254.59168309997767,None,ScrollDown,정답입니다,254.59168309997767,None,254.59168309997767,None,254.59168309997767,None,254.59168309997767,None,255.33652589999838,None,255.33652589999838,255.83655369997723,,,,,,,,,,,,,,,,108,2023-03-31_17h45.42.362,FishGame,2022.1.1,59.926745539591764,
,11,나를 데려가줘,6,Orange,B,0,0,ScrollDown,ScrollUp,Orange.png,2,NonTarget,NonTarget,,,,,0,0,0,0,,,,,,,,,,,,,,,,,0,10,10,10,,,,,,,,,,,,,,,,,,,,,,,,,,,,,,,,,,,,,,,,,,,,,,,,,,,,,,,,,,,,,,,,,,,,,,,,,,,,,1,1.3665281000139657,256.4555280999921,None,ScrollDown,정답입니다,256.4555280999921,None,256.4555280999921,None,256.4555280999921,None,256.4555280999921,None,257.7197328999755,None,257.7197328999755,258.21976169999107,,,,,,,,,,,,,,,,108,2023-03-31_17h45.42.362,FishGame,2022.1.1,59.926745539591764,
,12,넌 독선적이야,5,Green,A,2.458333333333333,1.933333333333333,ScrollDown,ScrollUp,Green.png,2,Negative,Incongruent,,,,,0,0,0,0,,,,,,,,,,,,,,,,,0,11,11,11,,,,,,,,,,,,,,,,,,,,,,,,,,,,,,,,,,,,,,,,,,,,,,,,,,,,,,,,,,,,,,,,,,,,,,,,,,,,,1,0.8969334999856073,258.8453586999967,None,ScrollDown,정답입니다,258.8453586999967,None,258.8453586999967,None,258.8453586999967,None,258.8453586999967,None,259.6363906999759,None,259.6363906999759,260.13642619998427,,,,,,,,,,,,,,,,108,2023-03-31_17h45.42.362,FishGame,2022.1.1,59.926745539591764,
,13,나를 보내줘,6,Green,A,0,0,ScrollUp,ScrollDown,Green.png,2,NonTarget,NonTarget,,,,,0,0,0,0,,,,,,,,,,,,,,,,,0,12,12,12,,,,,,,,,,,,,,,,,,,,,,,,,,,,,,,,,,,,,,,,,,,,,,,,,,,,,,,,,,,,,,,,,,,,,,,,,,,,,1.7299382785956063,1.047518899984425,260.7582220999757,None,ScrollUp,정답입니다,260.7582220999757,None,260.7582220999757,None,260.7582220999757,None,260.7582220999757,None,261.7030315999873,None,261.7030315999873,262.2029937999905,,,,,,,,,,,,,,,,108,2023-03-31_17h45.42.362,FishGame,2022.1.1,59.926745539591764,
,14,넌 책임감있어,1,Orange,B,6.347826086956522,6,ScrollUp,ScrollDown,Orange.png,2,Positive,Incongruent,,,,,0,0,0,0,,,,,,,,,,,,,,,,,0,13,13,13,,,,,,,,,,,,,,,,,,,,,,,,,,,,,,,,,,,,,,,,,,,,,,,,,,,,,,,,,,,,,,,,,,,,,,,,,,,,,1.7006172885497413,0.998379999975441,262.8256887999887,None,ScrollUp,정답입니다,262.8256887999887,None,262.8256887999887,None,262.8256887999887,None,262.8256887999887,None,263.7196717999759,None,263.7196717999759,264.2197180999792,,,,,,,,,,,,,,,,108,2023-03-31_17h45.42.362,FishGame,2022.1.1,59.926745539591764,
,15,넌 문학적이야,3,Green,A,4.708333333333334,4.333333333333333,ScrollDown,ScrollUp,Green.png,2,Neutral,Neutral,,,,,0,0,0,0,,,,,,,,,,,,,,,,,0,14,14,14,,,,,,,,,,,,,,,,,,,,,,,,,,,,,,,,,,,,,,,,,,,,,,,,,,,,,,,,,,,,,,,,,,,,,,,,,,,,,1.182098776102066,0.8619339999859221,264.84281849997933,None,ScrollDown,정답입니다,264.84281849997933,None,264.84281849997933,None,264.84281849997933,None,264.84281849997933,None,265.60298199998215,None,265.60298199998215,266.1029122999753,,,,,,,,,,,,,,,,108,2023-03-31_17h45.42.362,FishGame,2022.1.1,59.926745539591764,
,16,넌 재미있어,1,Orange,B,5.875,5.7,ScrollUp,ScrollDown,Orange.png,2,Positive,Incongruent,,,,,0,0,0,0,,,,,,,,,,,,,,,,,0,15,15,15,,,,,,,,,,,,,,,,,,,,,,,,,,,,,,,,,,,,,,,,,,,,,,,,,,,,,,,,,,,,,,,,,,,,,,,,,,,,,1.7978395173947017,1.2315709999820683,266.7212823999871,None,ScrollUp,정답입니다,266.7212823999871,None,266.7212823999871,None,266.7212823999871,None,266.7212823999871,None,267.8529375999933,None,267.8529375999933,268.3529427999747,,,,,,,,,,,,,,,,108,2023-03-31_17h45.42.362,FishGame,2022.1.1,59.926745539591764,
,17,나를 데려가줘,6,Orange,B,0,0,ScrollDown,ScrollUp,Orange.png,2,NonTarget,NonTarget,,,,,0,0,0,0,,,,,,,,,,,,,,,,,0,16,16,16,,,,,,,,,,,,,,,,,,,,,,,,,,,,,,,,,,,,,,,,,,,,,,,,,,,,,,,,,,,,,,,,,,,,,,,,,,,,,1.0617283880710602,1.1626999000145588,268.97631679999176,None,ScrollDown,정답입니다,268.97631679999176,None,268.97631679999176,None,268.97631679999176,None,268.97631679999176,None,270.0338662999857,None,270.0338662999857,270.5338508999848,,,,,,,,,,,,,,,,108,2023-03-31_17h45.42.362,FishGame,2022.1.1,59.926745539591764,
,18,넌 협력적이야,1,Green,A,5.625,5.633333333333334,ScrollDown,ScrollUp,Green.png,2,Positive,Congruent,,,,,0,0,0,0,,,,,,,,,,,,,,,,,0,17,17,17,,,,,,,,,,,,,,,,,,,,,,,,,,,,,,,,,,,,,,,,,,,,,,,,,,,,,,,,,,,,,,,,,,,,,,,,,,,,,1.1342592686414719,0.8173615999985486,271.15408279999974,None,ScrollDown,정답입니다,271.15408279999974,None,271.15408279999974,None,271.15408279999974,None,271.15408279999974,None,271.8696109999728,None,271.8696109999728,272.3696010999847,,,,,,,,,,,,,,,,108,2023-03-31_17h45.42.362,FishGame,2022.1.1,59.926745539591764,
,19,넌 평범해,3,Orange,B,4.333333333333332,4.233333333333333,ScrollUp,ScrollDown,Orange.png,2,Neutral,Neutral,,,,,0,0,0,0,,,,,,,,,,,,,,,,,0,18,18,18,,,,,,,,,,,,,,,,,,,,,,,,,,,,,,,,,,,,,,,,,,,,,,,,,,,,,,,,,,,,,,,,,,,,,,,,,,,,,1.6265432064731917,0.8926678999850992,272.99156999998377,None,ScrollUp,정답입니다,272.99156999998377,None,272.99156999998377,None,272.99156999998377,None,272.99156999998377,None,273.7793775999744,None,273.7793775999744,274.28609219999635,,,,,,,,,,,,,,,,108,2023-03-31_17h45.42.362,FishGame,2022.1.1,59.926745539591764,
,20,넌 오만해,5,Green,A,2.333333333333333,2,ScrollDown,ScrollUp,Green.png,2,Negative,Incongruent,,,,,0,0,0,0,,,,,,,,,,,,,,,,,0,19,19,19,,,,,,,,,,,,,,,,,,,,,,,,,,,,,,,,,,,,,,,,,,,,,,,,,,,,,,,,,,,,,,,,,,,,,,,,,,,,,1.0277777810891469,0.846253900002921,274.9044259999937,None,ScrollDown,정답입니다,274.9044259999937,None,274.9044259999937,None,274.9044259999937,None,274.9044259999937,None,275.6527493999747,None,275.6527493999747,276.1527426999819,,,,,,,,,,,,,,,,108,2023-03-31_17h45.42.362,FishGame,2022.1.1,59.926745539591764,
,21,넌 운이없어,4,Orange,B,3,3.466666666666667,ScrollUp,ScrollDown,Orange.png,2,Negative,Congruent,,,,,0,0,0,0,,,,,,,,,,,,,,,,,0,20,20,20,,,,,,,,,,,,,,,,,,,,,,,,,,,,,,,,,,,,,,,,,,,,,,,,,,,,,,,,,,,,,,,,,,,,,,,,,,,,,1.751543199022611,0.7970822000061162,276.77924909998546,None,ScrollUp,정답입니다,276.77924909998546,None,276.77924909998546,None,276.77924909998546,None,276.77924909998546,None,277.4670573999756,None,277.4670573999756,277.967018299998,,,,,,,,,,,,,,,,108,2023-03-31_17h45.42.362,FishGame,2022.1.1,59.926745539591764,
,22,넌 창조적이야,2,Orange,B,6.125,4.633333333333334,ScrollUp,ScrollDown,Orange.png,2,Positive,Incongruent,,,,,0,0,0,0,,,,,,,,,,,,,,,,,0,21,21,21,,,,,,,,,,,,,,,,,,,,,,,,,,,,,,,,,,,,,,,,,,,,,,,,,,,,,,,,,,,,,,,,,,,,,,,,,,,,,1.5617283955216408,0.7292633000179194,278.59452839998994,None,ScrollUp,정답입니다,278.59452839998994,None,278.59452839998994,None,278.59452839998994,None,278.59452839998994,None,279.21704669998144,None,279.21704669998144,279.719432199985,,,,,,,,,,,,,,,,108,2023-03-31_17h45.42.362,FishGame,2022.1.1,59.926745539591764,
,23,나를 보내줘,6,Green,A,0,0,ScrollUp,ScrollDown,Green.png,2,NonTarget,NonTarget,,,,,0,0,0,0,,,,,,,,,,,,,,,,,0,22,22,22,,,,,,,,,,,,,,,,,,,,,,,,,,,,,,,,,,,,,,,,,,,,,,,,,,,,,,,,,,,,,,,,,,,,,,,,,,,,,1.7145061641931534,1.0140721999923699,280.3370034999971,None,ScrollUp,정답입니다,280.3370034999971,None,280.3370034999971,None,280.3370034999971,None,280.3370034999971,None,281.2527486999752,None,281.2527486999752,281.75341710000066,,,,,,,,,,,,,,,,108,2023-03-31_17h45.42.362,FishGame,2022.1.1,59.926745539591764,
,24,넌 통찰력있어,2,Green,A,6.5,4.8,ScrollDown,ScrollUp,Green.png,2,Positive,Congruent,,,,,0,0,0,0,,,,,,,,,,,,,,,,,0,23,23,23,,,,,,,,,,,,,,,,,,,,,,,,,,,,,,,,,,,,,,,,,,,,,,,,,,,,,,,,,,,,,,,,,,,,,,,,,,,,,1,0.9814538999926299,282.39054649998434,None,ScrollDown,정답입니다,282.39054649998434,None,282.39054649998434,None,282.39054649998434,None,282.39054649998434,None,283.26922219997505,None,283.26922219997505,283.76924759999383,,,,,,,,,,,,,,,,108,2023-03-31_17h45.42.362,FishGame,2022.1.1,59.926745539591764,
,25,넌 경솔해,5,Orange,B,2.458333333333333,2.266666666666667,ScrollUp,ScrollDown,Orange.png,2,Negative,Congruent,,,,,0,0,0,0,,,,,,,,,,,,,,,,,0,24,24,24,,,,,,,,,,,,,,,,,,,,,,,,,,,,,,,,,,,,,,,,,,,,,,,,,,,,,,,,,,,,,,,,,,,,,,,,,,,,,1.7052469179034233,0.764640999987023,284.38982279997435,None,ScrollUp,정답입니다,284.38982279997435,None,284.38982279997435,None,284.38982279997435,None,284.38982279997435,None,285.0505203999928,None,285.0505203999928,285.5529068999749,,,,,,,,,,,,,,,,108,2023-03-31_17h45.42.362,FishGame,2022.1.1,59.926745539591764,
,26,넌 초조해,4,Green,A,2.916666666666667,3.133333333333333,ScrollDown,ScrollUp,Green.png,2,Negative,Incongruent,,,,,0,0,0,0,,,,,,,,,,,,,,,,,0,25,25,25,,,,,,,,,,,,,,,,,,,,,,,,,,,,,,,,,,,,,,,,,,,,,,,,,,,,,,,,,,,,,,,,,,,,,,,,,,,,,1.120370368162791,0.8130568999913521,286.17485979999765,None,ScrollDown,정답입니다,286.17485979999765,None,286.17485979999765,None,286.17485979999765,None,286.17485979999765,None,286.88376599998446,None,286.88376599998446,287.3858077999903,,,,,,,,,,,,,,,,108,2023-03-31_17h45.42.362,FishGame,2022.1.1,59.926745539591764,
,27,넌 무관심해,4,Orange,B,2.833333333333333,2.9,ScrollUp,ScrollDown,Orange.png,2,Negative,Congruent,,,,,0,0,0,0,,,,,,,,,,,,,,,,,0,26,26,26,,,,,,,,,,,,,,,,,,,,,,,,,,,,,,,,,,,,,,,,,,,,,,,,,,,,,,,,,,,,,,,,,,,,,,,,,,,,,1.7283950646718345,0.7810442000045441,288.0072522999835,None,ScrollUp,정답입니다,288.0072522999835,None,288.0072522999835,None,288.0072522999835,None,288.0072522999835,None,288.6834568999766,None,288.6834568999766,289.18344589998014,,,,,,,,,,,,,,,,108,2023-03-31_17h45.42.362,FishGame,2022.1.1,59.926745539591764,
,28,넌 감성적이야,3,Orange,B,4.125,4.166666666666667,ScrollUp,ScrollDown,Orange.png,2,Neutral,Neutral,,,,,0,0,0,0,,,,,,,,,,,,,,,,,0,27,27,27,,,,,,,,,,,,,,,,,,,,,,,,,,,,,,,,,,,,,,,,,,,,,,,,,,,,,,,,,,,,,,,,,,,,,,,,,,,,,1.5817901206513247,0.8463196000084281,289.8049679999822,None,ScrollUp,정답입니다,289.8049679999822,None,289.8049679999822,None,289.8049679999822,None,289.8049679999822,None,290.550327999983,None,290.550327999983,291.0532389,,,,,,,,,,,,,,,,108,2023-03-31_17h45.42.362,FishGame,2022.1.1,59.926745539591764,
,29,넌 배려심있어,1,Green,A,6.083333333333333,5.5,ScrollDown,ScrollUp,Green.png,2,Positive,Congruent,,,,,0,0,0,0,,,,,,,,,,,,,,,,,0,28,28,28,,,,,,,,,,,,,,,,,,,,,,,,,,,,,,,,,,,,,,,,,,,,,,,,,,,,,,,,,,,,,,,,,,,,,,,,,,,,,1.2160493830839794,0.7804471999988891,291.6723002999788,None,ScrollDown,정답입니다,291.6723002999788,None,291.6723002999788,None,291.6723002999788,None,291.6723002999788,None,292.35250459998497,None,292.35250459998497,292.8531640000001,,,,,,,,,,,,,,,,108,2023-03-31_17h45.42.362,FishGame,2022.1.1,59.926745539591764,
,30,넌 숨김없어,3,Green,A,4.5,4.933333333333334,ScrollDown,ScrollUp,Green.png,2,Neutral,Neutral,,,,,0,0,0,0,,,,,,,,,,,,,,,,,0,29,29,29,,,,,,,,,,,,,,,,,,,,,,,,,,,,,,,,,,,,,,,,,,,,,,,,,,,,,,,,,,,,,,,,,,,,,,,,,,,,,1.233024686574936,0.7315778999764007,293.47373939998215,None,ScrollDown,정답입니다,293.47373939998215,None,293.47373939998215,None,293.47373939998215,None,293.47373939998215,None,294.1023225999961,None,294.1023225999961,294.60231679998105,,,,,,,,,,,,,,,,108,2023-03-31_17h45.42.362,FishGame,2022.1.1,59.926745539591764,
,31,넌 훌륭해,2,Orange,B,5.916666666666667,4.033333333333333,ScrollUp,ScrollDown,Orange.png,2,Positive,Incongruent,,,,,0,0,0,0,,,,,,,,,,,,,,,,,0,30,30,30,,,,,,,,,,,,,,,,,,,,,,,,,,,,,,,,,,,,,,,,,,,,,,,,,,,,,,,,,,,,,,,,,,,,,,,,,,,,,1.8132716069618862,0.73348709999118,295.22473779998836,None,ScrollUp,정답입니다,295.22473779998836,None,295.22473779998836,None,295.22473779998836,None,295.22473779998836,None,295.8523709999863,None,295.8523709999863,296.35292739997385,,,,,,,,,,,,,,,,108,2023-03-31_17h45.42.362,FishGame,2022.1.1,59.926745539591764,
,32,넌 슬기로워,2,Green,A,6.166666666666667,4.1,ScrollDown,ScrollUp,Green.png,2,Positive,Congruent,,,,,0,0,0,0,,,,,,,,,,,,,,,,,0,31,31,31,,,,,,,,,,,,,,,,,,,,,,,,,,,,,,,,,,,,,,,,,,,,,,,,,,,,,,,,,,,,,,,,,,,,,,,,,,,,,1.1095678955316544,0.7261906999920029,296.98335450000013,None,ScrollDown,정답입니다,296.98335450000013,None,296.98335450000013,None,296.98335450000013,None,296.98335450000013,None,297.6001591999957,None,297.6001591999957,298.1021831999824,,,,,,,,,,,,,,,,108,2023-03-31_17h45.42.362,FishGame,2022.1.1,59.926745539591764,
,33,넌 냉혹해,5,Green,A,2.583333333333333,2.1,ScrollDown,ScrollUp,Green.png,2,Negative,Incongruent,,,,,0,0,0,0,,,,,,,,,,,,,,,,,0,32,32,32,,,,,,,,,,,,,,,,,,,,,,,,,,,,,,,,,,,,,,,,,,,,,,,,,,,,,,,,,,,,,,,,,,,,,,,,,,,,,1.0833333333333333,0.7648693000082858,298.72165799999493,None,ScrollDown,정답입니다,298.72165799999493,None,298.72165799999493,None,298.72165799999493,None,298.72165799999493,None,299.38555489998544,None,299.38555489998544,299.8855124999827,,,,,,,,,,,,,,,,108,2023-03-31_17h45.42.362,FishGame,2022.1.1,59.926745539591764,
,34,나를 데려가줘,6,Orange,B,0,0,ScrollDown,ScrollUp,Orange.png,2,NonTarget,NonTarget,,,,,0,0,0,0,,,,,,,,,,,,,,,,,0,33,33,33,,,,,,,,,,,,,,,,,,,,,,,,,,,,,,,,,,,,,,,,,,,,,,,,,,,,,,,,,,,,,,,,,,,,,,,,,,,,,1.2114197413126628,0.9311627999995835,300.50546059999033,None,ScrollDown,정답입니다,300.50546059999033,None,300.50546059999033,None,300.50546059999033,None,300.50546059999033,None,301.3356644999876,None,301.3356644999876,301.8355348999903,,,,,,,,,,,,,,,,108,2023-03-31_17h45.42.362,FishGame,2022.1.1,59.926745539591764,
,35,넌 편파적이야,5,Orange,B,2.125,2,ScrollUp,ScrollDown,Orange.png,2,Negative,Congruent,,,,,0,0,0,0,,,,,,,,,,,,,,,,,0,34,34,34,,,,,,,,,,,,,,,,,,,,,,,,,,,,,,,,,,,,,,,,,,,,,,,,,,,,,,,,,,,,,,,,,,,,,,,,,,,,,1.6975308607021966,0.8115132999955676,302.4603516999923,None,ScrollUp,정답입니다,302.4603516999923,None,302.4603516999923,None,302.4603516999923,None,302.4603516999923,None,303.1687505999871,None,303.1687505999871,303.6692569999723,,,,,,,,,,,,,,,,108,2023-03-31_17h45.42.362,FishGame,2022.1.1,59.926745539591764,
,36,넌 슬퍼,4,Green,A,2.583333333333333,3.066666666666667,ScrollDown,ScrollUp,Green.png,2,Negative,Incongruent,,,,,0,0,0,0,,,,,,,,,,,,,,,,,0,35,35,35,,,,,,,,,,,,,,,,,,,,,,,,,,,,,,,,,,,,,,,,,,,,,,,,,,,,,,,,,,,,,,,,,,,,,,,,,,,,,1.2206790000200272,0.6779842000105418,304.29363219998777,None,ScrollDown,정답입니다,304.29363219998777,None,304.29363219998777,None,304.29363219998777,None,304.29363219998777,None,304.8688756999909,None,304.8688756999909,305.36869159998605,,,,,,,,,,,,,,,,108,2023-03-31_17h45.42.362,FishGame,2022.1.1,59.926745539591764,
,37,나를 데려가줘,6,Orange,B,0,0,ScrollDown,ScrollUp,Orange.png,2,NonTarget,NonTarget,,,,,0,0,0,0,,,,,,,,,,,,,,,,,0,36,36,36,,,,,,,,,,,,,,,,,,,,,,,,,,,,,,,,,,,,,,,,,,,,,,,,,,,,,,,,,,,,,,,,,,,,,,,,,,,,,1.2222222139437993,0.8797216000093613,305.98726869997336,None,ScrollDown,정답입니다,305.98726869997336,None,305.98726869997336,None,305.98726869997336,None,305.98726869997336,None,306.7691009999835,None,306.7691009999835,307.26870579997194,,,,,,,,,,,,,,,,108,2023-03-31_17h45.42.362,FishGame,2022.1.1,59.926745539591764,
,38,넌 친절해,1,Orange,B,6.041666666666667,5.533333333333333,ScrollUp,ScrollDown,Orange.png,2,Positive,Incongruent,,,,,0,0,0,0,,,,,,,,,,,,,,,,,0,37,37,37,,,,,,,,,,,,,,,,,,,,,,,,,,,,,,,,,,,,,,,,,,,,,,,,,,,,,,,,,,,,,,,,,,,,,,,,,,,,,1.7083333333333335,1.2958233999961521,307.8913780999719,None,ScrollUp,정답입니다,307.8913780999719,None,307.8913780999719,None,307.8913780999719,None,307.8913780999719,None,309.08542279998073,None,309.08542279998073,309.5853470999864,,,,,,,,,,,,,,,,108,2023-03-31_17h45.42.362,FishGame,2022.1.1,59.926745539591764,
,1,넌 엉성해,4,Green,A,3,3.3,ScrollDown,ScrollUp,Green.png,3,Negative,Incongruent,,,,,0,0,0,0,,,,,,,,,,,,,,,,,,,,,0,0,0,0,,,,,,,,,,,,,,,,,,,,,,,,,,,,,,,,341.65130739999586,343.15146339999046,343.18477749999147,344.13476189997164,344.1847235999885,345.1347684999928,345.12158549999003,None,,,,,,,,,,,,,,,,,,,,,,,,,,,,,,,,,,1.1141975373029709,0.7723821999970824,346.2278516999795,None,ScrollDown,정답입니다,346.2278516999795,None,346.2278516999795,None,346.2278516999795,None,346.2278516999795,None,346.90134469998884,None,346.90134469998884,347.40111129998695,310.08854899997823,None,310.08854899997823,None,-0.05925926,-0.14814815,1,0,0,0.016429609997430816,None,340.10154429997783,None,,,108,2023-03-31_17h45.42.362,FishGame,2022.1.1,59.926745539591764,
,2,나를 보내줘,6,Green,A,0,0,ScrollUp,ScrollDown,Green.png,3,NonTarget,NonTarget,,,,,0,0,0,0,,,,,,,,,,,,,,,,,,,,,0,1,1,1,,,,,,,,,,,,,,,,,,,,,,,,,,,,,,,,,,,,,,,,,,,,,,,,,,,,,,,,,,,,,,,,,,,,,,,,,1.9799382885297139,1.298258299997542,348.01770859997487,None,ScrollUp,정답입니다,348.01770859997487,None,348.01770859997487,None,348.01770859997487,None,348.01770859997487,None,349.2177823999955,None,349.2177823999955,349.7177590999927,,,,,,,,,,,,,,,,108,2023-03-31_17h45.42.362,FishGame,2022.1.1,59.926745539591764,
,3,넌 활발해,1,Orange,B,5.666666666666667,5.6,ScrollUp,ScrollDown,Orange.png,3,Positive,Incongruent,,,,,0,0,0,0,,,,,,,,,,,,,,,,,,,,,0,2,2,2,,,,,,,,,,,,,,,,,,,,,,,,,,,,,,,,,,,,,,,,,,,,,,,,,,,,,,,,,,,,,,,,,,,,,,,,,1.6682098706563315,0.8123116999922786,350.3408830999979,None,ScrollUp,정답입니다,350.3408830999979,None,350.3408830999979,None,350.3408830999979,None,350.3408830999979,None,351.0511323999963,None,351.0511323999963,351.55113869998604,,,,,,,,,,,,,,,,108,2023-03-31_17h45.42.362,FishGame,2022.1.1,59.926745539591764,
,4,넌 논리적이야,2,Green,A,5.666666666666666,4.633333333333334,ScrollDown,ScrollUp,Green.png,3,Positive,Congruent,,,,,0,0,0,0,,,,,,,,,,,,,,,,,,,,,0,3,3,3,,,,,,,,,,,,,,,,,,,,,,,,,,,,,,,,,,,,,,,,,,,,,,,,,,,,,,,,,,,,,,,,,,,,,,,,,1.0817901194095612,0.8628341000003275,352.1754870999721,None,ScrollDown,정답입니다,352.1754870999721,None,352.1754870999721,None,352.1754870999721,None,352.1754870999721,None,352.9320635999902,None,352.9320635999902,353.43204439998954,,,,,,,,,,,,,,,,108,2023-03-31_17h45.42.362,FishGame,2022.1.1,59.926745539591764,
,5,넌 과묵해,3,Green,A,3.875,4.4,ScrollDown,ScrollUp,Green.png,3,Neutral,Neutral,,,,,0,0,0,0,,,,,,,,,,,,,,,,,,,,,0,4,4,4,,,,,,,,,,,,,,,,,,,,,,,,,,,,,,,,,,,,,,,,,,,,,,,,,,,,,,,,,,,,,,,,,,,,,,,,,1.3194444427887597,0.7669808999926317,354.04852499999106,None,ScrollDown,정답입니다,354.04852499999106,None,354.04852499999106,None,354.04852499999106,None,354.04852499999106,None,354.715452799981,None,354.715452799981,355.21776849997696,,,,,,,,,,,,,,,,108,2023-03-31_17h45.42.362,FishGame,2022.1.1,59.926745539591764,
,6,나를 데려가줘,6,Orange,B,0,0,ScrollDown,ScrollUp,Orange.png,3,NonTarget,NonTarget,,,,,0,0,0,0,,,,,,,,,,,,,,,,,,,,,0,5,5,5,,,,,,,,,,,,,,,,,,,,,,,,,,,,,,,,,,,,,,,,,,,,,,,,,,,,,,,,,,,,,,,,,,,,,,,,,1.1481481442848842,0.9650380999955814,355.8362739000004,None,ScrollDown,정답입니다,355.8362739000004,None,355.8362739000004,None,355.8362739000004,None,355.8362739000004,None,356.70109359998605,None,356.70109359998605,357.2009798999934,,,,,,,,,,,,,,,,108,2023-03-31_17h45.42.362,FishGame,2022.1.1,59.926745539591764,
,7,넌 미숙해,4,Orange,B,3,3,ScrollUp,ScrollDown,Orange.png,3,Negative,Congruent,,,,,0,0,0,0,,,,,,,,,,,,,,,,,,,,,0,6,6,6,,,,,,,,,,,,,,,,,,,,,,,,,,,,,,,,,,,,,,,,,,,,,,,,,,,,,,,,,,,,,,,,,,,,,,,,,1.5154320988804102,0.8479895000054967,357.8192632999853,None,NoResponse,무응답입니다,357.8192632999853,None,357.8192632999853,None,357.8192632999853,None,357.8192632999853,None,358.56763379997574,None,358.56763379997574,359.067633699975,,,,,,,,,,,,,,,,108,2023-03-31_17h45.42.362,FishGame,2022.1.1,59.926745539591764,
,8,나를 보내줘,6,Green,A,0,0,ScrollUp,ScrollDown,Green.png,3,NonTarget,NonTarget,,,,,0,0,0,0,,,,,,,,,,,,,,,,,,,,,0,7,7,7,,,,,,,,,,,,,,,,,,,,,,,,,,,,,,,,,,,,,,,,,,,,,,,,,,,,,,,,,,,,,,,,,,,,,,,,,1.7762345721324284,1.1468082000210416,359.6902483999729,None,ScrollUp,정답입니다,359.6902483999729,None,359.6902483999729,None,359.6902483999729,None,359.6902483999729,None,360.73425509998924,None,360.73425509998924,361.2346681999916,,,,,,,,,,,,,,,,108,2023-03-31_17h45.42.362,FishGame,2022.1.1,59.926745539591764,
,9,넌 자신만만해,3,Orange,B,4.833333333333334,4.333333333333333,ScrollUp,ScrollDown,Orange.png,3,Neutral,Neutral,,,,,0,0,0,0,,,,,,,,,,,,,,,,,,,,,0,8,8,8,,,,,,,,,,,,,,,,,,,,,,,,,,,,,,,,,,,,,,,,,,,,,,,,,,,,,,,,,,,,,,,,,,,,,,,,,1.8209876517454784,0.814847000001464,361.8532043999876,None,ScrollUp,정답입니다,361.8532043999876,None,361.8532043999876,None,361.8532043999876,None,361.8532043999876,None,362.5675598999951,None,362.5675598999951,363.0674260999949,,,,,,,,,,,,,,,,108,2023-03-31_17h45.42.362,FishGame,2022.1.1,59.926745539591764,
,10,넌 탐욕스러워,5,Green,A,2.25,2.1,ScrollDown,ScrollUp,Green.png,3,Negative,Incongruent,,,,,0,0,0,0,,,,,,,,,,,,,,,,,,,,,0,9,9,9,,,,,,,,,,,,,,,,,,,,,,,,,,,,,,,,,,,,,,,,,,,,,,,,,,,,,,,,,,,,,,,,,,,,,,,,,1.214506169160207,0.8294560000067577,363.6877545999887,None,ScrollDown,정답입니다,363.6877545999887,None,363.6877545999887,None,363.6877545999887,None,363.6877545999887,None,364.41540589998476,None,364.41540589998476,364.9174162999843,,,,,,,,,,,,,,,,108,2023-03-31_17h45.42.362,FishGame,2022.1.1,59.926745539591764,
,11,넌 인기있어,2,Green,A,5.458333333333333,4.5,ScrollDown,ScrollUp,Green.png,3,Positive,Congruent,,,,,0,0,0,0,,,,,,,,,,,,,,,,,,,,,0,10,10,10,,,,,,,,,,,,,,,,,,,,,,,,,,,,,,,,,,,,,,,,,,,,,,,,,,,,,,,,,,,,,,,,,,,,,,,,,1.0725308855374653,0.8647944999975152,365.5336314999731,None,ScrollDown,정답입니다,365.5336314999731,None,365.5336314999731,None,365.5336314999731,None,365.5336314999731,None,366.3007429999998,None,366.3007429999998,366.80131309997523,,,,,,,,,,,,,,,,108,2023-03-31_17h45.42.362,FishGame,2022.1.1,59.926745539591764,
,12,나를 데려가줘,6,Orange,B,0,0,ScrollDown,ScrollUp,Orange.png,3,NonTarget,NonTarget,,,,,0,0,0,0,,,,,,,,,,,,,,,,,,,,,0,11,11,11,,,,,,,,,,,,,,,,,,,,,,,,,,,,,,,,,,,,,,,,,,,,,,,,,,,,,,,,,,,,,,,,,,,,,,,,,1.0540123681227367,0.9964155000052415,367.42382719999296,None,ScrollDown,정답입니다,367.42382719999296,None,367.42382719999296,None,367.42382719999296,None,367.42382719999296,None,368.31508949998533,None,368.31508949998533,368.81525169999804,,,,,,,,,,,,,,,,108,2023-03-31_17h45.42.362,FishGame,2022.1.1,59.926745539591764,
,13,넌 뛰어나,2,Orange,B,6.166666666666667,4,ScrollUp,ScrollDown,Orange.png,3,Positive,Incongruent,,,,,0,0,0,0,,,,,,,,,,,,,,,,,,,,,0,12,12,12,,,,,,,,,,,,,,,,,,,,,,,,,,,,,,,,,,,,,,,,,,,,,,,,,,,,,,,,,,,,,,,,,,,,,,,,,1.5570987661679587,0.8312760000117123,369.4430455999973,None,ScrollUp,정답입니다,369.4430455999973,None,369.4430455999973,None,369.4430455999973,None,369.4430455999973,None,370.16510109999217,None,370.16510109999217,370.66746639998746,,,,,,,,,,,,,,,,108,2023-03-31_17h45.42.362,FishGame,2022.1.1,59.926745539591764,
,14,넌 낙관적이야,1,Green,A,5.75,5.8,ScrollDown,ScrollUp,Green.png,3,Positive,Congruent,,,,,0,0,0,0,,,,,,,,,,,,,,,,,,,,,0,13,13,13,,,,,,,,,,,,,,,,,,,,,,,,,,,,,,,,,,,,,,,,,,,,,,,,,,,,,,,,,,,,,,,,,,,,,,,,,1.115740751226743,0.7814099999959581,371.2881299999717,None,ScrollDown,정답입니다,371.2881299999717,None,371.2881299999717,None,371.2881299999717,None,371.2881299999717,None,371.96749869998894,None,371.96749869998894,372.46728129999246,,,,,,,,,,,,,,,,108,2023-03-31_17h45.42.362,FishGame,2022.1.1,59.926745539591764,
,15,넌 산만해,4,Orange,B,2.695652173913043,3.033333333333333,ScrollUp,ScrollDown,Orange.png,3,Negative,Congruent,,,,,0,0,0,0,,,,,,,,,,,,,,,,,,,,,0,14,14,14,,,,,,,,,,,,,,,,,,,,,,,,,,,,,,,,,,,,,,,,,,,,,,,,,,,,,,,,,,,,,,,,,,,,,,,,,1.604938273628553,0.847969299997203,373.08935979998205,None,ScrollUp,정답입니다,373.08935979998205,None,373.08935979998205,None,373.08935979998205,None,373.08935979998205,None,373.8339535999985,None,373.8339535999985,374.33451459999196,,,,,,,,,,,,,,,,108,2023-03-31_17h45.42.362,FishGame,2022.1.1,59.926745539591764,
,16,나를 보내줘,6,Green,A,0,0,ScrollUp,ScrollDown,Green.png,3,NonTarget,NonTarget,,,,,0,0,0,0,,,,,,,,,,,,,,,,,,,,,0,15,15,15,,,,,,,,,,,,,,,,,,,,,,,,,,,,,,,,,,,,,,,,,,,,,,,,,,,,,,,,,,,,,,,,,,,,,,,,,1.6604938258727393,0.981236000021454,374.95577029997366,None,ScrollUp,정답입니다,374.95577029997366,None,374.95577029997366,None,374.95577029997366,None,374.95577029997366,None,375.8318024999753,None,375.8318024999753,376.3342311999877,,,,,,,,,,,,,,,,108,2023-03-31_17h45.42.362,FishGame,2022.1.1,59.926745539591764,
,17,넌 교활해,5,Orange,B,2.333333333333333,2.133333333333333,ScrollUp,ScrollDown,Orange.png,3,Negative,Congruent,,,,,0,0,0,0,,,,,,,,,,,,,,,,,,,,,0,16,16,16,,,,,,,,,,,,,,,,,,,,,,,,,,,,,,,,,,,,,,,,,,,,,,,,,,,,,,,,,,,,,,,,,,,,,,,,,1.5879629639287791,0.7629568999982439,376.95502189997933,None,ScrollUp,정답입니다,376.95502189997933,None,376.95502189997933,None,376.95502189997933,None,376.95502189997933,None,377.6170984999917,None,377.6170984999917,378.11716169997817,,,,,,,,,,,,,,,,108,2023-03-31_17h45.42.362,FishGame,2022.1.1,59.926745539591764,
,18,나를 보내줘,6,Green,A,0,0,ScrollUp,ScrollDown,Green.png,3,NonTarget,NonTarget,,,,,0,0,0,0,,,,,,,,,,,,,,,,,,,,,0,17,17,17,,,,,,,,,,,,,,,,,,,,,,,,,,,,,,,,,,,,,,,,,,,,,,,,,,,,,,,,,,,,,,,,,,,,,,,,,1.6481481517354646,1.0293624000041746,378.7420001999999,None,ScrollUp,정답입니다,378.7420001999999,None,378.7420001999999,None,378.7420001999999,None,378.7420001999999,None,379.66714849998243,None,379.66714849998243,380.1837003999972,,,,,,,,,,,,,,,,108,2023-03-31_17h45.42.362,FishGame,2022.1.1,59.926745539591764,
,19,넌 불친절해,5,Orange,B,2.208333333333333,2.033333333333333,ScrollUp,ScrollDown,Orange.png,3,Negative,Congruent,,,,,0,0,0,0,,,,,,,,,,,,,,,,,,,,,0,18,18,18,,,,,,,,,,,,,,,,,,,,,,,,,,,,,,,,,,,,,,,,,,,,,,,,,,,,,,,,,,,,,,,,,,,,,,,,,1.6111111169060073,0.9644507000048179,380.78916789998766,None,ScrollUp,정답입니다,380.78916789998766,None,380.78916789998766,None,380.78916789998766,None,380.78916789998766,None,381.6503587999905,None,381.6503587999905,382.16706639999757,,,,,,,,,,,,,,,,108,2023-03-31_17h45.42.362,FishGame,2022.1.1,59.926745539591764,
,20,넌 지적이야,2,Orange,B,5.75,4.366666666666666,ScrollUp,ScrollDown,Orange.png,3,Positive,Incongruent,,,,,0,0,0,0,,,,,,,,,,,,,,,,,,,,,0,19,19,19,,,,,,,,,,,,,,,,,,,,,,,,,,,,,,,,,,,,,,,,,,,,,,,,,,,,,,,,,,,,,,,,,,,,,,,,,1.7422839403152466,0.8647423999791499,382.77364069997566,None,ScrollUp,정답입니다,382.77364069997566,None,382.77364069997566,None,382.77364069997566,None,382.77364069997566,None,383.53376959997695,None,383.53376959997695,384.03370409997297,,,,,,,,,,,,,,,,108,2023-03-31_17h45.42.362,FishGame,2022.1.1,59.926745539591764,
,21,넌 우유부단해,4,Green,A,2.666666666666667,3.166666666666667,ScrollDown,ScrollUp,Green.png,3,Negative,Incongruent,,,,,0,0,0,0,,,,,,,,,,,,,,,,,,,,,0,20,20,20,,,,,,,,,,,,,,,,,,,,,,,,,,,,,,,,,,,,,,,,,,,,,,,,,,,,,,,,,,,,,,,,,,,,,,,,,1.060185174147288,0.8478737999976147,384.6542610999895,None,ScrollDown,정답입니다,384.6542610999895,None,384.6542610999895,None,384.6542610999895,None,384.6542610999895,None,385.39825549998204,None,385.39825549998204,385.900813699991,,,,,,,,,,,,,,,,108,2023-03-31_17h45.42.362,FishGame,2022.1.1,59.926745539591764,
,22,나를 데려가줘,6,Orange,B,0,0,ScrollDown,ScrollUp,Orange.png,3,NonTarget,NonTarget,,,,,0,0,0,0,,,,,,,,,,,,,,,,,,,,,0,21,21,21,,,,,,,,,,,,,,,,,,,,,,,,,,,,,,,,,,,,,,,,,,,,,,,,,,,,,,,,,,,,,,,,,,,,,,,,,1.2191358109315236,1.2308095000043977,386.51992699998664,None,ScrollDown,정답입니다,386.51992699998664,None,386.51992699998664,None,386.51992699998664,None,386.51992699998664,None,387.65034259998356,None,387.65034259998356,388.15029269998195,,,,,,,,,,,,,,,,108,2023-03-31_17h45.42.362,FishGame,2022.1.1,59.926745539591764,
,23,넌 성실해,1,Orange,B,6.041666666666666,5.7,ScrollUp,ScrollDown,Orange.png,3,Positive,Incongruent,,,,,0,0,0,0,,,,,,,,,,,,,,,,,,,,,0,22,22,22,,,,,,,,,,,,,,,,,,,,,,,,,,,,,,,,,,,,,,,,,,,,,,,,,,,,,,,,,,,,,,,,,,,,,,,,,1.7299382785956063,0.9127467999933288,388.76874689999386,None,ScrollUp,정답입니다,388.76874689999386,None,388.76874689999386,None,388.76874689999386,None,388.76874689999386,None,389.58368309997604,None,389.58368309997604,390.0837312999938,,,,,,,,,,,,,,,,108,2023-03-31_17h45.42.362,FishGame,2022.1.1,59.926745539591764,
,24,넌 현실주의적이야,3,Green,A,4.625,4.4,ScrollDown,ScrollUp,Green.png,3,Neutral,Neutral,,,,,0,0,0,0,,,,,,,,,,,,,,,,,,,,,0,23,23,23,,,,,,,,,,,,,,,,,,,,,,,,,,,,,,,,,,,,,,,,,,,,,,,,,,,,,,,,,,,,,,,,,,,,,,,,,1.0216049253940582,0.8293496000114828,390.70676199998707,None,ScrollDown,정답입니다,390.70676199998707,None,390.70676199998707,None,390.70676199998707,None,390.70676199998707,None,391.43351629999233,None,391.43351629999233,391.9335261999804,,,,,,,,,,,,,,,,108,2023-03-31_17h45.42.362,FishGame,2022.1.1,59.926745539591764,
,25,넌 진실돼,1,Green,A,6.625,5.566666666666666,ScrollDown,ScrollUp,Green.png,3,Positive,Congruent,,,,,0,0,0,0,,,,,,,,,,,,,,,,,,,,,0,24,24,24,,,,,,,,,,,,,,,,,,,,,,,,,,,,,,,,,,,,,,,,,,,,,,,,,,,,,,,,,,,,,,,,,,,,,,,,,1.2993827114502587,0.7794886000046972,392.55297229997814,None,ScrollDown,정답입니다,392.55297229997814,None,392.55297229997814,None,392.55297229997814,None,392.55297229997814,None,393.2335353999806,None,393.2335353999806,393.73682629998075,,,,,,,,,,,,,,,,108,2023-03-31_17h45.42.362,FishGame,2022.1.1,59.926745539591764,
,26,넌 천진난만해,3,Orange,B,4.958333333333334,4.833333333333333,ScrollUp,ScrollDown,Orange.png,3,Neutral,Neutral,,,,,0,0,0,0,,,,,,,,,,,,,,,,,,,,,0,25,25,25,,,,,,,,,,,,,,,,,,,,,,,,,,,,,,,,,,,,,,,,,,,,,,,,,,,,,,,,,,,,,,,,,,,,,,,,,1.7114197611808777,0.7817560999828856,394.3566831999924,None,ScrollUp,정답입니다,394.3566831999924,None,394.3566831999924,None,394.3566831999924,None,394.3566831999924,None,395.03139399999054,None,395.03139399999054,395.533414799982,,,,,,,,,,,,,,,,108,2023-03-31_17h45.42.362,FishGame,2022.1.1,59.926745539591764,
,27,넌 교양없어,5,Green,A,2.416666666666667,2.2,ScrollDown,ScrollUp,Green.png,3,Negative,Incongruent,,,,,0,0,0,0,,,,,,,,,,,,,,,,,,,,,0,26,26,26,,,,,,,,,,,,,,,,,,,,,,,,,,,,,,,,,,,,,,,,,,,,,,,,,,,,,,,,,,,,,,,,,,,,,,,,,1.10030863682429,0.79617529999814,396.15250329999253,None,ScrollDown,정답입니다,396.15250329999253,None,396.15250329999253,None,396.15250329999253,None,396.15250329999253,None,396.8501632999978,None,396.8501632999978,397.3500706999912,,,,,,,,,,,,,,,,108,2023-03-31_17h45.42.362,FishGame,2022.1.1,59.926745539591764,
,28,나를 보내줘,6,Green,A,0,0,ScrollUp,ScrollDown,Green.png,3,NonTarget,NonTarget,,,,,0,0,0,0,,,,,,,,,,,,,,,,,,,,,0,27,27,27,,,,,,,,,,,,,,,,,,,,,,,,,,,,,,,,,,,,,,,,,,,,,,,,,,,,,,,,,,,,,,,,,,,,,,,,,1.8117283930381138,0.9461611000006087,397.96698019999894,None,ScrollUp,정답입니다,397.96698019999894,None,397.96698019999894,None,397.96698019999894,None,397.96698019999894,None,398.81439919999684,None,398.81439919999684,399.3144060999912,,,,,,,,,,,,,,,,108,2023-03-31_17h45.42.362,FishGame,2022.1.1,59.926745539591764,
,29,넌 엉뚱스러워,3,Green,A,4.166666666666667,4.133333333333334,ScrollDown,ScrollUp,Green.png,3,Neutral,Neutral,,,,,0,0,0,0,,,,,,,,,,,,,,,,,,,,,0,28,28,28,,,,,,,,,,,,,,,,,,,,,,,,,,,,,,,,,,,,,,,,,,,,,,,,,,,,,,,,,,,,,,,,,,,,,,,,,1.1836419651905696,0.7127649000030942,399.93498189997626,None,ScrollDown,정답입니다,399.93498189997626,None,399.93498189997626,None,399.93498189997626,None,399.93498189997626,None,400.5477523999871,None,400.5477523999871,401.0508223999932,,,,,,,,,,,,,,,,108,2023-03-31_17h45.42.362,FishGame,2022.1.1,59.926745539591764,
,30,넌 무지해,4,Orange,B,2.541666666666667,3.066666666666667,ScrollUp,ScrollDown,Orange.png,3,Negative,Congruent,,,,,0,0,0,0,,,,,,,,,,,,,,,,,,,,,0,29,29,29,,,,,,,,,,,,,,,,,,,,,,,,,,,,,,,,,,,,,,,,,,,,,,,,,,,,,,,,,,,,,,,,,,,,,,,,,1.7561728407939274,0.6465985999966506,401.6689808999945,None,ScrollUp,정답입니다,401.6689808999945,None,401.6689808999945,None,401.6689808999945,None,401.6689808999945,None,402.21677159998217,None,402.21677159998217,402.71677599998657,,,,,,,,,,,,,,,,108,2023-03-31_17h45.42.362,FishGame,2022.1.1,59.926745539591764,
,31,넌 음울해,5,Orange,B,2.25,2.233333333333333,ScrollUp,ScrollDown,Orange.png,3,Negative,Congruent,,,,,0,0,0,0,,,,,,,,,,,,,,,,,,,,,0,30,30,30,,,,,,,,,,,,,,,,,,,,,,,,,,,,,,,,,,,,,,,,,,,,,,,,,,,,,,,,,,,,,,,,,,,,,,,,,1.7114197611808777,0.7965010000043549,403.3439127999882,None,ScrollUp,정답입니다,403.3439127999882,None,403.3439127999882,None,403.3439127999882,None,403.3439127999882,None,404.033294199995,None,404.033294199995,404.53379729998414,,,,,,,,,,,,,,,,108,2023-03-31_17h45.42.362,FishGame,2022.1.1,59.926745539591764,
,32,넌 냉소적이야,5,Green,A,2.916666666666667,2.4,ScrollDown,ScrollUp,Green.png,3,Negative,Incongruent,,,,,0,0,0,0,,,,,,,,,,,,,,,,,,,,,0,31,31,31,,,,,,,,,,,,,,,,,,,,,,,,,,,,,,,,,,,,,,,,,,,,,,,,,,,,,,,,,,,,,,,,,,,,,,,,,1.0478395124276478,0.7596634000074118,405.15773599999375,None,ScrollDown,정답입니다,405.15773599999375,None,405.15773599999375,None,405.15773599999375,None,405.15773599999375,None,405.8165898999723,None,405.8165898999723,406.3165699999954,,,,,,,,,,,,,,,,108,2023-03-31_17h45.42.362,FishGame,2022.1.1,59.926745539591764,
,33,나를 데려가줘,6,Orange,B,0,0,ScrollDown,ScrollUp,Orange.png,3,NonTarget,NonTarget,,,,,0,0,0,0,,,,,,,,,,,,,,,,,,,,,0,32,32,32,,,,,,,,,,,,,,,,,,,,,,,,,,,,,,,,,,,,,,,,,,,,,,,,,,,,,,,,,,,,,,,,,,,,,,,,,1.0478395124276478,0.8961916000116616,406.9402577999863,None,ScrollDown,정답입니다,406.9402577999863,None,406.9402577999863,None,406.9402577999863,None,406.9402577999863,None,407.7332603999821,None,407.7332603999821,408.23362689997884,,,,,,,,,,,,,,,,108,2023-03-31_17h45.42.362,FishGame,2022.1.1,59.926745539591764,
,34,넌 쾌활해,1,Green,A,5.541666666666666,5.733333333333333,ScrollDown,ScrollUp,Green.png,3,Positive,Congruent,,,,,0,0,0,0,,,,,,,,,,,,,,,,,,,,,0,33,33,33,,,,,,,,,,,,,,,,,,,,,,,,,,,,,,,,,,,,,,,,,,,,,,,,,,,,,,,,,,,,,,,,,,,,,,,,,1.2499999900658925,0.7649657000147272,408.85268339997856,None,ScrollDown,정답입니다,408.85268339997856,None,408.85268339997856,None,408.85268339997856,None,408.85268339997856,None,409.51645199998165,None,409.51645199998165,410.0164971999766,,,,,,,,,,,,,,,,108,2023-03-31_17h45.42.362,FishGame,2022.1.1,59.926745539591764,
,35,나를 보내줘,6,Green,A,0,0,ScrollUp,ScrollDown,Green.png,3,NonTarget,NonTarget,,,,,0,0,0,0,,,,,,,,,,,,,,,,,,,,,0,34,34,34,,,,,,,,,,,,,,,,,,,,,,,,,,,,,,,,,,,,,,,,,,,,,,,,,,,,,,,,,,,,,,,,,,,,,,,,,1.6481481517354646,0.9293148000142537,410.6330906999938,None,ScrollUp,정답입니다,410.6330906999938,None,410.6330906999938,None,410.6330906999938,None,410.6330906999938,None,411.4641242999933,None,411.4641242999933,411.9642419999873,,,,,,,,,,,,,,,,108,2023-03-31_17h45.42.362,FishGame,2022.1.1,59.926745539591764,
,36,넌 명랑해,1,Orange,B,5.739130434782609,5.666666666666667,ScrollUp,ScrollDown,Orange.png,3,Positive,Incongruent,,,,,0,0,0,0,,,,,,,,,,,,,,,,,,,,,0,35,35,35,,,,,,,,,,,,,,,,,,,,,,,,,,,,,,,,,,,,,,,,,,,,,,,,,,,,,,,,,,,,,,,,,,,,,,,,,1.7006172885497413,0.7308295000111684,412.58381269997335,None,ScrollUp,정답입니다,412.58381269997335,None,412.58381269997335,None,412.58381269997335,None,412.58381269997335,None,413.2141396999941,None,413.2141396999941,413.7165319999913,,,,,,,,,,,,,,,,108,2023-03-31_17h45.42.362,FishGame,2022.1.1,59.926745539591764,
,37,넌 멍해,4,Green,A,2.833333333333333,3.4,ScrollDown,ScrollUp,Green.png,3,Negative,Incongruent,,,,,0,0,0,0,,,,,,,,,,,,,,,,,,,,,0,36,36,36,,,,,,,,,,,,,,,,,,,,,,,,,,,,,,,,,,,,,,,,,,,,,,,,,,,,,,,,,,,,,,,,,,,,,,,,,1.0972222338120143,0.6994775999919511,414.335772099992,None,ScrollDown,정답입니다,414.335772099992,None,414.335772099992,None,414.335772099992,None,414.335772099992,None,414.93323299998883,None,414.93323299998883,415.43317319999915,,,,,,,,,,,,,,,,108,2023-03-31_17h45.42.362,FishGame,2022.1.1,59.926745539591764,
,38,나를 데려가줘,6,Orange,B,0,0,ScrollDown,ScrollUp,Orange.png,3,NonTarget,NonTarget,,,,,0,0,0,0,,,,,,,,,,,,,,,,,,,,,0,37,37,37,,,,,,,,,,,,,,,,,,,,,,,,,,,,,,,,,,,,,,,,,,,,,,,,,,,,,,,,,,,,,,,,,,,,,,,,,1.120370368162791,0.8981442999793217,416.05617139997776,None,ScrollDown,정답입니다,416.05617139997776,None,416.05617139997776,None,416.05617139997776,None,416.05617139997776,None,416.8497145999863,None,416.8497145999863,417.3501658999885,,,,,,,,,,,,,,,,108,2023-03-31_17h45.42.362,FishGame,2022.1.1,59.926745539591764,
,39,넌 현명해,2,Green,A,6.541666666666666,4.533333333333333,ScrollDown,ScrollUp,Green.png,3,Positive,Congruent,,,,,0,0,0,0,,,,,,,,,,,,,,,,,,,,,0,38,38,38,,,,,,,,,,,,,,,,,,,,,,,,,,,,,,,,,,,,,,,,,,,,,,,,,,,,,,,,,,,,,,,,,,,,,,,,,1.0663580298423767,0.7145766000030562,417.96608889999334,None,ScrollDown,정답입니다,417.96608889999334,None,417.96608889999334,None,417.96608889999334,None,417.96608889999334,None,418.58063629997196,None,418.58063629997196,419.08170379998046,,,,,,,,,,,,,,,,108,2023-03-31_17h45.42.362,FishGame,2022.1.1,59.926745539591764,
,40,넌 수줍어,3,Orange,B,3.541666666666666,4.366666666666666,ScrollUp,ScrollDown,Orange.png,3,Neutral,Neutral,,,,,0,0,0,0,,,,,,,,,,,,,,,,,,,,,0,39,39,39,,,,,,,,,,,,,,,,,,,,,,,,,,,,,,,,,,,,,,,,,,,,,,,,,,,,,,,,,,,,,,,,,,,,,,,,,1.7160493781169257,0.8978119000094011,419.7035440999898,None,ScrollUp,정답입니다,419.7035440999898,None,419.7035440999898,None,419.7035440999898,None,419.7035440999898,None,420.49734639999224,None,420.49734639999224,421.0004222999851,,,,,,,,,,,,,,,,108,2023-03-31_17h45.42.362,FishGame,2022.1.1,59.926745539591764,
,41,나를 데려가줘,6,Orange,B,0,0,ScrollDown,ScrollUp,Orange.png,3,NonTarget,NonTarget,,,,,0,0,0,0,,,,,,,,,,,,,,,,,,,,,0,40,40,40,,,,,,,,,,,,,,,,,,,,,,,,,,,,,,,,,,,,,,,,,,,,,,,,,,,,,,,,,,,,,,,,,,,,,,,,,1.121913582086563,1.231164600001648,421.6202223,None,ScrollDown,정답입니다,421.6202223,None,421.6202223,None,421.6202223,None,421.6202223,None,422.7497446999769,None,422.7497446999769,423.2498517999775,,,,,,,,,,,,,,,,108,2023-03-31_17h45.42.362,FishGame,2022.1.1,59.926745539591764,
,42,넌 성숙해,2,Orange,B,5.833333333333333,4.533333333333333,ScrollUp,ScrollDown,Orange.png,3,Positive,Incongruent,,,,,0,0,0,0,,,,,,,,,,,,,,,,,,,,,0,41,41,41,,,,,,,,,,,,,,,,,,,,,,,,,,,,,,,,,,,,,,,,,,,,,,,,,,,,,,,,,,,,,,,,,,,,,,,,,1.5756172835826874,0.8658597999892663,423.8681543999992,None,ScrollUp,정답입니다,423.8681543999992,None,423.8681543999992,None,423.8681543999992,None,423.8681543999992,None,424.6328246999765,None,424.6328246999765,425.1333573999873,,,,,,,,,,,,,,,,108,2023-03-31_17h45.42.362,FishGame,2022.1.1,59.926745539591764,
,1,넌 매력적이야,2,Orange,B,6.125,4.666666666666667,ScrollUp,ScrollDown,Orange.png,4,Positive,Incongruent,,,,,0,0,0,0,,,,,,,,,,,,,,,,,,,,,,,,,0,0,0,0,,,,,,,,,,,,,,,,,,,,,,,,,,,,457.2987517999718,458.7989449999877,458.832285099983,459.78223039998556,459.8322337999998,460.78226119998726,460.78226119998726,None,,,,,,,,,,,,,,,,,,,,,,,,,,,,,,,,,,1.7623456716537476,0.92191490001278,461.8847296999884,None,ScrollUp,정답입니다,461.8847296999884,None,461.8847296999884,None,461.8847296999884,None,461.8847296999884,None,462.69636069997796,None,462.69636069997796,463.1966588999785,425.636013499985,None,425.636013499985,None,0.4027778,-0.16018519,1,0,0,0.016436109988717362,None,455.64867489997414,None,,,108,2023-03-31_17h45.42.362,FishGame,2022.1.1,59.926745539591764,
,2,나를 보내줘,6,Green,A,0,0,ScrollUp,ScrollDown,Green.png,4,NonTarget,NonTarget,,,,,0,0,0,0,,,,,,,,,,,,,,,,,,,,,,,,,0,1,1,1,,,,,,,,,,,,,,,,,,,,,,,,,,,,,,,,,,,,,,,,,,,,,,,,,,,,,,,,,,,,,,,,,,,,,1.6913580298423767,1.0144340000115335,463.8143563999911,None,ScrollUp,정답입니다,463.8143563999911,None,463.8143563999911,None,463.8143563999911,None,463.8143563999911,None,464.7297227999952,None,464.7297227999952,465.23211509999237,,,,,,,,,,,,,,,,108,2023-03-31_17h45.42.362,FishGame,2022.1.1,59.926745539591764,
,3,넌 조심스러워,3,Green,A,4.791666666666666,4.666666666666667,ScrollDown,ScrollUp,Green.png,4,Neutral,Neutral,,,,,0,0,0,0,,,,,,,,,,,,,,,,,,,,,,,,,0,2,2,2,,,,,,,,,,,,,,,,,,,,,,,,,,,,,,,,,,,,,,,,,,,,,,,,,,,,,,,,,,,,,,,,,,,,,1.121913582086563,0.7805889000010211,465.85490329997265,None,ScrollDown,정답입니다,465.85490329997265,None,465.85490329997265,None,465.85490329997265,None,465.85490329997265,None,466.53212439999334,None,466.53212439999334,467.0351334999723,,,,,,,,,,,,,,,,108,2023-03-31_17h45.42.362,FishGame,2022.1.1,59.926745539591764,
,4,넌 철학적이야,3,Orange,B,4.5,4.266666666666667,ScrollUp,ScrollDown,Orange.png,4,Neutral,Neutral,,,,,0,0,0,0,,,,,,,,,,,,,,,,,,,,,,,,,0,3,3,3,,,,,,,,,,,,,,,,,,,,,,,,,,,,,,,,,,,,,,,,,,,,,,,,,,,,,,,,,,,,,,,,,,,,,1.4907407405165334,0.7793432000034954,467.6537288999825,None,NoResponse,무응답입니다,467.6537288999825,None,467.6537288999825,None,467.6537288999825,None,467.6537288999825,None,468.3319315999979,None,468.3319315999979,468.83238219999475,,,,,,,,,,,,,,,,108,2023-03-31_17h45.42.362,FishGame,2022.1.1,59.926745539591764,
,5,넌 쩨쩨해,5,Green,A,2.375,2.133333333333333,ScrollDown,ScrollUp,Green.png,4,Negative,Incongruent,,,,,0,0,0,0,,,,,,,,,,,,,,,,,,,,,,,,,0,4,4,4,,,,,,,,,,,,,,,,,,,,,,,,,,,,,,,,,,,,,,,,,,,,,,,,,,,,,,,,,,,,,,,,,,,,,1.1342592686414719,0.7831542999774683,469.4551416999893,None,ScrollDown,정답입니다,469.4551416999893,None,469.4551416999893,None,469.4551416999893,None,469.4551416999893,None,470.1297995999921,None,470.1297995999921,470.6318098999909,,,,,,,,,,,,,,,,108,2023-03-31_17h45.42.362,FishGame,2022.1.1,59.926745539591764,
,6,나를 데려가줘,6,Orange,B,0,0,ScrollDown,ScrollUp,Orange.png,4,NonTarget,NonTarget,,,,,0,0,0,0,,,,,,,,,,,,,,,,,,,,,,,,,0,5,5,5,,,,,,,,,,,,,,,,,,,,,,,,,,,,,,,,,,,,,,,,,,,,,,,,,,,,,,,,,,,,,,,,,,,,,1.1635802586873372,1.296213199995691,471.2514050999889,None,ScrollDown,정답입니다,471.2514050999889,None,471.2514050999889,None,471.2514050999889,None,471.2514050999889,None,472.44645339998533,None,472.44645339998533,472.94849569999496,,,,,,,,,,,,,,,,108,2023-03-31_17h45.42.362,FishGame,2022.1.1,59.926745539591764,
,7,넌 고집불통이야,5,Orange,B,2.875,2,ScrollUp,ScrollDown,Orange.png,4,Negative,Congruent,,,,,0,0,0,0,,,,,,,,,,,,,,,,,,,,,,,,,0,6,6,6,,,,,,,,,,,,,,,,,,,,,,,,,,,,,,,,,,,,,,,,,,,,,,,,,,,,,,,,,,,,,,,,,,,,,1.7746913582086563,1.263783100002911,473.5717154999729,None,ScrollUp,정답입니다,473.5717154999729,None,473.5717154999729,None,473.5717154999729,None,473.5717154999729,None,474.7294322999951,None,474.7294322999951,475.2294278999907,,,,,,,,,,,,,,,,108,2023-03-31_17h45.42.362,FishGame,2022.1.1,59.926745539591764,
,8,넌 무심해,4,Green,A,2.875,3.2,ScrollDown,ScrollUp,Green.png,4,Negative,Incongruent,,,,,0,0,0,0,,,,,,,,,,,,,,,,,,,,,,,,,0,7,7,7,,,,,,,,,,,,,,,,,,,,,,,,,,,,,,,,,,,,,,,,,,,,,,,,,,,,,,,,,,,,,,,,,,,,,1.1342592686414719,0.6610821000067517,475.8534278999723,None,ScrollDown,정답입니다,475.8534278999723,None,475.8534278999723,None,475.8534278999723,None,475.8534278999723,None,476.41278009998496,None,476.41278009998496,476.9127703999984,,,,,,,,,,,,,,,,108,2023-03-31_17h45.42.362,FishGame,2022.1.1,59.926745539591764,
,9,넌 정겨워,1,Green,A,5.791666666666667,5.666666666666667,ScrollDown,ScrollUp,Green.png,4,Positive,Congruent,,,,,0,0,0,0,,,,,,,,,,,,,,,,,,,,,,,,,0,8,8,8,,,,,,,,,,,,,,,,,,,,,,,,,,,,,,,,,,,,,,,,,,,,,,,,,,,,,,,,,,,,,,,,,,,,,1.192901223897934,0.7648654000076931,477.5349326999858,None,ScrollDown,정답입니다,477.5349326999858,None,477.5349326999858,None,477.5349326999858,None,477.5349326999858,None,478.19639119997737,None,478.19639119997737,478.69848509997246,,,,,,,,,,,,,,,,108,2023-03-31_17h45.42.362,FishGame,2022.1.1,59.926745539591764,
,10,나를 데려가줘,6,Orange,B,0,0,ScrollDown,ScrollUp,Orange.png,4,NonTarget,NonTarget,,,,,0,0,0,0,,,,,,,,,,,,,,,,,,,,,,,,,0,9,9,9,,,,,,,,,,,,,,,,,,,,,,,,,,,,,,,,,,,,,,,,,,,,,,,,,,,,,,,,,,,,,,,,,,,,,1.1697530895471573,0.7766647000098601,479.3248311999778,None,ScrollDown,정답입니다,479.3248311999778,None,479.3248311999778,None,479.3248311999778,None,479.3248311999778,None,479.9982613999746,None,479.9982613999746,480.49827079998795,,,,,,,,,,,,,,,,108,2023-03-31_17h45.42.362,FishGame,2022.1.1,59.926745539591764,
,11,넌 체제순응적이야,4,Orange,B,3,3.6,ScrollUp,ScrollDown,Orange.png,4,Negative,Congruent,,,,,0,0,0,0,,,,,,,,,,,,,,,,,,,,,,,,,0,10,10,10,,,,,,,,,,,,,,,,,,,,,,,,,,,,,,,,,,,,,,,,,,,,,,,,,,,,,,,,,,,,,,,,,,,,,1.6512345671653748,0.8623729000100866,481.1245569999737,None,ScrollUp,정답입니다,481.1245569999737,None,481.1245569999737,None,481.1245569999737,None,481.1245569999737,None,481.88167479998083,None,481.88167479998083,482.38153479999164,,,,,,,,,,,,,,,,108,2023-03-31_17h45.42.362,FishGame,2022.1.1,59.926745539591764,
,12,나를 보내줘,6,Green,A,0,0,ScrollUp,ScrollDown,Green.png,4,NonTarget,NonTarget,,,,,0,0,0,0,,,,,,,,,,,,,,,,,,,,,,,,,0,11,11,11,,,,,,,,,,,,,,,,,,,,,,,,,,,,,,,,,,,,,,,,,,,,,,,,,,,,,,,,,,,,,,,,,,,,,1.4953703702582668,0.9476996999874245,483.0155641999736,None,NoResponse,무응답입니다,483.0155641999736,None,483.0155641999736,None,483.0155641999736,None,483.0155641999736,None,483.86282109998865,None,483.86282109998865,484.3648550999933,,,,,,,,,,,,,,,,108,2023-03-31_17h45.42.362,FishGame,2022.1.1,59.926745539591764,
,13,넌 박식해,2,Green,A,5.625,3.933333333333333,ScrollDown,ScrollUp,Green.png,4,Positive,Congruent,,,,,0,0,0,0,,,,,,,,,,,,,,,,,,,,,,,,,0,12,12,12,,,,,,,,,,,,,,,,,,,,,,,,,,,,,,,,,,,,,,,,,,,,,,,,,,,,,,,,,,,,,,,,,,,,,1,1.3131299999949988,484.98504059997504,None,ScrollDown,정답입니다,484.98504059997504,None,484.98504059997504,None,484.98504059997504,None,484.98504059997504,None,486.198150399985,None,486.198150399985,486.69820159999654,,,,,,,,,,,,,,,,108,2023-03-31_17h45.42.362,FishGame,2022.1.1,59.926745539591764,
,14,나를 보내줘,6,Green,A,0,0,ScrollUp,ScrollDown,Green.png,4,NonTarget,NonTarget,,,,,0,0,0,0,,,,,,,,,,,,,,,,,,,,,,,,,0,13,13,13,,,,,,,,,,,,,,,,,,,,,,,,,,,,,,,,,,,,,,,,,,,,,,,,,,,,,,,,,,,,,,,,,,,,,1.6111111169060073,0.9794438000244554,487.31596079998417,None,ScrollUp,정답입니다,487.31596079998417,None,487.31596079998417,None,487.31596079998417,None,487.31596079998417,None,488.1957960999862,None,488.1957960999862,488.6967938999878,,,,,,,,,,,,,,,,108,2023-03-31_17h45.42.362,FishGame,2022.1.1,59.926745539591764,
,15,넌 침착해,1,Orange,B,5.458333333333333,5.566666666666666,ScrollUp,ScrollDown,Orange.png,4,Positive,Incongruent,,,,,0,0,0,0,,,,,,,,,,,,,,,,,,,,,,,,,0,14,14,14,,,,,,,,,,,,,,,,,,,,,,,,,,,,,,,,,,,,,,,,,,,,,,,,,,,,,,,,,,,,,,,,,,,,,1.819444437821706,0.9804031999956351,489.317375499988,None,ScrollUp,정답입니다,489.317375499988,None,489.317375499988,None,489.317375499988,None,489.317375499988,None,490.19825669997954,None,490.19825669997954,490.6981550999917,,,,,,,,,,,,,,,,108,2023-03-31_17h45.42.362,FishGame,2022.1.1,59.926745539591764,
,16,나를 데려가줘,6,Orange,B,0,0,ScrollDown,ScrollUp,Orange.png,4,NonTarget,NonTarget,,,,,0,0,0,0,,,,,,,,,,,,,,,,,,,,,,,,,0,15,15,15,,,,,,,,,,,,,,,,,,,,,,,,,,,,,,,,,,,,,,,,,,,,,,,,,,,,,,,,,,,,,,,,,,,,,1.182098776102066,0.931404900009511,491.3173210999812,None,ScrollDown,정답입니다,491.3173210999812,None,491.3173210999812,None,491.3173210999812,None,491.3173210999812,None,492.1483125999803,None,492.1483125999803,492.6480410999793,,,,,,,,,,,,,,,,108,2023-03-31_17h45.42.362,FishGame,2022.1.1,59.926745539591764,
,17,넌 행복해,1,Green,A,6.416666666666666,6.166666666666667,ScrollDown,ScrollUp,Green.png,4,Positive,Congruent,,,,,0,0,0,0,,,,,,,,,,,,,,,,,,,,,,,,,0,16,16,16,,,,,,,,,,,,,,,,,,,,,,,,,,,,,,,,,,,,,,,,,,,,,,,,,,,,,,,,,,,,,,,,,,,,,1.2932098805904388,0.7648788999940734,493.2685441999929,None,ScrollDown,정답입니다,493.2685441999929,None,493.2685441999929,None,493.2685441999929,None,493.2685441999929,None,493.93135169998277,None,493.93135169998277,494.43136550000054,,,,,,,,,,,,,,,,108,2023-03-31_17h45.42.362,FishGame,2022.1.1,59.926745539591764,
,18,넌 겸손해,2,Orange,B,5.791666666666667,4.766666666666667,ScrollUp,ScrollDown,Orange.png,4,Positive,Incongruent,,,,,0,0,0,0,,,,,,,,,,,,,,,,,,,,,,,,,0,17,17,17,,,,,,,,,,,,,,,,,,,,,,,,,,,,,,,,,,,,,,,,,,,,,,,,,,,,,,,,,,,,,,,,,,,,,1.8672839452823002,0.8979923999868333,495.06464319999213,None,ScrollUp,정답입니다,495.06464319999213,None,495.06464319999213,None,495.06464319999213,None,495.06464319999213,None,495.84793549997266,None,495.84793549997266,496.34788349998416,,,,,,,,,,,,,,,,108,2023-03-31_17h45.42.362,FishGame,2022.1.1,59.926745539591764,
,19,나를 보내줘,6,Green,A,0,0,ScrollUp,ScrollDown,Green.png,4,NonTarget,NonTarget,,,,,0,0,0,0,,,,,,,,,,,,,,,,,,,,,,,,,0,18,18,18,,,,,,,,,,,,,,,,,,,,,,,,,,,,,,,,,,,,,,,,,,,,,,,,,,,,,,,,,,,,,,,,,,,,,1.7716049303611119,1.5817253999994136,496.9656882999989,None,ScrollUp,정답입니다,496.9656882999989,None,496.9656882999989,None,496.9656882999989,None,496.9656882999989,None,498.44789469998796,None,498.44789469998796,498.9485204999801,,,,,,,,,,,,,,,,108,2023-03-31_17h45.42.362,FishGame,2022.1.1,59.926745539591764,
,20,넌 의심없어,3,Green,A,4.166666666666667,4.6,ScrollDown,ScrollUp,Green.png,4,Neutral,Neutral,,,,,0,0,0,0,,,,,,,,,,,,,,,,,,,,,,,,,0,19,19,19,,,,,,,,,,,,,,,,,,,,,,,,,,,,,,,,,,,,,,,,,,,,,,,,,,,,,,,,,,,,,,,,,,,,,1.09413580596447,0.7795636999944691,499.5643451999931,None,ScrollDown,정답입니다,499.5643451999931,None,499.5643451999931,None,499.5643451999931,None,499.5643451999931,None,500.245781399979,None,500.245781399979,500.7478209999972,,,,,,,,,,,,,,,,108,2023-03-31_17h45.42.362,FishGame,2022.1.1,59.926745539591764,
,21,넌 시시해,4,Green,A,2.666666666666667,2.966666666666667,ScrollDown,ScrollUp,Green.png,4,Negative,Incongruent,,,,,0,0,0,0,,,,,,,,,,,,,,,,,,,,,,,,,0,20,20,20,,,,,,,,,,,,,,,,,,,,,,,,,,,,,,,,,,,,,,,,,,,,,,,,,,,,,,,,,,,,,,,,,,,,,1.2114197413126628,0.812490100011928,501.36466870000004,None,ScrollDown,정답입니다,501.36466870000004,None,501.36466870000004,None,501.36466870000004,None,501.36466870000004,None,502.0811388999864,None,502.0811388999864,502.5811266999808,,,,,,,,,,,,,,,,108,2023-03-31_17h45.42.362,FishGame,2022.1.1,59.926745539591764,
,22,나를 데려가줘,6,Orange,B,0,0,ScrollDown,ScrollUp,Orange.png,4,NonTarget,NonTarget,,,,,0,0,0,0,,,,,,,,,,,,,,,,,,,,,,,,,0,21,21,21,,,,,,,,,,,,,,,,,,,,,,,,,,,,,,,,,,,,,,,,,,,,,,,,,,,,,,,,,,,,,,,,,,,,,1.1311728407939274,0.9624098000058439,503.2006823999982,None,ScrollDown,정답입니다,503.2006823999982,None,503.2006823999982,None,503.2006823999982,None,503.2006823999982,None,504.0621408999723,None,504.0621408999723,504.56212209997466,,,,,,,,,,,,,,,,108,2023-03-31_17h45.42.362,FishGame,2022.1.1,59.926745539591764,
,23,넌 무정해,5,Green,A,2.5,2.2,ScrollDown,ScrollUp,Green.png,4,Negative,Incongruent,,,,,0,0,0,0,,,,,,,,,,,,,,,,,,,,,,,,,0,22,22,22,,,,,,,,,,,,,,,,,,,,,,,,,,,,,,,,,,,,,,,,,,,,,,,,,,,,,,,,,,,,,,,,,,,,,1.0756172637144725,0.9516506000072695,505.1770476999809,None,ScrollDown,정답입니다,505.1770476999809,None,505.1770476999809,None,505.1770476999809,None,505.1770476999809,None,506.0312111999956,None,506.0312111999956,506.5319198999787,,,,,,,,,,,,,,,,108,2023-03-31_17h45.42.362,FishGame,2022.1.1,59.926745539591764,
,24,넌 긍정적이야,1,Orange,B,6.041666666666667,6.066666666666666,ScrollUp,ScrollDown,Orange.png,4,Positive,Incongruent,,,,,0,0,0,0,,,,,,,,,,,,,,,,,,,,,,,,,0,23,23,23,,,,,,,,,,,,,,,,,,,,,,,,,,,,,,,,,,,,,,,,,,,,,,,,,,,,,,,,,,,,,,,,,,,,,1.7268518507480621,0.8960751999984495,507.1610897999781,None,ScrollUp,정답입니다,507.1610897999781,None,507.1610897999781,None,507.1610897999781,None,507.1610897999781,None,507.94782799997483,None,507.94782799997483,508.44767189997947,,,,,,,,,,,,,,,,108,2023-03-31_17h45.42.362,FishGame,2022.1.1,59.926745539591764,
,25,나를 보내줘,6,Green,A,0,0,ScrollUp,ScrollDown,Green.png,4,NonTarget,NonTarget,,,,,0,0,0,0,,,,,,,,,,,,,,,,,,,,,,,,,0,24,24,24,,,,,,,,,,,,,,,,,,,,,,,,,,,,,,,,,,,,,,,,,,,,,,,,,,,,,,,,,,,,,,,,,,,,,1.6080246890584626,1.0481300999817904,509.0700074999768,None,ScrollUp,정답입니다,509.0700074999768,None,509.0700074999768,None,509.0700074999768,None,509.0700074999768,None,510.01226920000045,None,510.01226920000045,510.5149098999973,,,,,,,,,,,,,,,,108,2023-03-31_17h45.42.362,FishGame,2022.1.1,59.926745539591764,
,26,넌 시기심이 많아,5,Orange,B,2.458333333333333,2.233333333333333,ScrollUp,ScrollDown,Orange.png,4,Negative,Congruent,,,,,0,0,0,0,,,,,,,,,,,,,,,,,,,,,,,,,0,25,25,25,,,,,,,,,,,,,,,,,,,,,,,,,,,,,,,,,,,,,,,,,,,,,,,,,,,,,,,,,,,,,,,,,,,,,1.6944444452722869,0.9645084000076167,511.14177719998406,None,ScrollUp,정답입니다,511.14177719998406,None,511.14177719998406,None,511.14177719998406,None,511.14177719998406,None,511.9975546999776,None,511.9975546999776,512.4975609999965,,,,,,,,,,,,,,,,108,2023-03-31_17h45.42.362,FishGame,2022.1.1,59.926745539591764,
,27,넌 탁월해,2,Green,A,5.708333333333334,4.5,ScrollDown,ScrollUp,Green.png,4,Positive,Congruent,,,,,0,0,0,0,,,,,,,,,,,,,,,,,,,,,,,,,0,26,26,26,,,,,,,,,,,,,,,,,,,,,,,,,,,,,,,,,,,,,,,,,,,,,,,,,,,,,,,,,,,,,,,,,,,,,1,1.5166649000020698,513.118307799974,None,ScrollDown,정답입니다,513.118307799974,None,513.118307799974,None,513.118307799974,None,513.118307799974,None,514.5308940999967,None,514.5308940999967,515.031454299984,,,,,,,,,,,,,,,,108,2023-03-31_17h45.42.362,FishGame,2022.1.1,59.926745539591764,
,28,나를 데려가줘,6,Orange,B,0,0,ScrollDown,ScrollUp,Orange.png,4,NonTarget,NonTarget,,,,,0,0,0,0,,,,,,,,,,,,,,,,,,,,,,,,,0,27,27,27,,,,,,,,,,,,,,,,,,,,,,,,,,,,,,,,,,,,,,,,,,,,,,,,,,,,,,,,,,,,,,,,,,,,,1.080246905485789,1.0816933999885805,515.6503122999857,None,ScrollDown,정답입니다,515.6503122999857,None,515.6503122999857,None,515.6503122999857,None,515.6503122999857,None,516.6311915999977,None,516.6311915999977,517.1479554999969,,,,,,,,,,,,,,,,108,2023-03-31_17h45.42.362,FishGame,2022.1.1,59.926745539591764,
,29,넌 조용해,3,Orange,B,4.333333333333333,4.166666666666667,ScrollUp,ScrollDown,Orange.png,4,Neutral,Neutral,,,,,0,0,0,0,,,,,,,,,,,,,,,,,,,,,,,,,0,28,28,28,,,,,,,,,,,,,,,,,,,,,,,,,,,,,,,,,,,,,,,,,,,,,,,,,,,,,,,,,,,,,,,,,,,,,1.7283950646718345,0.9796349999960512,517.7521392999915,None,ScrollUp,정답입니다,517.7521392999915,None,517.7521392999915,None,517.7521392999915,None,517.7521392999915,None,518.6308298999793,None,518.6308298999793,519.1308050999942,,,,,,,,,,,,,,,,108,2023-03-31_17h45.42.362,FishGame,2022.1.1,59.926745539591764,
,30,넌 다정해,1,Green,A,5.833333333333334,5.7,ScrollDown,ScrollUp,Green.png,4,Positive,Congruent,,,,,0,0,0,0,,,,,,,,,,,,,,,,,,,,,,,,,0,29,29,29,,,,,,,,,,,,,,,,,,,,,,,,,,,,,,,,,,,,,,,,,,,,,,,,,,,,,,,,,,,,,,,,,,,,,1.095679019888242,0.8779189999913797,519.7497696999926,None,ScrollDown,정답입니다,519.7497696999926,None,519.7497696999926,None,519.7497696999926,None,519.7497696999926,None,520.5240754999977,None,520.5240754999977,521.0293207999784,,,,,,,,,,,,,,,,108,2023-03-31_17h45.42.362,FishGame,2022.1.1,59.926745539591764,
,31,넌 능력있어,2,Orange,B,6.166666666666666,4.6,ScrollUp,ScrollDown,Orange.png,4,Positive,Incongruent,,,,,0,0,0,0,,,,,,,,,,,,,,,,,,,,,,,,,0,30,30,30,,,,,,,,,,,,,,,,,,,,,,,,,,,,,,,,,,,,,,,,,,,,,,,,,,,,,,,,,,,,,,,,,,,,,1.4938271606030564,1.0318110999942292,521.644593999983,None,NoResponse,무응답입니다,521.644593999983,None,521.644593999983,None,521.644593999983,None,521.644593999983,None,522.5784736999776,None,522.5784736999776,523.0786290999968,,,,,,,,,,,,,,,,108,2023-03-31_17h45.42.362,FishGame,2022.1.1,59.926745539591764,
,32,넌 불쾌해,5,Green,A,2.125,1.933333333333333,ScrollDown,ScrollUp,Green.png,4,Negative,Incongruent,,,,,0,0,0,0,,,,,,,,,,,,,,,,,,,,,,,,,0,31,31,31,,,,,,,,,,,,,,,,,,,,,,,,,,,,,,,,,,,,,,,,,,,,,,,,,,,,,,,,,,,,,,,,,,,,,1.2098765522241592,0.6645257000054698,523.6991608999961,None,ScrollDown,정답입니다,523.6991608999961,None,523.6991608999961,None,523.6991608999961,None,523.6991608999961,None,524.2643286999955,None,524.2643286999955,524.7648400999897,,,,,,,,,,,,,,,,108,2023-03-31_17h45.42.362,FishGame,2022.1.1,59.926745539591764,
,33,나를 데려가줘,6,Orange,B,0,0,ScrollDown,ScrollUp,Orange.png,4,NonTarget,NonTarget,,,,,0,0,0,0,,,,,,,,,,,,,,,,,,,,,,,,,0,32,32,32,,,,,,,,,,,,,,,,,,,,,,,,,,,,,,,,,,,,,,,,,,,,,,,,,,,,,,,,,,,,,,,,,,,,,1.0185184975465138,0.9648471999971662,525.3839909999806,None,ScrollDown,정답입니다,525.3839909999806,None,525.3839909999806,None,525.3839909999806,None,525.3839909999806,None,526.2473673999775,None,526.2473673999775,526.7472856999957,,,,,,,,,,,,,,,,108,2023-03-31_17h45.42.362,FishGame,2022.1.1,59.926745539591764,
,34,넌 유순해,3,Green,A,4.458333333333333,5,ScrollDown,ScrollUp,Green.png,4,Neutral,Neutral,,,,,0,0,0,0,,,,,,,,,,,,,,,,,,,,,,,,,0,33,33,33,,,,,,,,,,,,,,,,,,,,,,,,,,,,,,,,,,,,,,,,,,,,,,,,,,,,,,,,,,,,,,,,,,,,,1.016975333293279,0.7796562000003178,527.3637575999892,None,ScrollDown,정답입니다,527.3637575999892,None,527.3637575999892,None,527.3637575999892,None,527.3637575999892,None,528.0471851999755,None,528.0471851999755,528.5471958999988,,,,,,,,,,,,,,,,108,2023-03-31_17h45.42.362,FishGame,2022.1.1,59.926745539591764,
,35,넌 근심스러워,4,Orange,B,2.708333333333333,3.133333333333333,ScrollUp,ScrollDown,Orange.png,4,Negative,Congruent,,,,,0,0,0,0,,,,,,,,,,,,,,,,,,,,,,,,,0,34,34,34,,,,,,,,,,,,,,,,,,,,,,,,,,,,,,,,,,,,,,,,,,,,,,,,,,,,,,,,,,,,,,,,,,,,,1.5787037052214146,0.7636834999721032,529.1721962999727,None,ScrollUp,정답입니다,529.1721962999727,None,529.1721962999727,None,529.1721962999727,None,529.1721962999727,None,529.8305759999785,None,529.8305759999785,530.3305615999852,,,,,,,,,,,,,,,,108,2023-03-31_17h45.42.362,FishGame,2022.1.1,59.926745539591764,
,36,넌 세련되었어,2,Green,A,5.5,4.6,ScrollDown,ScrollUp,Green.png,4,Positive,Congruent,,,,,0,0,0,0,,,,,,,,,,,,,,,,,,,,,,,,,0,35,35,35,,,,,,,,,,,,,,,,,,,,,,,,,,,,,,,,,,,,,,,,,,,,,,,,,,,,,,,,,,,,,,,,,,,,,1.0262345671653748,0.8960059999953955,530.9541260999977,None,ScrollDown,정답입니다,530.9541260999977,None,530.9541260999977,None,530.9541260999977,None,530.9541260999977,None,531.7448805999884,None,531.7448805999884,532.2448569999833,,,,,,,,,,,,,,,,108,2023-03-31_17h45.42.362,FishGame,2022.1.1,59.926745539591764,
,37,나를 보내줘,6,Green,A,0,0,ScrollUp,ScrollDown,Green.png,4,NonTarget,NonTarget,,,,,0,0,0,0,,,,,,,,,,,,,,,,,,,,,,,,,0,36,36,36,,,,,,,,,,,,,,,,,,,,,,,,,,,,,,,,,,,,,,,,,,,,,,,,,,,,,,,,,,,,,,,,,,,,,1.6466049378116927,1.0963086999836378,532.8615978999878,None,ScrollUp,정답입니다,532.8615978999878,None,532.8615978999878,None,532.8615978999878,None,532.8615978999878,None,533.8615337999945,None,533.8615337999945,534.3639572999964,,,,,,,,,,,,,,,,108,2023-03-31_17h45.42.362,FishGame,2022.1.1,59.926745539591764,
,38,넌 확고해,3,Orange,B,4.708333333333334,4.566666666666666,ScrollUp,ScrollDown,Orange.png,4,Neutral,Neutral,,,,,0,0,0,0,,,,,,,,,,,,,,,,,,,,,,,,,0,37,37,37,,,,,,,,,,,,,,,,,,,,,,,,,,,,,,,,,,,,,,,,,,,,,,,,,,,,,,,,,,,,,,,,,,,,,1.4876543212061126,0.7826671999937389,534.9862499999872,None,NoResponse,무응답입니다,534.9862499999872,None,534.9862499999872,None,534.9862499999872,None,534.9862499999872,None,535.6638839999796,None,535.6638839999796,536.1638807999843,,,,,,,,,,,,,,,,108,2023-03-31_17h45.42.362,FishGame,2022.1.1,59.926745539591764,
,39,넌 이해심이 많아,1,Orange,B,6.041666666666668,5.533333333333333,ScrollUp,ScrollDown,Orange.png,4,Positive,Incongruent,,,,,0,0,0,0,,,,,,,,,,,,,,,,,,,,,,,,,0,38,38,38,,,,,,,,,,,,,,,,,,,,,,,,,,,,,,,,,,,,,,,,,,,,,,,,,,,,,,,,,,,,,,,,,,,,,1.4506172848244507,0.6648134000133723,536.7865084999939,None,NoResponse,무응답입니다,536.7865084999939,None,536.7865084999939,None,536.7865084999939,None,536.7865084999939,None,537.3470154999814,None,537.3470154999814,537.8470496999798,,,,,,,,,,,,,,,,108,2023-03-31_17h45.42.362,FishGame,2022.1.1,59.926745539591764,
,40,나를 보내줘,6,Green,A,0,0,ScrollUp,ScrollDown,Green.png,4,NonTarget,NonTarget,,,,,0,0,0,0,,,,,,,,,,,,,,,,,,,,,,,,,0,39,39,39,,,,,,,,,,,,,,,,,,,,,,,,,,,,,,,,,,,,,,,,,,,,,,,,,,,,,,,,,,,,,,,,,,,,,1.8302469104528427,1.298209600005066,538.4640736999863,None,ScrollUp,정답입니다,538.4640736999863,None,538.4640736999863,None,538.4640736999863,None,538.4640736999863,None,539.6637392999837,None,539.6637392999837,540.163711799978,,,,,,,,,,,,,,,,108,2023-03-31_17h45.42.362,FishGame,2022.1.1,59.926745539591764,
,41,넌 거칠어,4,Green,A,2.625,3.033333333333333,ScrollDown,ScrollUp,Green.png,4,Negative,Incongruent,,,,,0,0,0,0,,,,,,,,,,,,,,,,,,,,,,,,,0,40,40,40,,,,,,,,,,,,,,,,,,,,,,,,,,,,,,,,,,,,,,,,,,,,,,,,,,,,,,,,,,,,,,,,,,,,,1.0709876716136932,0.8302402000117581,540.7879912999924,None,ScrollDown,정답입니다,540.7879912999924,None,540.7879912999924,None,540.7879912999924,None,540.7879912999924,None,541.5135862999887,None,541.5135862999887,542.0140436999791,,,,,,,,,,,,,,,,108,2023-03-31_17h45.42.362,FishGame,2022.1.1,59.926745539591764,
,42,넌 변덕맞아,5,Orange,B,2.75,2.166666666666667,ScrollUp,ScrollDown,Orange.png,4,Negative,Congruent,,,,,0,0,0,0,,,,,,,,,,,,,,,,,,,,,,,,,0,41,41,41,,,,,,,,,,,,,,,,,,,,,,,,,,,,,,,,,,,,,,,,,,,,,,,,,,,,,,,,,,,,,,,,,,,,,1.609567902982235,0.7815473999944516,542.6372523999889,None,ScrollUp,정답입니다,542.6372523999889,None,542.6372523999889,None,542.6372523999889,None,542.6372523999889,None,543.313677499973,None,543.313677499973,543.8136509999749,,,,,,,,,,,,,,,,108,2023-03-31_17h45.42.362,FishGame,2022.1.1,59.926745539591764,
,43,나를 데려가줘,6,Orange,B,0,0,ScrollDown,ScrollUp,Orange.png,4,NonTarget,NonTarget,,,,,0,0,0,0,,,,,,,,,,,,,,,,,,,,,,,,,0,42,42,42,,,,,,,,,,,,,,,,,,,,,,,,,,,,,,,,,,,,,,,,,,,,,,,,,,,,,,,,,,,,,,,,,,,,,1.121913582086563,1.0447783999843523,544.4355673999817,None,ScrollDown,정답입니다,544.4355673999817,None,544.4355673999817,None,544.4355673999817,None,544.4355673999817,None,545.3801804999821,None,545.3801804999821,545.8801591999945,,,,,,,,,,,,,,,,108,2023-03-31_17h45.42.362,FishGame,2022.1.1,59.926745539591764,
,44,넌 외로워,4,Orange,B,2.833333333333333,3.3,ScrollUp,ScrollDown,Orange.png,4,Negative,Congruent,,,,,0,0,0,0,,,,,,,,,,,,,,,,,,,,,,,,,0,43,43,43,,,,,,,,,,,,,,,,,,,,,,,,,,,,,,,,,,,,,,,,,,,,,,,,,,,,,,,,,,,,,,,,,,,,,1.6172839477658272,0.7628304999961983,546.5009932999965,None,ScrollUp,정답입니다,546.5009932999965,None,546.5009932999965,None,546.5009932999965,None,546.5009932999965,None,547.1636099999887,None,547.1636099999887,547.6640614999924,,,,,,,,,,,,,,,,108,2023-03-31_17h45.42.362,FishGame,2022.1.1,59.926745539591764,
,1,넌 불평스러워,5,Green,A,2.25,2.066666666666667,ScrollDown,ScrollUp,Green.png,5,Negative,Incongruent,,,,,0,0,0,0,,,,,,,,,,,,,,,,,,,,,,,,,,,,,0,0,0,0,,,,,,,,,,,,,,,,,,,,,,,,581.7794354999787,583.279601199989,583.3129053999728,584.2634072999936,584.3129157999938,585.2628531999944,585.2628531999944,None,,,,,,,,,,,,,,,,,,,,,,,,,,,,,,,,,,1.0910493781169255,0.8184642000123858,586.363016599993,None,ScrollDown,정답입니다,586.363016599993,None,586.363016599993,None,586.363016599993,None,586.363016599993,None,587.0770205999725,None,587.0770205999725,587.5770704999741,548.1635611999955,None,548.1635611999955,None,0.36018518,-0.017592592,1,0,0,0.016234209993854165,None,578.1627207999991,None,,,108,2023-03-31_17h45.42.362,FishGame,2022.1.1,59.926745539591764,
,2,나를 보내줘,6,Green,A,0,0,ScrollUp,ScrollDown,Green.png,5,NonTarget,NonTarget,,,,,0,0,0,0,,,,,,,,,,,,,,,,,,,,,,,,,,,,,0,1,1,1,,,,,,,,,,,,,,,,,,,,,,,,,,,,,,,,,,,,,,,,,,,,,,,,,,,,,,,,,,,,,,,,,1.5709876542290053,0.8810534000222106,588.1917372999887,None,ScrollUp,정답입니다,588.1917372999887,None,588.1917372999887,None,588.1917372999887,None,588.1917372999887,None,588.9770192999858,None,588.9770192999858,589.4794124999898,,,,,,,,,,,,,,,,108,2023-03-31_17h45.42.362,FishGame,2022.1.1,59.926745539591764,
,3,넌 다재다능해,2,Orange,B,6.208333333333333,4.5,ScrollUp,ScrollDown,Orange.png,5,Positive,Incongruent,,,,,0,0,0,0,,,,,,,,,,,,,,,,,,,,,,,,,,,,,0,2,2,2,,,,,,,,,,,,,,,,,,,,,,,,,,,,,,,,,,,,,,,,,,,,,,,,,,,,,,,,,,,,,,,,,1.67746914178133,0.7292952000279911,590.1056632999971,None,ScrollUp,정답입니다,590.1056632999971,None,590.1056632999971,None,590.1056632999971,None,590.1056632999971,None,590.7293724999763,None,590.7293724999763,591.2298470999813,,,,,,,,,,,,,,,,108,2023-03-31_17h45.42.362,FishGame,2022.1.1,59.926745539591764,
,4,넌 과감해,3,Green,A,4.833333333333334,4.6,ScrollDown,ScrollUp,Green.png,5,Neutral,Neutral,,,,,0,0,0,0,,,,,,,,,,,,,,,,,,,,,,,,,,,,,0,3,3,3,,,,,,,,,,,,,,,,,,,,,,,,,,,,,,,,,,,,,,,,,,,,,,,,,,,,,,,,,,,,,,,,,1,1.3477607000095304,591.8486927999766,None,ScrollDown,정답입니다,591.8486927999766,None,591.8486927999766,None,591.8486927999766,None,591.8486927999766,None,593.0960536999919,None,593.0960536999919,593.5958019999962,,,,,,,,,,,,,,,,108,2023-03-31_17h45.42.362,FishGame,2022.1.1,59.926745539591764,
,5,넌 고분고분해,3,Orange,B,3.75,4.033333333333333,ScrollUp,ScrollDown,Orange.png,5,Neutral,Neutral,,,,,0,0,0,0,,,,,,,,,,,,,,,,,,,,,,,,,,,,,0,4,4,4,,,,,,,,,,,,,,,,,,,,,,,,,,,,,,,,,,,,,,,,,,,,,,,,,,,,,,,,,,,,,,,,,1.733024681607882,0.8314668000093661,594.2176551999873,None,ScrollUp,정답입니다,594.2176551999873,None,594.2176551999873,None,594.2176551999873,None,594.2176551999873,None,594.9437484999944,None,594.9437484999944,595.4457668999967,,,,,,,,,,,,,,,,108,2023-03-31_17h45.42.362,FishGame,2022.1.1,59.926745539591764,
,6,나를 보내줘,6,Green,A,0,0,ScrollUp,ScrollDown,Green.png,5,NonTarget,NonTarget,,,,,0,0,0,0,,,,,,,,,,,,,,,,,,,,,,,,,,,,,0,5,5,5,,,,,,,,,,,,,,,,,,,,,,,,,,,,,,,,,,,,,,,,,,,,,,,,,,,,,,,,,,,,,,,,,1.6666666691501937,0.9296401999890804,596.0620624999865,None,ScrollUp,정답입니다,596.0620624999865,None,596.0620624999865,None,596.0620624999865,None,596.0620624999865,None,596.8958617999742,None,596.8958617999742,597.3957950999902,,,,,,,,,,,,,,,,108,2023-03-31_17h45.42.362,FishGame,2022.1.1,59.926745539591764,
,7,넌 잘 잊어,4,Green,A,3,3.7,ScrollDown,ScrollUp,Green.png,5,Negative,Incongruent,,,,,0,0,0,0,,,,,,,,,,,,,,,,,,,,,,,,,,,,,0,6,6,6,,,,,,,,,,,,,,,,,,,,,,,,,,,,,,,,,,,,,,,,,,,,,,,,,,,,,,,,,,,,,,,,,1.1851851791143417,0.7794983999920078,598.0206688999897,None,ScrollDown,정답입니다,598.0206688999897,None,598.0206688999897,None,598.0206688999897,None,598.0206688999897,None,598.6958639999793,None,598.6958639999793,599.1957514999958,,,,,,,,,,,,,,,,108,2023-03-31_17h45.42.362,FishGame,2022.1.1,59.926745539591764,
,8,넌 탐구심이없어,4,Orange,B,2.833333333333333,3.066666666666667,ScrollUp,ScrollDown,Orange.png,5,Negative,Congruent,,,,,0,0,0,0,,,,,,,,,,,,,,,,,,,,,,,,,,,,,0,7,7,7,,,,,,,,,,,,,,,,,,,,,,,,,,,,,,,,,,,,,,,,,,,,,,,,,,,,,,,,,,,,,,,,,1.5231481483206153,0.7971977999841329,599.8191060999816,None,NoResponse,무응답입니다,599.8191060999816,None,599.8191060999816,None,599.8191060999816,None,599.8191060999816,None,600.5102698999981,None,600.5102698999981,601.0122956999985,,,,,,,,,,,,,,,,108,2023-03-31_17h45.42.362,FishGame,2022.1.1,59.926745539591764,
,9,나를 데려가줘,6,Orange,B,0,0,ScrollDown,ScrollUp,Orange.png,5,NonTarget,NonTarget,,,,,0,0,0,0,,,,,,,,,,,,,,,,,,,,,,,,,,,,,0,8,8,8,,,,,,,,,,,,,,,,,,,,,,,,,,,,,,,,,,,,,,,,,,,,,,,,,,,,,,,,,,,,,,,,,1,0.9961156000208575,601.6312168999866,None,ScrollDown,정답입니다,601.6312168999866,None,601.6312168999866,None,601.6312168999866,None,601.6312168999866,None,602.526942699973,None,602.526942699973,603.0289763999754,,,,,,,,,,,,,,,,108,2023-03-31_17h45.42.362,FishGame,2022.1.1,59.926745539591764,
,10,넌 참되어,2,Green,A,6.041666666666664,4.733333333333333,ScrollDown,ScrollUp,Green.png,5,Positive,Congruent,,,,,0,0,0,0,,,,,,,,,,,,,,,,,,,,,,,,,,,,,0,9,9,9,,,,,,,,,,,,,,,,,,,,,,,,,,,,,,,,,,,,,,,,,,,,,,,,,,,,,,,,,,,,,,,,,1,0.7982824000064284,603.6479667999956,None,ScrollDown,정답입니다,603.6479667999956,None,603.6479667999956,None,603.6479667999956,None,603.6479667999956,None,604.3456352999783,None,604.3456352999783,604.8461598999857,,,,,,,,,,,,,,,,108,2023-03-31_17h45.42.362,FishGame,2022.1.1,59.926745539591764,
,11,넌 생기있어,1,Orange,B,5.875,5.633333333333334,ScrollUp,ScrollDown,Orange.png,5,Positive,Incongruent,,,,,0,0,0,0,,,,,,,,,,,,,,,,,,,,,,,,,,,,,0,10,10,10,,,,,,,,,,,,,,,,,,,,,,,,,,,,,,,,,,,,,,,,,,,,,,,,,,,,,,,,,,,,,,,,,1.5123456787938871,0.7147909000050277,605.4713020999916,None,NoResponse,무응답입니다,605.4713020999916,None,605.4713020999916,None,605.4713020999916,None,605.4713020999916,None,606.0790114999982,None,606.0790114999982,606.5790124999767,,,,,,,,,,,,,,,,108,2023-03-31_17h45.42.362,FishGame,2022.1.1,59.926745539591764,
,12,넌 비사교적이야,4,Orange,B,2.875,2.9,ScrollUp,ScrollDown,Orange.png,5,Negative,Congruent,,,,,0,0,0,0,,,,,,,,,,,,,,,,,,,,,,,,,,,,,0,11,11,11,,,,,,,,,,,,,,,,,,,,,,,,,,,,,,,,,,,,,,,,,,,,,,,,,,,,,,,,,,,,,,,,,1.9861110945542653,0.8318735000211746,607.1985264999967,None,ScrollUp,정답입니다,607.1985264999967,None,607.1985264999967,None,607.1985264999967,None,607.1985264999967,None,607.9267963999882,None,607.9267963999882,608.4287803999905,,,,,,,,,,,,,,,,108,2023-03-31_17h45.42.362,FishGame,2022.1.1,59.926745539591764,
,13,나를 데려가줘,6,Orange,B,0,0,ScrollDown,ScrollUp,Orange.png,5,NonTarget,NonTarget,,,,,0,0,0,0,,,,,,,,,,,,,,,,,,,,,,,,,,,,,0,12,12,12,,,,,,,,,,,,,,,,,,,,,,,,,,,,,,,,,,,,,,,,,,,,,,,,,,,,,,,,,,,,,,,,,1,0.9494198999891523,609.0472283999843,None,ScrollDown,정답입니다,609.0472283999843,None,609.0472283999843,None,609.0472283999843,None,609.0472283999843,None,609.8954764999798,None,609.8954764999798,610.3954672999971,,,,,,,,,,,,,,,,108,2023-03-31_17h45.42.362,FishGame,2022.1.1,59.926745539591764,
,14,넌 고독해,4,Green,A,2.916666666666667,3.233333333333333,ScrollDown,ScrollUp,Green.png,5,Negative,Incongruent,,,,,0,0,0,0,,,,,,,,,,,,,,,,,,,,,,,,,,,,,0,13,13,13,,,,,,,,,,,,,,,,,,,,,,,,,,,,,,,,,,,,,,,,,,,,,,,,,,,,,,,,,,,,,,,,,1.0447530845801036,0.8652629999851342,611.017034199991,None,ScrollDown,정답입니다,611.017034199991,None,611.017034199991,None,611.017034199991,None,611.017034199991,None,611.7788444999896,None,611.7788444999896,612.2793784999812,,,,,,,,,,,,,,,,108,2023-03-31_17h45.42.362,FishGame,2022.1.1,59.926745539591764,
,15,넌 신경질적이야,5,Orange,B,2.375,2.233333333333333,ScrollUp,ScrollDown,Orange.png,5,Negative,Congruent,,,,,0,0,0,0,,,,,,,,,,,,,,,,,,,,,,,,,,,,,0,14,14,14,,,,,,,,,,,,,,,,,,,,,,,,,,,,,,,,,,,,,,,,,,,,,,,,,,,,,,,,,,,,,,,,,1.825617293516795,0.8808162999921478,612.9144935999939,None,ScrollUp,정답입니다,612.9144935999939,None,612.9144935999939,None,612.9144935999939,None,612.9144935999939,None,613.6788289999822,None,613.6788289999822,614.1792151999834,,,,,,,,,,,,,,,,108,2023-03-31_17h45.42.362,FishGame,2022.1.1,59.926745539591764,
,16,넌 똑똑해,2,Orange,B,5.666666666666667,3.966666666666667,ScrollUp,ScrollDown,Orange.png,5,Positive,Incongruent,,,,,0,0,0,0,,,,,,,,,,,,,,,,,,,,,,,,,,,,,0,15,15,15,,,,,,,,,,,,,,,,,,,,,,,,,,,,,,,,,,,,,,,,,,,,,,,,,,,,,,,,,,,,,,,,,1.6018518519898257,0.6958442000031937,614.8000231999904,None,ScrollUp,정답입니다,614.8000231999904,None,614.8000231999904,None,614.8000231999904,None,614.8000231999904,None,615.393053799984,None,615.393053799984,615.8930407999724,,,,,,,,,,,,,,,,108,2023-03-31_17h45.42.362,FishGame,2022.1.1,59.926745539591764,
,17,나를 보내줘,6,Green,A,0,0,ScrollUp,ScrollDown,Green.png,5,NonTarget,NonTarget,,,,,0,0,0,0,,,,,,,,,,,,,,,,,,,,,,,,,,,,,0,16,16,16,,,,,,,,,,,,,,,,,,,,,,,,,,,,,,,,,,,,,,,,,,,,,,,,,,,,,,,,,,,,,,,,,1.71913580596447,0.950943300005747,616.5071244999999,None,ScrollUp,정답입니다,616.5071244999999,None,616.5071244999999,None,616.5071244999999,None,616.5071244999999,None,617.3620740999759,None,617.3620740999759,617.8764074999781,,,,,,,,,,,,,,,,108,2023-03-31_17h45.42.362,FishGame,2022.1.1,59.926745539591764,
,18,넌 협조적이야,1,Green,A,5.625,5.666666666666667,ScrollDown,ScrollUp,Green.png,5,Positive,Congruent,,,,,0,0,0,0,,,,,,,,,,,,,,,,,,,,,,,,,,,,,0,17,17,17,,,,,,,,,,,,,,,,,,,,,,,,,,,,,,,,,,,,,,,,,,,,,,,,,,,,,,,,,,,,,,,,,1.0108024775981903,0.817005999997491,618.4794440999976,None,ScrollDown,정답입니다,618.4794440999976,None,618.4794440999976,None,618.4794440999976,None,618.4794440999976,None,619.1954439999827,None,619.1954439999827,619.6954349000007,,,,,,,,,,,,,,,,108,2023-03-31_17h45.42.362,FishGame,2022.1.1,59.926745539591764,
,19,나를 데려가줘,6,Orange,B,0,0,ScrollDown,ScrollUp,Orange.png,5,NonTarget,NonTarget,,,,,0,0,0,0,,,,,,,,,,,,,,,,,,,,,,,,,,,,,0,18,18,18,,,,,,,,,,,,,,,,,,,,,,,,,,,,,,,,,,,,,,,,,,,,,,,,,,,,,,,,,,,,,,,,,1.0370370149612427,1.0833474000100978,620.3143131999823,None,ScrollDown,정답입니다,620.3143131999823,None,620.3143131999823,None,620.3143131999823,None,620.3143131999823,None,621.2952565999876,None,621.2952565999876,621.7952639999858,,,,,,,,,,,,,,,,108,2023-03-31_17h45.42.362,FishGame,2022.1.1,59.926745539591764,
,20,넌 몰인정해,5,Orange,B,2.541666666666667,2.066666666666667,ScrollUp,ScrollDown,Orange.png,5,Negative,Congruent,,,,,0,0,0,0,,,,,,,,,,,,,,,,,,,,,,,,,,,,,0,19,19,19,,,,,,,,,,,,,,,,,,,,,,,,,,,,,,,,,,,,,,,,,,,,,,,,,,,,,,,,,,,,,,,,,1.89969136317571,0.7982719999854453,622.4164591999725,None,ScrollUp,정답입니다,622.4164591999725,None,622.4164591999725,None,622.4164591999725,None,622.4164591999725,None,623.1118908999779,None,623.1118908999779,623.6118100999738,,,,,,,,,,,,,,,,108,2023-03-31_17h45.42.362,FishGame,2022.1.1,59.926745539591764,
