name,TrialNum,Word,WordCategory,FishType,WordList,WordValence,WordReputation,CorrectResp,IncorrectResp,FishTypeFile,Round,WordType,Condition,LoopforOrange.thisRepN,LoopforOrange.thisTrialN,LoopforOrange.thisN,LoopforOrange.thisIndex,OrangeInstLoop.thisRepN,OrangeInstLoop.thisTrialN,OrangeInstLoop.thisN,OrangeInstLoop.thisIndex,OrangePrac.thisRepN,OrangePrac.thisTrialN,OrangePrac.thisN,OrangePrac.thisIndex,temp1.thisRepN,temp1.thisTrialN,temp1.thisN,temp1.thisIndex,OrangeRound1.thisRepN,OrangeRound1.thisTrialN,OrangeRound1.thisN,OrangeRound1.thisIndex,OrangeRound2.thisRepN,OrangeRound2.thisTrialN,OrangeRound2.thisN,OrangeRound2.thisIndex,OrangeRound3.thisRepN,OrangeRound3.thisTrialN,OrangeRound3.thisN,OrangeRound3.thisIndex,OrangeRound4.thisRepN,OrangeRound4.thisTrialN,OrangeRound4.thisN,OrangeRound4.thisIndex,OrangeRound5.thisRepN,OrangeRound5.thisTrialN,OrangeRound5.thisN,OrangeRound5.thisIndex,LoopForGreen.thisRepN,LoopForGreen.thisTrialN,LoopForGreen.thisN,LoopForGreen.thisIndex,text_2.started,text_2.stopped,text_3.started,text_3.stopped,key_resp.keys,key_resp.rt,key_resp.started,key_resp.stopped,PassI_2.started,PassI_2.stopped,PassInst_2.keys,PassInst_2.rt,PassInst_2.started,PassInst_2.stopped,mouse_2.x,mouse_2.y,mouse_2.leftButton,mouse_2.midButton,mouse_2.rightButton,mouse_2.started,mouse_2.stopped,image.started,image.stopped,text_5.started,text_5.stopped,text_6.started,text_6.stopped,text_7.started,text_7.stopped,text_8.started,text_8.stopped,slider_2.response,slider_2.rt,slider_2.started,slider_2.stopped,Response_2,Feedback_2,BackGround_2.started,BackGround_2.stopped,Fish_2.started,Fish_2.stopped,WordBox_2.started,WordBox_2.stopped,Words_2.started,Words_2.stopped,BackGround_Feedback_2.started,BackGround_Feedback_2.stopped,Feedbacks_2.started,Feedbacks_2.stopped,Continue_or_not.keys,Continue_or_not.rt,Continue_or_not.started,Continue_or_not.stopped,image_3.started,image_3.stopped,mouse_3.x,mouse_3.y,mouse_3.leftButton,mouse_3.midButton,mouse_3.rightButton,mouse_3.started,mouse_3.stopped,startmain.started,startmain.stopped,slider.response,slider.rt,slider.started,slider.stopped,Response,Feedback,BackGround.started,BackGround.stopped,Fish.started,Fish.stopped,WordBox.started,WordBox.stopped,Words.started,Words.stopped,BackGround_Feedback.started,BackGround_Feedback.stopped,Feedbacks.started,Feedbacks.stopped,text.started,text.stopped,break_interval.started,break_interval.stopped,mouse.x,mouse.y,mouse.leftButton,mouse.midButton,mouse.rightButton,mouse.started,mouse.stopped,stratnextround.started,stratnextround.stopped,endgame.started,endgame.stopped,participant,date,expName,psychopyVersion,frameRate,
,,,,,,,,,,,,,,,,,,,,,,,,,,,,,,,,,,,,,,,,,,,,,,,,,,,,,,18.19196780002676,None,18.19196780002676,None,space,0.9315678999992087,18.674596299999394,None,,,,,,,,,,,,,,,,,,,,,,,,,,,,,,,,,,,,,,,,,,,,,,,,,,,,,,,,,,,,,,,,,,,,,,,,,,,,,,,,,,,,,,,,,,109,2023-04-03_16h35.12.482,FishGame,2022.1.1,60.030279258823924,
물고기과제_instruction(참가자용)OrangeVersion.mp4,,,,,,,,,,,,,,0,0,0,0,0,0,0,0,,,,,,,,,,,,,,,,,,,,,,,,,,,,,,,,,,,,,,,,,96.58961770002497,None,n,3.4576300000189804,96.58961770002497,None,,,,,,,,,,,,,,,,,,,,,,,,,,,,,,,,,,,,,,,,,,,,,,,,,,,,,,,,,,,,,,,,,,,,,,,,,,,,,,,,,,,,109,2023-04-03_16h35.12.482,FishGame,2022.1.1,60.030279258823924,
,1,넌 교활해,5,Green,B,2.333333333333333,2.133333333333333,ScrollUp,ScrollDown,Green.png,practice,,,0,0,0,0,,,,,0,0,0,0,0,0,0,0,,,,,,,,,,,,,,,,,,,,,,,,,,,,,,,,,,,,,,,0.096296296,-0.17685185,1,0,0,0.5143791399314068,None,100.06936239998322,None,104.48581209999975,105.9862179000047,106.02260269998806,106.9865998000023,107.01942740002414,107.96940220001852,107.96940220001852,None,1.8518518557151158,2.1633927000220865,109.2525975999888,None,ScrollUp,정답입니다,109.2525975999888,None,109.2525975999888,None,109.2525975999888,None,109.2525975999888,None,111.11934799997834,None,111.11934799997834,111.619097399991,,,,,,,,,,,,,,,,,,,,,,,,,,,,,,,,,,,,,,,,,,,,,,,,,109,2023-04-03_16h35.12.482,FishGame,2022.1.1,60.030279258823924,
,2,넌 슬기로워,2,Orange,A,6.166666666666667,4.1,ScrollDown,ScrollUp,Orange.png,practice,,,0,0,0,0,,,,,0,0,0,0,0,1,1,1,,,,,,,,,,,,,,,,,,,,,,,,,,,,,,,,,,,,,,,,,,,,,,,,,,,,,,,,1,1.5480086000170559,112.23835130000953,None,ScrollDown,정답입니다,112.23835130000953,None,112.23835130000953,None,112.23835130000953,None,112.23835130000953,None,113.68573690002086,None,113.68573690002086,114.18574330001138,,,,,,,,,,,,,,,,,,,,,,,,,,,,,,,,,,,,,,,,,,,,,,,,,109,2023-04-03_16h35.12.482,FishGame,2022.1.1,60.030279258823924,
,3,나를 보내줘,6,Orange,A,0,0,ScrollUp,ScrollDown,Orange.png,practice,,,0,0,0,0,,,,,0,0,0,0,0,2,2,2,,,,,,,,,,,,,,,,,,,,,,,,,,,,,,,,,,,,,,,,,,,,,,,,,,,,,,,,1.9722222189108531,1.1647395999752916,114.80601390002994,None,ScrollUp,정답입니다,114.80601390002994,None,114.80601390002994,None,114.80601390002994,None,114.80601390002994,None,115.86915560002672,None,115.86915560002672,116.36908480001148,,,,,,,,,,,,,,,,,,,,,,,,,,,,,,,,,,,,,,,,,,,,,,,,,109,2023-04-03_16h35.12.482,FishGame,2022.1.1,60.030279258823924,
,4,나를 데려가줘,6,Green,B,0,0,ScrollDown,ScrollUp,Green.png,practice,,,0,0,0,0,,,,,0,0,0,0,0,3,3,3,,,,,,,,,,,,,,,,,,,,,,,,,,,,,,,,,,,,,,,,,,,,,,,,,,,,,,,,1,1.1801339999656193,116.98954710003454,None,ScrollDown,정답입니다,116.98954710003454,None,116.98954710003454,None,116.98954710003454,None,116.98954710003454,None,118.06902260001516,None,118.06902260001516,118.56894159998046,,,,,,,,,,,,,,,,,,,,,,,,,,,,,,,,,,,,,,,,,,,,,,,,,109,2023-04-03_16h35.12.482,FishGame,2022.1.1,60.030279258823924,
,1,넌 교활해,5,Green,B,2.333333333333333,2.133333333333333,ScrollUp,ScrollDown,Green.png,practice,,,0,0,0,0,,,,,0,0,0,0,,,,,,,,,,,,,,,,,,,,,,,,,,,,,,,,,,,,,,,,,,,,,,,,,,,,,,,,,,,,,,,,,,,,,,,,,,,,,,n,6.197515900013968,119.06900170003064,None,119.06900170003064,None,,,,,,,,,,,,,,,,,,,,,,,,,,,,,,,,,,,,,,,,,,,109,2023-04-03_16h35.12.482,FishGame,2022.1.1,60.030279258823924,
,1,넌 따뜻해,1,Green,B,6.083333333333333,5.6,ScrollUp,ScrollDown,Green.png,1,Positive,Incongruent,0,0,0,0,,,,,,,,,,,,,0,0,0,0,,,,,,,,,,,,,,,,,,,,,,,,,,,,,,,,,,,,,,,,,,,,129.7686071000062,131.26895100000547,131.30225900001824,132.25219369999832,132.3022149000317,133.2521663000225,133.2521663000225,None,,,,,,,,,,,,,,,,,,,,,,,,,0.13796297,-0.11574074,1,0,0,0.3149993399856612,None,125.28536720003467,None,2,1.7612777999602258,134.5436307999771,None,ScrollUp,정답입니다,134.5436307999771,None,134.5436307999771,None,134.5436307999771,None,134.5436307999771,None,136.00206420000177,None,136.00206420000177,136.50516070000594,,,,,,,,,,,,,,,,109,2023-04-03_16h35.12.482,FishGame,2022.1.1,60.030279258823924,
,2,넌 기품있어,2,Green,B,5.791666666666668,4.5,ScrollUp,ScrollDown,Green.png,1,Positive,Incongruent,0,0,0,0,,,,,,,,,,,,,0,1,1,1,,,,,,,,,,,,,,,,,,,,,,,,,,,,,,,,,,,,,,,,,,,,,,,,,,,,,,,,,,,,,,,,,,,,,,,,,,,,,,,,,,,,,2,1.2331410000333562,137.1246375000337,None,ScrollUp,정답입니다,137.1246375000337,None,137.1246375000337,None,137.1246375000337,None,137.1246375000337,None,138.24982790002832,None,138.24982790002832,138.75187590002315,,,,,,,,,,,,,,,,109,2023-04-03_16h35.12.482,FishGame,2022.1.1,60.030279258823924,
,3,나를 보내줘,6,Orange,A,0,0,ScrollUp,ScrollDown,Orange.png,1,NonTarget,NonTarget,0,0,0,0,,,,,,,,,,,,,0,2,2,2,,,,,,,,,,,,,,,,,,,,,,,,,,,,,,,,,,,,,,,,,,,,,,,,,,,,,,,,,,,,,,,,,,,,,,,,,,,,,,,,,,,,,2,1.2334842000273056,139.37746649998007,None,ScrollUp,정답입니다,139.37746649998007,None,139.37746649998007,None,139.37746649998007,None,139.37746649998007,None,140.5019591000164,None,140.5019591000164,141.00185860000784,,,,,,,,,,,,,,,,109,2023-04-03_16h35.12.482,FishGame,2022.1.1,60.030279258823924,
,4,넌 수동적이야,4,Orange,A,2.833333333333333,2.933333333333333,ScrollDown,ScrollUp,Orange.png,1,Negative,Incongruent,0,0,0,0,,,,,,,,,,,,,0,3,3,3,,,,,,,,,,,,,,,,,,,,,,,,,,,,,,,,,,,,,,,,,,,,,,,,,,,,,,,,,,,,,,,,,,,,,,,,,,,,,,,,,,,,,1,1.445699300034903,141.63607830001274,None,ScrollDown,정답입니다,141.63607830001274,None,141.63607830001274,None,141.63607830001274,None,141.63607830001274,None,142.96615530003328,None,142.96615530003328,143.46619290002855,,,,,,,,,,,,,,,,109,2023-04-03_16h35.12.482,FishGame,2022.1.1,60.030279258823924,
,5,넌 사심이 없어,3,Green,B,4.916666666666666,4.333333333333333,ScrollUp,ScrollDown,Green.png,1,Neutral,Neutral,0,0,0,0,,,,,,,,,,,,,0,4,4,4,,,,,,,,,,,,,,,,,,,,,,,,,,,,,,,,,,,,,,,,,,,,,,,,,,,,,,,,,,,,,,,,,,,,,,,,,,,,,,,,,,,,,2,1.3691567999776453,144.08814509998774,None,ScrollUp,정답입니다,144.08814509998774,None,144.08814509998774,None,144.08814509998774,None,144.08814509998774,None,145.35193900001468,None,145.35193900001468,145.85184389998903,,,,,,,,,,,,,,,,109,2023-04-03_16h35.12.482,FishGame,2022.1.1,60.030279258823924,
,6,넌 헤퍼,5,Orange,A,2.458333333333334,2.233333333333333,ScrollDown,ScrollUp,Orange.png,1,Negative,Incongruent,0,0,0,0,,,,,,,,,,,,,0,5,5,5,,,,,,,,,,,,,,,,,,,,,,,,,,,,,,,,,,,,,,,,,,,,,,,,,,,,,,,,,,,,,,,,,,,,,,,,,,,,,,,,,,,,,1,1.395886700018309,146.4744597999961,None,ScrollDown,정답입니다,146.4744597999961,None,146.4744597999961,None,146.4744597999961,None,146.4744597999961,None,147.76602660003118,None,147.76602660003118,148.26695080002537,,,,,,,,,,,,,,,,109,2023-04-03_16h35.12.482,FishGame,2022.1.1,60.030279258823924,
,7,넌 말쑥해,3,Orange,A,4.833333333333334,4.333333333333333,ScrollDown,ScrollUp,Orange.png,1,Neutral,Neutral,0,0,0,0,,,,,,,,,,,,,0,6,6,6,,,,,,,,,,,,,,,,,,,,,,,,,,,,,,,,,,,,,,,,,,,,,,,,,,,,,,,,,,,,,,,,,,,,,,,,,,,,,,,,,,,,,1,1.5955505999736488,148.89475510001648,None,ScrollDown,정답입니다,148.89475510001648,None,148.89475510001648,None,148.89475510001648,None,148.89475510001648,None,150.3851475000265,None,150.3851475000265,150.88509870000416,,,,,,,,,,,,,,,,109,2023-04-03_16h35.12.482,FishGame,2022.1.1,60.030279258823924,
,8,넌 투덜거려,5,Green,B,2.541666666666667,2.266666666666667,ScrollUp,ScrollDown,Green.png,1,Negative,Congruent,0,0,0,0,,,,,,,,,,,,,0,7,7,7,,,,,,,,,,,,,,,,,,,,,,,,,,,,,,,,,,,,,,,,,,,,,,,,,,,,,,,,,,,,,,,,,,,,,,,,,,,,,,,,,,,,,2,1.2143368999822997,151.50826219998999,None,ScrollUp,정답입니다,151.50826219998999,None,151.50826219998999,None,151.50826219998999,None,151.50826219998999,None,152.61593720002566,None,152.61593720002566,153.11600889998954,,,,,,,,,,,,,,,,109,2023-04-03_16h35.12.482,FishGame,2022.1.1,60.030279258823924,
,9,넌 적극적이야,1,Orange,A,5.708333333333333,5.533333333333333,ScrollDown,ScrollUp,Orange.png,1,Positive,Congruent,0,0,0,0,,,,,,,,,,,,,0,8,8,8,,,,,,,,,,,,,,,,,,,,,,,,,,,,,,,,,,,,,,,,,,,,,,,,,,,,,,,,,,,,,,,,,,,,,,,,,,,,,,,,,,,,,1,1.2836832999601029,153.73755900003016,None,ScrollDown,정답입니다,153.73755900003016,None,153.73755900003016,None,153.73755900003016,None,153.73755900003016,None,154.91837269999087,None,154.91837269999087,155.41848739999114,,,,,,,,,,,,,,,,109,2023-04-03_16h35.12.482,FishGame,2022.1.1,60.030279258823924,
,10,넌 재미없어,4,Green,B,2.625,2.966666666666667,ScrollUp,ScrollDown,Green.png,1,Negative,Congruent,0,0,0,0,,,,,,,,,,,,,0,9,9,9,,,,,,,,,,,,,,,,,,,,,,,,,,,,,,,,,,,,,,,,,,,,,,,,,,,,,,,,,,,,,,,,,,,,,,,,,,,,,,,,,,,,,2,1.1287777000106871,156.0418134999927,None,ScrollUp,정답입니다,156.0418134999927,None,156.0418134999927,None,156.0418134999927,None,156.0418134999927,None,157.0658072999795,None,157.0658072999795,157.56586790003348,,,,,,,,,,,,,,,,109,2023-04-03_16h35.12.482,FishGame,2022.1.1,60.030279258823924,
,11,넌 명석해,2,Orange,A,5.875,4.033333333333333,ScrollDown,ScrollUp,Orange.png,1,Positive,Congruent,0,0,0,0,,,,,,,,,,,,,0,10,10,10,,,,,,,,,,,,,,,,,,,,,,,,,,,,,,,,,,,,,,,,,,,,,,,,,,,,,,,,,,,,,,,,,,,,,,,,,,,,,,,,,,,,,1,1.2648488999693654,158.190909500001,None,ScrollDown,정답입니다,158.190909500001,None,158.190909500001,None,158.190909500001,None,158.190909500001,None,159.35167370003182,None,159.35167370003182,159.85151240002597,,,,,,,,,,,,,,,,109,2023-04-03_16h35.12.482,FishGame,2022.1.1,60.030279258823924,
,12,나를 데려가줘,6,Green,B,0,0,ScrollDown,ScrollUp,Green.png,1,NonTarget,NonTarget,0,0,0,0,,,,,,,,,,,,,0,11,11,11,,,,,,,,,,,,,,,,,,,,,,,,,,,,,,,,,,,,,,,,,,,,,,,,,,,,,,,,,,,,,,,,,,,,,,,,,,,,,,,,,,,,,1,1.4999584999750368,160.47236730001168,None,ScrollDown,정답입니다,160.47236730001168,None,160.47236730001168,None,160.47236730001168,None,160.47236730001168,None,161.86807870003395,None,161.86807870003395,162.36807159997988,,,,,,,,,,,,,,,,109,2023-04-03_16h35.12.482,FishGame,2022.1.1,60.030279258823924,
,13,넌 소심해,4,Orange,A,3,3.1,ScrollDown,ScrollUp,Orange.png,1,Negative,Incongruent,0,0,0,0,,,,,,,,,,,,,0,12,12,12,,,,,,,,,,,,,,,,,,,,,,,,,,,,,,,,,,,,,,,,,,,,,,,,,,,,,,,,,,,,,,,,,,,,,,,,,,,,,,,,,,,,,1,1.3649839999852702,162.98888190003345,None,ScrollDown,정답입니다,162.98888190003345,None,162.98888190003345,None,162.98888190003345,None,162.98888190003345,None,164.25144179997733,None,164.25144179997733,164.75133900000947,,,,,,,,,,,,,,,,109,2023-04-03_16h35.12.482,FishGame,2022.1.1,60.030279258823924,
,14,넌 합리적이야,2,Orange,A,5.583333333333333,4.733333333333333,ScrollDown,ScrollUp,Orange.png,1,Positive,Congruent,0,0,0,0,,,,,,,,,,,,,0,13,13,13,,,,,,,,,,,,,,,,,,,,,,,,,,,,,,,,,,,,,,,,,,,,,,,,,,,,,,,,,,,,,,,,,,,,,,,,,,,,,,,,,,,,,1,1.464909499976784,165.37309900001856,None,ScrollDown,정답입니다,165.37309900001856,None,165.37309900001856,None,165.37309900001856,None,165.37309900001856,None,166.73253370000748,None,166.73253370000748,167.23459100001492,,,,,,,,,,,,,,,,109,2023-04-03_16h35.12.482,FishGame,2022.1.1,60.030279258823924,
,15,넌 무자비해,5,Green,B,2.333333333333333,2.1,ScrollUp,ScrollDown,Green.png,1,Negative,Congruent,0,0,0,0,,,,,,,,,,,,,0,14,14,14,,,,,,,,,,,,,,,,,,,,,,,,,,,,,,,,,,,,,,,,,,,,,,,,,,,,,,,,,,,,,,,,,,,,,,,,,,,,,,,,,,,,,1.8858024626970291,1.1817663999972865,167.86202790000243,None,ScrollUp,정답입니다,167.86202790000243,None,167.86202790000243,None,167.86202790000243,None,167.86202790000243,None,168.93255999998655,None,168.93255999998655,169.43457909999415,,,,,,,,,,,,,,,,109,2023-04-03_16h35.12.482,FishGame,2022.1.1,60.030279258823924,
,16,나를 보내줘,6,Orange,A,0,0,ScrollUp,ScrollDown,Orange.png,1,NonTarget,NonTarget,0,0,0,0,,,,,,,,,,,,,0,15,15,15,,,,,,,,,,,,,,,,,,,,,,,,,,,,,,,,,,,,,,,,,,,,,,,,,,,,,,,,,,,,,,,,,,,,,,,,,,,,,,,,,,,,,2,1.2123882999876514,170.05895219999366,None,ScrollUp,정답입니다,170.05895219999366,None,170.05895219999366,None,170.05895219999366,None,170.05895219999366,None,171.1655053999857,None,171.1655053999857,171.6654991999967,,,,,,,,,,,,,,,,109,2023-04-03_16h35.12.482,FishGame,2022.1.1,60.030279258823924,
,17,넌 현실적이야,3,Green,B,4.608695652173913,4.766666666666667,ScrollUp,ScrollDown,Green.png,1,Neutral,Neutral,0,0,0,0,,,,,,,,,,,,,0,16,16,16,,,,,,,,,,,,,,,,,,,,,,,,,,,,,,,,,,,,,,,,,,,,,,,,,,,,,,,,,,,,,,,,,,,,,,,,,,,,,,,,,,,,,2,1.3669756999588571,172.28657420002855,None,ScrollUp,정답입니다,172.28657420002855,None,172.28657420002855,None,172.28657420002855,None,172.28657420002855,None,173.55135680001695,None,173.55135680001695,174.05121700000018,,,,,,,,,,,,,,,,109,2023-04-03_16h35.12.482,FishGame,2022.1.1,60.030279258823924,
,18,넌 의리있어,1,Green,B,5.833333333333334,5.633333333333334,ScrollUp,ScrollDown,Green.png,1,Positive,Incongruent,0,0,0,0,,,,,,,,,,,,,0,17,17,17,,,,,,,,,,,,,,,,,,,,,,,,,,,,,,,,,,,,,,,,,,,,,,,,,,,,,,,,,,,,,,,,,,,,,,,,,,,,,,,,,,,,,2,1.2975733000203036,174.6710750000202,None,ScrollUp,정답입니다,174.6710750000202,None,174.6710750000202,None,174.6710750000202,None,174.6710750000202,None,175.8654002000112,None,175.8654002000112,176.3654768000124,,,,,,,,,,,,,,,,109,2023-04-03_16h35.12.482,FishGame,2022.1.1,60.030279258823924,
,19,넌 신경과민이야,5,Orange,A,2.541666666666667,2.166666666666667,ScrollDown,ScrollUp,Orange.png,1,Negative,Incongruent,0,0,0,0,,,,,,,,,,,,,0,18,18,18,,,,,,,,,,,,,,,,,,,,,,,,,,,,,,,,,,,,,,,,,,,,,,,,,,,,,,,,,,,,,,,,,,,,,,,,,,,,,,,,,,,,,1,1.2006109000067227,176.98833910003304,None,ScrollDown,정답입니다,176.98833910003304,None,176.98833910003304,None,176.98833910003304,None,176.98833910003304,None,178.0845417000237,None,178.0845417000237,178.58444810000947,,,,,,,,,,,,,,,,109,2023-04-03_16h35.12.482,FishGame,2022.1.1,60.030279258823924,
,20,넌 편안해,1,Orange,A,5.916666666666666,5.866666666666666,ScrollDown,ScrollUp,Orange.png,1,Positive,Congruent,0,0,0,0,,,,,,,,,,,,,0,19,19,19,,,,,,,,,,,,,,,,,,,,,,,,,,,,,,,,,,,,,,,,,,,,,,,,,,,,,,,,,,,,,,,,,,,,,,,,,,,,,,,,,,,,,1,1.0816648000036366,179.2065931999823,None,ScrollDown,정답입니다,179.2065931999823,None,179.2065931999823,None,179.2065931999823,None,179.2065931999823,None,180.1846362000215,None,180.1846362000215,180.68766589998268,,,,,,,,,,,,,,,,109,2023-04-03_16h35.12.482,FishGame,2022.1.1,60.030279258823924,
,21,넌 품위있어,2,Green,B,5.291666666666666,4.466666666666667,ScrollUp,ScrollDown,Green.png,1,Positive,Incongruent,0,0,0,0,,,,,,,,,,,,,0,20,20,20,,,,,,,,,,,,,,,,,,,,,,,,,,,,,,,,,,,,,,,,,,,,,,,,,,,,,,,,,,,,,,,,,,,,,,,,,,,,,,,,,,,,,2,1.2481212999555282,181.30256199999712,None,ScrollUp,정답입니다,181.30256199999712,None,181.30256199999712,None,181.30256199999712,None,181.30256199999712,None,182.45096520002699,None,182.45096520002699,182.95093059999635,,,,,,,,,,,,,,,,109,2023-04-03_16h35.12.482,FishGame,2022.1.1,60.030279258823924,
,22,넌 빈틈없어,3,Orange,A,4.833333333333333,3.966666666666667,ScrollDown,ScrollUp,Orange.png,1,Neutral,Neutral,0,0,0,0,,,,,,,,,,,,,0,21,21,21,,,,,,,,,,,,,,,,,,,,,,,,,,,,,,,,,,,,,,,,,,,,,,,,,,,,,,,,,,,,,,,,,,,,,,,,,,,,,,,,,,,,,1,1.1816899999976158,183.57296950003365,None,ScrollDown,정답입니다,183.57296950003365,None,183.57296950003365,None,183.57296950003365,None,183.57296950003365,None,184.64878440002212,None,184.64878440002212,185.15080830000807,,,,,,,,,,,,,,,,109,2023-04-03_16h35.12.482,FishGame,2022.1.1,60.030279258823924,
,23,넌 상상력없어,4,Green,B,2.833333333333333,3.133333333333333,ScrollUp,ScrollDown,Green.png,1,Negative,Congruent,0,0,0,0,,,,,,,,,,,,,0,22,22,22,,,,,,,,,,,,,,,,,,,,,,,,,,,,,,,,,,,,,,,,,,,,,,,,,,,,,,,,,,,,,,,,,,,,,,,,,,,,,,,,,,,,,2,1.2501143999979831,185.77094900002703,None,ScrollUp,정답입니다,185.77094900002703,None,185.77094900002703,None,185.77094900002703,None,185.77094900002703,None,186.91547690000152,None,186.91547690000152,187.41747960000066,,,,,,,,,,,,,,,,109,2023-04-03_16h35.12.482,FishGame,2022.1.1,60.030279258823924,
,24,넌 지혜로워,2,Green,B,6.333333333333334,4.633333333333334,ScrollUp,ScrollDown,Green.png,1,Positive,Incongruent,0,0,0,0,,,,,,,,,,,,,0,23,23,23,,,,,,,,,,,,,,,,,,,,,,,,,,,,,,,,,,,,,,,,,,,,,,,,,,,,,,,,,,,,,,,,,,,,,,,,,,,,,,,,,,,,,2,1.1126982000423595,188.04425370000536,None,ScrollUp,정답입니다,188.04425370000536,None,188.04425370000536,None,188.04425370000536,None,188.04425370000536,None,189.04872349998914,None,189.04872349998914,189.55072489997838,,,,,,,,,,,,,,,,109,2023-04-03_16h35.12.482,FishGame,2022.1.1,60.030279258823924,
,25,넌 시끄러워,4,Orange,A,2.833333333333333,3.033333333333333,ScrollDown,ScrollUp,Orange.png,1,Negative,Incongruent,0,0,0,0,,,,,,,,,,,,,0,24,24,24,,,,,,,,,,,,,,,,,,,,,,,,,,,,,,,,,,,,,,,,,,,,,,,,,,,,,,,,,,,,,,,,,,,,,,,,,,,,,,,,,,,,,1,1.1683980000088923,190.1737513000262,None,ScrollDown,정답입니다,190.1737513000262,None,190.1737513000262,None,190.1737513000262,None,190.1737513000262,None,191.23726000002353,None,191.23726000002353,191.7506475999835,,,,,,,,,,,,,,,,109,2023-04-03_16h35.12.482,FishGame,2022.1.1,60.030279258823924,
,26,넌 만사태평이야,3,Green,B,4,4.333333333333333,ScrollUp,ScrollDown,Green.png,1,Neutral,Neutral,0,0,0,0,,,,,,,,,,,,,0,25,25,25,,,,,,,,,,,,,,,,,,,,,,,,,,,,,,,,,,,,,,,,,,,,,,,,,,,,,,,,,,,,,,,,,,,,,,,,,,,,,,,,,,,,,2,1.1500373000162654,192.3720313999802,None,ScrollUp,정답입니다,192.3720313999802,None,192.3720313999802,None,192.3720313999802,None,192.3720313999802,None,193.41730490000919,None,193.41730490000919,193.9172963000019,,,,,,,,,,,,,,,,109,2023-04-03_16h35.12.482,FishGame,2022.1.1,60.030279258823924,
,27,넌 붙임성있어,1,Orange,A,5.708333333333333,5.633333333333334,ScrollDown,ScrollUp,Orange.png,1,Positive,Congruent,0,0,0,0,,,,,,,,,,,,,0,26,26,26,,,,,,,,,,,,,,,,,,,,,,,,,,,,,,,,,,,,,,,,,,,,,,,,,,,,,,,,,,,,,,,,,,,,,,,,,,,,,,,,,,,,,1,1.1460068000014871,194.5427601999836,None,ScrollDown,정답입니다,194.5427601999836,None,194.5427601999836,None,194.5427601999836,None,194.5427601999836,None,195.58409349998692,None,195.58409349998692,196.0839888000046,,,,,,,,,,,,,,,,109,2023-04-03_16h35.12.482,FishGame,2022.1.1,60.030279258823924,
,28,넌 영리해,2,Orange,A,6,4.033333333333333,ScrollDown,ScrollUp,Orange.png,1,Positive,Congruent,0,0,0,0,,,,,,,,,,,,,0,27,27,27,,,,,,,,,,,,,,,,,,,,,,,,,,,,,,,,,,,,,,,,,,,,,,,,,,,,,,,,,,,,,,,,,,,,,,,,,,,,,,,,,,,,,1.0339506367842357,1.1641572000226006,196.71377740002936,None,ScrollDown,정답입니다,196.71377740002936,None,196.71377740002936,None,196.71377740002936,None,196.71377740002936,None,197.76727479998954,None,197.76727479998954,198.26724250003463,,,,,,,,,,,,,,,,109,2023-04-03_16h35.12.482,FishGame,2022.1.1,60.030279258823924,
,29,넌 열심이야,1,Green,B,6.041666666666667,5.833333333333333,ScrollUp,ScrollDown,Green.png,1,Positive,Incongruent,0,0,0,0,,,,,,,,,,,,,0,28,28,28,,,,,,,,,,,,,,,,,,,,,,,,,,,,,,,,,,,,,,,,,,,,,,,,,,,,,,,,,,,,,,,,,,,,,,,,,,,,,,,,,,,,,1.9969135920206706,1.179332500032615,198.88695720001124,None,ScrollUp,정답입니다,198.88695720001124,None,198.88695720001124,None,198.88695720001124,None,198.88695720001124,None,199.96487890003482,None,199.96487890003482,200.46490760002052,,,,,,,,,,,,,,,,109,2023-04-03_16h35.12.482,FishGame,2022.1.1,60.030279258823924,
,30,넌 인기없어,4,Green,B,3,3.3,ScrollUp,ScrollDown,Green.png,1,Negative,Congruent,0,0,0,0,,,,,,,,,,,,,0,29,29,29,,,,,,,,,,,,,,,,,,,,,,,,,,,,,,,,,,,,,,,,,,,,,,,,,,,,,,,,,,,,,,,,,,,,,,,,,,,,,,,,,,,,,2,1.3837026999681257,201.08872780000092,None,ScrollUp,정답입니다,201.08872780000092,None,201.08872780000092,None,201.08872780000092,None,201.08872780000092,None,202.36731760000112,None,202.36731760000112,202.86724220000906,,,,,,,,,,,,,,,,109,2023-04-03_16h35.12.482,FishGame,2022.1.1,60.030279258823924,
,31,넌 익살스러워,3,Orange,A,4.708333333333334,4.833333333333333,ScrollDown,ScrollUp,Orange.png,1,Neutral,Neutral,0,0,0,0,,,,,,,,,,,,,0,30,30,30,,,,,,,,,,,,,,,,,,,,,,,,,,,,,,,,,,,,,,,,,,,,,,,,,,,,,,,,,,,,,,,,,,,,,,,,,,,,,,,,,,,,,1,1.266574600012973,203.49131419998594,None,ScrollDown,정답입니다,203.49131419998594,None,203.49131419998594,None,203.49131419998594,None,203.49131419998594,None,204.65053669997724,None,204.65053669997724,205.1503945000004,,,,,,,,,,,,,,,,109,2023-04-03_16h35.12.482,FishGame,2022.1.1,60.030279258823924,
,32,넌 이기적이야,5,Green,B,2.291666666666667,2.333333333333333,ScrollUp,ScrollDown,Green.png,1,Negative,Congruent,0,0,0,0,,,,,,,,,,,,,0,31,31,31,,,,,,,,,,,,,,,,,,,,,,,,,,,,,,,,,,,,,,,,,,,,,,,,,,,,,,,,,,,,,,,,,,,,,,,,,,,,,,,,,,,,,2,1.2498551000026055,205.76719189999858,None,ScrollUp,정답입니다,205.76719189999858,None,205.76719189999858,None,205.76719189999858,None,205.76719189999858,None,206.9171675000107,None,206.9171675000107,207.42035050003324,,,,,,,,,,,,,,,,109,2023-04-03_16h35.12.482,FishGame,2022.1.1,60.030279258823924,
,33,나를 데려가줘,6,Green,B,0,0,ScrollDown,ScrollUp,Green.png,1,NonTarget,NonTarget,0,0,0,0,,,,,,,,,,,,,0,32,32,32,,,,,,,,,,,,,,,,,,,,,,,,,,,,,,,,,,,,,,,,,,,,,,,,,,,,,,,,,,,,,,,,,,,,,,,,,,,,,,,,,,,,,1,1.3499881000025198,208.03410980000626,None,ScrollDown,정답입니다,208.03410980000626,None,208.03410980000626,None,208.03410980000626,None,208.03410980000626,None,209.2816096000024,None,209.2816096000024,209.78367440000875,,,,,,,,,,,,,,,,109,2023-04-03_16h35.12.482,FishGame,2022.1.1,60.030279258823924,
,34,넌 기회주의자야,5,Orange,A,2.875,2.133333333333333,ScrollDown,ScrollUp,Orange.png,1,Negative,Incongruent,0,0,0,0,,,,,,,,,,,,,0,33,33,33,,,,,,,,,,,,,,,,,,,,,,,,,,,,,,,,,,,,,,,,,,,,,,,,,,,,,,,,,,,,,,,,,,,,,,,,,,,,,,,,,,,,,1,1.2814409999991767,210.40647139999783,None,ScrollDown,정답입니다,210.40647139999783,None,210.40647139999783,None,210.40647139999783,None,210.40647139999783,None,211.58363780000946,None,211.58363780000946,212.08364690002054,,,,,,,,,,,,,,,,109,2023-04-03_16h35.12.482,FishGame,2022.1.1,60.030279258823924,
,1,넌 미성숙해,4,Orange,A,3,3.2,ScrollDown,ScrollUp,Orange.png,2,Negative,Incongruent,0,0,0,0,,,,,,,,,,,,,,,,,0,0,0,0,,,,,,,,,,,,,,,,,,,,,,,,,,,,,,,,,,,,,,,,245.18282270000782,246.68298330000835,246.71634320000885,247.66633640002692,247.71634839999024,248.66631619998952,248.66631619998952,None,,,,,,,,,,,,,,,,,,,,,,,,,,,,,,,,,,1,1.3899341999785975,249.7623689000029,None,ScrollDown,정답입니다,249.7623689000029,None,249.7623689000029,None,249.7623689000029,None,249.7623689000029,None,251.04707770003006,None,251.04707770003006,251.54727869998896,212.5869636000134,None,212.5869636000134,None,0.16111112,-0.18333334,1,0,0,0.01639073999831453,None,242.59980299999006,None,,,109,2023-04-03_16h35.12.482,FishGame,2022.1.1,60.030279258823924,
,2,넌 반사회적이야,5,Green,B,2.416666666666667,2.033333333333333,ScrollUp,ScrollDown,Green.png,2,Negative,Congruent,0,0,0,0,,,,,,,,,,,,,,,,,0,1,1,1,,,,,,,,,,,,,,,,,,,,,,,,,,,,,,,,,,,,,,,,,,,,,,,,,,,,,,,,,,,,,,,,,,,,,,,,,,,,,,,,,2,1.3151115999789909,252.1685607000254,None,ScrollUp,정답입니다,252.1685607000254,None,252.1685607000254,None,252.1685607000254,None,252.1685607000254,None,253.3829010000336,None,253.3829010000336,253.88278390001506,,,,,,,,,,,,,,,,109,2023-04-03_16h35.12.482,FishGame,2022.1.1,60.030279258823924,
,3,넌 유능해,2,Orange,A,6.208333333333333,4.433333333333334,ScrollDown,ScrollUp,Orange.png,2,Positive,Congruent,0,0,0,0,,,,,,,,,,,,,,,,,0,2,2,2,,,,,,,,,,,,,,,,,,,,,,,,,,,,,,,,,,,,,,,,,,,,,,,,,,,,,,,,,,,,,,,,,,,,,,,,,,,,,,,,,1,1.2291660000337288,254.50545380002586,None,ScrollDown,정답입니다,254.50545380002586,None,254.50545380002586,None,254.50545380002586,None,254.50545380002586,None,255.63031360000605,None,255.63031360000605,256.1302936000284,,,,,,,,,,,,,,,,109,2023-04-03_16h35.12.482,FishGame,2022.1.1,60.030279258823924,
,4,넌 능숙해,2,Green,B,5.666666666666667,4.733333333333333,ScrollUp,ScrollDown,Green.png,2,Positive,Incongruent,0,0,0,0,,,,,,,,,,,,,,,,,0,3,3,3,,,,,,,,,,,,,,,,,,,,,,,,,,,,,,,,,,,,,,,,,,,,,,,,,,,,,,,,,,,,,,,,,,,,,,,,,,,,,,,,,2,1.1956426000106148,256.74958360003075,None,ScrollUp,정답입니다,256.74958360003075,None,256.74958360003075,None,256.74958360003075,None,256.74958360003075,None,257.8495052999933,None,257.8495052999933,258.3493655999773,,,,,,,,,,,,,,,,109,2023-04-03_16h35.12.482,FishGame,2022.1.1,60.030279258823924,
,5,넌 진부해,4,Green,B,2.458333333333333,3.166666666666667,ScrollUp,ScrollDown,Green.png,2,Negative,Congruent,0,0,0,0,,,,,,,,,,,,,,,,,0,4,4,4,,,,,,,,,,,,,,,,,,,,,,,,,,,,,,,,,,,,,,,,,,,,,,,,,,,,,,,,,,,,,,,,,,,,,,,,,,,,,,,,,2,1.1815453000017442,258.96921900002053,None,ScrollUp,정답입니다,258.96921900002053,None,258.96921900002053,None,258.96921900002053,None,258.96921900002053,None,260.04935500002466,None,260.04935500002466,260.54932550003286,,,,,,,,,,,,,,,,109,2023-04-03_16h35.12.482,FishGame,2022.1.1,60.030279258823924,
,6,나를 보내줘,6,Orange,A,0,0,ScrollUp,ScrollDown,Orange.png,2,NonTarget,NonTarget,0,0,0,0,,,,,,,,,,,,,,,,,0,5,5,5,,,,,,,,,,,,,,,,,,,,,,,,,,,,,,,,,,,,,,,,,,,,,,,,,,,,,,,,,,,,,,,,,,,,,,,,,,,,,,,,,2,1.1119443000061437,261.17515909997746,None,ScrollUp,정답입니다,261.17515909997746,None,261.17515909997746,None,261.17515909997746,None,261.17515909997746,None,262.1825542000006,None,262.1825542000006,262.68244489998324,,,,,,,,,,,,,,,,109,2023-04-03_16h35.12.482,FishGame,2022.1.1,60.030279258823924,
,7,넌 엄격해,3,Orange,A,4.166666666666666,4.1,ScrollDown,ScrollUp,Orange.png,2,Neutral,Neutral,0,0,0,0,,,,,,,,,,,,,,,,,0,6,6,6,,,,,,,,,,,,,,,,,,,,,,,,,,,,,,,,,,,,,,,,,,,,,,,,,,,,,,,,,,,,,,,,,,,,,,,,,,,,,,,,,1,1.0472460000310093,263.3089044999797,None,ScrollDown,정답입니다,263.3089044999797,None,263.3089044999797,None,263.3089044999797,None,263.3089044999797,None,264.2467918000184,None,264.2467918000184,264.74752879998414,,,,,,,,,,,,,,,,109,2023-04-03_16h35.12.482,FishGame,2022.1.1,60.030279258823924,
,8,나를 보내줘,6,Orange,A,0,0,ScrollUp,ScrollDown,Orange.png,2,NonTarget,NonTarget,0,0,0,0,,,,,,,,,,,,,,,,,0,7,7,7,,,,,,,,,,,,,,,,,,,,,,,,,,,,,,,,,,,,,,,,,,,,,,,,,,,,,,,,,,,,,,,,,,,,,,,,,,,,,,,,,2,1.1688802000135183,265.3659197000088,None,ScrollUp,정답입니다,265.3659197000088,None,265.3659197000088,None,265.3659197000088,None,265.3659197000088,None,266.4326880000299,None,266.4326880000299,266.93252410000423,,,,,,,,,,,,,,,,109,2023-04-03_16h35.12.482,FishGame,2022.1.1,60.030279258823924,
,9,넌 대담해,3,Green,B,4.875,4.866666666666666,ScrollUp,ScrollDown,Green.png,2,Neutral,Neutral,0,0,0,0,,,,,,,,,,,,,,,,,0,8,8,8,,,,,,,,,,,,,,,,,,,,,,,,,,,,,,,,,,,,,,,,,,,,,,,,,,,,,,,,,,,,,,,,,,,,,,,,,,,,,,,,,2,1.0998750999569893,267.5533589000115,None,ScrollUp,정답입니다,267.5533589000115,None,267.5533589000115,None,267.5533589000115,None,267.5533589000115,None,268.5469742999994,None,268.5469742999994,269.0489540999988,,,,,,,,,,,,,,,,109,2023-04-03_16h35.12.482,FishGame,2022.1.1,60.030279258823924,
,10,넌 꾸준해,1,Orange,A,5.916666666666668,5.8,ScrollDown,ScrollUp,Orange.png,2,Positive,Congruent,0,0,0,0,,,,,,,,,,,,,,,,,0,9,9,9,,,,,,,,,,,,,,,,,,,,,,,,,,,,,,,,,,,,,,,,,,,,,,,,,,,,,,,,,,,,,,,,,,,,,,,,,,,,,,,,,1,1.0981432999833487,269.67058380000526,None,ScrollDown,정답입니다,269.67058380000526,None,269.67058380000526,None,269.67058380000526,None,269.67058380000526,None,270.66569240001263,None,270.66569240001263,271.1656255000271,,,,,,,,,,,,,,,,109,2023-04-03_16h35.12.482,FishGame,2022.1.1,60.030279258823924,
,11,나를 데려가줘,6,Green,B,0,0,ScrollDown,ScrollUp,Green.png,2,NonTarget,NonTarget,0,0,0,0,,,,,,,,,,,,,,,,,0,10,10,10,,,,,,,,,,,,,,,,,,,,,,,,,,,,,,,,,,,,,,,,,,,,,,,,,,,,,,,,,,,,,,,,,,,,,,,,,,,,,,,,,1,1.1959005999960937,271.788115000003,None,ScrollDown,정답입니다,271.788115000003,None,271.788115000003,None,271.788115000003,None,271.788115000003,None,272.8799484000192,None,272.8799484000192,273.3799146999954,,,,,,,,,,,,,,,,109,2023-04-03_16h35.12.482,FishGame,2022.1.1,60.030279258823924,
,12,넌 독선적이야,5,Orange,A,2.458333333333333,1.933333333333333,ScrollDown,ScrollUp,Orange.png,2,Negative,Incongruent,0,0,0,0,,,,,,,,,,,,,,,,,0,11,11,11,,,,,,,,,,,,,,,,,,,,,,,,,,,,,,,,,,,,,,,,,,,,,,,,,,,,,,,,,,,,,,,,,,,,,,,,,,,,,,,,,1,1.1338793000322767,274.003009499982,None,ScrollDown,정답입니다,274.003009499982,None,274.003009499982,None,274.003009499982,None,274.003009499982,None,275.03248530003475,None,275.03248530003475,275.53231640002923,,,,,,,,,,,,,,,,109,2023-04-03_16h35.12.482,FishGame,2022.1.1,60.030279258823924,
,13,나를 보내줘,6,Orange,A,0,0,ScrollUp,ScrollDown,Orange.png,2,NonTarget,NonTarget,0,0,0,0,,,,,,,,,,,,,,,,,0,12,12,12,,,,,,,,,,,,,,,,,,,,,,,,,,,,,,,,,,,,,,,,,,,,,,,,,,,,,,,,,,,,,,,,,,,,,,,,,,,,,,,,,2,1.1168799999868497,276.15065860003233,None,ScrollUp,정답입니다,276.15065860003233,None,276.15065860003233,None,276.15065860003233,None,276.15065860003233,None,277.1657331000315,None,277.1657331000315,277.66557439998724,,,,,,,,,,,,,,,,109,2023-04-03_16h35.12.482,FishGame,2022.1.1,60.030279258823924,
,14,넌 책임감있어,1,Green,B,6.347826086956522,6,ScrollUp,ScrollDown,Green.png,2,Positive,Incongruent,0,0,0,0,,,,,,,,,,,,,,,,,0,13,13,13,,,,,,,,,,,,,,,,,,,,,,,,,,,,,,,,,,,,,,,,,,,,,,,,,,,,,,,,,,,,,,,,,,,,,,,,,,,,,,,,,2,1.2333766000228934,278.2861229000264,None,ScrollUp,정답입니다,278.2861229000264,None,278.2861229000264,None,278.2861229000264,None,278.2861229000264,None,279.4155236000079,None,279.4155236000079,279.91547579999315,,,,,,,,,,,,,,,,109,2023-04-03_16h35.12.482,FishGame,2022.1.1,60.030279258823924,
,15,넌 문학적이야,3,Orange,A,4.708333333333334,4.333333333333333,ScrollDown,ScrollUp,Orange.png,2,Neutral,Neutral,0,0,0,0,,,,,,,,,,,,,,,,,0,14,14,14,,,,,,,,,,,,,,,,,,,,,,,,,,,,,,,,,,,,,,,,,,,,,,,,,,,,,,,,,,,,,,,,,,,,,,,,,,,,,,,,,1,1.128172299999278,280.54133560002083,None,ScrollDown,정답입니다,280.54133560002083,None,280.54133560002083,None,280.54133560002083,None,280.54133560002083,None,281.5653198999935,None,281.5653198999935,282.0653093000292,,,,,,,,,,,,,,,,109,2023-04-03_16h35.12.482,FishGame,2022.1.1,60.030279258823924,
,16,넌 재미있어,1,Green,B,5.875,5.7,ScrollUp,ScrollDown,Green.png,2,Positive,Incongruent,0,0,0,0,,,,,,,,,,,,,,,,,0,15,15,15,,,,,,,,,,,,,,,,,,,,,,,,,,,,,,,,,,,,,,,,,,,,,,,,,,,,,,,,,,,,,,,,,,,,,,,,,,,,,,,,,2,1.2001888999948278,282.6841290000011,None,ScrollUp,정답입니다,282.6841290000011,None,282.6841290000011,None,282.6841290000011,None,282.6841290000011,None,283.7821117999847,None,283.7821117999847,284.28198000002885,,,,,,,,,,,,,,,,109,2023-04-03_16h35.12.482,FishGame,2022.1.1,60.030279258823924,
,17,나를 데려가줘,6,Green,B,0,0,ScrollDown,ScrollUp,Green.png,2,NonTarget,NonTarget,0,0,0,0,,,,,,,,,,,,,,,,,0,16,16,16,,,,,,,,,,,,,,,,,,,,,,,,,,,,,,,,,,,,,,,,,,,,,,,,,,,,,,,,,,,,,,,,,,,,,,,,,,,,,,,,,1,1.1979659000062384,284.9037167999777,None,ScrollDown,정답입니다,284.9037167999777,None,284.9037167999777,None,284.9037167999777,None,284.9037167999777,None,285.9985846999916,None,285.9985846999916,286.49860350001836,,,,,,,,,,,,,,,,109,2023-04-03_16h35.12.482,FishGame,2022.1.1,60.030279258823924,
,18,넌 협력적이야,1,Orange,A,5.625,5.633333333333334,ScrollDown,ScrollUp,Orange.png,2,Positive,Congruent,0,0,0,0,,,,,,,,,,,,,,,,,0,17,17,17,,,,,,,,,,,,,,,,,,,,,,,,,,,,,,,,,,,,,,,,,,,,,,,,,,,,,,,,,,,,,,,,,,,,,,,,,,,,,,,,,1,1.1482622000039555,287.120539000025,None,ScrollDown,정답입니다,287.120539000025,None,287.120539000025,None,287.120539000025,None,287.120539000025,None,288.1653409000137,None,288.1653409000137,288.66528950002976,,,,,,,,,,,,,,,,109,2023-04-03_16h35.12.482,FishGame,2022.1.1,60.030279258823924,
,19,넌 평범해,3,Green,B,4.333333333333332,4.233333333333333,ScrollUp,ScrollDown,Green.png,2,Neutral,Neutral,0,0,0,0,,,,,,,,,,,,,,,,,0,18,18,18,,,,,,,,,,,,,,,,,,,,,,,,,,,,,,,,,,,,,,,,,,,,,,,,,,,,,,,,,,,,,,,,,,,,,,,,,,,,,,,,,2,1.096201500040479,289.2854769999976,None,ScrollUp,정답입니다,289.2854769999976,None,289.2854769999976,None,289.2854769999976,None,289.2854769999976,None,290.28188169997884,None,290.28188169997884,290.7822370000067,,,,,,,,,,,,,,,,109,2023-04-03_16h35.12.482,FishGame,2022.1.1,60.030279258823924,
,20,넌 오만해,5,Orange,A,2.333333333333333,2,ScrollDown,ScrollUp,Orange.png,2,Negative,Incongruent,0,0,0,0,,,,,,,,,,,,,,,,,0,19,19,19,,,,,,,,,,,,,,,,,,,,,,,,,,,,,,,,,,,,,,,,,,,,,,,,,,,,,,,,,,,,,,,,,,,,,,,,,,,,,,,,,1,1.149545299995225,291.4036086000269,None,ScrollDown,정답입니다,291.4036086000269,None,291.4036086000269,None,291.4036086000269,None,291.4036086000269,None,292.4485486000194,None,292.4485486000194,292.9484771999996,,,,,,,,,,,,,,,,109,2023-04-03_16h35.12.482,FishGame,2022.1.1,60.030279258823924,
,21,넌 운이없어,4,Green,B,3,3.466666666666667,ScrollUp,ScrollDown,Green.png,2,Negative,Congruent,0,0,0,0,,,,,,,,,,,,,,,,,0,20,20,20,,,,,,,,,,,,,,,,,,,,,,,,,,,,,,,,,,,,,,,,,,,,,,,,,,,,,,,,,,,,,,,,,,,,,,,,,,,,,,,,,2,1.147672999999486,293.56780479999725,None,ScrollUp,정답입니다,293.56780479999725,None,293.56780479999725,None,293.56780479999725,None,293.56780479999725,None,294.6127884000307,None,294.6127884000307,295.11276520002866,,,,,,,,,,,,,,,,109,2023-04-03_16h35.12.482,FishGame,2022.1.1,60.030279258823924,
,22,넌 창조적이야,2,Green,B,6.125,4.633333333333334,ScrollUp,ScrollDown,Green.png,2,Positive,Incongruent,0,0,0,0,,,,,,,,,,,,,,,,,0,21,21,21,,,,,,,,,,,,,,,,,,,,,,,,,,,,,,,,,,,,,,,,,,,,,,,,,,,,,,,,,,,,,,,,,,,,,,,,,,,,,,,,,2,1.0321618000161834,295.7321290000109,None,ScrollUp,정답입니다,295.7321290000109,None,295.7321290000109,None,295.7321290000109,None,295.7321290000109,None,296.66280500002904,None,296.66280500002904,297.16514559998177,,,,,,,,,,,,,,,,109,2023-04-03_16h35.12.482,FishGame,2022.1.1,60.030279258823924,
,23,나를 보내줘,6,Orange,A,0,0,ScrollUp,ScrollDown,Orange.png,2,NonTarget,NonTarget,0,0,0,0,,,,,,,,,,,,,,,,,0,22,22,22,,,,,,,,,,,,,,,,,,,,,,,,,,,,,,,,,,,,,,,,,,,,,,,,,,,,,,,,,,,,,,,,,,,,,,,,,,,,,,,,,2,1.1484661999857053,297.78373680001823,None,ScrollUp,정답입니다,297.78373680001823,None,297.78373680001823,None,297.78373680001823,None,297.78373680001823,None,298.83187559997896,None,298.83187559997896,299.33178330003284,,,,,,,,,,,,,,,,109,2023-04-03_16h35.12.482,FishGame,2022.1.1,60.030279258823924,
,24,넌 통찰력있어,2,Orange,A,6.5,4.8,ScrollDown,ScrollUp,Orange.png,2,Positive,Congruent,0,0,0,0,,,,,,,,,,,,,,,,,0,23,23,23,,,,,,,,,,,,,,,,,,,,,,,,,,,,,,,,,,,,,,,,,,,,,,,,,,,,,,,,,,,,,,,,,,,,,,,,,,,,,,,,,1,0.9827286999789067,299.95932840002934,None,ScrollDown,정답입니다,299.95932840002934,None,299.95932840002934,None,299.95932840002934,None,299.95932840002934,None,300.83166319999145,None,300.83166319999145,301.33156770002097,,,,,,,,,,,,,,,,109,2023-04-03_16h35.12.482,FishGame,2022.1.1,60.030279258823924,
,25,넌 경솔해,5,Green,B,2.458333333333333,2.266666666666667,ScrollUp,ScrollDown,Green.png,2,Negative,Congruent,0,0,0,0,,,,,,,,,,,,,,,,,0,24,24,24,,,,,,,,,,,,,,,,,,,,,,,,,,,,,,,,,,,,,,,,,,,,,,,,,,,,,,,,,,,,,,,,,,,,,,,,,,,,,,,,,1.9891975224018097,1.06290059996536,301.95038990001194,None,ScrollUp,정답입니다,301.95038990001194,None,301.95038990001194,None,301.95038990001194,None,301.95038990001194,None,302.9149202000117,None,302.9149202000117,303.4149317999836,,,,,,,,,,,,,,,,109,2023-04-03_16h35.12.482,FishGame,2022.1.1,60.030279258823924,
,26,넌 초조해,4,Orange,A,2.916666666666667,3.133333333333333,ScrollDown,ScrollUp,Orange.png,2,Negative,Incongruent,0,0,0,0,,,,,,,,,,,,,,,,,0,25,25,25,,,,,,,,,,,,,,,,,,,,,,,,,,,,,,,,,,,,,,,,,,,,,,,,,,,,,,,,,,,,,,,,,,,,,,,,,,,,,,,,,1,0.9308024999918416,304.03616650000913,None,ScrollDown,정답입니다,304.03616650000913,None,304.03616650000913,None,304.03616650000913,None,304.03616650000913,None,304.8625384999905,None,304.8625384999905,305.36263300001156,,,,,,,,,,,,,,,,109,2023-04-03_16h35.12.482,FishGame,2022.1.1,60.030279258823924,
,27,넌 무관심해,4,Green,B,2.833333333333333,2.9,ScrollUp,ScrollDown,Green.png,2,Negative,Congruent,0,0,0,0,,,,,,,,,,,,,,,,,0,26,26,26,,,,,,,,,,,,,,,,,,,,,,,,,,,,,,,,,,,,,,,,,,,,,,,,,,,,,,,,,,,,,,,,,,,,,,,,,,,,,,,,,1.8410493830839794,0.9638167999801226,305.9798894000123,None,ScrollUp,정답입니다,305.9798894000123,None,305.9798894000123,None,305.9798894000123,None,305.9798894000123,None,306.84588069998426,None,306.84588069998426,307.34846359997755,,,,,,,,,,,,,,,,109,2023-04-03_16h35.12.482,FishGame,2022.1.1,60.030279258823924,
,28,넌 감성적이야,3,Green,B,4.125,4.166666666666667,ScrollUp,ScrollDown,Green.png,2,Neutral,Neutral,0,0,0,0,,,,,,,,,,,,,,,,,0,27,27,27,,,,,,,,,,,,,,,,,,,,,,,,,,,,,,,,,,,,,,,,,,,,,,,,,,,,,,,,,,,,,,,,,,,,,,,,,,,,,,,,,1.8364197413126628,0.9315886000404134,307.96568199998,None,ScrollUp,정답입니다,307.96568199998,None,307.96568199998,None,307.96568199998,None,307.96568199998,None,308.7982861000346,None,308.7982861000346,309.30148229998304,,,,,,,,,,,,,,,,109,2023-04-03_16h35.12.482,FishGame,2022.1.1,60.030279258823924,
,29,넌 배려심있어,1,Orange,A,6.083333333333333,5.5,ScrollDown,ScrollUp,Orange.png,2,Positive,Congruent,0,0,0,0,,,,,,,,,,,,,,,,,0,28,28,28,,,,,,,,,,,,,,,,,,,,,,,,,,,,,,,,,,,,,,,,,,,,,,,,,,,,,,,,,,,,,,,,,,,,,,,,,,,,,,,,,1.2083333383003871,0.9128692999947816,309.9196287000086,None,ScrollDown,정답입니다,309.9196287000086,None,309.9196287000086,None,309.9196287000086,None,309.9196287000086,None,310.7314683999866,None,310.7314683999866,311.2345833000145,,,,,,,,,,,,,,,,109,2023-04-03_16h35.12.482,FishGame,2022.1.1,60.030279258823924,
,30,넌 숨김없어,3,Orange,A,4.5,4.933333333333334,ScrollDown,ScrollUp,Orange.png,2,Neutral,Neutral,0,0,0,0,,,,,,,,,,,,,,,,,0,29,29,29,,,,,,,,,,,,,,,,,,,,,,,,,,,,,,,,,,,,,,,,,,,,,,,,,,,,,,,,,,,,,,,,,,,,,,,,,,,,,,,,,1,0.9148468999774195,311.85370179999154,None,ScrollDown,정답입니다,311.85370179999154,None,311.85370179999154,None,311.85370179999154,None,311.85370179999154,None,312.66259199997876,None,312.66259199997876,313.16468490002444,,,,,,,,,,,,,,,,109,2023-04-03_16h35.12.482,FishGame,2022.1.1,60.030279258823924,
,31,넌 훌륭해,2,Green,B,5.916666666666667,4.033333333333333,ScrollUp,ScrollDown,Green.png,2,Positive,Incongruent,0,0,0,0,,,,,,,,,,,,,,,,,0,30,30,30,,,,,,,,,,,,,,,,,,,,,,,,,,,,,,,,,,,,,,,,,,,,,,,,,,,,,,,,,,,,,,,,,,,,,,,,,,,,,,,,,1.8966049353281658,1.0150623000226915,313.7846605000086,None,ScrollUp,정답입니다,313.7846605000086,None,313.7846605000086,None,313.7846605000086,None,313.7846605000086,None,314.6959634000086,None,314.6959634000086,315.1979851999786,,,,,,,,,,,,,,,,109,2023-04-03_16h35.12.482,FishGame,2022.1.1,60.030279258823924,
,32,넌 슬기로워,2,Orange,A,6.166666666666667,4.1,ScrollDown,ScrollUp,Orange.png,2,Positive,Congruent,0,0,0,0,,,,,,,,,,,,,,,,,0,31,31,31,,,,,,,,,,,,,,,,,,,,,,,,,,,,,,,,,,,,,,,,,,,,,,,,,,,,,,,,,,,,,,,,,,,,,,,,,,,,,,,,,1.0216049253940582,0.8795116000110283,315.8221445999807,None,ScrollDown,정답입니다,315.8221445999807,None,315.8221445999807,None,315.8221445999807,None,315.8221445999807,None,316.59586240001954,None,316.59586240001954,317.0978766999906,,,,,,,,,,,,,,,,109,2023-04-03_16h35.12.482,FishGame,2022.1.1,60.030279258823924,
,33,넌 냉혹해,5,Orange,A,2.583333333333333,2.1,ScrollDown,ScrollUp,Orange.png,2,Negative,Incongruent,0,0,0,0,,,,,,,,,,,,,,,,,0,32,32,32,,,,,,,,,,,,,,,,,,,,,,,,,,,,,,,,,,,,,,,,,,,,,,,,,,,,,,,,,,,,,,,,,,,,,,,,,,,,,,,,,1.0015431940555573,0.879725199949462,317.71980760002043,None,ScrollDown,정답입니다,317.71980760002043,None,317.71980760002043,None,317.71980760002043,None,317.71980760002043,None,318.497900700022,None,318.497900700022,318.99789050000254,,,,,,,,,,,,,,,,109,2023-04-03_16h35.12.482,FishGame,2022.1.1,60.030279258823924,
,34,나를 데려가줘,6,Green,B,0,0,ScrollDown,ScrollUp,Green.png,2,NonTarget,NonTarget,0,0,0,0,,,,,,,,,,,,,,,,,0,33,33,33,,,,,,,,,,,,,,,,,,,,,,,,,,,,,,,,,,,,,,,,,,,,,,,,,,,,,,,,,,,,,,,,,,,,,,,,,,,,,,,,,1,1.1961783000151627,319.61476309999125,None,ScrollDown,정답입니다,319.61476309999125,None,319.61476309999125,None,319.61476309999125,None,319.61476309999125,None,320.7145573000307,None,320.7145573000307,321.2177629999933,,,,,,,,,,,,,,,,109,2023-04-03_16h35.12.482,FishGame,2022.1.1,60.030279258823924,
,35,넌 편파적이야,5,Green,B,2.125,2,ScrollUp,ScrollDown,Green.png,2,Negative,Congruent,0,0,0,0,,,,,,,,,,,,,,,,,0,34,34,34,,,,,,,,,,,,,,,,,,,,,,,,,,,,,,,,,,,,,,,,,,,,,,,,,,,,,,,,,,,,,,,,,,,,,,,,,,,,,,,,,1.9691357910633087,0.9982407999923453,321.83689829998184,None,ScrollUp,정답입니다,321.83689829998184,None,321.83689829998184,None,321.83689829998184,None,321.83689829998184,None,322.72907280002255,None,322.72907280002255,323.2311388999806,,,,,,,,,,,,,,,,109,2023-04-03_16h35.12.482,FishGame,2022.1.1,60.030279258823924,
,36,넌 슬퍼,4,Orange,A,2.583333333333333,3.066666666666667,ScrollDown,ScrollUp,Orange.png,2,Negative,Incongruent,0,0,0,0,,,,,,,,,,,,,,,,,0,35,35,35,,,,,,,,,,,,,,,,,,,,,,,,,,,,,,,,,,,,,,,,,,,,,,,,,,,,,,,,,,,,,,,,,,,,,,,,,,,,,,,,,1.0895061641931534,0.933420000015758,323.84973760001594,None,ScrollDown,정답입니다,323.84973760001594,None,323.84973760001594,None,323.84973760001594,None,323.84973760001594,None,324.6811734000221,None,324.6811734000221,325.181147299998,,,,,,,,,,,,,,,,109,2023-04-03_16h35.12.482,FishGame,2022.1.1,60.030279258823924,
,37,나를 데려가줘,6,Green,B,0,0,ScrollDown,ScrollUp,Green.png,2,NonTarget,NonTarget,0,0,0,0,,,,,,,,,,,,,,,,,0,36,36,36,,,,,,,,,,,,,,,,,,,,,,,,,,,,,,,,,,,,,,,,,,,,,,,,,,,,,,,,,,,,,,,,,,,,,,,,,,,,,,,,,1.1049382785956066,1.0805074999807402,325.7981445000041,None,ScrollDown,정답입니다,325.7981445000041,None,325.7981445000041,None,325.7981445000041,None,325.7981445000041,None,326.77874099998735,None,326.77874099998735,327.2800301000243,,,,,,,,,,,,,,,,109,2023-04-03_16h35.12.482,FishGame,2022.1.1,60.030279258823924,
,38,넌 친절해,1,Green,B,6.041666666666667,5.533333333333333,ScrollUp,ScrollDown,Green.png,2,Positive,Incongruent,0,0,0,0,,,,,,,,,,,,,,,,,0,37,37,37,,,,,,,,,,,,,,,,,,,,,,,,,,,,,,,,,,,,,,,,,,,,,,,,,,,,,,,,,,,,,,,,,,,,,,,,,,,,,,,,,2,1.1315400999737903,327.90652459999546,None,ScrollUp,정답입니다,327.90652459999546,None,327.90652459999546,None,327.90652459999546,None,327.90652459999546,None,328.93122859997675,None,328.93122859997675,329.43114120000973,,,,,,,,,,,,,,,,109,2023-04-03_16h35.12.482,FishGame,2022.1.1,60.030279258823924,
,1,넌 엉성해,4,Orange,A,3,3.3,ScrollDown,ScrollUp,Orange.png,3,Negative,Incongruent,0,0,0,0,,,,,,,,,,,,,,,,,,,,,0,0,0,0,,,,,,,,,,,,,,,,,,,,,,,,,,,,,,,,,,,,362.7635691000032,364.26375759998336,364.29708570003277,365.2502129999921,365.3001813000301,366.2637083000154,366.24703720002435,None,,,,,,,,,,,,,,,,,,,,,,,,,,,,,,,,,,1,1.2924100999953225,367.35432759998366,None,ScrollDown,정답입니다,367.35432759998366,None,367.35432759998366,None,367.35432759998366,None,367.35432759998366,None,368.52780729997903,None,368.52780729997903,369.0277952000033,329.9311445999774,None,329.9311445999774,None,0.125,-0.094444446,1,0,0,0.01627984002698213,None,359.9301789000165,None,,,109,2023-04-03_16h35.12.482,FishGame,2022.1.1,60.030279258823924,
,2,나를 보내줘,6,Orange,A,0,0,ScrollUp,ScrollDown,Orange.png,3,NonTarget,NonTarget,0,0,0,0,,,,,,,,,,,,,,,,,,,,,0,1,1,1,,,,,,,,,,,,,,,,,,,,,,,,,,,,,,,,,,,,,,,,,,,,,,,,,,,,,,,,,,,,,,,,,,,,,,,,,,,,,1.9459876318772633,1.167579700006172,369.64713940001093,None,ScrollUp,정답입니다,369.64713940001093,None,369.64713940001093,None,369.64713940001093,None,369.64713940001093,None,370.71364829997765,None,370.71364829997765,371.21350650000386,,,,,,,,,,,,,,,,109,2023-04-03_16h35.12.482,FishGame,2022.1.1,60.030279258823924,
,3,넌 활발해,1,Green,B,5.666666666666667,5.6,ScrollUp,ScrollDown,Green.png,3,Positive,Incongruent,0,0,0,0,,,,,,,,,,,,,,,,,,,,,0,2,2,2,,,,,,,,,,,,,,,,,,,,,,,,,,,,,,,,,,,,,,,,,,,,,,,,,,,,,,,,,,,,,,,,,,,,,,,,,,,,,1.8935185074806213,1.3162708000163548,371.8338042999967,None,ScrollUp,정답입니다,371.8338042999967,None,371.8338042999967,None,371.8338042999967,None,371.8338042999967,None,373.04676180001115,None,373.04676180001115,373.5467119999812,,,,,,,,,,,,,,,,109,2023-04-03_16h35.12.482,FishGame,2022.1.1,60.030279258823924,
,4,넌 논리적이야,2,Orange,A,5.666666666666666,4.633333333333334,ScrollDown,ScrollUp,Orange.png,3,Positive,Congruent,0,0,0,0,,,,,,,,,,,,,,,,,,,,,0,3,3,3,,,,,,,,,,,,,,,,,,,,,,,,,,,,,,,,,,,,,,,,,,,,,,,,,,,,,,,,,,,,,,,,,,,,,,,,,,,,,1,1.0648965000291355,374.1725899000303,None,ScrollDown,정답입니다,374.1725899000303,None,374.1725899000303,None,374.1725899000303,None,374.1725899000303,None,375.1279456000193,None,375.1279456000193,375.6299636000185,,,,,,,,,,,,,,,,109,2023-04-03_16h35.12.482,FishGame,2022.1.1,60.030279258823924,
,5,넌 과묵해,3,Orange,A,3.875,4.4,ScrollDown,ScrollUp,Orange.png,3,Neutral,Neutral,0,0,0,0,,,,,,,,,,,,,,,,,,,,,0,4,4,4,,,,,,,,,,,,,,,,,,,,,,,,,,,,,,,,,,,,,,,,,,,,,,,,,,,,,,,,,,,,,,,,,,,,,,,,,,,,,1,1.0634665999677964,376.2514007000136,None,ScrollDown,정답입니다,376.2514007000136,None,376.2514007000136,None,376.2514007000136,None,376.2514007000136,None,377.21094570000423,None,377.21094570000423,377.7109954000334,,,,,,,,,,,,,,,,109,2023-04-03_16h35.12.482,FishGame,2022.1.1,60.030279258823924,
,6,나를 데려가줘,6,Green,B,0,0,ScrollDown,ScrollUp,Green.png,3,NonTarget,NonTarget,0,0,0,0,,,,,,,,,,,,,,,,,,,,,0,5,5,5,,,,,,,,,,,,,,,,,,,,,,,,,,,,,,,,,,,,,,,,,,,,,,,,,,,,,,,,,,,,,,,,,,,,,,,,,,,,,1.0493827263514202,1.0504267999785952,378.32783790002577,None,ScrollDown,정답입니다,378.32783790002577,None,378.32783790002577,None,378.32783790002577,None,378.32783790002577,None,379.280092400033,None,379.280092400033,379.7800333999912,,,,,,,,,,,,,,,,109,2023-04-03_16h35.12.482,FishGame,2022.1.1,60.030279258823924,
,7,넌 미숙해,4,Green,B,3,3,ScrollUp,ScrollDown,Green.png,3,Negative,Congruent,0,0,0,0,,,,,,,,,,,,,,,,,,,,,0,6,6,6,,,,,,,,,,,,,,,,,,,,,,,,,,,,,,,,,,,,,,,,,,,,,,,,,,,,,,,,,,,,,,,,,,,,,,,,,,,,,2,1.0698598999879323,380.3964771000319,None,ScrollUp,정답입니다,380.3964771000319,None,380.3964771000319,None,380.3964771000319,None,380.3964771000319,None,381.361137400032,None,381.361137400032,381.86311139998725,,,,,,,,,,,,,,,,109,2023-04-03_16h35.12.482,FishGame,2022.1.1,60.030279258823924,
,8,나를 보내줘,6,Orange,A,0,0,ScrollUp,ScrollDown,Orange.png,3,NonTarget,NonTarget,0,0,0,0,,,,,,,,,,,,,,,,,,,,,0,7,7,7,,,,,,,,,,,,,,,,,,,,,,,,,,,,,,,,,,,,,,,,,,,,,,,,,,,,,,,,,,,,,,,,,,,,,,,,,,,,,1.9938271641731262,1.2001827000058256,382.4815524999867,None,ScrollUp,정답입니다,382.4815524999867,None,382.4815524999867,None,382.4815524999867,None,382.4815524999867,None,383.5798138999962,None,383.5798138999962,384.0798000000068,,,,,,,,,,,,,,,,109,2023-04-03_16h35.12.482,FishGame,2022.1.1,60.030279258823924,
,9,넌 자신만만해,3,Green,B,4.833333333333334,4.333333333333333,ScrollUp,ScrollDown,Green.png,3,Neutral,Neutral,0,0,0,0,,,,,,,,,,,,,,,,,,,,,0,8,8,8,,,,,,,,,,,,,,,,,,,,,,,,,,,,,,,,,,,,,,,,,,,,,,,,,,,,,,,,,,,,,,,,,,,,,,,,,,,,,1.9459876318772633,1.0812287000007927,384.69682150002336,None,ScrollUp,정답입니다,384.69682150002336,None,384.69682150002336,None,384.69682150002336,None,384.69682150002336,None,385.6797506000148,None,385.6797506000148,386.17969700001413,,,,,,,,,,,,,,,,109,2023-04-03_16h35.12.482,FishGame,2022.1.1,60.030279258823924,
,10,넌 탐욕스러워,5,Orange,A,2.25,2.1,ScrollDown,ScrollUp,Orange.png,3,Negative,Incongruent,0,0,0,0,,,,,,,,,,,,,,,,,,,,,0,9,9,9,,,,,,,,,,,,,,,,,,,,,,,,,,,,,,,,,,,,,,,,,,,,,,,,,,,,,,,,,,,,,,,,,,,,,,,,,,,,,1,1.0000276999780908,386.8027243000106,None,ScrollDown,정답입니다,386.8027243000106,None,386.8027243000106,None,386.8027243000106,None,386.8027243000106,None,387.6963606000063,None,387.6963606000063,388.19636609999,,,,,,,,,,,,,,,,109,2023-04-03_16h35.12.482,FishGame,2022.1.1,60.030279258823924,
,11,넌 인기있어,2,Orange,A,5.458333333333333,4.5,ScrollDown,ScrollUp,Orange.png,3,Positive,Congruent,0,0,0,0,,,,,,,,,,,,,,,,,,,,,0,10,10,10,,,,,,,,,,,,,,,,,,,,,,,,,,,,,,,,,,,,,,,,,,,,,,,,,,,,,,,,,,,,,,,,,,,,,,,,,,,,,1,1.0262890000012703,388.815291100007,None,ScrollDown,정답입니다,388.815291100007,None,388.815291100007,None,388.815291100007,None,388.815291100007,None,389.73947899998166,None,389.73947899998166,390.2451481000171,,,,,,,,,,,,,,,,109,2023-04-03_16h35.12.482,FishGame,2022.1.1,60.030279258823924,
,12,나를 데려가줘,6,Green,B,0,0,ScrollDown,ScrollUp,Green.png,3,NonTarget,NonTarget,0,0,0,0,,,,,,,,,,,,,,,,,,,,,0,11,11,11,,,,,,,,,,,,,,,,,,,,,,,,,,,,,,,,,,,,,,,,,,,,,,,,,,,,,,,,,,,,,,,,,,,,,,,,,,,,,1,1.046346299990546,390.86364360002335,None,ScrollDown,정답입니다,390.86364360002335,None,390.86364360002335,None,390.86364360002335,None,390.86364360002335,None,391.8106737000053,None,391.8106737000053,392.31304239999736,,,,,,,,,,,,,,,,109,2023-04-03_16h35.12.482,FishGame,2022.1.1,60.030279258823924,
,13,넌 뛰어나,2,Green,B,6.166666666666667,4,ScrollUp,ScrollDown,Green.png,3,Positive,Incongruent,0,0,0,0,,,,,,,,,,,,,,,,,,,,,0,12,12,12,,,,,,,,,,,,,,,,,,,,,,,,,,,,,,,,,,,,,,,,,,,,,,,,,,,,,,,,,,,,,,,,,,,,,,,,,,,,,2,1.0499604999786243,392.932155699993,None,ScrollUp,정답입니다,392.932155699993,None,392.932155699993,None,392.932155699993,None,392.932155699993,None,393.8797880000202,None,393.8797880000202,394.3796809000196,,,,,,,,,,,,,,,,109,2023-04-03_16h35.12.482,FishGame,2022.1.1,60.030279258823924,
,14,넌 낙관적이야,1,Orange,A,5.75,5.8,ScrollDown,ScrollUp,Orange.png,3,Positive,Congruent,0,0,0,0,,,,,,,,,,,,,,,,,,,,,0,13,13,13,,,,,,,,,,,,,,,,,,,,,,,,,,,,,,,,,,,,,,,,,,,,,,,,,,,,,,,,,,,,,,,,,,,,,,,,,,,,,1.1728395173947017,0.9316407999722287,395.0032312999829,None,ScrollDown,정답입니다,395.0032312999829,None,395.0032312999829,None,395.0032312999829,None,395.0032312999829,None,395.8274989000056,None,395.8274989000056,396.3295097000082,,,,,,,,,,,,,,,,109,2023-04-03_16h35.12.482,FishGame,2022.1.1,60.030279258823924,
,15,넌 산만해,4,Green,B,2.695652173913043,3.033333333333333,ScrollUp,ScrollDown,Green.png,3,Negative,Congruent,0,0,0,0,,,,,,,,,,,,,,,,,,,,,0,14,14,14,,,,,,,,,,,,,,,,,,,,,,,,,,,,,,,,,,,,,,,,,,,,,,,,,,,,,,,,,,,,,,,,,,,,,,,,,,,,,2,0.9976903999922797,396.9488255000324,None,ScrollUp,정답입니다,396.9488255000324,None,396.9488255000324,None,396.9488255000324,None,396.9488255000324,None,397.8437904000166,None,397.8437904000166,398.34381689998554,,,,,,,,,,,,,,,,109,2023-04-03_16h35.12.482,FishGame,2022.1.1,60.030279258823924,
,16,나를 보내줘,6,Orange,A,0,0,ScrollUp,ScrollDown,Orange.png,3,NonTarget,NonTarget,0,0,0,0,,,,,,,,,,,,,,,,,,,,,0,15,15,15,,,,,,,,,,,,,,,,,,,,,,,,,,,,,,,,,,,,,,,,,,,,,,,,,,,,,,,,,,,,,,,,,,,,,,,,,,,,,2,1.2168007000000216,398.96106310002506,None,ScrollUp,정답입니다,398.96106310002506,None,398.96106310002506,None,398.96106310002506,None,398.96106310002506,None,400.0796339000226,None,400.0796339000226,400.5795314999996,,,,,,,,,,,,,,,,109,2023-04-03_16h35.12.482,FishGame,2022.1.1,60.030279258823924,
,17,넌 교활해,5,Green,B,2.333333333333333,2.133333333333333,ScrollUp,ScrollDown,Green.png,3,Negative,Congruent,0,0,0,0,,,,,,,,,,,,,,,,,,,,,0,16,16,16,,,,,,,,,,,,,,,,,,,,,,,,,,,,,,,,,,,,,,,,,,,,,,,,,,,,,,,,,,,,,,,,,,,,,,,,,,,,,1.8888888905445735,1.62915759999305,401.2013498999877,None,ScrollUp,정답입니다,401.2013498999877,None,401.2013498999877,None,401.2013498999877,None,401.2013498999877,None,402.72704750002595,None,402.72704750002595,403.22707590000937,,,,,,,,,,,,,,,,109,2023-04-03_16h35.12.482,FishGame,2022.1.1,60.030279258823924,
,18,나를 보내줘,6,Orange,A,0,0,ScrollUp,ScrollDown,Orange.png,3,NonTarget,NonTarget,0,0,0,0,,,,,,,,,,,,,,,,,,,,,0,17,17,17,,,,,,,,,,,,,,,,,,,,,,,,,,,,,,,,,,,,,,,,,,,,,,,,,,,,,,,,,,,,,,,,,,,,,,,,,,,,,1.8858024626970291,1.2281276999856345,403.8520067000063,None,ScrollUp,정답입니다,403.8520067000063,None,403.8520067000063,None,403.8520067000063,None,403.8520067000063,None,404.977045800013,None,404.977045800013,405.47944379999535,,,,,,,,,,,,,,,,109,2023-04-03_16h35.12.482,FishGame,2022.1.1,60.030279258823924,
,19,넌 불친절해,5,Green,B,2.208333333333333,2.033333333333333,ScrollUp,ScrollDown,Green.png,3,Negative,Congruent,0,0,0,0,,,,,,,,,,,,,,,,,,,,,0,18,18,18,,,,,,,,,,,,,,,,,,,,,,,,,,,,,,,,,,,,,,,,,,,,,,,,,,,,,,,,,,,,,,,,,,,,,,,,,,,,,1.7932098756233852,1.2094900999800302,406.09875800000736,None,ScrollUp,정답입니다,406.09875800000736,None,406.09875800000736,None,406.09875800000736,None,406.09875800000736,None,407.2059162000078,None,407.2059162000078,407.7125315000303,,,,,,,,,,,,,,,,109,2023-04-03_16h35.12.482,FishGame,2022.1.1,60.030279258823924,
,20,넌 지적이야,2,Green,B,5.75,4.366666666666666,ScrollUp,ScrollDown,Green.png,3,Positive,Incongruent,0,0,0,0,,,,,,,,,,,,,,,,,,,,,0,19,19,19,,,,,,,,,,,,,,,,,,,,,,,,,,,,,,,,,,,,,,,,,,,,,,,,,,,,,,,,,,,,,,,,,,,,,,,,,,,,,1.8904321044683456,1.19986739999149,408.3294246000005,None,ScrollUp,정답입니다,408.3294246000005,None,408.3294246000005,None,408.3294246000005,None,408.3294246000005,None,409.4292724999832,None,409.4292724999832,409.929235699994,,,,,,,,,,,,,,,,109,2023-04-03_16h35.12.482,FishGame,2022.1.1,60.030279258823924,
,21,넌 우유부단해,4,Orange,A,2.666666666666667,3.166666666666667,ScrollDown,ScrollUp,Orange.png,3,Negative,Incongruent,0,0,0,0,,,,,,,,,,,,,,,,,,,,,0,20,20,20,,,,,,,,,,,,,,,,,,,,,,,,,,,,,,,,,,,,,,,,,,,,,,,,,,,,,,,,,,,,,,,,,,,,,,,,,,,,,1.095679019888242,1.1294109000009485,410.5567402000306,None,ScrollDown,정답입니다,410.5567402000306,None,410.5567402000306,None,410.5567402000306,None,410.5567402000306,None,411.57709169999,None,411.57709169999,412.0791131000151,,,,,,,,,,,,,,,,109,2023-04-03_16h35.12.482,FishGame,2022.1.1,60.030279258823924,
,22,나를 데려가줘,6,Green,B,0,0,ScrollDown,ScrollUp,Green.png,3,NonTarget,NonTarget,0,0,0,0,,,,,,,,,,,,,,,,,,,,,0,21,21,21,,,,,,,,,,,,,,,,,,,,,,,,,,,,,,,,,,,,,,,,,,,,,,,,,,,,,,,,,,,,,,,,,,,,,,,,,,,,,1.1759259204069774,1.164383600000292,412.6961815999821,None,ScrollDown,정답입니다,412.6961815999821,None,412.6961815999821,None,412.6961815999821,None,412.6961815999821,None,413.76240680000046,None,413.76240680000046,414.26243090000935,,,,,,,,,,,,,,,,109,2023-04-03_16h35.12.482,FishGame,2022.1.1,60.030279258823924,
,23,넌 성실해,1,Green,B,6.041666666666666,5.7,ScrollUp,ScrollDown,Green.png,3,Positive,Incongruent,0,0,0,0,,,,,,,,,,,,,,,,,,,,,0,22,22,22,,,,,,,,,,,,,,,,,,,,,,,,,,,,,,,,,,,,,,,,,,,,,,,,,,,,,,,,,,,,,,,,,,,,,,,,,,,,,1.8981481492519379,1.182186999998521,414.879286099982,None,ScrollUp,정답입니다,414.879286099982,None,414.879286099982,None,414.879286099982,None,414.879286099982,None,415.9656274000299,None,415.9656274000299,416.4790124000283,,,,,,,,,,,,,,,,109,2023-04-03_16h35.12.482,FishGame,2022.1.1,60.030279258823924,
,24,넌 현실주의적이야,3,Orange,A,4.625,4.4,ScrollDown,ScrollUp,Orange.png,3,Neutral,Neutral,0,0,0,0,,,,,,,,,,,,,,,,,,,,,0,23,23,23,,,,,,,,,,,,,,,,,,,,,,,,,,,,,,,,,,,,,,,,,,,,,,,,,,,,,,,,,,,,,,,,,,,,,,,,,,,,,1.0432098706563313,1.2629959999467246,417.09853810002096,None,ScrollDown,정답입니다,417.09853810002096,None,417.09853810002096,None,417.09853810002096,None,417.09853810002096,None,418.26235089998227,None,418.26235089998227,418.76232380000874,,,,,,,,,,,,,,,,109,2023-04-03_16h35.12.482,FishGame,2022.1.1,60.030279258823924,
,25,넌 진실돼,1,Orange,A,6.625,5.566666666666666,ScrollDown,ScrollUp,Orange.png,3,Positive,Congruent,0,0,0,0,,,,,,,,,,,,,,,,,,,,,0,24,24,24,,,,,,,,,,,,,,,,,,,,,,,,,,,,,,,,,,,,,,,,,,,,,,,,,,,,,,,,,,,,,,,,,,,,,,,,,,,,,1.0910493781169255,0.9482361000264063,419.3840285000042,None,ScrollDown,정답입니다,419.3840285000042,None,419.3840285000042,None,419.3840285000042,None,419.3840285000042,None,420.22899730002973,None,420.22899730002973,420.72895269998116,,,,,,,,,,,,,,,,109,2023-04-03_16h35.12.482,FishGame,2022.1.1,60.030279258823924,
,26,넌 천진난만해,3,Green,B,4.958333333333334,4.833333333333333,ScrollUp,ScrollDown,Green.png,3,Neutral,Neutral,0,0,0,0,,,,,,,,,,,,,,,,,,,,,0,25,25,25,,,,,,,,,,,,,,,,,,,,,,,,,,,,,,,,,,,,,,,,,,,,,,,,,,,,,,,,,,,,,,,,,,,,,,,,,,,,,1.8827160596847534,0.9458565000095405,421.3498911000206,None,ScrollUp,정답입니다,421.3498911000206,None,421.3498911000206,None,421.3498911000206,None,421.3498911000206,None,422.1932955000084,None,422.1932955000084,422.69334090000484,,,,,,,,,,,,,,,,109,2023-04-03_16h35.12.482,FishGame,2022.1.1,60.030279258823924,
,27,넌 교양없어,5,Orange,A,2.416666666666667,2.2,ScrollDown,ScrollUp,Orange.png,3,Negative,Incongruent,0,0,0,0,,,,,,,,,,,,,,,,,,,,,0,26,26,26,,,,,,,,,,,,,,,,,,,,,,,,,,,,,,,,,,,,,,,,,,,,,,,,,,,,,,,,,,,,,,,,,,,,,,,,,,,,,1.2515432039896646,0.8964281000080518,423.31606250000186,None,ScrollDown,정답입니다,423.31606250000186,None,423.31606250000186,None,423.31606250000186,None,423.31606250000186,None,424.10995990002993,None,424.10995990002993,424.6123696999857,,,,,,,,,,,,,,,,109,2023-04-03_16h35.12.482,FishGame,2022.1.1,60.030279258823924,
,28,나를 보내줘,6,Orange,A,0,0,ScrollUp,ScrollDown,Orange.png,3,NonTarget,NonTarget,0,0,0,0,,,,,,,,,,,,,,,,,,,,,0,27,27,27,,,,,,,,,,,,,,,,,,,,,,,,,,,,,,,,,,,,,,,,,,,,,,,,,,,,,,,,,,,,,,,,,,,,,,,,,,,,,1.8132716069618862,1.03171139996266,425.2315712000127,None,ScrollUp,정답입니다,425.2315712000127,None,425.2315712000127,None,425.2315712000127,None,425.2315712000127,None,426.1624669000157,None,426.1624669000157,426.6621767000179,,,,,,,,,,,,,,,,109,2023-04-03_16h35.12.482,FishGame,2022.1.1,60.030279258823924,
,29,넌 엉뚱스러워,3,Orange,A,4.166666666666667,4.133333333333334,ScrollDown,ScrollUp,Orange.png,3,Neutral,Neutral,0,0,0,0,,,,,,,,,,,,,,,,,,,,,0,28,28,28,,,,,,,,,,,,,,,,,,,,,,,,,,,,,,,,,,,,,,,,,,,,,,,,,,,,,,,,,,,,,,,,,,,,,,,,,,,,,1.325617286066214,0.864924699999392,427.28399159997934,None,ScrollDown,정답입니다,427.28399159997934,None,427.28399159997934,None,427.28399159997934,None,427.28399159997934,None,428.04559290001635,None,428.04559290001635,428.5455116999801,,,,,,,,,,,,,,,,109,2023-04-03_16h35.12.482,FishGame,2022.1.1,60.030279258823924,
,30,넌 무지해,4,Green,B,2.541666666666667,3.066666666666667,ScrollUp,ScrollDown,Green.png,3,Negative,Congruent,0,0,0,0,,,,,,,,,,,,,,,,,,,,,0,29,29,29,,,,,,,,,,,,,,,,,,,,,,,,,,,,,,,,,,,,,,,,,,,,,,,,,,,,,,,,,,,,,,,,,,,,,,,,,,,,,1.7793209999799728,0.8931506000226364,429.1649159999797,None,ScrollUp,정답입니다,429.1649159999797,None,429.1649159999797,None,429.1649159999797,None,429.1649159999797,None,429.96211870003026,None,429.96211870003026,430.46201880002627,,,,,,,,,,,,,,,,109,2023-04-03_16h35.12.482,FishGame,2022.1.1,60.030279258823924,
,31,넌 음울해,5,Green,B,2.25,2.233333333333333,ScrollUp,ScrollDown,Green.png,3,Negative,Congruent,0,0,0,0,,,,,,,,,,,,,,,,,,,,,0,30,30,30,,,,,,,,,,,,,,,,,,,,,,,,,,,,,,,,,,,,,,,,,,,,,,,,,,,,,,,,,,,,,,,,,,,,,,,,,,,,,1.8827160596847534,0.9648792999796569,431.0819002999924,None,ScrollUp,정답입니다,431.0819002999924,None,431.0819002999924,None,431.0819002999924,None,431.0819002999924,None,431.9454262999934,None,431.9454262999934,432.44538739998825,,,,,,,,,,,,,,,,109,2023-04-03_16h35.12.482,FishGame,2022.1.1,60.030279258823924,
,32,넌 냉소적이야,5,Orange,A,2.916666666666667,2.4,ScrollDown,ScrollUp,Orange.png,3,Negative,Incongruent,0,0,0,0,,,,,,,,,,,,,,,,,,,,,0,31,31,31,,,,,,,,,,,,,,,,,,,,,,,,,,,,,,,,,,,,,,,,,,,,,,,,,,,,,,,,,,,,,,,,,,,,,,,,,,,,,1.2299382835626602,0.9476793999783695,433.0654180999845,None,ScrollDown,정답입니다,433.0654180999845,None,433.0654180999845,None,433.0654180999845,None,433.0654180999845,None,433.9096945000347,None,433.9096945000347,434.40967020002427,,,,,,,,,,,,,,,,109,2023-04-03_16h35.12.482,FishGame,2022.1.1,60.030279258823924,
,33,나를 데려가줘,6,Green,B,0,0,ScrollDown,ScrollUp,Green.png,3,NonTarget,NonTarget,0,0,0,0,,,,,,,,,,,,,,,,,,,,,0,32,32,32,,,,,,,,,,,,,,,,,,,,,,,,,,,,,,,,,,,,,,,,,,,,,,,,,,,,,,,,,,,,,,,,,,,,,,,,,,,,,1.2793209801117578,1.0315532999811694,435.030360499979,None,ScrollDown,정답입니다,435.030360499979,None,435.030360499979,None,435.030360499979,None,435.030360499979,None,435.9596925000078,None,435.9596925000078,436.46205329999793,,,,,,,,,,,,,,,,109,2023-04-03_16h35.12.482,FishGame,2022.1.1,60.030279258823924,
,34,넌 쾌활해,1,Orange,A,5.541666666666666,5.733333333333333,ScrollDown,ScrollUp,Orange.png,3,Positive,Congruent,0,0,0,0,,,,,,,,,,,,,,,,,,,,,0,33,33,33,,,,,,,,,,,,,,,,,,,,,,,,,,,,,,,,,,,,,,,,,,,,,,,,,,,,,,,,,,,,,,,,,,,,,,,,,,,,,1.2885802388191223,1.0668098999885842,437.08389650000026,None,ScrollDown,정답입니다,437.08389650000026,None,437.08389650000026,None,437.08389650000026,None,437.08389650000026,None,438.04543579998426,None,438.04543579998426,438.54534140002215,,,,,,,,,,,,,,,,109,2023-04-03_16h35.12.482,FishGame,2022.1.1,60.030279258823924,
,35,나를 보내줘,6,Orange,A,0,0,ScrollUp,ScrollDown,Orange.png,3,NonTarget,NonTarget,0,0,0,0,,,,,,,,,,,,,,,,,,,,,0,34,34,34,,,,,,,,,,,,,,,,,,,,,,,,,,,,,,,,,,,,,,,,,,,,,,,,,,,,,,,,,,,,,,,,,,,,,,,,,,,,,1.7345678955316544,1.0293106000171974,439.1690652000252,None,ScrollUp,정답입니다,439.1690652000252,None,439.1690652000252,None,439.1690652000252,None,439.1690652000252,None,440.0931760999956,None,440.0931760999956,440.59518730000127,,,,,,,,,,,,,,,,109,2023-04-03_16h35.12.482,FishGame,2022.1.1,60.030279258823924,
,36,넌 명랑해,1,Green,B,5.739130434782609,5.666666666666667,ScrollUp,ScrollDown,Green.png,3,Positive,Incongruent,0,0,0,0,,,,,,,,,,,,,,,,,,,,,0,35,35,35,,,,,,,,,,,,,,,,,,,,,,,,,,,,,,,,,,,,,,,,,,,,,,,,,,,,,,,,,,,,,,,,,,,,,,,,,,,,,1.8333333383003871,1.0145143999834545,441.21856260002824,None,ScrollUp,정답입니다,441.21856260002824,None,441.21856260002824,None,441.21856260002824,None,441.21856260002824,None,442.1285190000199,None,442.1285190000199,442.6284670000314,,,,,,,,,,,,,,,,109,2023-04-03_16h35.12.482,FishGame,2022.1.1,60.030279258823924,
,37,넌 멍해,4,Orange,A,2.833333333333333,3.4,ScrollDown,ScrollUp,Orange.png,3,Negative,Incongruent,0,0,0,0,,,,,,,,,,,,,,,,,,,,,0,36,36,36,,,,,,,,,,,,,,,,,,,,,,,,,,,,,,,,,,,,,,,,,,,,,,,,,,,,,,,,,,,,,,,,,,,,,,,,,,,,,1.256172845760981,0.9960603999788873,443.2494390999782,None,ScrollDown,정답입니다,443.2494390999782,None,443.2494390999782,None,443.2494390999782,None,443.2494390999782,None,444.14282399998046,None,444.14282399998046,444.64291930000763,,,,,,,,,,,,,,,,109,2023-04-03_16h35.12.482,FishGame,2022.1.1,60.030279258823924,
,38,나를 데려가줘,6,Green,B,0,0,ScrollDown,ScrollUp,Green.png,3,NonTarget,NonTarget,0,0,0,0,,,,,,,,,,,,,,,,,,,,,0,37,37,37,,,,,,,,,,,,,,,,,,,,,,,,,,,,,,,,,,,,,,,,,,,,,,,,,,,,,,,,,,,,,,,,,,,,,,,,,,,,,1.2052469104528427,1.2004542999784462,445.25712229998317,None,ScrollDown,정답입니다,445.25712229998317,None,445.25712229998317,None,445.25712229998317,None,445.25712229998317,None,446.3619725999888,None,446.3619725999888,446.86202549998416,,,,,,,,,,,,,,,,109,2023-04-03_16h35.12.482,FishGame,2022.1.1,60.030279258823924,
,39,넌 현명해,2,Orange,A,6.541666666666666,4.533333333333333,ScrollDown,ScrollUp,Orange.png,3,Positive,Congruent,0,0,0,0,,,,,,,,,,,,,,,,,,,,,0,38,38,38,,,,,,,,,,,,,,,,,,,,,,,,,,,,,,,,,,,,,,,,,,,,,,,,,,,,,,,,,,,,,,,,,,,,,,,,,,,,,1.1080246816078823,1.0793320000520907,447.4810987000237,None,ScrollDown,정답입니다,447.4810987000237,None,447.4810987000237,None,447.4810987000237,None,447.4810987000237,None,448.46174100000644,None,448.46174100000644,448.9616918999818,,,,,,,,,,,,,,,,109,2023-04-03_16h35.12.482,FishGame,2022.1.1,60.030279258823924,
,40,넌 수줍어,3,Green,B,3.541666666666666,4.366666666666666,ScrollUp,ScrollDown,Green.png,3,Neutral,Neutral,0,0,0,0,,,,,,,,,,,,,,,,,,,,,0,39,39,39,,,,,,,,,,,,,,,,,,,,,,,,,,,,,,,,,,,,,,,,,,,,,,,,,,,,,,,,,,,,,,,,,,,,,,,,,,,,,1.8163580348094304,0.998146399972029,449.5806411000085,None,ScrollUp,정답입니다,449.5806411000085,None,449.5806411000085,None,449.5806411000085,None,449.5806411000085,None,450.4785186999943,None,450.4785186999943,450.9783294000081,,,,,,,,,,,,,,,,109,2023-04-03_16h35.12.482,FishGame,2022.1.1,60.030279258823924,
,41,나를 데려가줘,6,Green,B,0,0,ScrollDown,ScrollUp,Green.png,3,NonTarget,NonTarget,0,0,0,0,,,,,,,,,,,,,,,,,,,,,0,40,40,40,,,,,,,,,,,,,,,,,,,,,,,,,,,,,,,,,,,,,,,,,,,,,,,,,,,,,,,,,,,,,,,,,,,,,,,,,,,,,1.3148148134350777,0.9446798999560997,451.6039611999877,None,ScrollDown,정답입니다,451.6039611999877,None,451.6039611999877,None,451.6039611999877,None,451.6039611999877,None,452.44261129997903,None,452.44261129997903,452.9425958999782,,,,,,,,,,,,,,,,109,2023-04-03_16h35.12.482,FishGame,2022.1.1,60.030279258823924,
,42,넌 성숙해,2,Green,B,5.833333333333333,4.533333333333333,ScrollUp,ScrollDown,Green.png,3,Positive,Incongruent,0,0,0,0,,,,,,,,,,,,,,,,,,,,,0,41,41,41,,,,,,,,,,,,,,,,,,,,,,,,,,,,,,,,,,,,,,,,,,,,,,,,,,,,,,,,,,,,,,,,,,,,,,,,,,,,,1.7638888855775197,1.1971826000371948,453.5571064000251,None,ScrollUp,정답입니다,453.5571064000251,None,453.5571064000251,None,453.5571064000251,None,453.5571064000251,None,454.6617022000137,None,454.6617022000137,455.1616269000224,,,,,,,,,,,,,,,,109,2023-04-03_16h35.12.482,FishGame,2022.1.1,60.030279258823924,
,1,넌 매력적이야,2,Green,B,6.125,4.666666666666667,ScrollUp,ScrollDown,Green.png,4,Positive,Incongruent,0,0,0,0,,,,,,,,,,,,,,,,,,,,,,,,,0,0,0,0,,,,,,,,,,,,,,,,,,,,,,,,,,,,,,,,487.5774477000232,489.0775925000198,489.11095390003175,490.0641421999899,490.1141183000291,491.0775765000144,491.0608568000025,None,,,,,,,,,,,,,,,,,,,,,,,,,,,,,,,,,,2,1.6123769999830984,492.1561512000044,None,ScrollUp,정답입니다,492.1561512000044,None,492.1561512000044,None,492.1561512000044,None,492.1561512000044,None,493.6607565000304,None,493.6607565000304,494.1606417000294,455.66175740002654,None,455.66175740002654,None,0.22407408,-0.121296294,1,0,0,0.01629863999551162,None,485.66068550001364,None,,,109,2023-04-03_16h35.12.482,FishGame,2022.1.1,60.030279258823924,
,2,나를 보내줘,6,Orange,A,0,0,ScrollUp,ScrollDown,Orange.png,4,NonTarget,NonTarget,0,0,0,0,,,,,,,,,,,,,,,,,,,,,,,,,0,1,1,1,,,,,,,,,,,,,,,,,,,,,,,,,,,,,,,,,,,,,,,,,,,,,,,,,,,,,,,,,,,,,,,,,,,,,,,,,1.939814825852712,1.2128764999797568,494.8436701000319,None,ScrollUp,정답입니다,494.8436701000319,None,494.8436701000319,None,494.8436701000319,None,494.8436701000319,None,495.89401699998416,None,495.89401699998416,496.3939383000252,,,,,,,,,,,,,,,,109,2023-04-03_16h35.12.482,FishGame,2022.1.1,60.030279258823924,
,3,넌 조심스러워,3,Orange,A,4.791666666666666,4.666666666666667,ScrollDown,ScrollUp,Orange.png,4,Neutral,Neutral,0,0,0,0,,,,,,,,,,,,,,,,,,,,,,,,,0,2,2,2,,,,,,,,,,,,,,,,,,,,,,,,,,,,,,,,,,,,,,,,,,,,,,,,,,,,,,,,,,,,,,,,,,,,,,,,,1.1064814925193787,1.0463214000337757,497.0242351000197,None,ScrollDown,정답입니다,497.0242351000197,None,497.0242351000197,None,497.0242351000197,None,497.0242351000197,None,497.96061469998676,None,497.96061469998676,498.4605730000185,,,,,,,,,,,,,,,,109,2023-04-03_16h35.12.482,FishGame,2022.1.1,60.030279258823924,
,4,넌 철학적이야,3,Green,B,4.5,4.266666666666667,ScrollUp,ScrollDown,Green.png,4,Neutral,Neutral,0,0,0,0,,,,,,,,,,,,,,,,,,,,,,,,,0,3,3,3,,,,,,,,,,,,,,,,,,,,,,,,,,,,,,,,,,,,,,,,,,,,,,,,,,,,,,,,,,,,,,,,,,,,,,,,,1.8441358109315236,0.9790343000204302,499.0801028999849,None,ScrollUp,정답입니다,499.0801028999849,None,499.0801028999849,None,499.0801028999849,None,499.0801028999849,None,499.95822050003335,None,499.95822050003335,500.45818970003165,,,,,,,,,,,,,,,,109,2023-04-03_16h35.12.482,FishGame,2022.1.1,60.030279258823924,
,5,넌 쩨쩨해,5,Orange,A,2.375,2.133333333333333,ScrollDown,ScrollUp,Orange.png,4,Negative,Incongruent,0,0,0,0,,,,,,,,,,,,,,,,,,,,,,,,,0,4,4,4,,,,,,,,,,,,,,,,,,,,,,,,,,,,,,,,,,,,,,,,,,,,,,,,,,,,,,,,,,,,,,,,,,,,,,,,,1.1574074029922485,0.9629931999952532,501.07856240001274,None,ScrollDown,정답입니다,501.07856240001274,None,501.07856240001274,None,501.07856240001274,None,501.07856240001274,None,501.9415609000134,None,501.9415609000134,502.443979499978,,,,,,,,,,,,,,,,109,2023-04-03_16h35.12.482,FishGame,2022.1.1,60.030279258823924,
,6,나를 데려가줘,6,Green,B,0,0,ScrollDown,ScrollUp,Green.png,4,NonTarget,NonTarget,0,0,0,0,,,,,,,,,,,,,,,,,,,,,,,,,0,5,5,5,,,,,,,,,,,,,,,,,,,,,,,,,,,,,,,,,,,,,,,,,,,,,,,,,,,,,,,,,,,,,,,,,,,,,,,,,1.1697530895471573,1.1501101999892853,503.06054390000645,None,ScrollDown,정답입니다,503.06054390000645,None,503.06054390000645,None,503.06054390000645,None,503.06054390000645,None,504.11064730002545,None,504.11064730002545,504.6104562000255,,,,,,,,,,,,,,,,109,2023-04-03_16h35.12.482,FishGame,2022.1.1,60.030279258823924,
,7,넌 고집불통이야,5,Green,B,2.875,2,ScrollUp,ScrollDown,Green.png,4,Negative,Congruent,0,0,0,0,,,,,,,,,,,,,,,,,,,,,,,,,0,6,6,6,,,,,,,,,,,,,,,,,,,,,,,,,,,,,,,,,,,,,,,,,,,,,,,,,,,,,,,,,,,,,,,,,,,,,,,,,1.799382706483205,1.08299550000811,505.23166210000636,None,ScrollUp,정답입니다,505.23166210000636,None,505.23166210000636,None,505.23166210000636,None,505.23166210000636,None,506.21044679998886,None,506.21044679998886,506.7135677000042,,,,,,,,,,,,,,,,109,2023-04-03_16h35.12.482,FishGame,2022.1.1,60.030279258823924,
,8,넌 무심해,4,Orange,A,2.875,3.2,ScrollDown,ScrollUp,Orange.png,4,Negative,Incongruent,0,0,0,0,,,,,,,,,,,,,,,,,,,,,,,,,0,7,7,7,,,,,,,,,,,,,,,,,,,,,,,,,,,,,,,,,,,,,,,,,,,,,,,,,,,,,,,,,,,,,,,,,,,,,,,,,1.3240740721424422,0.9815939000109211,507.32860350003466,None,ScrollDown,정답입니다,507.32860350003466,None,507.32860350003466,None,507.32860350003466,None,507.32860350003466,None,508.2082951000193,None,508.2082951000193,508.71032110002125,,,,,,,,,,,,,,,,109,2023-04-03_16h35.12.482,FishGame,2022.1.1,60.030279258823924,
,9,넌 정겨워,1,Orange,A,5.791666666666667,5.666666666666667,ScrollDown,ScrollUp,Orange.png,4,Positive,Congruent,0,0,0,0,,,,,,,,,,,,,,,,,,,,,,,,,0,8,8,8,,,,,,,,,,,,,,,,,,,,,,,,,,,,,,,,,,,,,,,,,,,,,,,,,,,,,,,,,,,,,,,,,,,,,,,,,1.2885802388191223,0.8314832000178285,509.3328348000068,None,ScrollDown,정답입니다,509.3328348000068,None,509.3328348000068,None,509.3328348000068,None,509.3328348000068,None,510.0603218000033,None,510.0603218000033,510.56033740000566,,,,,,,,,,,,,,,,109,2023-04-03_16h35.12.482,FishGame,2022.1.1,60.030279258823924,
,10,나를 데려가줘,6,Green,B,0,0,ScrollDown,ScrollUp,Green.png,4,NonTarget,NonTarget,0,0,0,0,,,,,,,,,,,,,,,,,,,,,,,,,0,9,9,9,,,,,,,,,,,,,,,,,,,,,,,,,,,,,,,,,,,,,,,,,,,,,,,,,,,,,,,,,,,,,,,,,,,,,,,,,1.182098776102066,1.0646252000005916,511.17839920002734,None,ScrollDown,정답입니다,511.17839920002734,None,511.17839920002734,None,511.17839920002734,None,511.17839920002734,None,512.1435799000319,None,512.1435799000319,512.6435479000211,,,,,,,,,,,,,,,,109,2023-04-03_16h35.12.482,FishGame,2022.1.1,60.030279258823924,
,11,넌 체제순응적이야,4,Green,B,3,3.6,ScrollUp,ScrollDown,Green.png,4,Negative,Congruent,0,0,0,0,,,,,,,,,,,,,,,,,,,,,,,,,0,10,10,10,,,,,,,,,,,,,,,,,,,,,,,,,,,,,,,,,,,,,,,,,,,,,,,,,,,,,,,,,,,,,,,,,,,,,,,,,1.8132716069618862,0.9815182999591343,513.2674720999785,None,ScrollUp,정답입니다,513.2674720999785,None,513.2674720999785,None,513.2674720999785,None,513.2674720999785,None,514.1436232000124,None,514.1436232000124,514.6602098000003,,,,,,,,,,,,,,,,109,2023-04-03_16h35.12.482,FishGame,2022.1.1,60.030279258823924,
,12,나를 보내줘,6,Orange,A,0,0,ScrollUp,ScrollDown,Orange.png,4,NonTarget,NonTarget,0,0,0,0,,,,,,,,,,,,,,,,,,,,,,,,,0,11,11,11,,,,,,,,,,,,,,,,,,,,,,,,,,,,,,,,,,,,,,,,,,,,,,,,,,,,,,,,,,,,,,,,,,,,,,,,,1.71913580596447,1.0597652000142261,515.2786302000168,None,ScrollUp,정답입니다,515.2786302000168,None,515.2786302000168,None,515.2786302000168,None,515.2786302000168,None,516.2367079000105,None,516.2367079000105,516.7414298999938,,,,,,,,,,,,,,,,109,2023-04-03_16h35.12.482,FishGame,2022.1.1,60.030279258823924,
,13,넌 박식해,2,Orange,A,5.625,3.933333333333333,ScrollDown,ScrollUp,Orange.png,4,Positive,Congruent,0,0,0,0,,,,,,,,,,,,,,,,,,,,,,,,,0,12,12,12,,,,,,,,,,,,,,,,,,,,,,,,,,,,,,,,,,,,,,,,,,,,,,,,,,,,,,,,,,,,,,,,,,,,,,,,,1.2160493830839794,0.8665291999932379,517.3606277999934,None,ScrollDown,정답입니다,517.3606277999934,None,517.3606277999934,None,517.3606277999934,None,517.3606277999934,None,518.1246052000206,None,518.1246052000206,518.6245240999851,,,,,,,,,,,,,,,,109,2023-04-03_16h35.12.482,FishGame,2022.1.1,60.030279258823924,
,14,나를 보내줘,6,Orange,A,0,0,ScrollUp,ScrollDown,Orange.png,4,NonTarget,NonTarget,0,0,0,0,,,,,,,,,,,,,,,,,,,,,,,,,0,13,13,13,,,,,,,,,,,,,,,,,,,,,,,,,,,,,,,,,,,,,,,,,,,,,,,,,,,,,,,,,,,,,,,,,,,,,,,,,1.873456800977389,0.9673443999490701,519.2440644000308,None,ScrollUp,정답입니다,519.2440644000308,None,519.2440644000308,None,519.2440644000308,None,519.2440644000308,None,520.1104116999777,None,520.1104116999777,520.6102079999982,,,,,,,,,,,,,,,,109,2023-04-03_16h35.12.482,FishGame,2022.1.1,60.030279258823924,
,15,넌 침착해,1,Green,B,5.458333333333333,5.566666666666666,ScrollUp,ScrollDown,Green.png,4,Positive,Incongruent,0,0,0,0,,,,,,,,,,,,,,,,,,,,,,,,,0,14,14,14,,,,,,,,,,,,,,,,,,,,,,,,,,,,,,,,,,,,,,,,,,,,,,,,,,,,,,,,,,,,,,,,,,,,,,,,,1.7947530895471573,0.8481044999789447,521.2376776000019,None,ScrollUp,정답입니다,521.2376776000019,None,521.2376776000019,None,521.2376776000019,None,521.2376776000019,None,521.9767599999905,None,521.9767599999905,522.476731600007,,,,,,,,,,,,,,,,109,2023-04-03_16h35.12.482,FishGame,2022.1.1,60.030279258823924,
,16,나를 데려가줘,6,Green,B,0,0,ScrollDown,ScrollUp,Green.png,4,NonTarget,NonTarget,0,0,0,0,,,,,,,,,,,,,,,,,,,,,,,,,0,15,15,15,,,,,,,,,,,,,,,,,,,,,,,,,,,,,,,,,,,,,,,,,,,,,,,,,,,,,,,,,,,,,,,,,,,,,,,,,1.28086419403553,0.9292792999767698,523.0945293999976,None,ScrollDown,정답입니다,523.0945293999976,None,523.0945293999976,None,523.0945293999976,None,523.0945293999976,None,523.9243277999922,None,523.9243277999922,524.42461799999,,,,,,,,,,,,,,,,109,2023-04-03_16h35.12.482,FishGame,2022.1.1,60.030279258823924,
,17,넌 행복해,1,Orange,A,6.416666666666666,6.166666666666667,ScrollDown,ScrollUp,Orange.png,4,Positive,Congruent,0,0,0,0,,,,,,,,,,,,,,,,,,,,,,,,,0,16,16,16,,,,,,,,,,,,,,,,,,,,,,,,,,,,,,,,,,,,,,,,,,,,,,,,,,,,,,,,,,,,,,,,,,,,,,,,,1.141975313425064,0.9626773999771103,525.0480872000335,None,ScrollDown,정답입니다,525.0480872000335,None,525.0480872000335,None,525.0480872000335,None,525.0480872000335,None,525.9076992000337,None,525.9076992000337,526.4100752000231,,,,,,,,,,,,,,,,109,2023-04-03_16h35.12.482,FishGame,2022.1.1,60.030279258823924,
,18,넌 겸손해,2,Green,B,5.791666666666667,4.766666666666667,ScrollUp,ScrollDown,Green.png,4,Positive,Incongruent,0,0,0,0,,,,,,,,,,,,,,,,,,,,,,,,,0,17,17,17,,,,,,,,,,,,,,,,,,,,,,,,,,,,,,,,,,,,,,,,,,,,,,,,,,,,,,,,,,,,,,,,,,,,,,,,,1.7623456716537476,1.016745200031437,527.030533400015,None,ScrollUp,정답입니다,527.030533400015,None,527.030533400015,None,527.030533400015,None,527.030533400015,None,527.9467304000282,None,527.9467304000282,528.4599040999892,,,,,,,,,,,,,,,,109,2023-04-03_16h35.12.482,FishGame,2022.1.1,60.030279258823924,
,19,나를 보내줘,6,Orange,A,0,0,ScrollUp,ScrollDown,Orange.png,4,NonTarget,NonTarget,0,0,0,0,,,,,,,,,,,,,,,,,,,,,,,,,0,18,18,18,,,,,,,,,,,,,,,,,,,,,,,,,,,,,,,,,,,,,,,,,,,,,,,,,,,,,,,,,,,,,,,,,,,,,,,,,1.7268518507480621,1.112972799979616,529.0841231999802,None,ScrollUp,정답입니다,529.0841231999802,None,529.0841231999802,None,529.0841231999802,None,529.0841231999802,None,530.0932655999786,None,530.0932655999786,530.5932468000101,,,,,,,,,,,,,,,,109,2023-04-03_16h35.12.482,FishGame,2022.1.1,60.030279258823924,
,20,넌 의심없어,3,Orange,A,4.166666666666667,4.6,ScrollDown,ScrollUp,Orange.png,4,Neutral,Neutral,0,0,0,0,,,,,,,,,,,,,,,,,,,,,,,,,0,19,19,19,,,,,,,,,,,,,,,,,,,,,,,,,,,,,,,,,,,,,,,,,,,,,,,,,,,,,,,,,,,,,,,,,,,,,,,,,1.2916666666666665,0.8650445000384934,531.2120270000305,None,ScrollDown,정답입니다,531.2120270000305,None,531.2120270000305,None,531.2120270000305,None,531.2120270000305,None,531.9744521999964,None,531.9744521999964,532.4764405000024,,,,,,,,,,,,,,,,109,2023-04-03_16h35.12.482,FishGame,2022.1.1,60.030279258823924,
,21,넌 시시해,4,Orange,A,2.666666666666667,2.966666666666667,ScrollDown,ScrollUp,Orange.png,4,Negative,Incongruent,0,0,0,0,,,,,,,,,,,,,,,,,,,,,,,,,0,20,20,20,,,,,,,,,,,,,,,,,,,,,,,,,,,,,,,,,,,,,,,,,,,,,,,,,,,,,,,,,,,,,,,,,,,,,,,,,1.2638888905445733,0.9628806000109762,533.094809799979,None,ScrollDown,정답입니다,533.094809799979,None,533.094809799979,None,533.094809799979,None,533.094809799979,None,533.9598003000137,None,533.9598003000137,534.4597876000335,,,,,,,,,,,,,,,,109,2023-04-03_16h35.12.482,FishGame,2022.1.1,60.030279258823924,
,22,나를 데려가줘,6,Green,B,0,0,ScrollDown,ScrollUp,Green.png,4,NonTarget,NonTarget,0,0,0,0,,,,,,,,,,,,,,,,,,,,,,,,,0,21,21,21,,,,,,,,,,,,,,,,,,,,,,,,,,,,,,,,,,,,,,,,,,,,,,,,,,,,,,,,,,,,,,,,,,,,,,,,,1.1666666616996129,1.06271160003962,535.0774426999851,None,ScrollDown,정답입니다,535.0774426999851,None,535.0774426999851,None,535.0774426999851,None,535.0774426999851,None,536.0410067000194,None,536.0410067000194,536.5429976999876,,,,,,,,,,,,,,,,109,2023-04-03_16h35.12.482,FishGame,2022.1.1,60.030279258823924,
,23,넌 무정해,5,Orange,A,2.5,2.2,ScrollDown,ScrollUp,Orange.png,4,Negative,Incongruent,0,0,0,0,,,,,,,,,,,,,,,,,,,,,,,,,0,22,22,22,,,,,,,,,,,,,,,,,,,,,,,,,,,,,,,,,,,,,,,,,,,,,,,,,,,,,,,,,,,,,,,,,,,,,,,,,1.115740751226743,0.9480209000175819,537.1619111000327,None,ScrollDown,정답입니다,537.1619111000327,None,537.1619111000327,None,537.1619111000327,None,537.1619111000327,None,538.009664000012,None,538.009664000012,538.5096793000121,,,,,,,,,,,,,,,,109,2023-04-03_16h35.12.482,FishGame,2022.1.1,60.030279258823924,
,24,넌 긍정적이야,1,Green,B,6.041666666666667,6.066666666666666,ScrollUp,ScrollDown,Green.png,4,Positive,Incongruent,0,0,0,0,,,,,,,,,,,,,,,,,,,,,,,,,0,23,23,23,,,,,,,,,,,,,,,,,,,,,,,,,,,,,,,,,,,,,,,,,,,,,,,,,,,,,,,,,,,,,,,,,,,,,,,,,1.8950617214043934,0.9999902999843471,539.1312966999831,None,ScrollUp,정답입니다,539.1312966999831,None,539.1312966999831,None,539.1312966999831,None,539.1312966999831,None,540.0264401999884,None,540.0264401999884,540.5262713999837,,,,,,,,,,,,,,,,109,2023-04-03_16h35.12.482,FishGame,2022.1.1,60.030279258823924,
,25,나를 보내줘,6,Orange,A,0,0,ScrollUp,ScrollDown,Orange.png,4,NonTarget,NonTarget,0,0,0,0,,,,,,,,,,,,,,,,,,,,,,,,,0,24,24,24,,,,,,,,,,,,,,,,,,,,,,,,,,,,,,,,,,,,,,,,,,,,,,,,,,,,,,,,,,,,,,,,,,,,,,,,,1.7530864129463832,1.1836901000351645,541.1449621000211,None,ScrollUp,정답입니다,541.1449621000211,None,541.1449621000211,None,541.1449621000211,None,541.1449621000211,None,542.226216399984,None,542.226216399984,542.7263071000343,,,,,,,,,,,,,,,,109,2023-04-03_16h35.12.482,FishGame,2022.1.1,60.030279258823924,
,26,넌 시기심이 많아,5,Green,B,2.458333333333333,2.233333333333333,ScrollUp,ScrollDown,Green.png,4,Negative,Congruent,0,0,0,0,,,,,,,,,,,,,,,,,,,,,,,,,0,25,25,25,,,,,,,,,,,,,,,,,,,,,,,,,,,,,,,,,,,,,,,,,,,,,,,,,,,,,,,,,,,,,,,,,,,,,,,,,1.8009259204069774,1.54943800001638,543.3482522999984,None,ScrollUp,정답입니다,543.3482522999984,None,543.3482522999984,None,543.3482522999984,None,543.3482522999984,None,544.7929482000181,None,544.7929482000181,545.2929055999848,,,,,,,,,,,,,,,,109,2023-04-03_16h35.12.482,FishGame,2022.1.1,60.030279258823924,
,27,넌 탁월해,2,Orange,A,5.708333333333334,4.5,ScrollDown,ScrollUp,Orange.png,4,Positive,Congruent,0,0,0,0,,,,,,,,,,,,,,,,,,,,,,,,,0,26,26,26,,,,,,,,,,,,,,,,,,,,,,,,,,,,,,,,,,,,,,,,,,,,,,,,,,,,,,,,,,,,,,,,,,,,,,,,,1.3379629602034888,0.8263783000293188,545.9181432999903,None,ScrollDown,정답입니다,545.9181432999903,None,545.9181432999903,None,545.9181432999903,None,545.9181432999903,None,546.6428921000334,None,546.6428921000334,547.1428204000113,,,,,,,,,,,,,,,,109,2023-04-03_16h35.12.482,FishGame,2022.1.1,60.030279258823924,
,28,나를 데려가줘,6,Green,B,0,0,ScrollDown,ScrollUp,Green.png,4,NonTarget,NonTarget,0,0,0,0,,,,,,,,,,,,,,,,,,,,,,,,,0,27,27,27,,,,,,,,,,,,,,,,,,,,,,,,,,,,,,,,,,,,,,,,,,,,,,,,,,,,,,,,,,,,,,,,,,,,,,,,,1.2237654278675716,0.9131344000343233,547.7603553999797,None,ScrollDown,정답입니다,547.7603553999797,None,547.7603553999797,None,547.7603553999797,None,547.7603553999797,None,548.5738107999787,None,548.5738107999787,549.0745614999905,,,,,,,,,,,,,,,,109,2023-04-03_16h35.12.482,FishGame,2022.1.1,60.030279258823924,
,29,넌 조용해,3,Green,B,4.333333333333333,4.166666666666667,ScrollUp,ScrollDown,Green.png,4,Neutral,Neutral,0,0,0,0,,,,,,,,,,,,,,,,,,,,,,,,,0,28,28,28,,,,,,,,,,,,,,,,,,,,,,,,,,,,,,,,,,,,,,,,,,,,,,,,,,,,,,,,,,,,,,,,,,,,,,,,,1.6064814875523248,0.8478643999551423,549.6924126999802,None,ScrollUp,정답입니다,549.6924126999802,None,549.6924126999802,None,549.6924126999802,None,549.6924126999802,None,550.4404646999901,None,550.4404646999901,550.9434394999989,,,,,,,,,,,,,,,,109,2023-04-03_16h35.12.482,FishGame,2022.1.1,60.030279258823924,
,30,넌 다정해,1,Orange,A,5.833333333333334,5.7,ScrollDown,ScrollUp,Orange.png,4,Positive,Congruent,0,0,0,0,,,,,,,,,,,,,,,,,,,,,,,,,0,29,29,29,,,,,,,,,,,,,,,,,,,,,,,,,,,,,,,,,,,,,,,,,,,,,,,,,,,,,,,,,,,,,,,,,,,,,,,,,1.345679017404715,0.8315018999855965,551.5668625999824,None,ScrollDown,정답입니다,551.5668625999824,None,551.5668625999824,None,551.5668625999824,None,551.5668625999824,None,552.2930339000304,None,552.2930339000304,552.7928393000038,,,,,,,,,,,,,,,,109,2023-04-03_16h35.12.482,FishGame,2022.1.1,60.030279258823924,
,31,넌 능력있어,2,Green,B,6.166666666666666,4.6,ScrollUp,ScrollDown,Green.png,4,Positive,Incongruent,0,0,0,0,,,,,,,,,,,,,,,,,,,,,,,,,0,30,30,30,,,,,,,,,,,,,,,,,,,,,,,,,,,,,,,,,,,,,,,,,,,,,,,,,,,,,,,,,,,,,,,,,,,,,,,,,1.6496913532416024,1.3458333000307903,553.4102531999815,None,ScrollUp,정답입니다,553.4102531999815,None,553.4102531999815,None,553.4102531999815,None,553.4102531999815,None,554.6593704000115,None,554.6593704000115,555.1572895999998,,,,,,,,,,,,,,,,109,2023-04-03_16h35.12.482,FishGame,2022.1.1,60.030279258823924,
,32,넌 불쾌해,5,Orange,A,2.125,1.933333333333333,ScrollDown,ScrollUp,Orange.png,4,Negative,Incongruent,0,0,0,0,,,,,,,,,,,,,,,,,,,,,,,,,0,31,31,31,,,,,,,,,,,,,,,,,,,,,,,,,,,,,,,,,,,,,,,,,,,,,,,,,,,,,,,,,,,,,,,,,,,,,,,,,1.3441358034809432,0.8641910000005737,555.7774865999818,None,ScrollDown,정답입니다,555.7774865999818,None,555.7774865999818,None,555.7774865999818,None,555.7774865999818,None,556.5403230999946,None,556.5403230999946,557.0414076999878,,,,,,,,,,,,,,,,109,2023-04-03_16h35.12.482,FishGame,2022.1.1,60.030279258823924,
,33,나를 데려가줘,6,Green,B,0,0,ScrollDown,ScrollUp,Green.png,4,NonTarget,NonTarget,0,0,0,0,,,,,,,,,,,,,,,,,,,,,,,,,0,32,32,32,,,,,,,,,,,,,,,,,,,,,,,,,,,,,,,,,,,,,,,,,,,,,,,,,,,,,,,,,,,,,,,,,,,,,,,,,1.28086419403553,1.0972024000366218,557.6557576999767,None,ScrollDown,정답입니다,557.6557576999767,None,557.6557576999767,None,557.6557576999767,None,557.6557576999767,None,558.6569716000231,None,558.6569716000231,559.1593601999921,,,,,,,,,,,,,,,,109,2023-04-03_16h35.12.482,FishGame,2022.1.1,60.030279258823924,
,34,넌 유순해,3,Orange,A,4.458333333333333,5,ScrollDown,ScrollUp,Orange.png,4,Neutral,Neutral,0,0,0,0,,,,,,,,,,,,,,,,,,,,,,,,,0,33,33,33,,,,,,,,,,,,,,,,,,,,,,,,,,,,,,,,,,,,,,,,,,,,,,,,,,,,,,,,,,,,,,,,,,,,,,,,,1.1836419651905696,0.9000911000184715,559.7784502999857,None,ScrollDown,정답입니다,559.7784502999857,None,559.7784502999857,None,559.7784502999857,None,559.7784502999857,None,560.5760409000213,None,560.5760409000213,561.0759664999787,,,,,,,,,,,,,,,,109,2023-04-03_16h35.12.482,FishGame,2022.1.1,60.030279258823924,
,35,넌 근심스러워,4,Green,B,2.708333333333333,3.133333333333333,ScrollUp,ScrollDown,Green.png,4,Negative,Congruent,0,0,0,0,,,,,,,,,,,,,,,,,,,,,,,,,0,34,34,34,,,,,,,,,,,,,,,,,,,,,,,,,,,,,,,,,,,,,,,,,,,,,,,,,,,,,,,,,,,,,,,,,,,,,,,,,1.8225308656692505,0.9649214000091888,561.6965080000227,None,ScrollUp,정답입니다,561.6965080000227,None,561.6965080000227,None,561.6965080000227,None,561.6965080000227,None,562.5592886999948,None,562.5592886999948,563.0591293000034,,,,,,,,,,,,,,,,109,2023-04-03_16h35.12.482,FishGame,2022.1.1,60.030279258823924,
,36,넌 세련되었어,2,Orange,A,5.5,4.6,ScrollDown,ScrollUp,Orange.png,4,Positive,Congruent,0,0,0,0,,,,,,,,,,,,,,,,,,,,,,,,,0,35,35,35,,,,,,,,,,,,,,,,,,,,,,,,,,,,,,,,,,,,,,,,,,,,,,,,,,,,,,,,,,,,,,,,,,,,,,,,,1.276234577099482,0.9124211000162177,563.6850233000005,None,ScrollDown,정답입니다,563.6850233000005,None,563.6850233000005,None,563.6850233000005,None,563.6850233000005,None,564.4901101000141,None,564.4901101000141,564.9901068999898,,,,,,,,,,,,,,,,109,2023-04-03_16h35.12.482,FishGame,2022.1.1,60.030279258823924,
,37,나를 보내줘,6,Orange,A,0,0,ScrollUp,ScrollDown,Orange.png,4,NonTarget,NonTarget,0,0,0,0,,,,,,,,,,,,,,,,,,,,,,,,,0,36,36,36,,,,,,,,,,,,,,,,,,,,,,,,,,,,,,,,,,,,,,,,,,,,,,,,,,,,,,,,,,,,,,,,,,,,,,,,,1.858024686574936,0.9145577999879606,565.6067002000054,None,ScrollUp,정답입니다,565.6067002000054,None,565.6067002000054,None,565.6067002000054,None,565.6067002000054,None,566.4258448000182,None,566.4258448000182,566.9258168999804,,,,,,,,,,,,,,,,109,2023-04-03_16h35.12.482,FishGame,2022.1.1,60.030279258823924,
,38,넌 확고해,3,Green,B,4.708333333333334,4.566666666666666,ScrollUp,ScrollDown,Green.png,4,Neutral,Neutral,0,0,0,0,,,,,,,,,,,,,,,,,,,,,,,,,0,37,37,37,,,,,,,,,,,,,,,,,,,,,,,,,,,,,,,,,,,,,,,,,,,,,,,,,,,,,,,,,,,,,,,,,,,,,,,,,1.723765422900518,1.081649700005073,567.5447122000041,None,ScrollUp,정답입니다,567.5447122000041,None,567.5447122000041,None,567.5447122000041,None,567.5447122000041,None,568.5259793000296,None,568.5259793000296,569.0293846999994,,,,,,,,,,,,,,,,109,2023-04-03_16h35.12.482,FishGame,2022.1.1,60.030279258823924,
,39,넌 이해심이 많아,1,Green,B,6.041666666666668,5.533333333333333,ScrollUp,ScrollDown,Green.png,4,Positive,Incongruent,0,0,0,0,,,,,,,,,,,,,,,,,,,,,,,,,0,38,38,38,,,,,,,,,,,,,,,,,,,,,,,,,,,,,,,,,,,,,,,,,,,,,,,,,,,,,,,,,,,,,,,,,,,,,,,,,1.7685185273488362,0.8818420000025071,569.6431250000023,None,ScrollUp,정답입니다,569.6431250000023,None,569.6431250000023,None,569.6431250000023,None,569.6431250000023,None,570.4256983000087,None,570.4256983000087,570.9256528000114,,,,,,,,,,,,,,,,109,2023-04-03_16h35.12.482,FishGame,2022.1.1,60.030279258823924,
,40,나를 보내줘,6,Orange,A,0,0,ScrollUp,ScrollDown,Orange.png,4,NonTarget,NonTarget,0,0,0,0,,,,,,,,,,,,,,,,,,,,,,,,,0,39,39,39,,,,,,,,,,,,,,,,,,,,,,,,,,,,,,,,,,,,,,,,,,,,,,,,,,,,,,,,,,,,,,,,,,,,,,,,,1.6111111169060073,0.8930414000060409,571.5514833999914,None,ScrollUp,정답입니다,571.5514833999914,None,571.5514833999914,None,571.5514833999914,None,571.5514833999914,None,572.3399595000083,None,572.3399595000083,572.8406814000336,,,,,,,,,,,,,,,,109,2023-04-03_16h35.12.482,FishGame,2022.1.1,60.030279258823924,
,41,넌 거칠어,4,Orange,A,2.625,3.033333333333333,ScrollDown,ScrollUp,Orange.png,4,Negative,Incongruent,0,0,0,0,,,,,,,,,,,,,,,,,,,,,,,,,0,40,40,40,,,,,,,,,,,,,,,,,,,,,,,,,,,,,,,,,,,,,,,,,,,,,,,,,,,,,,,,,,,,,,,,,,,,,,,,,1.1882716069618862,0.7997207000153139,573.4593478000024,None,ScrollDown,정답입니다,573.4593478000024,None,573.4593478000024,None,573.4593478000024,None,573.4593478000024,None,574.1566116000176,None,574.1566116000176,574.6590051000239,,,,,,,,,,,,,,,,109,2023-04-03_16h35.12.482,FishGame,2022.1.1,60.030279258823924,
,42,넌 변덕맞아,5,Green,B,2.75,2.166666666666667,ScrollUp,ScrollDown,Green.png,4,Negative,Congruent,0,0,0,0,,,,,,,,,,,,,,,,,,,,,,,,,0,41,41,41,,,,,,,,,,,,,,,,,,,,,,,,,,,,,,,,,,,,,,,,,,,,,,,,,,,,,,,,,,,,,,,,,,,,,,,,,1.6358024651805558,0.7983382999664173,575.2808355999878,None,ScrollUp,정답입니다,575.2808355999878,None,575.2808355999878,None,575.2808355999878,None,575.2808355999878,None,575.9757842000108,None,575.9757842000108,576.4921465999796,,,,,,,,,,,,,,,,109,2023-04-03_16h35.12.482,FishGame,2022.1.1,60.030279258823924,
,43,나를 데려가줘,6,Green,B,0,0,ScrollDown,ScrollUp,Green.png,4,NonTarget,NonTarget,0,0,0,0,,,,,,,,,,,,,,,,,,,,,,,,,0,42,42,42,,,,,,,,,,,,,,,,,,,,,,,,,,,,,,,,,,,,,,,,,,,,,,,,,,,,,,,,,,,,,,,,,,,,,,,,,1.2685185074806213,0.879504700016696,577.093085200002,None,ScrollDown,정답입니다,577.093085200002,None,577.093085200002,None,577.093085200002,None,577.093085200002,None,577.8755659000017,None,577.8755659000017,578.3755093999789,,,,,,,,,,,,,,,,109,2023-04-03_16h35.12.482,FishGame,2022.1.1,60.030279258823924,
,44,넌 외로워,4,Green,B,2.833333333333333,3.3,ScrollUp,ScrollDown,Green.png,4,Negative,Congruent,0,0,0,0,,,,,,,,,,,,,,,,,,,,,,,,,0,43,43,43,,,,,,,,,,,,,,,,,,,,,,,,,,,,,,,,,,,,,,,,,,,,,,,,,,,,,,,,,,,,,,,,,,,,,,,,,1.6728395000100136,0.9928882000385784,579.0018576000002,None,ScrollUp,정답입니다,579.0018576000002,None,579.0018576000002,None,579.0018576000002,None,579.0018576000002,None,579.8897982999915,None,579.8897982999915,580.3899658999871,,,,,,,,,,,,,,,,109,2023-04-03_16h35.12.482,FishGame,2022.1.1,60.030279258823924,
,1,넌 불평스러워,5,Orange,A,2.25,2.066666666666667,ScrollDown,ScrollUp,Orange.png,5,Negative,Incongruent,0,0,0,0,,,,,,,,,,,,,,,,,,,,,,,,,,,,,0,0,0,0,,,,,,,,,,,,,,,,,,,,,,,,,,,,614.3058084999793,615.8081331999856,615.841465400008,616.7914752999786,616.8415277000167,617.791451600031,617.791451600031,None,,,,,,,,,,,,,,,,,,,,,,,,,,,,,,,,,,1.0864197611808777,2.358012399985455,618.8834111000178,None,ScrollDown,정답입니다,618.8834111000178,None,618.8834111000178,None,618.8834111000178,None,618.8834111000178,None,621.1388621000224,None,621.1388621000224,621.6389001000207,580.8903978000162,None,580.8903978000162,None,0.15185185,-0.06481481,1,0,0,0.016351239988580346,None,610.8913399000303,None,,,109,2023-04-03_16h35.12.482,FishGame,2022.1.1,60.030279258823924,
,2,나를 보내줘,6,Orange,A,0,0,ScrollUp,ScrollDown,Orange.png,5,NonTarget,NonTarget,0,0,0,0,,,,,,,,,,,,,,,,,,,,,,,,,,,,,0,1,1,1,,,,,,,,,,,,,,,,,,,,,,,,,,,,,,,,,,,,,,,,,,,,,,,,,,,,,,,,,,,,,,,,,,,,,1.8148148208856583,1.0312334999907762,622.2562283999869,None,ScrollUp,정답입니다,622.2562283999869,None,622.2562283999869,None,622.2562283999869,None,622.2562283999869,None,623.1888476000167,None,623.1888476000167,623.6912405000185,,,,,,,,,,,,,,,,109,2023-04-03_16h35.12.482,FishGame,2022.1.1,60.030279258823924,
,3,넌 다재다능해,2,Green,B,6.208333333333333,4.5,ScrollUp,ScrollDown,Green.png,5,Positive,Incongruent,0,0,0,0,,,,,,,,,,,,,,,,,,,,,,,,,,,,,0,2,2,2,,,,,,,,,,,,,,,,,,,,,,,,,,,,,,,,,,,,,,,,,,,,,,,,,,,,,,,,,,,,,,,,,,,,,1.765432099501292,1.0335776999709196,624.3082684000256,None,ScrollUp,정답입니다,624.3082684000256,None,624.3082684000256,None,624.3082684000256,None,624.3082684000256,None,625.2413487000158,None,625.2413487000158,625.741223399993,,,,,,,,,,,,,,,,109,2023-04-03_16h35.12.482,FishGame,2022.1.1,60.030279258823924,
,4,넌 과감해,3,Orange,A,4.833333333333334,4.6,ScrollDown,ScrollUp,Orange.png,5,Neutral,Neutral,0,0,0,0,,,,,,,,,,,,,,,,,,,,,,,,,,,,,0,3,3,3,,,,,,,,,,,,,,,,,,,,,,,,,,,,,,,,,,,,,,,,,,,,,,,,,,,,,,,,,,,,,,,,,,,,,1.2885802388191223,0.8294415000127628,626.3607783000334,None,ScrollDown,정답입니다,626.3607783000334,None,626.3607783000334,None,626.3607783000334,None,626.3607783000334,None,627.0890070000314,None,627.0890070000314,627.5910416999832,,,,,,,,,,,,,,,,109,2023-04-03_16h35.12.482,FishGame,2022.1.1,60.030279258823924,
,5,넌 고분고분해,3,Green,B,3.75,4.033333333333333,ScrollUp,ScrollDown,Green.png,5,Neutral,Neutral,0,0,0,0,,,,,,,,,,,,,,,,,,,,,,,,,,,,,0,4,4,4,,,,,,,,,,,,,,,,,,,,,,,,,,,,,,,,,,,,,,,,,,,,,,,,,,,,,,,,,,,,,,,,,,,,,1.4891975312493742,0.8649868000065908,628.2110015000217,None,NoResponse,무응답입니다,628.2110015000217,None,628.2110015000217,None,628.2110015000217,None,628.2110015000217,None,628.9744425999816,None,628.9744425999816,629.4743831999949,,,,,,,,,,,,,,,,109,2023-04-03_16h35.12.482,FishGame,2022.1.1,60.030279258823924,
,6,나를 보내줘,6,Orange,A,0,0,ScrollUp,ScrollDown,Orange.png,5,NonTarget,NonTarget,0,0,0,0,,,,,,,,,,,,,,,,,,,,,,,,,,,,,0,5,5,5,,,,,,,,,,,,,,,,,,,,,,,,,,,,,,,,,,,,,,,,,,,,,,,,,,,,,,,,,,,,,,,,,,,,,1.8919753183921177,1.2283686000155285,630.0963244999875,None,ScrollUp,정답입니다,630.0963244999875,None,630.0963244999875,None,630.0963244999875,None,630.0963244999875,None,631.2243499000324,None,631.2243499000324,631.7242665999802,,,,,,,,,,,,,,,,109,2023-04-03_16h35.12.482,FishGame,2022.1.1,60.030279258823924,
,7,넌 잘 잊어,4,Orange,A,3,3.7,ScrollDown,ScrollUp,Orange.png,5,Negative,Incongruent,0,0,0,0,,,,,,,,,,,,,,,,,,,,,,,,,,,,,0,6,6,6,,,,,,,,,,,,,,,,,,,,,,,,,,,,,,,,,,,,,,,,,,,,,,,,,,,,,,,,,,,,,,,,,,,,,1.2685185074806213,0.8790954999858513,632.3484959999914,None,ScrollDown,정답입니다,632.3484959999914,None,632.3484959999914,None,632.3484959999914,None,632.3484959999914,None,633.1219409999903,None,633.1219409999903,633.6219459000276,,,,,,,,,,,,,,,,109,2023-04-03_16h35.12.482,FishGame,2022.1.1,60.030279258823924,
,8,넌 탐구심이없어,4,Green,B,2.833333333333333,3.066666666666667,ScrollUp,ScrollDown,Green.png,5,Negative,Congruent,0,0,0,0,,,,,,,,,,,,,,,,,,,,,,,,,,,,,0,7,7,7,,,,,,,,,,,,,,,,,,,,,,,,,,,,,,,,,,,,,,,,,,,,,,,,,,,,,,,,,,,,,,,,,,,,,1.839506169160207,1.0453057999839075,634.2447047000169,None,ScrollUp,정답입니다,634.2447047000169,None,634.2447047000169,None,634.2447047000169,None,634.2447047000169,None,635.1885468999972,None,635.1885468999972,635.6885946000111,,,,,,,,,,,,,,,,109,2023-04-03_16h35.12.482,FishGame,2022.1.1,60.030279258823924,
,9,나를 데려가줘,6,Green,B,0,0,ScrollDown,ScrollUp,Green.png,5,NonTarget,NonTarget,0,0,0,0,,,,,,,,,,,,,,,,,,,,,,,,,,,,,0,8,8,8,,,,,,,,,,,,,,,,,,,,,,,,,,,,,,,,,,,,,,,,,,,,,,,,,,,,,,,,,,,,,,,,,,,,,1.0771604776382446,1.0527255000197329,636.304927500023,None,ScrollDown,정답입니다,636.304927500023,None,636.304927500023,None,636.304927500023,None,636.304927500023,None,637.2576180000324,None,637.2576180000324,637.757596099982,,,,,,,,,,,,,,,,109,2023-04-03_16h35.12.482,FishGame,2022.1.1,60.030279258823924,
,10,넌 참되어,2,Orange,A,6.041666666666664,4.733333333333333,ScrollDown,ScrollUp,Orange.png,5,Positive,Congruent,0,0,0,0,,,,,,,,,,,,,,,,,,,,,,,,,,,,,0,9,9,9,,,,,,,,,,,,,,,,,,,,,,,,,,,,,,,,,,,,,,,,,,,,,,,,,,,,,,,,,,,,,,,,,,,,,1,1.0313535999739543,638.3792542000301,None,ScrollDown,정답입니다,638.3792542000301,None,638.3792542000301,None,638.3792542000301,None,638.3792542000301,None,639.3075020000106,None,639.3075020000106,639.8074092000024,,,,,,,,,,,,,,,,109,2023-04-03_16h35.12.482,FishGame,2022.1.1,60.030279258823924,
,11,넌 생기있어,1,Green,B,5.875,5.633333333333334,ScrollUp,ScrollDown,Green.png,5,Positive,Incongruent,0,0,0,0,,,,,,,,,,,,,,,,,,,,,,,,,,,,,0,10,10,10,,,,,,,,,,,,,,,,,,,,,,,,,,,,,,,,,,,,,,,,,,,,,,,,,,,,,,,,,,,,,,,,,,,,,1.8117283930381138,0.9478194999974221,640.4263125000289,None,ScrollUp,정답입니다,640.4263125000289,None,640.4263125000289,None,640.4263125000289,None,640.4263125000289,None,641.2717461999855,None,641.2717461999855,641.7717716000043,,,,,,,,,,,,,,,,109,2023-04-03_16h35.12.482,FishGame,2022.1.1,60.030279258823924,
,12,넌 비사교적이야,4,Green,B,2.875,2.9,ScrollUp,ScrollDown,Green.png,5,Negative,Congruent,0,0,0,0,,,,,,,,,,,,,,,,,,,,,,,,,,,,,0,11,11,11,,,,,,,,,,,,,,,,,,,,,,,,,,,,,,,,,,,,,,,,,,,,,,,,,,,,,,,,,,,,,,,,,,,,,1.5817901206513247,0.7311317999847233,642.3866370000178,None,ScrollUp,정답입니다,642.3866370000178,None,642.3866370000178,None,642.3866370000178,None,642.3866370000178,None,643.0217362000258,None,643.0217362000258,643.5217327999999,,,,,,,,,,,,,,,,109,2023-04-03_16h35.12.482,FishGame,2022.1.1,60.030279258823924,
,13,나를 데려가줘,6,Green,B,0,0,ScrollDown,ScrollUp,Green.png,5,NonTarget,NonTarget,0,0,0,0,,,,,,,,,,,,,,,,,,,,,,,,,,,,,0,12,12,12,,,,,,,,,,,,,,,,,,,,,,,,,,,,,,,,,,,,,,,,,,,,,,,,,,,,,,,,,,,,,,,,,,,,,1.1651234477758408,0.9502406999818049,644.1415849000332,None,ScrollDown,정답입니다,644.1415849000332,None,644.1415849000332,None,644.1415849000332,None,644.1415849000332,None,644.9908837000257,None,644.9908837000257,645.4907956999959,,,,,,,,,,,,,,,,109,2023-04-03_16h35.12.482,FishGame,2022.1.1,60.030279258823924,
,14,넌 고독해,4,Orange,A,2.916666666666667,3.233333333333333,ScrollDown,ScrollUp,Orange.png,5,Negative,Incongruent,0,0,0,0,,,,,,,,,,,,,,,,,,,,,,,,,,,,,0,13,13,13,,,,,,,,,,,,,,,,,,,,,,,,,,,,,,,,,,,,,,,,,,,,,,,,,,,,,,,,,,,,,,,,,,,,,1.253086417913437,0.9127080999896862,646.110031499993,None,ScrollDown,정답입니다,646.110031499993,None,646.110031499993,None,646.110031499993,None,646.110031499993,None,646.9216082000057,None,646.9216082000057,647.4216851000092,,,,,,,,,,,,,,,,109,2023-04-03_16h35.12.482,FishGame,2022.1.1,60.030279258823924,
,15,넌 신경질적이야,5,Green,B,2.375,2.233333333333333,ScrollUp,ScrollDown,Green.png,5,Negative,Congruent,0,0,0,0,,,,,,,,,,,,,,,,,,,,,,,,,,,,,0,14,14,14,,,,,,,,,,,,,,,,,,,,,,,,,,,,,,,,,,,,,,,,,,,,,,,,,,,,,,,,,,,,,,,,,,,,,1.5231481483206153,0.832886399992276,648.0436864999938,None,NoResponse,무응답입니다,648.0436864999938,None,648.0436864999938,None,648.0436864999938,None,648.0436864999938,None,648.7716728000087,None,648.7716728000087,649.2739963000058,,,,,,,,,,,,,,,,109,2023-04-03_16h35.12.482,FishGame,2022.1.1,60.030279258823924,
,16,넌 똑똑해,2,Green,B,5.666666666666667,3.966666666666667,ScrollUp,ScrollDown,Green.png,5,Positive,Incongruent,0,0,0,0,,,,,,,,,,,,,,,,,,,,,,,,,,,,,0,15,15,15,,,,,,,,,,,,,,,,,,,,,,,,,,,,,,,,,,,,,,,,,,,,,,,,,,,,,,,,,,,,,,,,,,,,,1.8487654278675716,0.9982526000239886,649.893151300028,None,ScrollUp,정답입니다,649.893151300028,None,649.893151300028,None,649.893151300028,None,649.893151300028,None,650.7907604000065,None,650.7907604000065,651.2913312999881,,,,,,,,,,,,,,,,109,2023-04-03_16h35.12.482,FishGame,2022.1.1,60.030279258823924,
,17,나를 보내줘,6,Orange,A,0,0,ScrollUp,ScrollDown,Orange.png,5,NonTarget,NonTarget,0,0,0,0,,,,,,,,,,,,,,,,,,,,,,,,,,,,,0,16,16,16,,,,,,,,,,,,,,,,,,,,,,,,,,,,,,,,,,,,,,,,,,,,,,,,,,,,,,,,,,,,,,,,,,,,,1.9660493632157643,1.2594379999791272,651.9165825999808,None,ScrollUp,정답입니다,651.9165825999808,None,651.9165825999808,None,651.9165825999808,None,651.9165825999808,None,653.0714873999823,None,653.0714873999823,653.5716197000002,,,,,,,,,,,,,,,,109,2023-04-03_16h35.12.482,FishGame,2022.1.1,60.030279258823924,
,18,넌 협조적이야,1,Orange,A,5.625,5.666666666666667,ScrollDown,ScrollUp,Orange.png,5,Positive,Congruent,0,0,0,0,,,,,,,,,,,,,,,,,,,,,,,,,,,,,0,17,17,17,,,,,,,,,,,,,,,,,,,,,,,,,,,,,,,,,,,,,,,,,,,,,,,,,,,,,,,,,,,,,,,,,,,,,1.1358024577299755,0.9675480999867432,654.1906801000005,None,ScrollDown,정답입니다,654.1906801000005,None,654.1906801000005,None,654.1906801000005,None,654.1906801000005,None,655.0573462999891,None,655.0573462999891,655.5572000999819,,,,,,,,,,,,,,,,109,2023-04-03_16h35.12.482,FishGame,2022.1.1,60.030279258823924,
,19,나를 데려가줘,6,Green,B,0,0,ScrollDown,ScrollUp,Green.png,5,NonTarget,NonTarget,0,0,0,0,,,,,,,,,,,,,,,,,,,,,,,,,,,,,0,18,18,18,,,,,,,,,,,,,,,,,,,,,,,,,,,,,,,,,,,,,,,,,,,,,,,,,,,,,,,,,,,,,,,,,,,,,1.182098776102066,1.133121700026095,656.1744272999931,None,ScrollDown,정답입니다,656.1744272999931,None,656.1744272999931,None,656.1744272999931,None,656.1744272999931,None,657.2049803999835,None,657.2049803999835,657.7069836999872,,,,,,,,,,,,,,,,109,2023-04-03_16h35.12.482,FishGame,2022.1.1,60.030279258823924,
,20,넌 몰인정해,5,Green,B,2.541666666666667,2.066666666666667,ScrollUp,ScrollDown,Green.png,5,Negative,Congruent,0,0,0,0,,,,,,,,,,,,,,,,,,,,,,,,,,,,,0,19,19,19,,,,,,,,,,,,,,,,,,,,,,,,,,,,,,,,,,,,,,,,,,,,,,,,,,,,,,,,,,,,,,,,,,,,,2,0.8960510999895632,658.3266323999851,None,ScrollUp,정답입니다,658.3266323999851,None,658.3266323999851,None,658.3266323999851,None,658.3266323999851,None,659.1236902999808,None,659.1236902999808,659.6236294999835,,,,,,,,,,,,,,,,109,2023-04-03_16h35.12.482,FishGame,2022.1.1,60.030279258823924,
,21,나를 데려가줘,6,Green,B,0,0,ScrollDown,ScrollUp,Green.png,5,NonTarget,NonTarget,0,0,0,0,,,,,,,,,,,,,,,,,,,,,,,,,,,,,0,20,20,20,,,,,,,,,,,,,,,,,,,,,,,,,,,,,,,,,,,,,,,,,,,,,,,,,,,,,,,,,,,,,,,,,,,,,1.2283950696388881,0.9352862000232562,660.2410809000139,None,ScrollDown,정답입니다,660.2410809000139,None,660.2410809000139,None,660.2410809000139,None,660.2410809000139,None,661.0792593000224,None,661.0792593000224,661.5902394999866,,,,,,,,,,,,,,,,109,2023-04-03_16h35.12.482,FishGame,2022.1.1,60.030279258823924,
,22,넌 순진해,3,Green,B,4.125,4.166666666666667,ScrollUp,ScrollDown,Green.png,5,Neutral,Neutral,0,0,0,0,,,,,,,,,,,,,,,,,,,,,,,,,,,,,0,21,21,21,,,,,,,,,,,,,,,,,,,,,,,,,,,,,,,,,,,,,,,,,,,,,,,,,,,,,,,,,,,,,,,,,,,,,1.9660493632157643,1.065972399956081,662.2066590000177,None,ScrollUp,정답입니다,662.2066590000177,None,662.2066590000177,None,662.2066590000177,None,662.2066590000177,None,663.1735550999874,None,663.1735550999874,663.673542900011,,,,,,,,,,,,,,,,109,2023-04-03_16h35.12.482,FishGame,2022.1.1,60.030279258823924,
,23,넌 신뢰할만해,1,Orange,A,6.625,5.533333333333333,ScrollDown,ScrollUp,Orange.png,5,Positive,Congruent,0,0,0,0,,,,,,,,,,,,,,,,,,,,,,,,,,,,,0,22,22,22,,,,,,,,,,,,,,,,,,,,,,,,,,,,,,,,,,,,,,,,,,,,,,,,,,,,,,,,,,,,,,,,,,,,,1.1666666616996129,1.046202199999243,664.2968503999873,None,ScrollDown,정답입니다,664.2968503999873,None,664.2968503999873,None,664.2968503999873,None,664.2968503999873,None,665.2403125999845,None,665.2403125999845,665.7402156000026,,,,,,,,,,,,,,,,109,2023-04-03_16h35.12.482,FishGame,2022.1.1,60.030279258823924,
