name,TrialNum,Word,WordCategory,FishType,WordList,WordValence,WordReputation,CorrectResp,IncorrectResp,FishTypeFile,Round,WordType,Condition,LoopforOrange.thisRepN,LoopforOrange.thisTrialN,LoopforOrange.thisN,LoopforOrange.thisIndex,LoopForGreen.thisRepN,LoopForGreen.thisTrialN,LoopForGreen.thisN,LoopForGreen.thisIndex,GreenInstLoop.thisRepN,GreenInstLoop.thisTrialN,GreenInstLoop.thisN,GreenInstLoop.thisIndex,GreenPrac.thisRepN,GreenPrac.thisTrialN,GreenPrac.thisN,GreenPrac.thisIndex,trials_2.thisRepN,trials_2.thisTrialN,trials_2.thisN,trials_2.thisIndex,GreenRound1.thisRepN,GreenRound1.thisTrialN,GreenRound1.thisN,GreenRound1.thisIndex,GreenRound2.thisRepN,GreenRound2.thisTrialN,GreenRound2.thisN,GreenRound2.thisIndex,GreenRound3.thisRepN,GreenRound3.thisTrialN,GreenRound3.thisN,GreenRound3.thisIndex,GreenRound4.thisRepN,GreenRound4.thisTrialN,GreenRound4.thisN,GreenRound4.thisIndex,GreenRound5.thisRepN,GreenRound5.thisTrialN,GreenRound5.thisN,GreenRound5.thisIndex,text_2.started,text_2.stopped,text_3.started,text_3.stopped,key_resp.keys,key_resp.rt,key_resp.started,key_resp.stopped,PassI.started,PassI.stopped,PassInst.keys,PassInst.rt,PassInst.started,PassInst.stopped,mouse_2.x,mouse_2.y,mouse_2.leftButton,mouse_2.midButton,mouse_2.rightButton,mouse_2.started,mouse_2.stopped,image.started,image.stopped,text_5.started,text_5.stopped,text_6.started,text_6.stopped,text_7.started,text_7.stopped,text_8.started,text_8.stopped,slider_3.response,slider_3.rt,slider_3.started,slider_3.stopped,Response_3,Feedback_3,BackGround_3.started,BackGround_3.stopped,Fish_3.started,Fish_3.stopped,WordBox_3.started,WordBox_3.stopped,Words_3.started,Words_3.stopped,BackGround_Feedback_3.started,BackGround_Feedback_3.stopped,Feedbacks_3.started,Feedbacks_3.stopped,Continue_or_not_2.keys,Continue_or_not_2.rt,Continue_or_not_2.started,Continue_or_not_2.stopped,image_4.started,image_4.stopped,mouse_3.x,mouse_3.y,mouse_3.leftButton,mouse_3.midButton,mouse_3.rightButton,mouse_3.started,mouse_3.stopped,startmain.started,startmain.stopped,slider_4.response,slider_4.rt,slider_4.started,slider_4.stopped,Response_4,Feedback_4,BackGround_4.started,BackGround_4.stopped,Fish_4.started,Fish_4.stopped,WordBox_4.started,WordBox_4.stopped,Words_4.started,Words_4.stopped,BackGround_Feedback_4.started,BackGround_Feedback_4.stopped,Feedbacks_4.started,Feedbacks_4.stopped,text.started,text.stopped,break_interval.started,break_interval.stopped,mouse.x,mouse.y,mouse.leftButton,mouse.midButton,mouse.rightButton,mouse.started,mouse.stopped,stratnextround.started,stratnextround.stopped,endgame.started,endgame.stopped,participant,date,expName,psychopyVersion,frameRate,
,,,,,,,,,,,,,,,,,,,,,,,,,,,,,,,,,,,,,,,,,,,,,,,,,,,,,,18.080907900002785,None,18.080907900002785,None,space,0.7656811999622732,18.57030229998054,None,,,,,,,,,,,,,,,,,,,,,,,,,,,,,,,,,,,,,,,,,,,,,,,,,,,,,,,,,,,,,,,,,,,,,,,,,,,,,,,,,,,,,,,,,,110,2023-04-04_15h14.14.720,FishGame,2022.1.1,59.82378306692553,
물고기과제_instruction(참가자용)GreenVersion.mp4,,,,,,,,,,,,,,,,,,0,0,0,0,0,0,0,0,,,,,,,,,,,,,,,,,,,,,,,,,,,,,,,,,,,,,88.64888530003373,None,n,1.1912351999781094,88.64888530003373,None,,,,,,,,,,,,,,,,,,,,,,,,,,,,,,,,,,,,,,,,,,,,,,,,,,,,,,,,,,,,,,,,,,,,,,,,,,,,,,,,,,,,110,2023-04-04_15h14.14.720,FishGame,2022.1.1,59.82378306692553,
,1,넌 교활해,5,Orange,B,2.333333333333333,2.133333333333333,ScrollUp,ScrollDown,Orange.png,practice,,,,,,,0,0,0,0,,,,,0,0,0,0,0,0,0,0,,,,,,,,,,,,,,,,,,,,,,,,,,,,,,,,,,,0.07777778,-0.26574075,1,0,0,0.5148436300223693,None,89.86319210001966,None,93.91338759998325,95.4154185000225,95.44877860002453,96.39872120000655,96.44871199998306,97.39868099999148,97.39868099999148,None,2,1.530120499955956,98.68284090002999,None,ScrollUp,정답입니다,98.68284090002999,None,98.68284090002999,None,98.68284090002999,None,98.68284090002999,None,99.91283350001322,None,99.91283350001322,100.41281599999638,,,,,,,,,,,,,,,,,,,,,,,,,,,,,,,,,,,,,,,,,,,,,,,,,110,2023-04-04_15h14.14.720,FishGame,2022.1.1,59.82378306692553,
,2,넌 슬기로워,2,Green,A,6.166666666666667,4.1,ScrollDown,ScrollUp,Green.png,practice,,,,,,,0,0,0,0,,,,,0,0,0,0,0,1,1,1,,,,,,,,,,,,,,,,,,,,,,,,,,,,,,,,,,,,,,,,,,,,,,,,,,,,1.2916666666666665,1.2337209000252187,101.03329679998569,None,ScrollDown,정답입니다,101.03329679998569,None,101.03329679998569,None,101.03329679998569,None,101.03329679998569,None,102.16523260000395,None,102.16523260000395,102.66521649999777,,,,,,,,,,,,,,,,,,,,,,,,,,,,,,,,,,,,,,,,,,,,,,,,,110,2023-04-04_15h14.14.720,FishGame,2022.1.1,59.82378306692553,
,3,나를 보내줘,6,Green,A,0,0,ScrollUp,ScrollDown,Green.png,practice,,,,,,,0,0,0,0,,,,,0,0,0,0,0,2,2,2,,,,,,,,,,,,,,,,,,,,,,,,,,,,,,,,,,,,,,,,,,,,,,,,,,,,1.68364197264115,1.5958728999830782,103.28950359998271,None,ScrollUp,정답입니다,103.28950359998271,None,103.28950359998271,None,103.28950359998271,None,103.28950359998271,None,104.77942239999538,None,104.77942239999538,105.27937559998827,,,,,,,,,,,,,,,,,,,,,,,,,,,,,,,,,,,,,,,,,,,,,,,,,110,2023-04-04_15h14.14.720,FishGame,2022.1.1,59.82378306692553,
,4,나를 데려가줘,6,Orange,B,0,0,ScrollDown,ScrollUp,Orange.png,practice,,,,,,,0,0,0,0,,,,,0,0,0,0,0,3,3,3,,,,,,,,,,,,,,,,,,,,,,,,,,,,,,,,,,,,,,,,,,,,,,,,,,,,1.0586419602235158,1.1986603999976069,105.9067183000152,None,ScrollDown,정답입니다,105.9067183000152,None,105.9067183000152,None,105.9067183000152,None,105.9067183000152,None,106.9985769999912,None,106.9985769999912,107.4984585000202,,,,,,,,,,,,,,,,,,,,,,,,,,,,,,,,,,,,,,,,,,,,,,,,,110,2023-04-04_15h14.14.720,FishGame,2022.1.1,59.82378306692553,
,1,넌 교활해,5,Orange,B,2.333333333333333,2.133333333333333,ScrollUp,ScrollDown,Orange.png,practice,,,,,,,0,0,0,0,,,,,0,0,0,0,,,,,,,,,,,,,,,,,,,,,,,,,,,,,,,,,,,,,,,,,,,,,,,,,,,,,,,,,,,,,,,,,,,,,,,,,,n,4.140414899971802,107.99844490003306,None,107.99844490003306,None,,,,,,,,,,,,,,,,,,,,,,,,,,,,,,,,,,,,,,,,,,,110,2023-04-04_15h14.14.720,FishGame,2022.1.1,59.82378306692553,
,1,넌 따뜻해,1,Orange,B,6.083333333333333,5.6,ScrollUp,ScrollDown,Orange.png,1,Positive,Incongruent,,,,,0,0,0,0,,,,,,,,,,,,,0,0,0,0,,,,,,,,,,,,,,,,,,,,,,,,,,,,,,,,,,,,,,,,114.11784500000067,115.63157570001204,115.64824080001563,116.5983353999909,116.64838870003587,117.59831109998049,117.59831109998049,None,,,,,,,,,,,,,,,,,,,,,,,,,0.0046296297,-0.12037037,1,0,0,0.31475553003838286,None,112.16475400002673,None,1.679012343287468,1.312948300037533,118.89075830002548,None,ScrollUp,정답입니다,118.89075830002548,None,118.89075830002548,None,118.89075830002548,None,118.89075830002548,None,119.8981881000218,None,119.8981881000218,120.401399400027,,,,,,,,,,,,,,,,110,2023-04-04_15h14.14.720,FishGame,2022.1.1,59.82378306692553,
,2,넌 기품있어,2,Orange,B,5.791666666666668,4.5,ScrollUp,ScrollDown,Orange.png,1,Positive,Incongruent,,,,,0,0,0,0,,,,,,,,,,,,,0,1,1,1,,,,,,,,,,,,,,,,,,,,,,,,,,,,,,,,,,,,,,,,,,,,,,,,,,,,,,,,,,,,,,,,,,,,,,,,,,,,,,,,,1.9814815024534862,1.0317933000042103,121.02530280000065,None,ScrollUp,정답입니다,121.02530280000065,None,121.02530280000065,None,121.02530280000065,None,121.02530280000065,None,121.94595050002681,None,121.94595050002681,122.44799690000946,,,,,,,,,,,,,,,,110,2023-04-04_15h14.14.720,FishGame,2022.1.1,59.82378306692553,
,3,나를 보내줘,6,Green,A,0,0,ScrollUp,ScrollDown,Green.png,1,NonTarget,NonTarget,,,,,0,0,0,0,,,,,,,,,,,,,0,2,2,2,,,,,,,,,,,,,,,,,,,,,,,,,,,,,,,,,,,,,,,,,,,,,,,,,,,,,,,,,,,,,,,,,,,,,,,,,,,,,,,,,1.89969136317571,2.1298905999865383,123.0739559000358,None,ScrollUp,정답입니다,123.0739559000358,None,123.0739559000358,None,123.0739559000358,None,123.0739559000358,None,125.09800200001337,None,125.09800200001337,125.60121860000072,,,,,,,,,,,,,,,,110,2023-04-04_15h14.14.720,FishGame,2022.1.1,59.82378306692553,
,4,넌 수동적이야,4,Green,A,2.833333333333333,2.933333333333333,ScrollDown,ScrollUp,Green.png,1,Negative,Incongruent,,,,,0,0,0,0,,,,,,,,,,,,,0,3,3,3,,,,,,,,,,,,,,,,,,,,,,,,,,,,,,,,,,,,,,,,,,,,,,,,,,,,,,,,,,,,,,,,,,,,,,,,,,,,,,,,,1,1.5798749000532553,126.22669209999731,None,ScrollDown,정답입니다,126.22669209999731,None,126.22669209999731,None,126.22669209999731,None,126.22669209999731,None,127.69781889999285,None,127.69781889999285,128.19784269999946,,,,,,,,,,,,,,,,110,2023-04-04_15h14.14.720,FishGame,2022.1.1,59.82378306692553,
,5,넌 사심이 없어,3,Orange,B,4.916666666666666,4.333333333333333,ScrollUp,ScrollDown,Orange.png,1,Neutral,Neutral,,,,,0,0,0,0,,,,,,,,,,,,,0,4,4,4,,,,,,,,,,,,,,,,,,,,,,,,,,,,,,,,,,,,,,,,,,,,,,,,,,,,,,,,,,,,,,,,,,,,,,,,,,,,,,,,,2,1.0463692999910563,128.83143770002062,None,ScrollUp,정답입니다,128.83143770002062,None,128.83143770002062,None,128.83143770002062,None,128.83143770002062,None,129.76449830003548,None,129.76449830003548,130.26451700000325,,,,,,,,,,,,,,,,110,2023-04-04_15h14.14.720,FishGame,2022.1.1,59.82378306692553,
,6,넌 헤퍼,5,Green,A,2.458333333333334,2.233333333333333,ScrollDown,ScrollUp,Green.png,1,Negative,Incongruent,,,,,0,0,0,0,,,,,,,,,,,,,0,5,5,5,,,,,,,,,,,,,,,,,,,,,,,,,,,,,,,,,,,,,,,,,,,,,,,,,,,,,,,,,,,,,,,,,,,,,,,,,,,,,,,,,1,1.1126885999692604,130.8952772000339,None,ScrollDown,정답입니다,130.8952772000339,None,130.8952772000339,None,130.8952772000339,None,130.8952772000339,None,131.89785419998225,None,131.89785419998225,132.39777640003012,,,,,,,,,,,,,,,,110,2023-04-04_15h14.14.720,FishGame,2022.1.1,59.82378306692553,
,7,넌 말쑥해,3,Green,A,4.833333333333334,4.333333333333333,ScrollDown,ScrollUp,Green.png,1,Neutral,Neutral,,,,,0,0,0,0,,,,,,,,,,,,,0,6,6,6,,,,,,,,,,,,,,,,,,,,,,,,,,,,,,,,,,,,,,,,,,,,,,,,,,,,,,,,,,,,,,,,,,,,,,,,,,,,,,,,,1,1.4628639000002295,133.02510560001247,None,ScrollDown,정답입니다,133.02510560001247,None,133.02510560001247,None,133.02510560001247,None,133.02510560001247,None,134.37875239999266,None,134.37875239999266,134.8787916000001,,,,,,,,,,,,,,,,110,2023-04-04_15h14.14.720,FishGame,2022.1.1,59.82378306692553,
,8,넌 투덜거려,5,Orange,B,2.541666666666667,2.266666666666667,ScrollUp,ScrollDown,Orange.png,1,Negative,Congruent,,,,,0,0,0,0,,,,,,,,,,,,,0,7,7,7,,,,,,,,,,,,,,,,,,,,,,,,,,,,,,,,,,,,,,,,,,,,,,,,,,,,,,,,,,,,,,,,,,,,,,,,,,,,,,,,,2,0.9669062000466511,135.50689489999786,None,ScrollUp,정답입니다,135.50689489999786,None,135.50689489999786,None,135.50689489999786,None,135.50689489999786,None,136.36456060002092,None,136.36456060002092,136.86443030001828,,,,,,,,,,,,,,,,110,2023-04-04_15h14.14.720,FishGame,2022.1.1,59.82378306692553,
,9,넌 적극적이야,1,Green,A,5.708333333333333,5.533333333333333,ScrollDown,ScrollUp,Green.png,1,Positive,Congruent,,,,,0,0,0,0,,,,,,,,,,,,,0,8,8,8,,,,,,,,,,,,,,,,,,,,,,,,,,,,,,,,,,,,,,,,,,,,,,,,,,,,,,,,,,,,,,,,,,,,,,,,,,,,,,,,,1,0.9981191999977455,137.48945729999105,None,ScrollDown,정답입니다,137.48945729999105,None,137.48945729999105,None,137.48945729999105,None,137.48945729999105,None,138.38104120001663,None,138.38104120001663,138.8809665000299,,,,,,,,,,,,,,,,110,2023-04-04_15h14.14.720,FishGame,2022.1.1,59.82378306692553,
,10,넌 재미없어,4,Orange,B,2.625,2.966666666666667,ScrollUp,ScrollDown,Orange.png,1,Negative,Congruent,,,,,0,0,0,0,,,,,,,,,,,,,0,9,9,9,,,,,,,,,,,,,,,,,,,,,,,,,,,,,,,,,,,,,,,,,,,,,,,,,,,,,,,,,,,,,,,,,,,,,,,,,,,,,,,,,2,0.9293917000177316,139.50601830001688,None,ScrollUp,정답입니다,139.50601830001688,None,139.50601830001688,None,139.50601830001688,None,139.50601830001688,None,140.32887730002403,None,140.32887730002403,140.83085620001657,,,,,,,,,,,,,,,,110,2023-04-04_15h14.14.720,FishGame,2022.1.1,59.82378306692553,
,11,넌 명석해,2,Green,A,5.875,4.033333333333333,ScrollDown,ScrollUp,Green.png,1,Positive,Congruent,,,,,0,0,0,0,,,,,,,,,,,,,0,10,10,10,,,,,,,,,,,,,,,,,,,,,,,,,,,,,,,,,,,,,,,,,,,,,,,,,,,,,,,,,,,,,,,,,,,,,,,,,,,,,,,,,1,0.9631656999699771,141.45350760000292,None,ScrollDown,정답입니다,141.45350760000292,None,141.45350760000292,None,141.45350760000292,None,141.45350760000292,None,142.3141803999897,None,142.3141803999897,142.81418600003235,,,,,,,,,,,,,,,,110,2023-04-04_15h14.14.720,FishGame,2022.1.1,59.82378306692553,
,12,나를 데려가줘,6,Orange,B,0,0,ScrollDown,ScrollUp,Orange.png,1,NonTarget,NonTarget,,,,,0,0,0,0,,,,,,,,,,,,,0,11,11,11,,,,,,,,,,,,,,,,,,,,,,,,,,,,,,,,,,,,,,,,,,,,,,,,,,,,,,,,,,,,,,,,,,,,,,,,,,,,,,,,,1,1.1319414000026882,143.43949509999948,None,ScrollDown,정답입니다,143.43949509999948,None,143.43949509999948,None,143.43949509999948,None,143.43949509999948,None,144.46435870003188,None,144.46435870003188,144.96420940000098,,,,,,,,,,,,,,,,110,2023-04-04_15h14.14.720,FishGame,2022.1.1,59.82378306692553,
,13,넌 소심해,4,Green,A,3,3.1,ScrollDown,ScrollUp,Green.png,1,Negative,Incongruent,,,,,0,0,0,0,,,,,,,,,,,,,0,12,12,12,,,,,,,,,,,,,,,,,,,,,,,,,,,,,,,,,,,,,,,,,,,,,,,,,,,,,,,,,,,,,,,,,,,,,,,,,,,,,,,,,1.0015431940555573,0.8486602999619208,145.59150849998696,None,ScrollDown,정답입니다,145.59150849998696,None,145.59150849998696,None,145.59150849998696,None,145.59150849998696,None,146.33080860000337,None,146.33080860000337,146.83079410000937,,,,,,,,,,,,,,,,110,2023-04-04_15h14.14.720,FishGame,2022.1.1,59.82378306692553,
,14,넌 합리적이야,2,Green,A,5.583333333333333,4.733333333333333,ScrollDown,ScrollUp,Green.png,1,Positive,Congruent,,,,,0,0,0,0,,,,,,,,,,,,,0,13,13,13,,,,,,,,,,,,,,,,,,,,,,,,,,,,,,,,,,,,,,,,,,,,,,,,,,,,,,,,,,,,,,,,,,,,,,,,,,,,,,,,,1.0293209950129192,0.8627478000125848,147.454203900008,None,ScrollDown,정답입니다,147.454203900008,None,147.454203900008,None,147.454203900008,None,147.454203900008,None,148.2140645000036,None,148.2140645000036,148.71403919998556,,,,,,,,,,,,,,,,110,2023-04-04_15h14.14.720,FishGame,2022.1.1,59.82378306692553,
,15,넌 무자비해,5,Orange,B,2.333333333333333,2.1,ScrollUp,ScrollDown,Orange.png,1,Negative,Congruent,,,,,0,0,0,0,,,,,,,,,,,,,0,14,14,14,,,,,,,,,,,,,,,,,,,,,,,,,,,,,,,,,,,,,,,,,,,,,,,,,,,,,,,,,,,,,,,,,,,,,,,,,,,,,,,,,2,1.1626590000232682,149.34071449999465,None,ScrollUp,정답입니다,149.34071449999465,None,149.34071449999465,None,149.34071449999465,None,149.34071449999465,None,150.3974643999827,None,150.3974643999827,150.89736880001146,,,,,,,,,,,,,,,,110,2023-04-04_15h14.14.720,FishGame,2022.1.1,59.82378306692553,
,16,나를 보내줘,6,Green,A,0,0,ScrollUp,ScrollDown,Green.png,1,NonTarget,NonTarget,,,,,0,0,0,0,,,,,,,,,,,,,0,15,15,15,,,,,,,,,,,,,,,,,,,,,,,,,,,,,,,,,,,,,,,,,,,,,,,,,,,,,,,,,,,,,,,,,,,,,,,,,,,,,,,,,1.9537037014961243,1.115419399982784,151.51662000000942,None,ScrollUp,정답입니다,151.51662000000942,None,151.51662000000942,None,151.51662000000942,None,151.51662000000942,None,152.53070890001254,None,152.53070890001254,153.03071170003386,,,,,,,,,,,,,,,,110,2023-04-04_15h14.14.720,FishGame,2022.1.1,59.82378306692553,
,17,넌 현실적이야,3,Orange,B,4.608695652173913,4.766666666666667,ScrollUp,ScrollDown,Orange.png,1,Neutral,Neutral,,,,,0,0,0,0,,,,,,,,,,,,,0,16,16,16,,,,,,,,,,,,,,,,,,,,,,,,,,,,,,,,,,,,,,,,,,,,,,,,,,,,,,,,,,,,,,,,,,,,,,,,,,,,,,,,,1.0046296219031017,0.8815704999724403,153.65605849999702,None,ScrollDown,오답입니다,153.65605849999702,None,153.65605849999702,None,153.65605849999702,None,153.65605849999702,None,154.4285799000063,None,154.4285799000063,154.93058769998606,,,,,,,,,,,,,,,,110,2023-04-04_15h14.14.720,FishGame,2022.1.1,59.82378306692553,
,18,넌 의리있어,1,Orange,B,5.833333333333334,5.633333333333334,ScrollUp,ScrollDown,Orange.png,1,Positive,Incongruent,,,,,0,0,0,0,,,,,,,,,,,,,0,17,17,17,,,,,,,,,,,,,,,,,,,,,,,,,,,,,,,,,,,,,,,,,,,,,,,,,,,,,,,,,,,,,,,,,,,,,,,,,,,,,,,,,1.8549382835626602,0.9484832999878563,155.5586556000053,None,ScrollUp,정답입니다,155.5586556000053,None,155.5586556000053,None,155.5586556000053,None,155.5586556000053,None,156.3974215000053,None,156.3974215000053,156.89726759999758,,,,,,,,,,,,,,,,110,2023-04-04_15h14.14.720,FishGame,2022.1.1,59.82378306692553,
,19,넌 신경과민이야,5,Green,A,2.541666666666667,2.166666666666667,ScrollDown,ScrollUp,Green.png,1,Negative,Incongruent,,,,,0,0,0,0,,,,,,,,,,,,,0,18,18,18,,,,,,,,,,,,,,,,,,,,,,,,,,,,,,,,,,,,,,,,,,,,,,,,,,,,,,,,,,,,,,,,,,,,,,,,,,,,,,,,,1.0432098706563313,0.9128659000271,157.52316079998855,None,ScrollDown,정답입니다,157.52316079998855,None,157.52316079998855,None,157.52316079998855,None,157.52316079998855,None,158.33054500003345,None,158.33054500003345,158.83049170003505,,,,,,,,,,,,,,,,110,2023-04-04_15h14.14.720,FishGame,2022.1.1,59.82378306692553,
,20,넌 편안해,1,Green,A,5.916666666666666,5.866666666666666,ScrollDown,ScrollUp,Green.png,1,Positive,Congruent,,,,,0,0,0,0,,,,,,,,,,,,,0,19,19,19,,,,,,,,,,,,,,,,,,,,,,,,,,,,,,,,,,,,,,,,,,,,,,,,,,,,,,,,,,,,,,,,,,,,,,,,,,,,,,,,,1,1.0151162999682128,159.4528971000109,None,ScrollDown,정답입니다,159.4528971000109,None,159.4528971000109,None,159.4528971000109,None,159.4528971000109,None,160.36393360001966,None,160.36393360001966,160.86382979998598,,,,,,,,,,,,,,,,110,2023-04-04_15h14.14.720,FishGame,2022.1.1,59.82378306692553,
,21,넌 품위있어,2,Orange,B,5.291666666666666,4.466666666666667,ScrollUp,ScrollDown,Orange.png,1,Positive,Incongruent,,,,,0,0,0,0,,,,,,,,,,,,,0,20,20,20,,,,,,,,,,,,,,,,,,,,,,,,,,,,,,,,,,,,,,,,,,,,,,,,,,,,,,,,,,,,,,,,,,,,,,,,,,,,,,,,,2,1.0460816999548115,161.4882815000019,None,ScrollUp,정답입니다,161.4882815000019,None,161.4882815000019,None,161.4882815000019,None,161.4882815000019,None,162.4281407999806,None,162.4281407999806,162.92820640001446,,,,,,,,,,,,,,,,110,2023-04-04_15h14.14.720,FishGame,2022.1.1,59.82378306692553,
,22,넌 빈틈없어,3,Green,A,4.833333333333333,3.966666666666667,ScrollDown,ScrollUp,Green.png,1,Neutral,Neutral,,,,,0,0,0,0,,,,,,,,,,,,,0,21,21,21,,,,,,,,,,,,,,,,,,,,,,,,,,,,,,,,,,,,,,,,,,,,,,,,,,,,,,,,,,,,,,,,,,,,,,,,,,,,,,,,,1,0.8979149999795482,163.54995110002346,None,ScrollDown,정답입니다,163.54995110002346,None,163.54995110002346,None,163.54995110002346,None,163.54995110002346,None,164.34481270000106,None,164.34481270000106,164.84480000002077,,,,,,,,,,,,,,,,110,2023-04-04_15h14.14.720,FishGame,2022.1.1,59.82378306692553,
,23,넌 상상력없어,4,Orange,B,2.833333333333333,3.133333333333333,ScrollUp,ScrollDown,Orange.png,1,Negative,Congruent,,,,,0,0,0,0,,,,,,,,,,,,,0,22,22,22,,,,,,,,,,,,,,,,,,,,,,,,,,,,,,,,,,,,,,,,,,,,,,,,,,,,,,,,,,,,,,,,,,,,,,,,,,,,,,,,,2,0.8481488999677822,165.4733680000063,None,ScrollUp,정답입니다,165.4733680000063,None,165.4733680000063,None,165.4733680000063,None,165.4733680000063,None,166.21392599999672,None,166.21392599999672,166.71383510000305,,,,,,,,,,,,,,,,110,2023-04-04_15h14.14.720,FishGame,2022.1.1,59.82378306692553,
,24,넌 지혜로워,2,Orange,B,6.333333333333334,4.633333333333334,ScrollUp,ScrollDown,Orange.png,1,Positive,Incongruent,,,,,0,0,0,0,,,,,,,,,,,,,0,23,23,23,,,,,,,,,,,,,,,,,,,,,,,,,,,,,,,,,,,,,,,,,,,,,,,,,,,,,,,,,,,,,,,,,,,,,,,,,,,,,,,,,2,0.9624247000319883,167.34754649997922,None,ScrollUp,정답입니다,167.34754649997922,None,167.34754649997922,None,167.34754649997922,None,167.34754649997922,None,168.19476290000603,None,168.19476290000603,168.69473590003327,,,,,,,,,,,,,,,,110,2023-04-04_15h14.14.720,FishGame,2022.1.1,59.82378306692553,
,25,넌 시끄러워,4,Green,A,2.833333333333333,3.033333333333333,ScrollDown,ScrollUp,Green.png,1,Negative,Incongruent,,,,,0,0,0,0,,,,,,,,,,,,,0,24,24,24,,,,,,,,,,,,,,,,,,,,,,,,,,,,,,,,,,,,,,,,,,,,,,,,,,,,,,,,,,,,,,,,,,,,,,,,,,,,,,,,,1,0.7981809999910183,169.3181179999956,None,ScrollDown,정답입니다,169.3181179999956,None,169.3181179999956,None,169.3181179999956,None,169.3181179999956,None,170.01138959999662,None,170.01138959999662,170.51373000000603,,,,,,,,,,,,,,,,110,2023-04-04_15h14.14.720,FishGame,2022.1.1,59.82378306692553,
,26,넌 만사태평이야,3,Orange,B,4,4.333333333333333,ScrollUp,ScrollDown,Orange.png,1,Neutral,Neutral,,,,,0,0,0,0,,,,,,,,,,,,,0,25,25,25,,,,,,,,,,,,,,,,,,,,,,,,,,,,,,,,,,,,,,,,,,,,,,,,,,,,,,,,,,,,,,,,,,,,,,,,,,,,,,,,,2,1.2156885000295006,171.14122819999466,None,ScrollUp,정답입니다,171.14122819999466,None,171.14122819999466,None,171.14122819999466,None,171.14122819999466,None,172.2470618999796,None,172.2470618999796,172.75022220000392,,,,,,,,,,,,,,,,110,2023-04-04_15h14.14.720,FishGame,2022.1.1,59.82378306692553,
,27,넌 붙임성있어,1,Green,A,5.708333333333333,5.633333333333334,ScrollDown,ScrollUp,Green.png,1,Positive,Congruent,,,,,0,0,0,0,,,,,,,,,,,,,0,26,26,26,,,,,,,,,,,,,,,,,,,,,,,,,,,,,,,,,,,,,,,,,,,,,,,,,,,,,,,,,,,,,,,,,,,,,,,,,,,,,,,,,1.2191358109315236,0.8134526000358164,173.3714978999924,None,ScrollDown,정답입니다,173.3714978999924,None,173.3714978999924,None,173.3714978999924,None,173.3714978999924,None,174.0802124000038,None,174.0802124000038,174.5801960999961,,,,,,,,,,,,,,,,110,2023-04-04_15h14.14.720,FishGame,2022.1.1,59.82378306692553,
,28,넌 영리해,2,Green,A,6,4.033333333333333,ScrollDown,ScrollUp,Green.png,1,Positive,Congruent,,,,,0,0,0,0,,,,,,,,,,,,,0,27,27,27,,,,,,,,,,,,,,,,,,,,,,,,,,,,,,,,,,,,,,,,,,,,,,,,,,,,,,,,,,,,,,,,,,,,,,,,,,,,,,,,,1,1.2320582999964245,175.2071742999833,None,ScrollDown,정답입니다,175.2071742999833,None,175.2071742999833,None,175.2071742999833,None,175.2071742999833,None,176.33027789997868,None,176.33027789997868,176.83073490002425,,,,,,,,,,,,,,,,110,2023-04-04_15h14.14.720,FishGame,2022.1.1,59.82378306692553,
,29,넌 열심이야,1,Orange,B,6.041666666666667,5.833333333333333,ScrollUp,ScrollDown,Orange.png,1,Positive,Incongruent,,,,,0,0,0,0,,,,,,,,,,,,,0,28,28,28,,,,,,,,,,,,,,,,,,,,,,,,,,,,,,,,,,,,,,,,,,,,,,,,,,,,,,,,,,,,,,,,,,,,,,,,,,,,,,,,,1.9166666666666667,0.9096329999738373,177.46768240001984,None,ScrollUp,정답입니다,177.46768240001984,None,177.46768240001984,None,177.46768240001984,None,177.46768240001984,None,178.26115330000175,None,178.26115330000175,178.76111010002205,,,,,,,,,,,,,,,,110,2023-04-04_15h14.14.720,FishGame,2022.1.1,59.82378306692553,
,30,넌 인기없어,4,Orange,B,3,3.3,ScrollUp,ScrollDown,Orange.png,1,Negative,Congruent,,,,,0,0,0,0,,,,,,,,,,,,,0,29,29,29,,,,,,,,,,,,,,,,,,,,,,,,,,,,,,,,,,,,,,,,,,,,,,,,,,,,,,,,,,,,,,,,,,,,,,,,,,,,,,,,,1.959876557191213,0.8480194000294432,179.3838054999942,None,ScrollUp,정답입니다,179.3838054999942,None,179.3838054999942,None,179.3838054999942,None,179.3838054999942,None,180.13022089999868,None,180.13022089999868,180.63017289998243,,,,,,,,,,,,,,,,110,2023-04-04_15h14.14.720,FishGame,2022.1.1,59.82378306692553,
,31,넌 익살스러워,3,Green,A,4.708333333333334,4.833333333333333,ScrollDown,ScrollUp,Green.png,1,Neutral,Neutral,,,,,0,0,0,0,,,,,,,,,,,,,0,30,30,30,,,,,,,,,,,,,,,,,,,,,,,,,,,,,,,,,,,,,,,,,,,,,,,,,,,,,,,,,,,,,,,,,,,,,,,,,,,,,,,,,1.1049382785956066,0.7464077000040561,181.254807099991,None,ScrollDown,정답입니다,181.254807099991,None,181.254807099991,None,181.254807099991,None,181.254807099991,None,181.89689929998713,None,181.89689929998713,182.4002302000299,,,,,,,,,,,,,,,,110,2023-04-04_15h14.14.720,FishGame,2022.1.1,59.82378306692553,
,32,넌 이기적이야,5,Orange,B,2.291666666666667,2.333333333333333,ScrollUp,ScrollDown,Orange.png,1,Negative,Congruent,,,,,0,0,0,0,,,,,,,,,,,,,0,31,31,31,,,,,,,,,,,,,,,,,,,,,,,,,,,,,,,,,,,,,,,,,,,,,,,,,,,,,,,,,,,,,,,,,,,,,,,,,,,,,,,,,2,0.8815228999592364,183.01842199999373,None,ScrollUp,정답입니다,183.01842199999373,None,183.01842199999373,None,183.01842199999373,None,183.01842199999373,None,183.79670469998382,None,183.79670469998382,184.29665370000293,,,,,,,,,,,,,,,,110,2023-04-04_15h14.14.720,FishGame,2022.1.1,59.82378306692553,
,33,나를 데려가줘,6,Orange,B,0,0,ScrollDown,ScrollUp,Orange.png,1,NonTarget,NonTarget,,,,,0,0,0,0,,,,,,,,,,,,,0,32,32,32,,,,,,,,,,,,,,,,,,,,,,,,,,,,,,,,,,,,,,,,,,,,,,,,,,,,,,,,,,,,,,,,,,,,,,,,,,,,,,,,,1,1.2982245999737643,184.91901419998612,None,ScrollDown,정답입니다,184.91901419998612,None,184.91901419998612,None,184.91901419998612,None,184.91901419998612,None,186.11327159998473,None,186.11327159998473,186.61320010002237,,,,,,,,,,,,,,,,110,2023-04-04_15h14.14.720,FishGame,2022.1.1,59.82378306692553,
,34,넌 기회주의자야,5,Green,A,2.875,2.133333333333333,ScrollDown,ScrollUp,Green.png,1,Negative,Incongruent,,,,,0,0,0,0,,,,,,,,,,,,,0,33,33,33,,,,,,,,,,,,,,,,,,,,,,,,,,,,,,,,,,,,,,,,,,,,,,,,,,,,,,,,,,,,,,,,,,,,,,,,,,,,,,,,,1.0771604776382446,0.9650394999771379,187.23718380002538,None,ScrollDown,정답입니다,187.23718380002538,None,187.23718380002538,None,187.23718380002538,None,187.23718380002538,None,188.09659869997995,None,188.09659869997995,188.59657799999695,,,,,,,,,,,,,,,,110,2023-04-04_15h14.14.720,FishGame,2022.1.1,59.82378306692553,
,1,넌 미성숙해,4,Green,A,3,3.2,ScrollDown,ScrollUp,Green.png,2,Negative,Incongruent,,,,,0,0,0,0,,,,,,,,,,,,,,,,,0,0,0,0,,,,,,,,,,,,,,,,,,,,,,,,,,,,,,,,,,,,220.94578890001867,222.4436604999937,222.47936639998807,223.42934660002356,223.4793212999939,224.42929729999742,224.42929729999742,None,,,,,,,,,,,,,,,,,,,,,,,,,,,,,,,,,,1,1.4734289999469183,225.52694730000803,None,ScrollDown,정답입니다,225.52694730000803,None,225.52694730000803,None,225.52694730000803,None,225.52694730000803,None,226.89579999999842,None,226.89579999999842,227.39574419998098,189.09660470002564,None,189.09660470002564,None,0.2574074,-0.12222222,1,0,0,0.016050030011683702,None,219.09576789999846,None,,,110,2023-04-04_15h14.14.720,FishGame,2022.1.1,59.82378306692553,
,2,넌 반사회적이야,5,Orange,B,2.416666666666667,2.033333333333333,ScrollUp,ScrollDown,Orange.png,2,Negative,Congruent,,,,,0,0,0,0,,,,,,,,,,,,,,,,,0,1,1,1,,,,,,,,,,,,,,,,,,,,,,,,,,,,,,,,,,,,,,,,,,,,,,,,,,,,,,,,,,,,,,,,,,,,,,,,,,,,,1.8117283930381138,0.8989096999866888,228.01991480001016,None,ScrollUp,정답입니다,228.01991480001016,None,228.01991480001016,None,228.01991480001016,None,228.01991480001016,None,228.81237800000235,None,228.81237800000235,229.31228980002925,,,,,,,,,,,,,,,,110,2023-04-04_15h14.14.720,FishGame,2022.1.1,59.82378306692553,
,3,넌 유능해,2,Green,A,6.208333333333333,4.433333333333334,ScrollDown,ScrollUp,Green.png,2,Positive,Congruent,,,,,0,0,0,0,,,,,,,,,,,,,,,,,0,2,2,2,,,,,,,,,,,,,,,,,,,,,,,,,,,,,,,,,,,,,,,,,,,,,,,,,,,,,,,,,,,,,,,,,,,,,,,,,,,,,1,0.931694199971389,229.9370712999953,None,ScrollDown,정답입니다,229.9370712999953,None,229.9370712999953,None,229.9370712999953,None,229.9370712999953,None,230.76231600000756,None,230.76231600000756,231.26231920003192,,,,,,,,,,,,,,,,110,2023-04-04_15h14.14.720,FishGame,2022.1.1,59.82378306692553,
,4,넌 능숙해,2,Orange,B,5.666666666666667,4.733333333333333,ScrollUp,ScrollDown,Orange.png,2,Positive,Incongruent,,,,,0,0,0,0,,,,,,,,,,,,,,,,,0,3,3,3,,,,,,,,,,,,,,,,,,,,,,,,,,,,,,,,,,,,,,,,,,,,,,,,,,,,,,,,,,,,,,,,,,,,,,,,,,,,,1.8811728457609813,0.9456891000154428,231.88426920003258,None,ScrollUp,정답입니다,231.88426920003258,None,231.88426920003258,None,231.88426920003258,None,231.88426920003258,None,232.72662370000035,None,232.72662370000035,233.2266117000254,,,,,,,,,,,,,,,,110,2023-04-04_15h14.14.720,FishGame,2022.1.1,59.82378306692553,
,5,넌 진부해,4,Orange,B,2.458333333333333,3.166666666666667,ScrollUp,ScrollDown,Orange.png,2,Negative,Congruent,,,,,0,0,0,0,,,,,,,,,,,,,,,,,0,4,4,4,,,,,,,,,,,,,,,,,,,,,,,,,,,,,,,,,,,,,,,,,,,,,,,,,,,,,,,,,,,,,,,,,,,,,,,,,,,,,1.9459876318772633,1.0817360999644734,233.8490557000041,None,ScrollUp,정답입니다,233.8490557000041,None,233.8490557000041,None,233.8490557000041,None,233.8490557000041,None,234.8290783999837,None,234.8290783999837,235.32901729998412,,,,,,,,,,,,,,,,110,2023-04-04_15h14.14.720,FishGame,2022.1.1,59.82378306692553,
,6,나를 보내줘,6,Green,A,0,0,ScrollUp,ScrollDown,Green.png,2,NonTarget,NonTarget,,,,,0,0,0,0,,,,,,,,,,,,,,,,,0,5,5,5,,,,,,,,,,,,,,,,,,,,,,,,,,,,,,,,,,,,,,,,,,,,,,,,,,,,,,,,,,,,,,,,,,,,,,,,,,,,,1.9953703780968983,1.2290240000002086,235.9480532000307,None,ScrollUp,정답입니다,235.9480532000307,None,235.9480532000307,None,235.9480532000307,None,235.9480532000307,None,237.0769609999843,None,237.0769609999843,237.57651099999202,,,,,,,,,,,,,,,,110,2023-04-04_15h14.14.720,FishGame,2022.1.1,59.82378306692553,
,7,넌 엄격해,3,Green,A,4.166666666666666,4.1,ScrollDown,ScrollUp,Green.png,2,Neutral,Neutral,,,,,0,0,0,0,,,,,,,,,,,,,,,,,0,6,6,6,,,,,,,,,,,,,,,,,,,,,,,,,,,,,,,,,,,,,,,,,,,,,,,,,,,,,,,,,,,,,,,,,,,,,,,,,,,,,1,0.9816469000070356,238.20082710002316,None,ScrollDown,정답입니다,238.20082710002316,None,238.20082710002316,None,238.20082710002316,None,238.20082710002316,None,239.07653369999025,None,239.07653369999025,239.57890510000288,,,,,,,,,,,,,,,,110,2023-04-04_15h14.14.720,FishGame,2022.1.1,59.82378306692553,
,8,나를 보내줘,6,Green,A,0,0,ScrollUp,ScrollDown,Green.png,2,NonTarget,NonTarget,,,,,0,0,0,0,,,,,,,,,,,,,,,,,0,7,7,7,,,,,,,,,,,,,,,,,,,,,,,,,,,,,,,,,,,,,,,,,,,,,,,,,,,,,,,,,,,,,,,,,,,,,,,,,,,,,1.817901223897934,1.1485839000088163,240.1984383999952,None,ScrollUp,정답입니다,240.1984383999952,None,240.1984383999952,None,240.1984383999952,None,240.1984383999952,None,241.24575629999163,None,241.24575629999163,241.74862860003486,,,,,,,,,,,,,,,,110,2023-04-04_15h14.14.720,FishGame,2022.1.1,59.82378306692553,
,9,넌 대담해,3,Orange,B,4.875,4.866666666666666,ScrollUp,ScrollDown,Orange.png,2,Neutral,Neutral,,,,,0,0,0,0,,,,,,,,,,,,,,,,,0,8,8,8,,,,,,,,,,,,,,,,,,,,,,,,,,,,,,,,,,,,,,,,,,,,,,,,,,,,,,,,,,,,,,,,,,,,,,,,,,,,,1.71913580596447,1.2965500999707729,242.38087759999325,None,ScrollUp,정답입니다,242.38087759999325,None,242.38087759999325,None,242.38087759999325,None,242.38087759999325,None,243.5621049000183,None,243.5621049000183,244.0620704999892,,,,,,,,,,,,,,,,110,2023-04-04_15h14.14.720,FishGame,2022.1.1,59.82378306692553,
,10,넌 꾸준해,1,Green,A,5.916666666666668,5.8,ScrollDown,ScrollUp,Green.png,2,Positive,Congruent,,,,,0,0,0,0,,,,,,,,,,,,,,,,,0,9,9,9,,,,,,,,,,,,,,,,,,,,,,,,,,,,,,,,,,,,,,,,,,,,,,,,,,,,,,,,,,,,,,,,,,,,,,,,,,,,,1,0.8650135000352748,244.68461799999932,None,ScrollDown,정답입니다,244.68461799999932,None,244.68461799999932,None,244.68461799999932,None,244.68461799999932,None,245.4432660000166,None,245.4432660000166,245.94527169998037,,,,,,,,,,,,,,,,110,2023-04-04_15h14.14.720,FishGame,2022.1.1,59.82378306692553,
,11,나를 데려가줘,6,Orange,B,0,0,ScrollDown,ScrollUp,Orange.png,2,NonTarget,NonTarget,,,,,0,0,0,0,,,,,,,,,,,,,,,,,0,10,10,10,,,,,,,,,,,,,,,,,,,,,,,,,,,,,,,,,,,,,,,,,,,,,,,,,,,,,,,,,,,,,,,,,,,,,,,,,,,,,1.180555562178294,1.2984550999826752,246.56694639998022,None,ScrollDown,정답입니다,246.56694639998022,None,246.56694639998022,None,246.56694639998022,None,246.56694639998022,None,247.7599532000022,None,247.7599532000022,248.26193819998298,,,,,,,,,,,,,,,,110,2023-04-04_15h14.14.720,FishGame,2022.1.1,59.82378306692553,
,12,넌 독선적이야,5,Green,A,2.458333333333333,1.933333333333333,ScrollDown,ScrollUp,Green.png,2,Negative,Incongruent,,,,,0,0,0,0,,,,,,,,,,,,,,,,,0,11,11,11,,,,,,,,,,,,,,,,,,,,,,,,,,,,,,,,,,,,,,,,,,,,,,,,,,,,,,,,,,,,,,,,,,,,,,,,,,,,,1,0.9150445000268519,248.8907682999852,None,ScrollDown,정답입니다,248.8907682999852,None,248.8907682999852,None,248.8907682999852,None,248.8907682999852,None,249.6952437,None,249.6952437,250.19517960003577,,,,,,,,,,,,,,,,110,2023-04-04_15h14.14.720,FishGame,2022.1.1,59.82378306692553,
,13,나를 보내줘,6,Green,A,0,0,ScrollUp,ScrollDown,Green.png,2,NonTarget,NonTarget,,,,,0,0,0,0,,,,,,,,,,,,,,,,,0,12,12,12,,,,,,,,,,,,,,,,,,,,,,,,,,,,,,,,,,,,,,,,,,,,,,,,,,,,,,,,,,,,,,,,,,,,,,,,,,,,,2,1.081729700032156,250.81430389999878,None,ScrollUp,정답입니다,250.81430389999878,None,250.81430389999878,None,250.81430389999878,None,250.81430389999878,None,251.79529710003408,None,251.79529710003408,252.29518640000606,,,,,,,,,,,,,,,,110,2023-04-04_15h14.14.720,FishGame,2022.1.1,59.82378306692553,
,14,넌 책임감있어,1,Orange,B,6.347826086956522,6,ScrollUp,ScrollDown,Orange.png,2,Positive,Incongruent,,,,,0,0,0,0,,,,,,,,,,,,,,,,,0,13,13,13,,,,,,,,,,,,,,,,,,,,,,,,,,,,,,,,,,,,,,,,,,,,,,,,,,,,,,,,,,,,,,,,,,,,,,,,,,,,,1.1234567960103352,0.9483640000107698,252.92522069998085,None,ScrollDown,오답입니다,252.92522069998085,None,252.92522069998085,None,252.92522069998085,None,252.92522069998085,None,253.75975540000945,None,253.75975540000945,254.26179590000538,,,,,,,,,,,,,,,,110,2023-04-04_15h14.14.720,FishGame,2022.1.1,59.82378306692553,
,15,넌 문학적이야,3,Green,A,4.708333333333334,4.333333333333333,ScrollDown,ScrollUp,Green.png,2,Neutral,Neutral,,,,,0,0,0,0,,,,,,,,,,,,,,,,,0,14,14,14,,,,,,,,,,,,,,,,,,,,,,,,,,,,,,,,,,,,,,,,,,,,,,,,,,,,,,,,,,,,,,,,,,,,,,,,,,,,,1.1543209999799728,1.0652500999858603,254.88534320000326,None,ScrollDown,정답입니다,254.88534320000326,None,254.88534320000326,None,254.88534320000326,None,254.88534320000326,None,255.8452139000292,None,255.8452139000292,256.3451050000149,,,,,,,,,,,,,,,,110,2023-04-04_15h14.14.720,FishGame,2022.1.1,59.82378306692553,
,16,넌 재미있어,1,Orange,B,5.875,5.7,ScrollUp,ScrollDown,Orange.png,2,Positive,Incongruent,,,,,0,0,0,0,,,,,,,,,,,,,,,,,0,15,15,15,,,,,,,,,,,,,,,,,,,,,,,,,,,,,,,,,,,,,,,,,,,,,,,,,,,,,,,,,,,,,,,,,,,,,,,,,,,,,2,0.8952201000065543,256.9693640000187,None,ScrollUp,정답입니다,256.9693640000187,None,256.9693640000187,None,256.9693640000187,None,256.9693640000187,None,257.7617874999996,None,257.7617874999996,258.2617156000342,,,,,,,,,,,,,,,,110,2023-04-04_15h14.14.720,FishGame,2022.1.1,59.82378306692553,
,17,나를 데려가줘,6,Orange,B,0,0,ScrollDown,ScrollUp,Orange.png,2,NonTarget,NonTarget,,,,,0,0,0,0,,,,,,,,,,,,,,,,,0,16,16,16,,,,,,,,,,,,,,,,,,,,,,,,,,,,,,,,,,,,,,,,,,,,,,,,,,,,,,,,,,,,,,,,,,,,,,,,,,,,,1.2577160596847534,0.9149012000416405,258.8843637999962,None,ScrollDown,정답입니다,258.8843637999962,None,258.8843637999962,None,258.8843637999962,None,258.8843637999962,None,259.6949712000205,None,259.6949712000205,260.19496180000715,,,,,,,,,,,,,,,,110,2023-04-04_15h14.14.720,FishGame,2022.1.1,59.82378306692553,
,18,넌 협력적이야,1,Green,A,5.625,5.633333333333334,ScrollDown,ScrollUp,Green.png,2,Positive,Congruent,,,,,0,0,0,0,,,,,,,,,,,,,,,,,0,17,17,17,,,,,,,,,,,,,,,,,,,,,,,,,,,,,,,,,,,,,,,,,,,,,,,,,,,,,,,,,,,,,,,,,,,,,,,,,,,,,1.1450617164373398,0.9127610999858007,260.8157389999833,None,ScrollDown,정답입니다,260.8157389999833,None,260.8157389999833,None,260.8157389999833,None,260.8157389999833,None,261.62826969998423,None,261.62826969998423,262.1283050000202,,,,,,,,,,,,,,,,110,2023-04-04_15h14.14.720,FishGame,2022.1.1,59.82378306692553,
,19,넌 평범해,3,Orange,B,4.333333333333332,4.233333333333333,ScrollUp,ScrollDown,Orange.png,2,Neutral,Neutral,,,,,0,0,0,0,,,,,,,,,,,,,,,,,0,18,18,18,,,,,,,,,,,,,,,,,,,,,,,,,,,,,,,,,,,,,,,,,,,,,,,,,,,,,,,,,,,,,,,,,,,,,,,,,,,,,1.9521604875723522,0.9147461999673396,262.74940560001414,None,ScrollUp,정답입니다,262.74940560001414,None,262.74940560001414,None,262.74940560001414,None,262.74940560001414,None,263.5616604000097,None,263.5616604000097,264.0616480000317,,,,,,,,,,,,,,,,110,2023-04-04_15h14.14.720,FishGame,2022.1.1,59.82378306692553,
,20,넌 오만해,5,Green,A,2.333333333333333,2,ScrollDown,ScrollUp,Green.png,2,Negative,Incongruent,,,,,0,0,0,0,,,,,,,,,,,,,,,,,0,19,19,19,,,,,,,,,,,,,,,,,,,,,,,,,,,,,,,,,,,,,,,,,,,,,,,,,,,,,,,,,,,,,,,,,,,,,,,,,,,,,1.0879629751046498,0.796497100032866,264.68280529999174,None,ScrollDown,정답입니다,264.68280529999174,None,264.68280529999174,None,264.68280529999174,None,264.68280529999174,None,265.37624329997925,None,265.37624329997925,265.87814650003565,,,,,,,,,,,,,,,,110,2023-04-04_15h14.14.720,FishGame,2022.1.1,59.82378306692553,
,21,넌 운이없어,4,Orange,B,3,3.466666666666667,ScrollUp,ScrollDown,Orange.png,2,Negative,Congruent,,,,,0,0,0,0,,,,,,,,,,,,,,,,,0,20,20,20,,,,,,,,,,,,,,,,,,,,,,,,,,,,,,,,,,,,,,,,,,,,,,,,,,,,,,,,,,,,,,,,,,,,,,,,,,,,,1.8271604826052983,0.8153499999898486,266.50259129999904,None,ScrollUp,정답입니다,266.50259129999904,None,266.50259129999904,None,266.50259129999904,None,266.50259129999904,None,267.20947559998604,None,267.20947559998604,267.71147939999355,,,,,,,,,,,,,,,,110,2023-04-04_15h14.14.720,FishGame,2022.1.1,59.82378306692553,
,22,넌 창조적이야,2,Orange,B,6.125,4.633333333333334,ScrollUp,ScrollDown,Orange.png,2,Positive,Incongruent,,,,,0,0,0,0,,,,,,,,,,,,,,,,,0,21,21,21,,,,,,,,,,,,,,,,,,,,,,,,,,,,,,,,,,,,,,,,,,,,,,,,,,,,,,,,,,,,,,,,,,,,,,,,,,,,,1.7422839403152466,0.8959986999980174,268.3366420000093,None,ScrollUp,정답입니다,268.3366420000093,None,268.3366420000093,None,268.3366420000093,None,268.3366420000093,None,269.12608190003084,None,269.12608190003084,269.62820859998465,,,,,,,,,,,,,,,,110,2023-04-04_15h14.14.720,FishGame,2022.1.1,59.82378306692553,
,23,나를 보내줘,6,Green,A,0,0,ScrollUp,ScrollDown,Green.png,2,NonTarget,NonTarget,,,,,0,0,0,0,,,,,,,,,,,,,,,,,0,22,22,22,,,,,,,,,,,,,,,,,,,,,,,,,,,,,,,,,,,,,,,,,,,,,,,,,,,,,,,,,,,,,,,,,,,,,,,,,,,,,1.8626543283462524,1.0298605999560095,270.2445483999909,None,ScrollUp,정답입니다,270.2445483999909,None,270.2445483999909,None,270.2445483999909,None,270.2445483999909,None,271.17809210001724,None,271.17809210001724,271.6780156000168,,,,,,,,,,,,,,,,110,2023-04-04_15h14.14.720,FishGame,2022.1.1,59.82378306692553,
,24,넌 통찰력있어,2,Green,A,6.5,4.8,ScrollDown,ScrollUp,Green.png,2,Positive,Congruent,,,,,0,0,0,0,,,,,,,,,,,,,,,,,0,23,23,23,,,,,,,,,,,,,,,,,,,,,,,,,,,,,,,,,,,,,,,,,,,,,,,,,,,,,,,,,,,,,,,,,,,,,,,,,,,,,1.115740751226743,0.9630672000348568,272.30586530000437,None,ScrollDown,정답입니다,272.30586530000437,None,272.30586530000437,None,272.30586530000437,None,272.30586530000437,None,273.16138689999934,None,273.16138689999934,273.6614199000178,,,,,,,,,,,,,,,,110,2023-04-04_15h14.14.720,FishGame,2022.1.1,59.82378306692553,
,25,넌 경솔해,5,Orange,B,2.458333333333333,2.266666666666667,ScrollUp,ScrollDown,Orange.png,2,Negative,Congruent,,,,,0,0,0,0,,,,,,,,,,,,,,,,,0,24,24,24,,,,,,,,,,,,,,,,,,,,,,,,,,,,,,,,,,,,,,,,,,,,,,,,,,,,,,,,,,,,,,,,,,,,,,,,,,,,,1.7561728407939274,0.7798113999888301,274.2915746999788,None,ScrollUp,정답입니다,274.2915746999788,None,274.2915746999788,None,274.2915746999788,None,274.2915746999788,None,274.961375200015,None,274.961375200015,275.46130860003177,,,,,,,,,,,,,,,,110,2023-04-04_15h14.14.720,FishGame,2022.1.1,59.82378306692553,
,26,넌 초조해,4,Green,A,2.916666666666667,3.133333333333333,ScrollDown,ScrollUp,Green.png,2,Negative,Incongruent,,,,,0,0,0,0,,,,,,,,,,,,,,,,,0,25,25,25,,,,,,,,,,,,,,,,,,,,,,,,,,,,,,,,,,,,,,,,,,,,,,,,,,,,,,,,,,,,,,,,,,,,,,,,,,,,,1.1975308656692505,0.7149992999620736,276.082273899985,None,ScrollDown,정답입니다,276.082273899985,None,276.082273899985,None,276.082273899985,None,276.082273899985,None,276.69264590000967,None,276.69264590000967,277.1946665000287,,,,,,,,,,,,,,,,110,2023-04-04_15h14.14.720,FishGame,2022.1.1,59.82378306692553,
,27,넌 무관심해,4,Orange,B,2.833333333333333,2.9,ScrollUp,ScrollDown,Orange.png,2,Negative,Congruent,,,,,0,0,0,0,,,,,,,,,,,,,,,,,0,26,26,26,,,,,,,,,,,,,,,,,,,,,,,,,,,,,,,,,,,,,,,,,,,,,,,,,,,,,,,,,,,,,,,,,,,,,,,,,,,,,1.703703703979651,0.7796344999806024,277.8163776000147,None,ScrollUp,정답입니다,277.8163776000147,None,277.8163776000147,None,277.8163776000147,None,277.8163776000147,None,278.4945903000189,None,278.4945903000189,278.9945480999886,,,,,,,,,,,,,,,,110,2023-04-04_15h14.14.720,FishGame,2022.1.1,59.82378306692553,
,28,넌 감성적이야,3,Orange,B,4.125,4.166666666666667,ScrollUp,ScrollDown,Orange.png,2,Neutral,Neutral,,,,,0,0,0,0,,,,,,,,,,,,,,,,,0,27,27,27,,,,,,,,,,,,,,,,,,,,,,,,,,,,,,,,,,,,,,,,,,,,,,,,,,,,,,,,,,,,,,,,,,,,,,,,,,,,,1.7407407512267432,0.7482068999670446,279.61645570001565,None,ScrollUp,정답입니다,279.61645570001565,None,279.61645570001565,None,279.61645570001565,None,279.61645570001565,None,280.26133290003054,None,280.26133290003054,280.76122650003526,,,,,,,,,,,,,,,,110,2023-04-04_15h14.14.720,FishGame,2022.1.1,59.82378306692553,
,29,넌 배려심있어,1,Green,A,6.083333333333333,5.5,ScrollDown,ScrollUp,Green.png,2,Positive,Congruent,,,,,0,0,0,0,,,,,,,,,,,,,,,,,0,28,28,28,,,,,,,,,,,,,,,,,,,,,,,,,,,,,,,,,,,,,,,,,,,,,,,,,,,,,,,,,,,,,,,,,,,,,,,,,,,,,1.2021604826052983,0.7650742999976501,281.3839243000257,None,ScrollDown,정답입니다,281.3839243000257,None,281.3839243000257,None,281.3839243000257,None,281.3839243000257,None,282.0445752000087,None,282.0445752000087,282.5478651000303,,,,,,,,,,,,,,,,110,2023-04-04_15h14.14.720,FishGame,2022.1.1,59.82378306692553,
,30,넌 숨김없어,3,Green,A,4.5,4.933333333333334,ScrollDown,ScrollUp,Green.png,2,Neutral,Neutral,,,,,0,0,0,0,,,,,,,,,,,,,,,,,0,29,29,29,,,,,,,,,,,,,,,,,,,,,,,,,,,,,,,,,,,,,,,,,,,,,,,,,,,,,,,,,,,,,,,,,,,,,,,,,,,,,1.1342592686414719,0.7465949999750592,283.1657942000311,None,ScrollDown,정답입니다,283.1657942000311,None,283.1657942000311,None,283.1657942000311,None,283.1657942000311,None,283.8091215000022,None,283.8091215000022,284.31107759999577,,,,,,,,,,,,,,,,110,2023-04-04_15h14.14.720,FishGame,2022.1.1,59.82378306692553,
,31,넌 훌륭해,2,Orange,B,5.916666666666667,4.033333333333333,ScrollUp,ScrollDown,Orange.png,2,Positive,Incongruent,,,,,0,0,0,0,,,,,,,,,,,,,,,,,0,30,30,30,,,,,,,,,,,,,,,,,,,,,,,,,,,,,,,,,,,,,,,,,,,,,,,,,,,,,,,,,,,,,,,,,,,,,,,,,,,,,1.8040123482545216,0.6985354999778792,284.9334537999821,None,ScrollUp,정답입니다,284.9334537999821,None,284.9334537999821,None,284.9334537999821,None,284.9334537999821,None,285.5277590000187,None,285.5277590000187,286.0277663000161,,,,,,,,,,,,,,,,110,2023-04-04_15h14.14.720,FishGame,2022.1.1,59.82378306692553,
,32,넌 슬기로워,2,Green,A,6.166666666666667,4.1,ScrollDown,ScrollUp,Green.png,2,Positive,Congruent,,,,,0,0,0,0,,,,,,,,,,,,,,,,,0,31,31,31,,,,,,,,,,,,,,,,,,,,,,,,,,,,,,,,,,,,,,,,,,,,,,,,,,,,,,,,,,,,,,,,,,,,,,,,,,,,,1.1635802586873372,0.6631287999916822,286.64948289998574,None,ScrollDown,정답입니다,286.64948289998574,None,286.64948289998574,None,286.64948289998574,None,286.64948289998574,None,287.2110951000359,None,287.2110951000359,287.711033300031,,,,,,,,,,,,,,,,110,2023-04-04_15h14.14.720,FishGame,2022.1.1,59.82378306692553,
,33,넌 냉혹해,5,Green,A,2.583333333333333,2.1,ScrollDown,ScrollUp,Green.png,2,Negative,Incongruent,,,,,0,0,0,0,,,,,,,,,,,,,,,,,0,32,32,32,,,,,,,,,,,,,,,,,,,,,,,,,,,,,,,,,,,,,,,,,,,,,,,,,,,,,,,,,,,,,,,,,,,,,,,,,,,,,1.3271604999899864,0.7632340000127442,288.33384350000415,None,ScrollDown,정답입니다,288.33384350000415,None,288.33384350000415,None,288.33384350000415,None,288.33384350000415,None,288.9943731999956,None,288.9943731999956,289.49433070002124,,,,,,,,,,,,,,,,110,2023-04-04_15h14.14.720,FishGame,2022.1.1,59.82378306692553,
,34,나를 데려가줘,6,Orange,B,0,0,ScrollDown,ScrollUp,Orange.png,2,NonTarget,NonTarget,,,,,0,0,0,0,,,,,,,,,,,,,,,,,0,33,33,33,,,,,,,,,,,,,,,,,,,,,,,,,,,,,,,,,,,,,,,,,,,,,,,,,,,,,,,,,,,,,,,,,,,,,,,,,,,,,1.3425925895571709,1.0818304000422359,290.11479880003026,None,ScrollDown,정답입니다,290.11479880003026,None,290.11479880003026,None,290.11479880003026,None,290.11479880003026,None,291.0923371000099,None,291.0923371000099,291.59433250001166,,,,,,,,,,,,,,,,110,2023-04-04_15h14.14.720,FishGame,2022.1.1,59.82378306692553,
,35,넌 편파적이야,5,Orange,B,2.125,2,ScrollUp,ScrollDown,Orange.png,2,Negative,Congruent,,,,,0,0,0,0,,,,,,,,,,,,,,,,,0,34,34,34,,,,,,,,,,,,,,,,,,,,,,,,,,,,,,,,,,,,,,,,,,,,,,,,,,,,,,,,,,,,,,,,,,,,,,,,,,,,,1.6388888930281005,1.063054199970793,292.2156652000267,None,ScrollUp,정답입니다,292.2156652000267,None,292.2156652000267,None,292.2156652000267,None,292.2156652000267,None,293.17761030001566,None,293.17761030001566,293.67754150001565,,,,,,,,,,,,,,,,110,2023-04-04_15h14.14.720,FishGame,2022.1.1,59.82378306692553,
,36,넌 슬퍼,4,Green,A,2.583333333333333,3.066666666666667,ScrollDown,ScrollUp,Green.png,2,Negative,Incongruent,,,,,0,0,0,0,,,,,,,,,,,,,,,,,0,35,35,35,,,,,,,,,,,,,,,,,,,,,,,,,,,,,,,,,,,,,,,,,,,,,,,,,,,,,,,,,,,,,,,,,,,,,,,,,,,,,1.2114197413126628,0.8129003999638371,294.29618800000753,None,ScrollDown,정답입니다,294.29618800000753,None,294.29618800000753,None,294.29618800000753,None,294.29618800000753,None,295.01094840001315,None,295.01094840001315,295.5109453999903,,,,,,,,,,,,,,,,110,2023-04-04_15h14.14.720,FishGame,2022.1.1,59.82378306692553,
,37,나를 데려가줘,6,Orange,B,0,0,ScrollDown,ScrollUp,Orange.png,2,NonTarget,NonTarget,,,,,0,0,0,0,,,,,,,,,,,,,,,,,0,36,36,36,,,,,,,,,,,,,,,,,,,,,,,,,,,,,,,,,,,,,,,,,,,,,,,,,,,,,,,,,,,,,,,,,,,,,,,,,,,,,1.1697530895471573,1.2128178999992087,296.1326994000119,None,ScrollDown,정답입니다,296.1326994000119,None,296.1326994000119,None,296.1326994000119,None,296.1326994000119,None,297.2419011000311,None,297.2419011000311,297.74186970002484,,,,,,,,,,,,,,,,110,2023-04-04_15h14.14.720,FishGame,2022.1.1,59.82378306692553,
,38,넌 친절해,1,Orange,B,6.041666666666667,5.533333333333333,ScrollUp,ScrollDown,Orange.png,2,Positive,Incongruent,,,,,0,0,0,0,,,,,,,,,,,,,,,,,0,37,37,37,,,,,,,,,,,,,,,,,,,,,,,,,,,,,,,,,,,,,,,,,,,,,,,,,,,,,,,,,,,,,,,,,,,,,,,,,,,,,1.0246913532416027,0.8308697000029497,298.36492530000396,None,ScrollDown,오답입니다,298.36492530000396,None,298.36492530000396,None,298.36492530000396,None,298.36492530000396,None,299.0919430999784,None,299.0919430999784,299.5943034000229,,,,,,,,,,,,,,,,110,2023-04-04_15h14.14.720,FishGame,2022.1.1,59.82378306692553,
,1,넌 엉성해,4,Green,A,3,3.3,ScrollDown,ScrollUp,Green.png,3,Negative,Incongruent,,,,,0,0,0,0,,,,,,,,,,,,,,,,,,,,,0,0,0,0,,,,,,,,,,,,,,,,,,,,,,,,,,,,,,,,331.0934538000147,332.5936219000141,332.627035100013,333.5769336000085,333.6269195000059,334.57689050002955,334.57689050002955,None,,,,,,,,,,,,,,,,,,,,,,,,,,,,,,,,,,1.180555562178294,1.0391681999899447,335.6746492999955,None,ScrollDown,정답입니다,335.6746492999955,None,335.6746492999955,None,335.6746492999955,None,335.6746492999955,None,336.60803080000915,None,336.60803080000915,337.1132676000125,300.09429680003086,None,300.09429680003086,None,0.23055555,-0.09259259,1,0,0,0.016339930007234216,None,330.11000689998036,None,,,110,2023-04-04_15h14.14.720,FishGame,2022.1.1,59.82378306692553,
,2,나를 보내줘,6,Green,A,0,0,ScrollUp,ScrollDown,Green.png,3,NonTarget,NonTarget,,,,,0,0,0,0,,,,,,,,,,,,,,,,,,,,,0,1,1,1,,,,,,,,,,,,,,,,,,,,,,,,,,,,,,,,,,,,,,,,,,,,,,,,,,,,,,,,,,,,,,,,,,,,,,,,,1.8765432039896648,1.5649778000079095,337.7277016000007,None,ScrollUp,정답입니다,337.7277016000007,None,337.7277016000007,None,337.7277016000007,None,337.7277016000007,None,339.19336829998065,None,339.19336829998065,339.6932717000018,,,,,,,,,,,,,,,,110,2023-04-04_15h14.14.720,FishGame,2022.1.1,59.82378306692553,
,3,넌 활발해,1,Orange,B,5.666666666666667,5.6,ScrollUp,ScrollDown,Orange.png,3,Positive,Incongruent,,,,,0,0,0,0,,,,,,,,,,,,,,,,,,,,,0,2,2,2,,,,,,,,,,,,,,,,,,,,,,,,,,,,,,,,,,,,,,,,,,,,,,,,,,,,,,,,,,,,,,,,,,,,,,,,,1.8749999900658925,0.9818398999632336,340.3162126999814,None,ScrollUp,정답입니다,340.3162126999814,None,340.3162126999814,None,340.3162126999814,None,340.3162126999814,None,341.1933696999913,None,341.1933696999913,341.6932657000143,,,,,,,,,,,,,,,,110,2023-04-04_15h14.14.720,FishGame,2022.1.1,59.82378306692553,
,4,넌 논리적이야,2,Green,A,5.666666666666666,4.633333333333334,ScrollDown,ScrollUp,Green.png,3,Positive,Congruent,,,,,0,0,0,0,,,,,,,,,,,,,,,,,,,,,0,3,3,3,,,,,,,,,,,,,,,,,,,,,,,,,,,,,,,,,,,,,,,,,,,,,,,,,,,,,,,,,,,,,,,,,,,,,,,,,1.1033950646718342,0.9296112000010908,342.3135791000095,None,ScrollDown,정답입니다,342.3135791000095,None,342.3135791000095,None,342.3135791000095,None,342.3135791000095,None,343.14320880000014,None,343.14320880000014,343.643126400013,,,,,,,,,,,,,,,,110,2023-04-04_15h14.14.720,FishGame,2022.1.1,59.82378306692553,
,5,넌 과묵해,3,Green,A,3.875,4.4,ScrollDown,ScrollUp,Green.png,3,Neutral,Neutral,,,,,0,0,0,0,,,,,,,,,,,,,,,,,,,,,0,4,4,4,,,,,,,,,,,,,,,,,,,,,,,,,,,,,,,,,,,,,,,,,,,,,,,,,,,,,,,,,,,,,,,,,,,,,,,,,1.0524691541989644,0.8296657000319101,344.26293279998936,None,ScrollDown,정답입니다,344.26293279998936,None,344.26293279998936,None,344.26293279998936,None,344.26293279998936,None,344.9932056000107,None,344.9932056000107,345.493172699993,,,,,,,,,,,,,,,,110,2023-04-04_15h14.14.720,FishGame,2022.1.1,59.82378306692553,
,6,나를 데려가줘,6,Orange,B,0,0,ScrollDown,ScrollUp,Orange.png,3,NonTarget,NonTarget,,,,,0,0,0,0,,,,,,,,,,,,,,,,,,,,,0,5,5,5,,,,,,,,,,,,,,,,,,,,,,,,,,,,,,,,,,,,,,,,,,,,,,,,,,,,,,,,,,,,,,,,,,,,,,,,,1.408950614432494,1.1651366999722086,346.11147850001,None,ScrollDown,정답입니다,346.11147850001,None,346.11147850001,None,346.11147850001,None,346.11147850001,None,347.17985319998115,None,347.17985319998115,347.6930883000023,,,,,,,,,,,,,,,,110,2023-04-04_15h14.14.720,FishGame,2022.1.1,59.82378306692553,
,7,넌 미숙해,4,Orange,B,3,3,ScrollUp,ScrollDown,Orange.png,3,Negative,Congruent,,,,,0,0,0,0,,,,,,,,,,,,,,,,,,,,,0,6,6,6,,,,,,,,,,,,,,,,,,,,,,,,,,,,,,,,,,,,,,,,,,,,,,,,,,,,,,,,,,,,,,,,,,,,,,,,,1.9367283980051677,1.4631267000222579,348.3097216000315,None,ScrollUp,정답입니다,348.3097216000315,None,348.3097216000315,None,348.3097216000315,None,348.3097216000315,None,349.6764285999816,None,349.6764285999816,350.1764043000294,,,,,,,,,,,,,,,,110,2023-04-04_15h14.14.720,FishGame,2022.1.1,59.82378306692553,
,8,나를 보내줘,6,Green,A,0,0,ScrollUp,ScrollDown,Green.png,3,NonTarget,NonTarget,,,,,0,0,0,0,,,,,,,,,,,,,,,,,,,,,0,7,7,7,,,,,,,,,,,,,,,,,,,,,,,,,,,,,,,,,,,,,,,,,,,,,,,,,,,,,,,,,,,,,,,,,,,,,,,,,1.8348765522241592,1.148399800003972,350.79336940002395,None,ScrollUp,정답입니다,350.79336940002395,None,350.79336940002395,None,350.79336940002395,None,350.79336940002395,None,351.8430293999845,None,351.8430293999845,352.3430464999983,,,,,,,,,,,,,,,,110,2023-04-04_15h14.14.720,FishGame,2022.1.1,59.82378306692553,
,9,넌 자신만만해,3,Orange,B,4.833333333333334,4.333333333333333,ScrollUp,ScrollDown,Orange.png,3,Neutral,Neutral,,,,,0,0,0,0,,,,,,,,,,,,,,,,,,,,,0,8,8,8,,,,,,,,,,,,,,,,,,,,,,,,,,,,,,,,,,,,,,,,,,,,,,,,,,,,,,,,,,,,,,,,,,,,,,,,,1.8657407313585281,1.3815991000155918,352.96131869999226,None,ScrollUp,정답입니다,352.96131869999226,None,352.96131869999226,None,352.96131869999226,None,352.96131869999226,None,354.24090929998783,None,354.24090929998783,354.7428923000116,,,,,,,,,,,,,,,,110,2023-04-04_15h14.14.720,FishGame,2022.1.1,59.82378306692553,
,10,넌 탐욕스러워,5,Green,A,2.25,2.1,ScrollDown,ScrollUp,Green.png,3,Negative,Incongruent,,,,,0,0,0,0,,,,,,,,,,,,,,,,,,,,,0,9,9,9,,,,,,,,,,,,,,,,,,,,,,,,,,,,,,,,,,,,,,,,,,,,,,,,,,,,,,,,,,,,,,,,,,,,,,,,,1.1990740795930226,0.9147465000278316,355.3621372000198,None,ScrollDown,정답입니다,355.3621372000198,None,355.3621372000198,None,355.3621372000198,None,355.3621372000198,None,356.1742422999814,None,356.1742422999814,356.6762667000294,,,,,,,,,,,,,,,,110,2023-04-04_15h14.14.720,FishGame,2022.1.1,59.82378306692553,
,11,넌 인기있어,2,Green,A,5.458333333333333,4.5,ScrollDown,ScrollUp,Green.png,3,Positive,Congruent,,,,,0,0,0,0,,,,,,,,,,,,,,,,,,,,,0,10,10,10,,,,,,,,,,,,,,,,,,,,,,,,,,,,,,,,,,,,,,,,,,,,,,,,,,,,,,,,,,,,,,,,,,,,,,,,,1.0771604776382446,0.76487840001937,357.2971676000161,None,ScrollDown,정답입니다,357.2971676000161,None,357.2971676000161,None,357.2971676000161,None,357.2971676000161,None,357.95956560003106,None,357.95956560003106,358.459512899979,,,,,,,,,,,,,,,,110,2023-04-04_15h14.14.720,FishGame,2022.1.1,59.82378306692553,
,12,나를 데려가줘,6,Orange,B,0,0,ScrollDown,ScrollUp,Orange.png,3,NonTarget,NonTarget,,,,,0,0,0,0,,,,,,,,,,,,,,,,,,,,,0,11,11,11,,,,,,,,,,,,,,,,,,,,,,,,,,,,,,,,,,,,,,,,,,,,,,,,,,,,,,,,,,,,,,,,,,,,,,,,,1.1527777860562007,1.3984220999991521,359.0791081000352,None,ScrollDown,정답입니다,359.0791081000352,None,359.0791081000352,None,359.0791081000352,None,359.0791081000352,None,360.37618790002307,None,360.37618790002307,360.8761849000002,,,,,,,,,,,,,,,,110,2023-04-04_15h14.14.720,FishGame,2022.1.1,59.82378306692553,
,13,넌 뛰어나,2,Orange,B,6.166666666666667,4,ScrollUp,ScrollDown,Orange.png,3,Positive,Incongruent,,,,,0,0,0,0,,,,,,,,,,,,,,,,,,,,,0,12,12,12,,,,,,,,,,,,,,,,,,,,,,,,,,,,,,,,,,,,,,,,,,,,,,,,,,,,,,,,,,,,,,,,,,,,,,,,,1.8209876517454784,1.0796924000023864,361.5139079000219,None,ScrollUp,정답입니다,361.5139079000219,None,361.5139079000219,None,361.5139079000219,None,361.5139079000219,None,362.4740696999943,None,362.4740696999943,362.9760496999952,,,,,,,,,,,,,,,,110,2023-04-04_15h14.14.720,FishGame,2022.1.1,59.82378306692553,
,14,넌 낙관적이야,1,Green,A,5.75,5.8,ScrollDown,ScrollUp,Green.png,3,Positive,Congruent,,,,,0,0,0,0,,,,,,,,,,,,,,,,,,,,,0,13,13,13,,,,,,,,,,,,,,,,,,,,,,,,,,,,,,,,,,,,,,,,,,,,,,,,,,,,,,,,,,,,,,,,,,,,,,,,,1.200617293516795,0.9796861999784596,363.5968758999952,None,ScrollDown,정답입니다,363.5968758999952,None,363.5968758999952,None,363.5968758999952,None,363.5968758999952,None,364.4739127000212,None,364.4739127000212,364.9760705999797,,,,,,,,,,,,,,,,110,2023-04-04_15h14.14.720,FishGame,2022.1.1,59.82378306692553,
,15,넌 산만해,4,Orange,B,2.695652173913043,3.033333333333333,ScrollUp,ScrollDown,Orange.png,3,Negative,Congruent,,,,,0,0,0,0,,,,,,,,,,,,,,,,,,,,,0,14,14,14,,,,,,,,,,,,,,,,,,,,,,,,,,,,,,,,,,,,,,,,,,,,,,,,,,,,,,,,,,,,,,,,,,,,,,,,,1.6450617238879204,0.9296081999782473,365.59890530002303,None,ScrollUp,정답입니다,365.59890530002303,None,365.59890530002303,None,365.59890530002303,None,365.59890530002303,None,366.4260551999905,None,366.4260551999905,366.9259378000279,,,,,,,,,,,,,,,,110,2023-04-04_15h14.14.720,FishGame,2022.1.1,59.82378306692553,
,16,나를 보내줘,6,Green,A,0,0,ScrollUp,ScrollDown,Green.png,3,NonTarget,NonTarget,,,,,0,0,0,0,,,,,,,,,,,,,,,,,,,,,0,15,15,15,,,,,,,,,,,,,,,,,,,,,,,,,,,,,,,,,,,,,,,,,,,,,,,,,,,,,,,,,,,,,,,,,,,,,,,,,1.68364197264115,1.2462151999934576,367.5465244000079,None,ScrollUp,정답입니다,367.5465244000079,None,367.5465244000079,None,367.5465244000079,None,367.5465244000079,None,368.6927524000057,None,368.6927524000057,369.1926567000337,,,,,,,,,,,,,,,,110,2023-04-04_15h14.14.720,FishGame,2022.1.1,59.82378306692553,
,17,넌 교활해,5,Orange,B,2.333333333333333,2.133333333333333,ScrollUp,ScrollDown,Orange.png,3,Negative,Congruent,,,,,0,0,0,0,,,,,,,,,,,,,,,,,,,,,0,16,16,16,,,,,,,,,,,,,,,,,,,,,,,,,,,,,,,,,,,,,,,,,,,,,,,,,,,,,,,,,,,,,,,,,,,,,,,,,1.8271604826052983,0.9984127999632619,369.8157461999799,None,ScrollUp,정답입니다,369.8157461999799,None,369.8157461999799,None,369.8157461999799,None,369.8157461999799,None,370.70720579999033,None,370.70720579999033,371.2092014999944,,,,,,,,,,,,,,,,110,2023-04-04_15h14.14.720,FishGame,2022.1.1,59.82378306692553,
,18,나를 보내줘,6,Green,A,0,0,ScrollUp,ScrollDown,Green.png,3,NonTarget,NonTarget,,,,,0,0,0,0,,,,,,,,,,,,,,,,,,,,,0,17,17,17,,,,,,,,,,,,,,,,,,,,,,,,,,,,,,,,,,,,,,,,,,,,,,,,,,,,,,,,,,,,,,,,,,,,,,,,,1.765432099501292,1.0482847000239417,371.82664929999737,None,ScrollUp,정답입니다,371.82664929999737,None,371.82664929999737,None,371.82664929999737,None,371.82664929999737,None,372.7738783999812,None,372.7738783999812,373.2758949000272,,,,,,,,,,,,,,,,110,2023-04-04_15h14.14.720,FishGame,2022.1.1,59.82378306692553,
,19,넌 불친절해,5,Orange,B,2.208333333333333,2.033333333333333,ScrollUp,ScrollDown,Orange.png,3,Negative,Congruent,,,,,0,0,0,0,,,,,,,,,,,,,,,,,,,,,0,18,18,18,,,,,,,,,,,,,,,,,,,,,,,,,,,,,,,,,,,,,,,,,,,,,,,,,,,,,,,,,,,,,,,,,,,,,,,,,1.5972222226361432,0.9482523999758996,373.90960170002654,None,ScrollUp,정답입니다,373.90960170002654,None,373.90960170002654,None,373.90960170002654,None,373.90960170002654,None,374.74254880001536,None,374.74254880001536,375.2425458999933,,,,,,,,,,,,,,,,110,2023-04-04_15h14.14.720,FishGame,2022.1.1,59.82378306692553,
,20,넌 지적이야,2,Orange,B,5.75,4.366666666666666,ScrollUp,ScrollDown,Orange.png,3,Positive,Incongruent,,,,,0,0,0,0,,,,,,,,,,,,,,,,,,,,,0,19,19,19,,,,,,,,,,,,,,,,,,,,,,,,,,,,,,,,,,,,,,,,,,,,,,,,,,,,,,,,,,,,,,,,,,,,,,,,,1.5802469129363694,0.746112400025595,375.86194690002594,None,ScrollUp,정답입니다,375.86194690002594,None,375.86194690002594,None,375.86194690002594,None,375.86194690002594,None,376.5091405999847,None,376.5091405999847,377.00909880001564,,,,,,,,,,,,,,,,110,2023-04-04_15h14.14.720,FishGame,2022.1.1,59.82378306692553,
,21,넌 우유부단해,4,Green,A,2.666666666666667,3.166666666666667,ScrollDown,ScrollUp,Green.png,3,Negative,Incongruent,,,,,0,0,0,0,,,,,,,,,,,,,,,,,,,,,0,20,20,20,,,,,,,,,,,,,,,,,,,,,,,,,,,,,,,,,,,,,,,,,,,,,,,,,,,,,,,,,,,,,,,,,,,,,,,,,1.2083333383003871,1.7794365000445396,377.63000930001726,None,ScrollDown,정답입니다,377.63000930001726,None,377.63000930001726,None,377.63000930001726,None,377.63000930001726,None,379.3090716000297,None,379.3090716000297,379.8091021000291,,,,,,,,,,,,,,,,110,2023-04-04_15h14.14.720,FishGame,2022.1.1,59.82378306692553,
,22,나를 데려가줘,6,Orange,B,0,0,ScrollDown,ScrollUp,Orange.png,3,NonTarget,NonTarget,,,,,0,0,0,0,,,,,,,,,,,,,,,,,,,,,0,21,21,21,,,,,,,,,,,,,,,,,,,,,,,,,,,,,,,,,,,,,,,,,,,,,,,,,,,,,,,,,,,,,,,,,,,,,,,,,1.345679017404715,1.0296543999575078,380.43549010000424,None,ScrollDown,정답입니다,380.43549010000424,None,380.43549010000424,None,380.43549010000424,None,380.43549010000424,None,381.359023099998,None,381.359023099998,381.87563319999026,,,,,,,,,,,,,,,,110,2023-04-04_15h14.14.720,FishGame,2022.1.1,59.82378306692553,
,23,넌 성실해,1,Orange,B,6.041666666666666,5.7,ScrollUp,ScrollDown,Orange.png,3,Positive,Incongruent,,,,,0,0,0,0,,,,,,,,,,,,,,,,,,,,,0,22,22,22,,,,,,,,,,,,,,,,,,,,,,,,,,,,,,,,,,,,,,,,,,,,,,,,,,,,,,,,,,,,,,,,,,,,,,,,,1.7839506169160206,1.048260500014294,382.48220470000524,None,ScrollUp,정답입니다,382.48220470000524,None,382.48220470000524,None,382.48220470000524,None,382.48220470000524,None,383.42587300000014,None,383.42587300000014,383.92567010002676,,,,,,,,,,,,,,,,110,2023-04-04_15h14.14.720,FishGame,2022.1.1,59.82378306692553,
,24,넌 현실주의적이야,3,Green,A,4.625,4.4,ScrollDown,ScrollUp,Green.png,3,Neutral,Neutral,,,,,0,0,0,0,,,,,,,,,,,,,,,,,,,,,0,23,23,23,,,,,,,,,,,,,,,,,,,,,,,,,,,,,,,,,,,,,,,,,,,,,,,,,,,,,,,,,,,,,,,,,,,,,,,,,1.1141975373029709,0.9318175999796949,384.543178300024,None,ScrollDown,정답입니다,384.543178300024,None,384.543178300024,None,384.543178300024,None,384.543178300024,None,385.3757479999913,None,385.3757479999913,385.8755756000173,,,,,,,,,,,,,,,,110,2023-04-04_15h14.14.720,FishGame,2022.1.1,59.82378306692553,
,25,넌 진실돼,1,Green,A,6.625,5.566666666666666,ScrollDown,ScrollUp,Green.png,3,Positive,Congruent,,,,,0,0,0,0,,,,,,,,,,,,,,,,,,,,,0,24,24,24,,,,,,,,,,,,,,,,,,,,,,,,,,,,,,,,,,,,,,,,,,,,,,,,,,,,,,,,,,,,,,,,,,,,,,,,,1.1836419651905696,0.8462959000025876,386.4948468999937,None,ScrollDown,정답입니다,386.4948468999937,None,386.4948468999937,None,386.4948468999937,None,386.4948468999937,None,387.2422123000142,None,387.2422123000142,387.7422181000002,,,,,,,,,,,,,,,,110,2023-04-04_15h14.14.720,FishGame,2022.1.1,59.82378306692553,
,26,넌 천진난만해,3,Orange,B,4.958333333333334,4.833333333333333,ScrollUp,ScrollDown,Orange.png,3,Neutral,Neutral,,,,,0,0,0,0,,,,,,,,,,,,,,,,,,,,,0,25,25,25,,,,,,,,,,,,,,,,,,,,,,,,,,,,,,,,,,,,,,,,,,,,,,,,,,,,,,,,,,,,,,,,,,,,,,,,,1.6280864203969636,0.8461024999851361,388.36352920002537,None,ScrollUp,정답입니다,388.36352920002537,None,388.36352920002537,None,388.36352920002537,None,388.36352920002537,None,389.10898650001036,None,389.10898650001036,389.60888590000104,,,,,,,,,,,,,,,,110,2023-04-04_15h14.14.720,FishGame,2022.1.1,59.82378306692553,
,27,넌 교양없어,5,Green,A,2.416666666666667,2.2,ScrollDown,ScrollUp,Green.png,3,Negative,Incongruent,,,,,0,0,0,0,,,,,,,,,,,,,,,,,,,,,0,26,26,26,,,,,,,,,,,,,,,,,,,,,,,,,,,,,,,,,,,,,,,,,,,,,,,,,,,,,,,,,,,,,,,,,,,,,,,,,1.2268518557151158,0.8626172000076622,390.2278259000159,None,ScrollDown,정답입니다,390.2278259000159,None,390.2278259000159,None,390.2278259000159,None,390.2278259000159,None,390.9921312999795,None,390.9921312999795,391.49209369998425,,,,,,,,,,,,,,,,110,2023-04-04_15h14.14.720,FishGame,2022.1.1,59.82378306692553,
,28,나를 보내줘,6,Green,A,0,0,ScrollUp,ScrollDown,Green.png,3,NonTarget,NonTarget,,,,,0,0,0,0,,,,,,,,,,,,,,,,,,,,,0,27,27,27,,,,,,,,,,,,,,,,,,,,,,,,,,,,,,,,,,,,,,,,,,,,,,,,,,,,,,,,,,,,,,,,,,,,,,,,,1.5555555584530034,1.029248699953314,392.1097222000244,None,ScrollUp,정답입니다,392.1097222000244,None,392.1097222000244,None,392.1097222000244,None,392.1097222000244,None,393.04213160002837,None,393.04213160002837,393.5421110999887,,,,,,,,,,,,,,,,110,2023-04-04_15h14.14.720,FishGame,2022.1.1,59.82378306692553,
,29,넌 엉뚱스러워,3,Green,A,4.166666666666667,4.133333333333334,ScrollDown,ScrollUp,Green.png,3,Neutral,Neutral,,,,,0,0,0,0,,,,,,,,,,,,,,,,,,,,,0,28,28,28,,,,,,,,,,,,,,,,,,,,,,,,,,,,,,,,,,,,,,,,,,,,,,,,,,,,,,,,,,,,,,,,,,,,,,,,,1.766975313425064,0.846350200008601,394.1593906999915,None,ScrollUp,오답입니다,394.1593906999915,None,394.1593906999915,None,394.1593906999915,None,394.1593906999915,None,394.9087837000261,None,394.9087837000261,395.4087847000337,,,,,,,,,,,,,,,,110,2023-04-04_15h14.14.720,FishGame,2022.1.1,59.82378306692553,
,30,넌 무지해,4,Orange,B,2.541666666666667,3.066666666666667,ScrollUp,ScrollDown,Orange.png,3,Negative,Congruent,,,,,0,0,0,0,,,,,,,,,,,,,,,,,,,,,0,29,29,29,,,,,,,,,,,,,,,,,,,,,,,,,,,,,,,,,,,,,,,,,,,,,,,,,,,,,,,,,,,,,,,,,,,,,,,,,1.7407407512267432,0.911971400026232,396.02882850001333,None,ScrollUp,정답입니다,396.02882850001333,None,396.02882850001333,None,396.02882850001333,None,396.02882850001333,None,396.8420778000145,None,396.8420778000145,397.3419748999877,,,,,,,,,,,,,,,,110,2023-04-04_15h14.14.720,FishGame,2022.1.1,59.82378306692553,
,31,넌 음울해,5,Orange,B,2.25,2.233333333333333,ScrollUp,ScrollDown,Orange.png,3,Negative,Congruent,,,,,0,0,0,0,,,,,,,,,,,,,,,,,,,,,0,30,30,30,,,,,,,,,,,,,,,,,,,,,,,,,,,,,,,,,,,,,,,,,,,,,,,,,,,,,,,,,,,,,,,,,,,,,,,,,1.7731481442848842,0.8151421000366099,397.9644425000297,None,ScrollUp,정답입니다,397.9644425000297,None,397.9644425000297,None,397.9644425000297,None,397.9644425000297,None,398.67531510000117,None,398.67531510000117,399.1753717000247,,,,,,,,,,,,,,,,110,2023-04-04_15h14.14.720,FishGame,2022.1.1,59.82378306692553,
,32,넌 냉소적이야,5,Green,A,2.916666666666667,2.4,ScrollDown,ScrollUp,Green.png,3,Negative,Incongruent,,,,,0,0,0,0,,,,,,,,,,,,,,,,,,,,,0,31,31,31,,,,,,,,,,,,,,,,,,,,,,,,,,,,,,,,,,,,,,,,,,,,,,,,,,,,,,,,,,,,,,,,,,,,,,,,,1.2608024626970291,0.9317032000399195,399.7964993999922,None,ScrollDown,정답입니다,399.7964993999922,None,399.7964993999922,None,399.7964993999922,None,399.7964993999922,None,400.6252685000072,None,400.6252685000072,401.12524000002304,,,,,,,,,,,,,,,,110,2023-04-04_15h14.14.720,FishGame,2022.1.1,59.82378306692553,
,33,나를 데려가줘,6,Orange,B,0,0,ScrollDown,ScrollUp,Orange.png,3,NonTarget,NonTarget,,,,,0,0,0,0,,,,,,,,,,,,,,,,,,,,,0,32,32,32,,,,,,,,,,,,,,,,,,,,,,,,,,,,,,,,,,,,,,,,,,,,,,,,,,,,,,,,,,,,,,,,,,,,,,,,,1.5154320988804102,1.32974119996652,401.7439607999986,None,NoResponse,무응답입니다,401.7439607999986,None,401.7439607999986,None,401.7439607999986,None,401.7439607999986,None,402.97337309998693,None,402.97337309998693,403.47525140002836,,,,,,,,,,,,,,,,110,2023-04-04_15h14.14.720,FishGame,2022.1.1,59.82378306692553,
,34,넌 쾌활해,1,Green,A,5.541666666666666,5.733333333333333,ScrollDown,ScrollUp,Green.png,3,Positive,Congruent,,,,,0,0,0,0,,,,,,,,,,,,,,,,,,,,,0,33,33,33,,,,,,,,,,,,,,,,,,,,,,,,,,,,,,,,,,,,,,,,,,,,,,,,,,,,,,,,,,,,,,,,,,,,,,,,,1.1496913582086563,0.9963798999669962,404.091954500007,None,ScrollDown,정답입니다,404.091954500007,None,404.091954500007,None,404.091954500007,None,404.091954500007,None,404.992037500022,None,404.992037500022,405.49513090000255,,,,,,,,,,,,,,,,110,2023-04-04_15h14.14.720,FishGame,2022.1.1,59.82378306692553,
,35,나를 보내줘,6,Green,A,0,0,ScrollUp,ScrollDown,Green.png,3,NonTarget,NonTarget,,,,,0,0,0,0,,,,,,,,,,,,,,,,,,,,,0,34,34,34,,,,,,,,,,,,,,,,,,,,,,,,,,,,,,,,,,,,,,,,,,,,,,,,,,,,,,,,,,,,,,,,,,,,,,,,,1.6373456791043282,0.9649739000014961,406.10773580003297,None,ScrollUp,정답입니다,406.10773580003297,None,406.10773580003297,None,406.10773580003297,None,406.10773580003297,None,406.97306600003503,None,406.97306600003503,407.4751115000108,,,,,,,,,,,,,,,,110,2023-04-04_15h14.14.720,FishGame,2022.1.1,59.82378306692553,
,36,넌 명랑해,1,Orange,B,5.739130434782609,5.666666666666667,ScrollUp,ScrollDown,Orange.png,3,Positive,Incongruent,,,,,0,0,0,0,,,,,,,,,,,,,,,,,,,,,0,35,35,35,,,,,,,,,,,,,,,,,,,,,,,,,,,,,,,,,,,,,,,,,,,,,,,,,,,,,,,,,,,,,,,,,,,,,,,,,1.8086419651905696,1.2295560999773443,408.0961618000292,None,ScrollUp,정답입니다,408.0961618000292,None,408.0961618000292,None,408.0961618000292,None,408.0961618000292,None,409.2252304999856,None,409.2252304999856,409.7251488000038,,,,,,,,,,,,,,,,110,2023-04-04_15h14.14.720,FishGame,2022.1.1,59.82378306692553,
,37,넌 멍해,4,Green,A,2.833333333333333,3.4,ScrollDown,ScrollUp,Green.png,3,Negative,Incongruent,,,,,0,0,0,0,,,,,,,,,,,,,,,,,,,,,0,36,36,36,,,,,,,,,,,,,,,,,,,,,,,,,,,,,,,,,,,,,,,,,,,,,,,,,,,,,,,,,,,,,,,,,,,,,,,,,1.2716049353281655,0.762653500016313,410.34781320003094,None,ScrollDown,정답입니다,410.34781320003094,None,410.34781320003094,None,410.34781320003094,None,410.34781320003094,None,411.0060721000191,None,411.0060721000191,411.5060646000202,,,,,,,,,,,,,,,,110,2023-04-04_15h14.14.720,FishGame,2022.1.1,59.82378306692553,
,38,나를 데려가줘,6,Orange,B,0,0,ScrollDown,ScrollUp,Orange.png,3,NonTarget,NonTarget,,,,,0,0,0,0,,,,,,,,,,,,,,,,,,,,,0,37,37,37,,,,,,,,,,,,,,,,,,,,,,,,,,,,,,,,,,,,,,,,,,,,,,,,,,,,,,,,,,,,,,,,,,,,,,,,,1.2283950696388881,1.1126779000042006,412.1268817000091,None,ScrollDown,정답입니다,412.1268817000091,None,412.1268817000091,None,412.1268817000091,None,412.1268817000091,None,413.1394684999832,None,413.1394684999832,413.64178160001757,,,,,,,,,,,,,,,,110,2023-04-04_15h14.14.720,FishGame,2022.1.1,59.82378306692553,
,39,넌 현명해,2,Green,A,6.541666666666666,4.533333333333333,ScrollDown,ScrollUp,Green.png,3,Positive,Congruent,,,,,0,0,0,0,,,,,,,,,,,,,,,,,,,,,0,38,38,38,,,,,,,,,,,,,,,,,,,,,,,,,,,,,,,,,,,,,,,,,,,,,,,,,,,,,,,,,,,,,,,,,,,,,,,,,1.080246905485789,1.0484091999824159,414.2585631000111,None,ScrollDown,정답입니다,414.2585631000111,None,414.2585631000111,None,414.2585631000111,None,414.2585631000111,None,415.20851929998025,None,415.20851929998025,415.71166720002657,,,,,,,,,,,,,,,,110,2023-04-04_15h14.14.720,FishGame,2022.1.1,59.82378306692553,
,40,넌 수줍어,3,Orange,B,3.541666666666666,4.366666666666666,ScrollUp,ScrollDown,Orange.png,3,Neutral,Neutral,,,,,0,0,0,0,,,,,,,,,,,,,,,,,,,,,0,39,39,39,,,,,,,,,,,,,,,,,,,,,,,,,,,,,,,,,,,,,,,,,,,,,,,,,,,,,,,,,,,,,,,,,,,,,,,,,1.723765422900518,0.8982831999892369,416.3277401999803,None,ScrollUp,정답입니다,416.3277401999803,None,416.3277401999803,None,416.3277401999803,None,416.3277401999803,None,417.1229172000312,None,417.1229172000312,417.62491090002004,,,,,,,,,,,,,,,,110,2023-04-04_15h14.14.720,FishGame,2022.1.1,59.82378306692553,
,41,나를 데려가줘,6,Orange,B,0,0,ScrollDown,ScrollUp,Orange.png,3,NonTarget,NonTarget,,,,,0,0,0,0,,,,,,,,,,,,,,,,,,,,,0,40,40,40,,,,,,,,,,,,,,,,,,,,,,,,,,,,,,,,,,,,,,,,,,,,,,,,,,,,,,,,,,,,,,,,,,,,,,,,,1.1635802586873372,1.165041400003247,418.244661899982,None,ScrollDown,정답입니다,418.244661899982,None,418.244661899982,None,418.244661899982,None,418.244661899982,None,419.30820660002064,None,419.30820660002064,419.8081692000269,,,,,,,,,,,,,,,,110,2023-04-04_15h14.14.720,FishGame,2022.1.1,59.82378306692553,
,42,넌 성숙해,2,Orange,B,5.833333333333333,4.533333333333333,ScrollUp,ScrollDown,Orange.png,3,Positive,Incongruent,,,,,0,0,0,0,,,,,,,,,,,,,,,,,,,,,0,41,41,41,,,,,,,,,,,,,,,,,,,,,,,,,,,,,,,,,,,,,,,,,,,,,,,,,,,,,,,,,,,,,,,,,,,,,,,,,1.604938273628553,0.748351099959109,420.42439589998685,None,ScrollUp,정답입니다,420.42439589998685,None,420.42439589998685,None,420.42439589998685,None,420.42439589998685,None,421.07280470000114,None,421.07280470000114,421.5748319000122,,,,,,,,,,,,,,,,110,2023-04-04_15h14.14.720,FishGame,2022.1.1,59.82378306692553,
,1,넌 매력적이야,2,Orange,B,6.125,4.666666666666667,ScrollUp,ScrollDown,Orange.png,4,Positive,Incongruent,,,,,0,0,0,0,,,,,,,,,,,,,,,,,,,,,,,,,0,0,0,0,,,,,,,,,,,,,,,,,,,,,,,,,,,,453.922058199998,455.4272495000041,455.44417790003354,456.40758850000566,456.4576565999887,457.4108406000305,457.3939535000245,None,,,,,,,,,,,,,,,,,,,,,,,,,,,,,,,,,,1.7901234477758408,1.4896981000201777,458.50610549998237,None,ScrollUp,정답입니다,458.50610549998237,None,458.50610549998237,None,458.50610549998237,None,458.50610549998237,None,459.89085379999597,None,459.89085379999597,460.3906041000155,422.07487630000105,None,422.07487630000105,None,0.24166666,-0.1,1,0,0,0.016154729994013906,None,452.0741265999968,None,,,110,2023-04-04_15h14.14.720,FishGame,2022.1.1,59.82378306692553,
,2,나를 보내줘,6,Green,A,0,0,ScrollUp,ScrollDown,Green.png,4,NonTarget,NonTarget,,,,,0,0,0,0,,,,,,,,,,,,,,,,,,,,,,,,,0,1,1,1,,,,,,,,,,,,,,,,,,,,,,,,,,,,,,,,,,,,,,,,,,,,,,,,,,,,,,,,,,,,,,,,,,,,,1.8101851791143417,1.1796428000088781,461.0055855999817,None,ScrollUp,정답입니다,461.0055855999817,None,461.0055855999817,None,461.0055855999817,None,461.0055855999817,None,462.08858959999634,None,462.08858959999634,462.590567199979,,,,,,,,,,,,,,,,110,2023-04-04_15h14.14.720,FishGame,2022.1.1,59.82378306692553,
,3,넌 조심스러워,3,Green,A,4.791666666666666,4.666666666666667,ScrollDown,ScrollUp,Green.png,4,Neutral,Neutral,,,,,0,0,0,0,,,,,,,,,,,,,,,,,,,,,,,,,0,2,2,2,,,,,,,,,,,,,,,,,,,,,,,,,,,,,,,,,,,,,,,,,,,,,,,,,,,,,,,,,,,,,,,,,,,,,1.160493830839793,0.7819261000258848,463.20841510000173,None,ScrollDown,정답입니다,463.20841510000173,None,463.20841510000173,None,463.20841510000173,None,463.20841510000173,None,463.89069710002514,None,463.89069710002514,464.3905775999883,,,,,,,,,,,,,,,,110,2023-04-04_15h14.14.720,FishGame,2022.1.1,59.82378306692553,
,4,넌 철학적이야,3,Orange,B,4.5,4.266666666666667,ScrollUp,ScrollDown,Orange.png,4,Neutral,Neutral,,,,,0,0,0,0,,,,,,,,,,,,,,,,,,,,,,,,,0,3,3,3,,,,,,,,,,,,,,,,,,,,,,,,,,,,,,,,,,,,,,,,,,,,,,,,,,,,,,,,,,,,,,,,,,,,,1.7500000099341075,0.7961221000296064,465.0113644999801,None,ScrollUp,정답입니다,465.0113644999801,None,465.0113644999801,None,465.0113644999801,None,465.0113644999801,None,465.70716540003195,None,465.70716540003195,466.223788400006,,,,,,,,,,,,,,,,110,2023-04-04_15h14.14.720,FishGame,2022.1.1,59.82378306692553,
,5,넌 쩨쩨해,5,Green,A,2.375,2.133333333333333,ScrollDown,ScrollUp,Green.png,4,Negative,Incongruent,,,,,0,0,0,0,,,,,,,,,,,,,,,,,,,,,,,,,0,4,4,4,,,,,,,,,,,,,,,,,,,,,,,,,,,,,,,,,,,,,,,,,,,,,,,,,,,,,,,,,,,,,,,,,,,,,1.2469135870536168,0.7628505000029691,466.82506719999947,None,ScrollDown,정답입니다,466.82506719999947,None,466.82506719999947,None,466.82506719999947,None,466.82506719999947,None,467.48846610001056,None,467.48846610001056,467.9905509999953,,,,,,,,,,,,,,,,110,2023-04-04_15h14.14.720,FishGame,2022.1.1,59.82378306692553,
,6,나를 데려가줘,6,Orange,B,0,0,ScrollDown,ScrollUp,Orange.png,4,NonTarget,NonTarget,,,,,0,0,0,0,,,,,,,,,,,,,,,,,,,,,,,,,0,5,5,5,,,,,,,,,,,,,,,,,,,,,,,,,,,,,,,,,,,,,,,,,,,,,,,,,,,,,,,,,,,,,,,,,,,,,1.4629629620661337,0.9318197999964468,468.6068941000267,None,NoResponse,무응답입니다,468.6068941000267,None,468.6068941000267,None,468.6068941000267,None,468.6068941000267,None,469.43848050001543,None,469.43848050001543,469.9404831000138,,,,,,,,,,,,,,,,110,2023-04-04_15h14.14.720,FishGame,2022.1.1,59.82378306692553,
,7,넌 고집불통이야,5,Orange,B,2.875,2,ScrollUp,ScrollDown,Orange.png,4,Negative,Congruent,,,,,0,0,0,0,,,,,,,,,,,,,,,,,,,,,,,,,0,6,6,6,,,,,,,,,,,,,,,,,,,,,,,,,,,,,,,,,,,,,,,,,,,,,,,,,,,,,,,,,,,,,,,,,,,,,1.7376543233791986,0.9631546000018716,470.5674880000297,None,ScrollUp,정답입니다,470.5674880000297,None,470.5674880000297,None,470.5674880000297,None,470.5674880000297,None,471.42374990001554,None,471.42374990001554,471.92374340002425,,,,,,,,,,,,,,,,110,2023-04-04_15h14.14.720,FishGame,2022.1.1,59.82378306692553,
,8,넌 무심해,4,Green,A,2.875,3.2,ScrollDown,ScrollUp,Green.png,4,Negative,Incongruent,,,,,0,0,0,0,,,,,,,,,,,,,,,,,,,,,,,,,0,7,7,7,,,,,,,,,,,,,,,,,,,,,,,,,,,,,,,,,,,,,,,,,,,,,,,,,,,,,,,,,,,,,,,,,,,,,1.2746913631757102,0.7316959000308998,472.5460530000273,None,ScrollDown,정답입니다,472.5460530000273,None,472.5460530000273,None,472.5460530000273,None,472.5460530000273,None,473.17165129998466,None,473.17165129998466,473.6736737000174,,,,,,,,,,,,,,,,110,2023-04-04_15h14.14.720,FishGame,2022.1.1,59.82378306692553,
,9,넌 정겨워,1,Green,A,5.791666666666667,5.666666666666667,ScrollDown,ScrollUp,Green.png,4,Positive,Congruent,,,,,0,0,0,0,,,,,,,,,,,,,,,,,,,,,,,,,0,8,8,8,,,,,,,,,,,,,,,,,,,,,,,,,,,,,,,,,,,,,,,,,,,,,,,,,,,,,,,,,,,,,,,,,,,,,1.3117283980051675,0.7481890000053681,474.2914554000017,None,ScrollDown,정답입니다,474.2914554000017,None,474.2914554000017,None,474.2914554000017,None,474.2914554000017,None,474.9403100000345,None,474.9403100000345,475.4403235000209,,,,,,,,,,,,,,,,110,2023-04-04_15h14.14.720,FishGame,2022.1.1,59.82378306692553,
,10,나를 데려가줘,6,Orange,B,0,0,ScrollDown,ScrollUp,Orange.png,4,NonTarget,NonTarget,,,,,0,0,0,0,,,,,,,,,,,,,,,,,,,,,,,,,0,9,9,9,,,,,,,,,,,,,,,,,,,,,,,,,,,,,,,,,,,,,,,,,,,,,,,,,,,,,,,,,,,,,,,,,,,,,1.4691358022391796,1.0485304000321776,476.05830590002006,None,NoResponse,무응답입니다,476.05830590002006,None,476.05830590002006,None,476.05830590002006,None,476.05830590002006,None,477.00706879998324,None,477.00706879998324,477.50699690001784,,,,,,,,,,,,,,,,110,2023-04-04_15h14.14.720,FishGame,2022.1.1,59.82378306692553,
,11,넌 체제순응적이야,4,Orange,B,3,3.6,ScrollUp,ScrollDown,Orange.png,4,Negative,Congruent,,,,,0,0,0,0,,,,,,,,,,,,,,,,,,,,,,,,,0,10,10,10,,,,,,,,,,,,,,,,,,,,,,,,,,,,,,,,,,,,,,,,,,,,,,,,,,,,,,,,,,,,,,,,,,,,,1.5817901206513247,0.8961401999695227,478.13213109999197,None,ScrollUp,정답입니다,478.13213109999197,None,478.13213109999197,None,478.13213109999197,None,478.13213109999197,None,478.92365800001426,None,478.92365800001426,479.42348749999655,,,,,,,,,,,,,,,,110,2023-04-04_15h14.14.720,FishGame,2022.1.1,59.82378306692553,
,12,나를 보내줘,6,Green,A,0,0,ScrollUp,ScrollDown,Green.png,4,NonTarget,NonTarget,,,,,0,0,0,0,,,,,,,,,,,,,,,,,,,,,,,,,0,11,11,11,,,,,,,,,,,,,,,,,,,,,,,,,,,,,,,,,,,,,,,,,,,,,,,,,,,,,,,,,,,,,,,,,,,,,1.7098765472571054,1.0482816000003368,480.0408529000124,None,ScrollUp,정답입니다,480.0408529000124,None,480.0408529000124,None,480.0408529000124,None,480.0408529000124,None,480.99030200002016,None,480.99030200002016,481.4902201999794,,,,,,,,,,,,,,,,110,2023-04-04_15h14.14.720,FishGame,2022.1.1,59.82378306692553,
,13,넌 박식해,2,Green,A,5.625,3.933333333333333,ScrollDown,ScrollUp,Green.png,4,Positive,Congruent,,,,,0,0,0,0,,,,,,,,,,,,,,,,,,,,,,,,,0,12,12,12,,,,,,,,,,,,,,,,,,,,,,,,,,,,,,,,,,,,,,,,,,,,,,,,,,,,,,,,,,,,,,,,,,,,,1.300925925374031,0.8960620000143535,482.11100490001263,None,ScrollDown,정답입니다,482.11100490001263,None,482.11100490001263,None,482.11100490001263,None,482.11100490001263,None,482.90451199997915,None,482.90451199997915,483.40459220000776,,,,,,,,,,,,,,,,110,2023-04-04_15h14.14.720,FishGame,2022.1.1,59.82378306692553,
,14,나를 보내줘,6,Green,A,0,0,ScrollUp,ScrollDown,Green.png,4,NonTarget,NonTarget,,,,,0,0,0,0,,,,,,,,,,,,,,,,,,,,,,,,,0,13,13,13,,,,,,,,,,,,,,,,,,,,,,,,,,,,,,,,,,,,,,,,,,,,,,,,,,,,,,,,,,,,,,,,,,,,,1.6666666691501937,0.9840941000147723,484.0153406999889,None,ScrollUp,정답입니다,484.0153406999889,None,484.0153406999889,None,484.0153406999889,None,484.0153406999889,None,484.90707810001913,None,484.90707810001913,485.4068815000355,,,,,,,,,,,,,,,,110,2023-04-04_15h14.14.720,FishGame,2022.1.1,59.82378306692553,
,15,넌 침착해,1,Orange,B,5.458333333333333,5.566666666666666,ScrollUp,ScrollDown,Orange.png,4,Positive,Incongruent,,,,,0,0,0,0,,,,,,,,,,,,,,,,,,,,,,,,,0,14,14,14,,,,,,,,,,,,,,,,,,,,,,,,,,,,,,,,,,,,,,,,,,,,,,,,,,,,,,,,,,,,,,,,,,,,,1.3981481480101745,0.7987302000401542,486.03018729999894,None,ScrollDown,오답입니다,486.03018729999894,None,486.03018729999894,None,486.03018729999894,None,486.03018729999894,None,486.72369160002563,None,486.72369160002563,487.2235455000191,,,,,,,,,,,,,,,,110,2023-04-04_15h14.14.720,FishGame,2022.1.1,59.82378306692553,
,16,나를 데려가줘,6,Orange,B,0,0,ScrollDown,ScrollUp,Orange.png,4,NonTarget,NonTarget,,,,,0,0,0,0,,,,,,,,,,,,,,,,,,,,,,,,,0,15,15,15,,,,,,,,,,,,,,,,,,,,,,,,,,,,,,,,,,,,,,,,,,,,,,,,,,,,,,,,,,,,,,,,,,,,,1.367283950249354,0.9452826000051573,487.85080170002766,None,ScrollDown,정답입니다,487.85080170002766,None,487.85080170002766,None,487.85080170002766,None,487.85080170002766,None,488.69012049998855,None,488.69012049998855,489.1900383000029,,,,,,,,,,,,,,,,110,2023-04-04_15h14.14.720,FishGame,2022.1.1,59.82378306692553,
,17,넌 행복해,1,Green,A,6.416666666666666,6.166666666666667,ScrollDown,ScrollUp,Green.png,4,Positive,Congruent,,,,,0,0,0,0,,,,,,,,,,,,,,,,,,,,,,,,,0,16,16,16,,,,,,,,,,,,,,,,,,,,,,,,,,,,,,,,,,,,,,,,,,,,,,,,,,,,,,,,,,,,,,,,,,,,,1.2438271592060726,0.9298649999545887,489.8080072000157,None,ScrollDown,정답입니다,489.8080072000157,None,489.8080072000157,None,489.8080072000157,None,489.8080072000157,None,490.6400187999825,None,490.6400187999825,491.14003340003546,,,,,,,,,,,,,,,,110,2023-04-04_15h14.14.720,FishGame,2022.1.1,59.82378306692553,
,18,넌 겸손해,2,Orange,B,5.791666666666667,4.766666666666667,ScrollUp,ScrollDown,Orange.png,4,Positive,Incongruent,,,,,0,0,0,0,,,,,,,,,,,,,,,,,,,,,,,,,0,17,17,17,,,,,,,,,,,,,,,,,,,,,,,,,,,,,,,,,,,,,,,,,,,,,,,,,,,,,,,,,,,,,,,,,,,,,1.6450617238879204,0.81280610000249,491.7613376000081,None,ScrollUp,정답입니다,491.7613376000081,None,491.7613376000081,None,491.7613376000081,None,491.7613376000081,None,492.47327269997913,None,492.47327269997913,492.9732477000216,,,,,,,,,,,,,,,,110,2023-04-04_15h14.14.720,FishGame,2022.1.1,59.82378306692553,
,19,나를 보내줘,6,Green,A,0,0,ScrollUp,ScrollDown,Green.png,4,NonTarget,NonTarget,,,,,0,0,0,0,,,,,,,,,,,,,,,,,,,,,,,,,0,18,18,18,,,,,,,,,,,,,,,,,,,,,,,,,,,,,,,,,,,,,,,,,,,,,,,,,,,,,,,,,,,,,,,,,,,,,1.7145061641931534,0.8650196000235155,493.5913289000164,None,ScrollUp,정답입니다,493.5913289000164,None,493.5913289000164,None,493.5913289000164,None,493.5913289000164,None,494.3566555000143,None,494.3566555000143,494.8565918999957,,,,,,,,,,,,,,,,110,2023-04-04_15h14.14.720,FishGame,2022.1.1,59.82378306692553,
,20,넌 의심없어,3,Green,A,4.166666666666667,4.6,ScrollDown,ScrollUp,Green.png,4,Neutral,Neutral,,,,,0,0,0,0,,,,,,,,,,,,,,,,,,,,,,,,,0,19,19,19,,,,,,,,,,,,,,,,,,,,,,,,,,,,,,,,,,,,,,,,,,,,,,,,,,,,,,,,,,,,,,,,,,,,,1.604938273628553,1.1628856000024825,495.47266309999395,None,ScrollUp,오답입니다,495.47266309999395,None,495.47266309999395,None,495.47266309999395,None,495.47266309999395,None,496.5375979000237,None,496.5375979000237,497.0376632999978,,,,,,,,,,,,,,,,110,2023-04-04_15h14.14.720,FishGame,2022.1.1,59.82378306692553,
,21,넌 시시해,4,Green,A,2.666666666666667,2.966666666666667,ScrollDown,ScrollUp,Green.png,4,Negative,Incongruent,,,,,0,0,0,0,,,,,,,,,,,,,,,,,,,,,,,,,0,20,20,20,,,,,,,,,,,,,,,,,,,,,,,,,,,,,,,,,,,,,,,,,,,,,,,,,,,,,,,,,,,,,,,,,,,,,1.3580246915419898,0.8113148000556976,497.6597189999884,None,ScrollDown,정답입니다,497.6597189999884,None,497.6597189999884,None,497.6597189999884,None,497.6597189999884,None,498.37090400001034,None,498.37090400001034,498.87333440000657,,,,,,,,,,,,,,,,110,2023-04-04_15h14.14.720,FishGame,2022.1.1,59.82378306692553,
,22,나를 데려가줘,6,Orange,B,0,0,ScrollDown,ScrollUp,Orange.png,4,NonTarget,NonTarget,,,,,0,0,0,0,,,,,,,,,,,,,,,,,,,,,,,,,0,21,21,21,,,,,,,,,,,,,,,,,,,,,,,,,,,,,,,,,,,,,,,,,,,,,,,,,,,,,,,,,,,,,,,,,,,,,1.2932098805904388,0.9147989000193775,499.49316280003404,None,ScrollDown,정답입니다,499.49316280003404,None,499.49316280003404,None,499.49316280003404,None,499.49316280003404,None,500.30673310003476,None,500.30673310003476,500.8065615000087,,,,,,,,,,,,,,,,110,2023-04-04_15h14.14.720,FishGame,2022.1.1,59.82378306692553,
,23,넌 무정해,5,Green,A,2.5,2.2,ScrollDown,ScrollUp,Green.png,4,Negative,Incongruent,,,,,0,0,0,0,,,,,,,,,,,,,,,,,,,,,,,,,0,22,22,22,,,,,,,,,,,,,,,,,,,,,,,,,,,,,,,,,,,,,,,,,,,,,,,,,,,,,,,,,,,,,,,,,,,,,1.276234577099482,1.0489603000460193,501.421231299988,None,ScrollDown,정답입니다,501.421231299988,None,501.421231299988,None,501.421231299988,None,501.421231299988,None,502.37104290002026,None,502.37104290002026,502.87306820001686,,,,,,,,,,,,,,,,110,2023-04-04_15h14.14.720,FishGame,2022.1.1,59.82378306692553,
,24,넌 긍정적이야,1,Orange,B,6.041666666666667,6.066666666666666,ScrollUp,ScrollDown,Orange.png,4,Positive,Incongruent,,,,,0,0,0,0,,,,,,,,,,,,,,,,,,,,,,,,,0,23,23,23,,,,,,,,,,,,,,,,,,,,,,,,,,,,,,,,,,,,,,,,,,,,,,,,,,,,,,,,,,,,,,,,,,,,,1.6481481517354646,0.8930931999930181,503.5075530000031,None,ScrollUp,정답입니다,503.5075530000031,None,503.5075530000031,None,503.5075530000031,None,503.5075530000031,None,504.28739690000657,None,504.28739690000657,504.7873872999917,,,,,,,,,,,,,,,,110,2023-04-04_15h14.14.720,FishGame,2022.1.1,59.82378306692553,
,25,나를 보내줘,6,Green,A,0,0,ScrollUp,ScrollDown,Green.png,4,NonTarget,NonTarget,,,,,0,0,0,0,,,,,,,,,,,,,,,,,,,,,,,,,0,24,24,24,,,,,,,,,,,,,,,,,,,,,,,,,,,,,,,,,,,,,,,,,,,,,,,,,,,,,,,,,,,,,,,,,,,,,1.6203703756133714,1.0815605000243522,505.3991998999845,None,ScrollUp,정답입니다,505.3991998999845,None,505.3991998999845,None,505.3991998999845,None,505.3991998999845,None,506.38743230002,None,506.38743230002,506.889756700024,,,,,,,,,,,,,,,,110,2023-04-04_15h14.14.720,FishGame,2022.1.1,59.82378306692553,
,26,넌 시기심이 많아,5,Orange,B,2.458333333333333,2.233333333333333,ScrollUp,ScrollDown,Orange.png,4,Negative,Congruent,,,,,0,0,0,0,,,,,,,,,,,,,,,,,,,,,,,,,0,25,25,25,,,,,,,,,,,,,,,,,,,,,,,,,,,,,,,,,,,,,,,,,,,,,,,,,,,,,,,,,,,,,,,,,,,,,1.5879629639287791,1.1318931000423618,507.51210880000144,None,ScrollUp,정답입니다,507.51210880000144,None,507.51210880000144,None,507.51210880000144,None,507.51210880000144,None,508.5399097999907,None,508.5399097999907,509.0397505000001,,,,,,,,,,,,,,,,110,2023-04-04_15h14.14.720,FishGame,2022.1.1,59.82378306692553,
,27,넌 탁월해,2,Green,A,5.708333333333334,4.5,ScrollDown,ScrollUp,Green.png,4,Positive,Congruent,,,,,0,0,0,0,,,,,,,,,,,,,,,,,,,,,,,,,0,26,26,26,,,,,,,,,,,,,,,,,,,,,,,,,,,,,,,,,,,,,,,,,,,,,,,,,,,,,,,,,,,,,,,,,,,,,1.2901234527428946,0.8432992000016384,509.66378549998626,None,ScrollDown,정답입니다,509.66378549998626,None,509.66378549998626,None,509.66378549998626,None,509.66378549998626,None,510.40423669997836,None,510.40423669997836,510.9062316000345,,,,,,,,,,,,,,,,110,2023-04-04_15h14.14.720,FishGame,2022.1.1,59.82378306692553,
,28,나를 데려가줘,6,Orange,B,0,0,ScrollDown,ScrollUp,Orange.png,4,NonTarget,NonTarget,,,,,0,0,0,0,,,,,,,,,,,,,,,,,,,,,,,,,0,27,27,27,,,,,,,,,,,,,,,,,,,,,,,,,,,,,,,,,,,,,,,,,,,,,,,,,,,,,,,,,,,,,,,,,,,,,1.604938273628553,0.8929026999976486,511.5363273000112,None,ScrollUp,오답입니다,511.5363273000112,None,511.5363273000112,None,511.5363273000112,None,511.5363273000112,None,512.3205761000281,None,512.3205761000281,512.8205229000305,,,,,,,,,,,,,,,,110,2023-04-04_15h14.14.720,FishGame,2022.1.1,59.82378306692553,
,29,넌 조용해,3,Orange,B,4.333333333333333,4.166666666666667,ScrollUp,ScrollDown,Orange.png,4,Neutral,Neutral,,,,,0,0,0,0,,,,,,,,,,,,,,,,,,,,,,,,,0,28,28,28,,,,,,,,,,,,,,,,,,,,,,,,,,,,,,,,,,,,,,,,,,,,,,,,,,,,,,,,,,,,,,,,,,,,,1.6404320945342383,1.0815697999787517,513.4415381000144,None,ScrollUp,정답입니다,513.4415381000144,None,513.4415381000144,None,513.4415381000144,None,513.4415381000144,None,514.4205463000108,None,514.4205463000108,514.922932800022,,,,,,,,,,,,,,,,110,2023-04-04_15h14.14.720,FishGame,2022.1.1,59.82378306692553,
,30,넌 다정해,1,Green,A,5.833333333333334,5.7,ScrollDown,ScrollUp,Green.png,4,Positive,Congruent,,,,,0,0,0,0,,,,,,,,,,,,,,,,,,,,,,,,,0,29,29,29,,,,,,,,,,,,,,,,,,,,,,,,,,,,,,,,,,,,,,,,,,,,,,,,,,,,,,,,,,,,,,,,,,,,,1.3086419701576233,0.7984278000076301,515.5423525000224,None,ScrollDown,정답입니다,515.5423525000224,None,515.5423525000224,None,515.5423525000224,None,515.5423525000224,None,516.2396988000255,None,516.2396988000255,516.7428740999894,,,,,,,,,,,,,,,,110,2023-04-04_15h14.14.720,FishGame,2022.1.1,59.82378306692553,
,31,넌 능력있어,2,Orange,B,6.166666666666666,4.6,ScrollUp,ScrollDown,Orange.png,4,Positive,Incongruent,,,,,0,0,0,0,,,,,,,,,,,,,,,,,,,,,,,,,0,30,30,30,,,,,,,,,,,,,,,,,,,,,,,,,,,,,,,,,,,,,,,,,,,,,,,,,,,,,,,,,,,,,,,,,,,,,1.6898148159186044,1.2985006000380963,517.3573081000359,None,ScrollUp,정답입니다,517.3573081000359,None,517.3573081000359,None,517.3573081000359,None,517.3573081000359,None,518.5561061000335,None,518.5561061000335,519.0560911999783,,,,,,,,,,,,,,,,110,2023-04-04_15h14.14.720,FishGame,2022.1.1,59.82378306692553,
,32,넌 불쾌해,5,Green,A,2.125,1.933333333333333,ScrollDown,ScrollUp,Green.png,4,Negative,Incongruent,,,,,0,0,0,0,,,,,,,,,,,,,,,,,,,,,,,,,0,31,31,31,,,,,,,,,,,,,,,,,,,,,,,,,,,,,,,,,,,,,,,,,,,,,,,,,,,,,,,,,,,,,,,,,,,,,1.3487654328346252,0.8297963999793865,519.6744718999835,None,ScrollDown,정답입니다,519.6744718999835,None,519.6744718999835,None,519.6744718999835,None,519.6744718999835,None,520.4039670000202,None,520.4039670000202,520.9060138000059,,,,,,,,,,,,,,,,110,2023-04-04_15h14.14.720,FishGame,2022.1.1,59.82378306692553,
,33,나를 데려가줘,6,Orange,B,0,0,ScrollDown,ScrollUp,Orange.png,4,NonTarget,NonTarget,,,,,0,0,0,0,,,,,,,,,,,,,,,,,,,,,,,,,0,32,32,32,,,,,,,,,,,,,,,,,,,,,,,,,,,,,,,,,,,,,,,,,,,,,,,,,,,,,,,,,,,,,,,,,,,,,1.3086419701576233,0.9483263000147417,521.5230492000119,None,ScrollDown,정답입니다,521.5230492000119,None,521.5230492000119,None,521.5230492000119,None,521.5230492000119,None,522.3728039999842,None,522.3728039999842,522.872727799986,,,,,,,,,,,,,,,,110,2023-04-04_15h14.14.720,FishGame,2022.1.1,59.82378306692553,
,34,넌 유순해,3,Green,A,4.458333333333333,5,ScrollDown,ScrollUp,Green.png,4,Neutral,Neutral,,,,,0,0,0,0,,,,,,,,,,,,,,,,,,,,,,,,,0,33,33,33,,,,,,,,,,,,,,,,,,,,,,,,,,,,,,,,,,,,,,,,,,,,,,,,,,,,,,,,,,,,,,,,,,,,,1.233024686574936,0.9457123000174761,523.4889127000351,None,ScrollDown,정답입니다,523.4889127000351,None,523.4889127000351,None,523.4889127000351,None,523.4889127000351,None,524.3369862000109,None,524.3369862000109,524.8369416000205,,,,,,,,,,,,,,,,110,2023-04-04_15h14.14.720,FishGame,2022.1.1,59.82378306692553,
,35,넌 근심스러워,4,Orange,B,2.708333333333333,3.133333333333333,ScrollUp,ScrollDown,Orange.png,4,Negative,Congruent,,,,,0,0,0,0,,,,,,,,,,,,,,,,,,,,,,,,,0,34,34,34,,,,,,,,,,,,,,,,,,,,,,,,,,,,,,,,,,,,,,,,,,,,,,,,,,,,,,,,,,,,,,,,,,,,,1.6604938258727393,0.8818321999860927,525.4564387000282,None,ScrollUp,정답입니다,525.4564387000282,None,525.4564387000282,None,525.4564387000282,None,525.4564387000282,None,526.2369670000044,None,526.2369670000044,526.7393466000212,,,,,,,,,,,,,,,,110,2023-04-04_15h14.14.720,FishGame,2022.1.1,59.82378306692553,
,36,넌 세련되었어,2,Green,A,5.5,4.6,ScrollDown,ScrollUp,Green.png,4,Positive,Congruent,,,,,0,0,0,0,,,,,,,,,,,,,,,,,,,,,,,,,0,35,35,35,,,,,,,,,,,,,,,,,,,,,,,,,,,,,,,,,,,,,,,,,,,,,,,,,,,,,,,,,,,,,,,,,,,,,1.2824074079593024,0.796156800002791,527.3610844999785,None,ScrollDown,정답입니다,527.3610844999785,None,527.3610844999785,None,527.3610844999785,None,527.3610844999785,None,528.056007999985,None,528.056007999985,528.5559936999925,,,,,,,,,,,,,,,,110,2023-04-04_15h14.14.720,FishGame,2022.1.1,59.82378306692553,
,37,나를 보내줘,6,Green,A,0,0,ScrollUp,ScrollDown,Green.png,4,NonTarget,NonTarget,,,,,0,0,0,0,,,,,,,,,,,,,,,,,,,,,,,,,0,36,36,36,,,,,,,,,,,,,,,,,,,,,,,,,,,,,,,,,,,,,,,,,,,,,,,,,,,,,,,,,,,,,,,,,,,,,1.6898148159186044,0.8818427000078373,529.1709899000125,None,ScrollUp,정답입니다,529.1709899000125,None,529.1709899000125,None,529.1709899000125,None,529.1709899000125,None,529.9557670999784,None,529.9557670999784,530.4558164000046,,,,,,,,,,,,,,,,110,2023-04-04_15h14.14.720,FishGame,2022.1.1,59.82378306692553,
,38,넌 확고해,3,Orange,B,4.708333333333334,4.566666666666666,ScrollUp,ScrollDown,Orange.png,4,Neutral,Neutral,,,,,0,0,0,0,,,,,,,,,,,,,,,,,,,,,,,,,0,37,37,37,,,,,,,,,,,,,,,,,,,,,,,,,,,,,,,,,,,,,,,,,,,,,,,,,,,,,,,,,,,,,,,,,,,,,1.320987656712532,0.7795874000294134,531.0763384000165,None,ScrollDown,오답입니다,531.0763384000165,None,531.0763384000165,None,531.0763384000165,None,531.0763384000165,None,531.7537137999898,None,531.7537137999898,532.2556871999986,,,,,,,,,,,,,,,,110,2023-04-04_15h14.14.720,FishGame,2022.1.1,59.82378306692553,
,39,넌 이해심이 많아,1,Orange,B,6.041666666666668,5.533333333333333,ScrollUp,ScrollDown,Orange.png,4,Positive,Incongruent,,,,,0,0,0,0,,,,,,,,,,,,,,,,,,,,,,,,,0,38,38,38,,,,,,,,,,,,,,,,,,,,,,,,,,,,,,,,,,,,,,,,,,,,,,,,,,,,,,,,,,,,,,,,,,,,,1.5725308619439602,1.4815888000302948,532.8738264000276,None,ScrollUp,정답입니다,532.8738264000276,None,532.8738264000276,None,532.8738264000276,None,532.8738264000276,None,534.2557586000185,None,534.2557586000185,534.7557141000289,,,,,,,,,,,,,,,,110,2023-04-04_15h14.14.720,FishGame,2022.1.1,59.82378306692553,
,40,나를 보내줘,6,Green,A,0,0,ScrollUp,ScrollDown,Green.png,4,NonTarget,NonTarget,,,,,0,0,0,0,,,,,,,,,,,,,,,,,,,,,,,,,0,39,39,39,,,,,,,,,,,,,,,,,,,,,,,,,,,,,,,,,,,,,,,,,,,,,,,,,,,,,,,,,,,,,,,,,,,,,1.5709876542290053,1.8293561000027694,535.3725675999885,None,ScrollUp,정답입니다,535.3725675999885,None,535.3725675999885,None,535.3725675999885,None,535.3725675999885,None,537.1033653999912,None,537.1033653999912,537.6033731999923,,,,,,,,,,,,,,,,110,2023-04-04_15h14.14.720,FishGame,2022.1.1,59.82378306692553,
,41,넌 거칠어,4,Green,A,2.625,3.033333333333333,ScrollDown,ScrollUp,Green.png,4,Negative,Incongruent,,,,,0,0,0,0,,,,,,,,,,,,,,,,,,,,,,,,,0,40,40,40,,,,,,,,,,,,,,,,,,,,,,,,,,,,,,,,,,,,,,,,,,,,,,,,,,,,,,,,,,,,,,,,,,,,,1.2638888905445733,0.9487858000211418,538.2210702000302,None,ScrollDown,정답입니다,538.2210702000302,None,538.2210702000302,None,538.2210702000302,None,538.2210702000302,None,539.0724168000161,None,539.0724168000161,539.5724345000344,,,,,,,,,,,,,,,,110,2023-04-04_15h14.14.720,FishGame,2022.1.1,59.82378306692553,
,42,넌 변덕맞아,5,Orange,B,2.75,2.166666666666667,ScrollUp,ScrollDown,Orange.png,4,Negative,Congruent,,,,,0,0,0,0,,,,,,,,,,,,,,,,,,,,,,,,,0,41,41,41,,,,,,,,,,,,,,,,,,,,,,,,,,,,,,,,,,,,,,,,,,,,,,,,,,,,,,,,,,,,,,,,,,,,,1.6311728358268738,0.898346500005573,540.200384500029,None,ScrollUp,정답입니다,540.200384500029,None,540.200384500029,None,540.200384500029,None,540.200384500029,None,540.9888916999917,None,540.9888916999917,541.4889170000097,,,,,,,,,,,,,,,,110,2023-04-04_15h14.14.720,FishGame,2022.1.1,59.82378306692553,
,43,나를 데려가줘,6,Orange,B,0,0,ScrollDown,ScrollUp,Orange.png,4,NonTarget,NonTarget,,,,,0,0,0,0,,,,,,,,,,,,,,,,,,,,,,,,,0,42,42,42,,,,,,,,,,,,,,,,,,,,,,,,,,,,,,,,,,,,,,,,,,,,,,,,,,,,,,,,,,,,,,,,,,,,,1.3441358034809432,0.9294195999973454,542.1083522000117,None,ScrollDown,정답입니다,542.1083522000117,None,542.1083522000117,None,542.1083522000117,None,542.1083522000117,None,542.9365494999802,None,542.9365494999802,543.4365743999952,,,,,,,,,,,,,,,,110,2023-04-04_15h14.14.720,FishGame,2022.1.1,59.82378306692553,
,44,넌 외로워,4,Orange,B,2.833333333333333,3.3,ScrollUp,ScrollDown,Orange.png,4,Negative,Congruent,,,,,0,0,0,0,,,,,,,,,,,,,,,,,,,,,,,,,0,43,43,43,,,,,,,,,,,,,,,,,,,,,,,,,,,,,,,,,,,,,,,,,,,,,,,,,,,,,,,,,,,,,,,,,,,,,1.634259263674418,1.2983669999521226,544.0530184999807,None,ScrollUp,정답입니다,544.0530184999807,None,544.0530184999807,None,544.0530184999807,None,544.0530184999807,None,545.2556302000303,None,545.2556302000303,545.755573100003,,,,,,,,,,,,,,,,110,2023-04-04_15h14.14.720,FishGame,2022.1.1,59.82378306692553,
,1,넌 불평스러워,5,Green,A,2.25,2.066666666666667,ScrollDown,ScrollUp,Green.png,5,Negative,Incongruent,,,,,0,0,0,0,,,,,,,,,,,,,,,,,,,,,,,,,,,,,0,0,0,0,,,,,,,,,,,,,,,,,,,,,,,,578.6913041999796,580.2048421999789,580.2215489000082,581.1715682999929,581.2215715000057,582.1715619000024,582.1715619000024,None,,,,,,,,,,,,,,,,,,,,,,,,,,,,,,,,,,1.629629634320736,1.4419207000173628,583.2641218000208,None,ScrollUp,오답입니다,583.2641218000208,None,583.2641218000208,None,583.2641218000208,None,583.2641218000208,None,584.6027292999788,None,584.6027292999788,585.1045347999898,546.2555840000277,None,546.2555840000277,None,0.23981482,-0.1037037,1,0,0,0.016166730027180165,None,576.2550780000165,None,,,110,2023-04-04_15h14.14.720,FishGame,2022.1.1,59.82378306692553,
,2,나를 보내줘,6,Green,A,0,0,ScrollUp,ScrollDown,Green.png,5,NonTarget,NonTarget,,,,,0,0,0,0,,,,,,,,,,,,,,,,,,,,,,,,,,,,,0,1,1,1,,,,,,,,,,,,,,,,,,,,,,,,,,,,,,,,,,,,,,,,,,,,,,,,,,,,,,,,,,,,,,,,,1.6172839477658272,1.2461911999853328,585.7223432000028,None,ScrollUp,정답입니다,585.7223432000028,None,585.7223432000028,None,585.7223432000028,None,585.7223432000028,None,586.8690782000194,None,586.8690782000194,587.3711941000074,,,,,,,,,,,,,,,,110,2023-04-04_15h14.14.720,FishGame,2022.1.1,59.82378306692553,
,3,넌 다재다능해,2,Orange,B,6.208333333333333,4.5,ScrollUp,ScrollDown,Orange.png,5,Positive,Incongruent,,,,,0,0,0,0,,,,,,,,,,,,,,,,,,,,,,,,,,,,,0,2,2,2,,,,,,,,,,,,,,,,,,,,,,,,,,,,,,,,,,,,,,,,,,,,,,,,,,,,,,,,,,,,,,,,,1.266975318392118,0.9150200000149198,587.9909073000308,None,ScrollDown,오답입니다,587.9909073000308,None,587.9909073000308,None,587.9909073000308,None,587.9909073000308,None,588.802529299981,None,588.802529299981,589.3045631999848,,,,,,,,,,,,,,,,110,2023-04-04_15h14.14.720,FishGame,2022.1.1,59.82378306692553,
,4,넌 과감해,3,Green,A,4.833333333333334,4.6,ScrollDown,ScrollUp,Green.png,5,Neutral,Neutral,,,,,0,0,0,0,,,,,,,,,,,,,,,,,,,,,,,,,,,,,0,3,3,3,,,,,,,,,,,,,,,,,,,,,,,,,,,,,,,,,,,,,,,,,,,,,,,,,,,,,,,,,,,,,,,,,1.1496913582086563,0.9927296999958344,589.9287832999835,None,ScrollDown,정답입니다,589.9287832999835,None,589.9287832999835,None,589.9287832999835,None,589.9287832999835,None,590.8188450000016,None,590.8188450000016,591.3188199999859,,,,,,,,,,,,,,,,110,2023-04-04_15h14.14.720,FishGame,2022.1.1,59.82378306692553,
,5,넌 고분고분해,3,Orange,B,3.75,4.033333333333333,ScrollUp,ScrollDown,Orange.png,5,Neutral,Neutral,,,,,0,0,0,0,,,,,,,,,,,,,,,,,,,,,,,,,,,,,0,4,4,4,,,,,,,,,,,,,,,,,,,,,,,,,,,,,,,,,,,,,,,,,,,,,,,,,,,,,,,,,,,,,,,,,1.2253086417913437,0.9508048999705352,591.9428252999787,None,ScrollDown,오답입니다,591.9428252999787,None,591.9428252999787,None,591.9428252999787,None,591.9428252999787,None,592.788158499985,None,592.788158499985,593.2878984999843,,,,,,,,,,,,,,,,110,2023-04-04_15h14.14.720,FishGame,2022.1.1,59.82378306692553,
,6,나를 보내줘,6,Green,A,0,0,ScrollUp,ScrollDown,Green.png,5,NonTarget,NonTarget,,,,,0,0,0,0,,,,,,,,,,,,,,,,,,,,,,,,,,,,,0,5,5,5,,,,,,,,,,,,,,,,,,,,,,,,,,,,,,,,,,,,,,,,,,,,,,,,,,,,,,,,,,,,,,,,,1.6759259278575578,1.1315934000303969,593.9023663999978,None,ScrollUp,정답입니다,593.9023663999978,None,593.9023663999978,None,593.9023663999978,None,593.9023663999978,None,594.9379901000066,None,594.9379901000066,595.4376943000243,,,,,,,,,,,,,,,,110,2023-04-04_15h14.14.720,FishGame,2022.1.1,59.82378306692553,
,7,넌 잘 잊어,4,Green,A,3,3.7,ScrollDown,ScrollUp,Green.png,5,Negative,Incongruent,,,,,0,0,0,0,,,,,,,,,,,,,,,,,,,,,,,,,,,,,0,6,6,6,,,,,,,,,,,,,,,,,,,,,,,,,,,,,,,,,,,,,,,,,,,,,,,,,,,,,,,,,,,,,,,,,1.2361111144224803,0.9484432999743149,596.0570742000127,None,ScrollDown,정답입니다,596.0570742000127,None,596.0570742000127,None,596.0570742000127,None,596.0570742000127,None,596.9042881000205,None,596.9042881000205,597.4043742999784,,,,,,,,,,,,,,,,110,2023-04-04_15h14.14.720,FishGame,2022.1.1,59.82378306692553,
,8,넌 탐구심이없어,4,Orange,B,2.833333333333333,3.066666666666667,ScrollUp,ScrollDown,Orange.png,5,Negative,Congruent,,,,,0,0,0,0,,,,,,,,,,,,,,,,,,,,,,,,,,,,,0,7,7,7,,,,,,,,,,,,,,,,,,,,,,,,,,,,,,,,,,,,,,,,,,,,,,,,,,,,,,,,,,,,,,,,,1.6805555572112403,0.7599046999821439,598.0305727000232,None,ScrollUp,정답입니다,598.0305727000232,None,598.0305727000232,None,598.0305727000232,None,598.0305727000232,None,598.6876580999815,None,598.6876580999815,599.1876119999797,,,,,,,,,,,,,,,,110,2023-04-04_15h14.14.720,FishGame,2022.1.1,59.82378306692553,
,9,나를 데려가줘,6,Orange,B,0,0,ScrollDown,ScrollUp,Orange.png,5,NonTarget,NonTarget,,,,,0,0,0,0,,,,,,,,,,,,,,,,,,,,,,,,,,,,,0,8,8,8,,,,,,,,,,,,,,,,,,,,,,,,,,,,,,,,,,,,,,,,,,,,,,,,,,,,,,,,,,,,,,,,,1.2885802388191223,1.1128323000157252,599.809937699989,None,ScrollDown,정답입니다,599.809937699989,None,599.809937699989,None,599.809937699989,None,599.809937699989,None,600.8188607000047,None,600.8188607000047,601.3188235000125,,,,,,,,,,,,,,,,110,2023-04-04_15h14.14.720,FishGame,2022.1.1,59.82378306692553,
,10,넌 참되어,2,Green,A,6.041666666666664,4.733333333333333,ScrollDown,ScrollUp,Green.png,5,Positive,Congruent,,,,,0,0,0,0,,,,,,,,,,,,,,,,,,,,,,,,,,,,,0,9,9,9,,,,,,,,,,,,,,,,,,,,,,,,,,,,,,,,,,,,,,,,,,,,,,,,,,,,,,,,,,,,,,,,,1.5972222226361432,0.8151469999575056,601.9395772999851,None,ScrollUp,오답입니다,601.9395772999851,None,601.9395772999851,None,601.9395772999851,None,601.9395772999851,None,602.654271300009,None,602.654271300009,603.1542570000165,,,,,,,,,,,,,,,,110,2023-04-04_15h14.14.720,FishGame,2022.1.1,59.82378306692553,
,11,넌 생기있어,1,Orange,B,5.875,5.633333333333334,ScrollUp,ScrollDown,Orange.png,5,Positive,Incongruent,,,,,0,0,0,0,,,,,,,,,,,,,,,,,,,,,,,,,,,,,0,10,10,10,,,,,,,,,,,,,,,,,,,,,,,,,,,,,,,,,,,,,,,,,,,,,,,,,,,,,,,,,,,,,,,,,1.6373456791043282,0.9647930000210181,603.7765631999937,None,ScrollUp,정답입니다,603.7765631999937,None,603.7765631999937,None,603.7765631999937,None,603.7765631999937,None,604.6375592999975,None,604.6375592999975,605.1374553000205,,,,,,,,,,,,,,,,110,2023-04-04_15h14.14.720,FishGame,2022.1.1,59.82378306692553,
,12,넌 비사교적이야,4,Orange,B,2.875,2.9,ScrollUp,ScrollDown,Orange.png,5,Negative,Congruent,,,,,0,0,0,0,,,,,,,,,,,,,,,,,,,,,,,,,,,,,0,11,11,11,,,,,,,,,,,,,,,,,,,,,,,,,,,,,,,,,,,,,,,,,,,,,,,,,,,,,,,,,,,,,,,,,1.6450617238879204,0.9463940999703482,605.7554810000001,None,ScrollUp,정답입니다,605.7554810000001,None,605.7554810000001,None,605.7554810000001,None,605.7554810000001,None,606.6041312000016,None,606.6041312000016,607.1041086000041,,,,,,,,,,,,,,,,110,2023-04-04_15h14.14.720,FishGame,2022.1.1,59.82378306692553,
,13,나를 데려가줘,6,Orange,B,0,0,ScrollDown,ScrollUp,Orange.png,5,NonTarget,NonTarget,,,,,0,0,0,0,,,,,,,,,,,,,,,,,,,,,,,,,,,,,0,12,12,12,,,,,,,,,,,,,,,,,,,,,,,,,,,,,,,,,,,,,,,,,,,,,,,,,,,,,,,,,,,,,,,,,1.253086417913437,0.9461411000229418,607.7241905999836,None,ScrollDown,정답입니다,607.7241905999836,None,607.7241905999836,None,607.7241905999836,None,607.7241905999836,None,608.5709107000148,None,608.5709107000148,609.0707861999981,,,,,,,,,,,,,,,,110,2023-04-04_15h14.14.720,FishGame,2022.1.1,59.82378306692553,
,14,넌 고독해,4,Green,A,2.916666666666667,3.233333333333333,ScrollDown,ScrollUp,Green.png,5,Negative,Incongruent,,,,,0,0,0,0,,,,,,,,,,,,,,,,,,,,,,,,,,,,,0,13,13,13,,,,,,,,,,,,,,,,,,,,,,,,,,,,,,,,,,,,,,,,,,,,,,,,,,,,,,,,,,,,,,,,,1.0277777810891469,0.9319110999931581,609.6940077000181,None,ScrollDown,정답입니다,609.6940077000181,None,609.6940077000181,None,609.6940077000181,None,609.6940077000181,None,610.5207242000033,None,610.5207242000033,611.0206470999983,,,,,,,,,,,,,,,,110,2023-04-04_15h14.14.720,FishGame,2022.1.1,59.82378306692553,
,15,넌 신경질적이야,5,Orange,B,2.375,2.233333333333333,ScrollUp,ScrollDown,Orange.png,5,Negative,Congruent,,,,,0,0,0,0,,,,,,,,,,,,,,,,,,,,,,,,,,,,,0,14,14,14,,,,,,,,,,,,,,,,,,,,,,,,,,,,,,,,,,,,,,,,,,,,,,,,,,,,,,,,,,,,,,,,,1.560185187806686,0.8148210999788716,611.6430232999846,None,ScrollUp,정답입니다,611.6430232999846,None,611.6430232999846,None,611.6430232999846,None,611.6430232999846,None,612.3540351000265,None,612.3540351000265,612.8540327000082,,,,,,,,,,,,,,,,110,2023-04-04_15h14.14.720,FishGame,2022.1.1,59.82378306692553,
,16,넌 똑똑해,2,Orange,B,5.666666666666667,3.966666666666667,ScrollUp,ScrollDown,Orange.png,5,Positive,Incongruent,,,,,0,0,0,0,,,,,,,,,,,,,,,,,,,,,,,,,,,,,0,15,15,15,,,,,,,,,,,,,,,,,,,,,,,,,,,,,,,,,,,,,,,,,,,,,,,,,,,,,,,,,,,,,,,,,1.7268518507480621,0.9593424000195228,613.4941510999925,None,ScrollUp,정답입니다,613.4941510999925,None,613.4941510999925,None,613.4941510999925,None,613.4941510999925,None,614.335000400024,None,614.335000400024,614.8350458000205,,,,,,,,,,,,,,,,110,2023-04-04_15h14.14.720,FishGame,2022.1.1,59.82378306692553,
,17,나를 보내줘,6,Green,A,0,0,ScrollUp,ScrollDown,Green.png,5,NonTarget,NonTarget,,,,,0,0,0,0,,,,,,,,,,,,,,,,,,,,,,,,,,,,,0,16,16,16,,,,,,,,,,,,,,,,,,,,,,,,,,,,,,,,,,,,,,,,,,,,,,,,,,,,,,,,,,,,,,,,,1.6481481517354646,0.9818625000189058,615.448051400017,None,ScrollUp,정답입니다,615.448051400017,None,615.448051400017,None,615.448051400017,None,615.448051400017,None,616.3374158000224,None,616.3374158000224,616.8373664999963,,,,,,,,,,,,,,,,110,2023-04-04_15h14.14.720,FishGame,2022.1.1,59.82378306692553,
,18,넌 협조적이야,1,Green,A,5.625,5.666666666666667,ScrollDown,ScrollUp,Green.png,5,Positive,Congruent,,,,,0,0,0,0,,,,,,,,,,,,,,,,,,,,,,,,,,,,,0,17,17,17,,,,,,,,,,,,,,,,,,,,,,,,,,,,,,,,,,,,,,,,,,,,,,,,,,,,,,,,,,,,,,,,,1.336419758697351,1.0154535000328906,617.4569212000351,None,ScrollDown,정답입니다,617.4569212000351,None,617.4569212000351,None,617.4569212000351,None,617.4569212000351,None,618.3706929000327,None,618.3706929000327,618.8737195000285,,,,,,,,,,,,,,,,110,2023-04-04_15h14.14.720,FishGame,2022.1.1,59.82378306692553,
,19,나를 데려가줘,6,Orange,B,0,0,ScrollDown,ScrollUp,Orange.png,5,NonTarget,NonTarget,,,,,0,0,0,0,,,,,,,,,,,,,,,,,,,,,,,,,,,,,0,18,18,18,,,,,,,,,,,,,,,,,,,,,,,,,,,,,,,,,,,,,,,,,,,,,,,,,,,,,,,,,,,,,,,,,1.2839506218830743,1.2464905999950133,619.4907178999856,None,ScrollDown,정답입니다,619.4907178999856,None,619.4907178999856,None,619.4907178999856,None,619.4907178999856,None,620.637211800029,None,620.637211800029,621.1372185000218,,,,,,,,,,,,,,,,110,2023-04-04_15h14.14.720,FishGame,2022.1.1,59.82378306692553,
,20,넌 몰인정해,5,Orange,B,2.541666666666667,2.066666666666667,ScrollUp,ScrollDown,Orange.png,5,Negative,Congruent,,,,,0,0,0,0,,,,,,,,,,,,,,,,,,,,,,,,,,,,,0,19,19,19,,,,,,,,,,,,,,,,,,,,,,,,,,,,,,,,,,,,,,,,,,,,,,,,,,,,,,,,,,,,,,,,,1.5756172835826874,1.0616246000281535,621.7648094000178,None,ScrollUp,정답입니다,621.7648094000178,None,621.7648094000178,None,621.7648094000178,None,621.7648094000178,None,622.7204850999988,None,622.7204850999988,623.2204765999923,,,,,,,,,,,,,,,,110,2023-04-04_15h14.14.720,FishGame,2022.1.1,59.82378306692553,
,21,나를 데려가줘,6,Orange,B,0,0,ScrollDown,ScrollUp,Orange.png,5,NonTarget,NonTarget,,,,,0,0,0,0,,,,,,,,,,,,,,,,,,,,,,,,,,,,,0,20,20,20,,,,,,,,,,,,,,,,,,,,,,,,,,,,,,,,,,,,,,,,,,,,,,,,,,,,,,,,,,,,,,,,,1.28086419403553,0.9263828000403009,623.8426965000108,None,ScrollDown,정답입니다,623.8426965000108,None,623.8426965000108,None,623.8426965000108,None,623.8426965000108,None,624.6704148999997,None,624.6704148999997,625.1703681999934,,,,,,,,,,,,,,,,110,2023-04-04_15h14.14.720,FishGame,2022.1.1,59.82378306692553,
,22,넌 순진해,3,Orange,B,4.125,4.166666666666667,ScrollUp,ScrollDown,Orange.png,5,Neutral,Neutral,,,,,0,0,0,0,,,,,,,,,,,,,,,,,,,,,,,,,,,,,0,21,21,21,,,,,,,,,,,,,,,,,,,,,,,,,,,,,,,,,,,,,,,,,,,,,,,,,,,,,,,,,,,,,,,,,1.6558641965190568,0.8146343999542296,625.7871176000335,None,ScrollUp,정답입니다,625.7871176000335,None,625.7871176000335,None,625.7871176000335,None,625.7871176000335,None,626.5037393000093,None,626.5037393000093,627.0037441999884,,,,,,,,,,,,,,,,110,2023-04-04_15h14.14.720,FishGame,2022.1.1,59.82378306692553,
