name,TrialNum,Word,WordCategory,FishType,WordList,WordValence,WordReputation,CorrectResp,IncorrectResp,FishTypeFile,Round,WordType,Condition,LoopforOrange.thisRepN,LoopforOrange.thisTrialN,LoopforOrange.thisN,LoopforOrange.thisIndex,OrangeInstLoop.thisRepN,OrangeInstLoop.thisTrialN,OrangeInstLoop.thisN,OrangeInstLoop.thisIndex,OrangePrac.thisRepN,OrangePrac.thisTrialN,OrangePrac.thisN,OrangePrac.thisIndex,temp1.thisRepN,temp1.thisTrialN,temp1.thisN,temp1.thisIndex,OrangeRound1.thisRepN,OrangeRound1.thisTrialN,OrangeRound1.thisN,OrangeRound1.thisIndex,OrangeRound2.thisRepN,OrangeRound2.thisTrialN,OrangeRound2.thisN,OrangeRound2.thisIndex,OrangeRound3.thisRepN,OrangeRound3.thisTrialN,OrangeRound3.thisN,OrangeRound3.thisIndex,OrangeRound4.thisRepN,OrangeRound4.thisTrialN,OrangeRound4.thisN,OrangeRound4.thisIndex,OrangeRound5.thisRepN,OrangeRound5.thisTrialN,OrangeRound5.thisN,OrangeRound5.thisIndex,LoopForGreen.thisRepN,LoopForGreen.thisTrialN,LoopForGreen.thisN,LoopForGreen.thisIndex,text_2.started,text_2.stopped,text_3.started,text_3.stopped,key_resp.keys,key_resp.rt,key_resp.started,key_resp.stopped,PassI_2.started,PassI_2.stopped,PassInst_2.keys,PassInst_2.rt,PassInst_2.started,PassInst_2.stopped,mouse_2.x,mouse_2.y,mouse_2.leftButton,mouse_2.midButton,mouse_2.rightButton,mouse_2.started,mouse_2.stopped,image.started,image.stopped,text_5.started,text_5.stopped,text_6.started,text_6.stopped,text_7.started,text_7.stopped,text_8.started,text_8.stopped,slider_2.response,slider_2.rt,slider_2.started,slider_2.stopped,Response_2,Feedback_2,BackGround_2.started,BackGround_2.stopped,Fish_2.started,Fish_2.stopped,WordBox_2.started,WordBox_2.stopped,Words_2.started,Words_2.stopped,BackGround_Feedback_2.started,BackGround_Feedback_2.stopped,Feedbacks_2.started,Feedbacks_2.stopped,Continue_or_not.keys,Continue_or_not.rt,Continue_or_not.started,Continue_or_not.stopped,image_3.started,image_3.stopped,mouse_3.x,mouse_3.y,mouse_3.leftButton,mouse_3.midButton,mouse_3.rightButton,mouse_3.started,mouse_3.stopped,startmain.started,startmain.stopped,slider.response,slider.rt,slider.started,slider.stopped,Response,Feedback,BackGround.started,BackGround.stopped,Fish.started,Fish.stopped,WordBox.started,WordBox.stopped,Words.started,Words.stopped,BackGround_Feedback.started,BackGround_Feedback.stopped,Feedbacks.started,Feedbacks.stopped,text.started,text.stopped,break_interval.started,break_interval.stopped,mouse.x,mouse.y,mouse.leftButton,mouse.midButton,mouse.rightButton,mouse.started,mouse.stopped,stratnextround.started,stratnextround.stopped,endgame.started,endgame.stopped,participant,date,expName,psychopyVersion,frameRate,
,,,,,,,,,,,,,,,,,,,,,,,,,,,,,,,,,,,,,,,,,,,,,,,,,,,,,,17.29864200000884,None,17.29864200000884,None,space,2.295055599999614,17.79222119995393,None,,,,,,,,,,,,,,,,,,,,,,,,,,,,,,,,,,,,,,,,,,,,,,,,,,,,,,,,,,,,,,,,,,,,,,,,,,,,,,,,,,,,,,,,,,111,2023-04-04_17h37.09.802,FishGame,2022.1.1,61.139269154323436,
물고기과제_instruction(참가자용)OrangeVersion.mp4,,,,,,,,,,,,,,0,0,0,0,0,0,0,0,,,,,,,,,,,,,,,,,,,,,,,,,,,,,,,,,,,,,,,,,92.0573290999746,None,n,1.8956203000270762,92.0573290999746,None,,,,,,,,,,,,,,,,,,,,,,,,,,,,,,,,,,,,,,,,,,,,,,,,,,,,,,,,,,,,,,,,,,,,,,,,,,,,,,,,,,,,111,2023-04-04_17h37.09.802,FishGame,2022.1.1,61.139269154323436,
,1,넌 교활해,5,Green,B,2.333333333333333,2.133333333333333,ScrollUp,ScrollDown,Green.png,practice,,,0,0,0,0,,,,,0,0,0,0,0,0,0,0,,,,,,,,,,,,,,,,,,,,,,,,,,,,,,,,,,,,,,,0.050925925,-0.2324074,1,0,0,0.5106909099849872,None,93.97387290000916,None,97.50190599996131,99.00392709998414,99.03728589997627,99.9904428999871,100.0404542000033,101.0040267999866,100.98732209997252,None,1.8040123482545216,1.7188765999744646,102.27206129999831,None,ScrollUp,정답입니다,102.27206129999831,None,102.27206129999831,None,102.27206129999831,None,102.27206129999831,None,103.68468319997191,None,103.68468319997191,104.18562780000502,,,,,,,,,,,,,,,,,,,,,,,,,,,,,,,,,,,,,,,,,,,,,,,,,111,2023-04-04_17h37.09.802,FishGame,2022.1.1,61.139269154323436,
,2,넌 슬기로워,2,Orange,A,6.166666666666667,4.1,ScrollDown,ScrollUp,Orange.png,practice,,,0,0,0,0,,,,,0,0,0,0,0,1,1,1,,,,,,,,,,,,,,,,,,,,,,,,,,,,,,,,,,,,,,,,,,,,,,,,,,,,,,,,1,1.3170282000210136,104.810027599975,None,ScrollDown,정답입니다,104.810027599975,None,104.810027599975,None,104.810027599975,None,104.810027599975,None,106.02051790000405,None,106.02051790000405,106.52061489998596,,,,,,,,,,,,,,,,,,,,,,,,,,,,,,,,,,,,,,,,,,,,,,,,,111,2023-04-04_17h37.09.802,FishGame,2022.1.1,61.139269154323436,
,3,나를 보내줘,6,Orange,A,0,0,ScrollUp,ScrollDown,Orange.png,practice,,,0,0,0,0,,,,,0,0,0,0,0,2,2,2,,,,,,,,,,,,,,,,,,,,,,,,,,,,,,,,,,,,,,,,,,,,,,,,,,,,,,,,2,1.416234300006181,107.14433199999621,None,ScrollUp,정답입니다,107.14433199999621,None,107.14433199999621,None,107.14433199999621,None,107.14433199999621,None,108.45356979995267,None,108.45356979995267,108.95357069995953,,,,,,,,,,,,,,,,,,,,,,,,,,,,,,,,,,,,,,,,,,,,,,,,,111,2023-04-04_17h37.09.802,FishGame,2022.1.1,61.139269154323436,
,4,나를 데려가줘,6,Green,B,0,0,ScrollDown,ScrollUp,Green.png,practice,,,0,0,0,0,,,,,0,0,0,0,0,3,3,3,,,,,,,,,,,,,,,,,,,,,,,,,,,,,,,,,,,,,,,,,,,,,,,,,,,,,,,,1.9459876318772633,1.8976359000080265,109.57383239996852,None,ScrollUp,오답입니다,109.57383239996852,None,109.57383239996852,None,109.57383239996852,None,109.57383239996852,None,111.36792140000034,None,111.36792140000034,111.87035159999505,,,,,,,,,,,,,,,,,,,,,,,,,,,,,,,,,,,,,,,,,,,,,,,,,111,2023-04-04_17h37.09.802,FishGame,2022.1.1,61.139269154323436,
,1,넌 교활해,5,Green,B,2.333333333333333,2.133333333333333,ScrollUp,ScrollDown,Green.png,practice,,,0,0,0,0,,,,,0,0,0,0,,,,,,,,,,,,,,,,,,,,,,,,,,,,,,,,,,,,,,,,,,,,,,,,,,,,,,,,,,,,,,,,,,,,,,,,,,,,,,y,6.131179500021972,112.3679051999934,None,112.3679051999934,None,,,,,,,,,,,,,,,,,,,,,,,,,,,,,,,,,,,,,,,,,,,111,2023-04-04_17h37.09.802,FishGame,2022.1.1,61.139269154323436,
,1,넌 교활해,5,Green,B,2.333333333333333,2.133333333333333,ScrollUp,ScrollDown,Green.png,practice,,,0,0,0,0,,,,,0,1,1,1,0,0,0,0,,,,,,,,,,,,,,,,,,,,,,,,,,,,,,,,,,,,,,,,,,,,,,,,,,,,,,,,1.904320980111758,1.4925628999480978,118.64694319997216,None,ScrollUp,정답입니다,118.64694319997216,None,118.64694319997216,None,118.64694319997216,None,118.64694319997216,None,120.03668449999532,None,120.03668449999532,120.53671650000615,,,,,,,,,,,,,,,,,,,,,,,,,,,,,,,,,,,,,,,,,,,,,,,,,111,2023-04-04_17h37.09.802,FishGame,2022.1.1,61.139269154323436,
,2,넌 슬기로워,2,Orange,A,6.166666666666667,4.1,ScrollDown,ScrollUp,Orange.png,practice,,,0,0,0,0,,,,,0,1,1,1,0,1,1,1,,,,,,,,,,,,,,,,,,,,,,,,,,,,,,,,,,,,,,,,,,,,,,,,,,,,,,,,1.0339506367842357,1.0813851000275463,121.15653919999022,None,ScrollDown,정답입니다,121.15653919999022,None,121.15653919999022,None,121.15653919999022,None,121.15653919999022,None,122.13665870000841,None,122.13665870000841,122.63700250000693,,,,,,,,,,,,,,,,,,,,,,,,,,,,,,,,,,,,,,,,,,,,,,,,,111,2023-04-04_17h37.09.802,FishGame,2022.1.1,61.139269154323436,
,3,나를 보내줘,6,Orange,A,0,0,ScrollUp,ScrollDown,Orange.png,practice,,,0,0,0,0,,,,,0,1,1,1,0,2,2,2,,,,,,,,,,,,,,,,,,,,,,,,,,,,,,,,,,,,,,,,,,,,,,,,,,,,,,,,1.7685185273488362,1.3148573999642394,123.2557537999819,None,ScrollUp,정답입니다,123.2557537999819,None,123.2557537999819,None,123.2557537999819,None,123.2557537999819,None,124.46788259997265,None,124.46788259997265,124.9699232999701,,,,,,,,,,,,,,,,,,,,,,,,,,,,,,,,,,,,,,,,,,,,,,,,,111,2023-04-04_17h37.09.802,FishGame,2022.1.1,61.139269154323436,
,4,나를 데려가줘,6,Green,B,0,0,ScrollDown,ScrollUp,Green.png,practice,,,0,0,0,0,,,,,0,1,1,1,0,3,3,3,,,,,,,,,,,,,,,,,,,,,,,,,,,,,,,,,,,,,,,,,,,,,,,,,,,,,,,,1.90586419403553,1.5999171999865212,125.58777099999133,None,ScrollUp,오답입니다,125.58777099999133,None,125.58777099999133,None,125.58777099999133,None,125.58777099999133,None,127.08658659999492,None,127.08658659999492,127.58658989996184,,,,,,,,,,,,,,,,,,,,,,,,,,,,,,,,,,,,,,,,,,,,,,,,,111,2023-04-04_17h37.09.802,FishGame,2022.1.1,61.139269154323436,
,2,넌 슬기로워,2,Orange,A,6.166666666666667,4.1,ScrollDown,ScrollUp,Orange.png,practice,,,0,0,0,0,,,,,0,1,1,1,,,,,,,,,,,,,,,,,,,,,,,,,,,,,,,,,,,,,,,,,,,,,,,,,,,,,,,,,,,,,,,,,,,,,,,,,,,,,,y,8.907128099992406,128.0897246999666,None,128.0897246999666,None,,,,,,,,,,,,,,,,,,,,,,,,,,,,,,,,,,,,,,,,,,,111,2023-04-04_17h37.09.802,FishGame,2022.1.1,61.139269154323436,
,1,넌 교활해,5,Green,B,2.333333333333333,2.133333333333333,ScrollUp,ScrollDown,Green.png,practice,,,0,0,0,0,,,,,0,2,2,2,0,0,0,0,,,,,,,,,,,,,,,,,,,,,,,,,,,,,,,,,,,,,,,,,,,,,,,,,,,,,,,,2,1.6772918999777175,137.1453888999531,None,ScrollUp,정답입니다,137.1453888999531,None,137.1453888999531,None,137.1453888999531,None,137.1453888999531,None,138.71959299995797,None,138.71959299995797,139.21958069998072,,,,,,,,,,,,,,,,,,,,,,,,,,,,,,,,,,,,,,,,,,,,,,,,,111,2023-04-04_17h37.09.802,FishGame,2022.1.1,61.139269154323436,
,2,넌 슬기로워,2,Orange,A,6.166666666666667,4.1,ScrollDown,ScrollUp,Orange.png,practice,,,0,0,0,0,,,,,0,2,2,2,0,1,1,1,,,,,,,,,,,,,,,,,,,,,,,,,,,,,,,,,,,,,,,,,,,,,,,,,,,,,,,,1,1.298522100027185,139.83944869996049,None,ScrollDown,정답입니다,139.83944869996049,None,139.83944869996049,None,139.83944869996049,None,139.83944869996049,None,141.03641219995916,None,141.03641219995916,141.5368037999724,,,,,,,,,,,,,,,,,,,,,,,,,,,,,,,,,,,,,,,,,,,,,,,,,111,2023-04-04_17h37.09.802,FishGame,2022.1.1,61.139269154323436,
,3,나를 보내줘,6,Orange,A,0,0,ScrollUp,ScrollDown,Orange.png,practice,,,0,0,0,0,,,,,0,2,2,2,0,2,2,2,,,,,,,,,,,,,,,,,,,,,,,,,,,,,,,,,,,,,,,,,,,,,,,,,,,,,,,,1.8904321044683456,1.3482514000497758,142.1555542999995,None,ScrollUp,정답입니다,142.1555542999995,None,142.1555542999995,None,142.1555542999995,None,142.1555542999995,None,143.40278269996634,None,143.40278269996634,143.9027889999561,,,,,,,,,,,,,,,,,,,,,,,,,,,,,,,,,,,,,,,,,,,,,,,,,111,2023-04-04_17h37.09.802,FishGame,2022.1.1,61.139269154323436,
,4,나를 데려가줘,6,Green,B,0,0,ScrollDown,ScrollUp,Green.png,practice,,,0,0,0,0,,,,,0,2,2,2,0,3,3,3,,,,,,,,,,,,,,,,,,,,,,,,,,,,,,,,,,,,,,,,,,,,,,,,,,,,,,,,1,1.5654911999590695,144.52270239999052,None,ScrollDown,정답입니다,144.52270239999052,None,144.52270239999052,None,144.52270239999052,None,144.52270239999052,None,145.98646099999314,None,145.98646099999314,146.48611100000562,,,,,,,,,,,,,,,,,,,,,,,,,,,,,,,,,,,,,,,,,,,,,,,,,111,2023-04-04_17h37.09.802,FishGame,2022.1.1,61.139269154323436,
,3,나를 보내줘,6,Orange,A,0,0,ScrollUp,ScrollDown,Orange.png,practice,,,0,0,0,0,,,,,0,2,2,2,,,,,,,,,,,,,,,,,,,,,,,,,,,,,,,,,,,,,,,,,,,,,,,,,,,,,,,,,,,,,,,,,,,,,,,,,,,,,,n,5.700479699997231,146.98614890000317,None,146.98614890000317,None,,,,,,,,,,,,,,,,,,,,,,,,,,,,,,,,,,,,,,,,,,,111,2023-04-04_17h37.09.802,FishGame,2022.1.1,61.139269154323436,
,1,넌 따뜻해,1,Green,B,6.083333333333333,5.6,ScrollUp,ScrollDown,Green.png,1,Positive,Incongruent,0,0,0,0,,,,,,,,,,,,,0,0,0,0,,,,,,,,,,,,,,,,,,,,,,,,,,,,,,,,,,,,,,,,,,,,154.8859938000096,156.38614829996368,156.41941589995986,157.37259469996206,157.40582909999648,158.36935079999967,158.36935079999967,None,,,,,,,,,,,,,,,,,,,,,,,,,0.075925924,-0.12222222,1,0,0,0.3150341099826619,None,152.71917810000014,None,2,1.8001651000231504,159.66060249996372,None,ScrollUp,정답입니다,159.66060249996372,None,159.66060249996372,None,159.66060249996372,None,159.66060249996372,None,161.15012919995934,None,161.15012919995934,161.65011230000528,,,,,,,,,,,,,,,,111,2023-04-04_17h37.09.802,FishGame,2022.1.1,61.139269154323436,
,2,넌 기품있어,2,Green,B,5.791666666666668,4.5,ScrollUp,ScrollDown,Green.png,1,Positive,Incongruent,0,0,0,0,,,,,,,,,,,,,0,1,1,1,,,,,,,,,,,,,,,,,,,,,,,,,,,,,,,,,,,,,,,,,,,,,,,,,,,,,,,,,,,,,,,,,,,,,,,,,,,,,,,,,,,,,2,1.4166097000124864,162.28423940000357,None,ScrollUp,정답입니다,162.28423940000357,None,162.28423940000357,None,162.28423940000357,None,162.28423940000357,None,163.58595579996472,None,163.58595579996472,164.08587059995625,,,,,,,,,,,,,,,,111,2023-04-04_17h37.09.802,FishGame,2022.1.1,61.139269154323436,
,3,나를 보내줘,6,Orange,A,0,0,ScrollUp,ScrollDown,Orange.png,1,NonTarget,NonTarget,0,0,0,0,,,,,,,,,,,,,0,2,2,2,,,,,,,,,,,,,,,,,,,,,,,,,,,,,,,,,,,,,,,,,,,,,,,,,,,,,,,,,,,,,,,,,,,,,,,,,,,,,,,,,,,,,2,1.383201899996493,164.71533109998563,None,ScrollUp,정답입니다,164.71533109998563,None,164.71533109998563,None,164.71533109998563,None,164.71533109998563,None,165.9857733999961,None,165.9857733999961,166.48566790000768,,,,,,,,,,,,,,,,111,2023-04-04_17h37.09.802,FishGame,2022.1.1,61.139269154323436,
,4,넌 수동적이야,4,Orange,A,2.833333333333333,2.933333333333333,ScrollDown,ScrollUp,Orange.png,1,Negative,Incongruent,0,0,0,0,,,,,,,,,,,,,0,3,3,3,,,,,,,,,,,,,,,,,,,,,,,,,,,,,,,,,,,,,,,,,,,,,,,,,,,,,,,,,,,,,,,,,,,,,,,,,,,,,,,,,,,,,1,1.3317108000046574,167.11568759998772,None,ScrollDown,정답입니다,167.11568759998772,None,167.11568759998772,None,167.11568759998772,None,167.11568759998772,None,168.3335667999927,None,168.3335667999927,168.83599369996227,,,,,,,,,,,,,,,,111,2023-04-04_17h37.09.802,FishGame,2022.1.1,61.139269154323436,
,5,넌 사심이 없어,3,Green,B,4.916666666666666,4.333333333333333,ScrollUp,ScrollDown,Green.png,1,Neutral,Neutral,0,0,0,0,,,,,,,,,,,,,0,4,4,4,,,,,,,,,,,,,,,,,,,,,,,,,,,,,,,,,,,,,,,,,,,,,,,,,,,,,,,,,,,,,,,,,,,,,,,,,,,,,,,,,,,,,2,1.4663504000054672,169.46109949995298,None,ScrollUp,정답입니다,169.46109949995298,None,169.46109949995298,None,169.46109949995298,None,169.46109949995298,None,170.81896499998402,None,170.81896499998402,171.3189109999803,,,,,,,,,,,,,,,,111,2023-04-04_17h37.09.802,FishGame,2022.1.1,61.139269154323436,
,6,넌 헤퍼,5,Orange,A,2.458333333333334,2.233333333333333,ScrollDown,ScrollUp,Orange.png,1,Negative,Incongruent,0,0,0,0,,,,,,,,,,,,,0,5,5,5,,,,,,,,,,,,,,,,,,,,,,,,,,,,,,,,,,,,,,,,,,,,,,,,,,,,,,,,,,,,,,,,,,,,,,,,,,,,,,,,,,,,,1,1.6124653000151739,171.94439879996935,None,ScrollDown,정답입니다,171.94439879996935,None,171.94439879996935,None,171.94439879996935,None,171.94439879996935,None,173.44989980000537,None,173.44989980000537,173.94986649998464,,,,,,,,,,,,,,,,111,2023-04-04_17h37.09.802,FishGame,2022.1.1,61.139269154323436,
,7,넌 말쑥해,3,Orange,A,4.833333333333334,4.333333333333333,ScrollDown,ScrollUp,Orange.png,1,Neutral,Neutral,0,0,0,0,,,,,,,,,,,,,0,6,6,6,,,,,,,,,,,,,,,,,,,,,,,,,,,,,,,,,,,,,,,,,,,,,,,,,,,,,,,,,,,,,,,,,,,,,,,,,,,,,,,,,,,,,1,1.335611600021366,174.58240229997318,None,ScrollDown,정답입니다,174.58240229997318,None,174.58240229997318,None,174.58240229997318,None,174.58240229997318,None,175.8026825999841,None,175.8026825999841,176.30226359999506,,,,,,,,,,,,,,,,111,2023-04-04_17h37.09.802,FishGame,2022.1.1,61.139269154323436,
,8,넌 투덜거려,5,Green,B,2.541666666666667,2.266666666666667,ScrollUp,ScrollDown,Green.png,1,Negative,Congruent,0,0,0,0,,,,,,,,,,,,,0,7,7,7,,,,,,,,,,,,,,,,,,,,,,,,,,,,,,,,,,,,,,,,,,,,,,,,,,,,,,,,,,,,,,,,,,,,,,,,,,,,,,,,,,,,,2,1.3955155000439845,176.92891660000896,None,ScrollUp,정답입니다,176.92891660000896,None,176.92891660000896,None,176.92891660000896,None,176.92891660000896,None,178.2164242999861,None,178.2164242999861,178.71641619998263,,,,,,,,,,,,,,,,111,2023-04-04_17h37.09.802,FishGame,2022.1.1,61.139269154323436,
,9,넌 적극적이야,1,Orange,A,5.708333333333333,5.533333333333333,ScrollDown,ScrollUp,Orange.png,1,Positive,Congruent,0,0,0,0,,,,,,,,,,,,,0,8,8,8,,,,,,,,,,,,,,,,,,,,,,,,,,,,,,,,,,,,,,,,,,,,,,,,,,,,,,,,,,,,,,,,,,,,,,,,,,,,,,,,,,,,,1,1.034031099989079,179.3412141999579,None,ScrollDown,정답입니다,179.3412141999579,None,179.3412141999579,None,179.3412141999579,None,179.3412141999579,None,180.26884809997864,None,180.26884809997864,180.7688178999815,,,,,,,,,,,,,,,,111,2023-04-04_17h37.09.802,FishGame,2022.1.1,61.139269154323436,
,10,넌 재미없어,4,Green,B,2.625,2.966666666666667,ScrollUp,ScrollDown,Green.png,1,Negative,Congruent,0,0,0,0,,,,,,,,,,,,,0,9,9,9,,,,,,,,,,,,,,,,,,,,,,,,,,,,,,,,,,,,,,,,,,,,,,,,,,,,,,,,,,,,,,,,,,,,,,,,,,,,,,,,,,,,,2,1.316576300014276,181.39302009996027,None,ScrollUp,정답입니다,181.39302009996027,None,181.39302009996027,None,181.39302009996027,None,181.39302009996027,None,182.60212900000624,None,182.60212900000624,183.1019564999733,,,,,,,,,,,,,,,,111,2023-04-04_17h37.09.802,FishGame,2022.1.1,61.139269154323436,
,11,넌 명석해,2,Orange,A,5.875,4.033333333333333,ScrollDown,ScrollUp,Orange.png,1,Positive,Congruent,0,0,0,0,,,,,,,,,,,,,0,10,10,10,,,,,,,,,,,,,,,,,,,,,,,,,,,,,,,,,,,,,,,,,,,,,,,,,,,,,,,,,,,,,,,,,,,,,,,,,,,,,,,,,,,,,1,1.1001098999986425,183.7270304999547,None,ScrollDown,정답입니다,183.7270304999547,None,183.7270304999547,None,183.7270304999547,None,183.7270304999547,None,184.71871079999255,None,184.71871079999255,185.21861429995624,,,,,,,,,,,,,,,,111,2023-04-04_17h37.09.802,FishGame,2022.1.1,61.139269154323436,
,12,나를 데려가줘,6,Green,B,0,0,ScrollDown,ScrollUp,Green.png,1,NonTarget,NonTarget,0,0,0,0,,,,,,,,,,,,,0,11,11,11,,,,,,,,,,,,,,,,,,,,,,,,,,,,,,,,,,,,,,,,,,,,,,,,,,,,,,,,,,,,,,,,,,,,,,,,,,,,,,,,,,,,,1,1.3630677000037394,185.853178499965,None,ScrollDown,정답입니다,185.853178499965,None,185.853178499965,None,185.853178499965,None,185.853178499965,None,187.10203720000573,None,187.10203720000573,187.6019735999871,,,,,,,,,,,,,,,,111,2023-04-04_17h37.09.802,FishGame,2022.1.1,61.139269154323436,
,13,넌 소심해,4,Orange,A,3,3.1,ScrollDown,ScrollUp,Orange.png,1,Negative,Incongruent,0,0,0,0,,,,,,,,,,,,,0,12,12,12,,,,,,,,,,,,,,,,,,,,,,,,,,,,,,,,,,,,,,,,,,,,,,,,,,,,,,,,,,,,,,,,,,,,,,,,,,,,,,,,,,,,,1,1.2980700999614783,188.23181759996805,None,ScrollDown,정답입니다,188.23181759996805,None,188.23181759996805,None,188.23181759996805,None,188.23181759996805,None,189.41852649999782,None,189.41852649999782,189.91847459995188,,,,,,,,,,,,,,,,111,2023-04-04_17h37.09.802,FishGame,2022.1.1,61.139269154323436,
,14,넌 합리적이야,2,Orange,A,5.583333333333333,4.733333333333333,ScrollDown,ScrollUp,Orange.png,1,Positive,Congruent,0,0,0,0,,,,,,,,,,,,,0,13,13,13,,,,,,,,,,,,,,,,,,,,,,,,,,,,,,,,,,,,,,,,,,,,,,,,,,,,,,,,,,,,,,,,,,,,,,,,,,,,,,,,,,,,,1,0.9666450999793597,190.5447368999594,None,ScrollDown,정답입니다,190.5447368999594,None,190.5447368999594,None,190.5447368999594,None,190.5447368999594,None,191.40195390000008,None,191.40195390000008,191.9018663999741,,,,,,,,,,,,,,,,111,2023-04-04_17h37.09.802,FishGame,2022.1.1,61.139269154323436,
,15,넌 무자비해,5,Green,B,2.333333333333333,2.1,ScrollUp,ScrollDown,Green.png,1,Negative,Congruent,0,0,0,0,,,,,,,,,,,,,0,14,14,14,,,,,,,,,,,,,,,,,,,,,,,,,,,,,,,,,,,,,,,,,,,,,,,,,,,,,,,,,,,,,,,,,,,,,,,,,,,,,,,,,,,,,2,1.0003245999687351,192.5431878999807,None,ScrollUp,정답입니다,192.5431878999807,None,192.5431878999807,None,192.5431878999807,None,192.5431878999807,None,193.4350904999883,None,193.4350904999883,193.93547409999883,,,,,,,,,,,,,,,,111,2023-04-04_17h37.09.802,FishGame,2022.1.1,61.139269154323436,
,16,나를 보내줘,6,Orange,A,0,0,ScrollUp,ScrollDown,Orange.png,1,NonTarget,NonTarget,0,0,0,0,,,,,,,,,,,,,0,15,15,15,,,,,,,,,,,,,,,,,,,,,,,,,,,,,,,,,,,,,,,,,,,,,,,,,,,,,,,,,,,,,,,,,,,,,,,,,,,,,,,,,,,,,2,1.1484834000002593,194.55732099997113,None,ScrollUp,정답입니다,194.55732099997113,None,194.55732099997113,None,194.55732099997113,None,194.55732099997113,None,195.6018158000079,None,195.6018158000079,196.1017334999633,,,,,,,,,,,,,,,,111,2023-04-04_17h37.09.802,FishGame,2022.1.1,61.139269154323436,
,17,넌 현실적이야,3,Green,B,4.608695652173913,4.766666666666667,ScrollUp,ScrollDown,Green.png,1,Neutral,Neutral,0,0,0,0,,,,,,,,,,,,,0,16,16,16,,,,,,,,,,,,,,,,,,,,,,,,,,,,,,,,,,,,,,,,,,,,,,,,,,,,,,,,,,,,,,,,,,,,,,,,,,,,,,,,,,,,,2,0.9641332000028342,196.7255521999905,None,ScrollUp,정답입니다,196.7255521999905,None,196.7255521999905,None,196.7255521999905,None,196.7255521999905,None,197.5826842999668,None,197.5826842999668,198.08267319999868,,,,,,,,,,,,,,,,111,2023-04-04_17h37.09.802,FishGame,2022.1.1,61.139269154323436,
,18,넌 의리있어,1,Green,B,5.833333333333334,5.633333333333334,ScrollUp,ScrollDown,Green.png,1,Positive,Incongruent,0,0,0,0,,,,,,,,,,,,,0,17,17,17,,,,,,,,,,,,,,,,,,,,,,,,,,,,,,,,,,,,,,,,,,,,,,,,,,,,,,,,,,,,,,,,,,,,,,,,,,,,,,,,,,,,,2,0.9333989999722689,198.70208729995647,None,ScrollUp,정답입니다,198.70208729995647,None,198.70208729995647,None,198.70208729995647,None,198.70208729995647,None,199.53274599998258,None,199.53274599998258,200.0350960000069,,,,,,,,,,,,,,,,111,2023-04-04_17h37.09.802,FishGame,2022.1.1,61.139269154323436,
,19,넌 신경과민이야,5,Orange,A,2.541666666666667,2.166666666666667,ScrollDown,ScrollUp,Orange.png,1,Negative,Incongruent,0,0,0,0,,,,,,,,,,,,,0,18,18,18,,,,,,,,,,,,,,,,,,,,,,,,,,,,,,,,,,,,,,,,,,,,,,,,,,,,,,,,,,,,,,,,,,,,,,,,,,,,,,,,,,,,,1,0.9982151999720372,200.66451719996985,None,ScrollDown,정답입니다,200.66451719996985,None,200.66451719996985,None,200.66451719996985,None,200.66451719996985,None,201.55174179997994,None,201.55174179997994,202.05164679995505,,,,,,,,,,,,,,,,111,2023-04-04_17h37.09.802,FishGame,2022.1.1,61.139269154323436,
,20,넌 편안해,1,Orange,A,5.916666666666666,5.866666666666666,ScrollDown,ScrollUp,Orange.png,1,Positive,Congruent,0,0,0,0,,,,,,,,,,,,,0,19,19,19,,,,,,,,,,,,,,,,,,,,,,,,,,,,,,,,,,,,,,,,,,,,,,,,,,,,,,,,,,,,,,,,,,,,,,,,,,,,,,,,,,,,,1,0.9161198000074364,202.67708489997312,None,ScrollDown,정답입니다,202.67708489997312,None,202.67708489997312,None,202.67708489997312,None,202.67708489997312,None,203.48495819995878,None,203.48495819995878,203.98489819996757,,,,,,,,,,,,,,,,111,2023-04-04_17h37.09.802,FishGame,2022.1.1,61.139269154323436,
,21,넌 품위있어,2,Green,B,5.291666666666666,4.466666666666667,ScrollUp,ScrollDown,Green.png,1,Positive,Incongruent,0,0,0,0,,,,,,,,,,,,,0,20,20,20,,,,,,,,,,,,,,,,,,,,,,,,,,,,,,,,,,,,,,,,,,,,,,,,,,,,,,,,,,,,,,,,,,,,,,,,,,,,,,,,,,,,,1.8950617214043934,1.0427515999763273,204.6155515999999,None,ScrollUp,정답입니다,204.6155515999999,None,204.6155515999999,None,204.6155515999999,None,204.6155515999999,None,205.5492063999991,None,205.5492063999991,206.0492924999562,,,,,,,,,,,,,,,,111,2023-04-04_17h37.09.802,FishGame,2022.1.1,61.139269154323436,
,22,넌 빈틈없어,3,Orange,A,4.833333333333333,3.966666666666667,ScrollDown,ScrollUp,Orange.png,1,Neutral,Neutral,0,0,0,0,,,,,,,,,,,,,0,21,21,21,,,,,,,,,,,,,,,,,,,,,,,,,,,,,,,,,,,,,,,,,,,,,,,,,,,,,,,,,,,,,,,,,,,,,,,,,,,,,,,,,,,,,1,1.0476637000101618,206.6767589999945,None,ScrollDown,정답입니다,206.6767589999945,None,206.6767589999945,None,206.6767589999945,None,206.6767589999945,None,207.61587479995796,None,207.61587479995796,208.1182572999969,,,,,,,,,,,,,,,,111,2023-04-04_17h37.09.802,FishGame,2022.1.1,61.139269154323436,
,23,넌 상상력없어,4,Green,B,2.833333333333333,3.133333333333333,ScrollUp,ScrollDown,Green.png,1,Negative,Congruent,0,0,0,0,,,,,,,,,,,,,0,22,22,22,,,,,,,,,,,,,,,,,,,,,,,,,,,,,,,,,,,,,,,,,,,,,,,,,,,,,,,,,,,,,,,,,,,,,,,,,,,,,,,,,,,,,2,0.9646959999809042,208.74196650000522,None,ScrollUp,정답입니다,208.74196650000522,None,208.74196650000522,None,208.74196650000522,None,208.74196650000522,None,209.6016289999825,None,209.6016289999825,210.10191579995444,,,,,,,,,,,,,,,,111,2023-04-04_17h37.09.802,FishGame,2022.1.1,61.139269154323436,
,24,넌 지혜로워,2,Green,B,6.333333333333334,4.633333333333334,ScrollUp,ScrollDown,Green.png,1,Positive,Incongruent,0,0,0,0,,,,,,,,,,,,,0,23,23,23,,,,,,,,,,,,,,,,,,,,,,,,,,,,,,,,,,,,,,,,,,,,,,,,,,,,,,,,,,,,,,,,,,,,,,,,,,,,,,,,,,,,,1.9645061492919922,1.1978817000053823,210.72760639997432,None,ScrollUp,정답입니다,210.72760639997432,None,210.72760639997432,None,210.72760639997432,None,210.72760639997432,None,211.81807199999457,None,211.81807199999457,212.31809169996995,,,,,,,,,,,,,,,,111,2023-04-04_17h37.09.802,FishGame,2022.1.1,61.139269154323436,
,25,넌 시끄러워,4,Orange,A,2.833333333333333,3.033333333333333,ScrollDown,ScrollUp,Orange.png,1,Negative,Incongruent,0,0,0,0,,,,,,,,,,,,,0,24,24,24,,,,,,,,,,,,,,,,,,,,,,,,,,,,,,,,,,,,,,,,,,,,,,,,,,,,,,,,,,,,,,,,,,,,,,,,,,,,,,,,,,,,,1,0.8134454999817535,212.9560094999615,None,ScrollDown,정답입니다,212.9560094999615,None,212.9560094999615,None,212.9560094999615,None,212.9560094999615,None,213.64924509997945,None,213.64924509997945,214.1516862999997,,,,,,,,,,,,,,,,111,2023-04-04_17h37.09.802,FishGame,2022.1.1,61.139269154323436,
,26,넌 만사태평이야,3,Green,B,4,4.333333333333333,ScrollUp,ScrollDown,Green.png,1,Neutral,Neutral,0,0,0,0,,,,,,,,,,,,,0,25,25,25,,,,,,,,,,,,,,,,,,,,,,,,,,,,,,,,,,,,,,,,,,,,,,,,,,,,,,,,,,,,,,,,,,,,,,,,,,,,,,,,,,,,,2,0.9150235999841243,214.7765367999673,None,ScrollUp,정답입니다,214.7765367999673,None,214.7765367999673,None,214.7765367999673,None,214.7765367999673,None,215.5846157000051,None,215.5846157000051,216.08510550000938,,,,,,,,,,,,,,,,111,2023-04-04_17h37.09.802,FishGame,2022.1.1,61.139269154323436,
,27,넌 붙임성있어,1,Orange,A,5.708333333333333,5.633333333333334,ScrollDown,ScrollUp,Orange.png,1,Positive,Congruent,0,0,0,0,,,,,,,,,,,,,0,26,26,26,,,,,,,,,,,,,,,,,,,,,,,,,,,,,,,,,,,,,,,,,,,,,,,,,,,,,,,,,,,,,,,,,,,,,,,,,,,,,,,,,,,,,1.0108024775981903,0.8983599999919534,216.712689100008,None,ScrollDown,정답입니다,216.712689100008,None,216.712689100008,None,216.712689100008,None,216.712689100008,None,217.50128540000878,None,217.50128540000878,218.00128679996124,,,,,,,,,,,,,,,,111,2023-04-04_17h37.09.802,FishGame,2022.1.1,61.139269154323436,
,28,넌 영리해,2,Orange,A,6,4.033333333333333,ScrollDown,ScrollUp,Orange.png,1,Positive,Congruent,0,0,0,0,,,,,,,,,,,,,0,27,27,27,,,,,,,,,,,,,,,,,,,,,,,,,,,,,,,,,,,,,,,,,,,,,,,,,,,,,,,,,,,,,,,,,,,,,,,,,,,,,,,,,,,,,1,0.9144819000503048,218.62557969999034,None,ScrollDown,정답입니다,218.62557969999034,None,218.62557969999034,None,218.62557969999034,None,218.62557969999034,None,219.4324426999665,None,219.4324426999665,219.9345150999725,,,,,,,,,,,,,,,,111,2023-04-04_17h37.09.802,FishGame,2022.1.1,61.139269154323436,
,29,넌 열심이야,1,Green,B,6.041666666666667,5.833333333333333,ScrollUp,ScrollDown,Green.png,1,Positive,Incongruent,0,0,0,0,,,,,,,,,,,,,0,28,28,28,,,,,,,,,,,,,,,,,,,,,,,,,,,,,,,,,,,,,,,,,,,,,,,,,,,,,,,,,,,,,,,,,,,,,,,,,,,,,,,,,,,,,1.8209876517454784,0.9486062000505626,220.55769119999604,None,ScrollUp,정답입니다,220.55769119999604,None,220.55769119999604,None,220.55769119999604,None,220.55769119999604,None,221.40120929997647,None,221.40120929997647,221.9011794999824,,,,,,,,,,,,,,,,111,2023-04-04_17h37.09.802,FishGame,2022.1.1,61.139269154323436,
,30,넌 인기없어,4,Green,B,3,3.3,ScrollUp,ScrollDown,Green.png,1,Negative,Congruent,0,0,0,0,,,,,,,,,,,,,0,29,29,29,,,,,,,,,,,,,,,,,,,,,,,,,,,,,,,,,,,,,,,,,,,,,,,,,,,,,,,,,,,,,,,,,,,,,,,,,,,,,,,,,,,,,1.9212963084379833,0.8952972000115551,222.52452739997534,None,ScrollUp,정답입니다,222.52452739997534,None,222.52452739997534,None,222.52452739997534,None,222.52452739997534,None,223.31545999995433,None,223.31545999995433,223.81553129997337,,,,,,,,,,,,,,,,111,2023-04-04_17h37.09.802,FishGame,2022.1.1,61.139269154323436,
,31,넌 익살스러워,3,Orange,A,4.708333333333334,4.833333333333333,ScrollDown,ScrollUp,Orange.png,1,Neutral,Neutral,0,0,0,0,,,,,,,,,,,,,0,30,30,30,,,,,,,,,,,,,,,,,,,,,,,,,,,,,,,,,,,,,,,,,,,,,,,,,,,,,,,,,,,,,,,,,,,,,,,,,,,,,,,,,,,,,1.0895061641931534,0.8149669000413269,224.44020539999474,None,ScrollDown,정답입니다,224.44020539999474,None,224.44020539999474,None,224.44020539999474,None,224.44020539999474,None,225.14881739998236,None,225.14881739998236,225.64881669997703,,,,,,,,,,,,,,,,111,2023-04-04_17h37.09.802,FishGame,2022.1.1,61.139269154323436,
,32,넌 이기적이야,5,Green,B,2.291666666666667,2.333333333333333,ScrollUp,ScrollDown,Green.png,1,Negative,Congruent,0,0,0,0,,,,,,,,,,,,,0,31,31,31,,,,,,,,,,,,,,,,,,,,,,,,,,,,,,,,,,,,,,,,,,,,,,,,,,,,,,,,,,,,,,,,,,,,,,,,,,,,,,,,,,,,,1.6975308607021966,0.9671450000023469,226.27648619998945,None,ScrollUp,정답입니다,226.27648619998945,None,226.27648619998945,None,226.27648619998945,None,226.27648619998945,None,227.1346615999937,None,227.1346615999937,227.63519439997617,,,,,,,,,,,,,,,,111,2023-04-04_17h37.09.802,FishGame,2022.1.1,61.139269154323436,
,33,나를 데려가줘,6,Green,B,0,0,ScrollDown,ScrollUp,Green.png,1,NonTarget,NonTarget,0,0,0,0,,,,,,,,,,,,,0,32,32,32,,,,,,,,,,,,,,,,,,,,,,,,,,,,,,,,,,,,,,,,,,,,,,,,,,,,,,,,,,,,,,,,,,,,,,,,,,,,,,,,,,,,,1,1.064953199995216,228.25435239996295,None,ScrollDown,정답입니다,228.25435239996295,None,228.25435239996295,None,228.25435239996295,None,228.25435239996295,None,229.21768760000123,None,229.21768760000123,229.71763400000054,,,,,,,,,,,,,,,,111,2023-04-04_17h37.09.802,FishGame,2022.1.1,61.139269154323436,
,34,넌 기회주의자야,5,Orange,A,2.875,2.133333333333333,ScrollDown,ScrollUp,Orange.png,1,Negative,Incongruent,0,0,0,0,,,,,,,,,,,,,0,33,33,33,,,,,,,,,,,,,,,,,,,,,,,,,,,,,,,,,,,,,,,,,,,,,,,,,,,,,,,,,,,,,,,,,,,,,,,,,,,,,,,,,,,,,1,0.9983621999854222,230.3499887000071,None,ScrollDown,정답입니다,230.3499887000071,None,230.3499887000071,None,230.3499887000071,None,230.3499887000071,None,231.23434079997241,None,231.23434079997241,231.73490109998966,,,,,,,,,,,,,,,,111,2023-04-04_17h37.09.802,FishGame,2022.1.1,61.139269154323436,
,1,넌 미성숙해,4,Orange,A,3,3.2,ScrollDown,ScrollUp,Orange.png,2,Negative,Incongruent,0,0,0,0,,,,,,,,,,,,,,,,,0,0,0,0,,,,,,,,,,,,,,,,,,,,,,,,,,,,,,,,,,,,,,,,265.0001912000007,266.5003461999586,266.53373389999615,267.48369699995965,267.53373879997525,268.48422379995463,268.48422379995463,None,,,,,,,,,,,,,,,,,,,,,,,,,,,,,,,,,,1,0.9668931000051089,269.57382719998714,None,ScrollDown,정답입니다,269.57382719998714,None,269.57382719998714,None,269.57382719998714,None,269.57382719998714,None,270.43361169996206,None,270.43361169996206,270.9334794000024,232.23436889995355,None,232.23436889995355,None,0.24722221,-0.096296296,1,0,0,0.016173610056284815,None,262.2335565999965,None,,,111,2023-04-04_17h37.09.802,FishGame,2022.1.1,61.139269154323436,
,2,넌 반사회적이야,5,Green,B,2.416666666666667,2.033333333333333,ScrollUp,ScrollDown,Green.png,2,Negative,Congruent,0,0,0,0,,,,,,,,,,,,,,,,,0,1,1,1,,,,,,,,,,,,,,,,,,,,,,,,,,,,,,,,,,,,,,,,,,,,,,,,,,,,,,,,,,,,,,,,,,,,,,,,,,,,,,,,,1.7623456716537476,0.9960350000183098,271.5558194000041,None,ScrollUp,정답입니다,271.5558194000041,None,271.5558194000041,None,271.5558194000041,None,271.5558194000041,None,272.45003670000006,None,272.45003670000006,272.9500013999641,,,,,,,,,,,,,,,,111,2023-04-04_17h37.09.802,FishGame,2022.1.1,61.139269154323436,
,3,넌 유능해,2,Orange,A,6.208333333333333,4.433333333333334,ScrollDown,ScrollUp,Orange.png,2,Positive,Congruent,0,0,0,0,,,,,,,,,,,,,,,,,0,2,2,2,,,,,,,,,,,,,,,,,,,,,,,,,,,,,,,,,,,,,,,,,,,,,,,,,,,,,,,,,,,,,,,,,,,,,,,,,,,,,,,,,1,0.9148414999945089,273.5752621999709,None,ScrollDown,정답입니다,273.5752621999709,None,273.5752621999709,None,273.5752621999709,None,273.5752621999709,None,274.3834566999576,None,274.3834566999576,274.8833658999647,,,,,,,,,,,,,,,,111,2023-04-04_17h37.09.802,FishGame,2022.1.1,61.139269154323436,
,4,넌 능숙해,2,Green,B,5.666666666666667,4.733333333333333,ScrollUp,ScrollDown,Green.png,2,Positive,Incongruent,0,0,0,0,,,,,,,,,,,,,,,,,0,3,3,3,,,,,,,,,,,,,,,,,,,,,,,,,,,,,,,,,,,,,,,,,,,,,,,,,,,,,,,,,,,,,,,,,,,,,,,,,,,,,,,,,1.7746913582086563,0.9120908000040799,275.50868709996575,None,ScrollUp,정답입니다,275.50868709996575,None,275.50868709996575,None,275.50868709996575,None,275.50868709996575,None,276.3145604999736,None,276.3145604999736,276.81661669997266,,,,,,,,,,,,,,,,111,2023-04-04_17h37.09.802,FishGame,2022.1.1,61.139269154323436,
,5,넌 진부해,4,Green,B,2.458333333333333,3.166666666666667,ScrollUp,ScrollDown,Green.png,2,Negative,Congruent,0,0,0,0,,,,,,,,,,,,,,,,,0,4,4,4,,,,,,,,,,,,,,,,,,,,,,,,,,,,,,,,,,,,,,,,,,,,,,,,,,,,,,,,,,,,,,,,,,,,,,,,,,,,,,,,,1.5864197500050068,0.8813498000381514,277.43867060000775,None,ScrollUp,정답입니다,277.43867060000775,None,277.43867060000775,None,277.43867060000775,None,277.43867060000775,None,278.21658139996,None,278.21658139996,278.716756699956,,,,,,,,,,,,,,,,111,2023-04-04_17h37.09.802,FishGame,2022.1.1,61.139269154323436,
,6,나를 보내줘,6,Orange,A,0,0,ScrollUp,ScrollDown,Orange.png,2,NonTarget,NonTarget,0,0,0,0,,,,,,,,,,,,,,,,,0,5,5,5,,,,,,,,,,,,,,,,,,,,,,,,,,,,,,,,,,,,,,,,,,,,,,,,,,,,,,,,,,,,,,,,,,,,,,,,,,,,,,,,,1.8040123482545216,1.2168340000207536,279.33825239998987,None,ScrollUp,정답입니다,279.33825239998987,None,279.33825239998987,None,279.33825239998987,None,279.33825239998987,None,280.4500787999714,None,280.4500787999714,280.94994409999344,,,,,,,,,,,,,,,,111,2023-04-04_17h37.09.802,FishGame,2022.1.1,61.139269154323436,
,7,넌 엄격해,3,Orange,A,4.166666666666666,4.1,ScrollDown,ScrollUp,Orange.png,2,Neutral,Neutral,0,0,0,0,,,,,,,,,,,,,,,,,0,6,6,6,,,,,,,,,,,,,,,,,,,,,,,,,,,,,,,,,,,,,,,,,,,,,,,,,,,,,,,,,,,,,,,,,,,,,,,,,,,,,,,,,1.1728395173947017,0.914266099978704,281.5749744999921,None,ScrollDown,정답입니다,281.5749744999921,None,281.5749744999921,None,281.5749744999921,None,281.5749744999921,None,282.38112189999083,None,282.38112189999083,282.8811386000016,,,,,,,,,,,,,,,,111,2023-04-04_17h37.09.802,FishGame,2022.1.1,61.139269154323436,
,8,나를 보내줘,6,Orange,A,0,0,ScrollUp,ScrollDown,Orange.png,2,NonTarget,NonTarget,0,0,0,0,,,,,,,,,,,,,,,,,0,7,7,7,,,,,,,,,,,,,,,,,,,,,,,,,,,,,,,,,,,,,,,,,,,,,,,,,,,,,,,,,,,,,,,,,,,,,,,,,,,,,,,,,1.5216049375012517,0.9993377999635413,283.50510839995695,None,NoResponse,무응답입니다,283.50510839995695,None,283.50510839995695,None,283.50510839995695,None,283.50510839995695,None,284.3978245999897,None,284.3978245999897,284.899797399994,,,,,,,,,,,,,,,,111,2023-04-04_17h37.09.802,FishGame,2022.1.1,61.139269154323436,
,9,넌 대담해,3,Green,B,4.875,4.866666666666666,ScrollUp,ScrollDown,Green.png,2,Neutral,Neutral,0,0,0,0,,,,,,,,,,,,,,,,,0,8,8,8,,,,,,,,,,,,,,,,,,,,,,,,,,,,,,,,,,,,,,,,,,,,,,,,,,,,,,,,,,,,,,,,,,,,,,,,,,,,,,,,,1.9336419701576233,1.4624234000220895,285.52310779999243,None,ScrollUp,정답입니다,285.52310779999243,None,285.52310779999243,None,285.52310779999243,None,285.52310779999243,None,286.8808032000088,None,286.8808032000088,287.38153630000306,,,,,,,,,,,,,,,,111,2023-04-04_17h37.09.802,FishGame,2022.1.1,61.139269154323436,
,10,넌 꾸준해,1,Orange,A,5.916666666666668,5.8,ScrollDown,ScrollUp,Orange.png,2,Positive,Congruent,0,0,0,0,,,,,,,,,,,,,,,,,0,9,9,9,,,,,,,,,,,,,,,,,,,,,,,,,,,,,,,,,,,,,,,,,,,,,,,,,,,,,,,,,,,,,,,,,,,,,,,,,,,,,,,,,1,0.9341756000067107,288.00626910000574,None,ScrollDown,정답입니다,288.00626910000574,None,288.00626910000574,None,288.00626910000574,None,288.00626910000574,None,288.83326699997997,None,288.83326699997997,289.3331935000024,,,,,,,,,,,,,,,,111,2023-04-04_17h37.09.802,FishGame,2022.1.1,61.139269154323436,
,11,나를 데려가줘,6,Green,B,0,0,ScrollDown,ScrollUp,Green.png,2,NonTarget,NonTarget,0,0,0,0,,,,,,,,,,,,,,,,,0,10,10,10,,,,,,,,,,,,,,,,,,,,,,,,,,,,,,,,,,,,,,,,,,,,,,,,,,,,,,,,,,,,,,,,,,,,,,,,,,,,,,,,,1,1.1661502000060864,289.9529971999582,None,ScrollDown,정답입니다,289.9529971999582,None,289.9529971999582,None,289.9529971999582,None,289.9529971999582,None,291.0163956999895,None,291.0163956999895,291.5163240999682,,,,,,,,,,,,,,,,111,2023-04-04_17h37.09.802,FishGame,2022.1.1,61.139269154323436,
,12,넌 독선적이야,5,Orange,A,2.458333333333333,1.933333333333333,ScrollDown,ScrollUp,Orange.png,2,Negative,Incongruent,0,0,0,0,,,,,,,,,,,,,,,,,0,11,11,11,,,,,,,,,,,,,,,,,,,,,,,,,,,,,,,,,,,,,,,,,,,,,,,,,,,,,,,,,,,,,,,,,,,,,,,,,,,,,,,,,1,1.381369500013534,292.14746609999565,None,ScrollDown,정답입니다,292.14746609999565,None,292.14746609999565,None,292.14746609999565,None,292.14746609999565,None,293.4163162999903,None,293.4163162999903,293.91621499997564,,,,,,,,,,,,,,,,111,2023-04-04_17h37.09.802,FishGame,2022.1.1,61.139269154323436,
,13,나를 보내줘,6,Orange,A,0,0,ScrollUp,ScrollDown,Orange.png,2,NonTarget,NonTarget,0,0,0,0,,,,,,,,,,,,,,,,,0,12,12,12,,,,,,,,,,,,,,,,,,,,,,,,,,,,,,,,,,,,,,,,,,,,,,,,,,,,,,,,,,,,,,,,,,,,,,,,,,,,,,,,,1.7808641890684764,1.0815134000149556,294.5380782999564,None,ScrollUp,정답입니다,294.5380782999564,None,294.5380782999564,None,294.5380782999564,None,294.5380782999564,None,295.51424950000364,None,295.51424950000364,296.01624679996166,,,,,,,,,,,,,,,,111,2023-04-04_17h37.09.802,FishGame,2022.1.1,61.139269154323436,
,14,넌 책임감있어,1,Green,B,6.347826086956522,6,ScrollUp,ScrollDown,Green.png,2,Positive,Incongruent,0,0,0,0,,,,,,,,,,,,,,,,,0,13,13,13,,,,,,,,,,,,,,,,,,,,,,,,,,,,,,,,,,,,,,,,,,,,,,,,,,,,,,,,,,,,,,,,,,,,,,,,,,,,,,,,,1.7947530895471573,1.0645328999962658,296.6444258999545,None,ScrollUp,정답입니다,296.6444258999545,None,296.6444258999545,None,296.6444258999545,None,296.6444258999545,None,297.59951739996905,None,297.59951739996905,298.09946800000034,,,,,,,,,,,,,,,,111,2023-04-04_17h37.09.802,FishGame,2022.1.1,61.139269154323436,
,15,넌 문학적이야,3,Orange,A,4.708333333333334,4.333333333333333,ScrollDown,ScrollUp,Orange.png,2,Neutral,Neutral,0,0,0,0,,,,,,,,,,,,,,,,,0,14,14,14,,,,,,,,,,,,,,,,,,,,,,,,,,,,,,,,,,,,,,,,,,,,,,,,,,,,,,,,,,,,,,,,,,,,,,,,,,,,,,,,,1,0.9500053999945521,298.72565939999186,None,ScrollDown,정답입니다,298.72565939999186,None,298.72565939999186,None,298.72565939999186,None,298.72565939999186,None,299.5661810999736,None,299.5661810999736,300.06665269995574,,,,,,,,,,,,,,,,111,2023-04-04_17h37.09.802,FishGame,2022.1.1,61.139269154323436,
,16,넌 재미있어,1,Green,B,5.875,5.7,ScrollUp,ScrollDown,Green.png,2,Positive,Incongruent,0,0,0,0,,,,,,,,,,,,,,,,,0,15,15,15,,,,,,,,,,,,,,,,,,,,,,,,,,,,,,,,,,,,,,,,,,,,,,,,,,,,,,,,,,,,,,,,,,,,,,,,,,,,,,,,,1.6250000049670539,1.1462575000477955,300.6858808999532,None,ScrollUp,정답입니다,300.6858808999532,None,300.6858808999532,None,300.6858808999532,None,300.6858808999532,None,301.73278679995565,None,301.73278679995565,302.23273920000065,,,,,,,,,,,,,,,,111,2023-04-04_17h37.09.802,FishGame,2022.1.1,61.139269154323436,
,17,나를 데려가줘,6,Green,B,0,0,ScrollDown,ScrollUp,Green.png,2,NonTarget,NonTarget,0,0,0,0,,,,,,,,,,,,,,,,,0,16,16,16,,,,,,,,,,,,,,,,,,,,,,,,,,,,,,,,,,,,,,,,,,,,,,,,,,,,,,,,,,,,,,,,,,,,,,,,,,,,,,,,,1,1.1833912000292912,302.8522513000062,None,ScrollDown,정답입니다,302.8522513000062,None,302.8522513000062,None,302.8522513000062,None,302.8522513000062,None,303.9306738000014,None,303.9306738000014,304.4326749999891,,,,,,,,,,,,,,,,111,2023-04-04_17h37.09.802,FishGame,2022.1.1,61.139269154323436,
,18,넌 협력적이야,1,Orange,A,5.625,5.633333333333334,ScrollDown,ScrollUp,Orange.png,2,Positive,Congruent,0,0,0,0,,,,,,,,,,,,,,,,,0,17,17,17,,,,,,,,,,,,,,,,,,,,,,,,,,,,,,,,,,,,,,,,,,,,,,,,,,,,,,,,,,,,,,,,,,,,,,,,,,,,,,,,,1,1.0483557999832556,305.05740059999516,None,ScrollDown,정답입니다,305.05740059999516,None,305.05740059999516,None,305.05740059999516,None,305.05740059999516,None,305.99941309995484,None,305.99941309995484,306.49937400000636,,,,,,,,,,,,,,,,111,2023-04-04_17h37.09.802,FishGame,2022.1.1,61.139269154323436,
,19,넌 평범해,3,Green,B,4.333333333333332,4.233333333333333,ScrollUp,ScrollDown,Green.png,2,Neutral,Neutral,0,0,0,0,,,,,,,,,,,,,,,,,0,18,18,18,,,,,,,,,,,,,,,,,,,,,,,,,,,,,,,,,,,,,,,,,,,,,,,,,,,,,,,,,,,,,,,,,,,,,,,,,,,,,,,,,1.6003086442748704,1.079228799964767,307.12152960000094,None,ScrollUp,정답입니다,307.12152960000094,None,307.12152960000094,None,307.12152960000094,None,307.12152960000094,None,308.09699319995707,None,308.09699319995707,308.5969752999954,,,,,,,,,,,,,,,,111,2023-04-04_17h37.09.802,FishGame,2022.1.1,61.139269154323436,
,20,넌 오만해,5,Orange,A,2.333333333333333,2,ScrollDown,ScrollUp,Orange.png,2,Negative,Incongruent,0,0,0,0,,,,,,,,,,,,,,,,,0,19,19,19,,,,,,,,,,,,,,,,,,,,,,,,,,,,,,,,,,,,,,,,,,,,,,,,,,,,,,,,,,,,,,,,,,,,,,,,,,,,,,,,,1.0679012437661488,0.950429999968037,309.2238846999826,None,ScrollDown,정답입니다,309.2238846999826,None,309.2238846999826,None,309.2238846999826,None,309.2238846999826,None,310.06614579999587,None,310.06614579999587,310.5667727999971,,,,,,,,,,,,,,,,111,2023-04-04_17h37.09.802,FishGame,2022.1.1,61.139269154323436,
,21,넌 운이없어,4,Green,B,3,3.466666666666667,ScrollUp,ScrollDown,Green.png,2,Negative,Congruent,0,0,0,0,,,,,,,,,,,,,,,,,0,20,20,20,,,,,,,,,,,,,,,,,,,,,,,,,,,,,,,,,,,,,,,,,,,,,,,,,,,,,,,,,,,,,,,,,,,,,,,,,,,,,,,,,1.787037044763565,1.2162401999812573,311.18974329996854,None,ScrollUp,정답입니다,311.18974329996854,None,311.18974329996854,None,311.18974329996854,None,311.18974329996854,None,312.29952219995903,None,312.29952219995903,312.799180699978,,,,,,,,,,,,,,,,111,2023-04-04_17h37.09.802,FishGame,2022.1.1,61.139269154323436,
,22,넌 창조적이야,2,Green,B,6.125,4.633333333333334,ScrollUp,ScrollDown,Green.png,2,Positive,Incongruent,0,0,0,0,,,,,,,,,,,,,,,,,0,21,21,21,,,,,,,,,,,,,,,,,,,,,,,,,,,,,,,,,,,,,,,,,,,,,,,,,,,,,,,,,,,,,,,,,,,,,,,,,,,,,,,,,1.839506169160207,1.8000867000082508,313.4225610999856,None,ScrollUp,정답입니다,313.4225610999856,None,313.4225610999856,None,313.4225610999856,None,313.4225610999856,None,315.1159328999929,None,315.1159328999929,315.61584559996845,,,,,,,,,,,,,,,,111,2023-04-04_17h37.09.802,FishGame,2022.1.1,61.139269154323436,
,23,나를 보내줘,6,Orange,A,0,0,ScrollUp,ScrollDown,Orange.png,2,NonTarget,NonTarget,0,0,0,0,,,,,,,,,,,,,,,,,0,22,22,22,,,,,,,,,,,,,,,,,,,,,,,,,,,,,,,,,,,,,,,,,,,,,,,,,,,,,,,,,,,,,,,,,,,,,,,,,,,,,,,,,2,1.2329568999703042,316.2343493999797,None,ScrollUp,정답입니다,316.2343493999797,None,316.2343493999797,None,316.2343493999797,None,316.2343493999797,None,317.3637212999747,None,317.3637212999747,317.86573069996666,,,,,,,,,,,,,,,,111,2023-04-04_17h37.09.802,FishGame,2022.1.1,61.139269154323436,
,24,넌 통찰력있어,2,Orange,A,6.5,4.8,ScrollDown,ScrollUp,Orange.png,2,Positive,Congruent,0,0,0,0,,,,,,,,,,,,,,,,,0,23,23,23,,,,,,,,,,,,,,,,,,,,,,,,,,,,,,,,,,,,,,,,,,,,,,,,,,,,,,,,,,,,,,,,,,,,,,,,,,,,,,,,,1,0.9464400999713689,318.491660700005,None,ScrollDown,정답입니다,318.491660700005,None,318.491660700005,None,318.491660700005,None,318.491660700005,None,319.3324471999658,None,319.3324471999658,319.83236179995583,,,,,,,,,,,,,,,,111,2023-04-04_17h37.09.802,FishGame,2022.1.1,61.139269154323436,
,25,넌 경솔해,5,Green,B,2.458333333333333,2.266666666666667,ScrollUp,ScrollDown,Green.png,2,Negative,Congruent,0,0,0,0,,,,,,,,,,,,,,,,,0,24,24,24,,,,,,,,,,,,,,,,,,,,,,,,,,,,,,,,,,,,,,,,,,,,,,,,,,,,,,,,,,,,,,,,,,,,,,,,,,,,,,,,,1.825617293516795,1.147551600006409,320.45568959997036,None,ScrollUp,정답입니다,320.45568959997036,None,320.45568959997036,None,320.45568959997036,None,320.45568959997036,None,321.4967268999899,None,321.4967268999899,321.9966906000045,,,,,,,,,,,,,,,,111,2023-04-04_17h37.09.802,FishGame,2022.1.1,61.139269154323436,
,26,넌 초조해,4,Orange,A,2.916666666666667,3.133333333333333,ScrollDown,ScrollUp,Orange.png,2,Negative,Incongruent,0,0,0,0,,,,,,,,,,,,,,,,,0,25,25,25,,,,,,,,,,,,,,,,,,,,,,,,,,,,,,,,,,,,,,,,,,,,,,,,,,,,,,,,,,,,,,,,,,,,,,,,,,,,,,,,,1.0478395124276478,0.9147441000095569,322.61973069998203,None,ScrollDown,정답입니다,322.61973069998203,None,322.61973069998203,None,322.61973069998203,None,322.61973069998203,None,323.4300757999881,None,323.4300757999881,323.93243709998205,,,,,,,,,,,,,,,,111,2023-04-04_17h37.09.802,FishGame,2022.1.1,61.139269154323436,
,27,넌 무관심해,4,Green,B,2.833333333333333,2.9,ScrollUp,ScrollDown,Green.png,2,Negative,Congruent,0,0,0,0,,,,,,,,,,,,,,,,,0,26,26,26,,,,,,,,,,,,,,,,,,,,,,,,,,,,,,,,,,,,,,,,,,,,,,,,,,,,,,,,,,,,,,,,,,,,,,,,,,,,,,,,,1.9799382885297139,1.0833271999727003,324.55472949997056,None,ScrollUp,정답입니다,324.55472949997056,None,324.55472949997056,None,324.55472949997056,None,324.55472949997056,None,325.53246869996656,None,325.53246869996656,326.0322835999541,,,,,,,,,,,,,,,,111,2023-04-04_17h37.09.802,FishGame,2022.1.1,61.139269154323436,
,28,넌 감성적이야,3,Green,B,4.125,4.166666666666667,ScrollUp,ScrollDown,Green.png,2,Neutral,Neutral,0,0,0,0,,,,,,,,,,,,,,,,,0,27,27,27,,,,,,,,,,,,,,,,,,,,,,,,,,,,,,,,,,,,,,,,,,,,,,,,,,,,,,,,,,,,,,,,,,,,,,,,,,,,,,,,,2,1.1487328000366688,326.6523268999881,None,ScrollUp,정답입니다,326.6523268999881,None,326.6523268999881,None,326.6523268999881,None,326.6523268999881,None,327.699005500006,None,327.699005500006,328.1989276999957,,,,,,,,,,,,,,,,111,2023-04-04_17h37.09.802,FishGame,2022.1.1,61.139269154323436,
,29,넌 배려심있어,1,Orange,A,6.083333333333333,5.5,ScrollDown,ScrollUp,Orange.png,2,Positive,Congruent,0,0,0,0,,,,,,,,,,,,,,,,,0,28,28,28,,,,,,,,,,,,,,,,,,,,,,,,,,,,,,,,,,,,,,,,,,,,,,,,,,,,,,,,,,,,,,,,,,,,,,,,,,,,,,,,,1,1.0636918999953195,328.8330891999649,None,ScrollDown,정답입니다,328.8330891999649,None,328.8330891999649,None,328.8330891999649,None,328.8330891999649,None,329.7821896999958,None,329.7821896999958,330.28214119997574,,,,,,,,,,,,,,,,111,2023-04-04_17h37.09.802,FishGame,2022.1.1,61.139269154323436,
,30,넌 숨김없어,3,Orange,A,4.5,4.933333333333334,ScrollDown,ScrollUp,Orange.png,2,Neutral,Neutral,0,0,0,0,,,,,,,,,,,,,,,,,0,29,29,29,,,,,,,,,,,,,,,,,,,,,,,,,,,,,,,,,,,,,,,,,,,,,,,,,,,,,,,,,,,,,,,,,,,,,,,,,,,,,,,,,1.0092592636744182,0.9789084999938495,330.9061290999525,None,ScrollDown,정답입니다,330.9061290999525,None,330.9061290999525,None,330.9061290999525,None,330.9061290999525,None,331.78003259998513,None,331.78003259998513,332.2820659999852,,,,,,,,,,,,,,,,111,2023-04-04_17h37.09.802,FishGame,2022.1.1,61.139269154323436,
,31,넌 훌륭해,2,Green,B,5.916666666666667,4.033333333333333,ScrollUp,ScrollDown,Green.png,2,Positive,Incongruent,0,0,0,0,,,,,,,,,,,,,,,,,0,30,30,30,,,,,,,,,,,,,,,,,,,,,,,,,,,,,,,,,,,,,,,,,,,,,,,,,,,,,,,,,,,,,,,,,,,,,,,,,,,,,,,,,1.9182098805904388,0.9646802999777719,332.9063341000001,None,ScrollUp,정답입니다,332.9063341000001,None,332.9063341000001,None,332.9063341000001,None,332.9063341000001,None,333.76543309999397,None,333.76543309999397,334.2660658999812,,,,,,,,,,,,,,,,111,2023-04-04_17h37.09.802,FishGame,2022.1.1,61.139269154323436,
,32,넌 슬기로워,2,Orange,A,6.166666666666667,4.1,ScrollDown,ScrollUp,Orange.png,2,Positive,Congruent,0,0,0,0,,,,,,,,,,,,,,,,,0,31,31,31,,,,,,,,,,,,,,,,,,,,,,,,,,,,,,,,,,,,,,,,,,,,,,,,,,,,,,,,,,,,,,,,,,,,,,,,,,,,,,,,,1.0293209950129192,0.9648769999621436,334.8891186999972,None,ScrollDown,정답입니다,334.8891186999972,None,334.8891186999972,None,334.8891186999972,None,334.8891186999972,None,335.74874089995865,None,335.74874089995865,336.2519659999525,,,,,,,,,,,,,,,,111,2023-04-04_17h37.09.802,FishGame,2022.1.1,61.139269154323436,
,33,넌 냉혹해,5,Orange,A,2.583333333333333,2.1,ScrollDown,ScrollUp,Orange.png,2,Negative,Incongruent,0,0,0,0,,,,,,,,,,,,,,,,,0,32,32,32,,,,,,,,,,,,,,,,,,,,,,,,,,,,,,,,,,,,,,,,,,,,,,,,,,,,,,,,,,,,,,,,,,,,,,,,,,,,,,,,,1,0.9460137000423856,336.87122919998365,None,ScrollDown,정답입니다,336.87122919998365,None,336.87122919998365,None,336.87122919998365,None,336.87122919998365,None,337.7153138999711,None,337.7153138999711,338.2131368999835,,,,,,,,,,,,,,,,111,2023-04-04_17h37.09.802,FishGame,2022.1.1,61.139269154323436,
,34,나를 데려가줘,6,Green,B,0,0,ScrollDown,ScrollUp,Green.png,2,NonTarget,NonTarget,0,0,0,0,,,,,,,,,,,,,,,,,0,33,33,33,,,,,,,,,,,,,,,,,,,,,,,,,,,,,,,,,,,,,,,,,,,,,,,,,,,,,,,,,,,,,,,,,,,,,,,,,,,,,,,,,1,1.281467899971176,338.8355500999605,None,ScrollDown,정답입니다,338.8355500999605,None,338.8355500999605,None,338.8355500999605,None,338.8355500999605,None,340.0152683999622,None,340.0152683999622,340.51596269995207,,,,,,,,,,,,,,,,111,2023-04-04_17h37.09.802,FishGame,2022.1.1,61.139269154323436,
,35,넌 편파적이야,5,Green,B,2.125,2,ScrollUp,ScrollDown,Green.png,2,Negative,Congruent,0,0,0,0,,,,,,,,,,,,,,,,,0,34,34,34,,,,,,,,,,,,,,,,,,,,,,,,,,,,,,,,,,,,,,,,,,,,,,,,,,,,,,,,,,,,,,,,,,,,,,,,,,,,,,,,,1.9228395223617554,1.2313801000127569,341.14327139995294,None,ScrollUp,정답입니다,341.14327139995294,None,341.14327139995294,None,341.14327139995294,None,341.14327139995294,None,342.2631809999584,None,342.2631809999584,342.7651794999838,,,,,,,,,,,,,,,,111,2023-04-04_17h37.09.802,FishGame,2022.1.1,61.139269154323436,
,36,넌 슬퍼,4,Orange,A,2.583333333333333,3.066666666666667,ScrollDown,ScrollUp,Orange.png,2,Negative,Incongruent,0,0,0,0,,,,,,,,,,,,,,,,,0,35,35,35,,,,,,,,,,,,,,,,,,,,,,,,,,,,,,,,,,,,,,,,,,,,,,,,,,,,,,,,,,,,,,,,,,,,,,,,,,,,,,,,,1,1.0088684000074863,343.3904591999599,None,ScrollDown,정답입니다,343.3904591999599,None,343.3904591999599,None,343.3904591999599,None,343.3904591999599,None,344.2985119000077,None,344.2985119000077,344.79850659996737,,,,,,,,,,,,,,,,111,2023-04-04_17h37.09.802,FishGame,2022.1.1,61.139269154323436,
,37,나를 데려가줘,6,Green,B,0,0,ScrollDown,ScrollUp,Green.png,2,NonTarget,NonTarget,0,0,0,0,,,,,,,,,,,,,,,,,0,36,36,36,,,,,,,,,,,,,,,,,,,,,,,,,,,,,,,,,,,,,,,,,,,,,,,,,,,,,,,,,,,,,,,,,,,,,,,,,,,,,,,,,1,1.2649632999673486,345.41642399999546,None,ScrollDown,정답입니다,345.41642399999546,None,345.41642399999546,None,345.41642399999546,None,345.41642399999546,None,346.58192679996137,None,346.58192679996137,347.0817711999989,,,,,,,,,,,,,,,,111,2023-04-04_17h37.09.802,FishGame,2022.1.1,61.139269154323436,
,38,넌 친절해,1,Green,B,6.041666666666667,5.533333333333333,ScrollUp,ScrollDown,Green.png,2,Positive,Incongruent,0,0,0,0,,,,,,,,,,,,,,,,,0,37,37,37,,,,,,,,,,,,,,,,,,,,,,,,,,,,,,,,,,,,,,,,,,,,,,,,,,,,,,,,,,,,,,,,,,,,,,,,,,,,,,,,,1.9969135920206706,1.4802563000121154,347.7055603999761,None,ScrollUp,정답입니다,347.7055603999761,None,347.7055603999761,None,347.7055603999761,None,347.7055603999761,None,349.0797266999725,None,349.0797266999725,349.58173199999146,,,,,,,,,,,,,,,,111,2023-04-04_17h37.09.802,FishGame,2022.1.1,61.139269154323436,
,1,넌 엉성해,4,Orange,A,3,3.3,ScrollDown,ScrollUp,Orange.png,3,Negative,Incongruent,0,0,0,0,,,,,,,,,,,,,,,,,,,,,0,0,0,0,,,,,,,,,,,,,,,,,,,,,,,,,,,,,,,,,,,,382.0976375999744,383.5977901999722,383.63116299995454,384.5817316999892,384.6311958999722,385.58116259996314,385.58116259996314,None,,,,,,,,,,,,,,,,,,,,,,,,,,,,,,,,,,1,1.0344850000110455,386.6735511999577,None,ScrollDown,정답입니다,386.6735511999577,None,386.6735511999577,None,386.6735511999577,None,386.6735511999577,None,387.5976747999666,None,387.5976747999666,388.09759349998785,350.08175889996346,None,350.08175889996346,None,0.25555557,-0.10277778,1,0,0,0.016212009999435395,None,380.08100599999307,None,,,111,2023-04-04_17h37.09.802,FishGame,2022.1.1,61.139269154323436,
,2,나를 보내줘,6,Orange,A,0,0,ScrollUp,ScrollDown,Orange.png,3,NonTarget,NonTarget,0,0,0,0,,,,,,,,,,,,,,,,,,,,,0,1,1,1,,,,,,,,,,,,,,,,,,,,,,,,,,,,,,,,,,,,,,,,,,,,,,,,,,,,,,,,,,,,,,,,,,,,,,,,,,,,,2,1.214837500010617,388.7193541000015,None,ScrollUp,정답입니다,388.7193541000015,None,388.7193541000015,None,388.7193541000015,None,388.7193541000015,None,389.82881949999137,None,389.82881949999137,390.3308576999698,,,,,,,,,,,,,,,,111,2023-04-04_17h37.09.802,FishGame,2022.1.1,61.139269154323436,
,3,넌 활발해,1,Green,B,5.666666666666667,5.6,ScrollUp,ScrollDown,Green.png,3,Positive,Incongruent,0,0,0,0,,,,,,,,,,,,,,,,,,,,,0,2,2,2,,,,,,,,,,,,,,,,,,,,,,,,,,,,,,,,,,,,,,,,,,,,,,,,,,,,,,,,,,,,,,,,,,,,,,,,,,,,,2,1.064667200029362,390.9540400999831,None,ScrollUp,정답입니다,390.9540400999831,None,390.9540400999831,None,390.9540400999831,None,390.9540400999831,None,391.91426489996957,None,391.91426489996957,392.41475649998756,,,,,,,,,,,,,,,,111,2023-04-04_17h37.09.802,FishGame,2022.1.1,61.139269154323436,
,4,넌 논리적이야,2,Orange,A,5.666666666666666,4.633333333333334,ScrollDown,ScrollUp,Orange.png,3,Positive,Congruent,0,0,0,0,,,,,,,,,,,,,,,,,,,,,0,3,3,3,,,,,,,,,,,,,,,,,,,,,,,,,,,,,,,,,,,,,,,,,,,,,,,,,,,,,,,,,,,,,,,,,,,,,,,,,,,,,1,0.9478209000080824,393.0390826999792,None,ScrollDown,정답입니다,393.0390826999792,None,393.0390826999792,None,393.0390826999792,None,393.0390826999792,None,393.8784839999862,None,393.8784839999862,394.37869219999993,,,,,,,,,,,,,,,,111,2023-04-04_17h37.09.802,FishGame,2022.1.1,61.139269154323436,
,5,넌 과묵해,3,Orange,A,3.875,4.4,ScrollDown,ScrollUp,Orange.png,3,Neutral,Neutral,0,0,0,0,,,,,,,,,,,,,,,,,,,,,0,4,4,4,,,,,,,,,,,,,,,,,,,,,,,,,,,,,,,,,,,,,,,,,,,,,,,,,,,,,,,,,,,,,,,,,,,,,,,,,,,,,1,1.2515740999951959,395.00377569999546,None,ScrollDown,정답입니다,395.00377569999546,None,395.00377569999546,None,395.00377569999546,None,395.00377569999546,None,396.14760629995726,None,396.14760629995726,396.6475305999629,,,,,,,,,,,,,,,,111,2023-04-04_17h37.09.802,FishGame,2022.1.1,61.139269154323436,
,6,나를 데려가줘,6,Green,B,0,0,ScrollDown,ScrollUp,Green.png,3,NonTarget,NonTarget,0,0,0,0,,,,,,,,,,,,,,,,,,,,,0,5,5,5,,,,,,,,,,,,,,,,,,,,,,,,,,,,,,,,,,,,,,,,,,,,,,,,,,,,,,,,,,,,,,,,,,,,,,,,,,,,,1,1.1318135000183247,397.26770239998586,None,ScrollDown,정답입니다,397.26770239998586,None,397.26770239998586,None,397.26770239998586,None,397.26770239998586,None,398.29755189997377,None,398.29755189997377,398.797570499999,,,,,,,,,,,,,,,,111,2023-04-04_17h37.09.802,FishGame,2022.1.1,61.139269154323436,
,7,넌 미숙해,4,Green,B,3,3,ScrollUp,ScrollDown,Green.png,3,Negative,Congruent,0,0,0,0,,,,,,,,,,,,,,,,,,,,,0,6,6,6,,,,,,,,,,,,,,,,,,,,,,,,,,,,,,,,,,,,,,,,,,,,,,,,,,,,,,,,,,,,,,,,,,,,,,,,,,,,,2,1.1463265999918804,399.4208845999674,None,ScrollUp,정답입니다,399.4208845999674,None,399.4208845999674,None,399.4208845999674,None,399.4208845999674,None,400.46399109996855,None,400.46399109996855,400.96460790000856,,,,,,,,,,,,,,,,111,2023-04-04_17h37.09.802,FishGame,2022.1.1,61.139269154323436,
,8,나를 보내줘,6,Orange,A,0,0,ScrollUp,ScrollDown,Orange.png,3,NonTarget,NonTarget,0,0,0,0,,,,,,,,,,,,,,,,,,,,,0,7,7,7,,,,,,,,,,,,,,,,,,,,,,,,,,,,,,,,,,,,,,,,,,,,,,,,,,,,,,,,,,,,,,,,,,,,,,,,,,,,,2,1.1784494000021368,401.590973399987,None,ScrollUp,정답입니다,401.590973399987,None,401.590973399987,None,401.590973399987,None,401.590973399987,None,402.6639374999795,None,402.6639374999795,403.1643975999905,,,,,,,,,,,,,,,,111,2023-04-04_17h37.09.802,FishGame,2022.1.1,61.139269154323436,
,9,넌 자신만만해,3,Green,B,4.833333333333334,4.333333333333333,ScrollUp,ScrollDown,Green.png,3,Neutral,Neutral,0,0,0,0,,,,,,,,,,,,,,,,,,,,,0,8,8,8,,,,,,,,,,,,,,,,,,,,,,,,,,,,,,,,,,,,,,,,,,,,,,,,,,,,,,,,,,,,,,,,,,,,,,,,,,,,,1.9876543084780376,1.0788085000240244,403.78414609999163,None,ScrollUp,정답입니다,403.78414609999163,None,403.78414609999163,None,403.78414609999163,None,403.78414609999163,None,404.7615843999665,None,404.7615843999665,405.261571799987,,,,,,,,,,,,,,,,111,2023-04-04_17h37.09.802,FishGame,2022.1.1,61.139269154323436,
,10,넌 탐욕스러워,5,Orange,A,2.25,2.1,ScrollDown,ScrollUp,Orange.png,3,Negative,Incongruent,0,0,0,0,,,,,,,,,,,,,,,,,,,,,0,9,9,9,,,,,,,,,,,,,,,,,,,,,,,,,,,,,,,,,,,,,,,,,,,,,,,,,,,,,,,,,,,,,,,,,,,,,,,,,,,,,1.0462962985038757,0.8796518000308424,405.88704770000186,None,ScrollDown,정답입니다,405.88704770000186,None,405.88704770000186,None,405.88704770000186,None,405.88704770000186,None,406.6615938000032,None,406.6615938000032,407.16401109995786,,,,,,,,,,,,,,,,111,2023-04-04_17h37.09.802,FishGame,2022.1.1,61.139269154323436,
,11,넌 인기있어,2,Orange,A,5.458333333333333,4.5,ScrollDown,ScrollUp,Orange.png,3,Positive,Congruent,0,0,0,0,,,,,,,,,,,,,,,,,,,,,0,10,10,10,,,,,,,,,,,,,,,,,,,,,,,,,,,,,,,,,,,,,,,,,,,,,,,,,,,,,,,,,,,,,,,,,,,,,,,,,,,,,1,0.914924799988512,407.78544849995524,None,ScrollDown,정답입니다,407.78544849995524,None,407.78544849995524,None,407.78544849995524,None,407.78544849995524,None,408.5973307999666,None,408.5973307999666,409.09799629996996,,,,,,,,,,,,,,,,111,2023-04-04_17h37.09.802,FishGame,2022.1.1,61.139269154323436,
,12,나를 데려가줘,6,Green,B,0,0,ScrollDown,ScrollUp,Green.png,3,NonTarget,NonTarget,0,0,0,0,,,,,,,,,,,,,,,,,,,,,0,11,11,11,,,,,,,,,,,,,,,,,,,,,,,,,,,,,,,,,,,,,,,,,,,,,,,,,,,,,,,,,,,,,,,,,,,,,,,,,,,,,1,1.1982194000156596,409.71506660000887,None,ScrollDown,정답입니다,409.71506660000887,None,409.71506660000887,None,409.71506660000887,None,409.71506660000887,None,410.8139418999781,None,410.8139418999781,411.31381570000667,,,,,,,,,,,,,,,,111,2023-04-04_17h37.09.802,FishGame,2022.1.1,61.139269154323436,
,13,넌 뛰어나,2,Green,B,6.166666666666667,4,ScrollUp,ScrollDown,Green.png,3,Positive,Incongruent,0,0,0,0,,,,,,,,,,,,,,,,,,,,,0,12,12,12,,,,,,,,,,,,,,,,,,,,,,,,,,,,,,,,,,,,,,,,,,,,,,,,,,,,,,,,,,,,,,,,,,,,,,,,,,,,,1.8040123482545216,0.9650511000072584,411.93572339997627,None,ScrollUp,정답입니다,411.93572339997627,None,411.93572339997627,None,411.93572339997627,None,411.93572339997627,None,412.7950170999975,None,412.7950170999975,413.29698589997133,,,,,,,,,,,,,,,,111,2023-04-04_17h37.09.802,FishGame,2022.1.1,61.139269154323436,
,14,넌 낙관적이야,1,Orange,A,5.75,5.8,ScrollDown,ScrollUp,Orange.png,3,Positive,Congruent,0,0,0,0,,,,,,,,,,,,,,,,,,,,,0,13,13,13,,,,,,,,,,,,,,,,,,,,,,,,,,,,,,,,,,,,,,,,,,,,,,,,,,,,,,,,,,,,,,,,,,,,,,,,,,,,,1.126543199022611,0.8462965000071563,413.92301349999616,None,ScrollDown,정답입니다,413.92301349999616,None,413.92301349999616,None,413.92301349999616,None,413.92301349999616,None,414.6636870999937,None,414.6636870999937,415.1642420999706,,,,,,,,,,,,,,,,111,2023-04-04_17h37.09.802,FishGame,2022.1.1,61.139269154323436,
,15,넌 산만해,4,Green,B,2.695652173913043,3.033333333333333,ScrollUp,ScrollDown,Green.png,3,Negative,Congruent,0,0,0,0,,,,,,,,,,,,,,,,,,,,,0,14,14,14,,,,,,,,,,,,,,,,,,,,,,,,,,,,,,,,,,,,,,,,,,,,,,,,,,,,,,,,,,,,,,,,,,,,,,,,,,,,,1.8626543283462524,1.0458406999823637,415.7848089999752,None,ScrollUp,정답입니다,415.7848089999752,None,415.7848089999752,None,415.7848089999752,None,415.7848089999752,None,416.72800219996134,None,416.72800219996134,417.22798819997115,,,,,,,,,,,,,,,,111,2023-04-04_17h37.09.802,FishGame,2022.1.1,61.139269154323436,
,16,나를 보내줘,6,Orange,A,0,0,ScrollUp,ScrollDown,Orange.png,3,NonTarget,NonTarget,0,0,0,0,,,,,,,,,,,,,,,,,,,,,0,15,15,15,,,,,,,,,,,,,,,,,,,,,,,,,,,,,,,,,,,,,,,,,,,,,,,,,,,,,,,,,,,,,,,,,,,,,,,,,,,,,1.983024666706721,1.18188549997285,417.8499862999888,None,ScrollUp,정답입니다,417.8499862999888,None,417.8499862999888,None,417.8499862999888,None,417.8499862999888,None,418.9305714999791,None,418.9305714999791,419.43040969996946,,,,,,,,,,,,,,,,111,2023-04-04_17h37.09.802,FishGame,2022.1.1,61.139269154323436,
,17,넌 교활해,5,Green,B,2.333333333333333,2.133333333333333,ScrollUp,ScrollDown,Green.png,3,Negative,Congruent,0,0,0,0,,,,,,,,,,,,,,,,,,,,,0,16,16,16,,,,,,,,,,,,,,,,,,,,,,,,,,,,,,,,,,,,,,,,,,,,,,,,,,,,,,,,,,,,,,,,,,,,,,,,,,,,,1.8626543283462524,1.1644828999997117,420.0532818000065,None,ScrollUp,정답입니다,420.0532818000065,None,420.0532818000065,None,420.0532818000065,None,420.0532818000065,None,421.1112369999755,None,421.1112369999755,421.61201359995175,,,,,,,,,,,,,,,,111,2023-04-04_17h37.09.802,FishGame,2022.1.1,61.139269154323436,
,18,나를 보내줘,6,Orange,A,0,0,ScrollUp,ScrollDown,Orange.png,3,NonTarget,NonTarget,0,0,0,0,,,,,,,,,,,,,,,,,,,,,0,17,17,17,,,,,,,,,,,,,,,,,,,,,,,,,,,,,,,,,,,,,,,,,,,,,,,,,,,,,,,,,,,,,,,,,,,,,,,,,,,,,1.9274691144625347,1.0649802000261843,422.2301724999561,None,ScrollUp,정답입니다,422.2301724999561,None,422.2301724999561,None,422.2301724999561,None,422.2301724999561,None,423.19700159999775,None,423.19700159999775,423.69758400000865,,,,,,,,,,,,,,,,111,2023-04-04_17h37.09.802,FishGame,2022.1.1,61.139269154323436,
,19,넌 불친절해,5,Green,B,2.208333333333333,2.033333333333333,ScrollUp,ScrollDown,Green.png,3,Negative,Congruent,0,0,0,0,,,,,,,,,,,,,,,,,,,,,0,18,18,18,,,,,,,,,,,,,,,,,,,,,,,,,,,,,,,,,,,,,,,,,,,,,,,,,,,,,,,,,,,,,,,,,,,,,,,,,,,,,1.8333333383003871,0.8961876000394113,424.31900499999756,None,ScrollUp,정답입니다,424.31900499999756,None,424.31900499999756,None,424.31900499999756,None,424.31900499999756,None,425.1135953000048,None,425.1135953000048,425.61685259995284,,,,,,,,,,,,,,,,111,2023-04-04_17h37.09.802,FishGame,2022.1.1,61.139269154323436,
,20,넌 지적이야,2,Green,B,5.75,4.366666666666666,ScrollUp,ScrollDown,Green.png,3,Positive,Incongruent,0,0,0,0,,,,,,,,,,,,,,,,,,,,,0,19,19,19,,,,,,,,,,,,,,,,,,,,,,,,,,,,,,,,,,,,,,,,,,,,,,,,,,,,,,,,,,,,,,,,,,,,,,,,,,,,,1.8981481492519379,1.1999705000198446,426.2313710000017,None,ScrollUp,정답입니다,426.2313710000017,None,426.2313710000017,None,426.2313710000017,None,426.2313710000017,None,427.33015120000346,None,427.33015120000346,427.8301047999994,,,,,,,,,,,,,,,,111,2023-04-04_17h37.09.802,FishGame,2022.1.1,61.139269154323436,
,21,넌 우유부단해,4,Orange,A,2.666666666666667,3.166666666666667,ScrollDown,ScrollUp,Orange.png,3,Negative,Incongruent,0,0,0,0,,,,,,,,,,,,,,,,,,,,,0,20,20,20,,,,,,,,,,,,,,,,,,,,,,,,,,,,,,,,,,,,,,,,,,,,,,,,,,,,,,,,,,,,,,,,,,,,,,,,,,,,,1.0787036915620167,0.8946910999948159,428.4660874999827,None,ScrollDown,정답입니다,428.4660874999827,None,428.4660874999827,None,428.4660874999827,None,428.4660874999827,None,429.24437339999713,None,429.24437339999713,429.74437879998004,,,,,,,,,,,,,,,,111,2023-04-04_17h37.09.802,FishGame,2022.1.1,61.139269154323436,
,22,나를 데려가줘,6,Green,B,0,0,ScrollDown,ScrollUp,Green.png,3,NonTarget,NonTarget,0,0,0,0,,,,,,,,,,,,,,,,,,,,,0,21,21,21,,,,,,,,,,,,,,,,,,,,,,,,,,,,,,,,,,,,,,,,,,,,,,,,,,,,,,,,,,,,,,,,,,,,,,,,,,,,,1,1.1159799000015482,430.3712492999621,None,ScrollDown,정답입니다,430.3712492999621,None,430.3712492999621,None,430.3712492999621,None,430.3712492999621,None,431.3801806999836,None,431.3801806999836,431.88011979998555,,,,,,,,,,,,,,,,111,2023-04-04_17h37.09.802,FishGame,2022.1.1,61.139269154323436,
,23,넌 성실해,1,Green,B,6.041666666666666,5.7,ScrollUp,ScrollDown,Green.png,3,Positive,Incongruent,0,0,0,0,,,,,,,,,,,,,,,,,,,,,0,22,22,22,,,,,,,,,,,,,,,,,,,,,,,,,,,,,,,,,,,,,,,,,,,,,,,,,,,,,,,,,,,,,,,,,,,,,,,,,,,,,1.8564814726511638,0.9170730999903753,432.5000281999819,None,ScrollUp,정답입니다,432.5000281999819,None,432.5000281999819,None,432.5000281999819,None,432.5000281999819,None,433.31814319995465,None,433.31814319995465,433.82990979996976,,,,,,,,,,,,,,,,111,2023-04-04_17h37.09.802,FishGame,2022.1.1,61.139269154323436,
,24,넌 현실주의적이야,3,Orange,A,4.625,4.4,ScrollDown,ScrollUp,Orange.png,3,Neutral,Neutral,0,0,0,0,,,,,,,,,,,,,,,,,,,,,0,23,23,23,,,,,,,,,,,,,,,,,,,,,,,,,,,,,,,,,,,,,,,,,,,,,,,,,,,,,,,,,,,,,,,,,,,,,,,,,,,,,1,1.43126049998682,434.45680369995534,None,ScrollDown,정답입니다,434.45680369995534,None,434.45680369995534,None,434.45680369995534,None,434.45680369995534,None,435.7800093999831,None,435.7800093999831,436.2799495999934,,,,,,,,,,,,,,,,111,2023-04-04_17h37.09.802,FishGame,2022.1.1,61.139269154323436,
,25,넌 진실돼,1,Orange,A,6.625,5.566666666666666,ScrollDown,ScrollUp,Orange.png,3,Positive,Congruent,0,0,0,0,,,,,,,,,,,,,,,,,,,,,0,24,24,24,,,,,,,,,,,,,,,,,,,,,,,,,,,,,,,,,,,,,,,,,,,,,,,,,,,,,,,,,,,,,,,,,,,,,,,,,,,,,1,0.9496498999651521,436.9048722999869,None,ScrollDown,정답입니다,436.9048722999869,None,436.9048722999869,None,436.9048722999869,None,436.9048722999869,None,437.7465695999563,None,437.7465695999563,438.2464429999818,,,,,,,,,,,,,,,,111,2023-04-04_17h37.09.802,FishGame,2022.1.1,61.139269154323436,
,26,넌 천진난만해,3,Green,B,4.958333333333334,4.833333333333333,ScrollUp,ScrollDown,Green.png,3,Neutral,Neutral,0,0,0,0,,,,,,,,,,,,,,,,,,,,,0,25,25,25,,,,,,,,,,,,,,,,,,,,,,,,,,,,,,,,,,,,,,,,,,,,,,,,,,,,,,,,,,,,,,,,,,,,,,,,,,,,,1.8858024626970291,0.9161294999648817,438.86892939999234,None,ScrollUp,정답입니다,438.86892939999234,None,438.86892939999234,None,438.86892939999234,None,438.86892939999234,None,439.6798230999848,None,439.6798230999848,440.17981589998817,,,,,,,,,,,,,,,,111,2023-04-04_17h37.09.802,FishGame,2022.1.1,61.139269154323436,
,27,넌 교양없어,5,Orange,A,2.416666666666667,2.2,ScrollDown,ScrollUp,Orange.png,3,Negative,Incongruent,0,0,0,0,,,,,,,,,,,,,,,,,,,,,0,26,26,26,,,,,,,,,,,,,,,,,,,,,,,,,,,,,,,,,,,,,,,,,,,,,,,,,,,,,,,,,,,,,,,,,,,,,,,,,,,,,1.0138889054457347,0.9455693000345491,440.8035617999849,None,ScrollDown,정답입니다,440.8035617999849,None,440.8035617999849,None,440.8035617999849,None,440.8035617999849,None,441.6441454999731,None,441.6441454999731,442.14412389998324,,,,,,,,,,,,,,,,111,2023-04-04_17h37.09.802,FishGame,2022.1.1,61.139269154323436,
,28,나를 보내줘,6,Orange,A,0,0,ScrollUp,ScrollDown,Orange.png,3,NonTarget,NonTarget,0,0,0,0,,,,,,,,,,,,,,,,,,,,,0,27,27,27,,,,,,,,,,,,,,,,,,,,,,,,,,,,,,,,,,,,,,,,,,,,,,,,,,,,,,,,,,,,,,,,,,,,,,,,,,,,,1.5416666672875485,0.9814764000475407,442.7702869999921,None,NoResponse,무응답입니다,442.7702869999921,None,442.7702869999921,None,442.7702869999921,None,442.7702869999921,None,443.64417739998316,None,443.64417739998316,444.1464968000073,,,,,,,,,,,,,,,,111,2023-04-04_17h37.09.802,FishGame,2022.1.1,61.139269154323436,
,29,넌 엉뚱스러워,3,Orange,A,4.166666666666667,4.133333333333334,ScrollDown,ScrollUp,Orange.png,3,Neutral,Neutral,0,0,0,0,,,,,,,,,,,,,,,,,,,,,0,28,28,28,,,,,,,,,,,,,,,,,,,,,,,,,,,,,,,,,,,,,,,,,,,,,,,,,,,,,,,,,,,,,,,,,,,,,,,,,,,,,1,1.4116923999972641,444.7809656999889,None,ScrollDown,정답입니다,444.7809656999889,None,444.7809656999889,None,444.7809656999889,None,444.7809656999889,None,446.07292989996495,None,446.07292989996495,446.5796889999765,,,,,,,,,,,,,,,,111,2023-04-04_17h37.09.802,FishGame,2022.1.1,61.139269154323436,
,30,넌 무지해,4,Green,B,2.541666666666667,3.066666666666667,ScrollUp,ScrollDown,Green.png,3,Negative,Congruent,0,0,0,0,,,,,,,,,,,,,,,,,,,,,0,29,29,29,,,,,,,,,,,,,,,,,,,,,,,,,,,,,,,,,,,,,,,,,,,,,,,,,,,,,,,,,,,,,,,,,,,,,,,,,,,,,2,1.0815434000105597,447.1975398999639,None,ScrollUp,정답입니다,447.1975398999639,None,447.1975398999639,None,447.1975398999639,None,447.1975398999639,None,448.1797163999872,None,448.1797163999872,448.6796636999934,,,,,,,,,,,,,,,,111,2023-04-04_17h37.09.802,FishGame,2022.1.1,61.139269154323436,
,31,넌 음울해,5,Green,B,2.25,2.233333333333333,ScrollUp,ScrollDown,Green.png,3,Negative,Congruent,0,0,0,0,,,,,,,,,,,,,,,,,,,,,0,30,30,30,,,,,,,,,,,,,,,,,,,,,,,,,,,,,,,,,,,,,,,,,,,,,,,,,,,,,,,,,,,,,,,,,,,,,,,,,,,,,2,1.0808402999537066,449.30059279996203,None,ScrollUp,정답입니다,449.30059279996203,None,449.30059279996203,None,449.30059279996203,None,449.30059279996203,None,450.2772554999683,None,450.2772554999683,450.77725849999115,,,,,,,,,,,,,,,,111,2023-04-04_17h37.09.802,FishGame,2022.1.1,61.139269154323436,
,32,넌 냉소적이야,5,Orange,A,2.916666666666667,2.4,ScrollDown,ScrollUp,Orange.png,3,Negative,Incongruent,0,0,0,0,,,,,,,,,,,,,,,,,,,,,0,31,31,31,,,,,,,,,,,,,,,,,,,,,,,,,,,,,,,,,,,,,,,,,,,,,,,,,,,,,,,,,,,,,,,,,,,,,,,,,,,,,1,1.0134838999947533,451.4017374999821,None,ScrollDown,정답입니다,451.4017374999821,None,451.4017374999821,None,451.4017374999821,None,451.4017374999821,None,452.3106405999861,None,452.3106405999861,452.81296999996994,,,,,,,,,,,,,,,,111,2023-04-04_17h37.09.802,FishGame,2022.1.1,61.139269154323436,
,33,나를 데려가줘,6,Green,B,0,0,ScrollDown,ScrollUp,Green.png,3,NonTarget,NonTarget,0,0,0,0,,,,,,,,,,,,,,,,,,,,,0,32,32,32,,,,,,,,,,,,,,,,,,,,,,,,,,,,,,,,,,,,,,,,,,,,,,,,,,,,,,,,,,,,,,,,,,,,,,,,,,,,,1,2.2126980999601074,453.4331934999791,None,ScrollDown,정답입니다,453.4331934999791,None,453.4331934999791,None,453.4331934999791,None,453.4331934999791,None,455.5438066999777,None,455.5438066999777,456.0438137999736,,,,,,,,,,,,,,,,111,2023-04-04_17h37.09.802,FishGame,2022.1.1,61.139269154323436,
,34,넌 쾌활해,1,Orange,A,5.541666666666666,5.733333333333333,ScrollDown,ScrollUp,Orange.png,3,Positive,Congruent,0,0,0,0,,,,,,,,,,,,,,,,,,,,,0,33,33,33,,,,,,,,,,,,,,,,,,,,,,,,,,,,,,,,,,,,,,,,,,,,,,,,,,,,,,,,,,,,,,,,,,,,,,,,,,,,,1,0.9986389999976382,456.6720190999913,None,ScrollDown,정답입니다,456.6720190999913,None,456.6720190999913,None,456.6720190999913,None,456.6720190999913,None,457.56296629999997,None,457.56296629999997,458.06085770000936,,,,,,,,,,,,,,,,111,2023-04-04_17h37.09.802,FishGame,2022.1.1,61.139269154323436,
,35,나를 보내줘,6,Orange,A,0,0,ScrollUp,ScrollDown,Orange.png,3,NonTarget,NonTarget,0,0,0,0,,,,,,,,,,,,,,,,,,,,,0,34,34,34,,,,,,,,,,,,,,,,,,,,,,,,,,,,,,,,,,,,,,,,,,,,,,,,,,,,,,,,,,,,,,,,,,,,,,,,,,,,,2,1.1476796999922954,458.6846655999543,None,ScrollUp,정답입니다,458.6846655999543,None,458.6846655999543,None,458.6846655999543,None,458.6846655999543,None,459.7296059000073,None,459.7296059000073,460.22957909997785,,,,,,,,,,,,,,,,111,2023-04-04_17h37.09.802,FishGame,2022.1.1,61.139269154323436,
,36,넌 명랑해,1,Green,B,5.739130434782609,5.666666666666667,ScrollUp,ScrollDown,Green.png,3,Positive,Incongruent,0,0,0,0,,,,,,,,,,,,,,,,,,,,,0,35,35,35,,,,,,,,,,,,,,,,,,,,,,,,,,,,,,,,,,,,,,,,,,,,,,,,,,,,,,,,,,,,,,,,,,,,,,,,,,,,,2,1.048106900008861,460.8511363999569,None,ScrollUp,정답입니다,460.8511363999569,None,460.8511363999569,None,460.8511363999569,None,460.8511363999569,None,461.79626009997446,None,461.79626009997446,462.29653960000724,,,,,,,,,,,,,,,,111,2023-04-04_17h37.09.802,FishGame,2022.1.1,61.139269154323436,
,37,넌 멍해,4,Orange,A,2.833333333333333,3.4,ScrollDown,ScrollUp,Orange.png,3,Negative,Incongruent,0,0,0,0,,,,,,,,,,,,,,,,,,,,,0,36,36,36,,,,,,,,,,,,,,,,,,,,,,,,,,,,,,,,,,,,,,,,,,,,,,,,,,,,,,,,,,,,,,,,,,,,,,,,,,,,,1,1.0814776999759488,462.92483079998055,None,ScrollDown,정답입니다,462.92483079998055,None,462.92483079998055,None,462.92483079998055,None,462.92483079998055,None,463.89390939997975,None,463.89390939997975,464.39632229995914,,,,,,,,,,,,,,,,111,2023-04-04_17h37.09.802,FishGame,2022.1.1,61.139269154323436,
,38,나를 데려가줘,6,Green,B,0,0,ScrollDown,ScrollUp,Green.png,3,NonTarget,NonTarget,0,0,0,0,,,,,,,,,,,,,,,,,,,,,0,37,37,37,,,,,,,,,,,,,,,,,,,,,,,,,,,,,,,,,,,,,,,,,,,,,,,,,,,,,,,,,,,,,,,,,,,,,,,,,,,,,1,1.2666764000314288,465.01375759998336,None,ScrollDown,정답입니다,465.01375759998336,None,465.01375759998336,None,465.01375759998336,None,465.01375759998336,None,466.17932699999074,None,466.17932699999074,466.6792644999805,,,,,,,,,,,,,,,,111,2023-04-04_17h37.09.802,FishGame,2022.1.1,61.139269154323436,
,39,넌 현명해,2,Orange,A,6.541666666666666,4.533333333333333,ScrollDown,ScrollUp,Orange.png,3,Positive,Congruent,0,0,0,0,,,,,,,,,,,,,,,,,,,,,0,38,38,38,,,,,,,,,,,,,,,,,,,,,,,,,,,,,,,,,,,,,,,,,,,,,,,,,,,,,,,,,,,,,,,,,,,,,,,,,,,,,1,1.045210699958261,467.3019715999835,None,ScrollDown,정답입니다,467.3019715999835,None,467.3019715999835,None,467.3019715999835,None,467.3019715999835,None,468.24353509995854,None,468.24353509995854,468.7444903999567,,,,,,,,,,,,,,,,111,2023-04-04_17h37.09.802,FishGame,2022.1.1,61.139269154323436,
,40,넌 수줍어,3,Green,B,3.541666666666666,4.366666666666666,ScrollUp,ScrollDown,Green.png,3,Neutral,Neutral,0,0,0,0,,,,,,,,,,,,,,,,,,,,,0,39,39,39,,,,,,,,,,,,,,,,,,,,,,,,,,,,,,,,,,,,,,,,,,,,,,,,,,,,,,,,,,,,,,,,,,,,,,,,,,,,,2,1.117480999964755,469.36578069999814,None,ScrollUp,정답입니다,469.36578069999814,None,469.36578069999814,None,469.36578069999814,None,469.36578069999814,None,470.37935959995957,None,470.37935959995957,470.87931879999815,,,,,,,,,,,,,,,,111,2023-04-04_17h37.09.802,FishGame,2022.1.1,61.139269154323436,
,41,나를 데려가줘,6,Green,B,0,0,ScrollDown,ScrollUp,Green.png,3,NonTarget,NonTarget,0,0,0,0,,,,,,,,,,,,,,,,,,,,,0,40,40,40,,,,,,,,,,,,,,,,,,,,,,,,,,,,,,,,,,,,,,,,,,,,,,,,,,,,,,,,,,,,,,,,,,,,,,,,,,,,,1,1.1486901000025682,471.5001554999617,None,ScrollDown,정답입니다,471.5001554999617,None,471.5001554999617,None,471.5001554999617,None,471.5001554999617,None,472.5459140999592,None,472.5459140999592,473.04577939998126,,,,,,,,,,,,,,,,111,2023-04-04_17h37.09.802,FishGame,2022.1.1,61.139269154323436,
,42,넌 성숙해,2,Green,B,5.833333333333333,4.533333333333333,ScrollUp,ScrollDown,Green.png,3,Positive,Incongruent,0,0,0,0,,,,,,,,,,,,,,,,,,,,,0,41,41,41,,,,,,,,,,,,,,,,,,,,,,,,,,,,,,,,,,,,,,,,,,,,,,,,,,,,,,,,,,,,,,,,,,,,,,,,,,,,,1.9845678806304932,1.048175200005062,473.6629241000046,None,ScrollUp,정답입니다,473.6629241000046,None,473.6629241000046,None,473.6629241000046,None,473.6629241000046,None,474.6125996999908,None,474.6125996999908,475.1127205999801,,,,,,,,,,,,,,,,111,2023-04-04_17h37.09.802,FishGame,2022.1.1,61.139269154323436,
,1,넌 매력적이야,2,Green,B,6.125,4.666666666666667,ScrollUp,ScrollDown,Green.png,4,Positive,Incongruent,0,0,0,0,,,,,,,,,,,,,,,,,,,,,,,,,0,0,0,0,,,,,,,,,,,,,,,,,,,,,,,,,,,,,,,,507.8116634999751,509.31185820000246,509.34569059999194,510.2956672,510.34566239995183,511.29513669997687,511.29513669997687,None,,,,,,,,,,,,,,,,,,,,,,,,,,,,,,,,,,2,1.0081085999845527,512.3850414999761,None,ScrollUp,정답입니다,512.3850414999761,None,512.3850414999761,None,512.3850414999761,None,512.3850414999761,None,513.2783378000022,None,513.2783378000022,513.7782036999706,475.6124191999552,None,475.6124191999552,None,0.26018518,-0.097222224,1,0,0,0.01620250998530537,None,505.6115832999931,None,,,111,2023-04-04_17h37.09.802,FishGame,2022.1.1,61.139269154323436,
,2,나를 보내줘,6,Orange,A,0,0,ScrollUp,ScrollDown,Orange.png,4,NonTarget,NonTarget,0,0,0,0,,,,,,,,,,,,,,,,,,,,,,,,,0,1,1,1,,,,,,,,,,,,,,,,,,,,,,,,,,,,,,,,,,,,,,,,,,,,,,,,,,,,,,,,,,,,,,,,,,,,,,,,,2,1.0311493999906816,514.3972121999832,None,ScrollUp,정답입니다,514.3972121999832,None,514.3972121999832,None,514.3972121999832,None,514.3972121999832,None,515.3282333999523,None,515.3282333999523,515.8281418999541,,,,,,,,,,,,,,,,111,2023-04-04_17h37.09.802,FishGame,2022.1.1,61.139269154323436,
,3,넌 조심스러워,3,Orange,A,4.791666666666666,4.666666666666667,ScrollDown,ScrollUp,Orange.png,4,Neutral,Neutral,0,0,0,0,,,,,,,,,,,,,,,,,,,,,,,,,0,2,2,2,,,,,,,,,,,,,,,,,,,,,,,,,,,,,,,,,,,,,,,,,,,,,,,,,,,,,,,,,,,,,,,,,,,,,,,,,1,0.9334188000066206,516.4502445999533,None,ScrollDown,정답입니다,516.4502445999533,None,516.4502445999533,None,516.4502445999533,None,516.4502445999533,None,517.2759684000048,None,517.2759684000048,517.7781889999751,,,,,,,,,,,,,,,,111,2023-04-04_17h37.09.802,FishGame,2022.1.1,61.139269154323436,
,4,넌 철학적이야,3,Green,B,4.5,4.266666666666667,ScrollUp,ScrollDown,Green.png,4,Neutral,Neutral,0,0,0,0,,,,,,,,,,,,,,,,,,,,,,,,,0,3,3,3,,,,,,,,,,,,,,,,,,,,,,,,,,,,,,,,,,,,,,,,,,,,,,,,,,,,,,,,,,,,,,,,,,,,,,,,,1.7623456716537476,0.9625030999886803,518.4041542999912,None,ScrollUp,정답입니다,518.4041542999912,None,518.4041542999912,None,518.4041542999912,None,518.4041542999912,None,519.259128500009,None,519.259128500009,519.7591104999883,,,,,,,,,,,,,,,,111,2023-04-04_17h37.09.802,FishGame,2022.1.1,61.139269154323436,
,5,넌 쩨쩨해,5,Orange,A,2.375,2.133333333333333,ScrollDown,ScrollUp,Orange.png,4,Negative,Incongruent,0,0,0,0,,,,,,,,,,,,,,,,,,,,,,,,,0,4,4,4,,,,,,,,,,,,,,,,,,,,,,,,,,,,,,,,,,,,,,,,,,,,,,,,,,,,,,,,,,,,,,,,,,,,,,,,,1,0.933568499982357,520.3795213999692,None,ScrollDown,정답입니다,520.3795213999692,None,520.3795213999692,None,520.3795213999692,None,520.3795213999692,None,521.2091386999818,None,521.2091386999818,521.7115654000081,,,,,,,,,,,,,,,,111,2023-04-04_17h37.09.802,FishGame,2022.1.1,61.139269154323436,
,6,나를 데려가줘,6,Green,B,0,0,ScrollDown,ScrollUp,Green.png,4,NonTarget,NonTarget,0,0,0,0,,,,,,,,,,,,,,,,,,,,,,,,,0,5,5,5,,,,,,,,,,,,,,,,,,,,,,,,,,,,,,,,,,,,,,,,,,,,,,,,,,,,,,,,,,,,,,,,,,,,,,,,,1,1.1509346999810077,522.3308582999744,None,ScrollDown,정답입니다,522.3308582999744,None,522.3308582999744,None,522.3308582999744,None,522.3308582999744,None,523.3815693999641,None,523.3815693999641,523.894690599991,,,,,,,,,,,,,,,,111,2023-04-04_17h37.09.802,FishGame,2022.1.1,61.139269154323436,
,7,넌 고집불통이야,5,Green,B,2.875,2,ScrollUp,ScrollDown,Green.png,4,Negative,Congruent,0,0,0,0,,,,,,,,,,,,,,,,,,,,,,,,,0,6,6,6,,,,,,,,,,,,,,,,,,,,,,,,,,,,,,,,,,,,,,,,,,,,,,,,,,,,,,,,,,,,,,,,,,,,,,,,,1.9259259502092998,1.1316230000229552,524.5184355999809,None,ScrollUp,정답입니다,524.5184355999809,None,524.5184355999809,None,524.5184355999809,None,524.5184355999809,None,525.5446848999709,None,525.5446848999709,526.0478212999878,,,,,,,,,,,,,,,,111,2023-04-04_17h37.09.802,FishGame,2022.1.1,61.139269154323436,
,8,넌 무심해,4,Orange,A,2.875,3.2,ScrollDown,ScrollUp,Orange.png,4,Negative,Incongruent,0,0,0,0,,,,,,,,,,,,,,,,,,,,,,,,,0,7,7,7,,,,,,,,,,,,,,,,,,,,,,,,,,,,,,,,,,,,,,,,,,,,,,,,,,,,,,,,,,,,,,,,,,,,,,,,,1,0.9645772999501787,526.6662194000091,None,ScrollDown,정답입니다,526.6662194000091,None,526.6662194000091,None,526.6662194000091,None,526.6662194000091,None,527.5279355999664,None,527.5279355999664,528.02787359996,,,,,,,,,,,,,,,,111,2023-04-04_17h37.09.802,FishGame,2022.1.1,61.139269154323436,
,9,넌 정겨워,1,Orange,A,5.791666666666667,5.666666666666667,ScrollDown,ScrollUp,Orange.png,4,Positive,Congruent,0,0,0,0,,,,,,,,,,,,,,,,,,,,,,,,,0,8,8,8,,,,,,,,,,,,,,,,,,,,,,,,,,,,,,,,,,,,,,,,,,,,,,,,,,,,,,,,,,,,,,,,,,,,,,,,,1,0.8816754000145011,528.6524113999913,None,ScrollDown,정답입니다,528.6524113999913,None,528.6524113999913,None,528.6524113999913,None,528.6524113999913,None,529.4280662999954,None,529.4280662999954,529.9279062999994,,,,,,,,,,,,,,,,111,2023-04-04_17h37.09.802,FishGame,2022.1.1,61.139269154323436,
,10,나를 데려가줘,6,Green,B,0,0,ScrollDown,ScrollUp,Green.png,4,NonTarget,NonTarget,0,0,0,0,,,,,,,,,,,,,,,,,,,,,,,,,0,9,9,9,,,,,,,,,,,,,,,,,,,,,,,,,,,,,,,,,,,,,,,,,,,,,,,,,,,,,,,,,,,,,,,,,,,,,,,,,1,1.0127914000186138,530.5456349999877,None,ScrollDown,정답입니다,530.5456349999877,None,530.5456349999877,None,530.5456349999877,None,530.5456349999877,None,531.458908999979,None,531.458908999979,531.9588662000024,,,,,,,,,,,,,,,,111,2023-04-04_17h37.09.802,FishGame,2022.1.1,61.139269154323436,
,11,넌 체제순응적이야,4,Green,B,3,3.6,ScrollUp,ScrollDown,Green.png,4,Negative,Congruent,0,0,0,0,,,,,,,,,,,,,,,,,,,,,,,,,0,10,10,10,,,,,,,,,,,,,,,,,,,,,,,,,,,,,,,,,,,,,,,,,,,,,,,,,,,,,,,,,,,,,,,,,,,,,,,,,1.9891975224018097,1.067574099986814,532.5879527999787,None,ScrollUp,정답입니다,532.5879527999787,None,532.5879527999787,None,532.5879527999787,None,532.5879527999787,None,533.5447418999975,None,533.5447418999975,534.0444574999856,,,,,,,,,,,,,,,,111,2023-04-04_17h37.09.802,FishGame,2022.1.1,61.139269154323436,
,12,나를 보내줘,6,Orange,A,0,0,ScrollUp,ScrollDown,Orange.png,4,NonTarget,NonTarget,0,0,0,0,,,,,,,,,,,,,,,,,,,,,,,,,0,11,11,11,,,,,,,,,,,,,,,,,,,,,,,,,,,,,,,,,,,,,,,,,,,,,,,,,,,,,,,,,,,,,,,,,,,,,,,,,1.939814825852712,0.9953108999761753,534.6679187999689,None,ScrollUp,정답입니다,534.6679187999689,None,534.6679187999689,None,534.6679187999689,None,534.6679187999689,None,535.5543435,None,535.5543435,536.0588395000086,,,,,,,,,,,,,,,,111,2023-04-04_17h37.09.802,FishGame,2022.1.1,61.139269154323436,
,13,넌 박식해,2,Orange,A,5.625,3.933333333333333,ScrollDown,ScrollUp,Orange.png,4,Positive,Congruent,0,0,0,0,,,,,,,,,,,,,,,,,,,,,,,,,0,12,12,12,,,,,,,,,,,,,,,,,,,,,,,,,,,,,,,,,,,,,,,,,,,,,,,,,,,,,,,,,,,,,,,,,,,,,,,,,1,1.0169664999702945,536.6816842999542,None,ScrollDown,정답입니다,536.6816842999542,None,536.6816842999542,None,536.6816842999542,None,536.6816842999542,None,537.5921602000017,None,537.5921602000017,538.0921175999683,,,,,,,,,,,,,,,,111,2023-04-04_17h37.09.802,FishGame,2022.1.1,61.139269154323436,
,14,나를 보내줘,6,Orange,A,0,0,ScrollUp,ScrollDown,Orange.png,4,NonTarget,NonTarget,0,0,0,0,,,,,,,,,,,,,,,,,,,,,,,,,0,13,13,13,,,,,,,,,,,,,,,,,,,,,,,,,,,,,,,,,,,,,,,,,,,,,,,,,,,,,,,,,,,,,,,,,,,,,,,,,1.9737654328346252,1.048417700047139,538.7169289999874,None,ScrollUp,정답입니다,538.7169289999874,None,538.7169289999874,None,538.7169289999874,None,538.7169289999874,None,539.6613198999548,None,539.6613198999548,540.1611406999873,,,,,,,,,,,,,,,,111,2023-04-04_17h37.09.802,FishGame,2022.1.1,61.139269154323436,
,15,넌 침착해,1,Green,B,5.458333333333333,5.566666666666666,ScrollUp,ScrollDown,Green.png,4,Positive,Incongruent,0,0,0,0,,,,,,,,,,,,,,,,,,,,,,,,,0,14,14,14,,,,,,,,,,,,,,,,,,,,,,,,,,,,,,,,,,,,,,,,,,,,,,,,,,,,,,,,,,,,,,,,,,,,,,,,,1.787037044763565,1.229464900039602,540.7853407000075,None,ScrollUp,정답입니다,540.7853407000075,None,540.7853407000075,None,540.7853407000075,None,540.7853407000075,None,541.9110844999668,None,541.9110844999668,542.4115449999808,,,,,,,,,,,,,,,,111,2023-04-04_17h37.09.802,FishGame,2022.1.1,61.139269154323436,
,16,나를 데려가줘,6,Green,B,0,0,ScrollDown,ScrollUp,Green.png,4,NonTarget,NonTarget,0,0,0,0,,,,,,,,,,,,,,,,,,,,,,,,,0,15,15,15,,,,,,,,,,,,,,,,,,,,,,,,,,,,,,,,,,,,,,,,,,,,,,,,,,,,,,,,,,,,,,,,,,,,,,,,,1,1.0814238999737427,543.0295496999752,None,ScrollDown,정답입니다,543.0295496999752,None,543.0295496999752,None,543.0295496999752,None,543.0295496999752,None,544.0109153999947,None,544.0109153999947,544.5108160999953,,,,,,,,,,,,,,,,111,2023-04-04_17h37.09.802,FishGame,2022.1.1,61.139269154323436,
,17,넌 행복해,1,Orange,A,6.416666666666666,6.166666666666667,ScrollDown,ScrollUp,Orange.png,4,Positive,Congruent,0,0,0,0,,,,,,,,,,,,,,,,,,,,,,,,,0,16,16,16,,,,,,,,,,,,,,,,,,,,,,,,,,,,,,,,,,,,,,,,,,,,,,,,,,,,,,,,,,,,,,,,,,,,,,,,,1,1.3500172999920323,545.1337808999815,None,ScrollDown,정답입니다,545.1337808999815,None,545.1337808999815,None,545.1337808999815,None,545.1337808999815,None,546.3776006999542,None,546.3776006999542,546.8776061999961,,,,,,,,,,,,,,,,111,2023-04-04_17h37.09.802,FishGame,2022.1.1,61.139269154323436,
,18,넌 겸손해,2,Green,B,5.791666666666667,4.766666666666667,ScrollUp,ScrollDown,Green.png,4,Positive,Incongruent,0,0,0,0,,,,,,,,,,,,,,,,,,,,,,,,,0,17,17,17,,,,,,,,,,,,,,,,,,,,,,,,,,,,,,,,,,,,,,,,,,,,,,,,,,,,,,,,,,,,,,,,,,,,,,,,,1.9521604875723522,1.630493699980434,547.5067439999548,None,ScrollUp,정답입니다,547.5067439999548,None,547.5067439999548,None,547.5067439999548,None,547.5067439999548,None,549.0251162999775,None,549.0251162999775,549.525224299985,,,,,,,,,,,,,,,,111,2023-04-04_17h37.09.802,FishGame,2022.1.1,61.139269154323436,
,19,나를 보내줘,6,Orange,A,0,0,ScrollUp,ScrollDown,Orange.png,4,NonTarget,NonTarget,0,0,0,0,,,,,,,,,,,,,,,,,,,,,,,,,0,18,18,18,,,,,,,,,,,,,,,,,,,,,,,,,,,,,,,,,,,,,,,,,,,,,,,,,,,,,,,,,,,,,,,,,,,,,,,,,1.7500000099341075,1.065454400028102,550.1429531999747,None,ScrollUp,정답입니다,550.1429531999747,None,550.1429531999747,None,550.1429531999747,None,550.1429531999747,None,551.1085179999936,None,551.1085179999936,551.6108904999564,,,,,,,,,,,,,,,,111,2023-04-04_17h37.09.802,FishGame,2022.1.1,61.139269154323436,
,20,넌 의심없어,3,Orange,A,4.166666666666667,4.6,ScrollDown,ScrollUp,Orange.png,4,Neutral,Neutral,0,0,0,0,,,,,,,,,,,,,,,,,,,,,,,,,0,19,19,19,,,,,,,,,,,,,,,,,,,,,,,,,,,,,,,,,,,,,,,,,,,,,,,,,,,,,,,,,,,,,,,,,,,,,,,,,1.0632716019948323,1.032928999979049,552.2311095999903,None,ScrollDown,정답입니다,552.2311095999903,None,552.2311095999903,None,552.2311095999903,None,552.2311095999903,None,553.160855199967,None,553.160855199967,553.6642453999957,,,,,,,,,,,,,,,,111,2023-04-04_17h37.09.802,FishGame,2022.1.1,61.139269154323436,
,21,넌 시시해,4,Orange,A,2.666666666666667,2.966666666666667,ScrollDown,ScrollUp,Orange.png,4,Negative,Incongruent,0,0,0,0,,,,,,,,,,,,,,,,,,,,,,,,,0,20,20,20,,,,,,,,,,,,,,,,,,,,,,,,,,,,,,,,,,,,,,,,,,,,,,,,,,,,,,,,,,,,,,,,,,,,,,,,,1,0.9458433000254445,554.2840606999816,None,ScrollDown,정답입니다,554.2840606999816,None,554.2840606999816,None,554.2840606999816,None,554.2840606999816,None,555.1273481999524,None,555.1273481999524,555.6279056000058,,,,,,,,,,,,,,,,111,2023-04-04_17h37.09.802,FishGame,2022.1.1,61.139269154323436,
,22,나를 데려가줘,6,Green,B,0,0,ScrollDown,ScrollUp,Green.png,4,NonTarget,NonTarget,0,0,0,0,,,,,,,,,,,,,,,,,,,,,,,,,0,21,21,21,,,,,,,,,,,,,,,,,,,,,,,,,,,,,,,,,,,,,,,,,,,,,,,,,,,,,,,,,,,,,,,,,,,,,,,,,1,1.1150203999713995,556.2534815999679,None,ScrollDown,정답입니다,556.2534815999679,None,556.2534815999679,None,556.2534815999679,None,556.2534815999679,None,557.2607691999874,None,557.2607691999874,557.7606868000003,,,,,,,,,,,,,,,,111,2023-04-04_17h37.09.802,FishGame,2022.1.1,61.139269154323436,
,23,넌 무정해,5,Orange,A,2.5,2.2,ScrollDown,ScrollUp,Orange.png,4,Negative,Incongruent,0,0,0,0,,,,,,,,,,,,,,,,,,,,,,,,,0,22,22,22,,,,,,,,,,,,,,,,,,,,,,,,,,,,,,,,,,,,,,,,,,,,,,,,,,,,,,,,,,,,,,,,,,,,,,,,,1,0.9792709000175819,558.3911632999661,None,ScrollDown,정답입니다,558.3911632999661,None,558.3911632999661,None,558.3911632999661,None,558.3911632999661,None,559.2606249999953,None,559.2606249999953,559.7771936999634,,,,,,,,,,,,,,,,111,2023-04-04_17h37.09.802,FishGame,2022.1.1,61.139269154323436,
,24,넌 긍정적이야,1,Green,B,6.041666666666667,6.066666666666666,ScrollUp,ScrollDown,Green.png,4,Positive,Incongruent,0,0,0,0,,,,,,,,,,,,,,,,,,,,,,,,,0,23,23,23,,,,,,,,,,,,,,,,,,,,,,,,,,,,,,,,,,,,,,,,,,,,,,,,,,,,,,,,,,,,,,,,,,,,,,,,,1.9737654328346252,1.2148232000181451,560.3833707000013,None,ScrollUp,정답입니다,560.3833707000013,None,560.3833707000013,None,560.3833707000013,None,560.3833707000013,None,561.493934899976,None,561.493934899976,561.9944217999582,,,,,,,,,,,,,,,,111,2023-04-04_17h37.09.802,FishGame,2022.1.1,61.139269154323436,
,25,나를 보내줘,6,Orange,A,0,0,ScrollUp,ScrollDown,Orange.png,4,NonTarget,NonTarget,0,0,0,0,,,,,,,,,,,,,,,,,,,,,,,,,0,24,24,24,,,,,,,,,,,,,,,,,,,,,,,,,,,,,,,,,,,,,,,,,,,,,,,,,,,,,,,,,,,,,,,,,,,,,,,,,1.9737654328346252,0.9124321000417694,562.615951899963,None,ScrollUp,정답입니다,562.615951899963,None,562.615951899963,None,562.615951899963,None,562.615951899963,None,563.4248851999873,None,563.4248851999873,563.924907699984,,,,,,,,,,,,,,,,111,2023-04-04_17h37.09.802,FishGame,2022.1.1,61.139269154323436,
,26,넌 시기심이 많아,5,Green,B,2.458333333333333,2.233333333333333,ScrollUp,ScrollDown,Green.png,4,Negative,Congruent,0,0,0,0,,,,,,,,,,,,,,,,,,,,,,,,,0,25,25,25,,,,,,,,,,,,,,,,,,,,,,,,,,,,,,,,,,,,,,,,,,,,,,,,,,,,,,,,,,,,,,,,,,,,,,,,,1.819444437821706,1.0293319000047632,564.5539343999699,None,ScrollUp,정답입니다,564.5539343999699,None,564.5539343999699,None,564.5539343999699,None,564.5539343999699,None,565.4748743999517,None,565.4748743999517,565.9772325999802,,,,,,,,,,,,,,,,111,2023-04-04_17h37.09.802,FishGame,2022.1.1,61.139269154323436,
,27,넌 탁월해,2,Orange,A,5.708333333333334,4.5,ScrollDown,ScrollUp,Orange.png,4,Positive,Congruent,0,0,0,0,,,,,,,,,,,,,,,,,,,,,,,,,0,26,26,26,,,,,,,,,,,,,,,,,,,,,,,,,,,,,,,,,,,,,,,,,,,,,,,,,,,,,,,,,,,,,,,,,,,,,,,,,1,0.9648536000167951,566.6022794999881,None,ScrollDown,정답입니다,566.6022794999881,None,566.6022794999881,None,566.6022794999881,None,566.6022794999881,None,567.4606116999639,None,567.4606116999639,567.9605413999525,,,,,,,,,,,,,,,,111,2023-04-04_17h37.09.802,FishGame,2022.1.1,61.139269154323436,
,28,나를 데려가줘,6,Green,B,0,0,ScrollDown,ScrollUp,Green.png,4,NonTarget,NonTarget,0,0,0,0,,,,,,,,,,,,,,,,,,,,,,,,,0,27,27,27,,,,,,,,,,,,,,,,,,,,,,,,,,,,,,,,,,,,,,,,,,,,,,,,,,,,,,,,,,,,,,,,,,,,,,,,,1,1.1980181999970227,568.5818588999682,None,ScrollDown,정답입니다,568.5818588999682,None,568.5818588999682,None,568.5818588999682,None,568.5818588999682,None,569.6770494999946,None,569.6770494999946,570.1770514000091,,,,,,,,,,,,,,,,111,2023-04-04_17h37.09.802,FishGame,2022.1.1,61.139269154323436,
,29,넌 조용해,3,Green,B,4.333333333333333,4.166666666666667,ScrollUp,ScrollDown,Green.png,4,Neutral,Neutral,0,0,0,0,,,,,,,,,,,,,,,,,,,,,,,,,0,28,28,28,,,,,,,,,,,,,,,,,,,,,,,,,,,,,,,,,,,,,,,,,,,,,,,,,,,,,,,,,,,,,,,,,,,,,,,,,2,1.083367499988526,570.7994602999534,None,ScrollUp,정답입니다,570.7994602999534,None,570.7994602999534,None,570.7994602999534,None,570.7994602999534,None,571.7748867999762,None,571.7748867999762,572.2773417999852,,,,,,,,,,,,,,,,111,2023-04-04_17h37.09.802,FishGame,2022.1.1,61.139269154323436,
,30,넌 다정해,1,Orange,A,5.833333333333334,5.7,ScrollDown,ScrollUp,Orange.png,4,Positive,Congruent,0,0,0,0,,,,,,,,,,,,,,,,,,,,,,,,,0,29,29,29,,,,,,,,,,,,,,,,,,,,,,,,,,,,,,,,,,,,,,,,,,,,,,,,,,,,,,,,,,,,,,,,,,,,,,,,,1,1.064803299959749,572.9006802999647,None,ScrollDown,정답입니다,572.9006802999647,None,572.9006802999647,None,572.9006802999647,None,572.9006802999647,None,573.8603579999763,None,573.8603579999763,574.3602751999861,,,,,,,,,,,,,,,,111,2023-04-04_17h37.09.802,FishGame,2022.1.1,61.139269154323436,
,31,넌 능력있어,2,Green,B,6.166666666666666,4.6,ScrollUp,ScrollDown,Green.png,4,Positive,Incongruent,0,0,0,0,,,,,,,,,,,,,,,,,,,,,,,,,0,30,30,30,,,,,,,,,,,,,,,,,,,,,,,,,,,,,,,,,,,,,,,,,,,,,,,,,,,,,,,,,,,,,,,,,,,,,,,,,2,1.0101290000020526,574.9797246999806,None,ScrollUp,정답입니다,574.9797246999806,None,574.9797246999806,None,574.9797246999806,None,574.9797246999806,None,575.8867103999946,None,575.8867103999946,576.3912430999917,,,,,,,,,,,,,,,,111,2023-04-04_17h37.09.802,FishGame,2022.1.1,61.139269154323436,
,32,넌 불쾌해,5,Orange,A,2.125,1.933333333333333,ScrollDown,ScrollUp,Orange.png,4,Negative,Incongruent,0,0,0,0,,,,,,,,,,,,,,,,,,,,,,,,,0,31,31,31,,,,,,,,,,,,,,,,,,,,,,,,,,,,,,,,,,,,,,,,,,,,,,,,,,,,,,,,,,,,,,,,,,,,,,,,,1,1.0146777000045404,577.008745900006,None,ScrollDown,정답입니다,577.008745900006,None,577.008745900006,None,577.008745900006,None,577.008745900006,None,577.9246221999638,None,577.9246221999638,578.427011199994,,,,,,,,,,,,,,,,111,2023-04-04_17h37.09.802,FishGame,2022.1.1,61.139269154323436,
,33,나를 데려가줘,6,Green,B,0,0,ScrollDown,ScrollUp,Green.png,4,NonTarget,NonTarget,0,0,0,0,,,,,,,,,,,,,,,,,,,,,,,,,0,32,32,32,,,,,,,,,,,,,,,,,,,,,,,,,,,,,,,,,,,,,,,,,,,,,,,,,,,,,,,,,,,,,,,,,,,,,,,,,1.0123456915219624,1.5333120999857783,579.0476705000037,None,ScrollDown,정답입니다,579.0476705000037,None,579.0476705000037,None,579.0476705000037,None,579.0476705000037,None,580.4770407999749,None,580.4770407999749,580.9767845000024,,,,,,,,,,,,,,,,111,2023-04-04_17h37.09.802,FishGame,2022.1.1,61.139269154323436,
,34,넌 유순해,3,Orange,A,4.458333333333333,5,ScrollDown,ScrollUp,Orange.png,4,Neutral,Neutral,0,0,0,0,,,,,,,,,,,,,,,,,,,,,,,,,0,33,33,33,,,,,,,,,,,,,,,,,,,,,,,,,,,,,,,,,,,,,,,,,,,,,,,,,,,,,,,,,,,,,,,,,,,,,,,,,1,0.9832903000060469,581.5985251999809,None,ScrollDown,정답입니다,581.5985251999809,None,581.5985251999809,None,581.5985251999809,None,581.5985251999809,None,582.4768187999725,None,582.4768187999725,582.9768352999818,,,,,,,,,,,,,,,,111,2023-04-04_17h37.09.802,FishGame,2022.1.1,61.139269154323436,
,35,넌 근심스러워,4,Green,B,2.708333333333333,3.133333333333333,ScrollUp,ScrollDown,Green.png,4,Negative,Congruent,0,0,0,0,,,,,,,,,,,,,,,,,,,,,,,,,0,34,34,34,,,,,,,,,,,,,,,,,,,,,,,,,,,,,,,,,,,,,,,,,,,,,,,,,,,,,,,,,,,,,,,,,,,,,,,,,1.9367283980051677,1.1279023999813944,583.6022787999827,None,ScrollUp,정답입니다,583.6022787999827,None,583.6022787999827,None,583.6022787999827,None,583.6022787999827,None,584.6267843999667,None,584.6267843999667,585.1267161999713,,,,,,,,,,,,,,,,111,2023-04-04_17h37.09.802,FishGame,2022.1.1,61.139269154323436,
,36,넌 세련되었어,2,Orange,A,5.5,4.6,ScrollDown,ScrollUp,Orange.png,4,Positive,Congruent,0,0,0,0,,,,,,,,,,,,,,,,,,,,,,,,,0,35,35,35,,,,,,,,,,,,,,,,,,,,,,,,,,,,,,,,,,,,,,,,,,,,,,,,,,,,,,,,,,,,,,,,,,,,,,,,,1,0.8625007999944501,585.7583629000001,None,ScrollDown,정답입니다,585.7583629000001,None,585.7583629000001,None,585.7583629000001,None,585.7583629000001,None,586.5076823999989,None,586.5076823999989,587.0076693999581,,,,,,,,,,,,,,,,111,2023-04-04_17h37.09.802,FishGame,2022.1.1,61.139269154323436,
,37,나를 보내줘,6,Orange,A,0,0,ScrollUp,ScrollDown,Orange.png,4,NonTarget,NonTarget,0,0,0,0,,,,,,,,,,,,,,,,,,,,,,,,,0,36,36,36,,,,,,,,,,,,,,,,,,,,,,,,,,,,,,,,,,,,,,,,,,,,,,,,,,,,,,,,,,,,,,,,,,,,,,,,,1.8888888905445735,1.0295209999894723,587.6314926999621,None,ScrollUp,정답입니다,587.6314926999621,None,587.6314926999621,None,587.6314926999621,None,587.6314926999621,None,588.5577368999948,None,588.5577368999948,589.0600837999955,,,,,,,,,,,,,,,,111,2023-04-04_17h37.09.802,FishGame,2022.1.1,61.139269154323436,
,38,넌 확고해,3,Green,B,4.708333333333334,4.566666666666666,ScrollUp,ScrollDown,Green.png,4,Neutral,Neutral,0,0,0,0,,,,,,,,,,,,,,,,,,,,,,,,,0,37,37,37,,,,,,,,,,,,,,,,,,,,,,,,,,,,,,,,,,,,,,,,,,,,,,,,,,,,,,,,,,,,,,,,,,,,,,,,,2,1.1335159000009298,589.6818834999576,None,ScrollUp,정답입니다,589.6818834999576,None,589.6818834999576,None,589.6818834999576,None,589.6818834999576,None,590.7101226999657,None,590.7101226999657,591.209921600006,,,,,,,,,,,,,,,,111,2023-04-04_17h37.09.802,FishGame,2022.1.1,61.139269154323436,
,39,넌 이해심이 많아,1,Green,B,6.041666666666668,5.533333333333333,ScrollUp,ScrollDown,Green.png,4,Positive,Incongruent,0,0,0,0,,,,,,,,,,,,,,,,,,,,,,,,,0,38,38,38,,,,,,,,,,,,,,,,,,,,,,,,,,,,,,,,,,,,,,,,,,,,,,,,,,,,,,,,,,,,,,,,,,,,,,,,,2,1.0000154000008479,591.8278333999915,None,ScrollUp,정답입니다,591.8278333999915,None,591.8278333999915,None,591.8278333999915,None,591.8278333999915,None,592.7245189999812,None,592.7245189999812,593.2269052999909,,,,,,,,,,,,,,,,111,2023-04-04_17h37.09.802,FishGame,2022.1.1,61.139269154323436,
,40,나를 보내줘,6,Orange,A,0,0,ScrollUp,ScrollDown,Orange.png,4,NonTarget,NonTarget,0,0,0,0,,,,,,,,,,,,,,,,,,,,,,,,,0,39,39,39,,,,,,,,,,,,,,,,,,,,,,,,,,,,,,,,,,,,,,,,,,,,,,,,,,,,,,,,,,,,,,,,,,,,,,,,,2,0.898172200017143,593.8537355999579,None,ScrollUp,정답입니다,593.8537355999579,None,593.8537355999579,None,593.8537355999579,None,593.8537355999579,None,594.641087099968,None,594.641087099968,595.1435651999782,,,,,,,,,,,,,,,,111,2023-04-04_17h37.09.802,FishGame,2022.1.1,61.139269154323436,
,41,넌 거칠어,4,Orange,A,2.625,3.033333333333333,ScrollDown,ScrollUp,Orange.png,4,Negative,Incongruent,0,0,0,0,,,,,,,,,,,,,,,,,,,,,,,,,0,40,40,40,,,,,,,,,,,,,,,,,,,,,,,,,,,,,,,,,,,,,,,,,,,,,,,,,,,,,,,,,,,,,,,,,,,,,,,,,1,0.9648584999958985,595.767999099975,None,ScrollDown,정답입니다,595.767999099975,None,595.767999099975,None,595.767999099975,None,595.767999099975,None,596.6264729999821,None,596.6264729999821,597.1265001999564,,,,,,,,,,,,,,,,111,2023-04-04_17h37.09.802,FishGame,2022.1.1,61.139269154323436,
,42,넌 변덕맞아,5,Green,B,2.75,2.166666666666667,ScrollUp,ScrollDown,Green.png,4,Negative,Congruent,0,0,0,0,,,,,,,,,,,,,,,,,,,,,,,,,0,41,41,41,,,,,,,,,,,,,,,,,,,,,,,,,,,,,,,,,,,,,,,,,,,,,,,,,,,,,,,,,,,,,,,,,,,,,,,,,1.9645061492919922,1.0978675000369549,597.7512147999951,None,ScrollUp,정답입니다,597.7512147999951,None,597.7512147999951,None,597.7512147999951,None,597.7512147999951,None,598.7407501999987,None,598.7407501999987,599.2415695999516,,,,,,,,,,,,,,,,111,2023-04-04_17h37.09.802,FishGame,2022.1.1,61.139269154323436,
,43,나를 데려가줘,6,Green,B,0,0,ScrollDown,ScrollUp,Green.png,4,NonTarget,NonTarget,0,0,0,0,,,,,,,,,,,,,,,,,,,,,,,,,0,42,42,42,,,,,,,,,,,,,,,,,,,,,,,,,,,,,,,,,,,,,,,,,,,,,,,,,,,,,,,,,,,,,,,,,,,,,,,,,1,1.0996018999721855,599.8587177000009,None,ScrollDown,정답입니다,599.8587177000009,None,599.8587177000009,None,599.8587177000009,None,599.8587177000009,None,600.8574575000093,None,600.8574575000093,601.3598249999923,,,,,,,,,,,,,,,,111,2023-04-04_17h37.09.802,FishGame,2022.1.1,61.139269154323436,
,44,넌 외로워,4,Green,B,2.833333333333333,3.3,ScrollUp,ScrollDown,Green.png,4,Negative,Congruent,0,0,0,0,,,,,,,,,,,,,,,,,,,,,,,,,0,43,43,43,,,,,,,,,,,,,,,,,,,,,,,,,,,,,,,,,,,,,,,,,,,,,,,,,,,,,,,,,,,,,,,,,,,,,,,,,2,0.9829462000052445,601.982173700002,None,ScrollUp,정답입니다,601.982173700002,None,601.982173700002,None,601.982173700002,None,601.982173700002,None,602.8598176999949,None,602.8598176999949,603.3596859999816,,,,,,,,,,,,,,,,111,2023-04-04_17h37.09.802,FishGame,2022.1.1,61.139269154323436,
,1,넌 불평스러워,5,Orange,A,2.25,2.066666666666667,ScrollDown,ScrollUp,Orange.png,5,Negative,Incongruent,0,0,0,0,,,,,,,,,,,,,,,,,,,,,,,,,,,,,0,0,0,0,,,,,,,,,,,,,,,,,,,,,,,,,,,,635.5759674999863,637.0757762999856,637.1091310000047,638.0590704999631,638.1090651999693,639.0590652999817,639.0590652999817,None,,,,,,,,,,,,,,,,,,,,,,,,,,,,,,,,,,1,1.0000562999630347,640.1497240999597,None,ScrollDown,정답입니다,640.1497240999597,None,640.1497240999597,None,640.1497240999597,None,640.1497240999597,None,641.0422487999895,None,641.0422487999895,641.5453454999952,603.8596831999603,None,603.8596831999603,None,0.23333333,-0.1037037,1,0,0,0.016284610028378665,None,633.8589037999627,None,,,111,2023-04-04_17h37.09.802,FishGame,2022.1.1,61.139269154323436,
,2,나를 보내줘,6,Orange,A,0,0,ScrollUp,ScrollDown,Orange.png,5,NonTarget,NonTarget,0,0,0,0,,,,,,,,,,,,,,,,,,,,,,,,,,,,,0,1,1,1,,,,,,,,,,,,,,,,,,,,,,,,,,,,,,,,,,,,,,,,,,,,,,,,,,,,,,,,,,,,,,,,,,,,,1.8117283930381138,0.9813114999560639,642.1642503999756,None,ScrollUp,정답입니다,642.1642503999756,None,642.1642503999756,None,642.1642503999756,None,642.1642503999756,None,643.0420309999608,None,643.0420309999608,643.5420664999983,,,,,,,,,,,,,,,,111,2023-04-04_17h37.09.802,FishGame,2022.1.1,61.139269154323436,
,3,넌 다재다능해,2,Green,B,6.208333333333333,4.5,ScrollUp,ScrollDown,Green.png,5,Positive,Incongruent,0,0,0,0,,,,,,,,,,,,,,,,,,,,,,,,,,,,,0,2,2,2,,,,,,,,,,,,,,,,,,,,,,,,,,,,,,,,,,,,,,,,,,,,,,,,,,,,,,,,,,,,,,,,,,,,,1.8966049353281658,0.9503506000037305,644.1633077999577,None,ScrollUp,정답입니다,644.1633077999577,None,644.1633077999577,None,644.1633077999577,None,644.1633077999577,None,645.008791100001,None,645.008791100001,645.508768700005,,,,,,,,,,,,,,,,111,2023-04-04_17h37.09.802,FishGame,2022.1.1,61.139269154323436,
,4,넌 과감해,3,Orange,A,4.833333333333334,4.6,ScrollDown,ScrollUp,Orange.png,5,Neutral,Neutral,0,0,0,0,,,,,,,,,,,,,,,,,,,,,,,,,,,,,0,3,3,3,,,,,,,,,,,,,,,,,,,,,,,,,,,,,,,,,,,,,,,,,,,,,,,,,,,,,,,,,,,,,,,,,,,,,1,0.9459789000102319,646.1306838999735,None,ScrollDown,정답입니다,646.1306838999735,None,646.1306838999735,None,646.1306838999735,None,646.1306838999735,None,646.9730774000054,None,646.9730774000054,647.4730663999799,,,,,,,,,,,,,,,,111,2023-04-04_17h37.09.802,FishGame,2022.1.1,61.139269154323436,
,5,넌 고분고분해,3,Green,B,3.75,4.033333333333333,ScrollUp,ScrollDown,Green.png,5,Neutral,Neutral,0,0,0,0,,,,,,,,,,,,,,,,,,,,,,,,,,,,,0,4,4,4,,,,,,,,,,,,,,,,,,,,,,,,,,,,,,,,,,,,,,,,,,,,,,,,,,,,,,,,,,,,,,,,,,,,,1.8703703731298447,1.2647969999816269,648.098117699963,None,ScrollUp,정답입니다,648.098117699963,None,648.098117699963,None,648.098117699963,None,648.098117699963,None,649.2587939999648,None,649.2587939999648,649.7587959999801,,,,,,,,,,,,,,,,111,2023-04-04_17h37.09.802,FishGame,2022.1.1,61.139269154323436,
,6,나를 보내줘,6,Orange,A,0,0,ScrollUp,ScrollDown,Orange.png,5,NonTarget,NonTarget,0,0,0,0,,,,,,,,,,,,,,,,,,,,,,,,,,,,,0,5,5,5,,,,,,,,,,,,,,,,,,,,,,,,,,,,,,,,,,,,,,,,,,,,,,,,,,,,,,,,,,,,,,,,,,,,,1.7824074029922485,0.962445699959062,650.3815033999854,None,ScrollUp,정답입니다,650.3815033999854,None,650.3815033999854,None,650.3815033999854,None,650.3815033999854,None,651.2396302999696,None,651.2396302999696,651.7404655999853,,,,,,,,,,,,,,,,111,2023-04-04_17h37.09.802,FishGame,2022.1.1,61.139269154323436,
,7,넌 잘 잊어,4,Orange,A,3,3.7,ScrollDown,ScrollUp,Orange.png,5,Negative,Incongruent,0,0,0,0,,,,,,,,,,,,,,,,,,,,,,,,,,,,,0,6,6,6,,,,,,,,,,,,,,,,,,,,,,,,,,,,,,,,,,,,,,,,,,,,,,,,,,,,,,,,,,,,,,,,,,,,,1,1.0646998999873176,652.368258100003,None,ScrollDown,정답입니다,652.368258100003,None,652.368258100003,None,652.368258100003,None,652.368258100003,None,653.3259908999898,None,653.3259908999898,653.8254039000021,,,,,,,,,,,,,,,,111,2023-04-04_17h37.09.802,FishGame,2022.1.1,61.139269154323436,
,8,넌 탐구심이없어,4,Green,B,2.833333333333333,3.066666666666667,ScrollUp,ScrollDown,Green.png,5,Negative,Congruent,0,0,0,0,,,,,,,,,,,,,,,,,,,,,,,,,,,,,0,7,7,7,,,,,,,,,,,,,,,,,,,,,,,,,,,,,,,,,,,,,,,,,,,,,,,,,,,,,,,,,,,,,,,,,,,,,1.7808641890684764,1.1652712000068277,654.44893829996,None,ScrollUp,정답입니다,654.44893829996,None,654.44893829996,None,654.44893829996,None,654.44893829996,None,655.5087922000093,None,655.5087922000093,656.0086474999553,,,,,,,,,,,,,,,,111,2023-04-04_17h37.09.802,FishGame,2022.1.1,61.139269154323436,
,9,나를 데려가줘,6,Green,B,0,0,ScrollDown,ScrollUp,Green.png,5,NonTarget,NonTarget,0,0,0,0,,,,,,,,,,,,,,,,,,,,,,,,,,,,,0,8,8,8,,,,,,,,,,,,,,,,,,,,,,,,,,,,,,,,,,,,,,,,,,,,,,,,,,,,,,,,,,,,,,,,,,,,,1.0092592636744182,1.1978864999837242,656.6265936999698,None,ScrollDown,정답입니다,656.6265936999698,None,656.6265936999698,None,656.6265936999698,None,656.6265936999698,None,657.7251493000076,None,657.7251493000076,658.2251011999906,,,,,,,,,,,,,,,,111,2023-04-04_17h37.09.802,FishGame,2022.1.1,61.139269154323436,
,10,넌 참되어,2,Orange,A,6.041666666666664,4.733333333333333,ScrollDown,ScrollUp,Orange.png,5,Positive,Congruent,0,0,0,0,,,,,,,,,,,,,,,,,,,,,,,,,,,,,0,9,9,9,,,,,,,,,,,,,,,,,,,,,,,,,,,,,,,,,,,,,,,,,,,,,,,,,,,,,,,,,,,,,,,,,,,,,1,1.0626771000097506,658.8523855999811,None,ScrollDown,정답입니다,658.8523855999811,None,658.8523855999811,None,658.8523855999811,None,658.8523855999811,None,659.8060896999668,None,659.8060896999668,660.3061067999806,,,,,,,,,,,,,,,,111,2023-04-04_17h37.09.802,FishGame,2022.1.1,61.139269154323436,
,11,넌 생기있어,1,Green,B,5.875,5.633333333333334,ScrollUp,ScrollDown,Green.png,5,Positive,Incongruent,0,0,0,0,,,,,,,,,,,,,,,,,,,,,,,,,,,,,0,10,10,10,,,,,,,,,,,,,,,,,,,,,,,,,,,,,,,,,,,,,,,,,,,,,,,,,,,,,,,,,,,,,,,,,,,,,1.805555562178294,0.933391299971845,660.9315378000028,None,ScrollUp,정답입니다,660.9315378000028,None,660.9315378000028,None,660.9315378000028,None,660.9315378000028,None,661.7561558999587,None,661.7561558999587,662.2561811999767,,,,,,,,,,,,,,,,111,2023-04-04_17h37.09.802,FishGame,2022.1.1,61.139269154323436,
,12,넌 비사교적이야,4,Green,B,2.875,2.9,ScrollUp,ScrollDown,Green.png,5,Negative,Congruent,0,0,0,0,,,,,,,,,,,,,,,,,,,,,,,,,,,,,0,11,11,11,,,,,,,,,,,,,,,,,,,,,,,,,,,,,,,,,,,,,,,,,,,,,,,,,,,,,,,,,,,,,,,,,,,,,1.9413580397764842,1.0651810999843292,662.8783485000022,None,ScrollUp,정답입니다,662.8783485000022,None,662.8783485000022,None,662.8783485000022,None,662.8783485000022,None,663.8418040999677,None,663.8418040999677,664.3418149999925,,,,,,,,,,,,,,,,111,2023-04-04_17h37.09.802,FishGame,2022.1.1,61.139269154323436,
,13,나를 데려가줘,6,Green,B,0,0,ScrollDown,ScrollUp,Green.png,5,NonTarget,NonTarget,0,0,0,0,,,,,,,,,,,,,,,,,,,,,,,,,,,,,0,12,12,12,,,,,,,,,,,,,,,,,,,,,,,,,,,,,,,,,,,,,,,,,,,,,,,,,,,,,,,,,,,,,,,,,,,,,1,0.9763022999977693,664.9720057999948,None,ScrollDown,정답입니다,664.9720057999948,None,664.9720057999948,None,664.9720057999948,None,664.9720057999948,None,665.8396006999537,None,665.8396006999537,666.3415975999669,,,,,,,,,,,,,,,,111,2023-04-04_17h37.09.802,FishGame,2022.1.1,61.139269154323436,
,14,넌 고독해,4,Orange,A,2.916666666666667,3.233333333333333,ScrollDown,ScrollUp,Orange.png,5,Negative,Incongruent,0,0,0,0,,,,,,,,,,,,,,,,,,,,,,,,,,,,,0,13,13,13,,,,,,,,,,,,,,,,,,,,,,,,,,,,,,,,,,,,,,,,,,,,,,,,,,,,,,,,,,,,,,,,,,,,,1,1.1452668000129052,666.964444399986,None,ScrollDown,정답입니다,666.964444399986,None,666.964444399986,None,666.964444399986,None,666.964444399986,None,668.0059663999709,None,668.0059663999709,668.5060180999571,,,,,,,,,,,,,,,,111,2023-04-04_17h37.09.802,FishGame,2022.1.1,61.139269154323436,
,15,넌 신경질적이야,5,Green,B,2.375,2.233333333333333,ScrollUp,ScrollDown,Green.png,5,Negative,Congruent,0,0,0,0,,,,,,,,,,,,,,,,,,,,,,,,,,,,,0,14,14,14,,,,,,,,,,,,,,,,,,,,,,,,,,,,,,,,,,,,,,,,,,,,,,,,,,,,,,,,,,,,,,,,,,,,,1.702160490055879,1.1508311999496073,669.1305074999691,None,ScrollUp,정답입니다,669.1305074999691,None,669.1305074999691,None,669.1305074999691,None,669.1305074999691,None,670.1749978999724,None,670.1749978999724,670.6757145999582,,,,,,,,,,,,,,,,111,2023-04-04_17h37.09.802,FishGame,2022.1.1,61.139269154323436,
