name,TrialNum,Word,WordCategory,FishType,WordList,WordValence,WordReputation,CorrectResp,IncorrectResp,FishTypeFile,Round,WordType,Condition,LoopforOrange.thisRepN,LoopforOrange.thisTrialN,LoopforOrange.thisN,LoopforOrange.thisIndex,LoopForGreen.thisRepN,LoopForGreen.thisTrialN,LoopForGreen.thisN,LoopForGreen.thisIndex,GreenInstLoop.thisRepN,GreenInstLoop.thisTrialN,GreenInstLoop.thisN,GreenInstLoop.thisIndex,GreenPrac.thisRepN,GreenPrac.thisTrialN,GreenPrac.thisN,GreenPrac.thisIndex,trials_2.thisRepN,trials_2.thisTrialN,trials_2.thisN,trials_2.thisIndex,GreenRound1.thisRepN,GreenRound1.thisTrialN,GreenRound1.thisN,GreenRound1.thisIndex,GreenRound2.thisRepN,GreenRound2.thisTrialN,GreenRound2.thisN,GreenRound2.thisIndex,GreenRound3.thisRepN,GreenRound3.thisTrialN,GreenRound3.thisN,GreenRound3.thisIndex,GreenRound4.thisRepN,GreenRound4.thisTrialN,GreenRound4.thisN,GreenRound4.thisIndex,GreenRound5.thisRepN,GreenRound5.thisTrialN,GreenRound5.thisN,GreenRound5.thisIndex,text_2.started,text_2.stopped,text_3.started,text_3.stopped,key_resp.keys,key_resp.rt,key_resp.started,key_resp.stopped,PassI.started,PassI.stopped,PassInst.keys,PassInst.rt,PassInst.started,PassInst.stopped,mouse_2.x,mouse_2.y,mouse_2.leftButton,mouse_2.midButton,mouse_2.rightButton,mouse_2.started,mouse_2.stopped,image.started,image.stopped,text_5.started,text_5.stopped,text_6.started,text_6.stopped,text_7.started,text_7.stopped,text_8.started,text_8.stopped,slider_3.response,slider_3.rt,slider_3.started,slider_3.stopped,Response_3,Feedback_3,BackGround_3.started,BackGround_3.stopped,Fish_3.started,Fish_3.stopped,WordBox_3.started,WordBox_3.stopped,Words_3.started,Words_3.stopped,BackGround_Feedback_3.started,BackGround_Feedback_3.stopped,Feedbacks_3.started,Feedbacks_3.stopped,Continue_or_not_2.keys,Continue_or_not_2.rt,Continue_or_not_2.started,Continue_or_not_2.stopped,image_4.started,image_4.stopped,mouse_3.x,mouse_3.y,mouse_3.leftButton,mouse_3.midButton,mouse_3.rightButton,mouse_3.started,mouse_3.stopped,startmain.started,startmain.stopped,slider_4.response,slider_4.rt,slider_4.started,slider_4.stopped,Response_4,Feedback_4,BackGround_4.started,BackGround_4.stopped,Fish_4.started,Fish_4.stopped,WordBox_4.started,WordBox_4.stopped,Words_4.started,Words_4.stopped,BackGround_Feedback_4.started,BackGround_Feedback_4.stopped,Feedbacks_4.started,Feedbacks_4.stopped,text.started,text.stopped,break_interval.started,break_interval.stopped,mouse.x,mouse.y,mouse.leftButton,mouse.midButton,mouse.rightButton,mouse.started,mouse.stopped,stratnextround.started,stratnextround.stopped,endgame.started,endgame.stopped,participant,date,expName,psychopyVersion,frameRate,
,,,,,,,,,,,,,,,,,,,,,,,,,,,,,,,,,,,,,,,,,,,,,,,,,,,,,,18.34643719997257,None,18.34643719997257,None,space,2.279274299973622,18.835665399907157,None,,,,,,,,,,,,,,,,,,,,,,,,,,,,,,,,,,,,,,,,,,,,,,,,,,,,,,,,,,,,,,,,,,,,,,,,,,,,,,,,,,,,,,,,,,112,2023-04-06_14h13.27.436,FishGame,2022.1.1,59.99743207638471,
물고기과제_instruction(참가자용)GreenVersion.mp4,,,,,,,,,,,,,,,,,,0,0,0,0,0,0,0,0,,,,,,,,,,,,,,,,,,,,,,,,,,,,,,,,,,,,,91.7479182999814,None,n,1.359138400061056,91.7479182999814,None,,,,,,,,,,,,,,,,,,,,,,,,,,,,,,,,,,,,,,,,,,,,,,,,,,,,,,,,,,,,,,,,,,,,,,,,,,,,,,,,,,,,112,2023-04-06_14h13.27.436,FishGame,2022.1.1,59.99743207638471,
,1,넌 교활해,5,Orange,B,2.333333333333333,2.133333333333333,ScrollUp,ScrollDown,Orange.png,practice,,,,,,,0,0,0,0,,,,,0,0,0,0,0,0,0,0,,,,,,,,,,,,,,,,,,,,,,,,,,,,,,,,,,,0.037037037,-0.21296297,1,0,0,0.5142398498719558,None,93.12870399991516,None,96.44772229995579,97.95099699997809,97.97882779990323,98.93108159990516,98.9810782999266,99.93426619993988,99.93426619993988,None,2,2.210490999976173,101.23548709996976,None,ScrollUp,정답입니다,101.23548709996976,None,101.23548709996976,None,101.23548709996976,None,101.23548709996976,None,103.14775669993833,None,103.14775669993833,103.66410759999417,,,,,,,,,,,,,,,,,,,,,,,,,,,,,,,,,,,,,,,,,,,,,,,,,112,2023-04-06_14h13.27.436,FishGame,2022.1.1,59.99743207638471,
,2,넌 슬기로워,2,Green,A,6.166666666666667,4.1,ScrollDown,ScrollUp,Green.png,practice,,,,,,,0,0,0,0,,,,,0,0,0,0,0,1,1,1,,,,,,,,,,,,,,,,,,,,,,,,,,,,,,,,,,,,,,,,,,,,,,,,,,,,1.3549382761120796,0.9792966999812052,104.26740339992102,None,ScrollDown,정답입니다,104.26740339992102,None,104.26740339992102,None,104.26740339992102,None,104.26740339992102,None,105.1454033999471,None,105.1454033999471,105.64743979997002,,,,,,,,,,,,,,,,,,,,,,,,,,,,,,,,,,,,,,,,,,,,,,,,,112,2023-04-06_14h13.27.436,FishGame,2022.1.1,59.99743207638471,
,3,나를 보내줘,6,Green,A,0,0,ScrollUp,ScrollDown,Green.png,practice,,,,,,,0,0,0,0,,,,,0,0,0,0,0,2,2,2,,,,,,,,,,,,,,,,,,,,,,,,,,,,,,,,,,,,,,,,,,,,,,,,,,,,1.4722222207734983,1.3146938999416307,106.26822759991046,None,NoResponse,무응답입니다,106.26822759991046,None,106.26822759991046,None,106.26822759991046,None,106.26822759991046,None,107.48074329993688,None,107.48074329993688,107.98075569991488,,,,,,,,,,,,,,,,,,,,,,,,,,,,,,,,,,,,,,,,,,,,,,,,,112,2023-04-06_14h13.27.436,FishGame,2022.1.1,59.99743207638471,
,4,나를 데려가줘,6,Orange,B,0,0,ScrollDown,ScrollUp,Orange.png,practice,,,,,,,0,0,0,0,,,,,0,0,0,0,0,3,3,3,,,,,,,,,,,,,,,,,,,,,,,,,,,,,,,,,,,,,,,,,,,,,,,,,,,,1.3086419701576233,1.0625296999933198,108.60231399990153,None,ScrollDown,정답입니다,108.60231399990153,None,108.60231399990153,None,108.60231399990153,None,108.60231399990153,None,109.56173399998806,None,109.56173399998806,110.06171069992706,,,,,,,,,,,,,,,,,,,,,,,,,,,,,,,,,,,,,,,,,,,,,,,,,112,2023-04-06_14h13.27.436,FishGame,2022.1.1,59.99743207638471,
,1,넌 교활해,5,Orange,B,2.333333333333333,2.133333333333333,ScrollUp,ScrollDown,Orange.png,practice,,,,,,,0,0,0,0,,,,,0,0,0,0,,,,,,,,,,,,,,,,,,,,,,,,,,,,,,,,,,,,,,,,,,,,,,,,,,,,,,,,,,,,,,,,,,,,,,,,,,n,10.756208100006916,110.56266319996212,None,110.56266319996212,None,,,,,,,,,,,,,,,,,,,,,,,,,,,,,,,,,,,,,,,,,,,112,2023-04-06_14h13.27.436,FishGame,2022.1.1,59.99743207638471,
,1,넌 따뜻해,1,Orange,B,6.083333333333333,5.6,ScrollUp,ScrollDown,Orange.png,1,Positive,Incongruent,,,,,0,0,0,0,,,,,,,,,,,,,0,0,0,0,,,,,,,,,,,,,,,,,,,,,,,,,,,,,,,,,,,,,,,,123.39695419999771,124.89722809998784,124.93053449993022,125.88057159993332,125.93059059989173,126.88055259990506,126.88055259990506,None,,,,,,,,,,,,,,,,,,,,,,,,,0.015740741,-0.11481482,1,0,0,0.3149075499968603,None,121.34710819995962,None,1.4012345696489017,1.4287438000319526,128.17255149991252,None,ScrollDown,오답입니다,128.17255149991252,None,128.17255149991252,None,128.17255149991252,None,128.17255149991252,None,129.29711619997397,None,129.29711619997397,129.8003659999231,,,,,,,,,,,,,,,,112,2023-04-06_14h13.27.436,FishGame,2022.1.1,59.99743207638471,
,2,넌 기품있어,2,Orange,B,5.791666666666668,4.5,ScrollUp,ScrollDown,Orange.png,1,Positive,Incongruent,,,,,0,0,0,0,,,,,,,,,,,,,0,1,1,1,,,,,,,,,,,,,,,,,,,,,,,,,,,,,,,,,,,,,,,,,,,,,,,,,,,,,,,,,,,,,,,,,,,,,,,,,,,,,,,,,1.5416666672875485,1.766570599982515,130.4246321999235,None,NoResponse,무응답입니다,130.4246321999235,None,130.4246321999235,None,130.4246321999235,None,130.4246321999235,None,132.07824849989265,None,132.07824849989265,132.5802229999099,,,,,,,,,,,,,,,,112,2023-04-06_14h13.27.436,FishGame,2022.1.1,59.99743207638471,
,3,나를 보내줘,6,Green,A,0,0,ScrollUp,ScrollDown,Green.png,1,NonTarget,NonTarget,,,,,0,0,0,0,,,,,,,,,,,,,0,2,2,2,,,,,,,,,,,,,,,,,,,,,,,,,,,,,,,,,,,,,,,,,,,,,,,,,,,,,,,,,,,,,,,,,,,,,,,,,,,,,,,,,1.5679012325902781,1.3962355999974534,133.20763209997676,None,ScrollUp,정답입니다,133.20763209997676,None,133.20763209997676,None,133.20763209997676,None,133.20763209997676,None,134.49715459998697,None,134.49715459998697,134.99691589991562,,,,,,,,,,,,,,,,112,2023-04-06_14h13.27.436,FishGame,2022.1.1,59.99743207638471,
,4,넌 수동적이야,4,Green,A,2.833333333333333,2.933333333333333,ScrollDown,ScrollUp,Green.png,1,Negative,Incongruent,,,,,0,0,0,0,,,,,,,,,,,,,0,3,3,3,,,,,,,,,,,,,,,,,,,,,,,,,,,,,,,,,,,,,,,,,,,,,,,,,,,,,,,,,,,,,,,,,,,,,,,,,,,,,,,,,1.3811728383104007,1.4987096999539062,135.62553109996952,None,ScrollDown,정답입니다,135.62553109996952,None,135.62553109996952,None,135.62553109996952,None,135.62553109996952,None,137.01349629997276,None,137.01349629997276,137.51346029993147,,,,,,,,,,,,,,,,112,2023-04-06_14h13.27.436,FishGame,2022.1.1,59.99743207638471,
,5,넌 사심이 없어,3,Orange,B,4.916666666666666,4.333333333333333,ScrollUp,ScrollDown,Orange.png,1,Neutral,Neutral,,,,,0,0,0,0,,,,,,,,,,,,,0,4,4,4,,,,,,,,,,,,,,,,,,,,,,,,,,,,,,,,,,,,,,,,,,,,,,,,,,,,,,,,,,,,,,,,,,,,,,,,,,,,,,,,,1.5169753081475696,1.1816589999943972,138.1403012999799,None,NoResponse,무응답입니다,138.1403012999799,None,138.1403012999799,None,138.1403012999799,None,138.1403012999799,None,139.21364679990802,None,139.21364679990802,139.71346979995724,,,,,,,,,,,,,,,,112,2023-04-06_14h13.27.436,FishGame,2022.1.1,59.99743207638471,
,6,넌 헤퍼,5,Green,A,2.458333333333334,2.233333333333333,ScrollDown,ScrollUp,Green.png,1,Negative,Incongruent,,,,,0,0,0,0,,,,,,,,,,,,,0,5,5,5,,,,,,,,,,,,,,,,,,,,,,,,,,,,,,,,,,,,,,,,,,,,,,,,,,,,,,,,,,,,,,,,,,,,,,,,,,,,,,,,,1.1373456716537476,1.031321500078775,140.3420219999971,None,ScrollDown,정답입니다,140.3420219999971,None,140.3420219999971,None,140.3420219999971,None,140.3420219999971,None,141.26340969989542,None,141.26340969989542,141.7633600999834,,,,,,,,,,,,,,,,112,2023-04-06_14h13.27.436,FishGame,2022.1.1,59.99743207638471,
,7,넌 말쑥해,3,Green,A,4.833333333333334,4.333333333333333,ScrollDown,ScrollUp,Green.png,1,Neutral,Neutral,,,,,0,0,0,0,,,,,,,,,,,,,0,6,6,6,,,,,,,,,,,,,,,,,,,,,,,,,,,,,,,,,,,,,,,,,,,,,,,,,,,,,,,,,,,,,,,,,,,,,,,,,,,,,,,,,1.192901223897934,0.879602300003171,142.38606289995369,None,ScrollDown,정답입니다,142.38606289995369,None,142.38606289995369,None,142.38606289995369,None,142.38606289995369,None,143.16138859989587,None,143.16138859989587,143.6633964999346,,,,,,,,,,,,,,,,112,2023-04-06_14h13.27.436,FishGame,2022.1.1,59.99743207638471,
,8,넌 투덜거려,5,Orange,B,2.541666666666667,2.266666666666667,ScrollUp,ScrollDown,Orange.png,1,Negative,Congruent,,,,,0,0,0,0,,,,,,,,,,,,,0,7,7,7,,,,,,,,,,,,,,,,,,,,,,,,,,,,,,,,,,,,,,,,,,,,,,,,,,,,,,,,,,,,,,,,,,,,,,,,,,,,,,,,,1.4799382717659075,1.0312832000199705,144.29125189990737,None,NoResponse,무응답입니다,144.29125189990737,None,144.29125189990737,None,144.29125189990737,None,144.29125189990737,None,145.21332379989326,None,145.21332379989326,145.71328039991204,,,,,,,,,,,,,,,,112,2023-04-06_14h13.27.436,FishGame,2022.1.1,59.99743207638471,
,9,넌 적극적이야,1,Green,A,5.708333333333333,5.533333333333333,ScrollDown,ScrollUp,Green.png,1,Positive,Congruent,,,,,0,0,0,0,,,,,,,,,,,,,0,8,8,8,,,,,,,,,,,,,,,,,,,,,,,,,,,,,,,,,,,,,,,,,,,,,,,,,,,,,,,,,,,,,,,,,,,,,,,,,,,,,,,,,1.1913580348094304,1.0321315999608487,146.33567859989125,None,ScrollDown,정답입니다,146.33567859989125,None,146.33567859989125,None,146.33567859989125,None,146.33567859989125,None,147.26330719992984,None,147.26330719992984,147.76333129999693,,,,,,,,,,,,,,,,112,2023-04-06_14h13.27.436,FishGame,2022.1.1,59.99743207638471,
,10,넌 재미없어,4,Orange,B,2.625,2.966666666666667,ScrollUp,ScrollDown,Orange.png,1,Negative,Congruent,,,,,0,0,0,0,,,,,,,,,,,,,0,9,9,9,,,,,,,,,,,,,,,,,,,,,,,,,,,,,,,,,,,,,,,,,,,,,,,,,,,,,,,,,,,,,,,,,,,,,,,,,,,,,,,,,1.5246913575877747,0.9126248999964446,148.38856659992598,None,NoResponse,무응답입니다,148.38856659992598,None,148.38856659992598,None,148.38856659992598,None,148.38856659992598,None,149.19432089990005,None,149.19432089990005,149.69425139995292,,,,,,,,,,,,,,,,112,2023-04-06_14h13.27.436,FishGame,2022.1.1,59.99743207638471,
,11,넌 명석해,2,Green,A,5.875,4.033333333333333,ScrollDown,ScrollUp,Green.png,1,Positive,Congruent,,,,,0,0,0,0,,,,,,,,,,,,,0,10,10,10,,,,,,,,,,,,,,,,,,,,,,,,,,,,,,,,,,,,,,,,,,,,,,,,,,,,,,,,,,,,,,,,,,,,,,,,,,,,,,,,,1.3117283980051675,0.7312133000232279,150.31517570000142,None,ScrollDown,정답입니다,150.31517570000142,None,150.31517570000142,None,150.31517570000142,None,150.31517570000142,None,150.9443088999251,None,150.9443088999251,151.4467012999812,,,,,,,,,,,,,,,,112,2023-04-06_14h13.27.436,FishGame,2022.1.1,59.99743207638471,
,12,나를 데려가줘,6,Orange,B,0,0,ScrollDown,ScrollUp,Orange.png,1,NonTarget,NonTarget,,,,,0,0,0,0,,,,,,,,,,,,,0,11,11,11,,,,,,,,,,,,,,,,,,,,,,,,,,,,,,,,,,,,,,,,,,,,,,,,,,,,,,,,,,,,,,,,,,,,,,,,,,,,,,,,,1.6080246890584626,0.6150280999718234,152.07244159991387,None,ScrollUp,오답입니다,152.07244159991387,None,152.07244159991387,None,152.07244159991387,None,152.07244159991387,None,152.57792299997527,None,152.57792299997527,153.08000809990335,,,,,,,,,,,,,,,,112,2023-04-06_14h13.27.436,FishGame,2022.1.1,59.99743207638471,
,13,넌 소심해,4,Green,A,3,3.1,ScrollDown,ScrollUp,Green.png,1,Negative,Incongruent,,,,,0,0,0,0,,,,,,,,,,,,,0,12,12,12,,,,,,,,,,,,,,,,,,,,,,,,,,,,,,,,,,,,,,,,,,,,,,,,,,,,,,,,,,,,,,,,,,,,,,,,,,,,,,,,,1.2916666666666665,1.7301072999835014,153.7086712999735,None,ScrollDown,정답입니다,153.7086712999735,None,153.7086712999735,None,153.7086712999735,None,153.7086712999735,None,155.32752969989087,None,155.32752969989087,155.8275332999183,,,,,,,,,,,,,,,,112,2023-04-06_14h13.27.436,FishGame,2022.1.1,59.99743207638471,
,14,넌 합리적이야,2,Green,A,5.583333333333333,4.733333333333333,ScrollDown,ScrollUp,Green.png,1,Positive,Congruent,,,,,0,0,0,0,,,,,,,,,,,,,0,13,13,13,,,,,,,,,,,,,,,,,,,,,,,,,,,,,,,,,,,,,,,,,,,,,,,,,,,,,,,,,,,,,,,,,,,,,,,,,,,,,,,,,1.1666666616996129,0.9146260999841616,156.45176839991473,None,ScrollDown,정답입니다,156.45176839991473,None,156.45176839991473,None,156.45176839991473,None,156.45176839991473,None,157.2634133999236,None,157.2634133999236,157.76327100000344,,,,,,,,,,,,,,,,112,2023-04-06_14h13.27.436,FishGame,2022.1.1,59.99743207638471,
,15,넌 무자비해,5,Orange,B,2.333333333333333,2.1,ScrollUp,ScrollDown,Orange.png,1,Negative,Congruent,,,,,0,0,0,0,,,,,,,,,,,,,0,14,14,14,,,,,,,,,,,,,,,,,,,,,,,,,,,,,,,,,,,,,,,,,,,,,,,,,,,,,,,,,,,,,,,,,,,,,,,,,,,,,,,,,1.481481481033067,0.8666325999656692,158.390689099906,None,NoResponse,무응답입니다,158.390689099906,None,158.390689099906,None,158.390689099906,None,158.390689099906,None,159.14657549990807,None,159.14657549990807,159.6497315999586,,,,,,,,,,,,,,,,112,2023-04-06_14h13.27.436,FishGame,2022.1.1,59.99743207638471,
,16,나를 보내줘,6,Green,A,0,0,ScrollUp,ScrollDown,Green.png,1,NonTarget,NonTarget,,,,,0,0,0,0,,,,,,,,,,,,,0,15,15,15,,,,,,,,,,,,,,,,,,,,,,,,,,,,,,,,,,,,,,,,,,,,,,,,,,,,,,,,,,,,,,,,,,,,,,,,,,,,,,,,,1.276234577099482,0.6626804999541491,160.26589369995054,None,ScrollDown,오답입니다,160.26589369995054,None,160.26589369995054,None,160.26589369995054,None,160.26589369995054,None,160.82771199999843,None,160.82771199999843,161.32974039996043,,,,,,,,,,,,,,,,112,2023-04-06_14h13.27.436,FishGame,2022.1.1,59.99743207638471,
,17,넌 현실적이야,3,Orange,B,4.608695652173913,4.766666666666667,ScrollUp,ScrollDown,Orange.png,1,Neutral,Neutral,,,,,0,0,0,0,,,,,,,,,,,,,0,16,16,16,,,,,,,,,,,,,,,,,,,,,,,,,,,,,,,,,,,,,,,,,,,,,,,,,,,,,,,,,,,,,,,,,,,,,,,,,,,,,,,,,1.9845678806304932,0.9956390999723226,161.96058269997593,None,ScrollUp,정답입니다,161.96058269997593,None,161.96058269997593,None,161.96058269997593,None,161.96058269997593,None,162.8440386999864,None,162.8440386999864,163.34401050000452,,,,,,,,,,,,,,,,112,2023-04-06_14h13.27.436,FishGame,2022.1.1,59.99743207638471,
,18,넌 의리있어,1,Orange,B,5.833333333333334,5.633333333333334,ScrollUp,ScrollDown,Orange.png,1,Positive,Incongruent,,,,,0,0,0,0,,,,,,,,,,,,,0,17,17,17,,,,,,,,,,,,,,,,,,,,,,,,,,,,,,,,,,,,,,,,,,,,,,,,,,,,,,,,,,,,,,,,,,,,,,,,,,,,,,,,,1.8564814726511638,1.6851368000498042,163.9670702998992,None,ScrollUp,정답입니다,163.9670702998992,None,163.9670702998992,None,163.9670702998992,None,163.9670702998992,None,165.54652939992957,None,165.54652939992957,166.0471050000051,,,,,,,,,,,,,,,,112,2023-04-06_14h13.27.436,FishGame,2022.1.1,59.99743207638471,
,19,넌 신경과민이야,5,Green,A,2.541666666666667,2.166666666666667,ScrollDown,ScrollUp,Green.png,1,Negative,Incongruent,,,,,0,0,0,0,,,,,,,,,,,,,0,18,18,18,,,,,,,,,,,,,,,,,,,,,,,,,,,,,,,,,,,,,,,,,,,,,,,,,,,,,,,,,,,,,,,,,,,,,,,,,,,,,,,,,1,0.8644890999421477,166.67253899993375,None,ScrollDown,정답입니다,166.67253899993375,None,166.67253899993375,None,166.67253899993375,None,166.67253899993375,None,167.42727809993085,None,167.42727809993085,167.92733919993043,,,,,,,,,,,,,,,,112,2023-04-06_14h13.27.436,FishGame,2022.1.1,59.99743207638471,
,20,넌 편안해,1,Green,A,5.916666666666666,5.866666666666666,ScrollDown,ScrollUp,Green.png,1,Positive,Congruent,,,,,0,0,0,0,,,,,,,,,,,,,0,19,19,19,,,,,,,,,,,,,,,,,,,,,,,,,,,,,,,,,,,,,,,,,,,,,,,,,,,,,,,,,,,,,,,,,,,,,,,,,,,,,,,,,2,1.048063199967146,168.54856089991517,None,ScrollUp,오답입니다,168.54856089991517,None,168.54856089991517,None,168.54856089991517,None,168.54856089991517,None,169.49399239988998,None,169.49399239988998,169.99631709989626,,,,,,,,,,,,,,,,112,2023-04-06_14h13.27.436,FishGame,2022.1.1,59.99743207638471,
,21,넌 품위있어,2,Orange,B,5.291666666666666,4.466666666666667,ScrollUp,ScrollDown,Orange.png,1,Positive,Incongruent,,,,,0,0,0,0,,,,,,,,,,,,,0,20,20,20,,,,,,,,,,,,,,,,,,,,,,,,,,,,,,,,,,,,,,,,,,,,,,,,,,,,,,,,,,,,,,,,,,,,,,,,,,,,,,,,,2,1.331452100072056,170.62109289993532,None,ScrollUp,정답입니다,170.62109289993532,None,170.62109289993532,None,170.62109289993532,None,170.62109289993532,None,171.84636769990902,None,171.84636769990902,172.34628389996942,,,,,,,,,,,,,,,,112,2023-04-06_14h13.27.436,FishGame,2022.1.1,59.99743207638471,
,22,넌 빈틈없어,3,Green,A,4.833333333333333,3.966666666666667,ScrollDown,ScrollUp,Green.png,1,Neutral,Neutral,,,,,0,0,0,0,,,,,,,,,,,,,0,21,21,21,,,,,,,,,,,,,,,,,,,,,,,,,,,,,,,,,,,,,,,,,,,,,,,,,,,,,,,,,,,,,,,,,,,,,,,,,,,,,,,,,1.1466049303611119,0.880838799988851,172.97496709995903,None,ScrollDown,정답입니다,172.97496709995903,None,172.97496709995903,None,172.97496709995903,None,172.97496709995903,None,173.74384339991957,None,173.74384339991957,174.24378709995653,,,,,,,,,,,,,,,,112,2023-04-06_14h13.27.436,FishGame,2022.1.1,59.99743207638471,
,23,넌 상상력없어,4,Orange,B,2.833333333333333,3.133333333333333,ScrollUp,ScrollDown,Orange.png,1,Negative,Congruent,,,,,0,0,0,0,,,,,,,,,,,,,0,22,22,22,,,,,,,,,,,,,,,,,,,,,,,,,,,,,,,,,,,,,,,,,,,,,,,,,,,,,,,,,,,,,,,,,,,,,,,,,,,,,,,,,2,0.9646824999945238,174.86733529996127,None,ScrollUp,정답입니다,174.86733529996127,None,174.86733529996127,None,174.86733529996127,None,174.86733529996127,None,175.72717480000574,None,175.72717480000574,176.22951259999536,,,,,,,,,,,,,,,,112,2023-04-06_14h13.27.436,FishGame,2022.1.1,59.99743207638471,
,24,넌 지혜로워,2,Orange,B,6.333333333333334,4.633333333333334,ScrollUp,ScrollDown,Orange.png,1,Positive,Incongruent,,,,,0,0,0,0,,,,,,,,,,,,,0,23,23,23,,,,,,,,,,,,,,,,,,,,,,,,,,,,,,,,,,,,,,,,,,,,,,,,,,,,,,,,,,,,,,,,,,,,,,,,,,,,,,,,,1.7808641890684764,0.9000982999568805,176.85715289996006,None,ScrollUp,정답입니다,176.85715289996006,None,176.85715289996006,None,176.85715289996006,None,176.85715289996006,None,177.6463254999835,None,177.6463254999835,178.1461784999119,,,,,,,,,,,,,,,,112,2023-04-06_14h13.27.436,FishGame,2022.1.1,59.99743207638471,
,25,넌 시끄러워,4,Green,A,2.833333333333333,3.033333333333333,ScrollDown,ScrollUp,Green.png,1,Negative,Incongruent,,,,,0,0,0,0,,,,,,,,,,,,,0,24,24,24,,,,,,,,,,,,,,,,,,,,,,,,,,,,,,,,,,,,,,,,,,,,,,,,,,,,,,,,,,,,,,,,,,,,,,,,,,,,,,,,,1,0.8981977000366896,178.77117899991572,None,ScrollDown,정답입니다,178.77117899991572,None,178.77117899991572,None,178.77117899991572,None,178.77117899991572,None,179.56273419992067,None,179.56273419992067,180.0626885999227,,,,,,,,,,,,,,,,112,2023-04-06_14h13.27.436,FishGame,2022.1.1,59.99743207638471,
,26,넌 만사태평이야,3,Orange,B,4,4.333333333333333,ScrollUp,ScrollDown,Orange.png,1,Neutral,Neutral,,,,,0,0,0,0,,,,,,,,,,,,,0,25,25,25,,,,,,,,,,,,,,,,,,,,,,,,,,,,,,,,,,,,,,,,,,,,,,,,,,,,,,,,,,,,,,,,,,,,,,,,,,,,,,,,,2,0.9329684999538586,180.70621149998624,None,ScrollUp,정답입니다,180.70621149998624,None,180.70621149998624,None,180.70621149998624,None,180.70621149998624,None,181.52928249991965,None,181.52928249991965,182.04595179995522,,,,,,,,,,,,,,,,112,2023-04-06_14h13.27.436,FishGame,2022.1.1,59.99743207638471,
,27,넌 붙임성있어,1,Green,A,5.708333333333333,5.633333333333334,ScrollDown,ScrollUp,Green.png,1,Positive,Congruent,,,,,0,0,0,0,,,,,,,,,,,,,0,26,26,26,,,,,,,,,,,,,,,,,,,,,,,,,,,,,,,,,,,,,,,,,,,,,,,,,,,,,,,,,,,,,,,,,,,,,,,,,,,,,,,,,1,0.9166090999497101,182.6537237999728,None,ScrollDown,정답입니다,182.6537237999728,None,182.6537237999728,None,182.6537237999728,None,182.6537237999728,None,183.46273519995157,None,183.46273519995157,183.96263969992287,,,,,,,,,,,,,,,,112,2023-04-06_14h13.27.436,FishGame,2022.1.1,59.99743207638471,
,28,넌 영리해,2,Green,A,6,4.033333333333333,ScrollDown,ScrollUp,Green.png,1,Positive,Congruent,,,,,0,0,0,0,,,,,,,,,,,,,0,27,27,27,,,,,,,,,,,,,,,,,,,,,,,,,,,,,,,,,,,,,,,,,,,,,,,,,,,,,,,,,,,,,,,,,,,,,,,,,,,,,,,,,1,0.8764900000533089,184.58441319991834,None,ScrollDown,정답입니다,184.58441319991834,None,184.58441319991834,None,184.58441319991834,None,184.58441319991834,None,185.3557368000038,None,185.3557368000038,185.86033820000011,,,,,,,,,,,,,,,,112,2023-04-06_14h13.27.436,FishGame,2022.1.1,59.99743207638471,
,29,넌 열심이야,1,Orange,B,6.041666666666667,5.833333333333333,ScrollUp,ScrollDown,Orange.png,1,Positive,Incongruent,,,,,0,0,0,0,,,,,,,,,,,,,0,28,28,28,,,,,,,,,,,,,,,,,,,,,,,,,,,,,,,,,,,,,,,,,,,,,,,,,,,,,,,,,,,,,,,,,,,,,,,,,,,,,,,,,1.9876543084780376,0.8828887999989092,186.48509649990592,None,ScrollUp,정답입니다,186.48509649990592,None,186.48509649990592,None,186.48509649990592,None,186.48509649990592,None,187.26028259994928,None,187.26028259994928,187.76026689994615,,,,,,,,,,,,,,,,112,2023-04-06_14h13.27.436,FishGame,2022.1.1,59.99743207638471,
,30,넌 인기없어,4,Orange,B,3,3.3,ScrollUp,ScrollDown,Orange.png,1,Negative,Congruent,,,,,0,0,0,0,,,,,,,,,,,,,0,29,29,29,,,,,,,,,,,,,,,,,,,,,,,,,,,,,,,,,,,,,,,,,,,,,,,,,,,,,,,,,,,,,,,,,,,,,,,,,,,,,,,,,1.7299382785956063,1.199916600016877,188.40114829991944,None,ScrollUp,정답입니다,188.40114829991944,None,188.40114829991944,None,188.40114829991944,None,188.40114829991944,None,189.47952189994976,None,189.47952189994976,189.9793151000049,,,,,,,,,,,,,,,,112,2023-04-06_14h13.27.436,FishGame,2022.1.1,59.99743207638471,
,31,넌 익살스러워,3,Green,A,4.708333333333334,4.833333333333333,ScrollDown,ScrollUp,Green.png,1,Neutral,Neutral,,,,,0,0,0,0,,,,,,,,,,,,,0,30,30,30,,,,,,,,,,,,,,,,,,,,,,,,,,,,,,,,,,,,,,,,,,,,,,,,,,,,,,,,,,,,,,,,,,,,,,,,,,,,,,,,,1,0.8756518999580294,190.612877599895,None,ScrollDown,정답입니다,190.612877599895,None,190.612877599895,None,190.612877599895,None,190.612877599895,None,191.37683389999438,None,191.37683389999438,191.87690509995446,,,,,,,,,,,,,,,,112,2023-04-06_14h13.27.436,FishGame,2022.1.1,59.99743207638471,
,32,넌 이기적이야,5,Orange,B,2.291666666666667,2.333333333333333,ScrollUp,ScrollDown,Orange.png,1,Negative,Congruent,,,,,0,0,0,0,,,,,,,,,,,,,0,31,31,31,,,,,,,,,,,,,,,,,,,,,,,,,,,,,,,,,,,,,,,,,,,,,,,,,,,,,,,,,,,,,,,,,,,,,,,,,,,,,,,,,2,0.9314073000568897,192.49899649992585,None,ScrollUp,정답입니다,192.49899649992585,None,192.49899649992585,None,192.49899649992585,None,192.49899649992585,None,193.326799799921,None,193.326799799921,193.82920019992162,,,,,,,,,,,,,,,,112,2023-04-06_14h13.27.436,FishGame,2022.1.1,59.99743207638471,
,33,나를 데려가줘,6,Orange,B,0,0,ScrollDown,ScrollUp,Orange.png,1,NonTarget,NonTarget,,,,,0,0,0,0,,,,,,,,,,,,,0,32,32,32,,,,,,,,,,,,,,,,,,,,,,,,,,,,,,,,,,,,,,,,,,,,,,,,,,,,,,,,,,,,,,,,,,,,,,,,,,,,,,,,,1.1311728407939274,1.0981008000671864,194.45148539997172,None,ScrollDown,정답입니다,194.45148539997172,None,194.45148539997172,None,194.45148539997172,None,194.45148539997172,None,195.4458544999361,None,195.4458544999361,195.94901489990298,,,,,,,,,,,,,,,,112,2023-04-06_14h13.27.436,FishGame,2022.1.1,59.99743207638471,
,34,넌 기회주의자야,5,Green,A,2.875,2.133333333333333,ScrollDown,ScrollUp,Green.png,1,Negative,Incongruent,,,,,0,0,0,0,,,,,,,,,,,,,0,33,33,33,,,,,,,,,,,,,,,,,,,,,,,,,,,,,,,,,,,,,,,,,,,,,,,,,,,,,,,,,,,,,,,,,,,,,,,,,,,,,,,,,1,1.1983915999298915,196.5691445999546,None,ScrollDown,정답입니다,196.5691445999546,None,196.5691445999546,None,196.5691445999546,None,196.5691445999546,None,197.66237829998136,None,197.66237829998136,198.16241069999523,,,,,,,,,,,,,,,,112,2023-04-06_14h13.27.436,FishGame,2022.1.1,59.99743207638471,
,1,넌 미성숙해,4,Green,A,3,3.2,ScrollDown,ScrollUp,Green.png,2,Negative,Incongruent,,,,,0,0,0,0,,,,,,,,,,,,,,,,,0,0,0,0,,,,,,,,,,,,,,,,,,,,,,,,,,,,,,,,,,,,230.27827579993755,231.77856069989502,231.81188920000568,232.76184749999084,232.81185439997353,233.7618131999625,233.7618131999625,None,,,,,,,,,,,,,,,,,,,,,,,,,,,,,,,,,,1.0138889054457347,1.1256344999419525,234.860420199926,None,ScrollDown,정답입니다,234.860420199926,None,234.860420199926,None,234.860420199926,None,234.860420199926,None,235.87830799992662,None,235.87830799992662,236.37821219989564,198.66550809994806,None,198.66550809994806,None,0.19907407,-0.10462963,1,0,0,0.01626884995494038,None,228.67835179995745,None,,,112,2023-04-06_14h13.27.436,FishGame,2022.1.1,59.99743207638471,
,2,넌 반사회적이야,5,Orange,B,2.416666666666667,2.033333333333333,ScrollUp,ScrollDown,Orange.png,2,Negative,Congruent,,,,,0,0,0,0,,,,,,,,,,,,,,,,,0,1,1,1,,,,,,,,,,,,,,,,,,,,,,,,,,,,,,,,,,,,,,,,,,,,,,,,,,,,,,,,,,,,,,,,,,,,,,,,,,,,,2,0.9665623999899253,237.00284459989052,None,ScrollUp,정답입니다,237.00284459989052,None,237.00284459989052,None,237.00284459989052,None,237.00284459989052,None,237.85947189992294,None,237.85947189992294,238.3615231999429,,,,,,,,,,,,,,,,112,2023-04-06_14h13.27.436,FishGame,2022.1.1,59.99743207638471,
,3,넌 유능해,2,Green,A,6.208333333333333,4.433333333333334,ScrollDown,ScrollUp,Green.png,2,Positive,Congruent,,,,,0,0,0,0,,,,,,,,,,,,,,,,,0,2,2,2,,,,,,,,,,,,,,,,,,,,,,,,,,,,,,,,,,,,,,,,,,,,,,,,,,,,,,,,,,,,,,,,,,,,,,,,,,,,,1,0.8500677000265568,238.98448789992835,None,ScrollDown,정답입니다,238.98448789992835,None,238.98448789992835,None,238.98448789992835,None,238.98448789992835,None,239.7283251999179,None,239.7283251999179,240.22817579994444,,,,,,,,,,,,,,,,112,2023-04-06_14h13.27.436,FishGame,2022.1.1,59.99743207638471,
,4,넌 능숙해,2,Orange,B,5.666666666666667,4.733333333333333,ScrollUp,ScrollDown,Orange.png,2,Positive,Incongruent,,,,,0,0,0,0,,,,,,,,,,,,,,,,,0,3,3,3,,,,,,,,,,,,,,,,,,,,,,,,,,,,,,,,,,,,,,,,,,,,,,,,,,,,,,,,,,,,,,,,,,,,,,,,,,,,,2,0.8793246999848634,240.85470119991805,None,ScrollUp,정답입니다,240.85470119991805,None,240.85470119991805,None,240.85470119991805,None,240.85470119991805,None,241.62812949996442,None,241.62812949996442,242.12805359996855,,,,,,,,,,,,,,,,112,2023-04-06_14h13.27.436,FishGame,2022.1.1,59.99743207638471,
,5,넌 진부해,4,Orange,B,2.458333333333333,3.166666666666667,ScrollUp,ScrollDown,Orange.png,2,Negative,Congruent,,,,,0,0,0,0,,,,,,,,,,,,,,,,,0,4,4,4,,,,,,,,,,,,,,,,,,,,,,,,,,,,,,,,,,,,,,,,,,,,,,,,,,,,,,,,,,,,,,,,,,,,,,,,,,,,,2,0.8650076000485569,242.75281639990862,None,ScrollUp,정답입니다,242.75281639990862,None,242.75281639990862,None,242.75281639990862,None,242.75281639990862,None,243.51150459994096,None,243.51150459994096,244.0114651999902,,,,,,,,,,,,,,,,112,2023-04-06_14h13.27.436,FishGame,2022.1.1,59.99743207638471,
,6,나를 보내줘,6,Green,A,0,0,ScrollUp,ScrollDown,Green.png,2,NonTarget,NonTarget,,,,,0,0,0,0,,,,,,,,,,,,,,,,,0,5,5,5,,,,,,,,,,,,,,,,,,,,,,,,,,,,,,,,,,,,,,,,,,,,,,,,,,,,,,,,,,,,,,,,,,,,,,,,,,,,,1.8271604826052983,1.2648264999734238,244.63645589991938,None,ScrollUp,정답입니다,244.63645589991938,None,244.63645589991938,None,244.63645589991938,None,244.63645589991938,None,245.7947334999917,None,245.7947334999917,246.29466869996395,,,,,,,,,,,,,,,,112,2023-04-06_14h13.27.436,FishGame,2022.1.1,59.99743207638471,
,7,넌 엄격해,3,Green,A,4.166666666666666,4.1,ScrollDown,ScrollUp,Green.png,2,Neutral,Neutral,,,,,0,0,0,0,,,,,,,,,,,,,,,,,0,6,6,6,,,,,,,,,,,,,,,,,,,,,,,,,,,,,,,,,,,,,,,,,,,,,,,,,,,,,,,,,,,,,,,,,,,,,,,,,,,,,1,0.9815755999879912,246.91780059994198,None,ScrollDown,정답입니다,246.91780059994198,None,246.91780059994198,None,246.91780059994198,None,246.91780059994198,None,247.7947479999857,None,247.7947479999857,248.2947096999269,,,,,,,,,,,,,,,,112,2023-04-06_14h13.27.436,FishGame,2022.1.1,59.99743207638471,
,8,나를 보내줘,6,Green,A,0,0,ScrollUp,ScrollDown,Green.png,2,NonTarget,NonTarget,,,,,0,0,0,0,,,,,,,,,,,,,,,,,0,7,7,7,,,,,,,,,,,,,,,,,,,,,,,,,,,,,,,,,,,,,,,,,,,,,,,,,,,,,,,,,,,,,,,,,,,,,,,,,,,,,1.7577160547176998,1.009905599988997,248.9138153999811,None,ScrollUp,정답입니다,248.9138153999811,None,248.9138153999811,None,248.9138153999811,None,248.9138153999811,None,249.82111769996118,None,249.82111769996118,250.3256388999289,,,,,,,,,,,,,,,,112,2023-04-06_14h13.27.436,FishGame,2022.1.1,59.99743207638471,
,9,넌 대담해,3,Orange,B,4.875,4.866666666666666,ScrollUp,ScrollDown,Orange.png,2,Neutral,Neutral,,,,,0,0,0,0,,,,,,,,,,,,,,,,,0,8,8,8,,,,,,,,,,,,,,,,,,,,,,,,,,,,,,,,,,,,,,,,,,,,,,,,,,,,,,,,,,,,,,,,,,,,,,,,,,,,,1.8873456766208012,0.966470199986361,250.94802119990345,None,ScrollUp,정답입니다,250.94802119990345,None,250.94802119990345,None,250.94802119990345,None,250.94802119990345,None,251.80900499993004,None,251.80900499993004,252.3090063999407,,,,,,,,,,,,,,,,112,2023-04-06_14h13.27.436,FishGame,2022.1.1,59.99743207638471,
,10,넌 꾸준해,1,Green,A,5.916666666666668,5.8,ScrollDown,ScrollUp,Green.png,2,Positive,Congruent,,,,,0,0,0,0,,,,,,,,,,,,,,,,,0,9,9,9,,,,,,,,,,,,,,,,,,,,,,,,,,,,,,,,,,,,,,,,,,,,,,,,,,,,,,,,,,,,,,,,,,,,,,,,,,,,,1,1.0151301000732929,252.9370903999079,None,ScrollDown,정답입니다,252.9370903999079,None,252.9370903999079,None,252.9370903999079,None,252.9370903999079,None,253.8448032999877,None,253.8448032999877,254.34475109993946,,,,,,,,,,,,,,,,112,2023-04-06_14h13.27.436,FishGame,2022.1.1,59.99743207638471,
,11,나를 데려가줘,6,Orange,B,0,0,ScrollDown,ScrollUp,Orange.png,2,NonTarget,NonTarget,,,,,0,0,0,0,,,,,,,,,,,,,,,,,0,10,10,10,,,,,,,,,,,,,,,,,,,,,,,,,,,,,,,,,,,,,,,,,,,,,,,,,,,,,,,,,,,,,,,,,,,,,,,,,,,,,1.0462962985038757,1.30013779993169,254.9661748999497,None,ScrollDown,정답입니다,254.9661748999497,None,254.9661748999497,None,254.9661748999497,None,254.9661748999497,None,256.1611398999812,None,256.1611398999812,256.66120439989027,,,,,,,,,,,,,,,,112,2023-04-06_14h13.27.436,FishGame,2022.1.1,59.99743207638471,
,12,넌 독선적이야,5,Green,A,2.458333333333333,1.933333333333333,ScrollDown,ScrollUp,Green.png,2,Negative,Incongruent,,,,,0,0,0,0,,,,,,,,,,,,,,,,,0,11,11,11,,,,,,,,,,,,,,,,,,,,,,,,,,,,,,,,,,,,,,,,,,,,,,,,,,,,,,,,,,,,,,,,,,,,,,,,,,,,,1,0.9958846000954509,257.28840439999476,None,ScrollDown,정답입니다,257.28840439999476,None,257.28840439999476,None,257.28840439999476,None,257.28840439999476,None,258.175511599984,None,258.175511599984,258.6754901999375,,,,,,,,,,,,,,,,112,2023-04-06_14h13.27.436,FishGame,2022.1.1,59.99743207638471,
,13,나를 보내줘,6,Green,A,0,0,ScrollUp,ScrollDown,Green.png,2,NonTarget,NonTarget,,,,,0,0,0,0,,,,,,,,,,,,,,,,,0,12,12,12,,,,,,,,,,,,,,,,,,,,,,,,,,,,,,,,,,,,,,,,,,,,,,,,,,,,,,,,,,,,,,,,,,,,,,,,,,,,,2,1.0341927000554278,259.2985848999815,None,ScrollUp,정답입니다,259.2985848999815,None,259.2985848999815,None,259.2985848999815,None,259.2985848999815,None,260.2279065999901,None,260.2279065999901,260.72788179991767,,,,,,,,,,,,,,,,112,2023-04-06_14h13.27.436,FishGame,2022.1.1,59.99743207638471,
,14,넌 책임감있어,1,Orange,B,6.347826086956522,6,ScrollUp,ScrollDown,Orange.png,2,Positive,Incongruent,,,,,0,0,0,0,,,,,,,,,,,,,,,,,0,13,13,13,,,,,,,,,,,,,,,,,,,,,,,,,,,,,,,,,,,,,,,,,,,,,,,,,,,,,,,,,,,,,,,,,,,,,,,,,,,,,1,1.1202679000562057,261.354067999986,None,ScrollDown,오답입니다,261.354067999986,None,261.354067999986,None,261.354067999986,None,261.354067999986,None,262.36998829990625,None,262.36998829990625,262.87772289989516,,,,,,,,,,,,,,,,112,2023-04-06_14h13.27.436,FishGame,2022.1.1,59.99743207638471,
,15,넌 문학적이야,3,Green,A,4.708333333333334,4.333333333333333,ScrollDown,ScrollUp,Green.png,2,Neutral,Neutral,,,,,0,0,0,0,,,,,,,,,,,,,,,,,0,14,14,14,,,,,,,,,,,,,,,,,,,,,,,,,,,,,,,,,,,,,,,,,,,,,,,,,,,,,,,,,,,,,,,,,,,,,,,,,,,,,1,1.3169479999924079,263.5009998999303,None,ScrollDown,정답입니다,263.5009998999303,None,263.5009998999303,None,263.5009998999303,None,263.5009998999303,None,264.71120819996577,None,264.71120819996577,265.2110567999771,,,,,,,,,,,,,,,,112,2023-04-06_14h13.27.436,FishGame,2022.1.1,59.99743207638471,
,16,넌 재미있어,1,Orange,B,5.875,5.7,ScrollUp,ScrollDown,Orange.png,2,Positive,Incongruent,,,,,0,0,0,0,,,,,,,,,,,,,,,,,0,15,15,15,,,,,,,,,,,,,,,,,,,,,,,,,,,,,,,,,,,,,,,,,,,,,,,,,,,,,,,,,,,,,,,,,,,,,,,,,,,,,2,1.1118049999931827,265.8354453999782,None,ScrollUp,정답입니다,265.8354453999782,None,265.8354453999782,None,265.8354453999782,None,265.8354453999782,None,266.8422933999682,None,266.8422933999682,267.34427919995505,,,,,,,,,,,,,,,,112,2023-04-06_14h13.27.436,FishGame,2022.1.1,59.99743207638471,
,17,나를 데려가줘,6,Orange,B,0,0,ScrollDown,ScrollUp,Orange.png,2,NonTarget,NonTarget,,,,,0,0,0,0,,,,,,,,,,,,,,,,,0,16,16,16,,,,,,,,,,,,,,,,,,,,,,,,,,,,,,,,,,,,,,,,,,,,,,,,,,,,,,,,,,,,,,,,,,,,,,,,,,,,,1,1.2128750999690965,267.9663324999856,None,ScrollDown,정답입니다,267.9663324999856,None,267.9663324999856,None,267.9663324999856,None,267.9663324999856,None,269.0753048999468,None,269.0753048999468,269.5752758999588,,,,,,,,,,,,,,,,112,2023-04-06_14h13.27.436,FishGame,2022.1.1,59.99743207638471,
,18,넌 협력적이야,1,Green,A,5.625,5.633333333333334,ScrollDown,ScrollUp,Green.png,2,Positive,Congruent,,,,,0,0,0,0,,,,,,,,,,,,,,,,,0,17,17,17,,,,,,,,,,,,,,,,,,,,,,,,,,,,,,,,,,,,,,,,,,,,,,,,,,,,,,,,,,,,,,,,,,,,,,,,,,,,,1,0.9990121000446379,270.1962549999589,None,ScrollDown,정답입니다,270.1962549999589,None,270.1962549999589,None,270.1962549999589,None,270.1962549999589,None,271.0919535999419,None,271.0919535999419,271.59196409990545,,,,,,,,,,,,,,,,112,2023-04-06_14h13.27.436,FishGame,2022.1.1,59.99743207638471,
,19,넌 평범해,3,Orange,B,4.333333333333332,4.233333333333333,ScrollUp,ScrollDown,Orange.png,2,Neutral,Neutral,,,,,0,0,0,0,,,,,,,,,,,,,,,,,0,18,18,18,,,,,,,,,,,,,,,,,,,,,,,,,,,,,,,,,,,,,,,,,,,,,,,,,,,,,,,,,,,,,,,,,,,,,,,,,,,,,2,1.100285799941048,272.21905329998117,None,ScrollUp,정답입니다,272.21905329998117,None,272.21905329998117,None,272.21905329998117,None,272.21905329998117,None,273.211093199905,None,273.211093199905,273.710984599893,,,,,,,,,,,,,,,,112,2023-04-06_14h13.27.436,FishGame,2022.1.1,59.99743207638471,
,20,넌 오만해,5,Green,A,2.333333333333333,2,ScrollDown,ScrollUp,Green.png,2,Negative,Incongruent,,,,,0,0,0,0,,,,,,,,,,,,,,,,,0,19,19,19,,,,,,,,,,,,,,,,,,,,,,,,,,,,,,,,,,,,,,,,,,,,,,,,,,,,,,,,,,,,,,,,,,,,,,,,,,,,,1,1.1313882999820635,274.33263009996153,None,ScrollDown,정답입니다,274.33263009996153,None,274.33263009996153,None,274.33263009996153,None,274.33263009996153,None,275.35876679990906,None,275.35876679990906,275.86080919997767,,,,,,,,,,,,,,,,112,2023-04-06_14h13.27.436,FishGame,2022.1.1,59.99743207638471,
,21,넌 운이없어,4,Orange,B,3,3.466666666666667,ScrollUp,ScrollDown,Orange.png,2,Negative,Congruent,,,,,0,0,0,0,,,,,,,,,,,,,,,,,0,20,20,20,,,,,,,,,,,,,,,,,,,,,,,,,,,,,,,,,,,,,,,,,,,,,,,,,,,,,,,,,,,,,,,,,,,,,,,,,,,,,2,1.0148091999581084,276.48557139991317,None,ScrollUp,정답입니다,276.48557139991317,None,276.48557139991317,None,276.48557139991317,None,276.48557139991317,None,277.39204399997834,None,277.39204399997834,277.8920150999911,,,,,,,,,,,,,,,,112,2023-04-06_14h13.27.436,FishGame,2022.1.1,59.99743207638471,
,22,넌 창조적이야,2,Orange,B,6.125,4.633333333333334,ScrollUp,ScrollDown,Orange.png,2,Positive,Incongruent,,,,,0,0,0,0,,,,,,,,,,,,,,,,,0,21,21,21,,,,,,,,,,,,,,,,,,,,,,,,,,,,,,,,,,,,,,,,,,,,,,,,,,,,,,,,,,,,,,,,,,,,,,,,,,,,,2,0.966191100073047,278.5196290999884,None,ScrollUp,정답입니다,278.5196290999884,None,278.5196290999884,None,278.5196290999884,None,278.5196290999884,None,279.37747199996375,None,279.37747199996375,279.8773980999831,,,,,,,,,,,,,,,,112,2023-04-06_14h13.27.436,FishGame,2022.1.1,59.99743207638471,
,23,나를 보내줘,6,Green,A,0,0,ScrollUp,ScrollDown,Green.png,2,NonTarget,NonTarget,,,,,0,0,0,0,,,,,,,,,,,,,,,,,0,22,22,22,,,,,,,,,,,,,,,,,,,,,,,,,,,,,,,,,,,,,,,,,,,,,,,,,,,,,,,,,,,,,,,,,,,,,,,,,,,,,2,1.0669237000402063,280.4971973999636,None,ScrollUp,정답입니다,280.4971973999636,None,280.4971973999636,None,280.4971973999636,None,280.4971973999636,None,281.46078779990785,None,281.46078779990785,281.9606549999444,,,,,,,,,,,,,,,,112,2023-04-06_14h13.27.436,FishGame,2022.1.1,59.99743207638471,
,24,넌 통찰력있어,2,Green,A,6.5,4.8,ScrollDown,ScrollUp,Green.png,2,Positive,Congruent,,,,,0,0,0,0,,,,,,,,,,,,,,,,,0,23,23,23,,,,,,,,,,,,,,,,,,,,,,,,,,,,,,,,,,,,,,,,,,,,,,,,,,,,,,,,,,,,,,,,,,,,,,,,,,,,,1,0.8980319000547752,282.58433039998636,None,ScrollDown,정답입니다,282.58433039998636,None,282.58433039998636,None,282.58433039998636,None,282.58433039998636,None,283.37733309995383,None,283.37733309995383,283.87729709991254,,,,,,,,,,,,,,,,112,2023-04-06_14h13.27.436,FishGame,2022.1.1,59.99743207638471,
,25,넌 경솔해,5,Orange,B,2.458333333333333,2.266666666666667,ScrollUp,ScrollDown,Orange.png,2,Negative,Congruent,,,,,0,0,0,0,,,,,,,,,,,,,,,,,0,24,24,24,,,,,,,,,,,,,,,,,,,,,,,,,,,,,,,,,,,,,,,,,,,,,,,,,,,,,,,,,,,,,,,,,,,,,,,,,,,,,2,1.1501563999336213,284.50133559992537,None,ScrollUp,정답입니다,284.50133559992537,None,284.50133559992537,None,284.50133559992537,None,284.50133559992537,None,285.5440302999923,None,285.5440302999923,286.0439708000049,,,,,,,,,,,,,,,,112,2023-04-06_14h13.27.436,FishGame,2022.1.1,59.99743207638471,
,26,넌 초조해,4,Green,A,2.916666666666667,3.133333333333333,ScrollDown,ScrollUp,Green.png,2,Negative,Incongruent,,,,,0,0,0,0,,,,,,,,,,,,,,,,,0,25,25,25,,,,,,,,,,,,,,,,,,,,,,,,,,,,,,,,,,,,,,,,,,,,,,,,,,,,,,,,,,,,,,,,,,,,,,,,,,,,,1,0.9162159999832511,286.6652960999636,None,ScrollDown,정답입니다,286.6652960999636,None,286.6652960999636,None,286.6652960999636,None,286.6652960999636,None,287.47517919994425,None,287.47517919994425,287.97717089997604,,,,,,,,,,,,,,,,112,2023-04-06_14h13.27.436,FishGame,2022.1.1,59.99743207638471,
,27,넌 무관심해,4,Orange,B,2.833333333333333,2.9,ScrollUp,ScrollDown,Orange.png,2,Negative,Congruent,,,,,0,0,0,0,,,,,,,,,,,,,,,,,0,26,26,26,,,,,,,,,,,,,,,,,,,,,,,,,,,,,,,,,,,,,,,,,,,,,,,,,,,,,,,,,,,,,,,,,,,,,,,,,,,,,1.8749999900658925,0.9168046000413597,288.604273899924,None,ScrollUp,정답입니다,288.604273899924,None,288.604273899924,None,288.604273899924,None,288.604273899924,None,289.4106255999068,None,289.4106255999068,289.9105507999193,,,,,,,,,,,,,,,,112,2023-04-06_14h13.27.436,FishGame,2022.1.1,59.99743207638471,
,28,넌 감성적이야,3,Orange,B,4.125,4.166666666666667,ScrollUp,ScrollDown,Orange.png,2,Neutral,Neutral,,,,,0,0,0,0,,,,,,,,,,,,,,,,,0,27,27,27,,,,,,,,,,,,,,,,,,,,,,,,,,,,,,,,,,,,,,,,,,,,,,,,,,,,,,,,,,,,,,,,,,,,,,,,,,,,,1.8240740795930226,0.9148199999472126,290.5326364999637,None,ScrollUp,정답입니다,290.5326364999637,None,290.5326364999637,None,290.5326364999637,None,290.5326364999637,None,291.34392319992185,None,291.34392319992185,291.84379019995686,,,,,,,,,,,,,,,,112,2023-04-06_14h13.27.436,FishGame,2022.1.1,59.99743207638471,
,29,넌 배려심있어,1,Green,A,6.083333333333333,5.5,ScrollDown,ScrollUp,Green.png,2,Positive,Congruent,,,,,0,0,0,0,,,,,,,,,,,,,,,,,0,28,28,28,,,,,,,,,,,,,,,,,,,,,,,,,,,,,,,,,,,,,,,,,,,,,,,,,,,,,,,,,,,,,,,,,,,,,,,,,,,,,1.0277777810891469,0.8483131000539288,292.46578589989804,None,ScrollDown,정답입니다,292.46578589989804,None,292.46578589989804,None,292.46578589989804,None,292.46578589989804,None,293.20841530000325,None,293.20841530000325,293.71042769995984,,,,,,,,,,,,,,,,112,2023-04-06_14h13.27.436,FishGame,2022.1.1,59.99743207638471,
,30,넌 숨김없어,3,Green,A,4.5,4.933333333333334,ScrollDown,ScrollUp,Green.png,2,Neutral,Neutral,,,,,0,0,0,0,,,,,,,,,,,,,,,,,0,29,29,29,,,,,,,,,,,,,,,,,,,,,,,,,,,,,,,,,,,,,,,,,,,,,,,,,,,,,,,,,,,,,,,,,,,,,,,,,,,,,1.0570987462997437,0.9668300999328494,294.33399459999055,None,ScrollDown,정답입니다,294.33399459999055,None,294.33399459999055,None,294.33399459999055,None,294.33399459999055,None,295.1938170999056,None,295.1938170999056,295.69379619997926,,,,,,,,,,,,,,,,112,2023-04-06_14h13.27.436,FishGame,2022.1.1,59.99743207638471,
,31,넌 훌륭해,2,Orange,B,5.916666666666667,4.033333333333333,ScrollUp,ScrollDown,Orange.png,2,Positive,Incongruent,,,,,0,0,0,0,,,,,,,,,,,,,,,,,0,30,30,30,,,,,,,,,,,,,,,,,,,,,,,,,,,,,,,,,,,,,,,,,,,,,,,,,,,,,,,,,,,,,,,,,,,,,,,,,,,,,1.6558641965190568,0.9000035999342799,296.3192077999702,None,ScrollUp,정답입니다,296.3192077999702,None,296.3192077999702,None,296.3192077999702,None,296.3192077999702,None,297.11034329992253,None,297.11034329992253,297.61035339999944,,,,,,,,,,,,,,,,112,2023-04-06_14h13.27.436,FishGame,2022.1.1,59.99743207638471,
,32,넌 슬기로워,2,Green,A,6.166666666666667,4.1,ScrollDown,ScrollUp,Green.png,2,Positive,Congruent,,,,,0,0,0,0,,,,,,,,,,,,,,,,,0,31,31,31,,,,,,,,,,,,,,,,,,,,,,,,,,,,,,,,,,,,,,,,,,,,,,,,,,,,,,,,,,,,,,,,,,,,,,,,,,,,,1.234567900498708,0.812823300017044,298.231550199911,None,ScrollDown,정답입니다,298.231550199911,None,298.231550199911,None,298.231550199911,None,298.231550199911,None,298.9416449998971,None,298.9416449998971,299.4436718999641,,,,,,,,,,,,,,,,112,2023-04-06_14h13.27.436,FishGame,2022.1.1,59.99743207638471,
,33,넌 냉혹해,5,Green,A,2.583333333333333,2.1,ScrollDown,ScrollUp,Green.png,2,Negative,Incongruent,,,,,0,0,0,0,,,,,,,,,,,,,,,,,0,32,32,32,,,,,,,,,,,,,,,,,,,,,,,,,,,,,,,,,,,,,,,,,,,,,,,,,,,,,,,,,,,,,,,,,,,,,,,,,,,,,1.1651234477758408,0.8167603999609128,300.0665968999965,None,ScrollDown,정답입니다,300.0665968999965,None,300.0665968999965,None,300.0665968999965,None,300.0665968999965,None,300.77709289989434,None,300.77709289989434,301.28023329994176,,,,,,,,,,,,,,,,112,2023-04-06_14h13.27.436,FishGame,2022.1.1,59.99743207638471,
,34,나를 데려가줘,6,Orange,B,0,0,ScrollDown,ScrollUp,Orange.png,2,NonTarget,NonTarget,,,,,0,0,0,0,,,,,,,,,,,,,,,,,0,33,33,33,,,,,,,,,,,,,,,,,,,,,,,,,,,,,,,,,,,,,,,,,,,,,,,,,,,,,,,,,,,,,,,,,,,,,,,,,,,,,1.1234567960103352,1.131418599979952,301.89839210000355,None,ScrollDown,정답입니다,301.89839210000355,None,301.89839210000355,None,301.89839210000355,None,301.89839210000355,None,302.92696630000137,None,302.92696630000137,303.4269286999479,,,,,,,,,,,,,,,,112,2023-04-06_14h13.27.436,FishGame,2022.1.1,59.99743207638471,
,35,넌 편파적이야,5,Orange,B,2.125,2,ScrollUp,ScrollDown,Orange.png,2,Negative,Congruent,,,,,0,0,0,0,,,,,,,,,,,,,,,,,0,34,34,34,,,,,,,,,,,,,,,,,,,,,,,,,,,,,,,,,,,,,,,,,,,,,,,,,,,,,,,,,,,,,,,,,,,,,,,,,,,,,1.5339506162951388,1.0815544999204576,304.051527399919,None,NoResponse,무응답입니다,304.051527399919,None,304.051527399919,None,304.051527399919,None,304.051527399919,None,305.0269741999218,None,305.0269741999218,305.54361669998616,,,,,,,,,,,,,,,,112,2023-04-06_14h13.27.436,FishGame,2022.1.1,59.99743207638471,
,36,넌 슬퍼,4,Green,A,2.583333333333333,3.066666666666667,ScrollDown,ScrollUp,Green.png,2,Negative,Incongruent,,,,,0,0,0,0,,,,,,,,,,,,,,,,,0,35,35,35,,,,,,,,,,,,,,,,,,,,,,,,,,,,,,,,,,,,,,,,,,,,,,,,,,,,,,,,,,,,,,,,,,,,,,,,,,,,,1.0771604776382446,0.7816664000274613,306.15194979996886,None,ScrollDown,정답입니다,306.15194979996886,None,306.15194979996886,None,306.15194979996886,None,306.15194979996886,None,306.82689119991846,None,306.82689119991846,307.3268990999786,,,,,,,,,,,,,,,,112,2023-04-06_14h13.27.436,FishGame,2022.1.1,59.99743207638471,
,37,나를 데려가줘,6,Orange,B,0,0,ScrollDown,ScrollUp,Orange.png,2,NonTarget,NonTarget,,,,,0,0,0,0,,,,,,,,,,,,,,,,,0,36,36,36,,,,,,,,,,,,,,,,,,,,,,,,,,,,,,,,,,,,,,,,,,,,,,,,,,,,,,,,,,,,,,,,,,,,,,,,,,,,,1,1.1793036999879405,307.9499107999727,None,ScrollDown,정답입니다,307.9499107999727,None,307.9499107999727,None,307.9499107999727,None,307.9499107999727,None,309.0245160999475,None,309.0245160999475,309.5244945999002,,,,,,,,,,,,,,,,112,2023-04-06_14h13.27.436,FishGame,2022.1.1,59.99743207638471,
,38,넌 친절해,1,Orange,B,6.041666666666667,5.533333333333333,ScrollUp,ScrollDown,Orange.png,2,Positive,Incongruent,,,,,0,0,0,0,,,,,,,,,,,,,,,,,0,37,37,37,,,,,,,,,,,,,,,,,,,,,,,,,,,,,,,,,,,,,,,,,,,,,,,,,,,,,,,,,,,,,,,,,,,,,,,,,,,,,1.884259248773257,1.079458300024271,310.15780609997455,None,ScrollUp,정답입니다,310.15780609997455,None,310.15780609997455,None,310.15780609997455,None,310.15780609997455,None,311.12692729989067,None,311.12692729989067,311.6268831999041,,,,,,,,,,,,,,,,112,2023-04-06_14h13.27.436,FishGame,2022.1.1,59.99743207638471,
,1,넌 엉성해,4,Green,A,3,3.3,ScrollDown,ScrollUp,Green.png,3,Negative,Incongruent,,,,,0,0,0,0,,,,,,,,,,,,,,,,,,,,,0,0,0,0,,,,,,,,,,,,,,,,,,,,,,,,,,,,,,,,343.1261011000024,344.62625799991656,344.6596333999187,345.60959759994876,345.6596239999635,346.6128235999495,346.6128235999495,None,,,,,,,,,,,,,,,,,,,,,,,,,,,,,,,,,,1,1.1414163999725133,347.72277199989185,None,ScrollDown,정답입니다,347.72277199989185,None,347.72277199989185,None,347.72277199989185,None,347.72277199989185,None,348.7594776999904,None,348.7594776999904,349.25941979989875,312.12698119995184,None,312.12698119995184,None,0.21111111,-0.10462963,1,0,0,0.016215950017794967,None,342.1260482999496,None,,,112,2023-04-06_14h13.27.436,FishGame,2022.1.1,59.99743207638471,
,2,나를 보내줘,6,Green,A,0,0,ScrollUp,ScrollDown,Green.png,3,NonTarget,NonTarget,,,,,0,0,0,0,,,,,,,,,,,,,,,,,,,,,0,1,1,1,,,,,,,,,,,,,,,,,,,,,,,,,,,,,,,,,,,,,,,,,,,,,,,,,,,,,,,,,,,,,,,,,,,,,,,,,2,1.0647843000479043,349.8781936999876,None,ScrollUp,정답입니다,349.8781936999876,None,349.8781936999876,None,349.8781936999876,None,349.8781936999876,None,350.84059129992966,None,350.84059129992966,351.34261509997305,,,,,,,,,,,,,,,,112,2023-04-06_14h13.27.436,FishGame,2022.1.1,59.99743207638471,
,3,넌 활발해,1,Orange,B,5.666666666666667,5.6,ScrollUp,ScrollDown,Orange.png,3,Positive,Incongruent,,,,,0,0,0,0,,,,,,,,,,,,,,,,,,,,,0,2,2,2,,,,,,,,,,,,,,,,,,,,,,,,,,,,,,,,,,,,,,,,,,,,,,,,,,,,,,,,,,,,,,,,,,,,,,,,,1.8858024626970291,1.0501384999370202,351.96718789997976,None,ScrollUp,정답입니다,351.96718789997976,None,351.96718789997976,None,351.96718789997976,None,351.96718789997976,None,352.90945619996637,None,352.90945619996637,353.40933619998395,,,,,,,,,,,,,,,,112,2023-04-06_14h13.27.436,FishGame,2022.1.1,59.99743207638471,
,4,넌 논리적이야,2,Green,A,5.666666666666666,4.633333333333334,ScrollDown,ScrollUp,Green.png,3,Positive,Congruent,,,,,0,0,0,0,,,,,,,,,,,,,,,,,,,,,0,3,3,3,,,,,,,,,,,,,,,,,,,,,,,,,,,,,,,,,,,,,,,,,,,,,,,,,,,,,,,,,,,,,,,,,,,,,,,,,1.0462962985038757,0.8983955999137834,354.0365510999691,None,ScrollDown,정답입니다,354.0365510999691,None,354.0365510999691,None,354.0365510999691,None,354.0365510999691,None,354.82591769995634,None,354.82591769995634,355.3258801999036,,,,,,,,,,,,,,,,112,2023-04-06_14h13.27.436,FishGame,2022.1.1,59.99743207638471,
,5,넌 과묵해,3,Green,A,3.875,4.4,ScrollDown,ScrollUp,Green.png,3,Neutral,Neutral,,,,,0,0,0,0,,,,,,,,,,,,,,,,,,,,,0,4,4,4,,,,,,,,,,,,,,,,,,,,,,,,,,,,,,,,,,,,,,,,,,,,,,,,,,,,,,,,,,,,,,,,,,,,,,,,,1.1250000099341075,1.0167780999327078,355.94748509989586,None,ScrollDown,정답입니다,355.94748509989586,None,355.94748509989586,None,355.94748509989586,None,355.94748509989586,None,356.8592383998912,None,356.8592383998912,357.3592100999085,,,,,,,,,,,,,,,,112,2023-04-06_14h13.27.436,FishGame,2022.1.1,59.99743207638471,
,6,나를 데려가줘,6,Orange,B,0,0,ScrollDown,ScrollUp,Orange.png,3,NonTarget,NonTarget,,,,,0,0,0,0,,,,,,,,,,,,,,,,,,,,,0,5,5,5,,,,,,,,,,,,,,,,,,,,,,,,,,,,,,,,,,,,,,,,,,,,,,,,,,,,,,,,,,,,,,,,,,,,,,,,,1.0354938507080078,1.0960751000093296,357.9806229999522,None,ScrollDown,정답입니다,357.9806229999522,None,357.9806229999522,None,357.9806229999522,None,357.9806229999522,None,358.9735448999563,None,358.9735448999563,359.4743366999319,,,,,,,,,,,,,,,,112,2023-04-06_14h13.27.436,FishGame,2022.1.1,59.99743207638471,
,7,넌 미숙해,4,Orange,B,3,3,ScrollUp,ScrollDown,Orange.png,3,Negative,Congruent,,,,,0,0,0,0,,,,,,,,,,,,,,,,,,,,,0,6,6,6,,,,,,,,,,,,,,,,,,,,,,,,,,,,,,,,,,,,,,,,,,,,,,,,,,,,,,,,,,,,,,,,,,,,,,,,,1.6604938258727393,0.9795705999713391,360.0973452999024,None,ScrollUp,정답입니다,360.0973452999024,None,360.0973452999024,None,360.0973452999024,None,360.0973452999024,None,360.97355489991605,None,360.97355489991605,361.4736082999734,,,,,,,,,,,,,,,,112,2023-04-06_14h13.27.436,FishGame,2022.1.1,59.99743207638471,
,8,나를 보내줘,6,Green,A,0,0,ScrollUp,ScrollDown,Green.png,3,NonTarget,NonTarget,,,,,0,0,0,0,,,,,,,,,,,,,,,,,,,,,0,7,7,7,,,,,,,,,,,,,,,,,,,,,,,,,,,,,,,,,,,,,,,,,,,,,,,,,,,,,,,,,,,,,,,,,,,,,,,,,1.5416666672875485,0.8482011000160128,362.0956776998937,None,NoResponse,무응답입니다,362.0956776998937,None,362.0956776998937,None,362.0956776998937,None,362.0956776998937,None,362.84273539995775,None,362.84273539995775,363.3459322999697,,,,,,,,,,,,,,,,112,2023-04-06_14h13.27.436,FishGame,2022.1.1,59.99743207638471,
,9,넌 자신만만해,3,Orange,B,4.833333333333334,4.333333333333333,ScrollUp,ScrollDown,Orange.png,3,Neutral,Neutral,,,,,0,0,0,0,,,,,,,,,,,,,,,,,,,,,0,8,8,8,,,,,,,,,,,,,,,,,,,,,,,,,,,,,,,,,,,,,,,,,,,,,,,,,,,,,,,,,,,,,,,,,,,,,,,,,1.5925925932824612,1.2829402999486774,363.9639546999242,None,ScrollUp,정답입니다,363.9639546999242,None,363.9639546999242,None,363.9639546999242,None,363.9639546999242,None,365.1424983999459,None,365.1424983999459,365.6456869998947,,,,,,,,,,,,,,,,112,2023-04-06_14h13.27.436,FishGame,2022.1.1,59.99743207638471,
,10,넌 탐욕스러워,5,Green,A,2.25,2.1,ScrollDown,ScrollUp,Green.png,3,Negative,Incongruent,,,,,0,0,0,0,,,,,,,,,,,,,,,,,,,,,0,9,9,9,,,,,,,,,,,,,,,,,,,,,,,,,,,,,,,,,,,,,,,,,,,,,,,,,,,,,,,,,,,,,,,,,,,,,,,,,1.0308642089366913,0.9334309999831021,366.26605799992103,None,ScrollDown,정답입니다,366.26605799992103,None,366.26605799992103,None,366.26605799992103,None,366.26605799992103,None,367.09234319999814,None,367.09234319999814,367.5923329999205,,,,,,,,,,,,,,,,112,2023-04-06_14h13.27.436,FishGame,2022.1.1,59.99743207638471,
,11,넌 인기있어,2,Green,A,5.458333333333333,4.5,ScrollDown,ScrollUp,Green.png,3,Positive,Congruent,,,,,0,0,0,0,,,,,,,,,,,,,,,,,,,,,0,10,10,10,,,,,,,,,,,,,,,,,,,,,,,,,,,,,,,,,,,,,,,,,,,,,,,,,,,,,,,,,,,,,,,,,,,,,,,,,1.1049382785956066,0.9334939999971539,368.2112675999524,None,ScrollDown,정답입니다,368.2112675999524,None,368.2112675999524,None,368.2112675999524,None,368.2112675999524,None,369.0424390999833,None,369.0424390999833,369.5590164999012,,,,,,,,,,,,,,,,112,2023-04-06_14h13.27.436,FishGame,2022.1.1,59.99743207638471,
,12,나를 데려가줘,6,Orange,B,0,0,ScrollDown,ScrollUp,Orange.png,3,NonTarget,NonTarget,,,,,0,0,0,0,,,,,,,,,,,,,,,,,,,,,0,11,11,11,,,,,,,,,,,,,,,,,,,,,,,,,,,,,,,,,,,,,,,,,,,,,,,,,,,,,,,,,,,,,,,,,,,,,,,,,1,1.0313717999961227,370.1693947999738,None,ScrollDown,정답입니다,370.1693947999738,None,370.1693947999738,None,370.1693947999738,None,370.1693947999738,None,371.0922087999061,None,371.0922087999061,371.5922073998954,,,,,,,,,,,,,,,,112,2023-04-06_14h13.27.436,FishGame,2022.1.1,59.99743207638471,
,13,넌 뛰어나,2,Orange,B,6.166666666666667,4,ScrollUp,ScrollDown,Orange.png,3,Positive,Incongruent,,,,,0,0,0,0,,,,,,,,,,,,,,,,,,,,,0,12,12,12,,,,,,,,,,,,,,,,,,,,,,,,,,,,,,,,,,,,,,,,,,,,,,,,,,,,,,,,,,,,,,,,,,,,,,,,,1.9151234527428944,0.9667643000138924,372.215819099918,None,ScrollUp,정답입니다,372.215819099918,None,372.215819099918,None,372.215819099918,None,372.215819099918,None,373.0756261999486,None,373.0756261999486,373.575610699947,,,,,,,,,,,,,,,,112,2023-04-06_14h13.27.436,FishGame,2022.1.1,59.99743207638471,
,14,넌 낙관적이야,1,Green,A,5.75,5.8,ScrollDown,ScrollUp,Green.png,3,Positive,Congruent,,,,,0,0,0,0,,,,,,,,,,,,,,,,,,,,,0,13,13,13,,,,,,,,,,,,,,,,,,,,,,,,,,,,,,,,,,,,,,,,,,,,,,,,,,,,,,,,,,,,,,,,,,,,,,,,,1.0679012437661488,0.8314795000478625,374.20266459998675,None,ScrollDown,정답입니다,374.20266459998675,None,374.20266459998675,None,374.20266459998675,None,374.20266459998675,None,374.92556139989756,None,374.92556139989756,375.4254849998979,,,,,,,,,,,,,,,,112,2023-04-06_14h13.27.436,FishGame,2022.1.1,59.99743207638471,
,15,넌 산만해,4,Orange,B,2.695652173913043,3.033333333333333,ScrollUp,ScrollDown,Orange.png,3,Negative,Congruent,,,,,0,0,0,0,,,,,,,,,,,,,,,,,,,,,0,14,14,14,,,,,,,,,,,,,,,,,,,,,,,,,,,,,,,,,,,,,,,,,,,,,,,,,,,,,,,,,,,,,,,,,,,,,,,,,1.9336419701576233,0.9128061999799684,376.0494842999615,None,ScrollUp,정답입니다,376.0494842999615,None,376.0494842999615,None,376.0494842999615,None,376.0494842999615,None,376.8588771999348,None,376.8588771999348,377.3589089999441,,,,,,,,,,,,,,,,112,2023-04-06_14h13.27.436,FishGame,2022.1.1,59.99743207638471,
,16,나를 보내줘,6,Green,A,0,0,ScrollUp,ScrollDown,Green.png,3,NonTarget,NonTarget,,,,,0,0,0,0,,,,,,,,,,,,,,,,,,,,,0,15,15,15,,,,,,,,,,,,,,,,,,,,,,,,,,,,,,,,,,,,,,,,,,,,,,,,,,,,,,,,,,,,,,,,,,,,,,,,,2,0.9642519999761134,377.98372699995525,None,ScrollUp,정답입니다,377.98372699995525,None,377.98372699995525,None,377.98372699995525,None,377.98372699995525,None,378.83978929999284,None,378.83978929999284,379.33978699997533,,,,,,,,,,,,,,,,112,2023-04-06_14h13.27.436,FishGame,2022.1.1,59.99743207638471,
,17,넌 교활해,5,Orange,B,2.333333333333333,2.133333333333333,ScrollUp,ScrollDown,Orange.png,3,Negative,Congruent,,,,,0,0,0,0,,,,,,,,,,,,,,,,,,,,,0,16,16,16,,,,,,,,,,,,,,,,,,,,,,,,,,,,,,,,,,,,,,,,,,,,,,,,,,,,,,,,,,,,,,,,,,,,,,,,,1.0756172637144725,0.8994740000925958,379.961828499916,None,ScrollDown,오답입니다,379.961828499916,None,379.961828499916,None,379.961828499916,None,379.961828499916,None,380.75646439997945,None,380.75646439997945,381.25893339992035,,,,,,,,,,,,,,,,112,2023-04-06_14h13.27.436,FishGame,2022.1.1,59.99743207638471,
,18,나를 보내줘,6,Green,A,0,0,ScrollUp,ScrollDown,Green.png,3,NonTarget,NonTarget,,,,,0,0,0,0,,,,,,,,,,,,,,,,,,,,,0,17,17,17,,,,,,,,,,,,,,,,,,,,,,,,,,,,,,,,,,,,,,,,,,,,,,,,,,,,,,,,,,,,,,,,,,,,,,,,,1.7608024577299755,1.0334718000376597,381.87786259991117,None,ScrollUp,정답입니다,381.87786259991117,None,381.87786259991117,None,381.87786259991117,None,381.87786259991117,None,382.80889989994466,None,382.80889989994466,383.3119247999275,,,,,,,,,,,,,,,,112,2023-04-06_14h13.27.436,FishGame,2022.1.1,59.99743207638471,
,19,넌 불친절해,5,Orange,B,2.208333333333333,2.033333333333333,ScrollUp,ScrollDown,Orange.png,3,Negative,Congruent,,,,,0,0,0,0,,,,,,,,,,,,,,,,,,,,,0,18,18,18,,,,,,,,,,,,,,,,,,,,,,,,,,,,,,,,,,,,,,,,,,,,,,,,,,,,,,,,,,,,,,,,,,,,,,,,,1.817901223897934,1.146066499990411,383.9331902998965,None,ScrollUp,정답입니다,383.9331902998965,None,383.9331902998965,None,383.9331902998965,None,383.9331902998965,None,384.975389399915,None,384.975389399915,385.4753696999978,,,,,,,,,,,,,,,,112,2023-04-06_14h13.27.436,FishGame,2022.1.1,59.99743207638471,
,20,넌 지적이야,2,Orange,B,5.75,4.366666666666666,ScrollUp,ScrollDown,Orange.png,3,Positive,Incongruent,,,,,0,0,0,0,,,,,,,,,,,,,,,,,,,,,0,19,19,19,,,,,,,,,,,,,,,,,,,,,,,,,,,,,,,,,,,,,,,,,,,,,,,,,,,,,,,,,,,,,,,,,,,,,,,,,1.878086417913437,1.0093661999562755,386.10408029996324,None,ScrollUp,정답입니다,386.10408029996324,None,386.10408029996324,None,386.10408029996324,None,386.10408029996324,None,387.0066176999826,None,387.0066176999826,387.508578299894,,,,,,,,,,,,,,,,112,2023-04-06_14h13.27.436,FishGame,2022.1.1,59.99743207638471,
,21,넌 우유부단해,4,Green,A,2.666666666666667,3.166666666666667,ScrollDown,ScrollUp,Green.png,3,Negative,Incongruent,,,,,0,0,0,0,,,,,,,,,,,,,,,,,,,,,0,20,20,20,,,,,,,,,,,,,,,,,,,,,,,,,,,,,,,,,,,,,,,,,,,,,,,,,,,,,,,,,,,,,,,,,,,,,,,,,1,1.0124931999016553,388.1321016999427,None,ScrollDown,정답입니다,388.1321016999427,None,388.1321016999427,None,388.1321016999427,None,388.1321016999427,None,389.03962769999634,None,389.03962769999634,389.53956939990167,,,,,,,,,,,,,,,,112,2023-04-06_14h13.27.436,FishGame,2022.1.1,59.99743207638471,
,22,나를 데려가줘,6,Orange,B,0,0,ScrollDown,ScrollUp,Orange.png,3,NonTarget,NonTarget,,,,,0,0,0,0,,,,,,,,,,,,,,,,,,,,,0,21,21,21,,,,,,,,,,,,,,,,,,,,,,,,,,,,,,,,,,,,,,,,,,,,,,,,,,,,,,,,,,,,,,,,,,,,,,,,,1.0015431940555573,1.0996992000145838,390.1593143999344,None,ScrollDown,정답입니다,390.1593143999344,None,390.1593143999344,None,390.1593143999344,None,390.1593143999344,None,391.15628869994543,None,391.15628869994543,391.6586545999162,,,,,,,,,,,,,,,,112,2023-04-06_14h13.27.436,FishGame,2022.1.1,59.99743207638471,
,23,넌 성실해,1,Orange,B,6.041666666666666,5.7,ScrollUp,ScrollDown,Orange.png,3,Positive,Incongruent,,,,,0,0,0,0,,,,,,,,,,,,,,,,,,,,,0,22,22,22,,,,,,,,,,,,,,,,,,,,,,,,,,,,,,,,,,,,,,,,,,,,,,,,,,,,,,,,,,,,,,,,,,,,,,,,,1.6697530845801034,1.781326700001955,392.28074639989063,None,ScrollUp,정답입니다,392.28074639989063,None,392.28074639989063,None,392.28074639989063,None,392.28074639989063,None,393.9587036999874,None,393.9587036999874,394.4584663999267,,,,,,,,,,,,,,,,112,2023-04-06_14h13.27.436,FishGame,2022.1.1,59.99743207638471,
,24,넌 현실주의적이야,3,Green,A,4.625,4.4,ScrollDown,ScrollUp,Green.png,3,Neutral,Neutral,,,,,0,0,0,0,,,,,,,,,,,,,,,,,,,,,0,23,23,23,,,,,,,,,,,,,,,,,,,,,,,,,,,,,,,,,,,,,,,,,,,,,,,,,,,,,,,,,,,,,,,,,,,,,,,,,1.1496913582086563,0.9498798999702558,395.0789647999918,None,ScrollDown,정답입니다,395.0789647999918,None,395.0789647999918,None,395.0789647999918,None,395.0789647999918,None,395.92308849992696,None,395.92308849992696,396.4251607999904,,,,,,,,,,,,,,,,112,2023-04-06_14h13.27.436,FishGame,2022.1.1,59.99743207638471,
,25,넌 진실돼,1,Green,A,6.625,5.566666666666666,ScrollDown,ScrollUp,Green.png,3,Positive,Congruent,,,,,0,0,0,0,,,,,,,,,,,,,,,,,,,,,0,24,24,24,,,,,,,,,,,,,,,,,,,,,,,,,,,,,,,,,,,,,,,,,,,,,,,,,,,,,,,,,,,,,,,,,,,,,,,,,1,0.9790622000582516,397.0470775999129,None,ScrollDown,정답입니다,397.0470775999129,None,397.0470775999129,None,397.0470775999129,None,397.0470775999129,None,397.92277909989934,None,397.92277909989934,398.4234264999395,,,,,,,,,,,,,,,,112,2023-04-06_14h13.27.436,FishGame,2022.1.1,59.99743207638471,
,26,넌 천진난만해,3,Orange,B,4.958333333333334,4.833333333333333,ScrollUp,ScrollDown,Orange.png,3,Neutral,Neutral,,,,,0,0,0,0,,,,,,,,,,,,,,,,,,,,,0,25,25,25,,,,,,,,,,,,,,,,,,,,,,,,,,,,,,,,,,,,,,,,,,,,,,,,,,,,,,,,,,,,,,,,,,,,,,,,,1.9537037014961243,1.031513400026597,399.0463769999333,None,ScrollUp,정답입니다,399.0463769999333,None,399.0463769999333,None,399.0463769999333,None,399.0463769999333,None,399.97522059991024,None,399.97522059991024,400.4751982999733,,,,,,,,,,,,,,,,112,2023-04-06_14h13.27.436,FishGame,2022.1.1,59.99743207638471,
,27,넌 교양없어,5,Green,A,2.416666666666667,2.2,ScrollDown,ScrollUp,Green.png,3,Negative,Incongruent,,,,,0,0,0,0,,,,,,,,,,,,,,,,,,,,,0,26,26,26,,,,,,,,,,,,,,,,,,,,,,,,,,,,,,,,,,,,,,,,,,,,,,,,,,,,,,,,,,,,,,,,,,,,,,,,,1,0.9337316000601277,401.0978593999753,None,ScrollDown,정답입니다,401.0978593999753,None,401.0978593999753,None,401.0978593999753,None,401.0978593999753,None,401.9281966999406,None,401.9281966999406,402.44164959993213,,,,,,,,,,,,,,,,112,2023-04-06_14h13.27.436,FishGame,2022.1.1,59.99743207638471,
,28,나를 보내줘,6,Green,A,0,0,ScrollUp,ScrollDown,Green.png,3,NonTarget,NonTarget,,,,,0,0,0,0,,,,,,,,,,,,,,,,,,,,,0,27,27,27,,,,,,,,,,,,,,,,,,,,,,,,,,,,,,,,,,,,,,,,,,,,,,,,,,,,,,,,,,,,,,,,,,,,,,,,,2,1.0832710999529809,403.0605401999783,None,ScrollUp,정답입니다,403.0605401999783,None,403.0605401999783,None,403.0605401999783,None,403.0605401999783,None,404.0417223999975,None,404.0417223999975,404.5416820999235,,,,,,,,,,,,,,,,112,2023-04-06_14h13.27.436,FishGame,2022.1.1,59.99743207638471,
,29,넌 엉뚱스러워,3,Green,A,4.166666666666667,4.133333333333334,ScrollDown,ScrollUp,Green.png,3,Neutral,Neutral,,,,,0,0,0,0,,,,,,,,,,,,,,,,,,,,,0,28,28,28,,,,,,,,,,,,,,,,,,,,,,,,,,,,,,,,,,,,,,,,,,,,,,,,,,,,,,,,,,,,,,,,,,,,,,,,,1,1.0627440999960527,405.1702601999277,None,ScrollDown,정답입니다,405.1702601999277,None,405.1702601999277,None,405.1702601999277,None,405.1702601999277,None,406.12502209993545,None,406.12502209993545,406.6248937000055,,,,,,,,,,,,,,,,112,2023-04-06_14h13.27.436,FishGame,2022.1.1,59.99743207638471,
,30,넌 무지해,4,Orange,B,2.541666666666667,3.066666666666667,ScrollUp,ScrollDown,Orange.png,3,Negative,Congruent,,,,,0,0,0,0,,,,,,,,,,,,,,,,,,,,,0,29,29,29,,,,,,,,,,,,,,,,,,,,,,,,,,,,,,,,,,,,,,,,,,,,,,,,,,,,,,,,,,,,,,,,,,,,,,,,,2,1.11609059991315,407.24623769999016,None,ScrollUp,정답입니다,407.24623769999016,None,407.24623769999016,None,407.24623769999016,None,407.24623769999016,None,408.25826819997746,None,408.25826819997746,408.756012299913,,,,,,,,,,,,,,,,112,2023-04-06_14h13.27.436,FishGame,2022.1.1,59.99743207638471,
,31,넌 음울해,5,Orange,B,2.25,2.233333333333333,ScrollUp,ScrollDown,Orange.png,3,Negative,Congruent,,,,,0,0,0,0,,,,,,,,,,,,,,,,,,,,,0,30,30,30,,,,,,,,,,,,,,,,,,,,,,,,,,,,,,,,,,,,,,,,,,,,,,,,,,,,,,,,,,,,,,,,,,,,,,,,,1.805555562178294,0.8146074999822304,409.383674499928,None,ScrollUp,정답입니다,409.383674499928,None,409.383674499928,None,409.383674499928,None,409.383674499928,None,410.0916103000054,None,410.0916103000054,410.5914752999088,,,,,,,,,,,,,,,,112,2023-04-06_14h13.27.436,FishGame,2022.1.1,59.99743207638471,
,32,넌 냉소적이야,5,Green,A,2.916666666666667,2.4,ScrollDown,ScrollUp,Green.png,3,Negative,Incongruent,,,,,0,0,0,0,,,,,,,,,,,,,,,,,,,,,0,31,31,31,,,,,,,,,,,,,,,,,,,,,,,,,,,,,,,,,,,,,,,,,,,,,,,,,,,,,,,,,,,,,,,,,,,,,,,,,1.1358024577299755,0.7980031999759376,411.2107350999722,None,ScrollDown,정답입니다,411.2107350999722,None,411.2107350999722,None,411.2107350999722,None,411.2107350999722,None,411.90812669997104,None,411.90812669997104,412.40816130000167,,,,,,,,,,,,,,,,112,2023-04-06_14h13.27.436,FishGame,2022.1.1,59.99743207638471,
,33,나를 데려가줘,6,Orange,B,0,0,ScrollDown,ScrollUp,Orange.png,3,NonTarget,NonTarget,,,,,0,0,0,0,,,,,,,,,,,,,,,,,,,,,0,32,32,32,,,,,,,,,,,,,,,,,,,,,,,,,,,,,,,,,,,,,,,,,,,,,,,,,,,,,,,,,,,,,,,,,,,,,,,,,1.160493830839793,1.2333986000157893,413.04135849990416,None,ScrollDown,정답입니다,413.04135849990416,None,413.04135849990416,None,413.04135849990416,None,413.04135849990416,None,414.1582061999943,None,414.1582061999943,414.6581192999147,,,,,,,,,,,,,,,,112,2023-04-06_14h13.27.436,FishGame,2022.1.1,59.99743207638471,
,34,넌 쾌활해,1,Green,A,5.541666666666666,5.733333333333333,ScrollDown,ScrollUp,Green.png,3,Positive,Congruent,,,,,0,0,0,0,,,,,,,,,,,,,,,,,,,,,0,33,33,33,,,,,,,,,,,,,,,,,,,,,,,,,,,,,,,,,,,,,,,,,,,,,,,,,,,,,,,,,,,,,,,,,,,,,,,,,1.0061728358268738,1.0326070999726653,415.28538819996174,None,ScrollDown,정답입니다,415.28538819996174,None,415.28538819996174,None,415.28538819996174,None,415.28538819996174,None,416.206052799942,None,416.206052799942,416.7080141999759,,,,,,,,,,,,,,,,112,2023-04-06_14h13.27.436,FishGame,2022.1.1,59.99743207638471,
,35,나를 보내줘,6,Green,A,0,0,ScrollUp,ScrollDown,Green.png,3,NonTarget,NonTarget,,,,,0,0,0,0,,,,,,,,,,,,,,,,,,,,,0,34,34,34,,,,,,,,,,,,,,,,,,,,,,,,,,,,,,,,,,,,,,,,,,,,,,,,,,,,,,,,,,,,,,,,,,,,,,,,,1.6219135771195092,0.9149898000760004,417.32734590000473,None,ScrollUp,정답입니다,417.32734590000473,None,417.32734590000473,None,417.32734590000473,None,417.32734590000473,None,418.1413979999488,None,418.1413979999488,418.6414059998933,,,,,,,,,,,,,,,,112,2023-04-06_14h13.27.436,FishGame,2022.1.1,59.99743207638471,
,36,넌 명랑해,1,Orange,B,5.739130434782609,5.666666666666667,ScrollUp,ScrollDown,Orange.png,3,Positive,Incongruent,,,,,0,0,0,0,,,,,,,,,,,,,,,,,,,,,0,35,35,35,,,,,,,,,,,,,,,,,,,,,,,,,,,,,,,,,,,,,,,,,,,,,,,,,,,,,,,,,,,,,,,,,,,,,,,,,1.7978395173947017,0.9814794999547303,419.2649486999726,None,ScrollUp,정답입니다,419.2649486999726,None,419.2649486999726,None,419.2649486999726,None,419.2649486999726,None,420.1412541999016,None,420.1412541999016,420.64127609995194,,,,,,,,,,,,,,,,112,2023-04-06_14h13.27.436,FishGame,2022.1.1,59.99743207638471,
,37,넌 멍해,4,Green,A,2.833333333333333,3.4,ScrollDown,ScrollUp,Green.png,3,Negative,Incongruent,,,,,0,0,0,0,,,,,,,,,,,,,,,,,,,,,0,36,36,36,,,,,,,,,,,,,,,,,,,,,,,,,,,,,,,,,,,,,,,,,,,,,,,,,,,,,,,,,,,,,,,,,,,,,,,,,1.1049382785956066,0.9983187000034377,421.2625404999126,None,ScrollDown,정답입니다,421.2625404999126,None,421.2625404999126,None,421.2625404999126,None,421.2625404999126,None,422.15809849998914,None,422.15809849998914,422.6579595999792,,,,,,,,,,,,,,,,112,2023-04-06_14h13.27.436,FishGame,2022.1.1,59.99743207638471,
,38,나를 데려가줘,6,Orange,B,0,0,ScrollDown,ScrollUp,Orange.png,3,NonTarget,NonTarget,,,,,0,0,0,0,,,,,,,,,,,,,,,,,,,,,0,37,37,37,,,,,,,,,,,,,,,,,,,,,,,,,,,,,,,,,,,,,,,,,,,,,,,,,,,,,,,,,,,,,,,,,,,,,,,,,1.0509259402751923,1.1791225000051782,423.2842990999343,None,ScrollDown,정답입니다,423.2842990999343,None,423.2842990999343,None,423.2842990999343,None,423.2842990999343,None,424.3556027999148,None,424.3556027999148,424.8556689999532,,,,,,,,,,,,,,,,112,2023-04-06_14h13.27.436,FishGame,2022.1.1,59.99743207638471,
,39,넌 현명해,2,Green,A,6.541666666666666,4.533333333333333,ScrollDown,ScrollUp,Green.png,3,Positive,Congruent,,,,,0,0,0,0,,,,,,,,,,,,,,,,,,,,,0,38,38,38,,,,,,,,,,,,,,,,,,,,,,,,,,,,,,,,,,,,,,,,,,,,,,,,,,,,,,,,,,,,,,,,,,,,,,,,,1.0694444576899211,0.9691105999518186,425.4749901999021,None,ScrollDown,정답입니다,425.4749901999021,None,425.4749901999021,None,425.4749901999021,None,425.4749901999021,None,426.3414757999126,None,426.3414757999126,426.84132069989573,,,,,,,,,,,,,,,,112,2023-04-06_14h13.27.436,FishGame,2022.1.1,59.99743207638471,
,40,넌 수줍어,3,Orange,B,3.541666666666666,4.366666666666666,ScrollUp,ScrollDown,Orange.png,3,Neutral,Neutral,,,,,0,0,0,0,,,,,,,,,,,,,,,,,,,,,0,39,39,39,,,,,,,,,,,,,,,,,,,,,,,,,,,,,,,,,,,,,,,,,,,,,,,,,,,,,,,,,,,,,,,,,,,,,,,,,1.7700617164373398,0.9647074000677094,427.46641509991605,None,ScrollUp,정답입니다,427.46641509991605,None,427.46641509991605,None,427.46641509991605,None,427.46641509991605,None,428.3247019998962,None,428.3247019998962,428.82447839993984,,,,,,,,,,,,,,,,112,2023-04-06_14h13.27.436,FishGame,2022.1.1,59.99743207638471,
,41,나를 데려가줘,6,Orange,B,0,0,ScrollDown,ScrollUp,Orange.png,3,NonTarget,NonTarget,,,,,0,0,0,0,,,,,,,,,,,,,,,,,,,,,0,40,40,40,,,,,,,,,,,,,,,,,,,,,,,,,,,,,,,,,,,,,,,,,,,,,,,,,,,,,,,,,,,,,,,,,,,,,,,,,1.0740740497907002,0.8834326999494806,429.44660489994567,None,ScrollDown,정답입니다,429.44660489994567,None,429.44660489994567,None,429.44660489994567,None,429.44660489994567,None,430.224564599921,None,430.224564599921,430.72829070000444,,,,,,,,,,,,,,,,112,2023-04-06_14h13.27.436,FishGame,2022.1.1,59.99743207638471,
,42,넌 성숙해,2,Orange,B,5.833333333333333,4.533333333333333,ScrollUp,ScrollDown,Orange.png,3,Positive,Incongruent,,,,,0,0,0,0,,,,,,,,,,,,,,,,,,,,,0,41,41,41,,,,,,,,,,,,,,,,,,,,,,,,,,,,,,,,,,,,,,,,,,,,,,,,,,,,,,,,,,,,,,,,,,,,,,,,,1.7391975373029709,0.9777498999610543,431.3659915999742,None,ScrollUp,정답입니다,431.3659915999742,None,431.3659915999742,None,431.3659915999742,None,431.3659915999742,None,432.23899699992035,None,432.23899699992035,432.7410532999784,,,,,,,,,,,,,,,,112,2023-04-06_14h13.27.436,FishGame,2022.1.1,59.99743207638471,
,1,넌 매력적이야,2,Orange,B,6.125,4.666666666666667,ScrollUp,ScrollDown,Orange.png,4,Positive,Incongruent,,,,,0,0,0,0,,,,,,,,,,,,,,,,,,,,,,,,,0,0,0,0,,,,,,,,,,,,,,,,,,,,,,,,,,,,464.9403673999477,466.4405593998963,466.4739066999173,467.42386729991995,467.4739016999956,468.4238590999739,468.4238590999739,None,,,,,,,,,,,,,,,,,,,,,,,,,,,,,,,,,,1.7145061641931534,1.2273818999528885,469.5201601999579,None,ScrollUp,정답입니다,469.5201601999579,None,469.5201601999579,None,469.5201601999579,None,469.5201601999579,None,470.64047139999457,None,470.64047139999457,471.14383739989717,433.24106219992973,None,433.24106219992973,None,0.06851852,-0.12222222,1,0,0,0.016166749875992537,None,463.2383831999032,None,,,112,2023-04-06_14h13.27.436,FishGame,2022.1.1,59.99743207638471,
,2,나를 보내줘,6,Green,A,0,0,ScrollUp,ScrollDown,Green.png,4,NonTarget,NonTarget,,,,,0,0,0,0,,,,,,,,,,,,,,,,,,,,,,,,,0,1,1,1,,,,,,,,,,,,,,,,,,,,,,,,,,,,,,,,,,,,,,,,,,,,,,,,,,,,,,,,,,,,,,,,,,,,,1.9722222189108531,1.0480945999734104,471.7593718999997,None,ScrollUp,정답입니다,471.7593718999997,None,471.7593718999997,None,471.7593718999997,None,471.7593718999997,None,472.7048658999847,None,472.7048658999847,473.2069046999095,,,,,,,,,,,,,,,,112,2023-04-06_14h13.27.436,FishGame,2022.1.1,59.99743207638471,
,3,넌 조심스러워,3,Green,A,4.791666666666666,4.666666666666667,ScrollDown,ScrollUp,Green.png,4,Neutral,Neutral,,,,,0,0,0,0,,,,,,,,,,,,,,,,,,,,,,,,,0,2,2,2,,,,,,,,,,,,,,,,,,,,,,,,,,,,,,,,,,,,,,,,,,,,,,,,,,,,,,,,,,,,,,,,,,,,,1.0154321193695068,0.9294555999804288,473.83065669995267,None,ScrollDown,정답입니다,473.83065669995267,None,473.83065669995267,None,473.83065669995267,None,473.83065669995267,None,474.65473419998307,None,474.65473419998307,475.15691609994974,,,,,,,,,,,,,,,,112,2023-04-06_14h13.27.436,FishGame,2022.1.1,59.99743207638471,
,4,넌 철학적이야,3,Orange,B,4.5,4.266666666666667,ScrollUp,ScrollDown,Orange.png,4,Neutral,Neutral,,,,,0,0,0,0,,,,,,,,,,,,,,,,,,,,,,,,,0,3,3,3,,,,,,,,,,,,,,,,,,,,,,,,,,,,,,,,,,,,,,,,,,,,,,,,,,,,,,,,,,,,,,,,,,,,,1.6682098706563315,0.881991499918513,475.78695449989755,None,ScrollUp,정답입니다,475.78695449989755,None,475.78695449989755,None,475.78695449989755,None,475.78695449989755,None,476.5569831999019,None,476.5569831999019,477.05689219990745,,,,,,,,,,,,,,,,112,2023-04-06_14h13.27.436,FishGame,2022.1.1,59.99743207638471,
,5,넌 쩨쩨해,5,Green,A,2.375,2.133333333333333,ScrollDown,ScrollUp,Green.png,4,Negative,Incongruent,,,,,0,0,0,0,,,,,,,,,,,,,,,,,,,,,,,,,0,4,4,4,,,,,,,,,,,,,,,,,,,,,,,,,,,,,,,,,,,,,,,,,,,,,,,,,,,,,,,,,,,,,,,,,,,,,1.0586419602235158,0.981180900009349,477.67868999997154,None,ScrollDown,정답입니다,477.67868999997154,None,477.67868999997154,None,477.67868999997154,None,477.67868999997154,None,478.5544969999464,None,478.5544969999464,479.0544917999068,,,,,,,,,,,,,,,,112,2023-04-06_14h13.27.436,FishGame,2022.1.1,59.99743207638471,
,6,나를 데려가줘,6,Orange,B,0,0,ScrollDown,ScrollUp,Orange.png,4,NonTarget,NonTarget,,,,,0,0,0,0,,,,,,,,,,,,,,,,,,,,,,,,,0,5,5,5,,,,,,,,,,,,,,,,,,,,,,,,,,,,,,,,,,,,,,,,,,,,,,,,,,,,,,,,,,,,,,,,,,,,,1.0787036915620167,1.0810722999740392,479.6827849999536,None,ScrollDown,정답입니다,479.6827849999536,None,479.6827849999536,None,479.6827849999536,None,479.6827849999536,None,480.6544954999117,None,480.6544954999117,481.15695439989213,,,,,,,,,,,,,,,,112,2023-04-06_14h13.27.436,FishGame,2022.1.1,59.99743207638471,
,7,넌 고집불통이야,5,Orange,B,2.875,2,ScrollUp,ScrollDown,Orange.png,4,Negative,Congruent,,,,,0,0,0,0,,,,,,,,,,,,,,,,,,,,,,,,,0,6,6,6,,,,,,,,,,,,,,,,,,,,,,,,,,,,,,,,,,,,,,,,,,,,,,,,,,,,,,,,,,,,,,,,,,,,,1,1.1482906000455841,481.783111799974,None,ScrollDown,오답입니다,481.783111799974,None,481.783111799974,None,481.783111799974,None,481.783111799974,None,482.8236283999868,None,482.8236283999868,483.32353969989344,,,,,,,,,,,,,,,,112,2023-04-06_14h13.27.436,FishGame,2022.1.1,59.99743207638471,
,8,넌 무심해,4,Green,A,2.875,3.2,ScrollDown,ScrollUp,Green.png,4,Negative,Incongruent,,,,,0,0,0,0,,,,,,,,,,,,,,,,,,,,,,,,,0,7,7,7,,,,,,,,,,,,,,,,,,,,,,,,,,,,,,,,,,,,,,,,,,,,,,,,,,,,,,,,,,,,,,,,,,,,,1,1.3820239999331534,483.94329009996727,None,ScrollDown,정답입니다,483.94329009996727,None,483.94329009996727,None,483.94329009996727,None,483.94329009996727,None,485.2233785999706,None,485.2233785999706,485.72332669992466,,,,,,,,,,,,,,,,112,2023-04-06_14h13.27.436,FishGame,2022.1.1,59.99743207638471,
,9,넌 정겨워,1,Green,A,5.791666666666667,5.666666666666667,ScrollDown,ScrollUp,Green.png,4,Positive,Congruent,,,,,0,0,0,0,,,,,,,,,,,,,,,,,,,,,,,,,0,8,8,8,,,,,,,,,,,,,,,,,,,,,,,,,,,,,,,,,,,,,,,,,,,,,,,,,,,,,,,,,,,,,,,,,,,,,1.1728395173947017,0.829233399941586,486.34608439996373,None,ScrollDown,정답입니다,486.34608439996373,None,486.34608439996373,None,486.34608439996373,None,486.34608439996373,None,487.07101529999636,None,487.07101529999636,487.57190529990476,,,,,,,,,,,,,,,,112,2023-04-06_14h13.27.436,FishGame,2022.1.1,59.99743207638471,
,10,나를 데려가줘,6,Orange,B,0,0,ScrollDown,ScrollUp,Orange.png,4,NonTarget,NonTarget,,,,,0,0,0,0,,,,,,,,,,,,,,,,,,,,,,,,,0,9,9,9,,,,,,,,,,,,,,,,,,,,,,,,,,,,,,,,,,,,,,,,,,,,,,,,,,,,,,,,,,,,,,,,,,,,,1.0138889054457347,1.1313695000717416,488.1909976999741,None,ScrollDown,정답입니다,488.1909976999741,None,488.1909976999741,None,488.1909976999741,None,488.1909976999741,None,489.22100129991304,None,489.22100129991304,489.72350319998804,,,,,,,,,,,,,,,,112,2023-04-06_14h13.27.436,FishGame,2022.1.1,59.99743207638471,
,11,넌 체제순응적이야,4,Orange,B,3,3.6,ScrollUp,ScrollDown,Orange.png,4,Negative,Congruent,,,,,0,0,0,0,,,,,,,,,,,,,,,,,,,,,,,,,0,10,10,10,,,,,,,,,,,,,,,,,,,,,,,,,,,,,,,,,,,,,,,,,,,,,,,,,,,,,,,,,,,,,,,,,,,,,1.527777779226502,0.9485073999967426,490.3523315999191,None,NoResponse,무응답입니다,490.3523315999191,None,490.3523315999191,None,490.3523315999191,None,490.3523315999191,None,491.19013239990454,None,491.19013239990454,491.6898673999822,,,,,,,,,,,,,,,,112,2023-04-06_14h13.27.436,FishGame,2022.1.1,59.99743207638471,
,12,나를 보내줘,6,Green,A,0,0,ScrollUp,ScrollDown,Green.png,4,NonTarget,NonTarget,,,,,0,0,0,0,,,,,,,,,,,,,,,,,,,,,,,,,0,11,11,11,,,,,,,,,,,,,,,,,,,,,,,,,,,,,,,,,,,,,,,,,,,,,,,,,,,,,,,,,,,,,,,,,,,,,1.8024691343307495,1.481478900066577,492.3094291999005,None,ScrollUp,정답입니다,492.3094291999005,None,492.3094291999005,None,492.3094291999005,None,492.3094291999005,None,493.69003309996333,None,493.69003309996333,494.1899254999589,,,,,,,,,,,,,,,,112,2023-04-06_14h13.27.436,FishGame,2022.1.1,59.99743207638471,
,13,넌 박식해,2,Green,A,5.625,3.933333333333333,ScrollDown,ScrollUp,Green.png,4,Positive,Congruent,,,,,0,0,0,0,,,,,,,,,,,,,,,,,,,,,,,,,0,12,12,12,,,,,,,,,,,,,,,,,,,,,,,,,,,,,,,,,,,,,,,,,,,,,,,,,,,,,,,,,,,,,,,,,,,,,1.0972222338120143,0.9445577999576926,494.82483719999436,None,ScrollDown,정답입니다,494.82483719999436,None,494.82483719999436,None,494.82483719999436,None,494.82483719999436,None,495.6541780999396,None,495.6541780999396,496.15416169993114,,,,,,,,,,,,,,,,112,2023-04-06_14h13.27.436,FishGame,2022.1.1,59.99743207638471,
,14,나를 보내줘,6,Green,A,0,0,ScrollUp,ScrollDown,Green.png,4,NonTarget,NonTarget,,,,,0,0,0,0,,,,,,,,,,,,,,,,,,,,,,,,,0,13,13,13,,,,,,,,,,,,,,,,,,,,,,,,,,,,,,,,,,,,,,,,,,,,,,,,,,,,,,,,,,,,,,,,,,,,,1.496913580301528,1.1864114000927657,496.7709332999075,None,NoResponse,무응답입니다,496.7709332999075,None,496.7709332999075,None,496.7709332999075,None,496.7709332999075,None,497.8566797999665,None,497.8566797999665,498.35656269988976,,,,,,,,,,,,,,,,112,2023-04-06_14h13.27.436,FishGame,2022.1.1,59.99743207638471,
,15,넌 침착해,1,Orange,B,5.458333333333333,5.566666666666666,ScrollUp,ScrollDown,Orange.png,4,Positive,Incongruent,,,,,0,0,0,0,,,,,,,,,,,,,,,,,,,,,,,,,0,14,14,14,,,,,,,,,,,,,,,,,,,,,,,,,,,,,,,,,,,,,,,,,,,,,,,,,,,,,,,,,,,,,,,,,,,,,1.7160493781169257,1.1095868000993505,498.9828916999977,None,ScrollUp,정답입니다,498.9828916999977,None,498.9828916999977,None,498.9828916999977,None,498.9828916999977,None,499.9830316998996,None,499.9830316998996,500.48741849989165,,,,,,,,,,,,,,,,112,2023-04-06_14h13.27.436,FishGame,2022.1.1,59.99743207638471,
,16,나를 데려가줘,6,Orange,B,0,0,ScrollDown,ScrollUp,Orange.png,4,NonTarget,NonTarget,,,,,0,0,0,0,,,,,,,,,,,,,,,,,,,,,,,,,0,15,15,15,,,,,,,,,,,,,,,,,,,,,,,,,,,,,,,,,,,,,,,,,,,,,,,,,,,,,,,,,,,,,,,,,,,,,1.115740751226743,1.0477754999883473,501.11230129993055,None,ScrollDown,정답입니다,501.11230129993055,None,501.11230129993055,None,501.11230129993055,None,501.11230129993055,None,502.05410779989325,None,502.05410779989325,502.55409559991676,,,,,,,,,,,,,,,,112,2023-04-06_14h13.27.436,FishGame,2022.1.1,59.99743207638471,
,17,넌 행복해,1,Green,A,6.416666666666666,6.166666666666667,ScrollDown,ScrollUp,Green.png,4,Positive,Congruent,,,,,0,0,0,0,,,,,,,,,,,,,,,,,,,,,,,,,0,16,16,16,,,,,,,,,,,,,,,,,,,,,,,,,,,,,,,,,,,,,,,,,,,,,,,,,,,,,,,,,,,,,,,,,,,,,1.1080246816078823,0.9146936000324786,503.18007389991544,None,ScrollDown,정답입니다,503.18007389991544,None,503.18007389991544,None,503.18007389991544,None,503.18007389991544,None,503.98993639997207,None,503.98993639997207,504.48976749996655,,,,,,,,,,,,,,,,112,2023-04-06_14h13.27.436,FishGame,2022.1.1,59.99743207638471,
,18,넌 겸손해,2,Orange,B,5.791666666666667,4.766666666666667,ScrollUp,ScrollDown,Orange.png,4,Positive,Incongruent,,,,,0,0,0,0,,,,,,,,,,,,,,,,,,,,,,,,,0,17,17,17,,,,,,,,,,,,,,,,,,,,,,,,,,,,,,,,,,,,,,,,,,,,,,,,,,,,,,,,,,,,,,,,,,,,,1.1728395173947017,1.148144799983129,505.11579899990465,None,ScrollDown,오답입니다,505.11579899990465,None,505.11579899990465,None,505.11579899990465,None,505.11579899990465,None,506.1542751999805,None,506.1542751999805,506.6563544999808,,,,,,,,,,,,,,,,112,2023-04-06_14h13.27.436,FishGame,2022.1.1,59.99743207638471,
,19,나를 보내줘,6,Green,A,0,0,ScrollUp,ScrollDown,Green.png,4,NonTarget,NonTarget,,,,,0,0,0,0,,,,,,,,,,,,,,,,,,,,,,,,,0,18,18,18,,,,,,,,,,,,,,,,,,,,,,,,,,,,,,,,,,,,,,,,,,,,,,,,,,,,,,,,,,,,,,,,,,,,,1.8472222139437993,1.0354778000619262,507.2739108999958,None,ScrollUp,정답입니다,507.2739108999958,None,507.2739108999958,None,507.2739108999958,None,507.2739108999958,None,508.204176899977,None,508.204176899977,508.70621819992084,,,,,,,,,,,,,,,,112,2023-04-06_14h13.27.436,FishGame,2022.1.1,59.99743207638471,
,20,넌 의심없어,3,Green,A,4.166666666666667,4.6,ScrollDown,ScrollUp,Green.png,4,Neutral,Neutral,,,,,0,0,0,0,,,,,,,,,,,,,,,,,,,,,,,,,0,19,19,19,,,,,,,,,,,,,,,,,,,,,,,,,,,,,,,,,,,,,,,,,,,,,,,,,,,,,,,,,,,,,,,,,,,,,1.115740751226743,1.0648090000031516,509.32678649993613,None,ScrollDown,정답입니다,509.32678649993613,None,509.32678649993613,None,509.32678649993613,None,509.32678649993613,None,510.28973919991404,None,510.28973919991404,510.7895368000027,,,,,,,,,,,,,,,,112,2023-04-06_14h13.27.436,FishGame,2022.1.1,59.99743207638471,
,21,넌 시시해,4,Green,A,2.666666666666667,2.966666666666667,ScrollDown,ScrollUp,Green.png,4,Negative,Incongruent,,,,,0,0,0,0,,,,,,,,,,,,,,,,,,,,,,,,,0,20,20,20,,,,,,,,,,,,,,,,,,,,,,,,,,,,,,,,,,,,,,,,,,,,,,,,,,,,,,,,,,,,,,,,,,,,,1.1728395173947017,0.9459455999312922,511.40889530000277,None,ScrollDown,정답입니다,511.40889530000277,None,511.40889530000277,None,511.40889530000277,None,511.40889530000277,None,512.2538629999617,None,512.2538629999617,512.7539603000041,,,,,,,,,,,,,,,,112,2023-04-06_14h13.27.436,FishGame,2022.1.1,59.99743207638471,
,22,나를 데려가줘,6,Orange,B,0,0,ScrollDown,ScrollUp,Orange.png,4,NonTarget,NonTarget,,,,,0,0,0,0,,,,,,,,,,,,,,,,,,,,,,,,,0,21,21,21,,,,,,,,,,,,,,,,,,,,,,,,,,,,,,,,,,,,,,,,,,,,,,,,,,,,,,,,,,,,,,,,,,,,,1.1682098756233852,0.9787858000490814,513.3802856999682,None,ScrollDown,정답입니다,513.3802856999682,None,513.3802856999682,None,513.3802856999682,None,513.3802856999682,None,514.2563866999699,None,514.2563866999699,514.7562507999828,,,,,,,,,,,,,,,,112,2023-04-06_14h13.27.436,FishGame,2022.1.1,59.99743207638471,
,23,넌 무정해,5,Green,A,2.5,2.2,ScrollDown,ScrollUp,Green.png,4,Negative,Incongruent,,,,,0,0,0,0,,,,,,,,,,,,,,,,,,,,,,,,,0,22,22,22,,,,,,,,,,,,,,,,,,,,,,,,,,,,,,,,,,,,,,,,,,,,,,,,,,,,,,,,,,,,,,,,,,,,,1.0246913532416027,1.1984084999421611,515.3752743999939,None,ScrollDown,정답입니다,515.3752743999939,None,515.3752743999939,None,515.3752743999939,None,515.3752743999939,None,516.473079899908,None,516.473079899908,516.9727341999533,,,,,,,,,,,,,,,,112,2023-04-06_14h13.27.436,FishGame,2022.1.1,59.99743207638471,
,24,넌 긍정적이야,1,Orange,B,6.041666666666667,6.066666666666666,ScrollUp,ScrollDown,Orange.png,4,Positive,Incongruent,,,,,0,0,0,0,,,,,,,,,,,,,,,,,,,,,,,,,0,23,23,23,,,,,,,,,,,,,,,,,,,,,,,,,,,,,,,,,,,,,,,,,,,,,,,,,,,,,,,,,,,,,,,,,,,,,1.703703703979651,1.1000226000323892,517.597852399922,None,ScrollUp,정답입니다,517.597852399922,None,517.597852399922,None,517.597852399922,None,517.597852399922,None,518.5893850999419,None,518.5893850999419,519.0893959999084,,,,,,,,,,,,,,,,112,2023-04-06_14h13.27.436,FishGame,2022.1.1,59.99743207638471,
,25,나를 보내줘,6,Green,A,0,0,ScrollUp,ScrollDown,Green.png,4,NonTarget,NonTarget,,,,,0,0,0,0,,,,,,,,,,,,,,,,,,,,,,,,,0,24,24,24,,,,,,,,,,,,,,,,,,,,,,,,,,,,,,,,,,,,,,,,,,,,,,,,,,,,,,,,,,,,,,,,,,,,,1.8348765522241592,1.0930190000217408,519.7178977999138,None,ScrollUp,정답입니다,519.7178977999138,None,519.7178977999138,None,519.7178977999138,None,519.7178977999138,None,520.703685299959,None,520.703685299959,521.2037710999139,,,,,,,,,,,,,,,,112,2023-04-06_14h13.27.436,FishGame,2022.1.1,59.99743207638471,
,26,넌 시기심이 많아,5,Orange,B,2.458333333333333,2.233333333333333,ScrollUp,ScrollDown,Orange.png,4,Negative,Congruent,,,,,0,0,0,0,,,,,,,,,,,,,,,,,,,,,,,,,0,25,25,25,,,,,,,,,,,,,,,,,,,,,,,,,,,,,,,,,,,,,,,,,,,,,,,,,,,,,,,,,,,,,,,,,,,,,1.7808641890684764,1.5192085000453517,521.8302157999715,None,ScrollUp,정답입니다,521.8302157999715,None,521.8302157999715,None,521.8302157999715,None,521.8302157999715,None,523.2394767999649,None,523.2394767999649,523.7393907998921,,,,,,,,,,,,,,,,112,2023-04-06_14h13.27.436,FishGame,2022.1.1,59.99743207638471,
,27,넌 탁월해,2,Green,A,5.708333333333334,4.5,ScrollDown,ScrollUp,Green.png,4,Positive,Congruent,,,,,0,0,0,0,,,,,,,,,,,,,,,,,,,,,,,,,0,26,26,26,,,,,,,,,,,,,,,,,,,,,,,,,,,,,,,,,,,,,,,,,,,,,,,,,,,,,,,,,,,,,,,,,,,,,1.0910493781169255,0.9144981000572443,524.3627259999048,None,ScrollDown,정답입니다,524.3627259999048,None,524.3627259999048,None,524.3627259999048,None,524.3627259999048,None,525.1705680999439,None,525.1705680999439,525.6725273999618,,,,,,,,,,,,,,,,112,2023-04-06_14h13.27.436,FishGame,2022.1.1,59.99743207638471,
,28,나를 데려가줘,6,Orange,B,0,0,ScrollDown,ScrollUp,Orange.png,4,NonTarget,NonTarget,,,,,0,0,0,0,,,,,,,,,,,,,,,,,,,,,,,,,0,27,27,27,,,,,,,,,,,,,,,,,,,,,,,,,,,,,,,,,,,,,,,,,,,,,,,,,,,,,,,,,,,,,,,,,,,,,1.0308642089366913,1.2333873000461608,526.2944153998978,None,ScrollDown,정답입니다,526.2944153998978,None,526.2944153998978,None,526.2944153998978,None,526.2944153998978,None,527.4225152999861,None,527.4225152999861,527.9225807999028,,,,,,,,,,,,,,,,112,2023-04-06_14h13.27.436,FishGame,2022.1.1,59.99743207638471,
,29,넌 조용해,3,Orange,B,4.333333333333333,4.166666666666667,ScrollUp,ScrollDown,Orange.png,4,Neutral,Neutral,,,,,0,0,0,0,,,,,,,,,,,,,,,,,,,,,,,,,0,28,28,28,,,,,,,,,,,,,,,,,,,,,,,,,,,,,,,,,,,,,,,,,,,,,,,,,,,,,,,,,,,,,,,,,,,,,1.652777781089147,1.012852399959229,528.5468577999854,None,ScrollUp,정답입니다,528.5468577999854,None,528.5468577999854,None,528.5468577999854,None,528.5468577999854,None,529.453780699987,None,529.453780699987,529.9557669999776,,,,,,,,,,,,,,,,112,2023-04-06_14h13.27.436,FishGame,2022.1.1,59.99743207638471,
,30,넌 다정해,1,Green,A,5.833333333333334,5.7,ScrollDown,ScrollUp,Green.png,4,Positive,Congruent,,,,,0,0,0,0,,,,,,,,,,,,,,,,,,,,,,,,,0,29,29,29,,,,,,,,,,,,,,,,,,,,,,,,,,,,,,,,,,,,,,,,,,,,,,,,,,,,,,,,,,,,,,,,,,,,,1.1080246816078823,0.9650457999669015,530.576939099934,None,ScrollDown,정답입니다,530.576939099934,None,530.576939099934,None,530.576939099934,None,530.576939099934,None,531.439082799945,None,531.439082799945,531.9391168999719,,,,,,,,,,,,,,,,112,2023-04-06_14h13.27.436,FishGame,2022.1.1,59.99743207638471,
,31,넌 능력있어,2,Orange,B,6.166666666666666,4.6,ScrollUp,ScrollDown,Orange.png,4,Positive,Incongruent,,,,,0,0,0,0,,,,,,,,,,,,,,,,,,,,,,,,,0,30,30,30,,,,,,,,,,,,,,,,,,,,,,,,,,,,,,,,,,,,,,,,,,,,,,,,,,,,,,,,,,,,,,,,,,,,,1.7592592686414719,1.0481769000180066,532.5609297999181,None,ScrollUp,정답입니다,532.5609297999181,None,532.5609297999181,None,532.5609297999181,None,532.5609297999181,None,533.5057758999756,None,533.5057758999756,534.00569609995,,,,,,,,,,,,,,,,112,2023-04-06_14h13.27.436,FishGame,2022.1.1,59.99743207638471,
,32,넌 불쾌해,5,Green,A,2.125,1.933333333333333,ScrollDown,ScrollUp,Green.png,4,Negative,Incongruent,,,,,0,0,0,0,,,,,,,,,,,,,,,,,,,,,,,,,0,31,31,31,,,,,,,,,,,,,,,,,,,,,,,,,,,,,,,,,,,,,,,,,,,,,,,,,,,,,,,,,,,,,,,,,,,,,1,1.1461620000191033,534.6250139999902,None,ScrollDown,정답입니다,534.6250139999902,None,534.6250139999902,None,534.6250139999902,None,534.6250139999902,None,535.6703207999235,None,535.6703207999235,536.172336599906,,,,,,,,,,,,,,,,112,2023-04-06_14h13.27.436,FishGame,2022.1.1,59.99743207638471,
,33,나를 데려가줘,6,Orange,B,0,0,ScrollDown,ScrollUp,Orange.png,4,NonTarget,NonTarget,,,,,0,0,0,0,,,,,,,,,,,,,,,,,,,,,,,,,0,32,32,32,,,,,,,,,,,,,,,,,,,,,,,,,,,,,,,,,,,,,,,,,,,,,,,,,,,,,,,,,,,,,,,,,,,,,1.0185184975465138,1.3149361999239773,536.8550280999625,None,ScrollDown,정답입니다,536.8550280999625,None,536.8550280999625,None,536.8550280999625,None,536.8550280999625,None,538.005783499917,None,538.005783499917,538.5057915999787,,,,,,,,,,,,,,,,112,2023-04-06_14h13.27.436,FishGame,2022.1.1,59.99743207638471,
,34,넌 유순해,3,Green,A,4.458333333333333,5,ScrollDown,ScrollUp,Green.png,4,Neutral,Neutral,,,,,0,0,0,0,,,,,,,,,,,,,,,,,,,,,,,,,0,33,33,33,,,,,,,,,,,,,,,,,,,,,,,,,,,,,,,,,,,,,,,,,,,,,,,,,,,,,,,,,,,,,,,,,,,,,1.7253086368242898,1.1134861999889836,539.1410624999553,None,ScrollUp,오답입니다,539.1410624999553,None,539.1410624999553,None,539.1410624999553,None,539.1410624999553,None,540.1368746999651,None,540.1368746999651,540.6388858999126,,,,,,,,,,,,,,,,112,2023-04-06_14h13.27.436,FishGame,2022.1.1,59.99743207638471,
,35,넌 근심스러워,4,Orange,B,2.708333333333333,3.133333333333333,ScrollUp,ScrollDown,Orange.png,4,Negative,Congruent,,,,,0,0,0,0,,,,,,,,,,,,,,,,,,,,,,,,,0,34,34,34,,,,,,,,,,,,,,,,,,,,,,,,,,,,,,,,,,,,,,,,,,,,,,,,,,,,,,,,,,,,,,,,,,,,,1.703703703979651,1.3147403999464586,541.269761399948,None,ScrollUp,정답입니다,541.269761399948,None,541.269761399948,None,541.269761399948,None,541.269761399948,None,542.4722967999987,None,542.4722967999987,542.9722429999383,,,,,,,,,,,,,,,,112,2023-04-06_14h13.27.436,FishGame,2022.1.1,59.99743207638471,
,36,넌 세련되었어,2,Green,A,5.5,4.6,ScrollDown,ScrollUp,Green.png,4,Positive,Congruent,,,,,0,0,0,0,,,,,,,,,,,,,,,,,,,,,,,,,0,35,35,35,,,,,,,,,,,,,,,,,,,,,,,,,,,,,,,,,,,,,,,,,,,,,,,,,,,,,,,,,,,,,,,,,,,,,1,1.1002099000616,543.6052325998899,None,ScrollDown,정답입니다,543.6052325998899,None,543.6052325998899,None,543.6052325998899,None,543.6052325998899,None,544.588921999908,None,544.588921999908,545.0888138998998,,,,,,,,,,,,,,,,112,2023-04-06_14h13.27.436,FishGame,2022.1.1,59.99743207638471,
,37,나를 보내줘,6,Green,A,0,0,ScrollUp,ScrollDown,Green.png,4,NonTarget,NonTarget,,,,,0,0,0,0,,,,,,,,,,,,,,,,,,,,,,,,,0,36,36,36,,,,,,,,,,,,,,,,,,,,,,,,,,,,,,,,,,,,,,,,,,,,,,,,,,,,,,,,,,,,,,,,,,,,,1.8287036965290706,1.0293578000273556,545.7082670999225,None,ScrollUp,정답입니다,545.7082670999225,None,545.7082670999225,None,545.7082670999225,None,545.7082670999225,None,546.6365212999517,None,546.6365212999517,547.1366305999691,,,,,,,,,,,,,,,,112,2023-04-06_14h13.27.436,FishGame,2022.1.1,59.99743207638471,
,38,넌 확고해,3,Orange,B,4.708333333333334,4.566666666666666,ScrollUp,ScrollDown,Orange.png,4,Neutral,Neutral,,,,,0,0,0,0,,,,,,,,,,,,,,,,,,,,,,,,,0,37,37,37,,,,,,,,,,,,,,,,,,,,,,,,,,,,,,,,,,,,,,,,,,,,,,,,,,,,,,,,,,,,,,,,,,,,,1.7592592686414719,1.0639778000768274,547.7628696999745,None,ScrollUp,정답입니다,547.7628696999745,None,547.7628696999745,None,547.7628696999745,None,547.7628696999745,None,548.7198512000032,None,548.7198512000032,549.2222548999125,,,,,,,,,,,,,,,,112,2023-04-06_14h13.27.436,FishGame,2022.1.1,59.99743207638471,
,39,넌 이해심이 많아,1,Orange,B,6.041666666666668,5.533333333333333,ScrollUp,ScrollDown,Orange.png,4,Positive,Incongruent,,,,,0,0,0,0,,,,,,,,,,,,,,,,,,,,,,,,,0,38,38,38,,,,,,,,,,,,,,,,,,,,,,,,,,,,,,,,,,,,,,,,,,,,,,,,,,,,,,,,,,,,,,,,,,,,,1.6373456791043282,1.0169601999223232,549.8451333999401,None,ScrollUp,정답입니다,549.8451333999401,None,549.8451333999401,None,549.8451333999401,None,549.8451333999401,None,550.7556996999774,None,550.7556996999774,551.2588446999434,,,,,,,,,,,,,,,,112,2023-04-06_14h13.27.436,FishGame,2022.1.1,59.99743207638471,
,40,나를 보내줘,6,Green,A,0,0,ScrollUp,ScrollDown,Green.png,4,NonTarget,NonTarget,,,,,0,0,0,0,,,,,,,,,,,,,,,,,,,,,,,,,0,39,39,39,,,,,,,,,,,,,,,,,,,,,,,,,,,,,,,,,,,,,,,,,,,,,,,,,,,,,,,,,,,,,,,,,,,,,1.8024691343307495,1.1295928999315947,551.8745624999283,None,ScrollUp,정답입니다,551.8745624999283,None,551.8745624999283,None,551.8745624999283,None,551.8745624999283,None,552.9033551999601,None,552.9033551999601,553.4060541999061,,,,,,,,,,,,,,,,112,2023-04-06_14h13.27.436,FishGame,2022.1.1,59.99743207638471,
,41,넌 거칠어,4,Green,A,2.625,3.033333333333333,ScrollDown,ScrollUp,Green.png,4,Negative,Incongruent,,,,,0,0,0,0,,,,,,,,,,,,,,,,,,,,,,,,,0,40,40,40,,,,,,,,,,,,,,,,,,,,,,,,,,,,,,,,,,,,,,,,,,,,,,,,,,,,,,,,,,,,,,,,,,,,,1.0462962985038757,1.0465454999357462,554.0390465999953,None,ScrollDown,정답입니다,554.0390465999953,None,554.0390465999953,None,554.0390465999953,None,554.0390465999953,None,554.9719755999977,None,554.9719755999977,555.4719049999258,,,,,,,,,,,,,,,,112,2023-04-06_14h13.27.436,FishGame,2022.1.1,59.99743207638471,
,42,넌 변덕맞아,5,Orange,B,2.75,2.166666666666667,ScrollUp,ScrollDown,Orange.png,4,Negative,Congruent,,,,,0,0,0,0,,,,,,,,,,,,,,,,,,,,,,,,,0,41,41,41,,,,,,,,,,,,,,,,,,,,,,,,,,,,,,,,,,,,,,,,,,,,,,,,,,,,,,,,,,,,,,,,,,,,,1.7962963034709294,1.0174029000336304,556.0984735999955,None,ScrollUp,정답입니다,556.0984735999955,None,556.0984735999955,None,556.0984735999955,None,556.0984735999955,None,557.0053001999622,None,557.0053001999622,557.5052394999657,,,,,,,,,,,,,,,,112,2023-04-06_14h13.27.436,FishGame,2022.1.1,59.99743207638471,
,43,나를 데려가줘,6,Orange,B,0,0,ScrollDown,ScrollUp,Orange.png,4,NonTarget,NonTarget,,,,,0,0,0,0,,,,,,,,,,,,,,,,,,,,,,,,,0,42,42,42,,,,,,,,,,,,,,,,,,,,,,,,,,,,,,,,,,,,,,,,,,,,,,,,,,,,,,,,,,,,,,,,,,,,,1,1.0127892999444157,558.1270568999462,None,ScrollDown,정답입니다,558.1270568999462,None,558.1270568999462,None,558.1270568999462,None,558.1270568999462,None,559.0362807998899,None,559.0362807998899,559.536235599895,,,,,,,,,,,,,,,,112,2023-04-06_14h13.27.436,FishGame,2022.1.1,59.99743207638471,
,44,넌 외로워,4,Orange,B,2.833333333333333,3.3,ScrollUp,ScrollDown,Orange.png,4,Negative,Congruent,,,,,0,0,0,0,,,,,,,,,,,,,,,,,,,,,,,,,0,43,43,43,,,,,,,,,,,,,,,,,,,,,,,,,,,,,,,,,,,,,,,,,,,,,,,,,,,,,,,,,,,,,,,,,,,,,1.89969136317571,0.9973337999545038,560.1661892998964,None,ScrollUp,정답입니다,560.1661892998964,None,560.1661892998964,None,560.1661892998964,None,560.1661892998964,None,561.0529548999621,None,561.0529548999621,561.5553137999959,,,,,,,,,,,,,,,,112,2023-04-06_14h13.27.436,FishGame,2022.1.1,59.99743207638471,
,1,넌 불평스러워,5,Green,A,2.25,2.066666666666667,ScrollDown,ScrollUp,Green.png,5,Negative,Incongruent,,,,,0,0,0,0,,,,,,,,,,,,,,,,,,,,,,,,,,,,,0,0,0,0,,,,,,,,,,,,,,,,,,,,,,,,593.7044448999222,595.2079631999368,595.224539799965,596.1880835999036,596.2380884999875,597.1914215999423,597.1746225999668,None,,,,,,,,,,,,,,,,,,,,,,,,,,,,,,,,,,1.0138889054457347,1.2265213000355288,598.2813877000008,None,ScrollDown,정답입니다,598.2813877000008,None,598.2813877000008,None,598.2813877000008,None,598.2813877000008,None,599.4045465999516,None,599.4045465999516,599.9211472999305,562.0553715999704,None,562.0553715999704,None,0.05,-0.09074074,1,0,0,0.016372849931940436,None,592.0578107999172,None,,,112,2023-04-06_14h13.27.436,FishGame,2022.1.1,59.99743207638471,
,2,나를 보내줘,6,Green,A,0,0,ScrollUp,ScrollDown,Green.png,5,NonTarget,NonTarget,,,,,0,0,0,0,,,,,,,,,,,,,,,,,,,,,,,,,,,,,0,1,1,1,,,,,,,,,,,,,,,,,,,,,,,,,,,,,,,,,,,,,,,,,,,,,,,,,,,,,,,,,,,,,,,,,1.9984568059444427,1.1665970000904053,600.5241102,None,ScrollUp,정답입니다,600.5241102,None,600.5241102,None,600.5241102,None,600.5241102,None,601.5877127998974,None,601.5877127998974,602.0877138999058,,,,,,,,,,,,,,,,112,2023-04-06_14h13.27.436,FishGame,2022.1.1,59.99743207638471,
,3,넌 다재다능해,2,Orange,B,6.208333333333333,4.5,ScrollUp,ScrollDown,Orange.png,5,Positive,Incongruent,,,,,0,0,0,0,,,,,,,,,,,,,,,,,,,,,,,,,,,,,0,2,2,2,,,,,,,,,,,,,,,,,,,,,,,,,,,,,,,,,,,,,,,,,,,,,,,,,,,,,,,,,,,,,,,,,1.7731481442848842,1.1001315999310464,602.709828699939,None,ScrollUp,정답입니다,602.709828699939,None,602.709828699939,None,602.709828699939,None,602.709828699939,None,603.7043870999478,None,603.7043870999478,604.2043974999106,,,,,,,,,,,,,,,,112,2023-04-06_14h13.27.436,FishGame,2022.1.1,59.99743207638471,
,4,넌 과감해,3,Green,A,4.833333333333334,4.6,ScrollDown,ScrollUp,Green.png,5,Neutral,Neutral,,,,,0,0,0,0,,,,,,,,,,,,,,,,,,,,,,,,,,,,,0,3,3,3,,,,,,,,,,,,,,,,,,,,,,,,,,,,,,,,,,,,,,,,,,,,,,,,,,,,,,,,,,,,,,,,,1.140432099501292,0.8293069000355899,604.8244522999739,None,ScrollDown,정답입니다,604.8244522999739,None,604.8244522999739,None,604.8244522999739,None,604.8244522999739,None,605.5519950999878,None,605.5519950999878,606.0519835999003,,,,,,,,,,,,,,,,112,2023-04-06_14h13.27.436,FishGame,2022.1.1,59.99743207638471,
,5,넌 고분고분해,3,Orange,B,3.75,4.033333333333333,ScrollUp,ScrollDown,Orange.png,5,Neutral,Neutral,,,,,0,0,0,0,,,,,,,,,,,,,,,,,,,,,,,,,,,,,0,4,4,4,,,,,,,,,,,,,,,,,,,,,,,,,,,,,,,,,,,,,,,,,,,,,,,,,,,,,,,,,,,,,,,,,1.6666666691501937,0.9150197000708431,606.67582949996,None,ScrollUp,정답입니다,606.67582949996,None,606.67582949996,None,606.67582949996,None,606.67582949996,None,607.485357199912,None,607.485357199912,607.987725899904,,,,,,,,,,,,,,,,112,2023-04-06_14h13.27.436,FishGame,2022.1.1,59.99743207638471,
,6,나를 보내줘,6,Green,A,0,0,ScrollUp,ScrollDown,Green.png,5,NonTarget,NonTarget,,,,,0,0,0,0,,,,,,,,,,,,,,,,,,,,,,,,,,,,,0,5,5,5,,,,,,,,,,,,,,,,,,,,,,,,,,,,,,,,,,,,,,,,,,,,,,,,,,,,,,,,,,,,,,,,,1.6898148159186044,0.9316997000714764,608.6155557999155,None,ScrollUp,정답입니다,608.6155557999155,None,608.6155557999155,None,608.6155557999155,None,608.6155557999155,None,609.4378448999487,None,609.4378448999487,609.9376919999486,,,,,,,,,,,,,,,,112,2023-04-06_14h13.27.436,FishGame,2022.1.1,59.99743207638471,
,7,넌 잘 잊어,4,Green,A,3,3.7,ScrollDown,ScrollUp,Green.png,5,Negative,Incongruent,,,,,0,0,0,0,,,,,,,,,,,,,,,,,,,,,,,,,,,,,0,6,6,6,,,,,,,,,,,,,,,,,,,,,,,,,,,,,,,,,,,,,,,,,,,,,,,,,,,,,,,,,,,,,,,,,1.1635802586873372,0.9126387999858707,610.5618472999195,None,ScrollDown,정답입니다,610.5618472999195,None,610.5618472999195,None,610.5618472999195,None,610.5618472999195,None,611.370994500001,None,611.370994500001,611.8708466999233,,,,,,,,,,,,,,,,112,2023-04-06_14h13.27.436,FishGame,2022.1.1,59.99743207638471,
,8,넌 탐구심이없어,4,Orange,B,2.833333333333333,3.066666666666667,ScrollUp,ScrollDown,Orange.png,5,Negative,Congruent,,,,,0,0,0,0,,,,,,,,,,,,,,,,,,,,,,,,,,,,,0,7,7,7,,,,,,,,,,,,,,,,,,,,,,,,,,,,,,,,,,,,,,,,,,,,,,,,,,,,,,,,,,,,,,,,,1.6512345671653748,1.0500566000118852,612.4958064999664,None,ScrollUp,정답입니다,612.4958064999664,None,612.4958064999664,None,612.4958064999664,None,612.4958064999664,None,613.4377467999002,None,613.4377467999002,613.9541776999831,,,,,,,,,,,,,,,,112,2023-04-06_14h13.27.436,FishGame,2022.1.1,59.99743207638471,
,9,나를 데려가줘,6,Orange,B,0,0,ScrollDown,ScrollUp,Orange.png,5,NonTarget,NonTarget,,,,,0,0,0,0,,,,,,,,,,,,,,,,,,,,,,,,,,,,,0,8,8,8,,,,,,,,,,,,,,,,,,,,,,,,,,,,,,,,,,,,,,,,,,,,,,,,,,,,,,,,,,,,,,,,,1.0246913532416027,1.0792514000786468,614.5599429999711,None,ScrollDown,정답입니다,614.5599429999711,None,614.5599429999711,None,614.5599429999711,None,614.5599429999711,None,615.5351676999126,None,615.5351676999126,616.035125299939,,,,,,,,,,,,,,,,112,2023-04-06_14h13.27.436,FishGame,2022.1.1,59.99743207638471,
,10,넌 참되어,2,Green,A,6.041666666666664,4.733333333333333,ScrollDown,ScrollUp,Green.png,5,Positive,Congruent,,,,,0,0,0,0,,,,,,,,,,,,,,,,,,,,,,,,,,,,,0,9,9,9,,,,,,,,,,,,,,,,,,,,,,,,,,,,,,,,,,,,,,,,,,,,,,,,,,,,,,,,,,,,,,,,,1.1712963034709294,0.8461220000172034,616.6618667999282,None,ScrollDown,정답입니다,616.6618667999282,None,616.6618667999282,None,616.6618667999282,None,616.6618667999282,None,617.4018267999636,None,617.4018267999636,617.9042023998918,,,,,,,,,,,,,,,,112,2023-04-06_14h13.27.436,FishGame,2022.1.1,59.99743207638471,
,11,넌 생기있어,1,Orange,B,5.875,5.633333333333334,ScrollUp,ScrollDown,Orange.png,5,Positive,Incongruent,,,,,0,0,0,0,,,,,,,,,,,,,,,,,,,,,,,,,,,,,0,10,10,10,,,,,,,,,,,,,,,,,,,,,,,,,,,,,,,,,,,,,,,,,,,,,,,,,,,,,,,,,,,,,,,,,1.5216049375012517,0.8650782000040635,618.5295594999334,None,NoResponse,무응답입니다,618.5295594999334,None,618.5295594999334,None,618.5295594999334,None,618.5295594999334,None,619.2875965998974,None,619.2875965998974,619.7873677999014,,,,,,,,,,,,,,,,112,2023-04-06_14h13.27.436,FishGame,2022.1.1,59.99743207638471,
,12,넌 비사교적이야,4,Orange,B,2.875,2.9,ScrollUp,ScrollDown,Orange.png,5,Negative,Congruent,,,,,0,0,0,0,,,,,,,,,,,,,,,,,,,,,,,,,,,,,0,11,11,11,,,,,,,,,,,,,,,,,,,,,,,,,,,,,,,,,,,,,,,,,,,,,,,,,,,,,,,,,,,,,,,,,1.6805555572112403,0.9648243999108672,620.4100731998915,None,ScrollUp,정답입니다,620.4100731998915,None,620.4100731998915,None,620.4100731998915,None,620.4100731998915,None,621.2707561999559,None,621.2707561999559,621.7707226999337,,,,,,,,,,,,,,,,112,2023-04-06_14h13.27.436,FishGame,2022.1.1,59.99743207638471,
,13,나를 데려가줘,6,Orange,B,0,0,ScrollDown,ScrollUp,Orange.png,5,NonTarget,NonTarget,,,,,0,0,0,0,,,,,,,,,,,,,,,,,,,,,,,,,,,,,0,12,12,12,,,,,,,,,,,,,,,,,,,,,,,,,,,,,,,,,,,,,,,,,,,,,,,,,,,,,,,,,,,,,,,,,1,0.9665123000741005,622.3927003999706,None,ScrollDown,정답입니다,622.3927003999706,None,622.3927003999706,None,622.3927003999706,None,622.3927003999706,None,623.2519223999698,None,623.2519223999698,623.7539239999605,,,,,,,,,,,,,,,,112,2023-04-06_14h13.27.436,FishGame,2022.1.1,59.99743207638471,
,14,넌 고독해,4,Green,A,2.916666666666667,3.233333333333333,ScrollDown,ScrollUp,Green.png,5,Negative,Incongruent,,,,,0,0,0,0,,,,,,,,,,,,,,,,,,,,,,,,,,,,,0,13,13,13,,,,,,,,,,,,,,,,,,,,,,,,,,,,,,,,,,,,,,,,,,,,,,,,,,,,,,,,,,,,,,,,,1,1.1818390999687836,624.3733952000039,None,ScrollDown,정답입니다,624.3733952000039,None,624.3733952000039,None,624.3733952000039,None,624.3733952000039,None,625.4539815000026,None,625.4539815000026,625.9539773999713,,,,,,,,,,,,,,,,112,2023-04-06_14h13.27.436,FishGame,2022.1.1,59.99743207638471,
,15,넌 신경질적이야,5,Orange,B,2.375,2.233333333333333,ScrollUp,ScrollDown,Orange.png,5,Negative,Congruent,,,,,0,0,0,0,,,,,,,,,,,,,,,,,,,,,,,,,,,,,0,14,14,14,,,,,,,,,,,,,,,,,,,,,,,,,,,,,,,,,,,,,,,,,,,,,,,,,,,,,,,,,,,,,,,,,1.652777781089147,0.9000573999946937,626.5945763000054,None,ScrollUp,정답입니다,626.5945763000054,None,626.5945763000054,None,626.5945763000054,None,626.5945763000054,None,627.3706214999547,None,627.3706214999547,627.8705327999778,,,,,,,,,,,,,,,,112,2023-04-06_14h13.27.436,FishGame,2022.1.1,59.99743207638471,
,16,넌 똑똑해,2,Orange,B,5.666666666666667,3.966666666666667,ScrollUp,ScrollDown,Orange.png,5,Positive,Incongruent,,,,,0,0,0,0,,,,,,,,,,,,,,,,,,,,,,,,,,,,,0,15,15,15,,,,,,,,,,,,,,,,,,,,,,,,,,,,,,,,,,,,,,,,,,,,,,,,,,,,,,,,,,,,,,,,,1.8410493830839794,0.9166187000228092,628.4948064999189,None,ScrollUp,정답입니다,628.4948064999189,None,628.4948064999189,None,628.4948064999189,None,628.4948064999189,None,629.3017809999874,None,629.3017809999874,629.8038031999022,,,,,,,,,,,,,,,,112,2023-04-06_14h13.27.436,FishGame,2022.1.1,59.99743207638471,
,17,나를 보내줘,6,Green,A,0,0,ScrollUp,ScrollDown,Green.png,5,NonTarget,NonTarget,,,,,0,0,0,0,,,,,,,,,,,,,,,,,,,,,,,,,,,,,0,16,16,16,,,,,,,,,,,,,,,,,,,,,,,,,,,,,,,,,,,,,,,,,,,,,,,,,,,,,,,,,,,,,,,,,1.8688271592060726,1.283386200084351,630.4229458000045,None,ScrollUp,정답입니다,630.4229458000045,None,630.4229458000045,None,630.4229458000045,None,630.4229458000045,None,631.6039333998924,None,631.6039333998924,632.1038118998986,,,,,,,,,,,,,,,,112,2023-04-06_14h13.27.436,FishGame,2022.1.1,59.99743207638471,
,18,넌 협조적이야,1,Green,A,5.625,5.666666666666667,ScrollDown,ScrollUp,Green.png,5,Positive,Congruent,,,,,0,0,0,0,,,,,,,,,,,,,,,,,,,,,,,,,,,,,0,17,17,17,,,,,,,,,,,,,,,,,,,,,,,,,,,,,,,,,,,,,,,,,,,,,,,,,,,,,,,,,,,,,,,,,1.1049382785956066,0.8603595999302343,632.7242370999884,None,ScrollDown,정답입니다,632.7242370999884,None,632.7242370999884,None,632.7242370999884,None,632.7242370999884,None,633.480286099948,None,633.480286099948,633.9847835999681,,,,,,,,,,,,,,,,112,2023-04-06_14h13.27.436,FishGame,2022.1.1,59.99743207638471,
,19,나를 데려가줘,6,Orange,B,0,0,ScrollDown,ScrollUp,Orange.png,5,NonTarget,NonTarget,,,,,0,0,0,0,,,,,,,,,,,,,,,,,,,,,,,,,,,,,0,18,18,18,,,,,,,,,,,,,,,,,,,,,,,,,,,,,,,,,,,,,,,,,,,,,,,,,,,,,,,,,,,,,,,,,1.234567900498708,1.0655958000570536,634.6041547999484,None,ScrollDown,정답입니다,634.6041547999484,None,634.6041547999484,None,634.6041547999484,None,634.6041547999484,None,635.5681827999651,None,635.5681827999651,636.0681283999002,,,,,,,,,,,,,,,,112,2023-04-06_14h13.27.436,FishGame,2022.1.1,59.99743207638471,
,20,넌 몰인정해,5,Orange,B,2.541666666666667,2.066666666666667,ScrollUp,ScrollDown,Orange.png,5,Negative,Congruent,,,,,0,0,0,0,,,,,,,,,,,,,,,,,,,,,,,,,,,,,0,19,19,19,,,,,,,,,,,,,,,,,,,,,,,,,,,,,,,,,,,,,,,,,,,,,,,,,,,,,,,,,,,,,,,,,1.7962963034709294,0.8814995000138879,636.6959510999732,None,ScrollUp,정답입니다,636.6959510999732,None,636.6959510999732,None,636.6959510999732,None,636.6959510999732,None,637.4707209999906,None,637.4707209999906,637.9705062999856,,,,,,,,,,,,,,,,112,2023-04-06_14h13.27.436,FishGame,2022.1.1,59.99743207638471,
,21,나를 데려가줘,6,Orange,B,0,0,ScrollDown,ScrollUp,Orange.png,5,NonTarget,NonTarget,,,,,0,0,0,0,,,,,,,,,,,,,,,,,,,,,,,,,,,,,0,20,20,20,,,,,,,,,,,,,,,,,,,,,,,,,,,,,,,,,,,,,,,,,,,,,,,,,,,,,,,,,,,,,,,,,1.2206790000200272,0.8644951999885961,638.5927325999364,None,ScrollDown,정답입니다,638.5927325999364,None,638.5927325999364,None,638.5927325999364,None,638.5927325999364,None,639.3536532999715,None,639.3536532999715,639.8536358999554,,,,,,,,,,,,,,,,112,2023-04-06_14h13.27.436,FishGame,2022.1.1,59.99743207638471,
,22,넌 순진해,3,Orange,B,4.125,4.166666666666667,ScrollUp,ScrollDown,Orange.png,5,Neutral,Neutral,,,,,0,0,0,0,,,,,,,,,,,,,,,,,,,,,,,,,,,,,0,21,21,21,,,,,,,,,,,,,,,,,,,,,,,,,,,,,,,,,,,,,,,,,,,,,,,,,,,,,,,,,,,,,,,,,1.8086419651905696,1.1831285000080243,640.4814425999066,None,ScrollUp,정답입니다,640.4814425999066,None,640.4814425999066,None,640.4814425999066,None,640.4814425999066,None,641.5536849999335,None,641.5536849999335,642.053583299974,,,,,,,,,,,,,,,,112,2023-04-06_14h13.27.436,FishGame,2022.1.1,59.99743207638471,
