name,TrialNum,Word,WordCategory,FishType,WordList,WordValence,WordReputation,CorrectResp,IncorrectResp,FishTypeFile,Round,WordType,Condition,LoopforOrange.thisRepN,LoopforOrange.thisTrialN,LoopforOrange.thisN,LoopforOrange.thisIndex,OrangeInstLoop.thisRepN,OrangeInstLoop.thisTrialN,OrangeInstLoop.thisN,OrangeInstLoop.thisIndex,OrangePrac.thisRepN,OrangePrac.thisTrialN,OrangePrac.thisN,OrangePrac.thisIndex,temp1.thisRepN,temp1.thisTrialN,temp1.thisN,temp1.thisIndex,OrangeRound1.thisRepN,OrangeRound1.thisTrialN,OrangeRound1.thisN,OrangeRound1.thisIndex,OrangeRound2.thisRepN,OrangeRound2.thisTrialN,OrangeRound2.thisN,OrangeRound2.thisIndex,OrangeRound3.thisRepN,OrangeRound3.thisTrialN,OrangeRound3.thisN,OrangeRound3.thisIndex,OrangeRound4.thisRepN,OrangeRound4.thisTrialN,OrangeRound4.thisN,OrangeRound4.thisIndex,OrangeRound5.thisRepN,OrangeRound5.thisTrialN,OrangeRound5.thisN,OrangeRound5.thisIndex,LoopForGreen.thisRepN,LoopForGreen.thisTrialN,LoopForGreen.thisN,LoopForGreen.thisIndex,text_2.started,text_2.stopped,text_3.started,text_3.stopped,key_resp.keys,key_resp.rt,key_resp.started,key_resp.stopped,PassI_2.started,PassI_2.stopped,PassInst_2.keys,PassInst_2.rt,PassInst_2.started,PassInst_2.stopped,mouse_2.x,mouse_2.y,mouse_2.leftButton,mouse_2.midButton,mouse_2.rightButton,mouse_2.started,mouse_2.stopped,image.started,image.stopped,text_5.started,text_5.stopped,text_6.started,text_6.stopped,text_7.started,text_7.stopped,text_8.started,text_8.stopped,slider_2.response,slider_2.rt,slider_2.started,slider_2.stopped,Response_2,Feedback_2,BackGround_2.started,BackGround_2.stopped,Fish_2.started,Fish_2.stopped,WordBox_2.started,WordBox_2.stopped,Words_2.started,Words_2.stopped,BackGround_Feedback_2.started,BackGround_Feedback_2.stopped,Feedbacks_2.started,Feedbacks_2.stopped,Continue_or_not.keys,Continue_or_not.rt,Continue_or_not.started,Continue_or_not.stopped,image_3.started,image_3.stopped,mouse_3.x,mouse_3.y,mouse_3.leftButton,mouse_3.midButton,mouse_3.rightButton,mouse_3.started,mouse_3.stopped,startmain.started,startmain.stopped,slider.response,slider.rt,slider.started,slider.stopped,Response,Feedback,BackGround.started,BackGround.stopped,Fish.started,Fish.stopped,WordBox.started,WordBox.stopped,Words.started,Words.stopped,BackGround_Feedback.started,BackGround_Feedback.stopped,Feedbacks.started,Feedbacks.stopped,text.started,text.stopped,break_interval.started,break_interval.stopped,mouse.x,mouse.y,mouse.leftButton,mouse.midButton,mouse.rightButton,mouse.started,mouse.stopped,stratnextround.started,stratnextround.stopped,endgame.started,endgame.stopped,participant,date,expName,psychopyVersion,frameRate,
,,,,,,,,,,,,,,,,,,,,,,,,,,,,,,,,,,,,,,,,,,,,,,,,,,,,,,17.568564499961212,None,17.568564499961212,None,space,1.402748699998483,18.061869699973613,None,,,,,,,,,,,,,,,,,,,,,,,,,,,,,,,,,,,,,,,,,,,,,,,,,,,,,,,,,,,,,,,,,,,,,,,,,,,,,,,,,,,,,,,,,,201,2023-03-27_13h21.35.129,FishGame,2022.1.1,60.03528874584766,
물고기과제_instruction(참가자용)OrangeVersion.mp4,,,,,,,,,,,,,,0,0,0,0,0,0,0,0,,,,,,,,,,,,,,,,,,,,,,,,,,,,,,,,,,,,,,,,,91.78933549998328,None,n,2.8764027000870556,91.78933549998328,None,,,,,,,,,,,,,,,,,,,,,,,,,,,,,,,,,,,,,,,,,,,,,,,,,,,,,,,,,,,,,,,,,,,,,,,,,,,,,,,,,,,,201,2023-03-27_13h21.35.129,FishGame,2022.1.1,60.03528874584766,
,1,넌 교활해,5,Green,B,2.333333333333333,2.133333333333333,ScrollUp,ScrollDown,Green.png,practice,,,0,0,0,0,,,,,0,0,0,0,0,0,0,0,,,,,,,,,,,,,,,,,,,,,,,,,,,,,,,,,,,,,,,0.02037037,-0.23518519,1,0,0,0.5110915000550449,None,94.6891689999029,None,101.13607929996215,102.63612959999591,102.66944599989802,103.62257889984176,103.65591760003008,104.60589040000923,104.60589040000923,None,2,2.3215115999337286,105.89726019999944,None,ScrollUp,정답입니다,105.89726019999944,None,105.89726019999944,None,105.89726019999944,None,105.89726019999944,None,107.91958649992011,None,107.91958649992011,108.42218689993024,,,,,,,,,,,,,,,,,,,,,,,,,,,,,,,,,,,,,,,,,,,,,,,,,201,2023-03-27_13h21.35.129,FishGame,2022.1.1,60.03528874584766,
,2,넌 슬기로워,2,Orange,A,6.166666666666667,4.1,ScrollDown,ScrollUp,Orange.png,practice,,,0,0,0,0,,,,,0,0,0,0,0,1,1,1,,,,,,,,,,,,,,,,,,,,,,,,,,,,,,,,,,,,,,,,,,,,,,,,,,,,,,,,1.1728395173947017,0.998064799932763,109.04333609994501,None,ScrollDown,정답입니다,109.04333609994501,None,109.04333609994501,None,109.04333609994501,None,109.04333609994501,None,109.93886029999703,None,109.93886029999703,110.43887369986624,,,,,,,,,,,,,,,,,,,,,,,,,,,,,,,,,,,,,,,,,,,,,,,,,201,2023-03-27_13h21.35.129,FishGame,2022.1.1,60.03528874584766,
,3,나를 보내줘,6,Orange,A,0,0,ScrollUp,ScrollDown,Orange.png,practice,,,0,0,0,0,,,,,0,0,0,0,0,2,2,2,,,,,,,,,,,,,,,,,,,,,,,,,,,,,,,,,,,,,,,,,,,,,,,,,,,,,,,,1.7623456716537476,1.1808742999564856,111.06143780006096,None,ScrollUp,정답입니다,111.06143780006096,None,111.06143780006096,None,111.06143780006096,None,111.06143780006096,None,112.13620549999177,None,112.13620549999177,112.63584230002016,,,,,,,,,,,,,,,,,,,,,,,,,,,,,,,,,,,,,,,,,,,,,,,,,201,2023-03-27_13h21.35.129,FishGame,2022.1.1,60.03528874584766,
,4,나를 데려가줘,6,Green,B,0,0,ScrollDown,ScrollUp,Green.png,practice,,,0,0,0,0,,,,,0,0,0,0,0,3,3,3,,,,,,,,,,,,,,,,,,,,,,,,,,,,,,,,,,,,,,,,,,,,,,,,,,,,,,,,1.1790123482545216,1.17936069983989,113.25920269987546,None,ScrollDown,정답입니다,113.25920269987546,None,113.25920269987546,None,113.25920269987546,None,113.25920269987546,None,114.33585419994779,None,114.33585419994779,114.83588889986277,,,,,,,,,,,,,,,,,,,,,,,,,,,,,,,,,,,,,,,,,,,,,,,,,201,2023-03-27_13h21.35.129,FishGame,2022.1.1,60.03528874584766,
,1,넌 교활해,5,Green,B,2.333333333333333,2.133333333333333,ScrollUp,ScrollDown,Green.png,practice,,,0,0,0,0,,,,,0,0,0,0,,,,,,,,,,,,,,,,,,,,,,,,,,,,,,,,,,,,,,,,,,,,,,,,,,,,,,,,,,,,,,,,,,,,,,,,,,,,,,n,4.1375950002111495,115.33886939985678,None,115.33886939985678,None,,,,,,,,,,,,,,,,,,,,,,,,,,,,,,,,,,,,,,,,,,,201,2023-03-27_13h21.35.129,FishGame,2022.1.1,60.03528874584766,
,1,넌 따뜻해,1,Green,B,6.083333333333333,5.6,ScrollUp,ScrollDown,Green.png,1,Positive,Incongruent,0,0,0,0,,,,,,,,,,,,,0,0,0,0,,,,,,,,,,,,,,,,,,,,,,,,,,,,,,,,,,,,,,,,,,,,122.6394698000513,124.14297789987177,124.1600705999881,125.12202219991013,125.17198099987581,126.12204769998789,126.12204769998789,None,,,,,,,,,,,,,,,,,,,,,,,,,0.02037037,-0.12314815,1,0,0,0.3146147998049855,None,119.50247259996831,None,1.6697530845801034,1.5505839998368174,127.40679879998788,None,ScrollUp,정답입니다,127.40679879998788,None,127.40679879998788,None,127.40679879998788,None,127.40679879998788,None,128.65248179994524,None,128.65248179994524,129.152465299936,,,,,,,,,,,,,,,,201,2023-03-27_13h21.35.129,FishGame,2022.1.1,60.03528874584766,
,2,넌 기품있어,2,Green,B,5.791666666666668,4.5,ScrollUp,ScrollDown,Green.png,1,Positive,Incongruent,0,0,0,0,,,,,,,,,,,,,0,1,1,1,,,,,,,,,,,,,,,,,,,,,,,,,,,,,,,,,,,,,,,,,,,,,,,,,,,,,,,,,,,,,,,,,,,,,,,,,,,,,,,,,,,,,1.7962963034709294,1.1000385999213904,129.77995159989223,None,ScrollUp,정답입니다,129.77995159989223,None,129.77995159989223,None,129.77995159989223,None,129.77995159989223,None,130.7718149998691,None,130.7718149998691,131.26911629992537,,,,,,,,,,,,,,,,201,2023-03-27_13h21.35.129,FishGame,2022.1.1,60.03528874584766,
,3,나를 보내줘,6,Orange,A,0,0,ScrollUp,ScrollDown,Orange.png,1,NonTarget,NonTarget,0,0,0,0,,,,,,,,,,,,,0,2,2,2,,,,,,,,,,,,,,,,,,,,,,,,,,,,,,,,,,,,,,,,,,,,,,,,,,,,,,,,,,,,,,,,,,,,,,,,,,,,,,,,,,,,,2,1.164757400052622,131.90038320003077,None,ScrollUp,정답입니다,131.90038320003077,None,131.90038320003077,None,131.90038320003077,None,131.90038320003077,None,132.95506919990294,None,132.95506919990294,133.45506299985573,,,,,,,,,,,,,,,,201,2023-03-27_13h21.35.129,FishGame,2022.1.1,60.03528874584766,
,4,넌 수동적이야,4,Orange,A,2.833333333333333,2.933333333333333,ScrollDown,ScrollUp,Orange.png,1,Negative,Incongruent,0,0,0,0,,,,,,,,,,,,,0,3,3,3,,,,,,,,,,,,,,,,,,,,,,,,,,,,,,,,,,,,,,,,,,,,,,,,,,,,,,,,,,,,,,,,,,,,,,,,,,,,,,,,,,,,,1.0447530845801036,1.0246524999383837,134.09988290001638,None,ScrollDown,정답입니다,134.09988290001638,None,134.09988290001638,None,134.09988290001638,None,134.09988290001638,None,135.0020971999038,None,135.0020971999038,135.50213099992834,,,,,,,,,,,,,,,,201,2023-03-27_13h21.35.129,FishGame,2022.1.1,60.03528874584766,
,5,넌 사심이 없어,3,Green,B,4.916666666666666,4.333333333333333,ScrollUp,ScrollDown,Green.png,1,Neutral,Neutral,0,0,0,0,,,,,,,,,,,,,0,4,4,4,,,,,,,,,,,,,,,,,,,,,,,,,,,,,,,,,,,,,,,,,,,,,,,,,,,,,,,,,,,,,,,,,,,,,,,,,,,,,,,,,,,,,1.7962963034709294,1.0317192999646068,136.12570560001768,None,ScrollUp,정답입니다,136.12570560001768,None,136.12570560001768,None,136.12570560001768,None,136.12570560001768,None,137.05524210003205,None,137.05524210003205,137.5549985000398,,,,,,,,,,,,,,,,201,2023-03-27_13h21.35.129,FishGame,2022.1.1,60.03528874584766,
,6,넌 헤퍼,5,Orange,A,2.458333333333334,2.233333333333333,ScrollDown,ScrollUp,Orange.png,1,Negative,Incongruent,0,0,0,0,,,,,,,,,,,,,0,5,5,5,,,,,,,,,,,,,,,,,,,,,,,,,,,,,,,,,,,,,,,,,,,,,,,,,,,,,,,,,,,,,,,,,,,,,,,,,,,,,,,,,,,,,1.1342592686414719,0.9981867000460625,138.17964949994348,None,ScrollDown,정답입니다,138.17964949994348,None,138.17964949994348,None,138.17964949994348,None,138.17964949994348,None,139.06905049993657,None,139.06905049993657,139.57164509990253,,,,,,,,,,,,,,,,201,2023-03-27_13h21.35.129,FishGame,2022.1.1,60.03528874584766,
,7,넌 말쑥해,3,Orange,A,4.833333333333334,4.333333333333333,ScrollDown,ScrollUp,Orange.png,1,Neutral,Neutral,0,0,0,0,,,,,,,,,,,,,0,6,6,6,,,,,,,,,,,,,,,,,,,,,,,,,,,,,,,,,,,,,,,,,,,,,,,,,,,,,,,,,,,,,,,,,,,,,,,,,,,,,,,,,,,,,1.0308642089366913,0.9786106999963522,140.2036514999345,None,ScrollDown,정답입니다,140.2036514999345,None,140.2036514999345,None,140.2036514999345,None,140.2036514999345,None,141.071512500057,None,141.071512500057,141.5714946000371,,,,,,,,,,,,,,,,201,2023-03-27_13h21.35.129,FishGame,2022.1.1,60.03528874584766,
,8,넌 투덜거려,5,Green,B,2.541666666666667,2.266666666666667,ScrollUp,ScrollDown,Green.png,1,Negative,Congruent,0,0,0,0,,,,,,,,,,,,,0,7,7,7,,,,,,,,,,,,,,,,,,,,,,,,,,,,,,,,,,,,,,,,,,,,,,,,,,,,,,,,,,,,,,,,,,,,,,,,,,,,,,,,,,,,,1.6373456791043282,0.8800762000028044,142.19600760005414,None,ScrollUp,정답입니다,142.19600760005414,None,142.19600760005414,None,142.19600760005414,None,142.19600760005414,None,142.96869140001945,None,142.96869140001945,143.47148359986022,,,,,,,,,,,,,,,,201,2023-03-27_13h21.35.129,FishGame,2022.1.1,60.03528874584766,
,9,넌 적극적이야,1,Orange,A,5.708333333333333,5.533333333333333,ScrollDown,ScrollUp,Orange.png,1,Positive,Congruent,0,0,0,0,,,,,,,,,,,,,0,8,8,8,,,,,,,,,,,,,,,,,,,,,,,,,,,,,,,,,,,,,,,,,,,,,,,,,,,,,,,,,,,,,,,,,,,,,,,,,,,,,,,,,,,,,1.1373456716537476,0.8808436999097466,144.095297700027,None,ScrollDown,정답입니다,144.095297700027,None,144.095297700027,None,144.095297700027,None,144.095297700027,None,144.8688316999469,None,144.8688316999469,145.368826800026,,,,,,,,,,,,,,,,201,2023-03-27_13h21.35.129,FishGame,2022.1.1,60.03528874584766,
,10,넌 재미없어,4,Green,B,2.625,2.966666666666667,ScrollUp,ScrollDown,Green.png,1,Negative,Congruent,0,0,0,0,,,,,,,,,,,,,0,9,9,9,,,,,,,,,,,,,,,,,,,,,,,,,,,,,,,,,,,,,,,,,,,,,,,,,,,,,,,,,,,,,,,,,,,,,,,,,,,,,,,,,,,,,1.8148148208856583,0.8955457999836653,145.99425740004517,None,ScrollUp,정답입니다,145.99425740004517,None,145.99425740004517,None,145.99425740004517,None,145.99425740004517,None,146.7880950998515,None,146.7880950998515,147.28810320002958,,,,,,,,,,,,,,,,201,2023-03-27_13h21.35.129,FishGame,2022.1.1,60.03528874584766,
,11,넌 명석해,2,Orange,A,5.875,4.033333333333333,ScrollDown,ScrollUp,Orange.png,1,Positive,Congruent,0,0,0,0,,,,,,,,,,,,,0,10,10,10,,,,,,,,,,,,,,,,,,,,,,,,,,,,,,,,,,,,,,,,,,,,,,,,,,,,,,,,,,,,,,,,,,,,,,,,,,,,,,,,,,,,,1.0478395124276478,0.9149917999748141,147.9127356999088,None,ScrollDown,정답입니다,147.9127356999088,None,147.9127356999088,None,147.9127356999088,None,147.9127356999088,None,148.72135449992493,None,148.72135449992493,149.22135500004515,,,,,,,,,,,,,,,,201,2023-03-27_13h21.35.129,FishGame,2022.1.1,60.03528874584766,
,12,나를 데려가줘,6,Green,B,0,0,ScrollDown,ScrollUp,Green.png,1,NonTarget,NonTarget,0,0,0,0,,,,,,,,,,,,,0,11,11,11,,,,,,,,,,,,,,,,,,,,,,,,,,,,,,,,,,,,,,,,,,,,,,,,,,,,,,,,,,,,,,,,,,,,,,,,,,,,,,,,,,,,,1.0617283880710602,1.2026329999789596,149.84364279988222,None,ScrollDown,정답입니다,149.84364279988222,None,149.84364279988222,None,149.84364279988222,None,149.84364279988222,None,150.92904499988072,None,150.92904499988072,151.4380008999724,,,,,,,,,,,,,,,,201,2023-03-27_13h21.35.129,FishGame,2022.1.1,60.03528874584766,
,13,넌 소심해,4,Orange,A,3,3.1,ScrollDown,ScrollUp,Orange.png,1,Negative,Incongruent,0,0,0,0,,,,,,,,,,,,,0,12,12,12,,,,,,,,,,,,,,,,,,,,,,,,,,,,,,,,,,,,,,,,,,,,,,,,,,,,,,,,,,,,,,,,,,,,,,,,,,,,,,,,,,,,,1.0617283880710602,1.014900399837643,152.06116639985703,None,ScrollDown,정답입니다,152.06116639985703,None,152.06116639985703,None,152.06116639985703,None,152.06116639985703,None,152.9686900000088,None,152.9686900000088,153.47129480005242,,,,,,,,,,,,,,,,201,2023-03-27_13h21.35.129,FishGame,2022.1.1,60.03528874584766,
,14,넌 합리적이야,2,Orange,A,5.583333333333333,4.733333333333333,ScrollDown,ScrollUp,Orange.png,1,Positive,Congruent,0,0,0,0,,,,,,,,,,,,,0,13,13,13,,,,,,,,,,,,,,,,,,,,,,,,,,,,,,,,,,,,,,,,,,,,,,,,,,,,,,,,,,,,,,,,,,,,,,,,,,,,,,,,,,,,,1.0586419602235158,0.9314759999979287,154.09626859985292,None,ScrollDown,정답입니다,154.09626859985292,None,154.09626859985292,None,154.09626859985292,None,154.09626859985292,None,154.91866119997576,None,154.91866119997576,155.42128719994798,,,,,,,,,,,,,,,,201,2023-03-27_13h21.35.129,FishGame,2022.1.1,60.03528874584766,
,15,넌 무자비해,5,Green,B,2.333333333333333,2.1,ScrollUp,ScrollDown,Green.png,1,Negative,Congruent,0,0,0,0,,,,,,,,,,,,,0,14,14,14,,,,,,,,,,,,,,,,,,,,,,,,,,,,,,,,,,,,,,,,,,,,,,,,,,,,,,,,,,,,,,,,,,,,,,,,,,,,,,,,,,,,,1.6944444452722869,1.4452402999158949,156.0515423999168,None,ScrollUp,정답입니다,156.0515423999168,None,156.0515423999168,None,156.0515423999168,None,156.0515423999168,None,157.38498810003512,None,157.38498810003512,157.88503249990754,,,,,,,,,,,,,,,,201,2023-03-27_13h21.35.129,FishGame,2022.1.1,60.03528874584766,
,16,나를 보내줘,6,Orange,A,0,0,ScrollUp,ScrollDown,Orange.png,1,NonTarget,NonTarget,0,0,0,0,,,,,,,,,,,,,0,15,15,15,,,,,,,,,,,,,,,,,,,,,,,,,,,,,,,,,,,,,,,,,,,,,,,,,,,,,,,,,,,,,,,,,,,,,,,,,,,,,,,,,,,,,1.8719135870536168,1.1477157000917941,158.51171289989725,None,ScrollUp,정답입니다,158.51171289989725,None,158.51171289989725,None,158.51171289989725,None,158.51171289989725,None,159.55465269996785,None,159.55465269996785,160.0545606999658,,,,,,,,,,,,,,,,201,2023-03-27_13h21.35.129,FishGame,2022.1.1,60.03528874584766,
,17,넌 현실적이야,3,Green,B,4.608695652173913,4.766666666666667,ScrollUp,ScrollDown,Green.png,1,Neutral,Neutral,0,0,0,0,,,,,,,,,,,,,0,16,16,16,,,,,,,,,,,,,,,,,,,,,,,,,,,,,,,,,,,,,,,,,,,,,,,,,,,,,,,,,,,,,,,,,,,,,,,,,,,,,,,,,,,,,1.6898148159186044,1.0167676000855863,160.67847779998556,None,ScrollUp,정답입니다,160.67847779998556,None,160.67847779998556,None,160.67847779998556,None,160.67847779998556,None,161.58517639990896,None,161.58517639990896,162.08783350000158,,,,,,,,,,,,,,,,201,2023-03-27_13h21.35.129,FishGame,2022.1.1,60.03528874584766,
,18,넌 의리있어,1,Green,B,5.833333333333334,5.633333333333334,ScrollUp,ScrollDown,Green.png,1,Positive,Incongruent,0,0,0,0,,,,,,,,,,,,,0,17,17,17,,,,,,,,,,,,,,,,,,,,,,,,,,,,,,,,,,,,,,,,,,,,,,,,,,,,,,,,,,,,,,,,,,,,,,,,,,,,,,,,,,,,,1.8657407313585281,0.9409851999953389,162.71976409992203,None,ScrollUp,정답입니다,162.71976409992203,None,162.71976409992203,None,162.71976409992203,None,162.71976409992203,None,163.55148919997737,None,163.55148919997737,164.05175499990582,,,,,,,,,,,,,,,,201,2023-03-27_13h21.35.129,FishGame,2022.1.1,60.03528874584766,
,19,넌 신경과민이야,5,Orange,A,2.541666666666667,2.166666666666667,ScrollDown,ScrollUp,Orange.png,1,Negative,Incongruent,0,0,0,0,,,,,,,,,,,,,0,18,18,18,,,,,,,,,,,,,,,,,,,,,,,,,,,,,,,,,,,,,,,,,,,,,,,,,,,,,,,,,,,,,,,,,,,,,,,,,,,,,,,,,,,,,1.0262345671653748,0.8845901999156922,164.67912620003335,None,ScrollDown,정답입니다,164.67912620003335,None,164.67912620003335,None,164.67912620003335,None,164.67912620003335,None,165.45447569992393,None,165.45447569992393,165.97110800002702,,,,,,,,,,,,,,,,201,2023-03-27_13h21.35.129,FishGame,2022.1.1,60.03528874584766,
,20,넌 편안해,1,Orange,A,5.916666666666666,5.866666666666666,ScrollDown,ScrollUp,Orange.png,1,Positive,Congruent,0,0,0,0,,,,,,,,,,,,,0,19,19,19,,,,,,,,,,,,,,,,,,,,,,,,,,,,,,,,,,,,,,,,,,,,,,,,,,,,,,,,,,,,,,,,,,,,,,,,,,,,,,,,,,,,,1.194444437821706,0.8318370999768376,166.57917959988117,None,ScrollDown,정답입니다,166.57917959988117,None,166.57917959988117,None,166.57917959988117,None,166.57917959988117,None,167.30442639999092,None,167.30442639999092,167.80444990005344,,,,,,,,,,,,,,,,201,2023-03-27_13h21.35.129,FishGame,2022.1.1,60.03528874584766,
,21,넌 품위있어,2,Green,B,5.291666666666666,4.466666666666667,ScrollUp,ScrollDown,Green.png,1,Positive,Incongruent,0,0,0,0,,,,,,,,,,,,,0,20,20,20,,,,,,,,,,,,,,,,,,,,,,,,,,,,,,,,,,,,,,,,,,,,,,,,,,,,,,,,,,,,,,,,,,,,,,,,,,,,,,,,,,,,,1.7453703681627908,0.8806144001428038,168.42603900004178,None,ScrollUp,정답입니다,168.42603900004178,None,168.42603900004178,None,168.42603900004178,None,168.42603900004178,None,169.2016996999737,None,169.2016996999737,169.7042890000157,,,,,,,,,,,,,,,,201,2023-03-27_13h21.35.129,FishGame,2022.1.1,60.03528874584766,
,22,넌 빈틈없어,3,Orange,A,4.833333333333333,3.966666666666667,ScrollDown,ScrollUp,Orange.png,1,Neutral,Neutral,0,0,0,0,,,,,,,,,,,,,0,21,21,21,,,,,,,,,,,,,,,,,,,,,,,,,,,,,,,,,,,,,,,,,,,,,,,,,,,,,,,,,,,,,,,,,,,,,,,,,,,,,,,,,,,,,1.1250000099341075,0.9165950000751764,170.3290700998623,None,ScrollDown,정답입니다,170.3290700998623,None,170.3290700998623,None,170.3290700998623,None,170.3290700998623,None,171.1349404999055,None,171.1349404999055,171.63759199995548,,,,,,,,,,,,,,,,201,2023-03-27_13h21.35.129,FishGame,2022.1.1,60.03528874584766,
,23,넌 상상력없어,4,Green,B,2.833333333333333,3.133333333333333,ScrollUp,ScrollDown,Green.png,1,Negative,Congruent,0,0,0,0,,,,,,,,,,,,,0,22,22,22,,,,,,,,,,,,,,,,,,,,,,,,,,,,,,,,,,,,,,,,,,,,,,,,,,,,,,,,,,,,,,,,,,,,,,,,,,,,,,,,,,,,,2,0.9329331999178976,172.26012740004808,None,ScrollUp,정답입니다,172.26012740004808,None,172.26012740004808,None,172.26012740004808,None,172.26012740004808,None,173.0875738998875,None,173.0875738998875,173.58757920004427,,,,,,,,,,,,,,,,201,2023-03-27_13h21.35.129,FishGame,2022.1.1,60.03528874584766,
,24,넌 지혜로워,2,Green,B,6.333333333333334,4.633333333333334,ScrollUp,ScrollDown,Green.png,1,Positive,Incongruent,0,0,0,0,,,,,,,,,,,,,0,23,23,23,,,,,,,,,,,,,,,,,,,,,,,,,,,,,,,,,,,,,,,,,,,,,,,,,,,,,,,,,,,,,,,,,,,,,,,,,,,,,,,,,,,,,1.9413580397764842,0.9314336001407355,174.2121852999553,None,ScrollUp,정답입니다,174.2121852999553,None,174.2121852999553,None,174.2121852999553,None,174.2121852999553,None,175.0349196998868,None,175.0349196998868,175.53754469985142,,,,,,,,,,,,,,,,201,2023-03-27_13h21.35.129,FishGame,2022.1.1,60.03528874584766,
,25,넌 시끄러워,4,Orange,A,2.833333333333333,3.033333333333333,ScrollDown,ScrollUp,Orange.png,1,Negative,Incongruent,0,0,0,0,,,,,,,,,,,,,0,24,24,24,,,,,,,,,,,,,,,,,,,,,,,,,,,,,,,,,,,,,,,,,,,,,,,,,,,,,,,,,,,,,,,,,,,,,,,,,,,,,,,,,,,,,1.0092592636744182,0.7998999999836087,176.1634489998687,None,ScrollDown,정답입니다,176.1634489998687,None,176.1634489998687,None,176.1634489998687,None,176.1634489998687,None,176.8541142998729,None,176.8541142998729,177.37076299986802,,,,,,,,,,,,,,,,201,2023-03-27_13h21.35.129,FishGame,2022.1.1,60.03528874584766,
,26,넌 만사태평이야,3,Green,B,4,4.333333333333333,ScrollUp,ScrollDown,Green.png,1,Neutral,Neutral,0,0,0,0,,,,,,,,,,,,,0,25,25,25,,,,,,,,,,,,,,,,,,,,,,,,,,,,,,,,,,,,,,,,,,,,,,,,,,,,,,,,,,,,,,,,,,,,,,,,,,,,,,,,,,,,,1.8950617214043934,0.8644821001216769,177.98084219987504,None,ScrollUp,정답입니다,177.98084219987504,None,177.98084219987504,None,177.98084219987504,None,177.98084219987504,None,178.7374682999216,None,178.7374682999216,179.23741659987718,,,,,,,,,,,,,,,,201,2023-03-27_13h21.35.129,FishGame,2022.1.1,60.03528874584766,
,27,넌 붙임성있어,1,Orange,A,5.708333333333333,5.633333333333334,ScrollDown,ScrollUp,Orange.png,1,Positive,Congruent,0,0,0,0,,,,,,,,,,,,,0,26,26,26,,,,,,,,,,,,,,,,,,,,,,,,,,,,,,,,,,,,,,,,,,,,,,,,,,,,,,,,,,,,,,,,,,,,,,,,,,,,,,,,,,,,,1,0.7649284000508487,179.86312790005468,None,ScrollDown,정답입니다,179.86312790005468,None,179.86312790005468,None,179.86312790005468,None,179.86312790005468,None,180.52073320001364,None,180.52073320001364,181.02071409998462,,,,,,,,,,,,,,,,201,2023-03-27_13h21.35.129,FishGame,2022.1.1,60.03528874584766,
,28,넌 영리해,2,Orange,A,6,4.033333333333333,ScrollDown,ScrollUp,Orange.png,1,Positive,Congruent,0,0,0,0,,,,,,,,,,,,,0,27,27,27,,,,,,,,,,,,,,,,,,,,,,,,,,,,,,,,,,,,,,,,,,,,,,,,,,,,,,,,,,,,,,,,,,,,,,,,,,,,,,,,,,,,,1,0.9474851000122726,181.64436919987202,None,ScrollDown,정답입니다,181.64436919987202,None,181.64436919987202,None,181.64436919987202,None,181.64436919987202,None,182.48738479986787,None,182.48738479986787,182.98738399986178,,,,,,,,,,,,,,,,201,2023-03-27_13h21.35.129,FishGame,2022.1.1,60.03528874584766,
,29,넌 열심이야,1,Green,B,6.041666666666667,5.833333333333333,ScrollUp,ScrollDown,Green.png,1,Positive,Incongruent,0,0,0,0,,,,,,,,,,,,,0,28,28,28,,,,,,,,,,,,,,,,,,,,,,,,,,,,,,,,,,,,,,,,,,,,,,,,,,,,,,,,,,,,,,,,,,,,,,,,,,,,,,,,,,,,,1.7777777860562007,0.7654344998300076,183.60938400006853,None,ScrollUp,정답입니다,183.60938400006853,None,183.60938400006853,None,183.60938400006853,None,183.60938400006853,None,184.27087759994902,None,184.27087759994902,184.78439270006493,,,,,,,,,,,,,,,,201,2023-03-27_13h21.35.129,FishGame,2022.1.1,60.03528874584766,
,30,넌 인기없어,4,Green,B,3,3.3,ScrollUp,ScrollDown,Green.png,1,Negative,Congruent,0,0,0,0,,,,,,,,,,,,,0,29,29,29,,,,,,,,,,,,,,,,,,,,,,,,,,,,,,,,,,,,,,,,,,,,,,,,,,,,,,,,,,,,,,,,,,,,,,,,,,,,,,,,,,,,,1.8904321044683456,0.7963543001096696,185.4099828999024,None,ScrollUp,정답입니다,185.4099828999024,None,185.4099828999024,None,185.4099828999024,None,185.4099828999024,None,186.10103709995747,None,186.10103709995747,186.60107879992574,,,,,,,,,,,,,,,,201,2023-03-27_13h21.35.129,FishGame,2022.1.1,60.03528874584766,
,31,넌 익살스러워,3,Orange,A,4.708333333333334,4.833333333333333,ScrollDown,ScrollUp,Orange.png,1,Neutral,Neutral,0,0,0,0,,,,,,,,,,,,,0,30,30,30,,,,,,,,,,,,,,,,,,,,,,,,,,,,,,,,,,,,,,,,,,,,,,,,,,,,,,,,,,,,,,,,,,,,,,,,,,,,,,,,,,,,,1.1450617164373398,0.8499928000383079,187.23087790003046,None,ScrollDown,정답입니다,187.23087790003046,None,187.23087790003046,None,187.23087790003046,None,187.23087790003046,None,187.97082179994322,None,187.97082179994322,188.47066059987992,,,,,,,,,,,,,,,,201,2023-03-27_13h21.35.129,FishGame,2022.1.1,60.03528874584766,
,32,넌 이기적이야,5,Green,B,2.291666666666667,2.333333333333333,ScrollUp,ScrollDown,Green.png,1,Negative,Congruent,0,0,0,0,,,,,,,,,,,,,0,31,31,31,,,,,,,,,,,,,,,,,,,,,,,,,,,,,,,,,,,,,,,,,,,,,,,,,,,,,,,,,,,,,,,,,,,,,,,,,,,,,,,,,,,,,1.560185187806686,0.7460394999943674,189.08991249999963,None,ScrollUp,정답입니다,189.08991249999963,None,189.08991249999963,None,189.08991249999963,None,189.08991249999963,None,189.73735919990577,None,189.73735919990577,190.23730579996482,,,,,,,,,,,,,,,,201,2023-03-27_13h21.35.129,FishGame,2022.1.1,60.03528874584766,
,33,나를 데려가줘,6,Green,B,0,0,ScrollDown,ScrollUp,Green.png,1,NonTarget,NonTarget,0,0,0,0,,,,,,,,,,,,,0,32,32,32,,,,,,,,,,,,,,,,,,,,,,,,,,,,,,,,,,,,,,,,,,,,,,,,,,,,,,,,,,,,,,,,,,,,,,,,,,,,,,,,,,,,,1,1.0481168001424521,190.871098899981,None,ScrollDown,정답입니다,190.871098899981,None,190.871098899981,None,190.871098899981,None,190.871098899981,None,191.8176096000243,None,191.8176096000243,192.31763629987836,,,,,,,,,,,,,,,,201,2023-03-27_13h21.35.129,FishGame,2022.1.1,60.03528874584766,
,34,넌 기회주의자야,5,Orange,A,2.875,2.133333333333333,ScrollDown,ScrollUp,Orange.png,1,Negative,Incongruent,0,0,0,0,,,,,,,,,,,,,0,33,33,33,,,,,,,,,,,,,,,,,,,,,,,,,,,,,,,,,,,,,,,,,,,,,,,,,,,,,,,,,,,,,,,,,,,,,,,,,,,,,,,,,,,,,1.0077160497506459,1.3199014000128955,192.94302450004034,None,ScrollDown,정답입니다,192.94302450004034,None,192.94302450004034,None,192.94302450004034,None,192.94302450004034,None,194.15123920002952,None,194.15123920002952,194.65387519984506,,,,,,,,,,,,,,,,201,2023-03-27_13h21.35.129,FishGame,2022.1.1,60.03528874584766,
,1,넌 미성숙해,4,Orange,A,3,3.2,ScrollDown,ScrollUp,Orange.png,2,Negative,Incongruent,0,0,0,0,,,,,,,,,,,,,,,,,0,0,0,0,,,,,,,,,,,,,,,,,,,,,,,,,,,,,,,,,,,,,,,,233.6337766998913,235.13343669986352,235.16688119992614,236.119898899924,236.16990899993107,237.11988750007004,237.11988750007004,None,,,,,,,,,,,,,,,,,,,,,,,,,,,,,,,,,,1,1.0501511001493782,238.209650099976,None,ScrollDown,정답입니다,238.209650099976,None,238.209650099976,None,238.209650099976,None,238.209650099976,None,239.15292080002837,None,239.15292080002837,239.65286549995653,195.15389139996842,None,195.15389139996842,None,0.25092593,-0.098148145,1,0,0,0.01610659994184971,None,225.15319760004058,None,,,201,2023-03-27_13h21.35.129,FishGame,2022.1.1,60.03528874584766,
,2,넌 반사회적이야,5,Green,B,2.416666666666667,2.033333333333333,ScrollUp,ScrollDown,Green.png,2,Negative,Congruent,0,0,0,0,,,,,,,,,,,,,,,,,0,1,1,1,,,,,,,,,,,,,,,,,,,,,,,,,,,,,,,,,,,,,,,,,,,,,,,,,,,,,,,,,,,,,,,,,,,,,,,,,,,,,,,,,1.8024691343307495,0.9811230001505464,240.27484219986945,None,ScrollUp,정답입니다,240.27484219986945,None,240.27484219986945,None,240.27484219986945,None,240.27484219986945,None,241.15026629995555,None,241.15026629995555,241.6528727998957,,,,,,,,,,,,,,,,201,2023-03-27_13h21.35.129,FishGame,2022.1.1,60.03528874584766,
,3,넌 유능해,2,Orange,A,6.208333333333333,4.433333333333334,ScrollDown,ScrollUp,Orange.png,2,Positive,Congruent,0,0,0,0,,,,,,,,,,,,,,,,,0,2,2,2,,,,,,,,,,,,,,,,,,,,,,,,,,,,,,,,,,,,,,,,,,,,,,,,,,,,,,,,,,,,,,,,,,,,,,,,,,,,,,,,,1.1250000099341075,0.7307337000966072,242.27788900001906,None,ScrollDown,정답입니다,242.27788900001906,None,242.27788900001906,None,242.27788900001906,None,242.27788900001906,None,242.90020080003887,None,242.90020080003887,243.40286739985459,,,,,,,,,,,,,,,,201,2023-03-27_13h21.35.129,FishGame,2022.1.1,60.03528874584766,
,4,넌 능숙해,2,Green,B,5.666666666666667,4.733333333333333,ScrollUp,ScrollDown,Green.png,2,Positive,Incongruent,0,0,0,0,,,,,,,,,,,,,,,,,0,3,3,3,,,,,,,,,,,,,,,,,,,,,,,,,,,,,,,,,,,,,,,,,,,,,,,,,,,,,,,,,,,,,,,,,,,,,,,,,,,,,,,,,1.6003086442748704,1.2159993001259863,244.01627140003256,None,ScrollUp,정답입니다,244.01627140003256,None,244.01627140003256,None,244.01627140003256,None,244.01627140003256,None,245.1331879000645,None,245.1331879000645,245.63322720001452,,,,,,,,,,,,,,,,201,2023-03-27_13h21.35.129,FishGame,2022.1.1,60.03528874584766,
,5,넌 진부해,4,Green,B,2.458333333333333,3.166666666666667,ScrollUp,ScrollDown,Green.png,2,Negative,Congruent,0,0,0,0,,,,,,,,,,,,,,,,,0,4,4,4,,,,,,,,,,,,,,,,,,,,,,,,,,,,,,,,,,,,,,,,,,,,,,,,,,,,,,,,,,,,,,,,,,,,,,,,,,,,,,,,,1.9614197711149852,1.0306307999417186,246.26412559999153,None,ScrollUp,정답입니다,246.26412559999153,None,246.26412559999153,None,246.26412559999153,None,246.26412559999153,None,247.18350389995612,None,247.18350389995612,247.6861977998633,,,,,,,,,,,,,,,,201,2023-03-27_13h21.35.129,FishGame,2022.1.1,60.03528874584766,
,6,나를 보내줘,6,Orange,A,0,0,ScrollUp,ScrollDown,Orange.png,2,NonTarget,NonTarget,0,0,0,0,,,,,,,,,,,,,,,,,0,5,5,5,,,,,,,,,,,,,,,,,,,,,,,,,,,,,,,,,,,,,,,,,,,,,,,,,,,,,,,,,,,,,,,,,,,,,,,,,,,,,,,,,1.9629629850387573,1.1638935999944806,248.3074974999763,None,ScrollUp,정답입니다,248.3074974999763,None,248.3074974999763,None,248.3074974999763,None,248.3074974999763,None,249.36942319991067,None,249.36942319991067,249.8667866999749,,,,,,,,,,,,,,,,201,2023-03-27_13h21.35.129,FishGame,2022.1.1,60.03528874584766,
,7,넌 엄격해,3,Orange,A,4.166666666666666,4.1,ScrollDown,ScrollUp,Orange.png,2,Neutral,Neutral,0,0,0,0,,,,,,,,,,,,,,,,,0,6,6,6,,,,,,,,,,,,,,,,,,,,,,,,,,,,,,,,,,,,,,,,,,,,,,,,,,,,,,,,,,,,,,,,,,,,,,,,,,,,,,,,,1.0339506367842357,0.9651363000739366,250.50504580000415,None,ScrollDown,정답입니다,250.50504580000415,None,250.50504580000415,None,250.50504580000415,None,250.50504580000415,None,251.36637629987672,None,251.36637629987672,251.86637419997714,,,,,,,,,,,,,,,,201,2023-03-27_13h21.35.129,FishGame,2022.1.1,60.03528874584766,
,8,나를 보내줘,6,Orange,A,0,0,ScrollUp,ScrollDown,Orange.png,2,NonTarget,NonTarget,0,0,0,0,,,,,,,,,,,,,,,,,0,7,7,7,,,,,,,,,,,,,,,,,,,,,,,,,,,,,,,,,,,,,,,,,,,,,,,,,,,,,,,,,,,,,,,,,,,,,,,,,,,,,,,,,1.9706790049870808,1.103041399968788,252.4874322998803,None,ScrollUp,정답입니다,252.4874322998803,None,252.4874322998803,None,252.4874322998803,None,252.4874322998803,None,253.48610370000824,None,253.48610370000824,253.98599519999698,,,,,,,,,,,,,,,,201,2023-03-27_13h21.35.129,FishGame,2022.1.1,60.03528874584766,
,9,넌 대담해,3,Green,B,4.875,4.866666666666666,ScrollUp,ScrollDown,Green.png,2,Neutral,Neutral,0,0,0,0,,,,,,,,,,,,,,,,,0,8,8,8,,,,,,,,,,,,,,,,,,,,,,,,,,,,,,,,,,,,,,,,,,,,,,,,,,,,,,,,,,,,,,,,,,,,,,,,,,,,,,,,,1.7453703681627908,0.9641368999145925,254.60883909999393,None,ScrollUp,정답입니다,254.60883909999393,None,254.60883909999393,None,254.60883909999393,None,254.60883909999393,None,255.4693064999301,None,255.4693064999301,255.96928049996495,,,,,,,,,,,,,,,,201,2023-03-27_13h21.35.129,FishGame,2022.1.1,60.03528874584766,
,10,넌 꾸준해,1,Orange,A,5.916666666666668,5.8,ScrollDown,ScrollUp,Orange.png,2,Positive,Congruent,0,0,0,0,,,,,,,,,,,,,,,,,0,9,9,9,,,,,,,,,,,,,,,,,,,,,,,,,,,,,,,,,,,,,,,,,,,,,,,,,,,,,,,,,,,,,,,,,,,,,,,,,,,,,,,,,1.0447530845801036,0.9980093000922352,256.60696100001223,None,ScrollDown,정답입니다,256.60696100001223,None,256.60696100001223,None,256.60696100001223,None,256.60696100001223,None,257.4996009999886,None,257.4996009999886,257.9995852999855,,,,,,,,,,,,,,,,201,2023-03-27_13h21.35.129,FishGame,2022.1.1,60.03528874584766,
,11,나를 데려가줘,6,Green,B,0,0,ScrollDown,ScrollUp,Green.png,2,NonTarget,NonTarget,0,0,0,0,,,,,,,,,,,,,,,,,0,10,10,10,,,,,,,,,,,,,,,,,,,,,,,,,,,,,,,,,,,,,,,,,,,,,,,,,,,,,,,,,,,,,,,,,,,,,,,,,,,,,,,,,1,0.9839894999749959,258.62357689999044,None,ScrollDown,정답입니다,258.62357689999044,None,258.62357689999044,None,258.62357689999044,None,258.62357689999044,None,259.5026070000604,None,259.5026070000604,260.0025436000433,,,,,,,,,,,,,,,,201,2023-03-27_13h21.35.129,FishGame,2022.1.1,60.03528874584766,
,12,넌 독선적이야,5,Orange,A,2.458333333333333,1.933333333333333,ScrollDown,ScrollUp,Orange.png,2,Negative,Incongruent,0,0,0,0,,,,,,,,,,,,,,,,,0,11,11,11,,,,,,,,,,,,,,,,,,,,,,,,,,,,,,,,,,,,,,,,,,,,,,,,,,,,,,,,,,,,,,,,,,,,,,,,,,,,,,,,,1,0.9830787999089807,260.6280934000388,None,ScrollDown,정답입니다,260.6280934000388,None,260.6280934000388,None,260.6280934000388,None,260.6280934000388,None,261.49984669988044,None,261.49984669988044,262.00255870004185,,,,,,,,,,,,,,,,201,2023-03-27_13h21.35.129,FishGame,2022.1.1,60.03528874584766,
,13,나를 보내줘,6,Orange,A,0,0,ScrollUp,ScrollDown,Orange.png,2,NonTarget,NonTarget,0,0,0,0,,,,,,,,,,,,,,,,,0,12,12,12,,,,,,,,,,,,,,,,,,,,,,,,,,,,,,,,,,,,,,,,,,,,,,,,,,,,,,,,,,,,,,,,,,,,,,,,,,,,,,,,,1.9151234527428944,0.9630499000195414,262.62025050004013,None,ScrollUp,정답입니다,262.62025050004013,None,262.62025050004013,None,262.62025050004013,None,262.62025050004013,None,263.48281369986944,None,263.48281369986944,263.98279589996673,,,,,,,,,,,,,,,,201,2023-03-27_13h21.35.129,FishGame,2022.1.1,60.03528874584766,
,14,넌 책임감있어,1,Green,B,6.347826086956522,6,ScrollUp,ScrollDown,Green.png,2,Positive,Incongruent,0,0,0,0,,,,,,,,,,,,,,,,,0,13,13,13,,,,,,,,,,,,,,,,,,,,,,,,,,,,,,,,,,,,,,,,,,,,,,,,,,,,,,,,,,,,,,,,,,,,,,,,,,,,,,,,,1.9166666666666667,1.0675699000712484,264.6055449999403,None,ScrollUp,정답입니다,264.6055449999403,None,264.6055449999403,None,264.6055449999403,None,264.6055449999403,None,265.56916439998895,None,265.56916439998895,266.069093399914,,,,,,,,,,,,,,,,201,2023-03-27_13h21.35.129,FishGame,2022.1.1,60.03528874584766,
,15,넌 문학적이야,3,Orange,A,4.708333333333334,4.333333333333333,ScrollDown,ScrollUp,Orange.png,2,Neutral,Neutral,0,0,0,0,,,,,,,,,,,,,,,,,0,14,14,14,,,,,,,,,,,,,,,,,,,,,,,,,,,,,,,,,,,,,,,,,,,,,,,,,,,,,,,,,,,,,,,,,,,,,,,,,,,,,,,,,1.0370370149612427,0.9641332000028342,266.6991464998573,None,ScrollDown,정답입니다,266.6991464998573,None,266.6991464998573,None,266.6991464998573,None,266.6991464998573,None,267.5524285000283,None,267.5524285000283,268.0524051999673,,,,,,,,,,,,,,,,201,2023-03-27_13h21.35.129,FishGame,2022.1.1,60.03528874584766,
,16,넌 재미있어,1,Green,B,5.875,5.7,ScrollUp,ScrollDown,Green.png,2,Positive,Incongruent,0,0,0,0,,,,,,,,,,,,,,,,,0,15,15,15,,,,,,,,,,,,,,,,,,,,,,,,,,,,,,,,,,,,,,,,,,,,,,,,,,,,,,,,,,,,,,,,,,,,,,,,,,,,,,,,,1.9212963084379833,0.9316402000840753,268.6868056000676,None,ScrollUp,정답입니다,268.6868056000676,None,268.6868056000676,None,268.6868056000676,None,268.6868056000676,None,269.5160091998987,None,269.5160091998987,270.01603160006925,,,,,,,,,,,,,,,,201,2023-03-27_13h21.35.129,FishGame,2022.1.1,60.03528874584766,
,17,나를 데려가줘,6,Green,B,0,0,ScrollDown,ScrollUp,Green.png,2,NonTarget,NonTarget,0,0,0,0,,,,,,,,,,,,,,,,,0,16,16,16,,,,,,,,,,,,,,,,,,,,,,,,,,,,,,,,,,,,,,,,,,,,,,,,,,,,,,,,,,,,,,,,,,,,,,,,,,,,,,,,,1,1.1491928999312222,270.63974819984287,None,ScrollDown,정답입니다,270.63974819984287,None,270.63974819984287,None,270.63974819984287,None,270.63974819984287,None,271.6857840998564,None,271.6857840998564,272.1856751998421,,,,,,,,,,,,,,,,201,2023-03-27_13h21.35.129,FishGame,2022.1.1,60.03528874584766,
,18,넌 협력적이야,1,Orange,A,5.625,5.633333333333334,ScrollDown,ScrollUp,Orange.png,2,Positive,Congruent,0,0,0,0,,,,,,,,,,,,,,,,,0,17,17,17,,,,,,,,,,,,,,,,,,,,,,,,,,,,,,,,,,,,,,,,,,,,,,,,,,,,,,,,,,,,,,,,,,,,,,,,,,,,,,,,,1.1373456716537476,0.9140043999068439,272.82055859989487,None,ScrollDown,정답입니다,272.82055859989487,None,272.82055859989487,None,272.82055859989487,None,272.82055859989487,None,273.61895389994606,None,273.61895389994606,274.1189283998683,,,,,,,,,,,,,,,,201,2023-03-27_13h21.35.129,FishGame,2022.1.1,60.03528874584766,
,19,넌 평범해,3,Green,B,4.333333333333332,4.233333333333333,ScrollUp,ScrollDown,Green.png,2,Neutral,Neutral,0,0,0,0,,,,,,,,,,,,,,,,,0,18,18,18,,,,,,,,,,,,,,,,,,,,,,,,,,,,,,,,,,,,,,,,,,,,,,,,,,,,,,,,,,,,,,,,,,,,,,,,,,,,,,,,,2,0.8313605999574065,274.753799200058,None,ScrollUp,정답입니다,274.753799200058,None,274.753799200058,None,274.753799200058,None,274.753799200058,None,275.48256609984674,None,275.48256609984674,275.9825555998832,,,,,,,,,,,,,,,,201,2023-03-27_13h21.35.129,FishGame,2022.1.1,60.03528874584766,
,20,넌 오만해,5,Orange,A,2.333333333333333,2,ScrollDown,ScrollUp,Orange.png,2,Negative,Incongruent,0,0,0,0,,,,,,,,,,,,,,,,,0,19,19,19,,,,,,,,,,,,,,,,,,,,,,,,,,,,,,,,,,,,,,,,,,,,,,,,,,,,,,,,,,,,,,,,,,,,,,,,,,,,,,,,,1.2098765522241592,0.8362470001447946,276.6062799000647,None,ScrollDown,정답입니다,276.6062799000647,None,276.6062799000647,None,276.6062799000647,None,276.6062799000647,None,277.33570769988,None,277.33570769988,277.8355350999627,,,,,,,,,,,,,,,,201,2023-03-27_13h21.35.129,FishGame,2022.1.1,60.03528874584766,
,21,넌 운이없어,4,Green,B,3,3.466666666666667,ScrollUp,ScrollDown,Green.png,2,Negative,Congruent,0,0,0,0,,,,,,,,,,,,,,,,,0,20,20,20,,,,,,,,,,,,,,,,,,,,,,,,,,,,,,,,,,,,,,,,,,,,,,,,,,,,,,,,,,,,,,,,,,,,,,,,,,,,,,,,,2,0.7955251999665052,278.45737239997834,None,ScrollUp,정답입니다,278.45737239997834,None,278.45737239997834,None,278.45737239997834,None,278.45737239997834,None,279.152117599966,None,279.152117599966,279.65213479986414,,,,,,,,,,,,,,,,201,2023-03-27_13h21.35.129,FishGame,2022.1.1,60.03528874584766,
,22,넌 창조적이야,2,Green,B,6.125,4.633333333333334,ScrollUp,ScrollDown,Green.png,2,Positive,Incongruent,0,0,0,0,,,,,,,,,,,,,,,,,0,21,21,21,,,,,,,,,,,,,,,,,,,,,,,,,,,,,,,,,,,,,,,,,,,,,,,,,,,,,,,,,,,,,,,,,,,,,,,,,,,,,,,,,1.9243827362855275,0.8313403998035938,280.2816206999123,None,ScrollUp,정답입니다,280.2816206999123,None,280.2816206999123,None,280.2816206999123,None,280.2816206999123,None,281.0020143999718,None,281.0020143999718,281.5020377000328,,,,,,,,,,,,,,,,201,2023-03-27_13h21.35.129,FishGame,2022.1.1,60.03528874584766,
,23,나를 보내줘,6,Orange,A,0,0,ScrollUp,ScrollDown,Orange.png,2,NonTarget,NonTarget,0,0,0,0,,,,,,,,,,,,,,,,,0,22,22,22,,,,,,,,,,,,,,,,,,,,,,,,,,,,,,,,,,,,,,,,,,,,,,,,,,,,,,,,,,,,,,,,,,,,,,,,,,,,,,,,,2,1.0815544000361115,282.1226291998755,None,ScrollUp,정답입니다,282.1226291998755,None,282.1226291998755,None,282.1226291998755,None,282.1226291998755,None,283.09931459999643,None,283.09931459999643,283.60201979987323,,,,,,,,,,,,,,,,201,2023-03-27_13h21.35.129,FishGame,2022.1.1,60.03528874584766,
,24,넌 통찰력있어,2,Orange,A,6.5,4.8,ScrollDown,ScrollUp,Orange.png,2,Positive,Congruent,0,0,0,0,,,,,,,,,,,,,,,,,0,23,23,23,,,,,,,,,,,,,,,,,,,,,,,,,,,,,,,,,,,,,,,,,,,,,,,,,,,,,,,,,,,,,,,,,,,,,,,,,,,,,,,,,1,0.865038399817422,284.22710080002435,None,ScrollDown,정답입니다,284.22710080002435,None,284.22710080002435,None,284.22710080002435,None,284.22710080002435,None,284.9827145000454,None,284.9827145000454,285.4853254999034,,,,,,,,,,,,,,,,201,2023-03-27_13h21.35.129,FishGame,2022.1.1,60.03528874584766,
,25,넌 경솔해,5,Green,B,2.458333333333333,2.266666666666667,ScrollUp,ScrollDown,Green.png,2,Negative,Congruent,0,0,0,0,,,,,,,,,,,,,,,,,0,24,24,24,,,,,,,,,,,,,,,,,,,,,,,,,,,,,,,,,,,,,,,,,,,,,,,,,,,,,,,,,,,,,,,,,,,,,,,,,,,,,,,,,1.9444444676240284,0.8803456001915038,286.10646499996074,None,ScrollUp,정답입니다,286.10646499996074,None,286.10646499996074,None,286.10646499996074,None,286.10646499996074,None,286.8823666998651,None,286.8823666998651,287.38255360000767,,,,,,,,,,,,,,,,201,2023-03-27_13h21.35.129,FishGame,2022.1.1,60.03528874584766,
,26,넌 초조해,4,Orange,A,2.916666666666667,3.133333333333333,ScrollDown,ScrollUp,Orange.png,2,Negative,Incongruent,0,0,0,0,,,,,,,,,,,,,,,,,0,25,25,25,,,,,,,,,,,,,,,,,,,,,,,,,,,,,,,,,,,,,,,,,,,,,,,,,,,,,,,,,,,,,,,,,,,,,,,,,,,,,,,,,1.276234577099482,0.8664422000292689,288.0079594999552,None,ScrollDown,정답입니다,288.0079594999552,None,288.0079594999552,None,288.0079594999552,None,288.0079594999552,None,288.7656938000582,None,288.7656938000582,289.2686306000687,,,,,,,,,,,,,,,,201,2023-03-27_13h21.35.129,FishGame,2022.1.1,60.03528874584766,
,27,넌 무관심해,4,Green,B,2.833333333333333,2.9,ScrollUp,ScrollDown,Green.png,2,Negative,Congruent,0,0,0,0,,,,,,,,,,,,,,,,,0,26,26,26,,,,,,,,,,,,,,,,,,,,,,,,,,,,,,,,,,,,,,,,,,,,,,,,,,,,,,,,,,,,,,,,,,,,,,,,,,,,,,,,,1.9552469154198964,0.8168128998950124,289.890370399924,None,ScrollUp,정답입니다,289.890370399924,None,289.890370399924,None,289.890370399924,None,289.890370399924,None,290.59929149993695,None,290.59929149993695,291.101901399903,,,,,,,,,,,,,,,,201,2023-03-27_13h21.35.129,FishGame,2022.1.1,60.03528874584766,
,28,넌 감성적이야,3,Green,B,4.125,4.166666666666667,ScrollUp,ScrollDown,Green.png,2,Neutral,Neutral,0,0,0,0,,,,,,,,,,,,,,,,,0,27,27,27,,,,,,,,,,,,,,,,,,,,,,,,,,,,,,,,,,,,,,,,,,,,,,,,,,,,,,,,,,,,,,,,,,,,,,,,,,,,,,,,,1.9521604875723522,0.8665704000741243,291.72689819987863,None,ScrollUp,정답입니다,291.72689819987863,None,291.72689819987863,None,291.72689819987863,None,291.72689819987863,None,292.4825064998586,None,292.4825064998586,292.9851464999374,,,,,,,,,,,,,,,,201,2023-03-27_13h21.35.129,FishGame,2022.1.1,60.03528874584766,
,29,넌 배려심있어,1,Orange,A,6.083333333333333,5.5,ScrollDown,ScrollUp,Orange.png,2,Positive,Congruent,0,0,0,0,,,,,,,,,,,,,,,,,0,28,28,28,,,,,,,,,,,,,,,,,,,,,,,,,,,,,,,,,,,,,,,,,,,,,,,,,,,,,,,,,,,,,,,,,,,,,,,,,,,,,,,,,1.2391975422700245,0.7816688001621515,293.60878439992666,None,ScrollDown,정답입니다,293.60878439992666,None,293.60878439992666,None,293.60878439992666,None,293.60878439992666,None,294.2851499998942,None,294.2851499998942,294.785114799859,,,,,,,,,,,,,,,,201,2023-03-27_13h21.35.129,FishGame,2022.1.1,60.03528874584766,
,30,넌 숨김없어,3,Orange,A,4.5,4.933333333333334,ScrollDown,ScrollUp,Orange.png,2,Neutral,Neutral,0,0,0,0,,,,,,,,,,,,,,,,,0,29,29,29,,,,,,,,,,,,,,,,,,,,,,,,,,,,,,,,,,,,,,,,,,,,,,,,,,,,,,,,,,,,,,,,,,,,,,,,,,,,,,,,,1.2623456766208014,0.814261200139299,295.4100122000091,None,ScrollDown,정답입니다,295.4100122000091,None,295.4100122000091,None,295.4100122000091,None,295.4100122000091,None,296.1157807998825,None,296.1157807998825,296.6183996000327,,,,,,,,,,,,,,,,201,2023-03-27_13h21.35.129,FishGame,2022.1.1,60.03528874584766,
,31,넌 훌륭해,2,Green,B,5.916666666666667,4.033333333333333,ScrollUp,ScrollDown,Green.png,2,Positive,Incongruent,0,0,0,0,,,,,,,,,,,,,,,,,0,30,30,30,,,,,,,,,,,,,,,,,,,,,,,,,,,,,,,,,,,,,,,,,,,,,,,,,,,,,,,,,,,,,,,,,,,,,,,,,,,,,,,,,1.9737654328346252,0.8648425000719726,297.240489799995,None,ScrollUp,정답입니다,297.240489799995,None,297.240489799995,None,297.240489799995,None,297.240489799995,None,297.9991146000102,None,297.9991146000102,298.501761399908,,,,,,,,,,,,,,,,201,2023-03-27_13h21.35.129,FishGame,2022.1.1,60.03528874584766,
,32,넌 슬기로워,2,Orange,A,6.166666666666667,4.1,ScrollDown,ScrollUp,Orange.png,2,Positive,Congruent,0,0,0,0,,,,,,,,,,,,,,,,,0,31,31,31,,,,,,,,,,,,,,,,,,,,,,,,,,,,,,,,,,,,,,,,,,,,,,,,,,,,,,,,,,,,,,,,,,,,,,,,,,,,,,,,,1.1095678955316544,0.7785684000700712,299.1292640999891,None,ScrollDown,정답입니다,299.1292640999891,None,299.1292640999891,None,299.1292640999891,None,299.1292640999891,None,299.7987520999741,None,299.7987520999741,300.2987395999953,,,,,,,,,,,,,,,,201,2023-03-27_13h21.35.129,FishGame,2022.1.1,60.03528874584766,
,33,넌 냉혹해,5,Orange,A,2.583333333333333,2.1,ScrollDown,ScrollUp,Orange.png,2,Negative,Incongruent,0,0,0,0,,,,,,,,,,,,,,,,,0,32,32,32,,,,,,,,,,,,,,,,,,,,,,,,,,,,,,,,,,,,,,,,,,,,,,,,,,,,,,,,,,,,,,,,,,,,,,,,,,,,,,,,,1,1.1673258000519127,300.92720260005444,None,ScrollDown,정답입니다,300.92720260005444,None,300.92720260005444,None,300.92720260005444,None,300.92720260005444,None,301.98515279986896,None,301.98515279986896,302.48500919993967,,,,,,,,,,,,,,,,201,2023-03-27_13h21.35.129,FishGame,2022.1.1,60.03528874584766,
,34,나를 데려가줘,6,Green,B,0,0,ScrollDown,ScrollUp,Green.png,2,NonTarget,NonTarget,0,0,0,0,,,,,,,,,,,,,,,,,0,33,33,33,,,,,,,,,,,,,,,,,,,,,,,,,,,,,,,,,,,,,,,,,,,,,,,,,,,,,,,,,,,,,,,,,,,,,,,,,,,,,,,,,1,1.1473540000151843,303.10704159992747,None,ScrollDown,정답입니다,303.10704159992747,None,303.10704159992747,None,303.10704159992747,None,303.10704159992747,None,304.1517564000096,None,304.1517564000096,304.65165019989945,,,,,,,,,,,,,,,,201,2023-03-27_13h21.35.129,FishGame,2022.1.1,60.03528874584766,
,35,넌 편파적이야,5,Green,B,2.125,2,ScrollUp,ScrollDown,Green.png,2,Negative,Congruent,0,0,0,0,,,,,,,,,,,,,,,,,0,34,34,34,,,,,,,,,,,,,,,,,,,,,,,,,,,,,,,,,,,,,,,,,,,,,,,,,,,,,,,,,,,,,,,,,,,,,,,,,,,,,,,,,1.8317901243766148,1.1426385999657214,305.27770560001954,None,ScrollUp,정답입니다,305.27770560001954,None,305.27770560001954,None,305.27770560001954,None,305.27770560001954,None,306.3155241999775,None,306.3155241999775,306.81817579991184,,,,,,,,,,,,,,,,201,2023-03-27_13h21.35.129,FishGame,2022.1.1,60.03528874584766,
,36,넌 슬퍼,4,Orange,A,2.583333333333333,3.066666666666667,ScrollDown,ScrollUp,Orange.png,2,Negative,Incongruent,0,0,0,0,,,,,,,,,,,,,,,,,0,35,35,35,,,,,,,,,,,,,,,,,,,,,,,,,,,,,,,,,,,,,,,,,,,,,,,,,,,,,,,,,,,,,,,,,,,,,,,,,,,,,,,,,1.1049382785956066,0.8998424001038074,307.4386173998937,None,ScrollDown,정답입니다,307.4386173998937,None,307.4386173998937,None,307.4386173998937,None,307.4386173998937,None,308.2322158999741,None,308.2322158999741,308.7348348000087,,,,,,,,,,,,,,,,201,2023-03-27_13h21.35.129,FishGame,2022.1.1,60.03528874584766,
,37,나를 데려가줘,6,Green,B,0,0,ScrollDown,ScrollUp,Green.png,2,NonTarget,NonTarget,0,0,0,0,,,,,,,,,,,,,,,,,0,36,36,36,,,,,,,,,,,,,,,,,,,,,,,,,,,,,,,,,,,,,,,,,,,,,,,,,,,,,,,,,,,,,,,,,,,,,,,,,,,,,,,,,1,1.1667627000715584,309.35408649989404,None,ScrollDown,정답입니다,309.35408649989404,None,309.35408649989404,None,309.35408649989404,None,309.35408649989404,None,310.41815559985116,None,310.41815559985116,310.9181562999729,,,,,,,,,,,,,,,,201,2023-03-27_13h21.35.129,FishGame,2022.1.1,60.03528874584766,
,38,넌 친절해,1,Green,B,6.041666666666667,5.533333333333333,ScrollUp,ScrollDown,Green.png,2,Positive,Incongruent,0,0,0,0,,,,,,,,,,,,,,,,,0,37,37,37,,,,,,,,,,,,,,,,,,,,,,,,,,,,,,,,,,,,,,,,,,,,,,,,,,,,,,,,,,,,,,,,,,,,,,,,,,,,,,,,,1.766975313425064,1.1500852000899613,311.5408481999766,None,ScrollUp,정답입니다,311.5408481999766,None,311.5408481999766,None,311.5408481999766,None,311.5408481999766,None,312.5849041000474,None,312.5849041000474,313.08934219996445,,,,,,,,,,,,,,,,201,2023-03-27_13h21.35.129,FishGame,2022.1.1,60.03528874584766,
,1,넌 엉성해,4,Orange,A,3,3.3,ScrollDown,ScrollUp,Orange.png,3,Negative,Incongruent,0,0,0,0,,,,,,,,,,,,,,,,,,,,,0,0,0,0,,,,,,,,,,,,,,,,,,,,,,,,,,,,,,,,,,,,345.01453589997254,346.5176693999674,346.55105969985016,347.5009872999508,347.5509685999714,348.5052749000024,348.4885712999385,None,,,,,,,,,,,,,,,,,,,,,,,,,,,,,,,,,,1.0231481393178303,1.0512159001082182,349.59057300002314,None,ScrollDown,정답입니다,349.59057300002314,None,349.59057300002314,None,349.59057300002314,None,349.59057300002314,None,350.5313341000583,None,350.5313341000583,351.0340305999853,313.5986700998619,None,313.5986700998619,None,0.24722221,-0.09537037,1,0,0,0.016410700045526028,None,343.6052349000238,None,,,201,2023-03-27_13h21.35.129,FishGame,2022.1.1,60.03528874584766,
,2,나를 보내줘,6,Orange,A,0,0,ScrollUp,ScrollDown,Orange.png,3,NonTarget,NonTarget,0,0,0,0,,,,,,,,,,,,,,,,,,,,,0,1,1,1,,,,,,,,,,,,,,,,,,,,,,,,,,,,,,,,,,,,,,,,,,,,,,,,,,,,,,,,,,,,,,,,,,,,,,,,,,,,,2,0.9999390000011772,351.65474379993975,None,ScrollUp,정답입니다,351.65474379993975,None,351.65474379993975,None,351.65474379993975,None,351.65474379993975,None,352.55068999994546,None,352.55068999994546,353.0506507998798,,,,,,,,,,,,,,,,201,2023-03-27_13h21.35.129,FishGame,2022.1.1,60.03528874584766,
,3,넌 활발해,1,Green,B,5.666666666666667,5.6,ScrollUp,ScrollDown,Green.png,3,Positive,Incongruent,0,0,0,0,,,,,,,,,,,,,,,,,,,,,0,2,2,2,,,,,,,,,,,,,,,,,,,,,,,,,,,,,,,,,,,,,,,,,,,,,,,,,,,,,,,,,,,,,,,,,,,,,,,,,,,,,1.89969136317571,0.8997929999604821,353.6728197999764,None,ScrollUp,정답입니다,353.6728197999764,None,353.6728197999764,None,353.6728197999764,None,353.6728197999764,None,354.46740449988283,None,354.46740449988283,354.9810568999965,,,,,,,,,,,,,,,,201,2023-03-27_13h21.35.129,FishGame,2022.1.1,60.03528874584766,
,4,넌 논리적이야,2,Orange,A,5.666666666666666,4.633333333333334,ScrollDown,ScrollUp,Orange.png,3,Positive,Congruent,0,0,0,0,,,,,,,,,,,,,,,,,,,,,0,3,3,3,,,,,,,,,,,,,,,,,,,,,,,,,,,,,,,,,,,,,,,,,,,,,,,,,,,,,,,,,,,,,,,,,,,,,,,,,,,,,1.0092592636744182,0.9833271999377757,355.60572319990024,None,ScrollDown,정답입니다,355.60572319990024,None,355.60572319990024,None,355.60572319990024,None,355.60572319990024,None,356.4809260999318,None,356.4809260999318,356.9810148999095,,,,,,,,,,,,,,,,201,2023-03-27_13h21.35.129,FishGame,2022.1.1,60.03528874584766,
,5,넌 과묵해,3,Orange,A,3.875,4.4,ScrollDown,ScrollUp,Orange.png,3,Neutral,Neutral,0,0,0,0,,,,,,,,,,,,,,,,,,,,,0,4,4,4,,,,,,,,,,,,,,,,,,,,,,,,,,,,,,,,,,,,,,,,,,,,,,,,,,,,,,,,,,,,,,,,,,,,,,,,,,,,,1,0.902633500052616,357.6050527000334,None,ScrollDown,정답입니다,357.6050527000334,None,357.6050527000334,None,357.6050527000334,None,357.6050527000334,None,358.39797529997304,None,358.39797529997304,358.9005734999664,,,,,,,,,,,,,,,,201,2023-03-27_13h21.35.129,FishGame,2022.1.1,60.03528874584766,
,6,나를 데려가줘,6,Green,B,0,0,ScrollDown,ScrollUp,Green.png,3,NonTarget,NonTarget,0,0,0,0,,,,,,,,,,,,,,,,,,,,,0,5,5,5,,,,,,,,,,,,,,,,,,,,,,,,,,,,,,,,,,,,,,,,,,,,,,,,,,,,,,,,,,,,,,,,,,,,,,,,,,,,,1.1574074029922485,1.1213140999898314,359.5203624998685,None,ScrollDown,정답입니다,359.5203624998685,None,359.5203624998685,None,359.5203624998685,None,359.5203624998685,None,360.5446698998567,None,360.5446698998567,361.0475852000527,,,,,,,,,,,,,,,,201,2023-03-27_13h21.35.129,FishGame,2022.1.1,60.03528874584766,
,7,넌 미숙해,4,Green,B,3,3,ScrollUp,ScrollDown,Green.png,3,Negative,Congruent,0,0,0,0,,,,,,,,,,,,,,,,,,,,,0,6,6,6,,,,,,,,,,,,,,,,,,,,,,,,,,,,,,,,,,,,,,,,,,,,,,,,,,,,,,,,,,,,,,,,,,,,,,,,,,,,,1.805555562178294,0.9328658999875188,361.66437719995156,None,ScrollUp,정답입니다,361.66437719995156,None,361.66437719995156,None,361.66437719995156,None,361.66437719995156,None,362.4975409999024,None,362.4975409999024,362.99752460001037,,,,,,,,,,,,,,,,201,2023-03-27_13h21.35.129,FishGame,2022.1.1,60.03528874584766,
,8,나를 보내줘,6,Orange,A,0,0,ScrollUp,ScrollDown,Orange.png,3,NonTarget,NonTarget,0,0,0,0,,,,,,,,,,,,,,,,,,,,,0,7,7,7,,,,,,,,,,,,,,,,,,,,,,,,,,,,,,,,,,,,,,,,,,,,,,,,,,,,,,,,,,,,,,,,,,,,,,,,,,,,,1.9768518606821697,1.048406699905172,363.62172130006365,None,ScrollUp,정답입니다,363.62172130006365,None,363.62172130006365,None,363.62172130006365,None,363.62172130006365,None,364.5671029998921,None,364.5671029998921,365.0670954999514,,,,,,,,,,,,,,,,201,2023-03-27_13h21.35.129,FishGame,2022.1.1,60.03528874584766,
,9,넌 자신만만해,3,Green,B,4.833333333333334,4.333333333333333,ScrollUp,ScrollDown,Green.png,3,Neutral,Neutral,0,0,0,0,,,,,,,,,,,,,,,,,,,,,0,8,8,8,,,,,,,,,,,,,,,,,,,,,,,,,,,,,,,,,,,,,,,,,,,,,,,,,,,,,,,,,,,,,,,,,,,,,,,,,,,,,2,0.9170784000307322,365.68616429995745,None,ScrollUp,정답입니다,365.68616429995745,None,365.68616429995745,None,365.68616429995745,None,365.68616429995745,None,366.50052540004253,None,366.50052540004253,367.00030749989673,,,,,,,,,,,,,,,,201,2023-03-27_13h21.35.129,FishGame,2022.1.1,60.03528874584766,
,10,넌 탐욕스러워,5,Orange,A,2.25,2.1,ScrollDown,ScrollUp,Orange.png,3,Negative,Incongruent,0,0,0,0,,,,,,,,,,,,,,,,,,,,,0,9,9,9,,,,,,,,,,,,,,,,,,,,,,,,,,,,,,,,,,,,,,,,,,,,,,,,,,,,,,,,,,,,,,,,,,,,,,,,,,,,,1,0.9332844000309706,367.62538199988194,None,ScrollDown,정답입니다,367.62538199988194,None,367.62538199988194,None,367.62538199988194,None,367.62538199988194,None,368.44760910002515,None,368.44760910002515,368.95029799989425,,,,,,,,,,,,,,,,201,2023-03-27_13h21.35.129,FishGame,2022.1.1,60.03528874584766,
,11,넌 인기있어,2,Orange,A,5.458333333333333,4.5,ScrollDown,ScrollUp,Orange.png,3,Positive,Congruent,0,0,0,0,,,,,,,,,,,,,,,,,,,,,0,10,10,10,,,,,,,,,,,,,,,,,,,,,,,,,,,,,,,,,,,,,,,,,,,,,,,,,,,,,,,,,,,,,,,,,,,,,,,,,,,,,1,0.9638235999736935,369.57105130003765,None,ScrollDown,정답입니다,369.57105130003765,None,369.57105130003765,None,369.57105130003765,None,369.57105130003765,None,370.43358629988506,None,370.43358629988506,370.93359440006316,,,,,,,,,,,,,,,,201,2023-03-27_13h21.35.129,FishGame,2022.1.1,60.03528874584766,
,12,나를 데려가줘,6,Green,B,0,0,ScrollDown,ScrollUp,Green.png,3,NonTarget,NonTarget,0,0,0,0,,,,,,,,,,,,,,,,,,,,,0,11,11,11,,,,,,,,,,,,,,,,,,,,,,,,,,,,,,,,,,,,,,,,,,,,,,,,,,,,,,,,,,,,,,,,,,,,,,,,,,,,,1.3595679054657617,1.5956413999665529,371.55257379985414,None,ScrollDown,정답입니다,371.55257379985414,None,371.55257379985414,None,371.55257379985414,None,371.55257379985414,None,373.0502515998669,None,373.0502515998669,373.55021959985606,,,,,,,,,,,,,,,,201,2023-03-27_13h21.35.129,FishGame,2022.1.1,60.03528874584766,
,13,넌 뛰어나,2,Green,B,6.166666666666667,4,ScrollUp,ScrollDown,Green.png,3,Positive,Incongruent,0,0,0,0,,,,,,,,,,,,,,,,,,,,,0,12,12,12,,,,,,,,,,,,,,,,,,,,,,,,,,,,,,,,,,,,,,,,,,,,,,,,,,,,,,,,,,,,,,,,,,,,,,,,,,,,,1.8765432039896648,1.093987099826336,374.1765459999442,None,ScrollUp,정답입니다,374.1765459999442,None,374.1765459999442,None,374.1765459999442,None,374.1765459999442,None,375.166882700054,None,375.166882700054,375.6668958000373,,,,,,,,,,,,,,,,201,2023-03-27_13h21.35.129,FishGame,2022.1.1,60.03528874584766,
,14,넌 낙관적이야,1,Orange,A,5.75,5.8,ScrollDown,ScrollUp,Orange.png,3,Positive,Congruent,0,0,0,0,,,,,,,,,,,,,,,,,,,,,0,13,13,13,,,,,,,,,,,,,,,,,,,,,,,,,,,,,,,,,,,,,,,,,,,,,,,,,,,,,,,,,,,,,,,,,,,,,,,,,,,,,1.0679012437661488,0.8833409000653774,376.2959220998455,None,ScrollDown,정답입니다,376.2959220998455,None,376.2959220998455,None,376.2959220998455,None,376.2959220998455,None,377.06414739997126,None,377.06414739997126,377.5667437000666,,,,,,,,,,,,,,,,201,2023-03-27_13h21.35.129,FishGame,2022.1.1,60.03528874584766,
,15,넌 산만해,4,Green,B,2.695652173913043,3.033333333333333,ScrollUp,ScrollDown,Green.png,3,Negative,Congruent,0,0,0,0,,,,,,,,,,,,,,,,,,,,,0,14,14,14,,,,,,,,,,,,,,,,,,,,,,,,,,,,,,,,,,,,,,,,,,,,,,,,,,,,,,,,,,,,,,,,,,,,,,,,,,,,,2,0.8492787999566644,378.1931328999344,None,ScrollUp,정답입니다,378.1931328999344,None,378.1931328999344,None,378.1931328999344,None,378.1931328999344,None,378.9307790999301,None,378.9307790999301,379.4333933000453,,,,,,,,,,,,,,,,201,2023-03-27_13h21.35.129,FishGame,2022.1.1,60.03528874584766,
,16,나를 보내줘,6,Orange,A,0,0,ScrollUp,ScrollDown,Orange.png,3,NonTarget,NonTarget,0,0,0,0,,,,,,,,,,,,,,,,,,,,,0,15,15,15,,,,,,,,,,,,,,,,,,,,,,,,,,,,,,,,,,,,,,,,,,,,,,,,,,,,,,,,,,,,,,,,,,,,,,,,,,,,,2,1.230700699845329,380.05413890001364,None,ScrollUp,정답입니다,380.05413890001364,None,380.05413890001364,None,380.05413890001364,None,380.05413890001364,None,381.1807599000167,None,381.1807599000167,381.6833881000057,,,,,,,,,,,,,,,,201,2023-03-27_13h21.35.129,FishGame,2022.1.1,60.03528874584766,
,17,넌 교활해,5,Green,B,2.333333333333333,2.133333333333333,ScrollUp,ScrollDown,Green.png,3,Negative,Congruent,0,0,0,0,,,,,,,,,,,,,,,,,,,,,0,16,16,16,,,,,,,,,,,,,,,,,,,,,,,,,,,,,,,,,,,,,,,,,,,,,,,,,,,,,,,,,,,,,,,,,,,,,,,,,,,,,1.9814815024534862,0.8954310000408441,382.30468939989805,None,ScrollUp,정답입니다,382.30468939989805,None,382.30468939989805,None,382.30468939989805,None,382.30468939989805,None,383.0970725999214,None,383.0970725999214,383.59706489997916,,,,,,,,,,,,,,,,201,2023-03-27_13h21.35.129,FishGame,2022.1.1,60.03528874584766,
,18,나를 보내줘,6,Orange,A,0,0,ScrollUp,ScrollDown,Orange.png,3,NonTarget,NonTarget,0,0,0,0,,,,,,,,,,,,,,,,,,,,,0,17,17,17,,,,,,,,,,,,,,,,,,,,,,,,,,,,,,,,,,,,,,,,,,,,,,,,,,,,,,,,,,,,,,,,,,,,,,,,,,,,,2,0.9826281999703497,384.2170076998882,None,ScrollUp,정답입니다,384.2170076998882,None,384.2170076998882,None,384.2170076998882,None,384.2170076998882,None,385.0970894000493,None,385.0970894000493,385.6001052998472,,,,,,,,,,,,,,,,201,2023-03-27_13h21.35.129,FishGame,2022.1.1,60.03528874584766,
,19,넌 불친절해,5,Green,B,2.208333333333333,2.033333333333333,ScrollUp,ScrollDown,Green.png,3,Negative,Congruent,0,0,0,0,,,,,,,,,,,,,,,,,,,,,0,18,18,18,,,,,,,,,,,,,,,,,,,,,,,,,,,,,,,,,,,,,,,,,,,,,,,,,,,,,,,,,,,,,,,,,,,,,,,,,,,,,2,0.8306053001433611,386.22281669988297,None,ScrollUp,정답입니다,386.22281669988297,None,386.22281669988297,None,386.22281669988297,None,386.22281669988297,None,386.95000329986215,None,386.95000329986215,387.4499933999032,,,,,,,,,,,,,,,,201,2023-03-27_13h21.35.129,FishGame,2022.1.1,60.03528874584766,
,20,넌 지적이야,2,Green,B,5.75,4.366666666666666,ScrollUp,ScrollDown,Green.png,3,Positive,Incongruent,0,0,0,0,,,,,,,,,,,,,,,,,,,,,0,19,19,19,,,,,,,,,,,,,,,,,,,,,,,,,,,,,,,,,,,,,,,,,,,,,,,,,,,,,,,,,,,,,,,,,,,,,,,,,,,,,2,0.8165566998068243,388.06912070000544,None,ScrollUp,정답입니다,388.06912070000544,None,388.06912070000544,None,388.06912070000544,None,388.06912070000544,None,388.7805339999031,None,388.7805339999031,389.2832024998497,,,,,,,,,,,,,,,,201,2023-03-27_13h21.35.129,FishGame,2022.1.1,60.03528874584766,
,21,넌 우유부단해,4,Orange,A,2.666666666666667,3.166666666666667,ScrollDown,ScrollUp,Orange.png,3,Negative,Incongruent,0,0,0,0,,,,,,,,,,,,,,,,,,,,,0,20,20,20,,,,,,,,,,,,,,,,,,,,,,,,,,,,,,,,,,,,,,,,,,,,,,,,,,,,,,,,,,,,,,,,,,,,,,,,,,,,,1.0231481393178303,0.9143928000703454,389.91048159985803,None,ScrollDown,정답입니다,389.91048159985803,None,389.91048159985803,None,389.91048159985803,None,389.91048159985803,None,390.7164604999125,None,390.7164604999125,391.21649759984575,,,,,,,,,,,,,,,,201,2023-03-27_13h21.35.129,FishGame,2022.1.1,60.03528874584766,
,22,나를 데려가줘,6,Green,B,0,0,ScrollDown,ScrollUp,Green.png,3,NonTarget,NonTarget,0,0,0,0,,,,,,,,,,,,,,,,,,,,,0,21,21,21,,,,,,,,,,,,,,,,,,,,,,,,,,,,,,,,,,,,,,,,,,,,,,,,,,,,,,,,,,,,,,,,,,,,,,,,,,,,,1.0216049253940582,1.147548499982804,391.835348200053,None,ScrollDown,정답입니다,391.835348200053,None,391.835348200053,None,391.835348200053,None,391.835348200053,None,392.8831604998559,None,392.8831604998559,393.38316740002483,,,,,,,,,,,,,,,,201,2023-03-27_13h21.35.129,FishGame,2022.1.1,60.03528874584766,
,23,넌 성실해,1,Green,B,6.041666666666666,5.7,ScrollUp,ScrollDown,Green.png,3,Positive,Incongruent,0,0,0,0,,,,,,,,,,,,,,,,,,,,,0,22,22,22,,,,,,,,,,,,,,,,,,,,,,,,,,,,,,,,,,,,,,,,,,,,,,,,,,,,,,,,,,,,,,,,,,,,,,,,,,,,,1.839506169160207,0.8501707999967039,394.00191290001385,None,ScrollUp,정답입니다,394.00191290001385,None,394.00191290001385,None,394.00191290001385,None,394.00191290001385,None,394.74714410002343,None,394.74714410002343,395.2498373000417,,,,,,,,,,,,,,,,201,2023-03-27_13h21.35.129,FishGame,2022.1.1,60.03528874584766,
,24,넌 현실주의적이야,3,Orange,A,4.625,4.4,ScrollDown,ScrollUp,Orange.png,3,Neutral,Neutral,0,0,0,0,,,,,,,,,,,,,,,,,,,,,0,23,23,23,,,,,,,,,,,,,,,,,,,,,,,,,,,,,,,,,,,,,,,,,,,,,,,,,,,,,,,,,,,,,,,,,,,,,,,,,,,,,1.0385802288850148,0.8911978998221457,395.88178229983896,None,ScrollDown,정답입니다,395.88178229983896,None,395.88178229983896,None,395.88178229983896,None,395.88178229983896,None,396.66345979995094,None,396.66345979995094,397.16351639991626,,,,,,,,,,,,,,,,201,2023-03-27_13h21.35.129,FishGame,2022.1.1,60.03528874584766,
,25,넌 진실돼,1,Orange,A,6.625,5.566666666666666,ScrollDown,ScrollUp,Orange.png,3,Positive,Congruent,0,0,0,0,,,,,,,,,,,,,,,,,,,,,0,24,24,24,,,,,,,,,,,,,,,,,,,,,,,,,,,,,,,,,,,,,,,,,,,,,,,,,,,,,,,,,,,,,,,,,,,,,,,,,,,,,1,0.8321448999922723,397.7861680998467,None,ScrollDown,정답입니다,397.7861680998467,None,397.7861680998467,None,397.7861680998467,None,397.7861680998467,None,398.5134690999985,None,398.5134690999985,399.01643619989045,,,,,,,,,,,,,,,,201,2023-03-27_13h21.35.129,FishGame,2022.1.1,60.03528874584766,
,26,넌 천진난만해,3,Green,B,4.958333333333334,4.833333333333333,ScrollUp,ScrollDown,Green.png,3,Neutral,Neutral,0,0,0,0,,,,,,,,,,,,,,,,,,,,,0,25,25,25,,,,,,,,,,,,,,,,,,,,,,,,,,,,,,,,,,,,,,,,,,,,,,,,,,,,,,,,,,,,,,,,,,,,,,,,,,,,,1.6651234552264214,0.7821233000140637,399.63925520004705,None,ScrollUp,정답입니다,399.63925520004705,None,399.63925520004705,None,399.63925520004705,None,399.63925520004705,None,400.3163864999078,None,400.3163864999078,400.8164049000479,,,,,,,,,,,,,,,,201,2023-03-27_13h21.35.129,FishGame,2022.1.1,60.03528874584766,
,27,넌 교양없어,5,Orange,A,2.416666666666667,2.2,ScrollDown,ScrollUp,Orange.png,3,Negative,Incongruent,0,0,0,0,,,,,,,,,,,,,,,,,,,,,0,26,26,26,,,,,,,,,,,,,,,,,,,,,,,,,,,,,,,,,,,,,,,,,,,,,,,,,,,,,,,,,,,,,,,,,,,,,,,,,,,,,1.080246905485789,0.8334302001167089,401.4403619999066,None,ScrollDown,정답입니다,401.4403619999066,None,401.4403619999066,None,401.4403619999066,None,401.4403619999066,None,402.16365720005706,None,402.16365720005706,402.66359120002016,,,,,,,,,,,,,,,,201,2023-03-27_13h21.35.129,FishGame,2022.1.1,60.03528874584766,
,28,나를 보내줘,6,Orange,A,0,0,ScrollUp,ScrollDown,Orange.png,3,NonTarget,NonTarget,0,0,0,0,,,,,,,,,,,,,,,,,,,,,0,27,27,27,,,,,,,,,,,,,,,,,,,,,,,,,,,,,,,,,,,,,,,,,,,,,,,,,,,,,,,,,,,,,,,,,,,,,,,,,,,,,1.8117283930381138,0.9832832999527454,403.2873321999796,None,ScrollUp,정답입니다,403.2873321999796,None,403.2873321999796,None,403.2873321999796,None,403.2873321999796,None,404.1662411999423,None,404.1662411999423,404.66619349992834,,,,,,,,,,,,,,,,201,2023-03-27_13h21.35.129,FishGame,2022.1.1,60.03528874584766,
,29,넌 엉뚱스러워,3,Orange,A,4.166666666666667,4.133333333333334,ScrollDown,ScrollUp,Orange.png,3,Neutral,Neutral,0,0,0,0,,,,,,,,,,,,,,,,,,,,,0,28,28,28,,,,,,,,,,,,,,,,,,,,,,,,,,,,,,,,,,,,,,,,,,,,,,,,,,,,,,,,,,,,,,,,,,,,,,,,,,,,,1,0.916772399796173,405.29068459989503,None,ScrollDown,정답입니다,405.29068459989503,None,405.29068459989503,None,405.29068459989503,None,405.29068459989503,None,406.0968923000619,None,406.0968923000619,406.59954610001296,,,,,,,,,,,,,,,,201,2023-03-27_13h21.35.129,FishGame,2022.1.1,60.03528874584766,
,30,넌 무지해,4,Green,B,2.541666666666667,3.066666666666667,ScrollUp,ScrollDown,Green.png,3,Negative,Congruent,0,0,0,0,,,,,,,,,,,,,,,,,,,,,0,29,29,29,,,,,,,,,,,,,,,,,,,,,,,,,,,,,,,,,,,,,,,,,,,,,,,,,,,,,,,,,,,,,,,,,,,,,,,,,,,,,1.9891975224018097,0.9161896998994052,407.22232860000804,None,ScrollUp,정답입니다,407.22232860000804,None,407.22232860000804,None,407.22232860000804,None,407.22232860000804,None,408.0328889999073,None,408.0328889999073,408.5328436999116,,,,,,,,,,,,,,,,201,2023-03-27_13h21.35.129,FishGame,2022.1.1,60.03528874584766,
,31,넌 음울해,5,Green,B,2.25,2.233333333333333,ScrollUp,ScrollDown,Green.png,3,Negative,Congruent,0,0,0,0,,,,,,,,,,,,,,,,,,,,,0,30,30,30,,,,,,,,,,,,,,,,,,,,,,,,,,,,,,,,,,,,,,,,,,,,,,,,,,,,,,,,,,,,,,,,,,,,,,,,,,,,,1.9151234527428944,0.9619140999857336,409.155164900003,None,ScrollUp,정답입니다,409.155164900003,None,409.155164900003,None,409.155164900003,None,409.155164900003,None,410.01321169990115,None,410.01321169990115,410.513165500015,,,,,,,,,,,,,,,,201,2023-03-27_13h21.35.129,FishGame,2022.1.1,60.03528874584766,
,32,넌 냉소적이야,5,Orange,A,2.916666666666667,2.4,ScrollDown,ScrollUp,Orange.png,3,Negative,Incongruent,0,0,0,0,,,,,,,,,,,,,,,,,,,,,0,31,31,31,,,,,,,,,,,,,,,,,,,,,,,,,,,,,,,,,,,,,,,,,,,,,,,,,,,,,,,,,,,,,,,,,,,,,,,,,,,,,1,0.8664162000641227,411.1329729000572,None,ScrollDown,정답입니다,411.1329729000572,None,411.1329729000572,None,411.1329729000572,None,411.1329729000572,None,411.8996037999168,None,411.8996037999168,412.3995266999118,,,,,,,,,,,,,,,,201,2023-03-27_13h21.35.129,FishGame,2022.1.1,60.03528874584766,
,33,나를 데려가줘,6,Green,B,0,0,ScrollDown,ScrollUp,Green.png,3,NonTarget,NonTarget,0,0,0,0,,,,,,,,,,,,,,,,,,,,,0,32,32,32,,,,,,,,,,,,,,,,,,,,,,,,,,,,,,,,,,,,,,,,,,,,,,,,,,,,,,,,,,,,,,,,,,,,,,,,,,,,,1.016975333293279,0.9481972998473793,413.018427999923,None,ScrollDown,정답입니다,413.018427999923,None,413.018427999923,None,413.018427999923,None,413.018427999923,None,413.8634800000582,None,413.8634800000582,414.3661447998602,,,,,,,,,,,,,,,,201,2023-03-27_13h21.35.129,FishGame,2022.1.1,60.03528874584766,
,34,넌 쾌활해,1,Orange,A,5.541666666666666,5.733333333333333,ScrollDown,ScrollUp,Orange.png,3,Positive,Congruent,0,0,0,0,,,,,,,,,,,,,,,,,,,,,0,33,33,33,,,,,,,,,,,,,,,,,,,,,,,,,,,,,,,,,,,,,,,,,,,,,,,,,,,,,,,,,,,,,,,,,,,,,,,,,,,,,1.0138889054457347,0.9076819999609143,414.999441599939,None,ScrollDown,정답입니다,414.999441599939,None,414.999441599939,None,414.999441599939,None,414.999441599939,None,415.7964250999503,None,415.7964250999503,416.2963977998588,,,,,,,,,,,,,,,,201,2023-03-27_13h21.35.129,FishGame,2022.1.1,60.03528874584766,
,35,나를 보내줘,6,Orange,A,0,0,ScrollUp,ScrollDown,Orange.png,3,NonTarget,NonTarget,0,0,0,0,,,,,,,,,,,,,,,,,,,,,0,34,34,34,,,,,,,,,,,,,,,,,,,,,,,,,,,,,,,,,,,,,,,,,,,,,,,,,,,,,,,,,,,,,,,,,,,,,,,,,,,,,1.873456800977389,0.8657103001605719,416.916482700035,None,ScrollUp,정답입니다,416.916482700035,None,416.916482700035,None,416.916482700035,None,416.916482700035,None,417.67974419984967,None,417.67974419984967,418.18269170005806,,,,,,,,,,,,,,,,201,2023-03-27_13h21.35.129,FishGame,2022.1.1,60.03528874584766,
,36,넌 명랑해,1,Green,B,5.739130434782609,5.666666666666667,ScrollUp,ScrollDown,Green.png,3,Positive,Incongruent,0,0,0,0,,,,,,,,,,,,,,,,,,,,,0,35,35,35,,,,,,,,,,,,,,,,,,,,,,,,,,,,,,,,,,,,,,,,,,,,,,,,,,,,,,,,,,,,,,,,,,,,,,,,,,,,,2,1.028813100187108,418.80402909987606,None,ScrollUp,정답입니다,418.80402909987606,None,418.80402909987606,None,418.80402909987606,None,418.80402909987606,None,419.7326779998839,None,419.7326779998839,420.2326471998822,,,,,,,,,,,,,,,,201,2023-03-27_13h21.35.129,FishGame,2022.1.1,60.03528874584766,
,37,넌 멍해,4,Orange,A,2.833333333333333,3.4,ScrollDown,ScrollUp,Orange.png,3,Negative,Incongruent,0,0,0,0,,,,,,,,,,,,,,,,,,,,,0,36,36,36,,,,,,,,,,,,,,,,,,,,,,,,,,,,,,,,,,,,,,,,,,,,,,,,,,,,,,,,,,,,,,,,,,,,,,,,,,,,,1.0030864079793294,0.9333873998839408,420.85608409997076,None,ScrollDown,정답입니다,420.85608409997076,None,420.85608409997076,None,420.85608409997076,None,420.85608409997076,None,421.6798789999448,None,421.6798789999448,422.1825365999248,,,,,,,,,,,,,,,,201,2023-03-27_13h21.35.129,FishGame,2022.1.1,60.03528874584766,
,38,나를 데려가줘,6,Green,B,0,0,ScrollDown,ScrollUp,Green.png,3,NonTarget,NonTarget,0,0,0,0,,,,,,,,,,,,,,,,,,,,,0,37,37,37,,,,,,,,,,,,,,,,,,,,,,,,,,,,,,,,,,,,,,,,,,,,,,,,,,,,,,,,,,,,,,,,,,,,,,,,,,,,,1,1.0151097001507878,422.8012715000659,None,ScrollDown,정답입니다,422.8012715000659,None,422.8012715000659,None,422.8012715000659,None,422.8012715000659,None,423.71578640001826,None,423.71578640001826,424.2158375000581,,,,,,,,,,,,,,,,201,2023-03-27_13h21.35.129,FishGame,2022.1.1,60.03528874584766,
,39,넌 현명해,2,Orange,A,6.541666666666666,4.533333333333333,ScrollDown,ScrollUp,Orange.png,3,Positive,Congruent,0,0,0,0,,,,,,,,,,,,,,,,,,,,,0,38,38,38,,,,,,,,,,,,,,,,,,,,,,,,,,,,,,,,,,,,,,,,,,,,,,,,,,,,,,,,,,,,,,,,,,,,,,,,,,,,,1.1558641890684764,0.8483674000017345,424.8368577999063,None,ScrollDown,정답입니다,424.8368577999063,None,424.8368577999063,None,424.8368577999063,None,424.8368577999063,None,425.5798549999017,None,425.5798549999017,426.08250269992277,,,,,,,,,,,,,,,,201,2023-03-27_13h21.35.129,FishGame,2022.1.1,60.03528874584766,
,40,넌 수줍어,3,Green,B,3.541666666666666,4.366666666666666,ScrollUp,ScrollDown,Green.png,3,Neutral,Neutral,0,0,0,0,,,,,,,,,,,,,,,,,,,,,0,39,39,39,,,,,,,,,,,,,,,,,,,,,,,,,,,,,,,,,,,,,,,,,,,,,,,,,,,,,,,,,,,,,,,,,,,,,,,,,,,,,1.9444444676240284,0.8167129000648856,426.7058669999242,None,ScrollUp,정답입니다,426.7058669999242,None,426.7058669999242,None,426.7058669999242,None,426.7058669999242,None,427.41316820005886,None,427.41316820005886,427.91581270005554,,,,,,,,,,,,,,,,201,2023-03-27_13h21.35.129,FishGame,2022.1.1,60.03528874584766,
,41,나를 데려가줘,6,Green,B,0,0,ScrollDown,ScrollUp,Green.png,3,NonTarget,NonTarget,0,0,0,0,,,,,,,,,,,,,,,,,,,,,0,40,40,40,,,,,,,,,,,,,,,,,,,,,,,,,,,,,,,,,,,,,,,,,,,,,,,,,,,,,,,,,,,,,,,,,,,,,,,,,,,,,1.162037044763565,1.383475499926135,428.53529709996656,None,ScrollDown,정답입니다,428.53529709996656,None,428.53529709996656,None,428.53529709996656,None,428.53529709996656,None,429.8159686999861,None,429.8159686999861,430.3205196999479,,,,,,,,,,,,,,,,201,2023-03-27_13h21.35.129,FishGame,2022.1.1,60.03528874584766,
,42,넌 성숙해,2,Green,B,5.833333333333333,4.533333333333333,ScrollUp,ScrollDown,Green.png,3,Positive,Incongruent,0,0,0,0,,,,,,,,,,,,,,,,,,,,,0,41,41,41,,,,,,,,,,,,,,,,,,,,,,,,,,,,,,,,,,,,,,,,,,,,,,,,,,,,,,,,,,,,,,,,,,,,,,,,,,,,,1.733024681607882,1.3333921001758426,430.94610509998165,None,ScrollUp,정답입니다,430.94610509998165,None,430.94610509998165,None,430.94610509998165,None,430.94610509998165,None,432.17948809987865,None,432.17948809987865,432.6795063999016,,,,,,,,,,,,,,,,201,2023-03-27_13h21.35.129,FishGame,2022.1.1,60.03528874584766,
,1,넌 매력적이야,2,Green,B,6.125,4.666666666666667,ScrollUp,ScrollDown,Green.png,4,Positive,Incongruent,0,0,0,0,,,,,,,,,,,,,,,,,,,,,,,,,0,0,0,0,,,,,,,,,,,,,,,,,,,,,,,,,,,,,,,,464.8317765998654,466.33192889997736,466.36525619984604,467.3150978998747,467.36508359992877,468.3150569999125,468.3150569999125,None,,,,,,,,,,,,,,,,,,,,,,,,,,,,,,,,,,1.9783950746059418,1.1982797000091523,469.41126299998723,None,ScrollUp,정답입니다,469.41126299998723,None,469.41126299998723,None,469.41126299998723,None,469.41126299998723,None,470.49564710003324,None,470.49564710003324,470.99822569987737,433.18240709998645,None,433.18240709998645,None,0.28148147,-0.12777779,1,0,0,0.016417100094258785,None,463.19544529984705,None,,,201,2023-03-27_13h21.35.129,FishGame,2022.1.1,60.03528874584766,
,2,나를 보내줘,6,Orange,A,0,0,ScrollUp,ScrollDown,Orange.png,4,NonTarget,NonTarget,0,0,0,0,,,,,,,,,,,,,,,,,,,,,,,,,0,1,1,1,,,,,,,,,,,,,,,,,,,,,,,,,,,,,,,,,,,,,,,,,,,,,,,,,,,,,,,,,,,,,,,,,,,,,,,,,2,0.9983649000059813,471.62189409998246,None,ScrollUp,정답입니다,471.62189409998246,None,471.62189409998246,None,471.62189409998246,None,471.62189409998246,None,472.51488050003536,None,472.51488050003536,473.0148737998679,,,,,,,,,,,,,,,,201,2023-03-27_13h21.35.129,FishGame,2022.1.1,60.03528874584766,
,3,넌 조심스러워,3,Orange,A,4.791666666666666,4.666666666666667,ScrollDown,ScrollUp,Orange.png,4,Neutral,Neutral,0,0,0,0,,,,,,,,,,,,,,,,,,,,,,,,,0,2,2,2,,,,,,,,,,,,,,,,,,,,,,,,,,,,,,,,,,,,,,,,,,,,,,,,,,,,,,,,,,,,,,,,,,,,,,,,,1,0.9002545999828726,473.63629299984314,None,ScrollDown,정답입니다,473.63629299984314,None,473.63629299984314,None,473.63629299984314,None,473.63629299984314,None,474.4288800000213,None,474.4288800000213,474.93153249984607,,,,,,,,,,,,,,,,201,2023-03-27_13h21.35.129,FishGame,2022.1.1,60.03528874584766,
,4,넌 철학적이야,3,Green,B,4.5,4.266666666666667,ScrollUp,ScrollDown,Green.png,4,Neutral,Neutral,0,0,0,0,,,,,,,,,,,,,,,,,,,,,,,,,0,3,3,3,,,,,,,,,,,,,,,,,,,,,,,,,,,,,,,,,,,,,,,,,,,,,,,,,,,,,,,,,,,,,,,,,,,,,,,,,1.8333333383003871,0.8297699999529868,475.55317379999906,None,ScrollUp,정답입니다,475.55317379999906,None,475.55317379999906,None,475.55317379999906,None,475.55317379999906,None,476.27851739991456,None,476.27851739991456,476.7786127999425,,,,,,,,,,,,,,,,201,2023-03-27_13h21.35.129,FishGame,2022.1.1,60.03528874584766,
,5,넌 쩨쩨해,5,Orange,A,2.375,2.133333333333333,ScrollDown,ScrollUp,Orange.png,4,Negative,Incongruent,0,0,0,0,,,,,,,,,,,,,,,,,,,,,,,,,0,4,4,4,,,,,,,,,,,,,,,,,,,,,,,,,,,,,,,,,,,,,,,,,,,,,,,,,,,,,,,,,,,,,,,,,,,,,,,,,1.0200617114702861,0.8509458000771701,477.4054008999374,None,ScrollDown,정답입니다,477.4054008999374,None,477.4054008999374,None,477.4054008999374,None,477.4054008999374,None,478.1482696000021,None,478.1482696000021,478.64814479998313,,,,,,,,,,,,,,,,201,2023-03-27_13h21.35.129,FishGame,2022.1.1,60.03528874584766,
,6,나를 데려가줘,6,Green,B,0,0,ScrollDown,ScrollUp,Green.png,4,NonTarget,NonTarget,0,0,0,0,,,,,,,,,,,,,,,,,,,,,,,,,0,5,5,5,,,,,,,,,,,,,,,,,,,,,,,,,,,,,,,,,,,,,,,,,,,,,,,,,,,,,,,,,,,,,,,,,,,,,,,,,1,1.0483461001422256,479.2673653999809,None,ScrollDown,정답입니다,479.2673653999809,None,479.2673653999809,None,479.2673653999809,None,479.2673653999809,None,480.2148740000557,None,480.2148740000557,480.731439899886,,,,,,,,,,,,,,,,201,2023-03-27_13h21.35.129,FishGame,2022.1.1,60.03528874584766,
,7,넌 고집불통이야,5,Green,B,2.875,2,ScrollUp,ScrollDown,Green.png,4,Negative,Congruent,0,0,0,0,,,,,,,,,,,,,,,,,,,,,,,,,0,6,6,6,,,,,,,,,,,,,,,,,,,,,,,,,,,,,,,,,,,,,,,,,,,,,,,,,,,,,,,,,,,,,,,,,,,,,,,,,1.839506169160207,0.9816842000000179,481.3595735998824,None,ScrollUp,정답입니다,481.3595735998824,None,481.3595735998824,None,481.3595735998824,None,481.3595735998824,None,482.22873850003816,None,482.22873850003816,482.73136639990844,,,,,,,,,,,,,,,,201,2023-03-27_13h21.35.129,FishGame,2022.1.1,60.03528874584766,
,8,넌 무심해,4,Orange,A,2.875,3.2,ScrollDown,ScrollUp,Orange.png,4,Negative,Incongruent,0,0,0,0,,,,,,,,,,,,,,,,,,,,,,,,,0,7,7,7,,,,,,,,,,,,,,,,,,,,,,,,,,,,,,,,,,,,,,,,,,,,,,,,,,,,,,,,,,,,,,,,,,,,,,,,,1.0833333333333333,0.9137248999904841,483.35186950000934,None,ScrollDown,정답입니다,483.35186950000934,None,483.35186950000934,None,483.35186950000934,None,483.35186950000934,None,484.1617209999822,None,484.1617209999822,484.66178399999626,,,,,,,,,,,,,,,,201,2023-03-27_13h21.35.129,FishGame,2022.1.1,60.03528874584766,
,9,넌 정겨워,1,Orange,A,5.791666666666667,5.666666666666667,ScrollDown,ScrollUp,Orange.png,4,Positive,Congruent,0,0,0,0,,,,,,,,,,,,,,,,,,,,,,,,,0,8,8,8,,,,,,,,,,,,,,,,,,,,,,,,,,,,,,,,,,,,,,,,,,,,,,,,,,,,,,,,,,,,,,,,,,,,,,,,,1.1728395173947017,0.8498257999308407,485.28421099996194,None,ScrollDown,정답입니다,485.28421099996194,None,485.28421099996194,None,485.28421099996194,None,485.28421099996194,None,486.02838629996404,None,486.02838629996404,486.53137969993986,,,,,,,,,,,,,,,,201,2023-03-27_13h21.35.129,FishGame,2022.1.1,60.03528874584766,
,10,나를 데려가줘,6,Green,B,0,0,ScrollDown,ScrollUp,Green.png,4,NonTarget,NonTarget,0,0,0,0,,,,,,,,,,,,,,,,,,,,,,,,,0,9,9,9,,,,,,,,,,,,,,,,,,,,,,,,,,,,,,,,,,,,,,,,,,,,,,,,,,,,,,,,,,,,,,,,,,,,,,,,,1.2067901243766148,0.9651607000268996,487.15063449996524,None,ScrollDown,정답입니다,487.15063449996524,None,487.15063449996524,None,487.15063449996524,None,487.15063449996524,None,488.01203579991125,None,488.01203579991125,488.5145946999546,,,,,,,,,,,,,,,,201,2023-03-27_13h21.35.129,FishGame,2022.1.1,60.03528874584766,
,11,넌 체제순응적이야,4,Green,B,3,3.6,ScrollUp,ScrollDown,Green.png,4,Negative,Congruent,0,0,0,0,,,,,,,,,,,,,,,,,,,,,,,,,0,10,10,10,,,,,,,,,,,,,,,,,,,,,,,,,,,,,,,,,,,,,,,,,,,,,,,,,,,,,,,,,,,,,,,,,,,,,,,,,1.67746914178133,0.9123597000725567,489.1476799999364,None,ScrollUp,정답입니다,489.1476799999364,None,489.1476799999364,None,489.1476799999364,None,489.1476799999364,None,489.9478352998849,None,489.9478352998849,490.44781419984065,,,,,,,,,,,,,,,,201,2023-03-27_13h21.35.129,FishGame,2022.1.1,60.03528874584766,
,12,나를 보내줘,6,Orange,A,0,0,ScrollUp,ScrollDown,Orange.png,4,NonTarget,NonTarget,0,0,0,0,,,,,,,,,,,,,,,,,,,,,,,,,0,11,11,11,,,,,,,,,,,,,,,,,,,,,,,,,,,,,,,,,,,,,,,,,,,,,,,,,,,,,,,,,,,,,,,,,,,,,,,,,1.7638888855775197,0.9955712000373751,491.0686685000546,None,ScrollUp,정답입니다,491.0686685000546,None,491.0686685000546,None,491.0686685000546,None,491.0686685000546,None,491.9644746000413,None,491.9644746000413,492.4784678998403,,,,,,,,,,,,,,,,201,2023-03-27_13h21.35.129,FishGame,2022.1.1,60.03528874584766,
,13,넌 박식해,2,Orange,A,5.625,3.933333333333333,ScrollDown,ScrollUp,Orange.png,4,Positive,Congruent,0,0,0,0,,,,,,,,,,,,,,,,,,,,,,,,,0,12,12,12,,,,,,,,,,,,,,,,,,,,,,,,,,,,,,,,,,,,,,,,,,,,,,,,,,,,,,,,,,,,,,,,,,,,,,,,,1.1682098756233852,0.949918600032106,493.0897323999088,None,ScrollDown,정답입니다,493.0897323999088,None,493.0897323999088,None,493.0897323999088,None,493.0897323999088,None,493.9310949000064,None,493.9310949000064,494.43112479988486,,,,,,,,,,,,,,,,201,2023-03-27_13h21.35.129,FishGame,2022.1.1,60.03528874584766,
,14,나를 보내줘,6,Orange,A,0,0,ScrollUp,ScrollDown,Orange.png,4,NonTarget,NonTarget,0,0,0,0,,,,,,,,,,,,,,,,,,,,,,,,,0,13,13,13,,,,,,,,,,,,,,,,,,,,,,,,,,,,,,,,,,,,,,,,,,,,,,,,,,,,,,,,,,,,,,,,,,,,,,,,,1.7484567960103354,0.9640567000024021,495.05197410006076,None,ScrollUp,정답입니다,495.05197410006076,None,495.05197410006076,None,495.05197410006076,None,495.05197410006076,None,495.91459249984473,None,495.91459249984473,496.4144313998986,,,,,,,,,,,,,,,,201,2023-03-27_13h21.35.129,FishGame,2022.1.1,60.03528874584766,
,15,넌 침착해,1,Green,B,5.458333333333333,5.566666666666666,ScrollUp,ScrollDown,Green.png,4,Positive,Incongruent,0,0,0,0,,,,,,,,,,,,,,,,,,,,,,,,,0,14,14,14,,,,,,,,,,,,,,,,,,,,,,,,,,,,,,,,,,,,,,,,,,,,,,,,,,,,,,,,,,,,,,,,,,,,,,,,,1.9151234527428944,0.9135406001005322,497.04288530000485,None,ScrollUp,정답입니다,497.04288530000485,None,497.04288530000485,None,497.04288530000485,None,497.04288530000485,None,497.8450161998626,None,497.8450161998626,498.3476902998518,,,,,,,,,,,,,,,,201,2023-03-27_13h21.35.129,FishGame,2022.1.1,60.03528874584766,
,16,나를 데려가줘,6,Green,B,0,0,ScrollDown,ScrollUp,Green.png,4,NonTarget,NonTarget,0,0,0,0,,,,,,,,,,,,,,,,,,,,,,,,,0,15,15,15,,,,,,,,,,,,,,,,,,,,,,,,,,,,,,,,,,,,,,,,,,,,,,,,,,,,,,,,,,,,,,,,,,,,,,,,,1.0879629751046498,1.097220600116998,498.96712070005015,None,ScrollDown,정답입니다,498.96712070005015,None,498.96712070005015,None,498.96712070005015,None,498.96712070005015,None,499.96149959997274,None,499.96149959997274,500.4643385000527,,,,,,,,,,,,,,,,201,2023-03-27_13h21.35.129,FishGame,2022.1.1,60.03528874584766,
,17,넌 행복해,1,Orange,A,6.416666666666666,6.166666666666667,ScrollDown,ScrollUp,Orange.png,4,Positive,Congruent,0,0,0,0,,,,,,,,,,,,,,,,,,,,,,,,,0,16,16,16,,,,,,,,,,,,,,,,,,,,,,,,,,,,,,,,,,,,,,,,,,,,,,,,,,,,,,,,,,,,,,,,,,,,,,,,,1.0262345671653748,0.9151073999237269,501.08935849997215,None,ScrollDown,정답입니다,501.08935849997215,None,501.08935849997215,None,501.08935849997215,None,501.08935849997215,None,501.897646300029,None,501.897646300029,502.39762439997867,,,,,,,,,,,,,,,,201,2023-03-27_13h21.35.129,FishGame,2022.1.1,60.03528874584766,
,18,넌 겸손해,2,Green,B,5.791666666666667,4.766666666666667,ScrollUp,ScrollDown,Green.png,4,Positive,Incongruent,0,0,0,0,,,,,,,,,,,,,,,,,,,,,,,,,0,17,17,17,,,,,,,,,,,,,,,,,,,,,,,,,,,,,,,,,,,,,,,,,,,,,,,,,,,,,,,,,,,,,,,,,,,,,,,,,1.6651234552264214,0.8616763998288661,503.02516199997626,None,ScrollUp,정답입니다,503.02516199997626,None,503.02516199997626,None,503.02516199997626,None,503.02516199997626,None,503.7779637000058,None,503.7779637000058,504.2780291000381,,,,,,,,,,,,,,,,201,2023-03-27_13h21.35.129,FishGame,2022.1.1,60.03528874584766,
,19,나를 보내줘,6,Orange,A,0,0,ScrollUp,ScrollDown,Orange.png,4,NonTarget,NonTarget,0,0,0,0,,,,,,,,,,,,,,,,,,,,,,,,,0,18,18,18,,,,,,,,,,,,,,,,,,,,,,,,,,,,,,,,,,,,,,,,,,,,,,,,,,,,,,,,,,,,,,,,,,,,,,,,,1.9290123283863068,1.0146300999913365,504.9012408000417,None,ScrollUp,정답입니다,504.9012408000417,None,504.9012408000417,None,504.9012408000417,None,504.9012408000417,None,505.81128849997185,None,505.81128849997185,506.3113754999358,,,,,,,,,,,,,,,,201,2023-03-27_13h21.35.129,FishGame,2022.1.1,60.03528874584766,
,20,넌 의심없어,3,Orange,A,4.166666666666667,4.6,ScrollDown,ScrollUp,Orange.png,4,Neutral,Neutral,0,0,0,0,,,,,,,,,,,,,,,,,,,,,,,,,0,19,19,19,,,,,,,,,,,,,,,,,,,,,,,,,,,,,,,,,,,,,,,,,,,,,,,,,,,,,,,,,,,,,,,,,,,,,,,,,1,0.9678152999840677,506.93270360003226,None,ScrollDown,정답입니다,506.93270360003226,None,506.93270360003226,None,506.93270360003226,None,506.93270360003226,None,507.797587600071,None,507.797587600071,508.2975391999353,,,,,,,,,,,,,,,,201,2023-03-27_13h21.35.129,FishGame,2022.1.1,60.03528874584766,
,21,넌 시시해,4,Orange,A,2.666666666666667,2.966666666666667,ScrollDown,ScrollUp,Orange.png,4,Negative,Incongruent,0,0,0,0,,,,,,,,,,,,,,,,,,,,,,,,,0,20,20,20,,,,,,,,,,,,,,,,,,,,,,,,,,,,,,,,,,,,,,,,,,,,,,,,,,,,,,,,,,,,,,,,,,,,,,,,,1,0.8833528000395745,508.9209183000494,None,ScrollDown,정답입니다,508.9209183000494,None,508.9209183000494,None,508.9209183000494,None,508.9209183000494,None,509.694909799844,None,509.694909799844,510.19753089989536,,,,,,,,,,,,,,,,201,2023-03-27_13h21.35.129,FishGame,2022.1.1,60.03528874584766,
,22,나를 데려가줘,6,Green,B,0,0,ScrollDown,ScrollUp,Green.png,4,NonTarget,NonTarget,0,0,0,0,,,,,,,,,,,,,,,,,,,,,,,,,0,21,21,21,,,,,,,,,,,,,,,,,,,,,,,,,,,,,,,,,,,,,,,,,,,,,,,,,,,,,,,,,,,,,,,,,,,,,,,,,1,0.9644553000107408,510.8163627998438,None,ScrollDown,정답입니다,510.8163627998438,None,510.8163627998438,None,510.8163627998438,None,510.8163627998438,None,511.6777989999391,None,511.6777989999391,512.1778668998741,,,,,,,,,,,,,,,,201,2023-03-27_13h21.35.129,FishGame,2022.1.1,60.03528874584766,
,23,넌 무정해,5,Orange,A,2.5,2.2,ScrollDown,ScrollUp,Orange.png,4,Negative,Incongruent,0,0,0,0,,,,,,,,,,,,,,,,,,,,,,,,,0,22,22,22,,,,,,,,,,,,,,,,,,,,,,,,,,,,,,,,,,,,,,,,,,,,,,,,,,,,,,,,,,,,,,,,,,,,,,,,,1.0185184975465138,0.8525791999418288,512.7991740999278,None,ScrollDown,정답입니다,512.7991740999278,None,512.7991740999278,None,512.7991740999278,None,512.7991740999278,None,513.5474723998923,None,513.5474723998923,514.0474465000443,,,,,,,,,,,,,,,,201,2023-03-27_13h21.35.129,FishGame,2022.1.1,60.03528874584766,
,24,넌 긍정적이야,1,Green,B,6.041666666666667,6.066666666666666,ScrollUp,ScrollDown,Green.png,4,Positive,Incongruent,0,0,0,0,,,,,,,,,,,,,,,,,,,,,,,,,0,23,23,23,,,,,,,,,,,,,,,,,,,,,,,,,,,,,,,,,,,,,,,,,,,,,,,,,,,,,,,,,,,,,,,,,,,,,,,,,2,0.9000440998934209,514.6704601000529,None,ScrollUp,정답입니다,514.6704601000529,None,514.6704601000529,None,514.6704601000529,None,514.6704601000529,None,515.464095100062,None,515.464095100062,515.9640752999112,,,,,,,,,,,,,,,,201,2023-03-27_13h21.35.129,FishGame,2022.1.1,60.03528874584766,
,25,나를 보내줘,6,Orange,A,0,0,ScrollUp,ScrollDown,Orange.png,4,NonTarget,NonTarget,0,0,0,0,,,,,,,,,,,,,,,,,,,,,,,,,0,24,24,24,,,,,,,,,,,,,,,,,,,,,,,,,,,,,,,,,,,,,,,,,,,,,,,,,,,,,,,,,,,,,,,,,,,,,,,,,1.9429012537002563,1.0760573002044111,516.5890949999448,None,ScrollUp,정답입니다,516.5890949999448,None,516.5890949999448,None,516.5890949999448,None,516.5890949999448,None,517.56127559999,None,517.56127559999,518.0612387000583,,,,,,,,,,,,,,,,201,2023-03-27_13h21.35.129,FishGame,2022.1.1,60.03528874584766,
,26,넌 시기심이 많아,5,Green,B,2.458333333333333,2.233333333333333,ScrollUp,ScrollDown,Green.png,4,Negative,Congruent,0,0,0,0,,,,,,,,,,,,,,,,,,,,,,,,,0,25,25,25,,,,,,,,,,,,,,,,,,,,,,,,,,,,,,,,,,,,,,,,,,,,,,,,,,,,,,,,,,,,,,,,,,,,,,,,,2,0.94796929997392,518.6892335000448,None,ScrollUp,정답입니다,518.6892335000448,None,518.6892335000448,None,518.6892335000448,None,518.6892335000448,None,519.5279471999966,None,519.5279471999966,520.0305763999932,,,,,,,,,,,,,,,,201,2023-03-27_13h21.35.129,FishGame,2022.1.1,60.03528874584766,
,27,넌 탁월해,2,Orange,A,5.708333333333334,4.5,ScrollDown,ScrollUp,Orange.png,4,Positive,Congruent,0,0,0,0,,,,,,,,,,,,,,,,,,,,,,,,,0,26,26,26,,,,,,,,,,,,,,,,,,,,,,,,,,,,,,,,,,,,,,,,,,,,,,,,,,,,,,,,,,,,,,,,,,,,,,,,,1.016975333293279,0.8975000998470932,520.6566105999518,None,ScrollDown,정답입니다,520.6566105999518,None,520.6566105999518,None,520.6566105999518,None,520.6566105999518,None,521.4445718000643,None,521.4445718000643,521.9471787998918,,,,,,,,,,,,,,,,201,2023-03-27_13h21.35.129,FishGame,2022.1.1,60.03528874584766,
,28,나를 데려가줘,6,Green,B,0,0,ScrollDown,ScrollUp,Green.png,4,NonTarget,NonTarget,0,0,0,0,,,,,,,,,,,,,,,,,,,,,,,,,0,27,27,27,,,,,,,,,,,,,,,,,,,,,,,,,,,,,,,,,,,,,,,,,,,,,,,,,,,,,,,,,,,,,,,,,,,,,,,,,1,1.1165920998901129,522.5669883000664,None,ScrollDown,정답입니다,522.5669883000664,None,522.5669883000664,None,522.5669883000664,None,522.5669883000664,None,523.5778798998799,None,523.5778798998799,524.080581399845,,,,,,,,,,,,,,,,201,2023-03-27_13h21.35.129,FishGame,2022.1.1,60.03528874584766,
,29,넌 조용해,3,Green,B,4.333333333333333,4.166666666666667,ScrollUp,ScrollDown,Green.png,4,Neutral,Neutral,0,0,0,0,,,,,,,,,,,,,,,,,,,,,,,,,0,28,28,28,,,,,,,,,,,,,,,,,,,,,,,,,,,,,,,,,,,,,,,,,,,,,,,,,,,,,,,,,,,,,,,,,,,,,,,,,2,0.9482831000350416,524.6969268999528,None,ScrollUp,정답입니다,524.6969268999528,None,524.6969268999528,None,524.6969268999528,None,524.6969268999528,None,525.5441950999666,None,525.5441950999666,526.0441811999772,,,,,,,,,,,,,,,,201,2023-03-27_13h21.35.129,FishGame,2022.1.1,60.03528874584766,
,30,넌 다정해,1,Orange,A,5.833333333333334,5.7,ScrollDown,ScrollUp,Orange.png,4,Positive,Congruent,0,0,0,0,,,,,,,,,,,,,,,,,,,,,,,,,0,29,29,29,,,,,,,,,,,,,,,,,,,,,,,,,,,,,,,,,,,,,,,,,,,,,,,,,,,,,,,,,,,,,,,,,,,,,,,,,1,0.8662252998910844,526.6661604999099,None,ScrollDown,정답입니다,526.6661604999099,None,526.6661604999099,None,526.6661604999099,None,526.6661604999099,None,527.427507000044,None,527.427507000044,527.9275253000669,,,,,,,,,,,,,,,,201,2023-03-27_13h21.35.129,FishGame,2022.1.1,60.03528874584766,
,31,넌 능력있어,2,Green,B,6.166666666666666,4.6,ScrollUp,ScrollDown,Green.png,4,Positive,Incongruent,0,0,0,0,,,,,,,,,,,,,,,,,,,,,,,,,0,30,30,30,,,,,,,,,,,,,,,,,,,,,,,,,,,,,,,,,,,,,,,,,,,,,,,,,,,,,,,,,,,,,,,,,,,,,,,,,2,0.9648091001436114,528.5502275000326,None,ScrollUp,정답입니다,528.5502275000326,None,528.5502275000326,None,528.5502275000326,None,528.5502275000326,None,529.411222100025,None,529.411222100025,529.9137631999329,,,,,,,,,,,,,,,,201,2023-03-27_13h21.35.129,FishGame,2022.1.1,60.03528874584766,
,32,넌 불쾌해,5,Orange,A,2.125,1.933333333333333,ScrollDown,ScrollUp,Orange.png,4,Negative,Incongruent,0,0,0,0,,,,,,,,,,,,,,,,,,,,,,,,,0,31,31,31,,,,,,,,,,,,,,,,,,,,,,,,,,,,,,,,,,,,,,,,,,,,,,,,,,,,,,,,,,,,,,,,,,,,,,,,,1.0709876716136932,0.916411800077185,530.5358907000627,None,ScrollDown,정답입니다,530.5358907000627,None,530.5358907000627,None,530.5358907000627,None,530.5358907000627,None,531.3443469998892,None,531.3443469998892,531.8469531000592,,,,,,,,,,,,,,,,201,2023-03-27_13h21.35.129,FishGame,2022.1.1,60.03528874584766,
,33,나를 데려가줘,6,Green,B,0,0,ScrollDown,ScrollUp,Green.png,4,NonTarget,NonTarget,0,0,0,0,,,,,,,,,,,,,,,,,,,,,,,,,0,32,32,32,,,,,,,,,,,,,,,,,,,,,,,,,,,,,,,,,,,,,,,,,,,,,,,,,,,,,,,,,,,,,,,,,,,,,,,,,1,1.0622140001505613,532.4661954999901,None,ScrollDown,정답입니다,532.4661954999901,None,532.4661954999901,None,532.4661954999901,None,532.4661954999901,None,533.4302687000018,None,533.4302687000018,533.9302715999074,,,,,,,,,,,,,,,,201,2023-03-27_13h21.35.129,FishGame,2022.1.1,60.03528874584766,
,34,넌 유순해,3,Orange,A,4.458333333333333,5,ScrollDown,ScrollUp,Orange.png,4,Neutral,Neutral,0,0,0,0,,,,,,,,,,,,,,,,,,,,,,,,,0,33,33,33,,,,,,,,,,,,,,,,,,,,,,,,,,,,,,,,,,,,,,,,,,,,,,,,,,,,,,,,,,,,,,,,,,,,,,,,,1.0030864079793294,1.0833904999308288,534.5512312999927,None,ScrollDown,정답입니다,534.5512312999927,None,534.5512312999927,None,534.5512312999927,None,534.5512312999927,None,535.5276303000282,None,535.5276303000282,536.0302746999077,,,,,,,,,,,,,,,,201,2023-03-27_13h21.35.129,FishGame,2022.1.1,60.03528874584766,
,35,넌 근심스러워,4,Green,B,2.708333333333333,3.133333333333333,ScrollUp,ScrollDown,Green.png,4,Negative,Congruent,0,0,0,0,,,,,,,,,,,,,,,,,,,,,,,,,0,34,34,34,,,,,,,,,,,,,,,,,,,,,,,,,,,,,,,,,,,,,,,,,,,,,,,,,,,,,,,,,,,,,,,,,,,,,,,,,1.9660493632157643,0.8974719999823719,536.6526074998546,None,ScrollUp,정답입니다,536.6526074998546,None,536.6526074998546,None,536.6526074998546,None,536.6526074998546,None,537.4469403000548,None,537.4469403000548,537.9469389000442,,,,,,,,,,,,,,,,201,2023-03-27_13h21.35.129,FishGame,2022.1.1,60.03528874584766,
,36,넌 세련되었어,2,Orange,A,5.5,4.6,ScrollDown,ScrollUp,Orange.png,4,Positive,Congruent,0,0,0,0,,,,,,,,,,,,,,,,,,,,,,,,,0,35,35,35,,,,,,,,,,,,,,,,,,,,,,,,,,,,,,,,,,,,,,,,,,,,,,,,,,,,,,,,,,,,,,,,,,,,,,,,,1,0.9803456999361515,538.5863727999385,None,ScrollDown,정답입니다,538.5863727999385,None,538.5863727999385,None,538.5863727999385,None,538.5863727999385,None,539.4441509000026,None,539.4441509000026,539.9468268000055,,,,,,,,,,,,,,,,201,2023-03-27_13h21.35.129,FishGame,2022.1.1,60.03528874584766,
,37,나를 보내줘,6,Orange,A,0,0,ScrollUp,ScrollDown,Orange.png,4,NonTarget,NonTarget,0,0,0,0,,,,,,,,,,,,,,,,,,,,,,,,,0,36,36,36,,,,,,,,,,,,,,,,,,,,,,,,,,,,,,,,,,,,,,,,,,,,,,,,,,,,,,,,,,,,,,,,,,,,,,,,,2,1.1832254999317229,540.5710523999296,None,ScrollUp,정답입니다,540.5710523999296,None,540.5710523999296,None,540.5710523999296,None,540.5710523999296,None,541.6469240998849,None,541.6469240998849,542.1467929999344,,,,,,,,,,,,,,,,201,2023-03-27_13h21.35.129,FishGame,2022.1.1,60.03528874584766,
,38,넌 확고해,3,Green,B,4.708333333333334,4.566666666666666,ScrollUp,ScrollDown,Green.png,4,Neutral,Neutral,0,0,0,0,,,,,,,,,,,,,,,,,,,,,,,,,0,37,37,37,,,,,,,,,,,,,,,,,,,,,,,,,,,,,,,,,,,,,,,,,,,,,,,,,,,,,,,,,,,,,,,,,,,,,,,,,2,1.1829795998055488,542.7682397998869,None,ScrollUp,정답입니다,542.7682397998869,None,542.7682397998869,None,542.7682397998869,None,542.7682397998869,None,543.8439688000362,None,543.8439688000362,544.3467911998741,,,,,,,,,,,,,,,,201,2023-03-27_13h21.35.129,FishGame,2022.1.1,60.03528874584766,
,39,넌 이해심이 많아,1,Green,B,6.041666666666668,5.533333333333333,ScrollUp,ScrollDown,Green.png,4,Positive,Incongruent,0,0,0,0,,,,,,,,,,,,,,,,,,,,,,,,,0,38,38,38,,,,,,,,,,,,,,,,,,,,,,,,,,,,,,,,,,,,,,,,,,,,,,,,,,,,,,,,,,,,,,,,,,,,,,,,,1.819444437821706,0.8121377001516521,544.971446499927,None,ScrollUp,정답입니다,544.971446499927,None,544.971446499927,None,544.971446499927,None,544.971446499927,None,545.6800933999475,None,545.6800933999475,546.1801672999281,,,,,,,,,,,,,,,,201,2023-03-27_13h21.35.129,FishGame,2022.1.1,60.03528874584766,
,40,나를 보내줘,6,Orange,A,0,0,ScrollUp,ScrollDown,Orange.png,4,NonTarget,NonTarget,0,0,0,0,,,,,,,,,,,,,,,,,,,,,,,,,0,39,39,39,,,,,,,,,,,,,,,,,,,,,,,,,,,,,,,,,,,,,,,,,,,,,,,,,,,,,,,,,,,,,,,,,,,,,,,,,1.703703703979651,0.9577390998601913,546.8039245998953,None,ScrollUp,정답입니다,546.8039245998953,None,546.8039245998953,None,546.8039245998953,None,546.8039245998953,None,547.6604392998852,None,547.6604392998852,548.1604057999793,,,,,,,,,,,,,,,,201,2023-03-27_13h21.35.129,FishGame,2022.1.1,60.03528874584766,
,41,넌 거칠어,4,Orange,A,2.625,3.033333333333333,ScrollDown,ScrollUp,Orange.png,4,Negative,Incongruent,0,0,0,0,,,,,,,,,,,,,,,,,,,,,,,,,0,40,40,40,,,,,,,,,,,,,,,,,,,,,,,,,,,,,,,,,,,,,,,,,,,,,,,,,,,,,,,,,,,,,,,,,,,,,,,,,1.2515432039896646,0.784510700032115,548.7847952998709,None,ScrollDown,정답입니다,548.7847952998709,None,548.7847952998709,None,548.7847952998709,None,548.7847952998709,None,549.4607814999763,None,549.4607814999763,549.9633909999393,,,,,,,,,,,,,,,,201,2023-03-27_13h21.35.129,FishGame,2022.1.1,60.03528874584766,
,42,넌 변덕맞아,5,Green,B,2.75,2.166666666666667,ScrollUp,ScrollDown,Green.png,4,Negative,Congruent,0,0,0,0,,,,,,,,,,,,,,,,,,,,,,,,,0,41,41,41,,,,,,,,,,,,,,,,,,,,,,,,,,,,,,,,,,,,,,,,,,,,,,,,,,,,,,,,,,,,,,,,,,,,,,,,,1.8749999900658925,0.8481683998834342,550.5882709999569,None,ScrollUp,정답입니다,550.5882709999569,None,550.5882709999569,None,550.5882709999569,None,550.5882709999569,None,551.3273727998603,None,551.3273727998603,551.8300154998433,,,,,,,,,,,,,,,,201,2023-03-27_13h21.35.129,FishGame,2022.1.1,60.03528874584766,
,43,나를 데려가줘,6,Green,B,0,0,ScrollDown,ScrollUp,Green.png,4,NonTarget,NonTarget,0,0,0,0,,,,,,,,,,,,,,,,,,,,,,,,,0,42,42,42,,,,,,,,,,,,,,,,,,,,,,,,,,,,,,,,,,,,,,,,,,,,,,,,,,,,,,,,,,,,,,,,,,,,,,,,,1.1589506169160206,1.014037000015378,552.4493891999591,None,ScrollDown,정답입니다,552.4493891999591,None,552.4493891999591,None,552.4493891999591,None,552.4493891999591,None,553.3631965999957,None,553.3631965999957,553.8632064000703,,,,,,,,,,,,,,,,201,2023-03-27_13h21.35.129,FishGame,2022.1.1,60.03528874584766,
,44,넌 외로워,4,Green,B,2.833333333333333,3.3,ScrollUp,ScrollDown,Green.png,4,Negative,Congruent,0,0,0,0,,,,,,,,,,,,,,,,,,,,,,,,,0,43,43,43,,,,,,,,,,,,,,,,,,,,,,,,,,,,,,,,,,,,,,,,,,,,,,,,,,,,,,,,,,,,,,,,,,,,,,,,,1.90586419403553,1.000167400110513,554.4845877999905,None,ScrollUp,정답입니다,554.4845877999905,None,554.4845877999905,None,554.4845877999905,None,554.4845877999905,None,555.3771883000154,None,555.3771883000154,555.8798134999815,,,,,,,,,,,,,,,,201,2023-03-27_13h21.35.129,FishGame,2022.1.1,60.03528874584766,
,1,넌 불평스러워,5,Orange,A,2.25,2.066666666666667,ScrollDown,ScrollUp,Orange.png,5,Negative,Incongruent,0,0,0,0,,,,,,,,,,,,,,,,,,,,,,,,,,,,,0,0,0,0,,,,,,,,,,,,,,,,,,,,,,,,,,,,587.4596714999061,588.9627826998476,588.99615729996,589.9501532998402,589.9834846998565,590.945945299929,590.945945299929,None,,,,,,,,,,,,,,,,,,,,,,,,,,,,,,,,,,1,1.116949399933219,592.0357057999354,None,ScrollDown,정답입니다,592.0357057999354,None,592.0357057999354,None,592.0357057999354,None,592.0357057999354,None,593.0459123000037,None,593.0459123000037,593.5594949999359,556.3798841999378,None,556.3798841999378,None,0.2361111,-0.107407406,1,0,0,0.01641569985076785,None,586.3930440999102,None,,,201,2023-03-27_13h21.35.129,FishGame,2022.1.1,60.03528874584766,
,2,나를 보내줘,6,Orange,A,0,0,ScrollUp,ScrollDown,Orange.png,5,NonTarget,NonTarget,0,0,0,0,,,,,,,,,,,,,,,,,,,,,,,,,,,,,0,1,1,1,,,,,,,,,,,,,,,,,,,,,,,,,,,,,,,,,,,,,,,,,,,,,,,,,,,,,,,,,,,,,,,,,,,,,1.8317901243766148,0.9491862000431865,594.1790548998397,None,ScrollUp,정답입니다,594.1790548998397,None,594.1790548998397,None,594.1790548998397,None,594.1790548998397,None,595.0261291000061,None,595.0261291000061,595.5261613000184,,,,,,,,,,,,,,,,201,2023-03-27_13h21.35.129,FishGame,2022.1.1,60.03528874584766,
,3,넌 다재다능해,2,Green,B,6.208333333333333,4.5,ScrollUp,ScrollDown,Green.png,5,Positive,Incongruent,0,0,0,0,,,,,,,,,,,,,,,,,,,,,,,,,,,,,0,2,2,2,,,,,,,,,,,,,,,,,,,,,,,,,,,,,,,,,,,,,,,,,,,,,,,,,,,,,,,,,,,,,,,,,,,,,2,0.9320978000760078,596.1510556000285,None,ScrollUp,정답입니다,596.1510556000285,None,596.1510556000285,None,596.1510556000285,None,596.1510556000285,None,596.9792778999545,None,596.9792778999545,597.479122800054,,,,,,,,,,,,,,,,201,2023-03-27_13h21.35.129,FishGame,2022.1.1,60.03528874584766,
,4,넌 과감해,3,Orange,A,4.833333333333334,4.6,ScrollDown,ScrollUp,Orange.png,5,Neutral,Neutral,0,0,0,0,,,,,,,,,,,,,,,,,,,,,,,,,,,,,0,3,3,3,,,,,,,,,,,,,,,,,,,,,,,,,,,,,,,,,,,,,,,,,,,,,,,,,,,,,,,,,,,,,,,,,,,,,1.1543209999799728,0.9455957000609487,598.1006400999613,None,ScrollDown,정답입니다,598.1006400999613,None,598.1006400999613,None,598.1006400999613,None,598.1006400999613,None,598.945668600034,None,598.945668600034,599.4593664000276,,,,,,,,,,,,,,,,201,2023-03-27_13h21.35.129,FishGame,2022.1.1,60.03528874584766,
,5,넌 고분고분해,3,Green,B,3.75,4.033333333333333,ScrollUp,ScrollDown,Green.png,5,Neutral,Neutral,0,0,0,0,,,,,,,,,,,,,,,,,,,,,,,,,,,,,0,4,4,4,,,,,,,,,,,,,,,,,,,,,,,,,,,,,,,,,,,,,,,,,,,,,,,,,,,,,,,,,,,,,,,,,,,,,1.6419753084580102,0.8661047997884452,600.0800272999331,None,ScrollUp,정답입니다,600.0800272999331,None,600.0800272999331,None,600.0800272999331,None,600.0800272999331,None,600.8426775999833,None,600.8426775999833,601.3427184000611,,,,,,,,,,,,,,,,201,2023-03-27_13h21.35.129,FishGame,2022.1.1,60.03528874584766,
,6,나를 보내줘,6,Orange,A,0,0,ScrollUp,ScrollDown,Orange.png,5,NonTarget,NonTarget,0,0,0,0,,,,,,,,,,,,,,,,,,,,,,,,,,,,,0,5,5,5,,,,,,,,,,,,,,,,,,,,,,,,,,,,,,,,,,,,,,,,,,,,,,,,,,,,,,,,,,,,,,,,,,,,,1.8533950696388881,0.9803655999712646,601.967516799923,None,ScrollUp,정답입니다,601.967516799923,None,601.967516799923,None,601.967516799923,None,601.967516799923,None,602.8429755999241,None,602.8429755999241,603.3456454998814,,,,,,,,,,,,,,,,201,2023-03-27_13h21.35.129,FishGame,2022.1.1,60.03528874584766,
,7,넌 잘 잊어,4,Orange,A,3,3.7,ScrollDown,ScrollUp,Orange.png,5,Negative,Incongruent,0,0,0,0,,,,,,,,,,,,,,,,,,,,,,,,,,,,,0,6,6,6,,,,,,,,,,,,,,,,,,,,,,,,,,,,,,,,,,,,,,,,,,,,,,,,,,,,,,,,,,,,,,,,,,,,,1.2438271592060726,1.4953867001459002,603.9712709998712,None,ScrollDown,정답입니다,603.9712709998712,None,603.9712709998712,None,603.9712709998712,None,603.9712709998712,None,605.3595239999704,None,605.3595239999704,605.8621461000293,,,,,,,,,,,,,,,,201,2023-03-27_13h21.35.129,FishGame,2022.1.1,60.03528874584766,
,8,넌 탐구심이없어,4,Green,B,2.833333333333333,3.066666666666667,ScrollUp,ScrollDown,Green.png,5,Negative,Congruent,0,0,0,0,,,,,,,,,,,,,,,,,,,,,,,,,,,,,0,7,7,7,,,,,,,,,,,,,,,,,,,,,,,,,,,,,,,,,,,,,,,,,,,,,,,,,,,,,,,,,,,,,,,,,,,,,1.8148148208856583,0.9640037000644952,606.4852845000569,None,ScrollUp,정답입니다,606.4852845000569,None,606.4852845000569,None,606.4852845000569,None,606.4852845000569,None,607.3454322000034,None,607.3454322000034,607.8426481999923,,,,,,,,,,,,,,,,201,2023-03-27_13h21.35.129,FishGame,2022.1.1,60.03528874584766,
,9,나를 데려가줘,6,Green,B,0,0,ScrollDown,ScrollUp,Green.png,5,NonTarget,NonTarget,0,0,0,0,,,,,,,,,,,,,,,,,,,,,,,,,,,,,0,8,8,8,,,,,,,,,,,,,,,,,,,,,,,,,,,,,,,,,,,,,,,,,,,,,,,,,,,,,,,,,,,,,,,,,,,,,1.0632716019948323,1.0499837000388652,608.4646355998702,None,ScrollDown,정답입니다,608.4646355998702,None,608.4646355998702,None,608.4646355998702,None,608.4646355998702,None,609.40944879991,None,609.40944879991,609.9120833999477,,,,,,,,,,,,,,,,201,2023-03-27_13h21.35.129,FishGame,2022.1.1,60.03528874584766,
,10,넌 참되어,2,Orange,A,6.041666666666664,4.733333333333333,ScrollDown,ScrollUp,Orange.png,5,Positive,Congruent,0,0,0,0,,,,,,,,,,,,,,,,,,,,,,,,,,,,,0,9,9,9,,,,,,,,,,,,,,,,,,,,,,,,,,,,,,,,,,,,,,,,,,,,,,,,,,,,,,,,,,,,,,,,,,,,,1.1141975373029709,1.0315270000137389,610.5356890000403,None,ScrollDown,정답입니다,610.5356890000403,None,610.5356890000403,None,610.5356890000403,None,610.5356890000403,None,611.459477599943,None,611.459477599943,611.9620590999257,,,,,,,,,,,,,,,,201,2023-03-27_13h21.35.129,FishGame,2022.1.1,60.03528874584766,
,11,넌 생기있어,1,Green,B,5.875,5.633333333333334,ScrollUp,ScrollDown,Green.png,5,Positive,Incongruent,0,0,0,0,,,,,,,,,,,,,,,,,,,,,,,,,,,,,0,10,10,10,,,,,,,,,,,,,,,,,,,,,,,,,,,,,,,,,,,,,,,,,,,,,,,,,,,,,,,,,,,,,,,,,,,,,1.879629631837209,0.8819428000133485,612.5835336998571,None,ScrollUp,정답입니다,612.5835336998571,None,612.5835336998571,None,612.5835336998571,None,612.5835336998571,None,613.3594450000674,None,613.3594450000674,613.8668337999843,,,,,,,,,,,,,,,,201,2023-03-27_13h21.35.129,FishGame,2022.1.1,60.03528874584766,
,12,넌 비사교적이야,4,Green,B,2.875,2.9,ScrollUp,ScrollDown,Green.png,5,Negative,Congruent,0,0,0,0,,,,,,,,,,,,,,,,,,,,,,,,,,,,,0,11,11,11,,,,,,,,,,,,,,,,,,,,,,,,,,,,,,,,,,,,,,,,,,,,,,,,,,,,,,,,,,,,,,,,,,,,,1.6913580298423767,0.9146390999667346,614.4813303998671,None,ScrollUp,정답입니다,614.4813303998671,None,614.4813303998671,None,614.4813303998671,None,614.4813303998671,None,615.2924178999383,None,615.2924178999383,615.7924343999475,,,,,,,,,,,,,,,,201,2023-03-27_13h21.35.129,FishGame,2022.1.1,60.03528874584766,
,13,나를 데려가줘,6,Green,B,0,0,ScrollDown,ScrollUp,Green.png,5,NonTarget,NonTarget,0,0,0,0,,,,,,,,,,,,,,,,,,,,,,,,,,,,,0,12,12,12,,,,,,,,,,,,,,,,,,,,,,,,,,,,,,,,,,,,,,,,,,,,,,,,,,,,,,,,,,,,,,,,,,,,,1,1.0694718998856843,616.410517500015,None,ScrollDown,정답입니다,616.410517500015,None,616.410517500015,None,616.410517500015,None,616.410517500015,None,617.3788453999441,None,617.3788453999441,617.878703000024,,,,,,,,,,,,,,,,201,2023-03-27_13h21.35.129,FishGame,2022.1.1,60.03528874584766,
,14,넌 고독해,4,Orange,A,2.916666666666667,3.233333333333333,ScrollDown,ScrollUp,Orange.png,5,Negative,Incongruent,0,0,0,0,,,,,,,,,,,,,,,,,,,,,,,,,,,,,0,13,13,13,,,,,,,,,,,,,,,,,,,,,,,,,,,,,,,,,,,,,,,,,,,,,,,,,,,,,,,,,,,,,,,,,,,,,1,0.9835099999327213,618.500551099889,None,ScrollDown,정답입니다,618.500551099889,None,618.500551099889,None,618.500551099889,None,618.500551099889,None,619.3760271999054,None,619.3760271999054,619.8786494999658,,,,,,,,,,,,,,,,201,2023-03-27_13h21.35.129,FishGame,2022.1.1,60.03528874584766,
,15,넌 신경질적이야,5,Green,B,2.375,2.233333333333333,ScrollUp,ScrollDown,Green.png,5,Negative,Congruent,0,0,0,0,,,,,,,,,,,,,,,,,,,,,,,,,,,,,0,14,14,14,,,,,,,,,,,,,,,,,,,,,,,,,,,,,,,,,,,,,,,,,,,,,,,,,,,,,,,,,,,,,,,,,,,,,1.8024691343307495,0.9332183999940753,620.5066722999327,None,ScrollUp,정답입니다,620.5066722999327,None,620.5066722999327,None,620.5066722999327,None,620.5066722999327,None,621.3258328000084,None,621.3258328000084,621.8284688000567,,,,,,,,,,,,,,,,201,2023-03-27_13h21.35.129,FishGame,2022.1.1,60.03528874584766,
,16,넌 똑똑해,2,Green,B,5.666666666666667,3.966666666666667,ScrollUp,ScrollDown,Green.png,5,Positive,Incongruent,0,0,0,0,,,,,,,,,,,,,,,,,,,,,,,,,,,,,0,15,15,15,,,,,,,,,,,,,,,,,,,,,,,,,,,,,,,,,,,,,,,,,,,,,,,,,,,,,,,,,,,,,,,,,,,,,2,0.8001602999866009,622.4558574999683,None,ScrollUp,정답입니다,622.4558574999683,None,622.4558574999683,None,622.4558574999683,None,622.4558574999683,None,623.1452426998876,None,623.1452426998876,623.645139799919,,,,,,,,,,,,,,,,201,2023-03-27_13h21.35.129,FishGame,2022.1.1,60.03528874584766,
,17,나를 보내줘,6,Orange,A,0,0,ScrollUp,ScrollDown,Orange.png,5,NonTarget,NonTarget,0,0,0,0,,,,,,,,,,,,,,,,,,,,,,,,,,,,,0,16,16,16,,,,,,,,,,,,,,,,,,,,,,,,,,,,,,,,,,,,,,,,,,,,,,,,,,,,,,,,,,,,,,,,,,,,,1.90586419403553,0.9786326000466943,624.2695354998577,None,ScrollUp,정답입니다,624.2695354998577,None,624.2695354998577,None,624.2695354998577,None,624.2695354998577,None,625.1424861999694,None,625.1424861999694,625.645105500007,,,,,,,,,,,,,,,,201,2023-03-27_13h21.35.129,FishGame,2022.1.1,60.03528874584766,
,18,넌 협조적이야,1,Orange,A,5.625,5.666666666666667,ScrollDown,ScrollUp,Orange.png,5,Positive,Congruent,0,0,0,0,,,,,,,,,,,,,,,,,,,,,,,,,,,,,0,17,17,17,,,,,,,,,,,,,,,,,,,,,,,,,,,,,,,,,,,,,,,,,,,,,,,,,,,,,,,,,,,,,,,,,,,,,1,0.9501504001673311,626.2664272000547,None,ScrollDown,정답입니다,626.2664272000547,None,626.2664272000547,None,626.2664272000547,None,626.2664272000547,None,627.1091416999698,None,627.1091416999698,627.6117877999786,,,,,,,,,,,,,,,,201,2023-03-27_13h21.35.129,FishGame,2022.1.1,60.03528874584766,
,19,나를 데려가줘,6,Green,B,0,0,ScrollDown,ScrollUp,Green.png,5,NonTarget,NonTarget,0,0,0,0,,,,,,,,,,,,,,,,,,,,,,,,,,,,,0,18,18,18,,,,,,,,,,,,,,,,,,,,,,,,,,,,,,,,,,,,,,,,,,,,,,,,,,,,,,,,,,,,,,,,,,,,,1.212962955236435,0.7992794001474977,628.2330682000611,None,ScrollDown,정답입니다,628.2330682000611,None,628.2330682000611,None,628.2330682000611,None,628.2330682000611,None,628.9257091998588,None,628.9257091998588,629.4283540998586,,,,,,,,,,,,,,,,201,2023-03-27_13h21.35.129,FishGame,2022.1.1,60.03528874584766,
,20,넌 몰인정해,5,Green,B,2.541666666666667,2.066666666666667,ScrollUp,ScrollDown,Green.png,5,Negative,Congruent,0,0,0,0,,,,,,,,,,,,,,,,,,,,,,,,,,,,,0,19,19,19,,,,,,,,,,,,,,,,,,,,,,,,,,,,,,,,,,,,,,,,,,,,,,,,,,,,,,,,,,,,,,,,,,,,,1.9567901293436687,0.8669646000489593,630.0504034999758,None,ScrollUp,정답입니다,630.0504034999758,None,630.0504034999758,None,630.0504034999758,None,630.0504034999758,None,630.8118793999311,None,630.8118793999311,631.3089898000471,,,,,,,,,,,,,,,,201,2023-03-27_13h21.35.129,FishGame,2022.1.1,60.03528874584766,
,21,나를 데려가줘,6,Green,B,0,0,ScrollDown,ScrollUp,Green.png,5,NonTarget,NonTarget,0,0,0,0,,,,,,,,,,,,,,,,,,,,,,,,,,,,,0,20,20,20,,,,,,,,,,,,,,,,,,,,,,,,,,,,,,,,,,,,,,,,,,,,,,,,,,,,,,,,,,,,,,,,,,,,,1.0416666567325592,1.1500329000409693,631.9308157998603,None,ScrollDown,정답입니다,631.9308157998603,None,631.9308157998603,None,631.9308157998603,None,631.9308157998603,None,632.9782946000341,None,632.9782946000341,633.4949683998711,,,,,,,,,,,,,,,,201,2023-03-27_13h21.35.129,FishGame,2022.1.1,60.03528874584766,
,22,넌 순진해,3,Green,B,4.125,4.166666666666667,ScrollUp,ScrollDown,Green.png,5,Neutral,Neutral,0,0,0,0,,,,,,,,,,,,,,,,,,,,,,,,,,,,,0,21,21,21,,,,,,,,,,,,,,,,,,,,,,,,,,,,,,,,,,,,,,,,,,,,,,,,,,,,,,,,,,,,,,,,,,,,,1.8904321044683456,0.8815500000491738,634.0965219999198,None,ScrollUp,정답입니다,634.0965219999198,None,634.0965219999198,None,634.0965219999198,None,634.0965219999198,None,634.8756391999777,None,634.8756391999777,635.3782848999836,,,,,,,,,,,,,,,,201,2023-03-27_13h21.35.129,FishGame,2022.1.1,60.03528874584766,
