name,TrialNum,Word,WordCategory,FishType,WordList,WordValence,WordReputation,CorrectResp,IncorrectResp,FishTypeFile,Round,WordType,Condition,LoopforOrange.thisRepN,LoopforOrange.thisTrialN,LoopforOrange.thisN,LoopforOrange.thisIndex,LoopForGreen.thisRepN,LoopForGreen.thisTrialN,LoopForGreen.thisN,LoopForGreen.thisIndex,GreenInstLoop.thisRepN,GreenInstLoop.thisTrialN,GreenInstLoop.thisN,GreenInstLoop.thisIndex,GreenPrac.thisRepN,GreenPrac.thisTrialN,GreenPrac.thisN,GreenPrac.thisIndex,trials_2.thisRepN,trials_2.thisTrialN,trials_2.thisN,trials_2.thisIndex,GreenRound1.thisRepN,GreenRound1.thisTrialN,GreenRound1.thisN,GreenRound1.thisIndex,GreenRound2.thisRepN,GreenRound2.thisTrialN,GreenRound2.thisN,GreenRound2.thisIndex,GreenRound3.thisRepN,GreenRound3.thisTrialN,GreenRound3.thisN,GreenRound3.thisIndex,GreenRound4.thisRepN,GreenRound4.thisTrialN,GreenRound4.thisN,GreenRound4.thisIndex,GreenRound5.thisRepN,GreenRound5.thisTrialN,GreenRound5.thisN,GreenRound5.thisIndex,text_2.started,text_2.stopped,text_3.started,text_3.stopped,key_resp.keys,key_resp.rt,key_resp.started,key_resp.stopped,PassI.started,PassI.stopped,PassInst.keys,PassInst.rt,PassInst.started,PassInst.stopped,mouse_2.x,mouse_2.y,mouse_2.leftButton,mouse_2.midButton,mouse_2.rightButton,mouse_2.started,mouse_2.stopped,image.started,image.stopped,text_5.started,text_5.stopped,text_6.started,text_6.stopped,text_7.started,text_7.stopped,text_8.started,text_8.stopped,slider_3.response,slider_3.rt,slider_3.started,slider_3.stopped,Response_3,Feedback_3,BackGround_3.started,BackGround_3.stopped,Fish_3.started,Fish_3.stopped,WordBox_3.started,WordBox_3.stopped,Words_3.started,Words_3.stopped,BackGround_Feedback_3.started,BackGround_Feedback_3.stopped,Feedbacks_3.started,Feedbacks_3.stopped,Continue_or_not_2.keys,Continue_or_not_2.rt,Continue_or_not_2.started,Continue_or_not_2.stopped,image_4.started,image_4.stopped,mouse_3.x,mouse_3.y,mouse_3.leftButton,mouse_3.midButton,mouse_3.rightButton,mouse_3.started,mouse_3.stopped,startmain.started,startmain.stopped,slider_4.response,slider_4.rt,slider_4.started,slider_4.stopped,Response_4,Feedback_4,BackGround_4.started,BackGround_4.stopped,Fish_4.started,Fish_4.stopped,WordBox_4.started,WordBox_4.stopped,Words_4.started,Words_4.stopped,BackGround_Feedback_4.started,BackGround_Feedback_4.stopped,Feedbacks_4.started,Feedbacks_4.stopped,text.started,text.stopped,break_interval.started,break_interval.stopped,mouse.x,mouse.y,mouse.leftButton,mouse.midButton,mouse.rightButton,mouse.started,mouse.stopped,stratnextround.started,stratnextround.stopped,endgame.started,endgame.stopped,participant,date,expName,psychopyVersion,frameRate,
,,,,,,,,,,,,,,,,,,,,,,,,,,,,,,,,,,,,,,,,,,,,,,,,,,,,,,19.197479699971154,None,19.197479699971154,None,space,3.3337568000424653,19.690333700040355,None,,,,,,,,,,,,,,,,,,,,,,,,,,,,,,,,,,,,,,,,,,,,,,,,,,,,,,,,,,,,,,,,,,,,,,,,,,,,,,,,,,,,,,,,,,202,2023-03-27_15h50.22.080,FishGame,2022.1.1,59.87468232544888,
물고기과제_instruction(참가자용)GreenVersion.mp4,,,,,,,,,,,,,,,,,,0,0,0,0,0,0,0,0,,,,,,,,,,,,,,,,,,,,,,,,,,,,,,,,,,,,,96.26808739989065,None,y,1.724270900245756,96.26808739989065,None,,,,,,,,,,,,,,,,,,,,,,,,,,,,,,,,,,,,,,,,,,,,,,,,,,,,,,,,,,,,,,,,,,,,,,,,,,,,,,,,,,,,202,2023-03-27_15h50.22.080,FishGame,2022.1.1,59.87468232544888,
물고기과제_instruction(참가자용)GreenVersion.mp4,,,,,,,,,,,,,,,,,,0,0,0,0,0,1,1,1,,,,,,,,,,,,,,,,,,,,,,,,,,,,,,,,,,,,,102.86517079989426,None,n,2.487722499994561,102.86517079989426,None,,,,,,,,,,,,,,,,,,,,,,,,,,,,,,,,,,,,,,,,,,,,,,,,,,,,,,,,,,,,,,,,,,,,,,,,,,,,,,,,,,,,202,2023-03-27_15h50.22.080,FishGame,2022.1.1,59.87468232544888,
,1,넌 교활해,5,Orange,B,2.333333333333333,2.133333333333333,ScrollUp,ScrollDown,Orange.png,practice,,,,,,,0,0,0,0,,,,,0,0,0,0,0,0,0,0,,,,,,,,,,,,,,,,,,,,,,,,,,,,,,,,,,,0.043518517,-0.23425926,1,0,0,0.5114976197946817,None,105.38448580005206,None,110.46774049988016,111.96785239991732,112.0011551999487,112.95113489986397,113.00112390005961,113.95115029998124,113.95115029998124,None,1.6265432064731917,1.685414700070396,115.25698159984313,None,ScrollUp,정답입니다,115.25698159984313,None,115.25698159984313,None,115.25698159984313,None,115.25698159984313,None,116.63132909988053,None,116.63132909988053,117.13123239995912,,,,,,,,,,,,,,,,,,,,,,,,,,,,,,,,,,,,,,,,,,,,,,,,,202,2023-03-27_15h50.22.080,FishGame,2022.1.1,59.87468232544888,
,2,넌 슬기로워,2,Green,A,6.166666666666667,4.1,ScrollDown,ScrollUp,Green.png,practice,,,,,,,0,0,0,0,,,,,0,0,0,0,0,1,1,1,,,,,,,,,,,,,,,,,,,,,,,,,,,,,,,,,,,,,,,,,,,,,,,,,,,,1.2885802388191223,0.7355101001448929,117.75548870000057,None,ScrollDown,정답입니다,117.75548870000057,None,117.75548870000057,None,117.75548870000057,None,117.75548870000057,None,118.38438169984147,None,118.38438169984147,118.88425699993968,,,,,,,,,,,,,,,,,,,,,,,,,,,,,,,,,,,,,,,,,,,,,,,,,202,2023-03-27_15h50.22.080,FishGame,2022.1.1,59.87468232544888,
,3,나를 보내줘,6,Green,A,0,0,ScrollUp,ScrollDown,Green.png,practice,,,,,,,0,0,0,0,,,,,0,0,0,0,0,2,2,2,,,,,,,,,,,,,,,,,,,,,,,,,,,,,,,,,,,,,,,,,,,,,,,,,,,,1.5354938271145024,1.512156100012362,119.50792389991693,None,NoResponse,무응답입니다,119.50792389991693,None,119.50792389991693,None,119.50792389991693,None,119.50792389991693,None,120.91757939988747,None,120.91757939988747,121.4174949999433,,,,,,,,,,,,,,,,,,,,,,,,,,,,,,,,,,,,,,,,,,,,,,,,,202,2023-03-27_15h50.22.080,FishGame,2022.1.1,59.87468232544888,
,4,나를 데려가줘,6,Orange,B,0,0,ScrollDown,ScrollUp,Orange.png,practice,,,,,,,0,0,0,0,,,,,0,0,0,0,0,3,3,3,,,,,,,,,,,,,,,,,,,,,,,,,,,,,,,,,,,,,,,,,,,,,,,,,,,,1.1543209999799728,1.4622221998870373,122.05343979992904,None,ScrollDown,정답입니다,122.05343979992904,None,122.05343979992904,None,122.05343979992904,None,122.05343979992904,None,123.39801919995807,None,123.39801919995807,123.90067799994722,,,,,,,,,,,,,,,,,,,,,,,,,,,,,,,,,,,,,,,,,,,,,,,,,202,2023-03-27_15h50.22.080,FishGame,2022.1.1,59.87468232544888,
,1,넌 교활해,5,Orange,B,2.333333333333333,2.133333333333333,ScrollUp,ScrollDown,Orange.png,practice,,,,,,,0,0,0,0,,,,,0,0,0,0,,,,,,,,,,,,,,,,,,,,,,,,,,,,,,,,,,,,,,,,,,,,,,,,,,,,,,,,,,,,,,,,,,,,,,,,,,n,5.123584300046787,124.40070390002802,None,124.40070390002802,None,,,,,,,,,,,,,,,,,,,,,,,,,,,,,,,,,,,,,,,,,,,202,2023-03-27_15h50.22.080,FishGame,2022.1.1,59.87468232544888,
,1,넌 따뜻해,1,Orange,B,6.083333333333333,5.6,ScrollUp,ScrollDown,Orange.png,1,Positive,Incongruent,,,,,0,0,0,0,,,,,,,,,,,,,0,0,0,0,,,,,,,,,,,,,,,,,,,,,,,,,,,,,,,,,,,,,,,,132.41727309999987,133.9174990998581,133.9507619999349,134.9053416000679,134.93826029985212,135.9006087000016,135.9006087000016,None,,,,,,,,,,,,,,,,,,,,,,,,,0.041666668,-0.11388889,1,0,0,0.314749619923532,None,129.55055029992945,None,1.7114197611808777,1.8019889001734555,137.20856199995615,None,ScrollUp,정답입니다,137.20856199995615,None,137.20856199995615,None,137.20856199995615,None,137.20856199995615,None,138.69749489985406,None,138.69749489985406,139.19745039986446,,,,,,,,,,,,,,,,202,2023-03-27_15h50.22.080,FishGame,2022.1.1,59.87468232544888,
,2,넌 기품있어,2,Orange,B,5.791666666666668,4.5,ScrollUp,ScrollDown,Orange.png,1,Positive,Incongruent,,,,,0,0,0,0,,,,,,,,,,,,,0,1,1,1,,,,,,,,,,,,,,,,,,,,,,,,,,,,,,,,,,,,,,,,,,,,,,,,,,,,,,,,,,,,,,,,,,,,,,,,,,,,,,,,,1.6682098706563315,0.9615805000066757,139.83491929993033,None,ScrollUp,정답입니다,139.83491929993033,None,139.83491929993033,None,139.83491929993033,None,139.83491929993033,None,140.68373589986004,None,140.68373589986004,141.18375199986622,,,,,,,,,,,,,,,,202,2023-03-27_15h50.22.080,FishGame,2022.1.1,59.87468232544888,
,3,나를 보내줘,6,Green,A,0,0,ScrollUp,ScrollDown,Green.png,1,NonTarget,NonTarget,,,,,0,0,0,0,,,,,,,,,,,,,0,2,2,2,,,,,,,,,,,,,,,,,,,,,,,,,,,,,,,,,,,,,,,,,,,,,,,,,,,,,,,,,,,,,,,,,,,,,,,,,,,,,,,,,1.7453703681627908,1.1317090999800712,141.81311380001716,None,ScrollUp,정답입니다,141.81311380001716,None,141.81311380001716,None,141.81311380001716,None,141.81311380001716,None,142.8337154998444,None,142.8337154998444,143.33366260002367,,,,,,,,,,,,,,,,202,2023-03-27_15h50.22.080,FishGame,2022.1.1,59.87468232544888,
,4,넌 수동적이야,4,Green,A,2.833333333333333,2.933333333333333,ScrollDown,ScrollUp,Green.png,1,Negative,Incongruent,,,,,0,0,0,0,,,,,,,,,,,,,0,3,3,3,,,,,,,,,,,,,,,,,,,,,,,,,,,,,,,,,,,,,,,,,,,,,,,,,,,,,,,,,,,,,,,,,,,,,,,,,,,,,,,,,1.194444437821706,1.0336048000026494,143.963562999852,None,ScrollDown,정답입니다,143.963562999852,None,143.963562999852,None,143.963562999852,None,143.963562999852,None,144.8837518999353,None,144.8837518999353,145.38802769989707,,,,,,,,,,,,,,,,202,2023-03-27_15h50.22.080,FishGame,2022.1.1,59.87468232544888,
,5,넌 사심이 없어,3,Orange,B,4.916666666666666,4.333333333333333,ScrollUp,ScrollDown,Orange.png,1,Neutral,Neutral,,,,,0,0,0,0,,,,,,,,,,,,,0,4,4,4,,,,,,,,,,,,,,,,,,,,,,,,,,,,,,,,,,,,,,,,,,,,,,,,,,,,,,,,,,,,,,,,,,,,,,,,,,,,,,,,,1.6280864203969636,1.0991954999044538,146.02549989987165,None,ScrollUp,정답입니다,146.02549989987165,None,146.02549989987165,None,146.02549989987165,None,146.02549989987165,None,147.01397569989786,None,147.01397569989786,147.51400489988737,,,,,,,,,,,,,,,,202,2023-03-27_15h50.22.080,FishGame,2022.1.1,59.87468232544888,
,6,넌 헤퍼,5,Green,A,2.458333333333334,2.233333333333333,ScrollDown,ScrollUp,Green.png,1,Negative,Incongruent,,,,,0,0,0,0,,,,,,,,,,,,,0,5,5,5,,,,,,,,,,,,,,,,,,,,,,,,,,,,,,,,,,,,,,,,,,,,,,,,,,,,,,,,,,,,,,,,,,,,,,,,,,,,,,,,,1.1774691343307495,0.8981923998799175,148.1455367000308,None,ScrollDown,정답입니다,148.1455367000308,None,148.1455367000308,None,148.1455367000308,None,148.1455367000308,None,148.93368469993584,None,148.93368469993584,149.43359749997035,,,,,,,,,,,,,,,,202,2023-03-27_15h50.22.080,FishGame,2022.1.1,59.87468232544888,
,7,넌 말쑥해,3,Green,A,4.833333333333334,4.333333333333333,ScrollDown,ScrollUp,Green.png,1,Neutral,Neutral,,,,,0,0,0,0,,,,,,,,,,,,,0,6,6,6,,,,,,,,,,,,,,,,,,,,,,,,,,,,,,,,,,,,,,,,,,,,,,,,,,,,,,,,,,,,,,,,,,,,,,,,,,,,,,,,,1.141975313425064,0.9813079000450671,150.05953169986606,None,ScrollDown,정답입니다,150.05953169986606,None,150.05953169986606,None,150.05953169986606,None,150.05953169986606,None,150.93364199995995,None,150.93364199995995,151.43351730005816,,,,,,,,,,,,,,,,202,2023-03-27_15h50.22.080,FishGame,2022.1.1,59.87468232544888,
,8,넌 투덜거려,5,Orange,B,2.541666666666667,2.266666666666667,ScrollUp,ScrollDown,Orange.png,1,Negative,Congruent,,,,,0,0,0,0,,,,,,,,,,,,,0,7,7,7,,,,,,,,,,,,,,,,,,,,,,,,,,,,,,,,,,,,,,,,,,,,,,,,,,,,,,,,,,,,,,,,,,,,,,,,,,,,,,,,,1.6666666691501937,0.9666478000581264,152.0640233999584,None,ScrollUp,정답입니다,152.0640233999584,None,152.0640233999584,None,152.0640233999584,None,152.0640233999584,None,152.91419199993834,None,152.91419199993834,153.42122079990804,,,,,,,,,,,,,,,,202,2023-03-27_15h50.22.080,FishGame,2022.1.1,59.87468232544888,
,9,넌 적극적이야,1,Green,A,5.708333333333333,5.533333333333333,ScrollDown,ScrollUp,Green.png,1,Positive,Congruent,,,,,0,0,0,0,,,,,,,,,,,,,0,8,8,8,,,,,,,,,,,,,,,,,,,,,,,,,,,,,,,,,,,,,,,,,,,,,,,,,,,,,,,,,,,,,,,,,,,,,,,,,,,,,,,,,1.347222218910853,0.7802701999899,154.0434532999061,None,ScrollDown,정답입니다,154.0434532999061,None,154.0434532999061,None,154.0434532999061,None,154.0434532999061,None,154.71381910005584,None,154.71381910005584,155.21379269985482,,,,,,,,,,,,,,,,202,2023-03-27_15h50.22.080,FishGame,2022.1.1,59.87468232544888,
,10,넌 재미없어,4,Orange,B,2.625,2.966666666666667,ScrollUp,ScrollDown,Orange.png,1,Negative,Congruent,,,,,0,0,0,0,,,,,,,,,,,,,0,9,9,9,,,,,,,,,,,,,,,,,,,,,,,,,,,,,,,,,,,,,,,,,,,,,,,,,,,,,,,,,,,,,,,,,,,,,,,,,,,,,,,,,1.5046296297417334,0.8027573998551816,155.84717159997672,None,NoResponse,무응답입니다,155.84717159997672,None,155.84717159997672,None,155.84717159997672,None,155.84717159997672,None,156.53365259990096,None,156.53365259990096,157.0334280000534,,,,,,,,,,,,,,,,202,2023-03-27_15h50.22.080,FishGame,2022.1.1,59.87468232544888,
,11,넌 명석해,2,Green,A,5.875,4.033333333333333,ScrollDown,ScrollUp,Green.png,1,Positive,Congruent,,,,,0,0,0,0,,,,,,,,,,,,,0,10,10,10,,,,,,,,,,,,,,,,,,,,,,,,,,,,,,,,,,,,,,,,,,,,,,,,,,,,,,,,,,,,,,,,,,,,,,,,,,,,,,,,,1.2854938358068466,0.8334468000102788,157.66589279985055,None,ScrollDown,정답입니다,157.66589279985055,None,157.66589279985055,None,157.66589279985055,None,157.66589279985055,None,158.38084340002388,None,158.38084340002388,158.8833764998708,,,,,,,,,,,,,,,,202,2023-03-27_15h50.22.080,FishGame,2022.1.1,59.87468232544888,
,12,나를 데려가줘,6,Orange,B,0,0,ScrollDown,ScrollUp,Orange.png,1,NonTarget,NonTarget,,,,,0,0,0,0,,,,,,,,,,,,,0,11,11,11,,,,,,,,,,,,,,,,,,,,,,,,,,,,,,,,,,,,,,,,,,,,,,,,,,,,,,,,,,,,,,,,,,,,,,,,,,,,,,,,,1.0370370149612427,1.2311231000348926,159.52269859984517,None,ScrollDown,정답입니다,159.52269859984517,None,159.52269859984517,None,159.52269859984517,None,159.52269859984517,None,160.63036790001206,None,160.63036790001206,161.1303467999678,,,,,,,,,,,,,,,,202,2023-03-27_15h50.22.080,FishGame,2022.1.1,59.87468232544888,
,13,넌 소심해,4,Green,A,3,3.1,ScrollDown,ScrollUp,Green.png,1,Negative,Incongruent,,,,,0,0,0,0,,,,,,,,,,,,,0,12,12,12,,,,,,,,,,,,,,,,,,,,,,,,,,,,,,,,,,,,,,,,,,,,,,,,,,,,,,,,,,,,,,,,,,,,,,,,,,,,,,,,,1.28703702489535,0.8832790001761168,161.75505389994942,None,ScrollDown,정답입니다,161.75505389994942,None,161.75505389994942,None,161.75505389994942,None,161.75505389994942,None,162.5334819999989,None,162.5334819999989,163.03333500004373,,,,,,,,,,,,,,,,202,2023-03-27_15h50.22.080,FishGame,2022.1.1,59.87468232544888,
,14,넌 합리적이야,2,Green,A,5.583333333333333,4.733333333333333,ScrollDown,ScrollUp,Green.png,1,Positive,Congruent,,,,,0,0,0,0,,,,,,,,,,,,,0,13,13,13,,,,,,,,,,,,,,,,,,,,,,,,,,,,,,,,,,,,,,,,,,,,,,,,,,,,,,,,,,,,,,,,,,,,,,,,,,,,,,,,,1.2237654278675716,0.7832607000600547,163.66623699991032,None,ScrollDown,정답입니다,163.66623699991032,None,163.66623699991032,None,163.66623699991032,None,163.66623699991032,None,164.33321659988724,None,164.33321659988724,164.8332698000595,,,,,,,,,,,,,,,,202,2023-03-27_15h50.22.080,FishGame,2022.1.1,59.87468232544888,
,15,넌 무자비해,5,Orange,B,2.333333333333333,2.1,ScrollUp,ScrollDown,Orange.png,1,Negative,Congruent,,,,,0,0,0,0,,,,,,,,,,,,,0,14,14,14,,,,,,,,,,,,,,,,,,,,,,,,,,,,,,,,,,,,,,,,,,,,,,,,,,,,,,,,,,,,,,,,,,,,,,,,,,,,,,,,,1.6157407462596893,0.7329814999829978,165.47377939987928,None,ScrollUp,정답입니다,165.47377939987928,None,165.47377939987928,None,165.47377939987928,None,165.47377939987928,None,166.08336200006306,None,166.08336200006306,166.58319979999214,,,,,,,,,,,,,,,,202,2023-03-27_15h50.22.080,FishGame,2022.1.1,59.87468232544888,
,16,나를 보내줘,6,Green,A,0,0,ScrollUp,ScrollDown,Green.png,1,NonTarget,NonTarget,,,,,0,0,0,0,,,,,,,,,,,,,0,15,15,15,,,,,,,,,,,,,,,,,,,,,,,,,,,,,,,,,,,,,,,,,,,,,,,,,,,,,,,,,,,,,,,,,,,,,,,,,,,,,,,,,1.174382706483205,0.9165751000400633,167.2079980999697,None,ScrollDown,오답입니다,167.2079980999697,None,167.2079980999697,None,167.2079980999697,None,167.2079980999697,None,168.01654049986973,None,168.01654049986973,168.51655289996415,,,,,,,,,,,,,,,,202,2023-03-27_15h50.22.080,FishGame,2022.1.1,59.87468232544888,
,17,넌 현실적이야,3,Orange,B,4.608695652173913,4.766666666666667,ScrollUp,ScrollDown,Orange.png,1,Neutral,Neutral,,,,,0,0,0,0,,,,,,,,,,,,,0,16,16,16,,,,,,,,,,,,,,,,,,,,,,,,,,,,,,,,,,,,,,,,,,,,,,,,,,,,,,,,,,,,,,,,,,,,,,,,,,,,,,,,,1.5524691368142762,1.0787178999744356,169.14500520005822,None,ScrollUp,정답입니다,169.14500520005822,None,169.14500520005822,None,169.14500520005822,None,169.14500520005822,None,170.11352390004322,None,170.11352390004322,170.6136298000347,,,,,,,,,,,,,,,,202,2023-03-27_15h50.22.080,FishGame,2022.1.1,59.87468232544888,
,18,넌 의리있어,1,Orange,B,5.833333333333334,5.633333333333334,ScrollUp,ScrollDown,Orange.png,1,Positive,Incongruent,,,,,0,0,0,0,,,,,,,,,,,,,0,17,17,17,,,,,,,,,,,,,,,,,,,,,,,,,,,,,,,,,,,,,,,,,,,,,,,,,,,,,,,,,,,,,,,,,,,,,,,,,,,,,,,,,1.5478395074605942,1.1981726998928934,171.24993669986725,None,NoResponse,무응답입니다,171.24993669986725,None,171.24993669986725,None,171.24993669986725,None,171.24993669986725,None,172.33334459993057,None,172.33334459993057,172.8331422000192,,,,,,,,,,,,,,,,202,2023-03-27_15h50.22.080,FishGame,2022.1.1,59.87468232544888,
,19,넌 신경과민이야,5,Green,A,2.541666666666667,2.166666666666667,ScrollDown,ScrollUp,Green.png,1,Negative,Incongruent,,,,,0,0,0,0,,,,,,,,,,,,,0,18,18,18,,,,,,,,,,,,,,,,,,,,,,,,,,,,,,,,,,,,,,,,,,,,,,,,,,,,,,,,,,,,,,,,,,,,,,,,,,,,,,,,,1.1882716069618862,0.9289851000066847,173.4628490000032,None,ScrollDown,정답입니다,173.4628490000032,None,173.4628490000032,None,173.4628490000032,None,173.4628490000032,None,174.28312559984624,None,174.28312559984624,174.78306749998592,,,,,,,,,,,,,,,,202,2023-03-27_15h50.22.080,FishGame,2022.1.1,59.87468232544888,
,20,넌 편안해,1,Green,A,5.916666666666666,5.866666666666666,ScrollDown,ScrollUp,Green.png,1,Positive,Congruent,,,,,0,0,0,0,,,,,,,,,,,,,0,19,19,19,,,,,,,,,,,,,,,,,,,,,,,,,,,,,,,,,,,,,,,,,,,,,,,,,,,,,,,,,,,,,,,,,,,,,,,,,,,,,,,,,1.200617293516795,0.8798515000380576,175.43252409994602,None,ScrollDown,정답입니다,175.43252409994602,None,175.43252409994602,None,175.43252409994602,None,175.43252409994602,None,176.19670800003223,None,176.19670800003223,176.6975560998544,,,,,,,,,,,,,,,,202,2023-03-27_15h50.22.080,FishGame,2022.1.1,59.87468232544888,
,21,넌 품위있어,2,Orange,B,5.291666666666666,4.466666666666667,ScrollUp,ScrollDown,Orange.png,1,Positive,Incongruent,,,,,0,0,0,0,,,,,,,,,,,,,0,20,20,20,,,,,,,,,,,,,,,,,,,,,,,,,,,,,,,,,,,,,,,,,,,,,,,,,,,,,,,,,,,,,,,,,,,,,,,,,,,,,,,,,1.6419753084580102,0.8113893999252468,177.33121429989114,None,ScrollUp,정답입니다,177.33121429989114,None,177.33121429989114,None,177.33121429989114,None,177.33121429989114,None,178.0300582998898,None,178.0300582998898,178.5330898000393,,,,,,,,,,,,,,,,202,2023-03-27_15h50.22.080,FishGame,2022.1.1,59.87468232544888,
,22,넌 빈틈없어,3,Green,A,4.833333333333333,3.966666666666667,ScrollDown,ScrollUp,Green.png,1,Neutral,Neutral,,,,,0,0,0,0,,,,,,,,,,,,,0,21,21,21,,,,,,,,,,,,,,,,,,,,,,,,,,,,,,,,,,,,,,,,,,,,,,,,,,,,,,,,,,,,,,,,,,,,,,,,,,,,,,,,,1.1635802586873372,0.8666948000900447,179.16557860001922,None,ScrollDown,정답입니다,179.16557860001922,None,179.16557860001922,None,179.16557860001922,None,179.16557860001922,None,179.9163968998473,None,179.9163968998473,180.41629019984975,,,,,,,,,,,,,,,,202,2023-03-27_15h50.22.080,FishGame,2022.1.1,59.87468232544888,
,23,넌 상상력없어,4,Orange,B,2.833333333333333,3.133333333333333,ScrollUp,ScrollDown,Orange.png,1,Negative,Congruent,,,,,0,0,0,0,,,,,,,,,,,,,0,22,22,22,,,,,,,,,,,,,,,,,,,,,,,,,,,,,,,,,,,,,,,,,,,,,,,,,,,,,,,,,,,,,,,,,,,,,,,,,,,,,,,,,1.6265432064731917,0.9000616001430899,181.04498180001974,None,ScrollUp,정답입니다,181.04498180001974,None,181.04498180001974,None,181.04498180001974,None,181.04498180001974,None,181.83020860003307,None,181.83020860003307,182.33280209987424,,,,,,,,,,,,,,,,202,2023-03-27_15h50.22.080,FishGame,2022.1.1,59.87468232544888,
,24,넌 지혜로워,2,Orange,B,6.333333333333334,4.633333333333334,ScrollUp,ScrollDown,Orange.png,1,Positive,Incongruent,,,,,0,0,0,0,,,,,,,,,,,,,0,23,23,23,,,,,,,,,,,,,,,,,,,,,,,,,,,,,,,,,,,,,,,,,,,,,,,,,,,,,,,,,,,,,,,,,,,,,,,,,,,,,,,,,1.6651234552264214,0.9999364998657256,182.96300440002233,None,ScrollUp,정답입니다,182.96300440002233,None,182.96300440002233,None,182.96300440002233,None,182.96300440002233,None,183.84946529986337,None,183.84946529986337,184.34944959986024,,,,,,,,,,,,,,,,202,2023-03-27_15h50.22.080,FishGame,2022.1.1,59.87468232544888,
,25,넌 시끄러워,4,Green,A,2.833333333333333,3.033333333333333,ScrollDown,ScrollUp,Green.png,1,Negative,Incongruent,,,,,0,0,0,0,,,,,,,,,,,,,0,24,24,24,,,,,,,,,,,,,,,,,,,,,,,,,,,,,,,,,,,,,,,,,,,,,,,,,,,,,,,,,,,,,,,,,,,,,,,,,,,,,,,,,1.2237654278675716,0.7315360999200493,184.97626969986595,None,ScrollDown,정답입니다,184.97626969986595,None,184.97626969986595,None,184.97626969986595,None,184.97626969986595,None,185.59683119994588,None,185.59683119994588,186.09949199995026,,,,,,,,,,,,,,,,202,2023-03-27_15h50.22.080,FishGame,2022.1.1,59.87468232544888,
,26,넌 만사태평이야,3,Orange,B,4,4.333333333333333,ScrollUp,ScrollDown,Orange.png,1,Neutral,Neutral,,,,,0,0,0,0,,,,,,,,,,,,,0,25,25,25,,,,,,,,,,,,,,,,,,,,,,,,,,,,,,,,,,,,,,,,,,,,,,,,,,,,,,,,,,,,,,,,,,,,,,,,,,,,,,,,,1.5756172835826874,0.79994530021213,186.73070179997012,None,ScrollUp,정답입니다,186.73070179997012,None,186.73070179997012,None,186.73070179997012,None,186.73070179997012,None,187.41608759993687,None,187.41608759993687,187.91611499991268,,,,,,,,,,,,,,,,202,2023-03-27_15h50.22.080,FishGame,2022.1.1,59.87468232544888,
,27,넌 붙임성있어,1,Green,A,5.708333333333333,5.633333333333334,ScrollDown,ScrollUp,Green.png,1,Positive,Congruent,,,,,0,0,0,0,,,,,,,,,,,,,0,26,26,26,,,,,,,,,,,,,,,,,,,,,,,,,,,,,,,,,,,,,,,,,,,,,,,,,,,,,,,,,,,,,,,,,,,,,,,,,,,,,,,,,1.2793209801117578,0.7002195999957621,188.5439955999609,None,ScrollDown,정답입니다,188.5439955999609,None,188.5439955999609,None,188.5439955999609,None,188.5439955999609,None,189.13010349986143,None,189.13010349986143,189.6327873999253,,,,,,,,,,,,,,,,202,2023-03-27_15h50.22.080,FishGame,2022.1.1,59.87468232544888,
,28,넌 영리해,2,Green,A,6,4.033333333333333,ScrollDown,ScrollUp,Green.png,1,Positive,Congruent,,,,,0,0,0,0,,,,,,,,,,,,,0,27,27,27,,,,,,,,,,,,,,,,,,,,,,,,,,,,,,,,,,,,,,,,,,,,,,,,,,,,,,,,,,,,,,,,,,,,,,,,,,,,,,,,,1.1851851791143417,0.7923922999761999,190.2618563999422,None,ScrollDown,정답입니다,190.2618563999422,None,190.2618563999422,None,190.2618563999422,None,190.2618563999422,None,190.9464073998388,None,190.9464073998388,191.44638599990867,,,,,,,,,,,,,,,,202,2023-03-27_15h50.22.080,FishGame,2022.1.1,59.87468232544888,
,29,넌 열심이야,1,Orange,B,6.041666666666667,5.833333333333333,ScrollUp,ScrollDown,Orange.png,1,Positive,Incongruent,,,,,0,0,0,0,,,,,,,,,,,,,0,28,28,28,,,,,,,,,,,,,,,,,,,,,,,,,,,,,,,,,,,,,,,,,,,,,,,,,,,,,,,,,,,,,,,,,,,,,,,,,,,,,,,,,1.527777779226502,0.7294504998717457,192.0786444998812,None,NoResponse,무응답입니다,192.0786444998812,None,192.0786444998812,None,192.0786444998812,None,192.0786444998812,None,192.69940739986487,None,192.69940739986487,193.19939289987087,,,,,,,,,,,,,,,,202,2023-03-27_15h50.22.080,FishGame,2022.1.1,59.87468232544888,
,30,넌 인기없어,4,Orange,B,3,3.3,ScrollUp,ScrollDown,Orange.png,1,Negative,Congruent,,,,,0,0,0,0,,,,,,,,,,,,,0,29,29,29,,,,,,,,,,,,,,,,,,,,,,,,,,,,,,,,,,,,,,,,,,,,,,,,,,,,,,,,,,,,,,,,,,,,,,,,,,,,,,,,,1.5555555584530034,0.8169430000707507,193.83211109996773,None,ScrollUp,정답입니다,193.83211109996773,None,193.83211109996773,None,193.83211109996773,None,193.83211109996773,None,194.53271759999916,None,194.53271759999916,195.0493276999332,,,,,,,,,,,,,,,,202,2023-03-27_15h50.22.080,FishGame,2022.1.1,59.87468232544888,
,31,넌 익살스러워,3,Green,A,4.708333333333334,4.833333333333333,ScrollDown,ScrollUp,Green.png,1,Neutral,Neutral,,,,,0,0,0,0,,,,,,,,,,,,,0,30,30,30,,,,,,,,,,,,,,,,,,,,,,,,,,,,,,,,,,,,,,,,,,,,,,,,,,,,,,,,,,,,,,,,,,,,,,,,,,,,,,,,,1.276234577099482,0.9286323999986053,195.66603079997003,None,ScrollDown,정답입니다,195.66603079997003,None,195.66603079997003,None,195.66603079997003,None,195.66603079997003,None,196.4825685999822,None,196.4825685999822,196.9826056000311,,,,,,,,,,,,,,,,202,2023-03-27_15h50.22.080,FishGame,2022.1.1,59.87468232544888,
,32,넌 이기적이야,5,Orange,B,2.291666666666667,2.333333333333333,ScrollUp,ScrollDown,Orange.png,1,Negative,Congruent,,,,,0,0,0,0,,,,,,,,,,,,,0,31,31,31,,,,,,,,,,,,,,,,,,,,,,,,,,,,,,,,,,,,,,,,,,,,,,,,,,,,,,,,,,,,,,,,,,,,,,,,,,,,,,,,,1.609567902982235,0.7328661000356078,197.6241452000104,None,ScrollUp,정답입니다,197.6241452000104,None,197.6241452000104,None,197.6241452000104,None,197.6241452000104,None,198.2492475998588,None,198.2492475998588,198.7492462999653,,,,,,,,,,,,,,,,202,2023-03-27_15h50.22.080,FishGame,2022.1.1,59.87468232544888,
,33,나를 데려가줘,6,Orange,B,0,0,ScrollDown,ScrollUp,Orange.png,1,NonTarget,NonTarget,,,,,0,0,0,0,,,,,,,,,,,,,0,32,32,32,,,,,,,,,,,,,,,,,,,,,,,,,,,,,,,,,,,,,,,,,,,,,,,,,,,,,,,,,,,,,,,,,,,,,,,,,,,,,,,,,1.1959876517454784,1.9668280999176204,199.37896770006046,None,ScrollDown,정답입니다,199.37896770006046,None,199.37896770006046,None,199.37896770006046,None,199.37896770006046,None,201.23260149988346,None,201.23260149988346,201.73253679997288,,,,,,,,,,,,,,,,202,2023-03-27_15h50.22.080,FishGame,2022.1.1,59.87468232544888,
,34,넌 기회주의자야,5,Green,A,2.875,2.133333333333333,ScrollDown,ScrollUp,Green.png,1,Negative,Incongruent,,,,,0,0,0,0,,,,,,,,,,,,,0,33,33,33,,,,,,,,,,,,,,,,,,,,,,,,,,,,,,,,,,,,,,,,,,,,,,,,,,,,,,,,,,,,,,,,,,,,,,,,,,,,,,,,,1.2993827114502587,1.0816058998461813,202.37682799994946,None,ScrollDown,정답입니다,202.37682799994946,None,202.37682799994946,None,202.37682799994946,None,202.37682799994946,None,203.34613609989174,None,203.34613609989174,203.846141200047,,,,,,,,,,,,,,,,202,2023-03-27_15h50.22.080,FishGame,2022.1.1,59.87468232544888,
,1,넌 미성숙해,4,Green,A,3,3.2,ScrollDown,ScrollUp,Green.png,2,Negative,Incongruent,,,,,0,0,0,0,,,,,,,,,,,,,,,,,0,0,0,0,,,,,,,,,,,,,,,,,,,,,,,,,,,,,,,,,,,,237.51512779993936,239.01516640000045,239.04851079988293,239.99847649992444,240.04846740001813,241.00281239999458,241.00281239999458,None,,,,,,,,,,,,,,,,,,,,,,,,,,,,,,,,,,1.180555562178294,1.0006276001222432,242.122935899999,None,ScrollDown,정답입니다,242.122935899999,None,242.122935899999,None,242.122935899999,None,242.122935899999,None,243.01231939997524,None,243.01231939997524,243.51498019997962,204.34619439998642,None,204.34619439998642,None,0.21944444,-0.09259259,1,0,0,0.016127920243889093,None,234.3455338999629,None,,,202,2023-03-27_15h50.22.080,FishGame,2022.1.1,59.87468232544888,
,2,넌 반사회적이야,5,Orange,B,2.416666666666667,2.033333333333333,ScrollUp,ScrollDown,Orange.png,2,Negative,Congruent,,,,,0,0,0,0,,,,,,,,,,,,,,,,,0,1,1,1,,,,,,,,,,,,,,,,,,,,,,,,,,,,,,,,,,,,,,,,,,,,,,,,,,,,,,,,,,,,,,,,,,,,,,,,,,,,,1.7746913582086563,0.9479888998903334,244.14270900003612,None,ScrollUp,정답입니다,244.14270900003612,None,244.14270900003612,None,244.14270900003612,None,244.14270900003612,None,244.9789795000106,None,244.9789795000106,245.48162259999663,,,,,,,,,,,,,,,,202,2023-03-27_15h50.22.080,FishGame,2022.1.1,59.87468232544888,
,3,넌 유능해,2,Green,A,6.208333333333333,4.433333333333334,ScrollDown,ScrollUp,Green.png,2,Positive,Congruent,,,,,0,0,0,0,,,,,,,,,,,,,,,,,0,2,2,2,,,,,,,,,,,,,,,,,,,,,,,,,,,,,,,,,,,,,,,,,,,,,,,,,,,,,,,,,,,,,,,,,,,,,,,,,,,,,1.162037044763565,0.7138044000603259,246.10829779994674,None,ScrollDown,정답입니다,246.10829779994674,None,246.10829779994674,None,246.10829779994674,None,246.10829779994674,None,246.7149211000651,None,246.7149211000651,247.2148533000145,,,,,,,,,,,,,,,,202,2023-03-27_15h50.22.080,FishGame,2022.1.1,59.87468232544888,
,4,넌 능숙해,2,Orange,B,5.666666666666667,4.733333333333333,ScrollUp,ScrollDown,Orange.png,2,Positive,Incongruent,,,,,0,0,0,0,,,,,,,,,,,,,,,,,0,3,3,3,,,,,,,,,,,,,,,,,,,,,,,,,,,,,,,,,,,,,,,,,,,,,,,,,,,,,,,,,,,,,,,,,,,,,,,,,,,,,1.5771604912976422,0.7315320998895913,247.84091599984095,None,ScrollUp,정답입니다,247.84091599984095,None,247.84091599984095,None,247.84091599984095,None,247.84091599984095,None,248.46488510002382,None,248.46488510002382,248.96481460006908,,,,,,,,,,,,,,,,202,2023-03-27_15h50.22.080,FishGame,2022.1.1,59.87468232544888,
,5,넌 진부해,4,Orange,B,2.458333333333333,3.166666666666667,ScrollUp,ScrollDown,Orange.png,2,Negative,Congruent,,,,,0,0,0,0,,,,,,,,,,,,,,,,,0,4,4,4,,,,,,,,,,,,,,,,,,,,,,,,,,,,,,,,,,,,,,,,,,,,,,,,,,,,,,,,,,,,,,,,,,,,,,,,,,,,,1.1280864129463832,0.8311528998892754,249.59282270004041,None,ScrollDown,오답입니다,249.59282270004041,None,249.59282270004041,None,249.59282270004041,None,249.59282270004041,None,250.31511419988237,None,250.31511419988237,250.81479600002058,,,,,,,,,,,,,,,,202,2023-03-27_15h50.22.080,FishGame,2022.1.1,59.87468232544888,
,6,나를 보내줘,6,Green,A,0,0,ScrollUp,ScrollDown,Green.png,2,NonTarget,NonTarget,,,,,0,0,0,0,,,,,,,,,,,,,,,,,0,5,5,5,,,,,,,,,,,,,,,,,,,,,,,,,,,,,,,,,,,,,,,,,,,,,,,,,,,,,,,,,,,,,,,,,,,,,,,,,,,,,1.9444444676240284,1.333494700025767,251.4368497999385,None,ScrollUp,정답입니다,251.4368497999385,None,251.4368497999385,None,251.4368497999385,None,251.4368497999385,None,252.66209780005738,None,252.66209780005738,253.16477559995838,,,,,,,,,,,,,,,,202,2023-03-27_15h50.22.080,FishGame,2022.1.1,59.87468232544888,
,7,넌 엄격해,3,Green,A,4.166666666666666,4.1,ScrollDown,ScrollUp,Green.png,2,Neutral,Neutral,,,,,0,0,0,0,,,,,,,,,,,,,,,,,0,6,6,6,,,,,,,,,,,,,,,,,,,,,,,,,,,,,,,,,,,,,,,,,,,,,,,,,,,,,,,,,,,,,,,,,,,,,,,,,,,,,1.182098776102066,0.8306018998846412,253.79676179983653,None,ScrollDown,정답입니다,253.79676179983653,None,253.79676179983653,None,253.79676179983653,None,253.79676179983653,None,254.5147619000636,None,254.5147619000636,255.01914189988747,,,,,,,,,,,,,,,,202,2023-03-27_15h50.22.080,FishGame,2022.1.1,59.87468232544888,
,8,나를 보내줘,6,Green,A,0,0,ScrollUp,ScrollDown,Green.png,2,NonTarget,NonTarget,,,,,0,0,0,0,,,,,,,,,,,,,,,,,0,7,7,7,,,,,,,,,,,,,,,,,,,,,,,,,,,,,,,,,,,,,,,,,,,,,,,,,,,,,,,,,,,,,,,,,,,,,,,,,,,,,1.8101851791143417,1.0814533999655396,255.64813149999827,None,ScrollUp,정답입니다,255.64813149999827,None,255.64813149999827,None,255.64813149999827,None,255.64813149999827,None,256.62839960004203,None,256.62839960004203,257.12846240005456,,,,,,,,,,,,,,,,202,2023-03-27_15h50.22.080,FishGame,2022.1.1,59.87468232544888,
,9,넌 대담해,3,Orange,B,4.875,4.866666666666666,ScrollUp,ScrollDown,Orange.png,2,Neutral,Neutral,,,,,0,0,0,0,,,,,,,,,,,,,,,,,0,8,8,8,,,,,,,,,,,,,,,,,,,,,,,,,,,,,,,,,,,,,,,,,,,,,,,,,,,,,,,,,,,,,,,,,,,,,,,,,,,,,1.7932098756233852,0.8650003999937326,257.7596899999771,None,ScrollUp,정답입니다,257.7596899999771,None,257.7596899999771,None,257.7596899999771,None,257.7596899999771,None,258.51475790003315,None,258.51475790003315,259.0146877998486,,,,,,,,,,,,,,,,202,2023-03-27_15h50.22.080,FishGame,2022.1.1,59.87468232544888,
,10,넌 꾸준해,1,Green,A,5.916666666666668,5.8,ScrollDown,ScrollUp,Green.png,2,Positive,Congruent,,,,,0,0,0,0,,,,,,,,,,,,,,,,,0,9,9,9,,,,,,,,,,,,,,,,,,,,,,,,,,,,,,,,,,,,,,,,,,,,,,,,,,,,,,,,,,,,,,,,,,,,,,,,,,,,,1.276234577099482,0.8147277000825852,259.64035909995437,None,ScrollDown,정답입니다,259.64035909995437,None,259.64035909995437,None,259.64035909995437,None,259.64035909995437,None,260.3453434999101,None,260.3453434999101,260.8523856999818,,,,,,,,,,,,,,,,202,2023-03-27_15h50.22.080,FishGame,2022.1.1,59.87468232544888,
,11,나를 데려가줘,6,Orange,B,0,0,ScrollDown,ScrollUp,Orange.png,2,NonTarget,NonTarget,,,,,0,0,0,0,,,,,,,,,,,,,,,,,0,10,10,10,,,,,,,,,,,,,,,,,,,,,,,,,,,,,,,,,,,,,,,,,,,,,,,,,,,,,,,,,,,,,,,,,,,,,,,,,,,,,1.1358024577299755,1.2499603000469506,261.4673895998858,None,ScrollDown,정답입니다,261.4673895998858,None,261.4673895998858,None,261.4673895998858,None,261.4673895998858,None,262.61164060002193,None,262.61164060002193,263.1152578999754,,,,,,,,,,,,,,,,202,2023-03-27_15h50.22.080,FishGame,2022.1.1,59.87468232544888,
,12,넌 독선적이야,5,Green,A,2.458333333333333,1.933333333333333,ScrollDown,ScrollUp,Green.png,2,Negative,Incongruent,,,,,0,0,0,0,,,,,,,,,,,,,,,,,0,11,11,11,,,,,,,,,,,,,,,,,,,,,,,,,,,,,,,,,,,,,,,,,,,,,,,,,,,,,,,,,,,,,,,,,,,,,,,,,,,,,1.347222218910853,0.766507500084117,263.74115499993786,None,ScrollDown,정답입니다,263.74115499993786,None,263.74115499993786,None,263.74115499993786,None,263.74115499993786,None,264.39526559994556,None,264.39526559994556,264.89791060006246,,,,,,,,,,,,,,,,202,2023-03-27_15h50.22.080,FishGame,2022.1.1,59.87468232544888,
,13,나를 보내줘,6,Green,A,0,0,ScrollUp,ScrollDown,Green.png,2,NonTarget,NonTarget,,,,,0,0,0,0,,,,,,,,,,,,,,,,,0,12,12,12,,,,,,,,,,,,,,,,,,,,,,,,,,,,,,,,,,,,,,,,,,,,,,,,,,,,,,,,,,,,,,,,,,,,,,,,,,,,,1.7824074029922485,1.047269299859181,265.5258950998541,None,ScrollUp,정답입니다,265.5258950998541,None,265.5258950998541,None,265.5258950998541,None,265.5258950998541,None,266.46453469991684,None,266.46453469991684,266.96451189997606,,,,,,,,,,,,,,,,202,2023-03-27_15h50.22.080,FishGame,2022.1.1,59.87468232544888,
,14,넌 책임감있어,1,Orange,B,6.347826086956522,6,ScrollUp,ScrollDown,Orange.png,2,Positive,Incongruent,,,,,0,0,0,0,,,,,,,,,,,,,,,,,0,13,13,13,,,,,,,,,,,,,,,,,,,,,,,,,,,,,,,,,,,,,,,,,,,,,,,,,,,,,,,,,,,,,,,,,,,,,,,,,,,,,1.6697530845801034,0.7666711998172104,267.59433689992875,None,ScrollUp,정답입니다,267.59433689992875,None,267.59433689992875,None,267.59433689992875,None,267.59433689992875,None,268.24517819983885,None,268.24517819983885,268.7478175999131,,,,,,,,,,,,,,,,202,2023-03-27_15h50.22.080,FishGame,2022.1.1,59.87468232544888,
,15,넌 문학적이야,3,Green,A,4.708333333333334,4.333333333333333,ScrollDown,ScrollUp,Green.png,2,Neutral,Neutral,,,,,0,0,0,0,,,,,,,,,,,,,,,,,0,14,14,14,,,,,,,,,,,,,,,,,,,,,,,,,,,,,,,,,,,,,,,,,,,,,,,,,,,,,,,,,,,,,,,,,,,,,,,,,,,,,1.253086417913437,0.864678299985826,269.3743557999842,None,ScrollDown,정답입니다,269.3743557999842,None,269.3743557999842,None,269.3743557999842,None,269.3743557999842,None,270.1284711000044,None,270.1284711000044,270.63105949992314,,,,,,,,,,,,,,,,202,2023-03-27_15h50.22.080,FishGame,2022.1.1,59.87468232544888,
,16,넌 재미있어,1,Orange,B,5.875,5.7,ScrollUp,ScrollDown,Orange.png,2,Positive,Incongruent,,,,,0,0,0,0,,,,,,,,,,,,,,,,,0,15,15,15,,,,,,,,,,,,,,,,,,,,,,,,,,,,,,,,,,,,,,,,,,,,,,,,,,,,,,,,,,,,,,,,,,,,,,,,,,,,,1.6944444452722869,0.8979507000185549,271.2603708000388,None,ScrollUp,정답입니다,271.2603708000388,None,271.2603708000388,None,271.2603708000388,None,271.2603708000388,None,272.04508679988794,None,272.04508679988794,272.5476387999952,,,,,,,,,,,,,,,,202,2023-03-27_15h50.22.080,FishGame,2022.1.1,59.87468232544888,
,17,나를 데려가줘,6,Orange,B,0,0,ScrollDown,ScrollUp,Orange.png,2,NonTarget,NonTarget,,,,,0,0,0,0,,,,,,,,,,,,,,,,,0,16,16,16,,,,,,,,,,,,,,,,,,,,,,,,,,,,,,,,,,,,,,,,,,,,,,,,,,,,,,,,,,,,,,,,,,,,,,,,,,,,,1.0447530845801036,1.2315403998363763,273.17244579992257,None,ScrollDown,정답입니다,273.17244579992257,None,273.17244579992257,None,273.17244579992257,None,273.17244579992257,None,274.2951376000419,None,274.2951376000419,274.7976140999235,,,,,,,,,,,,,,,,202,2023-03-27_15h50.22.080,FishGame,2022.1.1,59.87468232544888,
,18,넌 협력적이야,1,Green,A,5.625,5.633333333333334,ScrollDown,ScrollUp,Green.png,2,Positive,Congruent,,,,,0,0,0,0,,,,,,,,,,,,,,,,,0,17,17,17,,,,,,,,,,,,,,,,,,,,,,,,,,,,,,,,,,,,,,,,,,,,,,,,,,,,,,,,,,,,,,,,,,,,,,,,,,,,,1.2175925970077515,1.048044899944216,275.4227990000509,None,ScrollDown,정답입니다,275.4227990000509,None,275.4227990000509,None,275.4227990000509,None,275.4227990000509,None,276.36164029990323,None,276.36164029990323,276.86431179987267,,,,,,,,,,,,,,,,202,2023-03-27_15h50.22.080,FishGame,2022.1.1,59.87468232544888,
,19,넌 평범해,3,Orange,B,4.333333333333332,4.233333333333333,ScrollUp,ScrollDown,Orange.png,2,Neutral,Neutral,,,,,0,0,0,0,,,,,,,,,,,,,,,,,0,18,18,18,,,,,,,,,,,,,,,,,,,,,,,,,,,,,,,,,,,,,,,,,,,,,,,,,,,,,,,,,,,,,,,,,,,,,,,,,,,,,1.7716049303611119,0.766774200135842,277.49038559990004,None,ScrollUp,정답입니다,277.49038559990004,None,277.49038559990004,None,277.49038559990004,None,277.49038559990004,None,278.14771159994416,None,278.14771159994416,278.64764750003815,,,,,,,,,,,,,,,,202,2023-03-27_15h50.22.080,FishGame,2022.1.1,59.87468232544888,
,20,넌 오만해,5,Green,A,2.333333333333333,2,ScrollDown,ScrollUp,Green.png,2,Negative,Incongruent,,,,,0,0,0,0,,,,,,,,,,,,,,,,,0,19,19,19,,,,,,,,,,,,,,,,,,,,,,,,,,,,,,,,,,,,,,,,,,,,,,,,,,,,,,,,,,,,,,,,,,,,,,,,,,,,,1.1959876517454784,0.8468271000310779,279.2746035999153,None,ScrollDown,정답입니다,279.2746035999153,None,279.2746035999153,None,279.2746035999153,None,279.2746035999153,None,280.0112759999465,None,280.0112759999465,280.51126659987494,,,,,,,,,,,,,,,,202,2023-03-27_15h50.22.080,FishGame,2022.1.1,59.87468232544888,
,21,넌 운이없어,4,Orange,B,3,3.466666666666667,ScrollUp,ScrollDown,Orange.png,2,Negative,Congruent,,,,,0,0,0,0,,,,,,,,,,,,,,,,,0,20,20,20,,,,,,,,,,,,,,,,,,,,,,,,,,,,,,,,,,,,,,,,,,,,,,,,,,,,,,,,,,,,,,,,,,,,,,,,,,,,,1.699074074625969,0.8644987000152469,281.1360985999927,None,ScrollUp,정답입니다,281.1360985999927,None,281.1360985999927,None,281.1360985999927,None,281.1360985999927,None,281.8946121998597,None,281.8946121998597,282.3976952000521,,,,,,,,,,,,,,,,202,2023-03-27_15h50.22.080,FishGame,2022.1.1,59.87468232544888,
,22,넌 창조적이야,2,Orange,B,6.125,4.633333333333334,ScrollUp,ScrollDown,Orange.png,2,Positive,Incongruent,,,,,0,0,0,0,,,,,,,,,,,,,,,,,0,21,21,21,,,,,,,,,,,,,,,,,,,,,,,,,,,,,,,,,,,,,,,,,,,,,,,,,,,,,,,,,,,,,,,,,,,,,,,,,,,,,1.7283950646718345,0.8482051999308169,283.0241523999721,None,ScrollUp,정답입니다,283.0241523999721,None,283.0241523999721,None,283.0241523999721,None,283.0241523999721,None,283.7615602000151,None,283.7615602000151,284.2641950000543,,,,,,,,,,,,,,,,202,2023-03-27_15h50.22.080,FishGame,2022.1.1,59.87468232544888,
,23,나를 보내줘,6,Green,A,0,0,ScrollUp,ScrollDown,Green.png,2,NonTarget,NonTarget,,,,,0,0,0,0,,,,,,,,,,,,,,,,,0,22,22,22,,,,,,,,,,,,,,,,,,,,,,,,,,,,,,,,,,,,,,,,,,,,,,,,,,,,,,,,,,,,,,,,,,,,,,,,,,,,,1.6358024651805558,1.064320100005716,284.88478589989245,None,ScrollUp,정답입니다,284.88478589989245,None,284.88478589989245,None,284.88478589989245,None,284.88478589989245,None,285.84472549986094,None,285.84472549986094,286.34738599997945,,,,,,,,,,,,,,,,202,2023-03-27_15h50.22.080,FishGame,2022.1.1,59.87468232544888,
,24,넌 통찰력있어,2,Green,A,6.5,4.8,ScrollDown,ScrollUp,Green.png,2,Positive,Congruent,,,,,0,0,0,0,,,,,,,,,,,,,,,,,0,23,23,23,,,,,,,,,,,,,,,,,,,,,,,,,,,,,,,,,,,,,,,,,,,,,,,,,,,,,,,,,,,,,,,,,,,,,,,,,,,,,1.1836419651905696,0.6832981999032199,286.97282759984955,None,ScrollDown,정답입니다,286.97282759984955,None,286.97282759984955,None,286.97282759984955,None,286.97282759984955,None,287.5447184999939,None,287.5447184999939,288.0473714999389,,,,,,,,,,,,,,,,202,2023-03-27_15h50.22.080,FishGame,2022.1.1,59.87468232544888,
,25,넌 경솔해,5,Orange,B,2.458333333333333,2.266666666666667,ScrollUp,ScrollDown,Orange.png,2,Negative,Congruent,,,,,0,0,0,0,,,,,,,,,,,,,,,,,0,24,24,24,,,,,,,,,,,,,,,,,,,,,,,,,,,,,,,,,,,,,,,,,,,,,,,,,,,,,,,,,,,,,,,,,,,,,,,,,,,,,1.7391975373029709,0.9333679000847042,288.6733190000523,None,ScrollUp,정답입니다,288.6733190000523,None,288.6733190000523,None,288.6733190000523,None,288.6733190000523,None,289.49473019992,None,289.49473019992,289.9973245000001,,,,,,,,,,,,,,,,202,2023-03-27_15h50.22.080,FishGame,2022.1.1,59.87468232544888,
,26,넌 초조해,4,Green,A,2.916666666666667,3.133333333333333,ScrollDown,ScrollUp,Green.png,2,Negative,Incongruent,,,,,0,0,0,0,,,,,,,,,,,,,,,,,0,25,25,25,,,,,,,,,,,,,,,,,,,,,,,,,,,,,,,,,,,,,,,,,,,,,,,,,,,,,,,,,,,,,,,,,,,,,,,,,,,,,1.2608024626970291,0.8832099998835474,290.6251538998913,None,ScrollDown,정답입니다,290.6251538998913,None,290.6251538998913,None,290.6251538998913,None,290.6251538998913,None,291.39470599987544,None,291.39470599987544,291.89732609991916,,,,,,,,,,,,,,,,202,2023-03-27_15h50.22.080,FishGame,2022.1.1,59.87468232544888,
,27,넌 무관심해,4,Orange,B,2.833333333333333,2.9,ScrollUp,ScrollDown,Orange.png,2,Negative,Congruent,,,,,0,0,0,0,,,,,,,,,,,,,,,,,0,26,26,26,,,,,,,,,,,,,,,,,,,,,,,,,,,,,,,,,,,,,,,,,,,,,,,,,,,,,,,,,,,,,,,,,,,,,,,,,,,,,1.7114197611808777,0.8127554000820965,292.5202887998894,None,ScrollUp,정답입니다,292.5202887998894,None,292.5202887998894,None,292.5202887998894,None,292.5202887998894,None,293.22769219987094,None,293.22769219987094,293.7276881998405,,,,,,,,,,,,,,,,202,2023-03-27_15h50.22.080,FishGame,2022.1.1,59.87468232544888,
,28,넌 감성적이야,3,Orange,B,4.125,4.166666666666667,ScrollUp,ScrollDown,Orange.png,2,Neutral,Neutral,,,,,0,0,0,0,,,,,,,,,,,,,,,,,0,27,27,27,,,,,,,,,,,,,,,,,,,,,,,,,,,,,,,,,,,,,,,,,,,,,,,,,,,,,,,,,,,,,,,,,,,,,,,,,,,,,1.6419753084580102,0.7689099002163857,294.3516019000672,None,ScrollUp,정답입니다,294.3516019000672,None,294.3516019000672,None,294.3516019000672,None,294.3516019000672,None,295.0139325999189,None,295.0139325999189,295.5139877998736,,,,,,,,,,,,,,,,202,2023-03-27_15h50.22.080,FishGame,2022.1.1,59.87468232544888,
,29,넌 배려심있어,1,Green,A,6.083333333333333,5.5,ScrollDown,ScrollUp,Green.png,2,Positive,Congruent,,,,,0,0,0,0,,,,,,,,,,,,,,,,,0,28,28,28,,,,,,,,,,,,,,,,,,,,,,,,,,,,,,,,,,,,,,,,,,,,,,,,,,,,,,,,,,,,,,,,,,,,,,,,,,,,,1.1651234477758408,0.8148265001364052,296.1379641999956,None,ScrollDown,정답입니다,296.1379641999956,None,296.1379641999956,None,296.1379641999956,None,296.1379641999956,None,296.8473531999625,None,296.8473531999625,297.34725430002436,,,,,,,,,,,,,,,,202,2023-03-27_15h50.22.080,FishGame,2022.1.1,59.87468232544888,
,30,넌 숨김없어,3,Green,A,4.5,4.933333333333334,ScrollDown,ScrollUp,Green.png,2,Neutral,Neutral,,,,,0,0,0,0,,,,,,,,,,,,,,,,,0,29,29,29,,,,,,,,,,,,,,,,,,,,,,,,,,,,,,,,,,,,,,,,,,,,,,,,,,,,,,,,,,,,,,,,,,,,,,,,,,,,,1.1682098756233852,0.8314034999348223,297.9750786998775,None,ScrollDown,정답입니다,297.9750786998775,None,297.9750786998775,None,297.9750786998775,None,297.9750786998775,None,298.6945140999742,None,298.6945140999742,299.19446250004694,,,,,,,,,,,,,,,,202,2023-03-27_15h50.22.080,FishGame,2022.1.1,59.87468232544888,
,31,넌 훌륭해,2,Orange,B,5.916666666666667,4.033333333333333,ScrollUp,ScrollDown,Orange.png,2,Positive,Incongruent,,,,,0,0,0,0,,,,,,,,,,,,,,,,,0,30,30,30,,,,,,,,,,,,,,,,,,,,,,,,,,,,,,,,,,,,,,,,,,,,,,,,,,,,,,,,,,,,,,,,,,,,,,,,,,,,,1.68364197264115,0.7139805001206696,299.8233707998879,None,ScrollUp,정답입니다,299.8233707998879,None,299.8233707998879,None,299.8233707998879,None,299.8233707998879,None,300.43039959995076,None,300.43039959995076,300.93040789989755,,,,,,,,,,,,,,,,202,2023-03-27_15h50.22.080,FishGame,2022.1.1,59.87468232544888,
,32,넌 슬기로워,2,Green,A,6.166666666666667,4.1,ScrollDown,ScrollUp,Green.png,2,Positive,Congruent,,,,,0,0,0,0,,,,,,,,,,,,,,,,,0,31,31,31,,,,,,,,,,,,,,,,,,,,,,,,,,,,,,,,,,,,,,,,,,,,,,,,,,,,,,,,,,,,,,,,,,,,,,,,,,,,,1.200617293516795,0.7500069998204708,301.5539913000539,None,ScrollDown,정답입니다,301.5539913000539,None,301.5539913000539,None,301.5539913000539,None,301.5539913000539,None,302.1972278000321,None,302.1972278000321,302.7138006000314,,,,,,,,,,,,,,,,202,2023-03-27_15h50.22.080,FishGame,2022.1.1,59.87468232544888,
,33,넌 냉혹해,5,Green,A,2.583333333333333,2.1,ScrollDown,ScrollUp,Green.png,2,Negative,Incongruent,,,,,0,0,0,0,,,,,,,,,,,,,,,,,0,32,32,32,,,,,,,,,,,,,,,,,,,,,,,,,,,,,,,,,,,,,,,,,,,,,,,,,,,,,,,,,,,,,,,,,,,,,,,,,,,,,1.3425925895571709,0.8498003999702632,303.32516609993763,None,ScrollDown,정답입니다,303.32516609993763,None,303.32516609993763,None,303.32516609993763,None,303.32516609993763,None,304.0611254000105,None,304.0611254000105,304.5637492998503,,,,,,,,,,,,,,,,202,2023-03-27_15h50.22.080,FishGame,2022.1.1,59.87468232544888,
,34,나를 데려가줘,6,Orange,B,0,0,ScrollDown,ScrollUp,Orange.png,2,NonTarget,NonTarget,,,,,0,0,0,0,,,,,,,,,,,,,,,,,0,33,33,33,,,,,,,,,,,,,,,,,,,,,,,,,,,,,,,,,,,,,,,,,,,,,,,,,,,,,,,,,,,,,,,,,,,,,,,,,,,,,1.6496913532416024,0.725790899945423,305.196919699898,None,ScrollUp,오답입니다,305.196919699898,None,305.196919699898,None,305.196919699898,None,305.196919699898,None,305.81074650003575,None,305.81074650003575,306.3107367998455,,,,,,,,,,,,,,,,202,2023-03-27_15h50.22.080,FishGame,2022.1.1,59.87468232544888,
,35,넌 편파적이야,5,Orange,B,2.125,2,ScrollUp,ScrollDown,Orange.png,2,Negative,Congruent,,,,,0,0,0,0,,,,,,,,,,,,,,,,,0,34,34,34,,,,,,,,,,,,,,,,,,,,,,,,,,,,,,,,,,,,,,,,,,,,,,,,,,,,,,,,,,,,,,,,,,,,,,,,,,,,,1.584876542290052,0.9816852000076324,306.9350554998964,None,ScrollUp,정답입니다,306.9350554998964,None,306.9350554998964,None,306.9350554998964,None,306.9350554998964,None,307.81076589995064,None,307.81076589995064,308.3137121000327,,,,,,,,,,,,,,,,202,2023-03-27_15h50.22.080,FishGame,2022.1.1,59.87468232544888,
,36,넌 슬퍼,4,Green,A,2.583333333333333,3.066666666666667,ScrollDown,ScrollUp,Green.png,2,Negative,Incongruent,,,,,0,0,0,0,,,,,,,,,,,,,,,,,0,35,35,35,,,,,,,,,,,,,,,,,,,,,,,,,,,,,,,,,,,,,,,,,,,,,,,,,,,,,,,,,,,,,,,,,,,,,,,,,,,,,1.2237654278675716,0.7818276998586953,308.9336963999085,None,ScrollDown,정답입니다,308.9336963999085,None,308.9336963999085,None,308.9336963999085,None,308.9336963999085,None,309.6136427000165,None,309.6136427000165,310.11366689996794,,,,,,,,,,,,,,,,202,2023-03-27_15h50.22.080,FishGame,2022.1.1,59.87468232544888,
,37,나를 데려가줘,6,Orange,B,0,0,ScrollDown,ScrollUp,Orange.png,2,NonTarget,NonTarget,,,,,0,0,0,0,,,,,,,,,,,,,,,,,0,36,36,36,,,,,,,,,,,,,,,,,,,,,,,,,,,,,,,,,,,,,,,,,,,,,,,,,,,,,,,,,,,,,,,,,,,,,,,,,,,,,1.2253086417913437,1.0666521999519318,310.7399015999399,None,ScrollDown,정답입니다,310.7399015999399,None,310.7399015999399,None,310.7399015999399,None,310.7399015999399,None,311.6942157000303,None,311.6942157000303,312.19687739992514,,,,,,,,,,,,,,,,202,2023-03-27_15h50.22.080,FishGame,2022.1.1,59.87468232544888,
,38,넌 친절해,1,Orange,B,6.041666666666667,5.533333333333333,ScrollUp,ScrollDown,Orange.png,2,Positive,Incongruent,,,,,0,0,0,0,,,,,,,,,,,,,,,,,0,37,37,37,,,,,,,,,,,,,,,,,,,,,,,,,,,,,,,,,,,,,,,,,,,,,,,,,,,,,,,,,,,,,,,,,,,,,,,,,,,,,1.6250000049670539,0.6641571000218391,312.8254305999726,None,ScrollUp,정답입니다,312.8254305999726,None,312.8254305999726,None,312.8254305999726,None,312.8254305999726,None,313.37754809996113,None,313.37754809996113,313.8773719999008,,,,,,,,,,,,,,,,202,2023-03-27_15h50.22.080,FishGame,2022.1.1,59.87468232544888,
,1,넌 엉성해,4,Green,A,3,3.3,ScrollDown,ScrollUp,Green.png,3,Negative,Incongruent,,,,,0,0,0,0,,,,,,,,,,,,,,,,,,,,,0,0,0,0,,,,,,,,,,,,,,,,,,,,,,,,,,,,,,,,347.4296972998418,348.9295890999492,348.9629305000417,349.9295939998701,349.9601207000669,350.91290379990824,350.91290379990824,None,,,,,,,,,,,,,,,,,,,,,,,,,,,,,,,,,,1.1651234477758408,1.1404531998559833,352.03053170000203,None,ScrollDown,정답입니다,352.03053170000203,None,352.03053170000203,None,352.03053170000203,None,352.03053170000203,None,353.06266029994003,None,353.06266029994003,353.5627174999099,314.38019789988175,None,314.38019789988175,None,0.2574074,-0.08888889,1,0,0,0.01640952005982399,None,344.393365399912,None,,,202,2023-03-27_15h50.22.080,FishGame,2022.1.1,59.87468232544888,
,2,나를 보내줘,6,Green,A,0,0,ScrollUp,ScrollDown,Green.png,3,NonTarget,NonTarget,,,,,0,0,0,0,,,,,,,,,,,,,,,,,,,,,0,1,1,1,,,,,,,,,,,,,,,,,,,,,,,,,,,,,,,,,,,,,,,,,,,,,,,,,,,,,,,,,,,,,,,,,,,,,,,,,1.7268518507480621,0.9481768999248743,354.1829851998482,None,ScrollUp,정답입니다,354.1829851998482,None,354.1829851998482,None,354.1829851998482,None,354.1829851998482,None,355.029389699921,None,355.029389699921,355.5293904999271,,,,,,,,,,,,,,,,202,2023-03-27_15h50.22.080,FishGame,2022.1.1,59.87468232544888,
,3,넌 활발해,1,Orange,B,5.666666666666667,5.6,ScrollUp,ScrollDown,Orange.png,3,Positive,Incongruent,,,,,0,0,0,0,,,,,,,,,,,,,,,,,,,,,0,2,2,2,,,,,,,,,,,,,,,,,,,,,,,,,,,,,,,,,,,,,,,,,,,,,,,,,,,,,,,,,,,,,,,,,,,,,,,,,1.632716049750646,0.9000377000775188,356.15587939997204,None,ScrollUp,정답입니다,356.15587939997204,None,356.15587939997204,None,356.15587939997204,None,356.15587939997204,None,356.94335659989156,None,356.94335659989156,357.44602799997665,,,,,,,,,,,,,,,,202,2023-03-27_15h50.22.080,FishGame,2022.1.1,59.87468232544888,
,4,넌 논리적이야,2,Green,A,5.666666666666666,4.633333333333334,ScrollDown,ScrollUp,Green.png,3,Positive,Congruent,,,,,0,0,0,0,,,,,,,,,,,,,,,,,,,,,0,3,3,3,,,,,,,,,,,,,,,,,,,,,,,,,,,,,,,,,,,,,,,,,,,,,,,,,,,,,,,,,,,,,,,,,,,,,,,,,1.3688271641731262,0.7952427000273019,358.06875069998205,None,ScrollDown,정답입니다,358.06875069998205,None,358.06875069998205,None,358.06875069998205,None,358.06875069998205,None,358.7626390999649,None,358.7626390999649,359.2625702000223,,,,,,,,,,,,,,,,202,2023-03-27_15h50.22.080,FishGame,2022.1.1,59.87468232544888,
,5,넌 과묵해,3,Green,A,3.875,4.4,ScrollDown,ScrollUp,Green.png,3,Neutral,Neutral,,,,,0,0,0,0,,,,,,,,,,,,,,,,,,,,,0,4,4,4,,,,,,,,,,,,,,,,,,,,,,,,,,,,,,,,,,,,,,,,,,,,,,,,,,,,,,,,,,,,,,,,,,,,,,,,,1.2361111144224803,0.7121534999459982,359.8875098999124,None,ScrollDown,정답입니다,359.8875098999124,None,359.8875098999124,None,359.8875098999124,None,359.8875098999124,None,360.4958887998946,None,360.4958887998946,360.9932357999496,,,,,,,,,,,,,,,,202,2023-03-27_15h50.22.080,FishGame,2022.1.1,59.87468232544888,
,6,나를 데려가줘,6,Orange,B,0,0,ScrollDown,ScrollUp,Orange.png,3,NonTarget,NonTarget,,,,,0,0,0,0,,,,,,,,,,,,,,,,,,,,,0,5,5,5,,,,,,,,,,,,,,,,,,,,,,,,,,,,,,,,,,,,,,,,,,,,,,,,,,,,,,,,,,,,,,,,,,,,,,,,,1.0648148159186046,1.1150092999450862,361.61896330001764,None,ScrollDown,정답입니다,361.61896330001764,None,361.61896330001764,None,361.61896330001764,None,361.61896330001764,None,362.62654239987023,None,362.62654239987023,363.12921010004357,,,,,,,,,,,,,,,,202,2023-03-27_15h50.22.080,FishGame,2022.1.1,59.87468232544888,
,7,넌 미숙해,4,Orange,B,3,3,ScrollUp,ScrollDown,Orange.png,3,Negative,Congruent,,,,,0,0,0,0,,,,,,,,,,,,,,,,,,,,,0,6,6,6,,,,,,,,,,,,,,,,,,,,,,,,,,,,,,,,,,,,,,,,,,,,,,,,,,,,,,,,,,,,,,,,,,,,,,,,,1.5185185189669332,0.9139014999382198,363.75185279990546,None,NoResponse,무응답입니다,363.75185279990546,None,363.75185279990546,None,363.75185279990546,None,363.75185279990546,None,364.5625652000308,None,364.5625652000308,365.06262740003876,,,,,,,,,,,,,,,,202,2023-03-27_15h50.22.080,FishGame,2022.1.1,59.87468232544888,
,8,나를 보내줘,6,Green,A,0,0,ScrollUp,ScrollDown,Green.png,3,NonTarget,NonTarget,,,,,0,0,0,0,,,,,,,,,,,,,,,,,,,,,0,7,7,7,,,,,,,,,,,,,,,,,,,,,,,,,,,,,,,,,,,,,,,,,,,,,,,,,,,,,,,,,,,,,,,,,,,,,,,,,1.537037037933866,1.0085973998066038,365.69135429989547,None,NoResponse,무응답입니다,365.69135429989547,None,365.69135429989547,None,365.69135429989547,None,365.69135429989547,None,366.5928433998488,None,366.5928433998488,367.09301349986345,,,,,,,,,,,,,,,,202,2023-03-27_15h50.22.080,FishGame,2022.1.1,59.87468232544888,
,9,넌 자신만만해,3,Orange,B,4.833333333333334,4.333333333333333,ScrollUp,ScrollDown,Orange.png,3,Neutral,Neutral,,,,,0,0,0,0,,,,,,,,,,,,,,,,,,,,,0,8,8,8,,,,,,,,,,,,,,,,,,,,,,,,,,,,,,,,,,,,,,,,,,,,,,,,,,,,,,,,,,,,,,,,,,,,,,,,,1.7700617164373398,1.094535400159657,367.7193251999561,None,ScrollUp,정답입니다,367.7193251999561,None,367.7193251999561,None,367.7193251999561,None,367.7193251999561,None,368.70951149985194,None,368.70951149985194,369.2095367000438,,,,,,,,,,,,,,,,202,2023-03-27_15h50.22.080,FishGame,2022.1.1,59.87468232544888,
,10,넌 탐욕스러워,5,Green,A,2.25,2.1,ScrollDown,ScrollUp,Green.png,3,Negative,Incongruent,,,,,0,0,0,0,,,,,,,,,,,,,,,,,,,,,0,9,9,9,,,,,,,,,,,,,,,,,,,,,,,,,,,,,,,,,,,,,,,,,,,,,,,,,,,,,,,,,,,,,,,,,,,,,,,,,1.212962955236435,0.8503600000403821,369.83897599997,None,ScrollDown,정답입니다,369.83897599997,None,369.83897599997,None,369.83897599997,None,369.83897599997,None,370.5790901000146,None,370.5790901000146,371.0790911000222,,,,,,,,,,,,,,,,202,2023-03-27_15h50.22.080,FishGame,2022.1.1,59.87468232544888,
,11,넌 인기있어,2,Green,A,5.458333333333333,4.5,ScrollDown,ScrollUp,Green.png,3,Positive,Congruent,,,,,0,0,0,0,,,,,,,,,,,,,,,,,,,,,0,10,10,10,,,,,,,,,,,,,,,,,,,,,,,,,,,,,,,,,,,,,,,,,,,,,,,,,,,,,,,,,,,,,,,,,,,,,,,,,1.2160493830839794,0.8149782000109553,371.70082629984245,None,ScrollDown,정답입니다,371.70082629984245,None,371.70082629984245,None,371.70082629984245,None,371.70082629984245,None,372.40973880002275,None,372.40973880002275,372.9124296999071,,,,,,,,,,,,,,,,202,2023-03-27_15h50.22.080,FishGame,2022.1.1,59.87468232544888,
,12,나를 데려가줘,6,Orange,B,0,0,ScrollDown,ScrollUp,Orange.png,3,NonTarget,NonTarget,,,,,0,0,0,0,,,,,,,,,,,,,,,,,,,,,0,11,11,11,,,,,,,,,,,,,,,,,,,,,,,,,,,,,,,,,,,,,,,,,,,,,,,,,,,,,,,,,,,,,,,,,,,,,,,,,1.0925925920406978,1.0827717001084238,373.5295599999372,None,ScrollDown,정답입니다,373.5295599999372,None,373.5295599999372,None,373.5295599999372,None,373.5295599999372,None,374.5093846998643,None,374.5093846998643,375.009598699864,,,,,,,,,,,,,,,,202,2023-03-27_15h50.22.080,FishGame,2022.1.1,59.87468232544888,
,13,넌 뛰어나,2,Orange,B,6.166666666666667,4,ScrollUp,ScrollDown,Orange.png,3,Positive,Incongruent,,,,,0,0,0,0,,,,,,,,,,,,,,,,,,,,,0,12,12,12,,,,,,,,,,,,,,,,,,,,,,,,,,,,,,,,,,,,,,,,,,,,,,,,,,,,,,,,,,,,,,,,,,,,,,,,,1.652777781089147,0.8528498997911811,375.6362346999813,None,ScrollUp,정답입니다,375.6362346999813,None,375.6362346999813,None,375.6362346999813,None,375.6362346999813,None,376.37920630001463,None,376.37920630001463,376.87901320005767,,,,,,,,,,,,,,,,202,2023-03-27_15h50.22.080,FishGame,2022.1.1,59.87468232544888,
,14,넌 낙관적이야,1,Green,A,5.75,5.8,ScrollDown,ScrollUp,Green.png,3,Positive,Congruent,,,,,0,0,0,0,,,,,,,,,,,,,,,,,,,,,0,13,13,13,,,,,,,,,,,,,,,,,,,,,,,,,,,,,,,,,,,,,,,,,,,,,,,,,,,,,,,,,,,,,,,,,,,,,,,,,1.2021604826052983,0.8139080000109971,377.5066813000012,None,ScrollDown,정답입니다,377.5066813000012,None,377.5066813000012,None,377.5066813000012,None,377.5066813000012,None,378.21230729995295,None,378.21230729995295,378.71226980001666,,,,,,,,,,,,,,,,202,2023-03-27_15h50.22.080,FishGame,2022.1.1,59.87468232544888,
,15,넌 산만해,4,Orange,B,2.695652173913043,3.033333333333333,ScrollUp,ScrollDown,Orange.png,3,Negative,Congruent,,,,,0,0,0,0,,,,,,,,,,,,,,,,,,,,,0,14,14,14,,,,,,,,,,,,,,,,,,,,,,,,,,,,,,,,,,,,,,,,,,,,,,,,,,,,,,,,,,,,,,,,,,,,,,,,,1.544753085821867,0.6262821999844164,379.3411433000583,None,NoResponse,무응답입니다,379.3411433000583,None,379.3411433000583,None,379.3411433000583,None,379.3411433000583,None,379.8622230000328,None,379.8622230000328,380.36221459996887,,,,,,,,,,,,,,,,202,2023-03-27_15h50.22.080,FishGame,2022.1.1,59.87468232544888,
,16,나를 보내줘,6,Green,A,0,0,ScrollUp,ScrollDown,Green.png,3,NonTarget,NonTarget,,,,,0,0,0,0,,,,,,,,,,,,,,,,,,,,,0,15,15,15,,,,,,,,,,,,,,,,,,,,,,,,,,,,,,,,,,,,,,,,,,,,,,,,,,,,,,,,,,,,,,,,,,,,,,,,,1.2253086417913437,0.7781390999443829,380.98990589985624,None,ScrollDown,오답입니다,380.98990589985624,None,380.98990589985624,None,380.98990589985624,None,380.98990589985624,None,381.65951679996215,None,381.65951679996215,382.1621143000666,,,,,,,,,,,,,,,,202,2023-03-27_15h50.22.080,FishGame,2022.1.1,59.87468232544888,
,17,넌 교활해,5,Orange,B,2.333333333333333,2.133333333333333,ScrollUp,ScrollDown,Orange.png,3,Negative,Congruent,,,,,0,0,0,0,,,,,,,,,,,,,,,,,,,,,0,16,16,16,,,,,,,,,,,,,,,,,,,,,,,,,,,,,,,,,,,,,,,,,,,,,,,,,,,,,,,,,,,,,,,,,,,,,,,,,1.4228395087023575,0.7618440999649465,382.78764920006506,None,ScrollDown,오답입니다,382.78764920006506,None,382.78764920006506,None,382.78764920006506,None,382.78764920006506,None,383.4427455998957,None,383.4427455998957,383.94541219994426,,,,,,,,,,,,,,,,202,2023-03-27_15h50.22.080,FishGame,2022.1.1,59.87468232544888,
,18,나를 보내줘,6,Green,A,0,0,ScrollUp,ScrollDown,Green.png,3,NonTarget,NonTarget,,,,,0,0,0,0,,,,,,,,,,,,,,,,,,,,,0,17,17,17,,,,,,,,,,,,,,,,,,,,,,,,,,,,,,,,,,,,,,,,,,,,,,,,,,,,,,,,,,,,,,,,,,,,,,,,,1.2716049353281655,0.7805598000995815,384.56542989984155,None,ScrollDown,오답입니다,384.56542989984155,None,384.56542989984155,None,384.56542989984155,None,384.56542989984155,None,385.24559089983813,None,385.24559089983813,385.7454061000608,,,,,,,,,,,,,,,,202,2023-03-27_15h50.22.080,FishGame,2022.1.1,59.87468232544888,
,19,넌 불친절해,5,Orange,B,2.208333333333333,2.033333333333333,ScrollUp,ScrollDown,Orange.png,3,Negative,Congruent,,,,,0,0,0,0,,,,,,,,,,,,,,,,,,,,,0,18,18,18,,,,,,,,,,,,,,,,,,,,,,,,,,,,,,,,,,,,,,,,,,,,,,,,,,,,,,,,,,,,,,,,,,,,,,,,,1.6404320945342383,0.9141764000523835,386.3720947999973,None,ScrollUp,정답입니다,386.3720947999973,None,386.3720947999973,None,386.3720947999973,None,386.3720947999973,None,387.17870679986663,None,387.17870679986663,387.67873209994286,,,,,,,,,,,,,,,,202,2023-03-27_15h50.22.080,FishGame,2022.1.1,59.87468232544888,
,20,넌 지적이야,2,Orange,B,5.75,4.366666666666666,ScrollUp,ScrollDown,Orange.png,3,Positive,Incongruent,,,,,0,0,0,0,,,,,,,,,,,,,,,,,,,,,0,19,19,19,,,,,,,,,,,,,,,,,,,,,,,,,,,,,,,,,,,,,,,,,,,,,,,,,,,,,,,,,,,,,,,,,,,,,,,,,1.7916666616996129,0.8815055000595748,388.30103069986217,None,ScrollUp,정답입니다,388.30103069986217,None,388.30103069986217,None,388.30103069986217,None,388.30103069986217,None,389.076129199937,None,389.076129199937,389.5786953999195,,,,,,,,,,,,,,,,202,2023-03-27_15h50.22.080,FishGame,2022.1.1,59.87468232544888,
,21,넌 우유부단해,4,Green,A,2.666666666666667,3.166666666666667,ScrollDown,ScrollUp,Green.png,3,Negative,Incongruent,,,,,0,0,0,0,,,,,,,,,,,,,,,,,,,,,0,20,20,20,,,,,,,,,,,,,,,,,,,,,,,,,,,,,,,,,,,,,,,,,,,,,,,,,,,,,,,,,,,,,,,,,,,,,,,,,1.1651234477758408,0.7833644000347704,390.1992941000499,None,ScrollDown,정답입니다,390.1992941000499,None,390.1992941000499,None,390.1992941000499,None,390.1992941000499,None,390.87572170002386,None,390.87572170002386,391.3757885999512,,,,,,,,,,,,,,,,202,2023-03-27_15h50.22.080,FishGame,2022.1.1,59.87468232544888,
,22,나를 데려가줘,6,Orange,B,0,0,ScrollDown,ScrollUp,Orange.png,3,NonTarget,NonTarget,,,,,0,0,0,0,,,,,,,,,,,,,,,,,,,,,0,21,21,21,,,,,,,,,,,,,,,,,,,,,,,,,,,,,,,,,,,,,,,,,,,,,,,,,,,,,,,,,,,,,,,,,,,,,,,,,1.594135800997416,0.7677597999572754,392.0023830998689,None,ScrollUp,오답입니다,392.0023830998689,None,392.0023830998689,None,392.0023830998689,None,392.0023830998689,None,392.66213479987346,None,392.66213479987346,393.16209029988386,,,,,,,,,,,,,,,,202,2023-03-27_15h50.22.080,FishGame,2022.1.1,59.87468232544888,
,23,넌 성실해,1,Orange,B,6.041666666666666,5.7,ScrollUp,ScrollDown,Orange.png,3,Positive,Incongruent,,,,,0,0,0,0,,,,,,,,,,,,,,,,,,,,,0,22,22,22,,,,,,,,,,,,,,,,,,,,,,,,,,,,,,,,,,,,,,,,,,,,,,,,,,,,,,,,,,,,,,,,,,,,,,,,,1.8009259204069774,1.1811999001074582,393.78494139993563,None,ScrollUp,정답입니다,393.78494139993563,None,393.78494139993563,None,393.78494139993563,None,393.78494139993563,None,394.862003599992,None,394.862003599992,395.3619446998928,,,,,,,,,,,,,,,,202,2023-03-27_15h50.22.080,FishGame,2022.1.1,59.87468232544888,
,24,넌 현실주의적이야,3,Green,A,4.625,4.4,ScrollDown,ScrollUp,Green.png,3,Neutral,Neutral,,,,,0,0,0,0,,,,,,,,,,,,,,,,,,,,,0,23,23,23,,,,,,,,,,,,,,,,,,,,,,,,,,,,,,,,,,,,,,,,,,,,,,,,,,,,,,,,,,,,,,,,,,,,,,,,,1.2206790000200272,0.8129392000846565,395.99880789988674,None,ScrollDown,정답입니다,395.99880789988674,None,395.99880789988674,None,395.99880789988674,None,395.99880789988674,None,396.7089128999505,None,396.7089128999505,397.20895810006186,,,,,,,,,,,,,,,,202,2023-03-27_15h50.22.080,FishGame,2022.1.1,59.87468232544888,
,25,넌 진실돼,1,Green,A,6.625,5.566666666666666,ScrollDown,ScrollUp,Green.png,3,Positive,Congruent,,,,,0,0,0,0,,,,,,,,,,,,,,,,,,,,,0,24,24,24,,,,,,,,,,,,,,,,,,,,,,,,,,,,,,,,,,,,,,,,,,,,,,,,,,,,,,,,,,,,,,,,,,,,,,,,,1.256172845760981,0.9664188001770526,397.8334983999375,None,ScrollDown,정답입니다,397.8334983999375,None,397.8334983999375,None,397.8334983999375,None,397.8334983999375,None,398.69526889990084,None,398.69526889990084,399.19520940002985,,,,,,,,,,,,,,,,202,2023-03-27_15h50.22.080,FishGame,2022.1.1,59.87468232544888,
,26,넌 천진난만해,3,Orange,B,4.958333333333334,4.833333333333333,ScrollUp,ScrollDown,Orange.png,3,Neutral,Neutral,,,,,0,0,0,0,,,,,,,,,,,,,,,,,,,,,0,25,25,25,,,,,,,,,,,,,,,,,,,,,,,,,,,,,,,,,,,,,,,,,,,,,,,,,,,,,,,,,,,,,,,,,,,,,,,,,1.5231481483206153,0.7465609998907894,399.8213820999954,None,NoResponse,무응답입니다,399.8213820999954,None,399.8213820999954,None,399.8213820999954,None,399.8213820999954,None,400.4591576999519,None,400.4591576999519,400.96180879999883,,,,,,,,,,,,,,,,202,2023-03-27_15h50.22.080,FishGame,2022.1.1,59.87468232544888,
,27,넌 교양없어,5,Green,A,2.416666666666667,2.2,ScrollDown,ScrollUp,Green.png,3,Negative,Incongruent,,,,,0,0,0,0,,,,,,,,,,,,,,,,,,,,,0,26,26,26,,,,,,,,,,,,,,,,,,,,,,,,,,,,,,,,,,,,,,,,,,,,,,,,,,,,,,,,,,,,,,,,,,,,,,,,,1.3842592537403107,0.8911063999403268,401.59608489996754,None,ScrollDown,정답입니다,401.59608489996754,None,401.59608489996754,None,401.59608489996754,None,401.59608489996754,None,402.375487399986,None,402.375487399986,402.87544950004667,,,,,,,,,,,,,,,,202,2023-03-27_15h50.22.080,FishGame,2022.1.1,59.87468232544888,
,28,나를 보내줘,6,Green,A,0,0,ScrollUp,ScrollDown,Green.png,3,NonTarget,NonTarget,,,,,0,0,0,0,,,,,,,,,,,,,,,,,,,,,0,27,27,27,,,,,,,,,,,,,,,,,,,,,,,,,,,,,,,,,,,,,,,,,,,,,,,,,,,,,,,,,,,,,,,,,,,,,,,,,1.6712962985038757,1.0663079000078142,403.4937605999876,None,ScrollUp,정답입니다,403.4937605999876,None,403.4937605999876,None,403.4937605999876,None,403.4937605999876,None,404.4588146000169,None,404.4588146000169,404.9618150999304,,,,,,,,,,,,,,,,202,2023-03-27_15h50.22.080,FishGame,2022.1.1,59.87468232544888,
,29,넌 엉뚱스러워,3,Green,A,4.166666666666667,4.133333333333334,ScrollDown,ScrollUp,Green.png,3,Neutral,Neutral,,,,,0,0,0,0,,,,,,,,,,,,,,,,,,,,,0,28,28,28,,,,,,,,,,,,,,,,,,,,,,,,,,,,,,,,,,,,,,,,,,,,,,,,,,,,,,,,,,,,,,,,,,,,,,,,,1.1898148208856583,0.7500205999240279,405.5863985000178,None,ScrollDown,정답입니다,405.5863985000178,None,405.5863985000178,None,405.5863985000178,None,405.5863985000178,None,406.22856279998086,None,406.22856279998086,406.7283987000119,,,,,,,,,,,,,,,,202,2023-03-27_15h50.22.080,FishGame,2022.1.1,59.87468232544888,
,30,넌 무지해,4,Orange,B,2.541666666666667,3.066666666666667,ScrollUp,ScrollDown,Orange.png,3,Negative,Congruent,,,,,0,0,0,0,,,,,,,,,,,,,,,,,,,,,0,29,29,29,,,,,,,,,,,,,,,,,,,,,,,,,,,,,,,,,,,,,,,,,,,,,,,,,,,,,,,,,,,,,,,,,,,,,,,,,1.549382715175549,0.7830737000331283,407.3495110999793,None,NoResponse,무응답입니다,407.3495110999793,None,407.3495110999793,None,407.3495110999793,None,407.3495110999793,None,408.02836510003544,None,408.02836510003544,408.5282380999997,,,,,,,,,,,,,,,,202,2023-03-27_15h50.22.080,FishGame,2022.1.1,59.87468232544888,
,31,넌 음울해,5,Orange,B,2.25,2.233333333333333,ScrollUp,ScrollDown,Orange.png,3,Negative,Congruent,,,,,0,0,0,0,,,,,,,,,,,,,,,,,,,,,0,30,30,30,,,,,,,,,,,,,,,,,,,,,,,,,,,,,,,,,,,,,,,,,,,,,,,,,,,,,,,,,,,,,,,,,,,,,,,,,1.654320982595285,0.8331528999842703,409.1555182999,None,ScrollUp,정답입니다,409.1555182999,None,409.1555182999,None,409.1555182999,None,409.1555182999,None,409.87828589999117,None,409.87828589999117,410.39486230001785,,,,,,,,,,,,,,,,202,2023-03-27_15h50.22.080,FishGame,2022.1.1,59.87468232544888,
,32,넌 냉소적이야,5,Green,A,2.916666666666667,2.4,ScrollDown,ScrollUp,Green.png,3,Negative,Incongruent,,,,,0,0,0,0,,,,,,,,,,,,,,,,,,,,,0,31,31,31,,,,,,,,,,,,,,,,,,,,,,,,,,,,,,,,,,,,,,,,,,,,,,,,,,,,,,,,,,,,,,,,,,,,,,,,,1.2577160596847534,1.4166212000418454,410.99979489995167,None,ScrollDown,정답입니다,410.99979489995167,None,410.99979489995167,None,410.99979489995167,None,410.99979489995167,None,412.31152840005234,None,412.31152840005234,412.81152809993364,,,,,,,,,,,,,,,,202,2023-03-27_15h50.22.080,FishGame,2022.1.1,59.87468232544888,
,33,나를 데려가줘,6,Orange,B,0,0,ScrollDown,ScrollUp,Orange.png,3,NonTarget,NonTarget,,,,,0,0,0,0,,,,,,,,,,,,,,,,,,,,,0,32,32,32,,,,,,,,,,,,,,,,,,,,,,,,,,,,,,,,,,,,,,,,,,,,,,,,,,,,,,,,,,,,,,,,,,,,,,,,,1.2253086417913437,1.1623100999277085,413.43272350006737,None,ScrollDown,정답입니다,413.43272350006737,None,413.43272350006737,None,413.43272350006737,None,413.43272350006737,None,414.4948648000136,None,414.4948648000136,414.9948435998522,,,,,,,,,,,,,,,,202,2023-03-27_15h50.22.080,FishGame,2022.1.1,59.87468232544888,
,34,넌 쾌활해,1,Green,A,5.541666666666666,5.733333333333333,ScrollDown,ScrollUp,Green.png,3,Positive,Congruent,,,,,0,0,0,0,,,,,,,,,,,,,,,,,,,,,0,33,33,33,,,,,,,,,,,,,,,,,,,,,,,,,,,,,,,,,,,,,,,,,,,,,,,,,,,,,,,,,,,,,,,,,,,,,,,,,1.3024691392978034,1.0955731000285596,415.61713719996624,None,ScrollDown,정답입니다,415.61713719996624,None,415.61713719996624,None,415.61713719996624,None,415.61713719996624,None,416.6113392000552,None,416.6113392000552,417.1114173999522,,,,,,,,,,,,,,,,202,2023-03-27_15h50.22.080,FishGame,2022.1.1,59.87468232544888,
,35,나를 보내줘,6,Green,A,0,0,ScrollUp,ScrollDown,Green.png,3,NonTarget,NonTarget,,,,,0,0,0,0,,,,,,,,,,,,,,,,,,,,,0,34,34,34,,,,,,,,,,,,,,,,,,,,,,,,,,,,,,,,,,,,,,,,,,,,,,,,,,,,,,,,,,,,,,,,,,,,,,,,,1.4830246918524306,0.9148834999650717,417.7330261999741,None,NoResponse,무응답입니다,417.7330261999741,None,417.7330261999741,None,417.7330261999741,None,417.7330261999741,None,418.54208300006576,None,418.54208300006576,419.0447235999163,,,,,,,,,,,,,,,,202,2023-03-27_15h50.22.080,FishGame,2022.1.1,59.87468232544888,
,36,넌 명랑해,1,Orange,B,5.739130434782609,5.666666666666667,ScrollUp,ScrollDown,Orange.png,3,Positive,Incongruent,,,,,0,0,0,0,,,,,,,,,,,,,,,,,,,,,0,35,35,35,,,,,,,,,,,,,,,,,,,,,,,,,,,,,,,,,,,,,,,,,,,,,,,,,,,,,,,,,,,,,,,,,,,,,,,,,1.455246914178133,1.1125246998853981,419.67598890000954,None,NoResponse,무응답입니다,419.67598890000954,None,419.67598890000954,None,419.67598890000954,None,419.67598890000954,None,420.6781140000094,None,420.6781140000094,421.17803369998,,,,,,,,,,,,,,,,202,2023-03-27_15h50.22.080,FishGame,2022.1.1,59.87468232544888,
,37,넌 멍해,4,Green,A,2.833333333333333,3.4,ScrollDown,ScrollUp,Green.png,3,Negative,Incongruent,,,,,0,0,0,0,,,,,,,,,,,,,,,,,,,,,0,36,36,36,,,,,,,,,,,,,,,,,,,,,,,,,,,,,,,,,,,,,,,,,,,,,,,,,,,,,,,,,,,,,,,,,,,,,,,,,1.0833333333333333,0.9668171999510378,421.80769399995916,None,ScrollDown,정답입니다,421.80769399995916,None,421.80769399995916,None,421.80769399995916,None,421.80769399995916,None,422.6586972998921,None,422.6586972998921,423.1613848998677,,,,,,,,,,,,,,,,202,2023-03-27_15h50.22.080,FishGame,2022.1.1,59.87468232544888,
,38,나를 데려가줘,6,Orange,B,0,0,ScrollDown,ScrollUp,Orange.png,3,NonTarget,NonTarget,,,,,0,0,0,0,,,,,,,,,,,,,,,,,,,,,0,37,37,37,,,,,,,,,,,,,,,,,,,,,,,,,,,,,,,,,,,,,,,,,,,,,,,,,,,,,,,,,,,,,,,,,,,,,,,,,1.2083333383003871,1.098158000037074,423.7812926999759,None,ScrollDown,정답입니다,423.7812926999759,None,423.7812926999759,None,423.7812926999759,None,423.7812926999759,None,424.77500530006364,None,424.77500530006364,425.2750027999282,,,,,,,,,,,,,,,,202,2023-03-27_15h50.22.080,FishGame,2022.1.1,59.87468232544888,
,39,넌 현명해,2,Green,A,6.541666666666666,4.533333333333333,ScrollDown,ScrollUp,Green.png,3,Positive,Congruent,,,,,0,0,0,0,,,,,,,,,,,,,,,,,,,,,0,38,38,38,,,,,,,,,,,,,,,,,,,,,,,,,,,,,,,,,,,,,,,,,,,,,,,,,,,,,,,,,,,,,,,,,,,,,,,,,1.297839509944121,0.8512198000680655,425.8947475999594,None,ScrollDown,정답입니다,425.8947475999594,None,425.8947475999594,None,425.8947475999594,None,425.8947475999594,None,426.64471610006876,None,426.64471610006876,427.1446281999815,,,,,,,,,,,,,,,,202,2023-03-27_15h50.22.080,FishGame,2022.1.1,59.87468232544888,
,40,넌 수줍어,3,Orange,B,3.541666666666666,4.366666666666666,ScrollUp,ScrollDown,Orange.png,3,Neutral,Neutral,,,,,0,0,0,0,,,,,,,,,,,,,,,,,,,,,0,39,39,39,,,,,,,,,,,,,,,,,,,,,,,,,,,,,,,,,,,,,,,,,,,,,,,,,,,,,,,,,,,,,,,,,,,,,,,,,1.5987654303510985,0.8981900000944734,427.77063819998875,None,ScrollUp,정답입니다,427.77063819998875,None,427.77063819998875,None,427.77063819998875,None,427.77063819998875,None,428.5613358998671,None,428.5613358998671,429.0612705000676,,,,,,,,,,,,,,,,202,2023-03-27_15h50.22.080,FishGame,2022.1.1,59.87468232544888,
,41,나를 데려가줘,6,Orange,B,0,0,ScrollDown,ScrollUp,Orange.png,3,NonTarget,NonTarget,,,,,0,0,0,0,,,,,,,,,,,,,,,,,,,,,0,40,40,40,,,,,,,,,,,,,,,,,,,,,,,,,,,,,,,,,,,,,,,,,,,,,,,,,,,,,,,,,,,,,,,,,,,,,,,,,1.0833333333333333,1.0462121998425573,429.6989040998742,None,ScrollDown,정답입니다,429.6989040998742,None,429.6989040998742,None,429.6989040998742,None,429.6989040998742,None,430.6415556999855,None,430.6415556999855,431.1415411999915,,,,,,,,,,,,,,,,202,2023-03-27_15h50.22.080,FishGame,2022.1.1,59.87468232544888,
,42,넌 성숙해,2,Orange,B,5.833333333333333,4.533333333333333,ScrollUp,ScrollDown,Orange.png,3,Positive,Incongruent,,,,,0,0,0,0,,,,,,,,,,,,,,,,,,,,,0,41,41,41,,,,,,,,,,,,,,,,,,,,,,,,,,,,,,,,,,,,,,,,,,,,,,,,,,,,,,,,,,,,,,,,,,,,,,,,,1.6003086442748704,0.7667227999772877,431.76114970003255,None,ScrollUp,정답입니다,431.76114970003255,None,431.76114970003255,None,431.76114970003255,None,431.76114970003255,None,432.42491899989545,None,432.42491899989545,432.92490249988623,,,,,,,,,,,,,,,,202,2023-03-27_15h50.22.080,FishGame,2022.1.1,59.87468232544888,
,1,넌 매력적이야,2,Orange,B,6.125,4.666666666666667,ScrollUp,ScrollDown,Orange.png,4,Positive,Incongruent,,,,,0,0,0,0,,,,,,,,,,,,,,,,,,,,,,,,,0,0,0,0,,,,,,,,,,,,,,,,,,,,,,,,,,,,465.82717109983787,467.32719979994,467.3605177998543,468.3105202000588,468.36049210000783,469.3104874000419,469.3104874000419,None,,,,,,,,,,,,,,,,,,,,,,,,,,,,,,,,,,1.8209876517454784,1.2157548998948187,470.42186399991624,None,ScrollUp,정답입니다,470.42186399991624,None,470.42186399991624,None,470.42186399991624,None,470.42186399991624,None,471.52433980000205,None,471.52433980000205,472.02705279993825,433.4279324999079,None,433.4279324999079,None,0.27407408,-0.1037037,1,0,0,0.016267519677057862,None,463.4271674999036,None,,,202,2023-03-27_15h50.22.080,FishGame,2022.1.1,59.87468232544888,
,2,나를 보내줘,6,Green,A,0,0,ScrollUp,ScrollDown,Green.png,4,NonTarget,NonTarget,,,,,0,0,0,0,,,,,,,,,,,,,,,,,,,,,,,,,0,1,1,1,,,,,,,,,,,,,,,,,,,,,,,,,,,,,,,,,,,,,,,,,,,,,,,,,,,,,,,,,,,,,,,,,,,,,1.9012345770994823,1.1638491000048816,472.6456975999754,None,ScrollUp,정답입니다,472.6456975999754,None,472.6456975999754,None,472.6456975999754,None,472.6456975999754,None,473.71025800006464,None,473.71025800006464,474.2103597999085,,,,,,,,,,,,,,,,202,2023-03-27_15h50.22.080,FishGame,2022.1.1,59.87468232544888,
,3,넌 조심스러워,3,Green,A,4.791666666666666,4.666666666666667,ScrollDown,ScrollUp,Green.png,4,Neutral,Neutral,,,,,0,0,0,0,,,,,,,,,,,,,,,,,,,,,,,,,0,2,2,2,,,,,,,,,,,,,,,,,,,,,,,,,,,,,,,,,,,,,,,,,,,,,,,,,,,,,,,,,,,,,,,,,,,,,1.1435185273488362,0.9999335999600589,474.830769599881,None,ScrollDown,정답입니다,474.830769599881,None,474.830769599881,None,474.830769599881,None,474.830769599881,None,475.727116700029,None,475.727116700029,476.23167479992844,,,,,,,,,,,,,,,,202,2023-03-27_15h50.22.080,FishGame,2022.1.1,59.87468232544888,
,4,넌 철학적이야,3,Orange,B,4.5,4.266666666666667,ScrollUp,ScrollDown,Orange.png,4,Neutral,Neutral,,,,,0,0,0,0,,,,,,,,,,,,,,,,,,,,,,,,,0,3,3,3,,,,,,,,,,,,,,,,,,,,,,,,,,,,,,,,,,,,,,,,,,,,,,,,,,,,,,,,,,,,,,,,,,,,,1.7746913582086563,0.8142180000431836,476.86831389996223,None,ScrollUp,정답입니다,476.86831389996223,None,476.86831389996223,None,476.86831389996223,None,476.86831389996223,None,477.5739231000189,None,477.5739231000189,478.0739201998804,,,,,,,,,,,,,,,,202,2023-03-27_15h50.22.080,FishGame,2022.1.1,59.87468232544888,
,5,넌 쩨쩨해,5,Green,A,2.375,2.133333333333333,ScrollDown,ScrollUp,Green.png,4,Negative,Incongruent,,,,,0,0,0,0,,,,,,,,,,,,,,,,,,,,,,,,,0,4,4,4,,,,,,,,,,,,,,,,,,,,,,,,,,,,,,,,,,,,,,,,,,,,,,,,,,,,,,,,,,,,,,,,,,,,,1.1898148208856583,0.7521587000228465,478.6949747998733,None,ScrollDown,정답입니다,478.6949747998733,None,478.6949747998733,None,478.6949747998733,None,478.6949747998733,None,479.34361379989423,None,479.34361379989423,479.8436844998505,,,,,,,,,,,,,,,,202,2023-03-27_15h50.22.080,FishGame,2022.1.1,59.87468232544888,
,6,나를 데려가줘,6,Orange,B,0,0,ScrollDown,ScrollUp,Orange.png,4,NonTarget,NonTarget,,,,,0,0,0,0,,,,,,,,,,,,,,,,,,,,,,,,,0,5,5,5,,,,,,,,,,,,,,,,,,,,,,,,,,,,,,,,,,,,,,,,,,,,,,,,,,,,,,,,,,,,,,,,,,,,,1.160493830839793,1.1996351999696344,480.4750020999927,None,ScrollDown,정답입니다,480.4750020999927,None,480.4750020999927,None,480.4750020999927,None,480.4750020999927,None,481.55750210001133,None,481.55750210001133,482.0601617000066,,,,,,,,,,,,,,,,202,2023-03-27_15h50.22.080,FishGame,2022.1.1,59.87468232544888,
,7,넌 고집불통이야,5,Orange,B,2.875,2,ScrollUp,ScrollDown,Orange.png,4,Negative,Congruent,,,,,0,0,0,0,,,,,,,,,,,,,,,,,,,,,,,,,0,6,6,6,,,,,,,,,,,,,,,,,,,,,,,,,,,,,,,,,,,,,,,,,,,,,,,,,,,,,,,,,,,,,,,,,,,,,1.5462962966412306,0.9090974999126047,482.6927294000052,None,NoResponse,무응답입니다,482.6927294000052,None,482.6927294000052,None,482.6927294000052,None,482.6927294000052,None,483.49364349991083,None,483.49364349991083,483.9934616999235,,,,,,,,,,,,,,,,202,2023-03-27_15h50.22.080,FishGame,2022.1.1,59.87468232544888,
,8,넌 무심해,4,Green,A,2.875,3.2,ScrollDown,ScrollUp,Green.png,4,Negative,Incongruent,,,,,0,0,0,0,,,,,,,,,,,,,,,,,,,,,,,,,0,7,7,7,,,,,,,,,,,,,,,,,,,,,,,,,,,,,,,,,,,,,,,,,,,,,,,,,,,,,,,,,,,,,,,,,,,,,1.2716049353281655,0.713700600201264,484.6114014000632,None,ScrollDown,정답입니다,484.6114014000632,None,484.6114014000632,None,484.6114014000632,None,484.6114014000632,None,485.2240172000602,None,485.2240172000602,485.7266692998819,,,,,,,,,,,,,,,,202,2023-03-27_15h50.22.080,FishGame,2022.1.1,59.87468232544888,
,9,넌 정겨워,1,Green,A,5.791666666666667,5.666666666666667,ScrollDown,ScrollUp,Green.png,4,Positive,Congruent,,,,,0,0,0,0,,,,,,,,,,,,,,,,,,,,,,,,,0,8,8,8,,,,,,,,,,,,,,,,,,,,,,,,,,,,,,,,,,,,,,,,,,,,,,,,,,,,,,,,,,,,,,,,,,,,,1.1296296268701553,0.813718399964273,486.3529535999987,None,ScrollDown,정답입니다,486.3529535999987,None,486.3529535999987,None,486.3529535999987,None,486.3529535999987,None,487.05998809984885,None,487.05998809984885,487.56002929992974,,,,,,,,,,,,,,,,202,2023-03-27_15h50.22.080,FishGame,2022.1.1,59.87468232544888,
,10,나를 데려가줘,6,Orange,B,0,0,ScrollDown,ScrollUp,Orange.png,4,NonTarget,NonTarget,,,,,0,0,0,0,,,,,,,,,,,,,,,,,,,,,,,,,0,9,9,9,,,,,,,,,,,,,,,,,,,,,,,,,,,,,,,,,,,,,,,,,,,,,,,,,,,,,,,,,,,,,,,,,,,,,1.1080246816078823,1.2621909000445157,488.18421249999665,None,ScrollDown,정답입니다,488.18421249999665,None,488.18421249999665,None,488.18421249999665,None,488.18421249999665,None,489.34063580003567,None,489.34063580003567,489.8432803999167,,,,,,,,,,,,,,,,202,2023-03-27_15h50.22.080,FishGame,2022.1.1,59.87468232544888,
,11,넌 체제순응적이야,4,Orange,B,3,3.6,ScrollUp,ScrollDown,Orange.png,4,Negative,Congruent,,,,,0,0,0,0,,,,,,,,,,,,,,,,,,,,,,,,,0,10,10,10,,,,,,,,,,,,,,,,,,,,,,,,,,,,,,,,,,,,,,,,,,,,,,,,,,,,,,,,,,,,,,,,,,,,,1.6959876591960588,0.782928500091657,490.47255699988455,None,ScrollUp,정답입니다,490.47255699988455,None,490.47255699988455,None,490.47255699988455,None,490.47255699988455,None,491.1433917998802,None,491.1433917998802,491.64332989999093,,,,,,,,,,,,,,,,202,2023-03-27_15h50.22.080,FishGame,2022.1.1,59.87468232544888,
,12,나를 보내줘,6,Green,A,0,0,ScrollUp,ScrollDown,Green.png,4,NonTarget,NonTarget,,,,,0,0,0,0,,,,,,,,,,,,,,,,,,,,,,,,,0,11,11,11,,,,,,,,,,,,,,,,,,,,,,,,,,,,,,,,,,,,,,,,,,,,,,,,,,,,,,,,,,,,,,,,,,,,,1.766975313425064,1.213767800014466,492.26444089994766,None,ScrollUp,정답입니다,492.26444089994766,None,492.26444089994766,None,492.26444089994766,None,492.26444089994766,None,493.37361150002107,None,493.37361150002107,493.8735956000164,,,,,,,,,,,,,,,,202,2023-03-27_15h50.22.080,FishGame,2022.1.1,59.87468232544888,
,13,넌 박식해,2,Green,A,5.625,3.933333333333333,ScrollDown,ScrollUp,Green.png,4,Positive,Congruent,,,,,0,0,0,0,,,,,,,,,,,,,,,,,,,,,,,,,0,12,12,12,,,,,,,,,,,,,,,,,,,,,,,,,,,,,,,,,,,,,,,,,,,,,,,,,,,,,,,,,,,,,,,,,,,,,1.2592592487732568,0.7836579999420792,494.49838180001825,None,ScrollDown,정답입니다,494.49838180001825,None,494.49838180001825,None,494.49838180001825,None,494.49838180001825,None,495.17681959993206,None,495.17681959993206,495.67659970000386,,,,,,,,,,,,,,,,202,2023-03-27_15h50.22.080,FishGame,2022.1.1,59.87468232544888,
,14,나를 보내줘,6,Green,A,0,0,ScrollUp,ScrollDown,Green.png,4,NonTarget,NonTarget,,,,,0,0,0,0,,,,,,,,,,,,,,,,,,,,,,,,,0,13,13,13,,,,,,,,,,,,,,,,,,,,,,,,,,,,,,,,,,,,,,,,,,,,,,,,,,,,,,,,,,,,,,,,,,,,,1.2839506218830743,0.8164721000939608,496.29655839991756,None,ScrollDown,오답입니다,496.29655839991756,None,496.29655839991756,None,496.29655839991756,None,496.29655839991756,None,497.0100477000233,None,497.0100477000233,497.5098573998548,,,,,,,,,,,,,,,,202,2023-03-27_15h50.22.080,FishGame,2022.1.1,59.87468232544888,
,15,넌 침착해,1,Orange,B,5.458333333333333,5.566666666666666,ScrollUp,ScrollDown,Orange.png,4,Positive,Incongruent,,,,,0,0,0,0,,,,,,,,,,,,,,,,,,,,,,,,,0,14,14,14,,,,,,,,,,,,,,,,,,,,,,,,,,,,,,,,,,,,,,,,,,,,,,,,,,,,,,,,,,,,,,,,,,,,,1.6944444452722869,0.8783994000405073,498.1432360999752,None,ScrollUp,정답입니다,498.1432360999752,None,498.1432360999752,None,498.1432360999752,None,498.1432360999752,None,498.9068424999714,None,498.9068424999714,499.4068553999532,,,,,,,,,,,,,,,,202,2023-03-27_15h50.22.080,FishGame,2022.1.1,59.87468232544888,
,16,나를 데려가줘,6,Orange,B,0,0,ScrollDown,ScrollUp,Orange.png,4,NonTarget,NonTarget,,,,,0,0,0,0,,,,,,,,,,,,,,,,,,,,,,,,,0,15,15,15,,,,,,,,,,,,,,,,,,,,,,,,,,,,,,,,,,,,,,,,,,,,,,,,,,,,,,,,,,,,,,,,,,,,,1.0833333333333333,0.997914900071919,500.02548830001615,None,ScrollDown,정답입니다,500.02548830001615,None,500.02548830001615,None,500.02548830001615,None,500.02548830001615,None,500.9235000999179,None,500.9235000999179,501.4264738999773,,,,,,,,,,,,,,,,202,2023-03-27_15h50.22.080,FishGame,2022.1.1,59.87468232544888,
,17,넌 행복해,1,Green,A,6.416666666666666,6.166666666666667,ScrollDown,ScrollUp,Green.png,4,Positive,Congruent,,,,,0,0,0,0,,,,,,,,,,,,,,,,,,,,,,,,,0,16,16,16,,,,,,,,,,,,,,,,,,,,,,,,,,,,,,,,,,,,,,,,,,,,,,,,,,,,,,,,,,,,,,,,,,,,,1.126543199022611,1.0167821000795811,502.0495333999861,None,ScrollDown,정답입니다,502.0495333999861,None,502.0495333999861,None,502.0495333999861,None,502.0495333999861,None,502.9571002998855,None,502.9571002998855,503.459724499844,,,,,,,,,,,,,,,,202,2023-03-27_15h50.22.080,FishGame,2022.1.1,59.87468232544888,
,18,넌 겸손해,2,Orange,B,5.791666666666667,4.766666666666667,ScrollUp,ScrollDown,Orange.png,4,Positive,Incongruent,,,,,0,0,0,0,,,,,,,,,,,,,,,,,,,,,,,,,0,17,17,17,,,,,,,,,,,,,,,,,,,,,,,,,,,,,,,,,,,,,,,,,,,,,,,,,,,,,,,,,,,,,,,,,,,,,1.67746914178133,0.8815512999426574,504.08993979985826,None,ScrollUp,정답입니다,504.08993979985826,None,504.08993979985826,None,504.08993979985826,None,504.08993979985826,None,504.85694619989954,None,504.85694619989954,505.35695319995284,,,,,,,,,,,,,,,,202,2023-03-27_15h50.22.080,FishGame,2022.1.1,59.87468232544888,
,19,나를 보내줘,6,Green,A,0,0,ScrollUp,ScrollDown,Green.png,4,NonTarget,NonTarget,,,,,0,0,0,0,,,,,,,,,,,,,,,,,,,,,,,,,0,18,18,18,,,,,,,,,,,,,,,,,,,,,,,,,,,,,,,,,,,,,,,,,,,,,,,,,,,,,,,,,,,,,,,,,,,,,1.7546296268701553,1.082426899811253,505.97895070002414,None,ScrollUp,정답입니다,505.97895070002414,None,505.97895070002414,None,505.97895070002414,None,505.97895070002414,None,506.95958580006845,None,506.95958580006845,507.47627260000445,,,,,,,,,,,,,,,,202,2023-03-27_15h50.22.080,FishGame,2022.1.1,59.87468232544888,
,20,넌 의심없어,3,Green,A,4.166666666666667,4.6,ScrollDown,ScrollUp,Green.png,4,Neutral,Neutral,,,,,0,0,0,0,,,,,,,,,,,,,,,,,,,,,,,,,0,19,19,19,,,,,,,,,,,,,,,,,,,,,,,,,,,,,,,,,,,,,,,,,,,,,,,,,,,,,,,,,,,,,,,,,,,,,1.121913582086563,0.7666062000207603,508.0823828999419,None,ScrollDown,정답입니다,508.0823828999419,None,508.0823828999419,None,508.0823828999419,None,508.0823828999419,None,508.74025029991753,None,508.74025029991753,509.2429140000604,,,,,,,,,,,,,,,,202,2023-03-27_15h50.22.080,FishGame,2022.1.1,59.87468232544888,
,21,넌 시시해,4,Green,A,2.666666666666667,2.966666666666667,ScrollDown,ScrollUp,Green.png,4,Negative,Incongruent,,,,,0,0,0,0,,,,,,,,,,,,,,,,,,,,,,,,,0,20,20,20,,,,,,,,,,,,,,,,,,,,,,,,,,,,,,,,,,,,,,,,,,,,,,,,,,,,,,,,,,,,,,,,,,,,,1.0848765472571056,0.8147534998133779,509.8655274999328,None,ScrollDown,정답입니다,509.8655274999328,None,509.8655274999328,None,509.8655274999328,None,509.8655274999328,None,510.5763101999182,None,510.5763101999182,511.07623429992236,,,,,,,,,,,,,,,,202,2023-03-27_15h50.22.080,FishGame,2022.1.1,59.87468232544888,
,22,나를 데려가줘,6,Orange,B,0,0,ScrollDown,ScrollUp,Orange.png,4,NonTarget,NonTarget,,,,,0,0,0,0,,,,,,,,,,,,,,,,,,,,,,,,,0,21,21,21,,,,,,,,,,,,,,,,,,,,,,,,,,,,,,,,,,,,,,,,,,,,,,,,,,,,,,,,,,,,,,,,,,,,,1.1080246816078823,1.0094643000047654,511.70797759993,None,ScrollDown,정답입니다,511.70797759993,None,511.70797759993,None,511.70797759993,None,511.70797759993,None,512.6065479000099,None,512.6065479000099,513.106521199923,,,,,,,,,,,,,,,,202,2023-03-27_15h50.22.080,FishGame,2022.1.1,59.87468232544888,
,23,넌 무정해,5,Green,A,2.5,2.2,ScrollDown,ScrollUp,Green.png,4,Negative,Incongruent,,,,,0,0,0,0,,,,,,,,,,,,,,,,,,,,,,,,,0,22,22,22,,,,,,,,,,,,,,,,,,,,,,,,,,,,,,,,,,,,,,,,,,,,,,,,,,,,,,,,,,,,,,,,,,,,,1.1882716069618862,0.7664385999087244,513.7273182999343,None,ScrollDown,정답입니다,513.7273182999343,None,513.7273182999343,None,513.7273182999343,None,513.7273182999343,None,514.3898916998878,None,514.3898916998878,514.8929438998457,,,,,,,,,,,,,,,,202,2023-03-27_15h50.22.080,FishGame,2022.1.1,59.87468232544888,
,24,넌 긍정적이야,1,Orange,B,6.041666666666667,6.066666666666666,ScrollUp,ScrollDown,Orange.png,4,Positive,Incongruent,,,,,0,0,0,0,,,,,,,,,,,,,,,,,,,,,,,,,0,23,23,23,,,,,,,,,,,,,,,,,,,,,,,,,,,,,,,,,,,,,,,,,,,,,,,,,,,,,,,,,,,,,,,,,,,,,1.6929012313485146,0.8166739998850971,515.5173446999397,None,ScrollUp,정답입니다,515.5173446999397,None,515.5173446999397,None,515.5173446999397,None,515.5173446999397,None,516.2264197999611,None,516.2264197999611,516.7261502998881,,,,,,,,,,,,,,,,202,2023-03-27_15h50.22.080,FishGame,2022.1.1,59.87468232544888,
,25,나를 보내줘,6,Green,A,0,0,ScrollUp,ScrollDown,Green.png,4,NonTarget,NonTarget,,,,,0,0,0,0,,,,,,,,,,,,,,,,,,,,,,,,,0,24,24,24,,,,,,,,,,,,,,,,,,,,,,,,,,,,,,,,,,,,,,,,,,,,,,,,,,,,,,,,,,,,,,,,,,,,,1.5478395074605942,1.0469832001253963,517.3509231999051,None,NoResponse,무응답입니다,517.3509231999051,None,517.3509231999051,None,517.3509231999051,None,517.3509231999051,None,518.290480799973,None,518.290480799973,518.7897540000267,,,,,,,,,,,,,,,,202,2023-03-27_15h50.22.080,FishGame,2022.1.1,59.87468232544888,
,26,넌 시기심이 많아,5,Orange,B,2.458333333333333,2.233333333333333,ScrollUp,ScrollDown,Orange.png,4,Negative,Congruent,,,,,0,0,0,0,,,,,,,,,,,,,,,,,,,,,,,,,0,25,25,25,,,,,,,,,,,,,,,,,,,,,,,,,,,,,,,,,,,,,,,,,,,,,,,,,,,,,,,,,,,,,,,,,,,,,1.654320982595285,1.3167867998126894,519.4279783000238,None,ScrollUp,정답입니다,519.4279783000238,None,519.4279783000238,None,519.4279783000238,None,519.4279783000238,None,520.6262783999555,None,520.6262783999555,521.1260567998979,,,,,,,,,,,,,,,,202,2023-03-27_15h50.22.080,FishGame,2022.1.1,59.87468232544888,
,27,넌 탁월해,2,Green,A,5.708333333333334,4.5,ScrollDown,ScrollUp,Green.png,4,Positive,Congruent,,,,,0,0,0,0,,,,,,,,,,,,,,,,,,,,,,,,,0,26,26,26,,,,,,,,,,,,,,,,,,,,,,,,,,,,,,,,,,,,,,,,,,,,,,,,,,,,,,,,,,,,,,,,,,,,,1.1450617164373398,0.9333204999566078,521.7483781999908,None,ScrollDown,정답입니다,521.7483781999908,None,521.7483781999908,None,521.7483781999908,None,521.7483781999908,None,522.5760685000569,None,522.5760685000569,523.0926528000273,,,,,,,,,,,,,,,,202,2023-03-27_15h50.22.080,FishGame,2022.1.1,59.87468232544888,
,28,나를 데려가줘,6,Orange,B,0,0,ScrollDown,ScrollUp,Orange.png,4,NonTarget,NonTarget,,,,,0,0,0,0,,,,,,,,,,,,,,,,,,,,,,,,,0,27,27,27,,,,,,,,,,,,,,,,,,,,,,,,,,,,,,,,,,,,,,,,,,,,,,,,,,,,,,,,,,,,,,,,,,,,,1.1450617164373398,1.208995700115338,523.7013911998365,None,ScrollDown,정답입니다,523.7013911998365,None,523.7013911998365,None,523.7013911998365,None,523.7013911998365,None,524.8063103000168,None,524.8063103000168,525.3063654999714,,,,,,,,,,,,,,,,202,2023-03-27_15h50.22.080,FishGame,2022.1.1,59.87468232544888,
,29,넌 조용해,3,Orange,B,4.333333333333333,4.166666666666667,ScrollUp,ScrollDown,Orange.png,4,Neutral,Neutral,,,,,0,0,0,0,,,,,,,,,,,,,,,,,,,,,,,,,0,28,28,28,,,,,,,,,,,,,,,,,,,,,,,,,,,,,,,,,,,,,,,,,,,,,,,,,,,,,,,,,,,,,,,,,,,,,1.7808641890684764,1.0855843999888748,525.9328781999648,None,ScrollUp,정답입니다,525.9328781999648,None,525.9328781999648,None,525.9328781999648,None,525.9328781999648,None,526.9093414999079,None,526.9093414999079,527.4092387000564,,,,,,,,,,,,,,,,202,2023-03-27_15h50.22.080,FishGame,2022.1.1,59.87468232544888,
,30,넌 다정해,1,Green,A,5.833333333333334,5.7,ScrollDown,ScrollUp,Green.png,4,Positive,Congruent,,,,,0,0,0,0,,,,,,,,,,,,,,,,,,,,,,,,,0,29,29,29,,,,,,,,,,,,,,,,,,,,,,,,,,,,,,,,,,,,,,,,,,,,,,,,,,,,,,,,,,,,,,,,,,,,,1.2283950696388881,0.7999070000369102,528.0314753998537,None,ScrollDown,정답입니다,528.0314753998537,None,528.0314753998537,None,528.0314753998537,None,528.0314753998537,None,528.7259591999464,None,528.7259591999464,529.2425339999609,,,,,,,,,,,,,,,,202,2023-03-27_15h50.22.080,FishGame,2022.1.1,59.87468232544888,
,31,넌 능력있어,2,Orange,B,6.166666666666666,4.6,ScrollUp,ScrollDown,Orange.png,4,Positive,Incongruent,,,,,0,0,0,0,,,,,,,,,,,,,,,,,,,,,,,,,0,30,30,30,,,,,,,,,,,,,,,,,,,,,,,,,,,,,,,,,,,,,,,,,,,,,,,,,,,,,,,,,,,,,,,,,,,,,1.7901234477758408,0.8818850999232382,529.8599364999682,None,ScrollUp,정답입니다,529.8599364999682,None,529.8599364999682,None,529.8599364999682,None,529.8599364999682,None,530.6395333998371,None,530.6395333998371,531.1396069999319,,,,,,,,,,,,,,,,202,2023-03-27_15h50.22.080,FishGame,2022.1.1,59.87468232544888,
,32,넌 불쾌해,5,Green,A,2.125,1.933333333333333,ScrollDown,ScrollUp,Green.png,4,Negative,Incongruent,,,,,0,0,0,0,,,,,,,,,,,,,,,,,,,,,,,,,0,31,31,31,,,,,,,,,,,,,,,,,,,,,,,,,,,,,,,,,,,,,,,,,,,,,,,,,,,,,,,,,,,,,,,,,,,,,1.1712963034709294,0.7252118000760674,531.7669935999438,None,ScrollDown,정답입니다,531.7669935999438,None,531.7669935999438,None,531.7669935999438,None,531.7669935999438,None,532.3926245998591,None,532.3926245998591,532.8924509999342,,,,,,,,,,,,,,,,202,2023-03-27_15h50.22.080,FishGame,2022.1.1,59.87468232544888,
,33,나를 데려가줘,6,Orange,B,0,0,ScrollDown,ScrollUp,Orange.png,4,NonTarget,NonTarget,,,,,0,0,0,0,,,,,,,,,,,,,,,,,,,,,,,,,0,32,32,32,,,,,,,,,,,,,,,,,,,,,,,,,,,,,,,,,,,,,,,,,,,,,,,,,,,,,,,,,,,,,,,,,,,,,1.2407407313585281,1.0804773999843746,533.5150931999087,None,ScrollDown,정답입니다,533.5150931999087,None,533.5150931999087,None,533.5150931999087,None,533.5150931999087,None,534.4923959998414,None,534.4923959998414,534.9925319000613,,,,,,,,,,,,,,,,202,2023-03-27_15h50.22.080,FishGame,2022.1.1,59.87468232544888,
,34,넌 유순해,3,Green,A,4.458333333333333,5,ScrollDown,ScrollUp,Green.png,4,Neutral,Neutral,,,,,0,0,0,0,,,,,,,,,,,,,,,,,,,,,,,,,0,33,33,33,,,,,,,,,,,,,,,,,,,,,,,,,,,,,,,,,,,,,,,,,,,,,,,,,,,,,,,,,,,,,,,,,,,,,1.1064814925193787,0.866776900133118,535.6131430999376,None,ScrollDown,정답입니다,535.6131430999376,None,535.6131430999376,None,535.6131430999376,None,535.6131430999376,None,536.375836599851,None,536.375836599851,536.8893748999108,,,,,,,,,,,,,,,,202,2023-03-27_15h50.22.080,FishGame,2022.1.1,59.87468232544888,
,35,넌 근심스러워,4,Orange,B,2.708333333333333,3.133333333333333,ScrollUp,ScrollDown,Orange.png,4,Negative,Congruent,,,,,0,0,0,0,,,,,,,,,,,,,,,,,,,,,,,,,0,34,34,34,,,,,,,,,,,,,,,,,,,,,,,,,,,,,,,,,,,,,,,,,,,,,,,,,,,,,,,,,,,,,,,,,,,,,1.7098765472571054,0.8815073999576271,537.5128774999175,None,ScrollUp,정답입니다,537.5128774999175,None,537.5128774999175,None,537.5128774999175,None,537.5128774999175,None,538.2893633998465,None,538.2893633998465,538.7893968999851,,,,,,,,,,,,,,,,202,2023-03-27_15h50.22.080,FishGame,2022.1.1,59.87468232544888,
,36,넌 세련되었어,2,Green,A,5.5,4.6,ScrollDown,ScrollUp,Green.png,4,Positive,Congruent,,,,,0,0,0,0,,,,,,,,,,,,,,,,,,,,,,,,,0,35,35,35,,,,,,,,,,,,,,,,,,,,,,,,,,,,,,,,,,,,,,,,,,,,,,,,,,,,,,,,,,,,,,,,,,,,,1.1018518507480621,0.7990661000367254,539.419306699885,None,ScrollDown,정답입니다,539.419306699885,None,539.419306699885,None,539.419306699885,None,539.419306699885,None,540.1090532999951,None,540.1090532999951,540.6089824999217,,,,,,,,,,,,,,,,202,2023-03-27_15h50.22.080,FishGame,2022.1.1,59.87468232544888,
,37,나를 보내줘,6,Green,A,0,0,ScrollUp,ScrollDown,Green.png,4,NonTarget,NonTarget,,,,,0,0,0,0,,,,,,,,,,,,,,,,,,,,,,,,,0,36,36,36,,,,,,,,,,,,,,,,,,,,,,,,,,,,,,,,,,,,,,,,,,,,,,,,,,,,,,,,,,,,,,,,,,,,,1.7885802586873372,1.166585800005123,541.2303615000565,None,ScrollUp,정답입니다,541.2303615000565,None,541.2303615000565,None,541.2303615000565,None,541.2303615000565,None,542.2896058999468,None,542.2896058999468,542.7922467000317,,,,,,,,,,,,,,,,202,2023-03-27_15h50.22.080,FishGame,2022.1.1,59.87468232544888,
,38,넌 확고해,3,Orange,B,4.708333333333334,4.566666666666666,ScrollUp,ScrollDown,Orange.png,4,Neutral,Neutral,,,,,0,0,0,0,,,,,,,,,,,,,,,,,,,,,,,,,0,37,37,37,,,,,,,,,,,,,,,,,,,,,,,,,,,,,,,,,,,,,,,,,,,,,,,,,,,,,,,,,,,,,,,,,,,,,1.7885802586873372,0.9501751000061631,543.416586099891,None,ScrollUp,정답입니다,543.416586099891,None,543.416586099891,None,543.416586099891,None,543.416586099891,None,544.2562277000397,None,544.2562277000397,544.75892199995,,,,,,,,,,,,,,,,202,2023-03-27_15h50.22.080,FishGame,2022.1.1,59.87468232544888,
,39,넌 이해심이 많아,1,Orange,B,6.041666666666668,5.533333333333333,ScrollUp,ScrollDown,Orange.png,4,Positive,Incongruent,,,,,0,0,0,0,,,,,,,,,,,,,,,,,,,,,,,,,0,38,38,38,,,,,,,,,,,,,,,,,,,,,,,,,,,,,,,,,,,,,,,,,,,,,,,,,,,,,,,,,,,,,,,,,,,,,1.8024691343307495,0.9980955000501126,545.3774015998933,None,ScrollUp,정답입니다,545.3774015998933,None,545.3774015998933,None,545.3774015998933,None,545.3774015998933,None,546.2725653999951,None,546.2725653999951,546.7726463999134,,,,,,,,,,,,,,,,202,2023-03-27_15h50.22.080,FishGame,2022.1.1,59.87468232544888,
,40,나를 보내줘,6,Green,A,0,0,ScrollUp,ScrollDown,Green.png,4,NonTarget,NonTarget,,,,,0,0,0,0,,,,,,,,,,,,,,,,,,,,,,,,,0,39,39,39,,,,,,,,,,,,,,,,,,,,,,,,,,,,,,,,,,,,,,,,,,,,,,,,,,,,,,,,,,,,,,,,,,,,,1.8132716069618862,1.1028781000059098,547.3911878999788,None,ScrollUp,정답입니다,547.3911878999788,None,547.3911878999788,None,547.3911878999788,None,547.3911878999788,None,548.3922194000334,None,548.3922194000334,548.892144799931,,,,,,,,,,,,,,,,202,2023-03-27_15h50.22.080,FishGame,2022.1.1,59.87468232544888,
,41,넌 거칠어,4,Green,A,2.625,3.033333333333333,ScrollDown,ScrollUp,Green.png,4,Negative,Incongruent,,,,,0,0,0,0,,,,,,,,,,,,,,,,,,,,,,,,,0,40,40,40,,,,,,,,,,,,,,,,,,,,,,,,,,,,,,,,,,,,,,,,,,,,,,,,,,,,,,,,,,,,,,,,,,,,,1.1435185273488362,0.9623505999334157,549.5144920998719,None,ScrollDown,정답입니다,549.5144920998719,None,549.5144920998719,None,549.5144920998719,None,549.5144920998719,None,550.3754269999918,None,550.3754269999918,550.8754199000541,,,,,,,,,,,,,,,,202,2023-03-27_15h50.22.080,FishGame,2022.1.1,59.87468232544888,
,42,넌 변덕맞아,5,Orange,B,2.75,2.166666666666667,ScrollUp,ScrollDown,Orange.png,4,Negative,Congruent,,,,,0,0,0,0,,,,,,,,,,,,,,,,,,,,,,,,,0,41,41,41,,,,,,,,,,,,,,,,,,,,,,,,,,,,,,,,,,,,,,,,,,,,,,,,,,,,,,,,,,,,,,,,,,,,,1.7500000099341075,0.8315053000114858,551.5191826999653,None,ScrollUp,정답입니다,551.5191826999653,None,551.5191826999653,None,551.5191826999653,None,551.5191826999653,None,552.2390697998926,None,552.2390697998926,552.7400561000686,,,,,,,,,,,,,,,,202,2023-03-27_15h50.22.080,FishGame,2022.1.1,59.87468232544888,
,43,나를 데려가줘,6,Orange,B,0,0,ScrollDown,ScrollUp,Orange.png,4,NonTarget,NonTarget,,,,,0,0,0,0,,,,,,,,,,,,,,,,,,,,,,,,,0,42,42,42,,,,,,,,,,,,,,,,,,,,,,,,,,,,,,,,,,,,,,,,,,,,,,,,,,,,,,,,,,,,,,,,,,,,,1.1358024577299755,1.3149169001262635,553.3599251999985,None,ScrollDown,정답입니다,553.3599251999985,None,553.3599251999985,None,553.3599251999985,None,553.3599251999985,None,554.5753428000025,None,554.5753428000025,555.0753577998839,,,,,,,,,,,,,,,,202,2023-03-27_15h50.22.080,FishGame,2022.1.1,59.87468232544888,
,44,넌 외로워,4,Orange,B,2.833333333333333,3.3,ScrollUp,ScrollDown,Orange.png,4,Negative,Congruent,,,,,0,0,0,0,,,,,,,,,,,,,,,,,,,,,,,,,0,43,43,43,,,,,,,,,,,,,,,,,,,,,,,,,,,,,,,,,,,,,,,,,,,,,,,,,,,,,,,,,,,,,,,,,,,,,1.584876542290052,0.9621042001526803,555.699841799913,None,ScrollUp,정답입니다,555.699841799913,None,555.699841799913,None,555.699841799913,None,555.699841799913,None,556.5559934000485,None,556.5559934000485,557.0586439999752,,,,,,,,,,,,,,,,202,2023-03-27_15h50.22.080,FishGame,2022.1.1,59.87468232544888,
,1,넌 불평스러워,5,Green,A,2.25,2.066666666666667,ScrollDown,ScrollUp,Green.png,5,Negative,Incongruent,,,,,0,0,0,0,,,,,,,,,,,,,,,,,,,,,,,,,,,,,0,0,0,0,,,,,,,,,,,,,,,,,,,,,,,,589.088321799878,590.5914906999096,590.6248506000265,591.5747932000086,591.624799599871,592.5747628000099,592.5624164000619,None,,,,,,,,,,,,,,,,,,,,,,,,,,,,,,,,,,1.0339506367842357,1.3188502001576126,593.6780939998571,None,ScrollDown,정답입니다,593.6780939998571,None,593.6780939998571,None,593.6780939998571,None,593.6780939998571,None,594.8912098999135,None,594.8912098999135,595.391150600044,557.5556260000449,None,557.5556260000449,None,0.23425926,-0.11111111,1,0,0,0.016202020226046443,None,587.5550199998543,None,,,202,2023-03-27_15h50.22.080,FishGame,2022.1.1,59.87468232544888,
,2,나를 보내줘,6,Green,A,0,0,ScrollUp,ScrollDown,Green.png,5,NonTarget,NonTarget,,,,,0,0,0,0,,,,,,,,,,,,,,,,,,,,,,,,,,,,,0,1,1,1,,,,,,,,,,,,,,,,,,,,,,,,,,,,,,,,,,,,,,,,,,,,,,,,,,,,,,,,,,,,,,,,,1.8441358109315236,1.0453602999914438,596.0103034998756,None,ScrollUp,정답입니다,596.0103034998756,None,596.0103034998756,None,596.0103034998756,None,596.0103034998756,None,596.9578122999519,None,596.9578122999519,597.4577692998573,,,,,,,,,,,,,,,,202,2023-03-27_15h50.22.080,FishGame,2022.1.1,59.87468232544888,
,3,넌 다재다능해,2,Orange,B,6.208333333333333,4.5,ScrollUp,ScrollDown,Orange.png,5,Positive,Incongruent,,,,,0,0,0,0,,,,,,,,,,,,,,,,,,,,,,,,,,,,,0,2,2,2,,,,,,,,,,,,,,,,,,,,,,,,,,,,,,,,,,,,,,,,,,,,,,,,,,,,,,,,,,,,,,,,,1.7314814925193787,1.0479669999331236,598.0806018000003,None,ScrollUp,정답입니다,598.0806018000003,None,598.0806018000003,None,598.0806018000003,None,598.0806018000003,None,599.0245107999071,None,599.0245107999071,599.5244260998443,,,,,,,,,,,,,,,,202,2023-03-27_15h50.22.080,FishGame,2022.1.1,59.87468232544888,
,4,넌 과감해,3,Green,A,4.833333333333334,4.6,ScrollDown,ScrollUp,Green.png,5,Neutral,Neutral,,,,,0,0,0,0,,,,,,,,,,,,,,,,,,,,,,,,,,,,,0,3,3,3,,,,,,,,,,,,,,,,,,,,,,,,,,,,,,,,,,,,,,,,,,,,,,,,,,,,,,,,,,,,,,,,,1.0262345671653748,0.8577149000484496,600.1477178998757,None,ScrollDown,정답입니다,600.1477178998757,None,600.1477178998757,None,600.1477178998757,None,600.1477178998757,None,600.9047562000342,None,600.9047562000342,601.404732399853,,,,,,,,,,,,,,,,202,2023-03-27_15h50.22.080,FishGame,2022.1.1,59.87468232544888,
,5,넌 고분고분해,3,Orange,B,3.75,4.033333333333333,ScrollUp,ScrollDown,Orange.png,5,Neutral,Neutral,,,,,0,0,0,0,,,,,,,,,,,,,,,,,,,,,,,,,,,,,0,4,4,4,,,,,,,,,,,,,,,,,,,,,,,,,,,,,,,,,,,,,,,,,,,,,,,,,,,,,,,,,,,,,,,,,1.837962955236435,0.7658021999523044,602.0295634998474,None,ScrollUp,정답입니다,602.0295634998474,None,602.0295634998474,None,602.0295634998474,None,602.0295634998474,None,602.6911799998488,None,602.6911799998488,603.1910373999272,,,,,,,,,,,,,,,,202,2023-03-27_15h50.22.080,FishGame,2022.1.1,59.87468232544888,
,6,나를 보내줘,6,Green,A,0,0,ScrollUp,ScrollDown,Green.png,5,NonTarget,NonTarget,,,,,0,0,0,0,,,,,,,,,,,,,,,,,,,,,,,,,,,,,0,5,5,5,,,,,,,,,,,,,,,,,,,,,,,,,,,,,,,,,,,,,,,,,,,,,,,,,,,,,,,,,,,,,,,,,1.140432099501292,0.615763199981302,603.8111942999531,None,ScrollDown,오답입니다,603.8111942999531,None,603.8111942999531,None,603.8111942999531,None,603.8111942999531,None,604.3244686999824,None,604.3244686999824,604.84101990005,,,,,,,,,,,,,,,,202,2023-03-27_15h50.22.080,FishGame,2022.1.1,59.87468232544888,
,7,넌 잘 잊어,4,Green,A,3,3.7,ScrollDown,ScrollUp,Green.png,5,Negative,Incongruent,,,,,0,0,0,0,,,,,,,,,,,,,,,,,,,,,,,,,,,,,0,6,6,6,,,,,,,,,,,,,,,,,,,,,,,,,,,,,,,,,,,,,,,,,,,,,,,,,,,,,,,,,,,,,,,,,1.09413580596447,0.8802398000843823,605.4538399998564,None,ScrollDown,정답입니다,605.4538399998564,None,605.4538399998564,None,605.4538399998564,None,605.4538399998564,None,606.2213165999856,None,606.2213165999856,606.7215891999658,,,,,,,,,,,,,,,,202,2023-03-27_15h50.22.080,FishGame,2022.1.1,59.87468232544888,
,8,넌 탐구심이없어,4,Orange,B,2.833333333333333,3.066666666666667,ScrollUp,ScrollDown,Orange.png,5,Negative,Congruent,,,,,0,0,0,0,,,,,,,,,,,,,,,,,,,,,,,,,,,,,0,7,7,7,,,,,,,,,,,,,,,,,,,,,,,,,,,,,,,,,,,,,,,,,,,,,,,,,,,,,,,,,,,,,,,,,1.71913580596447,0.8145409999415278,607.344502999913,None,ScrollUp,정답입니다,607.344502999913,None,607.344502999913,None,607.344502999913,None,607.344502999913,None,608.0546601999085,None,608.0546601999085,608.5575896999799,,,,,,,,,,,,,,,,202,2023-03-27_15h50.22.080,FishGame,2022.1.1,59.87468232544888,
,9,나를 데려가줘,6,Orange,B,0,0,ScrollDown,ScrollUp,Orange.png,5,NonTarget,NonTarget,,,,,0,0,0,0,,,,,,,,,,,,,,,,,,,,,,,,,,,,,0,8,8,8,,,,,,,,,,,,,,,,,,,,,,,,,,,,,,,,,,,,,,,,,,,,,,,,,,,,,,,,,,,,,,,,,1.1234567960103352,1.1833609999157488,609.1810822999105,None,ScrollDown,정답입니다,609.1810822999105,None,609.1810822999105,None,609.1810822999105,None,609.1810822999105,None,610.2548793000169,None,610.2548793000169,610.7575238000136,,,,,,,,,,,,,,,,202,2023-03-27_15h50.22.080,FishGame,2022.1.1,59.87468232544888,
,10,넌 참되어,2,Green,A,6.041666666666664,4.733333333333333,ScrollDown,ScrollUp,Green.png,5,Positive,Congruent,,,,,0,0,0,0,,,,,,,,,,,,,,,,,,,,,,,,,,,,,0,9,9,9,,,,,,,,,,,,,,,,,,,,,,,,,,,,,,,,,,,,,,,,,,,,,,,,,,,,,,,,,,,,,,,,,1.1188271542390187,0.7923095000442117,611.3839102999773,None,ScrollDown,정답입니다,611.3839102999773,None,611.3839102999773,None,611.3839102999773,None,611.3839102999773,None,612.0742048998363,None,612.0742048998363,612.5741435000673,,,,,,,,,,,,,,,,202,2023-03-27_15h50.22.080,FishGame,2022.1.1,59.87468232544888,
,11,넌 생기있어,1,Orange,B,5.875,5.633333333333334,ScrollUp,ScrollDown,Orange.png,5,Positive,Incongruent,,,,,0,0,0,0,,,,,,,,,,,,,,,,,,,,,,,,,,,,,0,10,10,10,,,,,,,,,,,,,,,,,,,,,,,,,,,,,,,,,,,,,,,,,,,,,,,,,,,,,,,,,,,,,,,,,1.7283950646718345,0.9147431999444962,613.2143186999019,None,ScrollUp,정답입니다,613.2143186999019,None,613.2143186999019,None,613.2143186999019,None,613.2143186999019,None,614.0211503000464,None,614.0211503000464,614.5211385998409,,,,,,,,,,,,,,,,202,2023-03-27_15h50.22.080,FishGame,2022.1.1,59.87468232544888,
,12,넌 비사교적이야,4,Orange,B,2.875,2.9,ScrollUp,ScrollDown,Orange.png,5,Negative,Congruent,,,,,0,0,0,0,,,,,,,,,,,,,,,,,,,,,,,,,,,,,0,11,11,11,,,,,,,,,,,,,,,,,,,,,,,,,,,,,,,,,,,,,,,,,,,,,,,,,,,,,,,,,,,,,,,,,1.7453703681627908,0.8331825998611748,615.1505439998582,None,ScrollUp,정답입니다,615.1505439998582,None,615.1505439998582,None,615.1505439998582,None,615.1505439998582,None,615.8715418998618,None,615.8715418998618,616.374198100064,,,,,,,,,,,,,,,,202,2023-03-27_15h50.22.080,FishGame,2022.1.1,59.87468232544888,
,13,나를 데려가줘,6,Orange,B,0,0,ScrollDown,ScrollUp,Orange.png,5,NonTarget,NonTarget,,,,,0,0,0,0,,,,,,,,,,,,,,,,,,,,,,,,,,,,,0,12,12,12,,,,,,,,,,,,,,,,,,,,,,,,,,,,,,,,,,,,,,,,,,,,,,,,,,,,,,,,,,,,,,,,,1.1589506169160206,1.2164478001650423,616.9955275000539,None,ScrollDown,정답입니다,616.9955275000539,None,616.9955275000539,None,616.9955275000539,None,616.9955275000539,None,618.1074317998718,None,618.1074317998718,618.6047300999053,,,,,,,,,,,,,,,,202,2023-03-27_15h50.22.080,FishGame,2022.1.1,59.87468232544888,
,14,넌 고독해,4,Green,A,2.916666666666667,3.233333333333333,ScrollDown,ScrollUp,Green.png,5,Negative,Incongruent,,,,,0,0,0,0,,,,,,,,,,,,,,,,,,,,,,,,,,,,,0,13,13,13,,,,,,,,,,,,,,,,,,,,,,,,,,,,,,,,,,,,,,,,,,,,,,,,,,,,,,,,,,,,,,,,,1.2422839452823002,0.7481509998906404,619.2414229998831,None,ScrollDown,정답입니다,619.2414229998831,None,619.2414229998831,None,619.2414229998831,None,619.2414229998831,None,619.8876887999941,None,619.8876887999941,620.387674999889,,,,,,,,,,,,,,,,202,2023-03-27_15h50.22.080,FishGame,2022.1.1,59.87468232544888,
,15,넌 신경질적이야,5,Orange,B,2.375,2.233333333333333,ScrollUp,ScrollDown,Orange.png,5,Negative,Congruent,,,,,0,0,0,0,,,,,,,,,,,,,,,,,,,,,,,,,,,,,0,14,14,14,,,,,,,,,,,,,,,,,,,,,,,,,,,,,,,,,,,,,,,,,,,,,,,,,,,,,,,,,,,,,,,,,1.7777777860562007,0.8495293001178652,621.0222133998759,None,ScrollUp,정답입니다,621.0222133998759,None,621.0222133998759,None,621.0222133998759,None,621.0222133998759,None,621.7543678998481,None,621.7543678998481,622.2573398998939,,,,,,,,,,,,,,,,202,2023-03-27_15h50.22.080,FishGame,2022.1.1,59.87468232544888,
,16,넌 똑똑해,2,Orange,B,5.666666666666667,3.966666666666667,ScrollUp,ScrollDown,Orange.png,5,Positive,Incongruent,,,,,0,0,0,0,,,,,,,,,,,,,,,,,,,,,,,,,,,,,0,15,15,15,,,,,,,,,,,,,,,,,,,,,,,,,,,,,,,,,,,,,,,,,,,,,,,,,,,,,,,,,,,,,,,,,1.785493830839793,0.9166859998367727,622.8817201000638,None,ScrollUp,정답입니다,622.8817201000638,None,622.8817201000638,None,622.8817201000638,None,622.8817201000638,None,623.6906446998473,None,623.6906446998473,624.1907244999893,,,,,,,,,,,,,,,,202,2023-03-27_15h50.22.080,FishGame,2022.1.1,59.87468232544888,
,17,나를 보내줘,6,Green,A,0,0,ScrollUp,ScrollDown,Green.png,5,NonTarget,NonTarget,,,,,0,0,0,0,,,,,,,,,,,,,,,,,,,,,,,,,,,,,0,16,16,16,,,,,,,,,,,,,,,,,,,,,,,,,,,,,,,,,,,,,,,,,,,,,,,,,,,,,,,,,,,,,,,,,1.787037044763565,1.3661291000898927,624.8175059999339,None,ScrollUp,정답입니다,624.8175059999339,None,624.8175059999339,None,624.8175059999339,None,624.8175059999339,None,626.0711783999577,None,626.0711783999577,626.5738663999364,,,,,,,,,,,,,,,,202,2023-03-27_15h50.22.080,FishGame,2022.1.1,59.87468232544888,
,18,넌 협조적이야,1,Green,A,5.625,5.666666666666667,ScrollDown,ScrollUp,Green.png,5,Positive,Congruent,,,,,0,0,0,0,,,,,,,,,,,,,,,,,,,,,,,,,,,,,0,17,17,17,,,,,,,,,,,,,,,,,,,,,,,,,,,,,,,,,,,,,,,,,,,,,,,,,,,,,,,,,,,,,,,,,1.0324074228604634,0.9137671000789851,627.1925961999223,None,ScrollDown,정답입니다,627.1925961999223,None,627.1925961999223,None,627.1925961999223,None,627.1925961999223,None,628.0044664000161,None,628.0044664000161,628.5044678999111,,,,,,,,,,,,,,,,202,2023-03-27_15h50.22.080,FishGame,2022.1.1,59.87468232544888,
,19,나를 데려가줘,6,Orange,B,0,0,ScrollDown,ScrollUp,Orange.png,5,NonTarget,NonTarget,,,,,0,0,0,0,,,,,,,,,,,,,,,,,,,,,,,,,,,,,0,18,18,18,,,,,,,,,,,,,,,,,,,,,,,,,,,,,,,,,,,,,,,,,,,,,,,,,,,,,,,,,,,,,,,,,1.0740740497907002,0.9831884999293834,629.1296695000492,None,ScrollDown,정답입니다,629.1296695000492,None,629.1296695000492,None,629.1296695000492,None,629.1296695000492,None,630.0044481998775,None,630.0044481998775,630.5071393998805,,,,,,,,,,,,,,,,202,2023-03-27_15h50.22.080,FishGame,2022.1.1,59.87468232544888,
,20,넌 몰인정해,5,Orange,B,2.541666666666667,2.066666666666667,ScrollUp,ScrollDown,Orange.png,5,Negative,Congruent,,,,,0,0,0,0,,,,,,,,,,,,,,,,,,,,,,,,,,,,,0,19,19,19,,,,,,,,,,,,,,,,,,,,,,,,,,,,,,,,,,,,,,,,,,,,,,,,,,,,,,,,,,,,,,,,,1.632716049750646,0.7952608000487089,631.134789600037,None,ScrollUp,정답입니다,631.134789600037,None,631.134789600037,None,631.134789600037,None,631.134789600037,None,631.8236463000067,None,631.8236463000067,632.3236576998606,,,,,,,,,,,,,,,,202,2023-03-27_15h50.22.080,FishGame,2022.1.1,59.87468232544888,
