name,TrialNum,Word,WordCategory,FishType,WordList,WordValence,WordReputation,CorrectResp,IncorrectResp,FishTypeFile,Round,WordType,Condition,LoopforOrange.thisRepN,LoopforOrange.thisTrialN,LoopforOrange.thisN,LoopforOrange.thisIndex,OrangeInstLoop.thisRepN,OrangeInstLoop.thisTrialN,OrangeInstLoop.thisN,OrangeInstLoop.thisIndex,OrangePrac.thisRepN,OrangePrac.thisTrialN,OrangePrac.thisN,OrangePrac.thisIndex,temp1.thisRepN,temp1.thisTrialN,temp1.thisN,temp1.thisIndex,OrangeRound1.thisRepN,OrangeRound1.thisTrialN,OrangeRound1.thisN,OrangeRound1.thisIndex,OrangeRound2.thisRepN,OrangeRound2.thisTrialN,OrangeRound2.thisN,OrangeRound2.thisIndex,OrangeRound3.thisRepN,OrangeRound3.thisTrialN,OrangeRound3.thisN,OrangeRound3.thisIndex,OrangeRound4.thisRepN,OrangeRound4.thisTrialN,OrangeRound4.thisN,OrangeRound4.thisIndex,OrangeRound5.thisRepN,OrangeRound5.thisTrialN,OrangeRound5.thisN,OrangeRound5.thisIndex,LoopForGreen.thisRepN,LoopForGreen.thisTrialN,LoopForGreen.thisN,LoopForGreen.thisIndex,text_2.started,text_2.stopped,text_3.started,text_3.stopped,key_resp.keys,key_resp.rt,key_resp.started,key_resp.stopped,PassI_2.started,PassI_2.stopped,PassInst_2.keys,PassInst_2.rt,PassInst_2.started,PassInst_2.stopped,mouse_2.x,mouse_2.y,mouse_2.leftButton,mouse_2.midButton,mouse_2.rightButton,mouse_2.started,mouse_2.stopped,image.started,image.stopped,text_5.started,text_5.stopped,text_6.started,text_6.stopped,text_7.started,text_7.stopped,text_8.started,text_8.stopped,slider_2.response,slider_2.rt,slider_2.started,slider_2.stopped,Response_2,Feedback_2,BackGround_2.started,BackGround_2.stopped,Fish_2.started,Fish_2.stopped,WordBox_2.started,WordBox_2.stopped,Words_2.started,Words_2.stopped,BackGround_Feedback_2.started,BackGround_Feedback_2.stopped,Feedbacks_2.started,Feedbacks_2.stopped,Continue_or_not.keys,Continue_or_not.rt,Continue_or_not.started,Continue_or_not.stopped,image_3.started,image_3.stopped,mouse_3.x,mouse_3.y,mouse_3.leftButton,mouse_3.midButton,mouse_3.rightButton,mouse_3.started,mouse_3.stopped,startmain.started,startmain.stopped,slider.response,slider.rt,slider.started,slider.stopped,Response,Feedback,BackGround.started,BackGround.stopped,Fish.started,Fish.stopped,WordBox.started,WordBox.stopped,Words.started,Words.stopped,BackGround_Feedback.started,BackGround_Feedback.stopped,Feedbacks.started,Feedbacks.stopped,text.started,text.stopped,break_interval.started,break_interval.stopped,mouse.x,mouse.y,mouse.leftButton,mouse.midButton,mouse.rightButton,mouse.started,mouse.stopped,stratnextround.started,stratnextround.stopped,endgame.started,endgame.stopped,participant,date,expName,psychopyVersion,frameRate,
,,,,,,,,,,,,,,,,,,,,,,,,,,,,,,,,,,,,,,,,,,,,,,,,,,,,,,17.70503480010666,None,17.70503480010666,None,space,3.7136076998431236,18.183487300062552,None,,,,,,,,,,,,,,,,,,,,,,,,,,,,,,,,,,,,,,,,,,,,,,,,,,,,,,,,,,,,,,,,,,,,,,,,,,,,,,,,,,,,,,,,,,203,2023-03-27_17h39.00.929,FishGame,2022.1.1,60.035937520259665,
물고기과제_instruction(참가자용)OrangeVersion.mp4,,,,,,,,,,,,,,0,0,0,0,0,0,0,0,,,,,,,,,,,,,,,,,,,,,,,,,,,,,,,,,,,,,,,,,92.26246850006282,None,n,3.0747300998773426,92.26246850006282,None,,,,,,,,,,,,,,,,,,,,,,,,,,,,,,,,,,,,,,,,,,,,,,,,,,,,,,,,,,,,,,,,,,,,,,,,,,,,,,,,,,,,203,2023-03-27_17h39.00.929,FishGame,2022.1.1,60.035937520259665,
,1,넌 교활해,5,Green,B,2.333333333333333,2.133333333333333,ScrollUp,ScrollDown,Green.png,practice,,,0,0,0,0,,,,,0,0,0,0,0,0,0,0,,,,,,,,,,,,,,,,,,,,,,,,,,,,,,,,,,,,,,,0.022222223,-0.23055555,1,0,0,0.5140711897984147,None,95.36210800008848,None,99.18186050001532,100.6863959999755,100.70314700016752,101.66507880017161,101.71508700004779,102.66506620007567,102.66506620007567,None,1.6558641965190568,1.4354459000751376,103.93767560017295,None,ScrollUp,정답입니다,103.93767560017295,None,103.93767560017295,None,103.93767560017295,None,103.93767560017295,None,105.08156690001488,None,105.08156690001488,105.59822249994613,,,,,,,,,,,,,,,,,,,,,,,,,,,,,,,,,,,,,,,,,,,,,,,,,203,2023-03-27_17h39.00.929,FishGame,2022.1.1,60.035937520259665,
,2,넌 슬기로워,2,Orange,A,6.166666666666667,4.1,ScrollDown,ScrollUp,Orange.png,practice,,,0,0,0,0,,,,,0,0,0,0,0,1,1,1,,,,,,,,,,,,,,,,,,,,,,,,,,,,,,,,,,,,,,,,,,,,,,,,,,,,,,,,1.1851851791143417,1.0306603000499308,106.20366460015066,None,ScrollDown,정답입니다,106.20366460015066,None,106.20366460015066,None,106.20366460015066,None,106.20366460015066,None,107.12886140006594,None,107.12886140006594,107.631517900154,,,,,,,,,,,,,,,,,,,,,,,,,,,,,,,,,,,,,,,,,,,,,,,,,203,2023-03-27_17h39.00.929,FishGame,2022.1.1,60.035937520259665,
,3,나를 보내줘,6,Orange,A,0,0,ScrollUp,ScrollDown,Orange.png,practice,,,0,0,0,0,,,,,0,0,0,0,0,2,2,2,,,,,,,,,,,,,,,,,,,,,,,,,,,,,,,,,,,,,,,,,,,,,,,,,,,,,,,,1.7083333333333335,1.3834116000216454,108.25482879998162,None,ScrollUp,정답입니다,108.25482879998162,None,108.25482879998162,None,108.25482879998162,None,108.25482879998162,None,109.53143620002083,None,109.53143620002083,110.03144110017456,,,,,,,,,,,,,,,,,,,,,,,,,,,,,,,,,,,,,,,,,,,,,,,,,203,2023-03-27_17h39.00.929,FishGame,2022.1.1,60.035937520259665,
,4,나를 데려가줘,6,Green,B,0,0,ScrollDown,ScrollUp,Green.png,practice,,,0,0,0,0,,,,,0,0,0,0,0,3,3,3,,,,,,,,,,,,,,,,,,,,,,,,,,,,,,,,,,,,,,,,,,,,,,,,,,,,,,,,1,1.3314974999520928,110.65079850004986,None,ScrollDown,정답입니다,110.65079850004986,None,110.65079850004986,None,110.65079850004986,None,110.65079850004986,None,111.87875959998928,None,111.87875959998928,112.38140320009552,,,,,,,,,,,,,,,,,,,,,,,,,,,,,,,,,,,,,,,,,,,,,,,,,203,2023-03-27_17h39.00.929,FishGame,2022.1.1,60.035937520259665,
,1,넌 교활해,5,Green,B,2.333333333333333,2.133333333333333,ScrollUp,ScrollDown,Green.png,practice,,,0,0,0,0,,,,,0,0,0,0,,,,,,,,,,,,,,,,,,,,,,,,,,,,,,,,,,,,,,,,,,,,,,,,,,,,,,,,,,,,,,,,,,,,,,,,,,,,,,n,4.7062841998413205,112.88140569999814,None,112.88140569999814,None,,,,,,,,,,,,,,,,,,,,,,,,,,,,,,,,,,,,,,,,,,,203,2023-03-27_17h39.00.929,FishGame,2022.1.1,60.035937520259665,
,1,넌 따뜻해,1,Green,B,6.083333333333333,5.6,ScrollUp,ScrollDown,Green.png,1,Positive,Incongruent,0,0,0,0,,,,,,,,,,,,,0,0,0,0,,,,,,,,,,,,,,,,,,,,,,,,,,,,,,,,,,,,,,,,,,,,120.68128730007447,122.18134210002609,122.21473730006255,123.18136940011755,123.21472960012034,124.16464129998349,124.16464129998349,None,,,,,,,,,,,,,,,,,,,,,,,,,0.010185185,-0.11666667,1,0,0,0.3143549896776676,None,117.61167540005408,None,1.7932098756233852,1.5028216999489814,125.474545000121,None,ScrollUp,정답입니다,125.474545000121,None,125.474545000121,None,125.474545000121,None,125.474545000121,None,126.66450199997053,None,126.66450199997053,127.16442920011468,,,,,,,,,,,,,,,,203,2023-03-27_17h39.00.929,FishGame,2022.1.1,60.035937520259665,
,2,넌 기품있어,2,Green,B,5.791666666666668,4.5,ScrollUp,ScrollDown,Green.png,1,Positive,Incongruent,0,0,0,0,,,,,,,,,,,,,0,1,1,1,,,,,,,,,,,,,,,,,,,,,,,,,,,,,,,,,,,,,,,,,,,,,,,,,,,,,,,,,,,,,,,,,,,,,,,,,,,,,,,,,,,,,1.7114197611808777,1.197141099954024,127.78948820009828,None,ScrollUp,정답입니다,127.78948820009828,None,127.78948820009828,None,127.78948820009828,None,127.78948820009828,None,128.87842550012283,None,128.87842550012283,129.38105930015445,,,,,,,,,,,,,,,,203,2023-03-27_17h39.00.929,FishGame,2022.1.1,60.035937520259665,
,3,나를 보내줘,6,Orange,A,0,0,ScrollUp,ScrollDown,Orange.png,1,NonTarget,NonTarget,0,0,0,0,,,,,,,,,,,,,0,2,2,2,,,,,,,,,,,,,,,,,,,,,,,,,,,,,,,,,,,,,,,,,,,,,,,,,,,,,,,,,,,,,,,,,,,,,,,,,,,,,,,,,,,,,1.8009259204069774,1.2472055999096483,130.00950990011916,None,ScrollUp,정답입니다,130.00950990011916,None,130.00950990011916,None,130.00950990011916,None,130.00950990011916,None,131.1447354000993,None,131.1447354000993,131.64472560002469,,,,,,,,,,,,,,,,203,2023-03-27_17h39.00.929,FishGame,2022.1.1,60.035937520259665,
,4,넌 수동적이야,4,Orange,A,2.833333333333333,2.933333333333333,ScrollDown,ScrollUp,Orange.png,1,Negative,Incongruent,0,0,0,0,,,,,,,,,,,,,0,3,3,3,,,,,,,,,,,,,,,,,,,,,,,,,,,,,,,,,,,,,,,,,,,,,,,,,,,,,,,,,,,,,,,,,,,,,,,,,,,,,,,,,,,,,1.0787036915620167,1.048238500021398,132.27094580000266,None,ScrollDown,정답입니다,132.27094580000266,None,132.27094580000266,None,132.27094580000266,None,132.27094580000266,None,133.21141170011833,None,133.21141170011833,133.7143669000361,,,,,,,,,,,,,,,,203,2023-03-27_17h39.00.929,FishGame,2022.1.1,60.035937520259665,
,5,넌 사심이 없어,3,Green,B,4.916666666666666,4.333333333333333,ScrollUp,ScrollDown,Green.png,1,Neutral,Neutral,0,0,0,0,,,,,,,,,,,,,0,4,4,4,,,,,,,,,,,,,,,,,,,,,,,,,,,,,,,,,,,,,,,,,,,,,,,,,,,,,,,,,,,,,,,,,,,,,,,,,,,,,,,,,,,,,1.8873456766208012,1.0648605001624674,134.34400760009885,None,ScrollUp,정답입니다,134.34400760009885,None,134.34400760009885,None,134.34400760009885,None,134.34400760009885,None,135.2978793999646,None,135.2978793999646,135.79770590015687,,,,,,,,,,,,,,,,203,2023-03-27_17h39.00.929,FishGame,2022.1.1,60.035937520259665,
,6,넌 헤퍼,5,Orange,A,2.458333333333334,2.233333333333333,ScrollDown,ScrollUp,Orange.png,1,Negative,Incongruent,0,0,0,0,,,,,,,,,,,,,0,5,5,5,,,,,,,,,,,,,,,,,,,,,,,,,,,,,,,,,,,,,,,,,,,,,,,,,,,,,,,,,,,,,,,,,,,,,,,,,,,,,,,,,,,,,1,1.06162179983221,136.42336230003275,None,ScrollDown,정답입니다,136.42336230003275,None,136.42336230003275,None,136.42336230003275,None,136.42336230003275,None,137.3779824001249,None,137.3779824001249,137.87794680008665,,,,,,,,,,,,,,,,203,2023-03-27_17h39.00.929,FishGame,2022.1.1,60.035937520259665,
,7,넌 말쑥해,3,Orange,A,4.833333333333334,4.333333333333333,ScrollDown,ScrollUp,Orange.png,1,Neutral,Neutral,0,0,0,0,,,,,,,,,,,,,0,6,6,6,,,,,,,,,,,,,,,,,,,,,,,,,,,,,,,,,,,,,,,,,,,,,,,,,,,,,,,,,,,,,,,,,,,,,,,,,,,,,,,,,,,,,1,1.0333045998122543,138.50046650017612,None,ScrollDown,정답입니다,138.50046650017612,None,138.50046650017612,None,138.50046650017612,None,138.50046650017612,None,139.42799590015784,None,139.42799590015784,139.93093929998577,,,,,,,,,,,,,,,,203,2023-03-27_17h39.00.929,FishGame,2022.1.1,60.035937520259665,
,8,넌 투덜거려,5,Green,B,2.541666666666667,2.266666666666667,ScrollUp,ScrollDown,Green.png,1,Negative,Congruent,0,0,0,0,,,,,,,,,,,,,0,7,7,7,,,,,,,,,,,,,,,,,,,,,,,,,,,,,,,,,,,,,,,,,,,,,,,,,,,,,,,,,,,,,,,,,,,,,,,,,,,,,,,,,,,,,1.8441358109315236,1.0171244000084698,140.56230670004152,None,ScrollUp,정답입니다,140.56230670004152,None,140.56230670004152,None,140.56230670004152,None,140.56230670004152,None,141.46155270002782,None,141.46155270002782,141.96420520008542,,,,,,,,,,,,,,,,203,2023-03-27_17h39.00.929,FishGame,2022.1.1,60.035937520259665,
,9,넌 적극적이야,1,Orange,A,5.708333333333333,5.533333333333333,ScrollDown,ScrollUp,Orange.png,1,Positive,Congruent,0,0,0,0,,,,,,,,,,,,,0,8,8,8,,,,,,,,,,,,,,,,,,,,,,,,,,,,,,,,,,,,,,,,,,,,,,,,,,,,,,,,,,,,,,,,,,,,,,,,,,,,,,,,,,,,,1.0740740497907002,0.9638547000940889,142.5884442999959,None,ScrollDown,정답입니다,142.5884442999959,None,142.5884442999959,None,142.5884442999959,None,142.5884442999959,None,143.44739260012284,None,143.44739260012284,143.94744689995423,,,,,,,,,,,,,,,,203,2023-03-27_17h39.00.929,FishGame,2022.1.1,60.035937520259665,
,10,넌 재미없어,4,Green,B,2.625,2.966666666666667,ScrollUp,ScrollDown,Green.png,1,Negative,Congruent,0,0,0,0,,,,,,,,,,,,,0,9,9,9,,,,,,,,,,,,,,,,,,,,,,,,,,,,,,,,,,,,,,,,,,,,,,,,,,,,,,,,,,,,,,,,,,,,,,,,,,,,,,,,,,,,,1.9367283980051677,0.898291900055483,144.56953490013257,None,ScrollUp,정답입니다,144.56953490013257,None,144.56953490013257,None,144.56953490013257,None,144.56953490013257,None,145.36406769999303,None,145.36406769999303,145.8640648999717,,,,,,,,,,,,,,,,203,2023-03-27_17h39.00.929,FishGame,2022.1.1,60.035937520259665,
,11,넌 명석해,2,Orange,A,5.875,4.033333333333333,ScrollDown,ScrollUp,Orange.png,1,Positive,Congruent,0,0,0,0,,,,,,,,,,,,,0,10,10,10,,,,,,,,,,,,,,,,,,,,,,,,,,,,,,,,,,,,,,,,,,,,,,,,,,,,,,,,,,,,,,,,,,,,,,,,,,,,,,,,,,,,,1,0.9671179000288248,146.48885580012575,None,ScrollDown,정답입니다,146.48885580012575,None,146.48885580012575,None,146.48885580012575,None,146.48885580012575,None,147.34760019998066,None,147.34760019998066,147.84734940016642,,,,,,,,,,,,,,,,203,2023-03-27_17h39.00.929,FishGame,2022.1.1,60.035937520259665,
,12,나를 데려가줘,6,Green,B,0,0,ScrollDown,ScrollUp,Green.png,1,NonTarget,NonTarget,0,0,0,0,,,,,,,,,,,,,0,11,11,11,,,,,,,,,,,,,,,,,,,,,,,,,,,,,,,,,,,,,,,,,,,,,,,,,,,,,,,,,,,,,,,,,,,,,,,,,,,,,,,,,,,,,1,1.1867894001770765,148.47111829998903,None,ScrollDown,정답입니다,148.47111829998903,None,148.47111829998903,None,148.47111829998903,None,148.47111829998903,None,149.54482319997624,None,149.54482319997624,150.04738530004397,,,,,,,,,,,,,,,,203,2023-03-27_17h39.00.929,FishGame,2022.1.1,60.035937520259665,
,13,넌 소심해,4,Orange,A,3,3.1,ScrollDown,ScrollUp,Orange.png,1,Negative,Incongruent,0,0,0,0,,,,,,,,,,,,,0,12,12,12,,,,,,,,,,,,,,,,,,,,,,,,,,,,,,,,,,,,,,,,,,,,,,,,,,,,,,,,,,,,,,,,,,,,,,,,,,,,,,,,,,,,,1,1.0332288001663983,150.67738780006766,None,ScrollDown,정답입니다,150.67738780006766,None,150.67738780006766,None,150.67738780006766,None,150.67738780006766,None,151.59736740007065,None,151.59736740007065,152.09724429994822,,,,,,,,,,,,,,,,203,2023-03-27_17h39.00.929,FishGame,2022.1.1,60.035937520259665,
,14,넌 합리적이야,2,Orange,A,5.583333333333333,4.733333333333333,ScrollDown,ScrollUp,Orange.png,1,Positive,Congruent,0,0,0,0,,,,,,,,,,,,,0,13,13,13,,,,,,,,,,,,,,,,,,,,,,,,,,,,,,,,,,,,,,,,,,,,,,,,,,,,,,,,,,,,,,,,,,,,,,,,,,,,,,,,,,,,,1,0.9834851999767125,152.7225424000062,None,ScrollDown,정답입니다,152.7225424000062,None,152.7225424000062,None,152.7225424000062,None,152.7225424000062,None,153.5945767001249,None,153.5945767001249,154.09726730012335,,,,,,,,,,,,,,,,203,2023-03-27_17h39.00.929,FishGame,2022.1.1,60.035937520259665,
,15,넌 무자비해,5,Green,B,2.333333333333333,2.1,ScrollUp,ScrollDown,Green.png,1,Negative,Congruent,0,0,0,0,,,,,,,,,,,,,0,14,14,14,,,,,,,,,,,,,,,,,,,,,,,,,,,,,,,,,,,,,,,,,,,,,,,,,,,,,,,,,,,,,,,,,,,,,,,,,,,,,,,,,,,,,1.8472222139437993,0.9835453000850976,154.72510040015914,None,ScrollUp,정답입니다,154.72510040015914,None,154.72510040015914,None,154.72510040015914,None,154.72510040015914,None,155.59720970015042,None,155.59720970015042,156.09719460015185,,,,,,,,,,,,,,,,203,2023-03-27_17h39.00.929,FishGame,2022.1.1,60.035937520259665,
,16,나를 보내줘,6,Orange,A,0,0,ScrollUp,ScrollDown,Orange.png,1,NonTarget,NonTarget,0,0,0,0,,,,,,,,,,,,,0,15,15,15,,,,,,,,,,,,,,,,,,,,,,,,,,,,,,,,,,,,,,,,,,,,,,,,,,,,,,,,,,,,,,,,,,,,,,,,,,,,,,,,,,,,,1.8302469104528427,1.216669199988246,156.71840939996764,None,ScrollUp,정답입니다,156.71840939996764,None,156.71840939996764,None,156.71840939996764,None,156.71840939996764,None,157.83048600004986,None,157.83048600004986,158.32776629994623,,,,,,,,,,,,,,,,203,2023-03-27_17h39.00.929,FishGame,2022.1.1,60.035937520259665,
,17,넌 현실적이야,3,Green,B,4.608695652173913,4.766666666666667,ScrollUp,ScrollDown,Green.png,1,Neutral,Neutral,0,0,0,0,,,,,,,,,,,,,0,16,16,16,,,,,,,,,,,,,,,,,,,,,,,,,,,,,,,,,,,,,,,,,,,,,,,,,,,,,,,,,,,,,,,,,,,,,,,,,,,,,,,,,,,,,1.7283950646718345,1.2816570999566466,158.95308350003324,None,ScrollUp,정답입니다,158.95308350003324,None,158.95308350003324,None,158.95308350003324,None,158.95308350003324,None,160.12781039997935,None,160.12781039997935,160.63043180014938,,,,,,,,,,,,,,,,203,2023-03-27_17h39.00.929,FishGame,2022.1.1,60.035937520259665,
,18,넌 의리있어,1,Green,B,5.833333333333334,5.633333333333334,ScrollUp,ScrollDown,Green.png,1,Positive,Incongruent,0,0,0,0,,,,,,,,,,,,,0,17,17,17,,,,,,,,,,,,,,,,,,,,,,,,,,,,,,,,,,,,,,,,,,,,,,,,,,,,,,,,,,,,,,,,,,,,,,,,,,,,,,,,,,,,,1.805555562178294,0.9498430001549423,161.2520445000846,None,ScrollUp,정답입니다,161.2520445000846,None,161.2520445000846,None,161.2520445000846,None,161.2520445000846,None,162.09441480017267,None,162.09441480017267,162.59707380016334,,,,,,,,,,,,,,,,203,2023-03-27_17h39.00.929,FishGame,2022.1.1,60.035937520259665,
,19,넌 신경과민이야,5,Orange,A,2.541666666666667,2.166666666666667,ScrollDown,ScrollUp,Orange.png,1,Negative,Incongruent,0,0,0,0,,,,,,,,,,,,,0,18,18,18,,,,,,,,,,,,,,,,,,,,,,,,,,,,,,,,,,,,,,,,,,,,,,,,,,,,,,,,,,,,,,,,,,,,,,,,,,,,,,,,,,,,,1.0385802288850148,1.0667493999935687,163.22430710005574,None,ScrollDown,정답입니다,163.22430710005574,None,163.22430710005574,None,163.22430710005574,None,163.22430710005574,None,164.1805082000792,None,164.1805082000792,164.68039020011202,,,,,,,,,,,,,,,,203,2023-03-27_17h39.00.929,FishGame,2022.1.1,60.035937520259665,
,20,넌 편안해,1,Orange,A,5.916666666666666,5.866666666666666,ScrollDown,ScrollUp,Orange.png,1,Positive,Congruent,0,0,0,0,,,,,,,,,,,,,0,19,19,19,,,,,,,,,,,,,,,,,,,,,,,,,,,,,,,,,,,,,,,,,,,,,,,,,,,,,,,,,,,,,,,,,,,,,,,,,,,,,,,,,,,,,1.0061728358268738,1.0408924000803381,165.32332910015248,None,ScrollDown,정답입니다,165.32332910015248,None,165.32332910015248,None,165.32332910015248,None,165.32332910015248,None,166.24405100010335,None,166.24405100010335,166.74400179996155,,,,,,,,,,,,,,,,203,2023-03-27_17h39.00.929,FishGame,2022.1.1,60.035937520259665,
,21,넌 품위있어,2,Green,B,5.291666666666666,4.466666666666667,ScrollUp,ScrollDown,Green.png,1,Positive,Incongruent,0,0,0,0,,,,,,,,,,,,,0,20,20,20,,,,,,,,,,,,,,,,,,,,,,,,,,,,,,,,,,,,,,,,,,,,,,,,,,,,,,,,,,,,,,,,,,,,,,,,,,,,,,,,,,,,,1.8919753183921177,1.0192522001452744,167.36551799997687,None,ScrollUp,정답입니다,167.36551799997687,None,167.36551799997687,None,167.36551799997687,None,167.36551799997687,None,168.28051410010085,None,168.28051410010085,168.78037229995243,,,,,,,,,,,,,,,,203,2023-03-27_17h39.00.929,FishGame,2022.1.1,60.035937520259665,
,22,넌 빈틈없어,3,Orange,A,4.833333333333333,3.966666666666667,ScrollDown,ScrollUp,Orange.png,1,Neutral,Neutral,0,0,0,0,,,,,,,,,,,,,0,21,21,21,,,,,,,,,,,,,,,,,,,,,,,,,,,,,,,,,,,,,,,,,,,,,,,,,,,,,,,,,,,,,,,,,,,,,,,,,,,,,,,,,,,,,1.0262345671653748,1.0165186000522226,169.40609720000066,None,ScrollDown,정답입니다,169.40609720000066,None,169.40609720000066,None,169.40609720000066,None,169.40609720000066,None,170.31360960006714,None,170.31360960006714,170.8136366000399,,,,,,,,,,,,,,,,203,2023-03-27_17h39.00.929,FishGame,2022.1.1,60.035937520259665,
,23,넌 상상력없어,4,Green,B,2.833333333333333,3.133333333333333,ScrollUp,ScrollDown,Green.png,1,Negative,Congruent,0,0,0,0,,,,,,,,,,,,,0,22,22,22,,,,,,,,,,,,,,,,,,,,,,,,,,,,,,,,,,,,,,,,,,,,,,,,,,,,,,,,,,,,,,,,,,,,,,,,,,,,,,,,,,,,,1.746913582086563,1.0460860999301076,171.44010070012882,None,ScrollUp,정답입니다,171.44010070012882,None,171.44010070012882,None,171.44010070012882,None,171.44010070012882,None,172.38021470000967,None,172.38021470000967,172.8801488999743,,,,,,,,,,,,,,,,203,2023-03-27_17h39.00.929,FishGame,2022.1.1,60.035937520259665,
,24,넌 지혜로워,2,Green,B,6.333333333333334,4.633333333333334,ScrollUp,ScrollDown,Green.png,1,Positive,Incongruent,0,0,0,0,,,,,,,,,,,,,0,23,23,23,,,,,,,,,,,,,,,,,,,,,,,,,,,,,,,,,,,,,,,,,,,,,,,,,,,,,,,,,,,,,,,,,,,,,,,,,,,,,,,,,,,,,1.8317901243766148,0.9819403998553753,173.50411100010388,None,ScrollUp,정답입니다,173.50411100010388,None,173.50411100010388,None,173.50411100010388,None,173.50411100010388,None,174.37748500006273,None,174.37748500006273,174.8801617999561,,,,,,,,,,,,,,,,203,2023-03-27_17h39.00.929,FishGame,2022.1.1,60.035937520259665,
,25,넌 시끄러워,4,Orange,A,2.833333333333333,3.033333333333333,ScrollDown,ScrollUp,Orange.png,1,Negative,Incongruent,0,0,0,0,,,,,,,,,,,,,0,24,24,24,,,,,,,,,,,,,,,,,,,,,,,,,,,,,,,,,,,,,,,,,,,,,,,,,,,,,,,,,,,,,,,,,,,,,,,,,,,,,,,,,,,,,1,0.9982557001058012,175.50692260009237,None,ScrollDown,정답입니다,175.50692260009237,None,175.50692260009237,None,175.50692260009237,None,175.50692260009237,None,176.39462270005606,None,176.39462270005606,176.89711120002903,,,,,,,,,,,,,,,,203,2023-03-27_17h39.00.929,FishGame,2022.1.1,60.035937520259665,
,26,넌 만사태평이야,3,Green,B,4,4.333333333333333,ScrollUp,ScrollDown,Green.png,1,Neutral,Neutral,0,0,0,0,,,,,,,,,,,,,0,25,25,25,,,,,,,,,,,,,,,,,,,,,,,,,,,,,,,,,,,,,,,,,,,,,,,,,,,,,,,,,,,,,,,,,,,,,,,,,,,,,,,,,,,,,1.6682098706563315,1.000038699945435,177.52113000000827,None,ScrollUp,정답입니다,177.52113000000827,None,177.52113000000827,None,177.52113000000827,None,177.52113000000827,None,178.41359360003844,None,178.41359360003844,178.9271281999536,,,,,,,,,,,,,,,,203,2023-03-27_17h39.00.929,FishGame,2022.1.1,60.035937520259665,
,27,넌 붙임성있어,1,Orange,A,5.708333333333333,5.633333333333334,ScrollDown,ScrollUp,Orange.png,1,Positive,Congruent,0,0,0,0,,,,,,,,,,,,,0,26,26,26,,,,,,,,,,,,,,,,,,,,,,,,,,,,,,,,,,,,,,,,,,,,,,,,,,,,,,,,,,,,,,,,,,,,,,,,,,,,,,,,,,,,,1.0046296219031017,0.9979125000536442,179.55833080015145,None,ScrollDown,정답입니다,179.55833080015145,None,179.55833080015145,None,179.55833080015145,None,179.55833080015145,None,180.44377510016784,None,180.44377510016784,180.9437981999945,,,,,,,,,,,,,,,,203,2023-03-27_17h39.00.929,FishGame,2022.1.1,60.035937520259665,
,28,넌 영리해,2,Orange,A,6,4.033333333333333,ScrollDown,ScrollUp,Orange.png,1,Positive,Congruent,0,0,0,0,,,,,,,,,,,,,0,27,27,27,,,,,,,,,,,,,,,,,,,,,,,,,,,,,,,,,,,,,,,,,,,,,,,,,,,,,,,,,,,,,,,,,,,,,,,,,,,,,,,,,,,,,1.0462962985038757,1.014253299916163,181.57030410016887,None,ScrollDown,정답입니다,181.57030410016887,None,181.57030410016887,None,181.57030410016887,None,181.57030410016887,None,182.4801718001254,None,182.4801718001254,182.9801016000565,,,,,,,,,,,,,,,,203,2023-03-27_17h39.00.929,FishGame,2022.1.1,60.035937520259665,
,29,넌 열심이야,1,Green,B,6.041666666666667,5.833333333333333,ScrollUp,ScrollDown,Green.png,1,Positive,Incongruent,0,0,0,0,,,,,,,,,,,,,0,28,28,28,,,,,,,,,,,,,,,,,,,,,,,,,,,,,,,,,,,,,,,,,,,,,,,,,,,,,,,,,,,,,,,,,,,,,,,,,,,,,,,,,,,,,1.7546296268701553,0.9167061999905854,183.60297959996387,None,ScrollUp,정답입니다,183.60297959996387,None,183.60297959996387,None,183.60297959996387,None,183.60297959996387,None,184.4135827999562,None,184.4135827999562,184.92701079999097,,,,,,,,,,,,,,,,203,2023-03-27_17h39.00.929,FishGame,2022.1.1,60.035937520259665,
,30,넌 인기없어,4,Green,B,3,3.3,ScrollUp,ScrollDown,Green.png,1,Negative,Congruent,0,0,0,0,,,,,,,,,,,,,0,29,29,29,,,,,,,,,,,,,,,,,,,,,,,,,,,,,,,,,,,,,,,,,,,,,,,,,,,,,,,,,,,,,,,,,,,,,,,,,,,,,,,,,,,,,1.7623456716537476,0.8660260001197457,185.54610559996217,None,ScrollUp,정답입니다,185.54610559996217,None,185.54610559996217,None,185.54610559996217,None,185.54610559996217,None,186.3103108999785,None,186.3103108999785,186.81034069997258,,,,,,,,,,,,,,,,203,2023-03-27_17h39.00.929,FishGame,2022.1.1,60.035937520259665,
,31,넌 익살스러워,3,Orange,A,4.708333333333334,4.833333333333333,ScrollDown,ScrollUp,Orange.png,1,Neutral,Neutral,0,0,0,0,,,,,,,,,,,,,0,30,30,30,,,,,,,,,,,,,,,,,,,,,,,,,,,,,,,,,,,,,,,,,,,,,,,,,,,,,,,,,,,,,,,,,,,,,,,,,,,,,,,,,,,,,1.0540123681227367,0.9815942000132054,187.4469906000886,None,ScrollDown,정답입니다,187.4469906000886,None,187.4469906000886,None,187.4469906000886,None,187.4469906000886,None,188.31343420012854,None,188.31343420012854,188.81327200005762,,,,,,,,,,,,,,,,203,2023-03-27_17h39.00.929,FishGame,2022.1.1,60.035937520259665,
,32,넌 이기적이야,5,Green,B,2.291666666666667,2.333333333333333,ScrollUp,ScrollDown,Green.png,1,Negative,Congruent,0,0,0,0,,,,,,,,,,,,,0,31,31,31,,,,,,,,,,,,,,,,,,,,,,,,,,,,,,,,,,,,,,,,,,,,,,,,,,,,,,,,,,,,,,,,,,,,,,,,,,,,,,,,,,,,,1.8549382835626602,0.8656059000641108,189.4324430001434,None,ScrollUp,정답입니다,189.4324430001434,None,189.4324430001434,None,189.4324430001434,None,189.4324430001434,None,190.19670410011895,None,190.19670410011895,190.7102936001029,,,,,,,,,,,,,,,,203,2023-03-27_17h39.00.929,FishGame,2022.1.1,60.035937520259665,
,33,나를 데려가줘,6,Green,B,0,0,ScrollDown,ScrollUp,Green.png,1,NonTarget,NonTarget,0,0,0,0,,,,,,,,,,,,,0,32,32,32,,,,,,,,,,,,,,,,,,,,,,,,,,,,,,,,,,,,,,,,,,,,,,,,,,,,,,,,,,,,,,,,,,,,,,,,,,,,,,,,,,,,,1.7839506169160206,0.8331342001911253,191.32787650008686,None,ScrollUp,오답입니다,191.32787650008686,None,191.32787650008686,None,191.32787650008686,None,191.32787650008686,None,192.0602289000526,None,192.0602289000526,192.5632780001033,,,,,,,,,,,,,,,,203,2023-03-27_17h39.00.929,FishGame,2022.1.1,60.035937520259665,
,34,넌 기회주의자야,5,Orange,A,2.875,2.133333333333333,ScrollDown,ScrollUp,Orange.png,1,Negative,Incongruent,0,0,0,0,,,,,,,,,,,,,0,33,33,33,,,,,,,,,,,,,,,,,,,,,,,,,,,,,,,,,,,,,,,,,,,,,,,,,,,,,,,,,,,,,,,,,,,,,,,,,,,,,,,,,,,,,1.0509259402751923,1.2643207001965493,193.18908080016263,None,ScrollDown,정답입니다,193.18908080016263,None,193.18908080016263,None,193.18908080016263,None,193.18908080016263,None,194.34387990017422,None,194.34387990017422,194.84649380017072,,,,,,,,,,,,,,,,203,2023-03-27_17h39.00.929,FishGame,2022.1.1,60.035937520259665,
,1,넌 미성숙해,4,Orange,A,3,3.2,ScrollDown,ScrollUp,Orange.png,2,Negative,Incongruent,0,0,0,0,,,,,,,,,,,,,,,,,0,0,0,0,,,,,,,,,,,,,,,,,,,,,,,,,,,,,,,,,,,,,,,,226.976161000086,228.4762143001426,228.5095408000052,229.45951479999349,229.50976529996842,230.46270250016823,230.46270250016823,None,,,,,,,,,,,,,,,,,,,,,,,,,,,,,,,,,,1.0324074228604634,1.3830609999131411,231.55245950003155,None,ScrollDown,정답입니다,231.55245950003155,None,231.55245950003155,None,231.55245950003155,None,231.55245950003155,None,232.82631719997153,None,232.82631719997153,233.3290179001633,195.34656740003265,None,195.34656740003265,None,0.05648148,-0.11018518,1,0,0,0.016128289978951216,None,225.34654120006599,None,,,203,2023-03-27_17h39.00.929,FishGame,2022.1.1,60.035937520259665,
,2,넌 반사회적이야,5,Green,B,2.416666666666667,2.033333333333333,ScrollUp,ScrollDown,Green.png,2,Negative,Congruent,0,0,0,0,,,,,,,,,,,,,,,,,0,1,1,1,,,,,,,,,,,,,,,,,,,,,,,,,,,,,,,,,,,,,,,,,,,,,,,,,,,,,,,,,,,,,,,,,,,,,,,,,,,,,,,,,1.8148148208856583,1.048026300035417,233.9514001000207,None,ScrollUp,정답입니다,233.9514001000207,None,233.9514001000207,None,233.9514001000207,None,233.9514001000207,None,234.89570580003783,None,234.89570580003783,235.39567450014874,,,,,,,,,,,,,,,,203,2023-03-27_17h39.00.929,FishGame,2022.1.1,60.035937520259665,
,3,넌 유능해,2,Orange,A,6.208333333333333,4.433333333333334,ScrollDown,ScrollUp,Orange.png,2,Positive,Congruent,0,0,0,0,,,,,,,,,,,,,,,,,0,2,2,2,,,,,,,,,,,,,,,,,,,,,,,,,,,,,,,,,,,,,,,,,,,,,,,,,,,,,,,,,,,,,,,,,,,,,,,,,,,,,,,,,1.040123442808787,0.9499970998149365,236.02018890017644,None,ScrollDown,정답입니다,236.02018890017644,None,236.02018890017644,None,236.02018890017644,None,236.02018890017644,None,236.85962570016272,None,236.85962570016272,237.3592837001197,,,,,,,,,,,,,,,,203,2023-03-27_17h39.00.929,FishGame,2022.1.1,60.035937520259665,
,4,넌 능숙해,2,Green,B,5.666666666666667,4.733333333333333,ScrollUp,ScrollDown,Green.png,2,Positive,Incongruent,0,0,0,0,,,,,,,,,,,,,,,,,0,3,3,3,,,,,,,,,,,,,,,,,,,,,,,,,,,,,,,,,,,,,,,,,,,,,,,,,,,,,,,,,,,,,,,,,,,,,,,,,,,,,,,,,1.68364197264115,1.031211599940434,237.9759488001,None,ScrollUp,정답입니다,237.9759488001,None,237.9759488001,None,237.9759488001,None,237.9759488001,None,238.90925860009156,None,238.90925860009156,239.40935390000232,,,,,,,,,,,,,,,,203,2023-03-27_17h39.00.929,FishGame,2022.1.1,60.035937520259665,
,5,넌 진부해,4,Green,B,2.458333333333333,3.166666666666667,ScrollUp,ScrollDown,Green.png,2,Negative,Congruent,0,0,0,0,,,,,,,,,,,,,,,,,0,4,4,4,,,,,,,,,,,,,,,,,,,,,,,,,,,,,,,,,,,,,,,,,,,,,,,,,,,,,,,,,,,,,,,,,,,,,,,,,,,,,,,,,1.7978395173947017,0.9503894001245499,240.03621429996565,None,ScrollUp,정답입니다,240.03621429996565,None,240.03621429996565,None,240.03621429996565,None,240.03621429996565,None,240.87907809996977,None,240.87907809996977,241.3789345000405,,,,,,,,,,,,,,,,203,2023-03-27_17h39.00.929,FishGame,2022.1.1,60.035937520259665,
,6,나를 보내줘,6,Orange,A,0,0,ScrollUp,ScrollDown,Orange.png,2,NonTarget,NonTarget,0,0,0,0,,,,,,,,,,,,,,,,,0,5,5,5,,,,,,,,,,,,,,,,,,,,,,,,,,,,,,,,,,,,,,,,,,,,,,,,,,,,,,,,,,,,,,,,,,,,,,,,,,,,,,,,,1.8209876517454784,1.0640446001198143,242.00027780001983,None,ScrollUp,정답입니다,242.00027780001983,None,242.00027780001983,None,242.00027780001983,None,242.00027780001983,None,242.9622278001625,None,242.9622278001625,243.46219060011208,,,,,,,,,,,,,,,,203,2023-03-27_17h39.00.929,FishGame,2022.1.1,60.035937520259665,
,7,넌 엄격해,3,Orange,A,4.166666666666666,4.1,ScrollDown,ScrollUp,Orange.png,2,Neutral,Neutral,0,0,0,0,,,,,,,,,,,,,,,,,0,6,6,6,,,,,,,,,,,,,,,,,,,,,,,,,,,,,,,,,,,,,,,,,,,,,,,,,,,,,,,,,,,,,,,,,,,,,,,,,,,,,,,,,1.0756172637144725,1.099883500020951,244.08700800011866,None,ScrollDown,정답입니다,244.08700800011866,None,244.08700800011866,None,244.08700800011866,None,244.08700800011866,None,245.07604190008715,None,245.07604190008715,245.57603160012513,,,,,,,,,,,,,,,,203,2023-03-27_17h39.00.929,FishGame,2022.1.1,60.035937520259665,
,8,나를 보내줘,6,Orange,A,0,0,ScrollUp,ScrollDown,Orange.png,2,NonTarget,NonTarget,0,0,0,0,,,,,,,,,,,,,,,,,0,7,7,7,,,,,,,,,,,,,,,,,,,,,,,,,,,,,,,,,,,,,,,,,,,,,,,,,,,,,,,,,,,,,,,,,,,,,,,,,,,,,,,,,1.8364197413126628,1.031726700020954,246.19936640001833,None,ScrollUp,정답입니다,246.19936640001833,None,246.19936640001833,None,246.19936640001833,None,246.19936640001833,None,247.12606750009581,None,247.12606750009581,247.6286848001182,,,,,,,,,,,,,,,,203,2023-03-27_17h39.00.929,FishGame,2022.1.1,60.035937520259665,
,9,넌 대담해,3,Green,B,4.875,4.866666666666666,ScrollUp,ScrollDown,Green.png,2,Neutral,Neutral,0,0,0,0,,,,,,,,,,,,,,,,,0,8,8,8,,,,,,,,,,,,,,,,,,,,,,,,,,,,,,,,,,,,,,,,,,,,,,,,,,,,,,,,,,,,,,,,,,,,,,,,,,,,,,,,,1.5740740758677325,0.9787431000731885,248.251146200113,None,ScrollUp,정답입니다,248.251146200113,None,248.251146200113,None,248.251146200113,None,248.251146200113,None,249.12864760006778,None,249.12864760006778,249.62603679997846,,,,,,,,,,,,,,,,203,2023-03-27_17h39.00.929,FishGame,2022.1.1,60.035937520259665,
,10,넌 꾸준해,1,Orange,A,5.916666666666668,5.8,ScrollDown,ScrollUp,Orange.png,2,Positive,Congruent,0,0,0,0,,,,,,,,,,,,,,,,,0,9,9,9,,,,,,,,,,,,,,,,,,,,,,,,,,,,,,,,,,,,,,,,,,,,,,,,,,,,,,,,,,,,,,,,,,,,,,,,,,,,,,,,,1.0154321193695068,1.0307232001796365,250.2588635000866,None,ScrollDown,정답입니다,250.2588635000866,None,250.2588635000866,None,250.2588635000866,None,250.2588635000866,None,251.17578710010275,None,251.17578710010275,251.67568260012195,,,,,,,,,,,,,,,,203,2023-03-27_17h39.00.929,FishGame,2022.1.1,60.035937520259665,
,11,나를 데려가줘,6,Green,B,0,0,ScrollDown,ScrollUp,Green.png,2,NonTarget,NonTarget,0,0,0,0,,,,,,,,,,,,,,,,,0,10,10,10,,,,,,,,,,,,,,,,,,,,,,,,,,,,,,,,,,,,,,,,,,,,,,,,,,,,,,,,,,,,,,,,,,,,,,,,,,,,,,,,,1,1.1995061999186873,252.29791940003633,None,ScrollDown,정답입니다,252.29791940003633,None,252.29791940003633,None,252.29791940003633,None,252.29791940003633,None,253.39546130015515,None,253.39546130015515,253.89554279996082,,,,,,,,,,,,,,,,203,2023-03-27_17h39.00.929,FishGame,2022.1.1,60.035937520259665,
,12,넌 독선적이야,5,Orange,A,2.458333333333333,1.933333333333333,ScrollDown,ScrollUp,Orange.png,2,Negative,Incongruent,0,0,0,0,,,,,,,,,,,,,,,,,0,11,11,11,,,,,,,,,,,,,,,,,,,,,,,,,,,,,,,,,,,,,,,,,,,,,,,,,,,,,,,,,,,,,,,,,,,,,,,,,,,,,,,,,1.0617283880710602,1.0971210999414325,254.52129360008985,None,ScrollDown,정답입니다,254.52129360008985,None,254.52129360008985,None,254.52129360008985,None,254.52129360008985,None,255.50926950015128,None,255.50926950015128,256.0119139000308,,,,,,,,,,,,,,,,203,2023-03-27_17h39.00.929,FishGame,2022.1.1,60.035937520259665,
,13,나를 보내줘,6,Orange,A,0,0,ScrollUp,ScrollDown,Orange.png,2,NonTarget,NonTarget,0,0,0,0,,,,,,,,,,,,,,,,,0,12,12,12,,,,,,,,,,,,,,,,,,,,,,,,,,,,,,,,,,,,,,,,,,,,,,,,,,,,,,,,,,,,,,,,,,,,,,,,,,,,,,,,,1.8287036965290706,1.0162907000631094,256.63278109999374,None,ScrollUp,정답입니다,256.63278109999374,None,256.63278109999374,None,256.63278109999374,None,256.63278109999374,None,257.54245400009677,None,257.54245400009677,258.0451867999509,,,,,,,,,,,,,,,,203,2023-03-27_17h39.00.929,FishGame,2022.1.1,60.035937520259665,
,14,넌 책임감있어,1,Green,B,6.347826086956522,6,ScrollUp,ScrollDown,Green.png,2,Positive,Incongruent,0,0,0,0,,,,,,,,,,,,,,,,,0,13,13,13,,,,,,,,,,,,,,,,,,,,,,,,,,,,,,,,,,,,,,,,,,,,,,,,,,,,,,,,,,,,,,,,,,,,,,,,,,,,,,,,,1.7067901194095612,1.0954702000599355,258.6672555000987,None,ScrollUp,정답입니다,258.6672555000987,None,258.6672555000987,None,258.6672555000987,None,258.6672555000987,None,259.6591662999708,None,259.6591662999708,260.16178319999017,,,,,,,,,,,,,,,,203,2023-03-27_17h39.00.929,FishGame,2022.1.1,60.035937520259665,
,15,넌 문학적이야,3,Orange,A,4.708333333333334,4.333333333333333,ScrollDown,ScrollUp,Orange.png,2,Neutral,Neutral,0,0,0,0,,,,,,,,,,,,,,,,,0,14,14,14,,,,,,,,,,,,,,,,,,,,,,,,,,,,,,,,,,,,,,,,,,,,,,,,,,,,,,,,,,,,,,,,,,,,,,,,,,,,,,,,,1.1512345721324284,0.9335390001069754,260.78699080017395,None,ScrollDown,정답입니다,260.78699080017395,None,260.78699080017395,None,260.78699080017395,None,260.78699080017395,None,261.609094100073,None,261.609094100073,262.1117285999935,,,,,,,,,,,,,,,,203,2023-03-27_17h39.00.929,FishGame,2022.1.1,60.035937520259665,
,16,넌 재미있어,1,Green,B,5.875,5.7,ScrollUp,ScrollDown,Green.png,2,Positive,Incongruent,0,0,0,0,,,,,,,,,,,,,,,,,0,15,15,15,,,,,,,,,,,,,,,,,,,,,,,,,,,,,,,,,,,,,,,,,,,,,,,,,,,,,,,,,,,,,,,,,,,,,,,,,,,,,,,,,1.723765422900518,0.9484894999768585,262.730276199989,None,ScrollUp,정답입니다,262.730276199989,None,262.730276199989,None,262.730276199989,None,262.730276199989,None,263.57574280002154,None,263.57574280002154,264.07841420010664,,,,,,,,,,,,,,,,203,2023-03-27_17h39.00.929,FishGame,2022.1.1,60.035937520259665,
,17,나를 데려가줘,6,Green,B,0,0,ScrollDown,ScrollUp,Green.png,2,NonTarget,NonTarget,0,0,0,0,,,,,,,,,,,,,,,,,0,16,16,16,,,,,,,,,,,,,,,,,,,,,,,,,,,,,,,,,,,,,,,,,,,,,,,,,,,,,,,,,,,,,,,,,,,,,,,,,,,,,,,,,1.1481481442848842,0.995472899870947,264.6980268000625,None,ScrollDown,정답입니다,264.6980268000625,None,264.6980268000625,None,264.6980268000625,None,264.6980268000625,None,265.5950403001625,None,265.5950403001625,266.09508000011556,,,,,,,,,,,,,,,,203,2023-03-27_17h39.00.929,FishGame,2022.1.1,60.035937520259665,
,18,넌 협력적이야,1,Orange,A,5.625,5.633333333333334,ScrollDown,ScrollUp,Orange.png,2,Positive,Congruent,0,0,0,0,,,,,,,,,,,,,,,,,0,17,17,17,,,,,,,,,,,,,,,,,,,,,,,,,,,,,,,,,,,,,,,,,,,,,,,,,,,,,,,,,,,,,,,,,,,,,,,,,,,,,,,,,1.0864197611808777,0.945343199884519,266.72330350009724,None,ScrollDown,정답입니다,266.72330350009724,None,266.72330350009724,None,266.72330350009724,None,266.72330350009724,None,267.55873390007764,None,267.55873390007764,268.05869430000894,,,,,,,,,,,,,,,,203,2023-03-27_17h39.00.929,FishGame,2022.1.1,60.035937520259665,
,19,넌 평범해,3,Green,B,4.333333333333332,4.233333333333333,ScrollUp,ScrollDown,Green.png,2,Neutral,Neutral,0,0,0,0,,,,,,,,,,,,,,,,,0,18,18,18,,,,,,,,,,,,,,,,,,,,,,,,,,,,,,,,,,,,,,,,,,,,,,,,,,,,,,,,,,,,,,,,,,,,,,,,,,,,,,,,,1.7824074029922485,0.884605199797079,268.68182369996794,None,ScrollUp,정답입니다,268.68182369996794,None,268.68182369996794,None,268.68182369996794,None,268.68182369996794,None,269.4590595001355,None,269.4590595001355,269.96170350001194,,,,,,,,,,,,,,,,203,2023-03-27_17h39.00.929,FishGame,2022.1.1,60.035937520259665,
,20,넌 오만해,5,Orange,A,2.333333333333333,2,ScrollDown,ScrollUp,Orange.png,2,Negative,Incongruent,0,0,0,0,,,,,,,,,,,,,,,,,0,19,19,19,,,,,,,,,,,,,,,,,,,,,,,,,,,,,,,,,,,,,,,,,,,,,,,,,,,,,,,,,,,,,,,,,,,,,,,,,,,,,,,,,1.2160493830839794,0.9002519999630749,270.58570159994997,None,ScrollDown,정답입니다,270.58570159994997,None,270.58570159994997,None,270.58570159994997,None,270.58570159994997,None,271.3756931000389,None,271.3756931000389,271.8783058000263,,,,,,,,,,,,,,,,203,2023-03-27_17h39.00.929,FishGame,2022.1.1,60.035937520259665,
,21,넌 운이없어,4,Green,B,3,3.466666666666667,ScrollUp,ScrollDown,Green.png,2,Negative,Congruent,0,0,0,0,,,,,,,,,,,,,,,,,0,20,20,20,,,,,,,,,,,,,,,,,,,,,,,,,,,,,,,,,,,,,,,,,,,,,,,,,,,,,,,,,,,,,,,,,,,,,,,,,,,,,,,,,1.7422839403152466,0.9165095000062138,272.50056990003213,None,ScrollUp,정답입니다,272.50056990003213,None,272.50056990003213,None,272.50056990003213,None,272.50056990003213,None,273.3088388000615,None,273.3088388000615,273.8115171000827,,,,,,,,,,,,,,,,203,2023-03-27_17h39.00.929,FishGame,2022.1.1,60.035937520259665,
,22,넌 창조적이야,2,Green,B,6.125,4.633333333333334,ScrollUp,ScrollDown,Green.png,2,Positive,Incongruent,0,0,0,0,,,,,,,,,,,,,,,,,0,21,21,21,,,,,,,,,,,,,,,,,,,,,,,,,,,,,,,,,,,,,,,,,,,,,,,,,,,,,,,,,,,,,,,,,,,,,,,,,,,,,,,,,1.8688271592060726,0.9140411000698805,274.4348343000747,None,ScrollUp,정답입니다,274.4348343000747,None,274.4348343000747,None,274.4348343000747,None,274.4348343000747,None,275.24209820013493,None,275.24209820013493,275.7453370001167,,,,,,,,,,,,,,,,203,2023-03-27_17h39.00.929,FishGame,2022.1.1,60.035937520259665,
,23,나를 보내줘,6,Orange,A,0,0,ScrollUp,ScrollDown,Orange.png,2,NonTarget,NonTarget,0,0,0,0,,,,,,,,,,,,,,,,,0,22,22,22,,,,,,,,,,,,,,,,,,,,,,,,,,,,,,,,,,,,,,,,,,,,,,,,,,,,,,,,,,,,,,,,,,,,,,,,,,,,,,,,,1.859567900498708,0.9972606999799609,276.36597710009664,None,ScrollUp,정답입니다,276.36597710009664,None,276.36597710009664,None,276.36597710009664,None,276.36597710009664,None,277.26148840016685,None,277.26148840016685,277.7614784000907,,,,,,,,,,,,,,,,203,2023-03-27_17h39.00.929,FishGame,2022.1.1,60.035937520259665,
,24,넌 통찰력있어,2,Orange,A,6.5,4.8,ScrollDown,ScrollUp,Orange.png,2,Positive,Congruent,0,0,0,0,,,,,,,,,,,,,,,,,0,23,23,23,,,,,,,,,,,,,,,,,,,,,,,,,,,,,,,,,,,,,,,,,,,,,,,,,,,,,,,,,,,,,,,,,,,,,,,,,,,,,,,,,1.0895061641931534,1.0481948000378907,278.38668860006146,None,ScrollDown,정답입니다,278.38668860006146,None,278.38668860006146,None,278.38668860006146,None,278.38668860006146,None,279.32544709998183,None,279.32544709998183,279.8280836001504,,,,,,,,,,,,,,,,203,2023-03-27_17h39.00.929,FishGame,2022.1.1,60.035937520259665,
,25,넌 경솔해,5,Green,B,2.458333333333333,2.266666666666667,ScrollUp,ScrollDown,Green.png,2,Negative,Congruent,0,0,0,0,,,,,,,,,,,,,,,,,0,24,24,24,,,,,,,,,,,,,,,,,,,,,,,,,,,,,,,,,,,,,,,,,,,,,,,,,,,,,,,,,,,,,,,,,,,,,,,,,,,,,,,,,1.746913582086563,0.9146204001735896,280.4546916000545,None,ScrollUp,정답입니다,280.4546916000545,None,280.4546916000545,None,280.4546916000545,None,280.4546916000545,None,281.2586682999972,None,281.2586682999972,281.76130520016886,,,,,,,,,,,,,,,,203,2023-03-27_17h39.00.929,FishGame,2022.1.1,60.035937520259665,
,26,넌 초조해,4,Orange,A,2.916666666666667,3.133333333333333,ScrollDown,ScrollUp,Orange.png,2,Negative,Incongruent,0,0,0,0,,,,,,,,,,,,,,,,,0,25,25,25,,,,,,,,,,,,,,,,,,,,,,,,,,,,,,,,,,,,,,,,,,,,,,,,,,,,,,,,,,,,,,,,,,,,,,,,,,,,,,,,,1,0.998252300079912,282.3890037999954,None,ScrollDown,정답입니다,282.3890037999954,None,282.3890037999954,None,282.3890037999954,None,282.3890037999954,None,283.275335600134,None,283.275335600134,283.7780112000182,,,,,,,,,,,,,,,,203,2023-03-27_17h39.00.929,FishGame,2022.1.1,60.035937520259665,
,27,넌 무관심해,4,Green,B,2.833333333333333,2.9,ScrollUp,ScrollDown,Green.png,2,Negative,Congruent,0,0,0,0,,,,,,,,,,,,,,,,,0,26,26,26,,,,,,,,,,,,,,,,,,,,,,,,,,,,,,,,,,,,,,,,,,,,,,,,,,,,,,,,,,,,,,,,,,,,,,,,,,,,,,,,,1.6188271616895995,0.8136635001283139,284.3994200001471,None,ScrollUp,정답입니다,284.3994200001471,None,284.3994200001471,None,284.3994200001471,None,284.3994200001471,None,285.10864640004,None,285.10864640004,285.61130090011284,,,,,,,,,,,,,,,,203,2023-03-27_17h39.00.929,FishGame,2022.1.1,60.035937520259665,
,28,넌 감성적이야,3,Green,B,4.125,4.166666666666667,ScrollUp,ScrollDown,Green.png,2,Neutral,Neutral,0,0,0,0,,,,,,,,,,,,,,,,,0,27,27,27,,,,,,,,,,,,,,,,,,,,,,,,,,,,,,,,,,,,,,,,,,,,,,,,,,,,,,,,,,,,,,,,,,,,,,,,,,,,,,,,,1.839506169160207,0.8648252999410033,286.230261299992,None,ScrollUp,정답입니다,286.230261299992,None,286.230261299992,None,286.230261299992,None,286.230261299992,None,286.991989800008,None,286.991989800008,287.4993933001533,,,,,,,,,,,,,,,,203,2023-03-27_17h39.00.929,FishGame,2022.1.1,60.035937520259665,
,29,넌 배려심있어,1,Orange,A,6.083333333333333,5.5,ScrollDown,ScrollUp,Orange.png,2,Positive,Congruent,0,0,0,0,,,,,,,,,,,,,,,,,0,28,28,28,,,,,,,,,,,,,,,,,,,,,,,,,,,,,,,,,,,,,,,,,,,,,,,,,,,,,,,,,,,,,,,,,,,,,,,,,,,,,,,,,1.0540123681227367,0.8667699000798166,288.1127492999658,None,ScrollDown,정답입니다,288.1127492999658,None,288.1127492999658,None,288.1127492999658,None,288.1127492999658,None,288.8749395001214,None,288.8749395001214,289.37491660006344,,,,,,,,,,,,,,,,203,2023-03-27_17h39.00.929,FishGame,2022.1.1,60.035937520259665,
,30,넌 숨김없어,3,Orange,A,4.5,4.933333333333334,ScrollDown,ScrollUp,Orange.png,2,Neutral,Neutral,0,0,0,0,,,,,,,,,,,,,,,,,0,29,29,29,,,,,,,,,,,,,,,,,,,,,,,,,,,,,,,,,,,,,,,,,,,,,,,,,,,,,,,,,,,,,,,,,,,,,,,,,,,,,,,,,1.0324074228604634,0.9348363999743015,290.00119780004025,None,ScrollDown,정답입니다,290.00119780004025,None,290.00119780004025,None,290.00119780004025,None,290.00119780004025,None,290.82792489998974,None,290.82792489998974,291.3279657000676,,,,,,,,,,,,,,,,203,2023-03-27_17h39.00.929,FishGame,2022.1.1,60.035937520259665,
,31,넌 훌륭해,2,Green,B,5.916666666666667,4.033333333333333,ScrollUp,ScrollDown,Green.png,2,Positive,Incongruent,0,0,0,0,,,,,,,,,,,,,,,,,0,30,30,30,,,,,,,,,,,,,,,,,,,,,,,,,,,,,,,,,,,,,,,,,,,,,,,,,,,,,,,,,,,,,,,,,,,,,,,,,,,,,,,,,1.8225308656692505,0.8954836998600513,291.9506890999619,None,ScrollUp,정답입니다,291.9506890999619,None,291.9506890999619,None,291.9506890999619,None,291.9506890999619,None,292.7418740000576,None,292.7418740000576,293.24450449994765,,,,,,,,,,,,,,,,203,2023-03-27_17h39.00.929,FishGame,2022.1.1,60.035937520259665,
,32,넌 슬기로워,2,Orange,A,6.166666666666667,4.1,ScrollDown,ScrollUp,Orange.png,2,Positive,Congruent,0,0,0,0,,,,,,,,,,,,,,,,,0,31,31,31,,,,,,,,,,,,,,,,,,,,,,,,,,,,,,,,,,,,,,,,,,,,,,,,,,,,,,,,,,,,,,,,,,,,,,,,,,,,,,,,,1.1080246816078823,0.890687600011006,293.8787652000319,None,ScrollDown,정답입니다,293.8787652000319,None,293.8787652000319,None,293.8787652000319,None,293.8787652000319,None,294.65857510012574,None,294.65857510012574,295.1581338001415,,,,,,,,,,,,,,,,203,2023-03-27_17h39.00.929,FishGame,2022.1.1,60.035937520259665,
,33,넌 냉혹해,5,Orange,A,2.583333333333333,2.1,ScrollDown,ScrollUp,Orange.png,2,Negative,Incongruent,0,0,0,0,,,,,,,,,,,,,,,,,0,32,32,32,,,,,,,,,,,,,,,,,,,,,,,,,,,,,,,,,,,,,,,,,,,,,,,,,,,,,,,,,,,,,,,,,,,,,,,,,,,,,,,,,1.0848765472571056,0.952838399913162,295.78064090013504,None,ScrollDown,정답입니다,295.78064090013504,None,295.78064090013504,None,295.78064090013504,None,295.78064090013504,None,296.6277845001314,None,296.6277845001314,297.12779329996556,,,,,,,,,,,,,,,,203,2023-03-27_17h39.00.929,FishGame,2022.1.1,60.035937520259665,
,34,나를 데려가줘,6,Green,B,0,0,ScrollDown,ScrollUp,Green.png,2,NonTarget,NonTarget,0,0,0,0,,,,,,,,,,,,,,,,,0,33,33,33,,,,,,,,,,,,,,,,,,,,,,,,,,,,,,,,,,,,,,,,,,,,,,,,,,,,,,,,,,,,,,,,,,,,,,,,,,,,,,,,,1,1.1149863000027835,297.7471829999704,None,ScrollDown,정답입니다,297.7471829999704,None,297.7471829999704,None,297.7471829999704,None,297.7471829999704,None,298.75847400003113,None,298.75847400003113,299.2611220001709,,,,,,,,,,,,,,,,203,2023-03-27_17h39.00.929,FishGame,2022.1.1,60.035937520259665,
,35,넌 편파적이야,5,Green,B,2.125,2,ScrollUp,ScrollDown,Green.png,2,Negative,Congruent,0,0,0,0,,,,,,,,,,,,,,,,,0,34,34,34,,,,,,,,,,,,,,,,,,,,,,,,,,,,,,,,,,,,,,,,,,,,,,,,,,,,,,,,,,,,,,,,,,,,,,,,,,,,,,,,,1.7052469179034233,0.9591318001039326,299.9015868001152,None,ScrollUp,정답입니다,299.9015868001152,None,299.9015868001152,None,299.9015868001152,None,299.9015868001152,None,300.7413713000715,None,300.7413713000715,301.24134730012156,,,,,,,,,,,,,,,,203,2023-03-27_17h39.00.929,FishGame,2022.1.1,60.035937520259665,
,36,넌 슬퍼,4,Orange,A,2.583333333333333,3.066666666666667,ScrollDown,ScrollUp,Orange.png,2,Negative,Incongruent,0,0,0,0,,,,,,,,,,,,,,,,,0,35,35,35,,,,,,,,,,,,,,,,,,,,,,,,,,,,,,,,,,,,,,,,,,,,,,,,,,,,,,,,,,,,,,,,,,,,,,,,,,,,,,,,,1.2438271592060726,1.0484335001092404,301.8595168001484,None,ScrollDown,정답입니다,301.8595168001484,None,301.8595168001484,None,301.8595168001484,None,301.8595168001484,None,302.8110307001043,None,302.8110307001043,303.3109816000797,,,,,,,,,,,,,,,,203,2023-03-27_17h39.00.929,FishGame,2022.1.1,60.035937520259665,
,37,나를 데려가줘,6,Green,B,0,0,ScrollDown,ScrollUp,Green.png,2,NonTarget,NonTarget,0,0,0,0,,,,,,,,,,,,,,,,,0,36,36,36,,,,,,,,,,,,,,,,,,,,,,,,,,,,,,,,,,,,,,,,,,,,,,,,,,,,,,,,,,,,,,,,,,,,,,,,,,,,,,,,,1.0015431940555573,1.0972140999510884,303.9310612999834,None,ScrollDown,정답입니다,303.9310612999834,None,303.9310612999834,None,303.9310612999834,None,303.9310612999834,None,304.92765640001744,None,304.92765640001744,305.4275917999912,,,,,,,,,,,,,,,,203,2023-03-27_17h39.00.929,FishGame,2022.1.1,60.035937520259665,
,38,넌 친절해,1,Green,B,6.041666666666667,5.533333333333333,ScrollUp,ScrollDown,Green.png,2,Positive,Incongruent,0,0,0,0,,,,,,,,,,,,,,,,,0,37,37,37,,,,,,,,,,,,,,,,,,,,,,,,,,,,,,,,,,,,,,,,,,,,,,,,,,,,,,,,,,,,,,,,,,,,,,,,,,,,,,,,,1.663580241302649,0.8742466999683529,306.0582096001599,None,ScrollUp,정답입니다,306.0582096001599,None,306.0582096001599,None,306.0582096001599,None,306.0582096001599,None,306.82747320015915,None,306.82747320015915,307.3275113001,,,,,,,,,,,,,,,,203,2023-03-27_17h39.00.929,FishGame,2022.1.1,60.035937520259665,
,1,넌 엉성해,4,Orange,A,3,3.3,ScrollDown,ScrollUp,Orange.png,3,Negative,Incongruent,0,0,0,0,,,,,,,,,,,,,,,,,,,,,0,0,0,0,,,,,,,,,,,,,,,,,,,,,,,,,,,,,,,,,,,,339.65723590017296,341.15755410003476,341.1906373000238,342.1439571999945,342.1937675999943,343.14385850005783,343.14385850005783,None,,,,,,,,,,,,,,,,,,,,,,,,,,,,,,,,,,1.194444437821706,1.134812799980864,344.25045499997213,None,ScrollDown,정답입니다,344.25045499997213,None,344.25045499997213,None,344.25045499997213,None,344.25045499997213,None,345.2740817000158,None,345.2740817000158,345.77676540007815,307.8275254999753,None,307.8275254999753,None,0.04074074,-0.1037037,1,0,0,0.016409089788794518,None,337.82691449997947,None,,,203,2023-03-27_17h39.00.929,FishGame,2022.1.1,60.035937520259665,
,2,나를 보내줘,6,Orange,A,0,0,ScrollUp,ScrollDown,Orange.png,3,NonTarget,NonTarget,0,0,0,0,,,,,,,,,,,,,,,,,,,,,0,1,1,1,,,,,,,,,,,,,,,,,,,,,,,,,,,,,,,,,,,,,,,,,,,,,,,,,,,,,,,,,,,,,,,,,,,,,,,,,,,,,1.8348765522241592,0.9831511001102626,346.39965520007536,None,ScrollUp,정답입니다,346.39965520007536,None,346.39965520007536,None,346.39965520007536,None,346.39965520007536,None,347.27408110001124,None,347.27408110001124,347.77674230001867,,,,,,,,,,,,,,,,203,2023-03-27_17h39.00.929,FishGame,2022.1.1,60.035937520259665,
,3,넌 활발해,1,Green,B,5.666666666666667,5.6,ScrollUp,ScrollDown,Green.png,3,Positive,Incongruent,0,0,0,0,,,,,,,,,,,,,,,,,,,,,0,2,2,2,,,,,,,,,,,,,,,,,,,,,,,,,,,,,,,,,,,,,,,,,,,,,,,,,,,,,,,,,,,,,,,,,,,,,,,,,,,,,1.7083333333333335,0.8334729999769479,348.39917550003156,None,ScrollUp,정답입니다,348.39917550003156,None,348.39917550003156,None,348.39917550003156,None,348.39917550003156,None,349.1268670000136,None,349.1268670000136,349.62671630014665,,,,,,,,,,,,,,,,203,2023-03-27_17h39.00.929,FishGame,2022.1.1,60.035937520259665,
,4,넌 논리적이야,2,Orange,A,5.666666666666666,4.633333333333334,ScrollDown,ScrollUp,Orange.png,3,Positive,Congruent,0,0,0,0,,,,,,,,,,,,,,,,,,,,,0,3,3,3,,,,,,,,,,,,,,,,,,,,,,,,,,,,,,,,,,,,,,,,,,,,,,,,,,,,,,,,,,,,,,,,,,,,,,,,,,,,,1.2731481492519379,0.850263100117445,350.2620947000105,None,ScrollDown,정답입니다,350.2620947000105,None,350.2620947000105,None,350.2620947000105,None,350.2620947000105,None,351.0070403001737,None,351.0070403001737,351.50739170005545,,,,,,,,,,,,,,,,203,2023-03-27_17h39.00.929,FishGame,2022.1.1,60.035937520259665,
,5,넌 과묵해,3,Orange,A,3.875,4.4,ScrollDown,ScrollUp,Orange.png,3,Neutral,Neutral,0,0,0,0,,,,,,,,,,,,,,,,,,,,,0,4,4,4,,,,,,,,,,,,,,,,,,,,,,,,,,,,,,,,,,,,,,,,,,,,,,,,,,,,,,,,,,,,,,,,,,,,,,,,,,,,,1.2499999900658925,0.8818122998345643,352.12885700003244,None,ScrollDown,정답입니다,352.12885700003244,None,352.12885700003244,None,352.12885700003244,None,352.12885700003244,None,352.9103047000244,None,352.9103047000244,353.4100363999605,,,,,,,,,,,,,,,,203,2023-03-27_17h39.00.929,FishGame,2022.1.1,60.035937520259665,
,6,나를 데려가줘,6,Green,B,0,0,ScrollDown,ScrollUp,Green.png,3,NonTarget,NonTarget,0,0,0,0,,,,,,,,,,,,,,,,,,,,,0,5,5,5,,,,,,,,,,,,,,,,,,,,,,,,,,,,,,,,,,,,,,,,,,,,,,,,,,,,,,,,,,,,,,,,,,,,,,,,,,,,,1.0648148159186046,1.0647948998957872,354.02913759998046,None,ScrollDown,정답입니다,354.02913759998046,None,354.02913759998046,None,354.02913759998046,None,354.02913759998046,None,354.99332060012966,None,354.99332060012966,355.51020410005003,,,,,,,,,,,,,,,,203,2023-03-27_17h39.00.929,FishGame,2022.1.1,60.035937520259665,
,7,넌 미숙해,4,Green,B,3,3,ScrollUp,ScrollDown,Green.png,3,Negative,Congruent,0,0,0,0,,,,,,,,,,,,,,,,,,,,,0,6,6,6,,,,,,,,,,,,,,,,,,,,,,,,,,,,,,,,,,,,,,,,,,,,,,,,,,,,,,,,,,,,,,,,,,,,,,,,,,,,,1.6851851865649223,0.9121267001610249,356.11185530014336,None,ScrollUp,정답입니다,356.11185530014336,None,356.11185530014336,None,356.11185530014336,None,356.11185530014336,None,356.92654070002027,None,356.92654070002027,357.4264730999712,,,,,,,,,,,,,,,,203,2023-03-27_17h39.00.929,FishGame,2022.1.1,60.035937520259665,
,8,나를 보내줘,6,Orange,A,0,0,ScrollUp,ScrollDown,Orange.png,3,NonTarget,NonTarget,0,0,0,0,,,,,,,,,,,,,,,,,,,,,0,7,7,7,,,,,,,,,,,,,,,,,,,,,,,,,,,,,,,,,,,,,,,,,,,,,,,,,,,,,,,,,,,,,,,,,,,,,,,,,,,,,1.7608024577299755,1.03265199996531,358.05172420013696,None,ScrollUp,정답입니다,358.05172420013696,None,358.05172420013696,None,358.05172420013696,None,358.05172420013696,None,358.97380769997835,None,358.97380769997835,359.4764042000752,,,,,,,,,,,,,,,,203,2023-03-27_17h39.00.929,FishGame,2022.1.1,60.035937520259665,
,9,넌 자신만만해,3,Green,B,4.833333333333334,4.333333333333333,ScrollUp,ScrollDown,Green.png,3,Neutral,Neutral,0,0,0,0,,,,,,,,,,,,,,,,,,,,,0,8,8,8,,,,,,,,,,,,,,,,,,,,,,,,,,,,,,,,,,,,,,,,,,,,,,,,,,,,,,,,,,,,,,,,,,,,,,,,,,,,,1.501543209849236,0.9140270000789315,360.0951274000108,None,NoResponse,무응답입니다,360.0951274000108,None,360.0951274000108,None,360.0951274000108,None,360.0951274000108,None,360.907106900122,None,360.907106900122,361.40972090000287,,,,,,,,,,,,,,,,203,2023-03-27_17h39.00.929,FishGame,2022.1.1,60.035937520259665,
,10,넌 탐욕스러워,5,Orange,A,2.25,2.1,ScrollDown,ScrollUp,Orange.png,3,Negative,Incongruent,0,0,0,0,,,,,,,,,,,,,,,,,,,,,0,9,9,9,,,,,,,,,,,,,,,,,,,,,,,,,,,,,,,,,,,,,,,,,,,,,,,,,,,,,,,,,,,,,,,,,,,,,,,,,,,,,1.0725308855374653,1.00039800000377,362.03488370007835,None,ScrollDown,정답입니다,362.03488370007835,None,362.03488370007835,None,362.03488370007835,None,362.03488370007835,None,362.92374500003643,None,362.92374500003643,363.42642070003785,,,,,,,,,,,,,,,,203,2023-03-27_17h39.00.929,FishGame,2022.1.1,60.035937520259665,
,11,넌 인기있어,2,Orange,A,5.458333333333333,4.5,ScrollDown,ScrollUp,Orange.png,3,Positive,Congruent,0,0,0,0,,,,,,,,,,,,,,,,,,,,,0,10,10,10,,,,,,,,,,,,,,,,,,,,,,,,,,,,,,,,,,,,,,,,,,,,,,,,,,,,,,,,,,,,,,,,,,,,,,,,,,,,,1.1666666616996129,0.930705799954012,364.0476075001061,None,ScrollDown,정답입니다,364.0476075001061,None,364.0476075001061,None,364.0476075001061,None,364.0476075001061,None,364.8764100000262,None,364.8764100000262,365.37640430009924,,,,,,,,,,,,,,,,203,2023-03-27_17h39.00.929,FishGame,2022.1.1,60.035937520259665,
,12,나를 데려가줘,6,Green,B,0,0,ScrollDown,ScrollUp,Green.png,3,NonTarget,NonTarget,0,0,0,0,,,,,,,,,,,,,,,,,,,,,0,11,11,11,,,,,,,,,,,,,,,,,,,,,,,,,,,,,,,,,,,,,,,,,,,,,,,,,,,,,,,,,,,,,,,,,,,,,,,,,,,,,1,0.9956795000471175,365.9994557001628,None,ScrollDown,정답입니다,365.9994557001628,None,365.9994557001628,None,365.9994557001628,None,365.9994557001628,None,366.89033930003643,None,366.89033930003643,367.3902947001625,,,,,,,,,,,,,,,,203,2023-03-27_17h39.00.929,FishGame,2022.1.1,60.035937520259665,
,13,넌 뛰어나,2,Green,B,6.166666666666667,4,ScrollUp,ScrollDown,Green.png,3,Positive,Incongruent,0,0,0,0,,,,,,,,,,,,,,,,,,,,,0,12,12,12,,,,,,,,,,,,,,,,,,,,,,,,,,,,,,,,,,,,,,,,,,,,,,,,,,,,,,,,,,,,,,,,,,,,,,,,,,,,,1.904320980111758,0.8832615001592785,368.0141778001562,None,ScrollUp,정답입니다,368.0141778001562,None,368.0141778001562,None,368.0141778001562,None,368.0141778001562,None,368.7903263999615,None,368.7903263999615,369.29350040014833,,,,,,,,,,,,,,,,203,2023-03-27_17h39.00.929,FishGame,2022.1.1,60.035937520259665,
,14,넌 낙관적이야,1,Orange,A,5.75,5.8,ScrollDown,ScrollUp,Orange.png,3,Positive,Congruent,0,0,0,0,,,,,,,,,,,,,,,,,,,,,0,13,13,13,,,,,,,,,,,,,,,,,,,,,,,,,,,,,,,,,,,,,,,,,,,,,,,,,,,,,,,,,,,,,,,,,,,,,,,,,,,,,1,0.9499113999772817,369.91731510008685,None,ScrollDown,정답입니다,369.91731510008685,None,369.91731510008685,None,369.91731510008685,None,369.91731510008685,None,370.75965630006976,None,370.75965630006976,371.25957330013625,,,,,,,,,,,,,,,,203,2023-03-27_17h39.00.929,FishGame,2022.1.1,60.035937520259665,
,15,넌 산만해,4,Green,B,2.695652173913043,3.033333333333333,ScrollUp,ScrollDown,Green.png,3,Negative,Congruent,0,0,0,0,,,,,,,,,,,,,,,,,,,,,0,14,14,14,,,,,,,,,,,,,,,,,,,,,,,,,,,,,,,,,,,,,,,,,,,,,,,,,,,,,,,,,,,,,,,,,,,,,,,,,,,,,1.9459876318772633,0.9481436000205576,371.8807284999639,None,ScrollUp,정답입니다,371.8807284999639,None,371.8807284999639,None,371.8807284999639,None,371.8807284999639,None,372.72352290013805,None,372.72352290013805,373.2261837001424,,,,,,,,,,,,,,,,203,2023-03-27_17h39.00.929,FishGame,2022.1.1,60.035937520259665,
,16,나를 보내줘,6,Orange,A,0,0,ScrollUp,ScrollDown,Orange.png,3,NonTarget,NonTarget,0,0,0,0,,,,,,,,,,,,,,,,,,,,,0,15,15,15,,,,,,,,,,,,,,,,,,,,,,,,,,,,,,,,,,,,,,,,,,,,,,,,,,,,,,,,,,,,,,,,,,,,,,,,,,,,,1.9166666666666667,0.9494485999457538,373.8472993001342,None,ScrollUp,정답입니다,373.8472993001342,None,373.8472993001342,None,373.8472993001342,None,373.8472993001342,None,374.6902326999698,None,374.6902326999698,375.19286540010944,,,,,,,,,,,,,,,,203,2023-03-27_17h39.00.929,FishGame,2022.1.1,60.035937520259665,
,17,넌 교활해,5,Green,B,2.333333333333333,2.133333333333333,ScrollUp,ScrollDown,Green.png,3,Negative,Congruent,0,0,0,0,,,,,,,,,,,,,,,,,,,,,0,16,16,16,,,,,,,,,,,,,,,,,,,,,,,,,,,,,,,,,,,,,,,,,,,,,,,,,,,,,,,,,,,,,,,,,,,,,,,,,,,,,1.8981481492519379,0.9622309000696987,375.8132498001214,None,ScrollUp,정답입니다,375.8132498001214,None,375.8132498001214,None,375.8132498001214,None,375.8132498001214,None,376.6734238001518,None,376.6734238001518,377.1761793999467,,,,,,,,,,,,,,,,203,2023-03-27_17h39.00.929,FishGame,2022.1.1,60.035937520259665,
,18,나를 보내줘,6,Orange,A,0,0,ScrollUp,ScrollDown,Orange.png,3,NonTarget,NonTarget,0,0,0,0,,,,,,,,,,,,,,,,,,,,,0,17,17,17,,,,,,,,,,,,,,,,,,,,,,,,,,,,,,,,,,,,,,,,,,,,,,,,,,,,,,,,,,,,,,,,,,,,,,,,,,,,,1.8935185074806213,1.0165376998484135,377.79749529995024,None,ScrollUp,정답입니다,377.79749529995024,None,377.79749529995024,None,377.79749529995024,None,377.79749529995024,None,378.7068040999584,None,378.7068040999584,379.2094650999643,,,,,,,,,,,,,,,,203,2023-03-27_17h39.00.929,FishGame,2022.1.1,60.035937520259665,
,19,넌 불친절해,5,Green,B,2.208333333333333,2.033333333333333,ScrollUp,ScrollDown,Green.png,3,Negative,Congruent,0,0,0,0,,,,,,,,,,,,,,,,,,,,,0,18,18,18,,,,,,,,,,,,,,,,,,,,,,,,,,,,,,,,,,,,,,,,,,,,,,,,,,,,,,,,,,,,,,,,,,,,,,,,,,,,,1.8333333383003871,0.9971293001435697,379.84470820007846,None,ScrollUp,정답입니다,379.84470820007846,None,379.84470820007846,None,379.84470820007846,None,379.84470820007846,None,380.7231010000687,None,380.7231010000687,381.2231403000187,,,,,,,,,,,,,,,,203,2023-03-27_17h39.00.929,FishGame,2022.1.1,60.035937520259665,
,20,넌 지적이야,2,Green,B,5.75,4.366666666666666,ScrollUp,ScrollDown,Green.png,3,Positive,Incongruent,0,0,0,0,,,,,,,,,,,,,,,,,,,,,0,19,19,19,,,,,,,,,,,,,,,,,,,,,,,,,,,,,,,,,,,,,,,,,,,,,,,,,,,,,,,,,,,,,,,,,,,,,,,,,,,,,1.68364197264115,0.9507844999898225,381.84540989995,None,ScrollUp,정답입니다,381.84540989995,None,381.84540989995,None,381.84540989995,None,381.84540989995,None,382.69276320002973,None,382.69276320002973,383.1927370999474,,,,,,,,,,,,,,,,203,2023-03-27_17h39.00.929,FishGame,2022.1.1,60.035937520259665,
,21,넌 우유부단해,4,Orange,A,2.666666666666667,3.166666666666667,ScrollDown,ScrollUp,Orange.png,3,Negative,Incongruent,0,0,0,0,,,,,,,,,,,,,,,,,,,,,0,20,20,20,,,,,,,,,,,,,,,,,,,,,,,,,,,,,,,,,,,,,,,,,,,,,,,,,,,,,,,,,,,,,,,,,,,,,,,,,,,,,1.0092592636744182,0.9313190001994371,383.82455960009247,None,ScrollDown,정답입니다,383.82455960009247,None,383.82455960009247,None,383.82455960009247,None,383.82455960009247,None,384.6401017000899,None,384.6401017000899,385.1427419001702,,,,,,,,,,,,,,,,203,2023-03-27_17h39.00.929,FishGame,2022.1.1,60.035937520259665,
,22,나를 데려가줘,6,Green,B,0,0,ScrollDown,ScrollUp,Green.png,3,NonTarget,NonTarget,0,0,0,0,,,,,,,,,,,,,,,,,,,,,0,21,21,21,,,,,,,,,,,,,,,,,,,,,,,,,,,,,,,,,,,,,,,,,,,,,,,,,,,,,,,,,,,,,,,,,,,,,,,,,,,,,2,0.9074717999901623,385.7645990999881,None,ScrollUp,오답입니다,385.7645990999881,None,385.7645990999881,None,385.7645990999881,None,385.7645990999881,None,386.57302410015836,None,386.57302410015836,387.0730161999818,,,,,,,,,,,,,,,,203,2023-03-27_17h39.00.929,FishGame,2022.1.1,60.035937520259665,
,23,넌 성실해,1,Green,B,6.041666666666666,5.7,ScrollUp,ScrollDown,Green.png,3,Positive,Incongruent,0,0,0,0,,,,,,,,,,,,,,,,,,,,,0,22,22,22,,,,,,,,,,,,,,,,,,,,,,,,,,,,,,,,,,,,,,,,,,,,,,,,,,,,,,,,,,,,,,,,,,,,,,,,,,,,,2,1.0179771999828517,387.69206769997254,None,ScrollUp,정답입니다,387.69206769997254,None,387.69206769997254,None,387.69206769997254,None,387.69206769997254,None,388.60961939999834,None,388.60961939999834,389.1093336001504,,,,,,,,,,,,,,,,203,2023-03-27_17h39.00.929,FishGame,2022.1.1,60.035937520259665,
,24,넌 현실주의적이야,3,Orange,A,4.625,4.4,ScrollDown,ScrollUp,Orange.png,3,Neutral,Neutral,0,0,0,0,,,,,,,,,,,,,,,,,,,,,0,23,23,23,,,,,,,,,,,,,,,,,,,,,,,,,,,,,,,,,,,,,,,,,,,,,,,,,,,,,,,,,,,,,,,,,,,,,,,,,,,,,1.0740740497907002,1.0832650000229478,389.73134650010616,None,ScrollDown,정답입니다,389.73134650010616,None,389.73134650010616,None,389.73134650010616,None,389.73134650010616,None,390.70657790009864,None,390.70657790009864,391.2092516000848,,,,,,,,,,,,,,,,203,2023-03-27_17h39.00.929,FishGame,2022.1.1,60.035937520259665,
,25,넌 진실돼,1,Orange,A,6.625,5.566666666666666,ScrollDown,ScrollUp,Orange.png,3,Positive,Congruent,0,0,0,0,,,,,,,,,,,,,,,,,,,,,0,24,24,24,,,,,,,,,,,,,,,,,,,,,,,,,,,,,,,,,,,,,,,,,,,,,,,,,,,,,,,,,,,,,,,,,,,,,,,,,,,,,1.0138889054457347,1.0296334000304341,391.8318934000563,None,ScrollDown,정답입니다,391.8318934000563,None,391.8318934000563,None,391.8318934000563,None,391.8318934000563,None,392.7562204001006,None,392.7562204001006,393.2562402000185,,,,,,,,,,,,,,,,203,2023-03-27_17h39.00.929,FishGame,2022.1.1,60.035937520259665,
,26,넌 천진난만해,3,Green,B,4.958333333333334,4.833333333333333,ScrollUp,ScrollDown,Green.png,3,Neutral,Neutral,0,0,0,0,,,,,,,,,,,,,,,,,,,,,0,25,25,25,,,,,,,,,,,,,,,,,,,,,,,,,,,,,,,,,,,,,,,,,,,,,,,,,,,,,,,,,,,,,,,,,,,,,,,,,,,,,1.9290123283863068,1.1363539001904428,393.87909790012054,None,ScrollUp,정답입니다,393.87909790012054,None,393.87909790012054,None,393.87909790012054,None,393.87909790012054,None,394.9064995001536,None,394.9064995001536,395.4091944000684,,,,,,,,,,,,,,,,203,2023-03-27_17h39.00.929,FishGame,2022.1.1,60.035937520259665,
,27,넌 교양없어,5,Orange,A,2.416666666666667,2.2,ScrollDown,ScrollUp,Orange.png,3,Negative,Incongruent,0,0,0,0,,,,,,,,,,,,,,,,,,,,,0,26,26,26,,,,,,,,,,,,,,,,,,,,,,,,,,,,,,,,,,,,,,,,,,,,,,,,,,,,,,,,,,,,,,,,,,,,,,,,,,,,,1.0709876716136932,0.9667551999446005,396.0330539001152,None,ScrollDown,정답입니다,396.0330539001152,None,396.0330539001152,None,396.0330539001152,None,396.0330539001152,None,396.89248130004853,None,396.89248130004853,397.3924457000103,,,,,,,,,,,,,,,,203,2023-03-27_17h39.00.929,FishGame,2022.1.1,60.035937520259665,
,28,나를 보내줘,6,Orange,A,0,0,ScrollUp,ScrollDown,Orange.png,3,NonTarget,NonTarget,0,0,0,0,,,,,,,,,,,,,,,,,,,,,0,27,27,27,,,,,,,,,,,,,,,,,,,,,,,,,,,,,,,,,,,,,,,,,,,,,,,,,,,,,,,,,,,,,,,,,,,,,,,,,,,,,1.858024686574936,1.045737500069663,398.0290930001065,None,ScrollUp,정답입니다,398.0290930001065,None,398.0290930001065,None,398.0290930001065,None,398.0290930001065,None,398.972741600126,None,398.972741600126,399.47272730013356,,,,,,,,,,,,,,,,203,2023-03-27_17h39.00.929,FishGame,2022.1.1,60.035937520259665,
,29,넌 엉뚱스러워,3,Orange,A,4.166666666666667,4.133333333333334,ScrollDown,ScrollUp,Orange.png,3,Neutral,Neutral,0,0,0,0,,,,,,,,,,,,,,,,,,,,,0,28,28,28,,,,,,,,,,,,,,,,,,,,,,,,,,,,,,,,,,,,,,,,,,,,,,,,,,,,,,,,,,,,,,,,,,,,,,,,,,,,,1.0262345671653748,1.0290839998051524,400.10279599996284,None,ScrollDown,정답입니다,400.10279599996284,None,400.10279599996284,None,400.10279599996284,None,400.10279599996284,None,401.0257228000555,None,401.0257228000555,401.5257121999748,,,,,,,,,,,,,,,,203,2023-03-27_17h39.00.929,FishGame,2022.1.1,60.035937520259665,
,30,넌 무지해,4,Green,B,2.541666666666667,3.066666666666667,ScrollUp,ScrollDown,Green.png,3,Negative,Congruent,0,0,0,0,,,,,,,,,,,,,,,,,,,,,0,29,29,29,,,,,,,,,,,,,,,,,,,,,,,,,,,,,,,,,,,,,,,,,,,,,,,,,,,,,,,,,,,,,,,,,,,,,,,,,,,,,1.9351851840813954,1.0318609999958426,402.1439523999579,None,ScrollUp,정답입니다,402.1439523999579,None,402.1439523999579,None,402.1439523999579,None,402.1439523999579,None,403.07574230013415,None,403.07574230013415,403.5803149000276,,,,,,,,,,,,,,,,203,2023-03-27_17h39.00.929,FishGame,2022.1.1,60.035937520259665,
,31,넌 음울해,5,Green,B,2.25,2.233333333333333,ScrollUp,ScrollDown,Green.png,3,Negative,Congruent,0,0,0,0,,,,,,,,,,,,,,,,,,,,,0,30,30,30,,,,,,,,,,,,,,,,,,,,,,,,,,,,,,,,,,,,,,,,,,,,,,,,,,,,,,,,,,,,,,,,,,,,,,,,,,,,,2,0.9974656999111176,404.21168299997225,None,ScrollUp,정답입니다,404.21168299997225,None,404.21168299997225,None,404.21168299997225,None,404.21168299997225,None,405.1059906000737,None,405.1059906000737,405.6059700001497,,,,,,,,,,,,,,,,203,2023-03-27_17h39.00.929,FishGame,2022.1.1,60.035937520259665,
,32,넌 냉소적이야,5,Orange,A,2.916666666666667,2.4,ScrollDown,ScrollUp,Orange.png,3,Negative,Incongruent,0,0,0,0,,,,,,,,,,,,,,,,,,,,,0,31,31,31,,,,,,,,,,,,,,,,,,,,,,,,,,,,,,,,,,,,,,,,,,,,,,,,,,,,,,,,,,,,,,,,,,,,,,,,,,,,,1,1.0023896000348032,406.2281363999937,None,ScrollDown,정답입니다,406.2281363999937,None,406.2281363999937,None,406.2281363999937,None,406.2281363999937,None,407.12567980005406,None,407.12567980005406,407.62554939999245,,,,,,,,,,,,,,,,203,2023-03-27_17h39.00.929,FishGame,2022.1.1,60.035937520259665,
,33,나를 데려가줘,6,Green,B,0,0,ScrollDown,ScrollUp,Green.png,3,NonTarget,NonTarget,0,0,0,0,,,,,,,,,,,,,,,,,,,,,0,32,32,32,,,,,,,,,,,,,,,,,,,,,,,,,,,,,,,,,,,,,,,,,,,,,,,,,,,,,,,,,,,,,,,,,,,,,,,,,,,,,1,1.0824410999193788,408.2451132000424,None,ScrollDown,정답입니다,408.2451132000424,None,408.2451132000424,None,408.2451132000424,None,408.2451132000424,None,409.225506399991,None,409.225506399991,409.7300768001005,,,,,,,,,,,,,,,,203,2023-03-27_17h39.00.929,FishGame,2022.1.1,60.035937520259665,
,34,넌 쾌활해,1,Orange,A,5.541666666666666,5.733333333333333,ScrollDown,ScrollUp,Orange.png,3,Positive,Congruent,0,0,0,0,,,,,,,,,,,,,,,,,,,,,0,33,33,33,,,,,,,,,,,,,,,,,,,,,,,,,,,,,,,,,,,,,,,,,,,,,,,,,,,,,,,,,,,,,,,,,,,,,,,,,,,,,1.0231481393178303,1.0129938998725265,410.3622580000665,None,ScrollDown,정답입니다,410.3622580000665,None,410.3622580000665,None,410.3622580000665,None,410.3622580000665,None,411.27247960004024,None,411.27247960004024,411.77253370010294,,,,,,,,,,,,,,,,203,2023-03-27_17h39.00.929,FishGame,2022.1.1,60.035937520259665,
,35,나를 보내줘,6,Orange,A,0,0,ScrollUp,ScrollDown,Orange.png,3,NonTarget,NonTarget,0,0,0,0,,,,,,,,,,,,,,,,,,,,,0,34,34,34,,,,,,,,,,,,,,,,,,,,,,,,,,,,,,,,,,,,,,,,,,,,,,,,,,,,,,,,,,,,,,,,,,,,,,,,,,,,,1.904320980111758,1.0335720998700708,412.3993283000309,None,ScrollUp,정답입니다,412.3993283000309,None,412.3993283000309,None,412.3993283000309,None,412.3993283000309,None,413.3228400000371,None,413.3228400000371,413.82549750013277,,,,,,,,,,,,,,,,203,2023-03-27_17h39.00.929,FishGame,2022.1.1,60.035937520259665,
,36,넌 명랑해,1,Green,B,5.739130434782609,5.666666666666667,ScrollUp,ScrollDown,Green.png,3,Positive,Incongruent,0,0,0,0,,,,,,,,,,,,,,,,,,,,,0,35,35,35,,,,,,,,,,,,,,,,,,,,,,,,,,,,,,,,,,,,,,,,,,,,,,,,,,,,,,,,,,,,,,,,,,,,,,,,,,,,,1.8765432039896648,1.3216336998157203,414.44715890008956,None,ScrollUp,정답입니다,414.44715890008956,None,414.44715890008956,None,414.44715890008956,None,414.44715890008956,None,415.6693599000573,None,415.6693599000573,416.17245620000176,,,,,,,,,,,,,,,,203,2023-03-27_17h39.00.929,FishGame,2022.1.1,60.035937520259665,
,37,넌 멍해,4,Orange,A,2.833333333333333,3.4,ScrollDown,ScrollUp,Orange.png,3,Negative,Incongruent,0,0,0,0,,,,,,,,,,,,,,,,,,,,,0,36,36,36,,,,,,,,,,,,,,,,,,,,,,,,,,,,,,,,,,,,,,,,,,,,,,,,,,,,,,,,,,,,,,,,,,,,,,,,,,,,,1.194444437821706,0.9983396998140961,416.793383799959,None,ScrollDown,정답입니다,416.793383799959,None,416.793383799959,None,416.793383799959,None,416.793383799959,None,417.68907970003784,None,417.68907970003784,418.1890744001139,,,,,,,,,,,,,,,,203,2023-03-27_17h39.00.929,FishGame,2022.1.1,60.035937520259665,
,38,나를 데려가줘,6,Green,B,0,0,ScrollDown,ScrollUp,Green.png,3,NonTarget,NonTarget,0,0,0,0,,,,,,,,,,,,,,,,,,,,,0,37,37,37,,,,,,,,,,,,,,,,,,,,,,,,,,,,,,,,,,,,,,,,,,,,,,,,,,,,,,,,,,,,,,,,,,,,,,,,,,,,,1,1.015247399918735,418.811265300028,None,ScrollDown,정답입니다,418.811265300028,None,418.811265300028,None,418.811265300028,None,418.811265300028,None,419.7253676999826,None,419.7253676999826,420.22534710005857,,,,,,,,,,,,,,,,203,2023-03-27_17h39.00.929,FishGame,2022.1.1,60.035937520259665,
,39,넌 현명해,2,Orange,A,6.541666666666666,4.533333333333333,ScrollDown,ScrollUp,Orange.png,3,Positive,Congruent,0,0,0,0,,,,,,,,,,,,,,,,,,,,,0,38,38,38,,,,,,,,,,,,,,,,,,,,,,,,,,,,,,,,,,,,,,,,,,,,,,,,,,,,,,,,,,,,,,,,,,,,,,,,,,,,,1,1.0650608001742512,420.8467407000717,None,ScrollDown,정답입니다,420.8467407000717,None,420.8467407000717,None,420.8467407000717,None,420.8467407000717,None,421.80892480001785,None,421.80892480001785,422.3087498000823,,,,,,,,,,,,,,,,203,2023-03-27_17h39.00.929,FishGame,2022.1.1,60.035937520259665,
,40,넌 수줍어,3,Green,B,3.541666666666666,4.366666666666666,ScrollUp,ScrollDown,Green.png,3,Neutral,Neutral,0,0,0,0,,,,,,,,,,,,,,,,,,,,,0,39,39,39,,,,,,,,,,,,,,,,,,,,,,,,,,,,,,,,,,,,,,,,,,,,,,,,,,,,,,,,,,,,,,,,,,,,,,,,,,,,,1.8981481492519379,1.0454988998826593,422.92940640007146,None,ScrollUp,정답입니다,422.92940640007146,None,422.92940640007146,None,422.92940640007146,None,422.92940640007146,None,423.8751678999979,None,423.8751678999979,424.37516260007396,,,,,,,,,,,,,,,,203,2023-03-27_17h39.00.929,FishGame,2022.1.1,60.035937520259665,
,41,나를 데려가줘,6,Green,B,0,0,ScrollDown,ScrollUp,Green.png,3,NonTarget,NonTarget,0,0,0,0,,,,,,,,,,,,,,,,,,,,,0,40,40,40,,,,,,,,,,,,,,,,,,,,,,,,,,,,,,,,,,,,,,,,,,,,,,,,,,,,,,,,,,,,,,,,,,,,,,,,,,,,,1,1.114082199987024,424.9942742001731,None,ScrollDown,정답입니다,424.9942742001731,None,424.9942742001731,None,424.9942742001731,None,424.9942742001731,None,426.005800700048,None,426.005800700048,426.50848870002665,,,,,,,,,,,,,,,,203,2023-03-27_17h39.00.929,FishGame,2022.1.1,60.035937520259665,
,42,넌 성숙해,2,Green,B,5.833333333333333,4.533333333333333,ScrollUp,ScrollDown,Green.png,3,Positive,Incongruent,0,0,0,0,,,,,,,,,,,,,,,,,,,,,0,41,41,41,,,,,,,,,,,,,,,,,,,,,,,,,,,,,,,,,,,,,,,,,,,,,,,,,,,,,,,,,,,,,,,,,,,,,,,,,,,,,2,0.9833649999927729,427.1318302000873,None,ScrollUp,정답입니다,427.1318302000873,None,427.1318302000873,None,427.1318302000873,None,427.1318302000873,None,428.0058373999782,None,428.0058373999782,428.50849699997343,,,,,,,,,,,,,,,,203,2023-03-27_17h39.00.929,FishGame,2022.1.1,60.035937520259665,
,1,넌 매력적이야,2,Green,B,6.125,4.666666666666667,ScrollUp,ScrollDown,Green.png,4,Positive,Incongruent,0,0,0,0,,,,,,,,,,,,,,,,,,,,,,,,,0,0,0,0,,,,,,,,,,,,,,,,,,,,,,,,,,,,,,,,460.77451990009286,462.2746523001697,462.3079796000384,463.25509760016575,463.307951600058,464.25791020016186,464.25791020016186,None,,,,,,,,,,,,,,,,,,,,,,,,,,,,,,,,,,1.7608024577299755,1.0177021000999957,465.346547299996,None,ScrollUp,정답입니다,465.346547299996,None,465.346547299996,None,465.346547299996,None,465.346547299996,None,466.2550517001655,None,466.2550517001655,466.7582191999536,429.00577619997784,None,429.00577619997784,None,0.025925925,-0.10462963,1,0,0,0.01619589002802968,None,459.0078307001386,None,,,203,2023-03-27_17h39.00.929,FishGame,2022.1.1,60.035937520259665,
,2,나를 보내줘,6,Orange,A,0,0,ScrollUp,ScrollDown,Orange.png,4,NonTarget,NonTarget,0,0,0,0,,,,,,,,,,,,,,,,,,,,,,,,,0,1,1,1,,,,,,,,,,,,,,,,,,,,,,,,,,,,,,,,,,,,,,,,,,,,,,,,,,,,,,,,,,,,,,,,,,,,,,,,,1.9567901293436687,1.0835548001341522,467.3781687000301,None,ScrollUp,정답입니다,467.3781687000301,None,467.3781687000301,None,467.3781687000301,None,467.3781687000301,None,468.35767380008474,None,468.35767380008474,468.8576855000574,,,,,,,,,,,,,,,,203,2023-03-27_17h39.00.929,FishGame,2022.1.1,60.035937520259665,
,3,넌 조심스러워,3,Orange,A,4.791666666666666,4.666666666666667,ScrollDown,ScrollUp,Orange.png,4,Neutral,Neutral,0,0,0,0,,,,,,,,,,,,,,,,,,,,,,,,,0,2,2,2,,,,,,,,,,,,,,,,,,,,,,,,,,,,,,,,,,,,,,,,,,,,,,,,,,,,,,,,,,,,,,,,,,,,,,,,,1.0200617114702861,1.200274399947375,469.4904080000706,None,ScrollDown,정답입니다,469.4904080000706,None,469.4904080000706,None,469.4904080000706,None,469.4904080000706,None,470.58798140008,None,470.58798140008,471.0879681999795,,,,,,,,,,,,,,,,203,2023-03-27_17h39.00.929,FishGame,2022.1.1,60.035937520259665,
,4,넌 철학적이야,3,Green,B,4.5,4.266666666666667,ScrollUp,ScrollDown,Green.png,4,Neutral,Neutral,0,0,0,0,,,,,,,,,,,,,,,,,,,,,,,,,0,3,3,3,,,,,,,,,,,,,,,,,,,,,,,,,,,,,,,,,,,,,,,,,,,,,,,,,,,,,,,,,,,,,,,,,,,,,,,,,1.751543199022611,0.9170706998556852,471.70965950004756,None,ScrollUp,정답입니다,471.70965950004756,None,471.70965950004756,None,471.70965950004756,None,471.70965950004756,None,472.5244075001683,None,472.5244075001683,473.024279900128,,,,,,,,,,,,,,,,203,2023-03-27_17h39.00.929,FishGame,2022.1.1,60.035937520259665,
,5,넌 쩨쩨해,5,Orange,A,2.375,2.133333333333333,ScrollDown,ScrollUp,Orange.png,4,Negative,Incongruent,0,0,0,0,,,,,,,,,,,,,,,,,,,,,,,,,0,4,4,4,,,,,,,,,,,,,,,,,,,,,,,,,,,,,,,,,,,,,,,,,,,,,,,,,,,,,,,,,,,,,,,,,,,,,,,,,1.1033950646718342,0.9659064000006765,473.6513489000499,None,ScrollDown,정답입니다,473.6513489000499,None,473.6513489000499,None,473.6513489000499,None,473.6513489000499,None,474.507653699955,None,474.507653699955,475.0076407000888,,,,,,,,,,,,,,,,203,2023-03-27_17h39.00.929,FishGame,2022.1.1,60.035937520259665,
,6,나를 데려가줘,6,Green,B,0,0,ScrollDown,ScrollUp,Green.png,4,NonTarget,NonTarget,0,0,0,0,,,,,,,,,,,,,,,,,,,,,,,,,0,5,5,5,,,,,,,,,,,,,,,,,,,,,,,,,,,,,,,,,,,,,,,,,,,,,,,,,,,,,,,,,,,,,,,,,,,,,,,,,1.040123442808787,1.0951656999532133,475.6309339001309,None,ScrollDown,정답입니다,475.6309339001309,None,475.6309339001309,None,475.6309339001309,None,475.6309339001309,None,476.621542399982,None,476.621542399982,477.1241625000257,,,,,,,,,,,,,,,,203,2023-03-27_17h39.00.929,FishGame,2022.1.1,60.035937520259665,
,7,넌 고집불통이야,5,Green,B,2.875,2,ScrollUp,ScrollDown,Green.png,4,Negative,Congruent,0,0,0,0,,,,,,,,,,,,,,,,,,,,,,,,,0,6,6,6,,,,,,,,,,,,,,,,,,,,,,,,,,,,,,,,,,,,,,,,,,,,,,,,,,,,,,,,,,,,,,,,,,,,,,,,,1.785493830839793,0.9333774000406265,477.74738910002634,None,ScrollUp,정답입니다,477.74738910002634,None,477.74738910002634,None,477.74738910002634,None,477.74738910002634,None,478.57410300010815,None,478.57410300010815,479.07411770010367,,,,,,,,,,,,,,,,203,2023-03-27_17h39.00.929,FishGame,2022.1.1,60.035937520259665,
,8,넌 무심해,4,Orange,A,2.875,3.2,ScrollDown,ScrollUp,Orange.png,4,Negative,Incongruent,0,0,0,0,,,,,,,,,,,,,,,,,,,,,,,,,0,7,7,7,,,,,,,,,,,,,,,,,,,,,,,,,,,,,,,,,,,,,,,,,,,,,,,,,,,,,,,,,,,,,,,,,,,,,,,,,1.214506169160207,0.8759538999293,479.6994786001742,None,ScrollDown,정답입니다,479.6994786001742,None,479.6994786001742,None,479.6994786001742,None,479.6994786001742,None,480.4713598000817,None,480.4713598000817,480.97399550001137,,,,,,,,,,,,,,,,203,2023-03-27_17h39.00.929,FishGame,2022.1.1,60.035937520259665,
,9,넌 정겨워,1,Orange,A,5.791666666666667,5.666666666666667,ScrollDown,ScrollUp,Orange.png,4,Positive,Congruent,0,0,0,0,,,,,,,,,,,,,,,,,,,,,,,,,0,8,8,8,,,,,,,,,,,,,,,,,,,,,,,,,,,,,,,,,,,,,,,,,,,,,,,,,,,,,,,,,,,,,,,,,,,,,,,,,1.0617283880710602,0.9648585999384522,481.5987678000238,None,ScrollDown,정답입니다,481.5987678000238,None,481.5987678000238,None,481.5987678000238,None,481.5987678000238,None,482.4547272999771,None,482.4547272999771,482.9578817000147,,,,,,,,,,,,,,,,203,2023-03-27_17h39.00.929,FishGame,2022.1.1,60.035937520259665,
,10,나를 데려가줘,6,Green,B,0,0,ScrollDown,ScrollUp,Green.png,4,NonTarget,NonTarget,0,0,0,0,,,,,,,,,,,,,,,,,,,,,,,,,0,9,9,9,,,,,,,,,,,,,,,,,,,,,,,,,,,,,,,,,,,,,,,,,,,,,,,,,,,,,,,,,,,,,,,,,,,,,,,,,1.0540123681227367,1.1648589000105858,483.5764329000376,None,ScrollDown,정답입니다,483.5764329000376,None,483.5764329000376,None,483.5764329000376,None,483.5764329000376,None,484.64082800014876,None,484.64082800014876,485.14085950003937,,,,,,,,,,,,,,,,203,2023-03-27_17h39.00.929,FishGame,2022.1.1,60.035937520259665,
,11,넌 체제순응적이야,4,Green,B,3,3.6,ScrollUp,ScrollDown,Green.png,4,Negative,Congruent,0,0,0,0,,,,,,,,,,,,,,,,,,,,,,,,,0,10,10,10,,,,,,,,,,,,,,,,,,,,,,,,,,,,,,,,,,,,,,,,,,,,,,,,,,,,,,,,,,,,,,,,,,,,,,,,,1.8456790000200272,0.93336830008775,485.7668282999657,None,ScrollUp,정답입니다,485.7668282999657,None,485.7668282999657,None,485.7668282999657,None,485.7668282999657,None,486.59083790006116,None,486.59083790006116,487.0909565000329,,,,,,,,,,,,,,,,203,2023-03-27_17h39.00.929,FishGame,2022.1.1,60.035937520259665,
,12,나를 보내줘,6,Orange,A,0,0,ScrollUp,ScrollDown,Orange.png,4,NonTarget,NonTarget,0,0,0,0,,,,,,,,,,,,,,,,,,,,,,,,,0,11,11,11,,,,,,,,,,,,,,,,,,,,,,,,,,,,,,,,,,,,,,,,,,,,,,,,,,,,,,,,,,,,,,,,,,,,,,,,,1.7206790198882422,1.1135176999960095,487.7301056999713,None,ScrollUp,정답입니다,487.7301056999713,None,487.7301056999713,None,487.7301056999713,None,487.7301056999713,None,488.73765140003525,None,488.73765140003525,489.23765300004743,,,,,,,,,,,,,,,,203,2023-03-27_17h39.00.929,FishGame,2022.1.1,60.035937520259665,
,13,넌 박식해,2,Orange,A,5.625,3.933333333333333,ScrollDown,ScrollUp,Orange.png,4,Positive,Congruent,0,0,0,0,,,,,,,,,,,,,,,,,,,,,,,,,0,12,12,12,,,,,,,,,,,,,,,,,,,,,,,,,,,,,,,,,,,,,,,,,,,,,,,,,,,,,,,,,,,,,,,,,,,,,,,,,1,1.0196423998568207,489.8625946000684,None,ScrollDown,정답입니다,489.8625946000684,None,489.8625946000684,None,489.8625946000684,None,489.8625946000684,None,490.7741162001621,None,490.7741162001621,491.2739586001262,,,,,,,,,,,,,,,,203,2023-03-27_17h39.00.929,FishGame,2022.1.1,60.035937520259665,
,14,나를 보내줘,6,Orange,A,0,0,ScrollUp,ScrollDown,Orange.png,4,NonTarget,NonTarget,0,0,0,0,,,,,,,,,,,,,,,,,,,,,,,,,0,13,13,13,,,,,,,,,,,,,,,,,,,,,,,,,,,,,,,,,,,,,,,,,,,,,,,,,,,,,,,,,,,,,,,,,,,,,,,,,1.8518518557151158,1.1651836999226362,491.8953915000893,None,ScrollUp,정답입니다,491.8953915000893,None,491.8953915000893,None,491.8953915000893,None,491.8953915000893,None,492.9545969001483,None,492.9545969001483,493.45782130002044,,,,,,,,,,,,,,,,203,2023-03-27_17h39.00.929,FishGame,2022.1.1,60.035937520259665,
,15,넌 침착해,1,Green,B,5.458333333333333,5.566666666666666,ScrollUp,ScrollDown,Green.png,4,Positive,Incongruent,0,0,0,0,,,,,,,,,,,,,,,,,,,,,,,,,0,14,14,14,,,,,,,,,,,,,,,,,,,,,,,,,,,,,,,,,,,,,,,,,,,,,,,,,,,,,,,,,,,,,,,,,,,,,,,,,1.8040123482545216,0.9833869999274611,494.07497410010546,None,ScrollUp,정답입니다,494.07497410010546,None,494.07497410010546,None,494.07497410010546,None,494.07497410010546,None,494.95417460007593,None,494.95417460007593,495.45415600016713,,,,,,,,,,,,,,,,203,2023-03-27_17h39.00.929,FishGame,2022.1.1,60.035937520259665,
,16,나를 데려가줘,6,Green,B,0,0,ScrollDown,ScrollUp,Green.png,4,NonTarget,NonTarget,0,0,0,0,,,,,,,,,,,,,,,,,,,,,,,,,0,15,15,15,,,,,,,,,,,,,,,,,,,,,,,,,,,,,,,,,,,,,,,,,,,,,,,,,,,,,,,,,,,,,,,,,,,,,,,,,1.0231481393178303,1.0027320000808686,496.0739207000006,None,ScrollDown,정답입니다,496.0739207000006,None,496.0739207000006,None,496.0739207000006,None,496.0739207000006,None,496.97376840002835,None,496.97376840002835,497.47394850011915,,,,,,,,,,,,,,,,203,2023-03-27_17h39.00.929,FishGame,2022.1.1,60.035937520259665,
,17,넌 행복해,1,Orange,A,6.416666666666666,6.166666666666667,ScrollDown,ScrollUp,Orange.png,4,Positive,Congruent,0,0,0,0,,,,,,,,,,,,,,,,,,,,,,,,,0,16,16,16,,,,,,,,,,,,,,,,,,,,,,,,,,,,,,,,,,,,,,,,,,,,,,,,,,,,,,,,,,,,,,,,,,,,,,,,,1.0617283880710602,0.9478791998699307,498.09914720011875,None,ScrollDown,정답입니다,498.09914720011875,None,498.09914720011875,None,498.09914720011875,None,498.09914720011875,None,498.94055079994723,None,498.94055079994723,499.44072420010343,,,,,,,,,,,,,,,,203,2023-03-27_17h39.00.929,FishGame,2022.1.1,60.035937520259665,
,18,넌 겸손해,2,Green,B,5.791666666666667,4.766666666666667,ScrollUp,ScrollDown,Green.png,4,Positive,Incongruent,0,0,0,0,,,,,,,,,,,,,,,,,,,,,,,,,0,17,17,17,,,,,,,,,,,,,,,,,,,,,,,,,,,,,,,,,,,,,,,,,,,,,,,,,,,,,,,,,,,,,,,,,,,,,,,,,1.8564814726511638,1.0148785000201315,500.07639629999176,None,ScrollUp,정답입니다,500.07639629999176,None,500.07639629999176,None,500.07639629999176,None,500.07639629999176,None,500.9874060000293,None,500.9874060000293,501.48853219999,,,,,,,,,,,,,,,,203,2023-03-27_17h39.00.929,FishGame,2022.1.1,60.035937520259665,
,19,나를 보내줘,6,Orange,A,0,0,ScrollUp,ScrollDown,Orange.png,4,NonTarget,NonTarget,0,0,0,0,,,,,,,,,,,,,,,,,,,,,,,,,0,18,18,18,,,,,,,,,,,,,,,,,,,,,,,,,,,,,,,,,,,,,,,,,,,,,,,,,,,,,,,,,,,,,,,,,,,,,,,,,1.9290123283863068,1.083632100140676,502.1081054001115,None,ScrollUp,정답입니다,502.1081054001115,None,502.1081054001115,None,502.1081054001115,None,502.1081054001115,None,503.08768790005706,None,503.08768790005706,503.5903696999885,,,,,,,,,,,,,,,,203,2023-03-27_17h39.00.929,FishGame,2022.1.1,60.035937520259665,
,20,넌 의심없어,3,Orange,A,4.166666666666667,4.6,ScrollDown,ScrollUp,Orange.png,4,Neutral,Neutral,0,0,0,0,,,,,,,,,,,,,,,,,,,,,,,,,0,19,19,19,,,,,,,,,,,,,,,,,,,,,,,,,,,,,,,,,,,,,,,,,,,,,,,,,,,,,,,,,,,,,,,,,,,,,,,,,1.0108024775981903,1.1328592000063509,504.21159410011023,None,ScrollDown,정답입니다,504.21159410011023,None,504.21159410011023,None,504.21159410011023,None,504.21159410011023,None,505.2403979001101,None,505.2403979001101,505.74037430016324,,,,,,,,,,,,,,,,203,2023-03-27_17h39.00.929,FishGame,2022.1.1,60.035937520259665,
,21,넌 시시해,4,Orange,A,2.666666666666667,2.966666666666667,ScrollDown,ScrollUp,Orange.png,4,Negative,Incongruent,0,0,0,0,,,,,,,,,,,,,,,,,,,,,,,,,0,20,20,20,,,,,,,,,,,,,,,,,,,,,,,,,,,,,,,,,,,,,,,,,,,,,,,,,,,,,,,,,,,,,,,,,,,,,,,,,1.0910493781169255,1.0574610000476241,506.37936590006575,None,ScrollDown,정답입니다,506.37936590006575,None,506.37936590006575,None,506.37936590006575,None,506.37936590006575,None,507.32061449997127,None,507.32061449997127,507.82062550005503,,,,,,,,,,,,,,,,203,2023-03-27_17h39.00.929,FishGame,2022.1.1,60.035937520259665,
,22,나를 데려가줘,6,Green,B,0,0,ScrollDown,ScrollUp,Green.png,4,NonTarget,NonTarget,0,0,0,0,,,,,,,,,,,,,,,,,,,,,,,,,0,21,21,21,,,,,,,,,,,,,,,,,,,,,,,,,,,,,,,,,,,,,,,,,,,,,,,,,,,,,,,,,,,,,,,,,,,,,,,,,1,0.9842496002092957,508.4397710999474,None,ScrollDown,정답입니다,508.4397710999474,None,508.4397710999474,None,508.4397710999474,None,508.4397710999474,None,509.32359839999117,None,509.32359839999117,509.8235826001037,,,,,,,,,,,,,,,,203,2023-03-27_17h39.00.929,FishGame,2022.1.1,60.035937520259665,
,23,넌 무정해,5,Orange,A,2.5,2.2,ScrollDown,ScrollUp,Orange.png,4,Negative,Incongruent,0,0,0,0,,,,,,,,,,,,,,,,,,,,,,,,,0,22,22,22,,,,,,,,,,,,,,,,,,,,,,,,,,,,,,,,,,,,,,,,,,,,,,,,,,,,,,,,,,,,,,,,,,,,,,,,,1,1.0161313000135124,510.4450385000091,None,ScrollDown,정답입니다,510.4450385000091,None,510.4450385000091,None,510.4450385000091,None,510.4450385000091,None,511.3541854999494,None,511.3541854999494,511.8568474999629,,,,,,,,,,,,,,,,203,2023-03-27_17h39.00.929,FishGame,2022.1.1,60.035937520259665,
,24,넌 긍정적이야,1,Green,B,6.041666666666667,6.066666666666666,ScrollUp,ScrollDown,Green.png,4,Positive,Incongruent,0,0,0,0,,,,,,,,,,,,,,,,,,,,,,,,,0,23,23,23,,,,,,,,,,,,,,,,,,,,,,,,,,,,,,,,,,,,,,,,,,,,,,,,,,,,,,,,,,,,,,,,,,,,,,,,,1.89969136317571,1.012335600098595,512.4829929000698,None,ScrollUp,정답입니다,512.4829929000698,None,512.4829929000698,None,512.4829929000698,None,512.4829929000698,None,513.3900995999575,None,513.3900995999575,513.8901021999773,,,,,,,,,,,,,,,,203,2023-03-27_17h39.00.929,FishGame,2022.1.1,60.035937520259665,
,25,나를 보내줘,6,Orange,A,0,0,ScrollUp,ScrollDown,Orange.png,4,NonTarget,NonTarget,0,0,0,0,,,,,,,,,,,,,,,,,,,,,,,,,0,24,24,24,,,,,,,,,,,,,,,,,,,,,,,,,,,,,,,,,,,,,,,,,,,,,,,,,,,,,,,,,,,,,,,,,,,,,,,,,1.9290123283863068,1.0835402000229806,514.5107462999877,None,ScrollUp,정답입니다,514.5107462999877,None,514.5107462999877,None,514.5107462999877,None,514.5107462999877,None,515.4901305001695,None,515.4901305001695,515.9900507000275,,,,,,,,,,,,,,,,203,2023-03-27_17h39.00.929,FishGame,2022.1.1,60.035937520259665,
,26,넌 시기심이 많아,5,Green,B,2.458333333333333,2.233333333333333,ScrollUp,ScrollDown,Green.png,4,Negative,Congruent,0,0,0,0,,,,,,,,,,,,,,,,,,,,,,,,,0,25,25,25,,,,,,,,,,,,,,,,,,,,,,,,,,,,,,,,,,,,,,,,,,,,,,,,,,,,,,,,,,,,,,,,,,,,,,,,,1.8919753183921177,0.9171484999824315,516.6132515999489,None,ScrollUp,정답입니다,516.6132515999489,None,516.6132515999489,None,516.6132515999489,None,516.6132515999489,None,517.4235505999532,None,517.4235505999532,517.9278017999604,,,,,,,,,,,,,,,,203,2023-03-27_17h39.00.929,FishGame,2022.1.1,60.035937520259665,
,27,넌 탁월해,2,Orange,A,5.708333333333334,4.5,ScrollDown,ScrollUp,Orange.png,4,Positive,Congruent,0,0,0,0,,,,,,,,,,,,,,,,,,,,,,,,,0,26,26,26,,,,,,,,,,,,,,,,,,,,,,,,,,,,,,,,,,,,,,,,,,,,,,,,,,,,,,,,,,,,,,,,,,,,,,,,,1,1.1321737000253052,518.5607348999474,None,ScrollDown,정답입니다,518.5607348999474,None,518.5607348999474,None,518.5607348999474,None,518.5607348999474,None,519.5870135000441,None,519.5870135000441,520.0882654001471,,,,,,,,,,,,,,,,203,2023-03-27_17h39.00.929,FishGame,2022.1.1,60.035937520259665,
,28,나를 데려가줘,6,Green,B,0,0,ScrollDown,ScrollUp,Green.png,4,NonTarget,NonTarget,0,0,0,0,,,,,,,,,,,,,,,,,,,,,,,,,0,27,27,27,,,,,,,,,,,,,,,,,,,,,,,,,,,,,,,,,,,,,,,,,,,,,,,,,,,,,,,,,,,,,,,,,,,,,,,,,1,1.0347618998494,520.706230700016,None,ScrollDown,정답입니다,520.706230700016,None,520.706230700016,None,520.706230700016,None,520.706230700016,None,521.6403511001263,None,521.6403511001263,522.1400303000119,,,,,,,,,,,,,,,,203,2023-03-27_17h39.00.929,FishGame,2022.1.1,60.035937520259665,
,29,넌 조용해,3,Green,B,4.333333333333333,4.166666666666667,ScrollUp,ScrollDown,Green.png,4,Neutral,Neutral,0,0,0,0,,,,,,,,,,,,,,,,,,,,,,,,,0,28,28,28,,,,,,,,,,,,,,,,,,,,,,,,,,,,,,,,,,,,,,,,,,,,,,,,,,,,,,,,,,,,,,,,,,,,,,,,,1.7777777860562007,0.8811439999844879,522.7633489000145,None,ScrollUp,정답입니다,522.7633489000145,None,522.7633489000145,None,522.7633489000145,None,522.7633489000145,None,523.5373239000328,None,523.5373239000328,524.0399462000933,,,,,,,,,,,,,,,,203,2023-03-27_17h39.00.929,FishGame,2022.1.1,60.035937520259665,
,30,넌 다정해,1,Orange,A,5.833333333333334,5.7,ScrollDown,ScrollUp,Orange.png,4,Positive,Congruent,0,0,0,0,,,,,,,,,,,,,,,,,,,,,,,,,0,29,29,29,,,,,,,,,,,,,,,,,,,,,,,,,,,,,,,,,,,,,,,,,,,,,,,,,,,,,,,,,,,,,,,,,,,,,,,,,1.0324074228604634,0.8955192000139505,524.672737600049,None,ScrollDown,정답입니다,524.672737600049,None,524.672737600049,None,524.672737600049,None,524.672737600049,None,525.4535452001728,None,525.4535452001728,525.9535328999627,,,,,,,,,,,,,,,,203,2023-03-27_17h39.00.929,FishGame,2022.1.1,60.035937520259665,
,31,넌 능력있어,2,Green,B,6.166666666666666,4.6,ScrollUp,ScrollDown,Green.png,4,Positive,Incongruent,0,0,0,0,,,,,,,,,,,,,,,,,,,,,,,,,0,30,30,30,,,,,,,,,,,,,,,,,,,,,,,,,,,,,,,,,,,,,,,,,,,,,,,,,,,,,,,,,,,,,,,,,,,,,,,,,1.7314814925193787,0.8330872999504209,526.570577400038,None,ScrollUp,정답입니다,526.570577400038,None,526.570577400038,None,526.570577400038,None,526.570577400038,None,527.3035873000044,None,527.3035873000044,527.8035655000713,,,,,,,,,,,,,,,,203,2023-03-27_17h39.00.929,FishGame,2022.1.1,60.035937520259665,
,32,넌 불쾌해,5,Orange,A,2.125,1.933333333333333,ScrollDown,ScrollUp,Orange.png,4,Negative,Incongruent,0,0,0,0,,,,,,,,,,,,,,,,,,,,,,,,,0,31,31,31,,,,,,,,,,,,,,,,,,,,,,,,,,,,,,,,,,,,,,,,,,,,,,,,,,,,,,,,,,,,,,,,,,,,,,,,,1.0200617114702861,0.9648672000039369,528.4274206000846,None,ScrollDown,정답입니다,528.4274206000846,None,528.4274206000846,None,528.4274206000846,None,528.4274206000846,None,529.2898530999664,None,529.2898530999664,529.789817100158,,,,,,,,,,,,,,,,203,2023-03-27_17h39.00.929,FishGame,2022.1.1,60.035937520259665,
,33,나를 데려가줘,6,Green,B,0,0,ScrollDown,ScrollUp,Green.png,4,NonTarget,NonTarget,0,0,0,0,,,,,,,,,,,,,,,,,,,,,,,,,0,32,32,32,,,,,,,,,,,,,,,,,,,,,,,,,,,,,,,,,,,,,,,,,,,,,,,,,,,,,,,,,,,,,,,,,,,,,,,,,1,0.9473043000325561,530.4087710999884,None,ScrollDown,정답입니다,530.4087710999884,None,530.4087710999884,None,530.4087710999884,None,530.4087710999884,None,531.2537621001247,None,531.2537621001247,531.7534275001381,,,,,,,,,,,,,,,,203,2023-03-27_17h39.00.929,FishGame,2022.1.1,60.035937520259665,
,34,넌 유순해,3,Orange,A,4.458333333333333,5,ScrollDown,ScrollUp,Orange.png,4,Neutral,Neutral,0,0,0,0,,,,,,,,,,,,,,,,,,,,,,,,,0,33,33,33,,,,,,,,,,,,,,,,,,,,,,,,,,,,,,,,,,,,,,,,,,,,,,,,,,,,,,,,,,,,,,,,,,,,,,,,,1,0.9320888000074774,532.3728957001586,None,ScrollDown,정답입니다,532.3728957001586,None,532.3728957001586,None,532.3728957001586,None,532.3728957001586,None,533.2034017001279,None,533.2034017001279,533.7034532001708,,,,,,,,,,,,,,,,203,2023-03-27_17h39.00.929,FishGame,2022.1.1,60.035937520259665,
,35,넌 근심스러워,4,Green,B,2.708333333333333,3.133333333333333,ScrollUp,ScrollDown,Green.png,4,Negative,Congruent,0,0,0,0,,,,,,,,,,,,,,,,,,,,,,,,,0,34,34,34,,,,,,,,,,,,,,,,,,,,,,,,,,,,,,,,,,,,,,,,,,,,,,,,,,,,,,,,,,,,,,,,,,,,,,,,,2,1.0317090000025928,534.3253832000773,None,ScrollUp,정답입니다,534.3253832000773,None,534.3253832000773,None,534.3253832000773,None,534.3253832000773,None,535.2563607001211,None,535.2563607001211,535.7563873000909,,,,,,,,,,,,,,,,203,2023-03-27_17h39.00.929,FishGame,2022.1.1,60.035937520259665,
,36,넌 세련되었어,2,Orange,A,5.5,4.6,ScrollDown,ScrollUp,Orange.png,4,Positive,Congruent,0,0,0,0,,,,,,,,,,,,,,,,,,,,,,,,,0,35,35,35,,,,,,,,,,,,,,,,,,,,,,,,,,,,,,,,,,,,,,,,,,,,,,,,,,,,,,,,,,,,,,,,,,,,,,,,,1,0.9788108000066131,536.3845117001329,None,ScrollDown,정답입니다,536.3845117001329,None,536.3845117001329,None,536.3845117001329,None,536.3845117001329,None,537.253674000036,None,537.253674000036,537.7599990000017,,,,,,,,,,,,,,,,203,2023-03-27_17h39.00.929,FishGame,2022.1.1,60.035937520259665,
,37,나를 보내줘,6,Orange,A,0,0,ScrollUp,ScrollDown,Orange.png,4,NonTarget,NonTarget,0,0,0,0,,,,,,,,,,,,,,,,,,,,,,,,,0,36,36,36,,,,,,,,,,,,,,,,,,,,,,,,,,,,,,,,,,,,,,,,,,,,,,,,,,,,,,,,,,,,,,,,,,,,,,,,,1.837962955236435,0.9660259999800473,538.3726135999896,None,ScrollUp,정답입니다,538.3726135999896,None,538.3726135999896,None,538.3726135999896,None,538.3726135999896,None,539.2366218001116,None,539.2366218001116,539.7366538001224,,,,,,,,,,,,,,,,203,2023-03-27_17h39.00.929,FishGame,2022.1.1,60.035937520259665,
,38,넌 확고해,3,Green,B,4.708333333333334,4.566666666666666,ScrollUp,ScrollDown,Green.png,4,Neutral,Neutral,0,0,0,0,,,,,,,,,,,,,,,,,,,,,,,,,0,37,37,37,,,,,,,,,,,,,,,,,,,,,,,,,,,,,,,,,,,,,,,,,,,,,,,,,,,,,,,,,,,,,,,,,,,,,,,,,1.807098776102066,0.8802322999108583,540.3631478999741,None,ScrollUp,정답입니다,540.3631478999741,None,540.3631478999741,None,540.3631478999741,None,540.3631478999741,None,541.1395344999619,None,541.1395344999619,541.6396089000627,,,,,,,,,,,,,,,,203,2023-03-27_17h39.00.929,FishGame,2022.1.1,60.035937520259665,
,39,넌 이해심이 많아,1,Green,B,6.041666666666668,5.533333333333333,ScrollUp,ScrollDown,Green.png,4,Positive,Incongruent,0,0,0,0,,,,,,,,,,,,,,,,,,,,,,,,,0,38,38,38,,,,,,,,,,,,,,,,,,,,,,,,,,,,,,,,,,,,,,,,,,,,,,,,,,,,,,,,,,,,,,,,,,,,,,,,,1.7592592686414719,0.8980504001956433,542.2594053000212,None,ScrollUp,정답입니다,542.2594053000212,None,542.2594053000212,None,542.2594053000212,None,542.2594053000212,None,543.0535367999692,None,543.0535367999692,543.5562037001364,,,,,,,,,,,,,,,,203,2023-03-27_17h39.00.929,FishGame,2022.1.1,60.035937520259665,
,40,나를 보내줘,6,Orange,A,0,0,ScrollUp,ScrollDown,Orange.png,4,NonTarget,NonTarget,0,0,0,0,,,,,,,,,,,,,,,,,,,,,,,,,0,39,39,39,,,,,,,,,,,,,,,,,,,,,,,,,,,,,,,,,,,,,,,,,,,,,,,,,,,,,,,,,,,,,,,,,,,,,,,,,1.807098776102066,0.949609600007534,544.1716180001386,None,ScrollUp,정답입니다,544.1716180001386,None,544.1716180001386,None,544.1716180001386,None,544.1716180001386,None,545.0198238000739,None,545.0198238000739,545.5198234000709,,,,,,,,,,,,,,,,203,2023-03-27_17h39.00.929,FishGame,2022.1.1,60.035937520259665,
,41,넌 거칠어,4,Orange,A,2.625,3.033333333333333,ScrollDown,ScrollUp,Orange.png,4,Negative,Incongruent,0,0,0,0,,,,,,,,,,,,,,,,,,,,,,,,,0,40,40,40,,,,,,,,,,,,,,,,,,,,,,,,,,,,,,,,,,,,,,,,,,,,,,,,,,,,,,,,,,,,,,,,,,,,,,,,,1.1527777860562007,0.8336515000555664,546.144408600172,None,ScrollDown,정답입니다,546.144408600172,None,546.144408600172,None,546.144408600172,None,546.144408600172,None,546.8728738001082,None,546.8728738001082,547.3728457000107,,,,,,,,,,,,,,,,203,2023-03-27_17h39.00.929,FishGame,2022.1.1,60.035937520259665,
,42,넌 변덕맞아,5,Green,B,2.75,2.166666666666667,ScrollUp,ScrollDown,Green.png,4,Negative,Congruent,0,0,0,0,,,,,,,,,,,,,,,,,,,,,,,,,0,41,41,41,,,,,,,,,,,,,,,,,,,,,,,,,,,,,,,,,,,,,,,,,,,,,,,,,,,,,,,,,,,,,,,,,,,,,,,,,1.7484567960103354,0.8292149000335485,547.9971229000948,None,ScrollUp,정답입니다,547.9971229000948,None,547.9971229000948,None,547.9971229000948,None,547.9971229000948,None,548.7201096999925,None,548.7201096999925,549.2227535999846,,,,,,,,,,,,,,,,203,2023-03-27_17h39.00.929,FishGame,2022.1.1,60.035937520259665,
,43,나를 데려가줘,6,Green,B,0,0,ScrollDown,ScrollUp,Green.png,4,NonTarget,NonTarget,0,0,0,0,,,,,,,,,,,,,,,,,,,,,,,,,0,42,42,42,,,,,,,,,,,,,,,,,,,,,,,,,,,,,,,,,,,,,,,,,,,,,,,,,,,,,,,,,,,,,,,,,,,,,,,,,1.0771604776382446,1.0093463999219239,549.8515659000259,None,ScrollDown,정답입니다,549.8515659000259,None,549.8515659000259,None,549.8515659000259,None,549.8515659000259,None,550.7530488001648,None,550.7530488001648,551.2530356999487,,,,,,,,,,,,,,,,203,2023-03-27_17h39.00.929,FishGame,2022.1.1,60.035937520259665,
,44,넌 외로워,4,Green,B,2.833333333333333,3.3,ScrollUp,ScrollDown,Green.png,4,Negative,Congruent,0,0,0,0,,,,,,,,,,,,,,,,,,,,,,,,,0,43,43,43,,,,,,,,,,,,,,,,,,,,,,,,,,,,,,,,,,,,,,,,,,,,,,,,,,,,,,,,,,,,,,,,,,,,,,,,,1.6759259278575578,0.8491524998098612,551.8758366000839,None,ScrollUp,정답입니다,551.8758366000839,None,551.8758366000839,None,551.8758366000839,None,551.8758366000839,None,552.6227627999615,None,552.6227627999615,553.1226958001498,,,,,,,,,,,,,,,,203,2023-03-27_17h39.00.929,FishGame,2022.1.1,60.035937520259665,
,1,넌 불평스러워,5,Orange,A,2.25,2.066666666666667,ScrollDown,ScrollUp,Orange.png,5,Negative,Incongruent,0,0,0,0,,,,,,,,,,,,,,,,,,,,,,,,,,,,,0,0,0,0,,,,,,,,,,,,,,,,,,,,,,,,,,,,585.688710700022,587.188893100014,587.2221462000161,588.1721139000729,588.2220934999641,589.1720986000728,589.1720986000728,None,,,,,,,,,,,,,,,,,,,,,,,,,,,,,,,,,,1.1388888855775197,1.1571339000947773,590.323182699969,None,ScrollDown,정답입니다,590.323182699969,None,590.323182699969,None,590.323182699969,None,590.323182699969,None,591.3719135001302,None,591.3719135001302,591.871923699975,553.6227266001515,None,553.6227266001515,None,0.032407407,-0.08796296,1,0,0,0.016271489905193448,None,583.6219953000546,None,,,203,2023-03-27_17h39.00.929,FishGame,2022.1.1,60.035937520259665,
,2,나를 보내줘,6,Orange,A,0,0,ScrollUp,ScrollDown,Orange.png,5,NonTarget,NonTarget,0,0,0,0,,,,,,,,,,,,,,,,,,,,,,,,,,,,,0,1,1,1,,,,,,,,,,,,,,,,,,,,,,,,,,,,,,,,,,,,,,,,,,,,,,,,,,,,,,,,,,,,,,,,,,,,,1.805555562178294,0.9325381999369711,592.4941668000538,None,ScrollUp,정답입니다,592.4941668000538,None,592.4941668000538,None,592.4941668000538,None,592.4941668000538,None,593.3192058999557,None,593.3192058999557,593.8189207001124,,,,,,,,,,,,,,,,203,2023-03-27_17h39.00.929,FishGame,2022.1.1,60.035937520259665,
,3,넌 다재다능해,2,Green,B,6.208333333333333,4.5,ScrollUp,ScrollDown,Green.png,5,Positive,Incongruent,0,0,0,0,,,,,,,,,,,,,,,,,,,,,,,,,,,,,0,2,2,2,,,,,,,,,,,,,,,,,,,,,,,,,,,,,,,,,,,,,,,,,,,,,,,,,,,,,,,,,,,,,,,,,,,,,1.7083333333333335,0.9485536001157016,594.435904599959,None,ScrollUp,정답입니다,594.435904599959,None,594.435904599959,None,594.435904599959,None,594.435904599959,None,595.2864008001052,None,595.2864008001052,595.785550700035,,,,,,,,,,,,,,,,203,2023-03-27_17h39.00.929,FishGame,2022.1.1,60.035937520259665,
,4,넌 과감해,3,Orange,A,4.833333333333334,4.6,ScrollDown,ScrollUp,Orange.png,5,Neutral,Neutral,0,0,0,0,,,,,,,,,,,,,,,,,,,,,,,,,,,,,0,3,3,3,,,,,,,,,,,,,,,,,,,,,,,,,,,,,,,,,,,,,,,,,,,,,,,,,,,,,,,,,,,,,,,,,,,,,1.0123456915219624,0.9136516000144184,596.4111373999622,None,ScrollDown,정답입니다,596.4111373999622,None,596.4111373999622,None,596.4111373999622,None,596.4111373999622,None,597.2219155000057,None,597.2219155000057,597.7218105001375,,,,,,,,,,,,,,,,203,2023-03-27_17h39.00.929,FishGame,2022.1.1,60.035937520259665,
,5,넌 고분고분해,3,Green,B,3.75,4.033333333333333,ScrollUp,ScrollDown,Green.png,5,Neutral,Neutral,0,0,0,0,,,,,,,,,,,,,,,,,,,,,,,,,,,,,0,4,4,4,,,,,,,,,,,,,,,,,,,,,,,,,,,,,,,,,,,,,,,,,,,,,,,,,,,,,,,,,,,,,,,,,,,,,1.8966049353281658,0.8832103000022471,598.3446268001571,None,ScrollUp,정답입니다,598.3446268001571,None,598.3446268001571,None,598.3446268001571,None,598.3446268001571,None,599.1261820001528,None,599.1261820001528,599.635618600063,,,,,,,,,,,,,,,,203,2023-03-27_17h39.00.929,FishGame,2022.1.1,60.035937520259665,
,6,나를 보내줘,6,Orange,A,0,0,ScrollUp,ScrollDown,Orange.png,5,NonTarget,NonTarget,0,0,0,0,,,,,,,,,,,,,,,,,,,,,,,,,,,,,0,5,5,5,,,,,,,,,,,,,,,,,,,,,,,,,,,,,,,,,,,,,,,,,,,,,,,,,,,,,,,,,,,,,,,,,,,,,1.699074074625969,1.0142544000409544,600.2583664001431,None,ScrollUp,정답입니다,600.2583664001431,None,600.2583664001431,None,600.2583664001431,None,600.2583664001431,None,601.168778500054,None,601.168778500054,601.6687501000706,,,,,,,,,,,,,,,,203,2023-03-27_17h39.00.929,FishGame,2022.1.1,60.035937520259665,
,7,넌 잘 잊어,4,Orange,A,3,3.7,ScrollDown,ScrollUp,Orange.png,5,Negative,Incongruent,0,0,0,0,,,,,,,,,,,,,,,,,,,,,,,,,,,,,0,6,6,6,,,,,,,,,,,,,,,,,,,,,,,,,,,,,,,,,,,,,,,,,,,,,,,,,,,,,,,,,,,,,,,,,,,,,1.1358024577299755,0.9955136000644416,602.2974280000199,None,ScrollDown,정답입니다,602.2974280000199,None,602.2974280000199,None,602.2974280000199,None,602.2974280000199,None,603.1882949999999,None,603.1882949999999,603.6884282000829,,,,,,,,,,,,,,,,203,2023-03-27_17h39.00.929,FishGame,2022.1.1,60.035937520259665,
,8,넌 탐구심이없어,4,Green,B,2.833333333333333,3.066666666666667,ScrollUp,ScrollDown,Green.png,5,Negative,Congruent,0,0,0,0,,,,,,,,,,,,,,,,,,,,,,,,,,,,,0,7,7,7,,,,,,,,,,,,,,,,,,,,,,,,,,,,,,,,,,,,,,,,,,,,,,,,,,,,,,,,,,,,,,,,,,,,,1.785493830839793,0.8501051999628544,604.3122933001723,None,ScrollUp,정답입니다,604.3122933001723,None,604.3122933001723,None,604.3122933001723,None,604.3122933001723,None,605.0522894000169,None,605.0522894000169,605.5521428000648,,,,,,,,,,,,,,,,203,2023-03-27_17h39.00.929,FishGame,2022.1.1,60.035937520259665,
,9,나를 데려가줘,6,Green,B,0,0,ScrollDown,ScrollUp,Green.png,5,NonTarget,NonTarget,0,0,0,0,,,,,,,,,,,,,,,,,,,,,,,,,,,,,0,8,8,8,,,,,,,,,,,,,,,,,,,,,,,,,,,,,,,,,,,,,,,,,,,,,,,,,,,,,,,,,,,,,,,,,,,,,1.1049382785956066,1.0657693999819458,606.1692741999868,None,ScrollDown,정답입니다,606.1692741999868,None,606.1692741999868,None,606.1692741999868,None,606.1692741999868,None,607.1352816000581,None,607.1352816000581,607.6352948001586,,,,,,,,,,,,,,,,203,2023-03-27_17h39.00.929,FishGame,2022.1.1,60.035937520259665,
,10,넌 참되어,2,Orange,A,6.041666666666664,4.733333333333333,ScrollDown,ScrollUp,Orange.png,5,Positive,Congruent,0,0,0,0,,,,,,,,,,,,,,,,,,,,,,,,,,,,,0,9,9,9,,,,,,,,,,,,,,,,,,,,,,,,,,,,,,,,,,,,,,,,,,,,,,,,,,,,,,,,,,,,,,,,,,,,,1,1.048187900101766,608.262837599963,None,ScrollDown,정답입니다,608.262837599963,None,608.262837599963,None,608.262837599963,None,608.262837599963,None,609.2022224999964,None,609.2022224999964,609.7048286001664,,,,,,,,,,,,,,,,203,2023-03-27_17h39.00.929,FishGame,2022.1.1,60.035937520259665,
,11,넌 생기있어,1,Green,B,5.875,5.633333333333334,ScrollUp,ScrollDown,Green.png,5,Positive,Incongruent,0,0,0,0,,,,,,,,,,,,,,,,,,,,,,,,,,,,,0,10,10,10,,,,,,,,,,,,,,,,,,,,,,,,,,,,,,,,,,,,,,,,,,,,,,,,,,,,,,,,,,,,,,,,,,,,,1.89969136317571,0.8957813999149948,610.3270713000093,None,ScrollUp,정답입니다,610.3270713000093,None,610.3270713000093,None,610.3270713000093,None,610.3270713000093,None,611.121555400081,None,611.121555400081,611.6352160000242,,,,,,,,,,,,,,,,203,2023-03-27_17h39.00.929,FishGame,2022.1.1,60.035937520259665,
,12,넌 비사교적이야,4,Green,B,2.875,2.9,ScrollUp,ScrollDown,Green.png,5,Negative,Congruent,0,0,0,0,,,,,,,,,,,,,,,,,,,,,,,,,,,,,0,11,11,11,,,,,,,,,,,,,,,,,,,,,,,,,,,,,,,,,,,,,,,,,,,,,,,,,,,,,,,,,,,,,,,,,,,,,1.837962955236435,0.883428500033915,612.2519813999534,None,ScrollUp,정답입니다,612.2519813999534,None,612.2519813999534,None,612.2519813999534,None,612.2519813999534,None,613.035149600124,None,613.035149600124,613.5351823000237,,,,,,,,,,,,,,,,203,2023-03-27_17h39.00.929,FishGame,2022.1.1,60.035937520259665,
,13,나를 데려가줘,6,Green,B,0,0,ScrollDown,ScrollUp,Green.png,5,NonTarget,NonTarget,0,0,0,0,,,,,,,,,,,,,,,,,,,,,,,,,,,,,0,12,12,12,,,,,,,,,,,,,,,,,,,,,,,,,,,,,,,,,,,,,,,,,,,,,,,,,,,,,,,,,,,,,,,,,,,,,1.0432098706563313,0.9834795999340713,614.1579387001693,None,ScrollDown,정답입니다,614.1579387001693,None,614.1579387001693,None,614.1579387001693,None,614.1579387001693,None,615.0355063001625,None,615.0355063001625,615.5380804999731,,,,,,,,,,,,,,,,203,2023-03-27_17h39.00.929,FishGame,2022.1.1,60.035937520259665,
,14,넌 고독해,4,Orange,A,2.916666666666667,3.233333333333333,ScrollDown,ScrollUp,Orange.png,5,Negative,Incongruent,0,0,0,0,,,,,,,,,,,,,,,,,,,,,,,,,,,,,0,13,13,13,,,,,,,,,,,,,,,,,,,,,,,,,,,,,,,,,,,,,,,,,,,,,,,,,,,,,,,,,,,,,,,,,,,,,1.0262345671653748,0.8953510001301765,616.1598342000507,None,ScrollDown,정답입니다,616.1598342000507,None,616.1598342000507,None,616.1598342000507,None,616.1598342000507,None,616.9520527999848,None,616.9520527999848,617.4517131000757,,,,,,,,,,,,,,,,203,2023-03-27_17h39.00.929,FishGame,2022.1.1,60.035937520259665,
,15,넌 신경질적이야,5,Green,B,2.375,2.233333333333333,ScrollUp,ScrollDown,Green.png,5,Negative,Congruent,0,0,0,0,,,,,,,,,,,,,,,,,,,,,,,,,,,,,0,14,14,14,,,,,,,,,,,,,,,,,,,,,,,,,,,,,,,,,,,,,,,,,,,,,,,,,,,,,,,,,,,,,,,,,,,,,1.8209876517454784,0.7965710000135005,618.0920347999781,None,ScrollUp,정답입니다,618.0920347999781,None,618.0920347999781,None,618.0920347999781,None,618.0920347999781,None,618.7683606999926,None,618.7683606999926,619.2684295000508,,,,,,,,,,,,,,,,203,2023-03-27_17h39.00.929,FishGame,2022.1.1,60.035937520259665,
,16,넌 똑똑해,2,Green,B,5.666666666666667,3.966666666666667,ScrollUp,ScrollDown,Green.png,5,Positive,Incongruent,0,0,0,0,,,,,,,,,,,,,,,,,,,,,,,,,,,,,0,15,15,15,,,,,,,,,,,,,,,,,,,,,,,,,,,,,,,,,,,,,,,,,,,,,,,,,,,,,,,,,,,,,,,,,,,,,1.7083333333333335,0.7627004999667406,619.9020704999566,None,ScrollUp,정답입니다,619.9020704999566,None,619.9020704999566,None,619.9020704999566,None,619.9020704999566,None,620.5546165001579,None,620.5546165001579,621.0546489001717,,,,,,,,,,,,,,,,203,2023-03-27_17h39.00.929,FishGame,2022.1.1,60.035937520259665,
,17,나를 보내줘,6,Orange,A,0,0,ScrollUp,ScrollDown,Orange.png,5,NonTarget,NonTarget,0,0,0,0,,,,,,,,,,,,,,,,,,,,,,,,,,,,,0,16,16,16,,,,,,,,,,,,,,,,,,,,,,,,,,,,,,,,,,,,,,,,,,,,,,,,,,,,,,,,,,,,,,,,,,,,,1.5817901206513247,0.9973866001237184,621.6760152000934,None,ScrollUp,정답입니다,621.6760152000934,None,621.6760152000934,None,621.6760152000934,None,621.6760152000934,None,622.5712701000739,None,622.5712701000739,623.0712654001545,,,,,,,,,,,,,,,,203,2023-03-27_17h39.00.929,FishGame,2022.1.1,60.035937520259665,
,18,넌 협조적이야,1,Orange,A,5.625,5.666666666666667,ScrollDown,ScrollUp,Orange.png,5,Positive,Congruent,0,0,0,0,,,,,,,,,,,,,,,,,,,,,,,,,,,,,0,17,17,17,,,,,,,,,,,,,,,,,,,,,,,,,,,,,,,,,,,,,,,,,,,,,,,,,,,,,,,,,,,,,,,,,,,,,1.2685185074806213,0.8985524999443442,623.7038307001349,None,ScrollDown,정답입니다,623.7038307001349,None,623.7038307001349,None,623.7038307001349,None,623.7038307001349,None,624.5015742001124,None,624.5015742001124,625.0016985000111,,,,,,,,,,,,,,,,203,2023-03-27_17h39.00.929,FishGame,2022.1.1,60.035937520259665,
,19,나를 데려가줘,6,Green,B,0,0,ScrollDown,ScrollUp,Green.png,5,NonTarget,NonTarget,0,0,0,0,,,,,,,,,,,,,,,,,,,,,,,,,,,,,0,18,18,18,,,,,,,,,,,,,,,,,,,,,,,,,,,,,,,,,,,,,,,,,,,,,,,,,,,,,,,,,,,,,,,,,,,,,1.1064814925193787,1.0510537999216467,625.6216693001334,None,ScrollDown,정답입니다,625.6216693001334,None,625.6216693001334,None,625.6216693001334,None,625.6216693001334,None,626.5685746001545,None,626.5685746001545,627.0712292001117,,,,,,,,,,,,,,,,203,2023-03-27_17h39.00.929,FishGame,2022.1.1,60.035937520259665,
,20,넌 몰인정해,5,Green,B,2.541666666666667,2.066666666666667,ScrollUp,ScrollDown,Green.png,5,Negative,Congruent,0,0,0,0,,,,,,,,,,,,,,,,,,,,,,,,,,,,,0,19,19,19,,,,,,,,,,,,,,,,,,,,,,,,,,,,,,,,,,,,,,,,,,,,,,,,,,,,,,,,,,,,,,,,,,,,,1.7407407512267432,0.9289014998357743,627.6934273000807,None,ScrollUp,정답입니다,627.6934273000807,None,627.6934273000807,None,627.6934273000807,None,627.6934273000807,None,628.5211196001619,None,628.5211196001619,629.0211615001317,,,,,,,,,,,,,,,,203,2023-03-27_17h39.00.929,FishGame,2022.1.1,60.035937520259665,
,21,나를 데려가줘,6,Green,B,0,0,ScrollDown,ScrollUp,Green.png,5,NonTarget,NonTarget,0,0,0,0,,,,,,,,,,,,,,,,,,,,,,,,,,,,,0,20,20,20,,,,,,,,,,,,,,,,,,,,,,,,,,,,,,,,,,,,,,,,,,,,,,,,,,,,,,,,,,,,,,,,,,,,,1.1651234477758408,0.865019400138408,629.6566105999518,None,ScrollDown,정답입니다,629.6566105999518,None,629.6566105999518,None,629.6566105999518,None,629.6566105999518,None,630.4181301000062,None,630.4181301000062,630.9181107999757,,,,,,,,,,,,,,,,203,2023-03-27_17h39.00.929,FishGame,2022.1.1,60.035937520259665,
