name,TrialNum,Word,WordCategory,FishType,WordList,WordValence,WordReputation,CorrectResp,IncorrectResp,FishTypeFile,Round,WordType,Condition,LoopforOrange.thisRepN,LoopforOrange.thisTrialN,LoopforOrange.thisN,LoopforOrange.thisIndex,LoopForGreen.thisRepN,LoopForGreen.thisTrialN,LoopForGreen.thisN,LoopForGreen.thisIndex,GreenInstLoop.thisRepN,GreenInstLoop.thisTrialN,GreenInstLoop.thisN,GreenInstLoop.thisIndex,GreenPrac.thisRepN,GreenPrac.thisTrialN,GreenPrac.thisN,GreenPrac.thisIndex,trials_2.thisRepN,trials_2.thisTrialN,trials_2.thisN,trials_2.thisIndex,GreenRound1.thisRepN,GreenRound1.thisTrialN,GreenRound1.thisN,GreenRound1.thisIndex,GreenRound2.thisRepN,GreenRound2.thisTrialN,GreenRound2.thisN,GreenRound2.thisIndex,GreenRound3.thisRepN,GreenRound3.thisTrialN,GreenRound3.thisN,GreenRound3.thisIndex,GreenRound4.thisRepN,GreenRound4.thisTrialN,GreenRound4.thisN,GreenRound4.thisIndex,GreenRound5.thisRepN,GreenRound5.thisTrialN,GreenRound5.thisN,GreenRound5.thisIndex,text_2.started,text_2.stopped,text_3.started,text_3.stopped,key_resp.keys,key_resp.rt,key_resp.started,key_resp.stopped,PassI.started,PassI.stopped,PassInst.keys,PassInst.rt,PassInst.started,PassInst.stopped,mouse_2.x,mouse_2.y,mouse_2.leftButton,mouse_2.midButton,mouse_2.rightButton,mouse_2.started,mouse_2.stopped,image.started,image.stopped,text_5.started,text_5.stopped,text_6.started,text_6.stopped,text_7.started,text_7.stopped,text_8.started,text_8.stopped,slider_3.response,slider_3.rt,slider_3.started,slider_3.stopped,Response_3,Feedback_3,BackGround_3.started,BackGround_3.stopped,Fish_3.started,Fish_3.stopped,WordBox_3.started,WordBox_3.stopped,Words_3.started,Words_3.stopped,BackGround_Feedback_3.started,BackGround_Feedback_3.stopped,Feedbacks_3.started,Feedbacks_3.stopped,Continue_or_not_2.keys,Continue_or_not_2.rt,Continue_or_not_2.started,Continue_or_not_2.stopped,image_4.started,image_4.stopped,mouse_3.x,mouse_3.y,mouse_3.leftButton,mouse_3.midButton,mouse_3.rightButton,mouse_3.started,mouse_3.stopped,startmain.started,startmain.stopped,slider_4.response,slider_4.rt,slider_4.started,slider_4.stopped,Response_4,Feedback_4,BackGround_4.started,BackGround_4.stopped,Fish_4.started,Fish_4.stopped,WordBox_4.started,WordBox_4.stopped,Words_4.started,Words_4.stopped,BackGround_Feedback_4.started,BackGround_Feedback_4.stopped,Feedbacks_4.started,Feedbacks_4.stopped,text.started,text.stopped,break_interval.started,break_interval.stopped,mouse.x,mouse.y,mouse.leftButton,mouse.midButton,mouse.rightButton,mouse.started,mouse.stopped,stratnextround.started,stratnextround.stopped,endgame.started,endgame.stopped,participant,date,expName,psychopyVersion,frameRate,
,,,,,,,,,,,,,,,,,,,,,,,,,,,,,,,,,,,,,,,,,,,,,,,,,,,,,,17.187788699986413,None,17.187788699986413,None,space,0.5535804000683129,17.66441350011155,None,,,,,,,,,,,,,,,,,,,,,,,,,,,,,,,,,,,,,,,,,,,,,,,,,,,,,,,,,,,,,,,,,,,,,,,,,,,,,,,,,,,,,,,,,,204,2023-03-28_15h17.26.135,FishGame,2022.1.1,59.86453852219558,
물고기과제_instruction(참가자용)GreenVersion.mp4,,,,,,,,,,,,,,,,,,0,0,0,0,0,0,0,0,,,,,,,,,,,,,,,,,,,,,,,,,,,,,,,,,,,,,99.72499449993484,None,n,4.551724599907175,99.72499449993484,None,,,,,,,,,,,,,,,,,,,,,,,,,,,,,,,,,,,,,,,,,,,,,,,,,,,,,,,,,,,,,,,,,,,,,,,,,,,,,,,,,,,,204,2023-03-28_15h17.26.135,FishGame,2022.1.1,59.86453852219558,
,1,넌 교활해,5,Orange,B,2.333333333333333,2.133333333333333,ScrollUp,ScrollDown,Orange.png,practice,,,,,,,0,0,0,0,,,,,0,0,0,0,0,0,0,0,,,,,,,,,,,,,,,,,,,,,,,,,,,,,,,,,,,0.03425926,-0.225,1,0,0,0.5137809598818421,None,104.30516550014727,None,108.70824000006542,110.21236190013587,110.22900729998946,111.19142280006781,111.23864430002868,112.19570669997483,112.17900290014222,None,1.983024666706721,1.500371899921447,113.47875969996676,None,ScrollUp,정답입니다,113.47875969996676,None,113.47875969996676,None,113.47875969996676,None,113.47875969996676,None,114.67473360011354,None,114.67473360011354,115.19123030011542,,,,,,,,,,,,,,,,,,,,,,,,,,,,,,,,,,,,,,,,,,,,,,,,,204,2023-03-28_15h17.26.135,FishGame,2022.1.1,59.86453852219558,
,2,넌 슬기로워,2,Green,A,6.166666666666667,4.1,ScrollDown,ScrollUp,Green.png,practice,,,,,,,0,0,0,0,,,,,0,0,0,0,0,1,1,1,,,,,,,,,,,,,,,,,,,,,,,,,,,,,,,,,,,,,,,,,,,,,,,,,,,,1.336419758697351,1.2804633998312056,115.79935170011595,None,ScrollDown,정답입니다,115.79935170011595,None,115.79935170011595,None,115.79935170011595,None,115.79935170011595,None,116.97456420003437,None,116.97456420003437,117.47454640013166,,,,,,,,,,,,,,,,,,,,,,,,,,,,,,,,,,,,,,,,,,,,,,,,,204,2023-03-28_15h17.26.135,FishGame,2022.1.1,59.86453852219558,
,3,나를 보내줘,6,Green,A,0,0,ScrollUp,ScrollDown,Green.png,practice,,,,,,,0,0,0,0,,,,,0,0,0,0,0,2,2,2,,,,,,,,,,,,,,,,,,,,,,,,,,,,,,,,,,,,,,,,,,,,,,,,,,,,1.7746913582086563,1.0833566000219434,118.09775350010023,None,ScrollUp,정답입니다,118.09775350010023,None,118.09775350010023,None,118.09775350010023,None,118.09775350010023,None,119.0744115000125,None,119.0744115000125,119.57444830005988,,,,,,,,,,,,,,,,,,,,,,,,,,,,,,,,,,,,,,,,,,,,,,,,,204,2023-03-28_15h17.26.135,FishGame,2022.1.1,59.86453852219558,
,4,나를 데려가줘,6,Orange,B,0,0,ScrollDown,ScrollUp,Orange.png,practice,,,,,,,0,0,0,0,,,,,0,0,0,0,0,3,3,3,,,,,,,,,,,,,,,,,,,,,,,,,,,,,,,,,,,,,,,,,,,,,,,,,,,,1.3117283980051675,0.995886699995026,120.2003238000907,None,ScrollDown,정답입니다,120.2003238000907,None,120.2003238000907,None,120.2003238000907,None,120.2003238000907,None,121.09103740006685,None,121.09103740006685,121.59108819998801,,,,,,,,,,,,,,,,,,,,,,,,,,,,,,,,,,,,,,,,,,,,,,,,,204,2023-03-28_15h17.26.135,FishGame,2022.1.1,59.86453852219558,
,1,넌 교활해,5,Orange,B,2.333333333333333,2.133333333333333,ScrollUp,ScrollDown,Orange.png,practice,,,,,,,0,0,0,0,,,,,0,0,0,0,,,,,,,,,,,,,,,,,,,,,,,,,,,,,,,,,,,,,,,,,,,,,,,,,,,,,,,,,,,,,,,,,,,,,,,,,,n,5.5954252001829445,122.09107750002295,None,122.09107750002295,None,,,,,,,,,,,,,,,,,,,,,,,,,,,,,,,,,,,,,,,,,,,204,2023-03-28_15h17.26.135,FishGame,2022.1.1,59.86453852219558,
,1,넌 따뜻해,1,Orange,B,6.083333333333333,5.6,ScrollUp,ScrollDown,Orange.png,1,Positive,Incongruent,,,,,0,0,0,0,,,,,,,,,,,,,0,0,0,0,,,,,,,,,,,,,,,,,,,,,,,,,,,,,,,,,,,,,,,,132.50459380005486,134.00462709995918,134.03809890011325,134.9910838000942,135.04109860002063,135.99112519994378,135.99112519994378,None,,,,,,,,,,,,,,,,,,,,,,,,,0.09074074,-0.11666667,1,0,0,0.31481426022946835,None,127.70474920002744,None,1.7052469179034233,1.2273778999224305,137.28544130013324,None,ScrollUp,정답입니다,137.28544130013324,None,137.28544130013324,None,137.28544130013324,None,137.28544130013324,None,138.20474150008522,None,138.20474150008522,138.7073938001413,,,,,,,,,,,,,,,,204,2023-03-28_15h17.26.135,FishGame,2022.1.1,59.86453852219558,
,2,넌 기품있어,2,Orange,B,5.791666666666668,4.5,ScrollUp,ScrollDown,Orange.png,1,Positive,Incongruent,,,,,0,0,0,0,,,,,,,,,,,,,0,1,1,1,,,,,,,,,,,,,,,,,,,,,,,,,,,,,,,,,,,,,,,,,,,,,,,,,,,,,,,,,,,,,,,,,,,,,,,,,,,,,,,,,1.8564814726511638,0.9971097998786718,139.33865069993772,None,ScrollUp,정답입니다,139.33865069993772,None,139.33865069993772,None,139.33865069993772,None,139.33865069993772,None,140.2213946999982,None,140.2213946999982,140.72405590000562,,,,,,,,,,,,,,,,204,2023-03-28_15h17.26.135,FishGame,2022.1.1,59.86453852219558,
,3,나를 보내줘,6,Green,A,0,0,ScrollUp,ScrollDown,Green.png,1,NonTarget,NonTarget,,,,,0,0,0,0,,,,,,,,,,,,,0,2,2,2,,,,,,,,,,,,,,,,,,,,,,,,,,,,,,,,,,,,,,,,,,,,,,,,,,,,,,,,,,,,,,,,,,,,,,,,,,,,,,,,,1.632716049750646,1.1480303998105228,141.35403920011595,None,ScrollUp,정답입니다,141.35403920011595,None,141.35403920011595,None,141.35403920011595,None,141.35403920011595,None,142.3880477999337,None,142.3880477999337,142.89069129992276,,,,,,,,,,,,,,,,204,2023-03-28_15h17.26.135,FishGame,2022.1.1,59.86453852219558,
,4,넌 수동적이야,4,Green,A,2.833333333333333,2.933333333333333,ScrollDown,ScrollUp,Green.png,1,Negative,Incongruent,,,,,0,0,0,0,,,,,,,,,,,,,0,3,3,3,,,,,,,,,,,,,,,,,,,,,,,,,,,,,,,,,,,,,,,,,,,,,,,,,,,,,,,,,,,,,,,,,,,,,,,,,,,,,,,,,1.276234577099482,0.9149573999457061,143.5152223999612,None,ScrollDown,정답입니다,143.5152223999612,None,143.5152223999612,None,143.5152223999612,None,143.5152223999612,None,144.32102979999036,None,144.32102979999036,144.82181230001152,,,,,,,,,,,,,,,,204,2023-03-28_15h17.26.135,FishGame,2022.1.1,59.86453852219558,
,5,넌 사심이 없어,3,Orange,B,4.916666666666666,4.333333333333333,ScrollUp,ScrollDown,Orange.png,1,Neutral,Neutral,,,,,0,0,0,0,,,,,,,,,,,,,0,4,4,4,,,,,,,,,,,,,,,,,,,,,,,,,,,,,,,,,,,,,,,,,,,,,,,,,,,,,,,,,,,,,,,,,,,,,,,,,,,,,,,,,1.6759259278575578,1.2676461001392454,145.45100670005195,None,ScrollUp,정답입니다,145.45100670005195,None,145.45100670005195,None,145.45100670005195,None,145.45100670005195,None,146.60728570003994,None,146.60728570003994,147.10740600014105,,,,,,,,,,,,,,,,204,2023-03-28_15h17.26.135,FishGame,2022.1.1,59.86453852219558,
,6,넌 헤퍼,5,Green,A,2.458333333333334,2.233333333333333,ScrollDown,ScrollUp,Green.png,1,Negative,Incongruent,,,,,0,0,0,0,,,,,,,,,,,,,0,5,5,5,,,,,,,,,,,,,,,,,,,,,,,,,,,,,,,,,,,,,,,,,,,,,,,,,,,,,,,,,,,,,,,,,,,,,,,,,,,,,,,,,1.3101851840813956,1.24816789990291,147.73328229994513,None,ScrollDown,정답입니다,147.73328229994513,None,147.73328229994513,None,147.73328229994513,None,147.73328229994513,None,148.8739356000442,None,148.8739356000442,149.3738911000546,,,,,,,,,,,,,,,,204,2023-03-28_15h17.26.135,FishGame,2022.1.1,59.86453852219558,
,7,넌 말쑥해,3,Green,A,4.833333333333334,4.333333333333333,ScrollDown,ScrollUp,Green.png,1,Neutral,Neutral,,,,,0,0,0,0,,,,,,,,,,,,,0,6,6,6,,,,,,,,,,,,,,,,,,,,,,,,,,,,,,,,,,,,,,,,,,,,,,,,,,,,,,,,,,,,,,,,,,,,,,,,,,,,,,,,,1.1064814925193787,1.114938500104472,149.99979069991969,None,ScrollDown,정답입니다,149.99979069991969,None,149.99979069991969,None,149.99979069991969,None,149.99979069991969,None,151.0071585001424,None,151.0071585001424,151.52086189994588,,,,,,,,,,,,,,,,204,2023-03-28_15h17.26.135,FishGame,2022.1.1,59.86453852219558,
,8,넌 투덜거려,5,Orange,B,2.541666666666667,2.266666666666667,ScrollUp,ScrollDown,Orange.png,1,Negative,Congruent,,,,,0,0,0,0,,,,,,,,,,,,,0,7,7,7,,,,,,,,,,,,,,,,,,,,,,,,,,,,,,,,,,,,,,,,,,,,,,,,,,,,,,,,,,,,,,,,,,,,,,,,,,,,,,,,,1.6682098706563315,1.614039900014177,152.1501505000051,None,ScrollUp,정답입니다,152.1501505000051,None,152.1501505000051,None,152.1501505000051,None,152.1501505000051,None,153.65420010010712,None,153.65420010010712,154.1571637999732,,,,,,,,,,,,,,,,204,2023-03-28_15h17.26.135,FishGame,2022.1.1,59.86453852219558,
,9,넌 적극적이야,1,Green,A,5.708333333333333,5.533333333333333,ScrollDown,ScrollUp,Green.png,1,Positive,Congruent,,,,,0,0,0,0,,,,,,,,,,,,,0,8,8,8,,,,,,,,,,,,,,,,,,,,,,,,,,,,,,,,,,,,,,,,,,,,,,,,,,,,,,,,,,,,,,,,,,,,,,,,,,,,,,,,,1.3919753109415371,1.1000427999533713,154.78258959995583,None,ScrollDown,정답입니다,154.78258959995583,None,154.78258959995583,None,154.78258959995583,None,154.78258959995583,None,155.77393859997392,None,155.77393859997392,156.27379729994573,,,,,,,,,,,,,,,,204,2023-03-28_15h17.26.135,FishGame,2022.1.1,59.86453852219558,
,10,넌 재미없어,4,Orange,B,2.625,2.966666666666667,ScrollUp,ScrollDown,Orange.png,1,Negative,Congruent,,,,,0,0,0,0,,,,,,,,,,,,,0,9,9,9,,,,,,,,,,,,,,,,,,,,,,,,,,,,,,,,,,,,,,,,,,,,,,,,,,,,,,,,,,,,,,,,,,,,,,,,,,,,,,,,,1.5802469129363694,0.9480835997965187,156.90309019992128,None,ScrollUp,정답입니다,156.90309019992128,None,156.90309019992128,None,156.90309019992128,None,156.90309019992128,None,157.7376546000596,None,157.7376546000596,158.2403134999331,,,,,,,,,,,,,,,,204,2023-03-28_15h17.26.135,FishGame,2022.1.1,59.86453852219558,
,11,넌 명석해,2,Green,A,5.875,4.033333333333333,ScrollDown,ScrollUp,Green.png,1,Positive,Congruent,,,,,0,0,0,0,,,,,,,,,,,,,0,10,10,10,,,,,,,,,,,,,,,,,,,,,,,,,,,,,,,,,,,,,,,,,,,,,,,,,,,,,,,,,,,,,,,,,,,,,,,,,,,,,,,,,1.3765432089567184,1.0641152001917362,158.8655547001399,None,ScrollDown,정답입니다,158.8655547001399,None,158.8655547001399,None,158.8655547001399,None,158.8655547001399,None,159.82105359993875,None,159.82105359993875,160.3236322000157,,,,,,,,,,,,,,,,204,2023-03-28_15h17.26.135,FishGame,2022.1.1,59.86453852219558,
,12,나를 데려가줘,6,Orange,B,0,0,ScrollDown,ScrollUp,Orange.png,1,NonTarget,NonTarget,,,,,0,0,0,0,,,,,,,,,,,,,0,11,11,11,,,,,,,,,,,,,,,,,,,,,,,,,,,,,,,,,,,,,,,,,,,,,,,,,,,,,,,,,,,,,,,,,,,,,,,,,,,,,,,,,1,1.3000307001639158,160.94892380014062,None,ScrollDown,정답입니다,160.94892380014062,None,160.94892380014062,None,160.94892380014062,None,160.94892380014062,None,162.1403513001278,None,162.1403513001278,162.64027360011823,,,,,,,,,,,,,,,,204,2023-03-28_15h17.26.135,FishGame,2022.1.1,59.86453852219558,
,13,넌 소심해,4,Green,A,3,3.1,ScrollDown,ScrollUp,Green.png,1,Negative,Incongruent,,,,,0,0,0,0,,,,,,,,,,,,,0,12,12,12,,,,,,,,,,,,,,,,,,,,,,,,,,,,,,,,,,,,,,,,,,,,,,,,,,,,,,,,,,,,,,,,,,,,,,,,,,,,,,,,,1.1033950646718342,1.083314900053665,163.26469730003737,None,ScrollDown,정답입니다,163.26469730003737,None,163.26469730003737,None,163.26469730003737,None,163.26469730003737,None,164.2376029000152,None,164.2376029000152,164.74027019995265,,,,,,,,,,,,,,,,204,2023-03-28_15h17.26.135,FishGame,2022.1.1,59.86453852219558,
,14,넌 합리적이야,2,Green,A,5.583333333333333,4.733333333333333,ScrollDown,ScrollUp,Green.png,1,Positive,Congruent,,,,,0,0,0,0,,,,,,,,,,,,,0,13,13,13,,,,,,,,,,,,,,,,,,,,,,,,,,,,,,,,,,,,,,,,,,,,,,,,,,,,,,,,,,,,,,,,,,,,,,,,,,,,,,,,,1,0.9499147001188248,165.36265789996833,None,ScrollDown,정답입니다,165.36265789996833,None,165.36265789996833,None,165.36265789996833,None,165.36265789996833,None,166.20387470000423,None,166.20387470000423,166.7040337000508,,,,,,,,,,,,,,,,204,2023-03-28_15h17.26.135,FishGame,2022.1.1,59.86453852219558,
,15,넌 무자비해,5,Orange,B,2.333333333333333,2.1,ScrollUp,ScrollDown,Orange.png,1,Negative,Congruent,,,,,0,0,0,0,,,,,,,,,,,,,0,14,14,14,,,,,,,,,,,,,,,,,,,,,,,,,,,,,,,,,,,,,,,,,,,,,,,,,,,,,,,,,,,,,,,,,,,,,,,,,,,,,,,,,1.7530864129463832,0.898176799993962,167.33914060005918,None,ScrollUp,정답입니다,167.33914060005918,None,167.33914060005918,None,167.33914060005918,None,167.33914060005918,None,168.1239144001156,None,168.1239144001156,168.6235474999994,,,,,,,,,,,,,,,,204,2023-03-28_15h17.26.135,FishGame,2022.1.1,59.86453852219558,
,16,나를 보내줘,6,Green,A,0,0,ScrollUp,ScrollDown,Green.png,1,NonTarget,NonTarget,,,,,0,0,0,0,,,,,,,,,,,,,0,15,15,15,,,,,,,,,,,,,,,,,,,,,,,,,,,,,,,,,,,,,,,,,,,,,,,,,,,,,,,,,,,,,,,,,,,,,,,,,,,,,,,,,1.8117283930381138,1.1652485001832247,169.24596780003048,None,ScrollUp,정답입니다,169.24596780003048,None,169.24596780003048,None,169.24596780003048,None,169.24596780003048,None,170.3041703000199,None,170.3041703000199,170.80681050010026,,,,,,,,,,,,,,,,204,2023-03-28_15h17.26.135,FishGame,2022.1.1,59.86453852219558,
,17,넌 현실적이야,3,Orange,B,4.608695652173913,4.766666666666667,ScrollUp,ScrollDown,Orange.png,1,Neutral,Neutral,,,,,0,0,0,0,,,,,,,,,,,,,0,16,16,16,,,,,,,,,,,,,,,,,,,,,,,,,,,,,,,,,,,,,,,,,,,,,,,,,,,,,,,,,,,,,,,,,,,,,,,,,,,,,,,,,1.9490740597248077,1.1665774998255074,171.43032520008273,None,ScrollUp,정답입니다,171.43032520008273,None,171.43032520008273,None,171.43032520008273,None,171.43032520008273,None,172.48709510010667,None,172.48709510010667,172.98715379997157,,,,,,,,,,,,,,,,204,2023-03-28_15h17.26.135,FishGame,2022.1.1,59.86453852219558,
,18,넌 의리있어,1,Orange,B,5.833333333333334,5.633333333333334,ScrollUp,ScrollDown,Orange.png,1,Positive,Incongruent,,,,,0,0,0,0,,,,,,,,,,,,,0,17,17,17,,,,,,,,,,,,,,,,,,,,,,,,,,,,,,,,,,,,,,,,,,,,,,,,,,,,,,,,,,,,,,,,,,,,,,,,,,,,,,,,,1.7777777860562007,0.8982435001526028,173.61776780011132,None,ScrollUp,정답입니다,173.61776780011132,None,173.61776780011132,None,173.61776780011132,None,173.61776780011132,None,174.40668389992788,None,174.40668389992788,174.90672990004532,,,,,,,,,,,,,,,,204,2023-03-28_15h17.26.135,FishGame,2022.1.1,59.86453852219558,
,19,넌 신경과민이야,5,Green,A,2.541666666666667,2.166666666666667,ScrollDown,ScrollUp,Green.png,1,Negative,Incongruent,,,,,0,0,0,0,,,,,,,,,,,,,0,18,18,18,,,,,,,,,,,,,,,,,,,,,,,,,,,,,,,,,,,,,,,,,,,,,,,,,,,,,,,,,,,,,,,,,,,,,,,,,,,,,,,,,1.09413580596447,0.933343900134787,175.53649950004183,None,ScrollDown,정답입니다,175.53649950004183,None,175.53649950004183,None,175.53649950004183,None,175.53649950004183,None,176.3567484000232,None,176.3567484000232,176.85668800002895,,,,,,,,,,,,,,,,204,2023-03-28_15h17.26.135,FishGame,2022.1.1,59.86453852219558,
,20,넌 편안해,1,Green,A,5.916666666666666,5.866666666666666,ScrollDown,ScrollUp,Green.png,1,Positive,Congruent,,,,,0,0,0,0,,,,,,,,,,,,,0,19,19,19,,,,,,,,,,,,,,,,,,,,,,,,,,,,,,,,,,,,,,,,,,,,,,,,,,,,,,,,,,,,,,,,,,,,,,,,,,,,,,,,,1.2901234527428946,0.8815268999896944,177.49387950007804,None,ScrollDown,정답입니다,177.49387950007804,None,177.49387950007804,None,177.49387950007804,None,177.49387950007804,None,178.2703241999261,None,178.2703241999261,178.7703838001471,,,,,,,,,,,,,,,,204,2023-03-28_15h17.26.135,FishGame,2022.1.1,59.86453852219558,
,21,넌 품위있어,2,Orange,B,5.291666666666666,4.466666666666667,ScrollUp,ScrollDown,Orange.png,1,Positive,Incongruent,,,,,0,0,0,0,,,,,,,,,,,,,0,20,20,20,,,,,,,,,,,,,,,,,,,,,,,,,,,,,,,,,,,,,,,,,,,,,,,,,,,,,,,,,,,,,,,,,,,,,,,,,,,,,,,,,1.7577160547176998,0.8839763000141829,179.40055180015042,None,ScrollUp,정답입니다,179.40055180015042,None,179.40055180015042,None,179.40055180015042,None,179.40055180015042,None,180.1706453000661,None,180.1706453000661,180.6732688001357,,,,,,,,,,,,,,,,204,2023-03-28_15h17.26.135,FishGame,2022.1.1,59.86453852219558,
,22,넌 빈틈없어,3,Green,A,4.833333333333333,3.966666666666667,ScrollDown,ScrollUp,Green.png,1,Neutral,Neutral,,,,,0,0,0,0,,,,,,,,,,,,,0,21,21,21,,,,,,,,,,,,,,,,,,,,,,,,,,,,,,,,,,,,,,,,,,,,,,,,,,,,,,,,,,,,,,,,,,,,,,,,,,,,,,,,,1.1759259204069774,0.9646651998627931,181.2999942000024,None,ScrollDown,정답입니다,181.2999942000024,None,181.2999942000024,None,181.2999942000024,None,181.2999942000024,None,182.1566818000283,None,182.1566818000283,182.6565650999546,,,,,,,,,,,,,,,,204,2023-03-28_15h17.26.135,FishGame,2022.1.1,59.86453852219558,
,23,넌 상상력없어,4,Orange,B,2.833333333333333,3.133333333333333,ScrollUp,ScrollDown,Orange.png,1,Negative,Congruent,,,,,0,0,0,0,,,,,,,,,,,,,0,22,22,22,,,,,,,,,,,,,,,,,,,,,,,,,,,,,,,,,,,,,,,,,,,,,,,,,,,,,,,,,,,,,,,,,,,,,,,,,,,,,,,,,1.6929012313485146,1.008913700003177,183.28749989997596,None,ScrollUp,정답입니다,183.28749989997596,None,183.28749989997596,None,183.28749989997596,None,183.28749989997596,None,184.18686840008013,None,184.18686840008013,184.68690620013513,,,,,,,,,,,,,,,,204,2023-03-28_15h17.26.135,FishGame,2022.1.1,59.86453852219558,
,24,넌 지혜로워,2,Orange,B,6.333333333333334,4.633333333333334,ScrollUp,ScrollDown,Orange.png,1,Positive,Incongruent,,,,,0,0,0,0,,,,,,,,,,,,,0,23,23,23,,,,,,,,,,,,,,,,,,,,,,,,,,,,,,,,,,,,,,,,,,,,,,,,,,,,,,,,,,,,,,,,,,,,,,,,,,,,,,,,,1.6157407462596893,0.8199412000831217,185.31754190009087,None,ScrollUp,정답입니다,185.31754190009087,None,185.31754190009087,None,185.31754190009087,None,185.31754190009087,None,186.023354700068,None,186.023354700068,186.5231975999195,,,,,,,,,,,,,,,,204,2023-03-28_15h17.26.135,FishGame,2022.1.1,59.86453852219558,
,25,넌 시끄러워,4,Green,A,2.833333333333333,3.033333333333333,ScrollDown,ScrollUp,Green.png,1,Negative,Incongruent,,,,,0,0,0,0,,,,,,,,,,,,,0,24,24,24,,,,,,,,,,,,,,,,,,,,,,,,,,,,,,,,,,,,,,,,,,,,,,,,,,,,,,,,,,,,,,,,,,,,,,,,,,,,,,,,,1.234567900498708,0.8122165999375284,187.15085140010342,None,ScrollDown,정답입니다,187.15085140010342,None,187.15085140010342,None,187.15085140010342,None,187.15085140010342,None,187.85643430007622,None,187.85643430007622,188.35653350013308,,,,,,,,,,,,,,,,204,2023-03-28_15h17.26.135,FishGame,2022.1.1,59.86453852219558,
,26,넌 만사태평이야,3,Orange,B,4,4.333333333333333,ScrollUp,ScrollDown,Orange.png,1,Neutral,Neutral,,,,,0,0,0,0,,,,,,,,,,,,,0,25,25,25,,,,,,,,,,,,,,,,,,,,,,,,,,,,,,,,,,,,,,,,,,,,,,,,,,,,,,,,,,,,,,,,,,,,,,,,,,,,,,,,,1.7314814925193787,0.8954075002111495,188.9930871000979,None,ScrollUp,정답입니다,188.9930871000979,None,188.9930871000979,None,188.9930871000979,None,188.9930871000979,None,189.7700688999612,None,189.7700688999612,190.27008199994452,,,,,,,,,,,,,,,,204,2023-03-28_15h17.26.135,FishGame,2022.1.1,59.86453852219558,
,27,넌 붙임성있어,1,Green,A,5.708333333333333,5.633333333333334,ScrollDown,ScrollUp,Green.png,1,Positive,Congruent,,,,,0,0,0,0,,,,,,,,,,,,,0,26,26,26,,,,,,,,,,,,,,,,,,,,,,,,,,,,,,,,,,,,,,,,,,,,,,,,,,,,,,,,,,,,,,,,,,,,,,,,,,,,,,,,,1.3117283980051675,0.8292030000593513,190.90055759996176,None,ScrollDown,정답입니다,190.90055759996176,None,190.90055759996176,None,190.90055759996176,None,190.90055759996176,None,191.62010039994493,None,191.62010039994493,192.1231112999376,,,,,,,,,,,,,,,,204,2023-03-28_15h17.26.135,FishGame,2022.1.1,59.86453852219558,
,28,넌 영리해,2,Green,A,6,4.033333333333333,ScrollDown,ScrollUp,Green.png,1,Positive,Congruent,,,,,0,0,0,0,,,,,,,,,,,,,0,27,27,27,,,,,,,,,,,,,,,,,,,,,,,,,,,,,,,,,,,,,,,,,,,,,,,,,,,,,,,,,,,,,,,,,,,,,,,,,,,,,,,,,1.3070987686514854,0.7970573999918997,192.74814029992558,None,ScrollDown,정답입니다,192.74814029992558,None,192.74814029992558,None,192.74814029992558,None,192.74814029992558,None,193.43969070003368,None,193.43969070003368,193.93967160000466,,,,,,,,,,,,,,,,204,2023-03-28_15h17.26.135,FishGame,2022.1.1,59.86453852219558,
,29,넌 열심이야,1,Orange,B,6.041666666666667,5.833333333333333,ScrollUp,ScrollDown,Orange.png,1,Positive,Incongruent,,,,,0,0,0,0,,,,,,,,,,,,,0,28,28,28,,,,,,,,,,,,,,,,,,,,,,,,,,,,,,,,,,,,,,,,,,,,,,,,,,,,,,,,,,,,,,,,,,,,,,,,,,,,,,,,,1.652777781089147,0.7952560998965055,194.56928170006722,None,ScrollUp,정답입니다,194.56928170006722,None,194.56928170006722,None,194.56928170006722,None,194.56928170006722,None,195.236824600026,None,195.236824600026,195.7395379000809,,,,,,,,,,,,,,,,204,2023-03-28_15h17.26.135,FishGame,2022.1.1,59.86453852219558,
,30,넌 인기없어,4,Orange,B,3,3.3,ScrollUp,ScrollDown,Orange.png,1,Negative,Congruent,,,,,0,0,0,0,,,,,,,,,,,,,0,29,29,29,,,,,,,,,,,,,,,,,,,,,,,,,,,,,,,,,,,,,,,,,,,,,,,,,,,,,,,,,,,,,,,,,,,,,,,,,,,,,,,,,1.8240740795930226,0.8453063999768347,196.36681200005114,None,ScrollUp,정답입니다,196.36681200005114,None,196.36681200005114,None,196.36681200005114,None,196.36681200005114,None,197.10618699993938,None,197.10618699993938,197.60618150001392,,,,,,,,,,,,,,,,204,2023-03-28_15h17.26.135,FishGame,2022.1.1,59.86453852219558,
,31,넌 익살스러워,3,Green,A,4.708333333333334,4.833333333333333,ScrollDown,ScrollUp,Green.png,1,Neutral,Neutral,,,,,0,0,0,0,,,,,,,,,,,,,0,30,30,30,,,,,,,,,,,,,,,,,,,,,,,,,,,,,,,,,,,,,,,,,,,,,,,,,,,,,,,,,,,,,,,,,,,,,,,,,,,,,,,,,1.0185184975465138,0.9667672000359744,198.2380276999902,None,ScrollDown,정답입니다,198.2380276999902,None,198.2380276999902,None,198.2380276999902,None,198.2380276999902,None,199.08686079992913,None,199.08686079992913,199.58950290014036,,,,,,,,,,,,,,,,204,2023-03-28_15h17.26.135,FishGame,2022.1.1,59.86453852219558,
,32,넌 이기적이야,5,Orange,B,2.291666666666667,2.333333333333333,ScrollUp,ScrollDown,Orange.png,1,Negative,Congruent,,,,,0,0,0,0,,,,,,,,,,,,,0,31,31,31,,,,,,,,,,,,,,,,,,,,,,,,,,,,,,,,,,,,,,,,,,,,,,,,,,,,,,,,,,,,,,,,,,,,,,,,,,,,,,,,,1.837962955236435,0.7499621999450028,200.21954750013538,None,ScrollUp,정답입니다,200.21954750013538,None,200.21954750013538,None,200.21954750013538,None,200.21954750013538,None,200.85332350013778,None,200.85332350013778,201.3561305999756,,,,,,,,,,,,,,,,204,2023-03-28_15h17.26.135,FishGame,2022.1.1,59.86453852219558,
,33,나를 데려가줘,6,Orange,B,0,0,ScrollDown,ScrollUp,Orange.png,1,NonTarget,NonTarget,,,,,0,0,0,0,,,,,,,,,,,,,0,32,32,32,,,,,,,,,,,,,,,,,,,,,,,,,,,,,,,,,,,,,,,,,,,,,,,,,,,,,,,,,,,,,,,,,,,,,,,,,,,,,,,,,1.1913580348094304,1.166577700059861,201.981359800091,None,ScrollDown,정답입니다,201.981359800091,None,201.981359800091,None,201.981359800091,None,201.981359800091,None,203.03677859995514,None,203.03677859995514,203.53940979996696,,,,,,,,,,,,,,,,204,2023-03-28_15h17.26.135,FishGame,2022.1.1,59.86453852219558,
,34,넌 기회주의자야,5,Green,A,2.875,2.133333333333333,ScrollDown,ScrollUp,Green.png,1,Negative,Incongruent,,,,,0,0,0,0,,,,,,,,,,,,,0,33,33,33,,,,,,,,,,,,,,,,,,,,,,,,,,,,,,,,,,,,,,,,,,,,,,,,,,,,,,,,,,,,,,,,,,,,,,,,,,,,,,,,,1.1682098756233852,1.1286987999919802,204.16638910002075,None,ScrollDown,정답입니다,204.16638910002075,None,204.16638910002075,None,204.16638910002075,None,204.16638910002075,None,205.18668909999542,None,205.18668909999542,205.68933989992365,,,,,,,,,,,,,,,,204,2023-03-28_15h17.26.135,FishGame,2022.1.1,59.86453852219558,
,1,넌 미성숙해,4,Green,A,3,3.2,ScrollDown,ScrollUp,Green.png,2,Negative,Incongruent,,,,,0,0,0,0,,,,,,,,,,,,,,,,,0,0,0,0,,,,,,,,,,,,,,,,,,,,,,,,,,,,,,,,,,,,237.98883379995823,239.48895879997872,239.52233540010639,240.48877190006897,240.52212049998343,241.47210610006005,241.47210610006005,None,,,,,,,,,,,,,,,,,,,,,,,,,,,,,,,,,,1.3919753109415371,0.9627420001197606,242.57122309994884,None,ScrollDown,정답입니다,242.57122309994884,None,242.57122309994884,None,242.57122309994884,None,242.57122309994884,None,243.4218441999983,None,243.4218441999983,243.92194560007192,206.18936760001816,None,206.18936760001816,None,0.13333334,-0.12407407,1,0,0,0.01631105993874371,None,236.20246980013326,None,,,204,2023-03-28_15h17.26.135,FishGame,2022.1.1,59.86453852219558,
,2,넌 반사회적이야,5,Orange,B,2.416666666666667,2.033333333333333,ScrollUp,ScrollDown,Orange.png,2,Negative,Congruent,,,,,0,0,0,0,,,,,,,,,,,,,,,,,0,1,1,1,,,,,,,,,,,,,,,,,,,,,,,,,,,,,,,,,,,,,,,,,,,,,,,,,,,,,,,,,,,,,,,,,,,,,,,,,,,,,2,1.0312309998553246,244.5494695000816,None,ScrollUp,정답입니다,244.5494695000816,None,244.5494695000816,None,244.5494695000816,None,244.5494695000816,None,245.46926250006072,None,245.46926250006072,245.97191850002855,,,,,,,,,,,,,,,,204,2023-03-28_15h17.26.135,FishGame,2022.1.1,59.86453852219558,
,3,넌 유능해,2,Green,A,6.208333333333333,4.433333333333334,ScrollDown,ScrollUp,Green.png,2,Positive,Congruent,,,,,0,0,0,0,,,,,,,,,,,,,,,,,0,2,2,2,,,,,,,,,,,,,,,,,,,,,,,,,,,,,,,,,,,,,,,,,,,,,,,,,,,,,,,,,,,,,,,,,,,,,,,,,,,,,1.28086419403553,0.7973686000332236,246.597134700045,None,ScrollDown,정답입니다,246.597134700045,None,246.597134700045,None,246.597134700045,None,246.597134700045,None,247.28859540005215,None,247.28859540005215,247.79285060008988,,,,,,,,,,,,,,,,204,2023-03-28_15h17.26.135,FishGame,2022.1.1,59.86453852219558,
,4,넌 능숙해,2,Orange,B,5.666666666666667,4.733333333333333,ScrollUp,ScrollDown,Orange.png,2,Positive,Incongruent,,,,,0,0,0,0,,,,,,,,,,,,,,,,,0,3,3,3,,,,,,,,,,,,,,,,,,,,,,,,,,,,,,,,,,,,,,,,,,,,,,,,,,,,,,,,,,,,,,,,,,,,,,,,,,,,,1.71296297510465,0.864878399996087,248.42411949997768,None,ScrollUp,정답입니다,248.42411949997768,None,248.42411949997768,None,248.42411949997768,None,248.42411949997768,None,249.18554829992354,None,249.18554829992354,249.68553050002083,,,,,,,,,,,,,,,,204,2023-03-28_15h17.26.135,FishGame,2022.1.1,59.86453852219558,
,5,넌 진부해,4,Orange,B,2.458333333333333,3.166666666666667,ScrollUp,ScrollDown,Orange.png,2,Negative,Congruent,,,,,0,0,0,0,,,,,,,,,,,,,,,,,0,4,4,4,,,,,,,,,,,,,,,,,,,,,,,,,,,,,,,,,,,,,,,,,,,,,,,,,,,,,,,,,,,,,,,,,,,,,,,,,,,,,1.564814817160368,0.7656645998358727,250.3302841000259,None,ScrollUp,정답입니다,250.3302841000259,None,250.3302841000259,None,250.3302841000259,None,250.3302841000259,None,250.97182460012846,None,250.97182460012846,251.47189699998125,,,,,,,,,,,,,,,,204,2023-03-28_15h17.26.135,FishGame,2022.1.1,59.86453852219558,
,6,나를 보내줘,6,Green,A,0,0,ScrollUp,ScrollDown,Green.png,2,NonTarget,NonTarget,,,,,0,0,0,0,,,,,,,,,,,,,,,,,0,5,5,5,,,,,,,,,,,,,,,,,,,,,,,,,,,,,,,,,,,,,,,,,,,,,,,,,,,,,,,,,,,,,,,,,,,,,,,,,,,,,1.8024691343307495,0.9979425000492483,252.0940284000244,None,ScrollUp,정답입니다,252.0940284000244,None,252.0940284000244,None,252.0940284000244,None,252.0940284000244,None,252.98564730002545,None,252.98564730002545,253.4884422000032,,,,,,,,,,,,,,,,204,2023-03-28_15h17.26.135,FishGame,2022.1.1,59.86453852219558,
,7,넌 엄격해,3,Green,A,4.166666666666666,4.1,ScrollDown,ScrollUp,Green.png,2,Neutral,Neutral,,,,,0,0,0,0,,,,,,,,,,,,,,,,,0,6,6,6,,,,,,,,,,,,,,,,,,,,,,,,,,,,,,,,,,,,,,,,,,,,,,,,,,,,,,,,,,,,,,,,,,,,,,,,,,,,,1.3040123408039412,0.7967755999416113,254.11369900009595,None,ScrollDown,정답입니다,254.11369900009595,None,254.11369900009595,None,254.11369900009595,None,254.11369900009595,None,254.80238469992764,None,254.80238469992764,255.30498609994538,,,,,,,,,,,,,,,,204,2023-03-28_15h17.26.135,FishGame,2022.1.1,59.86453852219558,
,8,나를 보내줘,6,Green,A,0,0,ScrollUp,ScrollDown,Green.png,2,NonTarget,NonTarget,,,,,0,0,0,0,,,,,,,,,,,,,,,,,0,7,7,7,,,,,,,,,,,,,,,,,,,,,,,,,,,,,,,,,,,,,,,,,,,,,,,,,,,,,,,,,,,,,,,,,,,,,,,,,,,,,2,1.0664532999508083,255.92702140007168,None,ScrollUp,정답입니다,255.92702140007168,None,255.92702140007168,None,255.92702140007168,None,255.92702140007168,None,256.88564600003883,None,256.88564600003883,257.38832219992764,,,,,,,,,,,,,,,,204,2023-03-28_15h17.26.135,FishGame,2022.1.1,59.86453852219558,
,9,넌 대담해,3,Orange,B,4.875,4.866666666666666,ScrollUp,ScrollDown,Orange.png,2,Neutral,Neutral,,,,,0,0,0,0,,,,,,,,,,,,,,,,,0,8,8,8,,,,,,,,,,,,,,,,,,,,,,,,,,,,,,,,,,,,,,,,,,,,,,,,,,,,,,,,,,,,,,,,,,,,,,,,,,,,,1.5030864196984717,1.013823099900037,258.0157205001451,None,NoResponse,무응답입니다,258.0157205001451,None,258.0157205001451,None,258.0157205001451,None,258.0157205001451,None,258.9189745001495,None,258.9189745001495,259.41908040014096,,,,,,,,,,,,,,,,204,2023-03-28_15h17.26.135,FishGame,2022.1.1,59.86453852219558,
,10,넌 꾸준해,1,Green,A,5.916666666666668,5.8,ScrollDown,ScrollUp,Green.png,2,Positive,Congruent,,,,,0,0,0,0,,,,,,,,,,,,,,,,,0,9,9,9,,,,,,,,,,,,,,,,,,,,,,,,,,,,,,,,,,,,,,,,,,,,,,,,,,,,,,,,,,,,,,,,,,,,,,,,,,,,,1.2993827114502587,0.9272737998981029,260.05249050003476,None,ScrollDown,정답입니다,260.05249050003476,None,260.05249050003476,None,260.05249050003476,None,260.05249050003476,None,260.868918400025,None,260.868918400025,261.37160050007515,,,,,,,,,,,,,,,,204,2023-03-28_15h17.26.135,FishGame,2022.1.1,59.86453852219558,
,11,나를 데려가줘,6,Orange,B,0,0,ScrollDown,ScrollUp,Orange.png,2,NonTarget,NonTarget,,,,,0,0,0,0,,,,,,,,,,,,,,,,,0,10,10,10,,,,,,,,,,,,,,,,,,,,,,,,,,,,,,,,,,,,,,,,,,,,,,,,,,,,,,,,,,,,,,,,,,,,,,,,,,,,,1.2932098805904388,1.247105399845168,261.99615030013956,None,ScrollDown,정답입니다,261.99615030013956,None,261.99615030013956,None,261.99615030013956,None,261.99615030013956,None,263.13525549997576,None,263.13525549997576,263.635246100137,,,,,,,,,,,,,,,,204,2023-03-28_15h17.26.135,FishGame,2022.1.1,59.86453852219558,
,12,넌 독선적이야,5,Green,A,2.458333333333333,1.933333333333333,ScrollDown,ScrollUp,Green.png,2,Negative,Incongruent,,,,,0,0,0,0,,,,,,,,,,,,,,,,,0,11,11,11,,,,,,,,,,,,,,,,,,,,,,,,,,,,,,,,,,,,,,,,,,,,,,,,,,,,,,,,,,,,,,,,,,,,,,,,,,,,,1.1064814925193787,0.8500108998268843,264.2661713999696,None,ScrollDown,정답입니다,264.2661713999696,None,264.2661713999696,None,264.2661713999696,None,264.2661713999696,None,265.0050691999495,None,265.0050691999495,265.5049068001099,,,,,,,,,,,,,,,,204,2023-03-28_15h17.26.135,FishGame,2022.1.1,59.86453852219558,
,13,나를 보내줘,6,Green,A,0,0,ScrollUp,ScrollDown,Green.png,2,NonTarget,NonTarget,,,,,0,0,0,0,,,,,,,,,,,,,,,,,0,12,12,12,,,,,,,,,,,,,,,,,,,,,,,,,,,,,,,,,,,,,,,,,,,,,,,,,,,,,,,,,,,,,,,,,,,,,,,,,,,,,1.6435185223817825,0.9138764999806881,266.1274437000975,None,ScrollUp,정답입니다,266.1274437000975,None,266.1274437000975,None,266.1274437000975,None,266.1274437000975,None,266.9356061001308,None,266.9356061001308,267.4381248001009,,,,,,,,,,,,,,,,204,2023-03-28_15h17.26.135,FishGame,2022.1.1,59.86453852219558,
,14,넌 책임감있어,1,Orange,B,6.347826086956522,6,ScrollUp,ScrollDown,Orange.png,2,Positive,Incongruent,,,,,0,0,0,0,,,,,,,,,,,,,,,,,0,13,13,13,,,,,,,,,,,,,,,,,,,,,,,,,,,,,,,,,,,,,,,,,,,,,,,,,,,,,,,,,,,,,,,,,,,,,,,,,,,,,1.1759259204069774,0.9148939000442624,268.0671377000399,None,ScrollDown,오답입니다,268.0671377000399,None,268.0671377000399,None,268.0671377000399,None,268.0671377000399,None,268.86870689992793,None,268.86870689992793,269.37136789993383,,,,,,,,,,,,,,,,204,2023-03-28_15h17.26.135,FishGame,2022.1.1,59.86453852219558,
,15,넌 문학적이야,3,Green,A,4.708333333333334,4.333333333333333,ScrollDown,ScrollUp,Green.png,2,Neutral,Neutral,,,,,0,0,0,0,,,,,,,,,,,,,,,,,0,14,14,14,,,,,,,,,,,,,,,,,,,,,,,,,,,,,,,,,,,,,,,,,,,,,,,,,,,,,,,,,,,,,,,,,,,,,,,,,,,,,1.2731481492519379,1.2457686001434922,269.99782759998925,None,ScrollDown,정답입니다,269.99782759998925,None,269.99782759998925,None,269.99782759998925,None,269.99782759998925,None,271.135363999987,None,271.135363999987,271.6380022999365,,,,,,,,,,,,,,,,204,2023-03-28_15h17.26.135,FishGame,2022.1.1,59.86453852219558,
,16,넌 재미있어,1,Orange,B,5.875,5.7,ScrollUp,ScrollDown,Orange.png,2,Positive,Incongruent,,,,,0,0,0,0,,,,,,,,,,,,,,,,,0,15,15,15,,,,,,,,,,,,,,,,,,,,,,,,,,,,,,,,,,,,,,,,,,,,,,,,,,,,,,,,,,,,,,,,,,,,,,,,,,,,,1.765432099501292,1.0481223999522626,272.26210880000144,None,ScrollUp,정답입니다,272.26210880000144,None,272.26210880000144,None,272.26210880000144,None,272.26210880000144,None,273.20463380008005,None,273.20463380008005,273.7046922999434,,,,,,,,,,,,,,,,204,2023-03-28_15h17.26.135,FishGame,2022.1.1,59.86453852219558,
,17,나를 데려가줘,6,Orange,B,0,0,ScrollDown,ScrollUp,Orange.png,2,NonTarget,NonTarget,,,,,0,0,0,0,,,,,,,,,,,,,,,,,0,16,16,16,,,,,,,,,,,,,,,,,,,,,,,,,,,,,,,,,,,,,,,,,,,,,,,,,,,,,,,,,,,,,,,,,,,,,,,,,,,,,1.1342592686414719,1.1307004999835044,274.3294820000883,None,ScrollDown,정답입니다,274.3294820000883,None,274.3294820000883,None,274.3294820000883,None,274.3294820000883,None,275.3547133000102,None,275.3547133000102,275.8546138999518,,,,,,,,,,,,,,,,204,2023-03-28_15h17.26.135,FishGame,2022.1.1,59.86453852219558,
,18,넌 협력적이야,1,Green,A,5.625,5.633333333333334,ScrollDown,ScrollUp,Green.png,2,Positive,Congruent,,,,,0,0,0,0,,,,,,,,,,,,,,,,,0,17,17,17,,,,,,,,,,,,,,,,,,,,,,,,,,,,,,,,,,,,,,,,,,,,,,,,,,,,,,,,,,,,,,,,,,,,,,,,,,,,,1.1466049303611119,1.1147808998357505,276.47965320013463,None,ScrollDown,정답입니다,276.47965320013463,None,276.47965320013463,None,276.47965320013463,None,276.47965320013463,None,277.48785139992833,None,277.48785139992833,277.9878500001505,,,,,,,,,,,,,,,,204,2023-03-28_15h17.26.135,FishGame,2022.1.1,59.86453852219558,
,19,넌 평범해,3,Orange,B,4.333333333333332,4.233333333333333,ScrollUp,ScrollDown,Orange.png,2,Neutral,Neutral,,,,,0,0,0,0,,,,,,,,,,,,,,,,,0,18,18,18,,,,,,,,,,,,,,,,,,,,,,,,,,,,,,,,,,,,,,,,,,,,,,,,,,,,,,,,,,,,,,,,,,,,,,,,,,,,,1.7777777860562007,0.8833407000638545,278.6312772000674,None,ScrollUp,정답입니다,278.6312772000674,None,278.6312772000674,None,278.6312772000674,None,278.6312772000674,None,279.40464790002443,None,279.40464790002443,279.9211862999946,,,,,,,,,,,,,,,,204,2023-03-28_15h17.26.135,FishGame,2022.1.1,59.86453852219558,
,20,넌 오만해,5,Green,A,2.333333333333333,2,ScrollDown,ScrollUp,Green.png,2,Negative,Incongruent,,,,,0,0,0,0,,,,,,,,,,,,,,,,,0,19,19,19,,,,,,,,,,,,,,,,,,,,,,,,,,,,,,,,,,,,,,,,,,,,,,,,,,,,,,,,,,,,,,,,,,,,,,,,,,,,,1.1512345721324284,0.8831688999198377,280.528836700134,None,ScrollDown,정답입니다,280.528836700134,None,280.528836700134,None,280.528836700134,None,280.528836700134,None,281.30470440001227,None,281.30470440001227,281.80447730002925,,,,,,,,,,,,,,,,204,2023-03-28_15h17.26.135,FishGame,2022.1.1,59.86453852219558,
,21,넌 운이없어,4,Orange,B,3,3.466666666666667,ScrollUp,ScrollDown,Orange.png,2,Negative,Congruent,,,,,0,0,0,0,,,,,,,,,,,,,,,,,0,20,20,20,,,,,,,,,,,,,,,,,,,,,,,,,,,,,,,,,,,,,,,,,,,,,,,,,,,,,,,,,,,,,,,,,,,,,,,,,,,,,1.8688271592060726,0.9147034999914467,282.4318852999713,None,ScrollUp,정답입니다,282.4318852999713,None,282.4318852999713,None,282.4318852999713,None,282.4318852999713,None,283.2351782999467,None,283.2351782999467,283.73781180009246,,,,,,,,,,,,,,,,204,2023-03-28_15h17.26.135,FishGame,2022.1.1,59.86453852219558,
,22,넌 창조적이야,2,Orange,B,6.125,4.633333333333334,ScrollUp,ScrollDown,Orange.png,2,Positive,Incongruent,,,,,0,0,0,0,,,,,,,,,,,,,,,,,0,21,21,21,,,,,,,,,,,,,,,,,,,,,,,,,,,,,,,,,,,,,,,,,,,,,,,,,,,,,,,,,,,,,,,,,,,,,,,,,,,,,1.7530864129463832,0.9077117000706494,284.37748849997297,None,ScrollUp,정답입니다,284.37748849997297,None,284.37748849997297,None,284.37748849997297,None,284.37748849997297,None,285.1681534999516,None,285.1681534999516,285.6681055999361,,,,,,,,,,,,,,,,204,2023-03-28_15h17.26.135,FishGame,2022.1.1,59.86453852219558,
,23,나를 보내줘,6,Green,A,0,0,ScrollUp,ScrollDown,Green.png,2,NonTarget,NonTarget,,,,,0,0,0,0,,,,,,,,,,,,,,,,,0,22,22,22,,,,,,,,,,,,,,,,,,,,,,,,,,,,,,,,,,,,,,,,,,,,,,,,,,,,,,,,,,,,,,,,,,,,,,,,,,,,,1.6203703756133714,1.1145840000826865,286.29404649999924,None,ScrollUp,정답입니다,286.29404649999924,None,286.29404649999924,None,286.29404649999924,None,286.29404649999924,None,287.30148070002906,None,287.30148070002906,287.8044306000229,,,,,,,,,,,,,,,,204,2023-03-28_15h17.26.135,FishGame,2022.1.1,59.86453852219558,
,24,넌 통찰력있어,2,Green,A,6.5,4.8,ScrollDown,ScrollUp,Green.png,2,Positive,Congruent,,,,,0,0,0,0,,,,,,,,,,,,,,,,,0,23,23,23,,,,,,,,,,,,,,,,,,,,,,,,,,,,,,,,,,,,,,,,,,,,,,,,,,,,,,,,,,,,,,,,,,,,,,,,,,,,,1.3641975348194442,0.913913699798286,288.4311631000601,None,ScrollDown,정답입니다,288.4311631000601,None,288.4311631000601,None,288.4311631000601,None,288.4311631000601,None,289.23775000008754,None,289.23775000008754,289.73772309999913,,,,,,,,,,,,,,,,204,2023-03-28_15h17.26.135,FishGame,2022.1.1,59.86453852219558,
,25,넌 경솔해,5,Orange,B,2.458333333333333,2.266666666666667,ScrollUp,ScrollDown,Orange.png,2,Negative,Congruent,,,,,0,0,0,0,,,,,,,,,,,,,,,,,0,24,24,24,,,,,,,,,,,,,,,,,,,,,,,,,,,,,,,,,,,,,,,,,,,,,,,,,,,,,,,,,,,,,,,,,,,,,,,,,,,,,1.7623456716537476,0.8980097998864949,290.3648588000797,None,ScrollUp,정답입니다,290.3648588000797,None,290.3648588000797,None,290.3648588000797,None,290.3648588000797,None,291.15422839997336,None,291.15422839997336,291.6541995999869,,,,,,,,,,,,,,,,204,2023-03-28_15h17.26.135,FishGame,2022.1.1,59.86453852219558,
,26,넌 초조해,4,Green,A,2.916666666666667,3.133333333333333,ScrollDown,ScrollUp,Green.png,2,Negative,Incongruent,,,,,0,0,0,0,,,,,,,,,,,,,,,,,0,25,25,25,,,,,,,,,,,,,,,,,,,,,,,,,,,,,,,,,,,,,,,,,,,,,,,,,,,,,,,,,,,,,,,,,,,,,,,,,,,,,1.2253086417913437,0.8641804999206215,292.27830280014314,None,ScrollDown,정답입니다,292.27830280014314,None,292.27830280014314,None,292.27830280014314,None,292.27830280014314,None,293.034899600083,None,293.034899600083,293.53751079994254,,,,,,,,,,,,,,,,204,2023-03-28_15h17.26.135,FishGame,2022.1.1,59.86453852219558,
,27,넌 무관심해,4,Orange,B,2.833333333333333,2.9,ScrollUp,ScrollDown,Orange.png,2,Negative,Congruent,,,,,0,0,0,0,,,,,,,,,,,,,,,,,0,26,26,26,,,,,,,,,,,,,,,,,,,,,,,,,,,,,,,,,,,,,,,,,,,,,,,,,,,,,,,,,,,,,,,,,,,,,,,,,,,,,1.799382706483205,0.7808755000587553,294.1639807000756,None,ScrollUp,정답입니다,294.1639807000756,None,294.1639807000756,None,294.1639807000756,None,294.1639807000756,None,294.8348892000504,None,294.8348892000504,295.3375486000441,,,,,,,,,,,,,,,,204,2023-03-28_15h17.26.135,FishGame,2022.1.1,59.86453852219558,
,28,넌 감성적이야,3,Orange,B,4.125,4.166666666666667,ScrollUp,ScrollDown,Orange.png,2,Neutral,Neutral,,,,,0,0,0,0,,,,,,,,,,,,,,,,,0,27,27,27,,,,,,,,,,,,,,,,,,,,,,,,,,,,,,,,,,,,,,,,,,,,,,,,,,,,,,,,,,,,,,,,,,,,,,,,,,,,,1.7253086368242898,0.8331684998702258,295.96247990010306,None,ScrollUp,정답입니다,295.96247990010306,None,295.96247990010306,None,295.96247990010306,None,295.96247990010306,None,296.68750300002284,None,296.68750300002284,297.18751960014924,,,,,,,,,,,,,,,,204,2023-03-28_15h17.26.135,FishGame,2022.1.1,59.86453852219558,
,29,넌 배려심있어,1,Green,A,6.083333333333333,5.5,ScrollDown,ScrollUp,Green.png,2,Positive,Congruent,,,,,0,0,0,0,,,,,,,,,,,,,,,,,0,28,28,28,,,,,,,,,,,,,,,,,,,,,,,,,,,,,,,,,,,,,,,,,,,,,,,,,,,,,,,,,,,,,,,,,,,,,,,,,,,,,1.3132715995113053,0.9999480000697076,297.81282330001704,None,ScrollDown,정답입니다,297.81282330001704,None,297.81282330001704,None,297.81282330001704,None,297.81282330001704,None,298.7040643999353,None,298.7040643999353,299.20407470013015,,,,,,,,,,,,,,,,204,2023-03-28_15h17.26.135,FishGame,2022.1.1,59.86453852219558,
,30,넌 숨김없어,3,Green,A,4.5,4.933333333333334,ScrollDown,ScrollUp,Green.png,2,Neutral,Neutral,,,,,0,0,0,0,,,,,,,,,,,,,,,,,0,29,29,29,,,,,,,,,,,,,,,,,,,,,,,,,,,,,,,,,,,,,,,,,,,,,,,,,,,,,,,,,,,,,,,,,,,,,,,,,,,,,1.1450617164373398,0.8954732001293451,299.8305904001463,None,ScrollDown,정답입니다,299.8305904001463,None,299.8305904001463,None,299.8305904001463,None,299.8305904001463,None,300.61821480002254,None,300.61821480002254,301.1207443000749,,,,,,,,,,,,,,,,204,2023-03-28_15h17.26.135,FishGame,2022.1.1,59.86453852219558,
,31,넌 훌륭해,2,Orange,B,5.916666666666667,4.033333333333333,ScrollUp,ScrollDown,Orange.png,2,Positive,Incongruent,,,,,0,0,0,0,,,,,,,,,,,,,,,,,0,30,30,30,,,,,,,,,,,,,,,,,,,,,,,,,,,,,,,,,,,,,,,,,,,,,,,,,,,,,,,,,,,,,,,,,,,,,,,,,,,,,1.839506169160207,1.1176573000848293,301.74571930011734,None,ScrollUp,정답입니다,301.74571930011734,None,301.74571930011734,None,301.74571930011734,None,301.74571930011734,None,302.75405440013856,None,302.75405440013856,303.25405799993314,,,,,,,,,,,,,,,,204,2023-03-28_15h17.26.135,FishGame,2022.1.1,59.86453852219558,
,32,넌 슬기로워,2,Green,A,6.166666666666667,4.1,ScrollDown,ScrollUp,Green.png,2,Positive,Congruent,,,,,0,0,0,0,,,,,,,,,,,,,,,,,0,31,31,31,,,,,,,,,,,,,,,,,,,,,,,,,,,,,,,,,,,,,,,,,,,,,,,,,,,,,,,,,,,,,,,,,,,,,,,,,,,,,1.1635802586873372,1.3307009001728147,303.8781717000529,None,ScrollDown,정답입니다,303.8781717000529,None,303.8781717000529,None,303.8781717000529,None,303.8781717000529,None,305.10136550012976,None,305.10136550012976,305.6040066999849,,,,,,,,,,,,,,,,204,2023-03-28_15h17.26.135,FishGame,2022.1.1,59.86453852219558,
,33,넌 냉혹해,5,Green,A,2.583333333333333,2.1,ScrollDown,ScrollUp,Green.png,2,Negative,Incongruent,,,,,0,0,0,0,,,,,,,,,,,,,,,,,0,32,32,32,,,,,,,,,,,,,,,,,,,,,,,,,,,,,,,,,,,,,,,,,,,,,,,,,,,,,,,,,,,,,,,,,,,,,,,,,,,,,1.0925925920406978,0.8305869000032544,306.23644779995084,None,ScrollDown,정답입니다,306.23644779995084,None,306.23644779995084,None,306.23644779995084,None,306.23644779995084,None,306.9539411000442,None,306.9539411000442,307.4539056001231,,,,,,,,,,,,,,,,204,2023-03-28_15h17.26.135,FishGame,2022.1.1,59.86453852219558,
,34,나를 데려가줘,6,Orange,B,0,0,ScrollDown,ScrollUp,Orange.png,2,NonTarget,NonTarget,,,,,0,0,0,0,,,,,,,,,,,,,,,,,0,33,33,33,,,,,,,,,,,,,,,,,,,,,,,,,,,,,,,,,,,,,,,,,,,,,,,,,,,,,,,,,,,,,,,,,,,,,,,,,,,,,1.0817901194095612,0.9166941000148654,308.07878700015135,None,ScrollDown,정답입니다,308.07878700015135,None,308.07878700015135,None,308.07878700015135,None,308.07878700015135,None,308.88458100007847,None,308.88458100007847,309.3872563999612,,,,,,,,,,,,,,,,204,2023-03-28_15h17.26.135,FishGame,2022.1.1,59.86453852219558,
,35,넌 편파적이야,5,Orange,B,2.125,2,ScrollUp,ScrollDown,Orange.png,2,Negative,Congruent,,,,,0,0,0,0,,,,,,,,,,,,,,,,,0,34,34,34,,,,,,,,,,,,,,,,,,,,,,,,,,,,,,,,,,,,,,,,,,,,,,,,,,,,,,,,,,,,,,,,,,,,,,,,,,,,,1.8549382835626602,0.8290822000708431,310.01479750010185,None,ScrollUp,정답입니다,310.01479750010185,None,310.01479750010185,None,310.01479750010185,None,310.01479750010185,None,310.737307399977,None,310.737307399977,311.2372002999764,,,,,,,,,,,,,,,,204,2023-03-28_15h17.26.135,FishGame,2022.1.1,59.86453852219558,
,36,넌 슬퍼,4,Green,A,2.583333333333333,3.066666666666667,ScrollDown,ScrollUp,Green.png,2,Negative,Incongruent,,,,,0,0,0,0,,,,,,,,,,,,,,,,,0,35,35,35,,,,,,,,,,,,,,,,,,,,,,,,,,,,,,,,,,,,,,,,,,,,,,,,,,,,,,,,,,,,,,,,,,,,,,,,,,,,,1.2083333383003871,0.8667701999656856,311.859071200015,None,ScrollDown,정답입니다,311.859071200015,None,311.859071200015,None,311.859071200015,None,311.859071200015,None,312.6178705000784,None,312.6178705000784,313.1205482999794,,,,,,,,,,,,,,,,204,2023-03-28_15h17.26.135,FishGame,2022.1.1,59.86453852219558,
,37,나를 데려가줘,6,Orange,B,0,0,ScrollDown,ScrollUp,Orange.png,2,NonTarget,NonTarget,,,,,0,0,0,0,,,,,,,,,,,,,,,,,0,36,36,36,,,,,,,,,,,,,,,,,,,,,,,,,,,,,,,,,,,,,,,,,,,,,,,,,,,,,,,,,,,,,,,,,,,,,,,,,,,,,1.2237654278675716,0.9931155999656767,313.7472113999538,None,ScrollDown,정답입니다,313.7472113999538,None,313.7472113999538,None,313.7472113999538,None,313.7472113999538,None,314.63422170002013,None,314.63422170002013,315.13419110001996,,,,,,,,,,,,,,,,204,2023-03-28_15h17.26.135,FishGame,2022.1.1,59.86453852219558,
,38,넌 친절해,1,Orange,B,6.041666666666667,5.533333333333333,ScrollUp,ScrollDown,Orange.png,2,Positive,Incongruent,,,,,0,0,0,0,,,,,,,,,,,,,,,,,0,37,37,37,,,,,,,,,,,,,,,,,,,,,,,,,,,,,,,,,,,,,,,,,,,,,,,,,,,,,,,,,,,,,,,,,,,,,,,,,,,,,1.8950617214043934,0.9028489999473095,315.76228239992633,None,ScrollUp,정답입니다,315.76228239992633,None,315.76228239992633,None,315.76228239992633,None,315.76228239992633,None,316.5512351000216,None,316.5512351000216,317.0538310999982,,,,,,,,,,,,,,,,204,2023-03-28_15h17.26.135,FishGame,2022.1.1,59.86453852219558,
,1,넌 엉성해,4,Green,A,3,3.3,ScrollDown,ScrollUp,Green.png,3,Negative,Incongruent,,,,,0,0,0,0,,,,,,,,,,,,,,,,,,,,,0,0,0,0,,,,,,,,,,,,,,,,,,,,,,,,,,,,,,,,349.236486800015,350.7366329000797,350.7699573999271,351.72424110001884,351.75750500010327,352.7198582999408,352.7198582999408,None,,,,,,,,,,,,,,,,,,,,,,,,,,,,,,,,,,1.2515432039896646,0.9544475001748651,353.8289085000288,None,ScrollDown,정답입니다,353.8289085000288,None,353.8289085000288,None,353.8289085000288,None,353.8289085000288,None,354.6667011999525,None,354.6667011999525,355.1666985999327,317.55388329993,None,317.55388329993,None,0.08611111,-0.10462963,1,0,0,0.01624506013467908,None,347.5531186000444,None,,,204,2023-03-28_15h17.26.135,FishGame,2022.1.1,59.86453852219558,
,2,나를 보내줘,6,Green,A,0,0,ScrollUp,ScrollDown,Green.png,3,NonTarget,NonTarget,,,,,0,0,0,0,,,,,,,,,,,,,,,,,,,,,0,1,1,1,,,,,,,,,,,,,,,,,,,,,,,,,,,,,,,,,,,,,,,,,,,,,,,,,,,,,,,,,,,,,,,,,,,,,,,,,1.7376543233791986,0.9808154001366347,355.79036740004085,None,ScrollUp,정답입니다,355.79036740004085,None,355.79036740004085,None,355.79036740004085,None,355.79036740004085,None,356.66672260011546,None,356.66672260011546,357.16972430003807,,,,,,,,,,,,,,,,204,2023-03-28_15h17.26.135,FishGame,2022.1.1,59.86453852219558,
,3,넌 활발해,1,Orange,B,5.666666666666667,5.6,ScrollUp,ScrollDown,Orange.png,3,Positive,Incongruent,,,,,0,0,0,0,,,,,,,,,,,,,,,,,,,,,0,2,2,2,,,,,,,,,,,,,,,,,,,,,,,,,,,,,,,,,,,,,,,,,,,,,,,,,,,,,,,,,,,,,,,,,,,,,,,,,1.5864197500050068,0.7488571000285447,357.7975157001056,None,ScrollUp,정답입니다,357.7975157001056,None,357.7975157001056,None,357.7975157001056,None,357.7975157001056,None,358.4363406000193,None,358.4363406000193,358.9365715000313,,,,,,,,,,,,,,,,204,2023-03-28_15h17.26.135,FishGame,2022.1.1,59.86453852219558,
,4,넌 논리적이야,2,Green,A,5.666666666666666,4.633333333333334,ScrollDown,ScrollUp,Green.png,3,Positive,Congruent,,,,,0,0,0,0,,,,,,,,,,,,,,,,,,,,,0,3,3,3,,,,,,,,,,,,,,,,,,,,,,,,,,,,,,,,,,,,,,,,,,,,,,,,,,,,,,,,,,,,,,,,,,,,,,,,,1.3395061741272607,0.7980937999673188,359.56142050004564,None,ScrollDown,정답입니다,359.56142050004564,None,359.56142050004564,None,359.56142050004564,None,359.56142050004564,None,360.25016260007396,None,360.25016260007396,360.7528423999902,,,,,,,,,,,,,,,,204,2023-03-28_15h17.26.135,FishGame,2022.1.1,59.86453852219558,
,5,넌 과묵해,3,Green,A,3.875,4.4,ScrollDown,ScrollUp,Green.png,3,Neutral,Neutral,,,,,0,0,0,0,,,,,,,,,,,,,,,,,,,,,0,4,4,4,,,,,,,,,,,,,,,,,,,,,,,,,,,,,,,,,,,,,,,,,,,,,,,,,,,,,,,,,,,,,,,,,,,,,,,,,1.0648148159186046,0.8474636001046747,361.37744900002144,None,ScrollDown,정답입니다,361.37744900002144,None,361.37744900002144,None,361.37744900002144,None,361.37744900002144,None,362.1194760000799,None,362.1194760000799,362.6361382000614,,,,,,,,,,,,,,,,204,2023-03-28_15h17.26.135,FishGame,2022.1.1,59.86453852219558,
,6,나를 데려가줘,6,Orange,B,0,0,ScrollDown,ScrollUp,Orange.png,3,NonTarget,NonTarget,,,,,0,0,0,0,,,,,,,,,,,,,,,,,,,,,0,5,5,5,,,,,,,,,,,,,,,,,,,,,,,,,,,,,,,,,,,,,,,,,,,,,,,,,,,,,,,,,,,,,,,,,,,,,,,,,1.336419758697351,0.9308937999885529,363.2437213000376,None,ScrollDown,정답입니다,363.2437213000376,None,363.2437213000376,None,363.2437213000376,None,363.2437213000376,None,364.0694432000164,None,364.0694432000164,364.5863076001406,,,,,,,,,,,,,,,,204,2023-03-28_15h17.26.135,FishGame,2022.1.1,59.86453852219558,
,7,넌 미숙해,4,Orange,B,3,3,ScrollUp,ScrollDown,Orange.png,3,Negative,Congruent,,,,,0,0,0,0,,,,,,,,,,,,,,,,,,,,,0,6,6,6,,,,,,,,,,,,,,,,,,,,,,,,,,,,,,,,,,,,,,,,,,,,,,,,,,,,,,,,,,,,,,,,,,,,,,,,,1.654320982595285,0.8306982000358403,365.19754880014807,None,ScrollUp,정답입니다,365.19754880014807,None,365.19754880014807,None,365.19754880014807,None,365.19754880014807,None,365.9168040000368,None,365.9168040000368,366.41999550000764,,,,,,,,,,,,,,,,204,2023-03-28_15h17.26.135,FishGame,2022.1.1,59.86453852219558,
,8,나를 보내줘,6,Green,A,0,0,ScrollUp,ScrollDown,Green.png,3,NonTarget,NonTarget,,,,,0,0,0,0,,,,,,,,,,,,,,,,,,,,,0,7,7,7,,,,,,,,,,,,,,,,,,,,,,,,,,,,,,,,,,,,,,,,,,,,,,,,,,,,,,,,,,,,,,,,,,,,,,,,,1.7500000099341075,0.8952510999515653,367.0418648000341,None,ScrollUp,정답입니다,367.0418648000341,None,367.0418648000341,None,367.0418648000341,None,367.0418648000341,None,367.8331309999339,None,367.8331309999339,368.3330954001285,,,,,,,,,,,,,,,,204,2023-03-28_15h17.26.135,FishGame,2022.1.1,59.86453852219558,
,9,넌 자신만만해,3,Orange,B,4.833333333333334,4.333333333333333,ScrollUp,ScrollDown,Orange.png,3,Neutral,Neutral,,,,,0,0,0,0,,,,,,,,,,,,,,,,,,,,,0,8,8,8,,,,,,,,,,,,,,,,,,,,,,,,,,,,,,,,,,,,,,,,,,,,,,,,,,,,,,,,,,,,,,,,,,,,,,,,,1.9845678806304932,0.9117573001421988,368.9620954000857,None,ScrollUp,정답입니다,368.9620954000857,None,368.9620954000857,None,368.9620954000857,None,368.9620954000857,None,369.7664411999285,None,369.7664411999285,370.2694316999987,,,,,,,,,,,,,,,,204,2023-03-28_15h17.26.135,FishGame,2022.1.1,59.86453852219558,
,10,넌 탐욕스러워,5,Green,A,2.25,2.1,ScrollDown,ScrollUp,Green.png,3,Negative,Incongruent,,,,,0,0,0,0,,,,,,,,,,,,,,,,,,,,,0,9,9,9,,,,,,,,,,,,,,,,,,,,,,,,,,,,,,,,,,,,,,,,,,,,,,,,,,,,,,,,,,,,,,,,,,,,,,,,,1.1666666616996129,0.8835467998869717,370.8967643000651,None,ScrollDown,정답입니다,370.8967643000651,None,370.8967643000651,None,370.8967643000651,None,370.8967643000651,None,371.669469299959,None,371.669469299959,372.1694438001141,,,,,,,,,,,,,,,,204,2023-03-28_15h17.26.135,FishGame,2022.1.1,59.86453852219558,
,11,넌 인기있어,2,Green,A,5.458333333333333,4.5,ScrollDown,ScrollUp,Green.png,3,Positive,Congruent,,,,,0,0,0,0,,,,,,,,,,,,,,,,,,,,,0,10,10,10,,,,,,,,,,,,,,,,,,,,,,,,,,,,,,,,,,,,,,,,,,,,,,,,,,,,,,,,,,,,,,,,,,,,,,,,,1.2191358109315236,0.7640438000671566,372.79229180002585,None,ScrollDown,정답입니다,372.79229180002585,None,372.79229180002585,None,372.79229180002585,None,372.79229180002585,None,373.449942599982,None,373.449942599982,373.9525264999829,,,,,,,,,,,,,,,,204,2023-03-28_15h17.26.135,FishGame,2022.1.1,59.86453852219558,
,12,나를 데려가줘,6,Orange,B,0,0,ScrollDown,ScrollUp,Orange.png,3,NonTarget,NonTarget,,,,,0,0,0,0,,,,,,,,,,,,,,,,,,,,,0,11,11,11,,,,,,,,,,,,,,,,,,,,,,,,,,,,,,,,,,,,,,,,,,,,,,,,,,,,,,,,,,,,,,,,,,,,,,,,,1.3549382761120796,1.0480565000325441,374.5780834001489,None,ScrollDown,정답입니다,374.5780834001489,None,374.5780834001489,None,374.5780834001489,None,374.5780834001489,None,375.51653590006754,None,375.51653590006754,376.0165578001179,,,,,,,,,,,,,,,,204,2023-03-28_15h17.26.135,FishGame,2022.1.1,59.86453852219558,
,13,넌 뛰어나,2,Orange,B,6.166666666666667,4,ScrollUp,ScrollDown,Orange.png,3,Positive,Incongruent,,,,,0,0,0,0,,,,,,,,,,,,,,,,,,,,,0,12,12,12,,,,,,,,,,,,,,,,,,,,,,,,,,,,,,,,,,,,,,,,,,,,,,,,,,,,,,,,,,,,,,,,,,,,,,,,,1.8040123482545216,0.8000113999005407,376.6459135999903,None,ScrollUp,정답입니다,376.6459135999903,None,376.6459135999903,None,376.6459135999903,None,376.6459135999903,None,377.3359691000078,None,377.3359691000078,377.8331743001472,,,,,,,,,,,,,,,,204,2023-03-28_15h17.26.135,FishGame,2022.1.1,59.86453852219558,
,14,넌 낙관적이야,1,Green,A,5.75,5.8,ScrollDown,ScrollUp,Green.png,3,Positive,Congruent,,,,,0,0,0,0,,,,,,,,,,,,,,,,,,,,,0,13,13,13,,,,,,,,,,,,,,,,,,,,,,,,,,,,,,,,,,,,,,,,,,,,,,,,,,,,,,,,,,,,,,,,,,,,,,,,,1.2746913631757102,0.7814198001287878,378.4604969001375,None,ScrollDown,정답입니다,378.4604969001375,None,378.4604969001375,None,378.4604969001375,None,378.4604969001375,None,379.1331756999716,None,379.1331756999716,379.6359572999645,,,,,,,,,,,,,,,,204,2023-03-28_15h17.26.135,FishGame,2022.1.1,59.86453852219558,
,15,넌 산만해,4,Orange,B,2.695652173913043,3.033333333333333,ScrollUp,ScrollDown,Orange.png,3,Negative,Congruent,,,,,0,0,0,0,,,,,,,,,,,,,,,,,,,,,0,14,14,14,,,,,,,,,,,,,,,,,,,,,,,,,,,,,,,,,,,,,,,,,,,,,,,,,,,,,,,,,,,,,,,,,,,,,,,,,1.6959876591960588,1.0334630999714136,380.2622515000403,None,ScrollUp,정답입니다,380.2622515000403,None,380.2622515000403,None,380.2622515000403,None,380.2622515000403,None,381.1831583001185,None,381.1831583001185,381.6828179000877,,,,,,,,,,,,,,,,204,2023-03-28_15h17.26.135,FishGame,2022.1.1,59.86453852219558,
,16,나를 보내줘,6,Green,A,0,0,ScrollUp,ScrollDown,Green.png,3,NonTarget,NonTarget,,,,,0,0,0,0,,,,,,,,,,,,,,,,,,,,,0,15,15,15,,,,,,,,,,,,,,,,,,,,,,,,,,,,,,,,,,,,,,,,,,,,,,,,,,,,,,,,,,,,,,,,,,,,,,,,,1.7901234477758408,0.9789966999087483,382.30854290002026,None,ScrollUp,정답입니다,382.30854290002026,None,382.30854290002026,None,382.30854290002026,None,382.30854290002026,None,383.1827809000388,None,383.1827809000388,383.6828958000988,,,,,,,,,,,,,,,,204,2023-03-28_15h17.26.135,FishGame,2022.1.1,59.86453852219558,
,17,넌 교활해,5,Orange,B,2.333333333333333,2.133333333333333,ScrollUp,ScrollDown,Orange.png,3,Negative,Congruent,,,,,0,0,0,0,,,,,,,,,,,,,,,,,,,,,0,16,16,16,,,,,,,,,,,,,,,,,,,,,,,,,,,,,,,,,,,,,,,,,,,,,,,,,,,,,,,,,,,,,,,,,,,,,,,,,1.7530864129463832,1.0358815998770297,384.30950720002875,None,ScrollUp,정답입니다,384.30950720002875,None,384.30950720002875,None,384.30950720002875,None,384.30950720002875,None,385.2358270001132,None,385.2358270001132,385.7357570999302,,,,,,,,,,,,,,,,204,2023-03-28_15h17.26.135,FishGame,2022.1.1,59.86453852219558,
,18,나를 보내줘,6,Green,A,0,0,ScrollUp,ScrollDown,Green.png,3,NonTarget,NonTarget,,,,,0,0,0,0,,,,,,,,,,,,,,,,,,,,,0,17,17,17,,,,,,,,,,,,,,,,,,,,,,,,,,,,,,,,,,,,,,,,,,,,,,,,,,,,,,,,,,,,,,,,,,,,,,,,,1.8348765522241592,1.0404815000947565,386.35774819995277,None,ScrollUp,정답입니다,386.35774819995277,None,386.35774819995277,None,386.35774819995277,None,386.35774819995277,None,387.2829694999382,None,387.2829694999382,387.7856257001404,,,,,,,,,,,,,,,,204,2023-03-28_15h17.26.135,FishGame,2022.1.1,59.86453852219558,
,19,넌 불친절해,5,Orange,B,2.208333333333333,2.033333333333333,ScrollUp,ScrollDown,Orange.png,3,Negative,Congruent,,,,,0,0,0,0,,,,,,,,,,,,,,,,,,,,,0,18,18,18,,,,,,,,,,,,,,,,,,,,,,,,,,,,,,,,,,,,,,,,,,,,,,,,,,,,,,,,,,,,,,,,,,,,,,,,,1.5771604912976422,0.9808307001367211,388.4132324999664,None,ScrollUp,정답입니다,388.4132324999664,None,388.4132324999664,None,388.4132324999664,None,388.4132324999664,None,389.27180139999837,None,389.27180139999837,389.785551100038,,,,,,,,,,,,,,,,204,2023-03-28_15h17.26.135,FishGame,2022.1.1,59.86453852219558,
,20,넌 지적이야,2,Orange,B,5.75,4.366666666666666,ScrollUp,ScrollDown,Orange.png,3,Positive,Incongruent,,,,,0,0,0,0,,,,,,,,,,,,,,,,,,,,,0,19,19,19,,,,,,,,,,,,,,,,,,,,,,,,,,,,,,,,,,,,,,,,,,,,,,,,,,,,,,,,,,,,,,,,,,,,,,,,,1.7824074029922485,0.8501677999738604,390.4098251000978,None,ScrollUp,정답입니다,390.4098251000978,None,390.4098251000978,None,390.4098251000978,None,390.4098251000978,None,391.1495735999197,None,391.1495735999197,391.65224039996974,,,,,,,,,,,,,,,,204,2023-03-28_15h17.26.135,FishGame,2022.1.1,59.86453852219558,
,21,넌 우유부단해,4,Green,A,2.666666666666667,3.166666666666667,ScrollDown,ScrollUp,Green.png,3,Negative,Incongruent,,,,,0,0,0,0,,,,,,,,,,,,,,,,,,,,,0,20,20,20,,,,,,,,,,,,,,,,,,,,,,,,,,,,,,,,,,,,,,,,,,,,,,,,,,,,,,,,,,,,,,,,,,,,,,,,,1.253086417913437,0.8954968999605626,392.2783143001143,None,ScrollDown,정답입니다,392.2783143001143,None,392.2783143001143,None,392.2783143001143,None,392.2783143001143,None,393.0688182001468,None,393.0688182001468,393.5689046999905,,,,,,,,,,,,,,,,204,2023-03-28_15h17.26.135,FishGame,2022.1.1,59.86453852219558,
,22,나를 데려가줘,6,Orange,B,0,0,ScrollDown,ScrollUp,Orange.png,3,NonTarget,NonTarget,,,,,0,0,0,0,,,,,,,,,,,,,,,,,,,,,0,21,21,21,,,,,,,,,,,,,,,,,,,,,,,,,,,,,,,,,,,,,,,,,,,,,,,,,,,,,,,,,,,,,,,,,,,,,,,,,1.140432099501292,1.1835258998908103,394.19344850000925,None,ScrollDown,정답입니다,394.19344850000925,None,394.19344850000925,None,394.19344850000925,None,394.19344850000925,None,395.2689613001421,None,395.2689613001421,395.78253860003315,,,,,,,,,,,,,,,,204,2023-03-28_15h17.26.135,FishGame,2022.1.1,59.86453852219558,
,23,넌 성실해,1,Orange,B,6.041666666666666,5.7,ScrollUp,ScrollDown,Orange.png,3,Positive,Incongruent,,,,,0,0,0,0,,,,,,,,,,,,,,,,,,,,,0,22,22,22,,,,,,,,,,,,,,,,,,,,,,,,,,,,,,,,,,,,,,,,,,,,,,,,,,,,,,,,,,,,,,,,,,,,,,,,,1.8919753183921177,1.0498915000353009,396.4047536000144,None,ScrollUp,정답입니다,396.4047536000144,None,396.4047536000144,None,396.4047536000144,None,396.4047536000144,None,397.34916400001384,None,397.34916400001384,397.84918359993026,,,,,,,,,,,,,,,,204,2023-03-28_15h17.26.135,FishGame,2022.1.1,59.86453852219558,
,24,넌 현실주의적이야,3,Green,A,4.625,4.4,ScrollDown,ScrollUp,Green.png,3,Neutral,Neutral,,,,,0,0,0,0,,,,,,,,,,,,,,,,,,,,,0,23,23,23,,,,,,,,,,,,,,,,,,,,,,,,,,,,,,,,,,,,,,,,,,,,,,,,,,,,,,,,,,,,,,,,,,,,,,,,,1.266975318392118,0.9132350999861956,398.4717210000381,None,ScrollDown,정답입니다,398.4717210000381,None,398.4717210000381,None,398.4717210000381,None,398.4717210000381,None,399.2825357001275,None,399.2825357001275,399.7855052999221,,,,,,,,,,,,,,,,204,2023-03-28_15h17.26.135,FishGame,2022.1.1,59.86453852219558,
,25,넌 진실돼,1,Green,A,6.625,5.566666666666666,ScrollDown,ScrollUp,Green.png,3,Positive,Congruent,,,,,0,0,0,0,,,,,,,,,,,,,,,,,,,,,0,24,24,24,,,,,,,,,,,,,,,,,,,,,,,,,,,,,,,,,,,,,,,,,,,,,,,,,,,,,,,,,,,,,,,,,,,,,,,,,1.10030863682429,0.8500524999108166,400.41034940001555,None,ScrollDown,정답입니다,400.41034940001555,None,400.41034940001555,None,400.41034940001555,None,400.41034940001555,None,401.15224039996974,None,401.15224039996974,401.6521151000634,,,,,,,,,,,,,,,,204,2023-03-28_15h17.26.135,FishGame,2022.1.1,59.86453852219558,
,26,넌 천진난만해,3,Orange,B,4.958333333333334,4.833333333333333,ScrollUp,ScrollDown,Orange.png,3,Neutral,Neutral,,,,,0,0,0,0,,,,,,,,,,,,,,,,,,,,,0,25,25,25,,,,,,,,,,,,,,,,,,,,,,,,,,,,,,,,,,,,,,,,,,,,,,,,,,,,,,,,,,,,,,,,,,,,,,,,,1.8425925970077515,0.8952955000568181,402.2811340999324,None,ScrollUp,정답입니다,402.2811340999324,None,402.2811340999324,None,402.2811340999324,None,402.2811340999324,None,403.06867930013686,None,403.06867930013686,403.5686270000879,,,,,,,,,,,,,,,,204,2023-03-28_15h17.26.135,FishGame,2022.1.1,59.86453852219558,
,27,넌 교양없어,5,Green,A,2.416666666666667,2.2,ScrollDown,ScrollUp,Green.png,3,Negative,Incongruent,,,,,0,0,0,0,,,,,,,,,,,,,,,,,,,,,0,26,26,26,,,,,,,,,,,,,,,,,,,,,,,,,,,,,,,,,,,,,,,,,,,,,,,,,,,,,,,,,,,,,,,,,,,,,,,,,1.10030863682429,0.9001080999150872,404.19354140013456,None,ScrollDown,정답입니다,404.19354140013456,None,404.19354140013456,None,404.19354140013456,None,404.19354140013456,None,404.98261240008287,None,404.98261240008287,405.4852634000126,,,,,,,,,,,,,,,,204,2023-03-28_15h17.26.135,FishGame,2022.1.1,59.86453852219558,
,28,나를 보내줘,6,Green,A,0,0,ScrollUp,ScrollDown,Green.png,3,NonTarget,NonTarget,,,,,0,0,0,0,,,,,,,,,,,,,,,,,,,,,0,27,27,27,,,,,,,,,,,,,,,,,,,,,,,,,,,,,,,,,,,,,,,,,,,,,,,,,,,,,,,,,,,,,,,,,,,,,,,,,1.8240740795930226,0.9833593999501318,406.107284600148,None,ScrollUp,정답입니다,406.107284600148,None,406.107284600148,None,406.107284600148,None,406.107284600148,None,406.9852756001055,None,406.9852756001055,407.4852444001008,,,,,,,,,,,,,,,,204,2023-03-28_15h17.26.135,FishGame,2022.1.1,59.86453852219558,
,29,넌 엉뚱스러워,3,Green,A,4.166666666666667,4.133333333333334,ScrollDown,ScrollUp,Green.png,3,Neutral,Neutral,,,,,0,0,0,0,,,,,,,,,,,,,,,,,,,,,0,28,28,28,,,,,,,,,,,,,,,,,,,,,,,,,,,,,,,,,,,,,,,,,,,,,,,,,,,,,,,,,,,,,,,,,,,,,,,,,1.1635802586873372,1.0484112999401987,408.11029780004174,None,ScrollDown,정답입니다,408.11029780004174,None,408.11029780004174,None,408.11029780004174,None,408.11029780004174,None,409.04924720013514,None,409.04924720013514,409.551896299934,,,,,,,,,,,,,,,,204,2023-03-28_15h17.26.135,FishGame,2022.1.1,59.86453852219558,
,30,넌 무지해,4,Orange,B,2.541666666666667,3.066666666666667,ScrollUp,ScrollDown,Orange.png,3,Negative,Congruent,,,,,0,0,0,0,,,,,,,,,,,,,,,,,,,,,0,29,29,29,,,,,,,,,,,,,,,,,,,,,,,,,,,,,,,,,,,,,,,,,,,,,,,,,,,,,,,,,,,,,,,,,,,,,,,,,1.825617293516795,0.7970217999536544,410.17634900007397,None,ScrollUp,정답입니다,410.17634900007397,None,410.17634900007397,None,410.17634900007397,None,410.17634900007397,None,410.8655723000411,None,410.8655723000411,411.3656918001361,,,,,,,,,,,,,,,,204,2023-03-28_15h17.26.135,FishGame,2022.1.1,59.86453852219558,
,31,넌 음울해,5,Orange,B,2.25,2.233333333333333,ScrollUp,ScrollDown,Orange.png,3,Negative,Congruent,,,,,0,0,0,0,,,,,,,,,,,,,,,,,,,,,0,30,30,30,,,,,,,,,,,,,,,,,,,,,,,,,,,,,,,,,,,,,,,,,,,,,,,,,,,,,,,,,,,,,,,,,,,,,,,,,1.9444444676240284,0.8813086999580264,411.9916628000792,None,ScrollUp,정답입니다,411.9916628000792,None,411.9916628000792,None,411.9916628000792,None,411.9916628000792,None,412.7655732999556,None,412.7655732999556,413.2685468001291,,,,,,,,,,,,,,,,204,2023-03-28_15h17.26.135,FishGame,2022.1.1,59.86453852219558,
,32,넌 냉소적이야,5,Green,A,2.916666666666667,2.4,ScrollDown,ScrollUp,Green.png,3,Negative,Incongruent,,,,,0,0,0,0,,,,,,,,,,,,,,,,,,,,,0,31,31,31,,,,,,,,,,,,,,,,,,,,,,,,,,,,,,,,,,,,,,,,,,,,,,,,,,,,,,,,,,,,,,,,,,,,,,,,,1.120370368162791,1.0167455000337213,413.89107679994777,None,ScrollDown,정답입니다,413.89107679994777,None,413.89107679994777,None,413.89107679994777,None,413.89107679994777,None,414.8018579999916,None,414.8018579999916,415.30184109997936,,,,,,,,,,,,,,,,204,2023-03-28_15h17.26.135,FishGame,2022.1.1,59.86453852219558,
,33,나를 데려가줘,6,Orange,B,0,0,ScrollDown,ScrollUp,Orange.png,3,NonTarget,NonTarget,,,,,0,0,0,0,,,,,,,,,,,,,,,,,,,,,0,32,32,32,,,,,,,,,,,,,,,,,,,,,,,,,,,,,,,,,,,,,,,,,,,,,,,,,,,,,,,,,,,,,,,,,,,,,,,,,1.28703702489535,1.0166642998810858,415.9268917001318,None,ScrollDown,정답입니다,415.9268917001318,None,415.9268917001318,None,415.9268917001318,None,415.9268917001318,None,416.8324210001156,None,416.8324210001156,417.3350001000799,,,,,,,,,,,,,,,,204,2023-03-28_15h17.26.135,FishGame,2022.1.1,59.86453852219558,
,34,넌 쾌활해,1,Green,A,5.541666666666666,5.733333333333333,ScrollDown,ScrollUp,Green.png,3,Positive,Congruent,,,,,0,0,0,0,,,,,,,,,,,,,,,,,,,,,0,33,33,33,,,,,,,,,,,,,,,,,,,,,,,,,,,,,,,,,,,,,,,,,,,,,,,,,,,,,,,,,,,,,,,,,,,,,,,,,1.1234567960103352,0.9815787000115961,417.9590314999223,None,ScrollDown,정답입니다,417.9590314999223,None,417.9590314999223,None,417.9590314999223,None,417.9590314999223,None,418.83233659993857,None,418.83233659993857,419.3349787001498,,,,,,,,,,,,,,,,204,2023-03-28_15h17.26.135,FishGame,2022.1.1,59.86453852219558,
,35,나를 보내줘,6,Green,A,0,0,ScrollUp,ScrollDown,Green.png,3,NonTarget,NonTarget,,,,,0,0,0,0,,,,,,,,,,,,,,,,,,,,,0,34,34,34,,,,,,,,,,,,,,,,,,,,,,,,,,,,,,,,,,,,,,,,,,,,,,,,,,,,,,,,,,,,,,,,,,,,,,,,,1.9367283980051677,0.9500160999596119,419.9567317001056,None,ScrollUp,정답입니다,419.9567317001056,None,419.9567317001056,None,419.9567317001056,None,419.9567317001056,None,420.7989934999496,None,420.7989934999496,421.30165560008027,,,,,,,,,,,,,,,,204,2023-03-28_15h17.26.135,FishGame,2022.1.1,59.86453852219558,
,36,넌 명랑해,1,Orange,B,5.739130434782609,5.666666666666667,ScrollUp,ScrollDown,Orange.png,3,Positive,Incongruent,,,,,0,0,0,0,,,,,,,,,,,,,,,,,,,,,0,35,35,35,,,,,,,,,,,,,,,,,,,,,,,,,,,,,,,,,,,,,,,,,,,,,,,,,,,,,,,,,,,,,,,,,,,,,,,,,1.8611111144224803,0.8812440000474453,421.92866520001553,None,ScrollUp,정답입니다,421.92866520001553,None,421.92866520001553,None,421.92866520001553,None,421.92866520001553,None,422.7015269000549,None,422.7015269000549,423.20156479999423,,,,,,,,,,,,,,,,204,2023-03-28_15h17.26.135,FishGame,2022.1.1,59.86453852219558,
,37,넌 멍해,4,Green,A,2.833333333333333,3.4,ScrollDown,ScrollUp,Green.png,3,Negative,Incongruent,,,,,0,0,0,0,,,,,,,,,,,,,,,,,,,,,0,36,36,36,,,,,,,,,,,,,,,,,,,,,,,,,,,,,,,,,,,,,,,,,,,,,,,,,,,,,,,,,,,,,,,,,,,,,,,,,1.1589506169160206,0.9662218000739813,423.82572470000014,None,ScrollDown,정답입니다,423.82572470000014,None,423.82572470000014,None,423.82572470000014,None,423.82572470000014,None,424.6848536999896,None,424.6848536999896,425.1848510999698,,,,,,,,,,,,,,,,204,2023-03-28_15h17.26.135,FishGame,2022.1.1,59.86453852219558,
,38,나를 데려가줘,6,Orange,B,0,0,ScrollDown,ScrollUp,Orange.png,3,NonTarget,NonTarget,,,,,0,0,0,0,,,,,,,,,,,,,,,,,,,,,0,37,37,37,,,,,,,,,,,,,,,,,,,,,,,,,,,,,,,,,,,,,,,,,,,,,,,,,,,,,,,,,,,,,,,,,,,,,,,,,1.1172839403152466,0.931041199946776,425.809221399948,None,ScrollDown,정답입니다,425.809221399948,None,425.809221399948,None,425.809221399948,None,425.809221399948,None,426.632183900103,None,426.632183900103,427.13480610004626,,,,,,,,,,,,,,,,204,2023-03-28_15h17.26.135,FishGame,2022.1.1,59.86453852219558,
,39,넌 현명해,2,Green,A,6.541666666666666,4.533333333333333,ScrollDown,ScrollUp,Green.png,3,Positive,Congruent,,,,,0,0,0,0,,,,,,,,,,,,,,,,,,,,,0,38,38,38,,,,,,,,,,,,,,,,,,,,,,,,,,,,,,,,,,,,,,,,,,,,,,,,,,,,,,,,,,,,,,,,,,,,,,,,,1.1728395173947017,0.8333442998118699,427.75670580007136,None,ScrollDown,정답입니다,427.75670580007136,None,427.75670580007136,None,427.75670580007136,None,427.75670580007136,None,428.4821675000712,None,428.4821675000712,428.98480800003745,,,,,,,,,,,,,,,,204,2023-03-28_15h17.26.135,FishGame,2022.1.1,59.86453852219558,
,40,넌 수줍어,3,Orange,B,3.541666666666666,4.366666666666666,ScrollUp,ScrollDown,Orange.png,3,Neutral,Neutral,,,,,0,0,0,0,,,,,,,,,,,,,,,,,,,,,0,39,39,39,,,,,,,,,,,,,,,,,,,,,,,,,,,,,,,,,,,,,,,,,,,,,,,,,,,,,,,,,,,,,,,,,,,,,,,,,1.9429012537002563,0.8972054999321699,429.62474090000615,None,ScrollUp,정답입니다,429.62474090000615,None,429.62474090000615,None,429.62474090000615,None,429.62474090000615,None,430.4013841000851,None,430.4013841000851,430.90138690010644,,,,,,,,,,,,,,,,204,2023-03-28_15h17.26.135,FishGame,2022.1.1,59.86453852219558,
,41,나를 데려가줘,6,Orange,B,0,0,ScrollDown,ScrollUp,Orange.png,3,NonTarget,NonTarget,,,,,0,0,0,0,,,,,,,,,,,,,,,,,,,,,0,40,40,40,,,,,,,,,,,,,,,,,,,,,,,,,,,,,,,,,,,,,,,,,,,,,,,,,,,,,,,,,,,,,,,,,,,,,,,,,1.174382706483205,0.9140978001523763,431.5272522000596,None,ScrollDown,정답입니다,431.5272522000596,None,431.5272522000596,None,431.5272522000596,None,431.5272522000596,None,432.3346319999546,None,432.3346319999546,432.83468830003403,,,,,,,,,,,,,,,,204,2023-03-28_15h17.26.135,FishGame,2022.1.1,59.86453852219558,
,42,넌 성숙해,2,Orange,B,5.833333333333333,4.533333333333333,ScrollUp,ScrollDown,Orange.png,3,Positive,Incongruent,,,,,0,0,0,0,,,,,,,,,,,,,,,,,,,,,0,41,41,41,,,,,,,,,,,,,,,,,,,,,,,,,,,,,,,,,,,,,,,,,,,,,,,,,,,,,,,,,,,,,,,,,,,,,,,,,1.7962963034709294,0.829105099895969,433.45913069997914,None,ScrollUp,정답입니다,433.45913069997914,None,433.45913069997914,None,433.45913069997914,None,433.45913069997914,None,434.18460309994407,None,434.18460309994407,434.6846430001315,,,,,,,,,,,,,,,,204,2023-03-28_15h17.26.135,FishGame,2022.1.1,59.86453852219558,
,1,넌 매력적이야,2,Orange,B,6.125,4.666666666666667,ScrollUp,ScrollDown,Orange.png,4,Positive,Incongruent,,,,,0,0,0,0,,,,,,,,,,,,,,,,,,,,,,,,,0,0,0,0,,,,,,,,,,,,,,,,,,,,,,,,,,,,466.8507455000654,468.3550752000883,468.3647181999404,469.3174183999654,469.38409850001335,470.3341411999427,470.3341411999427,None,,,,,,,,,,,,,,,,,,,,,,,,,,,,,,,,,,1.873456800977389,1.0614887999836355,471.4462272999808,None,ScrollUp,정답입니다,471.4462272999808,None,471.4462272999808,None,471.4462272999808,None,471.4462272999808,None,472.38394640013576,None,472.38394640013576,472.88389230007306,435.2013378001284,None,435.2013378001284,None,0.13703704,-0.08148148,1,0,0,0.016227760119363666,None,465.1978354000021,None,,,204,2023-03-28_15h17.26.135,FishGame,2022.1.1,59.86453852219558,
,2,나를 보내줘,6,Green,A,0,0,ScrollUp,ScrollDown,Green.png,4,NonTarget,NonTarget,,,,,0,0,0,0,,,,,,,,,,,,,,,,,,,,,,,,,0,1,1,1,,,,,,,,,,,,,,,,,,,,,,,,,,,,,,,,,,,,,,,,,,,,,,,,,,,,,,,,,,,,,,,,,,,,,1.9444444676240284,0.9812835000921041,473.5062351000961,None,ScrollUp,정답입니다,473.5062351000961,None,473.5062351000961,None,473.5062351000961,None,473.5062351000961,None,474.38123199995607,None,474.38123199995607,474.88386619999073,,,,,,,,,,,,,,,,204,2023-03-28_15h17.26.135,FishGame,2022.1.1,59.86453852219558,
,3,넌 조심스러워,3,Green,A,4.791666666666666,4.666666666666667,ScrollDown,ScrollUp,Green.png,4,Neutral,Neutral,,,,,0,0,0,0,,,,,,,,,,,,,,,,,,,,,,,,,0,2,2,2,,,,,,,,,,,,,,,,,,,,,,,,,,,,,,,,,,,,,,,,,,,,,,,,,,,,,,,,,,,,,,,,,,,,,1.0925925920406978,0.7971879998221993,475.5069125001319,None,ScrollDown,정답입니다,475.5069125001319,None,475.5069125001319,None,475.5069125001319,None,475.5069125001319,None,476.19754060008563,None,476.19754060008563,476.697541099973,,,,,,,,,,,,,,,,204,2023-03-28_15h17.26.135,FishGame,2022.1.1,59.86453852219558,
,4,넌 철학적이야,3,Orange,B,4.5,4.266666666666667,ScrollUp,ScrollDown,Orange.png,4,Neutral,Neutral,,,,,0,0,0,0,,,,,,,,,,,,,,,,,,,,,,,,,0,3,3,3,,,,,,,,,,,,,,,,,,,,,,,,,,,,,,,,,,,,,,,,,,,,,,,,,,,,,,,,,,,,,,,,,,,,,1.9305555423100789,0.7330624999012798,477.3257985000964,None,ScrollUp,정답입니다,477.3257985000964,None,477.3257985000964,None,477.3257985000964,None,477.3257985000964,None,477.9475797000341,None,477.9475797000341,478.44757029996254,,,,,,,,,,,,,,,,204,2023-03-28_15h17.26.135,FishGame,2022.1.1,59.86453852219558,
,5,넌 쩨쩨해,5,Green,A,2.375,2.133333333333333,ScrollDown,ScrollUp,Green.png,4,Negative,Incongruent,,,,,0,0,0,0,,,,,,,,,,,,,,,,,,,,,,,,,0,4,4,4,,,,,,,,,,,,,,,,,,,,,,,,,,,,,,,,,,,,,,,,,,,,,,,,,,,,,,,,,,,,,,,,,,,,,1.1033950646718342,0.8836970999836922,479.0753858999815,None,ScrollDown,정답입니다,479.0753858999815,None,479.0753858999815,None,479.0753858999815,None,479.0753858999815,None,479.85055490001105,None,479.85055490001105,480.35047630011104,,,,,,,,,,,,,,,,204,2023-03-28_15h17.26.135,FishGame,2022.1.1,59.86453852219558,
,6,나를 데려가줘,6,Orange,B,0,0,ScrollDown,ScrollUp,Orange.png,4,NonTarget,NonTarget,,,,,0,0,0,0,,,,,,,,,,,,,,,,,,,,,,,,,0,5,5,5,,,,,,,,,,,,,,,,,,,,,,,,,,,,,,,,,,,,,,,,,,,,,,,,,,,,,,,,,,,,,,,,,,,,,1.0416666567325592,0.9479696000926197,480.97552700014785,None,ScrollDown,정답입니다,480.97552700014785,None,480.97552700014785,None,480.97552700014785,None,480.97552700014785,None,481.81436450011097,None,481.81436450011097,482.31702610012144,,,,,,,,,,,,,,,,204,2023-03-28_15h17.26.135,FishGame,2022.1.1,59.86453852219558,
,7,넌 고집불통이야,5,Orange,B,2.875,2,ScrollUp,ScrollDown,Orange.png,4,Negative,Congruent,,,,,0,0,0,0,,,,,,,,,,,,,,,,,,,,,,,,,0,6,6,6,,,,,,,,,,,,,,,,,,,,,,,,,,,,,,,,,,,,,,,,,,,,,,,,,,,,,,,,,,,,,,,,,,,,,2,0.8314751000143588,482.94502669991925,None,ScrollUp,정답입니다,482.94502669991925,None,482.94502669991925,None,482.94502669991925,None,482.94502669991925,None,483.66695030010305,None,483.66695030010305,484.18366400012746,,,,,,,,,,,,,,,,204,2023-03-28_15h17.26.135,FishGame,2022.1.1,59.86453852219558,
,8,넌 무심해,4,Green,A,2.875,3.2,ScrollDown,ScrollUp,Green.png,4,Negative,Incongruent,,,,,0,0,0,0,,,,,,,,,,,,,,,,,,,,,,,,,0,7,7,7,,,,,,,,,,,,,,,,,,,,,,,,,,,,,,,,,,,,,,,,,,,,,,,,,,,,,,,,,,,,,,,,,,,,,1.0787036915620167,0.8344664999749511,484.802768799942,None,ScrollDown,정답입니다,484.802768799942,None,484.802768799942,None,484.802768799942,None,484.802768799942,None,485.5336662000045,None,485.5336662000045,486.0336223000195,,,,,,,,,,,,,,,,204,2023-03-28_15h17.26.135,FishGame,2022.1.1,59.86453852219558,
,9,넌 정겨워,1,Green,A,5.791666666666667,5.666666666666667,ScrollDown,ScrollUp,Green.png,4,Positive,Congruent,,,,,0,0,0,0,,,,,,,,,,,,,,,,,,,,,,,,,0,8,8,8,,,,,,,,,,,,,,,,,,,,,,,,,,,,,,,,,,,,,,,,,,,,,,,,,,,,,,,,,,,,,,,,,,,,,1.120370368162791,0.866753299953416,486.6754715000279,None,ScrollDown,정답입니다,486.6754715000279,None,486.6754715000279,None,486.6754715000279,None,486.6754715000279,None,487.4309680000879,None,487.4309680000879,487.9336018001195,,,,,,,,,,,,,,,,204,2023-03-28_15h17.26.135,FishGame,2022.1.1,59.86453852219558,
,10,나를 데려가줘,6,Orange,B,0,0,ScrollDown,ScrollUp,Orange.png,4,NonTarget,NonTarget,,,,,0,0,0,0,,,,,,,,,,,,,,,,,,,,,,,,,0,9,9,9,,,,,,,,,,,,,,,,,,,,,,,,,,,,,,,,,,,,,,,,,,,,,,,,,,,,,,,,,,,,,,,,,,,,,1.3719135796030364,0.9813678001519293,488.55850000004284,None,ScrollDown,정답입니다,488.55850000004284,None,488.55850000004284,None,488.55850000004284,None,488.55850000004284,None,489.43085120012984,None,489.43085120012984,489.9335050000809,,,,,,,,,,,,,,,,204,2023-03-28_15h17.26.135,FishGame,2022.1.1,59.86453852219558,
,11,넌 체제순응적이야,4,Orange,B,3,3.6,ScrollUp,ScrollDown,Orange.png,4,Negative,Congruent,,,,,0,0,0,0,,,,,,,,,,,,,,,,,,,,,,,,,0,10,10,10,,,,,,,,,,,,,,,,,,,,,,,,,,,,,,,,,,,,,,,,,,,,,,,,,,,,,,,,,,,,,,,,,,,,,1.9953703780968983,0.9481240999884903,490.5641568999272,None,ScrollUp,정답입니다,490.5641568999272,None,490.5641568999272,None,490.5641568999272,None,490.5641568999272,None,491.3975053001195,None,491.3975053001195,491.90012200013734,,,,,,,,,,,,,,,,204,2023-03-28_15h17.26.135,FishGame,2022.1.1,59.86453852219558,
,12,나를 보내줘,6,Green,A,0,0,ScrollUp,ScrollDown,Green.png,4,NonTarget,NonTarget,,,,,0,0,0,0,,,,,,,,,,,,,,,,,,,,,,,,,0,11,11,11,,,,,,,,,,,,,,,,,,,,,,,,,,,,,,,,,,,,,,,,,,,,,,,,,,,,,,,,,,,,,,,,,,,,,1.9259259502092998,1.0801884999964386,492.5226917001419,None,ScrollUp,정답입니다,492.5226917001419,None,492.5226917001419,None,492.5226917001419,None,492.5226917001419,None,493.5003414999228,None,493.5003414999228,494.0001395000145,,,,,,,,,,,,,,,,204,2023-03-28_15h17.26.135,FishGame,2022.1.1,59.86453852219558,
,13,넌 박식해,2,Green,A,5.625,3.933333333333333,ScrollDown,ScrollUp,Green.png,4,Positive,Congruent,,,,,0,0,0,0,,,,,,,,,,,,,,,,,,,,,,,,,0,12,12,12,,,,,,,,,,,,,,,,,,,,,,,,,,,,,,,,,,,,,,,,,,,,,,,,,,,,,,,,,,,,,,,,,,,,,1.1712963034709294,0.7498377999290824,494.62602209998295,None,ScrollDown,정답입니다,494.62602209998295,None,494.62602209998295,None,494.62602209998295,None,494.62602209998295,None,495.26678059995174,None,495.26678059995174,495.7667906000279,,,,,,,,,,,,,,,,204,2023-03-28_15h17.26.135,FishGame,2022.1.1,59.86453852219558,
,14,나를 보내줘,6,Green,A,0,0,ScrollUp,ScrollDown,Green.png,4,NonTarget,NonTarget,,,,,0,0,0,0,,,,,,,,,,,,,,,,,,,,,,,,,0,13,13,13,,,,,,,,,,,,,,,,,,,,,,,,,,,,,,,,,,,,,,,,,,,,,,,,,,,,,,,,,,,,,,,,,,,,,1.9475308458010356,0.9096649000421166,496.3934377999976,None,ScrollUp,정답입니다,496.3934377999976,None,496.3934377999976,None,496.3934377999976,None,496.3934377999976,None,497.2000643000938,None,497.2000643000938,497.70014930004254,,,,,,,,,,,,,,,,204,2023-03-28_15h17.26.135,FishGame,2022.1.1,59.86453852219558,
,15,넌 침착해,1,Orange,B,5.458333333333333,5.566666666666666,ScrollUp,ScrollDown,Orange.png,4,Positive,Incongruent,,,,,0,0,0,0,,,,,,,,,,,,,,,,,,,,,,,,,0,14,14,14,,,,,,,,,,,,,,,,,,,,,,,,,,,,,,,,,,,,,,,,,,,,,,,,,,,,,,,,,,,,,,,,,,,,,2,0.926305300090462,498.33913550013676,None,ScrollUp,정답입니다,498.33913550013676,None,498.33913550013676,None,498.33913550013676,None,498.33913550013676,None,499.1470813001506,None,499.1470813001506,499.64714789995924,,,,,,,,,,,,,,,,204,2023-03-28_15h17.26.135,FishGame,2022.1.1,59.86453852219558,
,16,나를 데려가줘,6,Orange,B,0,0,ScrollDown,ScrollUp,Orange.png,4,NonTarget,NonTarget,,,,,0,0,0,0,,,,,,,,,,,,,,,,,,,,,,,,,0,15,15,15,,,,,,,,,,,,,,,,,,,,,,,,,,,,,,,,,,,,,,,,,,,,,,,,,,,,,,,,,,,,,,,,,,,,,1,0.9140419000759721,500.27433459996246,None,ScrollDown,정답입니다,500.27433459996246,None,500.27433459996246,None,500.27433459996246,None,500.27433459996246,None,501.0804330999963,None,501.0804330999963,501.58340699994005,,,,,,,,,,,,,,,,204,2023-03-28_15h17.26.135,FishGame,2022.1.1,59.86453852219558,
,17,넌 행복해,1,Green,A,6.416666666666666,6.166666666666667,ScrollDown,ScrollUp,Green.png,4,Positive,Congruent,,,,,0,0,0,0,,,,,,,,,,,,,,,,,,,,,,,,,0,16,16,16,,,,,,,,,,,,,,,,,,,,,,,,,,,,,,,,,,,,,,,,,,,,,,,,,,,,,,,,,,,,,,,,,,,,,1.1790123482545216,0.8999482002109289,502.2091974001378,None,ScrollDown,정답입니다,502.2091974001378,None,502.2091974001378,None,502.2091974001378,None,502.2091974001378,None,502.9973579000216,None,502.9973579000216,503.49997350014746,,,,,,,,,,,,,,,,204,2023-03-28_15h17.26.135,FishGame,2022.1.1,59.86453852219558,
,18,넌 겸손해,2,Orange,B,5.791666666666667,4.766666666666667,ScrollUp,ScrollDown,Orange.png,4,Positive,Incongruent,,,,,0,0,0,0,,,,,,,,,,,,,,,,,,,,,,,,,0,17,17,17,,,,,,,,,,,,,,,,,,,,,,,,,,,,,,,,,,,,,,,,,,,,,,,,,,,,,,,,,,,,,,,,,,,,,2,0.9120588998775929,504.1281588000711,None,ScrollUp,정답입니다,504.1281588000711,None,504.1281588000711,None,504.1281588000711,None,504.1281588000711,None,504.93319749995135,None,504.93319749995135,505.43315539998,,,,,,,,,,,,,,,,204,2023-03-28_15h17.26.135,FishGame,2022.1.1,59.86453852219558,
,19,나를 보내줘,6,Green,A,0,0,ScrollUp,ScrollDown,Green.png,4,NonTarget,NonTarget,,,,,0,0,0,0,,,,,,,,,,,,,,,,,,,,,,,,,0,18,18,18,,,,,,,,,,,,,,,,,,,,,,,,,,,,,,,,,,,,,,,,,,,,,,,,,,,,,,,,,,,,,,,,,,,,,1.9922839502493541,1.0488159998785704,506.05609700013883,None,ScrollUp,정답입니다,506.05609700013883,None,506.05609700013883,None,506.05609700013883,None,506.05609700013883,None,506.9998451001011,None,506.9998451001011,507.4998081000522,,,,,,,,,,,,,,,,204,2023-03-28_15h17.26.135,FishGame,2022.1.1,59.86453852219558,
,20,넌 의심없어,3,Green,A,4.166666666666667,4.6,ScrollDown,ScrollUp,Green.png,4,Neutral,Neutral,,,,,0,0,0,0,,,,,,,,,,,,,,,,,,,,,,,,,0,19,19,19,,,,,,,,,,,,,,,,,,,,,,,,,,,,,,,,,,,,,,,,,,,,,,,,,,,,,,,,,,,,,,,,,,,,,1.0077160497506459,0.8334398998413235,508.1218008999713,None,ScrollDown,정답입니다,508.1218008999713,None,508.1218008999713,None,508.1218008999713,None,508.1218008999713,None,508.85002820007503,None,508.85002820007503,509.34981440007687,,,,,,,,,,,,,,,,204,2023-03-28_15h17.26.135,FishGame,2022.1.1,59.86453852219558,
,21,넌 시시해,4,Green,A,2.666666666666667,2.966666666666667,ScrollDown,ScrollUp,Green.png,4,Negative,Incongruent,,,,,0,0,0,0,,,,,,,,,,,,,,,,,,,,,,,,,0,20,20,20,,,,,,,,,,,,,,,,,,,,,,,,,,,,,,,,,,,,,,,,,,,,,,,,,,,,,,,,,,,,,,,,,,,,,1,0.9165657998528332,509.9717850999441,None,ScrollDown,정답입니다,509.9717850999441,None,509.9717850999441,None,509.9717850999441,None,509.9717850999441,None,510.78051279997453,None,510.78051279997453,511.28324080002494,,,,,,,,,,,,,,,,204,2023-03-28_15h17.26.135,FishGame,2022.1.1,59.86453852219558,
,22,나를 데려가줘,6,Orange,B,0,0,ScrollDown,ScrollUp,Orange.png,4,NonTarget,NonTarget,,,,,0,0,0,0,,,,,,,,,,,,,,,,,,,,,,,,,0,21,21,21,,,,,,,,,,,,,,,,,,,,,,,,,,,,,,,,,,,,,,,,,,,,,,,,,,,,,,,,,,,,,,,,,,,,,1.0679012437661488,0.9833243999164551,511.9027357001323,None,ScrollDown,정답입니다,511.9027357001323,None,511.9027357001323,None,511.9027357001323,None,511.9027357001323,None,512.7801485999953,None,512.7801485999953,513.2801143999677,,,,,,,,,,,,,,,,204,2023-03-28_15h17.26.135,FishGame,2022.1.1,59.86453852219558,
,23,넌 무정해,5,Green,A,2.5,2.2,ScrollDown,ScrollUp,Green.png,4,Negative,Incongruent,,,,,0,0,0,0,,,,,,,,,,,,,,,,,,,,,,,,,0,22,22,22,,,,,,,,,,,,,,,,,,,,,,,,,,,,,,,,,,,,,,,,,,,,,,,,,,,,,,,,,,,,,,,,,,,,,1.214506169160207,0.7815880000125617,513.9072646000423,None,ScrollDown,정답입니다,513.9072646000423,None,513.9072646000423,None,513.9072646000423,None,513.9072646000423,None,514.5832577999681,None,514.5832577999681,515.0831021999475,,,,,,,,,,,,,,,,204,2023-03-28_15h17.26.135,FishGame,2022.1.1,59.86453852219558,
,24,넌 긍정적이야,1,Orange,B,6.041666666666667,6.066666666666666,ScrollUp,ScrollDown,Orange.png,4,Positive,Incongruent,,,,,0,0,0,0,,,,,,,,,,,,,,,,,,,,,,,,,0,23,23,23,,,,,,,,,,,,,,,,,,,,,,,,,,,,,,,,,,,,,,,,,,,,,,,,,,,,,,,,,,,,,,,,,,,,,2,0.8815046998206526,515.7113310000859,None,ScrollUp,정답입니다,515.7113310000859,None,515.7113310000859,None,515.7113310000859,None,515.7113310000859,None,516.4830418000929,None,516.4830418000929,516.9830863000825,,,,,,,,,,,,,,,,204,2023-03-28_15h17.26.135,FishGame,2022.1.1,59.86453852219558,
,25,나를 보내줘,6,Green,A,0,0,ScrollUp,ScrollDown,Green.png,4,NonTarget,NonTarget,,,,,0,0,0,0,,,,,,,,,,,,,,,,,,,,,,,,,0,24,24,24,,,,,,,,,,,,,,,,,,,,,,,,,,,,,,,,,,,,,,,,,,,,,,,,,,,,,,,,,,,,,,,,,,,,,2,1.0786043000407517,517.6095911001321,None,ScrollUp,정답입니다,517.6095911001321,None,517.6095911001321,None,517.6095911001321,None,517.6095911001321,None,518.5800173999742,None,518.5800173999742,519.0799972000532,,,,,,,,,,,,,,,,204,2023-03-28_15h17.26.135,FishGame,2022.1.1,59.86453852219558,
,26,넌 시기심이 많아,5,Orange,B,2.458333333333333,2.233333333333333,ScrollUp,ScrollDown,Orange.png,4,Negative,Congruent,,,,,0,0,0,0,,,,,,,,,,,,,,,,,,,,,,,,,0,25,25,25,,,,,,,,,,,,,,,,,,,,,,,,,,,,,,,,,,,,,,,,,,,,,,,,,,,,,,,,,,,,,,,,,,,,,2,1.0351011999882758,519.7103822999634,None,ScrollUp,정답입니다,519.7103822999634,None,519.7103822999634,None,519.7103822999634,None,519.7103822999634,None,520.6329767000861,None,520.6329767000861,521.1329528000206,,,,,,,,,,,,,,,,204,2023-03-28_15h17.26.135,FishGame,2022.1.1,59.86453852219558,
,27,넌 탁월해,2,Green,A,5.708333333333334,4.5,ScrollDown,ScrollUp,Green.png,4,Positive,Congruent,,,,,0,0,0,0,,,,,,,,,,,,,,,,,,,,,,,,,0,26,26,26,,,,,,,,,,,,,,,,,,,,,,,,,,,,,,,,,,,,,,,,,,,,,,,,,,,,,,,,,,,,,,,,,,,,,1.0632716019948323,0.9139051998499781,521.7583467001095,None,ScrollDown,정답입니다,521.7583467001095,None,521.7583467001095,None,521.7583467001095,None,521.7583467001095,None,522.5663235001266,None,522.5663235001266,523.0662660999224,,,,,,,,,,,,,,,,204,2023-03-28_15h17.26.135,FishGame,2022.1.1,59.86453852219558,
,28,나를 데려가줘,6,Orange,B,0,0,ScrollDown,ScrollUp,Orange.png,4,NonTarget,NonTarget,,,,,0,0,0,0,,,,,,,,,,,,,,,,,,,,,,,,,0,27,27,27,,,,,,,,,,,,,,,,,,,,,,,,,,,,,,,,,,,,,,,,,,,,,,,,,,,,,,,,,,,,,,,,,,,,,1.192901223897934,1.0925202001817524,523.7029929999262,None,ScrollDown,정답입니다,523.7029929999262,None,523.7029929999262,None,523.7029929999262,None,523.7029929999262,None,524.6798763000406,None,524.6798763000406,525.1798694001045,,,,,,,,,,,,,,,,204,2023-03-28_15h17.26.135,FishGame,2022.1.1,59.86453852219558,
,29,넌 조용해,3,Orange,B,4.333333333333333,4.166666666666667,ScrollUp,ScrollDown,Orange.png,4,Neutral,Neutral,,,,,0,0,0,0,,,,,,,,,,,,,,,,,,,,,,,,,0,28,28,28,,,,,,,,,,,,,,,,,,,,,,,,,,,,,,,,,,,,,,,,,,,,,,,,,,,,,,,,,,,,,,,,,,,,,1.8904321044683456,0.997922700131312,525.8103352999315,None,ScrollUp,정답입니다,525.8103352999315,None,525.8103352999315,None,525.8103352999315,None,525.8103352999315,None,526.6969067000318,None,526.6969067000318,527.1995282000862,,,,,,,,,,,,,,,,204,2023-03-28_15h17.26.135,FishGame,2022.1.1,59.86453852219558,
,30,넌 다정해,1,Green,A,5.833333333333334,5.7,ScrollDown,ScrollUp,Green.png,4,Positive,Congruent,,,,,0,0,0,0,,,,,,,,,,,,,,,,,,,,,,,,,0,29,29,29,,,,,,,,,,,,,,,,,,,,,,,,,,,,,,,,,,,,,,,,,,,,,,,,,,,,,,,,,,,,,,,,,,,,,1.0817901194095612,0.9813757999800146,527.8238029999193,None,ScrollDown,정답입니다,527.8238029999193,None,527.8238029999193,None,527.8238029999193,None,527.8238029999193,None,528.696802200051,None,528.696802200051,529.1994704999961,,,,,,,,,,,,,,,,204,2023-03-28_15h17.26.135,FishGame,2022.1.1,59.86453852219558,
,31,넌 능력있어,2,Orange,B,6.166666666666666,4.6,ScrollUp,ScrollDown,Orange.png,4,Positive,Incongruent,,,,,0,0,0,0,,,,,,,,,,,,,,,,,,,,,,,,,0,30,30,30,,,,,,,,,,,,,,,,,,,,,,,,,,,,,,,,,,,,,,,,,,,,,,,,,,,,,,,,,,,,,,,,,,,,,2,0.9103399999439716,529.8281261001248,None,ScrollUp,정답입니다,529.8281261001248,None,529.8281261001248,None,529.8281261001248,None,529.8281261001248,None,530.6300638001412,None,530.6300638001412,531.1326791001484,,,,,,,,,,,,,,,,204,2023-03-28_15h17.26.135,FishGame,2022.1.1,59.86453852219558,
,32,넌 불쾌해,5,Green,A,2.125,1.933333333333333,ScrollDown,ScrollUp,Green.png,4,Negative,Incongruent,,,,,0,0,0,0,,,,,,,,,,,,,,,,,,,,,,,,,0,31,31,31,,,,,,,,,,,,,,,,,,,,,,,,,,,,,,,,,,,,,,,,,,,,,,,,,,,,,,,,,,,,,,,,,,,,,1.1728395173947017,0.866804099874571,531.7544482001103,None,ScrollDown,정답입니다,531.7544482001103,None,531.7544482001103,None,531.7544482001103,None,531.7544482001103,None,532.5133643001318,None,532.5133643001318,533.0160469000693,,,,,,,,,,,,,,,,204,2023-03-28_15h17.26.135,FishGame,2022.1.1,59.86453852219558,
,33,나를 데려가줘,6,Orange,B,0,0,ScrollDown,ScrollUp,Orange.png,4,NonTarget,NonTarget,,,,,0,0,0,0,,,,,,,,,,,,,,,,,,,,,,,,,0,32,32,32,,,,,,,,,,,,,,,,,,,,,,,,,,,,,,,,,,,,,,,,,,,,,,,,,,,,,,,,,,,,,,,,,,,,,1,1.012625099858269,533.6456156000495,None,ScrollDown,정답입니다,533.6456156000495,None,533.6456156000495,None,533.6456156000495,None,533.6456156000495,None,534.5466921001207,None,534.5466921001207,535.0492851999588,,,,,,,,,,,,,,,,204,2023-03-28_15h17.26.135,FishGame,2022.1.1,59.86453852219558,
,34,넌 유순해,3,Green,A,4.458333333333333,5,ScrollDown,ScrollUp,Green.png,4,Neutral,Neutral,,,,,0,0,0,0,,,,,,,,,,,,,,,,,,,,,,,,,0,33,33,33,,,,,,,,,,,,,,,,,,,,,,,,,,,,,,,,,,,,,,,,,,,,,,,,,,,,,,,,,,,,,,,,,,,,,1.2253086417913437,0.9122637999244034,535.6712867999449,None,ScrollDown,정답입니다,535.6712867999449,None,535.6712867999449,None,535.6712867999449,None,535.6712867999449,None,536.482537599979,None,536.482537599979,536.9825689001009,,,,,,,,,,,,,,,,204,2023-03-28_15h17.26.135,FishGame,2022.1.1,59.86453852219558,
,35,넌 근심스러워,4,Orange,B,2.708333333333333,3.133333333333333,ScrollUp,ScrollDown,Orange.png,4,Negative,Congruent,,,,,0,0,0,0,,,,,,,,,,,,,,,,,,,,,,,,,0,34,34,34,,,,,,,,,,,,,,,,,,,,,,,,,,,,,,,,,,,,,,,,,,,,,,,,,,,,,,,,,,,,,,,,,,,,,1.8441358109315236,1.0001062999945134,537.6093218000606,None,ScrollUp,정답입니다,537.6093218000606,None,537.6093218000606,None,537.6093218000606,None,537.6093218000606,None,538.4966553000268,None,538.4966553000268,538.9991878999863,,,,,,,,,,,,,,,,204,2023-03-28_15h17.26.135,FishGame,2022.1.1,59.86453852219558,
,36,넌 세련되었어,2,Green,A,5.5,4.6,ScrollDown,ScrollUp,Green.png,4,Positive,Congruent,,,,,0,0,0,0,,,,,,,,,,,,,,,,,,,,,,,,,0,35,35,35,,,,,,,,,,,,,,,,,,,,,,,,,,,,,,,,,,,,,,,,,,,,,,,,,,,,,,,,,,,,,,,,,,,,,1.276234577099482,0.780464599840343,539.6289608001243,None,ScrollDown,정답입니다,539.6289608001243,None,539.6289608001243,None,539.6289608001243,None,539.6289608001243,None,540.2991816999856,None,540.2991816999856,540.799164300086,,,,,,,,,,,,,,,,204,2023-03-28_15h17.26.135,FishGame,2022.1.1,59.86453852219558,
,37,나를 보내줘,6,Green,A,0,0,ScrollUp,ScrollDown,Green.png,4,NonTarget,NonTarget,,,,,0,0,0,0,,,,,,,,,,,,,,,,,,,,,,,,,0,36,36,36,,,,,,,,,,,,,,,,,,,,,,,,,,,,,,,,,,,,,,,,,,,,,,,,,,,,,,,,,,,,,,,,,,,,,1.904320980111758,0.8786581000313163,541.4228141999338,None,ScrollUp,정답입니다,541.4228141999338,None,541.4228141999338,None,541.4228141999338,None,541.4228141999338,None,542.1991469000932,None,542.1991469000932,542.6991965000052,,,,,,,,,,,,,,,,204,2023-03-28_15h17.26.135,FishGame,2022.1.1,59.86453852219558,
,38,넌 확고해,3,Orange,B,4.708333333333334,4.566666666666666,ScrollUp,ScrollDown,Orange.png,4,Neutral,Neutral,,,,,0,0,0,0,,,,,,,,,,,,,,,,,,,,,,,,,0,37,37,37,,,,,,,,,,,,,,,,,,,,,,,,,,,,,,,,,,,,,,,,,,,,,,,,,,,,,,,,,,,,,,,,,,,,,2,0.9658387000672519,543.3317927001044,None,ScrollUp,정답입니다,543.3317927001044,None,543.3317927001044,None,543.3317927001044,None,543.3317927001044,None,544.1825322001241,None,544.1825322001241,544.6990720999893,,,,,,,,,,,,,,,,204,2023-03-28_15h17.26.135,FishGame,2022.1.1,59.86453852219558,
,39,넌 이해심이 많아,1,Orange,B,6.041666666666668,5.533333333333333,ScrollUp,ScrollDown,Orange.png,4,Positive,Incongruent,,,,,0,0,0,0,,,,,,,,,,,,,,,,,,,,,,,,,0,38,38,38,,,,,,,,,,,,,,,,,,,,,,,,,,,,,,,,,,,,,,,,,,,,,,,,,,,,,,,,,,,,,,,,,,,,,2,0.8167293001897633,545.3077023001388,None,ScrollUp,정답입니다,545.3077023001388,None,545.3077023001388,None,545.3077023001388,None,545.3077023001388,None,546.0130892000161,None,546.0130892000161,546.5157232999336,,,,,,,,,,,,,,,,204,2023-03-28_15h17.26.135,FishGame,2022.1.1,59.86453852219558,
,40,나를 보내줘,6,Green,A,0,0,ScrollUp,ScrollDown,Green.png,4,NonTarget,NonTarget,,,,,0,0,0,0,,,,,,,,,,,,,,,,,,,,,,,,,0,39,39,39,,,,,,,,,,,,,,,,,,,,,,,,,,,,,,,,,,,,,,,,,,,,,,,,,,,,,,,,,,,,,,,,,,,,,1.9876543084780376,1.079658499918878,547.1379132999573,None,ScrollUp,정답입니다,547.1379132999573,None,547.1379132999573,None,547.1379132999573,None,547.1379132999573,None,548.113091800129,None,548.113091800129,548.615730999969,,,,,,,,,,,,,,,,204,2023-03-28_15h17.26.135,FishGame,2022.1.1,59.86453852219558,
,41,넌 거칠어,4,Green,A,2.625,3.033333333333333,ScrollDown,ScrollUp,Green.png,4,Negative,Incongruent,,,,,0,0,0,0,,,,,,,,,,,,,,,,,,,,,,,,,0,40,40,40,,,,,,,,,,,,,,,,,,,,,,,,,,,,,,,,,,,,,,,,,,,,,,,,,,,,,,,,,,,,,,,,,,,,,1,0.9091214998625219,549.2502379000653,None,ScrollDown,정답입니다,549.2502379000653,None,549.2502379000653,None,549.2502379000653,None,549.2502379000653,None,550.0460465999786,None,550.0460465999786,550.5460292999633,,,,,,,,,,,,,,,,204,2023-03-28_15h17.26.135,FishGame,2022.1.1,59.86453852219558,
,42,넌 변덕맞아,5,Orange,B,2.75,2.166666666666667,ScrollUp,ScrollDown,Orange.png,4,Negative,Congruent,,,,,0,0,0,0,,,,,,,,,,,,,,,,,,,,,,,,,0,41,41,41,,,,,,,,,,,,,,,,,,,,,,,,,,,,,,,,,,,,,,,,,,,,,,,,,,,,,,,,,,,,,,,,,,,,,2,1.0195291000418365,551.1778411001433,None,ScrollUp,정답입니다,551.1778411001433,None,551.1778411001433,None,551.1778411001433,None,551.1778411001433,None,552.0826049000025,None,552.0826049000025,552.5823194999248,,,,,,,,,,,,,,,,204,2023-03-28_15h17.26.135,FishGame,2022.1.1,59.86453852219558,
,43,나를 데려가줘,6,Orange,B,0,0,ScrollDown,ScrollUp,Orange.png,4,NonTarget,NonTarget,,,,,0,0,0,0,,,,,,,,,,,,,,,,,,,,,,,,,0,42,42,42,,,,,,,,,,,,,,,,,,,,,,,,,,,,,,,,,,,,,,,,,,,,,,,,,,,,,,,,,,,,,,,,,,,,,1.0478395124276478,0.880729999858886,553.2241424999665,None,ScrollDown,정답입니다,553.2241424999665,None,553.2241424999665,None,553.2241424999665,None,553.2241424999665,None,553.9989730000962,None,553.9989730000962,554.4990447999444,,,,,,,,,,,,,,,,204,2023-03-28_15h17.26.135,FishGame,2022.1.1,59.86453852219558,
,44,넌 외로워,4,Orange,B,2.833333333333333,3.3,ScrollUp,ScrollDown,Orange.png,4,Negative,Congruent,,,,,0,0,0,0,,,,,,,,,,,,,,,,,,,,,,,,,0,43,43,43,,,,,,,,,,,,,,,,,,,,,,,,,,,,,,,,,,,,,,,,,,,,,,,,,,,,,,,,,,,,,,,,,,,,,1.7376543233791986,0.8761567999608815,555.1357120999601,None,ScrollUp,정답입니다,555.1357120999601,None,555.1357120999601,None,555.1357120999601,None,555.1357120999601,None,555.8959195001516,None,555.8959195001516,556.3958964000922,,,,,,,,,,,,,,,,204,2023-03-28_15h17.26.135,FishGame,2022.1.1,59.86453852219558,
,1,넌 불평스러워,5,Green,A,2.25,2.066666666666667,ScrollDown,ScrollUp,Green.png,5,Negative,Incongruent,,,,,0,0,0,0,,,,,,,,,,,,,,,,,,,,,,,,,,,,,0,0,0,0,,,,,,,,,,,,,,,,,,,,,,,,588.3815743001178,589.8817412001081,589.9151028001215,590.8649077999871,590.9149303000886,591.8649194000755,591.8649194000755,None,,,,,,,,,,,,,,,,,,,,,,,,,,,,,,,,,,1.0648148159186046,1.0418650000356138,592.9610228000674,None,ScrollDown,정답입니다,592.9610228000674,None,592.9610228000674,None,592.9610228000674,None,592.9610228000674,None,593.8954012999311,None,593.8954012999311,594.3980644000694,556.8960095001385,None,556.8960095001385,None,0.11574074,-0.073148146,1,0,0,0.01627936027944088,None,586.8952627000399,None,,,204,2023-03-28_15h17.26.135,FishGame,2022.1.1,59.86453852219558,
,2,나를 보내줘,6,Green,A,0,0,ScrollUp,ScrollDown,Green.png,5,NonTarget,NonTarget,,,,,0,0,0,0,,,,,,,,,,,,,,,,,,,,,,,,,,,,,0,1,1,1,,,,,,,,,,,,,,,,,,,,,,,,,,,,,,,,,,,,,,,,,,,,,,,,,,,,,,,,,,,,,,,,,1.9259259502092998,0.9480181001126766,595.0198617000133,None,ScrollUp,정답입니다,595.0198617000133,None,595.0198617000133,None,595.0198617000133,None,595.0198617000133,None,595.8647432001308,None,595.8647432001308,596.3647245001048,,,,,,,,,,,,,,,,204,2023-03-28_15h17.26.135,FishGame,2022.1.1,59.86453852219558,
,3,넌 다재다능해,2,Orange,B,6.208333333333333,4.5,ScrollUp,ScrollDown,Orange.png,5,Positive,Incongruent,,,,,0,0,0,0,,,,,,,,,,,,,,,,,,,,,,,,,,,,,0,2,2,2,,,,,,,,,,,,,,,,,,,,,,,,,,,,,,,,,,,,,,,,,,,,,,,,,,,,,,,,,,,,,,,,,1.9351851840813954,0.8664502999745309,596.9892192000989,None,ScrollUp,정답입니다,596.9892192000989,None,596.9892192000989,None,596.9892192000989,None,596.9892192000989,None,597.7481212001294,None,597.7481212001294,598.2480103999842,,,,,,,,,,,,,,,,204,2023-03-28_15h17.26.135,FishGame,2022.1.1,59.86453852219558,
,4,넌 과감해,3,Green,A,4.833333333333334,4.6,ScrollDown,ScrollUp,Green.png,5,Neutral,Neutral,,,,,0,0,0,0,,,,,,,,,,,,,,,,,,,,,,,,,,,,,0,3,3,3,,,,,,,,,,,,,,,,,,,,,,,,,,,,,,,,,,,,,,,,,,,,,,,,,,,,,,,,,,,,,,,,,1.016975333293279,0.8331780000589788,598.8699562000111,None,ScrollDown,정답입니다,598.8699562000111,None,598.8699562000111,None,598.8699562000111,None,598.8699562000111,None,599.5978928999975,None,599.5978928999975,600.0979270001408,,,,,,,,,,,,,,,,204,2023-03-28_15h17.26.135,FishGame,2022.1.1,59.86453852219558,
,5,넌 고분고분해,3,Orange,B,3.75,4.033333333333333,ScrollUp,ScrollDown,Orange.png,5,Neutral,Neutral,,,,,0,0,0,0,,,,,,,,,,,,,,,,,,,,,,,,,,,,,0,4,4,4,,,,,,,,,,,,,,,,,,,,,,,,,,,,,,,,,,,,,,,,,,,,,,,,,,,,,,,,,,,,,,,,,2,0.898219799855724,600.7252863999456,None,ScrollUp,정답입니다,600.7252863999456,None,600.7252863999456,None,600.7252863999456,None,600.7252863999456,None,601.511884199921,None,601.511884199921,602.0145443000365,,,,,,,,,,,,,,,,204,2023-03-28_15h17.26.135,FishGame,2022.1.1,59.86453852219558,
,6,나를 보내줘,6,Green,A,0,0,ScrollUp,ScrollDown,Green.png,5,NonTarget,NonTarget,,,,,0,0,0,0,,,,,,,,,,,,,,,,,,,,,,,,,,,,,0,5,5,5,,,,,,,,,,,,,,,,,,,,,,,,,,,,,,,,,,,,,,,,,,,,,,,,,,,,,,,,,,,,,,,,,1.89969136317571,1.0148831999395043,602.6369924999308,None,ScrollUp,정답입니다,602.6369924999308,None,602.6369924999308,None,602.6369924999308,None,602.6369924999308,None,603.5452219999861,None,603.5452219999861,604.0478594999295,,,,,,,,,,,,,,,,204,2023-03-28_15h17.26.135,FishGame,2022.1.1,59.86453852219558,
,7,넌 잘 잊어,4,Green,A,3,3.7,ScrollDown,ScrollUp,Green.png,5,Negative,Incongruent,,,,,0,0,0,0,,,,,,,,,,,,,,,,,,,,,,,,,,,,,0,6,6,6,,,,,,,,,,,,,,,,,,,,,,,,,,,,,,,,,,,,,,,,,,,,,,,,,,,,,,,,,,,,,,,,,1,0.9291725000366569,604.6740989000537,None,ScrollDown,정답입니다,604.6740989000537,None,604.6740989000537,None,604.6740989000537,None,604.6740989000537,None,605.4978342999239,None,605.4978342999239,605.9978362000547,,,,,,,,,,,,,,,,204,2023-03-28_15h17.26.135,FishGame,2022.1.1,59.86453852219558,
,8,넌 탐구심이없어,4,Orange,B,2.833333333333333,3.066666666666667,ScrollUp,ScrollDown,Orange.png,5,Negative,Congruent,,,,,0,0,0,0,,,,,,,,,,,,,,,,,,,,,,,,,,,,,0,7,7,7,,,,,,,,,,,,,,,,,,,,,,,,,,,,,,,,,,,,,,,,,,,,,,,,,,,,,,,,,,,,,,,,,2,0.8801301000639796,606.6420775000006,None,ScrollUp,정답입니다,606.6420775000006,None,606.6420775000006,None,606.6420775000006,None,606.6420775000006,None,607.4115258001257,None,607.4115258001257,607.9115133001469,,,,,,,,,,,,,,,,204,2023-03-28_15h17.26.135,FishGame,2022.1.1,59.86453852219558,
,9,나를 데려가줘,6,Orange,B,0,0,ScrollDown,ScrollUp,Orange.png,5,NonTarget,NonTarget,,,,,0,0,0,0,,,,,,,,,,,,,,,,,,,,,,,,,,,,,0,8,8,8,,,,,,,,,,,,,,,,,,,,,,,,,,,,,,,,,,,,,,,,,,,,,,,,,,,,,,,,,,,,,,,,,1,0.9665505001321435,608.5338934999891,None,ScrollDown,정답입니다,608.5338934999891,None,608.5338934999891,None,608.5338934999891,None,608.5338934999891,None,609.3978226999752,None,609.3978226999752,609.8977961000055,,,,,,,,,,,,,,,,204,2023-03-28_15h17.26.135,FishGame,2022.1.1,59.86453852219558,
,10,넌 참되어,2,Green,A,6.041666666666664,4.733333333333333,ScrollDown,ScrollUp,Green.png,5,Positive,Congruent,,,,,0,0,0,0,,,,,,,,,,,,,,,,,,,,,,,,,,,,,0,9,9,9,,,,,,,,,,,,,,,,,,,,,,,,,,,,,,,,,,,,,,,,,,,,,,,,,,,,,,,,,,,,,,,,,1.0540123681227367,0.8329406001139432,610.523073400138,None,ScrollDown,정답입니다,610.523073400138,None,610.523073400138,None,610.523073400138,None,610.523073400138,None,611.2477987001184,None,611.2477987001184,611.7477657001,,,,,,,,,,,,,,,,204,2023-03-28_15h17.26.135,FishGame,2022.1.1,59.86453852219558,
,11,넌 생기있어,1,Orange,B,5.875,5.633333333333334,ScrollUp,ScrollDown,Orange.png,5,Positive,Incongruent,,,,,0,0,0,0,,,,,,,,,,,,,,,,,,,,,,,,,,,,,0,10,10,10,,,,,,,,,,,,,,,,,,,,,,,,,,,,,,,,,,,,,,,,,,,,,,,,,,,,,,,,,,,,,,,,,2,0.8813346000388265,612.3807940001134,None,ScrollUp,정답입니다,612.3807940001134,None,612.3807940001134,None,612.3807940001134,None,612.3807940001134,None,613.1450728999916,None,613.1450728999916,613.6476678000763,,,,,,,,,,,,,,,,204,2023-03-28_15h17.26.135,FishGame,2022.1.1,59.86453852219558,
,12,넌 비사교적이야,4,Orange,B,2.875,2.9,ScrollUp,ScrollDown,Orange.png,5,Negative,Congruent,,,,,0,0,0,0,,,,,,,,,,,,,,,,,,,,,,,,,,,,,0,11,11,11,,,,,,,,,,,,,,,,,,,,,,,,,,,,,,,,,,,,,,,,,,,,,,,,,,,,,,,,,,,,,,,,,2,0.9314973000437021,614.2733247999568,None,ScrollUp,정답입니다,614.2733247999568,None,614.2733247999568,None,614.2733247999568,None,614.2733247999568,None,615.0949969999492,None,615.0949969999492,615.5976337001193,,,,,,,,,,,,,,,,204,2023-03-28_15h17.26.135,FishGame,2022.1.1,59.86453852219558,
,13,나를 데려가줘,6,Orange,B,0,0,ScrollDown,ScrollUp,Orange.png,5,NonTarget,NonTarget,,,,,0,0,0,0,,,,,,,,,,,,,,,,,,,,,,,,,,,,,0,12,12,12,,,,,,,,,,,,,,,,,,,,,,,,,,,,,,,,,,,,,,,,,,,,,,,,,,,,,,,,,,,,,,,,,1,0.9668665998615324,616.2198415999301,None,ScrollDown,정답입니다,616.2198415999301,None,616.2198415999301,None,616.2198415999301,None,616.2198415999301,None,617.0810340000317,None,617.0810340000317,617.5809611000586,,,,,,,,,,,,,,,,204,2023-03-28_15h17.26.135,FishGame,2022.1.1,59.86453852219558,
,14,넌 고독해,4,Green,A,2.916666666666667,3.233333333333333,ScrollDown,ScrollUp,Green.png,5,Negative,Incongruent,,,,,0,0,0,0,,,,,,,,,,,,,,,,,,,,,,,,,,,,,0,13,13,13,,,,,,,,,,,,,,,,,,,,,,,,,,,,,,,,,,,,,,,,,,,,,,,,,,,,,,,,,,,,,,,,,1,0.8973923001904041,618.2068320000544,None,ScrollDown,정답입니다,618.2068320000544,None,618.2068320000544,None,618.2068320000544,None,618.2068320000544,None,618.9948635001201,None,618.9948635001201,619.4975225999951,,,,,,,,,,,,,,,,204,2023-03-28_15h17.26.135,FishGame,2022.1.1,59.86453852219558,
,15,넌 신경질적이야,5,Orange,B,2.375,2.233333333333333,ScrollUp,ScrollDown,Orange.png,5,Negative,Congruent,,,,,0,0,0,0,,,,,,,,,,,,,,,,,,,,,,,,,,,,,0,14,14,14,,,,,,,,,,,,,,,,,,,,,,,,,,,,,,,,,,,,,,,,,,,,,,,,,,,,,,,,,,,,,,,,,2,0.8666701000183821,620.1255682001356,None,ScrollUp,정답입니다,620.1255682001356,None,620.1255682001356,None,620.1255682001356,None,620.1255682001356,None,620.8781725999434,None,620.8781725999434,621.3808337999508,,,,,,,,,,,,,,,,204,2023-03-28_15h17.26.135,FishGame,2022.1.1,59.86453852219558,
,16,넌 똑똑해,2,Orange,B,5.666666666666667,3.966666666666667,ScrollUp,ScrollDown,Orange.png,5,Positive,Incongruent,,,,,0,0,0,0,,,,,,,,,,,,,,,,,,,,,,,,,,,,,0,15,15,15,,,,,,,,,,,,,,,,,,,,,,,,,,,,,,,,,,,,,,,,,,,,,,,,,,,,,,,,,,,,,,,,,1.9706790049870808,0.9996603999752551,622.0131296000909,None,ScrollUp,정답입니다,622.0131296000909,None,622.0131296000909,None,622.0131296000909,None,622.0131296000909,None,622.8975877999328,None,622.8975877999328,623.397473399993,,,,,,,,,,,,,,,,204,2023-03-28_15h17.26.135,FishGame,2022.1.1,59.86453852219558,
,17,나를 보내줘,6,Green,A,0,0,ScrollUp,ScrollDown,Green.png,5,NonTarget,NonTarget,,,,,0,0,0,0,,,,,,,,,,,,,,,,,,,,,,,,,,,,,0,16,16,16,,,,,,,,,,,,,,,,,,,,,,,,,,,,,,,,,,,,,,,,,,,,,,,,,,,,,,,,,,,,,,,,,1.9969135920206706,0.9482300998643041,624.0215978999622,None,ScrollUp,정답입니다,624.0215978999622,None,624.0215978999622,None,624.0215978999622,None,624.0215978999622,None,624.8615022001322,None,624.8615022001322,625.3678510000464,,,,,,,,,,,,,,,,204,2023-03-28_15h17.26.135,FishGame,2022.1.1,59.86453852219558,
,18,넌 협조적이야,1,Green,A,5.625,5.666666666666667,ScrollDown,ScrollUp,Green.png,5,Positive,Congruent,,,,,0,0,0,0,,,,,,,,,,,,,,,,,,,,,,,,,,,,,0,17,17,17,,,,,,,,,,,,,,,,,,,,,,,,,,,,,,,,,,,,,,,,,,,,,,,,,,,,,,,,,,,,,,,,,1.0216049253940582,0.8980729000177234,625.9853638000786,None,ScrollDown,정답입니다,625.9853638000786,None,625.9853638000786,None,625.9853638000786,None,625.9853638000786,None,626.7777673001401,None,626.7777673001401,627.2777692999225,,,,,,,,,,,,,,,,204,2023-03-28_15h17.26.135,FishGame,2022.1.1,59.86453852219558,
,19,나를 데려가줘,6,Orange,B,0,0,ScrollDown,ScrollUp,Orange.png,5,NonTarget,NonTarget,,,,,0,0,0,0,,,,,,,,,,,,,,,,,,,,,,,,,,,,,0,18,18,18,,,,,,,,,,,,,,,,,,,,,,,,,,,,,,,,,,,,,,,,,,,,,,,,,,,,,,,,,,,,,,,,,1,0.9974823000375181,627.9098684000783,None,ScrollDown,정답입니다,627.9098684000783,None,627.9098684000783,None,627.9098684000783,None,627.9098684000783,None,628.7974215000868,None,628.7974215000868,629.297391799977,,,,,,,,,,,,,,,,204,2023-03-28_15h17.26.135,FishGame,2022.1.1,59.86453852219558,
,20,넌 몰인정해,5,Orange,B,2.541666666666667,2.066666666666667,ScrollUp,ScrollDown,Orange.png,5,Negative,Congruent,,,,,0,0,0,0,,,,,,,,,,,,,,,,,,,,,,,,,,,,,0,19,19,19,,,,,,,,,,,,,,,,,,,,,,,,,,,,,,,,,,,,,,,,,,,,,,,,,,,,,,,,,,,,,,,,,2,0.8967369999736547,629.925684100017,None,ScrollUp,정답입니다,629.925684100017,None,629.925684100017,None,629.925684100017,None,629.925684100017,None,630.7113811001182,None,630.7113811001182,631.2110483001452,,,,,,,,,,,,,,,,204,2023-03-28_15h17.26.135,FishGame,2022.1.1,59.86453852219558,
,21,나를 데려가줘,6,Orange,B,0,0,ScrollDown,ScrollUp,Orange.png,5,NonTarget,NonTarget,,,,,0,0,0,0,,,,,,,,,,,,,,,,,,,,,,,,,,,,,0,20,20,20,,,,,,,,,,,,,,,,,,,,,,,,,,,,,,,,,,,,,,,,,,,,,,,,,,,,,,,,,,,,,,,,,1,0.9165735000278801,631.8333533001132,None,ScrollDown,정답입니다,631.8333533001132,None,631.8333533001132,None,631.8333533001132,None,631.8333533001132,None,632.6443415000103,None,632.6443415000103,633.1443396999966,,,,,,,,,,,,,,,,204,2023-03-28_15h17.26.135,FishGame,2022.1.1,59.86453852219558,
,22,넌 순진해,3,Orange,B,4.125,4.166666666666667,ScrollUp,ScrollDown,Orange.png,5,Neutral,Neutral,,,,,0,0,0,0,,,,,,,,,,,,,,,,,,,,,,,,,,,,,0,21,21,21,,,,,,,,,,,,,,,,,,,,,,,,,,,,,,,,,,,,,,,,,,,,,,,,,,,,,,,,,,,,,,,,,1.9907407363255818,0.9332435000687838,633.7675590000581,None,ScrollUp,정답입니다,633.7675590000581,None,633.7675590000581,None,633.7675590000581,None,633.7675590000581,None,634.594405000098,None,634.594405000098,635.097345400136,,,,,,,,,,,,,,,,204,2023-03-28_15h17.26.135,FishGame,2022.1.1,59.86453852219558,
