name,TrialNum,Word,WordCategory,FishType,WordList,WordValence,WordReputation,CorrectResp,IncorrectResp,FishTypeFile,Round,WordType,Condition,LoopforOrange.thisRepN,LoopforOrange.thisTrialN,LoopforOrange.thisN,LoopforOrange.thisIndex,OrangeInstLoop.thisRepN,OrangeInstLoop.thisTrialN,OrangeInstLoop.thisN,OrangeInstLoop.thisIndex,OrangePrac.thisRepN,OrangePrac.thisTrialN,OrangePrac.thisN,OrangePrac.thisIndex,temp1.thisRepN,temp1.thisTrialN,temp1.thisN,temp1.thisIndex,OrangeRound1.thisRepN,OrangeRound1.thisTrialN,OrangeRound1.thisN,OrangeRound1.thisIndex,OrangeRound2.thisRepN,OrangeRound2.thisTrialN,OrangeRound2.thisN,OrangeRound2.thisIndex,OrangeRound3.thisRepN,OrangeRound3.thisTrialN,OrangeRound3.thisN,OrangeRound3.thisIndex,OrangeRound4.thisRepN,OrangeRound4.thisTrialN,OrangeRound4.thisN,OrangeRound4.thisIndex,OrangeRound5.thisRepN,OrangeRound5.thisTrialN,OrangeRound5.thisN,OrangeRound5.thisIndex,LoopForGreen.thisRepN,LoopForGreen.thisTrialN,LoopForGreen.thisN,LoopForGreen.thisIndex,text_2.started,text_2.stopped,text_3.started,text_3.stopped,key_resp.keys,key_resp.rt,key_resp.started,key_resp.stopped,PassI_2.started,PassI_2.stopped,PassInst_2.keys,PassInst_2.rt,PassInst_2.started,PassInst_2.stopped,mouse_2.x,mouse_2.y,mouse_2.leftButton,mouse_2.midButton,mouse_2.rightButton,mouse_2.started,mouse_2.stopped,image.started,image.stopped,text_5.started,text_5.stopped,text_6.started,text_6.stopped,text_7.started,text_7.stopped,text_8.started,text_8.stopped,slider_2.response,slider_2.rt,slider_2.started,slider_2.stopped,Response_2,Feedback_2,BackGround_2.started,BackGround_2.stopped,Fish_2.started,Fish_2.stopped,WordBox_2.started,WordBox_2.stopped,Words_2.started,Words_2.stopped,BackGround_Feedback_2.started,BackGround_Feedback_2.stopped,Feedbacks_2.started,Feedbacks_2.stopped,Continue_or_not.keys,Continue_or_not.rt,Continue_or_not.started,Continue_or_not.stopped,image_3.started,image_3.stopped,mouse_3.x,mouse_3.y,mouse_3.leftButton,mouse_3.midButton,mouse_3.rightButton,mouse_3.started,mouse_3.stopped,startmain.started,startmain.stopped,slider.response,slider.rt,slider.started,slider.stopped,Response,Feedback,BackGround.started,BackGround.stopped,Fish.started,Fish.stopped,WordBox.started,WordBox.stopped,Words.started,Words.stopped,BackGround_Feedback.started,BackGround_Feedback.stopped,Feedbacks.started,Feedbacks.stopped,text.started,text.stopped,break_interval.started,break_interval.stopped,mouse.x,mouse.y,mouse.leftButton,mouse.midButton,mouse.rightButton,mouse.started,mouse.stopped,stratnextround.started,stratnextround.stopped,endgame.started,endgame.stopped,participant,date,expName,psychopyVersion,frameRate,
,,,,,,,,,,,,,,,,,,,,,,,,,,,,,,,,,,,,,,,,,,,,,,,,,,,,,,20.788188999984413,None,20.788188999984413,None,space,5.4023079997859895,21.282064100028947,None,,,,,,,,,,,,,,,,,,,,,,,,,,,,,,,,,,,,,,,,,,,,,,,,,,,,,,,,,,,,,,,,,,,,,,,,,,,,,,,,,,,,,,,,,,205,2023-03-29_10h49.54.952,FishGame,2022.1.1,60.02804517649202,
물고기과제_instruction(참가자용)OrangeVersion.mp4,,,,,,,,,,,,,,0,0,0,0,0,0,0,0,,,,,,,,,,,,,,,,,,,,,,,,,,,,,,,,,,,,,,,,,99.68041839986108,None,n,2.5328130999114364,99.68041839986108,None,,,,,,,,,,,,,,,,,,,,,,,,,,,,,,,,,,,,,,,,,,,,,,,,,,,,,,,,,,,,,,,,,,,,,,,,,,,,,,,,,,,,205,2023-03-29_10h49.54.952,FishGame,2022.1.1,60.02804517649202,
,1,넌 교활해,5,Green,B,2.333333333333333,2.133333333333333,ScrollUp,ScrollDown,Green.png,practice,,,0,0,0,0,,,,,0,0,0,0,0,0,0,0,,,,,,,,,,,,,,,,,,,,,,,,,,,,,,,,,,,,,,,0.017592592,-0.22685185,1,0,0,0.5140770103316754,None,102.23032259987667,None,108.8136110000778,110.31810699985363,110.33487419993617,111.2940042000264,111.3439984000288,112.29677079990506,112.29677079990506,None,2,2.2184484999161214,113.57746449997649,None,ScrollUp,정답입니다,113.57746449997649,None,113.57746449997649,None,113.57746449997649,None,113.57746449997649,None,115.4939480999019,None,115.4939480999019,115.99656939995475,,,,,,,,,,,,,,,,,,,,,,,,,,,,,,,,,,,,,,,,,,,,,,,,,205,2023-03-29_10h49.54.952,FishGame,2022.1.1,60.02804517649202,
,2,넌 슬기로워,2,Orange,A,6.166666666666667,4.1,ScrollDown,ScrollUp,Orange.png,practice,,,0,0,0,0,,,,,0,0,0,0,0,1,1,1,,,,,,,,,,,,,,,,,,,,,,,,,,,,,,,,,,,,,,,,,,,,,,,,,,,,,,,,1,1.3999695000238717,116.6213640999049,None,ScrollDown,정답입니다,116.6213640999049,None,116.6213640999049,None,116.6213640999049,None,116.6213640999049,None,117.91057710000314,None,117.91057710000314,118.41323299985379,,,,,,,,,,,,,,,,,,,,,,,,,,,,,,,,,,,,,,,,,,,,,,,,,205,2023-03-29_10h49.54.952,FishGame,2022.1.1,60.02804517649202,
,3,나를 보내줘,6,Orange,A,0,0,ScrollUp,ScrollDown,Orange.png,practice,,,0,0,0,0,,,,,0,0,0,0,0,2,2,2,,,,,,,,,,,,,,,,,,,,,,,,,,,,,,,,,,,,,,,,,,,,,,,,,,,,,,,,1,1.311693900031969,119.039139600005,None,ScrollDown,오답입니다,119.039139600005,None,119.039139600005,None,119.039139600005,None,119.039139600005,None,120.24354689987376,None,120.24354689987376,120.74362490000203,,,,,,,,,,,,,,,,,,,,,,,,,,,,,,,,,,,,,,,,,,,,,,,,,205,2023-03-29_10h49.54.952,FishGame,2022.1.1,60.02804517649202,
,4,나를 데려가줘,6,Green,B,0,0,ScrollDown,ScrollUp,Green.png,practice,,,0,0,0,0,,,,,0,0,0,0,0,3,3,3,,,,,,,,,,,,,,,,,,,,,,,,,,,,,,,,,,,,,,,,,,,,,,,,,,,,,,,,1.9675925771395366,1.325178800150752,121.37322780000977,None,ScrollUp,오답입니다,121.37322780000977,None,121.37322780000977,None,121.37322780000977,None,121.37322780000977,None,122.59388100006618,None,122.59388100006618,123.09651269996539,,,,,,,,,,,,,,,,,,,,,,,,,,,,,,,,,,,,,,,,,,,,,,,,,205,2023-03-29_10h49.54.952,FishGame,2022.1.1,60.02804517649202,
,1,넌 교활해,5,Green,B,2.333333333333333,2.133333333333333,ScrollUp,ScrollDown,Green.png,practice,,,0,0,0,0,,,,,0,0,0,0,,,,,,,,,,,,,,,,,,,,,,,,,,,,,,,,,,,,,,,,,,,,,,,,,,,,,,,,,,,,,,,,,,,,,,,,,,,,,,y,7.875769900158048,123.59656269988045,None,123.59656269988045,None,,,,,,,,,,,,,,,,,,,,,,,,,,,,,,,,,,,,,,,,,,,205,2023-03-29_10h49.54.952,FishGame,2022.1.1,60.02804517649202,
,1,넌 교활해,5,Green,B,2.333333333333333,2.133333333333333,ScrollUp,ScrollDown,Green.png,practice,,,0,0,0,0,,,,,0,1,1,1,0,0,0,0,,,,,,,,,,,,,,,,,,,,,,,,,,,,,,,,,,,,,,,,,,,,,,,,,,,,,,,,1.8456790000200272,1.8945926001761109,131.62360819987953,None,ScrollUp,정답입니다,131.62360819987953,None,131.62360819987953,None,131.62360819987953,None,131.62360819987953,None,133.41030650003813,None,133.41030650003813,133.91745950002223,,,,,,,,,,,,,,,,,,,,,,,,,,,,,,,,,,,,,,,,,,,,,,,,,205,2023-03-29_10h49.54.952,FishGame,2022.1.1,60.02804517649202,
,2,넌 슬기로워,2,Orange,A,6.166666666666667,4.1,ScrollDown,ScrollUp,Orange.png,practice,,,0,0,0,0,,,,,0,1,1,1,0,1,1,1,,,,,,,,,,,,,,,,,,,,,,,,,,,,,,,,,,,,,,,,,,,,,,,,,,,,,,,,1.0370370149612427,1.4458729000762105,134.5391985999886,None,ScrollDown,정답입니다,134.5391985999886,None,134.5391985999886,None,134.5391985999886,None,134.5391985999886,None,135.87663449998945,None,135.87663449998945,136.3766119000502,,,,,,,,,,,,,,,,,,,,,,,,,,,,,,,,,,,,,,,,,,,,,,,,,205,2023-03-29_10h49.54.952,FishGame,2022.1.1,60.02804517649202,
,3,나를 보내줘,6,Orange,A,0,0,ScrollUp,ScrollDown,Orange.png,practice,,,0,0,0,0,,,,,0,1,1,1,0,2,2,2,,,,,,,,,,,,,,,,,,,,,,,,,,,,,,,,,,,,,,,,,,,,,,,,,,,,,,,,1.879629631837209,1.6998755999375135,137.00193929998204,None,ScrollUp,정답입니다,137.00193929998204,None,137.00193929998204,None,137.00193929998204,None,137.00193929998204,None,138.59615830006078,None,138.59615830006078,139.0962145999074,,,,,,,,,,,,,,,,,,,,,,,,,,,,,,,,,,,,,,,,,,,,,,,,,205,2023-03-29_10h49.54.952,FishGame,2022.1.1,60.02804517649202,
,4,나를 데려가줘,6,Green,B,0,0,ScrollDown,ScrollUp,Green.png,practice,,,0,0,0,0,,,,,0,1,1,1,0,3,3,3,,,,,,,,,,,,,,,,,,,,,,,,,,,,,,,,,,,,,,,,,,,,,,,,,,,,,,,,1.1898148208856583,1.4140057999175042,139.71839409996755,None,ScrollDown,정답입니다,139.71839409996755,None,139.71839409996755,None,139.71839409996755,None,139.71839409996755,None,141.0268109999597,None,141.0268109999597,141.52646610001102,,,,,,,,,,,,,,,,,,,,,,,,,,,,,,,,,,,,,,,,,,,,,,,,,205,2023-03-29_10h49.54.952,FishGame,2022.1.1,60.02804517649202,
,2,넌 슬기로워,2,Orange,A,6.166666666666667,4.1,ScrollDown,ScrollUp,Orange.png,practice,,,0,0,0,0,,,,,0,1,1,1,,,,,,,,,,,,,,,,,,,,,,,,,,,,,,,,,,,,,,,,,,,,,,,,,,,,,,,,,,,,,,,,,,,,,,,,,,,,,,n,3.6478744000196457,142.02657099999487,None,142.02657099999487,None,,,,,,,,,,,,,,,,,,,,,,,,,,,,,,,,,,,,,,,,,,,205,2023-03-29_10h49.54.952,FishGame,2022.1.1,60.02804517649202,
,1,넌 따뜻해,1,Green,B,6.083333333333333,5.6,ScrollUp,ScrollDown,Green.png,1,Positive,Incongruent,0,0,0,0,,,,,,,,,,,,,0,0,0,0,,,,,,,,,,,,,,,,,,,,,,,,,,,,,,,,,,,,,,,,,,,,147.3293810999021,148.829504000023,148.86281019984744,149.8127695999574,149.86286349990405,150.8127528000623,150.8127528000623,None,,,,,,,,,,,,,,,,,,,,,,,,,0.032407407,-0.1037037,1,0,0,0.31491510989144444,None,145.69614899996668,None,1.9104938358068466,1.7120120998006314,152.10323949996382,None,ScrollUp,정답입니다,152.10323949996382,None,152.10323949996382,None,152.10323949996382,None,152.10323949996382,None,153.50988799985498,None,153.50988799985498,154.01727829989977,,,,,,,,,,,,,,,,205,2023-03-29_10h49.54.952,FishGame,2022.1.1,60.02804517649202,
,2,넌 기품있어,2,Green,B,5.791666666666668,4.5,ScrollUp,ScrollDown,Green.png,1,Positive,Incongruent,0,0,0,0,,,,,,,,,,,,,0,1,1,1,,,,,,,,,,,,,,,,,,,,,,,,,,,,,,,,,,,,,,,,,,,,,,,,,,,,,,,,,,,,,,,,,,,,,,,,,,,,,,,,,,,,,1.7114197611808777,1.0961707001551986,154.6421526998747,None,ScrollUp,정답입니다,154.6421526998747,None,154.6421526998747,None,154.6421526998747,None,154.6421526998747,None,155.6261811000295,None,155.6261811000295,156.12624470004812,,,,,,,,,,,,,,,,205,2023-03-29_10h49.54.952,FishGame,2022.1.1,60.02804517649202,
,3,나를 보내줘,6,Orange,A,0,0,ScrollUp,ScrollDown,Orange.png,1,NonTarget,NonTarget,0,0,0,0,,,,,,,,,,,,,0,2,2,2,,,,,,,,,,,,,,,,,,,,,,,,,,,,,,,,,,,,,,,,,,,,,,,,,,,,,,,,,,,,,,,,,,,,,,,,,,,,,,,,,,,,,1.632716049750646,2.0522859999909997,156.75798420002684,None,ScrollUp,정답입니다,156.75798420002684,None,156.75798420002684,None,156.75798420002684,None,156.75798420002684,None,158.6958574000746,None,158.6958574000746,159.21244779997505,,,,,,,,,,,,,,,,205,2023-03-29_10h49.54.952,FishGame,2022.1.1,60.02804517649202,
,4,넌 수동적이야,4,Orange,A,2.833333333333333,2.933333333333333,ScrollDown,ScrollUp,Orange.png,1,Negative,Incongruent,0,0,0,0,,,,,,,,,,,,,0,3,3,3,,,,,,,,,,,,,,,,,,,,,,,,,,,,,,,,,,,,,,,,,,,,,,,,,,,,,,,,,,,,,,,,,,,,,,,,,,,,,,,,,,,,,1.1172839403152466,1.1314664999954402,159.82870680000633,None,ScrollDown,정답입니다,159.82870680000633,None,159.82870680000633,None,159.82870680000633,None,159.82870680000633,None,160.84583400003612,None,160.84583400003612,161.35939119989052,,,,,,,,,,,,,,,,205,2023-03-29_10h49.54.952,FishGame,2022.1.1,60.02804517649202,
,5,넌 사심이 없어,3,Green,B,4.916666666666666,4.333333333333333,ScrollUp,ScrollDown,Green.png,1,Neutral,Neutral,0,0,0,0,,,,,,,,,,,,,0,4,4,4,,,,,,,,,,,,,,,,,,,,,,,,,,,,,,,,,,,,,,,,,,,,,,,,,,,,,,,,,,,,,,,,,,,,,,,,,,,,,,,,,,,,,1.6018518519898257,1.1149559000041336,161.98480039997958,None,ScrollUp,정답입니다,161.98480039997958,None,161.98480039997958,None,161.98480039997958,None,161.98480039997958,None,162.9927012999542,None,162.9927012999542,163.49639189988375,,,,,,,,,,,,,,,,205,2023-03-29_10h49.54.952,FishGame,2022.1.1,60.02804517649202,
,6,넌 헤퍼,5,Orange,A,2.458333333333334,2.233333333333333,ScrollDown,ScrollUp,Orange.png,1,Negative,Incongruent,0,0,0,0,,,,,,,,,,,,,0,5,5,5,,,,,,,,,,,,,,,,,,,,,,,,,,,,,,,,,,,,,,,,,,,,,,,,,,,,,,,,,,,,,,,,,,,,,,,,,,,,,,,,,,,,,1.1635802586873372,0.916654699947685,164.1235156999901,None,ScrollDown,정답입니다,164.1235156999901,None,164.1235156999901,None,164.1235156999901,None,164.1235156999901,None,164.9290620998945,None,164.9290620998945,165.42897140001878,,,,,,,,,,,,,,,,205,2023-03-29_10h49.54.952,FishGame,2022.1.1,60.02804517649202,
,7,넌 말쑥해,3,Orange,A,4.833333333333334,4.333333333333333,ScrollDown,ScrollUp,Orange.png,1,Neutral,Neutral,0,0,0,0,,,,,,,,,,,,,0,6,6,6,,,,,,,,,,,,,,,,,,,,,,,,,,,,,,,,,,,,,,,,,,,,,,,,,,,,,,,,,,,,,,,,,,,,,,,,,,,,,,,,,,,,,1.0447530845801036,1.248401900054887,166.0574471000582,None,ScrollDown,정답입니다,166.0574471000582,None,166.0574471000582,None,166.0574471000582,None,166.0574471000582,None,167.192975099897,None,167.192975099897,167.69560889992863,,,,,,,,,,,,,,,,205,2023-03-29_10h49.54.952,FishGame,2022.1.1,60.02804517649202,
,8,넌 투덜거려,5,Green,B,2.541666666666667,2.266666666666667,ScrollUp,ScrollDown,Green.png,1,Negative,Congruent,0,0,0,0,,,,,,,,,,,,,0,7,7,7,,,,,,,,,,,,,,,,,,,,,,,,,,,,,,,,,,,,,,,,,,,,,,,,,,,,,,,,,,,,,,,,,,,,,,,,,,,,,,,,,,,,,1.0648148159186046,1.0807043998502195,168.32926689996384,None,ScrollDown,오답입니다,168.32926689996384,None,168.32926689996384,None,168.32926689996384,None,168.32926689996384,None,169.29564889986068,None,169.29564889986068,169.79557139985263,,,,,,,,,,,,,,,,205,2023-03-29_10h49.54.952,FishGame,2022.1.1,60.02804517649202,
,9,넌 적극적이야,1,Orange,A,5.708333333333333,5.533333333333333,ScrollDown,ScrollUp,Orange.png,1,Positive,Congruent,0,0,0,0,,,,,,,,,,,,,0,8,8,8,,,,,,,,,,,,,,,,,,,,,,,,,,,,,,,,,,,,,,,,,,,,,,,,,,,,,,,,,,,,,,,,,,,,,,,,,,,,,,,,,,,,,1.0354938507080078,0.9169313998427242,170.43438769993372,None,ScrollDown,정답입니다,170.43438769993372,None,170.43438769993372,None,170.43438769993372,None,170.43438769993372,None,171.24254429992288,None,171.24254429992288,171.74260909995064,,,,,,,,,,,,,,,,205,2023-03-29_10h49.54.952,FishGame,2022.1.1,60.02804517649202,
,10,넌 재미없어,4,Green,B,2.625,2.966666666666667,ScrollUp,ScrollDown,Green.png,1,Negative,Congruent,0,0,0,0,,,,,,,,,,,,,0,9,9,9,,,,,,,,,,,,,,,,,,,,,,,,,,,,,,,,,,,,,,,,,,,,,,,,,,,,,,,,,,,,,,,,,,,,,,,,,,,,,,,,,,,,,1.5185185189669332,0.7649844000115991,172.37224489985965,None,NoResponse,무응답입니다,172.37224489985965,None,172.37224489985965,None,172.37224489985965,None,172.37224489985965,None,173.02891459991224,None,173.02891459991224,173.5288581000641,,,,,,,,,,,,,,,,205,2023-03-29_10h49.54.952,FishGame,2022.1.1,60.02804517649202,
,11,넌 명석해,2,Orange,A,5.875,4.033333333333333,ScrollDown,ScrollUp,Orange.png,1,Positive,Congruent,0,0,0,0,,,,,,,,,,,,,0,10,10,10,,,,,,,,,,,,,,,,,,,,,,,,,,,,,,,,,,,,,,,,,,,,,,,,,,,,,,,,,,,,,,,,,,,,,,,,,,,,,,,,,,,,,1.1111111094554265,0.9307230999693274,174.15703939995728,None,ScrollDown,정답입니다,174.15703939995728,None,174.15703939995728,None,174.15703939995728,None,174.15703939995728,None,174.9789529000409,None,174.9789529000409,175.4788134000264,,,,,,,,,,,,,,,,205,2023-03-29_10h49.54.952,FishGame,2022.1.1,60.02804517649202,
,12,나를 데려가줘,6,Green,B,0,0,ScrollDown,ScrollUp,Green.png,1,NonTarget,NonTarget,0,0,0,0,,,,,,,,,,,,,0,11,11,11,,,,,,,,,,,,,,,,,,,,,,,,,,,,,,,,,,,,,,,,,,,,,,,,,,,,,,,,,,,,,,,,,,,,,,,,,,,,,,,,,,,,,1.7978395173947017,0.9140062998048961,176.10962900007144,None,ScrollUp,오답입니다,176.10962900007144,None,176.10962900007144,None,176.10962900007144,None,176.10962900007144,None,176.90939090005122,None,176.90939090005122,177.4120068999473,,,,,,,,,,,,,,,,205,2023-03-29_10h49.54.952,FishGame,2022.1.1,60.02804517649202,
,13,넌 소심해,4,Orange,A,3,3.1,ScrollDown,ScrollUp,Orange.png,1,Negative,Incongruent,0,0,0,0,,,,,,,,,,,,,0,12,12,12,,,,,,,,,,,,,,,,,,,,,,,,,,,,,,,,,,,,,,,,,,,,,,,,,,,,,,,,,,,,,,,,,,,,,,,,,,,,,,,,,,,,,1.141975313425064,1.1972726001404226,178.0389439999126,None,ScrollDown,정답입니다,178.0389439999126,None,178.0389439999126,None,178.0389439999126,None,178.0389439999126,None,179.12602810002863,None,179.12602810002863,179.62868510000408,,,,,,,,,,,,,,,,205,2023-03-29_10h49.54.952,FishGame,2022.1.1,60.02804517649202,
,14,넌 합리적이야,2,Orange,A,5.583333333333333,4.733333333333333,ScrollDown,ScrollUp,Orange.png,1,Positive,Congruent,0,0,0,0,,,,,,,,,,,,,0,13,13,13,,,,,,,,,,,,,,,,,,,,,,,,,,,,,,,,,,,,,,,,,,,,,,,,,,,,,,,,,,,,,,,,,,,,,,,,,,,,,,,,,,,,,1.0910493781169255,1.2971079999115318,180.2574561999645,None,ScrollDown,정답입니다,180.2574561999645,None,180.2574561999645,None,180.2574561999645,None,180.2574561999645,None,181.44542729994282,None,181.44542729994282,181.94538119994104,,,,,,,,,,,,,,,,205,2023-03-29_10h49.54.952,FishGame,2022.1.1,60.02804517649202,
,15,넌 무자비해,5,Green,B,2.333333333333333,2.1,ScrollUp,ScrollDown,Green.png,1,Negative,Congruent,0,0,0,0,,,,,,,,,,,,,0,14,14,14,,,,,,,,,,,,,,,,,,,,,,,,,,,,,,,,,,,,,,,,,,,,,,,,,,,,,,,,,,,,,,,,,,,,,,,,,,,,,,,,,,,,,1.634259263674418,1.481558300089091,182.58699680003338,None,ScrollUp,정답입니다,182.58699680003338,None,182.58699680003338,None,182.58699680003338,None,182.58699680003338,None,183.95896039996296,None,183.95896039996296,184.45901150000282,,,,,,,,,,,,,,,,205,2023-03-29_10h49.54.952,FishGame,2022.1.1,60.02804517649202,
,16,나를 보내줘,6,Orange,A,0,0,ScrollUp,ScrollDown,Orange.png,1,NonTarget,NonTarget,0,0,0,0,,,,,,,,,,,,,0,15,15,15,,,,,,,,,,,,,,,,,,,,,,,,,,,,,,,,,,,,,,,,,,,,,,,,,,,,,,,,,,,,,,,,,,,,,,,,,,,,,,,,,,,,,1.6280864203969636,1.1489939000457525,185.08977119997144,None,ScrollUp,정답입니다,185.08977119997144,None,185.08977119997144,None,185.08977119997144,None,185.08977119997144,None,186.12596179987304,None,186.12596179987304,186.62863769987598,,,,,,,,,,,,,,,,205,2023-03-29_10h49.54.952,FishGame,2022.1.1,60.02804517649202,
,17,넌 현실적이야,3,Green,B,4.608695652173913,4.766666666666667,ScrollUp,ScrollDown,Green.png,1,Neutral,Neutral,0,0,0,0,,,,,,,,,,,,,0,16,16,16,,,,,,,,,,,,,,,,,,,,,,,,,,,,,,,,,,,,,,,,,,,,,,,,,,,,,,,,,,,,,,,,,,,,,,,,,,,,,,,,,,,,,1.609567902982235,1.4146328999195248,187.25535009987652,None,ScrollUp,정답입니다,187.25535009987652,None,187.25535009987652,None,187.25535009987652,None,187.25535009987652,None,188.55920549994335,None,188.55920549994335,189.06183929997496,,,,,,,,,,,,,,,,205,2023-03-29_10h49.54.952,FishGame,2022.1.1,60.02804517649202,
,18,넌 의리있어,1,Green,B,5.833333333333334,5.633333333333334,ScrollUp,ScrollDown,Green.png,1,Positive,Incongruent,0,0,0,0,,,,,,,,,,,,,0,17,17,17,,,,,,,,,,,,,,,,,,,,,,,,,,,,,,,,,,,,,,,,,,,,,,,,,,,,,,,,,,,,,,,,,,,,,,,,,,,,,,,,,,,,,1.9737654328346252,1.030269999988377,189.69136669998989,None,ScrollUp,정답입니다,189.69136669998989,None,189.69136669998989,None,189.69136669998989,None,189.69136669998989,None,190.6088240998797,None,190.6088240998797,191.10885889991187,,,,,,,,,,,,,,,,205,2023-03-29_10h49.54.952,FishGame,2022.1.1,60.02804517649202,
,19,넌 신경과민이야,5,Orange,A,2.541666666666667,2.166666666666667,ScrollDown,ScrollUp,Orange.png,1,Negative,Incongruent,0,0,0,0,,,,,,,,,,,,,0,18,18,18,,,,,,,,,,,,,,,,,,,,,,,,,,,,,,,,,,,,,,,,,,,,,,,,,,,,,,,,,,,,,,,,,,,,,,,,,,,,,,,,,,,,,1,1.284440099960193,191.74334539985284,None,ScrollDown,정답입니다,191.74334539985284,None,191.74334539985284,None,191.74334539985284,None,191.74334539985284,None,192.9091256998945,None,192.9091256998945,193.4117362999823,,,,,,,,,,,,,,,,205,2023-03-29_10h49.54.952,FishGame,2022.1.1,60.02804517649202,
,20,넌 편안해,1,Orange,A,5.916666666666666,5.866666666666666,ScrollDown,ScrollUp,Orange.png,1,Positive,Congruent,0,0,0,0,,,,,,,,,,,,,0,19,19,19,,,,,,,,,,,,,,,,,,,,,,,,,,,,,,,,,,,,,,,,,,,,,,,,,,,,,,,,,,,,,,,,,,,,,,,,,,,,,,,,,,,,,1.1496913582086563,1.1471709001343697,194.0402162000537,None,ScrollDown,정답입니다,194.0402162000537,None,194.0402162000537,None,194.0402162000537,None,194.0402162000537,None,195.07573159993626,None,195.07573159993626,195.57840100000612,,,,,,,,,,,,,,,,205,2023-03-29_10h49.54.952,FishGame,2022.1.1,60.02804517649202,
,21,넌 품위있어,2,Green,B,5.291666666666666,4.466666666666667,ScrollUp,ScrollDown,Green.png,1,Positive,Incongruent,0,0,0,0,,,,,,,,,,,,,0,20,20,20,,,,,,,,,,,,,,,,,,,,,,,,,,,,,,,,,,,,,,,,,,,,,,,,,,,,,,,,,,,,,,,,,,,,,,,,,,,,,,,,,,,,,2,1.093830999918282,196.2076540000271,None,ScrollUp,정답입니다,196.2076540000271,None,196.2076540000271,None,196.2076540000271,None,196.2076540000271,None,197.19228990003467,None,197.19228990003467,197.69490780006163,,,,,,,,,,,,,,,,205,2023-03-29_10h49.54.952,FishGame,2022.1.1,60.02804517649202,
,22,넌 빈틈없어,3,Orange,A,4.833333333333333,3.966666666666667,ScrollDown,ScrollUp,Orange.png,1,Neutral,Neutral,0,0,0,0,,,,,,,,,,,,,0,21,21,21,,,,,,,,,,,,,,,,,,,,,,,,,,,,,,,,,,,,,,,,,,,,,,,,,,,,,,,,,,,,,,,,,,,,,,,,,,,,,,,,,,,,,1,1.0506599999498576,198.32131769997068,None,ScrollDown,정답입니다,198.32131769997068,None,198.32131769997068,None,198.32131769997068,None,198.32131769997068,None,199.25893939984962,None,199.25893939984962,199.76163189997897,,,,,,,,,,,,,,,,205,2023-03-29_10h49.54.952,FishGame,2022.1.1,60.02804517649202,
,23,넌 상상력없어,4,Green,B,2.833333333333333,3.133333333333333,ScrollUp,ScrollDown,Green.png,1,Negative,Congruent,0,0,0,0,,,,,,,,,,,,,0,22,22,22,,,,,,,,,,,,,,,,,,,,,,,,,,,,,,,,,,,,,,,,,,,,,,,,,,,,,,,,,,,,,,,,,,,,,,,,,,,,,,,,,,,,,1.8364197413126628,0.9331210998352617,200.388156699948,None,ScrollUp,정답입니다,200.388156699948,None,200.388156699948,None,200.388156699948,None,200.388156699948,None,201.20892730006017,None,201.20892730006017,201.71159729990177,,,,,,,,,,,,,,,,205,2023-03-29_10h49.54.952,FishGame,2022.1.1,60.02804517649202,
,24,넌 지혜로워,2,Green,B,6.333333333333334,4.633333333333334,ScrollUp,ScrollDown,Green.png,1,Positive,Incongruent,0,0,0,0,,,,,,,,,,,,,0,23,23,23,,,,,,,,,,,,,,,,,,,,,,,,,,,,,,,,,,,,,,,,,,,,,,,,,,,,,,,,,,,,,,,,,,,,,,,,,,,,,,,,,,,,,1.7268518507480621,0.949910799972713,202.33985990006477,None,ScrollUp,정답입니다,202.33985990006477,None,202.33985990006477,None,202.33985990006477,None,202.33985990006477,None,203.17548340000212,None,203.17548340000212,203.6781319999136,,,,,,,,,,,,,,,,205,2023-03-29_10h49.54.952,FishGame,2022.1.1,60.02804517649202,
,25,넌 시끄러워,4,Orange,A,2.833333333333333,3.033333333333333,ScrollDown,ScrollUp,Orange.png,1,Negative,Incongruent,0,0,0,0,,,,,,,,,,,,,0,24,24,24,,,,,,,,,,,,,,,,,,,,,,,,,,,,,,,,,,,,,,,,,,,,,,,,,,,,,,,,,,,,,,,,,,,,,,,,,,,,,,,,,,,,,1.1450617164373398,0.8982150999363512,204.30754189984873,None,ScrollDown,정답입니다,204.30754189984873,None,204.30754189984873,None,204.30754189984873,None,204.30754189984873,None,205.09476969996467,None,205.09476969996467,205.59481749986298,,,,,,,,,,,,,,,,205,2023-03-29_10h49.54.952,FishGame,2022.1.1,60.02804517649202,
,26,넌 만사태평이야,3,Green,B,4,4.333333333333333,ScrollUp,ScrollDown,Green.png,1,Neutral,Neutral,0,0,0,0,,,,,,,,,,,,,0,25,25,25,,,,,,,,,,,,,,,,,,,,,,,,,,,,,,,,,,,,,,,,,,,,,,,,,,,,,,,,,,,,,,,,,,,,,,,,,,,,,,,,,,,,,1.7361111094554267,0.9668139000423253,206.22250299993902,None,ScrollUp,정답입니다,206.22250299993902,None,206.22250299993902,None,206.22250299993902,None,206.22250299993902,None,207.07548330002464,None,207.07548330002464,207.57811710005626,,,,,,,,,,,,,,,,205,2023-03-29_10h49.54.952,FishGame,2022.1.1,60.02804517649202,
,27,넌 붙임성있어,1,Orange,A,5.708333333333333,5.633333333333334,ScrollDown,ScrollUp,Orange.png,1,Positive,Congruent,0,0,0,0,,,,,,,,,,,,,0,26,26,26,,,,,,,,,,,,,,,,,,,,,,,,,,,,,,,,,,,,,,,,,,,,,,,,,,,,,,,,,,,,,,,,,,,,,,,,,,,,,,,,,,,,,1.0308642089366913,1.083345100050792,208.20808029989712,None,ScrollDown,정답입니다,208.20808029989712,None,208.20808029989712,None,208.20808029989712,None,208.20808029989712,None,209.17544150003232,None,209.17544150003232,209.67809519986622,,,,,,,,,,,,,,,,205,2023-03-29_10h49.54.952,FishGame,2022.1.1,60.02804517649202,
,28,넌 영리해,2,Orange,A,6,4.033333333333333,ScrollDown,ScrollUp,Orange.png,1,Positive,Congruent,0,0,0,0,,,,,,,,,,,,,0,27,27,27,,,,,,,,,,,,,,,,,,,,,,,,,,,,,,,,,,,,,,,,,,,,,,,,,,,,,,,,,,,,,,,,,,,,,,,,,,,,,,,,,,,,,1.1049382785956066,1.0000047001522034,210.31048249988817,None,ScrollDown,정답입니다,210.31048249988817,None,210.31048249988817,None,210.31048249988817,None,210.31048249988817,None,211.19205229985528,None,211.19205229985528,211.69464139989577,,,,,,,,,,,,,,,,205,2023-03-29_10h49.54.952,FishGame,2022.1.1,60.02804517649202,
,29,넌 열심이야,1,Green,B,6.041666666666667,5.833333333333333,ScrollUp,ScrollDown,Green.png,1,Positive,Incongruent,0,0,0,0,,,,,,,,,,,,,0,28,28,28,,,,,,,,,,,,,,,,,,,,,,,,,,,,,,,,,,,,,,,,,,,,,,,,,,,,,,,,,,,,,,,,,,,,,,,,,,,,,,,,,,,,,1.9243827362855275,1.048172599868849,212.32521110004745,None,ScrollUp,정답입니다,212.32521110004745,None,212.32521110004745,None,212.32521110004745,None,212.32521110004745,None,213.25869409996085,None,213.25869409996085,213.76133670005947,,,,,,,,,,,,,,,,205,2023-03-29_10h49.54.952,FishGame,2022.1.1,60.02804517649202,
,30,넌 인기없어,4,Green,B,3,3.3,ScrollUp,ScrollDown,Green.png,1,Negative,Congruent,0,0,0,0,,,,,,,,,,,,,0,29,29,29,,,,,,,,,,,,,,,,,,,,,,,,,,,,,,,,,,,,,,,,,,,,,,,,,,,,,,,,,,,,,,,,,,,,,,,,,,,,,,,,,,,,,1.9629629850387573,0.8999032999854535,214.38710119994357,None,ScrollUp,정답입니다,214.38710119994357,None,214.38710119994357,None,214.38710119994357,None,214.38710119994357,None,215.17522950004786,None,215.17522950004786,215.67792130005546,,,,,,,,,,,,,,,,205,2023-03-29_10h49.54.952,FishGame,2022.1.1,60.02804517649202,
,31,넌 익살스러워,3,Orange,A,4.708333333333334,4.833333333333333,ScrollDown,ScrollUp,Orange.png,1,Neutral,Neutral,0,0,0,0,,,,,,,,,,,,,0,30,30,30,,,,,,,,,,,,,,,,,,,,,,,,,,,,,,,,,,,,,,,,,,,,,,,,,,,,,,,,,,,,,,,,,,,,,,,,,,,,,,,,,,,,,1,0.9142002000007778,216.30746180005372,None,ScrollDown,정답입니다,216.30746180005372,None,216.30746180005372,None,216.30746180005372,None,216.30746180005372,None,217.1112011000514,None,217.1112011000514,217.61120759998448,,,,,,,,,,,,,,,,205,2023-03-29_10h49.54.952,FishGame,2022.1.1,60.02804517649202,
,32,넌 이기적이야,5,Green,B,2.291666666666667,2.333333333333333,ScrollUp,ScrollDown,Green.png,1,Negative,Congruent,0,0,0,0,,,,,,,,,,,,,0,31,31,31,,,,,,,,,,,,,,,,,,,,,,,,,,,,,,,,,,,,,,,,,,,,,,,,,,,,,,,,,,,,,,,,,,,,,,,,,,,,,,,,,,,,,1.765432099501292,1.0165748000144958,218.23413609992713,None,ScrollUp,정답입니다,218.23413609992713,None,218.23413609992713,None,218.23413609992713,None,218.23413609992713,None,219.14188509993255,None,219.14188509993255,219.6444864999503,,,,,,,,,,,,,,,,205,2023-03-29_10h49.54.952,FishGame,2022.1.1,60.02804517649202,
,33,나를 데려가줘,6,Green,B,0,0,ScrollDown,ScrollUp,Green.png,1,NonTarget,NonTarget,0,0,0,0,,,,,,,,,,,,,0,32,32,32,,,,,,,,,,,,,,,,,,,,,,,,,,,,,,,,,,,,,,,,,,,,,,,,,,,,,,,,,,,,,,,,,,,,,,,,,,,,,,,,,,,,,1,1.4483797000721097,220.26690399996005,None,ScrollDown,정답입니다,220.26690399996005,None,220.26690399996005,None,220.26690399996005,None,220.26690399996005,None,221.6111677000299,None,221.6111677000299,222.11120459996164,,,,,,,,,,,,,,,,205,2023-03-29_10h49.54.952,FishGame,2022.1.1,60.02804517649202,
,34,넌 기회주의자야,5,Orange,A,2.875,2.133333333333333,ScrollDown,ScrollUp,Orange.png,1,Negative,Incongruent,0,0,0,0,,,,,,,,,,,,,0,33,33,33,,,,,,,,,,,,,,,,,,,,,,,,,,,,,,,,,,,,,,,,,,,,,,,,,,,,,,,,,,,,,,,,,,,,,,,,,,,,,,,,,,,,,1,1.2802202000748366,222.74605909991078,None,ScrollDown,정답입니다,222.74605909991078,None,222.74605909991078,None,222.74605909991078,None,222.74605909991078,None,223.90815460006706,None,223.90815460006706,224.40818979986943,,,,,,,,,,,,,,,,205,2023-03-29_10h49.54.952,FishGame,2022.1.1,60.02804517649202,
,1,넌 미성숙해,4,Orange,A,3,3.2,ScrollDown,ScrollUp,Orange.png,2,Negative,Incongruent,0,0,0,0,,,,,,,,,,,,,,,,,0,0,0,0,,,,,,,,,,,,,,,,,,,,,,,,,,,,,,,,,,,,,,,,256.31056410004385,257.8106992000248,257.8440292000305,258.81058990000747,258.84387920005247,259.79383399989456,259.79383399989456,None,,,,,,,,,,,,,,,,,,,,,,,,,,,,,,,,,,1.0308642089366913,1.3451467000413686,260.89413350005634,None,ScrollDown,정답입니다,260.89413350005634,None,260.89413350005634,None,260.89413350005634,None,260.89413350005634,None,262.1269672999624,None,262.1269672999624,262.62698479997925,224.90817529987544,None,224.90817529987544,None,0.11018518,-0.09074074,1,0,0,0.016143709886819124,None,254.90753749990836,None,,,205,2023-03-29_10h49.54.952,FishGame,2022.1.1,60.02804517649202,
,2,넌 반사회적이야,5,Green,B,2.416666666666667,2.033333333333333,ScrollUp,ScrollDown,Green.png,2,Negative,Congruent,0,0,0,0,,,,,,,,,,,,,,,,,0,1,1,1,,,,,,,,,,,,,,,,,,,,,,,,,,,,,,,,,,,,,,,,,,,,,,,,,,,,,,,,,,,,,,,,,,,,,,,,,,,,,,,,,1.8425925970077515,1.1167232999578118,263.25253279996105,None,ScrollUp,정답입니다,263.25253279996105,None,263.25253279996105,None,263.25253279996105,None,263.25253279996105,None,264.25768869998865,None,264.25768869998865,264.76040759985335,,,,,,,,,,,,,,,,205,2023-03-29_10h49.54.952,FishGame,2022.1.1,60.02804517649202,
,3,넌 유능해,2,Orange,A,6.208333333333333,4.433333333333334,ScrollDown,ScrollUp,Orange.png,2,Positive,Congruent,0,0,0,0,,,,,,,,,,,,,,,,,0,2,2,2,,,,,,,,,,,,,,,,,,,,,,,,,,,,,,,,,,,,,,,,,,,,,,,,,,,,,,,,,,,,,,,,,,,,,,,,,,,,,,,,,1.095679019888242,0.9474245999008417,265.38836520002224,None,ScrollDown,정답입니다,265.38836520002224,None,265.38836520002224,None,265.38836520002224,None,265.38836520002224,None,266.22698579984717,None,266.22698579984717,266.72697089985013,,,,,,,,,,,,,,,,205,2023-03-29_10h49.54.952,FishGame,2022.1.1,60.02804517649202,
,4,넌 능숙해,2,Green,B,5.666666666666667,4.733333333333333,ScrollUp,ScrollDown,Green.png,2,Positive,Incongruent,0,0,0,0,,,,,,,,,,,,,,,,,0,3,3,3,,,,,,,,,,,,,,,,,,,,,,,,,,,,,,,,,,,,,,,,,,,,,,,,,,,,,,,,,,,,,,,,,,,,,,,,,,,,,,,,,1.8348765522241592,0.9648854001425207,267.3628040999174,None,ScrollUp,정답입니다,267.3628040999174,None,267.3628040999174,None,267.3628040999174,None,267.3628040999174,None,268.2239345998969,None,268.2239345998969,268.72393339988776,,,,,,,,,,,,,,,,205,2023-03-29_10h49.54.952,FishGame,2022.1.1,60.02804517649202,
,5,넌 진부해,4,Green,B,2.458333333333333,3.166666666666667,ScrollUp,ScrollDown,Green.png,2,Negative,Congruent,0,0,0,0,,,,,,,,,,,,,,,,,0,4,4,4,,,,,,,,,,,,,,,,,,,,,,,,,,,,,,,,,,,,,,,,,,,,,,,,,,,,,,,,,,,,,,,,,,,,,,,,,,,,,,,,,1.6959876591960588,0.8530886999797076,269.3500397000462,None,ScrollUp,정답입니다,269.3500397000462,None,269.3500397000462,None,269.3500397000462,None,269.3500397000462,None,270.09376770001836,None,270.09376770001836,270.59361530002207,,,,,,,,,,,,,,,,205,2023-03-29_10h49.54.952,FishGame,2022.1.1,60.02804517649202,
,6,나를 보내줘,6,Orange,A,0,0,ScrollUp,ScrollDown,Orange.png,2,NonTarget,NonTarget,0,0,0,0,,,,,,,,,,,,,,,,,0,5,5,5,,,,,,,,,,,,,,,,,,,,,,,,,,,,,,,,,,,,,,,,,,,,,,,,,,,,,,,,,,,,,,,,,,,,,,,,,,,,,,,,,1.6913580298423767,1.7499853000044823,271.2183145999443,None,ScrollUp,정답입니다,271.2183145999443,None,271.2183145999443,None,271.2183145999443,None,271.2183145999443,None,272.8603376999963,None,272.8603376999963,273.36455739988014,,,,,,,,,,,,,,,,205,2023-03-29_10h49.54.952,FishGame,2022.1.1,60.02804517649202,
,7,넌 엄격해,3,Orange,A,4.166666666666666,4.1,ScrollDown,ScrollUp,Orange.png,2,Neutral,Neutral,0,0,0,0,,,,,,,,,,,,,,,,,0,6,6,6,,,,,,,,,,,,,,,,,,,,,,,,,,,,,,,,,,,,,,,,,,,,,,,,,,,,,,,,,,,,,,,,,,,,,,,,,,,,,,,,,1.2067901243766148,0.9802625998854637,274.00133119989187,None,ScrollDown,정답입니다,274.00133119989187,None,274.00133119989187,None,274.00133119989187,None,274.00133119989187,None,274.8738136999309,None,274.8738136999309,275.37386039993726,,,,,,,,,,,,,,,,205,2023-03-29_10h49.54.952,FishGame,2022.1.1,60.02804517649202,
,8,나를 보내줘,6,Orange,A,0,0,ScrollUp,ScrollDown,Orange.png,2,NonTarget,NonTarget,0,0,0,0,,,,,,,,,,,,,,,,,0,7,7,7,,,,,,,,,,,,,,,,,,,,,,,,,,,,,,,,,,,,,,,,,,,,,,,,,,,,,,,,,,,,,,,,,,,,,,,,,,,,,,,,,1.663580241302649,0.9983846999239177,275.99588659987785,None,ScrollUp,정답입니다,275.99588659987785,None,275.99588659987785,None,275.99588659987785,None,275.99588659987785,None,276.89049989986233,None,276.89049989986233,277.3935144999996,,,,,,,,,,,,,,,,205,2023-03-29_10h49.54.952,FishGame,2022.1.1,60.02804517649202,
,9,넌 대담해,3,Green,B,4.875,4.866666666666666,ScrollUp,ScrollDown,Green.png,2,Neutral,Neutral,0,0,0,0,,,,,,,,,,,,,,,,,0,8,8,8,,,,,,,,,,,,,,,,,,,,,,,,,,,,,,,,,,,,,,,,,,,,,,,,,,,,,,,,,,,,,,,,,,,,,,,,,,,,,,,,,1.5833333345750966,1.033055700128898,278.0201167999767,None,ScrollUp,정답입니다,278.0201167999767,None,278.0201167999767,None,278.0201167999767,None,278.0201167999767,None,278.9436190999113,None,278.9436190999113,279.4434354000259,,,,,,,,,,,,,,,,205,2023-03-29_10h49.54.952,FishGame,2022.1.1,60.02804517649202,
,10,넌 꾸준해,1,Orange,A,5.916666666666668,5.8,ScrollDown,ScrollUp,Orange.png,2,Positive,Congruent,0,0,0,0,,,,,,,,,,,,,,,,,0,9,9,9,,,,,,,,,,,,,,,,,,,,,,,,,,,,,,,,,,,,,,,,,,,,,,,,,,,,,,,,,,,,,,,,,,,,,,,,,,,,,,,,,1.3518518482645354,0.881339899962768,280.0717652000021,None,ScrollDown,정답입니다,280.0717652000021,None,280.0717652000021,None,280.0717652000021,None,280.0717652000021,None,280.8432950999122,None,280.8432950999122,281.3432674999349,,,,,,,,,,,,,,,,205,2023-03-29_10h49.54.952,FishGame,2022.1.1,60.02804517649202,
,11,나를 데려가줘,6,Green,B,0,0,ScrollDown,ScrollUp,Green.png,2,NonTarget,NonTarget,0,0,0,0,,,,,,,,,,,,,,,,,0,10,10,10,,,,,,,,,,,,,,,,,,,,,,,,,,,,,,,,,,,,,,,,,,,,,,,,,,,,,,,,,,,,,,,,,,,,,,,,,,,,,,,,,1.3132715995113053,1.4319424000568688,281.9820763999596,None,ScrollDown,정답입니다,281.9820763999596,None,281.9820763999596,None,281.9820763999596,None,281.9820763999596,None,283.3072430999018,None,283.3072430999018,283.8072190999519,,,,,,,,,,,,,,,,205,2023-03-29_10h49.54.952,FishGame,2022.1.1,60.02804517649202,
,12,넌 독선적이야,5,Orange,A,2.458333333333333,1.933333333333333,ScrollDown,ScrollUp,Orange.png,2,Negative,Incongruent,0,0,0,0,,,,,,,,,,,,,,,,,0,11,11,11,,,,,,,,,,,,,,,,,,,,,,,,,,,,,,,,,,,,,,,,,,,,,,,,,,,,,,,,,,,,,,,,,,,,,,,,,,,,,,,,,1.0632716019948323,1.3141431000549346,284.438336199848,None,ScrollDown,정답입니다,284.438336199848,None,284.438336199848,None,284.438336199848,None,284.438336199848,None,285.6431944000069,None,285.6431944000069,286.14324290002696,,,,,,,,,,,,,,,,205,2023-03-29_10h49.54.952,FishGame,2022.1.1,60.02804517649202,
,13,나를 보내줘,6,Orange,A,0,0,ScrollUp,ScrollDown,Orange.png,2,NonTarget,NonTarget,0,0,0,0,,,,,,,,,,,,,,,,,0,12,12,12,,,,,,,,,,,,,,,,,,,,,,,,,,,,,,,,,,,,,,,,,,,,,,,,,,,,,,,,,,,,,,,,,,,,,,,,,,,,,,,,,1.5632716032365956,1.0792350999545306,286.7676425999962,None,ScrollUp,정답입니다,286.7676425999962,None,286.7676425999962,None,286.7676425999962,None,286.7676425999962,None,287.74052089988254,None,287.74052089988254,288.24317130004056,,,,,,,,,,,,,,,,205,2023-03-29_10h49.54.952,FishGame,2022.1.1,60.02804517649202,
,14,넌 책임감있어,1,Green,B,6.347826086956522,6,ScrollUp,ScrollDown,Green.png,2,Positive,Incongruent,0,0,0,0,,,,,,,,,,,,,,,,,0,13,13,13,,,,,,,,,,,,,,,,,,,,,,,,,,,,,,,,,,,,,,,,,,,,,,,,,,,,,,,,,,,,,,,,,,,,,,,,,,,,,,,,,1.2083333383003871,0.9954516999423504,288.86963570001535,None,ScrollDown,오답입니다,288.86963570001535,None,288.86963570001535,None,288.86963570001535,None,288.86963570001535,None,289.75707220006734,None,289.75707220006734,290.25975689990446,,,,,,,,,,,,,,,,205,2023-03-29_10h49.54.952,FishGame,2022.1.1,60.02804517649202,
,15,넌 문학적이야,3,Orange,A,4.708333333333334,4.333333333333333,ScrollDown,ScrollUp,Orange.png,2,Neutral,Neutral,0,0,0,0,,,,,,,,,,,,,,,,,0,14,14,14,,,,,,,,,,,,,,,,,,,,,,,,,,,,,,,,,,,,,,,,,,,,,,,,,,,,,,,,,,,,,,,,,,,,,,,,,,,,,,,,,1.1712963034709294,1.248147299978882,290.88818720006384,None,ScrollDown,정답입니다,290.88818720006384,None,290.88818720006384,None,290.88818720006384,None,290.88818720006384,None,292.02376509993337,None,292.02376509993337,292.526407700032,,,,,,,,,,,,,,,,205,2023-03-29_10h49.54.952,FishGame,2022.1.1,60.02804517649202,
,16,넌 재미있어,1,Green,B,5.875,5.7,ScrollUp,ScrollDown,Green.png,2,Positive,Incongruent,0,0,0,0,,,,,,,,,,,,,,,,,0,15,15,15,,,,,,,,,,,,,,,,,,,,,,,,,,,,,,,,,,,,,,,,,,,,,,,,,,,,,,,,,,,,,,,,,,,,,,,,,,,,,,,,,1.5740740758677325,1.0789151000790298,293.1515711999964,None,ScrollUp,정답입니다,293.1515711999964,None,293.1515711999964,None,293.1515711999964,None,293.1515711999964,None,294.12640159996226,None,294.12640159996226,294.62636539991945,,,,,,,,,,,,,,,,205,2023-03-29_10h49.54.952,FishGame,2022.1.1,60.02804517649202,
,17,나를 데려가줘,6,Green,B,0,0,ScrollDown,ScrollUp,Green.png,2,NonTarget,NonTarget,0,0,0,0,,,,,,,,,,,,,,,,,0,16,16,16,,,,,,,,,,,,,,,,,,,,,,,,,,,,,,,,,,,,,,,,,,,,,,,,,,,,,,,,,,,,,,,,,,,,,,,,,,,,,,,,,1.3533950621883073,1.3456117999739945,295.24885079986416,None,ScrollDown,정답입니다,295.24885079986416,None,295.24885079986416,None,295.24885079986416,None,295.24885079986416,None,296.4903637999669,None,296.4903637999669,296.9900299999863,,,,,,,,,,,,,,,,205,2023-03-29_10h49.54.952,FishGame,2022.1.1,60.02804517649202,
,18,넌 협력적이야,1,Orange,A,5.625,5.633333333333334,ScrollDown,ScrollUp,Orange.png,2,Positive,Congruent,0,0,0,0,,,,,,,,,,,,,,,,,0,17,17,17,,,,,,,,,,,,,,,,,,,,,,,,,,,,,,,,,,,,,,,,,,,,,,,,,,,,,,,,,,,,,,,,,,,,,,,,,,,,,,,,,1.1250000099341075,1.433332199929282,297.6151938000694,None,ScrollDown,정답입니다,297.6151938000694,None,297.6151938000694,None,297.6151938000694,None,297.6151938000694,None,298.94004829996265,None,298.94004829996265,299.4402677998878,,,,,,,,,,,,,,,,205,2023-03-29_10h49.54.952,FishGame,2022.1.1,60.02804517649202,
,19,넌 평범해,3,Green,B,4.333333333333332,4.233333333333333,ScrollUp,ScrollDown,Green.png,2,Neutral,Neutral,0,0,0,0,,,,,,,,,,,,,,,,,0,18,18,18,,,,,,,,,,,,,,,,,,,,,,,,,,,,,,,,,,,,,,,,,,,,,,,,,,,,,,,,,,,,,,,,,,,,,,,,,,,,,,,,,1.4444444415469964,1.2955099998507649,300.06791920005344,None,ScrollDown,오답입니다,300.06791920005344,None,300.06791920005344,None,300.06791920005344,None,300.06791920005344,None,301.2569516999647,None,301.2569516999647,301.7596125998534,,,,,,,,,,,,,,,,205,2023-03-29_10h49.54.952,FishGame,2022.1.1,60.02804517649202,
,20,넌 오만해,5,Orange,A,2.333333333333333,2,ScrollDown,ScrollUp,Orange.png,2,Negative,Incongruent,0,0,0,0,,,,,,,,,,,,,,,,,0,19,19,19,,,,,,,,,,,,,,,,,,,,,,,,,,,,,,,,,,,,,,,,,,,,,,,,,,,,,,,,,,,,,,,,,,,,,,,,,,,,,,,,,1.0030864079793294,1.9952919001225382,302.38617269997485,None,ScrollDown,정답입니다,302.38617269997485,None,302.38617269997485,None,302.38617269997485,None,302.38617269997485,None,304.2735329999123,None,304.2735329999123,304.77621449995786,,,,,,,,,,,,,,,,205,2023-03-29_10h49.54.952,FishGame,2022.1.1,60.02804517649202,
,21,넌 운이없어,4,Green,B,3,3.466666666666667,ScrollUp,ScrollDown,Green.png,2,Negative,Congruent,0,0,0,0,,,,,,,,,,,,,,,,,0,20,20,20,,,,,,,,,,,,,,,,,,,,,,,,,,,,,,,,,,,,,,,,,,,,,,,,,,,,,,,,,,,,,,,,,,,,,,,,,,,,,,,,,1.8966049353281658,1.1628075998742133,305.4010157000739,None,ScrollUp,정답입니다,305.4010157000739,None,305.4010157000739,None,305.4010157000739,None,305.4010157000739,None,306.4565196998883,None,306.4565196998883,306.95649709994905,,,,,,,,,,,,,,,,205,2023-03-29_10h49.54.952,FishGame,2022.1.1,60.02804517649202,
,22,넌 창조적이야,2,Green,B,6.125,4.633333333333334,ScrollUp,ScrollDown,Green.png,2,Positive,Incongruent,0,0,0,0,,,,,,,,,,,,,,,,,0,21,21,21,,,,,,,,,,,,,,,,,,,,,,,,,,,,,,,,,,,,,,,,,,,,,,,,,,,,,,,,,,,,,,,,,,,,,,,,,,,,,,,,,1.7268518507480621,0.9676415999419987,307.5857514999807,None,ScrollUp,정답입니다,307.5857514999807,None,307.5857514999807,None,307.5857514999807,None,307.5857514999807,None,308.44293019990437,None,308.44293019990437,308.9428000000771,,,,,,,,,,,,,,,,205,2023-03-29_10h49.54.952,FishGame,2022.1.1,60.02804517649202,
,23,나를 보내줘,6,Orange,A,0,0,ScrollUp,ScrollDown,Orange.png,2,NonTarget,NonTarget,0,0,0,0,,,,,,,,,,,,,,,,,0,22,22,22,,,,,,,,,,,,,,,,,,,,,,,,,,,,,,,,,,,,,,,,,,,,,,,,,,,,,,,,,,,,,,,,,,,,,,,,,,,,,,,,,1.1141975373029709,0.9165635998360813,309.56741130002774,None,ScrollDown,오답입니다,309.56741130002774,None,309.56741130002774,None,309.56741130002774,None,309.56741130002774,None,310.37343919998966,None,310.37343919998966,310.87307649990544,,,,,,,,,,,,,,,,205,2023-03-29_10h49.54.952,FishGame,2022.1.1,60.02804517649202,
,24,넌 통찰력있어,2,Orange,A,6.5,4.8,ScrollDown,ScrollUp,Orange.png,2,Positive,Congruent,0,0,0,0,,,,,,,,,,,,,,,,,0,23,23,23,,,,,,,,,,,,,,,,,,,,,,,,,,,,,,,,,,,,,,,,,,,,,,,,,,,,,,,,,,,,,,,,,,,,,,,,,,,,,,,,,1.2067901243766148,1.731376200215891,311.5009494998958,None,ScrollDown,정답입니다,311.5009494998958,None,311.5009494998958,None,311.5009494998958,None,311.5009494998958,None,313.12309559993446,None,313.12309559993446,313.6260537998751,,,,,,,,,,,,,,,,205,2023-03-29_10h49.54.952,FishGame,2022.1.1,60.02804517649202,
,25,넌 경솔해,5,Green,B,2.458333333333333,2.266666666666667,ScrollUp,ScrollDown,Green.png,2,Negative,Congruent,0,0,0,0,,,,,,,,,,,,,,,,,0,24,24,24,,,,,,,,,,,,,,,,,,,,,,,,,,,,,,,,,,,,,,,,,,,,,,,,,,,,,,,,,,,,,,,,,,,,,,,,,,,,,,,,,1.8287036965290706,1.062080099945888,314.2503102000337,None,ScrollUp,정답입니다,314.2503102000337,None,314.2503102000337,None,314.2503102000337,None,314.2503102000337,None,315.20669939997606,None,315.20669939997606,315.7093384000473,,,,,,,,,,,,,,,,205,2023-03-29_10h49.54.952,FishGame,2022.1.1,60.02804517649202,
,26,넌 초조해,4,Orange,A,2.916666666666667,3.133333333333333,ScrollDown,ScrollUp,Orange.png,2,Negative,Incongruent,0,0,0,0,,,,,,,,,,,,,,,,,0,25,25,25,,,,,,,,,,,,,,,,,,,,,,,,,,,,,,,,,,,,,,,,,,,,,,,,,,,,,,,,,,,,,,,,,,,,,,,,,,,,,,,,,1.1388888855775197,1.530457500135526,316.3410362000577,None,ScrollDown,정답입니다,316.3410362000577,None,316.3410362000577,None,316.3410362000577,None,316.3410362000577,None,317.7565130998846,None,317.7565130998846,318.2592068000231,,,,,,,,,,,,,,,,205,2023-03-29_10h49.54.952,FishGame,2022.1.1,60.02804517649202,
,27,넌 무관심해,4,Green,B,2.833333333333333,2.9,ScrollUp,ScrollDown,Green.png,2,Negative,Congruent,0,0,0,0,,,,,,,,,,,,,,,,,0,26,26,26,,,,,,,,,,,,,,,,,,,,,,,,,,,,,,,,,,,,,,,,,,,,,,,,,,,,,,,,,,,,,,,,,,,,,,,,,,,,,,,,,1.8611111144224803,1.0457351999357343,318.8846986000426,None,ScrollUp,정답입니다,318.8846986000426,None,318.8846986000426,None,318.8846986000426,None,318.8846986000426,None,319.8231782000512,None,319.8231782000512,320.3258245000616,,,,,,,,,,,,,,,,205,2023-03-29_10h49.54.952,FishGame,2022.1.1,60.02804517649202,
,28,넌 감성적이야,3,Green,B,4.125,4.166666666666667,ScrollUp,ScrollDown,Green.png,2,Neutral,Neutral,0,0,0,0,,,,,,,,,,,,,,,,,0,27,27,27,,,,,,,,,,,,,,,,,,,,,,,,,,,,,,,,,,,,,,,,,,,,,,,,,,,,,,,,,,,,,,,,,,,,,,,,,,,,,,,,,1.56944444651405,0.9625070998445153,320.9492357999552,None,ScrollUp,정답입니다,320.9492357999552,None,320.9492357999552,None,320.9492357999552,None,320.9492357999552,None,321.8065017000772,None,321.8065017000772,322.30914660007693,,,,,,,,,,,,,,,,205,2023-03-29_10h49.54.952,FishGame,2022.1.1,60.02804517649202,
,29,넌 배려심있어,1,Orange,A,6.083333333333333,5.5,ScrollDown,ScrollUp,Orange.png,2,Positive,Congruent,0,0,0,0,,,,,,,,,,,,,,,,,0,28,28,28,,,,,,,,,,,,,,,,,,,,,,,,,,,,,,,,,,,,,,,,,,,,,,,,,,,,,,,,,,,,,,,,,,,,,,,,,,,,,,,,,1.192901223897934,1.2813059000764042,322.9376507999841,None,ScrollDown,정답입니다,322.9376507999841,None,322.9376507999841,None,322.9376507999841,None,322.9376507999841,None,324.10911590000615,None,324.10911590000615,324.6091527000535,,,,,,,,,,,,,,,,205,2023-03-29_10h49.54.952,FishGame,2022.1.1,60.02804517649202,
,30,넌 숨김없어,3,Orange,A,4.5,4.933333333333334,ScrollDown,ScrollUp,Orange.png,2,Neutral,Neutral,0,0,0,0,,,,,,,,,,,,,,,,,0,29,29,29,,,,,,,,,,,,,,,,,,,,,,,,,,,,,,,,,,,,,,,,,,,,,,,,,,,,,,,,,,,,,,,,,,,,,,,,,,,,,,,,,1.0879629751046498,1.2289497999008745,325.24257240002044,None,ScrollDown,정답입니다,325.24257240002044,None,325.24257240002044,None,325.24257240002044,None,325.24257240002044,None,326.35637649986893,None,326.35637649986893,326.8590656998567,,,,,,,,,,,,,,,,205,2023-03-29_10h49.54.952,FishGame,2022.1.1,60.02804517649202,
,31,넌 훌륭해,2,Green,B,5.916666666666667,4.033333333333333,ScrollUp,ScrollDown,Green.png,2,Positive,Incongruent,0,0,0,0,,,,,,,,,,,,,,,,,0,30,30,30,,,,,,,,,,,,,,,,,,,,,,,,,,,,,,,,,,,,,,,,,,,,,,,,,,,,,,,,,,,,,,,,,,,,,,,,,,,,,,,,,1.8225308656692505,1.1289164000190794,327.48453060002066,None,ScrollUp,정답입니다,327.48453060002066,None,327.48453060002066,None,327.48453060002066,None,327.48453060002066,None,328.5063551000785,None,328.5063551000785,329.00899909995496,,,,,,,,,,,,,,,,205,2023-03-29_10h49.54.952,FishGame,2022.1.1,60.02804517649202,
,32,넌 슬기로워,2,Orange,A,6.166666666666667,4.1,ScrollDown,ScrollUp,Orange.png,2,Positive,Congruent,0,0,0,0,,,,,,,,,,,,,,,,,0,31,31,31,,,,,,,,,,,,,,,,,,,,,,,,,,,,,,,,,,,,,,,,,,,,,,,,,,,,,,,,,,,,,,,,,,,,,,,,,,,,,,,,,1.0771604776382446,0.948601100128144,329.63558780006133,None,ScrollDown,정답입니다,329.63558780006133,None,329.63558780006133,None,329.63558780006133,None,329.63558780006133,None,330.4757355998736,None,330.4757355998736,330.9756624000147,,,,,,,,,,,,,,,,205,2023-03-29_10h49.54.952,FishGame,2022.1.1,60.02804517649202,
,33,넌 냉혹해,5,Orange,A,2.583333333333333,2.1,ScrollDown,ScrollUp,Orange.png,2,Negative,Incongruent,0,0,0,0,,,,,,,,,,,,,,,,,0,32,32,32,,,,,,,,,,,,,,,,,,,,,,,,,,,,,,,,,,,,,,,,,,,,,,,,,,,,,,,,,,,,,,,,,,,,,,,,,,,,,,,,,1.126543199022611,1.2499256001319736,331.6026693000458,None,ScrollDown,정답입니다,331.6026693000458,None,331.6026693000458,None,331.6026693000458,None,331.6026693000458,None,332.74236440006644,None,332.74236440006644,333.24229829991236,,,,,,,,,,,,,,,,205,2023-03-29_10h49.54.952,FishGame,2022.1.1,60.02804517649202,
,34,나를 데려가줘,6,Green,B,0,0,ScrollDown,ScrollUp,Green.png,2,NonTarget,NonTarget,0,0,0,0,,,,,,,,,,,,,,,,,0,33,33,33,,,,,,,,,,,,,,,,,,,,,,,,,,,,,,,,,,,,,,,,,,,,,,,,,,,,,,,,,,,,,,,,,,,,,,,,,,,,,,,,,1,1.7156309999991208,333.8744711999316,None,ScrollDown,정답입니다,333.8744711999316,None,333.8744711999316,None,333.8744711999316,None,333.8744711999316,None,335.48932719998993,None,335.48932719998993,335.98945049988106,,,,,,,,,,,,,,,,205,2023-03-29_10h49.54.952,FishGame,2022.1.1,60.02804517649202,
,35,넌 편파적이야,5,Green,B,2.125,2,ScrollUp,ScrollDown,Green.png,2,Negative,Congruent,0,0,0,0,,,,,,,,,,,,,,,,,0,34,34,34,,,,,,,,,,,,,,,,,,,,,,,,,,,,,,,,,,,,,,,,,,,,,,,,,,,,,,,,,,,,,,,,,,,,,,,,,,,,,,,,,1.7947530895471573,1.1000327998772264,336.6173799999524,None,ScrollUp,정답입니다,336.6173799999524,None,336.6173799999524,None,336.6173799999524,None,336.6173799999524,None,337.6090036998503,None,337.6090036998503,338.10887290001847,,,,,,,,,,,,,,,,205,2023-03-29_10h49.54.952,FishGame,2022.1.1,60.02804517649202,
,36,넌 슬퍼,4,Orange,A,2.583333333333333,3.066666666666667,ScrollDown,ScrollUp,Orange.png,2,Negative,Incongruent,0,0,0,0,,,,,,,,,,,,,,,,,0,35,35,35,,,,,,,,,,,,,,,,,,,,,,,,,,,,,,,,,,,,,,,,,,,,,,,,,,,,,,,,,,,,,,,,,,,,,,,,,,,,,,,,,1,1.3785190000198781,338.73234410001896,None,ScrollDown,정답입니다,338.73234410001896,None,338.73234410001896,None,338.73234410001896,None,338.73234410001896,None,340.0087283998728,None,340.0087283998728,340.50875260005705,,,,,,,,,,,,,,,,205,2023-03-29_10h49.54.952,FishGame,2022.1.1,60.02804517649202,
,37,나를 데려가줘,6,Green,B,0,0,ScrollDown,ScrollUp,Green.png,2,NonTarget,NonTarget,0,0,0,0,,,,,,,,,,,,,,,,,0,36,36,36,,,,,,,,,,,,,,,,,,,,,,,,,,,,,,,,,,,,,,,,,,,,,,,,,,,,,,,,,,,,,,,,,,,,,,,,,,,,,,,,,1,1.2481476999819279,341.12849369994365,None,ScrollDown,정답입니다,341.12849369994365,None,341.12849369994365,None,341.12849369994365,None,341.12849369994365,None,342.27273049997166,None,342.27273049997166,342.7727153999731,,,,,,,,,,,,,,,,205,2023-03-29_10h49.54.952,FishGame,2022.1.1,60.02804517649202,
,38,넌 친절해,1,Green,B,6.041666666666667,5.533333333333333,ScrollUp,ScrollDown,Green.png,2,Positive,Incongruent,0,0,0,0,,,,,,,,,,,,,,,,,0,37,37,37,,,,,,,,,,,,,,,,,,,,,,,,,,,,,,,,,,,,,,,,,,,,,,,,,,,,,,,,,,,,,,,,,,,,,,,,,,,,,,,,,2,1.0500174998305738,343.4015770999249,None,ScrollUp,정답입니다,343.4015770999249,None,343.4015770999249,None,343.4015770999249,None,343.4015770999249,None,344.3393931000028,None,344.3393931000028,344.83939089998603,,,,,,,,,,,,,,,,205,2023-03-29_10h49.54.952,FishGame,2022.1.1,60.02804517649202,
,1,넌 엉성해,4,Orange,A,3,3.3,ScrollDown,ScrollUp,Orange.png,3,Negative,Incongruent,0,0,0,0,,,,,,,,,,,,,,,,,,,,,0,0,0,0,,,,,,,,,,,,,,,,,,,,,,,,,,,,,,,,,,,,378.7884080000222,380.29158880002797,380.3082311998587,381.2582395998761,381.3082332999911,382.26237810007297,382.26237810007297,None,,,,,,,,,,,,,,,,,,,,,,,,,,,,,,,,,,1.0648148159186046,1.2960369000211358,383.3744933998678,None,ScrollDown,정답입니다,383.3744933998678,None,383.3744933998678,None,383.3744933998678,None,383.3744933998678,None,384.55527459993027,None,384.55527459993027,385.05787750007585,345.33937139995396,None,345.33937139995396,None,0.085185185,-0.11666667,1,0,0,0.01627531019039452,None,375.34139409987256,None,,,205,2023-03-29_10h49.54.952,FishGame,2022.1.1,60.02804517649202,
,2,나를 보내줘,6,Orange,A,0,0,ScrollUp,ScrollDown,Orange.png,3,NonTarget,NonTarget,0,0,0,0,,,,,,,,,,,,,,,,,,,,,0,1,1,1,,,,,,,,,,,,,,,,,,,,,,,,,,,,,,,,,,,,,,,,,,,,,,,,,,,,,,,,,,,,,,,,,,,,,,,,,,,,,1.9814815024534862,1.314623200101778,385.6819835000206,None,ScrollUp,정답입니다,385.6819835000206,None,385.6819835000206,None,385.6819835000206,None,385.6819835000206,None,386.89131330000237,None,386.89131330000237,387.39118320005946,,,,,,,,,,,,,,,,205,2023-03-29_10h49.54.952,FishGame,2022.1.1,60.02804517649202,
,3,넌 활발해,1,Green,B,5.666666666666667,5.6,ScrollUp,ScrollDown,Green.png,3,Positive,Incongruent,0,0,0,0,,,,,,,,,,,,,,,,,,,,,0,2,2,2,,,,,,,,,,,,,,,,,,,,,,,,,,,,,,,,,,,,,,,,,,,,,,,,,,,,,,,,,,,,,,,,,,,,,,,,,,,,,2,1.2806715001352131,388.0162363999989,None,ScrollUp,정답입니다,388.0162363999989,None,388.0162363999989,None,388.0162363999989,None,388.0162363999989,None,389.19117720006034,None,389.19117720006034,389.70484229992144,,,,,,,,,,,,,,,,205,2023-03-29_10h49.54.952,FishGame,2022.1.1,60.02804517649202,
,4,넌 논리적이야,2,Orange,A,5.666666666666666,4.633333333333334,ScrollDown,ScrollUp,Orange.png,3,Positive,Congruent,0,0,0,0,,,,,,,,,,,,,,,,,,,,,0,3,3,3,,,,,,,,,,,,,,,,,,,,,,,,,,,,,,,,,,,,,,,,,,,,,,,,,,,,,,,,,,,,,,,,,,,,,,,,,,,,,1.0092592636744182,1.0644058000762016,390.3383355999831,None,ScrollDown,정답입니다,390.3383355999831,None,390.3383355999831,None,390.3383355999831,None,390.3383355999831,None,391.28815679997206,None,391.28815679997206,391.7881924000103,,,,,,,,,,,,,,,,205,2023-03-29_10h49.54.952,FishGame,2022.1.1,60.02804517649202,
,5,넌 과묵해,3,Orange,A,3.875,4.4,ScrollDown,ScrollUp,Orange.png,3,Neutral,Neutral,0,0,0,0,,,,,,,,,,,,,,,,,,,,,0,4,4,4,,,,,,,,,,,,,,,,,,,,,,,,,,,,,,,,,,,,,,,,,,,,,,,,,,,,,,,,,,,,,,,,,,,,,,,,,,,,,1.3070987686514854,1.2462439998053014,392.41962990001775,None,ScrollDown,정답입니다,392.41962990001775,None,392.41962990001775,None,392.41962990001775,None,392.41962990001775,None,393.5578343998641,None,393.5578343998641,394.074446399929,,,,,,,,,,,,,,,,205,2023-03-29_10h49.54.952,FishGame,2022.1.1,60.02804517649202,
,6,나를 데려가줘,6,Green,B,0,0,ScrollDown,ScrollUp,Green.png,3,NonTarget,NonTarget,0,0,0,0,,,,,,,,,,,,,,,,,,,,,0,5,5,5,,,,,,,,,,,,,,,,,,,,,,,,,,,,,,,,,,,,,,,,,,,,,,,,,,,,,,,,,,,,,,,,,,,,,,,,,,,,,1,1.147962599992752,394.68115409999155,None,ScrollDown,정답입니다,394.68115409999155,None,394.68115409999155,None,394.68115409999155,None,394.68115409999155,None,395.7216391998809,None,395.7216391998809,396.22432540007867,,,,,,,,,,,,,,,,205,2023-03-29_10h49.54.952,FishGame,2022.1.1,60.02804517649202,
,7,넌 미숙해,4,Green,B,3,3,ScrollUp,ScrollDown,Green.png,3,Negative,Congruent,0,0,0,0,,,,,,,,,,,,,,,,,,,,,0,6,6,6,,,,,,,,,,,,,,,,,,,,,,,,,,,,,,,,,,,,,,,,,,,,,,,,,,,,,,,,,,,,,,,,,,,,,,,,,,,,,2,1.1288780998438597,396.8462825000752,None,ScrollUp,정답입니다,396.8462825000752,None,396.8462825000752,None,396.8462825000752,None,396.8462825000752,None,397.87430829997174,None,397.87430829997174,398.39091830002144,,,,,,,,,,,,,,,,205,2023-03-29_10h49.54.952,FishGame,2022.1.1,60.02804517649202,
,8,나를 보내줘,6,Orange,A,0,0,ScrollUp,ScrollDown,Orange.png,3,NonTarget,NonTarget,0,0,0,0,,,,,,,,,,,,,,,,,,,,,0,7,7,7,,,,,,,,,,,,,,,,,,,,,,,,,,,,,,,,,,,,,,,,,,,,,,,,,,,,,,,,,,,,,,,,,,,,,,,,,,,,,1.9552469154198964,1.2148714000359178,398.99704320007004,None,ScrollUp,정답입니다,398.99704320007004,None,398.99704320007004,None,398.99704320007004,None,398.99704320007004,None,400.1076010998804,None,400.1076010998804,400.60757409990765,,,,,,,,,,,,,,,,205,2023-03-29_10h49.54.952,FishGame,2022.1.1,60.02804517649202,
,9,넌 자신만만해,3,Green,B,4.833333333333334,4.333333333333333,ScrollUp,ScrollDown,Green.png,3,Neutral,Neutral,0,0,0,0,,,,,,,,,,,,,,,,,,,,,0,8,8,8,,,,,,,,,,,,,,,,,,,,,,,,,,,,,,,,,,,,,,,,,,,,,,,,,,,,,,,,,,,,,,,,,,,,,,,,,,,,,1.0864197611808777,1.0124236000701785,401.23020699992776,None,ScrollDown,오답입니다,401.23020699992776,None,401.23020699992776,None,401.23020699992776,None,401.23020699992776,None,402.1382504000794,None,402.1382504000794,402.6408673999831,,,,,,,,,,,,,,,,205,2023-03-29_10h49.54.952,FishGame,2022.1.1,60.02804517649202,
,10,넌 탐욕스러워,5,Orange,A,2.25,2.1,ScrollDown,ScrollUp,Orange.png,3,Negative,Incongruent,0,0,0,0,,,,,,,,,,,,,,,,,,,,,0,9,9,9,,,,,,,,,,,,,,,,,,,,,,,,,,,,,,,,,,,,,,,,,,,,,,,,,,,,,,,,,,,,,,,,,,,,,,,,,,,,,1.040123442808787,1.0139637999236584,403.27514959988184,None,ScrollDown,정답입니다,403.27514959988184,None,403.27514959988184,None,403.27514959988184,None,403.27514959988184,None,404.1714462998789,None,404.1714462998789,404.674141000025,,,,,,,,,,,,,,,,205,2023-03-29_10h49.54.952,FishGame,2022.1.1,60.02804517649202,
,11,넌 인기있어,2,Orange,A,5.458333333333333,4.5,ScrollDown,ScrollUp,Orange.png,3,Positive,Congruent,0,0,0,0,,,,,,,,,,,,,,,,,,,,,0,10,10,10,,,,,,,,,,,,,,,,,,,,,,,,,,,,,,,,,,,,,,,,,,,,,,,,,,,,,,,,,,,,,,,,,,,,,,,,,,,,,1.0725308855374653,1.2662297000642866,405.29827819997445,None,ScrollDown,정답입니다,405.29827819997445,None,405.29827819997445,None,405.29827819997445,None,405.29827819997445,None,406.45747349993326,None,406.45747349993326,406.95745490002446,,,,,,,,,,,,,,,,205,2023-03-29_10h49.54.952,FishGame,2022.1.1,60.02804517649202,
,12,나를 데려가줘,6,Green,B,0,0,ScrollDown,ScrollUp,Green.png,3,NonTarget,NonTarget,0,0,0,0,,,,,,,,,,,,,,,,,,,,,0,11,11,11,,,,,,,,,,,,,,,,,,,,,,,,,,,,,,,,,,,,,,,,,,,,,,,,,,,,,,,,,,,,,,,,,,,,,,,,,,,,,1.1111111094554265,1.1836902999784797,407.58042420004494,None,ScrollDown,정답입니다,407.58042420004494,None,407.58042420004494,None,407.58042420004494,None,407.58042420004494,None,408.65476659988053,None,408.65476659988053,409.15742239984684,,,,,,,,,,,,,,,,205,2023-03-29_10h49.54.952,FishGame,2022.1.1,60.02804517649202,
,13,넌 뛰어나,2,Green,B,6.166666666666667,4,ScrollUp,ScrollDown,Green.png,3,Positive,Incongruent,0,0,0,0,,,,,,,,,,,,,,,,,,,,,0,12,12,12,,,,,,,,,,,,,,,,,,,,,,,,,,,,,,,,,,,,,,,,,,,,,,,,,,,,,,,,,,,,,,,,,,,,,,,,,,,,,1.9938271641731262,1.1667104999069124,409.7819145999383,None,ScrollUp,정답입니다,409.7819145999383,None,409.7819145999383,None,409.7819145999383,None,409.7819145999383,None,410.84087489987724,None,410.84087489987724,411.35441479994915,,,,,,,,,,,,,,,,205,2023-03-29_10h49.54.952,FishGame,2022.1.1,60.02804517649202,
,14,넌 낙관적이야,1,Orange,A,5.75,5.8,ScrollDown,ScrollUp,Orange.png,3,Positive,Congruent,0,0,0,0,,,,,,,,,,,,,,,,,,,,,0,13,13,13,,,,,,,,,,,,,,,,,,,,,,,,,,,,,,,,,,,,,,,,,,,,,,,,,,,,,,,,,,,,,,,,,,,,,,,,,,,,,1.0216049253940582,0.947253400227055,411.97906789998524,None,ScrollDown,정답입니다,411.97906789998524,None,411.97906789998524,None,411.97906789998524,None,411.97906789998524,None,412.82105279993266,None,412.82105279993266,413.3211234000046,,,,,,,,,,,,,,,,205,2023-03-29_10h49.54.952,FishGame,2022.1.1,60.02804517649202,
,15,넌 산만해,4,Green,B,2.695652173913043,3.033333333333333,ScrollUp,ScrollDown,Green.png,3,Negative,Congruent,0,0,0,0,,,,,,,,,,,,,,,,,,,,,0,14,14,14,,,,,,,,,,,,,,,,,,,,,,,,,,,,,,,,,,,,,,,,,,,,,,,,,,,,,,,,,,,,,,,,,,,,,,,,,,,,,1.8333333383003871,1.4800340000074357,413.9427978999447,None,ScrollUp,정답입니다,413.9427978999447,None,413.9427978999447,None,413.9427978999447,None,413.9427978999447,None,415.3210696000606,None,415.3210696000606,415.8210873999633,,,,,,,,,,,,,,,,205,2023-03-29_10h49.54.952,FishGame,2022.1.1,60.02804517649202,
,16,나를 보내줘,6,Orange,A,0,0,ScrollUp,ScrollDown,Orange.png,3,NonTarget,NonTarget,0,0,0,0,,,,,,,,,,,,,,,,,,,,,0,15,15,15,,,,,,,,,,,,,,,,,,,,,,,,,,,,,,,,,,,,,,,,,,,,,,,,,,,,,,,,,,,,,,,,,,,,,,,,,,,,,1.9891975224018097,1.366607200121507,416.45014199987054,None,ScrollUp,정답입니다,416.45014199987054,None,416.45014199987054,None,416.45014199987054,None,416.45014199987054,None,417.70742819993757,None,417.70742819993757,418.2072940999642,,,,,,,,,,,,,,,,205,2023-03-29_10h49.54.952,FishGame,2022.1.1,60.02804517649202,
,17,넌 교활해,5,Green,B,2.333333333333333,2.133333333333333,ScrollUp,ScrollDown,Green.png,3,Negative,Congruent,0,0,0,0,,,,,,,,,,,,,,,,,,,,,0,16,16,16,,,,,,,,,,,,,,,,,,,,,,,,,,,,,,,,,,,,,,,,,,,,,,,,,,,,,,,,,,,,,,,,,,,,,,,,,,,,,1.9074074079593022,1.428590799914673,418.8319196999073,None,ScrollUp,정답입니다,418.8319196999073,None,418.8319196999073,None,418.8319196999073,None,418.8319196999073,None,420.15424469998106,None,420.15424469998106,420.6544325000141,,,,,,,,,,,,,,,,205,2023-03-29_10h49.54.952,FishGame,2022.1.1,60.02804517649202,
,18,나를 보내줘,6,Orange,A,0,0,ScrollUp,ScrollDown,Orange.png,3,NonTarget,NonTarget,0,0,0,0,,,,,,,,,,,,,,,,,,,,,0,17,17,17,,,,,,,,,,,,,,,,,,,,,,,,,,,,,,,,,,,,,,,,,,,,,,,,,,,,,,,,,,,,,,,,,,,,,,,,,,,,,1.9567901293436687,1.2524369999300689,421.27729890006594,None,ScrollUp,정답입니다,421.27729890006594,None,421.27729890006594,None,421.27729890006594,None,421.27729890006594,None,422.4238575999625,None,422.4238575999625,422.9238986999262,,,,,,,,,,,,,,,,205,2023-03-29_10h49.54.952,FishGame,2022.1.1,60.02804517649202,
,19,넌 불친절해,5,Green,B,2.208333333333333,2.033333333333333,ScrollUp,ScrollDown,Green.png,3,Negative,Congruent,0,0,0,0,,,,,,,,,,,,,,,,,,,,,0,18,18,18,,,,,,,,,,,,,,,,,,,,,,,,,,,,,,,,,,,,,,,,,,,,,,,,,,,,,,,,,,,,,,,,,,,,,,,,,,,,,1.90586419403553,1.1838530998211354,423.5490753999911,None,ScrollUp,정답입니다,423.5490753999911,None,423.5490753999911,None,423.5490753999911,None,423.5490753999911,None,424.6238332998473,None,424.6238332998473,425.1238293000497,,,,,,,,,,,,,,,,205,2023-03-29_10h49.54.952,FishGame,2022.1.1,60.02804517649202,
,20,넌 지적이야,2,Green,B,5.75,4.366666666666666,ScrollUp,ScrollDown,Green.png,3,Positive,Incongruent,0,0,0,0,,,,,,,,,,,,,,,,,,,,,0,19,19,19,,,,,,,,,,,,,,,,,,,,,,,,,,,,,,,,,,,,,,,,,,,,,,,,,,,,,,,,,,,,,,,,,,,,,,,,,,,,,1.9552469154198964,0.9483223001006991,425.75745899998583,None,ScrollUp,정답입니다,425.75745899998583,None,425.75745899998583,None,425.75745899998583,None,425.75745899998583,None,426.60411309986375,None,426.60411309986375,427.1040997998789,,,,,,,,,,,,,,,,205,2023-03-29_10h49.54.952,FishGame,2022.1.1,60.02804517649202,
,21,넌 우유부단해,4,Orange,A,2.666666666666667,3.166666666666667,ScrollDown,ScrollUp,Orange.png,3,Negative,Incongruent,0,0,0,0,,,,,,,,,,,,,,,,,,,,,0,20,20,20,,,,,,,,,,,,,,,,,,,,,,,,,,,,,,,,,,,,,,,,,,,,,,,,,,,,,,,,,,,,,,,,,,,,,,,,,,,,,1,1.0531850999686867,427.73132729995996,None,ScrollDown,정답입니다,427.73132729995996,None,427.73132729995996,None,427.73132729995996,None,427.73132729995996,None,428.67397099989466,None,428.67397099989466,429.17375810001977,,,,,,,,,,,,,,,,205,2023-03-29_10h49.54.952,FishGame,2022.1.1,60.02804517649202,
,22,나를 데려가줘,6,Green,B,0,0,ScrollDown,ScrollUp,Green.png,3,NonTarget,NonTarget,0,0,0,0,,,,,,,,,,,,,,,,,,,,,0,21,21,21,,,,,,,,,,,,,,,,,,,,,,,,,,,,,,,,,,,,,,,,,,,,,,,,,,,,,,,,,,,,,,,,,,,,,,,,,,,,,1.0895061641931534,1.1977967999409884,429.7944684999529,None,ScrollDown,정답입니다,429.7944684999529,None,429.7944684999529,None,429.7944684999529,None,429.7944684999529,None,430.88769169989973,None,430.88769169989973,431.3945921000559,,,,,,,,,,,,,,,,205,2023-03-29_10h49.54.952,FishGame,2022.1.1,60.02804517649202,
,23,넌 성실해,1,Green,B,6.041666666666666,5.7,ScrollUp,ScrollDown,Green.png,3,Positive,Incongruent,0,0,0,0,,,,,,,,,,,,,,,,,,,,,0,22,22,22,,,,,,,,,,,,,,,,,,,,,,,,,,,,,,,,,,,,,,,,,,,,,,,,,,,,,,,,,,,,,,,,,,,,,,,,,,,,,1.9290123283863068,1.6166930999606848,432.007345699938,None,ScrollUp,정답입니다,432.007345699938,None,432.007345699938,None,432.007345699938,None,432.007345699938,None,433.5207094999496,None,433.5207094999496,434.0206915999297,,,,,,,,,,,,,,,,205,2023-03-29_10h49.54.952,FishGame,2022.1.1,60.02804517649202,
,24,넌 현실주의적이야,3,Orange,A,4.625,4.4,ScrollDown,ScrollUp,Orange.png,3,Neutral,Neutral,0,0,0,0,,,,,,,,,,,,,,,,,,,,,0,23,23,23,,,,,,,,,,,,,,,,,,,,,,,,,,,,,,,,,,,,,,,,,,,,,,,,,,,,,,,,,,,,,,,,,,,,,,,,,,,,,1.0123456915219624,1.167088899994269,434.64875920000486,None,ScrollDown,정답입니다,434.64875920000486,None,434.64875920000486,None,434.64875920000486,None,434.64875920000486,None,435.70429249992594,None,435.70429249992594,436.2069699000567,,,,,,,,,,,,,,,,205,2023-03-29_10h49.54.952,FishGame,2022.1.1,60.02804517649202,
,25,넌 진실돼,1,Orange,A,6.625,5.566666666666666,ScrollDown,ScrollUp,Orange.png,3,Positive,Congruent,0,0,0,0,,,,,,,,,,,,,,,,,,,,,0,24,24,24,,,,,,,,,,,,,,,,,,,,,,,,,,,,,,,,,,,,,,,,,,,,,,,,,,,,,,,,,,,,,,,,,,,,,,,,,,,,,1,1.1802302999421954,436.83261299994774,None,ScrollDown,정답입니다,436.83261299994774,None,436.83261299994774,None,436.83261299994774,None,436.83261299994774,None,437.9038976000156,None,437.9038976000156,438.40388399991207,,,,,,,,,,,,,,,,205,2023-03-29_10h49.54.952,FishGame,2022.1.1,60.02804517649202,
,26,넌 천진난만해,3,Green,B,4.958333333333334,4.833333333333333,ScrollUp,ScrollDown,Green.png,3,Neutral,Neutral,0,0,0,0,,,,,,,,,,,,,,,,,,,,,0,25,25,25,,,,,,,,,,,,,,,,,,,,,,,,,,,,,,,,,,,,,,,,,,,,,,,,,,,,,,,,,,,,,,,,,,,,,,,,,,,,,1.959876557191213,1.0148243999574333,439.025616500061,None,ScrollUp,정답입니다,439.025616500061,None,439.025616500061,None,439.025616500061,None,439.025616500061,None,439.9372238998767,None,439.9372238998767,440.44018949987367,,,,,,,,,,,,,,,,205,2023-03-29_10h49.54.952,FishGame,2022.1.1,60.02804517649202,
,27,넌 교양없어,5,Orange,A,2.416666666666667,2.2,ScrollDown,ScrollUp,Orange.png,3,Negative,Incongruent,0,0,0,0,,,,,,,,,,,,,,,,,,,,,0,26,26,26,,,,,,,,,,,,,,,,,,,,,,,,,,,,,,,,,,,,,,,,,,,,,,,,,,,,,,,,,,,,,,,,,,,,,,,,,,,,,1.0586419602235158,1.03145039989613,441.06879589986056,None,ScrollDown,정답입니다,441.06879589986056,None,441.06879589986056,None,441.06879589986056,None,441.06879589986056,None,441.99032239988446,None,441.99032239988446,442.4901316999458,,,,,,,,,,,,,,,,205,2023-03-29_10h49.54.952,FishGame,2022.1.1,60.02804517649202,
,28,나를 보내줘,6,Orange,A,0,0,ScrollUp,ScrollDown,Orange.png,3,NonTarget,NonTarget,0,0,0,0,,,,,,,,,,,,,,,,,,,,,0,27,27,27,,,,,,,,,,,,,,,,,,,,,,,,,,,,,,,,,,,,,,,,,,,,,,,,,,,,,,,,,,,,,,,,,,,,,,,,,,,,,2,1.1332539001014084,443.1146567000542,None,ScrollUp,정답입니다,443.1146567000542,None,443.1146567000542,None,443.1146567000542,None,443.1146567000542,None,444.13736719987355,None,444.13736719987355,444.6373405000195,,,,,,,,,,,,,,,,205,2023-03-29_10h49.54.952,FishGame,2022.1.1,60.02804517649202,
,29,넌 엉뚱스러워,3,Orange,A,4.166666666666667,4.133333333333334,ScrollDown,ScrollUp,Orange.png,3,Neutral,Neutral,0,0,0,0,,,,,,,,,,,,,,,,,,,,,0,28,28,28,,,,,,,,,,,,,,,,,,,,,,,,,,,,,,,,,,,,,,,,,,,,,,,,,,,,,,,,,,,,,,,,,,,,,,,,,,,,,1,1.2334586000069976,445.2708457999397,None,ScrollDown,정답입니다,445.2708457999397,None,445.2708457999397,None,445.2708457999397,None,445.2708457999397,None,446.38730999990366,None,446.38730999990366,446.8899478998501,,,,,,,,,,,,,,,,205,2023-03-29_10h49.54.952,FishGame,2022.1.1,60.02804517649202,
,30,넌 무지해,4,Green,B,2.541666666666667,3.066666666666667,ScrollUp,ScrollDown,Green.png,3,Negative,Congruent,0,0,0,0,,,,,,,,,,,,,,,,,,,,,0,29,29,29,,,,,,,,,,,,,,,,,,,,,,,,,,,,,,,,,,,,,,,,,,,,,,,,,,,,,,,,,,,,,,,,,,,,,,,,,,,,,2,1.081578299868852,447.5116586999502,None,ScrollUp,정답입니다,447.5116586999502,None,447.5116586999502,None,447.5116586999502,None,447.5116586999502,None,448.48726899991743,None,448.48726899991743,448.98727769986726,,,,,,,,,,,,,,,,205,2023-03-29_10h49.54.952,FishGame,2022.1.1,60.02804517649202,
,31,넌 음울해,5,Green,B,2.25,2.233333333333333,ScrollUp,ScrollDown,Green.png,3,Negative,Congruent,0,0,0,0,,,,,,,,,,,,,,,,,,,,,0,30,30,30,,,,,,,,,,,,,,,,,,,,,,,,,,,,,,,,,,,,,,,,,,,,,,,,,,,,,,,,,,,,,,,,,,,,,,,,,,,,,2,1.1169400000944734,449.61452009994537,None,ScrollUp,정답입니다,449.61452009994537,None,449.61452009994537,None,449.61452009994537,None,449.61452009994537,None,450.6232459000312,None,450.6232459000312,451.1232515000738,,,,,,,,,,,,,,,,205,2023-03-29_10h49.54.952,FishGame,2022.1.1,60.02804517649202,
,32,넌 냉소적이야,5,Orange,A,2.916666666666667,2.4,ScrollDown,ScrollUp,Orange.png,3,Negative,Incongruent,0,0,0,0,,,,,,,,,,,,,,,,,,,,,0,31,31,31,,,,,,,,,,,,,,,,,,,,,,,,,,,,,,,,,,,,,,,,,,,,,,,,,,,,,,,,,,,,,,,,,,,,,,,,,,,,,1,0.9137507998384535,451.7496931999922,None,ScrollDown,정답입니다,451.7496931999922,None,451.7496931999922,None,451.7496931999922,None,451.7496931999922,None,452.55359450005926,None,452.55359450005926,453.053654700052,,,,,,,,,,,,,,,,205,2023-03-29_10h49.54.952,FishGame,2022.1.1,60.02804517649202,
,33,나를 데려가줘,6,Green,B,0,0,ScrollDown,ScrollUp,Green.png,3,NonTarget,NonTarget,0,0,0,0,,,,,,,,,,,,,,,,,,,,,0,32,32,32,,,,,,,,,,,,,,,,,,,,,,,,,,,,,,,,,,,,,,,,,,,,,,,,,,,,,,,,,,,,,,,,,,,,,,,,,,,,,2,1.0135212999302894,453.6753700999543,None,ScrollUp,오답입니다,453.6753700999543,None,453.6753700999543,None,453.6753700999543,None,453.6753700999543,None,454.5869311999995,None,454.5869311999995,455.0899024999235,,,,,,,,,,,,,,,,205,2023-03-29_10h49.54.952,FishGame,2022.1.1,60.02804517649202,
,34,넌 쾌활해,1,Orange,A,5.541666666666666,5.733333333333333,ScrollDown,ScrollUp,Orange.png,3,Positive,Congruent,0,0,0,0,,,,,,,,,,,,,,,,,,,,,0,33,33,33,,,,,,,,,,,,,,,,,,,,,,,,,,,,,,,,,,,,,,,,,,,,,,,,,,,,,,,,,,,,,,,,,,,,,,,,,,,,,1,1.1804963999893516,455.71605059993453,None,ScrollDown,정답입니다,455.71605059993453,None,455.71605059993453,None,455.71605059993453,None,455.71605059993453,None,456.78988399985246,None,456.78988399985246,457.2898210999556,,,,,,,,,,,,,,,,205,2023-03-29_10h49.54.952,FishGame,2022.1.1,60.02804517649202,
,35,나를 보내줘,6,Orange,A,0,0,ScrollUp,ScrollDown,Orange.png,3,NonTarget,NonTarget,0,0,0,0,,,,,,,,,,,,,,,,,,,,,0,34,34,34,,,,,,,,,,,,,,,,,,,,,,,,,,,,,,,,,,,,,,,,,,,,,,,,,,,,,,,,,,,,,,,,,,,,,,,,,,,,,2,1.3832543999888003,457.9119768999517,None,ScrollUp,정답입니다,457.9119768999517,None,457.9119768999517,None,457.9119768999517,None,457.9119768999517,None,459.1898687998764,None,459.1898687998764,459.6897682000417,,,,,,,,,,,,,,,,205,2023-03-29_10h49.54.952,FishGame,2022.1.1,60.02804517649202,
,36,넌 명랑해,1,Green,B,5.739130434782609,5.666666666666667,ScrollUp,ScrollDown,Green.png,3,Positive,Incongruent,0,0,0,0,,,,,,,,,,,,,,,,,,,,,0,35,35,35,,,,,,,,,,,,,,,,,,,,,,,,,,,,,,,,,,,,,,,,,,,,,,,,,,,,,,,,,,,,,,,,,,,,,,,,,,,,,2,1.9833910998422652,460.31432719994336,None,ScrollUp,정답입니다,460.31432719994336,None,460.31432719994336,None,460.31432719994336,None,460.31432719994336,None,462.18706859997474,None,462.18706859997474,462.6896830999758,,,,,,,,,,,,,,,,205,2023-03-29_10h49.54.952,FishGame,2022.1.1,60.02804517649202,
,37,넌 멍해,4,Orange,A,2.833333333333333,3.4,ScrollDown,ScrollUp,Orange.png,3,Negative,Incongruent,0,0,0,0,,,,,,,,,,,,,,,,,,,,,0,36,36,36,,,,,,,,,,,,,,,,,,,,,,,,,,,,,,,,,,,,,,,,,,,,,,,,,,,,,,,,,,,,,,,,,,,,,,,,,,,,,1,0.949385599931702,463.3145291998517,None,ScrollDown,정답입니다,463.3145291998517,None,463.3145291998517,None,463.3145291998517,None,463.3145291998517,None,464.15628840005957,None,464.15628840005957,464.6562675999012,,,,,,,,,,,,,,,,205,2023-03-29_10h49.54.952,FishGame,2022.1.1,60.02804517649202,
,38,나를 데려가줘,6,Green,B,0,0,ScrollDown,ScrollUp,Green.png,3,NonTarget,NonTarget,0,0,0,0,,,,,,,,,,,,,,,,,,,,,0,37,37,37,,,,,,,,,,,,,,,,,,,,,,,,,,,,,,,,,,,,,,,,,,,,,,,,,,,,,,,,,,,,,,,,,,,,,,,,,,,,,1.0216049253940582,1.1500397000927478,465.27817389997654,None,ScrollDown,정답입니다,465.27817389997654,None,465.27817389997654,None,465.27817389997654,None,465.27817389997654,None,466.32027919986285,None,466.32027919986285,466.82288719993085,,,,,,,,,,,,,,,,205,2023-03-29_10h49.54.952,FishGame,2022.1.1,60.02804517649202,
,39,넌 현명해,2,Orange,A,6.541666666666666,4.533333333333333,ScrollDown,ScrollUp,Orange.png,3,Positive,Congruent,0,0,0,0,,,,,,,,,,,,,,,,,,,,,0,38,38,38,,,,,,,,,,,,,,,,,,,,,,,,,,,,,,,,,,,,,,,,,,,,,,,,,,,,,,,,,,,,,,,,,,,,,,,,,,,,,1,1.6807391000911593,467.4464537000749,None,ScrollDown,정답입니다,467.4464537000749,None,467.4464537000749,None,467.4464537000749,None,467.4464537000749,None,469.02294029993936,None,469.02294029993936,469.5229021999985,,,,,,,,,,,,,,,,205,2023-03-29_10h49.54.952,FishGame,2022.1.1,60.02804517649202,
,40,넌 수줍어,3,Green,B,3.541666666666666,4.366666666666666,ScrollUp,ScrollDown,Green.png,3,Neutral,Neutral,0,0,0,0,,,,,,,,,,,,,,,,,,,,,0,39,39,39,,,,,,,,,,,,,,,,,,,,,,,,,,,,,,,,,,,,,,,,,,,,,,,,,,,,,,,,,,,,,,,,,,,,,,,,,,,,,2,1.085856599966064,470.15944919991307,None,ScrollUp,정답입니다,470.15944919991307,None,470.15944919991307,None,470.15944919991307,None,470.15944919991307,None,471.1395845999941,None,471.1395845999941,471.64410759997554,,,,,,,,,,,,,,,,205,2023-03-29_10h49.54.952,FishGame,2022.1.1,60.02804517649202,
,41,나를 데려가줘,6,Green,B,0,0,ScrollDown,ScrollUp,Green.png,3,NonTarget,NonTarget,0,0,0,0,,,,,,,,,,,,,,,,,,,,,0,40,40,40,,,,,,,,,,,,,,,,,,,,,,,,,,,,,,,,,,,,,,,,,,,,,,,,,,,,,,,,,,,,,,,,,,,,,,,,,,,,,1,1.1150806001387537,472.27114430000074,None,ScrollDown,정답입니다,472.27114430000074,None,472.27114430000074,None,472.27114430000074,None,472.27114430000074,None,473.2865166000556,None,473.2865166000556,473.78656899998896,,,,,,,,,,,,,,,,205,2023-03-29_10h49.54.952,FishGame,2022.1.1,60.02804517649202,
,42,넌 성숙해,2,Green,B,5.833333333333333,4.533333333333333,ScrollUp,ScrollDown,Green.png,3,Positive,Incongruent,0,0,0,0,,,,,,,,,,,,,,,,,,,,,0,41,41,41,,,,,,,,,,,,,,,,,,,,,,,,,,,,,,,,,,,,,,,,,,,,,,,,,,,,,,,,,,,,,,,,,,,,,,,,,,,,,2,1.384363800054416,474.4078883000184,None,ScrollUp,정답입니다,474.4078883000184,None,474.4078883000184,None,474.4078883000184,None,474.4078883000184,None,475.68680979986675,None,475.68680979986675,476.1894797999412,,,,,,,,,,,,,,,,205,2023-03-29_10h49.54.952,FishGame,2022.1.1,60.02804517649202,
,1,넌 매력적이야,2,Green,B,6.125,4.666666666666667,ScrollUp,ScrollDown,Green.png,4,Positive,Incongruent,0,0,0,0,,,,,,,,,,,,,,,,,,,,,,,,,0,0,0,0,,,,,,,,,,,,,,,,,,,,,,,,,,,,,,,,508.33580829994753,509.8359190998599,509.869175999891,510.8191597999539,510.86916089989245,511.82231089985,511.805637500016,None,,,,,,,,,,,,,,,,,,,,,,,,,,,,,,,,,,1.873456800977389,1.2751655001193285,512.9110510000028,None,ScrollUp,정답입니다,512.9110510000028,None,512.9110510000028,None,512.9110510000028,None,512.9110510000028,None,514.0694500000682,None,514.0694500000682,514.5719252000563,476.6868034999352,None,476.6868034999352,None,0.060185187,-0.098148145,1,0,0,0.016123309964314103,None,506.6887769000605,None,,,205,2023-03-29_10h49.54.952,FishGame,2022.1.1,60.02804517649202,
,2,나를 보내줘,6,Orange,A,0,0,ScrollUp,ScrollDown,Orange.png,4,NonTarget,NonTarget,0,0,0,0,,,,,,,,,,,,,,,,,,,,,,,,,0,1,1,1,,,,,,,,,,,,,,,,,,,,,,,,,,,,,,,,,,,,,,,,,,,,,,,,,,,,,,,,,,,,,,,,,,,,,,,,,1.858024686574936,1.2645157999359071,515.1946675998624,None,ScrollUp,정답입니다,515.1946675998624,None,515.1946675998624,None,515.1946675998624,None,515.1946675998624,None,516.3526446998585,None,516.3526446998585,516.8552908999845,,,,,,,,,,,,,,,,205,2023-03-29_10h49.54.952,FishGame,2022.1.1,60.02804517649202,
,3,넌 조심스러워,3,Orange,A,4.791666666666666,4.666666666666667,ScrollDown,ScrollUp,Orange.png,4,Neutral,Neutral,0,0,0,0,,,,,,,,,,,,,,,,,,,,,,,,,0,2,2,2,,,,,,,,,,,,,,,,,,,,,,,,,,,,,,,,,,,,,,,,,,,,,,,,,,,,,,,,,,,,,,,,,,,,,,,,,1.1064814925193787,1.0998255000449717,517.4834817000665,None,ScrollDown,정답입니다,517.4834817000665,None,517.4834817000665,None,517.4834817000665,None,517.4834817000665,None,518.4692398998886,None,518.4692398998886,518.9718917000573,,,,,,,,,,,,,,,,205,2023-03-29_10h49.54.952,FishGame,2022.1.1,60.02804517649202,
,4,넌 철학적이야,3,Green,B,4.5,4.266666666666667,ScrollUp,ScrollDown,Green.png,4,Neutral,Neutral,0,0,0,0,,,,,,,,,,,,,,,,,,,,,,,,,0,3,3,3,,,,,,,,,,,,,,,,,,,,,,,,,,,,,,,,,,,,,,,,,,,,,,,,,,,,,,,,,,,,,,,,,,,,,,,,,1.7623456716537476,1.067246099933982,519.59622019995,None,ScrollUp,정답입니다,519.59622019995,None,519.59622019995,None,519.59622019995,None,519.59622019995,None,520.5524971999694,None,520.5524971999694,521.0551316000056,,,,,,,,,,,,,,,,205,2023-03-29_10h49.54.952,FishGame,2022.1.1,60.02804517649202,
,5,넌 쩨쩨해,5,Orange,A,2.375,2.133333333333333,ScrollDown,ScrollUp,Orange.png,4,Negative,Incongruent,0,0,0,0,,,,,,,,,,,,,,,,,,,,,,,,,0,4,4,4,,,,,,,,,,,,,,,,,,,,,,,,,,,,,,,,,,,,,,,,,,,,,,,,,,,,,,,,,,,,,,,,,,,,,,,,,1.080246905485789,0.9835808000061661,521.6794419998769,None,ScrollDown,정답입니다,521.6794419998769,None,521.6794419998769,None,521.6794419998769,None,521.6794419998769,None,522.5524756999221,None,522.5524756999221,523.0551745998673,,,,,,,,,,,,,,,,205,2023-03-29_10h49.54.952,FishGame,2022.1.1,60.02804517649202,
,6,나를 데려가줘,6,Green,B,0,0,ScrollDown,ScrollUp,Green.png,4,NonTarget,NonTarget,0,0,0,0,,,,,,,,,,,,,,,,,,,,,,,,,0,5,5,5,,,,,,,,,,,,,,,,,,,,,,,,,,,,,,,,,,,,,,,,,,,,,,,,,,,,,,,,,,,,,,,,,,,,,,,,,1.1975308656692505,1.1629276999738067,523.677272999892,None,ScrollDown,정답입니다,523.677272999892,None,523.677272999892,None,523.677272999892,None,523.677272999892,None,524.7384472999256,None,524.7384472999256,525.2429527998902,,,,,,,,,,,,,,,,205,2023-03-29_10h49.54.952,FishGame,2022.1.1,60.02804517649202,
,7,넌 고집불통이야,5,Green,B,2.875,2,ScrollUp,ScrollDown,Green.png,4,Negative,Congruent,0,0,0,0,,,,,,,,,,,,,,,,,,,,,,,,,0,6,6,6,,,,,,,,,,,,,,,,,,,,,,,,,,,,,,,,,,,,,,,,,,,,,,,,,,,,,,,,,,,,,,,,,,,,,,,,,1.560185187806686,1.1961391000077128,525.8752659000456,None,ScrollUp,정답입니다,525.8752659000456,None,525.8752659000456,None,525.8752659000456,None,525.8752659000456,None,526.9687697000336,None,526.9687697000336,527.4689452999737,,,,,,,,,,,,,,,,205,2023-03-29_10h49.54.952,FishGame,2022.1.1,60.02804517649202,
,8,넌 무심해,4,Orange,A,2.875,3.2,ScrollDown,ScrollUp,Orange.png,4,Negative,Incongruent,0,0,0,0,,,,,,,,,,,,,,,,,,,,,,,,,0,7,7,7,,,,,,,,,,,,,,,,,,,,,,,,,,,,,,,,,,,,,,,,,,,,,,,,,,,,,,,,,,,,,,,,,,,,,,,,,1,1.6166584000457078,528.0908033000305,None,ScrollDown,정답입니다,528.0908033000305,None,528.0908033000305,None,528.0908033000305,None,528.0908033000305,None,529.6023941999301,None,529.6023941999301,530.1050362999085,,,,,,,,,,,,,,,,205,2023-03-29_10h49.54.952,FishGame,2022.1.1,60.02804517649202,
,9,넌 정겨워,1,Orange,A,5.791666666666667,5.666666666666667,ScrollDown,ScrollUp,Orange.png,4,Positive,Congruent,0,0,0,0,,,,,,,,,,,,,,,,,,,,,,,,,0,8,8,8,,,,,,,,,,,,,,,,,,,,,,,,,,,,,,,,,,,,,,,,,,,,,,,,,,,,,,,,,,,,,,,,,,,,,,,,,1.0709876716136932,0.9968979000113904,530.7322702000383,None,ScrollDown,정답입니다,530.7322702000383,None,530.7322702000383,None,530.7322702000383,None,530.7322702000383,None,531.6186811998487,None,531.6186811998487,532.1186691999901,,,,,,,,,,,,,,,,205,2023-03-29_10h49.54.952,FishGame,2022.1.1,60.02804517649202,
,10,나를 데려가줘,6,Green,B,0,0,ScrollDown,ScrollUp,Green.png,4,NonTarget,NonTarget,0,0,0,0,,,,,,,,,,,,,,,,,,,,,,,,,0,9,9,9,,,,,,,,,,,,,,,,,,,,,,,,,,,,,,,,,,,,,,,,,,,,,,,,,,,,,,,,,,,,,,,,,,,,,,,,,1,1.2340623999480158,532.737426500069,None,ScrollDown,정답입니다,532.737426500069,None,532.737426500069,None,532.737426500069,None,532.737426500069,None,533.8718397999182,None,533.8718397999182,534.371652700007,,,,,,,,,,,,,,,,205,2023-03-29_10h49.54.952,FishGame,2022.1.1,60.02804517649202,
,11,넌 체제순응적이야,4,Green,B,3,3.6,ScrollUp,ScrollDown,Green.png,4,Negative,Congruent,0,0,0,0,,,,,,,,,,,,,,,,,,,,,,,,,0,10,10,10,,,,,,,,,,,,,,,,,,,,,,,,,,,,,,,,,,,,,,,,,,,,,,,,,,,,,,,,,,,,,,,,,,,,,,,,,1.6697530845801034,1.1166380001232028,535.0015205999371,None,ScrollUp,정답입니다,535.0015205999371,None,535.0015205999371,None,535.0015205999371,None,535.0015205999371,None,536.0049759999383,None,536.0049759999383,536.5049163999502,,,,,,,,,,,,,,,,205,2023-03-29_10h49.54.952,FishGame,2022.1.1,60.02804517649202,
,12,나를 보내줘,6,Orange,A,0,0,ScrollUp,ScrollDown,Orange.png,4,NonTarget,NonTarget,0,0,0,0,,,,,,,,,,,,,,,,,,,,,,,,,0,11,11,11,,,,,,,,,,,,,,,,,,,,,,,,,,,,,,,,,,,,,,,,,,,,,,,,,,,,,,,,,,,,,,,,,,,,,,,,,1.8981481492519379,1.5313963999506086,537.1344397000503,None,ScrollUp,정답입니다,537.1344397000503,None,537.1344397000503,None,537.1344397000503,None,537.1344397000503,None,538.5521606998518,None,538.5521606998518,539.0548139000311,,,,,,,,,,,,,,,,205,2023-03-29_10h49.54.952,FishGame,2022.1.1,60.02804517649202,
,13,넌 박식해,2,Orange,A,5.625,3.933333333333333,ScrollDown,ScrollUp,Orange.png,4,Positive,Congruent,0,0,0,0,,,,,,,,,,,,,,,,,,,,,,,,,0,12,12,12,,,,,,,,,,,,,,,,,,,,,,,,,,,,,,,,,,,,,,,,,,,,,,,,,,,,,,,,,,,,,,,,,,,,,,,,,1.0586419602235158,1.5332754999399185,539.6809747999068,None,ScrollDown,정답입니다,539.6809747999068,None,539.6809747999068,None,539.6809747999068,None,539.6809747999068,None,541.1048043000046,None,541.1048043000046,541.6214624999557,,,,,,,,,,,,,,,,205,2023-03-29_10h49.54.952,FishGame,2022.1.1,60.02804517649202,
,14,나를 보내줘,6,Orange,A,0,0,ScrollUp,ScrollDown,Orange.png,4,NonTarget,NonTarget,0,0,0,0,,,,,,,,,,,,,,,,,,,,,,,,,0,13,13,13,,,,,,,,,,,,,,,,,,,,,,,,,,,,,,,,,,,,,,,,,,,,,,,,,,,,,,,,,,,,,,,,,,,,,,,,,1.8719135870536168,1.3332944998983294,542.2285384000279,None,ScrollUp,정답입니다,542.2285384000279,None,542.2285384000279,None,542.2285384000279,None,542.2285384000279,None,543.4520473999437,None,543.4520473999437,543.9519927999936,,,,,,,,,,,,,,,,205,2023-03-29_10h49.54.952,FishGame,2022.1.1,60.02804517649202,
,15,넌 침착해,1,Green,B,5.458333333333333,5.566666666666666,ScrollUp,ScrollDown,Green.png,4,Positive,Incongruent,0,0,0,0,,,,,,,,,,,,,,,,,,,,,,,,,0,14,14,14,,,,,,,,,,,,,,,,,,,,,,,,,,,,,,,,,,,,,,,,,,,,,,,,,,,,,,,,,,,,,,,,,,,,,,,,,1.2469135870536168,1.2147401000838727,544.5868017000612,None,ScrollDown,오답입니다,544.5868017000612,None,544.5868017000612,None,544.5868017000612,None,544.5868017000612,None,545.6880053000059,None,545.6880053000059,546.1880085999146,,,,,,,,,,,,,,,,205,2023-03-29_10h49.54.952,FishGame,2022.1.1,60.02804517649202,
,16,나를 데려가줘,6,Green,B,0,0,ScrollDown,ScrollUp,Green.png,4,NonTarget,NonTarget,0,0,0,0,,,,,,,,,,,,,,,,,,,,,,,,,0,15,15,15,,,,,,,,,,,,,,,,,,,,,,,,,,,,,,,,,,,,,,,,,,,,,,,,,,,,,,,,,,,,,,,,,,,,,,,,,1.1975308656692505,1.1646220001857728,546.8081860998645,None,ScrollDown,정답입니다,546.8081860998645,None,546.8081860998645,None,546.8081860998645,None,546.8081860998645,None,547.8687525000423,None,547.8687525000423,548.3713253000751,,,,,,,,,,,,,,,,205,2023-03-29_10h49.54.952,FishGame,2022.1.1,60.02804517649202,
,17,넌 행복해,1,Orange,A,6.416666666666666,6.166666666666667,ScrollDown,ScrollUp,Orange.png,4,Positive,Congruent,0,0,0,0,,,,,,,,,,,,,,,,,,,,,,,,,0,16,16,16,,,,,,,,,,,,,,,,,,,,,,,,,,,,,,,,,,,,,,,,,,,,,,,,,,,,,,,,,,,,,,,,,,,,,,,,,1.1959876517454784,1.216556099941954,548.9988196999766,None,ScrollDown,정답입니다,548.9988196999766,None,548.9988196999766,None,548.9988196999766,None,548.9988196999766,None,550.1046277000569,None,550.1046277000569,550.6046132999472,,,,,,,,,,,,,,,,205,2023-03-29_10h49.54.952,FishGame,2022.1.1,60.02804517649202,
,18,넌 겸손해,2,Green,B,5.791666666666667,4.766666666666667,ScrollUp,ScrollDown,Green.png,4,Positive,Incongruent,0,0,0,0,,,,,,,,,,,,,,,,,,,,,,,,,0,17,17,17,,,,,,,,,,,,,,,,,,,,,,,,,,,,,,,,,,,,,,,,,,,,,,,,,,,,,,,,,,,,,,,,,,,,,,,,,1.4583333327124517,0.981675400165841,551.2388114000205,None,NoResponse,무응답입니다,551.2388114000205,None,551.2388114000205,None,551.2388114000205,None,551.2388114000205,None,552.1182851998601,None,552.1182851998601,552.6182579000015,,,,,,,,,,,,,,,,205,2023-03-29_10h49.54.952,FishGame,2022.1.1,60.02804517649202,
,19,나를 보내줘,6,Orange,A,0,0,ScrollUp,ScrollDown,Orange.png,4,NonTarget,NonTarget,0,0,0,0,,,,,,,,,,,,,,,,,,,,,,,,,0,18,18,18,,,,,,,,,,,,,,,,,,,,,,,,,,,,,,,,,,,,,,,,,,,,,,,,,,,,,,,,,,,,,,,,,,,,,,,,,1.8888888905445735,2.000303100096062,553.2462025000714,None,ScrollUp,정답입니다,553.2462025000714,None,553.2462025000714,None,553.2462025000714,None,553.2462025000714,None,555.1380389998667,None,555.1380389998667,555.6378208000679,,,,,,,,,,,,,,,,205,2023-03-29_10h49.54.952,FishGame,2022.1.1,60.02804517649202,
,20,넌 의심없어,3,Orange,A,4.166666666666667,4.6,ScrollDown,ScrollUp,Orange.png,4,Neutral,Neutral,0,0,0,0,,,,,,,,,,,,,,,,,,,,,,,,,0,19,19,19,,,,,,,,,,,,,,,,,,,,,,,,,,,,,,,,,,,,,,,,,,,,,,,,,,,,,,,,,,,,,,,,,,,,,,,,,1.0555555323759716,1.195415300084278,556.2618966998998,None,ScrollDown,정답입니다,556.2618966998998,None,556.2618966998998,None,556.2618966998998,None,556.2618966998998,None,557.3544155000709,None,557.3544155000709,557.8544029998593,,,,,,,,,,,,,,,,205,2023-03-29_10h49.54.952,FishGame,2022.1.1,60.02804517649202,
,21,넌 시시해,4,Orange,A,2.666666666666667,2.966666666666667,ScrollDown,ScrollUp,Orange.png,4,Negative,Incongruent,0,0,0,0,,,,,,,,,,,,,,,,,,,,,,,,,0,20,20,20,,,,,,,,,,,,,,,,,,,,,,,,,,,,,,,,,,,,,,,,,,,,,,,,,,,,,,,,,,,,,,,,,,,,,,,,,1.0709876716136932,1.1165727998595685,558.4756209000479,None,ScrollDown,정답입니다,558.4756209000479,None,558.4756209000479,None,558.4756209000479,None,558.4756209000479,None,559.4851160000544,None,559.4851160000544,559.987737499876,,,,,,,,,,,,,,,,205,2023-03-29_10h49.54.952,FishGame,2022.1.1,60.02804517649202,
,22,나를 데려가줘,6,Green,B,0,0,ScrollDown,ScrollUp,Green.png,4,NonTarget,NonTarget,0,0,0,0,,,,,,,,,,,,,,,,,,,,,,,,,0,21,21,21,,,,,,,,,,,,,,,,,,,,,,,,,,,,,,,,,,,,,,,,,,,,,,,,,,,,,,,,,,,,,,,,,,,,,,,,,1,1.2982743000611663,560.6080105998553,None,ScrollDown,정답입니다,560.6080105998553,None,560.6080105998553,None,560.6080105998553,None,560.6080105998553,None,561.804418799933,None,561.804418799933,562.3043792999815,,,,,,,,,,,,,,,,205,2023-03-29_10h49.54.952,FishGame,2022.1.1,60.02804517649202,
,23,넌 무정해,5,Orange,A,2.5,2.2,ScrollDown,ScrollUp,Orange.png,4,Negative,Incongruent,0,0,0,0,,,,,,,,,,,,,,,,,,,,,,,,,0,22,22,22,,,,,,,,,,,,,,,,,,,,,,,,,,,,,,,,,,,,,,,,,,,,,,,,,,,,,,,,,,,,,,,,,,,,,,,,,1,1.1330831998493522,562.9281013999134,None,ScrollDown,정답입니다,562.9281013999134,None,562.9281013999134,None,562.9281013999134,None,562.9281013999134,None,563.9542670999654,None,563.9542670999654,564.454296000069,,,,,,,,,,,,,,,,205,2023-03-29_10h49.54.952,FishGame,2022.1.1,60.02804517649202,
,24,넌 긍정적이야,1,Green,B,6.041666666666667,6.066666666666666,ScrollUp,ScrollDown,Green.png,4,Positive,Incongruent,0,0,0,0,,,,,,,,,,,,,,,,,,,,,,,,,0,23,23,23,,,,,,,,,,,,,,,,,,,,,,,,,,,,,,,,,,,,,,,,,,,,,,,,,,,,,,,,,,,,,,,,,,,,,,,,,1.9984568059444427,0.9646585998125374,565.0769924998749,None,ScrollUp,정답입니다,565.0769924998749,None,565.0769924998749,None,565.0769924998749,None,565.0769924998749,None,565.937567899935,None,565.937567899935,566.4375729998574,,,,,,,,,,,,,,,,205,2023-03-29_10h49.54.952,FishGame,2022.1.1,60.02804517649202,
,25,나를 보내줘,6,Orange,A,0,0,ScrollUp,ScrollDown,Orange.png,4,NonTarget,NonTarget,0,0,0,0,,,,,,,,,,,,,,,,,,,,,,,,,0,24,24,24,,,,,,,,,,,,,,,,,,,,,,,,,,,,,,,,,,,,,,,,,,,,,,,,,,,,,,,,,,,,,,,,,,,,,,,,,2,1.2162381999660283,567.0600101000164,None,ScrollUp,정답입니다,567.0600101000164,None,567.0600101000164,None,567.0600101000164,None,567.0600101000164,None,568.1682368000038,None,568.1682368000038,568.6709074999671,,,,,,,,,,,,,,,,205,2023-03-29_10h49.54.952,FishGame,2022.1.1,60.02804517649202,
,26,넌 시기심이 많아,5,Green,B,2.458333333333333,2.233333333333333,ScrollUp,ScrollDown,Green.png,4,Negative,Congruent,0,0,0,0,,,,,,,,,,,,,,,,,,,,,,,,,0,25,25,25,,,,,,,,,,,,,,,,,,,,,,,,,,,,,,,,,,,,,,,,,,,,,,,,,,,,,,,,,,,,,,,,,,,,,,,,,1,1.045611600158736,569.2963678999804,None,ScrollDown,오답입니다,569.2963678999804,None,569.2963678999804,None,569.2963678999804,None,569.2963678999804,None,570.2376075000502,None,570.2376075000502,570.7375461999327,,,,,,,,,,,,,,,,205,2023-03-29_10h49.54.952,FishGame,2022.1.1,60.02804517649202,
,27,넌 탁월해,2,Orange,A,5.708333333333334,4.5,ScrollDown,ScrollUp,Orange.png,4,Positive,Congruent,0,0,0,0,,,,,,,,,,,,,,,,,,,,,,,,,0,26,26,26,,,,,,,,,,,,,,,,,,,,,,,,,,,,,,,,,,,,,,,,,,,,,,,,,,,,,,,,,,,,,,,,,,,,,,,,,1.0046296219031017,1.124618100002408,571.367782099871,None,ScrollDown,정답입니다,571.367782099871,None,571.367782099871,None,571.367782099871,None,571.367782099871,None,572.3847946000751,None,572.3847946000751,572.8874716998544,,,,,,,,,,,,,,,,205,2023-03-29_10h49.54.952,FishGame,2022.1.1,60.02804517649202,
,28,나를 데려가줘,6,Green,B,0,0,ScrollDown,ScrollUp,Green.png,4,NonTarget,NonTarget,0,0,0,0,,,,,,,,,,,,,,,,,,,,,,,,,0,27,27,27,,,,,,,,,,,,,,,,,,,,,,,,,,,,,,,,,,,,,,,,,,,,,,,,,,,,,,,,,,,,,,,,,,,,,,,,,1,1.330660899868235,573.5098389000632,None,ScrollDown,정답입니다,573.5098389000632,None,573.5098389000632,None,573.5098389000632,None,573.5098389000632,None,574.7374465998728,None,574.7374465998728,575.2374016998801,,,,,,,,,,,,,,,,205,2023-03-29_10h49.54.952,FishGame,2022.1.1,60.02804517649202,
,29,넌 조용해,3,Green,B,4.333333333333333,4.166666666666667,ScrollUp,ScrollDown,Green.png,4,Neutral,Neutral,0,0,0,0,,,,,,,,,,,,,,,,,,,,,,,,,0,28,28,28,,,,,,,,,,,,,,,,,,,,,,,,,,,,,,,,,,,,,,,,,,,,,,,,,,,,,,,,,,,,,,,,,,,,,,,,,2,1.2647752999328077,575.8617702000774,None,ScrollUp,정답입니다,575.8617702000774,None,575.8617702000774,None,575.8617702000774,None,575.8617702000774,None,577.0180720000062,None,577.0180720000062,577.5207503000274,,,,,,,,,,,,,,,,205,2023-03-29_10h49.54.952,FishGame,2022.1.1,60.02804517649202,
,30,넌 다정해,1,Orange,A,5.833333333333334,5.7,ScrollDown,ScrollUp,Orange.png,4,Positive,Congruent,0,0,0,0,,,,,,,,,,,,,,,,,,,,,,,,,0,29,29,29,,,,,,,,,,,,,,,,,,,,,,,,,,,,,,,,,,,,,,,,,,,,,,,,,,,,,,,,,,,,,,,,,,,,,,,,,1,0.947890100069344,578.145432600053,None,ScrollDown,정답입니다,578.145432600053,None,578.145432600053,None,578.145432600053,None,578.145432600053,None,578.9847277000081,None,578.9847277000081,579.4843822000548,,,,,,,,,,,,,,,,205,2023-03-29_10h49.54.952,FishGame,2022.1.1,60.02804517649202,
,31,넌 능력있어,2,Green,B,6.166666666666666,4.6,ScrollUp,ScrollDown,Green.png,4,Positive,Incongruent,0,0,0,0,,,,,,,,,,,,,,,,,,,,,,,,,0,30,30,30,,,,,,,,,,,,,,,,,,,,,,,,,,,,,,,,,,,,,,,,,,,,,,,,,,,,,,,,,,,,,,,,,,,,,,,,,2,0.9665376001503319,580.1036104999948,None,ScrollUp,정답입니다,580.1036104999948,None,580.1036104999948,None,580.1036104999948,None,580.1036104999948,None,580.9676814000122,None,580.9676814000122,581.4678287999704,,,,,,,,,,,,,,,,205,2023-03-29_10h49.54.952,FishGame,2022.1.1,60.02804517649202,
,32,넌 불쾌해,5,Orange,A,2.125,1.933333333333333,ScrollDown,ScrollUp,Orange.png,4,Negative,Incongruent,0,0,0,0,,,,,,,,,,,,,,,,,,,,,,,,,0,31,31,31,,,,,,,,,,,,,,,,,,,,,,,,,,,,,,,,,,,,,,,,,,,,,,,,,,,,,,,,,,,,,,,,,,,,,,,,,1,1.0172723999712616,582.0951253999956,None,ScrollDown,정답입니다,582.0951253999956,None,582.0951253999956,None,582.0951253999956,None,582.0951253999956,None,583.0013055999298,None,583.0013055999298,583.5039798999205,,,,,,,,,,,,,,,,205,2023-03-29_10h49.54.952,FishGame,2022.1.1,60.02804517649202,
,33,나를 데려가줘,6,Green,B,0,0,ScrollDown,ScrollUp,Green.png,4,NonTarget,NonTarget,0,0,0,0,,,,,,,,,,,,,,,,,,,,,,,,,0,32,32,32,,,,,,,,,,,,,,,,,,,,,,,,,,,,,,,,,,,,,,,,,,,,,,,,,,,,,,,,,,,,,,,,,,,,,,,,,1,1.2455398999154568,584.1242650998756,None,ScrollDown,정답입니다,584.1242650998756,None,584.1242650998756,None,584.1242650998756,None,584.1242650998756,None,585.2676091999747,None,585.2676091999747,585.7676003999077,,,,,,,,,,,,,,,,205,2023-03-29_10h49.54.952,FishGame,2022.1.1,60.02804517649202,
,34,넌 유순해,3,Orange,A,4.458333333333333,5,ScrollDown,ScrollUp,Orange.png,4,Neutral,Neutral,0,0,0,0,,,,,,,,,,,,,,,,,,,,,,,,,0,33,33,33,,,,,,,,,,,,,,,,,,,,,,,,,,,,,,,,,,,,,,,,,,,,,,,,,,,,,,,,,,,,,,,,,,,,,,,,,1,1.197898899903521,586.3888512998819,None,ScrollDown,정답입니다,586.3888512998819,None,586.3888512998819,None,586.3888512998819,None,586.3888512998819,None,587.4842884000391,None,587.4842884000391,587.9872312999796,,,,,,,,,,,,,,,,205,2023-03-29_10h49.54.952,FishGame,2022.1.1,60.02804517649202,
,35,넌 근심스러워,4,Green,B,2.708333333333333,3.133333333333333,ScrollUp,ScrollDown,Green.png,4,Negative,Congruent,0,0,0,0,,,,,,,,,,,,,,,,,,,,,,,,,0,34,34,34,,,,,,,,,,,,,,,,,,,,,,,,,,,,,,,,,,,,,,,,,,,,,,,,,,,,,,,,,,,,,,,,,,,,,,,,,2,1.0982929000165313,588.6098317999858,None,ScrollUp,정답입니다,588.6098317999858,None,588.6098317999858,None,588.6098317999858,None,588.6098317999858,None,589.6038641999476,None,589.6038641999476,590.1038571000099,,,,,,,,,,,,,,,,205,2023-03-29_10h49.54.952,FishGame,2022.1.1,60.02804517649202,
,36,넌 세련되었어,2,Orange,A,5.5,4.6,ScrollDown,ScrollUp,Orange.png,4,Positive,Congruent,0,0,0,0,,,,,,,,,,,,,,,,,,,,,,,,,0,35,35,35,,,,,,,,,,,,,,,,,,,,,,,,,,,,,,,,,,,,,,,,,,,,,,,,,,,,,,,,,,,,,,,,,,,,,,,,,1,1.2313597002066672,590.7333271000534,None,ScrollDown,정답입니다,590.7333271000534,None,590.7333271000534,None,590.7333271000534,None,590.7333271000534,None,591.8537291998509,None,591.8537291998509,592.3537073999178,,,,,,,,,,,,,,,,205,2023-03-29_10h49.54.952,FishGame,2022.1.1,60.02804517649202,
,37,나를 보내줘,6,Orange,A,0,0,ScrollUp,ScrollDown,Orange.png,4,NonTarget,NonTarget,0,0,0,0,,,,,,,,,,,,,,,,,,,,,,,,,0,36,36,36,,,,,,,,,,,,,,,,,,,,,,,,,,,,,,,,,,,,,,,,,,,,,,,,,,,,,,,,,,,,,,,,,,,,,,,,,2,1.366835700115189,592.9766653999686,None,ScrollUp,정답입니다,592.9766653999686,None,592.9766653999686,None,592.9766653999686,None,592.9766653999686,None,594.2343671999406,None,594.2343671999406,594.7370591999497,,,,,,,,,,,,,,,,205,2023-03-29_10h49.54.952,FishGame,2022.1.1,60.02804517649202,
,38,넌 확고해,3,Green,B,4.708333333333334,4.566666666666666,ScrollUp,ScrollDown,Green.png,4,Neutral,Neutral,0,0,0,0,,,,,,,,,,,,,,,,,,,,,,,,,0,37,37,37,,,,,,,,,,,,,,,,,,,,,,,,,,,,,,,,,,,,,,,,,,,,,,,,,,,,,,,,,,,,,,,,,,,,,,,,,1.9814815024534862,1.5000464001204818,595.3591841999441,None,ScrollUp,정답입니다,595.3591841999441,None,595.3591841999441,None,595.3591841999441,None,595.3591841999441,None,596.7509822999127,None,596.7509822999127,597.2536837998778,,,,,,,,,,,,,,,,205,2023-03-29_10h49.54.952,FishGame,2022.1.1,60.02804517649202,
,39,넌 이해심이 많아,1,Green,B,6.041666666666668,5.533333333333333,ScrollUp,ScrollDown,Green.png,4,Positive,Incongruent,0,0,0,0,,,,,,,,,,,,,,,,,,,,,,,,,0,38,38,38,,,,,,,,,,,,,,,,,,,,,,,,,,,,,,,,,,,,,,,,,,,,,,,,,,,,,,,,,,,,,,,,,,,,,,,,,2,1.2666441001929343,597.8773224998731,None,ScrollUp,정답입니다,597.8773224998731,None,597.8773224998731,None,597.8773224998731,None,597.8773224998731,None,599.0370860998519,None,599.0370860998519,599.5415491000749,,,,,,,,,,,,,,,,205,2023-03-29_10h49.54.952,FishGame,2022.1.1,60.02804517649202,
,40,나를 보내줘,6,Orange,A,0,0,ScrollUp,ScrollDown,Orange.png,4,NonTarget,NonTarget,0,0,0,0,,,,,,,,,,,,,,,,,,,,,,,,,0,39,39,39,,,,,,,,,,,,,,,,,,,,,,,,,,,,,,,,,,,,,,,,,,,,,,,,,,,,,,,,,,,,,,,,,,,,,,,,,1.9413580397764842,1.0986993999686092,600.1730690000113,None,ScrollUp,정답입니다,600.1730690000113,None,600.1730690000113,None,600.1730690000113,None,600.1730690000113,None,601.1672952999361,None,601.1672952999361,601.6673351998907,,,,,,,,,,,,,,,,205,2023-03-29_10h49.54.952,FishGame,2022.1.1,60.02804517649202,
,41,넌 거칠어,4,Orange,A,2.625,3.033333333333333,ScrollDown,ScrollUp,Orange.png,4,Negative,Incongruent,0,0,0,0,,,,,,,,,,,,,,,,,,,,,,,,,0,40,40,40,,,,,,,,,,,,,,,,,,,,,,,,,,,,,,,,,,,,,,,,,,,,,,,,,,,,,,,,,,,,,,,,,,,,,,,,,1.0617283880710602,1.1147892998997122,602.2956334999762,None,ScrollDown,정답입니다,602.2956334999762,None,602.2956334999762,None,602.2956334999762,None,602.2956334999762,None,603.3035577000119,None,603.3035577000119,603.8035693999846,,,,,,,,,,,,,,,,205,2023-03-29_10h49.54.952,FishGame,2022.1.1,60.02804517649202,
,42,넌 변덕맞아,5,Green,B,2.75,2.166666666666667,ScrollUp,ScrollDown,Green.png,4,Negative,Congruent,0,0,0,0,,,,,,,,,,,,,,,,,,,,,,,,,0,41,41,41,,,,,,,,,,,,,,,,,,,,,,,,,,,,,,,,,,,,,,,,,,,,,,,,,,,,,,,,,,,,,,,,,,,,,,,,,2,1.1667476000729948,604.4296166000422,None,ScrollUp,정답입니다,604.4296166000422,None,604.4296166000422,None,604.4296166000422,None,604.4296166000422,None,605.4869124998804,None,605.4869124998804,605.9915185000282,,,,,,,,,,,,,,,,205,2023-03-29_10h49.54.952,FishGame,2022.1.1,60.02804517649202,
,43,나를 데려가줘,6,Green,B,0,0,ScrollDown,ScrollUp,Green.png,4,NonTarget,NonTarget,0,0,0,0,,,,,,,,,,,,,,,,,,,,,,,,,0,42,42,42,,,,,,,,,,,,,,,,,,,,,,,,,,,,,,,,,,,,,,,,,,,,,,,,,,,,,,,,,,,,,,,,,,,,,,,,,1,1.1473406001459807,606.6180912998971,None,ScrollDown,정답입니다,606.6180912998971,None,606.6180912998971,None,606.6180912998971,None,606.6180912998971,None,607.6671786999796,None,607.6671786999796,608.1673053998966,,,,,,,,,,,,,,,,205,2023-03-29_10h49.54.952,FishGame,2022.1.1,60.02804517649202,
,44,넌 외로워,4,Green,B,2.833333333333333,3.3,ScrollUp,ScrollDown,Green.png,4,Negative,Congruent,0,0,0,0,,,,,,,,,,,,,,,,,,,,,,,,,0,43,43,43,,,,,,,,,,,,,,,,,,,,,,,,,,,,,,,,,,,,,,,,,,,,,,,,,,,,,,,,,,,,,,,,,,,,,,,,,2,0.964570099953562,608.7954651999753,None,ScrollUp,정답입니다,608.7954651999753,None,608.7954651999753,None,608.7954651999753,None,608.7954651999753,None,609.6508680998813,None,609.6508680998813,610.1534603000619,,,,,,,,,,,,,,,,205,2023-03-29_10h49.54.952,FishGame,2022.1.1,60.02804517649202,
,1,넌 불평스러워,5,Orange,A,2.25,2.066666666666667,ScrollDown,ScrollUp,Orange.png,5,Negative,Incongruent,0,0,0,0,,,,,,,,,,,,,,,,,,,,,,,,,,,,,0,0,0,0,,,,,,,,,,,,,,,,,,,,,,,,,,,,642.399799299892,643.9008088998962,643.9337790999562,644.8863452000078,644.9363329000771,645.886281899875,645.886281899875,None,,,,,,,,,,,,,,,,,,,,,,,,,,,,,,,,,,1.1141975373029709,1.79537419998087,646.9855233000126,None,ScrollDown,정답입니다,646.9855233000126,None,646.9855233000126,None,646.9855233000126,None,646.9855233000126,None,648.6693390998989,None,648.6693390998989,649.169295599917,610.6534994998947,None,610.6534994998947,None,0.17685185,-0.07037037,1,0,0,0.016145209781825542,None,640.6527780999895,None,,,205,2023-03-29_10h49.54.952,FishGame,2022.1.1,60.02804517649202,
,2,나를 보내줘,6,Orange,A,0,0,ScrollUp,ScrollDown,Orange.png,5,NonTarget,NonTarget,0,0,0,0,,,,,,,,,,,,,,,,,,,,,,,,,,,,,0,1,1,1,,,,,,,,,,,,,,,,,,,,,,,,,,,,,,,,,,,,,,,,,,,,,,,,,,,,,,,,,,,,,,,,,,,,,2,1.2154805001337081,649.7931538999546,None,ScrollUp,정답입니다,649.7931538999546,None,649.7931538999546,None,649.7931538999546,None,649.7931538999546,None,650.8999409000389,None,650.8999409000389,651.4026208000723,,,,,,,,,,,,,,,,205,2023-03-29_10h49.54.952,FishGame,2022.1.1,60.02804517649202,
,3,넌 다재다능해,2,Green,B,6.208333333333333,4.5,ScrollUp,ScrollDown,Green.png,5,Positive,Incongruent,0,0,0,0,,,,,,,,,,,,,,,,,,,,,,,,,,,,,0,2,2,2,,,,,,,,,,,,,,,,,,,,,,,,,,,,,,,,,,,,,,,,,,,,,,,,,,,,,,,,,,,,,,,,,,,,,1.9660493632157643,1.2000192000996321,652.0227540999185,None,ScrollUp,정답입니다,652.0227540999185,None,652.0227540999185,None,652.0227540999185,None,652.0227540999185,None,653.119282499887,None,653.119282499887,653.6236872000154,,,,,,,,,,,,,,,,205,2023-03-29_10h49.54.952,FishGame,2022.1.1,60.02804517649202,
,4,넌 과감해,3,Orange,A,4.833333333333334,4.6,ScrollDown,ScrollUp,Orange.png,5,Neutral,Neutral,0,0,0,0,,,,,,,,,,,,,,,,,,,,,,,,,,,,,0,3,3,3,,,,,,,,,,,,,,,,,,,,,,,,,,,,,,,,,,,,,,,,,,,,,,,,,,,,,,,,,,,,,,,,,,,,,1,1.050075100036338,654.2544229999185,None,ScrollDown,정답입니다,654.2544229999185,None,654.2544229999185,None,654.2544229999185,None,654.2544229999185,None,655.1995297998656,None,655.1995297998656,655.6997205999214,,,,,,,,,,,,,,,,205,2023-03-29_10h49.54.952,FishGame,2022.1.1,60.02804517649202,
,5,넌 고분고분해,3,Green,B,3.75,4.033333333333333,ScrollUp,ScrollDown,Green.png,5,Neutral,Neutral,0,0,0,0,,,,,,,,,,,,,,,,,,,,,,,,,,,,,0,4,4,4,,,,,,,,,,,,,,,,,,,,,,,,,,,,,,,,,,,,,,,,,,,,,,,,,,,,,,,,,,,,,,,,,,,,,2,1.1833208999596536,656.3199986999389,None,ScrollUp,정답입니다,656.3199986999389,None,656.3199986999389,None,656.3199986999389,None,656.3199986999389,None,657.3995646999683,None,657.3995646999683,657.9025344999973,,,,,,,,,,,,,,,,205,2023-03-29_10h49.54.952,FishGame,2022.1.1,60.02804517649202,
,6,나를 보내줘,6,Orange,A,0,0,ScrollUp,ScrollDown,Orange.png,5,NonTarget,NonTarget,0,0,0,0,,,,,,,,,,,,,,,,,,,,,,,,,,,,,0,5,5,5,,,,,,,,,,,,,,,,,,,,,,,,,,,,,,,,,,,,,,,,,,,,,,,,,,,,,,,,,,,,,,,,,,,,,2,1.3497823001816869,658.5251958000008,None,ScrollUp,정답입니다,658.5251958000008,None,658.5251958000008,None,658.5251958000008,None,658.5251958000008,None,659.7691244999878,None,659.7691244999878,660.2691166000441,,,,,,,,,,,,,,,,205,2023-03-29_10h49.54.952,FishGame,2022.1.1,60.02804517649202,
,7,넌 잘 잊어,4,Orange,A,3,3.7,ScrollDown,ScrollUp,Orange.png,5,Negative,Incongruent,0,0,0,0,,,,,,,,,,,,,,,,,,,,,,,,,,,,,0,6,6,6,,,,,,,,,,,,,,,,,,,,,,,,,,,,,,,,,,,,,,,,,,,,,,,,,,,,,,,,,,,,,,,,,,,,,1,1.1953354000579566,660.9025137000717,None,ScrollDown,정답입니다,660.9025137000717,None,660.9025137000717,None,660.9025137000717,None,660.9025137000717,None,661.985682199942,None,661.985682199942,662.4857177999802,,,,,,,,,,,,,,,,205,2023-03-29_10h49.54.952,FishGame,2022.1.1,60.02804517649202,
,8,넌 탐구심이없어,4,Green,B,2.833333333333333,3.066666666666667,ScrollUp,ScrollDown,Green.png,5,Negative,Congruent,0,0,0,0,,,,,,,,,,,,,,,,,,,,,,,,,,,,,0,7,7,7,,,,,,,,,,,,,,,,,,,,,,,,,,,,,,,,,,,,,,,,,,,,,,,,,,,,,,,,,,,,,,,,,,,,,2,1.18144499999471,663.1079369999934,None,ScrollUp,정답입니다,663.1079369999934,None,663.1079369999934,None,663.1079369999934,None,663.1079369999934,None,664.185664499877,None,664.185664499877,664.6856783998664,,,,,,,,,,,,,,,,205,2023-03-29_10h49.54.952,FishGame,2022.1.1,60.02804517649202,
,9,나를 데려가줘,6,Green,B,0,0,ScrollDown,ScrollUp,Green.png,5,NonTarget,NonTarget,0,0,0,0,,,,,,,,,,,,,,,,,,,,,,,,,,,,,0,8,8,8,,,,,,,,,,,,,,,,,,,,,,,,,,,,,,,,,,,,,,,,,,,,,,,,,,,,,,,,,,,,,,,,,,,,,1,1.0952848999295384,665.3107558998745,None,ScrollDown,정답입니다,665.3107558998745,None,665.3107558998745,None,665.3107558998745,None,665.3107558998745,None,666.299586399924,None,666.299586399924,666.8022634000517,,,,,,,,,,,,,,,,205,2023-03-29_10h49.54.952,FishGame,2022.1.1,60.02804517649202,
,10,넌 참되어,2,Orange,A,6.041666666666664,4.733333333333333,ScrollDown,ScrollUp,Orange.png,5,Positive,Congruent,0,0,0,0,,,,,,,,,,,,,,,,,,,,,,,,,,,,,0,9,9,9,,,,,,,,,,,,,,,,,,,,,,,,,,,,,,,,,,,,,,,,,,,,,,,,,,,,,,,,,,,,,,,,,,,,,1.0385802288850148,1.5192715001758188,667.4259104998782,None,ScrollDown,정답입니다,667.4259104998782,None,667.4259104998782,None,667.4259104998782,None,667.4259104998782,None,668.8354906998575,None,668.8354906998575,669.3355342999566,,,,,,,,,,,,,,,,205,2023-03-29_10h49.54.952,FishGame,2022.1.1,60.02804517649202,
,11,넌 생기있어,1,Green,B,5.875,5.633333333333334,ScrollUp,ScrollDown,Green.png,5,Positive,Incongruent,0,0,0,0,,,,,,,,,,,,,,,,,,,,,,,,,,,,,0,10,10,10,,,,,,,,,,,,,,,,,,,,,,,,,,,,,,,,,,,,,,,,,,,,,,,,,,,,,,,,,,,,,,,,,,,,,2,0.964824200142175,669.9572218998801,None,ScrollUp,정답입니다,669.9572218998801,None,669.9572218998801,None,669.9572218998801,None,669.9572218998801,None,670.8162173999008,None,670.8162173999008,671.3188785000239,,,,,,,,,,,,,,,,205,2023-03-29_10h49.54.952,FishGame,2022.1.1,60.02804517649202,
,12,넌 비사교적이야,4,Green,B,2.875,2.9,ScrollUp,ScrollDown,Green.png,5,Negative,Congruent,0,0,0,0,,,,,,,,,,,,,,,,,,,,,,,,,,,,,0,11,11,11,,,,,,,,,,,,,,,,,,,,,,,,,,,,,,,,,,,,,,,,,,,,,,,,,,,,,,,,,,,,,,,,,,,,,2,1.133050300180912,671.9447562999558,None,ScrollUp,정답입니다,671.9447562999558,None,671.9447562999558,None,671.9447562999558,None,671.9447562999558,None,672.9661133999471,None,672.9661133999471,673.4687470998615,,,,,,,,,,,,,,,,205,2023-03-29_10h49.54.952,FishGame,2022.1.1,60.02804517649202,
,13,나를 데려가줘,6,Green,B,0,0,ScrollDown,ScrollUp,Green.png,5,NonTarget,NonTarget,0,0,0,0,,,,,,,,,,,,,,,,,,,,,,,,,,,,,0,12,12,12,,,,,,,,,,,,,,,,,,,,,,,,,,,,,,,,,,,,,,,,,,,,,,,,,,,,,,,,,,,,,,,,,,,,,1.0478395124276478,1.0665111001580954,674.0900272999424,None,ScrollDown,정답입니다,674.0900272999424,None,674.0900272999424,None,674.0900272999424,None,674.0900272999424,None,675.049434900051,None,675.049434900051,675.5520752999,,,,,,,,,,,,,,,,205,2023-03-29_10h49.54.952,FishGame,2022.1.1,60.02804517649202,
,14,넌 고독해,4,Orange,A,2.916666666666667,3.233333333333333,ScrollDown,ScrollUp,Orange.png,5,Negative,Incongruent,0,0,0,0,,,,,,,,,,,,,,,,,,,,,,,,,,,,,0,13,13,13,,,,,,,,,,,,,,,,,,,,,,,,,,,,,,,,,,,,,,,,,,,,,,,,,,,,,,,,,,,,,,,,,,,,,1,1.1452079000882804,676.1780960999895,None,ScrollDown,정답입니다,676.1780960999895,None,676.1780960999895,None,676.1780960999895,None,676.1780960999895,None,677.2187284000684,None,677.2187284000684,677.718718299875,,,,,,,,,,,,,,,,205,2023-03-29_10h49.54.952,FishGame,2022.1.1,60.02804517649202,
,15,넌 신경질적이야,5,Green,B,2.375,2.233333333333333,ScrollUp,ScrollDown,Green.png,5,Negative,Congruent,0,0,0,0,,,,,,,,,,,,,,,,,,,,,,,,,,,,,0,14,14,14,,,,,,,,,,,,,,,,,,,,,,,,,,,,,,,,,,,,,,,,,,,,,,,,,,,,,,,,,,,,,,,,,,,,,2,1.1137314999941736,678.3510121998843,None,ScrollUp,정답입니다,678.3510121998843,None,678.3510121998843,None,678.3510121998843,None,678.3510121998843,None,679.3490591999143,None,679.3490591999143,679.8492352999747,,,,,,,,,,,,,,,,205,2023-03-29_10h49.54.952,FishGame,2022.1.1,60.02804517649202,
,16,넌 똑똑해,2,Green,B,5.666666666666667,3.966666666666667,ScrollUp,ScrollDown,Green.png,5,Positive,Incongruent,0,0,0,0,,,,,,,,,,,,,,,,,,,,,,,,,,,,,0,15,15,15,,,,,,,,,,,,,,,,,,,,,,,,,,,,,,,,,,,,,,,,,,,,,,,,,,,,,,,,,,,,,,,,,,,,,2,0.9149774999823421,680.4780488999095,None,ScrollUp,정답입니다,680.4780488999095,None,680.4780488999095,None,680.4780488999095,None,680.4780488999095,None,681.2855611999985,None,681.2855611999985,681.7853653000202,,,,,,,,,,,,,,,,205,2023-03-29_10h49.54.952,FishGame,2022.1.1,60.02804517649202,
,17,나를 보내줘,6,Orange,A,0,0,ScrollUp,ScrollDown,Orange.png,5,NonTarget,NonTarget,0,0,0,0,,,,,,,,,,,,,,,,,,,,,,,,,,,,,0,16,16,16,,,,,,,,,,,,,,,,,,,,,,,,,,,,,,,,,,,,,,,,,,,,,,,,,,,,,,,,,,,,,,,,,,,,,1.8086419651905696,1.8664347000885755,682.4081766000018,None,ScrollUp,정답입니다,682.4081766000018,None,682.4081766000018,None,682.4081766000018,None,682.4081766000018,None,684.1687292999122,None,684.1687292999122,684.6688914999831,,,,,,,,,,,,,,,,205,2023-03-29_10h49.54.952,FishGame,2022.1.1,60.02804517649202,
,18,넌 협조적이야,1,Orange,A,5.625,5.666666666666667,ScrollDown,ScrollUp,Orange.png,5,Positive,Congruent,0,0,0,0,,,,,,,,,,,,,,,,,,,,,,,,,,,,,0,17,17,17,,,,,,,,,,,,,,,,,,,,,,,,,,,,,,,,,,,,,,,,,,,,,,,,,,,,,,,,,,,,,,,,,,,,,1.0493827263514202,1.25004699989222,685.29261210002,None,ScrollDown,정답입니다,685.29261210002,None,685.29261210002,None,685.29261210002,None,685.29261210002,None,686.4325921998825,None,686.4325921998825,686.9352607999463,,,,,,,,,,,,,,,,205,2023-03-29_10h49.54.952,FishGame,2022.1.1,60.02804517649202,
