name,TrialNum,Word,WordCategory,FishType,WordList,WordValence,WordReputation,CorrectResp,IncorrectResp,FishTypeFile,Round,WordType,Condition,LoopforOrange.thisRepN,LoopforOrange.thisTrialN,LoopforOrange.thisN,LoopforOrange.thisIndex,LoopForGreen.thisRepN,LoopForGreen.thisTrialN,LoopForGreen.thisN,LoopForGreen.thisIndex,GreenInstLoop.thisRepN,GreenInstLoop.thisTrialN,GreenInstLoop.thisN,GreenInstLoop.thisIndex,GreenPrac.thisRepN,GreenPrac.thisTrialN,GreenPrac.thisN,GreenPrac.thisIndex,trials_2.thisRepN,trials_2.thisTrialN,trials_2.thisN,trials_2.thisIndex,GreenRound1.thisRepN,GreenRound1.thisTrialN,GreenRound1.thisN,GreenRound1.thisIndex,GreenRound2.thisRepN,GreenRound2.thisTrialN,GreenRound2.thisN,GreenRound2.thisIndex,GreenRound3.thisRepN,GreenRound3.thisTrialN,GreenRound3.thisN,GreenRound3.thisIndex,GreenRound4.thisRepN,GreenRound4.thisTrialN,GreenRound4.thisN,GreenRound4.thisIndex,GreenRound5.thisRepN,GreenRound5.thisTrialN,GreenRound5.thisN,GreenRound5.thisIndex,text_2.started,text_2.stopped,text_3.started,text_3.stopped,key_resp.keys,key_resp.rt,key_resp.started,key_resp.stopped,PassI.started,PassI.stopped,PassInst.keys,PassInst.rt,PassInst.started,PassInst.stopped,mouse_2.x,mouse_2.y,mouse_2.leftButton,mouse_2.midButton,mouse_2.rightButton,mouse_2.started,mouse_2.stopped,image.started,image.stopped,text_5.started,text_5.stopped,text_6.started,text_6.stopped,text_7.started,text_7.stopped,text_8.started,text_8.stopped,slider_3.response,slider_3.rt,slider_3.started,slider_3.stopped,Response_3,Feedback_3,BackGround_3.started,BackGround_3.stopped,Fish_3.started,Fish_3.stopped,WordBox_3.started,WordBox_3.stopped,Words_3.started,Words_3.stopped,BackGround_Feedback_3.started,BackGround_Feedback_3.stopped,Feedbacks_3.started,Feedbacks_3.stopped,Continue_or_not_2.keys,Continue_or_not_2.rt,Continue_or_not_2.started,Continue_or_not_2.stopped,image_4.started,image_4.stopped,mouse_3.x,mouse_3.y,mouse_3.leftButton,mouse_3.midButton,mouse_3.rightButton,mouse_3.started,mouse_3.stopped,startmain.started,startmain.stopped,slider_4.response,slider_4.rt,slider_4.started,slider_4.stopped,Response_4,Feedback_4,BackGround_4.started,BackGround_4.stopped,Fish_4.started,Fish_4.stopped,WordBox_4.started,WordBox_4.stopped,Words_4.started,Words_4.stopped,BackGround_Feedback_4.started,BackGround_Feedback_4.stopped,Feedbacks_4.started,Feedbacks_4.stopped,text.started,text.stopped,break_interval.started,break_interval.stopped,mouse.x,mouse.y,mouse.leftButton,mouse.midButton,mouse.rightButton,mouse.started,mouse.stopped,stratnextround.started,stratnextround.stopped,endgame.started,endgame.stopped,participant,date,expName,psychopyVersion,frameRate,
,,,,,,,,,,,,,,,,,,,,,,,,,,,,,,,,,,,,,,,,,,,,,,,,,,,,,,20.524406099924818,None,20.524406099924818,None,space,3.1240368001163006,21.015001199906692,None,,,,,,,,,,,,,,,,,,,,,,,,,,,,,,,,,,,,,,,,,,,,,,,,,,,,,,,,,,,,,,,,,,,,,,,,,,,,,,,,,,,,,,,,,,206,2023-03-29_15h20.15.606,FishGame,2022.1.1,59.918522827941715,
물고기과제_instruction(참가자용)GreenVersion.mp4,,,,,,,,,,,,,,,,,,0,0,0,0,0,0,0,0,,,,,,,,,,,,,,,,,,,,,,,,,,,,,,,,,,,,,93.19397599995136,None,n,4.28128940006718,93.19397599995136,None,,,,,,,,,,,,,,,,,,,,,,,,,,,,,,,,,,,,,,,,,,,,,,,,,,,,,,,,,,,,,,,,,,,,,,,,,,,,,,,,,,,,206,2023-03-29_15h20.15.606,FishGame,2022.1.1,59.918522827941715,
,1,넌 교활해,5,Orange,B,2.333333333333333,2.133333333333333,ScrollUp,ScrollDown,Orange.png,practice,,,,,,,0,0,0,0,,,,,0,0,0,0,0,0,0,0,,,,,,,,,,,,,,,,,,,,,,,,,,,,,,,,,,,0.1,-0.22962964,1,0,0,0.5012278300710022,None,97.4939521998167,None,104.04677389981225,105.55090579995885,105.56754299998283,106.52988269994967,106.57709609996527,107.53444590000436,107.51778729981743,None,1.6250000049670539,1.7976744000334293,108.81423849985003,None,ScrollUp,정답입니다,108.81423849985003,None,108.81423849985003,None,108.81423849985003,None,108.81423849985003,None,110.31027149991132,None,110.31027149991132,110.81343410001136,,,,,,,,,,,,,,,,,,,,,,,,,,,,,,,,,,,,,,,,,,,,,,,,,206,2023-03-29_15h20.15.606,FishGame,2022.1.1,59.918522827941715,
,2,넌 슬기로워,2,Green,A,6.166666666666667,4.1,ScrollDown,ScrollUp,Green.png,practice,,,,,,,0,0,0,0,,,,,0,0,0,0,0,1,1,1,,,,,,,,,,,,,,,,,,,,,,,,,,,,,,,,,,,,,,,,,,,,,,,,,,,,1.1327160547176998,0.9619873999617994,111.43630840000696,None,ScrollDown,정답입니다,111.43630840000696,None,111.43630840000696,None,111.43630840000696,None,111.43630840000696,None,112.29623529990204,None,112.29623529990204,112.79628899996169,,,,,,,,,,,,,,,,,,,,,,,,,,,,,,,,,,,,,,,,,,,,,,,,,206,2023-03-29_15h20.15.606,FishGame,2022.1.1,59.918522827941715,
,3,나를 보내줘,6,Green,A,0,0,ScrollUp,ScrollDown,Green.png,practice,,,,,,,0,0,0,0,,,,,0,0,0,0,0,2,2,2,,,,,,,,,,,,,,,,,,,,,,,,,,,,,,,,,,,,,,,,,,,,,,,,,,,,1.5586419738829136,1.4953153999522328,113.42341939988546,None,ScrollUp,정답입니다,113.42341939988546,None,113.42341939988546,None,113.42341939988546,None,113.42341939988546,None,114.81291269999929,None,114.81291269999929,115.31290549994446,,,,,,,,,,,,,,,,,,,,,,,,,,,,,,,,,,,,,,,,,,,,,,,,,206,2023-03-29_15h20.15.606,FishGame,2022.1.1,59.918522827941715,
,4,나를 데려가줘,6,Orange,B,0,0,ScrollDown,ScrollUp,Orange.png,practice,,,,,,,0,0,0,0,,,,,0,0,0,0,0,3,3,3,,,,,,,,,,,,,,,,,,,,,,,,,,,,,,,,,,,,,,,,,,,,,,,,,,,,1.2824074079593024,1.0987098000478,115.93774489988573,None,ScrollDown,정답입니다,115.93774489988573,None,115.93774489988573,None,115.93774489988573,None,115.93774489988573,None,116.92955389991403,None,116.92955389991403,117.4300923999399,,,,,,,,,,,,,,,,,,,,,,,,,,,,,,,,,,,,,,,,,,,,,,,,,206,2023-03-29_15h20.15.606,FishGame,2022.1.1,59.918522827941715,
,1,넌 교활해,5,Orange,B,2.333333333333333,2.133333333333333,ScrollUp,ScrollDown,Orange.png,practice,,,,,,,0,0,0,0,,,,,0,0,0,0,,,,,,,,,,,,,,,,,,,,,,,,,,,,,,,,,,,,,,,,,,,,,,,,,,,,,,,,,,,,,,,,,,,,,,,,,,n,17.60168920014985,117.93381979991682,None,117.93381979991682,None,,,,,,,,,,,,,,,,,,,,,,,,,,,,,,,,,,,,,,,,,,,206,2023-03-29_15h20.15.606,FishGame,2022.1.1,59.918522827941715,
,1,넌 따뜻해,1,Orange,B,6.083333333333333,5.6,ScrollUp,ScrollDown,Orange.png,1,Positive,Incongruent,,,,,0,0,0,0,,,,,,,,,,,,,0,0,0,0,,,,,,,,,,,,,,,,,,,,,,,,,,,,,,,,,,,,,,,,137.59276969986968,139.09597419993952,139.12927569984458,140.07926599984057,140.12929909978993,141.0833954999689,141.06671649985947,None,,,,,,,,,,,,,,,,,,,,,,,,,0.08981481,-0.13518518,1,0,0,0.30100363004021347,None,135.5625327997841,None,1.5339506162951388,1.610235600033775,142.37311959988438,None,NoResponse,무응답입니다,142.37311959988438,None,142.37311959988438,None,142.37311959988438,None,142.37311959988438,None,143.67626859992743,None,143.67626859992743,144.1789280998055,,,,,,,,,,,,,,,,206,2023-03-29_15h20.15.606,FishGame,2022.1.1,59.918522827941715,
,2,넌 기품있어,2,Orange,B,5.791666666666668,4.5,ScrollUp,ScrollDown,Orange.png,1,Positive,Incongruent,,,,,0,0,0,0,,,,,,,,,,,,,0,1,1,1,,,,,,,,,,,,,,,,,,,,,,,,,,,,,,,,,,,,,,,,,,,,,,,,,,,,,,,,,,,,,,,,,,,,,,,,,,,,,,,,,1.4043209850788116,0.9787226000335068,144.81059629982337,None,ScrollDown,오답입니다,144.81059629982337,None,144.81059629982337,None,144.81059629982337,None,144.81059629982337,None,145.676254699938,None,145.676254699938,146.17891399981454,,,,,,,,,,,,,,,,206,2023-03-29_15h20.15.606,FishGame,2022.1.1,59.918522827941715,
,3,나를 보내줘,6,Green,A,0,0,ScrollUp,ScrollDown,Green.png,1,NonTarget,NonTarget,,,,,0,0,0,0,,,,,,,,,,,,,0,2,2,2,,,,,,,,,,,,,,,,,,,,,,,,,,,,,,,,,,,,,,,,,,,,,,,,,,,,,,,,,,,,,,,,,,,,,,,,,,,,,,,,,1.4243827164173126,1.5786308001261204,146.80886359978467,None,ScrollDown,오답입니다,146.80886359978467,None,146.80886359978467,None,146.80886359978467,None,146.80886359978467,None,148.27588439988904,None,148.27588439988904,148.77587269991636,,,,,,,,,,,,,,,,206,2023-03-29_15h20.15.606,FishGame,2022.1.1,59.918522827941715,
,4,넌 수동적이야,4,Green,A,2.833333333333333,2.933333333333333,ScrollDown,ScrollUp,Green.png,1,Negative,Incongruent,,,,,0,0,0,0,,,,,,,,,,,,,0,3,3,3,,,,,,,,,,,,,,,,,,,,,,,,,,,,,,,,,,,,,,,,,,,,,,,,,,,,,,,,,,,,,,,,,,,,,,,,,,,,,,,,,1.09413580596447,1.6509548001922667,149.40643009985797,None,ScrollDown,정답입니다,149.40643009985797,None,149.40643009985797,None,149.40643009985797,None,149.40643009985797,None,150.94294369989075,None,150.94294369989075,151.4454704998061,,,,,,,,,,,,,,,,206,2023-03-29_15h20.15.606,FishGame,2022.1.1,59.918522827941715,
,5,넌 사심이 없어,3,Orange,B,4.916666666666666,4.333333333333333,ScrollUp,ScrollDown,Orange.png,1,Neutral,Neutral,,,,,0,0,0,0,,,,,,,,,,,,,0,4,4,4,,,,,,,,,,,,,,,,,,,,,,,,,,,,,,,,,,,,,,,,,,,,,,,,,,,,,,,,,,,,,,,,,,,,,,,,,,,,,,,,,1.4845679011195898,1.1465978999622166,152.07614019978791,None,NoResponse,무응답입니다,152.07614019978791,None,152.07614019978791,None,152.07614019978791,None,152.07614019978791,None,153.10405540000647,None,153.10405540000647,153.6090996998828,,,,,,,,,,,,,,,,206,2023-03-29_15h20.15.606,FishGame,2022.1.1,59.918522827941715,
,6,넌 헤퍼,5,Green,A,2.458333333333334,2.233333333333333,ScrollDown,ScrollUp,Green.png,1,Negative,Incongruent,,,,,0,0,0,0,,,,,,,,,,,,,0,5,5,5,,,,,,,,,,,,,,,,,,,,,,,,,,,,,,,,,,,,,,,,,,,,,,,,,,,,,,,,,,,,,,,,,,,,,,,,,,,,,,,,,1.1373456716537476,0.946841900004074,154.2447265998926,None,ScrollDown,정답입니다,154.2447265998926,None,154.2447265998926,None,154.2447265998926,None,154.2447265998926,None,155.0757831998635,None,155.0757831998635,155.5757790999487,,,,,,,,,,,,,,,,206,2023-03-29_15h20.15.606,FishGame,2022.1.1,59.918522827941715,
,7,넌 말쑥해,3,Green,A,4.833333333333334,4.333333333333333,ScrollDown,ScrollUp,Green.png,1,Neutral,Neutral,,,,,0,0,0,0,,,,,,,,,,,,,0,6,6,6,,,,,,,,,,,,,,,,,,,,,,,,,,,,,,,,,,,,,,,,,,,,,,,,,,,,,,,,,,,,,,,,,,,,,,,,,,,,,,,,,1.1975308656692505,0.9293087001424283,156.20505220000632,None,ScrollDown,정답입니다,156.20505220000632,None,156.20505220000632,None,156.20505220000632,None,156.20505220000632,None,157.02872639987618,None,157.02872639987618,157.52935819979757,,,,,,,,,,,,,,,,206,2023-03-29_15h20.15.606,FishGame,2022.1.1,59.918522827941715,
,8,넌 투덜거려,5,Orange,B,2.541666666666667,2.266666666666667,ScrollUp,ScrollDown,Orange.png,1,Negative,Congruent,,,,,0,0,0,0,,,,,,,,,,,,,0,7,7,7,,,,,,,,,,,,,,,,,,,,,,,,,,,,,,,,,,,,,,,,,,,,,,,,,,,,,,,,,,,,,,,,,,,,,,,,,,,,,,,,,1.4722222207734983,0.8291878998279572,158.16049119993113,None,NoResponse,무응답입니다,158.16049119993113,None,158.16049119993113,None,158.16049119993113,None,158.16049119993113,None,158.87594880000688,None,158.87594880000688,159.37591669987887,,,,,,,,,,,,,,,,206,2023-03-29_15h20.15.606,FishGame,2022.1.1,59.918522827941715,
,9,넌 적극적이야,1,Green,A,5.708333333333333,5.533333333333333,ScrollDown,ScrollUp,Green.png,1,Positive,Congruent,,,,,0,0,0,0,,,,,,,,,,,,,0,8,8,8,,,,,,,,,,,,,,,,,,,,,,,,,,,,,,,,,,,,,,,,,,,,,,,,,,,,,,,,,,,,,,,,,,,,,,,,,,,,,,,,,1.2299382835626602,0.8793536999728531,160.0036585999187,None,ScrollDown,정답입니다,160.0036585999187,None,160.0036585999187,None,160.0036585999187,None,160.0036585999187,None,160.7785608000122,None,160.7785608000122,161.2785296998918,,,,,,,,,,,,,,,,206,2023-03-29_15h20.15.606,FishGame,2022.1.1,59.918522827941715,
,10,넌 재미없어,4,Orange,B,2.625,2.966666666666667,ScrollUp,ScrollDown,Orange.png,1,Negative,Congruent,,,,,0,0,0,0,,,,,,,,,,,,,0,9,9,9,,,,,,,,,,,,,,,,,,,,,,,,,,,,,,,,,,,,,,,,,,,,,,,,,,,,,,,,,,,,,,,,,,,,,,,,,,,,,,,,,1.467592591419816,0.7623775000683963,161.9070447999984,None,NoResponse,무응답입니다,161.9070447999984,None,161.9070447999984,None,161.9070447999984,None,161.9070447999984,None,162.5592280998826,None,162.5592280998826,163.06186389992945,,,,,,,,,,,,,,,,206,2023-03-29_15h20.15.606,FishGame,2022.1.1,59.918522827941715,
,11,넌 명석해,2,Green,A,5.875,4.033333333333333,ScrollDown,ScrollUp,Green.png,1,Positive,Congruent,,,,,0,0,0,0,,,,,,,,,,,,,0,10,10,10,,,,,,,,,,,,,,,,,,,,,,,,,,,,,,,,,,,,,,,,,,,,,,,,,,,,,,,,,,,,,,,,,,,,,,,,,,,,,,,,,1,0.9197035999968648,163.68795149982907,None,ScrollDown,정답입니다,163.68795149982907,None,163.68795149982907,None,163.68795149982907,None,163.68795149982907,None,164.4857800998725,None,164.4857800998725,164.99520909995772,,,,,,,,,,,,,,,,206,2023-03-29_15h20.15.606,FishGame,2022.1.1,59.918522827941715,
,12,나를 데려가줘,6,Orange,B,0,0,ScrollDown,ScrollUp,Orange.png,1,NonTarget,NonTarget,,,,,0,0,0,0,,,,,,,,,,,,,0,11,11,11,,,,,,,,,,,,,,,,,,,,,,,,,,,,,,,,,,,,,,,,,,,,,,,,,,,,,,,,,,,,,,,,,,,,,,,,,,,,,,,,,1,1.4616998001001775,165.63065720000304,None,ScrollDown,정답입니다,165.63065720000304,None,165.63065720000304,None,165.63065720000304,None,165.63065720000304,None,166.975484599825,None,166.975484599825,167.47548269992694,,,,,,,,,,,,,,,,206,2023-03-29_15h20.15.606,FishGame,2022.1.1,59.918522827941715,
,13,넌 소심해,4,Green,A,3,3.1,ScrollDown,ScrollUp,Green.png,1,Negative,Incongruent,,,,,0,0,0,0,,,,,,,,,,,,,0,12,12,12,,,,,,,,,,,,,,,,,,,,,,,,,,,,,,,,,,,,,,,,,,,,,,,,,,,,,,,,,,,,,,,,,,,,,,,,,,,,,,,,,1.2376543283462524,0.9652319999877363,168.10071999998763,None,ScrollDown,정답입니다,168.10071999998763,None,168.10071999998763,None,168.10071999998763,None,168.10071999998763,None,168.96182089997455,None,168.96182089997455,169.4619187999051,,,,,,,,,,,,,,,,206,2023-03-29_15h20.15.606,FishGame,2022.1.1,59.918522827941715,
,14,넌 합리적이야,2,Green,A,5.583333333333333,4.733333333333333,ScrollDown,ScrollUp,Green.png,1,Positive,Congruent,,,,,0,0,0,0,,,,,,,,,,,,,0,13,13,13,,,,,,,,,,,,,,,,,,,,,,,,,,,,,,,,,,,,,,,,,,,,,,,,,,,,,,,,,,,,,,,,,,,,,,,,,,,,,,,,,1.1682098756233852,0.9624572000466287,170.08871139981784,None,ScrollDown,정답입니다,170.08871139981784,None,170.08871139981784,None,170.08871139981784,None,170.08871139981784,None,170.94507449981757,None,170.94507449981757,171.44509649998508,,,,,,,,,,,,,,,,206,2023-03-29_15h20.15.606,FishGame,2022.1.1,59.918522827941715,
,15,넌 무자비해,5,Orange,B,2.333333333333333,2.1,ScrollUp,ScrollDown,Orange.png,1,Negative,Congruent,,,,,0,0,0,0,,,,,,,,,,,,,0,14,14,14,,,,,,,,,,,,,,,,,,,,,,,,,,,,,,,,,,,,,,,,,,,,,,,,,,,,,,,,,,,,,,,,,,,,,,,,,,,,,,,,,1.939814825852712,1.2815548998769373,172.0860762000084,None,ScrollUp,정답입니다,172.0860762000084,None,172.0860762000084,None,172.0860762000084,None,172.0860762000084,None,173.25869039981626,None,173.25869039981626,173.7623553997837,,,,,,,,,,,,,,,,206,2023-03-29_15h20.15.606,FishGame,2022.1.1,59.918522827941715,
,16,나를 보내줘,6,Green,A,0,0,ScrollUp,ScrollDown,Green.png,1,NonTarget,NonTarget,,,,,0,0,0,0,,,,,,,,,,,,,0,15,15,15,,,,,,,,,,,,,,,,,,,,,,,,,,,,,,,,,,,,,,,,,,,,,,,,,,,,,,,,,,,,,,,,,,,,,,,,,,,,,,,,,1.6188271616895995,1.1847854000516236,174.3818018999882,None,ScrollUp,정답입니다,174.3818018999882,None,174.3818018999882,None,174.3818018999882,None,174.3818018999882,None,175.46162169985473,None,175.46162169985473,175.9616471999325,,,,,,,,,,,,,,,,206,2023-03-29_15h20.15.606,FishGame,2022.1.1,59.918522827941715,
,17,넌 현실적이야,3,Orange,B,4.608695652173913,4.766666666666667,ScrollUp,ScrollDown,Orange.png,1,Neutral,Neutral,,,,,0,0,0,0,,,,,,,,,,,,,0,16,16,16,,,,,,,,,,,,,,,,,,,,,,,,,,,,,,,,,,,,,,,,,,,,,,,,,,,,,,,,,,,,,,,,,,,,,,,,,,,,,,,,,2,1.4292576001025736,176.59460919979028,None,ScrollUp,정답입니다,176.59460919979028,None,176.59460919979028,None,176.59460919979028,None,176.59460919979028,None,177.91163409990259,None,177.91163409990259,178.41592379985377,,,,,,,,,,,,,,,,206,2023-03-29_15h20.15.606,FishGame,2022.1.1,59.918522827941715,
,18,넌 의리있어,1,Orange,B,5.833333333333334,5.633333333333334,ScrollUp,ScrollDown,Orange.png,1,Positive,Incongruent,,,,,0,0,0,0,,,,,,,,,,,,,0,17,17,17,,,,,,,,,,,,,,,,,,,,,,,,,,,,,,,,,,,,,,,,,,,,,,,,,,,,,,,,,,,,,,,,,,,,,,,,,,,,,,,,,1.9120370248953502,1.062726200092584,179.0552232998889,None,ScrollUp,정답입니다,179.0552232998889,None,179.0552232998889,None,179.0552232998889,None,179.0552232998889,None,180.00856649992056,None,180.00856649992056,180.50858959998004,,,,,,,,,,,,,,,,206,2023-03-29_15h20.15.606,FishGame,2022.1.1,59.918522827941715,
,19,넌 신경과민이야,5,Green,A,2.541666666666667,2.166666666666667,ScrollDown,ScrollUp,Green.png,1,Negative,Incongruent,,,,,0,0,0,0,,,,,,,,,,,,,0,18,18,18,,,,,,,,,,,,,,,,,,,,,,,,,,,,,,,,,,,,,,,,,,,,,,,,,,,,,,,,,,,,,,,,,,,,,,,,,,,,,,,,,1,1.0121139001566917,181.1414525997825,None,ScrollDown,정답입니다,181.1414525997825,None,181.1414525997825,None,181.1414525997825,None,181.1414525997825,None,182.04486529994756,None,182.04486529994756,182.54486329993233,,,,,,,,,,,,,,,,206,2023-03-29_15h20.15.606,FishGame,2022.1.1,59.918522827941715,
,20,넌 편안해,1,Green,A,5.916666666666666,5.866666666666666,ScrollDown,ScrollUp,Green.png,1,Positive,Congruent,,,,,0,0,0,0,,,,,,,,,,,,,0,19,19,19,,,,,,,,,,,,,,,,,,,,,,,,,,,,,,,,,,,,,,,,,,,,,,,,,,,,,,,,,,,,,,,,,,,,,,,,,,,,,,,,,1,1.095673899864778,183.17125049978495,None,ScrollDown,정답입니다,183.17125049978495,None,183.17125049978495,None,183.17125049978495,None,183.17125049978495,None,184.16144729987718,None,184.16144729987718,184.67511169984937,,,,,,,,,,,,,,,,206,2023-03-29_15h20.15.606,FishGame,2022.1.1,59.918522827941715,
,21,넌 품위있어,2,Orange,B,5.291666666666666,4.466666666666667,ScrollUp,ScrollDown,Orange.png,1,Positive,Incongruent,,,,,0,0,0,0,,,,,,,,,,,,,0,20,20,20,,,,,,,,,,,,,,,,,,,,,,,,,,,,,,,,,,,,,,,,,,,,,,,,,,,,,,,,,,,,,,,,,,,,,,,,,,,,,,,,,1.8487654278675716,1.2127330000512302,185.3059134997893,None,ScrollUp,정답입니다,185.3059134997893,None,185.3059134997893,None,185.3059134997893,None,185.3059134997893,None,186.40845749992877,None,186.40845749992877,186.90845859982073,,,,,,,,,,,,,,,,206,2023-03-29_15h20.15.606,FishGame,2022.1.1,59.918522827941715,
,22,넌 빈틈없어,3,Green,A,4.833333333333333,3.966666666666667,ScrollDown,ScrollUp,Green.png,1,Neutral,Neutral,,,,,0,0,0,0,,,,,,,,,,,,,0,21,21,21,,,,,,,,,,,,,,,,,,,,,,,,,,,,,,,,,,,,,,,,,,,,,,,,,,,,,,,,,,,,,,,,,,,,,,,,,,,,,,,,,1,0.9956729998812079,187.53850579983555,None,ScrollDown,정답입니다,187.53850579983555,None,187.53850579983555,None,187.53850579983555,None,187.53850579983555,None,188.4280359998811,None,188.4280359998811,188.9280618999619,,,,,,,,,,,,,,,,206,2023-03-29_15h20.15.606,FishGame,2022.1.1,59.918522827941715,
,23,넌 상상력없어,4,Orange,B,2.833333333333333,3.133333333333333,ScrollUp,ScrollDown,Orange.png,1,Negative,Congruent,,,,,0,0,0,0,,,,,,,,,,,,,0,22,22,22,,,,,,,,,,,,,,,,,,,,,,,,,,,,,,,,,,,,,,,,,,,,,,,,,,,,,,,,,,,,,,,,,,,,,,,,,,,,,,,,,1.807098776102066,0.9395824999082834,189.5651773000136,None,ScrollUp,정답입니다,189.5651773000136,None,189.5651773000136,None,189.5651773000136,None,189.5651773000136,None,190.3887411998585,None,190.3887411998585,190.8916523999069,,,,,,,,,,,,,,,,206,2023-03-29_15h20.15.606,FishGame,2022.1.1,59.918522827941715,
,24,넌 지혜로워,2,Orange,B,6.333333333333334,4.633333333333334,ScrollUp,ScrollDown,Orange.png,1,Positive,Incongruent,,,,,0,0,0,0,,,,,,,,,,,,,0,23,23,23,,,,,,,,,,,,,,,,,,,,,,,,,,,,,,,,,,,,,,,,,,,,,,,,,,,,,,,,,,,,,,,,,,,,,,,,,,,,,,,,,1.859567900498708,0.8817145999055356,191.52113359980285,None,ScrollUp,정답입니다,191.52113359980285,None,191.52113359980285,None,191.52113359980285,None,191.52113359980285,None,192.2916235998273,None,192.2916235998273,192.7916419999674,,,,,,,,,,,,,,,,206,2023-03-29_15h20.15.606,FishGame,2022.1.1,59.918522827941715,
,25,넌 시끄러워,4,Green,A,2.833333333333333,3.033333333333333,ScrollDown,ScrollUp,Green.png,1,Negative,Incongruent,,,,,0,0,0,0,,,,,,,,,,,,,0,24,24,24,,,,,,,,,,,,,,,,,,,,,,,,,,,,,,,,,,,,,,,,,,,,,,,,,,,,,,,,,,,,,,,,,,,,,,,,,,,,,,,,,1,0.9956928000319749,193.42278659995645,None,ScrollDown,정답입니다,193.42278659995645,None,193.42278659995645,None,193.42278659995645,None,193.42278659995645,None,194.31130579998717,None,194.31130579998717,194.8112629998941,,,,,,,,,,,,,,,,206,2023-03-29_15h20.15.606,FishGame,2022.1.1,59.918522827941715,
,26,넌 만사태평이야,3,Orange,B,4,4.333333333333333,ScrollUp,ScrollDown,Orange.png,1,Neutral,Neutral,,,,,0,0,0,0,,,,,,,,,,,,,0,25,25,25,,,,,,,,,,,,,,,,,,,,,,,,,,,,,,,,,,,,,,,,,,,,,,,,,,,,,,,,,,,,,,,,,,,,,,,,,,,,,,,,,1.7731481442848842,1.0319010999519378,195.44180349982344,None,ScrollUp,정답입니다,195.44180349982344,None,195.44180349982344,None,195.44180349982344,None,195.44180349982344,None,196.36117629986256,None,196.36117629986256,196.8612201998476,,,,,,,,,,,,,,,,206,2023-03-29_15h20.15.606,FishGame,2022.1.1,59.918522827941715,
,27,넌 붙임성있어,1,Green,A,5.708333333333333,5.633333333333334,ScrollDown,ScrollUp,Green.png,1,Positive,Congruent,,,,,0,0,0,0,,,,,,,,,,,,,0,26,26,26,,,,,,,,,,,,,,,,,,,,,,,,,,,,,,,,,,,,,,,,,,,,,,,,,,,,,,,,,,,,,,,,,,,,,,,,,,,,,,,,,1,1.1789956998545676,197.50651229987852,None,ScrollDown,정답입니다,197.50651229987852,None,197.50651229987852,None,197.50651229987852,None,197.50651229987852,None,198.57779449992813,None,198.57779449992813,199.08220079983585,,,,,,,,,,,,,,,,206,2023-03-29_15h20.15.606,FishGame,2022.1.1,59.918522827941715,
,28,넌 영리해,2,Green,A,6,4.033333333333333,ScrollDown,ScrollUp,Green.png,1,Positive,Congruent,,,,,0,0,0,0,,,,,,,,,,,,,0,27,27,27,,,,,,,,,,,,,,,,,,,,,,,,,,,,,,,,,,,,,,,,,,,,,,,,,,,,,,,,,,,,,,,,,,,,,,,,,,,,,,,,,1.1435185273488362,0.9319893000647426,199.7143960997928,None,ScrollDown,정답입니다,199.7143960997928,None,199.7143960997928,None,199.7143960997928,None,199.7143960997928,None,200.54144089994952,None,200.54144089994952,201.04149509989657,,,,,,,,,,,,,,,,206,2023-03-29_15h20.15.606,FishGame,2022.1.1,59.918522827941715,
,29,넌 열심이야,1,Orange,B,6.041666666666667,5.833333333333333,ScrollUp,ScrollDown,Orange.png,1,Positive,Incongruent,,,,,0,0,0,0,,,,,,,,,,,,,0,28,28,28,,,,,,,,,,,,,,,,,,,,,,,,,,,,,,,,,,,,,,,,,,,,,,,,,,,,,,,,,,,,,,,,,,,,,,,,,,,,,,,,,1.6712962985038757,0.8345411999616772,201.6723013999872,None,ScrollUp,정답입니다,201.6723013999872,None,201.6723013999872,None,201.6723013999872,None,201.6723013999872,None,202.39184969989583,None,202.39184969989583,202.89438319997862,,,,,,,,,,,,,,,,206,2023-03-29_15h20.15.606,FishGame,2022.1.1,59.918522827941715,
,30,넌 인기없어,4,Orange,B,3,3.3,ScrollUp,ScrollDown,Orange.png,1,Negative,Congruent,,,,,0,0,0,0,,,,,,,,,,,,,0,29,29,29,,,,,,,,,,,,,,,,,,,,,,,,,,,,,,,,,,,,,,,,,,,,,,,,,,,,,,,,,,,,,,,,,,,,,,,,,,,,,,,,,1.7592592686414719,0.8983789999037981,203.52272119978443,None,ScrollUp,정답입니다,203.52272119978443,None,203.52272119978443,None,203.52272119978443,None,203.52272119978443,None,204.3111206998583,None,204.3111206998583,204.81526669999585,,,,,,,,,,,,,,,,206,2023-03-29_15h20.15.606,FishGame,2022.1.1,59.918522827941715,
,31,넌 익살스러워,3,Green,A,4.708333333333334,4.833333333333333,ScrollDown,ScrollUp,Green.png,1,Neutral,Neutral,,,,,0,0,0,0,,,,,,,,,,,,,0,30,30,30,,,,,,,,,,,,,,,,,,,,,,,,,,,,,,,,,,,,,,,,,,,,,,,,,,,,,,,,,,,,,,,,,,,,,,,,,,,,,,,,,1,0.8315502998884767,205.45075519988313,None,ScrollDown,정답입니다,205.45075519988313,None,205.45075519988313,None,205.45075519988313,None,205.45075519988313,None,206.17466619983315,None,206.17466619983315,206.6746487999335,,,,,,,,,,,,,,,,206,2023-03-29_15h20.15.606,FishGame,2022.1.1,59.918522827941715,
,32,넌 이기적이야,5,Orange,B,2.291666666666667,2.333333333333333,ScrollUp,ScrollDown,Orange.png,1,Negative,Congruent,,,,,0,0,0,0,,,,,,,,,,,,,0,31,31,31,,,,,,,,,,,,,,,,,,,,,,,,,,,,,,,,,,,,,,,,,,,,,,,,,,,,,,,,,,,,,,,,,,,,,,,,,,,,,,,,,1.743827154239019,0.8679608998354524,207.30016009998508,None,ScrollUp,정답입니다,207.30016009998508,None,207.30016009998508,None,207.30016009998508,None,207.30016009998508,None,208.0609666998498,None,208.0609666998498,208.56099589983933,,,,,,,,,,,,,,,,206,2023-03-29_15h20.15.606,FishGame,2022.1.1,59.918522827941715,
,33,나를 데려가줘,6,Orange,B,0,0,ScrollDown,ScrollUp,Orange.png,1,NonTarget,NonTarget,,,,,0,0,0,0,,,,,,,,,,,,,0,32,32,32,,,,,,,,,,,,,,,,,,,,,,,,,,,,,,,,,,,,,,,,,,,,,,,,,,,,,,,,,,,,,,,,,,,,,,,,,,,,,,,,,1,1.412767200032249,209.18630359997042,None,ScrollDown,정답입니다,209.18630359997042,None,209.18630359997042,None,209.18630359997042,None,209.18630359997042,None,210.49425429990515,None,210.49425429990515,210.9985857999418,,,,,,,,,,,,,,,,206,2023-03-29_15h20.15.606,FishGame,2022.1.1,59.918522827941715,
,34,넌 기회주의자야,5,Green,A,2.875,2.133333333333333,ScrollDown,ScrollUp,Green.png,1,Negative,Incongruent,,,,,0,0,0,0,,,,,,,,,,,,,0,33,33,33,,,,,,,,,,,,,,,,,,,,,,,,,,,,,,,,,,,,,,,,,,,,,,,,,,,,,,,,,,,,,,,,,,,,,,,,,,,,,,,,,1.0246913532416027,1.0466407998465002,211.63535479991697,None,ScrollDown,정답입니다,211.63535479991697,None,211.63535479991697,None,211.63535479991697,None,211.63535479991697,None,212.574514699867,None,212.574514699867,213.07457099994645,,,,,,,,,,,,,,,,206,2023-03-29_15h20.15.606,FishGame,2022.1.1,59.918522827941715,
,1,넌 미성숙해,4,Green,A,3,3.2,ScrollDown,ScrollUp,Green.png,2,Negative,Incongruent,,,,,0,0,0,0,,,,,,,,,,,,,,,,,0,0,0,0,,,,,,,,,,,,,,,,,,,,,,,,,,,,,,,,,,,,245.71043659979478,247.21466249995865,247.2312399998773,248.1935197999701,248.2435302999802,249.19076669984497,249.19076669984497,None,,,,,,,,,,,,,,,,,,,,,,,,,,,,,,,,,,1,1.8951260999310762,250.2873962998856,None,ScrollDown,정답입니다,250.2873962998856,None,250.2873962998856,None,250.2873962998856,None,250.2873962998856,None,252.07381139998324,None,252.07381139998324,252.57665579998866,213.57457459997386,None,213.57457459997386,None,0.25833333,-0.098148145,1,0,0,0.015703529817983508,None,243.57389509980567,None,,,206,2023-03-29_15h20.15.606,FishGame,2022.1.1,59.918522827941715,
,2,넌 반사회적이야,5,Orange,B,2.416666666666667,2.033333333333333,ScrollUp,ScrollDown,Orange.png,2,Negative,Congruent,,,,,0,0,0,0,,,,,,,,,,,,,,,,,0,1,1,1,,,,,,,,,,,,,,,,,,,,,,,,,,,,,,,,,,,,,,,,,,,,,,,,,,,,,,,,,,,,,,,,,,,,,,,,,,,,,1.7901234477758408,1.2290156001690775,253.20521979988553,None,ScrollUp,정답입니다,253.20521979988553,None,253.20521979988553,None,253.20521979988553,None,253.20521979988553,None,254.326610899996,None,254.326610899996,254.82659139996395,,,,,,,,,,,,,,,,206,2023-03-29_15h20.15.606,FishGame,2022.1.1,59.918522827941715,
,3,넌 유능해,2,Green,A,6.208333333333333,4.433333333333334,ScrollDown,ScrollUp,Green.png,2,Positive,Congruent,,,,,0,0,0,0,,,,,,,,,,,,,,,,,0,2,2,2,,,,,,,,,,,,,,,,,,,,,,,,,,,,,,,,,,,,,,,,,,,,,,,,,,,,,,,,,,,,,,,,,,,,,,,,,,,,,1.060185174147288,0.9956018999218941,255.45346919982694,None,ScrollDown,정답입니다,255.45346919982694,None,255.45346919982694,None,255.45346919982694,None,255.45346919982694,None,256.3433367998805,None,256.3433367998805,256.847709499998,,,,,,,,,,,,,,,,206,2023-03-29_15h20.15.606,FishGame,2022.1.1,59.918522827941715,
,4,넌 능숙해,2,Orange,B,5.666666666666667,4.733333333333333,ScrollUp,ScrollDown,Orange.png,2,Positive,Incongruent,,,,,0,0,0,0,,,,,,,,,,,,,,,,,0,3,3,3,,,,,,,,,,,,,,,,,,,,,,,,,,,,,,,,,,,,,,,,,,,,,,,,,,,,,,,,,,,,,,,,,,,,,,,,,,,,,1.817901223897934,0.8966265998315066,257.4848173998762,None,ScrollUp,정답입니다,257.4848173998762,None,257.4848173998762,None,257.4848173998762,None,257.4848173998762,None,258.2735810999293,None,258.2735810999293,258.77361409994774,,,,,,,,,,,,,,,,206,2023-03-29_15h20.15.606,FishGame,2022.1.1,59.918522827941715,
,5,넌 진부해,4,Orange,B,2.458333333333333,3.166666666666667,ScrollUp,ScrollDown,Orange.png,2,Negative,Congruent,,,,,0,0,0,0,,,,,,,,,,,,,,,,,0,4,4,4,,,,,,,,,,,,,,,,,,,,,,,,,,,,,,,,,,,,,,,,,,,,,,,,,,,,,,,,,,,,,,,,,,,,,,,,,,,,,1.837962955236435,0.9336506999097764,259.4022768000141,None,ScrollUp,정답입니다,259.4022768000141,None,259.4022768000141,None,259.4022768000141,None,259.4022768000141,None,260.22653699992225,None,260.22653699992225,260.7432613999117,,,,,,,,,,,,,,,,206,2023-03-29_15h20.15.606,FishGame,2022.1.1,59.918522827941715,
,6,나를 보내줘,6,Green,A,0,0,ScrollUp,ScrollDown,Green.png,2,NonTarget,NonTarget,,,,,0,0,0,0,,,,,,,,,,,,,,,,,0,5,5,5,,,,,,,,,,,,,,,,,,,,,,,,,,,,,,,,,,,,,,,,,,,,,,,,,,,,,,,,,,,,,,,,,,,,,,,,,,,,,1.8811728457609813,1.1965793000999838,261.3502312998753,None,ScrollUp,정답입니다,261.3502312998753,None,261.3502312998753,None,261.3502312998753,None,261.3502312998753,None,262.4431239999831,None,262.4431239999831,262.94314079987817,,,,,,,,,,,,,,,,206,2023-03-29_15h20.15.606,FishGame,2022.1.1,59.918522827941715,
,7,넌 엄격해,3,Green,A,4.166666666666666,4.1,ScrollDown,ScrollUp,Green.png,2,Neutral,Neutral,,,,,0,0,0,0,,,,,,,,,,,,,,,,,0,6,6,6,,,,,,,,,,,,,,,,,,,,,,,,,,,,,,,,,,,,,,,,,,,,,,,,,,,,,,,,,,,,,,,,,,,,,,,,,,,,,1.2746913631757102,0.9625107001047581,263.56944639980793,None,ScrollDown,정답입니다,263.56944639980793,None,263.56944639980793,None,263.56944639980793,None,263.56944639980793,None,264.42641650000587,None,264.42641650000587,264.92642979999073,,,,,,,,,,,,,,,,206,2023-03-29_15h20.15.606,FishGame,2022.1.1,59.918522827941715,
,8,나를 보내줘,6,Green,A,0,0,ScrollUp,ScrollDown,Green.png,2,NonTarget,NonTarget,,,,,0,0,0,0,,,,,,,,,,,,,,,,,0,7,7,7,,,,,,,,,,,,,,,,,,,,,,,,,,,,,,,,,,,,,,,,,,,,,,,,,,,,,,,,,,,,,,,,,,,,,,,,,,,,,1.7762345721324284,1.0627572999801487,265.5496091998648,None,ScrollUp,정답입니다,265.5496091998648,None,265.5496091998648,None,265.5496091998648,None,265.5496091998648,None,266.50974039989524,None,266.50974039989524,267.0263578000013,,,,,,,,,,,,,,,,206,2023-03-29_15h20.15.606,FishGame,2022.1.1,59.918522827941715,
,9,넌 대담해,3,Orange,B,4.875,4.866666666666666,ScrollUp,ScrollDown,Orange.png,2,Neutral,Neutral,,,,,0,0,0,0,,,,,,,,,,,,,,,,,0,8,8,8,,,,,,,,,,,,,,,,,,,,,,,,,,,,,,,,,,,,,,,,,,,,,,,,,,,,,,,,,,,,,,,,,,,,,,,,,,,,,1.8688271592060726,1.2623605001717806,267.6388741999399,None,ScrollUp,정답입니다,267.6388741999399,None,267.6388741999399,None,267.6388741999399,None,267.6388741999399,None,268.7930129999295,None,268.7930129999295,269.29034669999965,,,,,,,,,,,,,,,,206,2023-03-29_15h20.15.606,FishGame,2022.1.1,59.918522827941715,
,10,넌 꾸준해,1,Green,A,5.916666666666668,5.8,ScrollDown,ScrollUp,Green.png,2,Positive,Congruent,,,,,0,0,0,0,,,,,,,,,,,,,,,,,0,9,9,9,,,,,,,,,,,,,,,,,,,,,,,,,,,,,,,,,,,,,,,,,,,,,,,,,,,,,,,,,,,,,,,,,,,,,,,,,,,,,1.080246905485789,0.8957066000439227,269.9193682000041,None,ScrollDown,정답입니다,269.9193682000041,None,269.9193682000041,None,269.9193682000041,None,269.9193682000041,None,270.70698579982854,None,270.70698579982854,271.2096078998875,,,,,,,,,,,,,,,,206,2023-03-29_15h20.15.606,FishGame,2022.1.1,59.918522827941715,
,11,나를 데려가줘,6,Orange,B,0,0,ScrollDown,ScrollUp,Orange.png,2,NonTarget,NonTarget,,,,,0,0,0,0,,,,,,,,,,,,,,,,,0,10,10,10,,,,,,,,,,,,,,,,,,,,,,,,,,,,,,,,,,,,,,,,,,,,,,,,,,,,,,,,,,,,,,,,,,,,,,,,,,,,,1.0833333333333333,1.3293123999610543,271.83471869979985,None,ScrollDown,정답입니다,271.83471869979985,None,271.83471869979985,None,271.83471869979985,None,271.83471869979985,None,273.05957599985413,None,273.05957599985413,273.5596782998182,,,,,,,,,,,,,,,,206,2023-03-29_15h20.15.606,FishGame,2022.1.1,59.918522827941715,
,12,넌 독선적이야,5,Green,A,2.458333333333333,1.933333333333333,ScrollDown,ScrollUp,Green.png,2,Negative,Incongruent,,,,,0,0,0,0,,,,,,,,,,,,,,,,,0,11,11,11,,,,,,,,,,,,,,,,,,,,,,,,,,,,,,,,,,,,,,,,,,,,,,,,,,,,,,,,,,,,,,,,,,,,,,,,,,,,,1.2314814726511638,1.1983864998910576,274.19767349981703,None,ScrollDown,정답입니다,274.19767349981703,None,274.19767349981703,None,274.19767349981703,None,274.19767349981703,None,275.28987909993157,None,275.28987909993157,275.7898774999194,,,,,,,,,,,,,,,,206,2023-03-29_15h20.15.606,FishGame,2022.1.1,59.918522827941715,
,13,나를 보내줘,6,Green,A,0,0,ScrollUp,ScrollDown,Green.png,2,NonTarget,NonTarget,,,,,0,0,0,0,,,,,,,,,,,,,,,,,0,12,12,12,,,,,,,,,,,,,,,,,,,,,,,,,,,,,,,,,,,,,,,,,,,,,,,,,,,,,,,,,,,,,,,,,,,,,,,,,,,,,1.837962955236435,1.1491471999324858,276.4204244997818,None,ScrollUp,정답입니다,276.4204244997818,None,276.4204244997818,None,276.4204244997818,None,276.4204244997818,None,277.4568413000088,None,277.4568413000088,277.95951409987174,,,,,,,,,,,,,,,,206,2023-03-29_15h20.15.606,FishGame,2022.1.1,59.918522827941715,
,14,넌 책임감있어,1,Orange,B,6.347826086956522,6,ScrollUp,ScrollDown,Orange.png,2,Positive,Incongruent,,,,,0,0,0,0,,,,,,,,,,,,,,,,,0,13,13,13,,,,,,,,,,,,,,,,,,,,,,,,,,,,,,,,,,,,,,,,,,,,,,,,,,,,,,,,,,,,,,,,,,,,,,,,,,,,,2,1.612449400126934,278.58904329990037,None,ScrollUp,정답입니다,278.58904329990037,None,278.58904329990037,None,278.58904329990037,None,278.58904329990037,None,280.0928451998625,None,280.0928451998625,280.5927586997859,,,,,,,,,,,,,,,,206,2023-03-29_15h20.15.606,FishGame,2022.1.1,59.918522827941715,
,15,넌 문학적이야,3,Green,A,4.708333333333334,4.333333333333333,ScrollDown,ScrollUp,Green.png,2,Neutral,Neutral,,,,,0,0,0,0,,,,,,,,,,,,,,,,,0,14,14,14,,,,,,,,,,,,,,,,,,,,,,,,,,,,,,,,,,,,,,,,,,,,,,,,,,,,,,,,,,,,,,,,,,,,,,,,,,,,,1.0817901194095612,1.045524099841714,281.2199656998273,None,ScrollDown,정답입니다,281.2199656998273,None,281.2199656998273,None,281.2199656998273,None,281.2199656998273,None,282.15930359996855,None,282.15930359996855,282.6593282998074,,,,,,,,,,,,,,,,206,2023-03-29_15h20.15.606,FishGame,2022.1.1,59.918522827941715,
,16,넌 재미있어,1,Orange,B,5.875,5.7,ScrollUp,ScrollDown,Orange.png,2,Positive,Incongruent,,,,,0,0,0,0,,,,,,,,,,,,,,,,,0,15,15,15,,,,,,,,,,,,,,,,,,,,,,,,,,,,,,,,,,,,,,,,,,,,,,,,,,,,,,,,,,,,,,,,,,,,,,,,,,,,,1.5632716032365956,0.9292982998304069,283.28430309984833,None,ScrollUp,정답입니다,283.28430309984833,None,283.28430309984833,None,283.28430309984833,None,283.28430309984833,None,284.10936399991624,None,284.10936399991624,284.60954019986093,,,,,,,,,,,,,,,,206,2023-03-29_15h20.15.606,FishGame,2022.1.1,59.918522827941715,
,17,나를 데려가줘,6,Orange,B,0,0,ScrollDown,ScrollUp,Orange.png,2,NonTarget,NonTarget,,,,,0,0,0,0,,,,,,,,,,,,,,,,,0,16,16,16,,,,,,,,,,,,,,,,,,,,,,,,,,,,,,,,,,,,,,,,,,,,,,,,,,,,,,,,,,,,,,,,,,,,,,,,,,,,,1.1466049303611119,1.0793252000585198,285.23488839995116,None,ScrollDown,정답입니다,285.23488839995116,None,285.23488839995116,None,285.23488839995116,None,285.23488839995116,None,286.20924699981697,None,286.20924699981697,286.7092869000044,,,,,,,,,,,,,,,,206,2023-03-29_15h20.15.606,FishGame,2022.1.1,59.918522827941715,
,18,넌 협력적이야,1,Green,A,5.625,5.633333333333334,ScrollDown,ScrollUp,Green.png,2,Positive,Congruent,,,,,0,0,0,0,,,,,,,,,,,,,,,,,0,17,17,17,,,,,,,,,,,,,,,,,,,,,,,,,,,,,,,,,,,,,,,,,,,,,,,,,,,,,,,,,,,,,,,,,,,,,,,,,,,,,1.2638888905445733,0.9293680000118911,287.3351043998264,None,ScrollDown,정답입니다,287.3351043998264,None,287.3351043998264,None,287.3351043998264,None,287.3351043998264,None,288.15923579991795,None,288.15923579991795,288.6641128999181,,,,,,,,,,,,,,,,206,2023-03-29_15h20.15.606,FishGame,2022.1.1,59.918522827941715,
,19,넌 평범해,3,Orange,B,4.333333333333332,4.233333333333333,ScrollUp,ScrollDown,Orange.png,2,Neutral,Neutral,,,,,0,0,0,0,,,,,,,,,,,,,,,,,0,18,18,18,,,,,,,,,,,,,,,,,,,,,,,,,,,,,,,,,,,,,,,,,,,,,,,,,,,,,,,,,,,,,,,,,,,,,,,,,,,,,1.8888888905445735,0.9467164999805391,289.3026188998483,None,ScrollUp,정답입니다,289.3026188998483,None,289.3026188998483,None,289.3026188998483,None,289.3026188998483,None,290.13957569980994,None,290.13957569980994,290.6396172000095,,,,,,,,,,,,,,,,206,2023-03-29_15h20.15.606,FishGame,2022.1.1,59.918522827941715,
,20,넌 오만해,5,Green,A,2.333333333333333,2,ScrollDown,ScrollUp,Green.png,2,Negative,Incongruent,,,,,0,0,0,0,,,,,,,,,,,,,,,,,0,19,19,19,,,,,,,,,,,,,,,,,,,,,,,,,,,,,,,,,,,,,,,,,,,,,,,,,,,,,,,,,,,,,,,,,,,,,,,,,,,,,1.1697530895471573,0.8802597001194954,291.27300709998235,None,ScrollDown,정답입니다,291.27300709998235,None,291.27300709998235,None,291.27300709998235,None,291.27300709998235,None,292.0425948998891,None,292.0425948998891,292.54256649990566,,,,,,,,,,,,,,,,206,2023-03-29_15h20.15.606,FishGame,2022.1.1,59.918522827941715,
,21,넌 운이없어,4,Orange,B,3,3.466666666666667,ScrollUp,ScrollDown,Orange.png,2,Negative,Congruent,,,,,0,0,0,0,,,,,,,,,,,,,,,,,0,20,20,20,,,,,,,,,,,,,,,,,,,,,,,,,,,,,,,,,,,,,,,,,,,,,,,,,,,,,,,,,,,,,,,,,,,,,,,,,,,,,1.8271604826052983,0.9482533000409603,293.1707434998825,None,ScrollUp,정답입니다,293.1707434998825,None,293.1707434998825,None,293.1707434998825,None,293.1707434998825,None,294.0091442000121,None,294.0091442000121,294.5091589000076,,,,,,,,,,,,,,,,206,2023-03-29_15h20.15.606,FishGame,2022.1.1,59.918522827941715,
,22,넌 창조적이야,2,Orange,B,6.125,4.633333333333334,ScrollUp,ScrollDown,Orange.png,2,Positive,Incongruent,,,,,0,0,0,0,,,,,,,,,,,,,,,,,0,21,21,21,,,,,,,,,,,,,,,,,,,,,,,,,,,,,,,,,,,,,,,,,,,,,,,,,,,,,,,,,,,,,,,,,,,,,,,,,,,,,1.825617293516795,1.0987114999443293,295.1499695999082,None,ScrollUp,정답입니다,295.1499695999082,None,295.1499695999082,None,295.1499695999082,None,295.1499695999082,None,296.1394505999051,None,296.1394505999051,296.6394316998776,,,,,,,,,,,,,,,,206,2023-03-29_15h20.15.606,FishGame,2022.1.1,59.918522827941715,
,23,나를 보내줘,6,Green,A,0,0,ScrollUp,ScrollDown,Green.png,2,NonTarget,NonTarget,,,,,0,0,0,0,,,,,,,,,,,,,,,,,0,22,22,22,,,,,,,,,,,,,,,,,,,,,,,,,,,,,,,,,,,,,,,,,,,,,,,,,,,,,,,,,,,,,,,,,,,,,,,,,,,,,1.6219135771195092,1.148771099979058,297.26790339988656,None,ScrollUp,정답입니다,297.26790339988656,None,297.26790339988656,None,297.26790339988656,None,297.26790339988656,None,298.3064292999916,None,298.3064292999916,298.8090994998347,,,,,,,,,,,,,,,,206,2023-03-29_15h20.15.606,FishGame,2022.1.1,59.918522827941715,
,24,넌 통찰력있어,2,Green,A,6.5,4.8,ScrollDown,ScrollUp,Green.png,2,Positive,Congruent,,,,,0,0,0,0,,,,,,,,,,,,,,,,,0,23,23,23,,,,,,,,,,,,,,,,,,,,,,,,,,,,,,,,,,,,,,,,,,,,,,,,,,,,,,,,,,,,,,,,,,,,,,,,,,,,,1.194444437821706,0.8290138999000192,299.43945059995167,None,ScrollDown,정답입니다,299.43945059995167,None,299.43945059995167,None,299.43945059995167,None,299.43945059995167,None,300.1563754999079,None,300.1563754999079,300.65906949993223,,,,,,,,,,,,,,,,206,2023-03-29_15h20.15.606,FishGame,2022.1.1,59.918522827941715,
,25,넌 경솔해,5,Orange,B,2.458333333333333,2.266666666666667,ScrollUp,ScrollDown,Orange.png,2,Negative,Congruent,,,,,0,0,0,0,,,,,,,,,,,,,,,,,0,24,24,24,,,,,,,,,,,,,,,,,,,,,,,,,,,,,,,,,,,,,,,,,,,,,,,,,,,,,,,,,,,,,,,,,,,,,,,,,,,,,1.5787037052214146,1.0651026000268757,301.29029959999025,None,ScrollUp,정답입니다,301.29029959999025,None,301.29029959999025,None,301.29029959999025,None,301.29029959999025,None,302.2393215999473,None,302.2393215999473,302.73931470001116,,,,,,,,,,,,,,,,206,2023-03-29_15h20.15.606,FishGame,2022.1.1,59.918522827941715,
,26,넌 초조해,4,Green,A,2.916666666666667,3.133333333333333,ScrollDown,ScrollUp,Green.png,2,Negative,Incongruent,,,,,0,0,0,0,,,,,,,,,,,,,,,,,0,25,25,25,,,,,,,,,,,,,,,,,,,,,,,,,,,,,,,,,,,,,,,,,,,,,,,,,,,,,,,,,,,,,,,,,,,,,,,,,,,,,1.1990740795930226,0.7678278998937458,303.36738809989765,None,ScrollDown,정답입니다,303.36738809989765,None,303.36738809989765,None,303.36738809989765,None,303.36738809989765,None,304.0230009998195,None,304.0230009998195,304.5256182998419,,,,,,,,,,,,,,,,206,2023-03-29_15h20.15.606,FishGame,2022.1.1,59.918522827941715,
,27,넌 무관심해,4,Orange,B,2.833333333333333,2.9,ScrollUp,ScrollDown,Orange.png,2,Negative,Congruent,,,,,0,0,0,0,,,,,,,,,,,,,,,,,0,26,26,26,,,,,,,,,,,,,,,,,,,,,,,,,,,,,,,,,,,,,,,,,,,,,,,,,,,,,,,,,,,,,,,,,,,,,,,,,,,,,1.6682098706563315,0.8318638999480754,305.1539017998148,None,ScrollUp,정답입니다,305.1539017998148,None,305.1539017998148,None,305.1539017998148,None,305.1539017998148,None,305.8755585998297,None,305.8755585998297,306.3756009999197,,,,,,,,,,,,,,,,206,2023-03-29_15h20.15.606,FishGame,2022.1.1,59.918522827941715,
,28,넌 감성적이야,3,Orange,B,4.125,4.166666666666667,ScrollUp,ScrollDown,Orange.png,2,Neutral,Neutral,,,,,0,0,0,0,,,,,,,,,,,,,,,,,0,27,27,27,,,,,,,,,,,,,,,,,,,,,,,,,,,,,,,,,,,,,,,,,,,,,,,,,,,,,,,,,,,,,,,,,,,,,,,,,,,,,1.6358024651805558,0.8074286999180913,307.01203469978645,None,ScrollUp,정답입니다,307.01203469978645,None,307.01203469978645,None,307.01203469978645,None,307.01203469978645,None,307.70587349985726,None,307.70587349985726,308.2067556998227,,,,,,,,,,,,,,,,206,2023-03-29_15h20.15.606,FishGame,2022.1.1,59.918522827941715,
,29,넌 배려심있어,1,Green,A,6.083333333333333,5.5,ScrollDown,ScrollUp,Green.png,2,Positive,Congruent,,,,,0,0,0,0,,,,,,,,,,,,,,,,,0,28,28,28,,,,,,,,,,,,,,,,,,,,,,,,,,,,,,,,,,,,,,,,,,,,,,,,,,,,,,,,,,,,,,,,,,,,,,,,,,,,,1.234567900498708,0.8462861001025885,308.8331270997878,None,ScrollDown,정답입니다,308.8331270997878,None,308.8331270997878,None,308.8331270997878,None,308.8331270997878,None,309.57253689994104,None,309.57253689994104,310.075526899891,,,,,,,,,,,,,,,,206,2023-03-29_15h20.15.606,FishGame,2022.1.1,59.918522827941715,
,30,넌 숨김없어,3,Green,A,4.5,4.933333333333334,ScrollDown,ScrollUp,Green.png,2,Neutral,Neutral,,,,,0,0,0,0,,,,,,,,,,,,,,,,,0,29,29,29,,,,,,,,,,,,,,,,,,,,,,,,,,,,,,,,,,,,,,,,,,,,,,,,,,,,,,,,,,,,,,,,,,,,,,,,,,,,,1.2947530820965767,0.8124830001033843,310.7033534999937,None,ScrollDown,정답입니다,310.7033534999937,None,310.7033534999937,None,310.7033534999937,None,310.7033534999937,None,311.4089465998113,None,311.4089465998113,311.90878509986214,,,,,,,,,,,,,,,,206,2023-03-29_15h20.15.606,FishGame,2022.1.1,59.918522827941715,
,31,넌 훌륭해,2,Orange,B,5.916666666666667,4.033333333333333,ScrollUp,ScrollDown,Orange.png,2,Positive,Incongruent,,,,,0,0,0,0,,,,,,,,,,,,,,,,,0,30,30,30,,,,,,,,,,,,,,,,,,,,,,,,,,,,,,,,,,,,,,,,,,,,,,,,,,,,,,,,,,,,,,,,,,,,,,,,,,,,,1.5524691368142762,0.8453879998996854,312.5376507998444,None,ScrollUp,정답입니다,312.5376507998444,None,312.5376507998444,None,312.5376507998444,None,312.5376507998444,None,313.2724108998664,None,313.2724108998664,313.772415000014,,,,,,,,,,,,,,,,206,2023-03-29_15h20.15.606,FishGame,2022.1.1,59.918522827941715,
,32,넌 슬기로워,2,Green,A,6.166666666666667,4.1,ScrollDown,ScrollUp,Green.png,2,Positive,Congruent,,,,,0,0,0,0,,,,,,,,,,,,,,,,,0,31,31,31,,,,,,,,,,,,,,,,,,,,,,,,,,,,,,,,,,,,,,,,,,,,,,,,,,,,,,,,,,,,,,,,,,,,,,,,,,,,,1.248456800977389,0.7791072998661548,314.3995189999696,None,ScrollDown,정답입니다,314.3995189999696,None,314.3995189999696,None,314.3995189999696,None,314.3995189999696,None,315.0724258997943,None,315.0724258997943,315.5726152998395,,,,,,,,,,,,,,,,206,2023-03-29_15h20.15.606,FishGame,2022.1.1,59.918522827941715,
,33,넌 냉혹해,5,Green,A,2.583333333333333,2.1,ScrollDown,ScrollUp,Green.png,2,Negative,Incongruent,,,,,0,0,0,0,,,,,,,,,,,,,,,,,0,32,32,32,,,,,,,,,,,,,,,,,,,,,,,,,,,,,,,,,,,,,,,,,,,,,,,,,,,,,,,,,,,,,,,,,,,,,,,,,,,,,1.2608024626970291,0.8984181999694556,316.2080792998895,None,ScrollDown,정답입니다,316.2080792998895,None,316.2080792998895,None,316.2080792998895,None,316.2080792998895,None,316.9920039998833,None,316.9920039998833,317.49205100000836,,,,,,,,,,,,,,,,206,2023-03-29_15h20.15.606,FishGame,2022.1.1,59.918522827941715,
,34,나를 데려가줘,6,Orange,B,0,0,ScrollDown,ScrollUp,Orange.png,2,NonTarget,NonTarget,,,,,0,0,0,0,,,,,,,,,,,,,,,,,0,33,33,33,,,,,,,,,,,,,,,,,,,,,,,,,,,,,,,,,,,,,,,,,,,,,,,,,,,,,,,,,,,,,,,,,,,,,,,,,,,,,1.3086419701576233,1.1281828000210226,318.11854489985853,None,ScrollDown,정답입니다,318.11854489985853,None,318.11854489985853,None,318.11854489985853,None,318.11854489985853,None,319.141881799791,None,319.141881799791,319.64187299995683,,,,,,,,,,,,,,,,206,2023-03-29_15h20.15.606,FishGame,2022.1.1,59.918522827941715,
,35,넌 편파적이야,5,Orange,B,2.125,2,ScrollUp,ScrollDown,Orange.png,2,Negative,Congruent,,,,,0,0,0,0,,,,,,,,,,,,,,,,,0,34,34,34,,,,,,,,,,,,,,,,,,,,,,,,,,,,,,,,,,,,,,,,,,,,,,,,,,,,,,,,,,,,,,,,,,,,,,,,,,,,,1.549382715175549,0.8623780999332666,320.2699945999775,None,NoResponse,무응답입니다,320.2699945999775,None,320.2699945999775,None,320.2699945999775,None,320.2699945999775,None,321.0251789998729,None,321.0251789998729,321.5252089998685,,,,,,,,,,,,,,,,206,2023-03-29_15h20.15.606,FishGame,2022.1.1,59.918522827941715,
,36,넌 슬퍼,4,Green,A,2.583333333333333,3.066666666666667,ScrollDown,ScrollUp,Green.png,2,Negative,Incongruent,,,,,0,0,0,0,,,,,,,,,,,,,,,,,0,35,35,35,,,,,,,,,,,,,,,,,,,,,,,,,,,,,,,,,,,,,,,,,,,,,,,,,,,,,,,,,,,,,,,,,,,,,,,,,,,,,1.3117283980051675,0.8124631000682712,322.1645092999097,None,ScrollDown,정답입니다,322.1645092999097,None,322.1645092999097,None,322.1645092999097,None,322.1645092999097,None,322.875180499861,None,322.875180499861,323.3918790000025,,,,,,,,,,,,,,,,206,2023-03-29_15h20.15.606,FishGame,2022.1.1,59.918522827941715,
,37,나를 데려가줘,6,Orange,B,0,0,ScrollDown,ScrollUp,Orange.png,2,NonTarget,NonTarget,,,,,0,0,0,0,,,,,,,,,,,,,,,,,0,36,36,36,,,,,,,,,,,,,,,,,,,,,,,,,,,,,,,,,,,,,,,,,,,,,,,,,,,,,,,,,,,,,,,,,,,,,,,,,,,,,1.0046296219031017,1.064897600095719,324.0009511997923,None,ScrollDown,정답입니다,324.0009511997923,None,324.0009511997923,None,324.0009511997923,None,324.0009511997923,None,324.9584816999268,None,324.9584816999268,325.46331659983844,,,,,,,,,,,,,,,,206,2023-03-29_15h20.15.606,FishGame,2022.1.1,59.918522827941715,
,38,넌 친절해,1,Orange,B,6.041666666666667,5.533333333333333,ScrollUp,ScrollDown,Orange.png,2,Positive,Incongruent,,,,,0,0,0,0,,,,,,,,,,,,,,,,,0,37,37,37,,,,,,,,,,,,,,,,,,,,,,,,,,,,,,,,,,,,,,,,,,,,,,,,,,,,,,,,,,,,,,,,,,,,,,,,,,,,,1.6975308607021966,0.9827399000059813,326.0989679999184,None,ScrollUp,정답입니다,326.0989679999184,None,326.0989679999184,None,326.0989679999184,None,326.0989679999184,None,326.97212209994905,None,326.97212209994905,327.47516029980034,,,,,,,,,,,,,,,,206,2023-03-29_15h20.15.606,FishGame,2022.1.1,59.918522827941715,
,1,넌 엉성해,4,Green,A,3,3.3,ScrollDown,ScrollUp,Green.png,3,Negative,Incongruent,,,,,0,0,0,0,,,,,,,,,,,,,,,,,,,,,0,0,0,0,,,,,,,,,,,,,,,,,,,,,,,,,,,,,,,,360.3079626997933,361.8078022999689,361.8411595998332,362.79113289993256,362.8411266999319,363.7910942998715,363.7910942998715,None,,,,,,,,,,,,,,,,,,,,,,,,,,,,,,,,,,1.3117283980051675,1.258695999858901,364.8922082998324,None,ScrollDown,정답입니다,364.8922082998324,None,364.8922082998324,None,364.8922082998324,None,364.8922082998324,None,366.0382561997976,None,366.0382561997976,366.54092799988575,327.9758842999581,None,327.9758842999581,None,0.24444444,-0.10277778,1,0,0,0.016412429744377732,None,357.9882045998238,None,,,206,2023-03-29_15h20.15.606,FishGame,2022.1.1,59.918522827941715,
,2,나를 보내줘,6,Green,A,0,0,ScrollUp,ScrollDown,Green.png,3,NonTarget,NonTarget,,,,,0,0,0,0,,,,,,,,,,,,,,,,,,,,,0,1,1,1,,,,,,,,,,,,,,,,,,,,,,,,,,,,,,,,,,,,,,,,,,,,,,,,,,,,,,,,,,,,,,,,,,,,,,,,,1.8117283930381138,1.1315758000127971,367.16127249994315,None,ScrollUp,정답입니다,367.16127249994315,None,367.16127249994315,None,367.16127249994315,None,367.16127249994315,None,368.1908954998944,None,368.1908954998944,368.7049999998417,,,,,,,,,,,,,,,,206,2023-03-29_15h20.15.606,FishGame,2022.1.1,59.918522827941715,
,3,넌 활발해,1,Orange,B,5.666666666666667,5.6,ScrollUp,ScrollDown,Orange.png,3,Positive,Incongruent,,,,,0,0,0,0,,,,,,,,,,,,,,,,,,,,,0,2,2,2,,,,,,,,,,,,,,,,,,,,,,,,,,,,,,,,,,,,,,,,,,,,,,,,,,,,,,,,,,,,,,,,,,,,,,,,,1.939814825852712,1.1132288998924196,369.31920009991154,None,ScrollUp,정답입니다,369.31920009991154,None,369.31920009991154,None,369.31920009991154,None,369.31920009991154,None,370.3212307000067,None,370.3212307000067,370.8213837000076,,,,,,,,,,,,,,,,206,2023-03-29_15h20.15.606,FishGame,2022.1.1,59.918522827941715,
,4,넌 논리적이야,2,Green,A,5.666666666666666,4.633333333333334,ScrollDown,ScrollUp,Green.png,3,Positive,Congruent,,,,,0,0,0,0,,,,,,,,,,,,,,,,,,,,,0,3,3,3,,,,,,,,,,,,,,,,,,,,,,,,,,,,,,,,,,,,,,,,,,,,,,,,,,,,,,,,,,,,,,,,,,,,,,,,,1.1496913582086563,0.849110399838537,371.4469349998981,None,ScrollDown,정답입니다,371.4469349998981,None,371.4469349998981,None,371.4469349998981,None,371.4469349998981,None,372.19089849991724,None,372.19089849991724,372.690919799963,,,,,,,,,,,,,,,,206,2023-03-29_15h20.15.606,FishGame,2022.1.1,59.918522827941715,
,5,넌 과묵해,3,Green,A,3.875,4.4,ScrollDown,ScrollUp,Green.png,3,Neutral,Neutral,,,,,0,0,0,0,,,,,,,,,,,,,,,,,,,,,0,4,4,4,,,,,,,,,,,,,,,,,,,,,,,,,,,,,,,,,,,,,,,,,,,,,,,,,,,,,,,,,,,,,,,,,,,,,,,,,1.2793209801117578,1.0316632997710258,373.31667019985616,None,ScrollDown,정답입니다,373.31667019985616,None,373.31667019985616,None,373.31667019985616,None,373.31667019985616,None,374.24083889997564,None,374.24083889997564,374.7408065998461,,,,,,,,,,,,,,,,206,2023-03-29_15h20.15.606,FishGame,2022.1.1,59.918522827941715,
,6,나를 데려가줘,6,Orange,B,0,0,ScrollDown,ScrollUp,Orange.png,3,NonTarget,NonTarget,,,,,0,0,0,0,,,,,,,,,,,,,,,,,,,,,0,5,5,5,,,,,,,,,,,,,,,,,,,,,,,,,,,,,,,,,,,,,,,,,,,,,,,,,,,,,,,,,,,,,,,,,,,,,,,,,1.1682098756233852,1.0743175998795778,375.3684663998429,None,ScrollDown,정답입니다,375.3684663998429,None,375.3684663998429,None,375.3684663998429,None,375.3684663998429,None,376.3377537999768,None,376.3377537999768,376.8377487999387,,,,,,,,,,,,,,,,206,2023-03-29_15h20.15.606,FishGame,2022.1.1,59.918522827941715,
,7,넌 미숙해,4,Orange,B,3,3,ScrollUp,ScrollDown,Orange.png,3,Negative,Congruent,,,,,0,0,0,0,,,,,,,,,,,,,,,,,,,,,0,6,6,6,,,,,,,,,,,,,,,,,,,,,,,,,,,,,,,,,,,,,,,,,,,,,,,,,,,,,,,,,,,,,,,,,,,,,,,,,1.8904321044683456,1.2317981999367476,377.4629378998652,None,ScrollUp,정답입니다,377.4629378998652,None,377.4629378998652,None,377.4629378998652,None,377.4629378998652,None,378.5881288999226,None,378.5881288999226,379.09076619986445,,,,,,,,,,,,,,,,206,2023-03-29_15h20.15.606,FishGame,2022.1.1,59.918522827941715,
,8,나를 보내줘,6,Green,A,0,0,ScrollUp,ScrollDown,Green.png,3,NonTarget,NonTarget,,,,,0,0,0,0,,,,,,,,,,,,,,,,,,,,,0,7,7,7,,,,,,,,,,,,,,,,,,,,,,,,,,,,,,,,,,,,,,,,,,,,,,,,,,,,,,,,,,,,,,,,,,,,,,,,,1.6404320945342383,1.1123093001078814,379.726299099857,None,ScrollUp,정답입니다,379.726299099857,None,379.726299099857,None,379.726299099857,None,379.726299099857,None,380.7239774998743,None,380.7239774998743,381.22872939985245,,,,,,,,,,,,,,,,206,2023-03-29_15h20.15.606,FishGame,2022.1.1,59.918522827941715,
,9,넌 자신만만해,3,Orange,B,4.833333333333334,4.333333333333333,ScrollUp,ScrollDown,Orange.png,3,Neutral,Neutral,,,,,0,0,0,0,,,,,,,,,,,,,,,,,,,,,0,8,8,8,,,,,,,,,,,,,,,,,,,,,,,,,,,,,,,,,,,,,,,,,,,,,,,,,,,,,,,,,,,,,,,,,,,,,,,,,1.743827154239019,1.1466709000524133,381.865014599869,None,ScrollUp,정답입니다,381.865014599869,None,381.865014599869,None,381.865014599869,None,381.865014599869,None,382.9042756999843,None,382.9042756999843,383.4043412997853,,,,,,,,,,,,,,,,206,2023-03-29_15h20.15.606,FishGame,2022.1.1,59.918522827941715,
,10,넌 탐욕스러워,5,Green,A,2.25,2.1,ScrollDown,ScrollUp,Green.png,3,Negative,Incongruent,,,,,0,0,0,0,,,,,,,,,,,,,,,,,,,,,0,9,9,9,,,,,,,,,,,,,,,,,,,,,,,,,,,,,,,,,,,,,,,,,,,,,,,,,,,,,,,,,,,,,,,,,,,,,,,,,1,1.345682199811563,384.03460209979676,None,ScrollDown,정답입니다,384.03460209979676,None,384.03460209979676,None,384.03460209979676,None,384.03460209979676,None,385.2739470999222,None,385.2739470999222,385.7739416998811,,,,,,,,,,,,,,,,206,2023-03-29_15h20.15.606,FishGame,2022.1.1,59.918522827941715,
,11,넌 인기있어,2,Green,A,5.458333333333333,4.5,ScrollDown,ScrollUp,Green.png,3,Positive,Congruent,,,,,0,0,0,0,,,,,,,,,,,,,,,,,,,,,0,10,10,10,,,,,,,,,,,,,,,,,,,,,,,,,,,,,,,,,,,,,,,,,,,,,,,,,,,,,,,,,,,,,,,,,,,,,,,,,1.1851851791143417,0.9439742998220026,386.3970990998205,None,ScrollDown,정답입니다,386.3970990998205,None,386.3970990998205,None,386.3970990998205,None,386.3970990998205,None,387.2346649998799,None,387.2346649998799,387.7375231999904,,,,,,,,,,,,,,,,206,2023-03-29_15h20.15.606,FishGame,2022.1.1,59.918522827941715,
,12,나를 데려가줘,6,Orange,B,0,0,ScrollDown,ScrollUp,Orange.png,3,NonTarget,NonTarget,,,,,0,0,0,0,,,,,,,,,,,,,,,,,,,,,0,11,11,11,,,,,,,,,,,,,,,,,,,,,,,,,,,,,,,,,,,,,,,,,,,,,,,,,,,,,,,,,,,,,,,,,,,,,,,,,1.1728395173947017,1.1483811000362039,388.3610755999107,None,ScrollDown,정답입니다,388.3610755999107,None,388.3610755999107,None,388.3610755999107,None,388.3610755999107,None,389.4042122999672,None,389.4042122999672,389.90718359989114,,,,,,,,,,,,,,,,206,2023-03-29_15h20.15.606,FishGame,2022.1.1,59.918522827941715,
,13,넌 뛰어나,2,Orange,B,6.166666666666667,4,ScrollUp,ScrollDown,Orange.png,3,Positive,Incongruent,,,,,0,0,0,0,,,,,,,,,,,,,,,,,,,,,0,12,12,12,,,,,,,,,,,,,,,,,,,,,,,,,,,,,,,,,,,,,,,,,,,,,,,,,,,,,,,,,,,,,,,,,,,,,,,,,1.6805555572112403,1.0959968999959528,390.5348064999562,None,ScrollUp,정답입니다,390.5348064999562,None,390.5348064999562,None,390.5348064999562,None,390.5348064999562,None,391.52377530001104,None,391.52377530001104,392.02382160001434,,,,,,,,,,,,,,,,206,2023-03-29_15h20.15.606,FishGame,2022.1.1,59.918522827941715,
,14,넌 낙관적이야,1,Green,A,5.75,5.8,ScrollDown,ScrollUp,Green.png,3,Positive,Congruent,,,,,0,0,0,0,,,,,,,,,,,,,,,,,,,,,0,13,13,13,,,,,,,,,,,,,,,,,,,,,,,,,,,,,,,,,,,,,,,,,,,,,,,,,,,,,,,,,,,,,,,,,,,,,,,,,1.0354938507080078,0.9955104999244213,392.6494104999583,None,ScrollDown,정답입니다,392.6494104999583,None,392.6494104999583,None,392.6494104999583,None,392.6494104999583,None,393.53743359982036,None,393.53743359982036,394.03744989982806,,,,,,,,,,,,,,,,206,2023-03-29_15h20.15.606,FishGame,2022.1.1,59.918522827941715,
,15,넌 산만해,4,Orange,B,2.695652173913043,3.033333333333333,ScrollUp,ScrollDown,Orange.png,3,Negative,Congruent,,,,,0,0,0,0,,,,,,,,,,,,,,,,,,,,,0,14,14,14,,,,,,,,,,,,,,,,,,,,,,,,,,,,,,,,,,,,,,,,,,,,,,,,,,,,,,,,,,,,,,,,,,,,,,,,,1.604938273628553,0.8814385000150651,394.66290559992194,None,ScrollUp,정답입니다,394.66290559992194,None,394.66290559992194,None,394.66290559992194,None,394.66290559992194,None,395.437408400001,None,395.437408400001,395.9403916997835,,,,,,,,,,,,,,,,206,2023-03-29_15h20.15.606,FishGame,2022.1.1,59.918522827941715,
,16,나를 보내줘,6,Green,A,0,0,ScrollUp,ScrollDown,Green.png,3,NonTarget,NonTarget,,,,,0,0,0,0,,,,,,,,,,,,,,,,,,,,,0,15,15,15,,,,,,,,,,,,,,,,,,,,,,,,,,,,,,,,,,,,,,,,,,,,,,,,,,,,,,,,,,,,,,,,,,,,,,,,,1.765432099501292,1.3316305000334978,396.563586599892,None,ScrollUp,정답입니다,396.563586599892,None,396.563586599892,None,396.563586599892,None,396.563586599892,None,397.7876505998429,None,397.7876505998429,398.29034969978966,,,,,,,,,,,,,,,,206,2023-03-29_15h20.15.606,FishGame,2022.1.1,59.918522827941715,
,17,넌 교활해,5,Orange,B,2.333333333333333,2.133333333333333,ScrollUp,ScrollDown,Orange.png,3,Negative,Congruent,,,,,0,0,0,0,,,,,,,,,,,,,,,,,,,,,0,16,16,16,,,,,,,,,,,,,,,,,,,,,,,,,,,,,,,,,,,,,,,,,,,,,,,,,,,,,,,,,,,,,,,,,,,,,,,,,1.6481481517354646,1.1622653999365866,398.92012739996426,None,ScrollUp,정답입니다,398.92012739996426,None,398.92012739996426,None,398.92012739996426,None,398.92012739996426,None,399.9735128998291,None,399.9735128998291,400.4875743999146,,,,,,,,,,,,,,,,206,2023-03-29_15h20.15.606,FishGame,2022.1.1,59.918522827941715,
,18,나를 보내줘,6,Green,A,0,0,ScrollUp,ScrollDown,Green.png,3,NonTarget,NonTarget,,,,,0,0,0,0,,,,,,,,,,,,,,,,,,,,,0,17,17,17,,,,,,,,,,,,,,,,,,,,,,,,,,,,,,,,,,,,,,,,,,,,,,,,,,,,,,,,,,,,,,,,,,,,,,,,,1.7484567960103354,1.2150939002167434,401.1127882997971,None,ScrollUp,정답입니다,401.1127882997971,None,401.1127882997971,None,401.1127882997971,None,401.1127882997971,None,402.22083060001023,None,402.22083060001023,402.7208119998686,,,,,,,,,,,,,,,,206,2023-03-29_15h20.15.606,FishGame,2022.1.1,59.918522827941715,
,19,넌 불친절해,5,Orange,B,2.208333333333333,2.033333333333333,ScrollUp,ScrollDown,Orange.png,3,Negative,Congruent,,,,,0,0,0,0,,,,,,,,,,,,,,,,,,,,,0,18,18,18,,,,,,,,,,,,,,,,,,,,,,,,,,,,,,,,,,,,,,,,,,,,,,,,,,,,,,,,,,,,,,,,,,,,,,,,,1.9228395223617554,1.428838900057599,403.36093979980797,None,ScrollUp,정답입니다,403.36093979980797,None,403.36093979980797,None,403.36093979980797,None,403.36093979980797,None,404.67354210000485,None,404.67354210000485,405.1734997997992,,,,,,,,,,,,,,,,206,2023-03-29_15h20.15.606,FishGame,2022.1.1,59.918522827941715,
,20,넌 지적이야,2,Orange,B,5.75,4.366666666666666,ScrollUp,ScrollDown,Orange.png,3,Positive,Incongruent,,,,,0,0,0,0,,,,,,,,,,,,,,,,,,,,,0,19,19,19,,,,,,,,,,,,,,,,,,,,,,,,,,,,,,,,,,,,,,,,,,,,,,,,,,,,,,,,,,,,,,,,,,,,,,,,,1.7006172885497413,0.9625733001157641,405.79839609982446,None,ScrollUp,정답입니다,405.79839609982446,None,405.79839609982446,None,405.79839609982446,None,405.79839609982446,None,406.65677609993145,None,406.65677609993145,407.1611302997917,,,,,,,,,,,,,,,,206,2023-03-29_15h20.15.606,FishGame,2022.1.1,59.918522827941715,
,21,넌 우유부단해,4,Green,A,2.666666666666667,3.166666666666667,ScrollDown,ScrollUp,Green.png,3,Negative,Incongruent,,,,,0,0,0,0,,,,,,,,,,,,,,,,,,,,,0,20,20,20,,,,,,,,,,,,,,,,,,,,,,,,,,,,,,,,,,,,,,,,,,,,,,,,,,,,,,,,,,,,,,,,,,,,,,,,,1.0478395124276478,1.1318552000448108,407.7950359999668,None,ScrollDown,정답입니다,407.7950359999668,None,407.7950359999668,None,407.7950359999668,None,407.7950359999668,None,408.8203939998057,None,408.8203939998057,409.3205633999314,,,,,,,,,,,,,,,,206,2023-03-29_15h20.15.606,FishGame,2022.1.1,59.918522827941715,
,22,나를 데려가줘,6,Orange,B,0,0,ScrollDown,ScrollUp,Orange.png,3,NonTarget,NonTarget,,,,,0,0,0,0,,,,,,,,,,,,,,,,,,,,,0,21,21,21,,,,,,,,,,,,,,,,,,,,,,,,,,,,,,,,,,,,,,,,,,,,,,,,,,,,,,,,,,,,,,,,,,,,,,,,,1.2206790000200272,1.0798027000855654,409.95607219985686,None,ScrollDown,정답입니다,409.95607219985686,None,409.95607219985686,None,409.95607219985686,None,409.95607219985686,None,410.92336799995974,None,410.92336799995974,411.4233545998577,,,,,,,,,,,,,,,,206,2023-03-29_15h20.15.606,FishGame,2022.1.1,59.918522827941715,
,23,넌 성실해,1,Orange,B,6.041666666666666,5.7,ScrollUp,ScrollDown,Orange.png,3,Positive,Incongruent,,,,,0,0,0,0,,,,,,,,,,,,,,,,,,,,,0,22,22,22,,,,,,,,,,,,,,,,,,,,,,,,,,,,,,,,,,,,,,,,,,,,,,,,,,,,,,,,,,,,,,,,,,,,,,,,,1.4907407405165334,1.2454840000718832,412.0520279998891,None,NoResponse,무응답입니다,412.0520279998891,None,412.0520279998891,None,412.0520279998891,None,412.0520279998891,None,413.187319799792,None,413.187319799792,413.6899715999607,,,,,,,,,,,,,,,,206,2023-03-29_15h20.15.606,FishGame,2022.1.1,59.918522827941715,
,24,넌 현실주의적이야,3,Green,A,4.625,4.4,ScrollDown,ScrollUp,Green.png,3,Neutral,Neutral,,,,,0,0,0,0,,,,,,,,,,,,,,,,,,,,,0,23,23,23,,,,,,,,,,,,,,,,,,,,,,,,,,,,,,,,,,,,,,,,,,,,,,,,,,,,,,,,,,,,,,,,,,,,,,,,,1.1882716069618862,0.9414792000316083,414.3183285999112,None,ScrollDown,정답입니다,414.3183285999112,None,414.3183285999112,None,414.3183285999112,None,414.3183285999112,None,415.15392499999143,None,415.15392499999143,415.6565854998771,,,,,,,,,,,,,,,,206,2023-03-29_15h20.15.606,FishGame,2022.1.1,59.918522827941715,
,25,넌 진실돼,1,Green,A,6.625,5.566666666666666,ScrollDown,ScrollUp,Green.png,3,Positive,Congruent,,,,,0,0,0,0,,,,,,,,,,,,,,,,,,,,,0,24,24,24,,,,,,,,,,,,,,,,,,,,,,,,,,,,,,,,,,,,,,,,,,,,,,,,,,,,,,,,,,,,,,,,,,,,,,,,,1.2546296318372092,1.0624402000103146,416.2933050999418,None,ScrollDown,정답입니다,416.2933050999418,None,416.2933050999418,None,416.2933050999418,None,416.2933050999418,None,417.2368856999092,None,417.2368856999092,417.7369010997936,,,,,,,,,,,,,,,,206,2023-03-29_15h20.15.606,FishGame,2022.1.1,59.918522827941715,
,26,넌 천진난만해,3,Orange,B,4.958333333333334,4.833333333333333,ScrollUp,ScrollDown,Orange.png,3,Neutral,Neutral,,,,,0,0,0,0,,,,,,,,,,,,,,,,,,,,,0,25,25,25,,,,,,,,,,,,,,,,,,,,,,,,,,,,,,,,,,,,,,,,,,,,,,,,,,,,,,,,,,,,,,,,,,,,,,,,,1.8827160596847534,0.9641865999437869,418.36716219992377,None,ScrollUp,정답입니다,418.36716219992377,None,418.36716219992377,None,418.36716219992377,None,418.36716219992377,None,419.2232148000039,None,419.2232148000039,419.7232481997926,,,,,,,,,,,,,,,,206,2023-03-29_15h20.15.606,FishGame,2022.1.1,59.918522827941715,
,27,넌 교양없어,5,Green,A,2.416666666666667,2.2,ScrollDown,ScrollUp,Green.png,3,Negative,Incongruent,,,,,0,0,0,0,,,,,,,,,,,,,,,,,,,,,0,26,26,26,,,,,,,,,,,,,,,,,,,,,,,,,,,,,,,,,,,,,,,,,,,,,,,,,,,,,,,,,,,,,,,,,,,,,,,,,1.1990740795930226,0.9624596000649035,420.34993799985386,None,ScrollDown,정답입니다,420.34993799985386,None,420.34993799985386,None,420.34993799985386,None,420.34993799985386,None,421.2064792998135,None,421.2064792998135,421.7064927997999,,,,,,,,,,,,,,,,206,2023-03-29_15h20.15.606,FishGame,2022.1.1,59.918522827941715,
,28,나를 보내줘,6,Green,A,0,0,ScrollUp,ScrollDown,Green.png,3,NonTarget,NonTarget,,,,,0,0,0,0,,,,,,,,,,,,,,,,,,,,,0,27,27,27,,,,,,,,,,,,,,,,,,,,,,,,,,,,,,,,,,,,,,,,,,,,,,,,,,,,,,,,,,,,,,,,,,,,,,,,,1.785493830839793,1.1071522000711411,422.3396394997835,None,ScrollUp,정답입니다,422.3396394997835,None,422.3396394997835,None,422.3396394997835,None,422.3396394997835,None,423.33675989997573,None,423.33675989997573,423.8367699999362,,,,,,,,,,,,,,,,206,2023-03-29_15h20.15.606,FishGame,2022.1.1,59.918522827941715,
,29,넌 엉뚱스러워,3,Green,A,4.166666666666667,4.133333333333334,ScrollDown,ScrollUp,Green.png,3,Neutral,Neutral,,,,,0,0,0,0,,,,,,,,,,,,,,,,,,,,,0,28,28,28,,,,,,,,,,,,,,,,,,,,,,,,,,,,,,,,,,,,,,,,,,,,,,,,,,,,,,,,,,,,,,,,,,,,,,,,,1.2037036965290706,1.01812669984065,424.46673459978774,None,ScrollDown,정답입니다,424.46673459978774,None,424.46673459978774,None,424.46673459978774,None,424.46673459978774,None,425.37042329995893,None,425.37042329995893,425.8731215998996,,,,,,,,,,,,,,,,206,2023-03-29_15h20.15.606,FishGame,2022.1.1,59.918522827941715,
,30,넌 무지해,4,Orange,B,2.541666666666667,3.066666666666667,ScrollUp,ScrollDown,Orange.png,3,Negative,Congruent,,,,,0,0,0,0,,,,,,,,,,,,,,,,,,,,,0,29,29,29,,,,,,,,,,,,,,,,,,,,,,,,,,,,,,,,,,,,,,,,,,,,,,,,,,,,,,,,,,,,,,,,,,,,,,,,,1.8425925970077515,1.0790313000325114,426.49780689994805,None,ScrollUp,정답입니다,426.49780689994805,None,426.49780689994805,None,426.49780689994805,None,426.49780689994805,None,427.47309669991955,None,427.47309669991955,427.9730568998493,,,,,,,,,,,,,,,,206,2023-03-29_15h20.15.606,FishGame,2022.1.1,59.918522827941715,
,31,넌 음울해,5,Orange,B,2.25,2.233333333333333,ScrollUp,ScrollDown,Orange.png,3,Negative,Congruent,,,,,0,0,0,0,,,,,,,,,,,,,,,,,,,,,0,30,30,30,,,,,,,,,,,,,,,,,,,,,,,,,,,,,,,,,,,,,,,,,,,,,,,,,,,,,,,,,,,,,,,,,,,,,,,,,1.9475308458010356,0.8987903001252562,428.61287539987825,None,ScrollUp,정답입니다,428.61287539987825,None,428.61287539987825,None,428.61287539987825,None,428.61287539987825,None,429.40331839979626,None,429.40331839979626,429.90337919979356,,,,,,,,,,,,,,,,206,2023-03-29_15h20.15.606,FishGame,2022.1.1,59.918522827941715,
,32,넌 냉소적이야,5,Green,A,2.916666666666667,2.4,ScrollDown,ScrollUp,Green.png,3,Negative,Incongruent,,,,,0,0,0,0,,,,,,,,,,,,,,,,,,,,,0,31,31,31,,,,,,,,,,,,,,,,,,,,,,,,,,,,,,,,,,,,,,,,,,,,,,,,,,,,,,,,,,,,,,,,,,,,,,,,,1.2114197413126628,0.8486490000505,430.5291697999928,None,ScrollDown,정답입니다,430.5291697999928,None,430.5291697999928,None,430.5291697999928,None,430.5291697999928,None,431.27308369986713,None,431.27308369986713,431.7730532998685,,,,,,,,,,,,,,,,206,2023-03-29_15h20.15.606,FishGame,2022.1.1,59.918522827941715,
,33,나를 데려가줘,6,Orange,B,0,0,ScrollDown,ScrollUp,Orange.png,3,NonTarget,NonTarget,,,,,0,0,0,0,,,,,,,,,,,,,,,,,,,,,0,32,32,32,,,,,,,,,,,,,,,,,,,,,,,,,,,,,,,,,,,,,,,,,,,,,,,,,,,,,,,,,,,,,,,,,,,,,,,,,1.0709876716136932,1.1457717001903802,432.398726799991,None,ScrollDown,정답입니다,432.398726799991,None,432.398726799991,None,432.398726799991,None,432.398726799991,None,433.4395430998411,None,433.4395430998411,433.93956499989145,,,,,,,,,,,,,,,,206,2023-03-29_15h20.15.606,FishGame,2022.1.1,59.918522827941715,
,34,넌 쾌활해,1,Green,A,5.541666666666666,5.733333333333333,ScrollDown,ScrollUp,Green.png,3,Positive,Congruent,,,,,0,0,0,0,,,,,,,,,,,,,,,,,,,,,0,33,33,33,,,,,,,,,,,,,,,,,,,,,,,,,,,,,,,,,,,,,,,,,,,,,,,,,,,,,,,,,,,,,,,,,,,,,,,,,1,1.1319389001000673,434.57668639998883,None,ScrollDown,정답입니다,434.57668639998883,None,434.57668639998883,None,434.57668639998883,None,434.57668639998883,None,435.60317289992236,None,435.60317289992236,436.1032338999212,,,,,,,,,,,,,,,,206,2023-03-29_15h20.15.606,FishGame,2022.1.1,59.918522827941715,
,35,나를 보내줘,6,Green,A,0,0,ScrollUp,ScrollDown,Green.png,3,NonTarget,NonTarget,,,,,0,0,0,0,,,,,,,,,,,,,,,,,,,,,0,34,34,34,,,,,,,,,,,,,,,,,,,,,,,,,,,,,,,,,,,,,,,,,,,,,,,,,,,,,,,,,,,,,,,,,,,,,,,,,1.7299382785956063,1.1484972999896854,436.7263437998481,None,ScrollUp,정답입니다,436.7263437998481,None,436.7263437998481,None,436.7263437998481,None,436.7263437998481,None,437.7728456999175,None,437.7728456999175,438.2728451997973,,,,,,,,,,,,,,,,206,2023-03-29_15h20.15.606,FishGame,2022.1.1,59.918522827941715,
,36,넌 명랑해,1,Orange,B,5.739130434782609,5.666666666666667,ScrollUp,ScrollDown,Orange.png,3,Positive,Incongruent,,,,,0,0,0,0,,,,,,,,,,,,,,,,,,,,,0,35,35,35,,,,,,,,,,,,,,,,,,,,,,,,,,,,,,,,,,,,,,,,,,,,,,,,,,,,,,,,,,,,,,,,,,,,,,,,,1.8966049353281658,1.1123983999714255,438.9008200999815,None,ScrollUp,정답입니다,438.9008200999815,None,438.9008200999815,None,438.9008200999815,None,438.9008200999815,None,439.906165599823,None,439.906165599823,440.4227471000049,,,,,,,,,,,,,,,,206,2023-03-29_15h20.15.606,FishGame,2022.1.1,59.918522827941715,
,37,넌 멍해,4,Green,A,2.833333333333333,3.4,ScrollDown,ScrollUp,Green.png,3,Negative,Incongruent,,,,,0,0,0,0,,,,,,,,,,,,,,,,,,,,,0,36,36,36,,,,,,,,,,,,,,,,,,,,,,,,,,,,,,,,,,,,,,,,,,,,,,,,,,,,,,,,,,,,,,,,,,,,,,,,,1.0771604776382446,0.9624064001254737,441.03503449982964,None,ScrollDown,정답입니다,441.03503449982964,None,441.03503449982964,None,441.03503449982964,None,441.03503449982964,None,441.8867088998668,None,441.8867088998668,442.38671959983185,,,,,,,,,,,,,,,,206,2023-03-29_15h20.15.606,FishGame,2022.1.1,59.918522827941715,
,38,나를 데려가줘,6,Orange,B,0,0,ScrollDown,ScrollUp,Orange.png,3,NonTarget,NonTarget,,,,,0,0,0,0,,,,,,,,,,,,,,,,,,,,,0,37,37,37,,,,,,,,,,,,,,,,,,,,,,,,,,,,,,,,,,,,,,,,,,,,,,,,,,,,,,,,,,,,,,,,,,,,,,,,,1.1296296268701553,1.2117705000564456,443.01807729993016,None,ScrollDown,정답입니다,443.01807729993016,None,443.01807729993016,None,443.01807729993016,None,443.01807729993016,None,444.11967549985275,None,444.11967549985275,444.61985579994507,,,,,,,,,,,,,,,,206,2023-03-29_15h20.15.606,FishGame,2022.1.1,59.918522827941715,
,39,넌 현명해,2,Green,A,6.541666666666666,4.533333333333333,ScrollDown,ScrollUp,Green.png,3,Positive,Congruent,,,,,0,0,0,0,,,,,,,,,,,,,,,,,,,,,0,38,38,38,,,,,,,,,,,,,,,,,,,,,,,,,,,,,,,,,,,,,,,,,,,,,,,,,,,,,,,,,,,,,,,,,,,,,,,,,1.1280864129463832,1.0348158997949213,445.24278529989533,None,ScrollDown,정답입니다,445.24278529989533,None,445.24278529989533,None,445.24278529989533,None,445.24278529989533,None,446.17265570000745,None,446.17265570000745,446.6733202999458,,,,,,,,,,,,,,,,206,2023-03-29_15h20.15.606,FishGame,2022.1.1,59.918522827941715,
,40,넌 수줍어,3,Orange,B,3.541666666666666,4.366666666666666,ScrollUp,ScrollDown,Orange.png,3,Neutral,Neutral,,,,,0,0,0,0,,,,,,,,,,,,,,,,,,,,,0,39,39,39,,,,,,,,,,,,,,,,,,,,,,,,,,,,,,,,,,,,,,,,,,,,,,,,,,,,,,,,,,,,,,,,,,,,,,,,,1.837962955236435,1.0817762000951916,447.3007465999108,None,ScrollUp,정답입니다,447.3007465999108,None,447.3007465999108,None,447.3007465999108,None,447.3007465999108,None,448.2726629998069,None,448.2726629998069,448.77264229999855,,,,,,,,,,,,,,,,206,2023-03-29_15h20.15.606,FishGame,2022.1.1,59.918522827941715,
,41,나를 데려가줘,6,Orange,B,0,0,ScrollDown,ScrollUp,Orange.png,3,NonTarget,NonTarget,,,,,0,0,0,0,,,,,,,,,,,,,,,,,,,,,0,40,40,40,,,,,,,,,,,,,,,,,,,,,,,,,,,,,,,,,,,,,,,,,,,,,,,,,,,,,,,,,,,,,,,,,,,,,,,,,1.121913582086563,1.078977899858728,449.40432520001195,None,ScrollDown,정답입니다,449.40432520001195,None,449.40432520001195,None,449.40432520001195,None,449.40432520001195,None,450.3695427000057,None,450.3695427000057,450.86972959991544,,,,,,,,,,,,,,,,206,2023-03-29_15h20.15.606,FishGame,2022.1.1,59.918522827941715,
,42,넌 성숙해,2,Orange,B,5.833333333333333,4.533333333333333,ScrollUp,ScrollDown,Orange.png,3,Positive,Incongruent,,,,,0,0,0,0,,,,,,,,,,,,,,,,,,,,,0,41,41,41,,,,,,,,,,,,,,,,,,,,,,,,,,,,,,,,,,,,,,,,,,,,,,,,,,,,,,,,,,,,,,,,,,,,,,,,,1.8287036965290706,1.184691800037399,451.4949103000108,None,ScrollUp,정답입니다,451.4949103000108,None,451.4949103000108,None,451.4949103000108,None,451.4949103000108,None,452.57250040001236,None,452.57250040001236,453.0731224999763,,,,,,,,,,,,,,,,206,2023-03-29_15h20.15.606,FishGame,2022.1.1,59.918522827941715,
,1,넌 매력적이야,2,Orange,B,6.125,4.666666666666667,ScrollUp,ScrollDown,Orange.png,4,Positive,Incongruent,,,,,0,0,0,0,,,,,,,,,,,,,,,,,,,,,,,,,0,0,0,0,,,,,,,,,,,,,,,,,,,,,,,,,,,,485.62201779987663,487.12229689978994,487.1556134999264,488.12182289990596,488.155141599942,489.1051472998224,489.1051472998224,None,,,,,,,,,,,,,,,,,,,,,,,,,,,,,,,,,,2,1.3387023999821395,490.2074818999972,None,ScrollUp,정답입니다,490.2074818999972,None,490.2074818999972,None,490.2074818999972,None,490.2074818999972,None,491.43823639978655,None,491.43823639978655,491.938288499834,453.57254789979197,None,453.57254789979197,None,0.23518519,-0.09074074,1,0,0,0.016235330142080784,None,483.57177799986675,None,,,206,2023-03-29_15h20.15.606,FishGame,2022.1.1,59.918522827941715,
,2,나를 보내줘,6,Green,A,0,0,ScrollUp,ScrollDown,Green.png,4,NonTarget,NonTarget,,,,,0,0,0,0,,,,,,,,,,,,,,,,,,,,,,,,,0,1,1,1,,,,,,,,,,,,,,,,,,,,,,,,,,,,,,,,,,,,,,,,,,,,,,,,,,,,,,,,,,,,,,,,,,,,,2,1.1450509000569582,492.5645769999828,None,ScrollUp,정답입니다,492.5645769999828,None,492.5645769999828,None,492.5645769999828,None,492.5645769999828,None,493.60492449998856,None,493.60492449998856,494.10496179992333,,,,,,,,,,,,,,,,206,2023-03-29_15h20.15.606,FishGame,2022.1.1,59.918522827941715,
,3,넌 조심스러워,3,Green,A,4.791666666666666,4.666666666666667,ScrollDown,ScrollUp,Green.png,4,Neutral,Neutral,,,,,0,0,0,0,,,,,,,,,,,,,,,,,,,,,,,,,0,2,2,2,,,,,,,,,,,,,,,,,,,,,,,,,,,,,,,,,,,,,,,,,,,,,,,,,,,,,,,,,,,,,,,,,,,,,1.28086419403553,1.0789465000852942,494.7285344998818,None,ScrollDown,정답입니다,494.7285344998818,None,494.7285344998818,None,494.7285344998818,None,494.7285344998818,None,495.70191790000536,None,495.70191790000536,496.2020046999678,,,,,,,,,,,,,,,,206,2023-03-29_15h20.15.606,FishGame,2022.1.1,59.918522827941715,
,4,넌 철학적이야,3,Orange,B,4.5,4.266666666666667,ScrollUp,ScrollDown,Orange.png,4,Neutral,Neutral,,,,,0,0,0,0,,,,,,,,,,,,,,,,,,,,,,,,,0,3,3,3,,,,,,,,,,,,,,,,,,,,,,,,,,,,,,,,,,,,,,,,,,,,,,,,,,,,,,,,,,,,,,,,,,,,,1.7222222338120141,1.0986872999928892,496.8416787998285,None,ScrollUp,정답입니다,496.8416787998285,None,496.8416787998285,None,496.8416787998285,None,496.8416787998285,None,497.82155120000243,None,497.82155120000243,498.3388752997853,,,,,,,,,,,,,,,,206,2023-03-29_15h20.15.606,FishGame,2022.1.1,59.918522827941715,
,5,넌 쩨쩨해,5,Green,A,2.375,2.133333333333333,ScrollDown,ScrollUp,Green.png,4,Negative,Incongruent,,,,,0,0,0,0,,,,,,,,,,,,,,,,,,,,,,,,,0,4,4,4,,,,,,,,,,,,,,,,,,,,,,,,,,,,,,,,,,,,,,,,,,,,,,,,,,,,,,,,,,,,,,,,,,,,,1.2299382835626602,0.9123448999598622,498.94671389996074,None,ScrollDown,정답입니다,498.94671389996074,None,498.94671389996074,None,498.94671389996074,None,498.94671389996074,None,499.7548137998674,None,499.7548137998674,500.2548761998769,,,,,,,,,,,,,,,,206,2023-03-29_15h20.15.606,FishGame,2022.1.1,59.918522827941715,
,6,나를 데려가줘,6,Orange,B,0,0,ScrollDown,ScrollUp,Orange.png,4,NonTarget,NonTarget,,,,,0,0,0,0,,,,,,,,,,,,,,,,,,,,,,,,,0,5,5,5,,,,,,,,,,,,,,,,,,,,,,,,,,,,,,,,,,,,,,,,,,,,,,,,,,,,,,,,,,,,,,,,,,,,,1.1898148208856583,1.1411415999755263,500.8847642999608,None,ScrollDown,정답입니다,500.8847642999608,None,500.8847642999608,None,500.8847642999608,None,500.8847642999608,None,501.92135379998945,None,501.92135379998945,502.4214097999502,,,,,,,,,,,,,,,,206,2023-03-29_15h20.15.606,FishGame,2022.1.1,59.918522827941715,
,7,넌 고집불통이야,5,Orange,B,2.875,2,ScrollUp,ScrollDown,Orange.png,4,Negative,Congruent,,,,,0,0,0,0,,,,,,,,,,,,,,,,,,,,,,,,,0,6,6,6,,,,,,,,,,,,,,,,,,,,,,,,,,,,,,,,,,,,,,,,,,,,,,,,,,,,,,,,,,,,,,,,,,,,,1.884259248773257,0.9790902999229729,503.05597759992816,None,ScrollUp,정답입니다,503.05597759992816,None,503.05597759992816,None,503.05597759992816,None,503.05597759992816,None,503.9213418997824,None,503.9213418997824,504.42136409995146,,,,,,,,,,,,,,,,206,2023-03-29_15h20.15.606,FishGame,2022.1.1,59.918522827941715,
,8,넌 무심해,4,Green,A,2.875,3.2,ScrollDown,ScrollUp,Green.png,4,Negative,Incongruent,,,,,0,0,0,0,,,,,,,,,,,,,,,,,,,,,,,,,0,7,7,7,,,,,,,,,,,,,,,,,,,,,,,,,,,,,,,,,,,,,,,,,,,,,,,,,,,,,,,,,,,,,,,,,,,,,1.2175925970077515,0.7792567999567837,505.0439406998921,None,ScrollDown,정답입니다,505.0439406998921,None,505.0439406998921,None,505.0439406998921,None,505.0439406998921,None,505.7213151999749,None,505.7213151999749,506.2213278999552,,,,,,,,,,,,,,,,206,2023-03-29_15h20.15.606,FishGame,2022.1.1,59.918522827941715,
,9,넌 정겨워,1,Green,A,5.791666666666667,5.666666666666667,ScrollDown,ScrollUp,Green.png,4,Positive,Congruent,,,,,0,0,0,0,,,,,,,,,,,,,,,,,,,,,,,,,0,8,8,8,,,,,,,,,,,,,,,,,,,,,,,,,,,,,,,,,,,,,,,,,,,,,,,,,,,,,,,,,,,,,,,,,,,,,1.248456800977389,0.9122434998862445,506.8526658997871,None,ScrollDown,정답입니다,506.8526658997871,None,506.8526658997871,None,506.8526658997871,None,506.8526658997871,None,507.65166109986603,None,507.65166109986603,508.1519165998325,,,,,,,,,,,,,,,,206,2023-03-29_15h20.15.606,FishGame,2022.1.1,59.918522827941715,
,10,나를 데려가줘,6,Orange,B,0,0,ScrollDown,ScrollUp,Orange.png,4,NonTarget,NonTarget,,,,,0,0,0,0,,,,,,,,,,,,,,,,,,,,,,,,,0,9,9,9,,,,,,,,,,,,,,,,,,,,,,,,,,,,,,,,,,,,,,,,,,,,,,,,,,,,,,,,,,,,,,,,,,,,,1.0432098706563313,1.1308432000223547,508.78679949999787,None,ScrollDown,정답입니다,508.78679949999787,None,508.78679949999787,None,508.78679949999787,None,508.78679949999787,None,509.8046675999649,None,509.8046675999649,510.3046863998752,,,,,,,,,,,,,,,,206,2023-03-29_15h20.15.606,FishGame,2022.1.1,59.918522827941715,
,11,넌 체제순응적이야,4,Orange,B,3,3.6,ScrollUp,ScrollDown,Orange.png,4,Negative,Congruent,,,,,0,0,0,0,,,,,,,,,,,,,,,,,,,,,,,,,0,10,10,10,,,,,,,,,,,,,,,,,,,,,,,,,,,,,,,,,,,,,,,,,,,,,,,,,,,,,,,,,,,,,,,,,,,,,2,1.0786790999118239,510.93810659996234,None,ScrollUp,정답입니다,510.93810659996234,None,510.93810659996234,None,510.93810659996234,None,510.93810659996234,None,511.9045808999799,None,511.9045808999799,512.4045979999937,,,,,,,,,,,,,,,,206,2023-03-29_15h20.15.606,FishGame,2022.1.1,59.918522827941715,
,12,나를 보내줘,6,Green,A,0,0,ScrollUp,ScrollDown,Green.png,4,NonTarget,NonTarget,,,,,0,0,0,0,,,,,,,,,,,,,,,,,,,,,,,,,0,11,11,11,,,,,,,,,,,,,,,,,,,,,,,,,,,,,,,,,,,,,,,,,,,,,,,,,,,,,,,,,,,,,,,,,,,,,1.7592592686414719,1.0652648999821395,513.0381306000054,None,ScrollUp,정답입니다,513.0381306000054,None,513.0381306000054,None,513.0381306000054,None,513.0381306000054,None,514.0015287999995,None,514.0015287999995,514.5017729999963,,,,,,,,,,,,,,,,206,2023-03-29_15h20.15.606,FishGame,2022.1.1,59.918522827941715,
,13,넌 박식해,2,Green,A,5.625,3.933333333333333,ScrollDown,ScrollUp,Green.png,4,Positive,Congruent,,,,,0,0,0,0,,,,,,,,,,,,,,,,,,,,,,,,,0,12,12,12,,,,,,,,,,,,,,,,,,,,,,,,,,,,,,,,,,,,,,,,,,,,,,,,,,,,,,,,,,,,,,,,,,,,,1.2793209801117578,0.9993188001681119,515.130556799937,None,ScrollDown,정답입니다,515.130556799937,None,515.130556799937,None,515.130556799937,None,515.130556799937,None,516.0211633997969,None,516.0211633997969,516.5212079999037,,,,,,,,,,,,,,,,206,2023-03-29_15h20.15.606,FishGame,2022.1.1,59.918522827941715,
,14,나를 보내줘,6,Green,A,0,0,ScrollUp,ScrollDown,Green.png,4,NonTarget,NonTarget,,,,,0,0,0,0,,,,,,,,,,,,,,,,,,,,,,,,,0,13,13,13,,,,,,,,,,,,,,,,,,,,,,,,,,,,,,,,,,,,,,,,,,,,,,,,,,,,,,,,,,,,,,,,,,,,,1.9320987562338512,1.062303900020197,517.1439944999292,None,ScrollUp,정답입니다,517.1439944999292,None,517.1439944999292,None,517.1439944999292,None,517.1439944999292,None,518.101770899957,None,518.101770899957,518.6044665998779,,,,,,,,,,,,,,,,206,2023-03-29_15h20.15.606,FishGame,2022.1.1,59.918522827941715,
,15,넌 침착해,1,Orange,B,5.458333333333333,5.566666666666666,ScrollUp,ScrollDown,Orange.png,4,Positive,Incongruent,,,,,0,0,0,0,,,,,,,,,,,,,,,,,,,,,,,,,0,14,14,14,,,,,,,,,,,,,,,,,,,,,,,,,,,,,,,,,,,,,,,,,,,,,,,,,,,,,,,,,,,,,,,,,,,,,1.8703703731298447,1.0987656000070274,519.2277567000128,None,ScrollUp,정답입니다,519.2277567000128,None,519.2277567000128,None,519.2277567000128,None,519.2277567000128,None,520.2180860999506,None,520.2180860999506,520.7183683000039,,,,,,,,,,,,,,,,206,2023-03-29_15h20.15.606,FishGame,2022.1.1,59.918522827941715,
,16,나를 데려가줘,6,Orange,B,0,0,ScrollDown,ScrollUp,Orange.png,4,NonTarget,NonTarget,,,,,0,0,0,0,,,,,,,,,,,,,,,,,,,,,,,,,0,15,15,15,,,,,,,,,,,,,,,,,,,,,,,,,,,,,,,,,,,,,,,,,,,,,,,,,,,,,,,,,,,,,,,,,,,,,1.1867283930381138,1.1344033000059426,521.3439517999068,None,ScrollDown,정답입니다,521.3439517999068,None,521.3439517999068,None,521.3439517999068,None,521.3439517999068,None,522.3710334999487,None,522.3710334999487,522.8683662998956,,,,,,,,,,,,,,,,206,2023-03-29_15h20.15.606,FishGame,2022.1.1,59.918522827941715,
,17,넌 행복해,1,Green,A,6.416666666666666,6.166666666666667,ScrollDown,ScrollUp,Green.png,4,Positive,Congruent,,,,,0,0,0,0,,,,,,,,,,,,,,,,,,,,,,,,,0,16,16,16,,,,,,,,,,,,,,,,,,,,,,,,,,,,,,,,,,,,,,,,,,,,,,,,,,,,,,,,,,,,,,,,,,,,,1.1851851791143417,1.0146677000448108,523.4983216999099,None,ScrollDown,정답입니다,523.4983216999099,None,523.4983216999099,None,523.4983216999099,None,523.4983216999099,None,524.4016513999086,None,524.4016513999086,524.9088999999221,,,,,,,,,,,,,,,,206,2023-03-29_15h20.15.606,FishGame,2022.1.1,59.918522827941715,
,18,넌 겸손해,2,Orange,B,5.791666666666667,4.766666666666667,ScrollUp,ScrollDown,Orange.png,4,Positive,Incongruent,,,,,0,0,0,0,,,,,,,,,,,,,,,,,,,,,,,,,0,17,17,17,,,,,,,,,,,,,,,,,,,,,,,,,,,,,,,,,,,,,,,,,,,,,,,,,,,,,,,,,,,,,,,,,,,,,1.919753094514211,1.048262899974361,525.5274723998737,None,ScrollUp,정답입니다,525.5274723998737,None,525.5274723998737,None,525.5274723998737,None,525.5274723998737,None,526.4679376999848,None,526.4679376999848,526.968249599915,,,,,,,,,,,,,,,,206,2023-03-29_15h20.15.606,FishGame,2022.1.1,59.918522827941715,
,19,나를 보내줘,6,Green,A,0,0,ScrollUp,ScrollDown,Green.png,4,NonTarget,NonTarget,,,,,0,0,0,0,,,,,,,,,,,,,,,,,,,,,,,,,0,18,18,18,,,,,,,,,,,,,,,,,,,,,,,,,,,,,,,,,,,,,,,,,,,,,,,,,,,,,,,,,,,,,,,,,,,,,2,1.1843341998755932,527.593017899897,None,ScrollUp,정답입니다,527.593017899897,None,527.593017899897,None,527.593017899897,None,527.593017899897,None,528.6682633999735,None,528.6682633999735,529.1710675999057,,,,,,,,,,,,,,,,206,2023-03-29_15h20.15.606,FishGame,2022.1.1,59.918522827941715,
,20,넌 의심없어,3,Green,A,4.166666666666667,4.6,ScrollDown,ScrollUp,Green.png,4,Neutral,Neutral,,,,,0,0,0,0,,,,,,,,,,,,,,,,,,,,,,,,,0,19,19,19,,,,,,,,,,,,,,,,,,,,,,,,,,,,,,,,,,,,,,,,,,,,,,,,,,,,,,,,,,,,,,,,,,,,,1,1.0290329998824745,529.7934324999806,None,ScrollDown,정답입니다,529.7934324999806,None,529.7934324999806,None,529.7934324999806,None,529.7934324999806,None,530.720988899935,None,530.720988899935,531.2346757999621,,,,,,,,,,,,,,,,206,2023-03-29_15h20.15.606,FishGame,2022.1.1,59.918522827941715,
,21,넌 시시해,4,Green,A,2.666666666666667,2.966666666666667,ScrollDown,ScrollUp,Green.png,4,Negative,Incongruent,,,,,0,0,0,0,,,,,,,,,,,,,,,,,,,,,,,,,0,20,20,20,,,,,,,,,,,,,,,,,,,,,,,,,,,,,,,,,,,,,,,,,,,,,,,,,,,,,,,,,,,,,,,,,,,,,1.200617293516795,0.8483637000899762,531.8538007999305,None,ScrollDown,정답입니다,531.8538007999305,None,531.8538007999305,None,531.8538007999305,None,531.8538007999305,None,532.60112999985,None,532.60112999985,533.1012898997869,,,,,,,,,,,,,,,,206,2023-03-29_15h20.15.606,FishGame,2022.1.1,59.918522827941715,
,22,나를 데려가줘,6,Orange,B,0,0,ScrollDown,ScrollUp,Orange.png,4,NonTarget,NonTarget,,,,,0,0,0,0,,,,,,,,,,,,,,,,,,,,,,,,,0,21,21,21,,,,,,,,,,,,,,,,,,,,,,,,,,,,,,,,,,,,,,,,,,,,,,,,,,,,,,,,,,,,,,,,,,,,,1.1697530895471573,1.1290809998754412,533.7292107997928,None,ScrollDown,정답입니다,533.7292107997928,None,533.7292107997928,None,533.7292107997928,None,533.7292107997928,None,534.751451899996,None,534.751451899996,535.2541172998026,,,,,,,,,,,,,,,,206,2023-03-29_15h20.15.606,FishGame,2022.1.1,59.918522827941715,
,23,넌 무정해,5,Green,A,2.5,2.2,ScrollDown,ScrollUp,Green.png,4,Negative,Incongruent,,,,,0,0,0,0,,,,,,,,,,,,,,,,,,,,,,,,,0,22,22,22,,,,,,,,,,,,,,,,,,,,,,,,,,,,,,,,,,,,,,,,,,,,,,,,,,,,,,,,,,,,,,,,,,,,,1.0509259402751923,1.1771507000084966,535.8772820997983,None,ScrollDown,정답입니다,535.8772820997983,None,535.8772820997983,None,535.8772820997983,None,535.8772820997983,None,536.9481625999324,None,536.9481625999324,537.451133799972,,,,,,,,,,,,,,,,206,2023-03-29_15h20.15.606,FishGame,2022.1.1,59.918522827941715,
,24,넌 긍정적이야,1,Orange,B,6.041666666666667,6.066666666666666,ScrollUp,ScrollDown,Orange.png,4,Positive,Incongruent,,,,,0,0,0,0,,,,,,,,,,,,,,,,,,,,,,,,,0,23,23,23,,,,,,,,,,,,,,,,,,,,,,,,,,,,,,,,,,,,,,,,,,,,,,,,,,,,,,,,,,,,,,,,,,,,,1.89969136317571,1.0292211000341922,538.0838449997827,None,ScrollUp,정답입니다,538.0838449997827,None,538.0838449997827,None,538.0838449997827,None,538.0838449997827,None,539.0010778999422,None,539.0010778999422,539.5012250998989,,,,,,,,,,,,,,,,206,2023-03-29_15h20.15.606,FishGame,2022.1.1,59.918522827941715,
,25,나를 보내줘,6,Green,A,0,0,ScrollUp,ScrollDown,Green.png,4,NonTarget,NonTarget,,,,,0,0,0,0,,,,,,,,,,,,,,,,,,,,,,,,,0,24,24,24,,,,,,,,,,,,,,,,,,,,,,,,,,,,,,,,,,,,,,,,,,,,,,,,,,,,,,,,,,,,,,,,,,,,,1.8672839452823002,1.248659199802205,540.1268974998966,None,ScrollUp,정답입니다,540.1268974998966,None,540.1268974998966,None,540.1268974998966,None,540.1268974998966,None,541.270693999948,None,541.270693999948,541.7706474999432,,,,,,,,,,,,,,,,206,2023-03-29_15h20.15.606,FishGame,2022.1.1,59.918522827941715,
,26,넌 시기심이 많아,5,Orange,B,2.458333333333333,2.233333333333333,ScrollUp,ScrollDown,Orange.png,4,Negative,Congruent,,,,,0,0,0,0,,,,,,,,,,,,,,,,,,,,,,,,,0,25,25,25,,,,,,,,,,,,,,,,,,,,,,,,,,,,,,,,,,,,,,,,,,,,,,,,,,,,,,,,,,,,,,,,,,,,,1.7500000099341075,1.1454496998339891,542.4006062999833,None,ScrollUp,정답입니다,542.4006062999833,None,542.4006062999833,None,542.4006062999833,None,542.4006062999833,None,543.4342458997853,None,543.4342458997853,543.9342402999755,,,,,,,,,,,,,,,,206,2023-03-29_15h20.15.606,FishGame,2022.1.1,59.918522827941715,
,27,넌 탁월해,2,Green,A,5.708333333333334,4.5,ScrollDown,ScrollUp,Green.png,4,Positive,Congruent,,,,,0,0,0,0,,,,,,,,,,,,,,,,,,,,,,,,,0,26,26,26,,,,,,,,,,,,,,,,,,,,,,,,,,,,,,,,,,,,,,,,,,,,,,,,,,,,,,,,,,,,,,,,,,,,,1.1049382785956066,1.131422699894756,544.5611314999405,None,ScrollDown,정답입니다,544.5611314999405,None,544.5611314999405,None,544.5611314999405,None,544.5611314999405,None,545.5842437997926,None,545.5842437997926,546.0872304998338,,,,,,,,,,,,,,,,206,2023-03-29_15h20.15.606,FishGame,2022.1.1,59.918522827941715,
,28,나를 데려가줘,6,Orange,B,0,0,ScrollDown,ScrollUp,Orange.png,4,NonTarget,NonTarget,,,,,0,0,0,0,,,,,,,,,,,,,,,,,,,,,,,,,0,27,27,27,,,,,,,,,,,,,,,,,,,,,,,,,,,,,,,,,,,,,,,,,,,,,,,,,,,,,,,,,,,,,,,,,,,,,1.1913580348094304,0.99564029998146,546.7128810998984,None,ScrollDown,정답입니다,546.7128810998984,None,546.7128810998984,None,546.7128810998984,None,546.7128810998984,None,547.6038155998103,None,547.6038155998103,548.1038250999991,,,,,,,,,,,,,,,,206,2023-03-29_15h20.15.606,FishGame,2022.1.1,59.918522827941715,
,29,넌 조용해,3,Orange,B,4.333333333333333,4.166666666666667,ScrollUp,ScrollDown,Orange.png,4,Neutral,Neutral,,,,,0,0,0,0,,,,,,,,,,,,,,,,,,,,,,,,,0,28,28,28,,,,,,,,,,,,,,,,,,,,,,,,,,,,,,,,,,,,,,,,,,,,,,,,,,,,,,,,,,,,,,,,,,,,,1.8858024626970291,1.0787891999352723,548.7317623000126,None,ScrollUp,정답입니다,548.7317623000126,None,548.7317623000126,None,548.7317623000126,None,548.7317623000126,None,549.7037430999335,None,549.7037430999335,550.2203583999071,,,,,,,,,,,,,,,,206,2023-03-29_15h20.15.606,FishGame,2022.1.1,59.918522827941715,
,30,넌 다정해,1,Green,A,5.833333333333334,5.7,ScrollDown,ScrollUp,Green.png,4,Positive,Congruent,,,,,0,0,0,0,,,,,,,,,,,,,,,,,,,,,,,,,0,29,29,29,,,,,,,,,,,,,,,,,,,,,,,,,,,,,,,,,,,,,,,,,,,,,,,,,,,,,,,,,,,,,,,,,,,,,1.0416666567325592,1.0293411000166088,550.8282524999231,None,ScrollDown,정답입니다,550.8282524999231,None,550.8282524999231,None,550.8282524999231,None,550.8282524999231,None,551.751009499887,None,551.751009499887,552.253656799905,,,,,,,,,,,,,,,,206,2023-03-29_15h20.15.606,FishGame,2022.1.1,59.918522827941715,
,31,넌 능력있어,2,Orange,B,6.166666666666666,4.6,ScrollUp,ScrollDown,Orange.png,4,Positive,Incongruent,,,,,0,0,0,0,,,,,,,,,,,,,,,,,,,,,,,,,0,30,30,30,,,,,,,,,,,,,,,,,,,,,,,,,,,,,,,,,,,,,,,,,,,,,,,,,,,,,,,,,,,,,,,,,,,,,1.9429012537002563,1.0289431000128388,552.8786873999052,None,ScrollUp,정답입니다,552.8786873999052,None,552.8786873999052,None,552.8786873999052,None,552.8786873999052,None,553.8037091998849,None,553.8037091998849,554.3036586998496,,,,,,,,,,,,,,,,206,2023-03-29_15h20.15.606,FishGame,2022.1.1,59.918522827941715,
,32,넌 불쾌해,5,Green,A,2.125,1.933333333333333,ScrollDown,ScrollUp,Green.png,4,Negative,Incongruent,,,,,0,0,0,0,,,,,,,,,,,,,,,,,,,,,,,,,0,31,31,31,,,,,,,,,,,,,,,,,,,,,,,,,,,,,,,,,,,,,,,,,,,,,,,,,,,,,,,,,,,,,,,,,,,,,1,0.8816621999721974,554.9265806998592,None,ScrollDown,정답입니다,554.9265806998592,None,554.9265806998592,None,554.9265806998592,None,554.9265806998592,None,555.7036855998449,None,555.7036855998449,556.2009741999209,,,,,,,,,,,,,,,,206,2023-03-29_15h20.15.606,FishGame,2022.1.1,59.918522827941715,
,33,나를 데려가줘,6,Orange,B,0,0,ScrollDown,ScrollUp,Orange.png,4,NonTarget,NonTarget,,,,,0,0,0,0,,,,,,,,,,,,,,,,,,,,,,,,,0,32,32,32,,,,,,,,,,,,,,,,,,,,,,,,,,,,,,,,,,,,,,,,,,,,,,,,,,,,,,,,,,,,,,,,,,,,,1.141975313425064,1.1316706000361592,556.8290563998744,None,ScrollDown,정답입니다,556.8290563998744,None,556.8290563998744,None,556.8290563998744,None,556.8290563998744,None,557.853658999782,None,557.853658999782,558.3535606998485,,,,,,,,,,,,,,,,206,2023-03-29_15h20.15.606,FishGame,2022.1.1,59.918522827941715,
,34,넌 유순해,3,Green,A,4.458333333333333,5,ScrollDown,ScrollUp,Green.png,4,Neutral,Neutral,,,,,0,0,0,0,,,,,,,,,,,,,,,,,,,,,,,,,0,33,33,33,,,,,,,,,,,,,,,,,,,,,,,,,,,,,,,,,,,,,,,,,,,,,,,,,,,,,,,,,,,,,,,,,,,,,1,1.148229799931869,558.9762351999525,None,ScrollDown,정답입니다,558.9762351999525,None,558.9762351999525,None,558.9762351999525,None,558.9762351999525,None,560.0201468998566,None,560.0201468998566,560.520193999866,,,,,,,,,,,,,,,,206,2023-03-29_15h20.15.606,FishGame,2022.1.1,59.918522827941715,
,35,넌 근심스러워,4,Orange,B,2.708333333333333,3.133333333333333,ScrollUp,ScrollDown,Orange.png,4,Negative,Congruent,,,,,0,0,0,0,,,,,,,,,,,,,,,,,,,,,,,,,0,34,34,34,,,,,,,,,,,,,,,,,,,,,,,,,,,,,,,,,,,,,,,,,,,,,,,,,,,,,,,,,,,,,,,,,,,,,1.5293209869414568,0.9618553000036627,561.1656020998489,None,NoResponse,무응답입니다,561.1656020998489,None,561.1656020998489,None,561.1656020998489,None,561.1656020998489,None,562.0175074997824,None,562.0175074997824,562.5175098998006,,,,,,,,,,,,,,,,206,2023-03-29_15h20.15.606,FishGame,2022.1.1,59.918522827941715,
,36,넌 세련되었어,2,Green,A,5.5,4.6,ScrollDown,ScrollUp,Green.png,4,Positive,Congruent,,,,,0,0,0,0,,,,,,,,,,,,,,,,,,,,,,,,,0,35,35,35,,,,,,,,,,,,,,,,,,,,,,,,,,,,,,,,,,,,,,,,,,,,,,,,,,,,,,,,,,,,,,,,,,,,,1,1.095770100131631,563.1499238999095,None,ScrollDown,정답입니다,563.1499238999095,None,563.1499238999095,None,563.1499238999095,None,563.1499238999095,None,564.1368533999193,None,564.1368533999193,564.6367945999373,,,,,,,,,,,,,,,,206,2023-03-29_15h20.15.606,FishGame,2022.1.1,59.918522827941715,
,37,나를 보내줘,6,Green,A,0,0,ScrollUp,ScrollDown,Green.png,4,NonTarget,NonTarget,,,,,0,0,0,0,,,,,,,,,,,,,,,,,,,,,,,,,0,36,36,36,,,,,,,,,,,,,,,,,,,,,,,,,,,,,,,,,,,,,,,,,,,,,,,,,,,,,,,,,,,,,,,,,,,,,1.9367283980051677,1.0652590999379754,565.2703593999613,None,ScrollUp,정답입니다,565.2703593999613,None,565.2703593999613,None,565.2703593999613,None,565.2703593999613,None,566.2338349998463,None,566.2338349998463,566.7338393998798,,,,,,,,,,,,,,,,206,2023-03-29_15h20.15.606,FishGame,2022.1.1,59.918522827941715,
,38,넌 확고해,3,Orange,B,4.708333333333334,4.566666666666666,ScrollUp,ScrollDown,Orange.png,4,Neutral,Neutral,,,,,0,0,0,0,,,,,,,,,,,,,,,,,,,,,,,,,0,37,37,37,,,,,,,,,,,,,,,,,,,,,,,,,,,,,,,,,,,,,,,,,,,,,,,,,,,,,,,,,,,,,,,,,,,,,2,1.3176403001416475,567.3611459999811,None,ScrollUp,정답입니다,567.3611459999811,None,567.3611459999811,None,567.3611459999811,None,567.3611459999811,None,568.570087299915,None,568.570087299915,569.0700913998298,,,,,,,,,,,,,,,,206,2023-03-29_15h20.15.606,FishGame,2022.1.1,59.918522827941715,
,39,넌 이해심이 많아,1,Orange,B,6.041666666666668,5.533333333333333,ScrollUp,ScrollDown,Orange.png,4,Positive,Incongruent,,,,,0,0,0,0,,,,,,,,,,,,,,,,,,,,,,,,,0,38,38,38,,,,,,,,,,,,,,,,,,,,,,,,,,,,,,,,,,,,,,,,,,,,,,,,,,,,,,,,,,,,,,,,,,,,,1.9475308458010356,0.9485642001964152,569.6959861998912,None,ScrollUp,정답입니다,569.6959861998912,None,569.6959861998912,None,569.6959861998912,None,569.6959861998912,None,570.5366936000064,None,570.5366936000064,571.0367100997828,,,,,,,,,,,,,,,,206,2023-03-29_15h20.15.606,FishGame,2022.1.1,59.918522827941715,
,40,나를 보내줘,6,Green,A,0,0,ScrollUp,ScrollDown,Green.png,4,NonTarget,NonTarget,,,,,0,0,0,0,,,,,,,,,,,,,,,,,,,,,,,,,0,39,39,39,,,,,,,,,,,,,,,,,,,,,,,,,,,,,,,,,,,,,,,,,,,,,,,,,,,,,,,,,,,,,,,,,,,,,1.8811728457609813,1.0456600999459624,571.6592291998677,None,ScrollUp,정답입니다,571.6592291998677,None,571.6592291998677,None,571.6592291998677,None,571.6592291998677,None,572.6032194998115,None,572.6032194998115,573.1032388999593,,,,,,,,,,,,,,,,206,2023-03-29_15h20.15.606,FishGame,2022.1.1,59.918522827941715,
,41,넌 거칠어,4,Green,A,2.625,3.033333333333333,ScrollDown,ScrollUp,Green.png,4,Negative,Incongruent,,,,,0,0,0,0,,,,,,,,,,,,,,,,,,,,,,,,,0,40,40,40,,,,,,,,,,,,,,,,,,,,,,,,,,,,,,,,,,,,,,,,,,,,,,,,,,,,,,,,,,,,,,,,,,,,,1.0817901194095612,0.8956667999736965,573.73403029982,None,ScrollDown,정답입니다,573.73403029982,None,573.73403029982,None,573.73403029982,None,573.73403029982,None,574.5171911998186,None,574.5171911998186,575.0198620997835,,,,,,,,,,,,,,,,206,2023-03-29_15h20.15.606,FishGame,2022.1.1,59.918522827941715,
,42,넌 변덕맞아,5,Orange,B,2.75,2.166666666666667,ScrollUp,ScrollDown,Orange.png,4,Negative,Congruent,,,,,0,0,0,0,,,,,,,,,,,,,,,,,,,,,,,,,0,41,41,41,,,,,,,,,,,,,,,,,,,,,,,,,,,,,,,,,,,,,,,,,,,,,,,,,,,,,,,,,,,,,,,,,,,,,1.787037044763565,1.078323199879378,575.6513138997834,None,ScrollUp,정답입니다,575.6513138997834,None,575.6513138997834,None,575.6513138997834,None,575.6513138997834,None,576.6171767998021,None,576.6171767998021,577.1200244999491,,,,,,,,,,,,,,,,206,2023-03-29_15h20.15.606,FishGame,2022.1.1,59.918522827941715,
,43,나를 데려가줘,6,Orange,B,0,0,ScrollDown,ScrollUp,Orange.png,4,NonTarget,NonTarget,,,,,0,0,0,0,,,,,,,,,,,,,,,,,,,,,,,,,0,42,42,42,,,,,,,,,,,,,,,,,,,,,,,,,,,,,,,,,,,,,,,,,,,,,,,,,,,,,,,,,,,,,,,,,,,,,1.040123442808787,1.0960787001531571,577.7448076999281,None,ScrollDown,정답입니다,577.7448076999281,None,577.7448076999281,None,577.7448076999281,None,577.7448076999281,None,578.736460799817,None,578.736460799817,579.236513499869,,,,,,,,,,,,,,,,206,2023-03-29_15h20.15.606,FishGame,2022.1.1,59.918522827941715,
,44,넌 외로워,4,Orange,B,2.833333333333333,3.3,ScrollUp,ScrollDown,Orange.png,4,Negative,Congruent,,,,,0,0,0,0,,,,,,,,,,,,,,,,,,,,,,,,,0,43,43,43,,,,,,,,,,,,,,,,,,,,,,,,,,,,,,,,,,,,,,,,,,,,,,,,,,,,,,,,,,,,,,,,,,,,,1.7376543233791986,1.0820020998362452,579.8749549000058,None,ScrollUp,정답입니다,579.8749549000058,None,579.8749549000058,None,579.8749549000058,None,579.8749549000058,None,580.8501296998002,None,580.8501296998002,581.3503131999169,,,,,,,,,,,,,,,,206,2023-03-29_15h20.15.606,FishGame,2022.1.1,59.918522827941715,
,1,넌 불평스러워,5,Green,A,2.25,2.066666666666667,ScrollDown,ScrollUp,Green.png,5,Negative,Incongruent,,,,,0,0,0,0,,,,,,,,,,,,,,,,,,,,,,,,,,,,,0,0,0,0,,,,,,,,,,,,,,,,,,,,,,,,615.9359360998496,617.4524530000053,617.4691595998593,618.4190648999065,618.4690920999274,619.4190775998868,619.4190775998868,None,,,,,,,,,,,,,,,,,,,,,,,,,,,,,,,,,,1,1.207264200085774,620.5145758998115,None,ScrollDown,정답입니다,620.5145758998115,None,620.5145758998115,None,620.5145758998115,None,620.5145758998115,None,621.6162287998013,None,621.6162287998013,622.1193958998192,581.8502463998739,None,581.8502463998739,None,0.24444444,-0.098148145,1,0,0,0.016217829892411828,None,611.8496712998021,None,,,206,2023-03-29_15h20.15.606,FishGame,2022.1.1,59.918522827941715,
,2,나를 보내줘,6,Green,A,0,0,ScrollUp,ScrollDown,Green.png,5,NonTarget,NonTarget,,,,,0,0,0,0,,,,,,,,,,,,,,,,,,,,,,,,,,,,,0,1,1,1,,,,,,,,,,,,,,,,,,,,,,,,,,,,,,,,,,,,,,,,,,,,,,,,,,,,,,,,,,,,,,,,,1.9027777661879857,1.0621903000865132,622.7416497999802,None,ScrollUp,정답입니다,622.7416497999802,None,622.7416497999802,None,622.7416497999802,None,622.7416497999802,None,623.7021563998424,None,623.7021563998424,624.2027412999887,,,,,,,,,,,,,,,,206,2023-03-29_15h20.15.606,FishGame,2022.1.1,59.918522827941715,
,3,넌 다재다능해,2,Orange,B,6.208333333333333,4.5,ScrollUp,ScrollDown,Orange.png,5,Positive,Incongruent,,,,,0,0,0,0,,,,,,,,,,,,,,,,,,,,,,,,,,,,,0,2,2,2,,,,,,,,,,,,,,,,,,,,,,,,,,,,,,,,,,,,,,,,,,,,,,,,,,,,,,,,,,,,,,,,,2,1.2460250000003725,624.8269575999584,None,ScrollUp,정답입니다,624.8269575999584,None,624.8269575999584,None,624.8269575999584,None,624.8269575999584,None,625.9661747999489,None,625.9661747999489,626.4732452998869,,,,,,,,,,,,,,,,206,2023-03-29_15h20.15.606,FishGame,2022.1.1,59.918522827941715,
,4,넌 과감해,3,Green,A,4.833333333333334,4.6,ScrollDown,ScrollUp,Green.png,5,Neutral,Neutral,,,,,0,0,0,0,,,,,,,,,,,,,,,,,,,,,,,,,,,,,0,3,3,3,,,,,,,,,,,,,,,,,,,,,,,,,,,,,,,,,,,,,,,,,,,,,,,,,,,,,,,,,,,,,,,,,1.1666666616996129,0.8315628001000732,627.0863182998728,None,ScrollDown,정답입니다,627.0863182998728,None,627.0863182998728,None,627.0863182998728,None,627.0863182998728,None,627.8158047997858,None,627.8158047997858,628.3158038998954,,,,,,,,,,,,,,,,206,2023-03-29_15h20.15.606,FishGame,2022.1.1,59.918522827941715,
,5,넌 고분고분해,3,Orange,B,3.75,4.033333333333333,ScrollUp,ScrollDown,Orange.png,5,Neutral,Neutral,,,,,0,0,0,0,,,,,,,,,,,,,,,,,,,,,,,,,,,,,0,4,4,4,,,,,,,,,,,,,,,,,,,,,,,,,,,,,,,,,,,,,,,,,,,,,,,,,,,,,,,,,,,,,,,,,2,0.9983484998811036,628.9446717998944,None,ScrollUp,정답입니다,628.9446717998944,None,628.9446717998944,None,628.9446717998944,None,628.9446717998944,None,629.8354700999334,None,629.8354700999334,630.3354952998925,,,,,,,,,,,,,,,,206,2023-03-29_15h20.15.606,FishGame,2022.1.1,59.918522827941715,
,6,나를 보내줘,6,Green,A,0,0,ScrollUp,ScrollDown,Green.png,5,NonTarget,NonTarget,,,,,0,0,0,0,,,,,,,,,,,,,,,,,,,,,,,,,,,,,0,5,5,5,,,,,,,,,,,,,,,,,,,,,,,,,,,,,,,,,,,,,,,,,,,,,,,,,,,,,,,,,,,,,,,,,2,1.228261400014162,630.9589228997938,None,ScrollUp,정답입니다,630.9589228997938,None,630.9589228997938,None,630.9589228997938,None,630.9589228997938,None,632.0853885000106,None,632.0853885000106,632.6021042999346,,,,,,,,,,,,,,,,206,2023-03-29_15h20.15.606,FishGame,2022.1.1,59.918522827941715,
,7,넌 잘 잊어,4,Green,A,3,3.7,ScrollDown,ScrollUp,Green.png,5,Negative,Incongruent,,,,,0,0,0,0,,,,,,,,,,,,,,,,,,,,,,,,,,,,,0,6,6,6,,,,,,,,,,,,,,,,,,,,,,,,,,,,,,,,,,,,,,,,,,,,,,,,,,,,,,,,,,,,,,,,,2,1.2982540000230074,633.2235782998614,None,ScrollUp,오답입니다,633.2235782998614,None,633.2235782998614,None,633.2235782998614,None,633.2235782998614,None,634.4158352999948,None,634.4158352999948,634.9158902999479,,,,,,,,,,,,,,,,206,2023-03-29_15h20.15.606,FishGame,2022.1.1,59.918522827941715,
,8,넌 탐구심이없어,4,Orange,B,2.833333333333333,3.066666666666667,ScrollUp,ScrollDown,Orange.png,5,Negative,Congruent,,,,,0,0,0,0,,,,,,,,,,,,,,,,,,,,,,,,,,,,,0,7,7,7,,,,,,,,,,,,,,,,,,,,,,,,,,,,,,,,,,,,,,,,,,,,,,,,,,,,,,,,,,,,,,,,,2,1.565096499864012,635.5450323999394,None,ScrollUp,정답입니다,635.5450323999394,None,635.5450323999394,None,635.5450323999394,None,635.5450323999394,None,637.0019446997903,None,637.0019446997903,637.5019642999396,,,,,,,,,,,,,,,,206,2023-03-29_15h20.15.606,FishGame,2022.1.1,59.918522827941715,
,9,나를 데려가줘,6,Orange,B,0,0,ScrollDown,ScrollUp,Orange.png,5,NonTarget,NonTarget,,,,,0,0,0,0,,,,,,,,,,,,,,,,,,,,,,,,,,,,,0,8,8,8,,,,,,,,,,,,,,,,,,,,,,,,,,,,,,,,,,,,,,,,,,,,,,,,,,,,,,,,,,,,,,,,,1,1.1793740999419242,638.1286743998062,None,ScrollDown,정답입니다,638.1286743998062,None,638.1286743998062,None,638.1286743998062,None,638.1286743998062,None,639.201905899914,None,639.201905899914,639.7020465999376,,,,,,,,,,,,,,,,206,2023-03-29_15h20.15.606,FishGame,2022.1.1,59.918522827941715,
,10,넌 참되어,2,Green,A,6.041666666666664,4.733333333333333,ScrollDown,ScrollUp,Green.png,5,Positive,Congruent,,,,,0,0,0,0,,,,,,,,,,,,,,,,,,,,,,,,,,,,,0,9,9,9,,,,,,,,,,,,,,,,,,,,,,,,,,,,,,,,,,,,,,,,,,,,,,,,,,,,,,,,,,,,,,,,,1.060185174147288,1.0791476999875158,640.332398199942,None,ScrollDown,정답입니다,640.332398199942,None,640.332398199942,None,640.332398199942,None,640.332398199942,None,641.2991656998638,None,641.2991656998638,641.8017896998208,,,,,,,,,,,,,,,,206,2023-03-29_15h20.15.606,FishGame,2022.1.1,59.918522827941715,
,11,넌 생기있어,1,Orange,B,5.875,5.633333333333334,ScrollUp,ScrollDown,Orange.png,5,Positive,Incongruent,,,,,0,0,0,0,,,,,,,,,,,,,,,,,,,,,,,,,,,,,0,10,10,10,,,,,,,,,,,,,,,,,,,,,,,,,,,,,,,,,,,,,,,,,,,,,,,,,,,,,,,,,,,,,,,,,1.9768518606821697,1.1627575000748038,642.4300148999318,None,ScrollUp,정답입니다,642.4300148999318,None,642.4300148999318,None,642.4300148999318,None,642.4300148999318,None,643.4851255000103,None,643.4851255000103,643.9851232999936,,,,,,,,,,,,,,,,206,2023-03-29_15h20.15.606,FishGame,2022.1.1,59.918522827941715,
,12,넌 비사교적이야,4,Orange,B,2.875,2.9,ScrollUp,ScrollDown,Orange.png,5,Negative,Congruent,,,,,0,0,0,0,,,,,,,,,,,,,,,,,,,,,,,,,,,,,0,11,11,11,,,,,,,,,,,,,,,,,,,,,,,,,,,,,,,,,,,,,,,,,,,,,,,,,,,,,,,,,,,,,,,,,1.9722222189108531,1.1459669000469148,644.6109144999646,None,ScrollUp,정답입니다,644.6109144999646,None,644.6109144999646,None,644.6109144999646,None,644.6109144999646,None,645.6517478998285,None,645.6517478998285,646.1654324999545,,,,,,,,,,,,,,,,206,2023-03-29_15h20.15.606,FishGame,2022.1.1,59.918522827941715,
,13,나를 데려가줘,6,Orange,B,0,0,ScrollDown,ScrollUp,Orange.png,5,NonTarget,NonTarget,,,,,0,0,0,0,,,,,,,,,,,,,,,,,,,,,,,,,,,,,0,12,12,12,,,,,,,,,,,,,,,,,,,,,,,,,,,,,,,,,,,,,,,,,,,,,,,,,,,,,,,,,,,,,,,,,1.0987654229005177,1.0484560998156667,646.7885898998939,None,ScrollDown,정답입니다,646.7885898998939,None,646.7885898998939,None,646.7885898998939,None,646.7885898998939,None,647.7320635998622,None,647.7320635998622,648.2320966999978,,,,,,,,,,,,,,,,206,2023-03-29_15h20.15.606,FishGame,2022.1.1,59.918522827941715,
,14,넌 고독해,4,Green,A,2.916666666666667,3.233333333333333,ScrollDown,ScrollUp,Green.png,5,Negative,Incongruent,,,,,0,0,0,0,,,,,,,,,,,,,,,,,,,,,,,,,,,,,0,13,13,13,,,,,,,,,,,,,,,,,,,,,,,,,,,,,,,,,,,,,,,,,,,,,,,,,,,,,,,,,,,,,,,,,1.1728395173947017,0.9986072001047432,648.8596675998997,None,ScrollDown,정답입니다,648.8596675998997,None,648.8596675998997,None,648.8596675998997,None,648.8596675998997,None,649.7516852999106,None,649.7516852999106,650.2517241998576,,,,,,,,,,,,,,,,206,2023-03-29_15h20.15.606,FishGame,2022.1.1,59.918522827941715,
,15,넌 신경질적이야,5,Orange,B,2.375,2.233333333333333,ScrollUp,ScrollDown,Orange.png,5,Negative,Congruent,,,,,0,0,0,0,,,,,,,,,,,,,,,,,,,,,,,,,,,,,0,14,14,14,,,,,,,,,,,,,,,,,,,,,,,,,,,,,,,,,,,,,,,,,,,,,,,,,,,,,,,,,,,,,,,,,1.9274691144625347,1.0956482000183314,650.890226099873,None,ScrollUp,정답입니다,650.890226099873,None,650.890226099873,None,650.890226099873,None,650.890226099873,None,651.868287499994,None,651.868287499994,652.3682907999028,,,,,,,,,,,,,,,,206,2023-03-29_15h20.15.606,FishGame,2022.1.1,59.918522827941715,
,16,넌 똑똑해,2,Orange,B,5.666666666666667,3.966666666666667,ScrollUp,ScrollDown,Orange.png,5,Positive,Incongruent,,,,,0,0,0,0,,,,,,,,,,,,,,,,,,,,,,,,,,,,,0,15,15,15,,,,,,,,,,,,,,,,,,,,,,,,,,,,,,,,,,,,,,,,,,,,,,,,,,,,,,,,,,,,,,,,,1.7716049303611119,0.9790174001827836,652.9955756999552,None,ScrollUp,정답입니다,652.9955756999552,None,652.9955756999552,None,652.9955756999552,None,652.9955756999552,None,653.8655441999435,None,653.8655441999435,654.3681747999508,,,,,,,,,,,,,,,,206,2023-03-29_15h20.15.606,FishGame,2022.1.1,59.918522827941715,
,17,나를 보내줘,6,Green,A,0,0,ScrollUp,ScrollDown,Green.png,5,NonTarget,NonTarget,,,,,0,0,0,0,,,,,,,,,,,,,,,,,,,,,,,,,,,,,0,16,16,16,,,,,,,,,,,,,,,,,,,,,,,,,,,,,,,,,,,,,,,,,,,,,,,,,,,,,,,,,,,,,,,,,1.9552469154198964,1.2293720000889152,654.9901266999077,None,ScrollUp,정답입니다,654.9901266999077,None,654.9901266999077,None,654.9901266999077,None,654.9901266999077,None,656.118181400001,None,656.118181400001,656.6347927998286,,,,,,,,,,,,,,,,206,2023-03-29_15h20.15.606,FishGame,2022.1.1,59.918522827941715,
,18,넌 협조적이야,1,Green,A,5.625,5.666666666666667,ScrollDown,ScrollUp,Green.png,5,Positive,Congruent,,,,,0,0,0,0,,,,,,,,,,,,,,,,,,,,,,,,,,,,,0,17,17,17,,,,,,,,,,,,,,,,,,,,,,,,,,,,,,,,,,,,,,,,,,,,,,,,,,,,,,,,,,,,,,,,,1,1.6290533000137657,657.2412059998605,None,ScrollDown,정답입니다,657.2412059998605,None,657.2412059998605,None,657.2412059998605,None,657.2412059998605,None,658.7681785998866,None,658.7681785998866,659.2681267999578,,,,,,,,,,,,,,,,206,2023-03-29_15h20.15.606,FishGame,2022.1.1,59.918522827941715,
,19,나를 데려가줘,6,Orange,B,0,0,ScrollDown,ScrollUp,Orange.png,5,NonTarget,NonTarget,,,,,0,0,0,0,,,,,,,,,,,,,,,,,,,,,,,,,,,,,0,18,18,18,,,,,,,,,,,,,,,,,,,,,,,,,,,,,,,,,,,,,,,,,,,,,,,,,,,,,,,,,,,,,,,,,1,1.2128146002069116,659.8931344999,None,ScrollDown,정답입니다,659.8931344999,None,659.8931344999,None,659.8931344999,None,659.8931344999,None,661.0014390998986,None,661.0014390998986,661.515100899851,,,,,,,,,,,,,,,,206,2023-03-29_15h20.15.606,FishGame,2022.1.1,59.918522827941715,
,20,넌 몰인정해,5,Orange,B,2.541666666666667,2.066666666666667,ScrollUp,ScrollDown,Orange.png,5,Negative,Congruent,,,,,0,0,0,0,,,,,,,,,,,,,,,,,,,,,,,,,,,,,0,19,19,19,,,,,,,,,,,,,,,,,,,,,,,,,,,,,,,,,,,,,,,,,,,,,,,,,,,,,,,,,,,,,,,,,2,1.028308599954471,662.1469474998303,None,ScrollUp,정답입니다,662.1469474998303,None,662.1469474998303,None,662.1469474998303,None,662.1469474998303,None,663.0650803998578,None,663.0650803998578,663.565119799925,,,,,,,,,,,,,,,,206,2023-03-29_15h20.15.606,FishGame,2022.1.1,59.918522827941715,
,21,나를 데려가줘,6,Orange,B,0,0,ScrollDown,ScrollUp,Orange.png,5,NonTarget,NonTarget,,,,,0,0,0,0,,,,,,,,,,,,,,,,,,,,,,,,,,,,,0,20,20,20,,,,,,,,,,,,,,,,,,,,,,,,,,,,,,,,,,,,,,,,,,,,,,,,,,,,,,,,,,,,,,,,,1,1.0624528001062572,664.1934674999211,None,ScrollDown,정답입니다,664.1934674999211,None,664.1934674999211,None,664.1934674999211,None,664.1934674999211,None,665.1513551999815,None,665.1513551999815,665.6513800998218,,,,,,,,,,,,,,,,206,2023-03-29_15h20.15.606,FishGame,2022.1.1,59.918522827941715,
,22,넌 순진해,3,Orange,B,4.125,4.166666666666667,ScrollUp,ScrollDown,Orange.png,5,Neutral,Neutral,,,,,0,0,0,0,,,,,,,,,,,,,,,,,,,,,,,,,,,,,0,21,21,21,,,,,,,,,,,,,,,,,,,,,,,,,,,,,,,,,,,,,,,,,,,,,,,,,,,,,,,,,,,,,,,,,2,1.3458074999507517,666.2778635998257,None,ScrollUp,정답입니다,666.2778635998257,None,666.2778635998257,None,666.2778635998257,None,666.2778635998257,None,667.515308899805,None,667.515308899805,668.0179539998062,,,,,,,,,,,,,,,,206,2023-03-29_15h20.15.606,FishGame,2022.1.1,59.918522827941715,
