name,TrialNum,Word,WordCategory,FishType,WordList,WordValence,WordReputation,CorrectResp,IncorrectResp,FishTypeFile,Round,WordType,Condition,LoopforOrange.thisRepN,LoopforOrange.thisTrialN,LoopforOrange.thisN,LoopforOrange.thisIndex,OrangeInstLoop.thisRepN,OrangeInstLoop.thisTrialN,OrangeInstLoop.thisN,OrangeInstLoop.thisIndex,OrangePrac.thisRepN,OrangePrac.thisTrialN,OrangePrac.thisN,OrangePrac.thisIndex,temp1.thisRepN,temp1.thisTrialN,temp1.thisN,temp1.thisIndex,OrangeRound1.thisRepN,OrangeRound1.thisTrialN,OrangeRound1.thisN,OrangeRound1.thisIndex,OrangeRound2.thisRepN,OrangeRound2.thisTrialN,OrangeRound2.thisN,OrangeRound2.thisIndex,OrangeRound3.thisRepN,OrangeRound3.thisTrialN,OrangeRound3.thisN,OrangeRound3.thisIndex,OrangeRound4.thisRepN,OrangeRound4.thisTrialN,OrangeRound4.thisN,OrangeRound4.thisIndex,OrangeRound5.thisRepN,OrangeRound5.thisTrialN,OrangeRound5.thisN,OrangeRound5.thisIndex,LoopForGreen.thisRepN,LoopForGreen.thisTrialN,LoopForGreen.thisN,LoopForGreen.thisIndex,text_2.started,text_2.stopped,text_3.started,text_3.stopped,key_resp.keys,key_resp.rt,key_resp.started,key_resp.stopped,PassI_2.started,PassI_2.stopped,PassInst_2.keys,PassInst_2.rt,PassInst_2.started,PassInst_2.stopped,mouse_2.x,mouse_2.y,mouse_2.leftButton,mouse_2.midButton,mouse_2.rightButton,mouse_2.started,mouse_2.stopped,image.started,image.stopped,text_5.started,text_5.stopped,text_6.started,text_6.stopped,text_7.started,text_7.stopped,text_8.started,text_8.stopped,slider_2.response,slider_2.rt,slider_2.started,slider_2.stopped,Response_2,Feedback_2,BackGround_2.started,BackGround_2.stopped,Fish_2.started,Fish_2.stopped,WordBox_2.started,WordBox_2.stopped,Words_2.started,Words_2.stopped,BackGround_Feedback_2.started,BackGround_Feedback_2.stopped,Feedbacks_2.started,Feedbacks_2.stopped,Continue_or_not.keys,Continue_or_not.rt,Continue_or_not.started,Continue_or_not.stopped,image_3.started,image_3.stopped,mouse_3.x,mouse_3.y,mouse_3.leftButton,mouse_3.midButton,mouse_3.rightButton,mouse_3.started,mouse_3.stopped,startmain.started,startmain.stopped,slider.response,slider.rt,slider.started,slider.stopped,Response,Feedback,BackGround.started,BackGround.stopped,Fish.started,Fish.stopped,WordBox.started,WordBox.stopped,Words.started,Words.stopped,BackGround_Feedback.started,BackGround_Feedback.stopped,Feedbacks.started,Feedbacks.stopped,text.started,text.stopped,break_interval.started,break_interval.stopped,mouse.x,mouse.y,mouse.leftButton,mouse.midButton,mouse.rightButton,mouse.started,mouse.stopped,stratnextround.started,stratnextround.stopped,endgame.started,endgame.stopped,participant,date,expName,psychopyVersion,frameRate,
,,,,,,,,,,,,,,,,,,,,,,,,,,,,,,,,,,,,,,,,,,,,,,,,,,,,,,18.287930199876428,None,18.287930199876428,None,space,1.6367212003096938,18.772582199890167,None,,,,,,,,,,,,,,,,,,,,,,,,,,,,,,,,,,,,,,,,,,,,,,,,,,,,,,,,,,,,,,,,,,,,,,,,,,,,,,,,,,,,,,,,,,207,2023-03-29_17h55.12.410,FishGame,2022.1.1,59.99599226513765,
물고기과제_instruction(참가자용)OrangeVersion.mp4,,,,,,,,,,,,,,0,0,0,0,0,0,0,0,,,,,,,,,,,,,,,,,,,,,,,,,,,,,,,,,,,,,,,,,102.30417109979317,None,n,2.7224297001957893,102.30417109979317,None,,,,,,,,,,,,,,,,,,,,,,,,,,,,,,,,,,,,,,,,,,,,,,,,,,,,,,,,,,,,,,,,,,,,,,,,,,,,,,,,,,,,207,2023-03-29_17h55.12.410,FishGame,2022.1.1,59.99599226513765,
,1,넌 교활해,5,Green,B,2.333333333333333,2.133333333333333,ScrollUp,ScrollDown,Green.png,practice,,,0,0,0,0,,,,,0,0,0,0,0,0,0,0,,,,,,,,,,,,,,,,,,,,,,,,,,,,,,,,,,,,,,,0.06851852,-0.22870371,1,0,0,0.5112692902330309,None,105.05408869986422,None,108.35400870000012,109.85417099995539,109.88746859994717,110.83737269998528,110.88737039989792,111.83728489978239,111.83728489978239,None,1.8688271592060726,2.8091682998929173,113.1263975999318,None,ScrollUp,정답입니다,113.1263975999318,None,113.1263975999318,None,113.1263975999318,None,113.1263975999318,None,115.63499889988452,None,115.63499889988452,116.13705749996006,,,,,,,,,,,,,,,,,,,,,,,,,,,,,,,,,,,,,,,,,,,,,,,,,207,2023-03-29_17h55.12.410,FishGame,2022.1.1,59.99599226513765,
,2,넌 슬기로워,2,Orange,A,6.166666666666667,4.1,ScrollDown,ScrollUp,Orange.png,practice,,,0,0,0,0,,,,,0,0,0,0,0,1,1,1,,,,,,,,,,,,,,,,,,,,,,,,,,,,,,,,,,,,,,,,,,,,,,,,,,,,,,,,1,1.1285485001280904,116.7628376998473,None,ScrollDown,정답입니다,116.7628376998473,None,116.7628376998473,None,116.7628376998473,None,116.7628376998473,None,117.78437279979698,None,117.78437279979698,118.28702879999764,,,,,,,,,,,,,,,,,,,,,,,,,,,,,,,,,,,,,,,,,,,,,,,,,207,2023-03-29_17h55.12.410,FishGame,2022.1.1,59.99599226513765,
,3,나를 보내줘,6,Orange,A,0,0,ScrollUp,ScrollDown,Orange.png,practice,,,0,0,0,0,,,,,0,0,0,0,0,2,2,2,,,,,,,,,,,,,,,,,,,,,,,,,,,,,,,,,,,,,,,,,,,,,,,,,,,,,,,,1.6157407462596893,1.2967370999976993,118.91594949993305,None,ScrollUp,정답입니다,118.91594949993305,None,118.91594949993305,None,118.91594949993305,None,118.91594949993305,None,120.10069249989465,None,120.10069249989465,120.60074799996801,,,,,,,,,,,,,,,,,,,,,,,,,,,,,,,,,,,,,,,,,,,,,,,,,207,2023-03-29_17h55.12.410,FishGame,2022.1.1,59.99599226513765,
,4,나를 데려가줘,6,Green,B,0,0,ScrollDown,ScrollUp,Green.png,practice,,,0,0,0,0,,,,,0,0,0,0,0,3,3,3,,,,,,,,,,,,,,,,,,,,,,,,,,,,,,,,,,,,,,,,,,,,,,,,,,,,,,,,1,1.5175281001720577,121.22300949995406,None,ScrollDown,정답입니다,121.22300949995406,None,121.22300949995406,None,121.22300949995406,None,121.22300949995406,None,122.63700369978324,None,122.63700369978324,123.13699339982122,,,,,,,,,,,,,,,,,,,,,,,,,,,,,,,,,,,,,,,,,,,,,,,,,207,2023-03-29_17h55.12.410,FishGame,2022.1.1,59.99599226513765,
,1,넌 교활해,5,Green,B,2.333333333333333,2.133333333333333,ScrollUp,ScrollDown,Green.png,practice,,,0,0,0,0,,,,,0,0,0,0,,,,,,,,,,,,,,,,,,,,,,,,,,,,,,,,,,,,,,,,,,,,,,,,,,,,,,,,,,,,,,,,,,,,,,,,,,,,,,n,7.03300780011341,123.63702289992943,None,123.63702289992943,None,,,,,,,,,,,,,,,,,,,,,,,,,,,,,,,,,,,,,,,,,,,207,2023-03-29_17h55.12.410,FishGame,2022.1.1,59.99599226513765,
,1,넌 따뜻해,1,Green,B,6.083333333333333,5.6,ScrollUp,ScrollDown,Green.png,1,Positive,Incongruent,0,0,0,0,,,,,,,,,,,,,0,0,0,0,,,,,,,,,,,,,,,,,,,,,,,,,,,,,,,,,,,,,,,,,,,,134.48677499988116,135.98695279983804,136.02027649991214,136.97010869998485,137.0201014999766,137.9700779998675,137.9700779998675,None,,,,,,,,,,,,,,,,,,,,,,,,,0.015740741,-0.14814815,1,0,0,0.31445629009976983,None,130.6867682999,None,1.7253086368242898,1.6592501997947693,139.27925009978935,None,ScrollUp,정답입니다,139.27925009978935,None,139.27925009978935,None,139.27925009978935,None,139.27925009978935,None,140.6338939999696,None,140.6338939999696,141.13653669995256,,,,,,,,,,,,,,,,207,2023-03-29_17h55.12.410,FishGame,2022.1.1,59.99599226513765,
,2,넌 기품있어,2,Green,B,5.791666666666668,4.5,ScrollUp,ScrollDown,Green.png,1,Positive,Incongruent,0,0,0,0,,,,,,,,,,,,,0,1,1,1,,,,,,,,,,,,,,,,,,,,,,,,,,,,,,,,,,,,,,,,,,,,,,,,,,,,,,,,,,,,,,,,,,,,,,,,,,,,,,,,,,,,,1.6219135771195092,1.1137582000810653,141.77444059983827,None,ScrollUp,정답입니다,141.77444059983827,None,141.77444059983827,None,141.77444059983827,None,141.77444059983827,None,142.76720130001195,None,142.76720130001195,143.26986489980482,,,,,,,,,,,,,,,,207,2023-03-29_17h55.12.410,FishGame,2022.1.1,59.99599226513765,
,3,나를 보내줘,6,Orange,A,0,0,ScrollUp,ScrollDown,Orange.png,1,NonTarget,NonTarget,0,0,0,0,,,,,,,,,,,,,0,2,2,2,,,,,,,,,,,,,,,,,,,,,,,,,,,,,,,,,,,,,,,,,,,,,,,,,,,,,,,,,,,,,,,,,,,,,,,,,,,,,,,,,,,,,1.5246913575877747,1.2150885998271406,143.90164059982635,None,NoResponse,무응답입니다,143.90164059982635,None,143.90164059982635,None,143.90164059982635,None,143.90164059982635,None,145.00052939984016,None,145.00052939984016,145.50016619986854,,,,,,,,,,,,,,,,207,2023-03-29_17h55.12.410,FishGame,2022.1.1,59.99599226513765,
,4,넌 수동적이야,4,Orange,A,2.833333333333333,2.933333333333333,ScrollDown,ScrollUp,Orange.png,1,Negative,Incongruent,0,0,0,0,,,,,,,,,,,,,0,3,3,3,,,,,,,,,,,,,,,,,,,,,,,,,,,,,,,,,,,,,,,,,,,,,,,,,,,,,,,,,,,,,,,,,,,,,,,,,,,,,,,,,,,,,1,1.6476914000231773,146.1355758998543,None,ScrollDown,정답입니다,146.1355758998543,None,146.1355758998543,None,146.1355758998543,None,146.1355758998543,None,147.66685219993815,None,147.66685219993815,148.16983009991236,,,,,,,,,,,,,,,,207,2023-03-29_17h55.12.410,FishGame,2022.1.1,59.99599226513765,
,5,넌 사심이 없어,3,Green,B,4.916666666666666,4.333333333333333,ScrollUp,ScrollDown,Green.png,1,Neutral,Neutral,0,0,0,0,,,,,,,,,,,,,0,4,4,4,,,,,,,,,,,,,,,,,,,,,,,,,,,,,,,,,,,,,,,,,,,,,,,,,,,,,,,,,,,,,,,,,,,,,,,,,,,,,,,,,,,,,2,1.3963819998316467,148.80128759983927,None,ScrollUp,정답입니다,148.80128759983927,None,148.80128759983927,None,148.80128759983927,None,148.80128759983927,None,150.08673619991168,None,150.08673619991168,150.60310299997218,,,,,,,,,,,,,,,,207,2023-03-29_17h55.12.410,FishGame,2022.1.1,59.99599226513765,
,6,넌 헤퍼,5,Orange,A,2.458333333333334,2.233333333333333,ScrollDown,ScrollUp,Orange.png,1,Negative,Incongruent,0,0,0,0,,,,,,,,,,,,,0,5,5,5,,,,,,,,,,,,,,,,,,,,,,,,,,,,,,,,,,,,,,,,,,,,,,,,,,,,,,,,,,,,,,,,,,,,,,,,,,,,,,,,,,,,,1,1.21415779995732,151.21517709991895,None,ScrollDown,정답입니다,151.21517709991895,None,151.21517709991895,None,151.21517709991895,None,151.21517709991895,None,152.3170180998277,None,152.3170180998277,152.81970929983072,,,,,,,,,,,,,,,,207,2023-03-29_17h55.12.410,FishGame,2022.1.1,59.99599226513765,
,7,넌 말쑥해,3,Orange,A,4.833333333333334,4.333333333333333,ScrollDown,ScrollUp,Orange.png,1,Neutral,Neutral,0,0,0,0,,,,,,,,,,,,,0,6,6,6,,,,,,,,,,,,,,,,,,,,,,,,,,,,,,,,,,,,,,,,,,,,,,,,,,,,,,,,,,,,,,,,,,,,,,,,,,,,,,,,,,,,,1,1.2925748000852764,153.4591058997903,None,ScrollDown,정답입니다,153.4591058997903,None,153.4591058997903,None,153.4591058997903,None,153.4591058997903,None,154.63335809996352,None,154.63335809996352,155.1336343998555,,,,,,,,,,,,,,,,207,2023-03-29_17h55.12.410,FishGame,2022.1.1,59.99599226513765,
,8,넌 투덜거려,5,Green,B,2.541666666666667,2.266666666666667,ScrollUp,ScrollDown,Green.png,1,Negative,Congruent,0,0,0,0,,,,,,,,,,,,,0,7,7,7,,,,,,,,,,,,,,,,,,,,,,,,,,,,,,,,,,,,,,,,,,,,,,,,,,,,,,,,,,,,,,,,,,,,,,,,,,,,,,,,,,,,,1.9691357910633087,1.5486170002259314,155.77404089993797,None,ScrollUp,정답입니다,155.77404089993797,None,155.77404089993797,None,155.77404089993797,None,155.77404089993797,None,157.20034119999036,None,157.20034119999036,157.7029448999092,,,,,,,,,,,,,,,,207,2023-03-29_17h55.12.410,FishGame,2022.1.1,59.99599226513765,
,9,넌 적극적이야,1,Orange,A,5.708333333333333,5.533333333333333,ScrollDown,ScrollUp,Orange.png,1,Positive,Congruent,0,0,0,0,,,,,,,,,,,,,0,8,8,8,,,,,,,,,,,,,,,,,,,,,,,,,,,,,,,,,,,,,,,,,,,,,,,,,,,,,,,,,,,,,,,,,,,,,,,,,,,,,,,,,,,,,1,1.1315064998343587,158.33081409987062,None,ScrollDown,정답입니다,158.33081409987062,None,158.33081409987062,None,158.33081409987062,None,158.33081409987062,None,159.35025129979476,None,159.35025129979476,159.85290519986302,,,,,,,,,,,,,,,,207,2023-03-29_17h55.12.410,FishGame,2022.1.1,59.99599226513765,
,10,넌 재미없어,4,Green,B,2.625,2.966666666666667,ScrollUp,ScrollDown,Green.png,1,Negative,Congruent,0,0,0,0,,,,,,,,,,,,,0,9,9,9,,,,,,,,,,,,,,,,,,,,,,,,,,,,,,,,,,,,,,,,,,,,,,,,,,,,,,,,,,,,,,,,,,,,,,,,,,,,,,,,,,,,,2,1.0332947000861168,160.47950509982184,None,ScrollUp,정답입니다,160.47950509982184,None,160.47950509982184,None,160.47950509982184,None,160.47950509982184,None,161.40296899992973,None,161.40296899992973,161.9195735999383,,,,,,,,,,,,,,,,207,2023-03-29_17h55.12.410,FishGame,2022.1.1,59.99599226513765,
,11,넌 명석해,2,Orange,A,5.875,4.033333333333333,ScrollDown,ScrollUp,Orange.png,1,Positive,Congruent,0,0,0,0,,,,,,,,,,,,,0,10,10,10,,,,,,,,,,,,,,,,,,,,,,,,,,,,,,,,,,,,,,,,,,,,,,,,,,,,,,,,,,,,,,,,,,,,,,,,,,,,,,,,,,,,,1,1.3998226001858711,162.53748439997435,None,ScrollDown,정답입니다,162.53748439997435,None,162.53748439997435,None,162.53748439997435,None,162.53748439997435,None,163.81676599988714,None,163.81676599988714,164.31935939984396,,,,,,,,,,,,,,,,207,2023-03-29_17h55.12.410,FishGame,2022.1.1,59.99599226513765,
,12,나를 데려가줘,6,Green,B,0,0,ScrollDown,ScrollUp,Green.png,1,NonTarget,NonTarget,0,0,0,0,,,,,,,,,,,,,0,11,11,11,,,,,,,,,,,,,,,,,,,,,,,,,,,,,,,,,,,,,,,,,,,,,,,,,,,,,,,,,,,,,,,,,,,,,,,,,,,,,,,,,,,,,1,1.299888800131157,164.94533299980685,None,ScrollDown,정답입니다,164.94533299980685,None,164.94533299980685,None,164.94533299980685,None,164.94533299980685,None,166.1359965999145,None,166.1359965999145,166.63600909989327,,,,,,,,,,,,,,,,207,2023-03-29_17h55.12.410,FishGame,2022.1.1,59.99599226513765,
,13,넌 소심해,4,Orange,A,3,3.1,ScrollDown,ScrollUp,Orange.png,1,Negative,Incongruent,0,0,0,0,,,,,,,,,,,,,0,12,12,12,,,,,,,,,,,,,,,,,,,,,,,,,,,,,,,,,,,,,,,,,,,,,,,,,,,,,,,,,,,,,,,,,,,,,,,,,,,,,,,,,,,,,1,1.1981736000161618,167.26304150000215,None,ScrollDown,정답입니다,167.26304150000215,None,167.26304150000215,None,167.26304150000215,None,167.26304150000215,None,168.3526754998602,None,168.3526754998602,168.8526858999394,,,,,,,,,,,,,,,,207,2023-03-29_17h55.12.410,FishGame,2022.1.1,59.99599226513765,
,14,넌 합리적이야,2,Orange,A,5.583333333333333,4.733333333333333,ScrollDown,ScrollUp,Orange.png,1,Positive,Congruent,0,0,0,0,,,,,,,,,,,,,0,13,13,13,,,,,,,,,,,,,,,,,,,,,,,,,,,,,,,,,,,,,,,,,,,,,,,,,,,,,,,,,,,,,,,,,,,,,,,,,,,,,,,,,,,,,1,1.0313790999352932,169.48240079986863,None,ScrollDown,정답입니다,169.48240079986863,None,169.48240079986863,None,169.48240079986863,None,169.48240079986863,None,170.39998019998893,None,170.39998019998893,170.9026126000099,,,,,,,,,,,,,,,,207,2023-03-29_17h55.12.410,FishGame,2022.1.1,59.99599226513765,
,15,넌 무자비해,5,Green,B,2.333333333333333,2.1,ScrollUp,ScrollDown,Green.png,1,Negative,Congruent,0,0,0,0,,,,,,,,,,,,,0,14,14,14,,,,,,,,,,,,,,,,,,,,,,,,,,,,,,,,,,,,,,,,,,,,,,,,,,,,,,,,,,,,,,,,,,,,,,,,,,,,,,,,,,,,,2,1.266518599819392,171.52785629988648,None,ScrollUp,정답입니다,171.52785629988648,None,171.52785629988648,None,171.52785629988648,None,171.52785629988648,None,172.6829649999272,None,172.6829649999272,173.1830625999719,,,,,,,,,,,,,,,,207,2023-03-29_17h55.12.410,FishGame,2022.1.1,59.99599226513765,
,16,나를 보내줘,6,Orange,A,0,0,ScrollUp,ScrollDown,Orange.png,1,NonTarget,NonTarget,0,0,0,0,,,,,,,,,,,,,0,15,15,15,,,,,,,,,,,,,,,,,,,,,,,,,,,,,,,,,,,,,,,,,,,,,,,,,,,,,,,,,,,,,,,,,,,,,,,,,,,,,,,,,,,,,1.9537037014961243,1.3323550999630243,173.81236859993078,None,ScrollUp,정답입니다,173.81236859993078,None,173.81236859993078,None,173.81236859993078,None,173.81236859993078,None,175.03326209983788,None,175.03326209983788,175.5332594998181,,,,,,,,,,,,,,,,207,2023-03-29_17h55.12.410,FishGame,2022.1.1,59.99599226513765,
,17,넌 현실적이야,3,Green,B,4.608695652173913,4.766666666666667,ScrollUp,ScrollDown,Green.png,1,Neutral,Neutral,0,0,0,0,,,,,,,,,,,,,0,16,16,16,,,,,,,,,,,,,,,,,,,,,,,,,,,,,,,,,,,,,,,,,,,,,,,,,,,,,,,,,,,,,,,,,,,,,,,,,,,,,,,,,,,,,2,1.41005380009301,176.1675751998555,None,ScrollUp,정답입니다,176.1675751998555,None,176.1675751998555,None,176.1675751998555,None,176.1675751998555,None,177.4631922999397,None,177.4631922999397,177.96628579986282,,,,,,,,,,,,,,,,207,2023-03-29_17h55.12.410,FishGame,2022.1.1,59.99599226513765,
,18,넌 의리있어,1,Green,B,5.833333333333334,5.633333333333334,ScrollUp,ScrollDown,Green.png,1,Positive,Incongruent,0,0,0,0,,,,,,,,,,,,,0,17,17,17,,,,,,,,,,,,,,,,,,,,,,,,,,,,,,,,,,,,,,,,,,,,,,,,,,,,,,,,,,,,,,,,,,,,,,,,,,,,,,,,,,,,,2,1.081505100009963,178.58973539993167,None,ScrollUp,정답입니다,178.58973539993167,None,178.58973539993167,None,178.58973539993167,None,178.58973539993167,None,179.5661764999386,None,179.5661764999386,180.06620120001025,,,,,,,,,,,,,,,,207,2023-03-29_17h55.12.410,FishGame,2022.1.1,59.99599226513765,
,19,넌 신경과민이야,5,Orange,A,2.541666666666667,2.166666666666667,ScrollDown,ScrollUp,Orange.png,1,Negative,Incongruent,0,0,0,0,,,,,,,,,,,,,0,18,18,18,,,,,,,,,,,,,,,,,,,,,,,,,,,,,,,,,,,,,,,,,,,,,,,,,,,,,,,,,,,,,,,,,,,,,,,,,,,,,,,,,,,,,1,1.5147147998213768,180.70102259982377,None,ScrollDown,정답입니다,180.70102259982377,None,180.70102259982377,None,180.70102259982377,None,180.70102259982377,None,182.10247129993513,None,182.10247129993513,182.60245879995637,,,,,,,,,,,,,,,,207,2023-03-29_17h55.12.410,FishGame,2022.1.1,59.99599226513765,
,20,넌 편안해,1,Orange,A,5.916666666666666,5.866666666666666,ScrollDown,ScrollUp,Orange.png,1,Positive,Congruent,0,0,0,0,,,,,,,,,,,,,0,19,19,19,,,,,,,,,,,,,,,,,,,,,,,,,,,,,,,,,,,,,,,,,,,,,,,,,,,,,,,,,,,,,,,,,,,,,,,,,,,,,,,,,,,,,1,1.1000392001587898,183.23097229981795,None,ScrollDown,정답입니다,183.23097229981795,None,183.23097229981795,None,183.23097229981795,None,183.23097229981795,None,184.2163867999334,None,184.2163867999334,184.71636769990437,,,,,,,,,,,,,,,,207,2023-03-29_17h55.12.410,FishGame,2022.1.1,59.99599226513765,
,21,넌 품위있어,2,Green,B,5.291666666666666,4.466666666666667,ScrollUp,ScrollDown,Green.png,1,Positive,Incongruent,0,0,0,0,,,,,,,,,,,,,0,20,20,20,,,,,,,,,,,,,,,,,,,,,,,,,,,,,,,,,,,,,,,,,,,,,,,,,,,,,,,,,,,,,,,,,,,,,,,,,,,,,,,,,,,,,2,1.1616408000700176,185.35134659986943,None,ScrollUp,정답입니다,185.35134659986943,None,185.35134659986943,None,185.35134659986943,None,185.35134659986943,None,186.39934029988945,None,186.39934029988945,186.89933359995484,,,,,,,,,,,,,,,,207,2023-03-29_17h55.12.410,FishGame,2022.1.1,59.99599226513765,
,22,넌 빈틈없어,3,Orange,A,4.833333333333333,3.966666666666667,ScrollDown,ScrollUp,Orange.png,1,Neutral,Neutral,0,0,0,0,,,,,,,,,,,,,0,21,21,21,,,,,,,,,,,,,,,,,,,,,,,,,,,,,,,,,,,,,,,,,,,,,,,,,,,,,,,,,,,,,,,,,,,,,,,,,,,,,,,,,,,,,1,1.099911900004372,187.52813919982873,None,ScrollDown,정답입니다,187.52813919982873,None,187.52813919982873,None,187.52813919982873,None,187.52813919982873,None,188.51602329988964,None,188.51602329988964,189.01904079993255,,,,,,,,,,,,,,,,207,2023-03-29_17h55.12.410,FishGame,2022.1.1,59.99599226513765,
,23,넌 상상력없어,4,Green,B,2.833333333333333,3.133333333333333,ScrollUp,ScrollDown,Green.png,1,Negative,Congruent,0,0,0,0,,,,,,,,,,,,,0,22,22,22,,,,,,,,,,,,,,,,,,,,,,,,,,,,,,,,,,,,,,,,,,,,,,,,,,,,,,,,,,,,,,,,,,,,,,,,,,,,,,,,,,,,,2,1.299350099870935,189.6529806999024,None,ScrollUp,정답입니다,189.6529806999024,None,189.6529806999024,None,189.6529806999024,None,189.6529806999024,None,190.83299319981597,None,190.83299319981597,191.33557799994014,,,,,,,,,,,,,,,,207,2023-03-29_17h55.12.410,FishGame,2022.1.1,59.99599226513765,
,24,넌 지혜로워,2,Green,B,6.333333333333334,4.633333333333334,ScrollUp,ScrollDown,Green.png,1,Positive,Incongruent,0,0,0,0,,,,,,,,,,,,,0,23,23,23,,,,,,,,,,,,,,,,,,,,,,,,,,,,,,,,,,,,,,,,,,,,,,,,,,,,,,,,,,,,,,,,,,,,,,,,,,,,,,,,,,,,,2,1.1283136999700218,191.96847659978084,None,ScrollUp,정답입니다,191.96847659978084,None,191.96847659978084,None,191.96847659978084,None,191.96847659978084,None,192.98544389987364,None,192.98544389987364,193.48544999980368,,,,,,,,,,,,,,,,207,2023-03-29_17h55.12.410,FishGame,2022.1.1,59.99599226513765,
,25,넌 시끄러워,4,Orange,A,2.833333333333333,3.033333333333333,ScrollDown,ScrollUp,Orange.png,1,Negative,Incongruent,0,0,0,0,,,,,,,,,,,,,0,24,24,24,,,,,,,,,,,,,,,,,,,,,,,,,,,,,,,,,,,,,,,,,,,,,,,,,,,,,,,,,,,,,,,,,,,,,,,,,,,,,,,,,,,,,1,1.6453579999506474,194.1148449999746,None,ScrollDown,정답입니다,194.1148449999746,None,194.1148449999746,None,194.1148449999746,None,194.1148449999746,None,195.64939209981821,None,195.64939209981821,196.15205179993063,,,,,,,,,,,,,,,,207,2023-03-29_17h55.12.410,FishGame,2022.1.1,59.99599226513765,
,26,넌 만사태평이야,3,Green,B,4,4.333333333333333,ScrollUp,ScrollDown,Green.png,1,Neutral,Neutral,0,0,0,0,,,,,,,,,,,,,0,25,25,25,,,,,,,,,,,,,,,,,,,,,,,,,,,,,,,,,,,,,,,,,,,,,,,,,,,,,,,,,,,,,,,,,,,,,,,,,,,,,,,,,,,,,2,1.0949821998365223,196.78071459988132,None,ScrollUp,정답입니다,196.78071459988132,None,196.78071459988132,None,196.78071459988132,None,196.78071459988132,None,197.76610159990378,None,197.76610159990378,198.26871949993074,,,,,,,,,,,,,,,,207,2023-03-29_17h55.12.410,FishGame,2022.1.1,59.99599226513765,
,27,넌 붙임성있어,1,Orange,A,5.708333333333333,5.633333333333334,ScrollDown,ScrollUp,Orange.png,1,Positive,Congruent,0,0,0,0,,,,,,,,,,,,,0,26,26,26,,,,,,,,,,,,,,,,,,,,,,,,,,,,,,,,,,,,,,,,,,,,,,,,,,,,,,,,,,,,,,,,,,,,,,,,,,,,,,,,,,,,,1,1.0334083999041468,198.8986040998716,None,ScrollDown,정답입니다,198.8986040998716,None,198.8986040998716,None,198.8986040998716,None,198.8986040998716,None,199.816078200005,None,199.816078200005,200.31870909989811,,,,,,,,,,,,,,,,207,2023-03-29_17h55.12.410,FishGame,2022.1.1,59.99599226513765,
,28,넌 영리해,2,Orange,A,6,4.033333333333333,ScrollDown,ScrollUp,Orange.png,1,Positive,Congruent,0,0,0,0,,,,,,,,,,,,,0,27,27,27,,,,,,,,,,,,,,,,,,,,,,,,,,,,,,,,,,,,,,,,,,,,,,,,,,,,,,,,,,,,,,,,,,,,,,,,,,,,,,,,,,,,,1,1.2301595997996628,200.95458219991997,None,ScrollDown,정답입니다,200.95458219991997,None,200.95458219991997,None,200.95458219991997,None,200.95458219991997,None,202.06567149981856,None,202.06567149981856,202.56574739981443,,,,,,,,,,,,,,,,207,2023-03-29_17h55.12.410,FishGame,2022.1.1,59.99599226513765,
,29,넌 열심이야,1,Green,B,6.041666666666667,5.833333333333333,ScrollUp,ScrollDown,Green.png,1,Positive,Incongruent,0,0,0,0,,,,,,,,,,,,,0,28,28,28,,,,,,,,,,,,,,,,,,,,,,,,,,,,,,,,,,,,,,,,,,,,,,,,,,,,,,,,,,,,,,,,,,,,,,,,,,,,,,,,,,,,,2,1.0674469000659883,203.19523939979263,None,ScrollUp,정답입니다,203.19523939979263,None,203.19523939979263,None,203.19523939979263,None,203.19523939979263,None,204.15215839981101,None,204.15215839981101,204.65208329982124,,,,,,,,,,,,,,,,207,2023-03-29_17h55.12.410,FishGame,2022.1.1,59.99599226513765,
,30,넌 인기없어,4,Green,B,3,3.3,ScrollUp,ScrollDown,Green.png,1,Negative,Congruent,0,0,0,0,,,,,,,,,,,,,0,29,29,29,,,,,,,,,,,,,,,,,,,,,,,,,,,,,,,,,,,,,,,,,,,,,,,,,,,,,,,,,,,,,,,,,,,,,,,,,,,,,,,,,,,,,2,1.0993526000529528,205.27850089990534,None,ScrollUp,정답입니다,205.27850089990534,None,205.27850089990534,None,205.27850089990534,None,205.27850089990534,None,206.26867139991373,None,206.26867139991373,206.7686564999167,,,,,,,,,,,,,,,,207,2023-03-29_17h55.12.410,FishGame,2022.1.1,59.99599226513765,
,31,넌 익살스러워,3,Orange,A,4.708333333333334,4.833333333333333,ScrollDown,ScrollUp,Orange.png,1,Neutral,Neutral,0,0,0,0,,,,,,,,,,,,,0,30,30,30,,,,,,,,,,,,,,,,,,,,,,,,,,,,,,,,,,,,,,,,,,,,,,,,,,,,,,,,,,,,,,,,,,,,,,,,,,,,,,,,,,,,,1,1.0122104999609292,207.41388299991377,None,ScrollDown,정답입니다,207.41388299991377,None,207.41388299991377,None,207.41388299991377,None,207.41388299991377,None,208.31558459997177,None,208.31558459997177,208.81554579990916,,,,,,,,,,,,,,,,207,2023-03-29_17h55.12.410,FishGame,2022.1.1,59.99599226513765,
,32,넌 이기적이야,5,Green,B,2.291666666666667,2.333333333333333,ScrollUp,ScrollDown,Green.png,1,Negative,Congruent,0,0,0,0,,,,,,,,,,,,,0,31,31,31,,,,,,,,,,,,,,,,,,,,,,,,,,,,,,,,,,,,,,,,,,,,,,,,,,,,,,,,,,,,,,,,,,,,,,,,,,,,,,,,,,,,,1.9938271641731262,1.2673486000858247,209.4438645998016,None,ScrollUp,정답입니다,209.4438645998016,None,209.4438645998016,None,209.4438645998016,None,209.4438645998016,None,210.59918519994244,None,210.59918519994244,211.10182209988125,,,,,,,,,,,,,,,,207,2023-03-29_17h55.12.410,FishGame,2022.1.1,59.99599226513765,
,33,나를 데려가줘,6,Green,B,0,0,ScrollDown,ScrollUp,Green.png,1,NonTarget,NonTarget,0,0,0,0,,,,,,,,,,,,,0,32,32,32,,,,,,,,,,,,,,,,,,,,,,,,,,,,,,,,,,,,,,,,,,,,,,,,,,,,,,,,,,,,,,,,,,,,,,,,,,,,,,,,,,,,,1,1.398021599976346,211.7250763999764,None,ScrollDown,정답입니다,211.7250763999764,None,211.7250763999764,None,211.7250763999764,None,211.7250763999764,None,213.0185288998764,None,213.0185288998764,213.51847389992326,,,,,,,,,,,,,,,,207,2023-03-29_17h55.12.410,FishGame,2022.1.1,59.99599226513765,
,34,넌 기회주의자야,5,Orange,A,2.875,2.133333333333333,ScrollDown,ScrollUp,Orange.png,1,Negative,Incongruent,0,0,0,0,,,,,,,,,,,,,0,33,33,33,,,,,,,,,,,,,,,,,,,,,,,,,,,,,,,,,,,,,,,,,,,,,,,,,,,,,,,,,,,,,,,,,,,,,,,,,,,,,,,,,,,,,1,1.2148154999595135,214.1583259999752,None,ScrollDown,정답입니다,214.1583259999752,None,214.1583259999752,None,214.1583259999752,None,214.1583259999752,None,215.26540809986182,None,215.26540809986182,215.76543129980564,,,,,,,,,,,,,,,,207,2023-03-29_17h55.12.410,FishGame,2022.1.1,59.99599226513765,
,1,넌 미성숙해,4,Orange,A,3,3.2,ScrollDown,ScrollUp,Orange.png,2,Negative,Incongruent,0,0,0,0,,,,,,,,,,,,,,,,,0,0,0,0,,,,,,,,,,,,,,,,,,,,,,,,,,,,,,,,,,,,,,,,249.15113989985548,250.65542560000904,250.67201679991558,251.63437139987946,251.68439869978465,252.6344625998754,252.6344625998754,None,,,,,,,,,,,,,,,,,,,,,,,,,,,,,,,,,,1,1.4274516999721527,253.7378589999862,None,ScrollDown,정답입니다,253.7378589999862,None,253.7378589999862,None,253.7378589999862,None,253.7378589999862,None,255.05093219992705,None,255.05093219992705,255.55082579981536,216.2654536999762,None,216.2654536999762,None,0.022222223,-0.11574074,1,0,0,0.015836789971217513,None,246.26478809979744,None,,,207,2023-03-29_17h55.12.410,FishGame,2022.1.1,59.99599226513765,
,2,넌 반사회적이야,5,Green,B,2.416666666666667,2.033333333333333,ScrollUp,ScrollDown,Green.png,2,Negative,Congruent,0,0,0,0,,,,,,,,,,,,,,,,,0,1,1,1,,,,,,,,,,,,,,,,,,,,,,,,,,,,,,,,,,,,,,,,,,,,,,,,,,,,,,,,,,,,,,,,,,,,,,,,,,,,,,,,,2,1.113104599993676,256.1771255999338,None,ScrollUp,정답입니다,256.1771255999338,None,256.1771255999338,None,256.1771255999338,None,256.1771255999338,None,257.18150720000267,None,257.18150720000267,257.6841713998001,,,,,,,,,,,,,,,,207,2023-03-29_17h55.12.410,FishGame,2022.1.1,59.99599226513765,
,3,넌 유능해,2,Orange,A,6.208333333333333,4.433333333333334,ScrollDown,ScrollUp,Orange.png,2,Positive,Congruent,0,0,0,0,,,,,,,,,,,,,,,,,0,2,2,2,,,,,,,,,,,,,,,,,,,,,,,,,,,,,,,,,,,,,,,,,,,,,,,,,,,,,,,,,,,,,,,,,,,,,,,,,,,,,,,,,1,0.9996988999191672,258.3134769999888,None,ScrollDown,정답입니다,258.3134769999888,None,258.3134769999888,None,258.3134769999888,None,258.3134769999888,None,259.20088759995997,None,259.20088759995997,259.70084339985624,,,,,,,,,,,,,,,,207,2023-03-29_17h55.12.410,FishGame,2022.1.1,59.99599226513765,
,4,넌 능숙해,2,Green,B,5.666666666666667,4.733333333333333,ScrollUp,ScrollDown,Green.png,2,Positive,Incongruent,0,0,0,0,,,,,,,,,,,,,,,,,0,3,3,3,,,,,,,,,,,,,,,,,,,,,,,,,,,,,,,,,,,,,,,,,,,,,,,,,,,,,,,,,,,,,,,,,,,,,,,,,,,,,,,,,2,1.1910347000230104,260.3275122998748,None,ScrollUp,정답입니다,260.3275122998748,None,260.3275122998748,None,260.3275122998748,None,260.3275122998748,None,261.4173802998848,None,261.4173802998848,261.91737739997916,,,,,,,,,,,,,,,,207,2023-03-29_17h55.12.410,FishGame,2022.1.1,59.99599226513765,
,5,넌 진부해,4,Green,B,2.458333333333333,3.166666666666667,ScrollUp,ScrollDown,Green.png,2,Negative,Congruent,0,0,0,0,,,,,,,,,,,,,,,,,0,4,4,4,,,,,,,,,,,,,,,,,,,,,,,,,,,,,,,,,,,,,,,,,,,,,,,,,,,,,,,,,,,,,,,,,,,,,,,,,,,,,,,,,1.9814815024534862,0.9499766998924315,262.54942589998245,None,ScrollUp,정답입니다,262.54942589998245,None,262.54942589998245,None,262.54942589998245,None,262.54942589998245,None,263.3813166997861,None,263.3813166997861,263.88395869988017,,,,,,,,,,,,,,,,207,2023-03-29_17h55.12.410,FishGame,2022.1.1,59.99599226513765,
,6,나를 보내줘,6,Orange,A,0,0,ScrollUp,ScrollDown,Orange.png,2,NonTarget,NonTarget,0,0,0,0,,,,,,,,,,,,,,,,,0,5,5,5,,,,,,,,,,,,,,,,,,,,,,,,,,,,,,,,,,,,,,,,,,,,,,,,,,,,,,,,,,,,,,,,,,,,,,,,,,,,,,,,,1.9969135920206706,1.148274299921468,264.5086797999684,None,ScrollUp,정답입니다,264.5086797999684,None,264.5086797999684,None,264.5086797999684,None,264.5086797999684,None,265.55070089991204,None,265.55070089991204,266.0673016998917,,,,,,,,,,,,,,,,207,2023-03-29_17h55.12.410,FishGame,2022.1.1,59.99599226513765,
,7,넌 엄격해,3,Orange,A,4.166666666666666,4.1,ScrollDown,ScrollUp,Orange.png,2,Neutral,Neutral,0,0,0,0,,,,,,,,,,,,,,,,,0,6,6,6,,,,,,,,,,,,,,,,,,,,,,,,,,,,,,,,,,,,,,,,,,,,,,,,,,,,,,,,,,,,,,,,,,,,,,,,,,,,,,,,,1,1.0973648999352008,266.6788537998218,None,ScrollDown,정답입니다,266.6788537998218,None,266.6788537998218,None,266.6788537998218,None,266.6788537998218,None,267.66462169983424,None,267.66462169983424,268.1672706999816,,,,,,,,,,,,,,,,207,2023-03-29_17h55.12.410,FishGame,2022.1.1,59.99599226513765,
,8,나를 보내줘,6,Orange,A,0,0,ScrollUp,ScrollDown,Orange.png,2,NonTarget,NonTarget,0,0,0,0,,,,,,,,,,,,,,,,,0,7,7,7,,,,,,,,,,,,,,,,,,,,,,,,,,,,,,,,,,,,,,,,,,,,,,,,,,,,,,,,,,,,,,,,,,,,,,,,,,,,,,,,,2,1.0998760000802577,268.791952499887,None,ScrollUp,정답입니다,268.791952499887,None,268.791952499887,None,268.791952499887,None,268.791952499887,None,269.7812649998814,None,269.7812649998814,270.2839466999285,,,,,,,,,,,,,,,,207,2023-03-29_17h55.12.410,FishGame,2022.1.1,59.99599226513765,
,9,넌 대담해,3,Green,B,4.875,4.866666666666666,ScrollUp,ScrollDown,Green.png,2,Neutral,Neutral,0,0,0,0,,,,,,,,,,,,,,,,,0,8,8,8,,,,,,,,,,,,,,,,,,,,,,,,,,,,,,,,,,,,,,,,,,,,,,,,,,,,,,,,,,,,,,,,,,,,,,,,,,,,,,,,,2,1.3002098000142723,270.9048690998461,None,ScrollUp,정답입니다,270.9048690998461,None,270.9048690998461,None,270.9048690998461,None,270.9048690998461,None,272.097570899874,None,272.097570899874,272.59770259982906,,,,,,,,,,,,,,,,207,2023-03-29_17h55.12.410,FishGame,2022.1.1,59.99599226513765,
,10,넌 꾸준해,1,Orange,A,5.916666666666668,5.8,ScrollDown,ScrollUp,Orange.png,2,Positive,Congruent,0,0,0,0,,,,,,,,,,,,,,,,,0,9,9,9,,,,,,,,,,,,,,,,,,,,,,,,,,,,,,,,,,,,,,,,,,,,,,,,,,,,,,,,,,,,,,,,,,,,,,,,,,,,,,,,,1,1.0814855999778956,273.2307801998686,None,ScrollDown,정답입니다,273.2307801998686,None,273.2307801998686,None,273.2307801998686,None,273.2307801998686,None,274.1979054999538,None,274.1979054999538,274.70057899993844,,,,,,,,,,,,,,,,207,2023-03-29_17h55.12.410,FishGame,2022.1.1,59.99599226513765,
,11,나를 데려가줘,6,Green,B,0,0,ScrollDown,ScrollUp,Green.png,2,NonTarget,NonTarget,0,0,0,0,,,,,,,,,,,,,,,,,0,10,10,10,,,,,,,,,,,,,,,,,,,,,,,,,,,,,,,,,,,,,,,,,,,,,,,,,,,,,,,,,,,,,,,,,,,,,,,,,,,,,,,,,1,1.1666433999780566,275.32361079985276,None,ScrollDown,정답입니다,275.32361079985276,None,275.32361079985276,None,275.32361079985276,None,275.32361079985276,None,276.38395799999125,None,276.38395799999125,276.89745859988034,,,,,,,,,,,,,,,,207,2023-03-29_17h55.12.410,FishGame,2022.1.1,59.99599226513765,
,12,넌 독선적이야,5,Orange,A,2.458333333333333,1.933333333333333,ScrollDown,ScrollUp,Orange.png,2,Negative,Incongruent,0,0,0,0,,,,,,,,,,,,,,,,,0,11,11,11,,,,,,,,,,,,,,,,,,,,,,,,,,,,,,,,,,,,,,,,,,,,,,,,,,,,,,,,,,,,,,,,,,,,,,,,,,,,,,,,,1.0370370149612427,1.2818251999560744,277.5267053998541,None,ScrollDown,정답입니다,277.5267053998541,None,277.5267053998541,None,277.5267053998541,None,277.5267053998541,None,278.697497199988,None,278.697497199988,279.2004677997902,,,,,,,,,,,,,,,,207,2023-03-29_17h55.12.410,FishGame,2022.1.1,59.99599226513765,
,13,나를 보내줘,6,Orange,A,0,0,ScrollUp,ScrollDown,Orange.png,2,NonTarget,NonTarget,0,0,0,0,,,,,,,,,,,,,,,,,0,12,12,12,,,,,,,,,,,,,,,,,,,,,,,,,,,,,,,,,,,,,,,,,,,,,,,,,,,,,,,,,,,,,,,,,,,,,,,,,,,,,,,,,1.8873456766208012,1.0648461999371648,279.8255609998014,None,ScrollUp,정답입니다,279.8255609998014,None,279.8255609998014,None,279.8255609998014,None,279.8255609998014,None,280.7810721998103,None,280.7810721998103,281.28372859978117,,,,,,,,,,,,,,,,207,2023-03-29_17h55.12.410,FishGame,2022.1.1,59.99599226513765,
,14,넌 책임감있어,1,Green,B,6.347826086956522,6,ScrollUp,ScrollDown,Green.png,2,Positive,Incongruent,0,0,0,0,,,,,,,,,,,,,,,,,0,13,13,13,,,,,,,,,,,,,,,,,,,,,,,,,,,,,,,,,,,,,,,,,,,,,,,,,,,,,,,,,,,,,,,,,,,,,,,,,,,,,,,,,2,1.2495417001191527,281.91267679980956,None,ScrollUp,정답입니다,281.91267679980956,None,281.91267679980956,None,281.91267679980956,None,281.91267679980956,None,283.04756199987605,None,283.04756199987605,283.55025789979845,,,,,,,,,,,,,,,,207,2023-03-29_17h55.12.410,FishGame,2022.1.1,59.99599226513765,
,15,넌 문학적이야,3,Orange,A,4.708333333333334,4.333333333333333,ScrollDown,ScrollUp,Orange.png,2,Neutral,Neutral,0,0,0,0,,,,,,,,,,,,,,,,,0,14,14,14,,,,,,,,,,,,,,,,,,,,,,,,,,,,,,,,,,,,,,,,,,,,,,,,,,,,,,,,,,,,,,,,,,,,,,,,,,,,,,,,,1,1.3331176000647247,284.18283759988844,None,ScrollDown,정답입니다,284.18283759988844,None,284.18283759988844,None,284.18283759988844,None,284.18283759988844,None,285.3975424999371,None,285.3975424999371,285.9002863999922,,,,,,,,,,,,,,,,207,2023-03-29_17h55.12.410,FishGame,2022.1.1,59.99599226513765,
,16,넌 재미있어,1,Green,B,5.875,5.7,ScrollUp,ScrollDown,Green.png,2,Positive,Incongruent,0,0,0,0,,,,,,,,,,,,,,,,,0,15,15,15,,,,,,,,,,,,,,,,,,,,,,,,,,,,,,,,,,,,,,,,,,,,,,,,,,,,,,,,,,,,,,,,,,,,,,,,,,,,,,,,,2,1.0137253999710083,286.5233999998309,None,ScrollUp,정답입니다,286.5233999998309,None,286.5233999998309,None,286.5233999998309,None,286.5233999998309,None,287.4335501999594,None,287.4335501999594,287.9308449998498,,,,,,,,,,,,,,,,207,2023-03-29_17h55.12.410,FishGame,2022.1.1,59.99599226513765,
,17,나를 데려가줘,6,Green,B,0,0,ScrollDown,ScrollUp,Green.png,2,NonTarget,NonTarget,0,0,0,0,,,,,,,,,,,,,,,,,0,16,16,16,,,,,,,,,,,,,,,,,,,,,,,,,,,,,,,,,,,,,,,,,,,,,,,,,,,,,,,,,,,,,,,,,,,,,,,,,,,,,,,,,1.1033950646718342,1.4475120001006871,288.5576153998263,None,ScrollDown,정답입니다,288.5576153998263,None,288.5576153998263,None,288.5576153998263,None,288.5576153998263,None,289.8975031999871,None,289.8975031999871,290.40022489987314,,,,,,,,,,,,,,,,207,2023-03-29_17h55.12.410,FishGame,2022.1.1,59.99599226513765,
,18,넌 협력적이야,1,Orange,A,5.625,5.633333333333334,ScrollDown,ScrollUp,Orange.png,2,Positive,Congruent,0,0,0,0,,,,,,,,,,,,,,,,,0,17,17,17,,,,,,,,,,,,,,,,,,,,,,,,,,,,,,,,,,,,,,,,,,,,,,,,,,,,,,,,,,,,,,,,,,,,,,,,,,,,,,,,,1.120370368162791,0.995016299886629,291.02810969995335,None,ScrollDown,정답입니다,291.02810969995335,None,291.02810969995335,None,291.02810969995335,None,291.02810969995335,None,291.9138316998724,None,291.9138316998724,292.4139601998031,,,,,,,,,,,,,,,,207,2023-03-29_17h55.12.410,FishGame,2022.1.1,59.99599226513765,
,19,넌 평범해,3,Green,B,4.333333333333332,4.233333333333333,ScrollUp,ScrollDown,Green.png,2,Neutral,Neutral,0,0,0,0,,,,,,,,,,,,,,,,,0,18,18,18,,,,,,,,,,,,,,,,,,,,,,,,,,,,,,,,,,,,,,,,,,,,,,,,,,,,,,,,,,,,,,,,,,,,,,,,,,,,,,,,,1.8086419651905696,1.031207300024107,293.0367449999321,None,ScrollUp,정답입니다,293.0367449999321,None,293.0367449999321,None,293.0367449999321,None,293.0367449999321,None,293.9638540998567,None,293.9638540998567,294.463829399785,,,,,,,,,,,,,,,,207,2023-03-29_17h55.12.410,FishGame,2022.1.1,59.99599226513765,
,20,넌 오만해,5,Orange,A,2.333333333333333,2,ScrollDown,ScrollUp,Orange.png,2,Negative,Incongruent,0,0,0,0,,,,,,,,,,,,,,,,,0,19,19,19,,,,,,,,,,,,,,,,,,,,,,,,,,,,,,,,,,,,,,,,,,,,,,,,,,,,,,,,,,,,,,,,,,,,,,,,,,,,,,,,,1,1.081814199918881,295.09561560000293,None,ScrollDown,정답입니다,295.09561560000293,None,295.09561560000293,None,295.09561560000293,None,295.09561560000293,None,296.06674889987335,None,296.06674889987335,296.56675429991446,,,,,,,,,,,,,,,,207,2023-03-29_17h55.12.410,FishGame,2022.1.1,59.99599226513765,
,21,넌 운이없어,4,Green,B,3,3.466666666666667,ScrollUp,ScrollDown,Green.png,2,Negative,Congruent,0,0,0,0,,,,,,,,,,,,,,,,,0,20,20,20,,,,,,,,,,,,,,,,,,,,,,,,,,,,,,,,,,,,,,,,,,,,,,,,,,,,,,,,,,,,,,,,,,,,,,,,,,,,,,,,,2,1.0648242998868227,297.1947913998738,None,ScrollUp,정답입니다,297.1947913998738,None,297.1947913998738,None,297.1947913998738,None,297.1947913998738,None,298.1472182997968,None,298.1472182997968,298.64700579992495,,,,,,,,,,,,,,,,207,2023-03-29_17h55.12.410,FishGame,2022.1.1,59.99599226513765,
,22,넌 창조적이야,2,Green,B,6.125,4.633333333333334,ScrollUp,ScrollDown,Green.png,2,Positive,Incongruent,0,0,0,0,,,,,,,,,,,,,,,,,0,21,21,21,,,,,,,,,,,,,,,,,,,,,,,,,,,,,,,,,,,,,,,,,,,,,,,,,,,,,,,,,,,,,,,,,,,,,,,,,,,,,,,,,1.9984568059444427,1.1987972999922931,299.2733670999296,None,ScrollUp,정답입니다,299.2733670999296,None,299.2733670999296,None,299.2733670999296,None,299.2733670999296,None,300.3636695998721,None,300.3636695998721,300.86373519990593,,,,,,,,,,,,,,,,207,2023-03-29_17h55.12.410,FishGame,2022.1.1,59.99599226513765,
,23,나를 보내줘,6,Orange,A,0,0,ScrollUp,ScrollDown,Orange.png,2,NonTarget,NonTarget,0,0,0,0,,,,,,,,,,,,,,,,,0,22,22,22,,,,,,,,,,,,,,,,,,,,,,,,,,,,,,,,,,,,,,,,,,,,,,,,,,,,,,,,,,,,,,,,,,,,,,,,,,,,,,,,,2,1.1343610999174416,301.4922813999001,None,ScrollUp,정답입니다,301.4922813999001,None,301.4922813999001,None,301.4922813999001,None,301.4922813999001,None,302.5139409999829,None,302.5139409999829,303.01665269979276,,,,,,,,,,,,,,,,207,2023-03-29_17h55.12.410,FishGame,2022.1.1,59.99599226513765,
,24,넌 통찰력있어,2,Orange,A,6.5,4.8,ScrollDown,ScrollUp,Orange.png,2,Positive,Congruent,0,0,0,0,,,,,,,,,,,,,,,,,0,23,23,23,,,,,,,,,,,,,,,,,,,,,,,,,,,,,,,,,,,,,,,,,,,,,,,,,,,,,,,,,,,,,,,,,,,,,,,,,,,,,,,,,1,1.1829981999471784,303.6458428998012,None,ScrollDown,정답입니다,303.6458428998012,None,303.6458428998012,None,303.6458428998012,None,303.6458428998012,None,304.7166053999681,None,304.7166053999681,305.2165440998506,,,,,,,,,,,,,,,,207,2023-03-29_17h55.12.410,FishGame,2022.1.1,59.99599226513765,
,25,넌 경솔해,5,Green,B,2.458333333333333,2.266666666666667,ScrollUp,ScrollDown,Green.png,2,Negative,Congruent,0,0,0,0,,,,,,,,,,,,,,,,,0,24,24,24,,,,,,,,,,,,,,,,,,,,,,,,,,,,,,,,,,,,,,,,,,,,,,,,,,,,,,,,,,,,,,,,,,,,,,,,,,,,,,,,,1.7175925920406976,1.0475207997951657,305.8408881998621,None,ScrollUp,정답입니다,305.8408881998621,None,305.8408881998621,None,305.8408881998621,None,305.8408881998621,None,306.7830990999937,None,306.7830990999937,307.2831458998844,,,,,,,,,,,,,,,,207,2023-03-29_17h55.12.410,FishGame,2022.1.1,59.99599226513765,
,26,넌 초조해,4,Orange,A,2.916666666666667,3.133333333333333,ScrollDown,ScrollUp,Orange.png,2,Negative,Incongruent,0,0,0,0,,,,,,,,,,,,,,,,,0,25,25,25,,,,,,,,,,,,,,,,,,,,,,,,,,,,,,,,,,,,,,,,,,,,,,,,,,,,,,,,,,,,,,,,,,,,,,,,,,,,,,,,,1.192901223897934,1.2658978998661041,307.90959729999304,None,ScrollDown,정답입니다,307.90959729999304,None,307.90959729999304,None,307.90959729999304,None,307.90959729999304,None,309.06643189978786,None,309.06643189978786,309.56639619986527,,,,,,,,,,,,,,,,207,2023-03-29_17h55.12.410,FishGame,2022.1.1,59.99599226513765,
,27,넌 무관심해,4,Green,B,2.833333333333333,2.9,ScrollUp,ScrollDown,Green.png,2,Negative,Congruent,0,0,0,0,,,,,,,,,,,,,,,,,0,26,26,26,,,,,,,,,,,,,,,,,,,,,,,,,,,,,,,,,,,,,,,,,,,,,,,,,,,,,,,,,,,,,,,,,,,,,,,,,,,,,,,,,1.6496913532416024,1.0287542000878602,310.1943761999719,None,ScrollUp,정답입니다,310.1943761999719,None,310.1943761999719,None,310.1943761999719,None,310.1943761999719,None,311.11647399980575,None,311.11647399980575,311.61640699999407,,,,,,,,,,,,,,,,207,2023-03-29_17h55.12.410,FishGame,2022.1.1,59.99599226513765,
,28,넌 감성적이야,3,Green,B,4.125,4.166666666666667,ScrollUp,ScrollDown,Green.png,2,Neutral,Neutral,0,0,0,0,,,,,,,,,,,,,,,,,0,27,27,27,,,,,,,,,,,,,,,,,,,,,,,,,,,,,,,,,,,,,,,,,,,,,,,,,,,,,,,,,,,,,,,,,,,,,,,,,,,,,,,,,1.6805555572112403,1.1999204999301583,312.25637329998426,None,ScrollUp,정답입니다,312.25637329998426,None,312.25637329998426,None,312.25637329998426,None,312.25637329998426,None,313.3470662999898,None,313.3470662999898,313.85394549998455,,,,,,,,,,,,,,,,207,2023-03-29_17h55.12.410,FishGame,2022.1.1,59.99599226513765,
,29,넌 배려심있어,1,Orange,A,6.083333333333333,5.5,ScrollDown,ScrollUp,Orange.png,2,Positive,Congruent,0,0,0,0,,,,,,,,,,,,,,,,,0,28,28,28,,,,,,,,,,,,,,,,,,,,,,,,,,,,,,,,,,,,,,,,,,,,,,,,,,,,,,,,,,,,,,,,,,,,,,,,,,,,,,,,,1.0895061641931534,1.2950063000898808,314.4819816998206,None,ScrollDown,정답입니다,314.4819816998206,None,314.4819816998206,None,314.4819816998206,None,314.4819816998206,None,315.6633653999306,None,315.6633653999306,316.16342150000855,,,,,,,,,,,,,,,,207,2023-03-29_17h55.12.410,FishGame,2022.1.1,59.99599226513765,
,30,넌 숨김없어,3,Orange,A,4.5,4.933333333333334,ScrollDown,ScrollUp,Orange.png,2,Neutral,Neutral,0,0,0,0,,,,,,,,,,,,,,,,,0,29,29,29,,,,,,,,,,,,,,,,,,,,,,,,,,,,,,,,,,,,,,,,,,,,,,,,,,,,,,,,,,,,,,,,,,,,,,,,,,,,,,,,,1.0077160497506459,1.0842897999100387,316.7931446998846,None,ScrollDown,정답입니다,316.7931446998846,None,316.7931446998846,None,316.7931446998846,None,316.7931446998846,None,317.76631899992935,None,317.76631899992935,318.2662965999916,,,,,,,,,,,,,,,,207,2023-03-29_17h55.12.410,FishGame,2022.1.1,59.99599226513765,
,31,넌 훌륭해,2,Green,B,5.916666666666667,4.033333333333333,ScrollUp,ScrollDown,Green.png,2,Positive,Incongruent,0,0,0,0,,,,,,,,,,,,,,,,,0,30,30,30,,,,,,,,,,,,,,,,,,,,,,,,,,,,,,,,,,,,,,,,,,,,,,,,,,,,,,,,,,,,,,,,,,,,,,,,,,,,,,,,,1.939814825852712,1.413494700100273,318.89247189997695,None,ScrollUp,정답입니다,318.89247189997695,None,318.89247189997695,None,318.89247189997695,None,318.89247189997695,None,320.1965218000114,None,320.1965218000114,320.6965649998747,,,,,,,,,,,,,,,,207,2023-03-29_17h55.12.410,FishGame,2022.1.1,59.99599226513765,
,32,넌 슬기로워,2,Orange,A,6.166666666666667,4.1,ScrollDown,ScrollUp,Orange.png,2,Positive,Congruent,0,0,0,0,,,,,,,,,,,,,,,,,0,31,31,31,,,,,,,,,,,,,,,,,,,,,,,,,,,,,,,,,,,,,,,,,,,,,,,,,,,,,,,,,,,,,,,,,,,,,,,,,,,,,,,,,1.0046296219031017,1.0475395999383181,321.32212309981696,None,ScrollDown,정답입니다,321.32212309981696,None,321.32212309981696,None,321.32212309981696,None,321.32212309981696,None,322.2632544999942,None,322.2632544999942,322.76618519984186,,,,,,,,,,,,,,,,207,2023-03-29_17h55.12.410,FishGame,2022.1.1,59.99599226513765,
,33,넌 냉혹해,5,Orange,A,2.583333333333333,2.1,ScrollDown,ScrollUp,Orange.png,2,Negative,Incongruent,0,0,0,0,,,,,,,,,,,,,,,,,0,32,32,32,,,,,,,,,,,,,,,,,,,,,,,,,,,,,,,,,,,,,,,,,,,,,,,,,,,,,,,,,,,,,,,,,,,,,,,,,,,,,,,,,1,1.1333627998828888,323.3946346999146,None,ScrollDown,정답입니다,323.3946346999146,None,323.3946346999146,None,323.3946346999146,None,323.3946346999146,None,324.41615209984593,None,324.41615209984593,324.91618079994805,,,,,,,,,,,,,,,,207,2023-03-29_17h55.12.410,FishGame,2022.1.1,59.99599226513765,
,34,나를 데려가줘,6,Green,B,0,0,ScrollDown,ScrollUp,Green.png,2,NonTarget,NonTarget,0,0,0,0,,,,,,,,,,,,,,,,,0,33,33,33,,,,,,,,,,,,,,,,,,,,,,,,,,,,,,,,,,,,,,,,,,,,,,,,,,,,,,,,,,,,,,,,,,,,,,,,,,,,,,,,,1,1.2621001000516117,325.5393800998572,None,ScrollDown,정답입니다,325.5393800998572,None,325.5393800998572,None,325.5393800998572,None,325.5393800998572,None,326.6964989998378,None,326.6964989998378,327.1964282998815,,,,,,,,,,,,,,,,207,2023-03-29_17h55.12.410,FishGame,2022.1.1,59.99599226513765,
,35,넌 편파적이야,5,Green,B,2.125,2,ScrollUp,ScrollDown,Green.png,2,Negative,Congruent,0,0,0,0,,,,,,,,,,,,,,,,,0,34,34,34,,,,,,,,,,,,,,,,,,,,,,,,,,,,,,,,,,,,,,,,,,,,,,,,,,,,,,,,,,,,,,,,,,,,,,,,,,,,,,,,,1.6250000049670539,0.9660814001690596,327.8205985999666,None,ScrollUp,정답입니다,327.8205985999666,None,327.8205985999666,None,327.8205985999666,None,327.8205985999666,None,328.67979309987277,None,328.67979309987277,329.18275369983166,,,,,,,,,,,,,,,,207,2023-03-29_17h55.12.410,FishGame,2022.1.1,59.99599226513765,
,36,넌 슬퍼,4,Orange,A,2.583333333333333,3.066666666666667,ScrollDown,ScrollUp,Orange.png,2,Negative,Incongruent,0,0,0,0,,,,,,,,,,,,,,,,,0,35,35,35,,,,,,,,,,,,,,,,,,,,,,,,,,,,,,,,,,,,,,,,,,,,,,,,,,,,,,,,,,,,,,,,,,,,,,,,,,,,,,,,,1,1.2121405000798404,329.80700939986855,None,ScrollDown,정답입니다,329.80700939986855,None,329.80700939986855,None,329.80700939986855,None,329.80700939986855,None,330.91600609989837,None,330.91600609989837,331.4160062998999,,,,,,,,,,,,,,,,207,2023-03-29_17h55.12.410,FishGame,2022.1.1,59.99599226513765,
,37,나를 데려가줘,6,Green,B,0,0,ScrollDown,ScrollUp,Green.png,2,NonTarget,NonTarget,0,0,0,0,,,,,,,,,,,,,,,,,0,36,36,36,,,,,,,,,,,,,,,,,,,,,,,,,,,,,,,,,,,,,,,,,,,,,,,,,,,,,,,,,,,,,,,,,,,,,,,,,,,,,,,,,1,1.329804499866441,332.0541063998826,None,ScrollDown,정답입니다,332.0541063998826,None,332.0541063998826,None,332.0541063998826,None,332.0541063998826,None,333.26606779987924,None,333.26606779987924,333.7659361998085,,,,,,,,,,,,,,,,207,2023-03-29_17h55.12.410,FishGame,2022.1.1,59.99599226513765,
,38,넌 친절해,1,Green,B,6.041666666666667,5.533333333333333,ScrollUp,ScrollDown,Green.png,2,Positive,Incongruent,0,0,0,0,,,,,,,,,,,,,,,,,0,37,37,37,,,,,,,,,,,,,,,,,,,,,,,,,,,,,,,,,,,,,,,,,,,,,,,,,,,,,,,,,,,,,,,,,,,,,,,,,,,,,,,,,1.6003086442748704,1.0669058000203222,334.3924858998507,None,ScrollUp,정답입니다,334.3924858998507,None,334.3924858998507,None,334.3924858998507,None,334.3924858998507,None,335.346602199832,None,335.346602199832,335.8462739000097,,,,,,,,,,,,,,,,207,2023-03-29_17h55.12.410,FishGame,2022.1.1,59.99599226513765,
,1,넌 엉성해,4,Orange,A,3,3.3,ScrollDown,ScrollUp,Orange.png,3,Negative,Incongruent,0,0,0,0,,,,,,,,,,,,,,,,,,,,,0,0,0,0,,,,,,,,,,,,,,,,,,,,,,,,,,,,,,,,,,,,370.815219799988,372.3153841998428,372.34864049986936,373.29862929997034,373.3486577998847,374.2985760997981,374.2985760997981,None,,,,,,,,,,,,,,,,,,,,,,,,,,,,,,,,,,1,1.190427399938926,375.4017556000035,None,ScrollDown,정답입니다,375.4017556000035,None,375.4017556000035,None,375.4017556000035,None,375.4017556000035,None,376.47906939988025,None,376.47906939988025,376.9817097999621,336.3462795999367,None,336.3462795999367,None,-0.017592592,-0.11574074,1,0,0,0.01623118994757533,None,366.34581089997664,None,,,207,2023-03-29_17h55.12.410,FishGame,2022.1.1,59.99599226513765,
,2,나를 보내줘,6,Orange,A,0,0,ScrollUp,ScrollDown,Orange.png,3,NonTarget,NonTarget,0,0,0,0,,,,,,,,,,,,,,,,,,,,,0,1,1,1,,,,,,,,,,,,,,,,,,,,,,,,,,,,,,,,,,,,,,,,,,,,,,,,,,,,,,,,,,,,,,,,,,,,,,,,,,,,,2,1.1300685999449342,377.6069801999256,None,ScrollUp,정답입니다,377.6069801999256,None,377.6069801999256,None,377.6069801999256,None,377.6069801999256,None,378.6287080999464,None,378.6287080999464,379.12870399979874,,,,,,,,,,,,,,,,207,2023-03-29_17h55.12.410,FishGame,2022.1.1,59.99599226513765,
,3,넌 활발해,1,Green,B,5.666666666666667,5.6,ScrollUp,ScrollDown,Green.png,3,Positive,Incongruent,0,0,0,0,,,,,,,,,,,,,,,,,,,,,0,2,2,2,,,,,,,,,,,,,,,,,,,,,,,,,,,,,,,,,,,,,,,,,,,,,,,,,,,,,,,,,,,,,,,,,,,,,,,,,,,,,2,1.1176175998989493,379.7586297998205,None,ScrollUp,정답입니다,379.7586297998205,None,379.7586297998205,None,379.7586297998205,None,379.7586297998205,None,380.7651866998058,None,380.7651866998058,381.2650647999253,,,,,,,,,,,,,,,,207,2023-03-29_17h55.12.410,FishGame,2022.1.1,59.99599226513765,
,4,넌 논리적이야,2,Orange,A,5.666666666666666,4.633333333333334,ScrollDown,ScrollUp,Orange.png,3,Positive,Congruent,0,0,0,0,,,,,,,,,,,,,,,,,,,,,0,3,3,3,,,,,,,,,,,,,,,,,,,,,,,,,,,,,,,,,,,,,,,,,,,,,,,,,,,,,,,,,,,,,,,,,,,,,,,,,,,,,1,1.0313735001254827,381.89319629990496,None,ScrollDown,정답입니다,381.89319629990496,None,381.89319629990496,None,381.89319629990496,None,381.89319629990496,None,382.8149294999894,None,382.8149294999894,383.314981599804,,,,,,,,,,,,,,,,207,2023-03-29_17h55.12.410,FishGame,2022.1.1,59.99599226513765,
,5,넌 과묵해,3,Orange,A,3.875,4.4,ScrollDown,ScrollUp,Orange.png,3,Neutral,Neutral,0,0,0,0,,,,,,,,,,,,,,,,,,,,,0,4,4,4,,,,,,,,,,,,,,,,,,,,,,,,,,,,,,,,,,,,,,,,,,,,,,,,,,,,,,,,,,,,,,,,,,,,,,,,,,,,,1,1.2641135000158101,383.9483500998467,None,ScrollDown,정답입니다,383.9483500998467,None,383.9483500998467,None,383.9483500998467,None,383.9483500998467,None,385.0955656999722,None,385.0955656999722,385.5981940999627,,,,,,,,,,,,,,,,207,2023-03-29_17h55.12.410,FishGame,2022.1.1,59.99599226513765,
,6,나를 데려가줘,6,Green,B,0,0,ScrollDown,ScrollUp,Green.png,3,NonTarget,NonTarget,0,0,0,0,,,,,,,,,,,,,,,,,,,,,0,5,5,5,,,,,,,,,,,,,,,,,,,,,,,,,,,,,,,,,,,,,,,,,,,,,,,,,,,,,,,,,,,,,,,,,,,,,,,,,,,,,1,1.2813969000708312,386.221296899952,None,ScrollDown,정답입니다,386.221296899952,None,386.221296899952,None,386.221296899952,None,386.221296899952,None,387.398211899912,None,387.398211899912,387.9118315000087,,,,,,,,,,,,,,,,207,2023-03-29_17h55.12.410,FishGame,2022.1.1,59.99599226513765,
,7,넌 미숙해,4,Green,B,3,3,ScrollUp,ScrollDown,Green.png,3,Negative,Congruent,0,0,0,0,,,,,,,,,,,,,,,,,,,,,0,6,6,6,,,,,,,,,,,,,,,,,,,,,,,,,,,,,,,,,,,,,,,,,,,,,,,,,,,,,,,,,,,,,,,,,,,,,,,,,,,,,2,1.064768800046295,388.5319668999873,None,ScrollUp,정답입니다,388.5319668999873,None,388.5319668999873,None,388.5319668999873,None,388.5319668999873,None,389.4951570997946,None,389.4951570997946,389.99517949996516,,,,,,,,,,,,,,,,207,2023-03-29_17h55.12.410,FishGame,2022.1.1,59.99599226513765,
,8,나를 보내줘,6,Orange,A,0,0,ScrollUp,ScrollDown,Orange.png,3,NonTarget,NonTarget,0,0,0,0,,,,,,,,,,,,,,,,,,,,,0,7,7,7,,,,,,,,,,,,,,,,,,,,,,,,,,,,,,,,,,,,,,,,,,,,,,,,,,,,,,,,,,,,,,,,,,,,,,,,,,,,,2,1.1333011998794973,390.62277839984745,None,ScrollUp,정답입니다,390.62277839984745,None,390.62277839984745,None,390.62277839984745,None,390.62277839984745,None,391.6483312000055,None,391.6483312000055,392.1481826999225,,,,,,,,,,,,,,,,207,2023-03-29_17h55.12.410,FishGame,2022.1.1,59.99599226513765,
,9,넌 자신만만해,3,Green,B,4.833333333333334,4.333333333333333,ScrollUp,ScrollDown,Green.png,3,Neutral,Neutral,0,0,0,0,,,,,,,,,,,,,,,,,,,,,0,8,8,8,,,,,,,,,,,,,,,,,,,,,,,,,,,,,,,,,,,,,,,,,,,,,,,,,,,,,,,,,,,,,,,,,,,,,,,,,,,,,2,1.2123033998068422,392.7711055998225,None,ScrollUp,정답입니다,392.7711055998225,None,392.7711055998225,None,392.7711055998225,None,392.7711055998225,None,393.8788106997963,None,393.8788106997963,394.38154839980416,,,,,,,,,,,,,,,,207,2023-03-29_17h55.12.410,FishGame,2022.1.1,59.99599226513765,
,10,넌 탐욕스러워,5,Orange,A,2.25,2.1,ScrollDown,ScrollUp,Orange.png,3,Negative,Incongruent,0,0,0,0,,,,,,,,,,,,,,,,,,,,,0,9,9,9,,,,,,,,,,,,,,,,,,,,,,,,,,,,,,,,,,,,,,,,,,,,,,,,,,,,,,,,,,,,,,,,,,,,,,,,,,,,,1,1.1279893999453634,395.01159379980527,None,ScrollDown,정답입니다,395.01159379980527,None,395.01159379980527,None,395.01159379980527,None,395.01159379980527,None,396.03172969981097,None,396.03172969981097,396.5312933998648,,,,,,,,,,,,,,,,207,2023-03-29_17h55.12.410,FishGame,2022.1.1,59.99599226513765,
,11,넌 인기있어,2,Orange,A,5.458333333333333,4.5,ScrollDown,ScrollUp,Orange.png,3,Positive,Congruent,0,0,0,0,,,,,,,,,,,,,,,,,,,,,0,10,10,10,,,,,,,,,,,,,,,,,,,,,,,,,,,,,,,,,,,,,,,,,,,,,,,,,,,,,,,,,,,,,,,,,,,,,,,,,,,,,1.0385802288850148,1.0814133000094444,397.155628999928,None,ScrollDown,정답입니다,397.155628999928,None,397.155628999928,None,397.155628999928,None,397.155628999928,None,398.13122449978255,None,398.13122449978255,398.6312147998251,,,,,,,,,,,,,,,,207,2023-03-29_17h55.12.410,FishGame,2022.1.1,59.99599226513765,
,12,나를 데려가줘,6,Green,B,0,0,ScrollDown,ScrollUp,Green.png,3,NonTarget,NonTarget,0,0,0,0,,,,,,,,,,,,,,,,,,,,,0,11,11,11,,,,,,,,,,,,,,,,,,,,,,,,,,,,,,,,,,,,,,,,,,,,,,,,,,,,,,,,,,,,,,,,,,,,,,,,,,,,,1,1.2828128999099135,399.25396369979717,None,ScrollDown,정답입니다,399.25396369979717,None,399.25396369979717,None,399.25396369979717,None,399.25396369979717,None,400.43133649998344,None,400.43133649998344,400.9317665998824,,,,,,,,,,,,,,,,207,2023-03-29_17h55.12.410,FishGame,2022.1.1,59.99599226513765,
,13,넌 뛰어나,2,Green,B,6.166666666666667,4,ScrollUp,ScrollDown,Green.png,3,Positive,Incongruent,0,0,0,0,,,,,,,,,,,,,,,,,,,,,0,12,12,12,,,,,,,,,,,,,,,,,,,,,,,,,,,,,,,,,,,,,,,,,,,,,,,,,,,,,,,,,,,,,,,,,,,,,,,,,,,,,1.7345678955316544,1.080119599821046,401.5572879000101,None,ScrollUp,정답입니다,401.5572879000101,None,401.5572879000101,None,401.5572879000101,None,401.5572879000101,None,402.52852829988115,None,402.52852829988115,403.0317756999284,,,,,,,,,,,,,,,,207,2023-03-29_17h55.12.410,FishGame,2022.1.1,59.99599226513765,
,14,넌 낙관적이야,1,Orange,A,5.75,5.8,ScrollDown,ScrollUp,Orange.png,3,Positive,Congruent,0,0,0,0,,,,,,,,,,,,,,,,,,,,,0,13,13,13,,,,,,,,,,,,,,,,,,,,,,,,,,,,,,,,,,,,,,,,,,,,,,,,,,,,,,,,,,,,,,,,,,,,,,,,,,,,,1,1.1478645999450237,403.6673888999503,None,ScrollDown,정답입니다,403.6673888999503,None,403.6673888999503,None,403.6673888999503,None,403.6673888999503,None,404.6978217998985,None,404.6978217998985,405.19777229987085,,,,,,,,,,,,,,,,207,2023-03-29_17h55.12.410,FishGame,2022.1.1,59.99599226513765,
,15,넌 산만해,4,Green,B,2.695652173913043,3.033333333333333,ScrollUp,ScrollDown,Green.png,3,Negative,Congruent,0,0,0,0,,,,,,,,,,,,,,,,,,,,,0,14,14,14,,,,,,,,,,,,,,,,,,,,,,,,,,,,,,,,,,,,,,,,,,,,,,,,,,,,,,,,,,,,,,,,,,,,,,,,,,,,,1.8117283930381138,1.0997297998983413,405.82334959995933,None,ScrollUp,정답입니다,405.82334959995933,None,405.82334959995933,None,405.82334959995933,None,405.82334959995933,None,406.81459659989923,None,406.81459659989923,407.314453399973,,,,,,,,,,,,,,,,207,2023-03-29_17h55.12.410,FishGame,2022.1.1,59.99599226513765,
,16,나를 보내줘,6,Orange,A,0,0,ScrollUp,ScrollDown,Orange.png,3,NonTarget,NonTarget,0,0,0,0,,,,,,,,,,,,,,,,,,,,,0,15,15,15,,,,,,,,,,,,,,,,,,,,,,,,,,,,,,,,,,,,,,,,,,,,,,,,,,,,,,,,,,,,,,,,,,,,,,,,,,,,,1.839506169160207,1.1121422001160681,407.9391985000111,None,ScrollUp,정답입니다,407.9391985000111,None,407.9391985000111,None,407.9391985000111,None,407.9391985000111,None,408.9447866999544,None,408.9447866999544,409.44473799993284,,,,,,,,,,,,,,,,207,2023-03-29_17h55.12.410,FishGame,2022.1.1,59.99599226513765,
,17,넌 교활해,5,Green,B,2.333333333333333,2.133333333333333,ScrollUp,ScrollDown,Green.png,3,Negative,Congruent,0,0,0,0,,,,,,,,,,,,,,,,,,,,,0,16,16,16,,,,,,,,,,,,,,,,,,,,,,,,,,,,,,,,,,,,,,,,,,,,,,,,,,,,,,,,,,,,,,,,,,,,,,,,,,,,,1.9429012537002563,1.1976981998886913,410.07446849998087,None,ScrollUp,정답입니다,410.07446849998087,None,410.07446849998087,None,410.07446849998087,None,410.07446849998087,None,411.16440719994716,None,411.16440719994716,411.6643944999669,,,,,,,,,,,,,,,,207,2023-03-29_17h55.12.410,FishGame,2022.1.1,59.99599226513765,
,18,나를 보내줘,6,Orange,A,0,0,ScrollUp,ScrollDown,Orange.png,3,NonTarget,NonTarget,0,0,0,0,,,,,,,,,,,,,,,,,,,,,0,17,17,17,,,,,,,,,,,,,,,,,,,,,,,,,,,,,,,,,,,,,,,,,,,,,,,,,,,,,,,,,,,,,,,,,,,,,,,,,,,,,1.8688271592060726,1.0151072998996824,412.28935779980384,None,ScrollUp,정답입니다,412.28935779980384,None,412.28935779980384,None,412.28935779980384,None,412.28935779980384,None,413.19502459978685,None,413.19502459978685,413.6976820998825,,,,,,,,,,,,,,,,207,2023-03-29_17h55.12.410,FishGame,2022.1.1,59.99599226513765,
,19,넌 불친절해,5,Green,B,2.208333333333333,2.033333333333333,ScrollUp,ScrollDown,Green.png,3,Negative,Congruent,0,0,0,0,,,,,,,,,,,,,,,,,,,,,0,18,18,18,,,,,,,,,,,,,,,,,,,,,,,,,,,,,,,,,,,,,,,,,,,,,,,,,,,,,,,,,,,,,,,,,,,,,,,,,,,,,1.7206790198882422,0.9955136999487877,414.32831539982,None,ScrollUp,정답입니다,414.32831539982,None,414.32831539982,None,414.32831539982,None,414.32831539982,None,415.21156119997613,None,415.21156119997613,415.7142165999394,,,,,,,,,,,,,,,,207,2023-03-29_17h55.12.410,FishGame,2022.1.1,59.99599226513765,
,20,넌 지적이야,2,Green,B,5.75,4.366666666666666,ScrollUp,ScrollDown,Green.png,3,Positive,Incongruent,0,0,0,0,,,,,,,,,,,,,,,,,,,,,0,19,19,19,,,,,,,,,,,,,,,,,,,,,,,,,,,,,,,,,,,,,,,,,,,,,,,,,,,,,,,,,,,,,,,,,,,,,,,,,,,,,1.6929012313485146,1.031387499999255,416.33704959996976,None,ScrollUp,정답입니다,416.33704959996976,None,416.33704959996976,None,416.33704959996976,None,416.33704959996976,None,417.26154239987954,None,417.26154239987954,417.7641961998306,,,,,,,,,,,,,,,,207,2023-03-29_17h55.12.410,FishGame,2022.1.1,59.99599226513765,
,21,넌 우유부단해,4,Orange,A,2.666666666666667,3.166666666666667,ScrollDown,ScrollUp,Orange.png,3,Negative,Incongruent,0,0,0,0,,,,,,,,,,,,,,,,,,,,,0,20,20,20,,,,,,,,,,,,,,,,,,,,,,,,,,,,,,,,,,,,,,,,,,,,,,,,,,,,,,,,,,,,,,,,,,,,,,,,,,,,,1,1.1121962999459356,418.39576749992557,None,ScrollDown,정답입니다,418.39576749992557,None,418.39576749992557,None,418.39576749992557,None,418.39576749992557,None,419.3948527998291,None,419.3948527998291,419.89749869983643,,,,,,,,,,,,,,,,207,2023-03-29_17h55.12.410,FishGame,2022.1.1,59.99599226513765,
,22,나를 데려가줘,6,Green,B,0,0,ScrollDown,ScrollUp,Green.png,3,NonTarget,NonTarget,0,0,0,0,,,,,,,,,,,,,,,,,,,,,0,21,21,21,,,,,,,,,,,,,,,,,,,,,,,,,,,,,,,,,,,,,,,,,,,,,,,,,,,,,,,,,,,,,,,,,,,,,,,,,,,,,1,1.4785383001435548,420.5264261998236,None,ScrollDown,정답입니다,420.5264261998236,None,420.5264261998236,None,420.5264261998236,None,420.5264261998236,None,421.89479499985464,None,421.89479499985464,422.3974242999684,,,,,,,,,,,,,,,,207,2023-03-29_17h55.12.410,FishGame,2022.1.1,59.99599226513765,
,23,넌 성실해,1,Green,B,6.041666666666666,5.7,ScrollUp,ScrollDown,Green.png,3,Positive,Incongruent,0,0,0,0,,,,,,,,,,,,,,,,,,,,,0,22,22,22,,,,,,,,,,,,,,,,,,,,,,,,,,,,,,,,,,,,,,,,,,,,,,,,,,,,,,,,,,,,,,,,,,,,,,,,,,,,,1.7253086368242898,0.9980510000605136,423.0200586998835,None,ScrollUp,정답입니다,423.0200586998835,None,423.0200586998835,None,423.0200586998835,None,423.0200586998835,None,423.9111540999729,None,423.9111540999729,424.41108459979296,,,,,,,,,,,,,,,,207,2023-03-29_17h55.12.410,FishGame,2022.1.1,59.99599226513765,
,24,넌 현실주의적이야,3,Orange,A,4.625,4.4,ScrollDown,ScrollUp,Orange.png,3,Neutral,Neutral,0,0,0,0,,,,,,,,,,,,,,,,,,,,,0,23,23,23,,,,,,,,,,,,,,,,,,,,,,,,,,,,,,,,,,,,,,,,,,,,,,,,,,,,,,,,,,,,,,,,,,,,,,,,,,,,,1,1.2517464999109507,425.0424429997802,None,ScrollDown,정답입니다,425.0424429997802,None,425.0424429997802,None,425.0424429997802,None,425.0424429997802,None,426.18094809981994,None,426.18094809981994,426.6807608997915,,,,,,,,,,,,,,,,207,2023-03-29_17h55.12.410,FishGame,2022.1.1,59.99599226513765,
,25,넌 진실돼,1,Orange,A,6.625,5.566666666666666,ScrollDown,ScrollUp,Orange.png,3,Positive,Congruent,0,0,0,0,,,,,,,,,,,,,,,,,,,,,0,24,24,24,,,,,,,,,,,,,,,,,,,,,,,,,,,,,,,,,,,,,,,,,,,,,,,,,,,,,,,,,,,,,,,,,,,,,,,,,,,,,1.0432098706563313,1.211879399837926,427.30845149978995,None,ScrollDown,정답입니다,427.30845149978995,None,427.30845149978995,None,427.30845149978995,None,427.30845149978995,None,428.4113517999649,None,428.4113517999649,428.91399249993265,,,,,,,,,,,,,,,,207,2023-03-29_17h55.12.410,FishGame,2022.1.1,59.99599226513765,
,26,넌 천진난만해,3,Green,B,4.958333333333334,4.833333333333333,ScrollUp,ScrollDown,Green.png,3,Neutral,Neutral,0,0,0,0,,,,,,,,,,,,,,,,,,,,,0,25,25,25,,,,,,,,,,,,,,,,,,,,,,,,,,,,,,,,,,,,,,,,,,,,,,,,,,,,,,,,,,,,,,,,,,,,,,,,,,,,,2,1.3649424999020994,429.5404758998193,None,ScrollUp,정답입니다,429.5404758998193,None,429.5404758998193,None,429.5404758998193,None,429.5404758998193,None,430.79430309985764,None,430.79430309985764,431.29433499998413,,,,,,,,,,,,,,,,207,2023-03-29_17h55.12.410,FishGame,2022.1.1,59.99599226513765,
,27,넌 교양없어,5,Orange,A,2.416666666666667,2.2,ScrollDown,ScrollUp,Orange.png,3,Negative,Incongruent,0,0,0,0,,,,,,,,,,,,,,,,,,,,,0,26,26,26,,,,,,,,,,,,,,,,,,,,,,,,,,,,,,,,,,,,,,,,,,,,,,,,,,,,,,,,,,,,,,,,,,,,,,,,,,,,,1.1126543233791988,1.3335613999515772,431.9261081998702,None,ScrollDown,정답입니다,431.9261081998702,None,431.9261081998702,None,431.9261081998702,None,431.9261081998702,None,433.14723789994605,None,433.14723789994605,433.64725519996136,,,,,,,,,,,,,,,,207,2023-03-29_17h55.12.410,FishGame,2022.1.1,59.99599226513765,
,28,나를 보내줘,6,Orange,A,0,0,ScrollUp,ScrollDown,Orange.png,3,NonTarget,NonTarget,0,0,0,0,,,,,,,,,,,,,,,,,,,,,0,27,27,27,,,,,,,,,,,,,,,,,,,,,,,,,,,,,,,,,,,,,,,,,,,,,,,,,,,,,,,,,,,,,,,,,,,,,,,,,,,,,1.7052469179034233,0.9479908000212163,434.2727269998286,None,ScrollUp,정답입니다,434.2727269998286,None,434.2727269998286,None,434.2727269998286,None,434.2727269998286,None,435.11392139992677,None,435.11392139992677,435.6277820998803,,,,,,,,,,,,,,,,207,2023-03-29_17h55.12.410,FishGame,2022.1.1,59.99599226513765,
,29,넌 엉뚱스러워,3,Orange,A,4.166666666666667,4.133333333333334,ScrollDown,ScrollUp,Orange.png,3,Neutral,Neutral,0,0,0,0,,,,,,,,,,,,,,,,,,,,,0,28,28,28,,,,,,,,,,,,,,,,,,,,,,,,,,,,,,,,,,,,,,,,,,,,,,,,,,,,,,,,,,,,,,,,,,,,,,,,,,,,,1,1.1482404998969287,436.25341479992494,None,ScrollDown,정답입니다,436.25341479992494,None,436.25341479992494,None,436.25341479992494,None,436.25341479992494,None,437.2942410998512,None,437.2942410998512,437.7941995000001,,,,,,,,,,,,,,,,207,2023-03-29_17h55.12.410,FishGame,2022.1.1,59.99599226513765,
,30,넌 무지해,4,Green,B,2.541666666666667,3.066666666666667,ScrollUp,ScrollDown,Green.png,3,Negative,Congruent,0,0,0,0,,,,,,,,,,,,,,,,,,,,,0,29,29,29,,,,,,,,,,,,,,,,,,,,,,,,,,,,,,,,,,,,,,,,,,,,,,,,,,,,,,,,,,,,,,,,,,,,,,,,,,,,,1.56944444651405,0.9120296000037342,438.4202009998262,None,ScrollUp,정답입니다,438.4202009998262,None,438.4202009998262,None,438.4202009998262,None,438.4202009998262,None,439.22786059998907,None,439.22786059998907,439.7305007998366,,,,,,,,,,,,,,,,207,2023-03-29_17h55.12.410,FishGame,2022.1.1,59.99599226513765,
,31,넌 음울해,5,Green,B,2.25,2.233333333333333,ScrollUp,ScrollDown,Green.png,3,Negative,Congruent,0,0,0,0,,,,,,,,,,,,,,,,,,,,,0,30,30,30,,,,,,,,,,,,,,,,,,,,,,,,,,,,,,,,,,,,,,,,,,,,,,,,,,,,,,,,,,,,,,,,,,,,,,,,,,,,,1.819444437821706,0.8857723998371512,440.354321999941,None,ScrollUp,정답입니다,440.354321999941,None,440.354321999941,None,440.354321999941,None,440.354321999941,None,441.1303866999224,None,441.1303866999224,441.6440608999692,,,,,,,,,,,,,,,,207,2023-03-29_17h55.12.410,FishGame,2022.1.1,59.99599226513765,
,32,넌 냉소적이야,5,Orange,A,2.916666666666667,2.4,ScrollDown,ScrollUp,Orange.png,3,Negative,Incongruent,0,0,0,0,,,,,,,,,,,,,,,,,,,,,0,31,31,31,,,,,,,,,,,,,,,,,,,,,,,,,,,,,,,,,,,,,,,,,,,,,,,,,,,,,,,,,,,,,,,,,,,,,,,,,,,,,1.2067901243766148,0.9482753998599946,442.26727039995603,None,ScrollDown,정답입니다,442.26727039995603,None,442.26727039995603,None,442.26727039995603,None,442.26727039995603,None,443.11071529984474,None,443.11071529984474,443.61074969987385,,,,,,,,,,,,,,,,207,2023-03-29_17h55.12.410,FishGame,2022.1.1,59.99599226513765,
,33,나를 데려가줘,6,Green,B,0,0,ScrollDown,ScrollUp,Green.png,3,NonTarget,NonTarget,0,0,0,0,,,,,,,,,,,,,,,,,,,,,0,32,32,32,,,,,,,,,,,,,,,,,,,,,,,,,,,,,,,,,,,,,,,,,,,,,,,,,,,,,,,,,,,,,,,,,,,,,,,,,,,,,1.3811728383104007,1.1163782000076026,444.23667049990036,None,ScrollDown,정답입니다,444.23667049990036,None,444.23667049990036,None,444.23667049990036,None,444.23667049990036,None,445.24713189993054,None,445.24713189993054,445.7469806999434,,,,,,,,,,,,,,,,207,2023-03-29_17h55.12.410,FishGame,2022.1.1,59.99599226513765,
,34,넌 쾌활해,1,Orange,A,5.541666666666666,5.733333333333333,ScrollDown,ScrollUp,Orange.png,3,Positive,Congruent,0,0,0,0,,,,,,,,,,,,,,,,,,,,,0,33,33,33,,,,,,,,,,,,,,,,,,,,,,,,,,,,,,,,,,,,,,,,,,,,,,,,,,,,,,,,,,,,,,,,,,,,,,,,,,,,,1.2731481492519379,0.9816628999542445,446.37563999998383,None,ScrollDown,정답입니다,446.37563999998383,None,446.37563999998383,None,446.37563999998383,None,446.37563999998383,None,447.2514359999914,None,447.2514359999914,447.76060529984534,,,,,,,,,,,,,,,,207,2023-03-29_17h55.12.410,FishGame,2022.1.1,59.99599226513765,
,35,나를 보내줘,6,Orange,A,0,0,ScrollUp,ScrollDown,Orange.png,3,NonTarget,NonTarget,0,0,0,0,,,,,,,,,,,,,,,,,,,,,0,34,34,34,,,,,,,,,,,,,,,,,,,,,,,,,,,,,,,,,,,,,,,,,,,,,,,,,,,,,,,,,,,,,,,,,,,,,,,,,,,,,1.5123456787938871,1.048198499949649,448.38285549986176,None,NoResponse,무응답입니다,448.38285549986176,None,448.38285549986176,None,448.38285549986176,None,448.38285549986176,None,449.3273210998159,None,449.3273210998159,449.82729539996944,,,,,,,,,,,,,,,,207,2023-03-29_17h55.12.410,FishGame,2022.1.1,59.99599226513765,
,36,넌 명랑해,1,Green,B,5.739130434782609,5.666666666666667,ScrollUp,ScrollDown,Green.png,3,Positive,Incongruent,0,0,0,0,,,,,,,,,,,,,,,,,,,,,0,35,35,35,,,,,,,,,,,,,,,,,,,,,,,,,,,,,,,,,,,,,,,,,,,,,,,,,,,,,,,,,,,,,,,,,,,,,,,,,,,,,1.7299382785956063,1.2831520000472665,450.45639429986477,None,ScrollUp,정답입니다,450.45639429986477,None,450.45639429986477,None,450.45639429986477,None,450.45639429986477,None,451.6280412999913,None,451.6280412999913,452.1301888998132,,,,,,,,,,,,,,,,207,2023-03-29_17h55.12.410,FishGame,2022.1.1,59.99599226513765,
,37,넌 멍해,4,Orange,A,2.833333333333333,3.4,ScrollDown,ScrollUp,Orange.png,3,Negative,Incongruent,0,0,0,0,,,,,,,,,,,,,,,,,,,,,0,36,36,36,,,,,,,,,,,,,,,,,,,,,,,,,,,,,,,,,,,,,,,,,,,,,,,,,,,,,,,,,,,,,,,,,,,,,,,,,,,,,1,1.1304242999758571,452.7572985999286,None,ScrollDown,정답입니다,452.7572985999286,None,452.7572985999286,None,452.7572985999286,None,452.7572985999286,None,453.7771509999875,None,453.7771509999875,454.27762219985016,,,,,,,,,,,,,,,,207,2023-03-29_17h55.12.410,FishGame,2022.1.1,59.99599226513765,
,38,나를 데려가줘,6,Green,B,0,0,ScrollDown,ScrollUp,Green.png,3,NonTarget,NonTarget,0,0,0,0,,,,,,,,,,,,,,,,,,,,,0,37,37,37,,,,,,,,,,,,,,,,,,,,,,,,,,,,,,,,,,,,,,,,,,,,,,,,,,,,,,,,,,,,,,,,,,,,,,,,,,,,,1,1.2645314000546932,454.9032639998477,None,ScrollDown,정답입니다,454.9032639998477,None,454.9032639998477,None,454.9032639998477,None,454.9032639998477,None,456.06361439987086,None,456.06361439987086,456.5635128999129,,,,,,,,,,,,,,,,207,2023-03-29_17h55.12.410,FishGame,2022.1.1,59.99599226513765,
,39,넌 현명해,2,Orange,A,6.541666666666666,4.533333333333333,ScrollDown,ScrollUp,Orange.png,3,Positive,Congruent,0,0,0,0,,,,,,,,,,,,,,,,,,,,,0,38,38,38,,,,,,,,,,,,,,,,,,,,,,,,,,,,,,,,,,,,,,,,,,,,,,,,,,,,,,,,,,,,,,,,,,,,,,,,,,,,,1.0277777810891469,1.0313898001331836,457.1887689998839,None,ScrollDown,정답입니다,457.1887689998839,None,457.1887689998839,None,457.1887689998839,None,457.1887689998839,None,458.1108064998407,None,458.1108064998407,458.6133667998947,,,,,,,,,,,,,,,,207,2023-03-29_17h55.12.410,FishGame,2022.1.1,59.99599226513765,
,40,넌 수줍어,3,Green,B,3.541666666666666,4.366666666666666,ScrollUp,ScrollDown,Green.png,3,Neutral,Neutral,0,0,0,0,,,,,,,,,,,,,,,,,,,,,0,39,39,39,,,,,,,,,,,,,,,,,,,,,,,,,,,,,,,,,,,,,,,,,,,,,,,,,,,,,,,,,,,,,,,,,,,,,,,,,,,,,1.9691357910633087,0.8479720000177622,459.2387098998297,None,ScrollUp,정답입니다,459.2387098998297,None,459.2387098998297,None,459.2387098998297,None,459.2387098998297,None,459.97732069995254,None,459.97732069995254,460.47992089996114,,,,,,,,,,,,,,,,207,2023-03-29_17h55.12.410,FishGame,2022.1.1,59.99599226513765,
,41,나를 데려가줘,6,Green,B,0,0,ScrollDown,ScrollUp,Green.png,3,NonTarget,NonTarget,0,0,0,0,,,,,,,,,,,,,,,,,,,,,0,40,40,40,,,,,,,,,,,,,,,,,,,,,,,,,,,,,,,,,,,,,,,,,,,,,,,,,,,,,,,,,,,,,,,,,,,,,,,,,,,,,1,1.0786817001644522,461.10326869995333,None,ScrollDown,정답입니다,461.10326869995333,None,461.10326869995333,None,461.10326869995333,None,461.10326869995333,None,462.0772454999387,None,462.0772454999387,462.5798827998806,,,,,,,,,,,,,,,,207,2023-03-29_17h55.12.410,FishGame,2022.1.1,59.99599226513765,
,42,넌 성숙해,2,Green,B,5.833333333333333,4.533333333333333,ScrollUp,ScrollDown,Green.png,3,Positive,Incongruent,0,0,0,0,,,,,,,,,,,,,,,,,,,,,0,41,41,41,,,,,,,,,,,,,,,,,,,,,,,,,,,,,,,,,,,,,,,,,,,,,,,,,,,,,,,,,,,,,,,,,,,,,,,,,,,,,1.8518518557151158,1.3332144999876618,463.20194790000096,None,ScrollUp,정답입니다,463.20194790000096,None,463.20194790000096,None,463.20194790000096,None,463.20194790000096,None,464.4272134997882,None,464.4272134997882,464.9298891997896,,,,,,,,,,,,,,,,207,2023-03-29_17h55.12.410,FishGame,2022.1.1,59.99599226513765,
,1,넌 매력적이야,2,Green,B,6.125,4.666666666666667,ScrollUp,ScrollDown,Green.png,4,Positive,Incongruent,0,0,0,0,,,,,,,,,,,,,,,,,,,,,,,,,0,0,0,0,,,,,,,,,,,,,,,,,,,,,,,,,,,,,,,,498.56709949998185,500.07934549986385,500.0960052998271,501.0459683998488,501.0959622999653,502.0459517999552,502.0459517999552,None,,,,,,,,,,,,,,,,,,,,,,,,,,,,,,,,,,1.9861110945542653,1.043020100099966,503.14700479991734,None,ScrollUp,정답입니다,503.14700479991734,None,503.14700479991734,None,503.14700479991734,None,503.14700479991734,None,504.07641389989294,None,504.07641389989294,504.5790620998014,465.42992399982177,None,465.42992399982177,None,0.031481482,-0.13240741,1,0,0,0.016209990018978715,None,495.4299205997959,None,,,207,2023-03-29_17h55.12.410,FishGame,2022.1.1,59.99599226513765,
,2,나를 보내줘,6,Orange,A,0,0,ScrollUp,ScrollDown,Orange.png,4,NonTarget,NonTarget,0,0,0,0,,,,,,,,,,,,,,,,,,,,,,,,,0,1,1,1,,,,,,,,,,,,,,,,,,,,,,,,,,,,,,,,,,,,,,,,,,,,,,,,,,,,,,,,,,,,,,,,,,,,,,,,,1.8966049353281658,1.0475163999944925,505.2065884999465,None,ScrollUp,정답입니다,505.2065884999465,None,505.2065884999465,None,505.2065884999465,None,505.2065884999465,None,506.1430320998188,None,506.1430320998188,506.64572429982945,,,,,,,,,,,,,,,,207,2023-03-29_17h55.12.410,FishGame,2022.1.1,59.99599226513765,
,3,넌 조심스러워,3,Orange,A,4.791666666666666,4.666666666666667,ScrollDown,ScrollUp,Orange.png,4,Neutral,Neutral,0,0,0,0,,,,,,,,,,,,,,,,,,,,,,,,,0,2,2,2,,,,,,,,,,,,,,,,,,,,,,,,,,,,,,,,,,,,,,,,,,,,,,,,,,,,,,,,,,,,,,,,,,,,,,,,,1,1.181154599878937,507.2783146998845,None,ScrollDown,정답입니다,507.2783146998845,None,507.2783146998845,None,507.2783146998845,None,507.2783146998845,None,508.3455863997806,None,508.3455863997806,508.84559819987044,,,,,,,,,,,,,,,,207,2023-03-29_17h55.12.410,FishGame,2022.1.1,59.99599226513765,
,4,넌 철학적이야,3,Green,B,4.5,4.266666666666667,ScrollUp,ScrollDown,Green.png,4,Neutral,Neutral,0,0,0,0,,,,,,,,,,,,,,,,,,,,,,,,,0,3,3,3,,,,,,,,,,,,,,,,,,,,,,,,,,,,,,,,,,,,,,,,,,,,,,,,,,,,,,,,,,,,,,,,,,,,,,,,,1.5756172835826874,0.9955616998486221,509.47148429998197,None,ScrollUp,정답입니다,509.47148429998197,None,509.47148429998197,None,509.47148429998197,None,509.47148429998197,None,510.35963539988734,None,510.35963539988734,510.8628276998643,,,,,,,,,,,,,,,,207,2023-03-29_17h55.12.410,FishGame,2022.1.1,59.99599226513765,
,5,넌 쩨쩨해,5,Orange,A,2.375,2.133333333333333,ScrollDown,ScrollUp,Orange.png,4,Negative,Incongruent,0,0,0,0,,,,,,,,,,,,,,,,,,,,,,,,,0,4,4,4,,,,,,,,,,,,,,,,,,,,,,,,,,,,,,,,,,,,,,,,,,,,,,,,,,,,,,,,,,,,,,,,,,,,,,,,,1.016975333293279,0.99542609998025,511.4895474999212,None,ScrollDown,정답입니다,511.4895474999212,None,511.4895474999212,None,511.4895474999212,None,511.4895474999212,None,512.3762689998839,None,512.3762689998839,512.879033499863,,,,,,,,,,,,,,,,207,2023-03-29_17h55.12.410,FishGame,2022.1.1,59.99599226513765,
,6,나를 데려가줘,6,Green,B,0,0,ScrollDown,ScrollUp,Green.png,4,NonTarget,NonTarget,0,0,0,0,,,,,,,,,,,,,,,,,,,,,,,,,0,5,5,5,,,,,,,,,,,,,,,,,,,,,,,,,,,,,,,,,,,,,,,,,,,,,,,,,,,,,,,,,,,,,,,,,,,,,,,,,1,1.2831478000152856,513.5061520999297,None,ScrollDown,정답입니다,513.5061520999297,None,513.5061520999297,None,513.5061520999297,None,513.5061520999297,None,514.6762427999638,None,514.6762427999638,515.1788227998186,,,,,,,,,,,,,,,,207,2023-03-29_17h55.12.410,FishGame,2022.1.1,59.99599226513765,
,7,넌 고집불통이야,5,Green,B,2.875,2,ScrollUp,ScrollDown,Green.png,4,Negative,Congruent,0,0,0,0,,,,,,,,,,,,,,,,,,,,,,,,,0,6,6,6,,,,,,,,,,,,,,,,,,,,,,,,,,,,,,,,,,,,,,,,,,,,,,,,,,,,,,,,,,,,,,,,,,,,,,,,,1.6929012313485146,0.8998706000857055,515.8063580999151,None,ScrollUp,정답입니다,515.8063580999151,None,515.8063580999151,None,515.8063580999151,None,515.8063580999151,None,516.5929230998736,None,516.5929230998736,517.095467899926,,,,,,,,,,,,,,,,207,2023-03-29_17h55.12.410,FishGame,2022.1.1,59.99599226513765,
,8,넌 무심해,4,Orange,A,2.875,3.2,ScrollDown,ScrollUp,Orange.png,4,Negative,Incongruent,0,0,0,0,,,,,,,,,,,,,,,,,,,,,,,,,0,7,7,7,,,,,,,,,,,,,,,,,,,,,,,,,,,,,,,,,,,,,,,,,,,,,,,,,,,,,,,,,,,,,,,,,,,,,,,,,1.1435185273488362,0.9332522000186145,517.7203882997856,None,ScrollDown,정답입니다,517.7203882997856,None,517.7203882997856,None,517.7203882997856,None,517.7203882997856,None,518.5427744998597,None,518.5427744998597,519.0454028998502,,,,,,,,,,,,,,,,207,2023-03-29_17h55.12.410,FishGame,2022.1.1,59.99599226513765,
,9,넌 정겨워,1,Orange,A,5.791666666666667,5.666666666666667,ScrollDown,ScrollUp,Orange.png,4,Positive,Congruent,0,0,0,0,,,,,,,,,,,,,,,,,,,,,,,,,0,8,8,8,,,,,,,,,,,,,,,,,,,,,,,,,,,,,,,,,,,,,,,,,,,,,,,,,,,,,,,,,,,,,,,,,,,,,,,,,1,0.9995101001113653,519.6713744997978,None,ScrollDown,정답입니다,519.6713744997978,None,519.6713744997978,None,519.6713744997978,None,519.6713744997978,None,520.5591134999413,None,520.5591134999413,521.0591074998956,,,,,,,,,,,,,,,,207,2023-03-29_17h55.12.410,FishGame,2022.1.1,59.99599226513765,
,10,나를 데려가줘,6,Green,B,0,0,ScrollDown,ScrollUp,Green.png,4,NonTarget,NonTarget,0,0,0,0,,,,,,,,,,,,,,,,,,,,,,,,,0,9,9,9,,,,,,,,,,,,,,,,,,,,,,,,,,,,,,,,,,,,,,,,,,,,,,,,,,,,,,,,,,,,,,,,,,,,,,,,,1,1.1184458998031914,521.6798423998989,None,ScrollDown,정답입니다,521.6798423998989,None,521.6798423998989,None,521.6798423998989,None,521.6798423998989,None,522.6925825998187,None,522.6925825998187,523.1954228999093,,,,,,,,,,,,,,,,207,2023-03-29_17h55.12.410,FishGame,2022.1.1,59.99599226513765,
,11,넌 체제순응적이야,4,Green,B,3,3.6,ScrollUp,ScrollDown,Green.png,4,Negative,Congruent,0,0,0,0,,,,,,,,,,,,,,,,,,,,,,,,,0,10,10,10,,,,,,,,,,,,,,,,,,,,,,,,,,,,,,,,,,,,,,,,,,,,,,,,,,,,,,,,,,,,,,,,,,,,,,,,,1.7885802586873372,1.4473373000510037,523.8262716999743,None,ScrollUp,정답입니다,523.8262716999743,None,523.8262716999743,None,523.8262716999743,None,523.8262716999743,None,525.1620394999627,None,525.1620394999627,525.6620897999965,,,,,,,,,,,,,,,,207,2023-03-29_17h55.12.410,FishGame,2022.1.1,59.99599226513765,
,12,나를 보내줘,6,Orange,A,0,0,ScrollUp,ScrollDown,Orange.png,4,NonTarget,NonTarget,0,0,0,0,,,,,,,,,,,,,,,,,,,,,,,,,0,11,11,11,,,,,,,,,,,,,,,,,,,,,,,,,,,,,,,,,,,,,,,,,,,,,,,,,,,,,,,,,,,,,,,,,,,,,,,,,1.8487654278675716,1.0807541999965906,526.2875951000024,None,ScrollUp,정답입니다,526.2875951000024,None,526.2875951000024,None,526.2875951000024,None,526.2875951000024,None,527.2589875999838,None,527.2589875999838,527.7591541998554,,,,,,,,,,,,,,,,207,2023-03-29_17h55.12.410,FishGame,2022.1.1,59.99599226513765,
,13,넌 박식해,2,Orange,A,5.625,3.933333333333333,ScrollDown,ScrollUp,Orange.png,4,Positive,Congruent,0,0,0,0,,,,,,,,,,,,,,,,,,,,,,,,,0,12,12,12,,,,,,,,,,,,,,,,,,,,,,,,,,,,,,,,,,,,,,,,,,,,,,,,,,,,,,,,,,,,,,,,,,,,,,,,,1.0277777810891469,1.2332331000361592,528.3878304997925,None,ScrollDown,정답입니다,528.3878304997925,None,528.3878304997925,None,528.3878304997925,None,528.3878304997925,None,529.5094197997823,None,529.5094197997823,530.009415099863,,,,,,,,,,,,,,,,207,2023-03-29_17h55.12.410,FishGame,2022.1.1,59.99599226513765,
,14,나를 보내줘,6,Orange,A,0,0,ScrollUp,ScrollDown,Orange.png,4,NonTarget,NonTarget,0,0,0,0,,,,,,,,,,,,,,,,,,,,,,,,,0,13,13,13,,,,,,,,,,,,,,,,,,,,,,,,,,,,,,,,,,,,,,,,,,,,,,,,,,,,,,,,,,,,,,,,,,,,,,,,,1.9722222189108531,0.986342899966985,530.6397944998462,None,ScrollUp,정답입니다,530.6397944998462,None,530.6397944998462,None,530.6397944998462,None,530.6397944998462,None,531.5092842997983,None,531.5092842997983,532.0119149999227,,,,,,,,,,,,,,,,207,2023-03-29_17h55.12.410,FishGame,2022.1.1,59.99599226513765,
,15,넌 침착해,1,Green,B,5.458333333333333,5.566666666666666,ScrollUp,ScrollDown,Green.png,4,Positive,Incongruent,0,0,0,0,,,,,,,,,,,,,,,,,,,,,,,,,0,14,14,14,,,,,,,,,,,,,,,,,,,,,,,,,,,,,,,,,,,,,,,,,,,,,,,,,,,,,,,,,,,,,,,,,,,,,,,,,2,0.9768091000150889,532.6441438999027,None,ScrollUp,정답입니다,532.6441438999027,None,532.6441438999027,None,532.6441438999027,None,532.6441438999027,None,533.5091128998902,None,533.5091128998902,534.0117557998747,,,,,,,,,,,,,,,,207,2023-03-29_17h55.12.410,FishGame,2022.1.1,59.99599226513765,
,16,나를 데려가줘,6,Green,B,0,0,ScrollDown,ScrollUp,Green.png,4,NonTarget,NonTarget,0,0,0,0,,,,,,,,,,,,,,,,,,,,,,,,,0,15,15,15,,,,,,,,,,,,,,,,,,,,,,,,,,,,,,,,,,,,,,,,,,,,,,,,,,,,,,,,,,,,,,,,,,,,,,,,,1,0.9623699998483062,534.6353039999958,None,ScrollDown,정답입니다,534.6353039999958,None,534.6353039999958,None,534.6353039999958,None,534.6353039999958,None,535.492477199994,None,535.492477199994,535.9951248997822,,,,,,,,,,,,,,,,207,2023-03-29_17h55.12.410,FishGame,2022.1.1,59.99599226513765,
,17,넌 행복해,1,Orange,A,6.416666666666666,6.166666666666667,ScrollDown,ScrollUp,Orange.png,4,Positive,Congruent,0,0,0,0,,,,,,,,,,,,,,,,,,,,,,,,,0,16,16,16,,,,,,,,,,,,,,,,,,,,,,,,,,,,,,,,,,,,,,,,,,,,,,,,,,,,,,,,,,,,,,,,,,,,,,,,,1.0354938507080078,1.4477790999226272,536.6246279999614,None,ScrollDown,정답입니다,536.6246279999614,None,536.6246279999614,None,536.6246279999614,None,536.6246279999614,None,537.9590720999986,None,537.9590720999986,538.4618158999365,,,,,,,,,,,,,,,,207,2023-03-29_17h55.12.410,FishGame,2022.1.1,59.99599226513765,
,18,넌 겸손해,2,Green,B,5.791666666666667,4.766666666666667,ScrollUp,ScrollDown,Green.png,4,Positive,Incongruent,0,0,0,0,,,,,,,,,,,,,,,,,,,,,,,,,0,17,17,17,,,,,,,,,,,,,,,,,,,,,,,,,,,,,,,,,,,,,,,,,,,,,,,,,,,,,,,,,,,,,,,,,,,,,,,,,1.8641975422700245,1.080462499987334,539.0878274999559,None,ScrollUp,정답입니다,539.0878274999559,None,539.0878274999559,None,539.0878274999559,None,539.0878274999559,None,540.0617277999409,None,540.0617277999409,540.561749599874,,,,,,,,,,,,,,,,207,2023-03-29_17h55.12.410,FishGame,2022.1.1,59.99599226513765,
,19,나를 보내줘,6,Orange,A,0,0,ScrollUp,ScrollDown,Orange.png,4,NonTarget,NonTarget,0,0,0,0,,,,,,,,,,,,,,,,,,,,,,,,,0,18,18,18,,,,,,,,,,,,,,,,,,,,,,,,,,,,,,,,,,,,,,,,,,,,,,,,,,,,,,,,,,,,,,,,,,,,,,,,,1.7623456716537476,0.9315981001127511,541.1861497999635,None,ScrollUp,정답입니다,541.1861497999635,None,541.1861497999635,None,541.1861497999635,None,541.1861497999635,None,542.0117230999749,None,542.0117230999749,542.5116682997905,,,,,,,,,,,,,,,,207,2023-03-29_17h55.12.410,FishGame,2022.1.1,59.99599226513765,
,20,넌 의심없어,3,Orange,A,4.166666666666667,4.6,ScrollDown,ScrollUp,Orange.png,4,Neutral,Neutral,0,0,0,0,,,,,,,,,,,,,,,,,,,,,,,,,0,19,19,19,,,,,,,,,,,,,,,,,,,,,,,,,,,,,,,,,,,,,,,,,,,,,,,,,,,,,,,,,,,,,,,,,,,,,,,,,1,1.0949629000388086,543.2016403998714,None,ScrollDown,정답입니다,543.2016403998714,None,543.2016403998714,None,543.2016403998714,None,543.2016403998714,None,544.1255240999162,None,544.1255240999162,544.6282345999498,,,,,,,,,,,,,,,,207,2023-03-29_17h55.12.410,FishGame,2022.1.1,59.99599226513765,
,21,넌 시시해,4,Orange,A,2.666666666666667,2.966666666666667,ScrollDown,ScrollUp,Orange.png,4,Negative,Incongruent,0,0,0,0,,,,,,,,,,,,,,,,,,,,,,,,,0,20,20,20,,,,,,,,,,,,,,,,,,,,,,,,,,,,,,,,,,,,,,,,,,,,,,,,,,,,,,,,,,,,,,,,,,,,,,,,,1,0.9830898998770863,545.2528951999266,None,ScrollDown,정답입니다,545.2528951999266,None,545.2528951999266,None,545.2528951999266,None,545.2528951999266,None,546.1255657000002,None,546.1255657000002,546.6255318999756,,,,,,,,,,,,,,,,207,2023-03-29_17h55.12.410,FishGame,2022.1.1,59.99599226513765,
,22,나를 데려가줘,6,Green,B,0,0,ScrollDown,ScrollUp,Green.png,4,NonTarget,NonTarget,0,0,0,0,,,,,,,,,,,,,,,,,,,,,,,,,0,21,21,21,,,,,,,,,,,,,,,,,,,,,,,,,,,,,,,,,,,,,,,,,,,,,,,,,,,,,,,,,,,,,,,,,,,,,,,,,1,1.0644439000170678,547.2584629999474,None,ScrollDown,정답입니다,547.2584629999474,None,547.2584629999474,None,547.2584629999474,None,547.2584629999474,None,548.2088591998909,None,548.2088591998909,548.711497399956,,,,,,,,,,,,,,,,207,2023-03-29_17h55.12.410,FishGame,2022.1.1,59.99599226513765,
,23,넌 무정해,5,Orange,A,2.5,2.2,ScrollDown,ScrollUp,Orange.png,4,Negative,Incongruent,0,0,0,0,,,,,,,,,,,,,,,,,,,,,,,,,0,22,22,22,,,,,,,,,,,,,,,,,,,,,,,,,,,,,,,,,,,,,,,,,,,,,,,,,,,,,,,,,,,,,,,,,,,,,,,,,1,1.0167330000549555,549.3352983999066,None,ScrollDown,정답입니다,549.3352983999066,None,549.3352983999066,None,549.3352983999066,None,549.3352983999066,None,550.2421346998308,None,550.2421346998308,550.7447948998306,,,,,,,,,,,,,,,,207,2023-03-29_17h55.12.410,FishGame,2022.1.1,59.99599226513765,
,24,넌 긍정적이야,1,Green,B,6.041666666666667,6.066666666666666,ScrollUp,ScrollDown,Green.png,4,Positive,Incongruent,0,0,0,0,,,,,,,,,,,,,,,,,,,,,,,,,0,23,23,23,,,,,,,,,,,,,,,,,,,,,,,,,,,,,,,,,,,,,,,,,,,,,,,,,,,,,,,,,,,,,,,,,,,,,,,,,1.9074074079593022,1.1481103000696748,551.3697116000112,None,ScrollUp,정답입니다,551.3697116000112,None,551.3697116000112,None,551.3697116000112,None,551.3697116000112,None,552.4084628999699,None,552.4084628999699,552.9084766998421,,,,,,,,,,,,,,,,207,2023-03-29_17h55.12.410,FishGame,2022.1.1,59.99599226513765,
,25,나를 보내줘,6,Orange,A,0,0,ScrollUp,ScrollDown,Orange.png,4,NonTarget,NonTarget,0,0,0,0,,,,,,,,,,,,,,,,,,,,,,,,,0,24,24,24,,,,,,,,,,,,,,,,,,,,,,,,,,,,,,,,,,,,,,,,,,,,,,,,,,,,,,,,,,,,,,,,,,,,,,,,,1.6975308607021966,0.9816448998171836,553.5335818999447,None,ScrollUp,정답입니다,553.5335818999447,None,553.5335818999447,None,553.5335818999447,None,553.5335818999447,None,554.4113779999316,None,554.4113779999316,554.9113967998419,,,,,,,,,,,,,,,,207,2023-03-29_17h55.12.410,FishGame,2022.1.1,59.99599226513765,
,26,넌 시기심이 많아,5,Green,B,2.458333333333333,2.233333333333333,ScrollUp,ScrollDown,Green.png,4,Negative,Congruent,0,0,0,0,,,,,,,,,,,,,,,,,,,,,,,,,0,25,25,25,,,,,,,,,,,,,,,,,,,,,,,,,,,,,,,,,,,,,,,,,,,,,,,,,,,,,,,,,,,,,,,,,,,,,,,,,1.6558641965190568,0.9642664000857621,555.538693399867,None,ScrollUp,정답입니다,555.538693399867,None,555.538693399867,None,555.538693399867,None,555.538693399867,None,556.3946918998845,None,556.3946918998845,556.8947016999591,,,,,,,,,,,,,,,,207,2023-03-29_17h55.12.410,FishGame,2022.1.1,59.99599226513765,
,27,넌 탁월해,2,Orange,A,5.708333333333334,4.5,ScrollDown,ScrollUp,Orange.png,4,Positive,Congruent,0,0,0,0,,,,,,,,,,,,,,,,,,,,,,,,,0,26,26,26,,,,,,,,,,,,,,,,,,,,,,,,,,,,,,,,,,,,,,,,,,,,,,,,,,,,,,,,,,,,,,,,,,,,,,,,,1,1.0965372999198735,557.5395309999585,None,ScrollDown,정답입니다,557.5395309999585,None,557.5395309999585,None,557.5395309999585,None,557.5395309999585,None,558.5250277998857,None,558.5250277998857,559.0249902999494,,,,,,,,,,,,,,,,207,2023-03-29_17h55.12.410,FishGame,2022.1.1,59.99599226513765,
,28,나를 데려가줘,6,Green,B,0,0,ScrollDown,ScrollUp,Green.png,4,NonTarget,NonTarget,0,0,0,0,,,,,,,,,,,,,,,,,,,,,,,,,0,27,27,27,,,,,,,,,,,,,,,,,,,,,,,,,,,,,,,,,,,,,,,,,,,,,,,,,,,,,,,,,,,,,,,,,,,,,,,,,1,1.1836643000133336,559.648092399817,None,ScrollDown,정답입니다,559.648092399817,None,559.648092399817,None,559.648092399817,None,559.648092399817,None,560.7279480998404,None,560.7279480998404,561.2279601998162,,,,,,,,,,,,,,,,207,2023-03-29_17h55.12.410,FishGame,2022.1.1,59.99599226513765,
,29,넌 조용해,3,Green,B,4.333333333333333,4.166666666666667,ScrollUp,ScrollDown,Green.png,4,Neutral,Neutral,0,0,0,0,,,,,,,,,,,,,,,,,,,,,,,,,0,28,28,28,,,,,,,,,,,,,,,,,,,,,,,,,,,,,,,,,,,,,,,,,,,,,,,,,,,,,,,,,,,,,,,,,,,,,,,,,1.8148148208856583,1.0158726999070495,561.8554643997923,None,ScrollUp,정답입니다,561.8554643997923,None,561.8554643997923,None,561.8554643997923,None,561.8554643997923,None,562.7613376998343,None,562.7613376998343,563.2654820999596,,,,,,,,,,,,,,,,207,2023-03-29_17h55.12.410,FishGame,2022.1.1,59.99599226513765,
,30,넌 다정해,1,Orange,A,5.833333333333334,5.7,ScrollDown,ScrollUp,Orange.png,4,Positive,Congruent,0,0,0,0,,,,,,,,,,,,,,,,,,,,,,,,,0,29,29,29,,,,,,,,,,,,,,,,,,,,,,,,,,,,,,,,,,,,,,,,,,,,,,,,,,,,,,,,,,,,,,,,,,,,,,,,,1,1.0148708000779152,563.8987237999681,None,ScrollDown,정답입니다,563.8987237999681,None,563.8987237999681,None,563.8987237999681,None,563.8987237999681,None,564.8081948999316,None,564.8081948999316,565.3082276999485,,,,,,,,,,,,,,,,207,2023-03-29_17h55.12.410,FishGame,2022.1.1,59.99599226513765,
,31,넌 능력있어,2,Green,B,6.166666666666666,4.6,ScrollUp,ScrollDown,Green.png,4,Positive,Incongruent,0,0,0,0,,,,,,,,,,,,,,,,,,,,,,,,,0,30,30,30,,,,,,,,,,,,,,,,,,,,,,,,,,,,,,,,,,,,,,,,,,,,,,,,,,,,,,,,,,,,,,,,,,,,,,,,,2,1.0129023999907076,565.9351654998027,None,ScrollUp,정답입니다,565.9351654998027,None,565.9351654998027,None,565.9351654998027,None,565.9351654998027,None,566.8445979999378,None,566.8445979999378,567.3445054998156,,,,,,,,,,,,,,,,207,2023-03-29_17h55.12.410,FishGame,2022.1.1,59.99599226513765,
,32,넌 불쾌해,5,Orange,A,2.125,1.933333333333333,ScrollDown,ScrollUp,Orange.png,4,Negative,Incongruent,0,0,0,0,,,,,,,,,,,,,,,,,,,,,,,,,0,31,31,31,,,,,,,,,,,,,,,,,,,,,,,,,,,,,,,,,,,,,,,,,,,,,,,,,,,,,,,,,,,,,,,,,,,,,,,,,1,1.1481880999635905,567.969696499873,None,ScrollDown,정답입니다,567.969696499873,None,567.969696499873,None,567.969696499873,None,567.969696499873,None,569.0084517998621,None,569.0084517998621,569.5084484999534,,,,,,,,,,,,,,,,207,2023-03-29_17h55.12.410,FishGame,2022.1.1,59.99599226513765,
,33,나를 데려가줘,6,Green,B,0,0,ScrollDown,ScrollUp,Green.png,4,NonTarget,NonTarget,0,0,0,0,,,,,,,,,,,,,,,,,,,,,,,,,0,32,32,32,,,,,,,,,,,,,,,,,,,,,,,,,,,,,,,,,,,,,,,,,,,,,,,,,,,,,,,,,,,,,,,,,,,,,,,,,1.0046296219031017,1.1642110000830144,570.1292343998794,None,ScrollDown,정답입니다,570.1292343998794,None,570.1292343998794,None,570.1292343998794,None,570.1292343998794,None,571.1914323999081,None,571.1914323999081,571.6914716998581,,,,,,,,,,,,,,,,207,2023-03-29_17h55.12.410,FishGame,2022.1.1,59.99599226513765,
,34,넌 유순해,3,Orange,A,4.458333333333333,5,ScrollDown,ScrollUp,Orange.png,4,Neutral,Neutral,0,0,0,0,,,,,,,,,,,,,,,,,,,,,,,,,0,33,33,33,,,,,,,,,,,,,,,,,,,,,,,,,,,,,,,,,,,,,,,,,,,,,,,,,,,,,,,,,,,,,,,,,,,,,,,,,1,1.0148987998254597,572.3158898998518,None,ScrollDown,정답입니다,572.3158898998518,None,572.3158898998518,None,572.3158898998518,None,572.3158898998518,None,573.2250284999609,None,573.2250284999609,573.7276974997949,,,,,,,,,,,,,,,,207,2023-03-29_17h55.12.410,FishGame,2022.1.1,59.99599226513765,
,35,넌 근심스러워,4,Green,B,2.708333333333333,3.133333333333333,ScrollUp,ScrollDown,Green.png,4,Negative,Congruent,0,0,0,0,,,,,,,,,,,,,,,,,,,,,,,,,0,34,34,34,,,,,,,,,,,,,,,,,,,,,,,,,,,,,,,,,,,,,,,,,,,,,,,,,,,,,,,,,,,,,,,,,,,,,,,,,1.9459876318772633,1.0118861999362707,574.3529926999472,None,ScrollUp,정답입니다,574.3529926999472,None,574.3529926999472,None,574.3529926999472,None,574.3529926999472,None,575.2595623999368,None,575.2595623999368,575.7746561998501,,,,,,,,,,,,,,,,207,2023-03-29_17h55.12.410,FishGame,2022.1.1,59.99599226513765,
,36,넌 세련되었어,2,Orange,A,5.5,4.6,ScrollDown,ScrollUp,Orange.png,4,Positive,Congruent,0,0,0,0,,,,,,,,,,,,,,,,,,,,,,,,,0,35,35,35,,,,,,,,,,,,,,,,,,,,,,,,,,,,,,,,,,,,,,,,,,,,,,,,,,,,,,,,,,,,,,,,,,,,,,,,,1,1.3649826999753714,576.4040152998641,None,ScrollDown,정답입니다,576.4040152998641,None,576.4040152998641,None,576.4040152998641,None,576.4040152998641,None,577.6581671999302,None,577.6581671999302,578.15797319985,,,,,,,,,,,,,,,,207,2023-03-29_17h55.12.410,FishGame,2022.1.1,59.99599226513765,
,37,나를 보내줘,6,Orange,A,0,0,ScrollUp,ScrollDown,Orange.png,4,NonTarget,NonTarget,0,0,0,0,,,,,,,,,,,,,,,,,,,,,,,,,0,36,36,36,,,,,,,,,,,,,,,,,,,,,,,,,,,,,,,,,,,,,,,,,,,,,,,,,,,,,,,,,,,,,,,,,,,,,,,,,1.8271604826052983,0.9474486999679357,578.785997999832,None,ScrollUp,정답입니다,578.785997999832,None,578.785997999832,None,578.785997999832,None,578.785997999832,None,579.6275657999795,None,579.6275657999795,580.1275394998956,,,,,,,,,,,,,,,,207,2023-03-29_17h55.12.410,FishGame,2022.1.1,59.99599226513765,
,38,넌 확고해,3,Green,B,4.708333333333334,4.566666666666666,ScrollUp,ScrollDown,Green.png,4,Neutral,Neutral,0,0,0,0,,,,,,,,,,,,,,,,,,,,,,,,,0,37,37,37,,,,,,,,,,,,,,,,,,,,,,,,,,,,,,,,,,,,,,,,,,,,,,,,,,,,,,,,,,,,,,,,,,,,,,,,,1.654320982595285,1.0806364000309259,580.7535043999087,None,ScrollUp,정답입니다,580.7535043999087,None,580.7535043999087,None,580.7535043999087,None,580.7535043999087,None,581.7247617999092,None,581.7247617999092,582.2274112999439,,,,,,,,,,,,,,,,207,2023-03-29_17h55.12.410,FishGame,2022.1.1,59.99599226513765,
,39,넌 이해심이 많아,1,Green,B,6.041666666666668,5.533333333333333,ScrollUp,ScrollDown,Green.png,4,Positive,Incongruent,0,0,0,0,,,,,,,,,,,,,,,,,,,,,,,,,0,38,38,38,,,,,,,,,,,,,,,,,,,,,,,,,,,,,,,,,,,,,,,,,,,,,,,,,,,,,,,,,,,,,,,,,,,,,,,,,1.6851851865649223,1.0140758000779897,582.850787699921,None,ScrollUp,정답입니다,582.850787699921,None,582.850787699921,None,582.850787699921,None,582.850787699921,None,583.7580747997854,None,583.7580747997854,584.2607222998049,,,,,,,,,,,,,,,,207,2023-03-29_17h55.12.410,FishGame,2022.1.1,59.99599226513765,
,40,나를 보내줘,6,Orange,A,0,0,ScrollUp,ScrollDown,Orange.png,4,NonTarget,NonTarget,0,0,0,0,,,,,,,,,,,,,,,,,,,,,,,,,0,39,39,39,,,,,,,,,,,,,,,,,,,,,,,,,,,,,,,,,,,,,,,,,,,,,,,,,,,,,,,,,,,,,,,,,,,,,,,,,1.6388888930281005,0.945433699991554,584.8856414000038,None,ScrollUp,정답입니다,584.8856414000038,None,584.8856414000038,None,584.8856414000038,None,584.8856414000038,None,585.7274267999455,None,585.7274267999455,586.227374299895,,,,,,,,,,,,,,,,207,2023-03-29_17h55.12.410,FishGame,2022.1.1,59.99599226513765,
,41,넌 거칠어,4,Orange,A,2.625,3.033333333333333,ScrollDown,ScrollUp,Orange.png,4,Negative,Incongruent,0,0,0,0,,,,,,,,,,,,,,,,,,,,,,,,,0,40,40,40,,,,,,,,,,,,,,,,,,,,,,,,,,,,,,,,,,,,,,,,,,,,,,,,,,,,,,,,,,,,,,,,,,,,,,,,,1,0.8831508001312613,586.854974999791,None,ScrollDown,정답입니다,586.854974999791,None,586.854974999791,None,586.854974999791,None,586.854974999791,None,587.6246908998583,None,587.6246908998583,588.1273230998777,,,,,,,,,,,,,,,,207,2023-03-29_17h55.12.410,FishGame,2022.1.1,59.99599226513765,
,42,넌 변덕맞아,5,Green,B,2.75,2.166666666666667,ScrollUp,ScrollDown,Green.png,4,Negative,Congruent,0,0,0,0,,,,,,,,,,,,,,,,,,,,,,,,,0,41,41,41,,,,,,,,,,,,,,,,,,,,,,,,,,,,,,,,,,,,,,,,,,,,,,,,,,,,,,,,,,,,,,,,,,,,,,,,,1.6080246890584626,1.1637960001826286,588.7549719999079,None,ScrollUp,정답입니다,588.7549719999079,None,588.7549719999079,None,588.7549719999079,None,588.7549719999079,None,589.807683999883,None,589.807683999883,590.3085752998013,,,,,,,,,,,,,,,,207,2023-03-29_17h55.12.410,FishGame,2022.1.1,59.99599226513765,
,43,나를 데려가줘,6,Green,B,0,0,ScrollDown,ScrollUp,Green.png,4,NonTarget,NonTarget,0,0,0,0,,,,,,,,,,,,,,,,,,,,,,,,,0,42,42,42,,,,,,,,,,,,,,,,,,,,,,,,,,,,,,,,,,,,,,,,,,,,,,,,,,,,,,,,,,,,,,,,,,,,,,,,,1.0108024775981903,1.1529946001246572,590.9306593998335,None,ScrollDown,정답입니다,590.9306593998335,None,590.9306593998335,None,590.9306593998335,None,590.9306593998335,None,591.9774063997902,None,591.9774063997902,592.4773194999434,,,,,,,,,,,,,,,,207,2023-03-29_17h55.12.410,FishGame,2022.1.1,59.99599226513765,
,44,넌 외로워,4,Green,B,2.833333333333333,3.3,ScrollUp,ScrollDown,Green.png,4,Negative,Congruent,0,0,0,0,,,,,,,,,,,,,,,,,,,,,,,,,0,43,43,43,,,,,,,,,,,,,,,,,,,,,,,,,,,,,,,,,,,,,,,,,,,,,,,,,,,,,,,,,,,,,,,,,,,,,,,,,1.5216049375012517,0.9319358998909593,593.1090876997914,None,NoResponse,무응답입니다,593.1090876997914,None,593.1090876997914,None,593.1090876997914,None,593.1090876997914,None,593.9275663997978,None,593.9275663997978,594.4272617998067,,,,,,,,,,,,,,,,207,2023-03-29_17h55.12.410,FishGame,2022.1.1,59.99599226513765,
,1,넌 불평스러워,5,Orange,A,2.25,2.066666666666667,ScrollDown,ScrollUp,Orange.png,5,Negative,Incongruent,0,0,0,0,,,,,,,,,,,,,,,,,,,,,,,,,,,,,0,0,0,0,,,,,,,,,,,,,,,,,,,,,,,,,,,,626.4237979999743,627.9237117997836,627.9569543998223,628.9100724000018,628.9600797998719,629.9100493998267,629.9100493998267,None,,,,,,,,,,,,,,,,,,,,,,,,,,,,,,,,,,1.0864197611808777,1.2565895000007004,631.0114609999582,None,ScrollDown,정답입니다,631.0114609999582,None,631.0114609999582,None,631.0114609999582,None,631.0114609999582,None,632.1570781997871,None,632.1570781997871,632.6602711000014,594.9273985999171,None,594.9273985999171,None,0.010185185,-0.11851852,1,0,0,0.016266890102997422,None,624.9265594999306,None,,,207,2023-03-29_17h55.12.410,FishGame,2022.1.1,59.99599226513765,
,2,나를 보내줘,6,Orange,A,0,0,ScrollUp,ScrollDown,Orange.png,5,NonTarget,NonTarget,0,0,0,0,,,,,,,,,,,,,,,,,,,,,,,,,,,,,0,1,1,1,,,,,,,,,,,,,,,,,,,,,,,,,,,,,,,,,,,,,,,,,,,,,,,,,,,,,,,,,,,,,,,,,,,,,1.6975308607021966,0.9287201999686658,633.2844245999586,None,ScrollUp,정답입니다,633.2844245999586,None,633.2844245999586,None,633.2844245999586,None,633.2844245999586,None,634.1096891998313,None,634.1096891998313,634.6102805999108,,,,,,,,,,,,,,,,207,2023-03-29_17h55.12.410,FishGame,2022.1.1,59.99599226513765,
,3,넌 다재다능해,2,Green,B,6.208333333333333,4.5,ScrollUp,ScrollDown,Green.png,5,Positive,Incongruent,0,0,0,0,,,,,,,,,,,,,,,,,,,,,,,,,,,,,0,2,2,2,,,,,,,,,,,,,,,,,,,,,,,,,,,,,,,,,,,,,,,,,,,,,,,,,,,,,,,,,,,,,,,,,,,,,1.7314814925193787,0.8147533000446856,635.2498206999153,None,ScrollUp,정답입니다,635.2498206999153,None,635.2498206999153,None,635.2498206999153,None,635.2498206999153,None,635.9570517998654,None,635.9570517998654,636.4567713998258,,,,,,,,,,,,,,,,207,2023-03-29_17h55.12.410,FishGame,2022.1.1,59.99599226513765,
,4,넌 과감해,3,Orange,A,4.833333333333334,4.6,ScrollDown,ScrollUp,Orange.png,5,Neutral,Neutral,0,0,0,0,,,,,,,,,,,,,,,,,,,,,,,,,,,,,0,3,3,3,,,,,,,,,,,,,,,,,,,,,,,,,,,,,,,,,,,,,,,,,,,,,,,,,,,,,,,,,,,,,,,,,,,,,1,1.0622143999207765,637.0878564999439,None,ScrollDown,정답입니다,637.0878564999439,None,637.0878564999439,None,637.0878564999439,None,637.0878564999439,None,638.0399989997968,None,638.0399989997968,638.5400674999692,,,,,,,,,,,,,,,,207,2023-03-29_17h55.12.410,FishGame,2022.1.1,59.99599226513765,
,5,넌 고분고분해,3,Green,B,3.75,4.033333333333333,ScrollUp,ScrollDown,Green.png,5,Neutral,Neutral,0,0,0,0,,,,,,,,,,,,,,,,,,,,,,,,,,,,,0,4,4,4,,,,,,,,,,,,,,,,,,,,,,,,,,,,,,,,,,,,,,,,,,,,,,,,,,,,,,,,,,,,,,,,,,,,,2,0.9979509999975562,639.1653088999446,None,ScrollUp,정답입니다,639.1653088999446,None,639.1653088999446,None,639.1653088999446,None,639.1653088999446,None,640.056729399832,None,640.056729399832,640.5599833999295,,,,,,,,,,,,,,,,207,2023-03-29_17h55.12.410,FishGame,2022.1.1,59.99599226513765,
,6,나를 보내줘,6,Orange,A,0,0,ScrollUp,ScrollDown,Orange.png,5,NonTarget,NonTarget,0,0,0,0,,,,,,,,,,,,,,,,,,,,,,,,,,,,,0,5,5,5,,,,,,,,,,,,,,,,,,,,,,,,,,,,,,,,,,,,,,,,,,,,,,,,,,,,,,,,,,,,,,,,,,,,,1.6018518519898257,1.129185999976471,641.184273699997,None,ScrollUp,정답입니다,641.184273699997,None,641.184273699997,None,641.184273699997,None,641.184273699997,None,642.2096634998452,None,642.2096634998452,642.7097467998974,,,,,,,,,,,,,,,,207,2023-03-29_17h55.12.410,FishGame,2022.1.1,59.99599226513765,
,7,넌 잘 잊어,4,Orange,A,3,3.7,ScrollDown,ScrollUp,Orange.png,5,Negative,Incongruent,0,0,0,0,,,,,,,,,,,,,,,,,,,,,,,,,,,,,0,6,6,6,,,,,,,,,,,,,,,,,,,,,,,,,,,,,,,,,,,,,,,,,,,,,,,,,,,,,,,,,,,,,,,,,,,,,1.296296296020349,1.0313145001418889,643.3386955999304,None,ScrollDown,정답입니다,643.3386955999304,None,643.3386955999304,None,643.3386955999304,None,643.3386955999304,None,644.2567949998192,None,644.2567949998192,644.7594307998661,,,,,,,,,,,,,,,,207,2023-03-29_17h55.12.410,FishGame,2022.1.1,59.99599226513765,
,8,넌 탐구심이없어,4,Green,B,2.833333333333333,3.066666666666667,ScrollUp,ScrollDown,Green.png,5,Negative,Congruent,0,0,0,0,,,,,,,,,,,,,,,,,,,,,,,,,,,,,0,7,7,7,,,,,,,,,,,,,,,,,,,,,,,,,,,,,,,,,,,,,,,,,,,,,,,,,,,,,,,,,,,,,,,,,,,,,1.652777781089147,0.8456715000793338,645.3849603999406,None,ScrollUp,정답입니다,645.3849603999406,None,645.3849603999406,None,645.3849603999406,None,645.3849603999406,None,646.1234347999562,None,646.1234347999562,646.6261249999516,,,,,,,,,,,,,,,,207,2023-03-29_17h55.12.410,FishGame,2022.1.1,59.99599226513765,
,9,나를 데려가줘,6,Green,B,0,0,ScrollDown,ScrollUp,Green.png,5,NonTarget,NonTarget,0,0,0,0,,,,,,,,,,,,,,,,,,,,,,,,,,,,,0,8,8,8,,,,,,,,,,,,,,,,,,,,,,,,,,,,,,,,,,,,,,,,,,,,,,,,,,,,,,,,,,,,,,,,,,,,,1.2685185074806213,1.116699299775064,647.2493862998672,None,ScrollDown,정답입니다,647.2493862998672,None,647.2493862998672,None,647.2493862998672,None,647.2493862998672,None,648.2595274997875,None,648.2595274997875,648.7594289998524,,,,,,,,,,,,,,,,207,2023-03-29_17h55.12.410,FishGame,2022.1.1,59.99599226513765,
,10,넌 참되어,2,Orange,A,6.041666666666664,4.733333333333333,ScrollDown,ScrollUp,Orange.png,5,Positive,Congruent,0,0,0,0,,,,,,,,,,,,,,,,,,,,,,,,,,,,,0,9,9,9,,,,,,,,,,,,,,,,,,,,,,,,,,,,,,,,,,,,,,,,,,,,,,,,,,,,,,,,,,,,,,,,,,,,,1.28086419403553,1.066940600052476,649.3870805997867,None,ScrollDown,정답입니다,649.3870805997867,None,649.3870805997867,None,649.3870805997867,None,649.3870805997867,None,650.3400985999033,None,650.3400985999033,650.8427385999821,,,,,,,,,,,,,,,,207,2023-03-29_17h55.12.410,FishGame,2022.1.1,59.99599226513765,
,11,넌 생기있어,1,Green,B,5.875,5.633333333333334,ScrollUp,ScrollDown,Green.png,5,Positive,Incongruent,0,0,0,0,,,,,,,,,,,,,,,,,,,,,,,,,,,,,0,10,10,10,,,,,,,,,,,,,,,,,,,,,,,,,,,,,,,,,,,,,,,,,,,,,,,,,,,,,,,,,,,,,,,,,,,,,1.5833333345750966,0.864593000151217,651.4635930999648,None,ScrollUp,정답입니다,651.4635930999648,None,651.4635930999648,None,651.4635930999648,None,651.4635930999648,None,652.22305219993,None,652.22305219993,652.7230364999268,,,,,,,,,,,,,,,,207,2023-03-29_17h55.12.410,FishGame,2022.1.1,59.99599226513765,
,12,넌 비사교적이야,4,Green,B,2.875,2.9,ScrollUp,ScrollDown,Green.png,5,Negative,Congruent,0,0,0,0,,,,,,,,,,,,,,,,,,,,,,,,,,,,,0,11,11,11,,,,,,,,,,,,,,,,,,,,,,,,,,,,,,,,,,,,,,,,,,,,,,,,,,,,,,,,,,,,,,,,,,,,,1.7623456716537476,0.9194876998662949,653.3472310998477,None,ScrollUp,정답입니다,653.3472310998477,None,653.3472310998477,None,653.3472310998477,None,653.3472310998477,None,654.156704199966,None,654.156704199966,654.6593507998623,,,,,,,,,,,,,,,,207,2023-03-29_17h55.12.410,FishGame,2022.1.1,59.99599226513765,
,13,나를 데려가줘,6,Green,B,0,0,ScrollDown,ScrollUp,Green.png,5,NonTarget,NonTarget,0,0,0,0,,,,,,,,,,,,,,,,,,,,,,,,,,,,,0,12,12,12,,,,,,,,,,,,,,,,,,,,,,,,,,,,,,,,,,,,,,,,,,,,,,,,,,,,,,,,,,,,,,,,,,,,,1.1327160547176998,1.0287107001058757,655.2828071999829,None,ScrollDown,정답입니다,655.2828071999829,None,655.2828071999829,None,655.2828071999829,None,655.2828071999829,None,656.209312699968,None,656.209312699968,656.7064662999474,,,,,,,,,,,,,,,,207,2023-03-29_17h55.12.410,FishGame,2022.1.1,59.99599226513765,
,14,넌 고독해,4,Orange,A,2.916666666666667,3.233333333333333,ScrollDown,ScrollUp,Orange.png,5,Negative,Incongruent,0,0,0,0,,,,,,,,,,,,,,,,,,,,,,,,,,,,,0,13,13,13,,,,,,,,,,,,,,,,,,,,,,,,,,,,,,,,,,,,,,,,,,,,,,,,,,,,,,,,,,,,,,,,,,,,,1.0416666567325592,0.9299004999920726,657.3486794999335,None,ScrollDown,정답입니다,657.3486794999335,None,657.3486794999335,None,657.3486794999335,None,657.3486794999335,None,658.1729473997839,None,658.1729473997839,658.6729949999135,,,,,,,,,,,,,,,,207,2023-03-29_17h55.12.410,FishGame,2022.1.1,59.99599226513765,
,15,넌 신경질적이야,5,Green,B,2.375,2.233333333333333,ScrollUp,ScrollDown,Green.png,5,Negative,Congruent,0,0,0,0,,,,,,,,,,,,,,,,,,,,,,,,,,,,,0,14,14,14,,,,,,,,,,,,,,,,,,,,,,,,,,,,,,,,,,,,,,,,,,,,,,,,,,,,,,,,,,,,,,,,,,,,,1.5617283955216408,0.9793461000081152,659.3128988998942,None,ScrollUp,정답입니다,659.3128988998942,None,659.3128988998942,None,659.3128988998942,None,659.3128988998942,None,660.1732337998692,None,660.1732337998692,660.6759293999057,,,,,,,,,,,,,,,,207,2023-03-29_17h55.12.410,FishGame,2022.1.1,59.99599226513765,
,16,넌 똑똑해,2,Green,B,5.666666666666667,3.966666666666667,ScrollUp,ScrollDown,Green.png,5,Positive,Incongruent,0,0,0,0,,,,,,,,,,,,,,,,,,,,,,,,,,,,,0,15,15,15,,,,,,,,,,,,,,,,,,,,,,,,,,,,,,,,,,,,,,,,,,,,,,,,,,,,,,,,,,,,,,,,,,,,,1.939814825852712,1.0133843999356031,661.3013962998521,None,ScrollUp,정답입니다,661.3013962998521,None,661.3013962998521,None,661.3013962998521,None,661.3013962998521,None,662.2065108998213,None,662.2065108998213,662.7092147998046,,,,,,,,,,,,,,,,207,2023-03-29_17h55.12.410,FishGame,2022.1.1,59.99599226513765,
,17,나를 보내줘,6,Orange,A,0,0,ScrollUp,ScrollDown,Orange.png,5,NonTarget,NonTarget,0,0,0,0,,,,,,,,,,,,,,,,,,,,,,,,,,,,,0,16,16,16,,,,,,,,,,,,,,,,,,,,,,,,,,,,,,,,,,,,,,,,,,,,,,,,,,,,,,,,,,,,,,,,,,,,,1.532407408580184,0.9956078000832349,663.3325877999887,None,NoResponse,무응답입니다,663.3325877999887,None,663.3325877999887,None,663.3325877999887,None,663.3325877999887,None,664.2228139999788,None,664.2228139999788,664.7229885999113,,,,,,,,,,,,,,,,207,2023-03-29_17h55.12.410,FishGame,2022.1.1,59.99599226513765,
,18,넌 협조적이야,1,Orange,A,5.625,5.666666666666667,ScrollDown,ScrollUp,Orange.png,5,Positive,Congruent,0,0,0,0,,,,,,,,,,,,,,,,,,,,,,,,,,,,,0,17,17,17,,,,,,,,,,,,,,,,,,,,,,,,,,,,,,,,,,,,,,,,,,,,,,,,,,,,,,,,,,,,,,,,,,,,,1,1.450878500007093,665.3481852000114,None,ScrollDown,정답입니다,665.3481852000114,None,665.3481852000114,None,665.3481852000114,None,665.3481852000114,None,666.6897870998364,None,666.6897870998364,667.1923945997842,,,,,,,,,,,,,,,,207,2023-03-29_17h55.12.410,FishGame,2022.1.1,59.99599226513765,
,19,나를 데려가줘,6,Green,B,0,0,ScrollDown,ScrollUp,Green.png,5,NonTarget,NonTarget,0,0,0,0,,,,,,,,,,,,,,,,,,,,,,,,,,,,,0,18,18,18,,,,,,,,,,,,,,,,,,,,,,,,,,,,,,,,,,,,,,,,,,,,,,,,,,,,,,,,,,,,,,,,,,,,,1,1.1954391000326723,667.8161650998518,None,ScrollDown,정답입니다,667.8161650998518,None,667.8161650998518,None,667.8161650998518,None,667.8161650998518,None,668.9014401999302,None,668.9014401999302,669.4060326998588,,,,,,,,,,,,,,,,207,2023-03-29_17h55.12.410,FishGame,2022.1.1,59.99599226513765,
,20,넌 몰인정해,5,Green,B,2.541666666666667,2.066666666666667,ScrollUp,ScrollDown,Green.png,5,Negative,Congruent,0,0,0,0,,,,,,,,,,,,,,,,,,,,,,,,,,,,,0,19,19,19,,,,,,,,,,,,,,,,,,,,,,,,,,,,,,,,,,,,,,,,,,,,,,,,,,,,,,,,,,,,,,,,,,,,,2,1.0812902001198381,670.0352853999939,None,ScrollUp,정답입니다,670.0352853999939,None,670.0352853999939,None,670.0352853999939,None,670.0352853999939,None,671.0063916000072,None,671.0063916000072,671.509053699905,,,,,,,,,,,,,,,,207,2023-03-29_17h55.12.410,FishGame,2022.1.1,59.99599226513765,
,21,나를 데려가줘,6,Green,B,0,0,ScrollDown,ScrollUp,Green.png,5,NonTarget,NonTarget,0,0,0,0,,,,,,,,,,,,,,,,,,,,,,,,,,,,,0,20,20,20,,,,,,,,,,,,,,,,,,,,,,,,,,,,,,,,,,,,,,,,,,,,,,,,,,,,,,,,,,,,,,,,,,,,,1,1.1671563999261707,672.1319681999739,None,ScrollDown,정답입니다,672.1319681999739,None,672.1319681999739,None,672.1319681999739,None,672.1319681999739,None,673.1896200999618,None,673.1896200999618,673.6923027997836,,,,,,,,,,,,,,,,207,2023-03-29_17h55.12.410,FishGame,2022.1.1,59.99599226513765,
,22,넌 순진해,3,Green,B,4.125,4.166666666666667,ScrollUp,ScrollDown,Green.png,5,Neutral,Neutral,0,0,0,0,,,,,,,,,,,,,,,,,,,,,,,,,,,,,0,21,21,21,,,,,,,,,,,,,,,,,,,,,,,,,,,,,,,,,,,,,,,,,,,,,,,,,,,,,,,,,,,,,,,,,,,,,1.9151234527428944,1.0138277001678944,674.3252376997843,None,ScrollUp,정답입니다,674.3252376997843,None,674.3252376997843,None,674.3252376997843,None,674.3252376997843,None,675.2225772999227,None,675.2225772999227,675.7225819998421,,,,,,,,,,,,,,,,207,2023-03-29_17h55.12.410,FishGame,2022.1.1,59.99599226513765,
,23,넌 신뢰할만해,1,Orange,A,6.625,5.533333333333333,ScrollDown,ScrollUp,Orange.png,5,Positive,Congruent,0,0,0,0,,,,,,,,,,,,,,,,,,,,,,,,,,,,,0,22,22,22,,,,,,,,,,,,,,,,,,,,,,,,,,,,,,,,,,,,,,,,,,,,,,,,,,,,,,,,,,,,,,,,,,,,,1,1.0478616999462247,676.3593540999573,None,ScrollDown,정답입니다,676.3593540999573,None,676.3593540999573,None,676.3593540999573,None,676.3593540999573,None,677.2892422999721,None,677.2892422999721,677.7892539999448,,,,,,,,,,,,,,,,207,2023-03-29_17h55.12.410,FishGame,2022.1.1,59.99599226513765,
,24,나를 보내줘,6,Orange,A,0,0,ScrollUp,ScrollDown,Orange.png,5,NonTarget,NonTarget,0,0,0,0,,,,,,,,,,,,,,,,,,,,,,,,,,,,,0,23,23,23,,,,,,,,,,,,,,,,,,,,,,,,,,,,,,,,,,,,,,,,,,,,,,,,,,,,,,,,,,,,,,,,,,,,,2,1.0802507000043988,678.4166243998334,None,ScrollUp,정답입니다,678.4166243998334,None,678.4166243998334,None,678.4166243998334,None,678.4166243998334,None,679.3922369999345,None,679.3922369999345,679.8921780998353,,,,,,,,,,,,,,,,207,2023-03-29_17h55.12.410,FishGame,2022.1.1,59.99599226513765,
