name,TrialNum,Word,WordCategory,FishType,WordList,WordValence,WordReputation,CorrectResp,IncorrectResp,FishTypeFile,Round,WordType,Condition,LoopforOrange.thisRepN,LoopforOrange.thisTrialN,LoopforOrange.thisN,LoopforOrange.thisIndex,LoopForGreen.thisRepN,LoopForGreen.thisTrialN,LoopForGreen.thisN,LoopForGreen.thisIndex,GreenInstLoop.thisRepN,GreenInstLoop.thisTrialN,GreenInstLoop.thisN,GreenInstLoop.thisIndex,GreenPrac.thisRepN,GreenPrac.thisTrialN,GreenPrac.thisN,GreenPrac.thisIndex,trials_2.thisRepN,trials_2.thisTrialN,trials_2.thisN,trials_2.thisIndex,GreenRound1.thisRepN,GreenRound1.thisTrialN,GreenRound1.thisN,GreenRound1.thisIndex,GreenRound2.thisRepN,GreenRound2.thisTrialN,GreenRound2.thisN,GreenRound2.thisIndex,GreenRound3.thisRepN,GreenRound3.thisTrialN,GreenRound3.thisN,GreenRound3.thisIndex,GreenRound4.thisRepN,GreenRound4.thisTrialN,GreenRound4.thisN,GreenRound4.thisIndex,GreenRound5.thisRepN,GreenRound5.thisTrialN,GreenRound5.thisN,GreenRound5.thisIndex,text_2.started,text_2.stopped,text_3.started,text_3.stopped,key_resp.keys,key_resp.rt,key_resp.started,key_resp.stopped,PassI.started,PassI.stopped,PassInst.keys,PassInst.rt,PassInst.started,PassInst.stopped,mouse_2.x,mouse_2.y,mouse_2.leftButton,mouse_2.midButton,mouse_2.rightButton,mouse_2.started,mouse_2.stopped,image.started,image.stopped,text_5.started,text_5.stopped,text_6.started,text_6.stopped,text_7.started,text_7.stopped,text_8.started,text_8.stopped,slider_3.response,slider_3.rt,slider_3.started,slider_3.stopped,Response_3,Feedback_3,BackGround_3.started,BackGround_3.stopped,Fish_3.started,Fish_3.stopped,WordBox_3.started,WordBox_3.stopped,Words_3.started,Words_3.stopped,BackGround_Feedback_3.started,BackGround_Feedback_3.stopped,Feedbacks_3.started,Feedbacks_3.stopped,Continue_or_not_2.keys,Continue_or_not_2.rt,Continue_or_not_2.started,Continue_or_not_2.stopped,image_4.started,image_4.stopped,mouse_3.x,mouse_3.y,mouse_3.leftButton,mouse_3.midButton,mouse_3.rightButton,mouse_3.started,mouse_3.stopped,startmain.started,startmain.stopped,slider_4.response,slider_4.rt,slider_4.started,slider_4.stopped,Response_4,Feedback_4,BackGround_4.started,BackGround_4.stopped,Fish_4.started,Fish_4.stopped,WordBox_4.started,WordBox_4.stopped,Words_4.started,Words_4.stopped,BackGround_Feedback_4.started,BackGround_Feedback_4.stopped,Feedbacks_4.started,Feedbacks_4.stopped,text.started,text.stopped,break_interval.started,break_interval.stopped,mouse.x,mouse.y,mouse.leftButton,mouse.midButton,mouse.rightButton,mouse.started,mouse.stopped,stratnextround.started,stratnextround.stopped,endgame.started,endgame.stopped,participant,date,expName,psychopyVersion,frameRate,
,,,,,,,,,,,,,,,,,,,,,,,,,,,,,,,,,,,,,,,,,,,,,,,,,,,,,,154.90326389999245,None,154.90326389999245,None,space,1.8738170000142418,155.40233929999522,None,,,,,,,,,,,,,,,,,,,,,,,,,,,,,,,,,,,,,,,,,,,,,,,,,,,,,,,,,,,,,,,,,,,,,,,,,,,,,,,,,,,,,,,,,,208,2023-03-31_13h57.06.315,FishGame,2022.1.1,60.061971939066574,
물고기과제_instruction(참가자용)GreenVersion.mp4,,,,,,,,,,,,,,,,,,0,0,0,0,0,0,0,0,,,,,,,,,,,,,,,,,,,,,,,,,,,,,,,,,,,,,228.98093609997886,None,n,1.573609499988379,228.98093609997886,None,,,,,,,,,,,,,,,,,,,,,,,,,,,,,,,,,,,,,,,,,,,,,,,,,,,,,,,,,,,,,,,,,,,,,,,,,,,,,,,,,,,,208,2023-03-31_13h57.06.315,FishGame,2022.1.1,60.061971939066574,
,1,넌 교활해,5,Orange,B,2.333333333333333,2.133333333333333,ScrollUp,ScrollDown,Orange.png,practice,,,,,,,0,0,0,0,,,,,0,0,0,0,0,0,0,0,,,,,,,,,,,,,,,,,,,,,,,,,,,,,,,,,,,0.050925925,-0.21851853,1,0,0,0.5139929200231563,None,230.58054709999124,None,234.5804454999743,236.0807344999921,236.11396469999454,237.06401749997167,237.11401769999065,238.0640370999754,238.0640370999754,None,1.9120370248953502,2.343328899994958,239.35278329998255,None,ScrollUp,정답입니다,239.35278329998255,None,239.35278329998255,None,239.35278329998255,None,239.35278329998255,None,241.39737769999192,None,241.39737769999192,241.9003194999823,,,,,,,,,,,,,,,,,,,,,,,,,,,,,,,,,,,,,,,,,,,,,,,,,208,2023-03-31_13h57.06.315,FishGame,2022.1.1,60.061971939066574,
,2,넌 슬기로워,2,Green,A,6.166666666666667,4.1,ScrollDown,ScrollUp,Green.png,practice,,,,,,,0,0,0,0,,,,,0,0,0,0,0,1,1,1,,,,,,,,,,,,,,,,,,,,,,,,,,,,,,,,,,,,,,,,,,,,,,,,,,,,1,1.0313838000001851,242.52996649997658,None,ScrollDown,정답입니다,242.52996649997658,None,242.52996649997658,None,242.52996649997658,None,242.52996649997658,None,243.46162719998392,None,243.46162719998392,243.96363409998594,,,,,,,,,,,,,,,,,,,,,,,,,,,,,,,,,,,,,,,,,,,,,,,,,208,2023-03-31_13h57.06.315,FishGame,2022.1.1,60.061971939066574,
,3,나를 보내줘,6,Green,A,0,0,ScrollUp,ScrollDown,Green.png,practice,,,,,,,0,0,0,0,,,,,0,0,0,0,0,2,2,2,,,,,,,,,,,,,,,,,,,,,,,,,,,,,,,,,,,,,,,,,,,,,,,,,,,,1,1.0484436999831814,244.5819768999936,None,ScrollDown,오답입니다,244.5819768999936,None,244.5819768999936,None,244.5819768999936,None,244.5819768999936,None,245.52838969998993,None,245.52838969998993,246.03034699999262,,,,,,,,,,,,,,,,,,,,,,,,,,,,,,,,,,,,,,,,,,,,,,,,,208,2023-03-31_13h57.06.315,FishGame,2022.1.1,60.061971939066574,
,4,나를 데려가줘,6,Orange,B,0,0,ScrollDown,ScrollUp,Orange.png,practice,,,,,,,0,0,0,0,,,,,0,0,0,0,0,3,3,3,,,,,,,,,,,,,,,,,,,,,,,,,,,,,,,,,,,,,,,,,,,,,,,,,,,,1,1.3124775000032969,246.64900689999922,None,ScrollDown,정답입니다,246.64900689999922,None,246.64900689999922,None,246.64900689999922,None,246.64900689999922,None,247.86361439997563,None,247.86361439997563,248.37821799999801,,,,,,,,,,,,,,,,,,,,,,,,,,,,,,,,,,,,,,,,,,,,,,,,,208,2023-03-31_13h57.06.315,FishGame,2022.1.1,60.061971939066574,
,1,넌 교활해,5,Orange,B,2.333333333333333,2.133333333333333,ScrollUp,ScrollDown,Orange.png,practice,,,,,,,0,0,0,0,,,,,0,0,0,0,,,,,,,,,,,,,,,,,,,,,,,,,,,,,,,,,,,,,,,,,,,,,,,,,,,,,,,,,,,,,,,,,,,,,,,,,,n,6.806734499987215,248.86358719997224,None,248.86358719997224,None,,,,,,,,,,,,,,,,,,,,,,,,,,,,,,,,,,,,,,,,,,,208,2023-03-31_13h57.06.315,FishGame,2022.1.1,60.061971939066574,
,1,넌 따뜻해,1,Orange,B,6.083333333333333,5.6,ScrollUp,ScrollDown,Orange.png,1,Positive,Incongruent,,,,,0,0,0,0,,,,,,,,,,,,,0,0,0,0,,,,,,,,,,,,,,,,,,,,,,,,,,,,,,,,,,,,,,,,258.44690999999875,259.9468810999824,259.98019379997277,260.9341365999717,260.98336689997814,261.9475776999898,261.930166199978,None,,,,,,,,,,,,,,,,,,,,,,,,,0.0055555557,-0.11574074,1,0,0,0.3149493199889548,None,255.6966399999801,None,1.7731481442848842,1.6211485000094399,263.230170899973,None,ScrollUp,정답입니다,263.230170899973,None,263.230170899973,None,263.230170899973,None,263.230170899973,None,264.54426739999326,None,264.54426739999326,265.04426249998505,,,,,,,,,,,,,,,,208,2023-03-31_13h57.06.315,FishGame,2022.1.1,60.061971939066574,
,2,넌 기품있어,2,Orange,B,5.791666666666668,4.5,ScrollUp,ScrollDown,Orange.png,1,Positive,Incongruent,,,,,0,0,0,0,,,,,,,,,,,,,0,1,1,1,,,,,,,,,,,,,,,,,,,,,,,,,,,,,,,,,,,,,,,,,,,,,,,,,,,,,,,,,,,,,,,,,,,,,,,,,,,,,,,,,1.9351851840813954,0.9978988000075333,265.6717073999753,None,ScrollUp,정답입니다,265.6717073999753,None,265.6717073999753,None,265.6717073999753,None,265.6717073999753,None,266.5635694999946,None,266.5635694999946,267.06328849997954,,,,,,,,,,,,,,,,208,2023-03-31_13h57.06.315,FishGame,2022.1.1,60.061971939066574,
,3,나를 보내줘,6,Green,A,0,0,ScrollUp,ScrollDown,Green.png,1,NonTarget,NonTarget,,,,,0,0,0,0,,,,,,,,,,,,,0,2,2,2,,,,,,,,,,,,,,,,,,,,,,,,,,,,,,,,,,,,,,,,,,,,,,,,,,,,,,,,,,,,,,,,,,,,,,,,,,,,,,,,,1.6944444452722869,1.0959764000144787,267.68702689997735,None,ScrollUp,정답입니다,267.68702689997735,None,267.68702689997735,None,267.68702689997735,None,267.68702689997735,None,268.67990309998277,None,268.67990309998277,269.1803671999951,,,,,,,,,,,,,,,,208,2023-03-31_13h57.06.315,FishGame,2022.1.1,60.061971939066574,
,4,넌 수동적이야,4,Green,A,2.833333333333333,2.933333333333333,ScrollDown,ScrollUp,Green.png,1,Negative,Incongruent,,,,,0,0,0,0,,,,,,,,,,,,,0,3,3,3,,,,,,,,,,,,,,,,,,,,,,,,,,,,,,,,,,,,,,,,,,,,,,,,,,,,,,,,,,,,,,,,,,,,,,,,,,,,,,,,,1.2993827114502587,0.8750092000118457,269.8037215999793,None,ScrollDown,정답입니다,269.8037215999793,None,269.8037215999793,None,269.8037215999793,None,269.8037215999793,None,270.57316839997657,None,270.57316839997657,271.07831579999765,,,,,,,,,,,,,,,,208,2023-03-31_13h57.06.315,FishGame,2022.1.1,60.061971939066574,
,5,넌 사심이 없어,3,Orange,B,4.916666666666666,4.333333333333333,ScrollUp,ScrollDown,Orange.png,1,Neutral,Neutral,,,,,0,0,0,0,,,,,,,,,,,,,0,4,4,4,,,,,,,,,,,,,,,,,,,,,,,,,,,,,,,,,,,,,,,,,,,,,,,,,,,,,,,,,,,,,,,,,,,,,,,,,,,,,,,,,1.7577160547176998,0.9295814000070095,271.7005857999902,None,ScrollUp,정답입니다,271.7005857999902,None,271.7005857999902,None,271.7005857999902,None,271.7005857999902,None,272.52749239999685,None,272.52749239999685,273.02745359999244,,,,,,,,,,,,,,,,208,2023-03-31_13h57.06.315,FishGame,2022.1.1,60.061971939066574,
,6,넌 헤퍼,5,Green,A,2.458333333333334,2.233333333333333,ScrollDown,ScrollUp,Green.png,1,Negative,Incongruent,,,,,0,0,0,0,,,,,,,,,,,,,0,5,5,5,,,,,,,,,,,,,,,,,,,,,,,,,,,,,,,,,,,,,,,,,,,,,,,,,,,,,,,,,,,,,,,,,,,,,,,,,,,,,,,,,1.0987654229005177,0.9625150999927428,273.64937219998683,None,ScrollDown,정답입니다,273.64937219998683,None,273.64937219998683,None,273.64937219998683,None,273.64937219998683,None,274.5133486999839,None,274.5133486999839,275.0131375999772,,,,,,,,,,,,,,,,208,2023-03-31_13h57.06.315,FishGame,2022.1.1,60.061971939066574,
,7,넌 말쑥해,3,Green,A,4.833333333333334,4.333333333333333,ScrollDown,ScrollUp,Green.png,1,Neutral,Neutral,,,,,0,0,0,0,,,,,,,,,,,,,0,6,6,6,,,,,,,,,,,,,,,,,,,,,,,,,,,,,,,,,,,,,,,,,,,,,,,,,,,,,,,,,,,,,,,,,,,,,,,,,,,,,,,,,1,1.4291556999960449,275.63372829998843,None,ScrollDown,정답입니다,275.63372829998843,None,275.63372829998843,None,275.63372829998843,None,275.63372829998843,None,276.9630370999803,None,276.9630370999803,277.4629774999921,,,,,,,,,,,,,,,,208,2023-03-31_13h57.06.315,FishGame,2022.1.1,60.061971939066574,
,8,넌 투덜거려,5,Orange,B,2.541666666666667,2.266666666666667,ScrollUp,ScrollDown,Orange.png,1,Negative,Congruent,,,,,0,0,0,0,,,,,,,,,,,,,0,7,7,7,,,,,,,,,,,,,,,,,,,,,,,,,,,,,,,,,,,,,,,,,,,,,,,,,,,,,,,,,,,,,,,,,,,,,,,,,,,,,,,,,1.5879629639287791,0.8929920000082348,278.0952736999898,None,ScrollUp,정답입니다,278.0952736999898,None,278.0952736999898,None,278.0952736999898,None,278.0952736999898,None,278.877294099977,None,278.877294099977,279.3772690999904,,,,,,,,,,,,,,,,208,2023-03-31_13h57.06.315,FishGame,2022.1.1,60.061971939066574,
,9,넌 적극적이야,1,Green,A,5.708333333333333,5.533333333333333,ScrollDown,ScrollUp,Green.png,1,Positive,Congruent,,,,,0,0,0,0,,,,,,,,,,,,,0,8,8,8,,,,,,,,,,,,,,,,,,,,,,,,,,,,,,,,,,,,,,,,,,,,,,,,,,,,,,,,,,,,,,,,,,,,,,,,,,,,,,,,,1.1774691343307495,1.0818900000012945,279.9937990999897,None,ScrollDown,정답입니다,279.9937990999897,None,279.9937990999897,None,279.9937990999897,None,279.9937990999897,None,280.97969859998557,None,280.97969859998557,281.47968339998624,,,,,,,,,,,,,,,,208,2023-03-31_13h57.06.315,FishGame,2022.1.1,60.061971939066574,
,10,넌 재미없어,4,Orange,B,2.625,2.966666666666667,ScrollUp,ScrollDown,Orange.png,1,Negative,Congruent,,,,,0,0,0,0,,,,,,,,,,,,,0,9,9,9,,,,,,,,,,,,,,,,,,,,,,,,,,,,,,,,,,,,,,,,,,,,,,,,,,,,,,,,,,,,,,,,,,,,,,,,,,,,,,,,,1.4953703702582668,0.7961691999807954,282.10280839999905,None,NoResponse,무응답입니다,282.10280839999905,None,282.10280839999905,None,282.10280839999905,None,282.10280839999905,None,282.79633099999046,None,282.79633099999046,283.2994955999893,,,,,,,,,,,,,,,,208,2023-03-31_13h57.06.315,FishGame,2022.1.1,60.061971939066574,
,11,넌 명석해,2,Green,A,5.875,4.033333333333333,ScrollDown,ScrollUp,Green.png,1,Positive,Congruent,,,,,0,0,0,0,,,,,,,,,,,,,0,10,10,10,,,,,,,,,,,,,,,,,,,,,,,,,,,,,,,,,,,,,,,,,,,,,,,,,,,,,,,,,,,,,,,,,,,,,,,,,,,,,,,,,1.2052469104528427,0.9292971999966539,283.91673420000006,None,ScrollDown,정답입니다,283.91673420000006,None,283.91673420000006,None,283.91673420000006,None,283.91673420000006,None,284.74633579998044,None,284.74633579998044,285.24680819999776,,,,,,,,,,,,,,,,208,2023-03-31_13h57.06.315,FishGame,2022.1.1,60.061971939066574,
,12,나를 데려가줘,6,Orange,B,0,0,ScrollDown,ScrollUp,Orange.png,1,NonTarget,NonTarget,,,,,0,0,0,0,,,,,,,,,,,,,0,11,11,11,,,,,,,,,,,,,,,,,,,,,,,,,,,,,,,,,,,,,,,,,,,,,,,,,,,,,,,,,,,,,,,,,,,,,,,,,,,,,,,,,1.8657407313585281,0.7632947000092827,285.8736724999908,None,ScrollUp,오답입니다,285.8736724999908,None,285.8736724999908,None,285.8736724999908,None,285.8736724999908,None,286.5277005999815,None,286.5277005999815,287.0294699999795,,,,,,,,,,,,,,,,208,2023-03-31_13h57.06.315,FishGame,2022.1.1,60.061971939066574,
,13,넌 소심해,4,Green,A,3,3.1,ScrollDown,ScrollUp,Green.png,1,Negative,Incongruent,,,,,0,0,0,0,,,,,,,,,,,,,0,12,12,12,,,,,,,,,,,,,,,,,,,,,,,,,,,,,,,,,,,,,,,,,,,,,,,,,,,,,,,,,,,,,,,,,,,,,,,,,,,,,,,,,1.2885802388191223,0.9797448999888729,287.64746379997814,None,ScrollDown,정답입니다,287.64746379997814,None,287.64746379997814,None,287.64746379997814,None,287.64746379997814,None,288.52737129997695,None,288.52737129997695,289.02936399998725,,,,,,,,,,,,,,,,208,2023-03-31_13h57.06.315,FishGame,2022.1.1,60.061971939066574,
,14,넌 합리적이야,2,Green,A,5.583333333333333,4.733333333333333,ScrollDown,ScrollUp,Green.png,1,Positive,Congruent,,,,,0,0,0,0,,,,,,,,,,,,,0,13,13,13,,,,,,,,,,,,,,,,,,,,,,,,,,,,,,,,,,,,,,,,,,,,,,,,,,,,,,,,,,,,,,,,,,,,,,,,,,,,,,,,,1.3024691392978034,0.8961713999742642,289.6489181999932,None,ScrollDown,정답입니다,289.6489181999932,None,289.6489181999932,None,289.6489181999932,None,289.6489181999932,None,290.4460528999916,None,290.4460528999916,290.946036999987,,,,,,,,,,,,,,,,208,2023-03-31_13h57.06.315,FishGame,2022.1.1,60.061971939066574,
,15,넌 무자비해,5,Orange,B,2.333333333333333,2.1,ScrollUp,ScrollDown,Orange.png,1,Negative,Congruent,,,,,0,0,0,0,,,,,,,,,,,,,0,14,14,14,,,,,,,,,,,,,,,,,,,,,,,,,,,,,,,,,,,,,,,,,,,,,,,,,,,,,,,,,,,,,,,,,,,,,,,,,,,,,,,,,1.766975313425064,0.9268521000049077,291.57327999998233,None,ScrollUp,정답입니다,291.57327999998233,None,291.57327999998233,None,291.57327999998233,None,291.57327999998233,None,292.38920809997944,None,292.38920809997944,292.8944052999723,,,,,,,,,,,,,,,,208,2023-03-31_13h57.06.315,FishGame,2022.1.1,60.061971939066574,
,16,나를 보내줘,6,Green,A,0,0,ScrollUp,ScrollDown,Green.png,1,NonTarget,NonTarget,,,,,0,0,0,0,,,,,,,,,,,,,0,15,15,15,,,,,,,,,,,,,,,,,,,,,,,,,,,,,,,,,,,,,,,,,,,,,,,,,,,,,,,,,,,,,,,,,,,,,,,,,,,,,,,,,1.6697530845801034,0.9836686000053305,293.50810969999293,None,ScrollUp,정답입니다,293.50810969999293,None,293.50810969999293,None,293.50810969999293,None,293.50810969999293,None,294.39367159997346,None,294.39367159997346,294.8967552999966,,,,,,,,,,,,,,,,208,2023-03-31_13h57.06.315,FishGame,2022.1.1,60.061971939066574,
,17,넌 현실적이야,3,Orange,B,4.608695652173913,4.766666666666667,ScrollUp,ScrollDown,Orange.png,1,Neutral,Neutral,,,,,0,0,0,0,,,,,,,,,,,,,0,16,16,16,,,,,,,,,,,,,,,,,,,,,,,,,,,,,,,,,,,,,,,,,,,,,,,,,,,,,,,,,,,,,,,,,,,,,,,,,,,,,,,,,1.6481481517354646,1.0158966000017244,295.51877869997406,None,ScrollUp,정답입니다,295.51877869997406,None,295.51877869997406,None,295.51877869997406,None,295.51877869997406,None,296.4293435999716,None,296.4293435999716,296.9294365999813,,,,,,,,,,,,,,,,208,2023-03-31_13h57.06.315,FishGame,2022.1.1,60.061971939066574,
,18,넌 의리있어,1,Orange,B,5.833333333333334,5.633333333333334,ScrollUp,ScrollDown,Orange.png,1,Positive,Incongruent,,,,,0,0,0,0,,,,,,,,,,,,,0,17,17,17,,,,,,,,,,,,,,,,,,,,,,,,,,,,,,,,,,,,,,,,,,,,,,,,,,,,,,,,,,,,,,,,,,,,,,,,,,,,,,,,,1.787037044763565,0.9463028000027407,297.550245099992,None,ScrollUp,정답입니다,297.550245099992,None,297.550245099992,None,297.550245099992,None,297.550245099992,None,298.39583669998683,None,298.39583669998683,298.8958406999882,,,,,,,,,,,,,,,,208,2023-03-31_13h57.06.315,FishGame,2022.1.1,60.061971939066574,
,19,넌 신경과민이야,5,Green,A,2.541666666666667,2.166666666666667,ScrollDown,ScrollUp,Green.png,1,Negative,Incongruent,,,,,0,0,0,0,,,,,,,,,,,,,0,18,18,18,,,,,,,,,,,,,,,,,,,,,,,,,,,,,,,,,,,,,,,,,,,,,,,,,,,,,,,,,,,,,,,,,,,,,,,,,,,,,,,,,1.1790123482545216,0.942650400014827,299.5216190999781,None,ScrollDown,정답입니다,299.5216190999781,None,299.5216190999781,None,299.5216190999781,None,299.5216190999781,None,300.362522099982,None,300.362522099982,300.8625117999909,,,,,,,,,,,,,,,,208,2023-03-31_13h57.06.315,FishGame,2022.1.1,60.061971939066574,
,20,넌 편안해,1,Green,A,5.916666666666666,5.866666666666666,ScrollDown,ScrollUp,Green.png,1,Positive,Congruent,,,,,0,0,0,0,,,,,,,,,,,,,0,19,19,19,,,,,,,,,,,,,,,,,,,,,,,,,,,,,,,,,,,,,,,,,,,,,,,,,,,,,,,,,,,,,,,,,,,,,,,,,,,,,,,,,1,0.9429295999871101,301.4894770999963,None,ScrollDown,정답입니다,301.4894770999963,None,301.4894770999963,None,301.4894770999963,None,301.4894770999963,None,302.3268013999914,None,302.3268013999914,302.82683639999595,,,,,,,,,,,,,,,,208,2023-03-31_13h57.06.315,FishGame,2022.1.1,60.061971939066574,
,21,넌 품위있어,2,Orange,B,5.291666666666666,4.466666666666667,ScrollUp,ScrollDown,Orange.png,1,Positive,Incongruent,,,,,0,0,0,0,,,,,,,,,,,,,0,20,20,20,,,,,,,,,,,,,,,,,,,,,,,,,,,,,,,,,,,,,,,,,,,,,,,,,,,,,,,,,,,,,,,,,,,,,,,,,,,,,,,,,1.7947530895471573,0.8488178999978118,303.4454960000003,None,ScrollUp,정답입니다,303.4454960000003,None,303.4454960000003,None,303.4454960000003,None,303.4454960000003,None,304.1936757999938,None,304.1936757999938,304.69589629999246,,,,,,,,,,,,,,,,208,2023-03-31_13h57.06.315,FishGame,2022.1.1,60.061971939066574,
,22,넌 빈틈없어,3,Green,A,4.833333333333333,3.966666666666667,ScrollDown,ScrollUp,Green.png,1,Neutral,Neutral,,,,,0,0,0,0,,,,,,,,,,,,,0,21,21,21,,,,,,,,,,,,,,,,,,,,,,,,,,,,,,,,,,,,,,,,,,,,,,,,,,,,,,,,,,,,,,,,,,,,,,,,,,,,,,,,,1.2932098805904388,1.0481656000192743,305.3161417999945,None,ScrollDown,정답입니다,305.3161417999945,None,305.3161417999945,None,305.3161417999945,None,305.3161417999945,None,306.26251760000014,None,306.26251760000014,306.76597129998845,,,,,,,,,,,,,,,,208,2023-03-31_13h57.06.315,FishGame,2022.1.1,60.061971939066574,
,23,넌 상상력없어,4,Orange,B,2.833333333333333,3.133333333333333,ScrollUp,ScrollDown,Orange.png,1,Negative,Congruent,,,,,0,0,0,0,,,,,,,,,,,,,0,22,22,22,,,,,,,,,,,,,,,,,,,,,,,,,,,,,,,,,,,,,,,,,,,,,,,,,,,,,,,,,,,,,,,,,,,,,,,,,,,,,,,,,1.6234567910432816,0.8145613999804482,307.3845088999951,None,ScrollUp,정답입니다,307.3845088999951,None,307.3845088999951,None,307.3845088999951,None,307.3845088999951,None,308.0956420999719,None,308.0956420999719,308.5956402999873,,,,,,,,,,,,,,,,208,2023-03-31_13h57.06.315,FishGame,2022.1.1,60.061971939066574,
,24,넌 지혜로워,2,Orange,B,6.333333333333334,4.633333333333334,ScrollUp,ScrollDown,Orange.png,1,Positive,Incongruent,,,,,0,0,0,0,,,,,,,,,,,,,0,23,23,23,,,,,,,,,,,,,,,,,,,,,,,,,,,,,,,,,,,,,,,,,,,,,,,,,,,,,,,,,,,,,,,,,,,,,,,,,,,,,,,,,1.6867284004886947,0.9148249000136275,309.22411479998846,None,ScrollUp,정답입니다,309.22411479998846,None,309.22411479998846,None,309.22411479998846,None,309.22411479998846,None,310.0289961999806,None,310.0289961999806,310.5289503999811,,,,,,,,,,,,,,,,208,2023-03-31_13h57.06.315,FishGame,2022.1.1,60.061971939066574,
,25,넌 시끄러워,4,Green,A,2.833333333333333,3.033333333333333,ScrollDown,ScrollUp,Green.png,1,Negative,Incongruent,,,,,0,0,0,0,,,,,,,,,,,,,0,24,24,24,,,,,,,,,,,,,,,,,,,,,,,,,,,,,,,,,,,,,,,,,,,,,,,,,,,,,,,,,,,,,,,,,,,,,,,,,,,,,,,,,1.0987654229005177,0.9630422000191174,311.1503082999843,None,ScrollDown,정답입니다,311.1503082999843,None,311.1503082999843,None,311.1503082999843,None,311.1503082999843,None,312.01249379999354,None,312.01249379999354,312.515479899972,,,,,,,,,,,,,,,,208,2023-03-31_13h57.06.315,FishGame,2022.1.1,60.061971939066574,
,26,넌 만사태평이야,3,Orange,B,4,4.333333333333333,ScrollUp,ScrollDown,Orange.png,1,Neutral,Neutral,,,,,0,0,0,0,,,,,,,,,,,,,0,25,25,25,,,,,,,,,,,,,,,,,,,,,,,,,,,,,,,,,,,,,,,,,,,,,,,,,,,,,,,,,,,,,,,,,,,,,,,,,,,,,,,,,1.7484567960103354,0.9150019999942742,313.1366146999935,None,ScrollUp,정답입니다,313.1366146999935,None,313.1366146999935,None,313.1366146999935,None,313.1366146999935,None,313.9454643999925,None,313.9454643999925,314.4454762999958,,,,,,,,,,,,,,,,208,2023-03-31_13h57.06.315,FishGame,2022.1.1,60.061971939066574,
,27,넌 붙임성있어,1,Green,A,5.708333333333333,5.633333333333334,ScrollDown,ScrollUp,Green.png,1,Positive,Congruent,,,,,0,0,0,0,,,,,,,,,,,,,0,26,26,26,,,,,,,,,,,,,,,,,,,,,,,,,,,,,,,,,,,,,,,,,,,,,,,,,,,,,,,,,,,,,,,,,,,,,,,,,,,,,,,,,1.2515432039896646,0.8295093000051565,315.0668410999933,None,ScrollDown,정답입니다,315.0668410999933,None,315.0668410999933,None,315.0668410999933,None,315.0668410999933,None,315.7955737999873,None,315.7955737999873,316.2961412999721,,,,,,,,,,,,,,,,208,2023-03-31_13h57.06.315,FishGame,2022.1.1,60.061971939066574,
,28,넌 영리해,2,Green,A,6,4.033333333333333,ScrollDown,ScrollUp,Green.png,1,Positive,Congruent,,,,,0,0,0,0,,,,,,,,,,,,,0,27,27,27,,,,,,,,,,,,,,,,,,,,,,,,,,,,,,,,,,,,,,,,,,,,,,,,,,,,,,,,,,,,,,,,,,,,,,,,,,,,,,,,,1.0432098706563313,0.9626503000035882,316.91429079999216,None,ScrollDown,정답입니다,316.91429079999216,None,316.91429079999216,None,316.91429079999216,None,316.91429079999216,None,317.77877149998676,None,317.77877149998676,318.27670169997145,,,,,,,,,,,,,,,,208,2023-03-31_13h57.06.315,FishGame,2022.1.1,60.061971939066574,
,29,넌 열심이야,1,Orange,B,6.041666666666667,5.833333333333333,ScrollUp,ScrollDown,Orange.png,1,Positive,Incongruent,,,,,0,0,0,0,,,,,,,,,,,,,0,28,28,28,,,,,,,,,,,,,,,,,,,,,,,,,,,,,,,,,,,,,,,,,,,,,,,,,,,,,,,,,,,,,,,,,,,,,,,,,,,,,,,,,1.8533950696388881,1.0819271999935154,318.9004011999932,None,ScrollUp,정답입니다,318.9004011999932,None,318.9004011999932,None,318.9004011999932,None,318.9004011999932,None,319.878908099985,None,319.878908099985,320.378753099998,,,,,,,,,,,,,,,,208,2023-03-31_13h57.06.315,FishGame,2022.1.1,60.061971939066574,
,30,넌 인기없어,4,Orange,B,3,3.3,ScrollUp,ScrollDown,Orange.png,1,Negative,Congruent,,,,,0,0,0,0,,,,,,,,,,,,,0,29,29,29,,,,,,,,,,,,,,,,,,,,,,,,,,,,,,,,,,,,,,,,,,,,,,,,,,,,,,,,,,,,,,,,,,,,,,,,,,,,,,,,,1.4691358022391796,0.9460691999993287,320.9996395999915,None,NoResponse,무응답입니다,320.9996395999915,None,320.9996395999915,None,320.9996395999915,None,320.9996395999915,None,321.84306169999763,None,321.84306169999763,322.3438443999912,,,,,,,,,,,,,,,,208,2023-03-31_13h57.06.315,FishGame,2022.1.1,60.061971939066574,
,31,넌 익살스러워,3,Green,A,4.708333333333334,4.833333333333333,ScrollDown,ScrollUp,Green.png,1,Neutral,Neutral,,,,,0,0,0,0,,,,,,,,,,,,,0,30,30,30,,,,,,,,,,,,,,,,,,,,,,,,,,,,,,,,,,,,,,,,,,,,,,,,,,,,,,,,,,,,,,,,,,,,,,,,,,,,,,,,,1.141975313425064,0.8971566999971401,322.9624284999736,None,ScrollDown,정답입니다,322.9624284999736,None,322.9624284999736,None,322.9624284999736,None,322.9624284999736,None,323.75973629998043,None,323.75973629998043,324.26210409999476,,,,,,,,,,,,,,,,208,2023-03-31_13h57.06.315,FishGame,2022.1.1,60.061971939066574,
,32,넌 이기적이야,5,Orange,B,2.291666666666667,2.333333333333333,ScrollUp,ScrollDown,Orange.png,1,Negative,Congruent,,,,,0,0,0,0,,,,,,,,,,,,,0,31,31,31,,,,,,,,,,,,,,,,,,,,,,,,,,,,,,,,,,,,,,,,,,,,,,,,,,,,,,,,,,,,,,,,,,,,,,,,,,,,,,,,,1.5987654303510985,0.8316229000047315,324.88224939999054,None,ScrollUp,정답입니다,324.88224939999054,None,324.88224939999054,None,324.88224939999054,None,324.88224939999054,None,325.61009079997893,None,325.61009079997893,326.1154415999772,,,,,,,,,,,,,,,,208,2023-03-31_13h57.06.315,FishGame,2022.1.1,60.061971939066574,
,33,나를 데려가줘,6,Orange,B,0,0,ScrollDown,ScrollUp,Orange.png,1,NonTarget,NonTarget,,,,,0,0,0,0,,,,,,,,,,,,,0,32,32,32,,,,,,,,,,,,,,,,,,,,,,,,,,,,,,,,,,,,,,,,,,,,,,,,,,,,,,,,,,,,,,,,,,,,,,,,,,,,,,,,,1.2083333383003871,1.0963205999869388,326.73030149997794,None,ScrollDown,정답입니다,326.73030149997794,None,326.73030149997794,None,326.73030149997794,None,326.73030149997794,None,327.7285049999773,None,327.7285049999773,328.2286025999929,,,,,,,,,,,,,,,,208,2023-03-31_13h57.06.315,FishGame,2022.1.1,60.061971939066574,
,34,넌 기회주의자야,5,Green,A,2.875,2.133333333333333,ScrollDown,ScrollUp,Green.png,1,Negative,Incongruent,,,,,0,0,0,0,,,,,,,,,,,,,0,33,33,33,,,,,,,,,,,,,,,,,,,,,,,,,,,,,,,,,,,,,,,,,,,,,,,,,,,,,,,,,,,,,,,,,,,,,,,,,,,,,,,,,1.0478395124276478,0.9625115000235382,328.85040589998243,None,ScrollDown,정답입니다,328.85040589998243,None,328.85040589998243,None,328.85040589998243,None,328.85040589998243,None,329.70954309997614,None,329.70954309997614,330.2095276999753,,,,,,,,,,,,,,,,208,2023-03-31_13h57.06.315,FishGame,2022.1.1,60.061971939066574,
,1,넌 미성숙해,4,Green,A,3,3.2,ScrollDown,ScrollUp,Green.png,2,Negative,Incongruent,,,,,0,0,0,0,,,,,,,,,,,,,,,,,0,0,0,0,,,,,,,,,,,,,,,,,,,,,,,,,,,,,,,,,,,,362.61113889998524,364.11129619998974,364.1446463999746,365.0946852999914,365.14469149999786,366.0976515999937,366.0809655999765,None,,,,,,,,,,,,,,,,,,,,,,,,,,,,,,,,,,1.2160493830839794,1.0240966999845114,367.18746469999314,None,ScrollDown,정답입니다,367.18746469999314,None,367.18746469999314,None,367.18746469999314,None,367.18746469999314,None,368.11109069999657,None,368.11109069999657,368.6109738999803,330.7095291999867,None,330.7095291999867,None,0.11203704,-0.10925926,1,0,0,0.015970220032613724,None,360.71105539999553,None,,,208,2023-03-31_13h57.06.315,FishGame,2022.1.1,60.061971939066574,
,2,넌 반사회적이야,5,Orange,B,2.416666666666667,2.033333333333333,ScrollUp,ScrollDown,Orange.png,2,Negative,Congruent,,,,,0,0,0,0,,,,,,,,,,,,,,,,,0,1,1,1,,,,,,,,,,,,,,,,,,,,,,,,,,,,,,,,,,,,,,,,,,,,,,,,,,,,,,,,,,,,,,,,,,,,,,,,,,,,,1.9027777661879857,1.5647936000023037,369.23234179997235,None,ScrollUp,정답입니다,369.23234179997235,None,369.23234179997235,None,369.23234179997235,None,369.23234179997235,None,370.6942441999854,None,370.6942441999854,371.19428599998355,,,,,,,,,,,,,,,,208,2023-03-31_13h57.06.315,FishGame,2022.1.1,60.061971939066574,
,3,넌 유능해,2,Green,A,6.208333333333333,4.433333333333334,ScrollDown,ScrollUp,Green.png,2,Positive,Congruent,,,,,0,0,0,0,,,,,,,,,,,,,,,,,0,2,2,2,,,,,,,,,,,,,,,,,,,,,,,,,,,,,,,,,,,,,,,,,,,,,,,,,,,,,,,,,,,,,,,,,,,,,,,,,,,,,1,0.9130449999938719,371.81428329998744,None,ScrollDown,정답입니다,371.81428329998744,None,371.81428329998744,None,371.81428329998744,None,371.81428329998744,None,372.62760909998906,None,372.62760909998906,373.12760939999134,,,,,,,,,,,,,,,,208,2023-03-31_13h57.06.315,FishGame,2022.1.1,60.061971939066574,
,4,넌 능숙해,2,Orange,B,5.666666666666667,4.733333333333333,ScrollUp,ScrollDown,Orange.png,2,Positive,Incongruent,,,,,0,0,0,0,,,,,,,,,,,,,,,,,0,3,3,3,,,,,,,,,,,,,,,,,,,,,,,,,,,,,,,,,,,,,,,,,,,,,,,,,,,,,,,,,,,,,,,,,,,,,,,,,,,,,1.8364197413126628,1.0426846999907866,373.7535685999901,None,ScrollUp,정답입니다,373.7535685999901,None,373.7535685999901,None,373.7535685999901,None,373.7535685999901,None,374.69194819999393,None,374.69194819999393,375.1919075999758,,,,,,,,,,,,,,,,208,2023-03-31_13h57.06.315,FishGame,2022.1.1,60.061971939066574,
,5,넌 진부해,4,Orange,B,2.458333333333333,3.166666666666667,ScrollUp,ScrollDown,Orange.png,2,Negative,Congruent,,,,,0,0,0,0,,,,,,,,,,,,,,,,,0,4,4,4,,,,,,,,,,,,,,,,,,,,,,,,,,,,,,,,,,,,,,,,,,,,,,,,,,,,,,,,,,,,,,,,,,,,,,,,,,,,,1.9074074079593022,0.867197399988072,375.81373139997595,None,ScrollUp,정답입니다,375.81373139997595,None,375.81373139997595,None,375.81373139997595,None,375.81373139997595,None,376.57786609997856,None,376.57786609997856,377.0776269999915,,,,,,,,,,,,,,,,208,2023-03-31_13h57.06.315,FishGame,2022.1.1,60.061971939066574,
,6,나를 보내줘,6,Green,A,0,0,ScrollUp,ScrollDown,Green.png,2,NonTarget,NonTarget,,,,,0,0,0,0,,,,,,,,,,,,,,,,,0,5,5,5,,,,,,,,,,,,,,,,,,,,,,,,,,,,,,,,,,,,,,,,,,,,,,,,,,,,,,,,,,,,,,,,,,,,,,,,,,,,,1.634259263674418,1.0510515999922063,377.69522539997706,None,ScrollUp,정답입니다,377.69522539997706,None,377.69522539997706,None,377.69522539997706,None,377.69522539997706,None,378.6473944999743,None,378.6473944999743,379.16079979998176,,,,,,,,,,,,,,,,208,2023-03-31_13h57.06.315,FishGame,2022.1.1,60.061971939066574,
,7,넌 엄격해,3,Green,A,4.166666666666666,4.1,ScrollDown,ScrollUp,Green.png,2,Neutral,Neutral,,,,,0,0,0,0,,,,,,,,,,,,,,,,,0,6,6,6,,,,,,,,,,,,,,,,,,,,,,,,,,,,,,,,,,,,,,,,,,,,,,,,,,,,,,,,,,,,,,,,,,,,,,,,,,,,,1.1759259204069774,0.915345499990508,379.7808127999888,None,ScrollDown,정답입니다,379.7808127999888,None,379.7808127999888,None,379.7808127999888,None,379.7808127999888,None,380.59213259999524,None,380.59213259999524,381.0973879999947,,,,,,,,,,,,,,,,208,2023-03-31_13h57.06.315,FishGame,2022.1.1,60.061971939066574,
,8,나를 보내줘,6,Green,A,0,0,ScrollUp,ScrollDown,Green.png,2,NonTarget,NonTarget,,,,,0,0,0,0,,,,,,,,,,,,,,,,,0,7,7,7,,,,,,,,,,,,,,,,,,,,,,,,,,,,,,,,,,,,,,,,,,,,,,,,,,,,,,,,,,,,,,,,,,,,,,,,,,,,,1.6373456791043282,0.9627311999793164,381.7097842999792,None,ScrollUp,정답입니다,381.7097842999792,None,381.7097842999792,None,381.7097842999792,None,381.7097842999792,None,382.57532229999197,None,382.57532229999197,383.07734479999635,,,,,,,,,,,,,,,,208,2023-03-31_13h57.06.315,FishGame,2022.1.1,60.061971939066574,
,9,넌 대담해,3,Orange,B,4.875,4.866666666666666,ScrollUp,ScrollDown,Orange.png,2,Neutral,Neutral,,,,,0,0,0,0,,,,,,,,,,,,,,,,,0,8,8,8,,,,,,,,,,,,,,,,,,,,,,,,,,,,,,,,,,,,,,,,,,,,,,,,,,,,,,,,,,,,,,,,,,,,,,,,,,,,,1.9290123283863068,1.0967224999913014,383.69928179998533,None,ScrollUp,정답입니다,383.69928179998533,None,383.69928179998533,None,383.69928179998533,None,383.69928179998533,None,384.69401019997895,None,384.69401019997895,385.1940314999956,,,,,,,,,,,,,,,,208,2023-03-31_13h57.06.315,FishGame,2022.1.1,60.061971939066574,
,10,넌 꾸준해,1,Green,A,5.916666666666668,5.8,ScrollDown,ScrollUp,Green.png,2,Positive,Congruent,,,,,0,0,0,0,,,,,,,,,,,,,,,,,0,9,9,9,,,,,,,,,,,,,,,,,,,,,,,,,,,,,,,,,,,,,,,,,,,,,,,,,,,,,,,,,,,,,,,,,,,,,,,,,,,,,1.1759259204069774,0.8814939000003505,385.8132815999852,None,ScrollDown,정답입니다,385.8132815999852,None,385.8132815999852,None,385.8132815999852,None,385.8132815999852,None,386.5939871999726,None,386.5939871999726,387.0939419999777,,,,,,,,,,,,,,,,208,2023-03-31_13h57.06.315,FishGame,2022.1.1,60.061971939066574,
,11,나를 데려가줘,6,Orange,B,0,0,ScrollDown,ScrollUp,Orange.png,2,NonTarget,NonTarget,,,,,0,0,0,0,,,,,,,,,,,,,,,,,0,10,10,10,,,,,,,,,,,,,,,,,,,,,,,,,,,,,,,,,,,,,,,,,,,,,,,,,,,,,,,,,,,,,,,,,,,,,,,,,,,,,1.1188271542390187,1.2648674999945797,387.7125909999886,None,ScrollDown,정답입니다,387.7125909999886,None,387.7125909999886,None,387.7125909999886,None,387.7125909999886,None,388.87528399997973,None,388.87528399997973,389.3772666999721,,,,,,,,,,,,,,,,208,2023-03-31_13h57.06.315,FishGame,2022.1.1,60.061971939066574,
,12,넌 독선적이야,5,Green,A,2.458333333333333,1.933333333333333,ScrollDown,ScrollUp,Green.png,2,Negative,Incongruent,,,,,0,0,0,0,,,,,,,,,,,,,,,,,0,11,11,11,,,,,,,,,,,,,,,,,,,,,,,,,,,,,,,,,,,,,,,,,,,,,,,,,,,,,,,,,,,,,,,,,,,,,,,,,,,,,1,1.2795601999969222,389.9981065999891,None,ScrollDown,정답입니다,389.9981065999891,None,389.9981065999891,None,389.9981065999891,None,389.9981065999891,None,391.17722529999446,None,391.17722529999446,391.69383449997986,,,,,,,,,,,,,,,,208,2023-03-31_13h57.06.315,FishGame,2022.1.1,60.061971939066574,
,13,나를 보내줘,6,Green,A,0,0,ScrollUp,ScrollDown,Green.png,2,NonTarget,NonTarget,,,,,0,0,0,0,,,,,,,,,,,,,,,,,0,12,12,12,,,,,,,,,,,,,,,,,,,,,,,,,,,,,,,,,,,,,,,,,,,,,,,,,,,,,,,,,,,,,,,,,,,,,,,,,,,,,1.6250000049670539,0.9795985999808181,392.2932310999895,None,ScrollUp,정답입니다,392.2932310999895,None,392.2932310999895,None,392.2932310999895,None,392.2932310999895,None,393.1772313999827,None,393.1772313999827,393.6772223999724,,,,,,,,,,,,,,,,208,2023-03-31_13h57.06.315,FishGame,2022.1.1,60.061971939066574,
,14,넌 책임감있어,1,Orange,B,6.347826086956522,6,ScrollUp,ScrollDown,Orange.png,2,Positive,Incongruent,,,,,0,0,0,0,,,,,,,,,,,,,,,,,0,13,13,13,,,,,,,,,,,,,,,,,,,,,,,,,,,,,,,,,,,,,,,,,,,,,,,,,,,,,,,,,,,,,,,,,,,,,,,,,,,,,1.6203703756133714,0.9294703000050504,394.2998466999852,None,ScrollUp,정답입니다,394.2998466999852,None,394.2998466999852,None,394.2998466999852,None,394.2998466999852,None,395.13023439998506,None,395.13023439998506,395.64373599999817,,,,,,,,,,,,,,,,208,2023-03-31_13h57.06.315,FishGame,2022.1.1,60.061971939066574,
,15,넌 문학적이야,3,Green,A,4.708333333333334,4.333333333333333,ScrollDown,ScrollUp,Green.png,2,Neutral,Neutral,,,,,0,0,0,0,,,,,,,,,,,,,,,,,0,14,14,14,,,,,,,,,,,,,,,,,,,,,,,,,,,,,,,,,,,,,,,,,,,,,,,,,,,,,,,,,,,,,,,,,,,,,,,,,,,,,1.2098765522241592,0.8796911999816075,396.26412969999365,None,ScrollDown,정답입니다,396.26412969999365,None,396.26412969999365,None,396.26412969999365,None,396.26412969999365,None,397.0436868999968,None,397.0436868999968,397.5437264999782,,,,,,,,,,,,,,,,208,2023-03-31_13h57.06.315,FishGame,2022.1.1,60.061971939066574,
,16,넌 재미있어,1,Orange,B,5.875,5.7,ScrollUp,ScrollDown,Orange.png,2,Positive,Incongruent,,,,,0,0,0,0,,,,,,,,,,,,,,,,,0,15,15,15,,,,,,,,,,,,,,,,,,,,,,,,,,,,,,,,,,,,,,,,,,,,,,,,,,,,,,,,,,,,,,,,,,,,,,,,,,,,,1.540123456468185,1.146050400013337,398.1621369999775,None,NoResponse,무응답입니다,398.1621369999775,None,398.1621369999775,None,398.1621369999775,None,398.1621369999775,None,399.208381799981,None,399.208381799981,399.71038889998454,,,,,,,,,,,,,,,,208,2023-03-31_13h57.06.315,FishGame,2022.1.1,60.061971939066574,
,17,나를 데려가줘,6,Orange,B,0,0,ScrollDown,ScrollUp,Orange.png,2,NonTarget,NonTarget,,,,,0,0,0,0,,,,,,,,,,,,,,,,,0,16,16,16,,,,,,,,,,,,,,,,,,,,,,,,,,,,,,,,,,,,,,,,,,,,,,,,,,,,,,,,,,,,,,,,,,,,,,,,,,,,,1.1250000099341075,1.0929249999753665,400.33626229999936,None,ScrollDown,정답입니다,400.33626229999936,None,400.33626229999936,None,400.33626229999936,None,400.33626229999936,None,401.3248885999783,None,401.3248885999783,401.825394399988,,,,,,,,,,,,,,,,208,2023-03-31_13h57.06.315,FishGame,2022.1.1,60.061971939066574,
,18,넌 협력적이야,1,Green,A,5.625,5.633333333333334,ScrollDown,ScrollUp,Green.png,2,Positive,Congruent,,,,,0,0,0,0,,,,,,,,,,,,,,,,,0,17,17,17,,,,,,,,,,,,,,,,,,,,,,,,,,,,,,,,,,,,,,,,,,,,,,,,,,,,,,,,,,,,,,,,,,,,,,,,,,,,,1.1574074029922485,0.9830296000000089,402.4467858999851,None,ScrollDown,정답입니다,402.4467858999851,None,402.4467858999851,None,402.4467858999851,None,402.4467858999851,None,403.32710389999556,None,403.32710389999556,403.8277989999915,,,,,,,,,,,,,,,,208,2023-03-31_13h57.06.315,FishGame,2022.1.1,60.061971939066574,
,19,넌 평범해,3,Orange,B,4.333333333333332,4.233333333333333,ScrollUp,ScrollDown,Orange.png,2,Neutral,Neutral,,,,,0,0,0,0,,,,,,,,,,,,,,,,,0,18,18,18,,,,,,,,,,,,,,,,,,,,,,,,,,,,,,,,,,,,,,,,,,,,,,,,,,,,,,,,,,,,,,,,,,,,,,,,,,,,,1.8904321044683456,1.1482571999949869,404.44800619999296,None,ScrollUp,정답입니다,404.44800619999296,None,404.44800619999296,None,404.44800619999296,None,404.44800619999296,None,405.4937904999824,None,405.4937904999824,405.9969293999893,,,,,,,,,,,,,,,,208,2023-03-31_13h57.06.315,FishGame,2022.1.1,60.061971939066574,
,20,넌 오만해,5,Green,A,2.333333333333333,2,ScrollDown,ScrollUp,Green.png,2,Negative,Incongruent,,,,,0,0,0,0,,,,,,,,,,,,,,,,,0,19,19,19,,,,,,,,,,,,,,,,,,,,,,,,,,,,,,,,,,,,,,,,,,,,,,,,,,,,,,,,,,,,,,,,,,,,,,,,,,,,,1.0108024775981903,0.9653299999772571,406.61147499998333,None,ScrollDown,정답입니다,406.61147499998333,None,406.61147499998333,None,406.61147499998333,None,406.61147499998333,None,407.47691759999725,None,407.47691759999725,407.97688709999784,,,,,,,,,,,,,,,,208,2023-03-31_13h57.06.315,FishGame,2022.1.1,60.061971939066574,
,21,넌 운이없어,4,Orange,B,3,3.466666666666667,ScrollUp,ScrollDown,Orange.png,2,Negative,Congruent,,,,,0,0,0,0,,,,,,,,,,,,,,,,,0,20,20,20,,,,,,,,,,,,,,,,,,,,,,,,,,,,,,,,,,,,,,,,,,,,,,,,,,,,,,,,,,,,,,,,,,,,,,,,,,,,,1.6728395000100136,0.8760932000004686,408.6048671999888,None,ScrollUp,정답입니다,408.6048671999888,None,408.6048671999888,None,408.6048671999888,None,408.6048671999888,None,409.37451759999385,None,409.37451759999385,409.8744899999874,,,,,,,,,,,,,,,,208,2023-03-31_13h57.06.315,FishGame,2022.1.1,60.061971939066574,
,22,넌 창조적이야,2,Orange,B,6.125,4.633333333333334,ScrollUp,ScrollDown,Orange.png,2,Positive,Incongruent,,,,,0,0,0,0,,,,,,,,,,,,,,,,,0,21,21,21,,,,,,,,,,,,,,,,,,,,,,,,,,,,,,,,,,,,,,,,,,,,,,,,,,,,,,,,,,,,,,,,,,,,,,,,,,,,,1.7114197611808777,0.9813192000146955,410.49464779999107,None,ScrollUp,정답입니다,410.49464779999107,None,410.49464779999107,None,410.49464779999107,None,410.49464779999107,None,411.37469869997585,None,411.37469869997585,411.8769199999806,,,,,,,,,,,,,,,,208,2023-03-31_13h57.06.315,FishGame,2022.1.1,60.061971939066574,
,23,나를 보내줘,6,Green,A,0,0,ScrollUp,ScrollDown,Green.png,2,NonTarget,NonTarget,,,,,0,0,0,0,,,,,,,,,,,,,,,,,0,22,22,22,,,,,,,,,,,,,,,,,,,,,,,,,,,,,,,,,,,,,,,,,,,,,,,,,,,,,,,,,,,,,,,,,,,,,,,,,,,,,1.8950617214043934,1.015146999998251,412.49363309997716,None,ScrollUp,정답입니다,412.49363309997716,None,412.49363309997716,None,412.49363309997716,None,412.49363309997716,None,413.4103725999885,None,413.4103725999885,413.9100133999891,,,,,,,,,,,,,,,,208,2023-03-31_13h57.06.315,FishGame,2022.1.1,60.061971939066574,
,24,넌 통찰력있어,2,Green,A,6.5,4.8,ScrollDown,ScrollUp,Green.png,2,Positive,Congruent,,,,,0,0,0,0,,,,,,,,,,,,,,,,,0,23,23,23,,,,,,,,,,,,,,,,,,,,,,,,,,,,,,,,,,,,,,,,,,,,,,,,,,,,,,,,,,,,,,,,,,,,,,,,,,,,,1.1095678955316544,0.9979423999902792,414.5304859999742,None,ScrollDown,정답입니다,414.5304859999742,None,414.5304859999742,None,414.5304859999742,None,414.5304859999742,None,415.42677149997326,None,415.42677149997326,415.9267152999819,,,,,,,,,,,,,,,,208,2023-03-31_13h57.06.315,FishGame,2022.1.1,60.061971939066574,
,25,넌 경솔해,5,Orange,B,2.458333333333333,2.266666666666667,ScrollUp,ScrollDown,Orange.png,2,Negative,Congruent,,,,,0,0,0,0,,,,,,,,,,,,,,,,,0,24,24,24,,,,,,,,,,,,,,,,,,,,,,,,,,,,,,,,,,,,,,,,,,,,,,,,,,,,,,,,,,,,,,,,,,,,,,,,,,,,,1.8888888905445735,0.8651100000133738,416.5512411999807,None,ScrollUp,정답입니다,416.5512411999807,None,416.5512411999807,None,416.5512411999807,None,416.5512411999807,None,417.30797939997865,None,417.30797939997865,417.80991989999893,,,,,,,,,,,,,,,,208,2023-03-31_13h57.06.315,FishGame,2022.1.1,60.061971939066574,
,26,넌 초조해,4,Green,A,2.916666666666667,3.133333333333333,ScrollDown,ScrollUp,Green.png,2,Negative,Incongruent,,,,,0,0,0,0,,,,,,,,,,,,,,,,,0,25,25,25,,,,,,,,,,,,,,,,,,,,,,,,,,,,,,,,,,,,,,,,,,,,,,,,,,,,,,,,,,,,,,,,,,,,,,,,,,,,,1.2222222139437993,0.9462620999838691,418.4277715999924,None,ScrollDown,정답입니다,418.4277715999924,None,418.4277715999924,None,418.4277715999924,None,418.4277715999924,None,419.2766394999926,None,419.2766394999926,419.7765965999861,,,,,,,,,,,,,,,,208,2023-03-31_13h57.06.315,FishGame,2022.1.1,60.061971939066574,
,27,넌 무관심해,4,Orange,B,2.833333333333333,2.9,ScrollUp,ScrollDown,Orange.png,2,Negative,Congruent,,,,,0,0,0,0,,,,,,,,,,,,,,,,,0,26,26,26,,,,,,,,,,,,,,,,,,,,,,,,,,,,,,,,,,,,,,,,,,,,,,,,,,,,,,,,,,,,,,,,,,,,,,,,,,,,,1.4953703702582668,0.9129517000110354,420.3962317999976,None,NoResponse,무응답입니다,420.3962317999976,None,420.3962317999976,None,420.3962317999976,None,420.3962317999976,None,421.2079142999719,None,421.2079142999719,421.70996639999794,,,,,,,,,,,,,,,,208,2023-03-31_13h57.06.315,FishGame,2022.1.1,60.061971939066574,
,28,넌 감성적이야,3,Orange,B,4.125,4.166666666666667,ScrollUp,ScrollDown,Orange.png,2,Neutral,Neutral,,,,,0,0,0,0,,,,,,,,,,,,,,,,,0,27,27,27,,,,,,,,,,,,,,,,,,,,,,,,,,,,,,,,,,,,,,,,,,,,,,,,,,,,,,,,,,,,,,,,,,,,,,,,,,,,,1.5524691368142762,0.9960808000178076,422.3268757999758,None,ScrollUp,정답입니다,422.3268757999758,None,422.3268757999758,None,422.3268757999758,None,422.3268757999758,None,423.2269456999784,None,423.2269456999784,423.72656389998156,,,,,,,,,,,,,,,,208,2023-03-31_13h57.06.315,FishGame,2022.1.1,60.061971939066574,
,29,넌 배려심있어,1,Green,A,6.083333333333333,5.5,ScrollDown,ScrollUp,Green.png,2,Positive,Congruent,,,,,0,0,0,0,,,,,,,,,,,,,,,,,0,28,28,28,,,,,,,,,,,,,,,,,,,,,,,,,,,,,,,,,,,,,,,,,,,,,,,,,,,,,,,,,,,,,,,,,,,,,,,,,,,,,1.10030863682429,1.046035600011237,424.35331579999183,None,ScrollDown,정답입니다,424.35331579999183,None,424.35331579999183,None,424.35331579999183,None,424.35331579999183,None,425.2908398999716,None,425.2908398999716,425.7908127999981,,,,,,,,,,,,,,,,208,2023-03-31_13h57.06.315,FishGame,2022.1.1,60.061971939066574,
,30,넌 숨김없어,3,Green,A,4.5,4.933333333333334,ScrollDown,ScrollUp,Green.png,2,Neutral,Neutral,,,,,0,0,0,0,,,,,,,,,,,,,,,,,0,29,29,29,,,,,,,,,,,,,,,,,,,,,,,,,,,,,,,,,,,,,,,,,,,,,,,,,,,,,,,,,,,,,,,,,,,,,,,,,,,,,1.393518512447675,1.0675246000173502,426.41105469997274,None,ScrollDown,정답입니다,426.41105469997274,None,426.41105469997274,None,426.41105469997274,None,426.41105469997274,None,427.3766214999778,None,427.3766214999778,427.8765698999923,,,,,,,,,,,,,,,,208,2023-03-31_13h57.06.315,FishGame,2022.1.1,60.061971939066574,
,31,넌 훌륭해,2,Orange,B,5.916666666666667,4.033333333333333,ScrollUp,ScrollDown,Orange.png,2,Positive,Incongruent,,,,,0,0,0,0,,,,,,,,,,,,,,,,,0,30,30,30,,,,,,,,,,,,,,,,,,,,,,,,,,,,,,,,,,,,,,,,,,,,,,,,,,,,,,,,,,,,,,,,,,,,,,,,,,,,,1.9413580397764842,1.6629160000011325,428.4976810999797,None,ScrollUp,정답입니다,428.4976810999797,None,428.4976810999797,None,428.4976810999797,None,428.4976810999797,None,430.0582431999792,None,430.0582431999792,430.55795479999506,,,,,,,,,,,,,,,,208,2023-03-31_13h57.06.315,FishGame,2022.1.1,60.061971939066574,
,32,넌 슬기로워,2,Green,A,6.166666666666667,4.1,ScrollDown,ScrollUp,Green.png,2,Positive,Congruent,,,,,0,0,0,0,,,,,,,,,,,,,,,,,0,31,31,31,,,,,,,,,,,,,,,,,,,,,,,,,,,,,,,,,,,,,,,,,,,,,,,,,,,,,,,,,,,,,,,,,,,,,,,,,,,,,1.2654321044683456,0.9648895999998786,431.1711980999971,None,ScrollDown,정답입니다,431.1711980999971,None,431.1711980999971,None,431.1711980999971,None,431.1711980999971,None,432.0407343999832,None,432.0407343999832,432.5430894999881,,,,,,,,,,,,,,,,208,2023-03-31_13h57.06.315,FishGame,2022.1.1,60.061971939066574,
,33,넌 냉혹해,5,Green,A,2.583333333333333,2.1,ScrollDown,ScrollUp,Green.png,2,Negative,Incongruent,,,,,0,0,0,0,,,,,,,,,,,,,,,,,0,32,32,32,,,,,,,,,,,,,,,,,,,,,,,,,,,,,,,,,,,,,,,,,,,,,,,,,,,,,,,,,,,,,,,,,,,,,,,,,,,,,1.2469135870536168,0.9151674000022467,433.16319639998255,None,ScrollDown,정답입니다,433.16319639998255,None,433.16319639998255,None,433.16319639998255,None,433.16319639998255,None,433.97648399998434,None,433.97648399998434,434.4762338999717,,,,,,,,,,,,,,,,208,2023-03-31_13h57.06.315,FishGame,2022.1.1,60.061971939066574,
,34,나를 데려가줘,6,Orange,B,0,0,ScrollDown,ScrollUp,Orange.png,2,NonTarget,NonTarget,,,,,0,0,0,0,,,,,,,,,,,,,,,,,0,33,33,33,,,,,,,,,,,,,,,,,,,,,,,,,,,,,,,,,,,,,,,,,,,,,,,,,,,,,,,,,,,,,,,,,,,,,,,,,,,,,1.1543209999799728,1.0130919000075664,435.09414239999023,None,ScrollDown,정답입니다,435.09414239999023,None,435.09414239999023,None,435.09414239999023,None,435.09414239999023,None,436.0096266999899,None,436.0096266999899,436.50960279998253,,,,,,,,,,,,,,,,208,2023-03-31_13h57.06.315,FishGame,2022.1.1,60.061971939066574,
,35,넌 편파적이야,5,Orange,B,2.125,2,ScrollUp,ScrollDown,Orange.png,2,Negative,Congruent,,,,,0,0,0,0,,,,,,,,,,,,,,,,,0,34,34,34,,,,,,,,,,,,,,,,,,,,,,,,,,,,,,,,,,,,,,,,,,,,,,,,,,,,,,,,,,,,,,,,,,,,,,,,,,,,,1.8101851791143417,0.9929719000065234,437.1356948999746,None,ScrollUp,정답입니다,437.1356948999746,None,437.1356948999746,None,437.1356948999746,None,437.1356948999746,None,438.0241111999785,None,438.0241111999785,438.52462229999946,,,,,,,,,,,,,,,,208,2023-03-31_13h57.06.315,FishGame,2022.1.1,60.061971939066574,
,36,넌 슬퍼,4,Green,A,2.583333333333333,3.066666666666667,ScrollDown,ScrollUp,Green.png,2,Negative,Incongruent,,,,,0,0,0,0,,,,,,,,,,,,,,,,,0,35,35,35,,,,,,,,,,,,,,,,,,,,,,,,,,,,,,,,,,,,,,,,,,,,,,,,,,,,,,,,,,,,,,,,,,,,,,,,,,,,,1.0154321193695068,0.9645850000088103,439.1375368999725,None,ScrollDown,정답입니다,439.1375368999725,None,439.1375368999725,None,439.1375368999725,None,439.1375368999725,None,440.007240899984,None,440.007240899984,440.50958719998016,,,,,,,,,,,,,,,,208,2023-03-31_13h57.06.315,FishGame,2022.1.1,60.061971939066574,
,37,나를 데려가줘,6,Orange,B,0,0,ScrollDown,ScrollUp,Orange.png,2,NonTarget,NonTarget,,,,,0,0,0,0,,,,,,,,,,,,,,,,,0,36,36,36,,,,,,,,,,,,,,,,,,,,,,,,,,,,,,,,,,,,,,,,,,,,,,,,,,,,,,,,,,,,,,,,,,,,,,,,,,,,,1,1.279831199994078,441.1283776999917,None,ScrollDown,정답입니다,441.1283776999917,None,441.1283776999917,None,441.1283776999917,None,441.1283776999917,None,442.3071722999739,None,442.3071722999739,442.80720119999023,,,,,,,,,,,,,,,,208,2023-03-31_13h57.06.315,FishGame,2022.1.1,60.061971939066574,
,38,넌 친절해,1,Orange,B,6.041666666666667,5.533333333333333,ScrollUp,ScrollDown,Orange.png,2,Positive,Incongruent,,,,,0,0,0,0,,,,,,,,,,,,,,,,,0,37,37,37,,,,,,,,,,,,,,,,,,,,,,,,,,,,,,,,,,,,,,,,,,,,,,,,,,,,,,,,,,,,,,,,,,,,,,,,,,,,,1.632716049750646,0.9453240000002552,443.43070699999225,None,ScrollUp,정답입니다,443.43070699999225,None,443.43070699999225,None,443.43070699999225,None,443.43070699999225,None,444.2738480999833,None,444.2738480999833,444.7768572999921,,,,,,,,,,,,,,,,208,2023-03-31_13h57.06.315,FishGame,2022.1.1,60.061971939066574,
,1,넌 엉성해,4,Green,A,3,3.3,ScrollDown,ScrollUp,Green.png,3,Negative,Incongruent,,,,,0,0,0,0,,,,,,,,,,,,,,,,,,,,,0,0,0,0,,,,,,,,,,,,,,,,,,,,,,,,,,,,,,,,476.85876169998664,478.3594000999874,478.3922497999738,479.3421673999983,479.3921532999957,480.34515449998435,480.34515449998435,None,,,,,,,,,,,,,,,,,,,,,,,,,,,,,,,,,,1.1095678955316544,1.3761610999936238,481.44652289999067,None,ScrollDown,정답입니다,481.44652289999067,None,481.44652289999067,None,481.44652289999067,None,481.44652289999067,None,482.7253151999903,None,482.7253151999903,483.22519289999036,445.27623469999526,None,445.27623469999526,None,0.16018519,-0.096296296,1,0,0,0.016337120003299788,None,475.29193349997513,None,,,208,2023-03-31_13h57.06.315,FishGame,2022.1.1,60.061971939066574,
,2,나를 보내줘,6,Green,A,0,0,ScrollUp,ScrollDown,Green.png,3,NonTarget,NonTarget,,,,,0,0,0,0,,,,,,,,,,,,,,,,,,,,,0,1,1,1,,,,,,,,,,,,,,,,,,,,,,,,,,,,,,,,,,,,,,,,,,,,,,,,,,,,,,,,,,,,,,,,,,,,,,,,,1.56944444651405,0.9460959999996703,483.84078429997317,None,ScrollUp,정답입니다,483.84078429997317,None,483.84078429997317,None,483.84078429997317,None,483.84078429997317,None,484.6917826999852,None,484.6917826999852,485.1918286999862,,,,,,,,,,,,,,,,208,2023-03-31_13h57.06.315,FishGame,2022.1.1,60.061971939066574,
,3,넌 활발해,1,Orange,B,5.666666666666667,5.6,ScrollUp,ScrollDown,Orange.png,3,Positive,Incongruent,,,,,0,0,0,0,,,,,,,,,,,,,,,,,,,,,0,2,2,2,,,,,,,,,,,,,,,,,,,,,,,,,,,,,,,,,,,,,,,,,,,,,,,,,,,,,,,,,,,,,,,,,,,,,,,,,1.658950611948967,0.7796184000035282,485.8108324999921,None,ScrollUp,정답입니다,485.8108324999921,None,485.8108324999921,None,485.8108324999921,None,485.8108324999921,None,486.4918712999788,None,486.4918712999788,486.9918110999861,,,,,,,,,,,,,,,,208,2023-03-31_13h57.06.315,FishGame,2022.1.1,60.061971939066574,
,4,넌 논리적이야,2,Green,A,5.666666666666666,4.633333333333334,ScrollDown,ScrollUp,Green.png,3,Positive,Congruent,,,,,0,0,0,0,,,,,,,,,,,,,,,,,,,,,0,3,3,3,,,,,,,,,,,,,,,,,,,,,,,,,,,,,,,,,,,,,,,,,,,,,,,,,,,,,,,,,,,,,,,,,,,,,,,,,1.1682098756233852,0.848354100016877,487.6113508999988,None,ScrollDown,정답입니다,487.6113508999988,None,487.6113508999988,None,487.6113508999988,None,487.6113508999988,None,488.3589382999926,None,488.3589382999926,488.8584334999905,,,,,,,,,,,,,,,,208,2023-03-31_13h57.06.315,FishGame,2022.1.1,60.061971939066574,
,5,넌 과묵해,3,Green,A,3.875,4.4,ScrollDown,ScrollUp,Green.png,3,Neutral,Neutral,,,,,0,0,0,0,,,,,,,,,,,,,,,,,,,,,0,4,4,4,,,,,,,,,,,,,,,,,,,,,,,,,,,,,,,,,,,,,,,,,,,,,,,,,,,,,,,,,,,,,,,,,,,,,,,,,1.162037044763565,0.8149071999941953,489.49393709999276,None,ScrollDown,정답입니다,489.49393709999276,None,489.49393709999276,None,489.49393709999276,None,489.49393709999276,None,490.2063701999723,None,490.2063701999723,490.70838759999606,,,,,,,,,,,,,,,,208,2023-03-31_13h57.06.315,FishGame,2022.1.1,60.061971939066574,
,6,나를 데려가줘,6,Orange,B,0,0,ScrollDown,ScrollUp,Orange.png,3,NonTarget,NonTarget,,,,,0,0,0,0,,,,,,,,,,,,,,,,,,,,,0,5,5,5,,,,,,,,,,,,,,,,,,,,,,,,,,,,,,,,,,,,,,,,,,,,,,,,,,,,,,,,,,,,,,,,,,,,,,,,,1.174382706483205,1.048683400003938,491.3263003999891,None,ScrollDown,정답입니다,491.3263003999891,None,491.3263003999891,None,491.3263003999891,None,491.3263003999891,None,492.2750624999753,None,492.2750624999753,492.775057699997,,,,,,,,,,,,,,,,208,2023-03-31_13h57.06.315,FishGame,2022.1.1,60.061971939066574,
,7,넌 미숙해,4,Orange,B,3,3,ScrollUp,ScrollDown,Orange.png,3,Negative,Congruent,,,,,0,0,0,0,,,,,,,,,,,,,,,,,,,,,0,6,6,6,,,,,,,,,,,,,,,,,,,,,,,,,,,,,,,,,,,,,,,,,,,,,,,,,,,,,,,,,,,,,,,,,,,,,,,,,1.5092592594834664,1.042346300004283,493.3992982999771,None,NoResponse,무응답입니다,493.3992982999771,None,493.3992982999771,None,493.3992982999771,None,493.3992982999771,None,494.3393308999948,None,494.3393308999948,494.83932569998433,,,,,,,,,,,,,,,,208,2023-03-31_13h57.06.315,FishGame,2022.1.1,60.061971939066574,
,8,나를 보내줘,6,Green,A,0,0,ScrollUp,ScrollDown,Green.png,3,NonTarget,NonTarget,,,,,0,0,0,0,,,,,,,,,,,,,,,,,,,,,0,7,7,7,,,,,,,,,,,,,,,,,,,,,,,,,,,,,,,,,,,,,,,,,,,,,,,,,,,,,,,,,,,,,,,,,,,,,,,,,1.939814825852712,1.064689199993154,495.461017499998,None,ScrollUp,정답입니다,495.461017499998,None,495.461017499998,None,495.461017499998,None,495.461017499998,None,496.42522799997823,None,496.42522799997823,496.9251390999998,,,,,,,,,,,,,,,,208,2023-03-31_13h57.06.315,FishGame,2022.1.1,60.061971939066574,
,9,넌 자신만만해,3,Orange,B,4.833333333333334,4.333333333333333,ScrollUp,ScrollDown,Orange.png,3,Neutral,Neutral,,,,,0,0,0,0,,,,,,,,,,,,,,,,,,,,,0,8,8,8,,,,,,,,,,,,,,,,,,,,,,,,,,,,,,,,,,,,,,,,,,,,,,,,,,,,,,,,,,,,,,,,,,,,,,,,,1.9429012537002563,1.5459389000025112,497.547889199981,None,ScrollUp,정답입니다,497.547889199981,None,497.547889199981,None,497.547889199981,None,497.547889199981,None,498.9915439999895,None,498.9915439999895,499.4915476999886,,,,,,,,,,,,,,,,208,2023-03-31_13h57.06.315,FishGame,2022.1.1,60.061971939066574,
,10,넌 탐욕스러워,5,Green,A,2.25,2.1,ScrollDown,ScrollUp,Green.png,3,Negative,Incongruent,,,,,0,0,0,0,,,,,,,,,,,,,,,,,,,,,0,9,9,9,,,,,,,,,,,,,,,,,,,,,,,,,,,,,,,,,,,,,,,,,,,,,,,,,,,,,,,,,,,,,,,,,,,,,,,,,1.3132715995113053,0.8800343000038993,500.1108822999813,None,ScrollDown,정답입니다,500.1108822999813,None,500.1108822999813,None,500.1108822999813,None,500.1108822999813,None,500.8896351000003,None,500.8896351000003,501.3949619999912,,,,,,,,,,,,,,,,208,2023-03-31_13h57.06.315,FishGame,2022.1.1,60.061971939066574,
,11,넌 인기있어,2,Green,A,5.458333333333333,4.5,ScrollDown,ScrollUp,Green.png,3,Positive,Congruent,,,,,0,0,0,0,,,,,,,,,,,,,,,,,,,,,0,10,10,10,,,,,,,,,,,,,,,,,,,,,,,,,,,,,,,,,,,,,,,,,,,,,,,,,,,,,,,,,,,,,,,,,,,,,,,,,1.2299382835626602,0.862918400001945,502.00499689998105,None,ScrollDown,정답입니다,502.00499689998105,None,502.00499689998105,None,502.00499689998105,None,502.00499689998105,None,502.7748857999977,None,502.7748857999977,503.27479440000025,,,,,,,,,,,,,,,,208,2023-03-31_13h57.06.315,FishGame,2022.1.1,60.061971939066574,
,12,나를 데려가줘,6,Orange,B,0,0,ScrollDown,ScrollUp,Orange.png,3,NonTarget,NonTarget,,,,,0,0,0,0,,,,,,,,,,,,,,,,,,,,,0,11,11,11,,,,,,,,,,,,,,,,,,,,,,,,,,,,,,,,,,,,,,,,,,,,,,,,,,,,,,,,,,,,,,,,,,,,,,,,,1,1.031967299990356,503.8960775999876,None,ScrollDown,정답입니다,503.8960775999876,None,503.8960775999876,None,503.8960775999876,None,503.8960775999876,None,504.8248848999792,None,504.8248848999792,505.3248199999798,,,,,,,,,,,,,,,,208,2023-03-31_13h57.06.315,FishGame,2022.1.1,60.061971939066574,
,13,넌 뛰어나,2,Orange,B,6.166666666666667,4,ScrollUp,ScrollDown,Orange.png,3,Positive,Incongruent,,,,,0,0,0,0,,,,,,,,,,,,,,,,,,,,,0,12,12,12,,,,,,,,,,,,,,,,,,,,,,,,,,,,,,,,,,,,,,,,,,,,,,,,,,,,,,,,,,,,,,,,,,,,,,,,,1.9722222189108531,1.4961207000014838,505.9504044999776,None,ScrollUp,정답입니다,505.9504044999776,None,505.9504044999776,None,505.9504044999776,None,505.9504044999776,None,507.3413520999893,None,507.3413520999893,507.84135019997484,,,,,,,,,,,,,,,,208,2023-03-31_13h57.06.315,FishGame,2022.1.1,60.061971939066574,
,14,넌 낙관적이야,1,Green,A,5.75,5.8,ScrollDown,ScrollUp,Green.png,3,Positive,Congruent,,,,,0,0,0,0,,,,,,,,,,,,,,,,,,,,,0,13,13,13,,,,,,,,,,,,,,,,,,,,,,,,,,,,,,,,,,,,,,,,,,,,,,,,,,,,,,,,,,,,,,,,,,,,,,,,,1.192901223897934,0.8298365999944508,508.4610417999793,None,ScrollDown,정답입니다,508.4610417999793,None,508.4610417999793,None,508.4610417999793,None,508.4610417999793,None,509.191357099975,None,509.191357099975,509.6913580999826,,,,,,,,,,,,,,,,208,2023-03-31_13h57.06.315,FishGame,2022.1.1,60.061971939066574,
,15,넌 산만해,4,Orange,B,2.695652173913043,3.033333333333333,ScrollUp,ScrollDown,Orange.png,3,Negative,Congruent,,,,,0,0,0,0,,,,,,,,,,,,,,,,,,,,,0,14,14,14,,,,,,,,,,,,,,,,,,,,,,,,,,,,,,,,,,,,,,,,,,,,,,,,,,,,,,,,,,,,,,,,,,,,,,,,,1.6929012313485146,0.7459299999754876,510.3123217999819,None,ScrollUp,정답입니다,510.3123217999819,None,510.3123217999819,None,510.3123217999819,None,510.3123217999819,None,510.9556431999954,None,510.9556431999954,511.4556368999765,,,,,,,,,,,,,,,,208,2023-03-31_13h57.06.315,FishGame,2022.1.1,60.061971939066574,
,16,나를 보내줘,6,Green,A,0,0,ScrollUp,ScrollDown,Green.png,3,NonTarget,NonTarget,,,,,0,0,0,0,,,,,,,,,,,,,,,,,,,,,0,15,15,15,,,,,,,,,,,,,,,,,,,,,,,,,,,,,,,,,,,,,,,,,,,,,,,,,,,,,,,,,,,,,,,,,,,,,,,,,1.8950617214043934,1.7176486999960616,512.0694338999747,None,ScrollUp,정답입니다,512.0694338999747,None,512.0694338999747,None,512.0694338999747,None,512.0694338999747,None,513.6913774999848,None,513.6913774999848,514.1913684999745,,,,,,,,,,,,,,,,208,2023-03-31_13h57.06.315,FishGame,2022.1.1,60.061971939066574,
,17,넌 교활해,5,Orange,B,2.333333333333333,2.133333333333333,ScrollUp,ScrollDown,Orange.png,3,Negative,Congruent,,,,,0,0,0,0,,,,,,,,,,,,,,,,,,,,,0,16,16,16,,,,,,,,,,,,,,,,,,,,,,,,,,,,,,,,,,,,,,,,,,,,,,,,,,,,,,,,,,,,,,,,,,,,,,,,,1.5817901206513247,1.214914400014095,514.8106801999966,None,ScrollUp,정답입니다,514.8106801999966,None,514.8106801999966,None,514.8106801999966,None,514.8106801999966,None,515.9246775999782,None,515.9246775999782,516.4281543999969,,,,,,,,,,,,,,,,208,2023-03-31_13h57.06.315,FishGame,2022.1.1,60.061971939066574,
,18,나를 보내줘,6,Green,A,0,0,ScrollUp,ScrollDown,Green.png,3,NonTarget,NonTarget,,,,,0,0,0,0,,,,,,,,,,,,,,,,,,,,,0,17,17,17,,,,,,,,,,,,,,,,,,,,,,,,,,,,,,,,,,,,,,,,,,,,,,,,,,,,,,,,,,,,,,,,,,,,,,,,,1.5293209869414568,1.0984124999959022,517.0381850999838,None,NoResponse,무응답입니다,517.0381850999838,None,517.0381850999838,None,517.0381850999838,None,517.0381850999838,None,518.039180199994,None,518.039180199994,518.5411953000003,,,,,,,,,,,,,,,,208,2023-03-31_13h57.06.315,FishGame,2022.1.1,60.061971939066574,
,19,넌 불친절해,5,Orange,B,2.208333333333333,2.033333333333333,ScrollUp,ScrollDown,Orange.png,3,Negative,Congruent,,,,,0,0,0,0,,,,,,,,,,,,,,,,,,,,,0,18,18,18,,,,,,,,,,,,,,,,,,,,,,,,,,,,,,,,,,,,,,,,,,,,,,,,,,,,,,,,,,,,,,,,,,,,,,,,,1.594135800997416,1.125920499995118,519.1702255999844,None,ScrollUp,정답입니다,519.1702255999844,None,519.1702255999844,None,519.1702255999844,None,519.1702255999844,None,520.1888342999737,None,520.1888342999737,520.6888441999909,,,,,,,,,,,,,,,,208,2023-03-31_13h57.06.315,FishGame,2022.1.1,60.061971939066574,
,20,넌 지적이야,2,Orange,B,5.75,4.366666666666666,ScrollUp,ScrollDown,Orange.png,3,Positive,Incongruent,,,,,0,0,0,0,,,,,,,,,,,,,,,,,,,,,0,19,19,19,,,,,,,,,,,,,,,,,,,,,,,,,,,,,,,,,,,,,,,,,,,,,,,,,,,,,,,,,,,,,,,,,,,,,,,,,1.4891975312493742,0.914961200003745,521.3081663999765,None,NoResponse,무응답입니다,521.3081663999765,None,521.3081663999765,None,521.3081663999765,None,521.3081663999765,None,522.1248474999738,None,522.1248474999738,522.6245433999866,,,,,,,,,,,,,,,,208,2023-03-31_13h57.06.315,FishGame,2022.1.1,60.061971939066574,
,21,넌 우유부단해,4,Green,A,2.666666666666667,3.166666666666667,ScrollDown,ScrollUp,Green.png,3,Negative,Incongruent,,,,,0,0,0,0,,,,,,,,,,,,,,,,,,,,,0,20,20,20,,,,,,,,,,,,,,,,,,,,,,,,,,,,,,,,,,,,,,,,,,,,,,,,,,,,,,,,,,,,,,,,,,,,,,,,,1.0108024775981903,1.5644612000032794,523.2436583999952,None,ScrollDown,정답입니다,523.2436583999952,None,523.2436583999952,None,523.2436583999952,None,523.2436583999952,None,524.705642099987,None,524.705642099987,525.207674299978,,,,,,,,,,,,,,,,208,2023-03-31_13h57.06.315,FishGame,2022.1.1,60.061971939066574,
,22,나를 데려가줘,6,Orange,B,0,0,ScrollDown,ScrollUp,Orange.png,3,NonTarget,NonTarget,,,,,0,0,0,0,,,,,,,,,,,,,,,,,,,,,0,21,21,21,,,,,,,,,,,,,,,,,,,,,,,,,,,,,,,,,,,,,,,,,,,,,,,,,,,,,,,,,,,,,,,,,,,,,,,,,1.0709876716136932,1.2979205999872647,525.8245484999788,None,ScrollDown,정답입니다,525.8245484999788,None,525.8245484999788,None,525.8245484999788,None,525.8245484999788,None,527.0243278999988,None,527.0243278999988,527.5249087999982,,,,,,,,,,,,,,,,208,2023-03-31_13h57.06.315,FishGame,2022.1.1,60.061971939066574,
,23,넌 성실해,1,Orange,B,6.041666666666666,5.7,ScrollUp,ScrollDown,Orange.png,3,Positive,Incongruent,,,,,0,0,0,0,,,,,,,,,,,,,,,,,,,,,0,22,22,22,,,,,,,,,,,,,,,,,,,,,,,,,,,,,,,,,,,,,,,,,,,,,,,,,,,,,,,,,,,,,,,,,,,,,,,,,1.5138888896132507,0.8790785000019241,528.1478046999837,None,NoResponse,무응답입니다,528.1478046999837,None,528.1478046999837,None,528.1478046999837,None,528.1478046999837,None,528.9222482999903,None,528.9222482999903,529.424211799982,,,,,,,,,,,,,,,,208,2023-03-31_13h57.06.315,FishGame,2022.1.1,60.061971939066574,
,24,넌 현실주의적이야,3,Green,A,4.625,4.4,ScrollDown,ScrollUp,Green.png,3,Neutral,Neutral,,,,,0,0,0,0,,,,,,,,,,,,,,,,,,,,,0,23,23,23,,,,,,,,,,,,,,,,,,,,,,,,,,,,,,,,,,,,,,,,,,,,,,,,,,,,,,,,,,,,,,,,,,,,,,,,,1.212962955236435,1.1463458000216633,530.0409755999863,None,ScrollDown,정답입니다,530.0409755999863,None,530.0409755999863,None,530.0409755999863,None,530.0409755999863,None,531.0908841999772,None,531.0908841999772,531.5940596999717,,,,,,,,,,,,,,,,208,2023-03-31_13h57.06.315,FishGame,2022.1.1,60.061971939066574,
,25,넌 진실돼,1,Green,A,6.625,5.566666666666666,ScrollDown,ScrollUp,Green.png,3,Positive,Congruent,,,,,0,0,0,0,,,,,,,,,,,,,,,,,,,,,0,24,24,24,,,,,,,,,,,,,,,,,,,,,,,,,,,,,,,,,,,,,,,,,,,,,,,,,,,,,,,,,,,,,,,,,,,,,,,,,1.192901223897934,1.0147767000016756,532.2168293999857,None,ScrollDown,정답입니다,532.2168293999857,None,532.2168293999857,None,532.2168293999857,None,532.2168293999857,None,533.1240994999825,None,533.1240994999825,533.6241074999853,,,,,,,,,,,,,,,,208,2023-03-31_13h57.06.315,FishGame,2022.1.1,60.061971939066574,
,26,넌 천진난만해,3,Orange,B,4.958333333333334,4.833333333333333,ScrollUp,ScrollDown,Orange.png,3,Neutral,Neutral,,,,,0,0,0,0,,,,,,,,,,,,,,,,,,,,,0,25,25,25,,,,,,,,,,,,,,,,,,,,,,,,,,,,,,,,,,,,,,,,,,,,,,,,,,,,,,,,,,,,,,,,,,,,,,,,,2,0.9461411999945994,534.2465819999925,None,ScrollUp,정답입니다,534.2465819999925,None,534.2465819999925,None,534.2465819999925,None,534.2465819999925,None,535.0909631999966,None,535.0909631999966,535.5908108000003,,,,,,,,,,,,,,,,208,2023-03-31_13h57.06.315,FishGame,2022.1.1,60.061971939066574,
,27,넌 교양없어,5,Green,A,2.416666666666667,2.2,ScrollDown,ScrollUp,Green.png,3,Negative,Incongruent,,,,,0,0,0,0,,,,,,,,,,,,,,,,,,,,,0,26,26,26,,,,,,,,,,,,,,,,,,,,,,,,,,,,,,,,,,,,,,,,,,,,,,,,,,,,,,,,,,,,,,,,,,,,,,,,,1.1712963034709294,0.9294069000170566,536.2141285999969,None,ScrollDown,정답입니다,536.2141285999969,None,536.2141285999969,None,536.2141285999969,None,536.2141285999969,None,537.0407423999859,None,537.0407423999859,537.5407900999999,,,,,,,,,,,,,,,,208,2023-03-31_13h57.06.315,FishGame,2022.1.1,60.061971939066574,
,28,나를 보내줘,6,Green,A,0,0,ScrollUp,ScrollDown,Green.png,3,NonTarget,NonTarget,,,,,0,0,0,0,,,,,,,,,,,,,,,,,,,,,0,27,27,27,,,,,,,,,,,,,,,,,,,,,,,,,,,,,,,,,,,,,,,,,,,,,,,,,,,,,,,,,,,,,,,,,,,,,,,,,1.7700617164373398,1.013039099983871,538.1552197999845,None,ScrollUp,정답입니다,538.1552197999845,None,538.1552197999845,None,538.1552197999845,None,538.1552197999845,None,539.0739700999984,None,539.0739700999984,539.5740255999845,,,,,,,,,,,,,,,,208,2023-03-31_13h57.06.315,FishGame,2022.1.1,60.061971939066574,
,29,넌 엉뚱스러워,3,Green,A,4.166666666666667,4.133333333333334,ScrollDown,ScrollUp,Green.png,3,Neutral,Neutral,,,,,0,0,0,0,,,,,,,,,,,,,,,,,,,,,0,28,28,28,,,,,,,,,,,,,,,,,,,,,,,,,,,,,,,,,,,,,,,,,,,,,,,,,,,,,,,,,,,,,,,,,,,,,,,,,1.1666666616996129,0.9781322999915574,540.1946872999833,None,ScrollDown,정답입니다,540.1946872999833,None,540.1946872999833,None,540.1946872999833,None,540.1946872999833,None,541.0740701999748,None,541.0740701999748,541.5740097999806,,,,,,,,,,,,,,,,208,2023-03-31_13h57.06.315,FishGame,2022.1.1,60.061971939066574,
,30,넌 무지해,4,Orange,B,2.541666666666667,3.066666666666667,ScrollUp,ScrollDown,Orange.png,3,Negative,Congruent,,,,,0,0,0,0,,,,,,,,,,,,,,,,,,,,,0,29,29,29,,,,,,,,,,,,,,,,,,,,,,,,,,,,,,,,,,,,,,,,,,,,,,,,,,,,,,,,,,,,,,,,,,,,,,,,,1.7253086368242898,1.074765600002138,542.1941747999808,None,ScrollUp,정답입니다,542.1941747999808,None,542.1941747999808,None,542.1941747999808,None,542.1941747999808,None,543.1600562999956,None,543.1600562999956,543.6739190999942,,,,,,,,,,,,,,,,208,2023-03-31_13h57.06.315,FishGame,2022.1.1,60.061971939066574,
,31,넌 음울해,5,Orange,B,2.25,2.233333333333333,ScrollUp,ScrollDown,Orange.png,3,Negative,Congruent,,,,,0,0,0,0,,,,,,,,,,,,,,,,,,,,,0,30,30,30,,,,,,,,,,,,,,,,,,,,,,,,,,,,,,,,,,,,,,,,,,,,,,,,,,,,,,,,,,,,,,,,,,,,,,,,,1.9891975224018097,0.9628845999832265,544.2956248999981,None,ScrollUp,정답입니다,544.2956248999981,None,544.2956248999981,None,544.2956248999981,None,544.2956248999981,None,545.1551861999906,None,545.1551861999906,545.6570706999919,,,,,,,,,,,,,,,,208,2023-03-31_13h57.06.315,FishGame,2022.1.1,60.061971939066574,
,32,넌 냉소적이야,5,Green,A,2.916666666666667,2.4,ScrollDown,ScrollUp,Green.png,3,Negative,Incongruent,,,,,0,0,0,0,,,,,,,,,,,,,,,,,,,,,0,31,31,31,,,,,,,,,,,,,,,,,,,,,,,,,,,,,,,,,,,,,,,,,,,,,,,,,,,,,,,,,,,,,,,,,,,,,,,,,1.1558641890684764,0.8647924999822862,546.2721675999928,None,ScrollDown,정답입니다,546.2721675999928,None,546.2721675999928,None,546.2721675999928,None,546.2721675999928,None,547.0385340999928,None,547.0385340999928,547.5405448999954,,,,,,,,,,,,,,,,208,2023-03-31_13h57.06.315,FishGame,2022.1.1,60.061971939066574,
,33,나를 데려가줘,6,Orange,B,0,0,ScrollDown,ScrollUp,Orange.png,3,NonTarget,NonTarget,,,,,0,0,0,0,,,,,,,,,,,,,,,,,,,,,0,32,32,32,,,,,,,,,,,,,,,,,,,,,,,,,,,,,,,,,,,,,,,,,,,,,,,,,,,,,,,,,,,,,,,,,,,,,,,,,1,1.0647278999967966,548.1567317999725,None,ScrollDown,정답입니다,548.1567317999725,None,548.1567317999725,None,548.1567317999725,None,548.1567317999725,None,549.121780299989,None,549.121780299989,549.6241919999884,,,,,,,,,,,,,,,,208,2023-03-31_13h57.06.315,FishGame,2022.1.1,60.061971939066574,
,34,넌 쾌활해,1,Green,A,5.541666666666666,5.733333333333333,ScrollDown,ScrollUp,Green.png,3,Positive,Congruent,,,,,0,0,0,0,,,,,,,,,,,,,,,,,,,,,0,33,33,33,,,,,,,,,,,,,,,,,,,,,,,,,,,,,,,,,,,,,,,,,,,,,,,,,,,,,,,,,,,,,,,,,,,,,,,,,1.1296296268701553,1.1476582000032067,550.2422958999814,None,ScrollDown,정답입니다,550.2422958999814,None,550.2422958999814,None,550.2422958999814,None,550.2422958999814,None,551.290481199976,None,551.290481199976,551.7904308999714,,,,,,,,,,,,,,,,208,2023-03-31_13h57.06.315,FishGame,2022.1.1,60.061971939066574,
,35,나를 보내줘,6,Green,A,0,0,ScrollUp,ScrollDown,Green.png,3,NonTarget,NonTarget,,,,,0,0,0,0,,,,,,,,,,,,,,,,,,,,,0,34,34,34,,,,,,,,,,,,,,,,,,,,,,,,,,,,,,,,,,,,,,,,,,,,,,,,,,,,,,,,,,,,,,,,,,,,,,,,,1.8425925970077515,1.246373500005575,552.4068282999797,None,ScrollUp,정답입니다,552.4068282999797,None,552.4068282999797,None,552.4068282999797,None,552.4068282999797,None,553.5572171999956,None,553.5572171999956,554.0570116999734,,,,,,,,,,,,,,,,208,2023-03-31_13h57.06.315,FishGame,2022.1.1,60.061971939066574,
,36,넌 명랑해,1,Orange,B,5.739130434782609,5.666666666666667,ScrollUp,ScrollDown,Orange.png,3,Positive,Incongruent,,,,,0,0,0,0,,,,,,,,,,,,,,,,,,,,,0,35,35,35,,,,,,,,,,,,,,,,,,,,,,,,,,,,,,,,,,,,,,,,,,,,,,,,,,,,,,,,,,,,,,,,,,,,,,,,,1.9938271641731262,1.08159169999999,554.6937744999886,None,ScrollUp,정답입니다,554.6937744999886,None,554.6937744999886,None,554.6937744999886,None,554.6937744999886,None,555.6737064999761,None,555.6737064999761,556.1736485000001,,,,,,,,,,,,,,,,208,2023-03-31_13h57.06.315,FishGame,2022.1.1,60.061971939066574,
,37,넌 멍해,4,Green,A,2.833333333333333,3.4,ScrollDown,ScrollUp,Green.png,3,Negative,Incongruent,,,,,0,0,0,0,,,,,,,,,,,,,,,,,,,,,0,36,36,36,,,,,,,,,,,,,,,,,,,,,,,,,,,,,,,,,,,,,,,,,,,,,,,,,,,,,,,,,,,,,,,,,,,,,,,,,1.0077160497506459,0.9800589999940712,556.7893672999926,None,ScrollDown,정답입니다,556.7893672999926,None,556.7893672999926,None,556.7893672999926,None,556.7893672999926,None,557.6736426999851,None,557.6736426999851,558.1736749999982,,,,,,,,,,,,,,,,208,2023-03-31_13h57.06.315,FishGame,2022.1.1,60.061971939066574,
,38,나를 데려가줘,6,Orange,B,0,0,ScrollDown,ScrollUp,Orange.png,3,NonTarget,NonTarget,,,,,0,0,0,0,,,,,,,,,,,,,,,,,,,,,0,37,37,37,,,,,,,,,,,,,,,,,,,,,,,,,,,,,,,,,,,,,,,,,,,,,,,,,,,,,,,,,,,,,,,,,,,,,,,,,1.0925925920406978,1.07941090001259,558.7970905999828,None,ScrollDown,정답입니다,558.7970905999828,None,558.7970905999828,None,558.7970905999828,None,558.7970905999828,None,559.7713096999796,None,559.7713096999796,560.2713379999914,,,,,,,,,,,,,,,,208,2023-03-31_13h57.06.315,FishGame,2022.1.1,60.061971939066574,
,39,넌 현명해,2,Green,A,6.541666666666666,4.533333333333333,ScrollDown,ScrollUp,Green.png,3,Positive,Congruent,,,,,0,0,0,0,,,,,,,,,,,,,,,,,,,,,0,38,38,38,,,,,,,,,,,,,,,,,,,,,,,,,,,,,,,,,,,,,,,,,,,,,,,,,,,,,,,,,,,,,,,,,,,,,,,,,1.212962955236435,1.2655044000130147,560.8902367999835,None,ScrollDown,정답입니다,560.8902367999835,None,560.8902367999835,None,560.8902367999835,None,560.8902367999835,None,562.0570351999777,None,562.0570351999777,562.5569692999998,,,,,,,,,,,,,,,,208,2023-03-31_13h57.06.315,FishGame,2022.1.1,60.061971939066574,
,40,넌 수줍어,3,Orange,B,3.541666666666666,4.366666666666666,ScrollUp,ScrollDown,Orange.png,3,Neutral,Neutral,,,,,0,0,0,0,,,,,,,,,,,,,,,,,,,,,0,39,39,39,,,,,,,,,,,,,,,,,,,,,,,,,,,,,,,,,,,,,,,,,,,,,,,,,,,,,,,,,,,,,,,,,,,,,,,,,1.9552469154198964,1.1080885000119451,563.1771092999843,None,ScrollUp,정답입니다,563.1771092999843,None,563.1771092999843,None,563.1771092999843,None,563.1771092999843,None,564.1838405999879,None,564.1838405999879,564.6901271999814,,,,,,,,,,,,,,,,208,2023-03-31_13h57.06.315,FishGame,2022.1.1,60.061971939066574,
,41,나를 데려가줘,6,Orange,B,0,0,ScrollDown,ScrollUp,Orange.png,3,NonTarget,NonTarget,,,,,0,0,0,0,,,,,,,,,,,,,,,,,,,,,0,40,40,40,,,,,,,,,,,,,,,,,,,,,,,,,,,,,,,,,,,,,,,,,,,,,,,,,,,,,,,,,,,,,,,,,,,,,,,,,1.2361111144224803,1.0964555999962613,565.3083916999749,None,ScrollDown,정답입니다,565.3083916999749,None,565.3083916999749,None,565.3083916999749,None,565.3083916999749,None,566.3067819999997,None,566.3067819999997,566.8068243999733,,,,,,,,,,,,,,,,208,2023-03-31_13h57.06.315,FishGame,2022.1.1,60.061971939066574,
,42,넌 성숙해,2,Orange,B,5.833333333333333,4.533333333333333,ScrollUp,ScrollDown,Orange.png,3,Positive,Incongruent,,,,,0,0,0,0,,,,,,,,,,,,,,,,,,,,,0,41,41,41,,,,,,,,,,,,,,,,,,,,,,,,,,,,,,,,,,,,,,,,,,,,,,,,,,,,,,,,,,,,,,,,,,,,,,,,,1.743827154239019,1.2650159999902826,567.4299306999892,None,ScrollUp,정답입니다,567.4299306999892,None,567.4299306999892,None,567.4299306999892,None,567.4299306999892,None,568.5900628999807,None,568.5900628999807,569.0900804999983,,,,,,,,,,,,,,,,208,2023-03-31_13h57.06.315,FishGame,2022.1.1,60.061971939066574,
,1,넌 매력적이야,2,Orange,B,6.125,4.666666666666667,ScrollUp,ScrollDown,Orange.png,4,Positive,Incongruent,,,,,0,0,0,0,,,,,,,,,,,,,,,,,,,,,,,,,0,0,0,0,,,,,,,,,,,,,,,,,,,,,,,,,,,,601.1206493999925,602.6260163999978,602.6426259999862,603.6061580999813,603.6561900999804,604.6091657999787,604.6091657999787,None,,,,,,,,,,,,,,,,,,,,,,,,,,,,,,,,,,1.8749999900658925,1.0230238000222016,605.7189767999807,None,ScrollUp,정답입니다,605.7189767999807,None,605.7189767999807,None,605.7189767999807,None,605.7189767999807,None,606.6393319999916,None,606.6393319999916,607.1424952999805,569.5933791999996,None,569.5933791999996,None,0.16388889,-0.117592596,1,0,0,0.016343519993824884,None,599.6060250999872,None,,,208,2023-03-31_13h57.06.315,FishGame,2022.1.1,60.061971939066574,
,2,나를 보내줘,6,Green,A,0,0,ScrollUp,ScrollDown,Green.png,4,NonTarget,NonTarget,,,,,0,0,0,0,,,,,,,,,,,,,,,,,,,,,,,,,0,1,1,1,,,,,,,,,,,,,,,,,,,,,,,,,,,,,,,,,,,,,,,,,,,,,,,,,,,,,,,,,,,,,,,,,,,,,1.9212963084379833,0.979518799984362,607.7551198999863,None,ScrollUp,정답입니다,607.7551198999863,None,607.7551198999863,None,607.7551198999863,None,607.7551198999863,None,608.6371276999998,None,608.6371276999998,609.1391873999964,,,,,,,,,,,,,,,,208,2023-03-31_13h57.06.315,FishGame,2022.1.1,60.061971939066574,
,3,넌 조심스러워,3,Green,A,4.791666666666666,4.666666666666667,ScrollDown,ScrollUp,Green.png,4,Neutral,Neutral,,,,,0,0,0,0,,,,,,,,,,,,,,,,,,,,,,,,,0,2,2,2,,,,,,,,,,,,,,,,,,,,,,,,,,,,,,,,,,,,,,,,,,,,,,,,,,,,,,,,,,,,,,,,,,,,,1.3425925895571709,0.8318789999757428,609.7554773999727,None,ScrollDown,정답입니다,609.7554773999727,None,609.7554773999727,None,609.7554773999727,None,609.7554773999727,None,610.4894496999914,None,610.4894496999914,610.9891841999779,,,,,,,,,,,,,,,,208,2023-03-31_13h57.06.315,FishGame,2022.1.1,60.061971939066574,
,4,넌 철학적이야,3,Orange,B,4.5,4.266666666666667,ScrollUp,ScrollDown,Orange.png,4,Neutral,Neutral,,,,,0,0,0,0,,,,,,,,,,,,,,,,,,,,,,,,,0,3,3,3,,,,,,,,,,,,,,,,,,,,,,,,,,,,,,,,,,,,,,,,,,,,,,,,,,,,,,,,,,,,,,,,,,,,,1.8425925970077515,0.81253039999865,611.6092068999715,None,ScrollUp,정답입니다,611.6092068999715,None,611.6092068999715,None,611.6092068999715,None,611.6092068999715,None,612.3223757999949,None,612.3223757999949,612.8223850999784,,,,,,,,,,,,,,,,208,2023-03-31_13h57.06.315,FishGame,2022.1.1,60.061971939066574,
,5,넌 쩨쩨해,5,Green,A,2.375,2.133333333333333,ScrollDown,ScrollUp,Green.png,4,Negative,Incongruent,,,,,0,0,0,0,,,,,,,,,,,,,,,,,,,,,,,,,0,4,4,4,,,,,,,,,,,,,,,,,,,,,,,,,,,,,,,,,,,,,,,,,,,,,,,,,,,,,,,,,,,,,,,,,,,,,1.2191358109315236,0.6833862999919802,613.4378105999785,None,ScrollDown,정답입니다,613.4378105999785,None,613.4378105999785,None,613.4378105999785,None,613.4378105999785,None,614.022444799979,None,614.022444799979,614.5224077999883,,,,,,,,,,,,,,,,208,2023-03-31_13h57.06.315,FishGame,2022.1.1,60.061971939066574,
,6,나를 데려가줘,6,Orange,B,0,0,ScrollDown,ScrollUp,Orange.png,4,NonTarget,NonTarget,,,,,0,0,0,0,,,,,,,,,,,,,,,,,,,,,,,,,0,5,5,5,,,,,,,,,,,,,,,,,,,,,,,,,,,,,,,,,,,,,,,,,,,,,,,,,,,,,,,,,,,,,,,,,,,,,1.1049382785956066,1.0150699999940116,615.1413425999926,None,ScrollDown,정답입니다,615.1413425999926,None,615.1413425999926,None,615.1413425999926,None,615.1413425999926,None,616.0557973999821,None,616.0557973999821,616.5557490999927,,,,,,,,,,,,,,,,208,2023-03-31_13h57.06.315,FishGame,2022.1.1,60.061971939066574,
,7,넌 고집불통이야,5,Orange,B,2.875,2,ScrollUp,ScrollDown,Orange.png,4,Negative,Congruent,,,,,0,0,0,0,,,,,,,,,,,,,,,,,,,,,,,,,0,6,6,6,,,,,,,,,,,,,,,,,,,,,,,,,,,,,,,,,,,,,,,,,,,,,,,,,,,,,,,,,,,,,,,,,,,,,1.9614197711149852,1.4810402999864891,617.1897370999795,None,ScrollUp,정답입니다,617.1897370999795,None,617.1897370999795,None,617.1897370999795,None,617.1897370999795,None,618.5556333999848,None,618.5556333999848,619.0556430999713,,,,,,,,,,,,,,,,208,2023-03-31_13h57.06.315,FishGame,2022.1.1,60.061971939066574,
,8,넌 무심해,4,Green,A,2.875,3.2,ScrollDown,ScrollUp,Green.png,4,Negative,Incongruent,,,,,0,0,0,0,,,,,,,,,,,,,,,,,,,,,,,,,0,7,7,7,,,,,,,,,,,,,,,,,,,,,,,,,,,,,,,,,,,,,,,,,,,,,,,,,,,,,,,,,,,,,,,,,,,,,1.2700617214043937,0.9109282999997959,619.6743538999872,None,ScrollDown,정답입니다,619.6743538999872,None,619.6743538999872,None,619.6743538999872,None,619.6743538999872,None,620.4866692999785,None,620.4866692999785,620.9866175999923,,,,,,,,,,,,,,,,208,2023-03-31_13h57.06.315,FishGame,2022.1.1,60.061971939066574,
,9,넌 정겨워,1,Green,A,5.791666666666667,5.666666666666667,ScrollDown,ScrollUp,Green.png,4,Positive,Congruent,,,,,0,0,0,0,,,,,,,,,,,,,,,,,,,,,,,,,0,8,8,8,,,,,,,,,,,,,,,,,,,,,,,,,,,,,,,,,,,,,,,,,,,,,,,,,,,,,,,,,,,,,,,,,,,,,1.1697530895471573,0.6985808000026736,621.6008622999943,None,ScrollDown,정답입니다,621.6008622999943,None,621.6008622999943,None,621.6008622999943,None,621.6008622999943,None,622.2033685999922,None,622.2033685999922,622.7057157999952,,,,,,,,,,,,,,,,208,2023-03-31_13h57.06.315,FishGame,2022.1.1,60.061971939066574,
,10,나를 데려가줘,6,Orange,B,0,0,ScrollDown,ScrollUp,Orange.png,4,NonTarget,NonTarget,,,,,0,0,0,0,,,,,,,,,,,,,,,,,,,,,,,,,0,9,9,9,,,,,,,,,,,,,,,,,,,,,,,,,,,,,,,,,,,,,,,,,,,,,,,,,,,,,,,,,,,,,,,,,,,,,1.0972222338120143,0.9818356999894604,623.3244709999999,None,ScrollDown,정답입니다,623.3244709999999,None,623.3244709999999,None,623.3244709999999,None,623.3244709999999,None,624.2057766999933,None,624.2057766999933,624.708843499975,,,,,,,,,,,,,,,,208,2023-03-31_13h57.06.315,FishGame,2022.1.1,60.061971939066574,
,11,넌 체제순응적이야,4,Orange,B,3,3.6,ScrollUp,ScrollDown,Orange.png,4,Negative,Congruent,,,,,0,0,0,0,,,,,,,,,,,,,,,,,,,,,,,,,0,10,10,10,,,,,,,,,,,,,,,,,,,,,,,,,,,,,,,,,,,,,,,,,,,,,,,,,,,,,,,,,,,,,,,,,,,,,1.8009259204069774,0.9150339999760035,625.3308012999769,None,ScrollUp,정답입니다,625.3308012999769,None,625.3308012999769,None,625.3308012999769,None,625.3308012999769,None,626.1388787999749,None,626.1388787999749,626.6388412999804,,,,,,,,,,,,,,,,208,2023-03-31_13h57.06.315,FishGame,2022.1.1,60.061971939066574,
,12,나를 보내줘,6,Green,A,0,0,ScrollUp,ScrollDown,Green.png,4,NonTarget,NonTarget,,,,,0,0,0,0,,,,,,,,,,,,,,,,,,,,,,,,,0,11,11,11,,,,,,,,,,,,,,,,,,,,,,,,,,,,,,,,,,,,,,,,,,,,,,,,,,,,,,,,,,,,,,,,,,,,,1.8719135870536168,1.1792576999869198,627.2554780999781,None,ScrollUp,정답입니다,627.2554780999781,None,627.2554780999781,None,627.2554780999781,None,627.2554780999781,None,628.3364794999943,None,628.3364794999943,628.8364636999904,,,,,,,,,,,,,,,,208,2023-03-31_13h57.06.315,FishGame,2022.1.1,60.061971939066574,
,13,넌 박식해,2,Green,A,5.625,3.933333333333333,ScrollDown,ScrollUp,Green.png,4,Positive,Congruent,,,,,0,0,0,0,,,,,,,,,,,,,,,,,,,,,,,,,0,12,12,12,,,,,,,,,,,,,,,,,,,,,,,,,,,,,,,,,,,,,,,,,,,,,,,,,,,,,,,,,,,,,,,,,,,,,1,1.1508166000130586,629.4569158999948,None,ScrollDown,정답입니다,629.4569158999948,None,629.4569158999948,None,629.4569158999948,None,629.4569158999948,None,630.5056477999897,None,630.5056477999897,631.0057241999893,,,,,,,,,,,,,,,,208,2023-03-31_13h57.06.315,FishGame,2022.1.1,60.061971939066574,
,14,나를 보내줘,6,Green,A,0,0,ScrollUp,ScrollDown,Green.png,4,NonTarget,NonTarget,,,,,0,0,0,0,,,,,,,,,,,,,,,,,,,,,,,,,0,13,13,13,,,,,,,,,,,,,,,,,,,,,,,,,,,,,,,,,,,,,,,,,,,,,,,,,,,,,,,,,,,,,,,,,,,,,1.5709876542290053,0.9791579000011552,631.6230246999767,None,ScrollUp,정답입니다,631.6230246999767,None,631.6230246999767,None,631.6230246999767,None,631.6230246999767,None,632.5054040999967,None,632.5054040999967,633.005351699976,,,,,,,,,,,,,,,,208,2023-03-31_13h57.06.315,FishGame,2022.1.1,60.061971939066574,
,15,넌 침착해,1,Orange,B,5.458333333333333,5.566666666666666,ScrollUp,ScrollDown,Orange.png,4,Positive,Incongruent,,,,,0,0,0,0,,,,,,,,,,,,,,,,,,,,,,,,,0,14,14,14,,,,,,,,,,,,,,,,,,,,,,,,,,,,,,,,,,,,,,,,,,,,,,,,,,,,,,,,,,,,,,,,,,,,,1.5385802456488213,1.1462001999898348,633.63136509998,None,NoResponse,무응답입니다,633.63136509998,None,633.63136509998,None,633.63136509998,None,633.63136509998,None,634.6720914999896,None,634.6720914999896,635.1699366999965,,,,,,,,,,,,,,,,208,2023-03-31_13h57.06.315,FishGame,2022.1.1,60.061971939066574,
,16,나를 데려가줘,6,Orange,B,0,0,ScrollDown,ScrollUp,Orange.png,4,NonTarget,NonTarget,,,,,0,0,0,0,,,,,,,,,,,,,,,,,,,,,,,,,0,15,15,15,,,,,,,,,,,,,,,,,,,,,,,,,,,,,,,,,,,,,,,,,,,,,,,,,,,,,,,,,,,,,,,,,,,,,1.1126543233791988,1.029568099998869,635.7879472999775,None,ScrollDown,정답입니다,635.7879472999775,None,635.7879472999775,None,635.7879472999775,None,635.7879472999775,None,636.7199265999952,None,636.7199265999952,637.2219014999864,,,,,,,,,,,,,,,,208,2023-03-31_13h57.06.315,FishGame,2022.1.1,60.061971939066574,
,17,넌 행복해,1,Green,A,6.416666666666666,6.166666666666667,ScrollDown,ScrollUp,Green.png,4,Positive,Congruent,,,,,0,0,0,0,,,,,,,,,,,,,,,,,,,,,,,,,0,16,16,16,,,,,,,,,,,,,,,,,,,,,,,,,,,,,,,,,,,,,,,,,,,,,,,,,,,,,,,,,,,,,,,,,,,,,1.1388888855775197,0.9300168000045232,637.8417429999972,None,ScrollDown,정답입니다,637.8417429999972,None,637.8417429999972,None,637.8417429999972,None,637.8417429999972,None,638.6718866999727,None,638.6718866999727,639.1718920999847,,,,,,,,,,,,,,,,208,2023-03-31_13h57.06.315,FishGame,2022.1.1,60.061971939066574,
,18,넌 겸손해,2,Orange,B,5.791666666666667,4.766666666666667,ScrollUp,ScrollDown,Orange.png,4,Positive,Incongruent,,,,,0,0,0,0,,,,,,,,,,,,,,,,,,,,,,,,,0,17,17,17,,,,,,,,,,,,,,,,,,,,,,,,,,,,,,,,,,,,,,,,,,,,,,,,,,,,,,,,,,,,,,,,,,,,,1.8935185074806213,1.0980416999955196,639.7939759999863,None,ScrollUp,정답입니다,639.7939759999863,None,639.7939759999863,None,639.7939759999863,None,639.7939759999863,None,640.7884515999758,None,640.7884515999758,641.2885046999727,,,,,,,,,,,,,,,,208,2023-03-31_13h57.06.315,FishGame,2022.1.1,60.061971939066574,
,19,나를 보내줘,6,Green,A,0,0,ScrollUp,ScrollDown,Green.png,4,NonTarget,NonTarget,,,,,0,0,0,0,,,,,,,,,,,,,,,,,,,,,,,,,0,18,18,18,,,,,,,,,,,,,,,,,,,,,,,,,,,,,,,,,,,,,,,,,,,,,,,,,,,,,,,,,,,,,,,,,,,,,1.2052469104528427,0.9629681000078563,641.9045612999762,None,ScrollDown,오답입니다,641.9045612999762,None,641.9045612999762,None,641.9045612999762,None,641.9045612999762,None,642.7719783999783,None,642.7719783999783,643.2718016999715,,,,,,,,,,,,,,,,208,2023-03-31_13h57.06.315,FishGame,2022.1.1,60.061971939066574,
,20,넌 의심없어,3,Green,A,4.166666666666667,4.6,ScrollDown,ScrollUp,Green.png,4,Neutral,Neutral,,,,,0,0,0,0,,,,,,,,,,,,,,,,,,,,,,,,,0,19,19,19,,,,,,,,,,,,,,,,,,,,,,,,,,,,,,,,,,,,,,,,,,,,,,,,,,,,,,,,,,,,,,,,,,,,,1.2438271592060726,0.9457632999983616,643.8882186999836,None,ScrollDown,정답입니다,643.8882186999836,None,643.8882186999836,None,643.8882186999836,None,643.8882186999836,None,644.7361167999916,None,644.7361167999916,645.2361147999763,,,,,,,,,,,,,,,,208,2023-03-31_13h57.06.315,FishGame,2022.1.1,60.061971939066574,
,21,넌 시시해,4,Green,A,2.666666666666667,2.966666666666667,ScrollDown,ScrollUp,Green.png,4,Negative,Incongruent,,,,,0,0,0,0,,,,,,,,,,,,,,,,,,,,,,,,,0,20,20,20,,,,,,,,,,,,,,,,,,,,,,,,,,,,,,,,,,,,,,,,,,,,,,,,,,,,,,,,,,,,,,,,,,,,,1.1851851791143417,1.5843261000118218,645.8496919999889,None,ScrollDown,정답입니다,645.8496919999889,None,645.8496919999889,None,645.8496919999889,None,645.8496919999889,None,647.338598399976,None,647.338598399976,647.8384891999885,,,,,,,,,,,,,,,,208,2023-03-31_13h57.06.315,FishGame,2022.1.1,60.061971939066574,
,22,나를 데려가줘,6,Orange,B,0,0,ScrollDown,ScrollUp,Orange.png,4,NonTarget,NonTarget,,,,,0,0,0,0,,,,,,,,,,,,,,,,,,,,,,,,,0,21,21,21,,,,,,,,,,,,,,,,,,,,,,,,,,,,,,,,,,,,,,,,,,,,,,,,,,,,,,,,,,,,,,,,,,,,,1.1975308656692505,1.0762167999928351,648.4570328999835,None,ScrollDown,정답입니다,648.4570328999835,None,648.4570328999835,None,648.4570328999835,None,648.4570328999835,None,649.4314768999757,None,649.4314768999757,649.9382852999843,,,,,,,,,,,,,,,,208,2023-03-31_13h57.06.315,FishGame,2022.1.1,60.061971939066574,
,23,넌 무정해,5,Green,A,2.5,2.2,ScrollDown,ScrollUp,Green.png,4,Negative,Incongruent,,,,,0,0,0,0,,,,,,,,,,,,,,,,,,,,,,,,,0,22,22,22,,,,,,,,,,,,,,,,,,,,,,,,,,,,,,,,,,,,,,,,,,,,,,,,,,,,,,,,,,,,,,,,,,,,,1.1080246816078823,1.3319160000246484,650.5510784999933,None,ScrollDown,정답입니다,650.5510784999933,None,650.5510784999933,None,650.5510784999933,None,650.5510784999933,None,651.788261699985,None,651.788261699985,652.2883163999941,,,,,,,,,,,,,,,,208,2023-03-31_13h57.06.315,FishGame,2022.1.1,60.061971939066574,
,24,넌 긍정적이야,1,Orange,B,6.041666666666667,6.066666666666666,ScrollUp,ScrollDown,Orange.png,4,Positive,Incongruent,,,,,0,0,0,0,,,,,,,,,,,,,,,,,,,,,,,,,0,23,23,23,,,,,,,,,,,,,,,,,,,,,,,,,,,,,,,,,,,,,,,,,,,,,,,,,,,,,,,,,,,,,,,,,,,,,1.8456790000200272,0.996185099997092,652.9164218999795,None,ScrollUp,정답입니다,652.9164218999795,None,652.9164218999795,None,652.9164218999795,None,652.9164218999795,None,653.8048288999998,None,653.8048288999998,654.3048829999752,,,,,,,,,,,,,,,,208,2023-03-31_13h57.06.315,FishGame,2022.1.1,60.061971939066574,
,25,나를 보내줘,6,Green,A,0,0,ScrollUp,ScrollDown,Green.png,4,NonTarget,NonTarget,,,,,0,0,0,0,,,,,,,,,,,,,,,,,,,,,,,,,0,24,24,24,,,,,,,,,,,,,,,,,,,,,,,,,,,,,,,,,,,,,,,,,,,,,,,,,,,,,,,,,,,,,,,,,,,,,1.6234567910432816,1.1817519999749493,654.9251147999894,None,ScrollUp,정답입니다,654.9251147999894,None,654.9251147999894,None,654.9251147999894,None,654.9251147999894,None,656.0048655999999,None,656.0048655999999,656.5049941999896,,,,,,,,,,,,,,,,208,2023-03-31_13h57.06.315,FishGame,2022.1.1,60.061971939066574,
,26,넌 시기심이 많아,5,Orange,B,2.458333333333333,2.233333333333333,ScrollUp,ScrollDown,Orange.png,4,Negative,Congruent,,,,,0,0,0,0,,,,,,,,,,,,,,,,,,,,,,,,,0,25,25,25,,,,,,,,,,,,,,,,,,,,,,,,,,,,,,,,,,,,,,,,,,,,,,,,,,,,,,,,,,,,,,,,,,,,,1.6033950597047806,0.9315300000016578,657.1266090999998,None,ScrollUp,정답입니다,657.1266090999998,None,657.1266090999998,None,657.1266090999998,None,657.1266090999998,None,657.954923399986,None,657.954923399986,658.4547197999782,,,,,,,,,,,,,,,,208,2023-03-31_13h57.06.315,FishGame,2022.1.1,60.061971939066574,
,27,넌 탁월해,2,Green,A,5.708333333333334,4.5,ScrollDown,ScrollUp,Green.png,4,Positive,Congruent,,,,,0,0,0,0,,,,,,,,,,,,,,,,,,,,,,,,,0,26,26,26,,,,,,,,,,,,,,,,,,,,,,,,,,,,,,,,,,,,,,,,,,,,,,,,,,,,,,,,,,,,,,,,,,,,,1.1790123482545216,1.079521300009219,659.0714208999998,None,ScrollDown,정답입니다,659.0714208999998,None,659.0714208999998,None,659.0714208999998,None,659.0714208999998,None,660.0526899999822,None,660.0526899999822,660.5547440999944,,,,,,,,,,,,,,,,208,2023-03-31_13h57.06.315,FishGame,2022.1.1,60.061971939066574,
,28,나를 데려가줘,6,Orange,B,0,0,ScrollDown,ScrollUp,Orange.png,4,NonTarget,NonTarget,,,,,0,0,0,0,,,,,,,,,,,,,,,,,,,,,,,,,0,27,27,27,,,,,,,,,,,,,,,,,,,,,,,,,,,,,,,,,,,,,,,,,,,,,,,,,,,,,,,,,,,,,,,,,,,,,1.3858024676640828,3.0983118999865837,661.1738110999868,None,ScrollDown,정답입니다,661.1738110999868,None,661.1738110999868,None,661.1738110999868,None,661.1738110999868,None,664.1714067999856,None,664.1714067999856,664.6712782999966,,,,,,,,,,,,,,,,208,2023-03-31_13h57.06.315,FishGame,2022.1.1,60.061971939066574,
,29,넌 조용해,3,Orange,B,4.333333333333333,4.166666666666667,ScrollUp,ScrollDown,Orange.png,4,Neutral,Neutral,,,,,0,0,0,0,,,,,,,,,,,,,,,,,,,,,,,,,0,28,28,28,,,,,,,,,,,,,,,,,,,,,,,,,,,,,,,,,,,,,,,,,,,,,,,,,,,,,,,,,,,,,,,,,,,,,1.7052469179034233,1.0462556999991648,665.2997423999768,None,ScrollUp,정답입니다,665.2997423999768,None,665.2997423999768,None,665.2997423999768,None,665.2997423999768,None,666.2378566999978,None,666.2378566999978,666.7379147999745,,,,,,,,,,,,,,,,208,2023-03-31_13h57.06.315,FishGame,2022.1.1,60.061971939066574,
,30,넌 다정해,1,Green,A,5.833333333333334,5.7,ScrollDown,ScrollUp,Green.png,4,Positive,Congruent,,,,,0,0,0,0,,,,,,,,,,,,,,,,,,,,,,,,,0,29,29,29,,,,,,,,,,,,,,,,,,,,,,,,,,,,,,,,,,,,,,,,,,,,,,,,,,,,,,,,,,,,,,,,,,,,,1.3117283980051675,1.1485925999877509,667.3566521999892,None,ScrollDown,정답입니다,667.3566521999892,None,667.3566521999892,None,667.3566521999892,None,667.3566521999892,None,668.402623699978,None,668.402623699978,668.9052651999809,,,,,,,,,,,,,,,,208,2023-03-31_13h57.06.315,FishGame,2022.1.1,60.061971939066574,
,31,넌 능력있어,2,Orange,B,6.166666666666666,4.6,ScrollUp,ScrollDown,Orange.png,4,Positive,Incongruent,,,,,0,0,0,0,,,,,,,,,,,,,,,,,,,,,,,,,0,30,30,30,,,,,,,,,,,,,,,,,,,,,,,,,,,,,,,,,,,,,,,,,,,,,,,,,,,,,,,,,,,,,,,,,,,,,1.4938271606030564,0.8794171999907121,669.5278280999919,None,NoResponse,무응답입니다,669.5278280999919,None,669.5278280999919,None,669.5278280999919,None,669.5278280999919,None,670.3024910999811,None,670.3024910999811,670.8044945999864,,,,,,,,,,,,,,,,208,2023-03-31_13h57.06.315,FishGame,2022.1.1,60.061971939066574,
,32,넌 불쾌해,5,Green,A,2.125,1.933333333333333,ScrollDown,ScrollUp,Green.png,4,Negative,Incongruent,,,,,0,0,0,0,,,,,,,,,,,,,,,,,,,,,,,,,0,31,31,31,,,,,,,,,,,,,,,,,,,,,,,,,,,,,,,,,,,,,,,,,,,,,,,,,,,,,,,,,,,,,,,,,,,,,1.3564814776182175,0.7964798999892082,671.4205412999727,None,ScrollDown,정답입니다,671.4205412999727,None,671.4205412999727,None,671.4205412999727,None,671.4205412999727,None,672.1191683999787,None,672.1191683999787,672.6211800999881,,,,,,,,,,,,,,,,208,2023-03-31_13h57.06.315,FishGame,2022.1.1,60.061971939066574,
,33,나를 데려가줘,6,Orange,B,0,0,ScrollDown,ScrollUp,Orange.png,4,NonTarget,NonTarget,,,,,0,0,0,0,,,,,,,,,,,,,,,,,,,,,,,,,0,32,32,32,,,,,,,,,,,,,,,,,,,,,,,,,,,,,,,,,,,,,,,,,,,,,,,,,,,,,,,,,,,,,,,,,,,,,1.2268518557151158,1.0465324000106193,673.240486499999,None,ScrollDown,정답입니다,673.240486499999,None,673.240486499999,None,673.240486499999,None,673.240486499999,None,674.1856888999755,None,674.1856888999755,674.6860549999983,,,,,,,,,,,,,,,,208,2023-03-31_13h57.06.315,FishGame,2022.1.1,60.061971939066574,
,34,넌 유순해,3,Green,A,4.458333333333333,5,ScrollDown,ScrollUp,Green.png,4,Neutral,Neutral,,,,,0,0,0,0,,,,,,,,,,,,,,,,,,,,,,,,,0,33,33,33,,,,,,,,,,,,,,,,,,,,,,,,,,,,,,,,,,,,,,,,,,,,,,,,,,,,,,,,,,,,,,,,,,,,,1.2499999900658925,0.8321731000032742,675.3011461999849,None,ScrollDown,정답입니다,675.3011461999849,None,675.3011461999849,None,675.3011461999849,None,675.3011461999849,None,676.0381210999913,None,676.0381210999913,676.5378818999743,,,,,,,,,,,,,,,,208,2023-03-31_13h57.06.315,FishGame,2022.1.1,60.061971939066574,
,35,넌 근심스러워,4,Orange,B,2.708333333333333,3.133333333333333,ScrollUp,ScrollDown,Orange.png,4,Negative,Congruent,,,,,0,0,0,0,,,,,,,,,,,,,,,,,,,,,,,,,0,34,34,34,,,,,,,,,,,,,,,,,,,,,,,,,,,,,,,,,,,,,,,,,,,,,,,,,,,,,,,,,,,,,,,,,,,,,1.5246913575877747,1.0817750999995042,677.1711416999751,None,NoResponse,무응답입니다,677.1711416999751,None,677.1711416999751,None,677.1711416999751,None,677.1711416999751,None,678.1380479999934,None,678.1380479999934,678.6377495999914,,,,,,,,,,,,,,,,208,2023-03-31_13h57.06.315,FishGame,2022.1.1,60.061971939066574,
,36,넌 세련되었어,2,Green,A,5.5,4.6,ScrollDown,ScrollUp,Green.png,4,Positive,Congruent,,,,,0,0,0,0,,,,,,,,,,,,,,,,,,,,,,,,,0,35,35,35,,,,,,,,,,,,,,,,,,,,,,,,,,,,,,,,,,,,,,,,,,,,,,,,,,,,,,,,,,,,,,,,,,,,,1.3811728383104007,0.8631264999858104,679.2603768999979,None,ScrollDown,정답입니다,679.2603768999979,None,679.2603768999979,None,679.2603768999979,None,679.2603768999979,None,680.0211508999928,None,680.0211508999928,680.5210469999874,,,,,,,,,,,,,,,,208,2023-03-31_13h57.06.315,FishGame,2022.1.1,60.061971939066574,
,37,나를 보내줘,6,Green,A,0,0,ScrollUp,ScrollDown,Green.png,4,NonTarget,NonTarget,,,,,0,0,0,0,,,,,,,,,,,,,,,,,,,,,,,,,0,36,36,36,,,,,,,,,,,,,,,,,,,,,,,,,,,,,,,,,,,,,,,,,,,,,,,,,,,,,,,,,,,,,,,,,,,,,1.658950611948967,1.196354700019583,681.1379387999768,None,ScrollUp,정답입니다,681.1379387999768,None,681.1379387999768,None,681.1379387999768,None,681.1379387999768,None,682.2376308999956,None,682.2376308999956,682.737578899978,,,,,,,,,,,,,,,,208,2023-03-31_13h57.06.315,FishGame,2022.1.1,60.061971939066574,
,38,넌 확고해,3,Orange,B,4.708333333333334,4.566666666666666,ScrollUp,ScrollDown,Orange.png,4,Neutral,Neutral,,,,,0,0,0,0,,,,,,,,,,,,,,,,,,,,,,,,,0,37,37,37,,,,,,,,,,,,,,,,,,,,,,,,,,,,,,,,,,,,,,,,,,,,,,,,,,,,,,,,,,,,,,,,,,,,,1.765432099501292,1.1125729999912437,683.3612322999979,None,ScrollUp,정답입니다,683.3612322999979,None,683.3612322999979,None,683.3612322999979,None,683.3612322999979,None,684.3709835999762,None,684.3709835999762,684.8709296999732,,,,,,,,,,,,,,,,208,2023-03-31_13h57.06.315,FishGame,2022.1.1,60.061971939066574,
,39,넌 이해심이 많아,1,Orange,B,6.041666666666668,5.533333333333333,ScrollUp,ScrollDown,Orange.png,4,Positive,Incongruent,,,,,0,0,0,0,,,,,,,,,,,,,,,,,,,,,,,,,0,38,38,38,,,,,,,,,,,,,,,,,,,,,,,,,,,,,,,,,,,,,,,,,,,,,,,,,,,,,,,,,,,,,,,,,,,,,1.9074074079593022,0.931529599998612,685.4905202999944,None,ScrollUp,정답입니다,685.4905202999944,None,685.4905202999944,None,685.4905202999944,None,685.4905202999944,None,686.3208926999941,None,686.3208926999941,686.8207999999868,,,,,,,,,,,,,,,,208,2023-03-31_13h57.06.315,FishGame,2022.1.1,60.061971939066574,
,40,나를 보내줘,6,Green,A,0,0,ScrollUp,ScrollDown,Green.png,4,NonTarget,NonTarget,,,,,0,0,0,0,,,,,,,,,,,,,,,,,,,,,,,,,0,39,39,39,,,,,,,,,,,,,,,,,,,,,,,,,,,,,,,,,,,,,,,,,,,,,,,,,,,,,,,,,,,,,,,,,,,,,2,1.1149936000001617,687.4353627999953,None,ScrollUp,정답입니다,687.4353627999953,None,687.4353627999953,None,687.4353627999953,None,687.4353627999953,None,688.4542173999944,None,688.4542173999944,688.9541489999974,,,,,,,,,,,,,,,,208,2023-03-31_13h57.06.315,FishGame,2022.1.1,60.061971939066574,
,41,넌 거칠어,4,Green,A,2.625,3.033333333333333,ScrollDown,ScrollUp,Green.png,4,Negative,Incongruent,,,,,0,0,0,0,,,,,,,,,,,,,,,,,,,,,,,,,0,40,40,40,,,,,,,,,,,,,,,,,,,,,,,,,,,,,,,,,,,,,,,,,,,,,,,,,,,,,,,,,,,,,,,,,,,,,1.2067901243766148,1.0816765000054147,689.5708497999876,None,ScrollDown,정답입니다,689.5708497999876,None,689.5708497999876,None,689.5708497999876,None,689.5708497999876,None,690.5542429999914,None,690.5542429999914,691.0540631999902,,,,,,,,,,,,,,,,208,2023-03-31_13h57.06.315,FishGame,2022.1.1,60.061971939066574,
,42,넌 변덕맞아,5,Orange,B,2.75,2.166666666666667,ScrollUp,ScrollDown,Orange.png,4,Negative,Congruent,,,,,0,0,0,0,,,,,,,,,,,,,,,,,,,,,,,,,0,41,41,41,,,,,,,,,,,,,,,,,,,,,,,,,,,,,,,,,,,,,,,,,,,,,,,,,,,,,,,,,,,,,,,,,,,,,2,1.6294858000183012,691.6767393999908,None,ScrollUp,정답입니다,691.6767393999908,None,691.6767393999908,None,691.6767393999908,None,691.6767393999908,None,693.2020392999984,None,693.2020392999984,693.7045384999947,,,,,,,,,,,,,,,,208,2023-03-31_13h57.06.315,FishGame,2022.1.1,60.061971939066574,
,43,나를 데려가줘,6,Orange,B,0,0,ScrollDown,ScrollUp,Orange.png,4,NonTarget,NonTarget,,,,,0,0,0,0,,,,,,,,,,,,,,,,,,,,,,,,,0,42,42,42,,,,,,,,,,,,,,,,,,,,,,,,,,,,,,,,,,,,,,,,,,,,,,,,,,,,,,,,,,,,,,,,,,,,,1.1080246816078823,1.1643608000013046,694.3220688999863,None,ScrollDown,정답입니다,694.3220688999863,None,694.3220688999863,None,694.3220688999863,None,694.3220688999863,None,695.3875679999765,None,695.3875679999765,695.8873948999972,,,,,,,,,,,,,,,,208,2023-03-31_13h57.06.315,FishGame,2022.1.1,60.061971939066574,
,44,넌 외로워,4,Orange,B,2.833333333333333,3.3,ScrollUp,ScrollDown,Orange.png,4,Negative,Congruent,,,,,0,0,0,0,,,,,,,,,,,,,,,,,,,,,,,,,0,43,43,43,,,,,,,,,,,,,,,,,,,,,,,,,,,,,,,,,,,,,,,,,,,,,,,,,,,,,,,,,,,,,,,,,,,,,1.4830246918524306,1.0617217000108212,696.5085624999774,None,NoResponse,무응답입니다,696.5085624999774,None,696.5085624999774,None,696.5085624999774,None,696.5085624999774,None,697.4706512999837,None,697.4706512999837,697.9706426999765,,,,,,,,,,,,,,,,208,2023-03-31_13h57.06.315,FishGame,2022.1.1,60.061971939066574,
,1,넌 불평스러워,5,Green,A,2.25,2.066666666666667,ScrollDown,ScrollUp,Green.png,5,Negative,Incongruent,,,,,0,0,0,0,,,,,,,,,,,,,,,,,,,,,,,,,,,,,0,0,0,0,,,,,,,,,,,,,,,,,,,,,,,,731.0533292999899,732.5533828999905,732.5867438999994,733.5367237999744,733.586768899986,734.5397411999875,734.5397411999875,None,,,,,,,,,,,,,,,,,,,,,,,,,,,,,,,,,,1.2191358109315236,1.0037666999851353,735.6445148999919,None,ScrollDown,정답입니다,735.6445148999919,None,735.6445148999919,None,735.6445148999919,None,735.6445148999919,None,736.5531543999969,None,736.5531543999969,737.0530405999743,698.4705821999814,None,698.4705821999814,None,0.15092592,-0.11296296,1,0,0,0.016137019993038848,None,728.469946999976,None,,,208,2023-03-31_13h57.06.315,FishGame,2022.1.1,60.061971939066574,
,2,나를 보내줘,6,Green,A,0,0,ScrollUp,ScrollDown,Green.png,5,NonTarget,NonTarget,,,,,0,0,0,0,,,,,,,,,,,,,,,,,,,,,,,,,,,,,0,1,1,1,,,,,,,,,,,,,,,,,,,,,,,,,,,,,,,,,,,,,,,,,,,,,,,,,,,,,,,,,,,,,,,,,1.549382715175549,0.9649552000046242,737.6667111999996,None,NoResponse,무응답입니다,737.6667111999996,None,737.6667111999996,None,737.6667111999996,None,737.6667111999996,None,738.5343356999801,None,738.5343356999801,739.0363567999739,,,,,,,,,,,,,,,,208,2023-03-31_13h57.06.315,FishGame,2022.1.1,60.061971939066574,
,3,넌 다재다능해,2,Orange,B,6.208333333333333,4.5,ScrollUp,ScrollDown,Orange.png,5,Positive,Incongruent,,,,,0,0,0,0,,,,,,,,,,,,,,,,,,,,,,,,,,,,,0,2,2,2,,,,,,,,,,,,,,,,,,,,,,,,,,,,,,,,,,,,,,,,,,,,,,,,,,,,,,,,,,,,,,,,,1.8225308656692505,0.9987547999771778,739.6550636999891,None,ScrollUp,정답입니다,739.6550636999891,None,739.6550636999891,None,739.6550636999891,None,739.6550636999891,None,740.5532465999713,None,740.5532465999713,741.0530537999875,,,,,,,,,,,,,,,,208,2023-03-31_13h57.06.315,FishGame,2022.1.1,60.061971939066574,
,4,넌 과감해,3,Green,A,4.833333333333334,4.6,ScrollDown,ScrollUp,Green.png,5,Neutral,Neutral,,,,,0,0,0,0,,,,,,,,,,,,,,,,,,,,,,,,,,,,,0,3,3,3,,,,,,,,,,,,,,,,,,,,,,,,,,,,,,,,,,,,,,,,,,,,,,,,,,,,,,,,,,,,,,,,,1.1589506169160206,0.8624009999912232,741.6747197999794,None,ScrollDown,정답입니다,741.6747197999794,None,741.6747197999794,None,741.6747197999794,None,741.6747197999794,None,742.4365991999803,None,742.4365991999803,742.9363216999918,,,,,,,,,,,,,,,,208,2023-03-31_13h57.06.315,FishGame,2022.1.1,60.061971939066574,
,5,넌 고분고분해,3,Orange,B,3.75,4.033333333333333,ScrollUp,ScrollDown,Orange.png,5,Neutral,Neutral,,,,,0,0,0,0,,,,,,,,,,,,,,,,,,,,,,,,,,,,,0,4,4,4,,,,,,,,,,,,,,,,,,,,,,,,,,,,,,,,,,,,,,,,,,,,,,,,,,,,,,,,,,,,,,,,,2,0.8985782999952789,743.5579809999908,None,ScrollUp,정답입니다,743.5579809999908,None,743.5579809999908,None,743.5579809999908,None,743.5579809999908,None,744.3530594999902,None,744.3530594999902,744.8530782999878,,,,,,,,,,,,,,,,208,2023-03-31_13h57.06.315,FishGame,2022.1.1,60.061971939066574,
,6,나를 보내줘,6,Green,A,0,0,ScrollUp,ScrollDown,Green.png,5,NonTarget,NonTarget,,,,,0,0,0,0,,,,,,,,,,,,,,,,,,,,,,,,,,,,,0,5,5,5,,,,,,,,,,,,,,,,,,,,,,,,,,,,,,,,,,,,,,,,,,,,,,,,,,,,,,,,,,,,,,,,,1.9012345770994823,0.929589000006672,745.4694716999948,None,ScrollUp,정답입니다,745.4694716999948,None,745.4694716999948,None,745.4694716999948,None,745.4694716999948,None,746.3028515999904,None,746.3028515999904,746.8028389999818,,,,,,,,,,,,,,,,208,2023-03-31_13h57.06.315,FishGame,2022.1.1,60.061971939066574,
,7,넌 잘 잊어,4,Green,A,3,3.7,ScrollDown,ScrollUp,Green.png,5,Negative,Incongruent,,,,,0,0,0,0,,,,,,,,,,,,,,,,,,,,,,,,,,,,,0,6,6,6,,,,,,,,,,,,,,,,,,,,,,,,,,,,,,,,,,,,,,,,,,,,,,,,,,,,,,,,,,,,,,,,,1.2191358109315236,0.9480234000075143,747.4215591999819,None,ScrollDown,정답입니다,747.4215591999819,None,747.4215591999819,None,747.4215591999819,None,747.4215591999819,None,748.2695685999934,None,748.2695685999934,748.769539699977,,,,,,,,,,,,,,,,208,2023-03-31_13h57.06.315,FishGame,2022.1.1,60.061971939066574,
,8,넌 탐구심이없어,4,Orange,B,2.833333333333333,3.066666666666667,ScrollUp,ScrollDown,Orange.png,5,Negative,Congruent,,,,,0,0,0,0,,,,,,,,,,,,,,,,,,,,,,,,,,,,,0,7,7,7,,,,,,,,,,,,,,,,,,,,,,,,,,,,,,,,,,,,,,,,,,,,,,,,,,,,,,,,,,,,,,,,,1.8132716069618862,0.9296801000018604,749.3891525999934,None,ScrollUp,정답입니다,749.3891525999934,None,749.3891525999934,None,749.3891525999934,None,749.3891525999934,None,750.2172095999995,None,750.2172095999995,750.717398799985,,,,,,,,,,,,,,,,208,2023-03-31_13h57.06.315,FishGame,2022.1.1,60.061971939066574,
,9,나를 데려가줘,6,Orange,B,0,0,ScrollDown,ScrollUp,Orange.png,5,NonTarget,NonTarget,,,,,0,0,0,0,,,,,,,,,,,,,,,,,,,,,,,,,,,,,0,8,8,8,,,,,,,,,,,,,,,,,,,,,,,,,,,,,,,,,,,,,,,,,,,,,,,,,,,,,,,,,,,,,,,,,1.1450617164373398,1.0318898000114132,751.3334147999994,None,ScrollDown,정답입니다,751.3334147999994,None,751.3334147999994,None,751.3334147999994,None,751.3334147999994,None,752.2671980999876,None,752.2671980999876,752.769558799977,,,,,,,,,,,,,,,,208,2023-03-31_13h57.06.315,FishGame,2022.1.1,60.061971939066574,
,10,넌 참되어,2,Green,A,6.041666666666664,4.733333333333333,ScrollDown,ScrollUp,Green.png,5,Positive,Congruent,,,,,0,0,0,0,,,,,,,,,,,,,,,,,,,,,,,,,,,,,0,9,9,9,,,,,,,,,,,,,,,,,,,,,,,,,,,,,,,,,,,,,,,,,,,,,,,,,,,,,,,,,,,,,,,,,1.0015431940555573,0.8650137000076938,753.3855383999762,None,ScrollDown,정답입니다,753.3855383999762,None,753.3855383999762,None,753.3855383999762,None,753.3855383999762,None,754.1531047999742,None,754.1531047999742,754.6562343999976,,,,,,,,,,,,,,,,208,2023-03-31_13h57.06.315,FishGame,2022.1.1,60.061971939066574,
,11,넌 생기있어,1,Orange,B,5.875,5.633333333333334,ScrollUp,ScrollDown,Orange.png,5,Positive,Incongruent,,,,,0,0,0,0,,,,,,,,,,,,,,,,,,,,,,,,,,,,,0,10,10,10,,,,,,,,,,,,,,,,,,,,,,,,,,,,,,,,,,,,,,,,,,,,,,,,,,,,,,,,,,,,,,,,,1.7885802586873372,1.1983123999962118,755.2716757999733,None,ScrollUp,정답입니다,755.2716757999733,None,755.2716757999733,None,755.2716757999733,None,755.2716757999733,None,756.3693674999813,None,756.3693674999813,756.8693963999976,,,,,,,,,,,,,,,,208,2023-03-31_13h57.06.315,FishGame,2022.1.1,60.061971939066574,
,12,넌 비사교적이야,4,Orange,B,2.875,2.9,ScrollUp,ScrollDown,Orange.png,5,Negative,Congruent,,,,,0,0,0,0,,,,,,,,,,,,,,,,,,,,,,,,,,,,,0,11,11,11,,,,,,,,,,,,,,,,,,,,,,,,,,,,,,,,,,,,,,,,,,,,,,,,,,,,,,,,,,,,,,,,,1.7762345721324284,0.8813969000184443,757.486742899986,None,ScrollUp,정답입니다,757.486742899986,None,757.486742899986,None,757.486742899986,None,757.486742899986,None,758.2672378999996,None,758.2672378999996,758.7692443999986,,,,,,,,,,,,,,,,208,2023-03-31_13h57.06.315,FishGame,2022.1.1,60.061971939066574,
,13,나를 데려가줘,6,Orange,B,0,0,ScrollDown,ScrollUp,Orange.png,5,NonTarget,NonTarget,,,,,0,0,0,0,,,,,,,,,,,,,,,,,,,,,,,,,,,,,0,12,12,12,,,,,,,,,,,,,,,,,,,,,,,,,,,,,,,,,,,,,,,,,,,,,,,,,,,,,,,,,,,,,,,,,1.1481481442848842,0.9632292999885976,759.3843366999936,None,ScrollDown,정답입니다,759.3843366999936,None,759.3843366999936,None,759.3843366999936,None,759.3843366999936,None,760.2527329999721,None,760.2527329999721,760.7526243999891,,,,,,,,,,,,,,,,208,2023-03-31_13h57.06.315,FishGame,2022.1.1,60.061971939066574,
,14,넌 고독해,4,Green,A,2.916666666666667,3.233333333333333,ScrollDown,ScrollUp,Green.png,5,Negative,Incongruent,,,,,0,0,0,0,,,,,,,,,,,,,,,,,,,,,,,,,,,,,0,13,13,13,,,,,,,,,,,,,,,,,,,,,,,,,,,,,,,,,,,,,,,,,,,,,,,,,,,,,,,,,,,,,,,,,1.0817901194095612,0.8623913000046741,761.3660319999908,None,ScrollDown,정답입니다,761.3660319999908,None,761.3660319999908,None,761.3660319999908,None,761.3660319999908,None,762.1335869999893,None,762.1335869999893,762.633874399995,,,,,,,,,,,,,,,,208,2023-03-31_13h57.06.315,FishGame,2022.1.1,60.061971939066574,
,15,넌 신경질적이야,5,Orange,B,2.375,2.233333333333333,ScrollUp,ScrollDown,Orange.png,5,Negative,Congruent,,,,,0,0,0,0,,,,,,,,,,,,,,,,,,,,,,,,,,,,,0,14,14,14,,,,,,,,,,,,,,,,,,,,,,,,,,,,,,,,,,,,,,,,,,,,,,,,,,,,,,,,,,,,,,,,,1.7916666616996129,1.0297023000021,763.2571395999985,None,ScrollUp,정답입니다,763.2571395999985,None,763.2571395999985,None,763.2571395999985,None,763.2571395999985,None,764.1835919999867,None,764.1835919999867,764.6860052999982,,,,,,,,,,,,,,,,208,2023-03-31_13h57.06.315,FishGame,2022.1.1,60.061971939066574,
,16,넌 똑똑해,2,Orange,B,5.666666666666667,3.966666666666667,ScrollUp,ScrollDown,Orange.png,5,Positive,Incongruent,,,,,0,0,0,0,,,,,,,,,,,,,,,,,,,,,,,,,,,,,0,15,15,15,,,,,,,,,,,,,,,,,,,,,,,,,,,,,,,,,,,,,,,,,,,,,,,,,,,,,,,,,,,,,,,,,1.634259263674418,1.048071400000481,765.3107796999975,None,ScrollUp,정답입니다,765.3107796999975,None,765.3107796999975,None,765.3107796999975,None,765.3107796999975,None,766.2527612999838,None,766.2527612999838,766.7560744999791,,,,,,,,,,,,,,,,208,2023-03-31_13h57.06.315,FishGame,2022.1.1,60.061971939066574,
,17,나를 보내줘,6,Green,A,0,0,ScrollUp,ScrollDown,Green.png,5,NonTarget,NonTarget,,,,,0,0,0,0,,,,,,,,,,,,,,,,,,,,,,,,,,,,,0,16,16,16,,,,,,,,,,,,,,,,,,,,,,,,,,,,,,,,,,,,,,,,,,,,,,,,,,,,,,,,,,,,,,,,,1.2422839452823002,1.3962189999874681,767.3672334000003,None,ScrollDown,오답입니다,767.3672334000003,None,767.3672334000003,None,767.3672334000003,None,767.3672334000003,None,768.6692092999874,None,768.6692092999874,769.1691475999833,,,,,,,,,,,,,,,,208,2023-03-31_13h57.06.315,FishGame,2022.1.1,60.061971939066574,
,18,넌 협조적이야,1,Green,A,5.625,5.666666666666667,ScrollDown,ScrollUp,Green.png,5,Positive,Congruent,,,,,0,0,0,0,,,,,,,,,,,,,,,,,,,,,,,,,,,,,0,17,17,17,,,,,,,,,,,,,,,,,,,,,,,,,,,,,,,,,,,,,,,,,,,,,,,,,,,,,,,,,,,,,,,,,1.248456800977389,0.8624161000188906,769.7898563999915,None,ScrollDown,정답입니다,769.7898563999915,None,769.7898563999915,None,769.7898563999915,None,769.7898563999915,None,770.5503194999765,None,770.5503194999765,771.0525499999931,,,,,,,,,,,,,,,,208,2023-03-31_13h57.06.315,FishGame,2022.1.1,60.061971939066574,
,19,나를 데려가줘,6,Orange,B,0,0,ScrollDown,ScrollUp,Orange.png,5,NonTarget,NonTarget,,,,,0,0,0,0,,,,,,,,,,,,,,,,,,,,,,,,,,,,,0,18,18,18,,,,,,,,,,,,,,,,,,,,,,,,,,,,,,,,,,,,,,,,,,,,,,,,,,,,,,,,,,,,,,,,,1.8271604826052983,0.9813510999956634,771.669159299985,None,ScrollUp,오답입니다,771.669159299985,None,771.669159299985,None,771.669159299985,None,771.669159299985,None,772.5523610999808,None,772.5523610999808,773.0523998999852,,,,,,,,,,,,,,,,208,2023-03-31_13h57.06.315,FishGame,2022.1.1,60.061971939066574,
,20,넌 몰인정해,5,Orange,B,2.541666666666667,2.066666666666667,ScrollUp,ScrollDown,Orange.png,5,Negative,Congruent,,,,,0,0,0,0,,,,,,,,,,,,,,,,,,,,,,,,,,,,,0,19,19,19,,,,,,,,,,,,,,,,,,,,,,,,,,,,,,,,,,,,,,,,,,,,,,,,,,,,,,,,,,,,,,,,,1.8703703731298447,0.9128315999987535,773.676607899979,None,ScrollUp,정답입니다,773.676607899979,None,773.676607899979,None,773.676607899979,None,773.676607899979,None,774.4836546999868,None,774.4836546999868,774.9856027999776,,,,,,,,,,,,,,,,208,2023-03-31_13h57.06.315,FishGame,2022.1.1,60.061971939066574,
,21,나를 데려가줘,6,Orange,B,0,0,ScrollDown,ScrollUp,Orange.png,5,NonTarget,NonTarget,,,,,0,0,0,0,,,,,,,,,,,,,,,,,,,,,,,,,,,,,0,20,20,20,,,,,,,,,,,,,,,,,,,,,,,,,,,,,,,,,,,,,,,,,,,,,,,,,,,,,,,,,,,,,,,,,1.9768518606821697,0.8293299000069965,775.6014603999793,None,ScrollUp,오답입니다,775.6014603999793,None,775.6014603999793,None,775.6014603999793,None,775.6014603999793,None,776.3335932999908,None,776.3335932999908,776.8355769999907,,,,,,,,,,,,,,,,208,2023-03-31_13h57.06.315,FishGame,2022.1.1,60.061971939066574,
