name,TrialNum,Word,WordCategory,FishType,WordList,WordValence,WordReputation,CorrectResp,IncorrectResp,FishTypeFile,Round,WordType,Condition,LoopforOrange.thisRepN,LoopforOrange.thisTrialN,LoopforOrange.thisN,LoopforOrange.thisIndex,OrangeInstLoop.thisRepN,OrangeInstLoop.thisTrialN,OrangeInstLoop.thisN,OrangeInstLoop.thisIndex,OrangePrac.thisRepN,OrangePrac.thisTrialN,OrangePrac.thisN,OrangePrac.thisIndex,temp1.thisRepN,temp1.thisTrialN,temp1.thisN,temp1.thisIndex,OrangeRound1.thisRepN,OrangeRound1.thisTrialN,OrangeRound1.thisN,OrangeRound1.thisIndex,OrangeRound2.thisRepN,OrangeRound2.thisTrialN,OrangeRound2.thisN,OrangeRound2.thisIndex,OrangeRound3.thisRepN,OrangeRound3.thisTrialN,OrangeRound3.thisN,OrangeRound3.thisIndex,OrangeRound4.thisRepN,OrangeRound4.thisTrialN,OrangeRound4.thisN,OrangeRound4.thisIndex,OrangeRound5.thisRepN,OrangeRound5.thisTrialN,OrangeRound5.thisN,OrangeRound5.thisIndex,LoopForGreen.thisRepN,LoopForGreen.thisTrialN,LoopForGreen.thisN,LoopForGreen.thisIndex,text_2.started,text_2.stopped,text_3.started,text_3.stopped,key_resp.keys,key_resp.rt,key_resp.started,key_resp.stopped,PassI_2.started,PassI_2.stopped,PassInst_2.keys,PassInst_2.rt,PassInst_2.started,PassInst_2.stopped,mouse_2.x,mouse_2.y,mouse_2.leftButton,mouse_2.midButton,mouse_2.rightButton,mouse_2.started,mouse_2.stopped,image.started,image.stopped,text_5.started,text_5.stopped,text_6.started,text_6.stopped,text_7.started,text_7.stopped,text_8.started,text_8.stopped,slider_2.response,slider_2.rt,slider_2.started,slider_2.stopped,Response_2,Feedback_2,BackGround_2.started,BackGround_2.stopped,Fish_2.started,Fish_2.stopped,WordBox_2.started,WordBox_2.stopped,Words_2.started,Words_2.stopped,BackGround_Feedback_2.started,BackGround_Feedback_2.stopped,Feedbacks_2.started,Feedbacks_2.stopped,Continue_or_not.keys,Continue_or_not.rt,Continue_or_not.started,Continue_or_not.stopped,image_3.started,image_3.stopped,mouse_3.x,mouse_3.y,mouse_3.leftButton,mouse_3.midButton,mouse_3.rightButton,mouse_3.started,mouse_3.stopped,startmain.started,startmain.stopped,slider.response,slider.rt,slider.started,slider.stopped,Response,Feedback,BackGround.started,BackGround.stopped,Fish.started,Fish.stopped,WordBox.started,WordBox.stopped,Words.started,Words.stopped,BackGround_Feedback.started,BackGround_Feedback.stopped,Feedbacks.started,Feedbacks.stopped,text.started,text.stopped,break_interval.started,break_interval.stopped,mouse.x,mouse.y,mouse.leftButton,mouse.midButton,mouse.rightButton,mouse.started,mouse.stopped,stratnextround.started,stratnextround.stopped,endgame.started,endgame.stopped,participant,date,expName,psychopyVersion,frameRate,
,,,,,,,,,,,,,,,,,,,,,,,,,,,,,,,,,,,,,,,,,,,,,,,,,,,,,,29.30908570002066,None,29.30908570002066,None,space,1.363508099981118,29.797318099997938,None,,,,,,,,,,,,,,,,,,,,,,,,,,,,,,,,,,,,,,,,,,,,,,,,,,,,,,,,,,,,,,,,,,,,,,,,,,,,,,,,,,,,,,,,,,209,2023-04-04_14h04.24.511,FishGame,2022.1.1,60.32432772724741,
물고기과제_instruction(참가자용)OrangeVersion.mp4,,,,,,,,,,,,,,0,0,0,0,0,0,0,0,,,,,,,,,,,,,,,,,,,,,,,,,,,,,,,,,,,,,,,,,102.6926431999891,None,n,1.3803467999678105,102.6926431999891,None,,,,,,,,,,,,,,,,,,,,,,,,,,,,,,,,,,,,,,,,,,,,,,,,,,,,,,,,,,,,,,,,,,,,,,,,,,,,,,,,,,,,209,2023-04-04_14h04.24.511,FishGame,2022.1.1,60.32432772724741,
,1,넌 교활해,5,Green,B,2.333333333333333,2.133333333333333,ScrollUp,ScrollDown,Green.png,practice,,,0,0,0,0,,,,,0,0,0,0,0,0,0,0,,,,,,,,,,,,,,,,,,,,,,,,,,,,,,,,,,,,,,,0.06574074,-0.20925926,1,0,0,0.5137529399944469,None,104.09020400000736,None,107.94239570002537,109.44252839998808,109.47590180003317,110.42583670001477,110.47582729998976,111.42581789998803,111.42581789998803,None,1.5030864196984717,1.5786105999723077,112.71328620001441,None,NoResponse,무응답입니다,112.71328620001441,None,112.71328620001441,None,112.71328620001441,None,112.71328620001441,None,113.99015540000983,None,113.99015540000983,114.4921839000308,,,,,,,,,,,,,,,,,,,,,,,,,,,,,,,,,,,,,,,,,,,,,,,,,209,2023-04-04_14h04.24.511,FishGame,2022.1.1,60.32432772724741,
,2,넌 슬기로워,2,Orange,A,6.166666666666667,4.1,ScrollDown,ScrollUp,Orange.png,practice,,,0,0,0,0,,,,,0,0,0,0,0,1,1,1,,,,,,,,,,,,,,,,,,,,,,,,,,,,,,,,,,,,,,,,,,,,,,,,,,,,,,,,1,1.1005715999635868,115.11256740003591,None,ScrollDown,정답입니다,115.11256740003591,None,115.11256740003591,None,115.11256740003591,None,115.11256740003591,None,116.10684520000359,None,116.10684520000359,116.60884639999131,,,,,,,,,,,,,,,,,,,,,,,,,,,,,,,,,,,,,,,,,,,,,,,,,209,2023-04-04_14h04.24.511,FishGame,2022.1.1,60.32432772724741,
,3,나를 보내줘,6,Orange,A,0,0,ScrollUp,ScrollDown,Orange.png,practice,,,0,0,0,0,,,,,0,0,0,0,0,2,2,2,,,,,,,,,,,,,,,,,,,,,,,,,,,,,,,,,,,,,,,,,,,,,,,,,,,,,,,,1.1018518507480621,0.7183359000482596,117.23155190004036,None,ScrollDown,오답입니다,117.23155190004036,None,117.23155190004036,None,117.23155190004036,None,117.23155190004036,None,117.84919149999041,None,117.84919149999041,118.35877930000424,,,,,,,,,,,,,,,,,,,,,,,,,,,,,,,,,,,,,,,,,,,,,,,,,209,2023-04-04_14h04.24.511,FishGame,2022.1.1,60.32432772724741,
,4,나를 데려가줘,6,Green,B,0,0,ScrollDown,ScrollUp,Green.png,practice,,,0,0,0,0,,,,,0,0,0,0,0,3,3,3,,,,,,,,,,,,,,,,,,,,,,,,,,,,,,,,,,,,,,,,,,,,,,,,,,,,,,,,1.71913580596447,0.8653936000191607,118.97803090000525,None,ScrollUp,오답입니다,118.97803090000525,None,118.97803090000525,None,118.97803090000525,None,118.97803090000525,None,119.74202529998729,None,119.74202529998729,120.24204640003154,,,,,,,,,,,,,,,,,,,,,,,,,,,,,,,,,,,,,,,,,,,,,,,,,209,2023-04-04_14h04.24.511,FishGame,2022.1.1,60.32432772724741,
,1,넌 교활해,5,Green,B,2.333333333333333,2.133333333333333,ScrollUp,ScrollDown,Green.png,practice,,,0,0,0,0,,,,,0,0,0,0,,,,,,,,,,,,,,,,,,,,,,,,,,,,,,,,,,,,,,,,,,,,,,,,,,,,,,,,,,,,,,,,,,,,,,,,,,,,,,y,3.765531499986537,120.7420565999928,None,120.7420565999928,None,,,,,,,,,,,,,,,,,,,,,,,,,,,,,,,,,,,,,,,,,,,209,2023-04-04_14h04.24.511,FishGame,2022.1.1,60.32432772724741,
,1,넌 교활해,5,Green,B,2.333333333333333,2.133333333333333,ScrollUp,ScrollDown,Green.png,practice,,,0,0,0,0,,,,,0,1,1,1,0,0,0,0,,,,,,,,,,,,,,,,,,,,,,,,,,,,,,,,,,,,,,,,,,,,,,,,,,,,,,,,1.9336419701576233,1.2078989000292495,124.65103880001698,None,ScrollUp,정답입니다,124.65103880001698,None,124.65103880001698,None,124.65103880001698,None,124.65103880001698,None,125.75871120003285,None,125.75871120003285,126.25645889999578,,,,,,,,,,,,,,,,,,,,,,,,,,,,,,,,,,,,,,,,,,,,,,,,,209,2023-04-04_14h04.24.511,FishGame,2022.1.1,60.32432772724741,
,2,넌 슬기로워,2,Orange,A,6.166666666666667,4.1,ScrollDown,ScrollUp,Orange.png,practice,,,0,0,0,0,,,,,0,1,1,1,0,1,1,1,,,,,,,,,,,,,,,,,,,,,,,,,,,,,,,,,,,,,,,,,,,,,,,,,,,,,,,,1.0787036915620167,0.7793018000083975,126.88365340000018,None,ScrollDown,정답입니다,126.88365340000018,None,126.88365340000018,None,126.88365340000018,None,126.88365340000018,None,127.55629010003759,None,127.55629010003759,128.05642839998472,,,,,,,,,,,,,,,,,,,,,,,,,,,,,,,,,,,,,,,,,,,,,,,,,209,2023-04-04_14h04.24.511,FishGame,2022.1.1,60.32432772724741,
,3,나를 보내줘,6,Orange,A,0,0,ScrollUp,ScrollDown,Orange.png,practice,,,0,0,0,0,,,,,0,1,1,1,0,2,2,2,,,,,,,,,,,,,,,,,,,,,,,,,,,,,,,,,,,,,,,,,,,,,,,,,,,,,,,,1.1512345721324284,0.7650950000388548,128.6740408000187,None,ScrollDown,오답입니다,128.6740408000187,None,128.6740408000187,None,128.6740408000187,None,128.6740408000187,None,129.33964730001753,None,129.33964730001753,129.83961359999375,,,,,,,,,,,,,,,,,,,,,,,,,,,,,,,,,,,,,,,,,,,,,,,,,209,2023-04-04_14h04.24.511,FishGame,2022.1.1,60.32432772724741,
,4,나를 데려가줘,6,Green,B,0,0,ScrollDown,ScrollUp,Green.png,practice,,,0,0,0,0,,,,,0,1,1,1,0,3,3,3,,,,,,,,,,,,,,,,,,,,,,,,,,,,,,,,,,,,,,,,,,,,,,,,,,,,,,,,1.6126543184121451,0.7983334999880753,130.4602532000281,None,ScrollUp,오답입니다,130.4602532000281,None,130.4602532000281,None,130.4602532000281,None,130.4602532000281,None,131.15872120001586,None,131.15872120001586,131.65864490001695,,,,,,,,,,,,,,,,,,,,,,,,,,,,,,,,,,,,,,,,,,,,,,,,,209,2023-04-04_14h04.24.511,FishGame,2022.1.1,60.32432772724741,
,2,넌 슬기로워,2,Orange,A,6.166666666666667,4.1,ScrollDown,ScrollUp,Orange.png,practice,,,0,0,0,0,,,,,0,1,1,1,,,,,,,,,,,,,,,,,,,,,,,,,,,,,,,,,,,,,,,,,,,,,,,,,,,,,,,,,,,,,,,,,,,,,,,,,,,,,,y,3.978357399988454,132.16189170000143,None,132.16189170000143,None,,,,,,,,,,,,,,,,,,,,,,,,,,,,,,,,,,,,,,,,,,,209,2023-04-04_14h04.24.511,FishGame,2022.1.1,60.32432772724741,
,1,넌 교활해,5,Green,B,2.333333333333333,2.133333333333333,ScrollUp,ScrollDown,Green.png,practice,,,0,0,0,0,,,,,0,2,2,2,0,0,0,0,,,,,,,,,,,,,,,,,,,,,,,,,,,,,,,,,,,,,,,,,,,,,,,,,,,,,,,,2,3.19119739998132,136.28054710000288,None,ScrollUp,정답입니다,136.28054710000288,None,136.28054710000288,None,136.28054710000288,None,136.28054710000288,None,139.37528290000046,None,139.37528290000046,139.87494609999703,,,,,,,,,,,,,,,,,,,,,,,,,,,,,,,,,,,,,,,,,,,,,,,,,209,2023-04-04_14h04.24.511,FishGame,2022.1.1,60.32432772724741,
,2,넌 슬기로워,2,Orange,A,6.166666666666667,4.1,ScrollDown,ScrollUp,Orange.png,practice,,,0,0,0,0,,,,,0,2,2,2,0,1,1,1,,,,,,,,,,,,,,,,,,,,,,,,,,,,,,,,,,,,,,,,,,,,,,,,,,,,,,,,1,1.3462008000351489,140.4967160000233,None,ScrollDown,정답입니다,140.4967160000233,None,140.4967160000233,None,140.4967160000233,None,140.4967160000233,None,141.74171860003844,None,141.74171860003844,142.24160210002447,,,,,,,,,,,,,,,,,,,,,,,,,,,,,,,,,,,,,,,,,,,,,,,,,209,2023-04-04_14h04.24.511,FishGame,2022.1.1,60.32432772724741,
,3,나를 보내줘,6,Orange,A,0,0,ScrollUp,ScrollDown,Orange.png,practice,,,0,0,0,0,,,,,0,2,2,2,0,2,2,2,,,,,,,,,,,,,,,,,,,,,,,,,,,,,,,,,,,,,,,,,,,,,,,,,,,,,,,,2,2.3818577000056393,142.861399299989,None,ScrollUp,정답입니다,142.861399299989,None,142.861399299989,None,142.861399299989,None,142.861399299989,None,145.1417070000316,None,145.1417070000316,145.6414617000264,,,,,,,,,,,,,,,,,,,,,,,,,,,,,,,,,,,,,,,,,,,,,,,,,209,2023-04-04_14h04.24.511,FishGame,2022.1.1,60.32432772724741,
,4,나를 데려가줘,6,Green,B,0,0,ScrollDown,ScrollUp,Green.png,practice,,,0,0,0,0,,,,,0,2,2,2,0,3,3,3,,,,,,,,,,,,,,,,,,,,,,,,,,,,,,,,,,,,,,,,,,,,,,,,,,,,,,,,1,1.2462368999840692,146.25931140000466,None,ScrollDown,정답입니다,146.25931140000466,None,146.25931140000466,None,146.25931140000466,None,146.25931140000466,None,147.4081480000168,None,147.4081480000168,147.90812000003643,,,,,,,,,,,,,,,,,,,,,,,,,,,,,,,,,,,,,,,,,,,,,,,,,209,2023-04-04_14h04.24.511,FishGame,2022.1.1,60.32432772724741,
,3,나를 보내줘,6,Orange,A,0,0,ScrollUp,ScrollDown,Orange.png,practice,,,0,0,0,0,,,,,0,2,2,2,,,,,,,,,,,,,,,,,,,,,,,,,,,,,,,,,,,,,,,,,,,,,,,,,,,,,,,,,,,,,,,,,,,,,,,,,,,,,,n,13.815012499981094,148.40813649998745,None,148.40813649998745,None,,,,,,,,,,,,,,,,,,,,,,,,,,,,,,,,,,,,,,,,,,,209,2023-04-04_14h04.24.511,FishGame,2022.1.1,60.32432772724741,
,1,넌 따뜻해,1,Green,B,6.083333333333333,5.6,ScrollUp,ScrollDown,Green.png,1,Positive,Incongruent,0,0,0,0,,,,,,,,,,,,,0,0,0,0,,,,,,,,,,,,,,,,,,,,,,,,,,,,,,,,,,,,,,,,,,,,165.00771840004018,166.50792210001964,166.54125950002344,167.4912381999893,167.54126730002463,168.49126249999972,168.49126249999972,None,,,,,,,,,,,,,,,,,,,,,,,,,-0.0046296297,-0.11296296,1,0,0,0.31183224002597854,None,162.2442446000059,None,1.8024691343307495,2.2733300999971107,169.78889130003517,None,ScrollUp,정답입니다,169.78889130003517,None,169.78889130003517,None,169.78889130003517,None,169.78889130003517,None,171.75538210000377,None,171.75538210000377,172.25535300001502,,,,,,,,,,,,,,,,209,2023-04-04_14h04.24.511,FishGame,2022.1.1,60.32432772724741,
,2,넌 기품있어,2,Green,B,5.791666666666668,4.5,ScrollUp,ScrollDown,Green.png,1,Positive,Incongruent,0,0,0,0,,,,,,,,,,,,,0,1,1,1,,,,,,,,,,,,,,,,,,,,,,,,,,,,,,,,,,,,,,,,,,,,,,,,,,,,,,,,,,,,,,,,,,,,,,,,,,,,,,,,,,,,,1.4228395087023575,1.1672632999834605,172.88112730003195,None,ScrollDown,오답입니다,172.88112730003195,None,172.88112730003195,None,172.88112730003195,None,172.88112730003195,None,173.94114900002023,None,173.94114900002023,174.4410958000226,,,,,,,,,,,,,,,,209,2023-04-04_14h04.24.511,FishGame,2022.1.1,60.32432772724741,
,3,나를 보내줘,6,Orange,A,0,0,ScrollUp,ScrollDown,Orange.png,1,NonTarget,NonTarget,0,0,0,0,,,,,,,,,,,,,0,2,2,2,,,,,,,,,,,,,,,,,,,,,,,,,,,,,,,,,,,,,,,,,,,,,,,,,,,,,,,,,,,,,,,,,,,,,,,,,,,,,,,,,,,,,1,0.948320799972862,175.06939730001613,None,ScrollDown,오답입니다,175.06939730001613,None,175.06939730001613,None,175.06939730001613,None,175.06939730001613,None,175.90783270000247,None,175.90783270000247,176.41080499999225,,,,,,,,,,,,,,,,209,2023-04-04_14h04.24.511,FishGame,2022.1.1,60.32432772724741,
,4,넌 수동적이야,4,Orange,A,2.833333333333333,2.933333333333333,ScrollDown,ScrollUp,Orange.png,1,Negative,Incongruent,0,0,0,0,,,,,,,,,,,,,0,3,3,3,,,,,,,,,,,,,,,,,,,,,,,,,,,,,,,,,,,,,,,,,,,,,,,,,,,,,,,,,,,,,,,,,,,,,,,,,,,,,,,,,,,,,1,1.1482042000279762,177.03652070002863,None,ScrollDown,정답입니다,177.03652070002863,None,177.03652070002863,None,177.03652070002863,None,177.03652070002863,None,178.07217450003373,None,178.07217450003373,178.57421029999387,,,,,,,,,,,,,,,,209,2023-04-04_14h04.24.511,FishGame,2022.1.1,60.32432772724741,
,5,넌 사심이 없어,3,Green,B,4.916666666666666,4.333333333333333,ScrollUp,ScrollDown,Green.png,1,Neutral,Neutral,0,0,0,0,,,,,,,,,,,,,0,4,4,4,,,,,,,,,,,,,,,,,,,,,,,,,,,,,,,,,,,,,,,,,,,,,,,,,,,,,,,,,,,,,,,,,,,,,,,,,,,,,,,,,,,,,2,1.5795779000036418,179.19828180002514,None,ScrollUp,정답입니다,179.19828180002514,None,179.19828180002514,None,179.19828180002514,None,179.19828180002514,None,180.6741747999913,None,180.6741747999913,181.17409260000568,,,,,,,,,,,,,,,,209,2023-04-04_14h04.24.511,FishGame,2022.1.1,60.32432772724741,
,6,넌 헤퍼,5,Orange,A,2.458333333333334,2.233333333333333,ScrollDown,ScrollUp,Orange.png,1,Negative,Incongruent,0,0,0,0,,,,,,,,,,,,,0,5,5,5,,,,,,,,,,,,,,,,,,,,,,,,,,,,,,,,,,,,,,,,,,,,,,,,,,,,,,,,,,,,,,,,,,,,,,,,,,,,,,,,,,,,,1,1.5482564000412822,181.79932140000165,None,ScrollDown,정답입니다,181.79932140000165,None,181.79932140000165,None,181.79932140000165,None,181.79932140000165,None,183.24080969998613,None,183.24080969998613,183.74076620000415,,,,,,,,,,,,,,,,209,2023-04-04_14h04.24.511,FishGame,2022.1.1,60.32432772724741,
,7,넌 말쑥해,3,Orange,A,4.833333333333334,4.333333333333333,ScrollDown,ScrollUp,Orange.png,1,Neutral,Neutral,0,0,0,0,,,,,,,,,,,,,0,6,6,6,,,,,,,,,,,,,,,,,,,,,,,,,,,,,,,,,,,,,,,,,,,,,,,,,,,,,,,,,,,,,,,,,,,,,,,,,,,,,,,,,,,,,1,1.0285566999809816,184.36863149999408,None,ScrollDown,정답입니다,184.36863149999408,None,184.36863149999408,None,184.36863149999408,None,184.36863149999408,None,185.28867040004116,None,185.28867040004116,185.79073479998624,,,,,,,,,,,,,,,,209,2023-04-04_14h04.24.511,FishGame,2022.1.1,60.32432772724741,
,8,넌 투덜거려,5,Green,B,2.541666666666667,2.266666666666667,ScrollUp,ScrollDown,Green.png,1,Negative,Congruent,0,0,0,0,,,,,,,,,,,,,0,7,7,7,,,,,,,,,,,,,,,,,,,,,,,,,,,,,,,,,,,,,,,,,,,,,,,,,,,,,,,,,,,,,,,,,,,,,,,,,,,,,,,,,,,,,1.8904321044683456,1.0353020000038669,186.4160004000296,None,ScrollUp,정답입니다,186.4160004000296,None,186.4160004000296,None,186.4160004000296,None,186.4160004000296,None,187.34512110002106,None,187.34512110002106,187.85724530002335,,,,,,,,,,,,,,,,209,2023-04-04_14h04.24.511,FishGame,2022.1.1,60.32432772724741,
,9,넌 적극적이야,1,Orange,A,5.708333333333333,5.533333333333333,ScrollDown,ScrollUp,Orange.png,1,Positive,Congruent,0,0,0,0,,,,,,,,,,,,,0,8,8,8,,,,,,,,,,,,,,,,,,,,,,,,,,,,,,,,,,,,,,,,,,,,,,,,,,,,,,,,,,,,,,,,,,,,,,,,,,,,,,,,,,,,,1,0.9632213999866508,188.48084899998503,None,ScrollDown,정답입니다,188.48084899998503,None,188.48084899998503,None,188.48084899998503,None,188.48084899998503,None,189.34068940003635,None,189.34068940003635,189.8405616999953,,,,,,,,,,,,,,,,209,2023-04-04_14h04.24.511,FishGame,2022.1.1,60.32432772724741,
,10,넌 재미없어,4,Green,B,2.625,2.966666666666667,ScrollUp,ScrollDown,Green.png,1,Negative,Congruent,0,0,0,0,,,,,,,,,,,,,0,9,9,9,,,,,,,,,,,,,,,,,,,,,,,,,,,,,,,,,,,,,,,,,,,,,,,,,,,,,,,,,,,,,,,,,,,,,,,,,,,,,,,,,,,,,1.9089506218830745,1.1128287999890745,190.46371590002673,None,ScrollUp,정답입니다,190.46371590002673,None,190.46371590002673,None,190.46371590002673,None,190.46371590002673,None,191.4739116000128,None,191.4739116000128,191.97392800002126,,,,,,,,,,,,,,,,209,2023-04-04_14h04.24.511,FishGame,2022.1.1,60.32432772724741,
,11,넌 명석해,2,Orange,A,5.875,4.033333333333333,ScrollDown,ScrollUp,Orange.png,1,Positive,Congruent,0,0,0,0,,,,,,,,,,,,,0,10,10,10,,,,,,,,,,,,,,,,,,,,,,,,,,,,,,,,,,,,,,,,,,,,,,,,,,,,,,,,,,,,,,,,,,,,,,,,,,,,,,,,,,,,,1.0586419602235158,0.7151854999829084,192.60469120001653,None,ScrollDown,정답입니다,192.60469120001653,None,192.60469120001653,None,192.60469120001653,None,192.60469120001653,None,193.20720190001884,None,193.20720190001884,193.70715450000716,,,,,,,,,,,,,,,,209,2023-04-04_14h04.24.511,FishGame,2022.1.1,60.32432772724741,
,12,나를 데려가줘,6,Green,B,0,0,ScrollDown,ScrollUp,Green.png,1,NonTarget,NonTarget,0,0,0,0,,,,,,,,,,,,,0,11,11,11,,,,,,,,,,,,,,,,,,,,,,,,,,,,,,,,,,,,,,,,,,,,,,,,,,,,,,,,,,,,,,,,,,,,,,,,,,,,,,,,,,,,,1.1867283930381138,0.7485696999938227,194.33064440003363,None,ScrollDown,정답입니다,194.33064440003363,None,194.33064440003363,None,194.33064440003363,None,194.33064440003363,None,194.97183200001018,None,194.97183200001018,195.47384580003563,,,,,,,,,,,,,,,,209,2023-04-04_14h04.24.511,FishGame,2022.1.1,60.32432772724741,
,13,넌 소심해,4,Orange,A,3,3.1,ScrollDown,ScrollUp,Orange.png,1,Negative,Incongruent,0,0,0,0,,,,,,,,,,,,,0,12,12,12,,,,,,,,,,,,,,,,,,,,,,,,,,,,,,,,,,,,,,,,,,,,,,,,,,,,,,,,,,,,,,,,,,,,,,,,,,,,,,,,,,,,,1.1836419651905696,0.8004135000519454,196.09532830002718,None,ScrollDown,정답입니다,196.09532830002718,None,196.09532830002718,None,196.09532830002718,None,196.09532830002718,None,196.79061160003766,None,196.79061160003766,197.2903626000043,,,,,,,,,,,,,,,,209,2023-04-04_14h04.24.511,FishGame,2022.1.1,60.32432772724741,
,14,넌 합리적이야,2,Orange,A,5.583333333333333,4.733333333333333,ScrollDown,ScrollUp,Orange.png,1,Positive,Congruent,0,0,0,0,,,,,,,,,,,,,0,13,13,13,,,,,,,,,,,,,,,,,,,,,,,,,,,,,,,,,,,,,,,,,,,,,,,,,,,,,,,,,,,,,,,,,,,,,,,,,,,,,,,,,,,,,1.2376543283462524,1.112810799968429,197.9161970000132,None,ScrollDown,정답입니다,197.9161970000132,None,197.9161970000132,None,197.9161970000132,None,197.9161970000132,None,198.92370019998634,None,198.92370019998634,199.42373670003144,,,,,,,,,,,,,,,,209,2023-04-04_14h04.24.511,FishGame,2022.1.1,60.32432772724741,
,15,넌 무자비해,5,Green,B,2.333333333333333,2.1,ScrollUp,ScrollDown,Green.png,1,Negative,Congruent,0,0,0,0,,,,,,,,,,,,,0,14,14,14,,,,,,,,,,,,,,,,,,,,,,,,,,,,,,,,,,,,,,,,,,,,,,,,,,,,,,,,,,,,,,,,,,,,,,,,,,,,,,,,,,,,,1.68364197264115,0.81523659999948,200.0493616000167,None,ScrollUp,정답입니다,200.0493616000167,None,200.0493616000167,None,200.0493616000167,None,200.0493616000167,None,200.75706780003384,None,200.75706780003384,201.25704420002876,,,,,,,,,,,,,,,,209,2023-04-04_14h04.24.511,FishGame,2022.1.1,60.32432772724741,
,16,나를 보내줘,6,Orange,A,0,0,ScrollUp,ScrollDown,Orange.png,1,NonTarget,NonTarget,0,0,0,0,,,,,,,,,,,,,0,15,15,15,,,,,,,,,,,,,,,,,,,,,,,,,,,,,,,,,,,,,,,,,,,,,,,,,,,,,,,,,,,,,,,,,,,,,,,,,,,,,,,,,,,,,1.5787037052214146,0.9791612999979407,201.8844484000001,None,ScrollUp,정답입니다,201.8844484000001,None,201.8844484000001,None,201.8844484000001,None,201.8844484000001,None,202.7569838000345,None,202.7569838000345,203.2569530000328,,,,,,,,,,,,,,,,209,2023-04-04_14h04.24.511,FishGame,2022.1.1,60.32432772724741,
,17,넌 현실적이야,3,Green,B,4.608695652173913,4.766666666666667,ScrollUp,ScrollDown,Green.png,1,Neutral,Neutral,0,0,0,0,,,,,,,,,,,,,0,16,16,16,,,,,,,,,,,,,,,,,,,,,,,,,,,,,,,,,,,,,,,,,,,,,,,,,,,,,,,,,,,,,,,,,,,,,,,,,,,,,,,,,,,,,1.9089506218830745,0.9987192000262439,203.89649610000197,None,ScrollUp,정답입니다,203.89649610000197,None,203.89649610000197,None,203.89649610000197,None,203.89649610000197,None,204.79033270000946,None,204.79033270000946,205.2935032999958,,,,,,,,,,,,,,,,209,2023-04-04_14h04.24.511,FishGame,2022.1.1,60.32432772724741,
,18,넌 의리있어,1,Green,B,5.833333333333334,5.633333333333334,ScrollUp,ScrollDown,Green.png,1,Positive,Incongruent,0,0,0,0,,,,,,,,,,,,,0,17,17,17,,,,,,,,,,,,,,,,,,,,,,,,,,,,,,,,,,,,,,,,,,,,,,,,,,,,,,,,,,,,,,,,,,,,,,,,,,,,,,,,,,,,,1.5462962966412306,1.1630074999993667,205.91225829999894,None,NoResponse,무응답입니다,205.91225829999894,None,205.91225829999894,None,205.91225829999894,None,205.91225829999894,None,206.97150849999161,None,206.97150849999161,207.47349589999067,,,,,,,,,,,,,,,,209,2023-04-04_14h04.24.511,FishGame,2022.1.1,60.32432772724741,
,19,넌 신경과민이야,5,Orange,A,2.541666666666667,2.166666666666667,ScrollDown,ScrollUp,Orange.png,1,Negative,Incongruent,0,0,0,0,,,,,,,,,,,,,0,18,18,18,,,,,,,,,,,,,,,,,,,,,,,,,,,,,,,,,,,,,,,,,,,,,,,,,,,,,,,,,,,,,,,,,,,,,,,,,,,,,,,,,,,,,1.1697530895471573,0.9485895000398159,208.10154240002157,None,ScrollDown,정답입니다,208.10154240002157,None,208.10154240002157,None,208.10154240002157,None,208.10154240002157,None,208.9402402000269,None,208.9402402000269,209.440195400035,,,,,,,,,,,,,,,,209,2023-04-04_14h04.24.511,FishGame,2022.1.1,60.32432772724741,
,20,넌 편안해,1,Orange,A,5.916666666666666,5.866666666666666,ScrollDown,ScrollUp,Orange.png,1,Positive,Congruent,0,0,0,0,,,,,,,,,,,,,0,19,19,19,,,,,,,,,,,,,,,,,,,,,,,,,,,,,,,,,,,,,,,,,,,,,,,,,,,,,,,,,,,,,,,,,,,,,,,,,,,,,,,,,,,,,1.0848765472571056,0.7959094999823719,210.06967920000898,None,ScrollDown,정답입니다,210.06967920000898,None,210.06967920000898,None,210.06967920000898,None,210.06967920000898,None,210.75451420003083,None,210.75451420003083,211.25448619999224,,,,,,,,,,,,,,,,209,2023-04-04_14h04.24.511,FishGame,2022.1.1,60.32432772724741,
,21,넌 품위있어,2,Green,B,5.291666666666666,4.466666666666667,ScrollUp,ScrollDown,Green.png,1,Positive,Incongruent,0,0,0,0,,,,,,,,,,,,,0,20,20,20,,,,,,,,,,,,,,,,,,,,,,,,,,,,,,,,,,,,,,,,,,,,,,,,,,,,,,,,,,,,,,,,,,,,,,,,,,,,,,,,,,,,,1.8040123482545216,0.7816806000191718,211.87392829998862,None,ScrollUp,정답입니다,211.87392829998862,None,211.87392829998862,None,211.87392829998862,None,211.87392829998862,None,212.55449030001182,None,212.55449030001182,213.05447259999346,,,,,,,,,,,,,,,,209,2023-04-04_14h04.24.511,FishGame,2022.1.1,60.32432772724741,
,22,넌 빈틈없어,3,Orange,A,4.833333333333333,3.966666666666667,ScrollDown,ScrollUp,Orange.png,1,Neutral,Neutral,0,0,0,0,,,,,,,,,,,,,0,21,21,21,,,,,,,,,,,,,,,,,,,,,,,,,,,,,,,,,,,,,,,,,,,,,,,,,,,,,,,,,,,,,,,,,,,,,,,,,,,,,,,,,,,,,1.1373456716537476,0.817493700014893,213.68064119998598,None,ScrollDown,정답입니다,213.68064119998598,None,213.68064119998598,None,213.68064119998598,None,213.68064119998598,None,214.39028500003042,None,214.39028500003042,214.89020710001932,,,,,,,,,,,,,,,,209,2023-04-04_14h04.24.511,FishGame,2022.1.1,60.32432772724741,
,23,넌 상상력없어,4,Green,B,2.833333333333333,3.133333333333333,ScrollUp,ScrollDown,Green.png,1,Negative,Congruent,0,0,0,0,,,,,,,,,,,,,0,22,22,22,,,,,,,,,,,,,,,,,,,,,,,,,,,,,,,,,,,,,,,,,,,,,,,,,,,,,,,,,,,,,,,,,,,,,,,,,,,,,,,,,,,,,1.8765432039896648,0.9317392999655567,215.5140868999879,None,ScrollUp,정답입니다,215.5140868999879,None,215.5140868999879,None,215.5140868999879,None,215.5140868999879,None,216.34032770001795,None,216.34032770001795,216.84331979998387,,,,,,,,,,,,,,,,209,2023-04-04_14h04.24.511,FishGame,2022.1.1,60.32432772724741,
,24,넌 지혜로워,2,Green,B,6.333333333333334,4.633333333333334,ScrollUp,ScrollDown,Green.png,1,Positive,Incongruent,0,0,0,0,,,,,,,,,,,,,0,23,23,23,,,,,,,,,,,,,,,,,,,,,,,,,,,,,,,,,,,,,,,,,,,,,,,,,,,,,,,,,,,,,,,,,,,,,,,,,,,,,,,,,,,,,1.983024666706721,0.8820043000159785,217.4655907000415,None,ScrollUp,정답입니다,217.4655907000415,None,217.4655907000415,None,217.4655907000415,None,217.4655907000415,None,218.23797419999028,None,218.23797419999028,218.74323850002838,,,,,,,,,,,,,,,,209,2023-04-04_14h04.24.511,FishGame,2022.1.1,60.32432772724741,
,25,넌 시끄러워,4,Orange,A,2.833333333333333,3.033333333333333,ScrollDown,ScrollUp,Orange.png,1,Negative,Incongruent,0,0,0,0,,,,,,,,,,,,,0,24,24,24,,,,,,,,,,,,,,,,,,,,,,,,,,,,,,,,,,,,,,,,,,,,,,,,,,,,,,,,,,,,,,,,,,,,,,,,,,,,,,,,,,,,,1.1543209999799728,0.7983647000510246,219.3658820000128,None,ScrollDown,정답입니다,219.3658820000128,None,219.3658820000128,None,219.3658820000128,None,219.3658820000128,None,220.0566109000356,None,220.0566109000356,220.5565537000075,,,,,,,,,,,,,,,,209,2023-04-04_14h04.24.511,FishGame,2022.1.1,60.32432772724741,
,26,넌 만사태평이야,3,Green,B,4,4.333333333333333,ScrollUp,ScrollDown,Green.png,1,Neutral,Neutral,0,0,0,0,,,,,,,,,,,,,0,25,25,25,,,,,,,,,,,,,,,,,,,,,,,,,,,,,,,,,,,,,,,,,,,,,,,,,,,,,,,,,,,,,,,,,,,,,,,,,,,,,,,,,,,,,1.8935185074806213,0.7811210000072606,221.18039629998384,None,ScrollUp,정답입니다,221.18039629998384,None,221.18039629998384,None,221.18039629998384,None,221.18039629998384,None,221.8567034000298,None,221.8567034000298,222.37328649999108,,,,,,,,,,,,,,,,209,2023-04-04_14h04.24.511,FishGame,2022.1.1,60.32432772724741,
,27,넌 붙임성있어,1,Orange,A,5.708333333333333,5.633333333333334,ScrollDown,ScrollUp,Orange.png,1,Positive,Congruent,0,0,0,0,,,,,,,,,,,,,0,26,26,26,,,,,,,,,,,,,,,,,,,,,,,,,,,,,,,,,,,,,,,,,,,,,,,,,,,,,,,,,,,,,,,,,,,,,,,,,,,,,,,,,,,,,1.0864197611808777,0.996019400015939,222.98984930000734,None,ScrollDown,정답입니다,222.98984930000734,None,222.98984930000734,None,222.98984930000734,None,222.98984930000734,None,223.87312770000426,None,223.87312770000426,224.37314089998836,,,,,,,,,,,,,,,,209,2023-04-04_14h04.24.511,FishGame,2022.1.1,60.32432772724741,
,28,넌 영리해,2,Orange,A,6,4.033333333333333,ScrollDown,ScrollUp,Orange.png,1,Positive,Congruent,0,0,0,0,,,,,,,,,,,,,0,27,27,27,,,,,,,,,,,,,,,,,,,,,,,,,,,,,,,,,,,,,,,,,,,,,,,,,,,,,,,,,,,,,,,,,,,,,,,,,,,,,,,,,,,,,1.0462962985038757,0.7132952000247315,225.0177463000291,None,ScrollDown,정답입니다,225.0177463000291,None,225.0177463000291,None,225.0177463000291,None,225.0177463000291,None,225.62318570003845,None,225.62318570003845,226.12312910001492,,,,,,,,,,,,,,,,209,2023-04-04_14h04.24.511,FishGame,2022.1.1,60.32432772724741,
,29,넌 열심이야,1,Green,B,6.041666666666667,5.833333333333333,ScrollUp,ScrollDown,Green.png,1,Positive,Incongruent,0,0,0,0,,,,,,,,,,,,,0,28,28,28,,,,,,,,,,,,,,,,,,,,,,,,,,,,,,,,,,,,,,,,,,,,,,,,,,,,,,,,,,,,,,,,,,,,,,,,,,,,,,,,,,,,,1.799382706483205,0.7317108999704942,226.74558829999296,None,ScrollUp,정답입니다,226.74558829999296,None,226.74558829999296,None,226.74558829999296,None,226.74558829999296,None,227.3731950999936,None,227.3731950999936,227.8765185000375,,,,,,,,,,,,,,,,209,2023-04-04_14h04.24.511,FishGame,2022.1.1,60.32432772724741,
,30,넌 인기없어,4,Green,B,3,3.3,ScrollUp,ScrollDown,Green.png,1,Negative,Congruent,0,0,0,0,,,,,,,,,,,,,0,29,29,29,,,,,,,,,,,,,,,,,,,,,,,,,,,,,,,,,,,,,,,,,,,,,,,,,,,,,,,,,,,,,,,,,,,,,,,,,,,,,,,,,,,,,1.9104938358068466,0.7630685999756679,228.49500410002656,None,ScrollUp,정답입니다,228.49500410002656,None,228.49500410002656,None,228.49500410002656,None,228.49500410002656,None,229.15635230002226,None,229.15635230002226,229.65431040001567,,,,,,,,,,,,,,,,209,2023-04-04_14h04.24.511,FishGame,2022.1.1,60.32432772724741,
,31,넌 익살스러워,3,Orange,A,4.708333333333334,4.833333333333333,ScrollDown,ScrollUp,Orange.png,1,Neutral,Neutral,0,0,0,0,,,,,,,,,,,,,0,30,30,30,,,,,,,,,,,,,,,,,,,,,,,,,,,,,,,,,,,,,,,,,,,,,,,,,,,,,,,,,,,,,,,,,,,,,,,,,,,,,,,,,,,,,1,0.8794716999982484,230.28272610000568,None,ScrollDown,정답입니다,230.28272610000568,None,230.28272610000568,None,230.28272610000568,None,230.28272610000568,None,231.05636440002127,None,231.05636440002127,231.55638080002973,,,,,,,,,,,,,,,,209,2023-04-04_14h04.24.511,FishGame,2022.1.1,60.32432772724741,
,32,넌 이기적이야,5,Green,B,2.291666666666667,2.333333333333333,ScrollUp,ScrollDown,Green.png,1,Negative,Congruent,0,0,0,0,,,,,,,,,,,,,0,31,31,31,,,,,,,,,,,,,,,,,,,,,,,,,,,,,,,,,,,,,,,,,,,,,,,,,,,,,,,,,,,,,,,,,,,,,,,,,,,,,,,,,,,,,1.959876557191213,0.9629608999821357,232.17587899998762,None,ScrollUp,정답입니다,232.17587899998762,None,232.17587899998762,None,232.17587899998762,None,232.17587899998762,None,233.03963600000134,None,233.03963600000134,233.53962250001496,,,,,,,,,,,,,,,,209,2023-04-04_14h04.24.511,FishGame,2022.1.1,60.32432772724741,
,33,나를 데려가줘,6,Green,B,0,0,ScrollDown,ScrollUp,Green.png,1,NonTarget,NonTarget,0,0,0,0,,,,,,,,,,,,,0,32,32,32,,,,,,,,,,,,,,,,,,,,,,,,,,,,,,,,,,,,,,,,,,,,,,,,,,,,,,,,,,,,,,,,,,,,,,,,,,,,,,,,,,,,,1.7932098756233852,0.8982072999933735,234.1589391999878,None,ScrollUp,오답입니다,234.1589391999878,None,234.1589391999878,None,234.1589391999878,None,234.1589391999878,None,234.95646090002265,None,234.95646090002265,235.4562758000102,,,,,,,,,,,,,,,,209,2023-04-04_14h04.24.511,FishGame,2022.1.1,60.32432772724741,
,34,넌 기회주의자야,5,Orange,A,2.875,2.133333333333333,ScrollDown,ScrollUp,Orange.png,1,Negative,Incongruent,0,0,0,0,,,,,,,,,,,,,0,33,33,33,,,,,,,,,,,,,,,,,,,,,,,,,,,,,,,,,,,,,,,,,,,,,,,,,,,,,,,,,,,,,,,,,,,,,,,,,,,,,,,,,,,,,1.1635802586873372,0.931887699989602,236.0825777000282,None,ScrollDown,정답입니다,236.0825777000282,None,236.0825777000282,None,236.0825777000282,None,236.0825777000282,None,236.90624730003765,None,236.90624730003765,237.40948400000343,,,,,,,,,,,,,,,,209,2023-04-04_14h04.24.511,FishGame,2022.1.1,60.32432772724741,
,1,넌 미성숙해,4,Orange,A,3,3.2,ScrollDown,ScrollUp,Orange.png,2,Negative,Incongruent,0,0,0,0,,,,,,,,,,,,,,,,,0,0,0,0,,,,,,,,,,,,,,,,,,,,,,,,,,,,,,,,,,,,,,,,269.38887070002966,270.8890242000343,270.92235609999625,271.872308799997,271.9223614000366,272.8723263000138,272.8723263000138,None,,,,,,,,,,,,,,,,,,,,,,,,,,,,,,,,,,1.0262345671653748,1.140786100004334,273.96935870003654,None,ScrollDown,정답입니다,273.96935870003654,None,273.96935870003654,None,273.96935870003654,None,273.96935870003654,None,275.00561089999974,None,275.00561089999974,275.5053830000106,237.90413949999493,None,237.90413949999493,None,0.10555556,-0.10277778,1,0,0,0.01616994000505656,None,267.9054300999851,None,,,209,2023-04-04_14h04.24.511,FishGame,2022.1.1,60.32432772724741,
,2,넌 반사회적이야,5,Green,B,2.416666666666667,2.033333333333333,ScrollUp,ScrollDown,Green.png,2,Negative,Congruent,0,0,0,0,,,,,,,,,,,,,,,,,0,1,1,1,,,,,,,,,,,,,,,,,,,,,,,,,,,,,,,,,,,,,,,,,,,,,,,,,,,,,,,,,,,,,,,,,,,,,,,,,,,,,,,,,1.837962955236435,0.8293599999742582,276.1270589000196,None,ScrollUp,정답입니다,276.1270589000196,None,276.1270589000196,None,276.1270589000196,None,276.1270589000196,None,276.85539700003574,None,276.85539700003574,277.3553632000112,,,,,,,,,,,,,,,,209,2023-04-04_14h04.24.511,FishGame,2022.1.1,60.32432772724741,
,3,넌 유능해,2,Orange,A,6.208333333333333,4.433333333333334,ScrollDown,ScrollUp,Orange.png,2,Positive,Congruent,0,0,0,0,,,,,,,,,,,,,,,,,0,2,2,2,,,,,,,,,,,,,,,,,,,,,,,,,,,,,,,,,,,,,,,,,,,,,,,,,,,,,,,,,,,,,,,,,,,,,,,,,,,,,,,,,1.1496913582086563,0.7151568000554107,277.9804307000013,None,ScrollDown,정답입니다,277.9804307000013,None,277.9804307000013,None,277.9804307000013,None,277.9804307000013,None,278.58666490000905,None,278.58666490000905,279.0886812999961,,,,,,,,,,,,,,,,209,2023-04-04_14h04.24.511,FishGame,2022.1.1,60.32432772724741,
,4,넌 능숙해,2,Green,B,5.666666666666667,4.733333333333333,ScrollUp,ScrollDown,Green.png,2,Positive,Incongruent,0,0,0,0,,,,,,,,,,,,,,,,,0,3,3,3,,,,,,,,,,,,,,,,,,,,,,,,,,,,,,,,,,,,,,,,,,,,,,,,,,,,,,,,,,,,,,,,,,,,,,,,,,,,,,,,,1.9228395223617554,0.7650867999764159,279.7077661000076,None,ScrollUp,정답입니다,279.7077661000076,None,279.7077661000076,None,279.7077661000076,None,279.7077661000076,None,280.37190890003694,None,280.37190890003694,280.8719105999917,,,,,,,,,,,,,,,,209,2023-04-04_14h04.24.511,FishGame,2022.1.1,60.32432772724741,
,5,넌 진부해,4,Green,B,2.458333333333333,3.166666666666667,ScrollUp,ScrollDown,Green.png,2,Negative,Congruent,0,0,0,0,,,,,,,,,,,,,,,,,0,4,4,4,,,,,,,,,,,,,,,,,,,,,,,,,,,,,,,,,,,,,,,,,,,,,,,,,,,,,,,,,,,,,,,,,,,,,,,,,,,,,,,,,1.9444444676240284,0.7795171999605373,281.4946326999925,None,ScrollUp,정답입니다,281.4946326999925,None,281.4946326999925,None,281.4946326999925,None,281.4946326999925,None,282.1698733000085,None,282.1698733000085,282.67192300001625,,,,,,,,,,,,,,,,209,2023-04-04_14h04.24.511,FishGame,2022.1.1,60.32432772724741,
,6,나를 보내줘,6,Orange,A,0,0,ScrollUp,ScrollDown,Orange.png,2,NonTarget,NonTarget,0,0,0,0,,,,,,,,,,,,,,,,,0,5,5,5,,,,,,,,,,,,,,,,,,,,,,,,,,,,,,,,,,,,,,,,,,,,,,,,,,,,,,,,,,,,,,,,,,,,,,,,,,,,,,,,,1.9104938358068466,0.9651487999944948,283.2919184000348,None,ScrollUp,정답입니다,283.2919184000348,None,283.2919184000348,None,283.2919184000348,None,283.2919184000348,None,284.15522690000944,None,284.15522690000944,284.65529339999193,,,,,,,,,,,,,,,,209,2023-04-04_14h04.24.511,FishGame,2022.1.1,60.32432772724741,
,7,넌 엄격해,3,Orange,A,4.166666666666666,4.1,ScrollDown,ScrollUp,Orange.png,2,Neutral,Neutral,0,0,0,0,,,,,,,,,,,,,,,,,0,6,6,6,,,,,,,,,,,,,,,,,,,,,,,,,,,,,,,,,,,,,,,,,,,,,,,,,,,,,,,,,,,,,,,,,,,,,,,,,,,,,,,,,1,0.9127828999771737,285.28304230002686,None,ScrollDown,정답입니다,285.28304230002686,None,285.28304230002686,None,285.28304230002686,None,285.28304230002686,None,286.08850240003085,None,286.08850240003085,286.58845380001003,,,,,,,,,,,,,,,,209,2023-04-04_14h04.24.511,FishGame,2022.1.1,60.32432772724741,
,8,나를 보내줘,6,Orange,A,0,0,ScrollUp,ScrollDown,Orange.png,2,NonTarget,NonTarget,0,0,0,0,,,,,,,,,,,,,,,,,0,7,7,7,,,,,,,,,,,,,,,,,,,,,,,,,,,,,,,,,,,,,,,,,,,,,,,,,,,,,,,,,,,,,,,,,,,,,,,,,,,,,,,,,1.7808641890684764,0.9462404000223614,287.20790169999236,None,ScrollUp,정답입니다,287.20790169999236,None,287.20790169999236,None,287.20790169999236,None,287.20790169999236,None,288.05535229999805,None,288.05535229999805,288.55517380003585,,,,,,,,,,,,,,,,209,2023-04-04_14h04.24.511,FishGame,2022.1.1,60.32432772724741,
,9,넌 대담해,3,Green,B,4.875,4.866666666666666,ScrollUp,ScrollDown,Green.png,2,Neutral,Neutral,0,0,0,0,,,,,,,,,,,,,,,,,0,8,8,8,,,,,,,,,,,,,,,,,,,,,,,,,,,,,,,,,,,,,,,,,,,,,,,,,,,,,,,,,,,,,,,,,,,,,,,,,,,,,,,,,2,0.9460074999951757,289.18066790001467,None,ScrollUp,정답입니다,289.18066790001467,None,289.18066790001467,None,289.18066790001467,None,289.18066790001467,None,290.01947860000655,None,290.01947860000655,290.51944260002347,,,,,,,,,,,,,,,,209,2023-04-04_14h04.24.511,FishGame,2022.1.1,60.32432772724741,
,10,넌 꾸준해,1,Orange,A,5.916666666666668,5.8,ScrollDown,ScrollUp,Orange.png,2,Positive,Congruent,0,0,0,0,,,,,,,,,,,,,,,,,0,9,9,9,,,,,,,,,,,,,,,,,,,,,,,,,,,,,,,,,,,,,,,,,,,,,,,,,,,,,,,,,,,,,,,,,,,,,,,,,,,,,,,,,1,0.8317033000057563,291.14208980003605,None,ScrollDown,정답입니다,291.14208980003605,None,291.14208980003605,None,291.14208980003605,None,291.14208980003605,None,291.8697635999997,None,291.8697635999997,292.3718769000261,,,,,,,,,,,,,,,,209,2023-04-04_14h04.24.511,FishGame,2022.1.1,60.32432772724741,
,11,나를 데려가줘,6,Green,B,0,0,ScrollDown,ScrollUp,Green.png,2,NonTarget,NonTarget,0,0,0,0,,,,,,,,,,,,,,,,,0,10,10,10,,,,,,,,,,,,,,,,,,,,,,,,,,,,,,,,,,,,,,,,,,,,,,,,,,,,,,,,,,,,,,,,,,,,,,,,,,,,,,,,,1,1.081737000029534,292.9904613000108,None,ScrollDown,정답입니다,292.9904613000108,None,292.9904613000108,None,292.9904613000108,None,292.9904613000108,None,293.97194800002035,None,293.97194800002035,294.47168329998385,,,,,,,,,,,,,,,,209,2023-04-04_14h04.24.511,FishGame,2022.1.1,60.32432772724741,
,12,넌 독선적이야,5,Orange,A,2.458333333333333,1.933333333333333,ScrollDown,ScrollUp,Orange.png,2,Negative,Incongruent,0,0,0,0,,,,,,,,,,,,,,,,,0,11,11,11,,,,,,,,,,,,,,,,,,,,,,,,,,,,,,,,,,,,,,,,,,,,,,,,,,,,,,,,,,,,,,,,,,,,,,,,,,,,,,,,,1.0817901194095612,0.7630311000393704,295.0955552000087,None,ScrollDown,정답입니다,295.0955552000087,None,295.0955552000087,None,295.0955552000087,None,295.0955552000087,None,295.75505640002666,None,295.75505640002666,296.25503260002006,,,,,,,,,,,,,,,,209,2023-04-04_14h04.24.511,FishGame,2022.1.1,60.32432772724741,
,13,나를 보내줘,6,Orange,A,0,0,ScrollUp,ScrollDown,Orange.png,2,NonTarget,NonTarget,0,0,0,0,,,,,,,,,,,,,,,,,0,12,12,12,,,,,,,,,,,,,,,,,,,,,,,,,,,,,,,,,,,,,,,,,,,,,,,,,,,,,,,,,,,,,,,,,,,,,,,,,,,,,,,,,1.7484567960103354,1.0130582000128925,296.8752744999947,None,ScrollUp,정답입니다,296.8752744999947,None,296.8752744999947,None,296.8752744999947,None,296.8752744999947,None,297.7882599000004,None,297.7882599000004,298.28820569999516,,,,,,,,,,,,,,,,209,2023-04-04_14h04.24.511,FishGame,2022.1.1,60.32432772724741,
,14,넌 책임감있어,1,Green,B,6.347826086956522,6,ScrollUp,ScrollDown,Green.png,2,Positive,Incongruent,0,0,0,0,,,,,,,,,,,,,,,,,0,13,13,13,,,,,,,,,,,,,,,,,,,,,,,,,,,,,,,,,,,,,,,,,,,,,,,,,,,,,,,,,,,,,,,,,,,,,,,,,,,,,,,,,1.5231481483206153,0.8984466000110842,298.9082904999959,None,NoResponse,무응답입니다,298.9082904999959,None,298.9082904999959,None,298.9082904999959,None,298.9082904999959,None,299.70509609999135,None,299.70509609999135,300.2049472000217,,,,,,,,,,,,,,,,209,2023-04-04_14h04.24.511,FishGame,2022.1.1,60.32432772724741,
,15,넌 문학적이야,3,Orange,A,4.708333333333334,4.333333333333333,ScrollDown,ScrollUp,Orange.png,2,Neutral,Neutral,0,0,0,0,,,,,,,,,,,,,,,,,0,14,14,14,,,,,,,,,,,,,,,,,,,,,,,,,,,,,,,,,,,,,,,,,,,,,,,,,,,,,,,,,,,,,,,,,,,,,,,,,,,,,,,,,1.2191358109315236,0.796161700040102,300.82773260003887,None,ScrollDown,정답입니다,300.82773260003887,None,300.82773260003887,None,300.82773260003887,None,300.82773260003887,None,301.5194846999948,None,301.5194846999948,302.02145400003064,,,,,,,,,,,,,,,,209,2023-04-04_14h04.24.511,FishGame,2022.1.1,60.32432772724741,
,16,넌 재미있어,1,Green,B,5.875,5.7,ScrollUp,ScrollDown,Green.png,2,Positive,Incongruent,0,0,0,0,,,,,,,,,,,,,,,,,0,15,15,15,,,,,,,,,,,,,,,,,,,,,,,,,,,,,,,,,,,,,,,,,,,,,,,,,,,,,,,,,,,,,,,,,,,,,,,,,,,,,,,,,1.8564814726511638,0.8484888999955729,302.63949319999665,None,ScrollUp,정답입니다,302.63949319999665,None,302.63949319999665,None,302.63949319999665,None,302.63949319999665,None,303.3881586000207,None,303.3881586000207,303.8881095999968,,,,,,,,,,,,,,,,209,2023-04-04_14h04.24.511,FishGame,2022.1.1,60.32432772724741,
,17,나를 데려가줘,6,Green,B,0,0,ScrollDown,ScrollUp,Green.png,2,NonTarget,NonTarget,0,0,0,0,,,,,,,,,,,,,,,,,0,16,16,16,,,,,,,,,,,,,,,,,,,,,,,,,,,,,,,,,,,,,,,,,,,,,,,,,,,,,,,,,,,,,,,,,,,,,,,,,,,,,,,,,1.1111111094554265,0.881864900002256,304.504405100015,None,ScrollDown,정답입니다,304.504405100015,None,304.504405100015,None,304.504405100015,None,304.504405100015,None,305.28815159999067,None,305.28815159999067,305.80477919999976,,,,,,,,,,,,,,,,209,2023-04-04_14h04.24.511,FishGame,2022.1.1,60.32432772724741,
,18,넌 협력적이야,1,Orange,A,5.625,5.633333333333334,ScrollDown,ScrollUp,Orange.png,2,Positive,Congruent,0,0,0,0,,,,,,,,,,,,,,,,,0,17,17,17,,,,,,,,,,,,,,,,,,,,,,,,,,,,,,,,,,,,,,,,,,,,,,,,,,,,,,,,,,,,,,,,,,,,,,,,,,,,,,,,,1,0.9151432000217028,306.4156082000118,None,ScrollDown,정답입니다,306.4156082000118,None,306.4156082000118,None,306.4156082000118,None,306.4156082000118,None,307.22139870002866,None,307.22139870002866,307.72135060001165,,,,,,,,,,,,,,,,209,2023-04-04_14h04.24.511,FishGame,2022.1.1,60.32432772724741,
,19,넌 평범해,3,Green,B,4.333333333333332,4.233333333333333,ScrollUp,ScrollDown,Green.png,2,Neutral,Neutral,0,0,0,0,,,,,,,,,,,,,,,,,0,18,18,18,,,,,,,,,,,,,,,,,,,,,,,,,,,,,,,,,,,,,,,,,,,,,,,,,,,,,,,,,,,,,,,,,,,,,,,,,,,,,,,,,1.9783950746059418,0.8815364000038244,308.34166090004146,None,ScrollUp,정답입니다,308.34166090004146,None,308.34166090004146,None,308.34166090004146,None,308.34166090004146,None,309.1193115999922,None,309.1193115999922,309.62135780003155,,,,,,,,,,,,,,,,209,2023-04-04_14h04.24.511,FishGame,2022.1.1,60.32432772724741,
,20,넌 오만해,5,Orange,A,2.333333333333333,2,ScrollDown,ScrollUp,Orange.png,2,Negative,Incongruent,0,0,0,0,,,,,,,,,,,,,,,,,0,19,19,19,,,,,,,,,,,,,,,,,,,,,,,,,,,,,,,,,,,,,,,,,,,,,,,,,,,,,,,,,,,,,,,,,,,,,,,,,,,,,,,,,1,0.8463105999981053,310.2424211000325,None,ScrollDown,정답입니다,310.2424211000325,None,310.2424211000325,None,310.2424211000325,None,310.2424211000325,None,310.98809120000806,None,310.98809120000806,311.4878970999853,,,,,,,,,,,,,,,,209,2023-04-04_14h04.24.511,FishGame,2022.1.1,60.32432772724741,
,21,넌 운이없어,4,Green,B,3,3.466666666666667,ScrollUp,ScrollDown,Green.png,2,Negative,Congruent,0,0,0,0,,,,,,,,,,,,,,,,,0,20,20,20,,,,,,,,,,,,,,,,,,,,,,,,,,,,,,,,,,,,,,,,,,,,,,,,,,,,,,,,,,,,,,,,,,,,,,,,,,,,,,,,,1.859567900498708,0.9795697000226937,312.1087156999856,None,ScrollUp,정답입니다,312.1087156999856,None,312.1087156999856,None,312.1087156999856,None,312.1087156999856,None,312.98795849998714,None,312.98795849998714,313.487907600007,,,,,,,,,,,,,,,,209,2023-04-04_14h04.24.511,FishGame,2022.1.1,60.32432772724741,
,22,넌 창조적이야,2,Green,B,6.125,4.633333333333334,ScrollUp,ScrollDown,Green.png,2,Positive,Incongruent,0,0,0,0,,,,,,,,,,,,,,,,,0,21,21,21,,,,,,,,,,,,,,,,,,,,,,,,,,,,,,,,,,,,,,,,,,,,,,,,,,,,,,,,,,,,,,,,,,,,,,,,,,,,,,,,,1.8811728457609813,0.9985874999547377,314.1252517999965,None,ScrollUp,정답입니다,314.1252517999965,None,314.1252517999965,None,314.1252517999965,None,314.1252517999965,None,315.02128789998824,None,315.02128789998824,315.52124420000473,,,,,,,,,,,,,,,,209,2023-04-04_14h04.24.511,FishGame,2022.1.1,60.32432772724741,
,23,나를 보내줘,6,Orange,A,0,0,ScrollUp,ScrollDown,Orange.png,2,NonTarget,NonTarget,0,0,0,0,,,,,,,,,,,,,,,,,0,22,22,22,,,,,,,,,,,,,,,,,,,,,,,,,,,,,,,,,,,,,,,,,,,,,,,,,,,,,,,,,,,,,,,,,,,,,,,,,,,,,,,,,1.983024666706721,1.1644730999832973,316.145567700034,None,ScrollUp,정답입니다,316.145567700034,None,316.145567700034,None,316.145567700034,None,316.145567700034,None,317.2044930999982,None,317.2044930999982,317.7044687999878,,,,,,,,,,,,,,,,209,2023-04-04_14h04.24.511,FishGame,2022.1.1,60.32432772724741,
,24,넌 통찰력있어,2,Orange,A,6.5,4.8,ScrollDown,ScrollUp,Orange.png,2,Positive,Congruent,0,0,0,0,,,,,,,,,,,,,,,,,0,23,23,23,,,,,,,,,,,,,,,,,,,,,,,,,,,,,,,,,,,,,,,,,,,,,,,,,,,,,,,,,,,,,,,,,,,,,,,,,,,,,,,,,1.0972222338120143,1.1295455999788828,318.32953049999196,None,ScrollDown,정답입니다,318.32953049999196,None,318.32953049999196,None,318.32953049999196,None,318.32953049999196,None,319.3544771000161,None,319.3544771000161,319.8544548000209,,,,,,,,,,,,,,,,209,2023-04-04_14h04.24.511,FishGame,2022.1.1,60.32432772724741,
,25,넌 경솔해,5,Green,B,2.458333333333333,2.266666666666667,ScrollUp,ScrollDown,Green.png,2,Negative,Congruent,0,0,0,0,,,,,,,,,,,,,,,,,0,24,24,24,,,,,,,,,,,,,,,,,,,,,,,,,,,,,,,,,,,,,,,,,,,,,,,,,,,,,,,,,,,,,,,,,,,,,,,,,,,,,,,,,1.9012345770994823,0.9713856999878772,320.47280899999896,None,ScrollUp,정답입니다,320.47280899999896,None,320.47280899999896,None,320.47280899999896,None,320.47280899999896,None,321.34664450003766,None,321.34664450003766,321.8543539000093,,,,,,,,,,,,,,,,209,2023-04-04_14h04.24.511,FishGame,2022.1.1,60.32432772724741,
,26,넌 초조해,4,Orange,A,2.916666666666667,3.133333333333333,ScrollDown,ScrollUp,Orange.png,2,Negative,Incongruent,0,0,0,0,,,,,,,,,,,,,,,,,0,25,25,25,,,,,,,,,,,,,,,,,,,,,,,,,,,,,,,,,,,,,,,,,,,,,,,,,,,,,,,,,,,,,,,,,,,,,,,,,,,,,,,,,1,0.8800891000428237,322.4778216999839,None,ScrollDown,정답입니다,322.4778216999839,None,322.4778216999839,None,322.4778216999839,None,322.4778216999839,None,323.2543641999946,None,323.2543641999946,323.7543424000032,,,,,,,,,,,,,,,,209,2023-04-04_14h04.24.511,FishGame,2022.1.1,60.32432772724741,
,27,넌 무관심해,4,Green,B,2.833333333333333,2.9,ScrollUp,ScrollDown,Green.png,2,Negative,Congruent,0,0,0,0,,,,,,,,,,,,,,,,,0,26,26,26,,,,,,,,,,,,,,,,,,,,,,,,,,,,,,,,,,,,,,,,,,,,,,,,,,,,,,,,,,,,,,,,,,,,,,,,,,,,,,,,,2,0.8795922999852337,324.3752996000112,None,ScrollUp,정답입니다,324.3752996000112,None,324.3752996000112,None,324.3752996000112,None,324.3752996000112,None,325.15431330003776,None,325.15431330003776,325.65434980002465,,,,,,,,,,,,,,,,209,2023-04-04_14h04.24.511,FishGame,2022.1.1,60.32432772724741,
,28,넌 감성적이야,3,Green,B,4.125,4.166666666666667,ScrollUp,ScrollDown,Green.png,2,Neutral,Neutral,0,0,0,0,,,,,,,,,,,,,,,,,0,27,27,27,,,,,,,,,,,,,,,,,,,,,,,,,,,,,,,,,,,,,,,,,,,,,,,,,,,,,,,,,,,,,,,,,,,,,,,,,,,,,,,,,2,1.029488800035324,326.2721092000138,None,ScrollUp,정답입니다,326.2721092000138,None,326.2721092000138,None,326.2721092000138,None,326.2721092000138,None,327.20196109998506,None,327.20196109998506,327.7019672000315,,,,,,,,,,,,,,,,209,2023-04-04_14h04.24.511,FishGame,2022.1.1,60.32432772724741,
,29,넌 배려심있어,1,Orange,A,6.083333333333333,5.5,ScrollDown,ScrollUp,Orange.png,2,Positive,Congruent,0,0,0,0,,,,,,,,,,,,,,,,,0,28,28,28,,,,,,,,,,,,,,,,,,,,,,,,,,,,,,,,,,,,,,,,,,,,,,,,,,,,,,,,,,,,,,,,,,,,,,,,,,,,,,,,,1.1527777860562007,0.8318036000127904,328.32321860000957,None,ScrollDown,정답입니다,328.32321860000957,None,328.32321860000957,None,328.32321860000957,None,328.32321860000957,None,329.0520120000001,None,329.0520120000001,329.55437770002754,,,,,,,,,,,,,,,,209,2023-04-04_14h04.24.511,FishGame,2022.1.1,60.32432772724741,
,30,넌 숨김없어,3,Orange,A,4.5,4.933333333333334,ScrollDown,ScrollUp,Orange.png,2,Neutral,Neutral,0,0,0,0,,,,,,,,,,,,,,,,,0,29,29,29,,,,,,,,,,,,,,,,,,,,,,,,,,,,,,,,,,,,,,,,,,,,,,,,,,,,,,,,,,,,,,,,,,,,,,,,,,,,,,,,,1.0324074228604634,0.8485668000066653,330.1764134000405,None,ScrollDown,정답입니다,330.1764134000405,None,330.1764134000405,None,330.1764134000405,None,330.1764134000405,None,330.9211875000037,None,330.9211875000037,331.42099810001673,,,,,,,,,,,,,,,,209,2023-04-04_14h04.24.511,FishGame,2022.1.1,60.32432772724741,
,31,넌 훌륭해,2,Green,B,5.916666666666667,4.033333333333333,ScrollUp,ScrollDown,Green.png,2,Positive,Incongruent,0,0,0,0,,,,,,,,,,,,,,,,,0,30,30,30,,,,,,,,,,,,,,,,,,,,,,,,,,,,,,,,,,,,,,,,,,,,,,,,,,,,,,,,,,,,,,,,,,,,,,,,,,,,,,,,,2,0.8964548000367358,332.0411702999845,None,ScrollUp,정답입니다,332.0411702999845,None,332.0411702999845,None,332.0411702999845,None,332.0411702999845,None,332.8375890000025,None,332.8375890000025,333.3374930000282,,,,,,,,,,,,,,,,209,2023-04-04_14h04.24.511,FishGame,2022.1.1,60.32432772724741,
,32,넌 슬기로워,2,Orange,A,6.166666666666667,4.1,ScrollDown,ScrollUp,Orange.png,2,Positive,Congruent,0,0,0,0,,,,,,,,,,,,,,,,,0,31,31,31,,,,,,,,,,,,,,,,,,,,,,,,,,,,,,,,,,,,,,,,,,,,,,,,,,,,,,,,,,,,,,,,,,,,,,,,,,,,,,,,,1.1250000099341075,0.9960529000381939,333.961104099988,None,ScrollDown,정답입니다,333.961104099988,None,333.961104099988,None,333.961104099988,None,333.961104099988,None,334.85180689999834,None,334.85180689999834,335.35179700003937,,,,,,,,,,,,,,,,209,2023-04-04_14h04.24.511,FishGame,2022.1.1,60.32432772724741,
,33,넌 냉혹해,5,Orange,A,2.583333333333333,2.1,ScrollDown,ScrollUp,Orange.png,2,Negative,Incongruent,0,0,0,0,,,,,,,,,,,,,,,,,0,32,32,32,,,,,,,,,,,,,,,,,,,,,,,,,,,,,,,,,,,,,,,,,,,,,,,,,,,,,,,,,,,,,,,,,,,,,,,,,,,,,,,,,1,1.0816259999992326,335.97108819999266,None,ScrollDown,정답입니다,335.97108819999266,None,335.97108819999266,None,335.97108819999266,None,335.97108819999266,None,336.9518073000363,None,336.9518073000363,337.45182760001626,,,,,,,,,,,,,,,,209,2023-04-04_14h04.24.511,FishGame,2022.1.1,60.32432772724741,
,34,나를 데려가줘,6,Green,B,0,0,ScrollDown,ScrollUp,Green.png,2,NonTarget,NonTarget,0,0,0,0,,,,,,,,,,,,,,,,,0,33,33,33,,,,,,,,,,,,,,,,,,,,,,,,,,,,,,,,,,,,,,,,,,,,,,,,,,,,,,,,,,,,,,,,,,,,,,,,,,,,,,,,,1.0817901194095612,0.9649765000212938,338.0719893000205,None,ScrollDown,정답입니다,338.0719893000205,None,338.0719893000205,None,338.0719893000205,None,338.0719893000205,None,338.9376662999857,None,338.9376662999857,339.43756270001177,,,,,,,,,,,,,,,,209,2023-04-04_14h04.24.511,FishGame,2022.1.1,60.32432772724741,
,35,넌 편파적이야,5,Green,B,2.125,2,ScrollUp,ScrollDown,Green.png,2,Negative,Congruent,0,0,0,0,,,,,,,,,,,,,,,,,0,34,34,34,,,,,,,,,,,,,,,,,,,,,,,,,,,,,,,,,,,,,,,,,,,,,,,,,,,,,,,,,,,,,,,,,,,,,,,,,,,,,,,,,2,0.8600037000142038,340.05970480002,None,ScrollUp,정답입니다,340.05970480002,None,340.05970480002,None,340.05970480002,None,340.05970480002,None,340.8081347999978,None,340.8081347999978,341.3183393999934,,,,,,,,,,,,,,,,209,2023-04-04_14h04.24.511,FishGame,2022.1.1,60.32432772724741,
,36,넌 슬퍼,4,Orange,A,2.583333333333333,3.066666666666667,ScrollDown,ScrollUp,Orange.png,2,Negative,Incongruent,0,0,0,0,,,,,,,,,,,,,,,,,0,35,35,35,,,,,,,,,,,,,,,,,,,,,,,,,,,,,,,,,,,,,,,,,,,,,,,,,,,,,,,,,,,,,,,,,,,,,,,,,,,,,,,,,1,0.8140272999880835,341.9357951999991,None,ScrollDown,정답입니다,341.9357951999991,None,341.9357951999991,None,341.9357951999991,None,341.9357951999991,None,342.6517082999926,None,342.6517082999926,343.1516868000035,,,,,,,,,,,,,,,,209,2023-04-04_14h04.24.511,FishGame,2022.1.1,60.32432772724741,
,37,나를 데려가줘,6,Green,B,0,0,ScrollDown,ScrollUp,Green.png,2,NonTarget,NonTarget,0,0,0,0,,,,,,,,,,,,,,,,,0,36,36,36,,,,,,,,,,,,,,,,,,,,,,,,,,,,,,,,,,,,,,,,,,,,,,,,,,,,,,,,,,,,,,,,,,,,,,,,,,,,,,,,,1,0.865266699984204,343.77368290000595,None,ScrollDown,정답입니다,343.77368290000595,None,343.77368290000595,None,343.77368290000595,None,343.77368290000595,None,344.5375842000358,None,344.5375842000358,345.0374090000405,,,,,,,,,,,,,,,,209,2023-04-04_14h04.24.511,FishGame,2022.1.1,60.32432772724741,
,38,넌 친절해,1,Green,B,6.041666666666667,5.533333333333333,ScrollUp,ScrollDown,Green.png,2,Positive,Incongruent,0,0,0,0,,,,,,,,,,,,,,,,,0,37,37,37,,,,,,,,,,,,,,,,,,,,,,,,,,,,,,,,,,,,,,,,,,,,,,,,,,,,,,,,,,,,,,,,,,,,,,,,,,,,,,,,,2,1.1116649999748915,345.6681093000225,None,ScrollUp,정답입니다,345.6681093000225,None,345.6681093000225,None,345.6681093000225,None,345.6681093000225,None,346.6685309000313,None,346.6685309000313,347.17052350001177,,,,,,,,,,,,,,,,209,2023-04-04_14h04.24.511,FishGame,2022.1.1,60.32432772724741,
,1,넌 엉성해,4,Orange,A,3,3.3,ScrollDown,ScrollUp,Orange.png,3,Negative,Incongruent,0,0,0,0,,,,,,,,,,,,,,,,,,,,,0,0,0,0,,,,,,,,,,,,,,,,,,,,,,,,,,,,,,,,,,,,379.80140719999326,381.30331739998655,381.3366487000021,382.28660009999294,382.33663620002335,383.2897738000029,383.2731051000301,None,,,,,,,,,,,,,,,,,,,,,,,,,,,,,,,,,,1,1.1861074999906123,384.39685240003746,None,ScrollDown,정답입니다,384.39685240003746,None,384.39685240003746,None,384.39685240003746,None,384.39685240003746,None,385.4698353999993,None,385.4698353999993,385.97303590003867,347.6705834000022,None,347.6705834000022,None,0.16481481,-0.097222224,1,0,0,0.016207439999561757,None,377.67291520000435,None,,,209,2023-04-04_14h04.24.511,FishGame,2022.1.1,60.32432772724741,
,2,나를 보내줘,6,Orange,A,0,0,ScrollUp,ScrollDown,Orange.png,3,NonTarget,NonTarget,0,0,0,0,,,,,,,,,,,,,,,,,,,,,0,1,1,1,,,,,,,,,,,,,,,,,,,,,,,,,,,,,,,,,,,,,,,,,,,,,,,,,,,,,,,,,,,,,,,,,,,,,,,,,,,,,1.817901223897934,0.8961190999834798,386.5884515999933,None,ScrollUp,정답입니다,386.5884515999933,None,386.5884515999933,None,386.5884515999933,None,386.5884515999933,None,387.3863703000243,None,387.3863703000243,387.88627339998493,,,,,,,,,,,,,,,,209,2023-04-04_14h04.24.511,FishGame,2022.1.1,60.32432772724741,
,3,넌 활발해,1,Green,B,5.666666666666667,5.6,ScrollUp,ScrollDown,Green.png,3,Positive,Incongruent,0,0,0,0,,,,,,,,,,,,,,,,,,,,,0,2,2,2,,,,,,,,,,,,,,,,,,,,,,,,,,,,,,,,,,,,,,,,,,,,,,,,,,,,,,,,,,,,,,,,,,,,,,,,,,,,,2,0.8942293000291102,388.52152900001965,None,ScrollUp,정답입니다,388.52152900001965,None,388.52152900001965,None,388.52152900001965,None,388.52152900001965,None,389.30092290003086,None,389.30092290003086,389.80295079998905,,,,,,,,,,,,,,,,209,2023-04-04_14h04.24.511,FishGame,2022.1.1,60.32432772724741,
,4,넌 논리적이야,2,Orange,A,5.666666666666666,4.633333333333334,ScrollDown,ScrollUp,Orange.png,3,Positive,Congruent,0,0,0,0,,,,,,,,,,,,,,,,,,,,,0,3,3,3,,,,,,,,,,,,,,,,,,,,,,,,,,,,,,,,,,,,,,,,,,,,,,,,,,,,,,,,,,,,,,,,,,,,,,,,,,,,,1,0.9295482999878004,390.4402790000313,None,ScrollDown,정답입니다,390.4402790000313,None,390.4402790000313,None,390.4402790000313,None,390.4402790000313,None,391.2528425999917,None,391.2528425999917,391.7528621000238,,,,,,,,,,,,,,,,209,2023-04-04_14h04.24.511,FishGame,2022.1.1,60.32432772724741,
,5,넌 과묵해,3,Orange,A,3.875,4.4,ScrollDown,ScrollUp,Orange.png,3,Neutral,Neutral,0,0,0,0,,,,,,,,,,,,,,,,,,,,,0,4,4,4,,,,,,,,,,,,,,,,,,,,,,,,,,,,,,,,,,,,,,,,,,,,,,,,,,,,,,,,,,,,,,,,,,,,,,,,,,,,,1,0.9818796000326984,392.3774596999865,None,ScrollDown,정답입니다,392.3774596999865,None,392.3774596999865,None,392.3774596999865,None,392.3774596999865,None,393.2508872000035,None,393.2508872000035,393.75286629999755,,,,,,,,,,,,,,,,209,2023-04-04_14h04.24.511,FishGame,2022.1.1,60.32432772724741,
,6,나를 데려가줘,6,Green,B,0,0,ScrollDown,ScrollUp,Green.png,3,NonTarget,NonTarget,0,0,0,0,,,,,,,,,,,,,,,,,,,,,0,5,5,5,,,,,,,,,,,,,,,,,,,,,,,,,,,,,,,,,,,,,,,,,,,,,,,,,,,,,,,,,,,,,,,,,,,,,,,,,,,,,1.0416666567325592,0.9928389000124298,394.37979490001453,None,ScrollDown,정답입니다,394.37979490001453,None,394.37979490001453,None,394.37979490001453,None,394.37979490001453,None,395.26720360002946,None,395.26720360002946,395.7673072000034,,,,,,,,,,,,,,,,209,2023-04-04_14h04.24.511,FishGame,2022.1.1,60.32432772724741,
,7,넌 미숙해,4,Green,B,3,3,ScrollUp,ScrollDown,Green.png,3,Negative,Congruent,0,0,0,0,,,,,,,,,,,,,,,,,,,,,0,6,6,6,,,,,,,,,,,,,,,,,,,,,,,,,,,,,,,,,,,,,,,,,,,,,,,,,,,,,,,,,,,,,,,,,,,,,,,,,,,,,1.9691357910633087,1.0823907000012696,396.3822790000122,None,ScrollUp,정답입니다,396.3822790000122,None,396.3822790000122,None,396.3822790000122,None,396.3822790000122,None,397.36714779998874,None,397.36714779998874,397.86717929999577,,,,,,,,,,,,,,,,209,2023-04-04_14h04.24.511,FishGame,2022.1.1,60.32432772724741,
,8,나를 보내줘,6,Orange,A,0,0,ScrollUp,ScrollDown,Orange.png,3,NonTarget,NonTarget,0,0,0,0,,,,,,,,,,,,,,,,,,,,,0,7,7,7,,,,,,,,,,,,,,,,,,,,,,,,,,,,,,,,,,,,,,,,,,,,,,,,,,,,,,,,,,,,,,,,,,,,,,,,,,,,,2,0.9147674000123516,398.4903893999872,None,ScrollUp,정답입니다,398.4903893999872,None,398.4903893999872,None,398.4903893999872,None,398.4903893999872,None,399.302962900023,None,399.302962900023,399.8028495000326,,,,,,,,,,,,,,,,209,2023-04-04_14h04.24.511,FishGame,2022.1.1,60.32432772724741,
,9,넌 자신만만해,3,Green,B,4.833333333333334,4.333333333333333,ScrollUp,ScrollDown,Green.png,3,Neutral,Neutral,0,0,0,0,,,,,,,,,,,,,,,,,,,,,0,8,8,8,,,,,,,,,,,,,,,,,,,,,,,,,,,,,,,,,,,,,,,,,,,,,,,,,,,,,,,,,,,,,,,,,,,,,,,,,,,,,1.6959876591960588,0.7648091000155546,400.4205187000334,None,ScrollUp,정답입니다,400.4205187000334,None,400.4205187000334,None,400.4205187000334,None,400.4205187000334,None,401.08614410000155,None,401.08614410000155,401.58600880001904,,,,,,,,,,,,,,,,209,2023-04-04_14h04.24.511,FishGame,2022.1.1,60.32432772724741,
,10,넌 탐욕스러워,5,Orange,A,2.25,2.1,ScrollDown,ScrollUp,Orange.png,3,Negative,Incongruent,0,0,0,0,,,,,,,,,,,,,,,,,,,,,0,9,9,9,,,,,,,,,,,,,,,,,,,,,,,,,,,,,,,,,,,,,,,,,,,,,,,,,,,,,,,,,,,,,,,,,,,,,,,,,,,,,1.1774691343307495,0.7631099999998696,402.20941140002105,None,ScrollDown,정답입니다,402.20941140002105,None,402.20941140002105,None,402.20941140002105,None,402.20941140002105,None,402.8694294000161,None,402.8694294000161,403.36937179998495,,,,,,,,,,,,,,,,209,2023-04-04_14h04.24.511,FishGame,2022.1.1,60.32432772724741,
,11,넌 인기있어,2,Orange,A,5.458333333333333,4.5,ScrollDown,ScrollUp,Orange.png,3,Positive,Congruent,0,0,0,0,,,,,,,,,,,,,,,,,,,,,0,10,10,10,,,,,,,,,,,,,,,,,,,,,,,,,,,,,,,,,,,,,,,,,,,,,,,,,,,,,,,,,,,,,,,,,,,,,,,,,,,,,1,0.8815441000042483,403.98911530000623,None,ScrollDown,정답입니다,403.98911530000623,None,403.98911530000623,None,403.98911530000623,None,403.98911530000623,None,404.76926279999316,None,404.76926279999316,405.26925479999045,,,,,,,,,,,,,,,,209,2023-04-04_14h04.24.511,FishGame,2022.1.1,60.32432772724741,
,12,나를 데려가줘,6,Green,B,0,0,ScrollDown,ScrollUp,Green.png,3,NonTarget,NonTarget,0,0,0,0,,,,,,,,,,,,,,,,,,,,,0,11,11,11,,,,,,,,,,,,,,,,,,,,,,,,,,,,,,,,,,,,,,,,,,,,,,,,,,,,,,,,,,,,,,,,,,,,,,,,,,,,,1.1172839403152466,0.9983610999770463,405.8866450000205,None,ScrollDown,정답입니다,405.8866450000205,None,405.8866450000205,None,405.8866450000205,None,405.8866450000205,None,406.7860000000219,None,406.7860000000219,407.28373520000605,,,,,,,,,,,,,,,,209,2023-04-04_14h04.24.511,FishGame,2022.1.1,60.32432772724741,
,13,넌 뛰어나,2,Green,B,6.166666666666667,4,ScrollUp,ScrollDown,Green.png,3,Positive,Incongruent,0,0,0,0,,,,,,,,,,,,,,,,,,,,,0,12,12,12,,,,,,,,,,,,,,,,,,,,,,,,,,,,,,,,,,,,,,,,,,,,,,,,,,,,,,,,,,,,,,,,,,,,,,,,,,,,,2,0.9292625999660231,407.91085600003134,None,ScrollUp,정답입니다,407.91085600003134,None,407.91085600003134,None,407.91085600003134,None,407.91085600003134,None,408.7335662000114,None,408.7335662000114,409.23360750003485,,,,,,,,,,,,,,,,209,2023-04-04_14h04.24.511,FishGame,2022.1.1,60.32432772724741,
,14,넌 낙관적이야,1,Orange,A,5.75,5.8,ScrollDown,ScrollUp,Orange.png,3,Positive,Congruent,0,0,0,0,,,,,,,,,,,,,,,,,,,,,0,13,13,13,,,,,,,,,,,,,,,,,,,,,,,,,,,,,,,,,,,,,,,,,,,,,,,,,,,,,,,,,,,,,,,,,,,,,,,,,,,,,1.0077160497506459,0.7815363999688998,409.85232639999595,None,ScrollDown,정답입니다,409.85232639999595,None,409.85232639999595,None,409.85232639999595,None,409.85232639999595,None,410.533580599993,None,410.533580599993,411.03595920000225,,,,,,,,,,,,,,,,209,2023-04-04_14h04.24.511,FishGame,2022.1.1,60.32432772724741,
,15,넌 산만해,4,Green,B,2.695652173913043,3.033333333333333,ScrollUp,ScrollDown,Green.png,3,Negative,Congruent,0,0,0,0,,,,,,,,,,,,,,,,,,,,,0,14,14,14,,,,,,,,,,,,,,,,,,,,,,,,,,,,,,,,,,,,,,,,,,,,,,,,,,,,,,,,,,,,,,,,,,,,,,,,,,,,,1.733024681607882,0.7650750000029802,411.6553967000218,None,ScrollUp,정답입니다,411.6553967000218,None,411.6553967000218,None,411.6553967000218,None,411.6553967000218,None,412.31947280000895,None,412.31947280000895,412.81924590002745,,,,,,,,,,,,,,,,209,2023-04-04_14h04.24.511,FishGame,2022.1.1,60.32432772724741,
,16,나를 보내줘,6,Orange,A,0,0,ScrollUp,ScrollDown,Orange.png,3,NonTarget,NonTarget,0,0,0,0,,,,,,,,,,,,,,,,,,,,,0,15,15,15,,,,,,,,,,,,,,,,,,,,,,,,,,,,,,,,,,,,,,,,,,,,,,,,,,,,,,,,,,,,,,,,,,,,,,,,,,,,,1.5108024687506258,0.8952262999955565,413.44381409999914,None,NoResponse,무응답입니다,413.44381409999914,None,413.44381409999914,None,413.44381409999914,None,413.44381409999914,None,414.2337672000285,None,414.2337672000285,414.7357634000364,,,,,,,,,,,,,,,,209,2023-04-04_14h04.24.511,FishGame,2022.1.1,60.32432772724741,
,17,넌 교활해,5,Green,B,2.333333333333333,2.133333333333333,ScrollUp,ScrollDown,Green.png,3,Negative,Congruent,0,0,0,0,,,,,,,,,,,,,,,,,,,,,0,16,16,16,,,,,,,,,,,,,,,,,,,,,,,,,,,,,,,,,,,,,,,,,,,,,,,,,,,,,,,,,,,,,,,,,,,,,,,,,,,,,1.663580241302649,0.7923653000034392,415.36914279998746,None,ScrollUp,정답입니다,415.36914279998746,None,415.36914279998746,None,415.36914279998746,None,415.36914279998746,None,416.05006079998566,None,416.05006079998566,416.55094520002604,,,,,,,,,,,,,,,,209,2023-04-04_14h04.24.511,FishGame,2022.1.1,60.32432772724741,
,18,나를 보내줘,6,Orange,A,0,0,ScrollUp,ScrollDown,Orange.png,3,NonTarget,NonTarget,0,0,0,0,,,,,,,,,,,,,,,,,,,,,0,17,17,17,,,,,,,,,,,,,,,,,,,,,,,,,,,,,,,,,,,,,,,,,,,,,,,,,,,,,,,,,,,,,,,,,,,,,,,,,,,,,1.467592591419816,0.8120927000418305,417.1720833000145,None,NoResponse,무응답입니다,417.1720833000145,None,417.1720833000145,None,417.1720833000145,None,417.1720833000145,None,417.88341180002317,None,417.88341180002317,418.385813800036,,,,,,,,,,,,,,,,209,2023-04-04_14h04.24.511,FishGame,2022.1.1,60.32432772724741,
,19,넌 불친절해,5,Green,B,2.208333333333333,2.033333333333333,ScrollUp,ScrollDown,Green.png,3,Negative,Congruent,0,0,0,0,,,,,,,,,,,,,,,,,,,,,0,18,18,18,,,,,,,,,,,,,,,,,,,,,,,,,,,,,,,,,,,,,,,,,,,,,,,,,,,,,,,,,,,,,,,,,,,,,,,,,,,,,1.8472222139437993,0.8629514000494964,419.01550819998374,None,ScrollUp,정답입니다,419.01550819998374,None,419.01550819998374,None,419.01550819998374,None,419.01550819998374,None,419.7691445000237,None,419.7691445000237,420.26904859999195,,,,,,,,,,,,,,,,209,2023-04-04_14h04.24.511,FishGame,2022.1.1,60.32432772724741,
,20,넌 지적이야,2,Green,B,5.75,4.366666666666666,ScrollUp,ScrollDown,Green.png,3,Positive,Incongruent,0,0,0,0,,,,,,,,,,,,,,,,,,,,,0,19,19,19,,,,,,,,,,,,,,,,,,,,,,,,,,,,,,,,,,,,,,,,,,,,,,,,,,,,,,,,,,,,,,,,,,,,,,,,,,,,,1.4953703702582668,0.7646854000049643,420.88641149998875,None,NoResponse,무응답입니다,420.88641149998875,None,420.88641149998875,None,420.88641149998875,None,420.88641149998875,None,421.55223490000935,None,421.55223490000935,422.0522516000201,,,,,,,,,,,,,,,,209,2023-04-04_14h04.24.511,FishGame,2022.1.1,60.32432772724741,
,21,넌 우유부단해,4,Orange,A,2.666666666666667,3.166666666666667,ScrollDown,ScrollUp,Orange.png,3,Negative,Incongruent,0,0,0,0,,,,,,,,,,,,,,,,,,,,,0,20,20,20,,,,,,,,,,,,,,,,,,,,,,,,,,,,,,,,,,,,,,,,,,,,,,,,,,,,,,,,,,,,,,,,,,,,,,,,,,,,,1,0.9483007999951951,422.68299990001833,None,ScrollDown,정답입니다,422.68299990001833,None,422.68299990001833,None,422.68299990001833,None,422.68299990001833,None,423.5190162000363,None,423.5190162000363,424.01889910001773,,,,,,,,,,,,,,,,209,2023-04-04_14h04.24.511,FishGame,2022.1.1,60.32432772724741,
,22,나를 데려가줘,6,Green,B,0,0,ScrollDown,ScrollUp,Green.png,3,NonTarget,NonTarget,0,0,0,0,,,,,,,,,,,,,,,,,,,,,0,21,21,21,,,,,,,,,,,,,,,,,,,,,,,,,,,,,,,,,,,,,,,,,,,,,,,,,,,,,,,,,,,,,,,,,,,,,,,,,,,,,1,1.0627541999565437,424.64101010002196,None,ScrollDown,정답입니다,424.64101010002196,None,424.64101010002196,None,424.64101010002196,None,424.64101010002196,None,425.6021822000039,None,425.6021822000039,426.1021076000179,,,,,,,,,,,,,,,,209,2023-04-04_14h04.24.511,FishGame,2022.1.1,60.32432772724741,
,23,넌 성실해,1,Green,B,6.041666666666666,5.7,ScrollUp,ScrollDown,Green.png,3,Positive,Incongruent,0,0,0,0,,,,,,,,,,,,,,,,,,,,,0,22,22,22,,,,,,,,,,,,,,,,,,,,,,,,,,,,,,,,,,,,,,,,,,,,,,,,,,,,,,,,,,,,,,,,,,,,,,,,,,,,,1.9367283980051677,0.8484242999693379,426.71896440000273,None,ScrollUp,정답입니다,426.71896440000273,None,426.71896440000273,None,426.71896440000273,None,426.71896440000273,None,427.4688809000072,None,427.4688809000072,427.96877109998604,,,,,,,,,,,,,,,,209,2023-04-04_14h04.24.511,FishGame,2022.1.1,60.32432772724741,
,24,넌 현실주의적이야,3,Orange,A,4.625,4.4,ScrollDown,ScrollUp,Orange.png,3,Neutral,Neutral,0,0,0,0,,,,,,,,,,,,,,,,,,,,,0,23,23,23,,,,,,,,,,,,,,,,,,,,,,,,,,,,,,,,,,,,,,,,,,,,,,,,,,,,,,,,,,,,,,,,,,,,,,,,,,,,,1,0.9318548999726772,428.59462390001863,None,ScrollDown,정답입니다,428.59462390001863,None,428.59462390001863,None,428.59462390001863,None,428.59462390001863,None,429.4189873000141,None,429.4189873000141,429.92207510001026,,,,,,,,,,,,,,,,209,2023-04-04_14h04.24.511,FishGame,2022.1.1,60.32432772724741,
,25,넌 진실돼,1,Orange,A,6.625,5.566666666666666,ScrollDown,ScrollUp,Orange.png,3,Positive,Congruent,0,0,0,0,,,,,,,,,,,,,,,,,,,,,0,24,24,24,,,,,,,,,,,,,,,,,,,,,,,,,,,,,,,,,,,,,,,,,,,,,,,,,,,,,,,,,,,,,,,,,,,,,,,,,,,,,1,0.8962012999691069,430.5441327000153,None,ScrollDown,정답입니다,430.5441327000153,None,430.5441327000153,None,430.5441327000153,None,430.5441327000153,None,431.3353627999895,None,431.3353627999895,431.8353059000219,,,,,,,,,,,,,,,,209,2023-04-04_14h04.24.511,FishGame,2022.1.1,60.32432772724741,
,26,넌 천진난만해,3,Green,B,4.958333333333334,4.833333333333333,ScrollUp,ScrollDown,Green.png,3,Neutral,Neutral,0,0,0,0,,,,,,,,,,,,,,,,,,,,,0,25,25,25,,,,,,,,,,,,,,,,,,,,,,,,,,,,,,,,,,,,,,,,,,,,,,,,,,,,,,,,,,,,,,,,,,,,,,,,,,,,,1.8950617214043934,0.8128067999496125,432.4559694000054,None,ScrollUp,정답입니다,432.4559694000054,None,432.4559694000054,None,432.4559694000054,None,432.4559694000054,None,433.16871659999015,None,433.16871659999015,433.66879289998906,,,,,,,,,,,,,,,,209,2023-04-04_14h04.24.511,FishGame,2022.1.1,60.32432772724741,
,27,넌 교양없어,5,Orange,A,2.416666666666667,2.2,ScrollDown,ScrollUp,Orange.png,3,Negative,Incongruent,0,0,0,0,,,,,,,,,,,,,,,,,,,,,0,26,26,26,,,,,,,,,,,,,,,,,,,,,,,,,,,,,,,,,,,,,,,,,,,,,,,,,,,,,,,,,,,,,,,,,,,,,,,,,,,,,1,0.9790498999645934,434.2973699999857,None,ScrollDown,정답입니다,434.2973699999857,None,434.2973699999857,None,434.2973699999857,None,434.2973699999857,None,435.1663154999842,None,435.1663154999842,435.666297400021,,,,,,,,,,,,,,,,209,2023-04-04_14h04.24.511,FishGame,2022.1.1,60.32432772724741,
,28,나를 보내줘,6,Orange,A,0,0,ScrollUp,ScrollDown,Orange.png,3,NonTarget,NonTarget,0,0,0,0,,,,,,,,,,,,,,,,,,,,,0,27,27,27,,,,,,,,,,,,,,,,,,,,,,,,,,,,,,,,,,,,,,,,,,,,,,,,,,,,,,,,,,,,,,,,,,,,,,,,,,,,,1.7052469179034233,0.9506805999553762,436.2854039000231,None,ScrollUp,정답입니다,436.2854039000231,None,436.2854039000231,None,436.2854039000231,None,436.2854039000231,None,437.13544590002857,None,437.13544590002857,437.63540020002984,,,,,,,,,,,,,,,,209,2023-04-04_14h04.24.511,FishGame,2022.1.1,60.32432772724741,
,29,넌 엉뚱스러워,3,Orange,A,4.166666666666667,4.133333333333334,ScrollDown,ScrollUp,Orange.png,3,Neutral,Neutral,0,0,0,0,,,,,,,,,,,,,,,,,,,,,0,28,28,28,,,,,,,,,,,,,,,,,,,,,,,,,,,,,,,,,,,,,,,,,,,,,,,,,,,,,,,,,,,,,,,,,,,,,,,,,,,,,1,0.8983367999899201,438.2590295000118,None,ScrollDown,정답입니다,438.2590295000118,None,438.2590295000118,None,438.2590295000118,None,438.2590295000118,None,439.052144700021,None,439.052144700021,439.55187040002784,,,,,,,,,,,,,,,,209,2023-04-04_14h04.24.511,FishGame,2022.1.1,60.32432772724741,
,30,넌 무지해,4,Green,B,2.541666666666667,3.066666666666667,ScrollUp,ScrollDown,Green.png,3,Negative,Congruent,0,0,0,0,,,,,,,,,,,,,,,,,,,,,0,29,29,29,,,,,,,,,,,,,,,,,,,,,,,,,,,,,,,,,,,,,,,,,,,,,,,,,,,,,,,,,,,,,,,,,,,,,,,,,,,,,1.9506172736485798,0.9128509999718517,440.1672676000162,None,ScrollUp,정답입니다,440.1672676000162,None,440.1672676000162,None,440.1672676000162,None,440.1672676000162,None,440.9852420000243,None,440.9852420000243,441.48520639998605,,,,,,,,,,,,,,,,209,2023-04-04_14h04.24.511,FishGame,2022.1.1,60.32432772724741,
,31,넌 음울해,5,Green,B,2.25,2.233333333333333,ScrollUp,ScrollDown,Green.png,3,Negative,Congruent,0,0,0,0,,,,,,,,,,,,,,,,,,,,,0,30,30,30,,,,,,,,,,,,,,,,,,,,,,,,,,,,,,,,,,,,,,,,,,,,,,,,,,,,,,,,,,,,,,,,,,,,,,,,,,,,,1.7947530895471573,0.9813404999440536,442.10469060001196,None,ScrollUp,정답입니다,442.10469060001196,None,442.10469060001196,None,442.10469060001196,None,442.10469060001196,None,442.9830390000134,None,442.9830390000134,443.48506080004154,,,,,,,,,,,,,,,,209,2023-04-04_14h04.24.511,FishGame,2022.1.1,60.32432772724741,
,32,넌 냉소적이야,5,Orange,A,2.916666666666667,2.4,ScrollDown,ScrollUp,Orange.png,3,Negative,Incongruent,0,0,0,0,,,,,,,,,,,,,,,,,,,,,0,31,31,31,,,,,,,,,,,,,,,,,,,,,,,,,,,,,,,,,,,,,,,,,,,,,,,,,,,,,,,,,,,,,,,,,,,,,,,,,,,,,1.0447530845801036,1.0318520999862812,444.10591570002725,None,ScrollDown,정답입니다,444.10591570002725,None,444.10591570002725,None,444.10591570002725,None,444.10591570002725,None,445.0351493000053,None,445.0351493000053,445.53508810000494,,,,,,,,,,,,,,,,209,2023-04-04_14h04.24.511,FishGame,2022.1.1,60.32432772724741,
,33,나를 데려가줘,6,Green,B,0,0,ScrollDown,ScrollUp,Green.png,3,NonTarget,NonTarget,0,0,0,0,,,,,,,,,,,,,,,,,,,,,0,32,32,32,,,,,,,,,,,,,,,,,,,,,,,,,,,,,,,,,,,,,,,,,,,,,,,,,,,,,,,,,,,,,,,,,,,,,,,,,,,,,1,1.0458643999882042,446.1514426000067,None,ScrollDown,정답입니다,446.1514426000067,None,446.1514426000067,None,446.1514426000067,None,446.1514426000067,None,447.0993754999945,None,447.0993754999945,447.59937409998383,,,,,,,,,,,,,,,,209,2023-04-04_14h04.24.511,FishGame,2022.1.1,60.32432772724741,
,34,넌 쾌활해,1,Orange,A,5.541666666666666,5.733333333333333,ScrollDown,ScrollUp,Orange.png,3,Positive,Congruent,0,0,0,0,,,,,,,,,,,,,,,,,,,,,0,33,33,33,,,,,,,,,,,,,,,,,,,,,,,,,,,,,,,,,,,,,,,,,,,,,,,,,,,,,,,,,,,,,,,,,,,,,,,,,,,,,1.0108024775981903,0.9482339000096545,448.2206053000409,None,ScrollDown,정답입니다,448.2206053000409,None,448.2206053000409,None,448.2206053000409,None,448.2206053000409,None,449.06608250003774,None,449.06608250003774,449.56844900001306,,,,,,,,,,,,,,,,209,2023-04-04_14h04.24.511,FishGame,2022.1.1,60.32432772724741,
,35,나를 보내줘,6,Orange,A,0,0,ScrollUp,ScrollDown,Orange.png,3,NonTarget,NonTarget,0,0,0,0,,,,,,,,,,,,,,,,,,,,,0,34,34,34,,,,,,,,,,,,,,,,,,,,,,,,,,,,,,,,,,,,,,,,,,,,,,,,,,,,,,,,,,,,,,,,,,,,,,,,,,,,,1.8425925970077515,1.1576272000093013,450.18870290002087,None,ScrollUp,정답입니다,450.18870290002087,None,450.18870290002087,None,450.18870290002087,None,450.18870290002087,None,451.2448040000163,None,451.2448040000163,451.75155069999164,,,,,,,,,,,,,,,,209,2023-04-04_14h04.24.511,FishGame,2022.1.1,60.32432772724741,
,36,넌 명랑해,1,Green,B,5.739130434782609,5.666666666666667,ScrollUp,ScrollDown,Green.png,3,Positive,Incongruent,0,0,0,0,,,,,,,,,,,,,,,,,,,,,0,35,35,35,,,,,,,,,,,,,,,,,,,,,,,,,,,,,,,,,,,,,,,,,,,,,,,,,,,,,,,,,,,,,,,,,,,,,,,,,,,,,1.9537037014961243,1.0818775999941863,452.37012209999375,None,ScrollUp,정답입니다,452.37012209999375,None,452.37012209999375,None,452.37012209999375,None,452.37012209999375,None,453.35160530003486,None,453.35160530003486,453.8515710000065,,,,,,,,,,,,,,,,209,2023-04-04_14h04.24.511,FishGame,2022.1.1,60.32432772724741,
,37,넌 멍해,4,Orange,A,2.833333333333333,3.4,ScrollDown,ScrollUp,Orange.png,3,Negative,Incongruent,0,0,0,0,,,,,,,,,,,,,,,,,,,,,0,36,36,36,,,,,,,,,,,,,,,,,,,,,,,,,,,,,,,,,,,,,,,,,,,,,,,,,,,,,,,,,,,,,,,,,,,,,,,,,,,,,1.0185184975465138,0.9817373999976553,454.4797808000003,None,ScrollDown,정답입니다,454.4797808000003,None,454.4797808000003,None,454.4797808000003,None,454.4797808000003,None,455.3514908000361,None,455.3514908000361,455.8514761000406,,,,,,,,,,,,,,,,209,2023-04-04_14h04.24.511,FishGame,2022.1.1,60.32432772724741,
,38,나를 데려가줘,6,Green,B,0,0,ScrollDown,ScrollUp,Green.png,3,NonTarget,NonTarget,0,0,0,0,,,,,,,,,,,,,,,,,,,,,0,37,37,37,,,,,,,,,,,,,,,,,,,,,,,,,,,,,,,,,,,,,,,,,,,,,,,,,,,,,,,,,,,,,,,,,,,,,,,,,,,,,1,1.0481669000000693,456.4671817999915,None,ScrollDown,정답입니다,456.4671817999915,None,456.4671817999915,None,456.4671817999915,None,456.4671817999915,None,457.41819920000853,None,457.41819920000853,457.91818040004,,,,,,,,,,,,,,,,209,2023-04-04_14h04.24.511,FishGame,2022.1.1,60.32432772724741,
,39,넌 현명해,2,Orange,A,6.541666666666666,4.533333333333333,ScrollDown,ScrollUp,Orange.png,3,Positive,Congruent,0,0,0,0,,,,,,,,,,,,,,,,,,,,,0,38,38,38,,,,,,,,,,,,,,,,,,,,,,,,,,,,,,,,,,,,,,,,,,,,,,,,,,,,,,,,,,,,,,,,,,,,,,,,,,,,,1.0092592636744182,0.8462825000169687,458.53631830000086,None,ScrollDown,정답입니다,458.53631830000086,None,458.53631830000086,None,458.53631830000086,None,458.53631830000086,None,459.2826890000142,None,459.2826890000142,459.78470850002486,,,,,,,,,,,,,,,,209,2023-04-04_14h04.24.511,FishGame,2022.1.1,60.32432772724741,
,40,넌 수줍어,3,Green,B,3.541666666666666,4.366666666666666,ScrollUp,ScrollDown,Green.png,3,Neutral,Neutral,0,0,0,0,,,,,,,,,,,,,,,,,,,,,0,39,39,39,,,,,,,,,,,,,,,,,,,,,,,,,,,,,,,,,,,,,,,,,,,,,,,,,,,,,,,,,,,,,,,,,,,,,,,,,,,,,1.549382715175549,1.2316560000181198,460.40490269998554,None,NoResponse,무응답입니다,460.40490269998554,None,460.40490269998554,None,460.40490269998554,None,460.40490269998554,None,461.5327263000072,None,461.5327263000072,462.0347456000163,,,,,,,,,,,,,,,,209,2023-04-04_14h04.24.511,FishGame,2022.1.1,60.32432772724741,
,41,나를 데려가줘,6,Green,B,0,0,ScrollDown,ScrollUp,Green.png,3,NonTarget,NonTarget,0,0,0,0,,,,,,,,,,,,,,,,,,,,,0,40,40,40,,,,,,,,,,,,,,,,,,,,,,,,,,,,,,,,,,,,,,,,,,,,,,,,,,,,,,,,,,,,,,,,,,,,,,,,,,,,,1.1095678955316544,0.8818103999947198,462.65365510003176,None,ScrollDown,정답입니다,462.65365510003176,None,462.65365510003176,None,462.65365510003176,None,462.65365510003176,None,463.4326283999835,None,463.4326283999835,463.9346413000021,,,,,,,,,,,,,,,,209,2023-04-04_14h04.24.511,FishGame,2022.1.1,60.32432772724741,
,42,넌 성숙해,2,Green,B,5.833333333333333,4.533333333333333,ScrollUp,ScrollDown,Green.png,3,Positive,Incongruent,0,0,0,0,,,,,,,,,,,,,,,,,,,,,0,41,41,41,,,,,,,,,,,,,,,,,,,,,,,,,,,,,,,,,,,,,,,,,,,,,,,,,,,,,,,,,,,,,,,,,,,,,,,,,,,,,1.9629629850387573,0.9301260000211187,464.5511220000335,None,ScrollUp,정답입니다,464.5511220000335,None,464.5511220000335,None,464.5511220000335,None,464.5511220000335,None,465.384622499987,None,465.384622499987,465.8824464000063,,,,,,,,,,,,,,,,209,2023-04-04_14h04.24.511,FishGame,2022.1.1,60.32432772724741,
,1,넌 매력적이야,2,Green,B,6.125,4.666666666666667,ScrollUp,ScrollDown,Green.png,4,Positive,Incongruent,0,0,0,0,,,,,,,,,,,,,,,,,,,,,,,,,0,0,0,0,,,,,,,,,,,,,,,,,,,,,,,,,,,,,,,,497.41724909999175,498.91741290001664,498.9508094000048,499.9007555000135,499.9537944000331,500.91737380000995,500.9007707000128,None,,,,,,,,,,,,,,,,,,,,,,,,,,,,,,,,,,1.9953703780968983,1.3245692999917082,501.996963099984,None,ScrollUp,정답입니다,501.996963099984,None,501.996963099984,None,501.996963099984,None,501.996963099984,None,503.2172564000357,None,503.2172564000357,503.717096300039,466.3846886000247,None,466.3846886000247,None,-0.11481482,-0.117592596,1,0,0,0.016274639987386763,None,496.3838477000245,None,,,209,2023-04-04_14h04.24.511,FishGame,2022.1.1,60.32432772724741,
,2,나를 보내줘,6,Orange,A,0,0,ScrollUp,ScrollDown,Orange.png,4,NonTarget,NonTarget,0,0,0,0,,,,,,,,,,,,,,,,,,,,,,,,,0,1,1,1,,,,,,,,,,,,,,,,,,,,,,,,,,,,,,,,,,,,,,,,,,,,,,,,,,,,,,,,,,,,,,,,,,,,,,,,,2,1.0964406999992207,504.33492470002966,None,ScrollUp,정답입니다,504.33492470002966,None,504.33492470002966,None,504.33492470002966,None,504.33492470002966,None,505.3337895000004,None,505.3337895000004,505.83374470000854,,,,,,,,,,,,,,,,209,2023-04-04_14h04.24.511,FishGame,2022.1.1,60.32432772724741,
,3,넌 조심스러워,3,Orange,A,4.791666666666666,4.666666666666667,ScrollDown,ScrollUp,Orange.png,4,Neutral,Neutral,0,0,0,0,,,,,,,,,,,,,,,,,,,,,,,,,0,2,2,2,,,,,,,,,,,,,,,,,,,,,,,,,,,,,,,,,,,,,,,,,,,,,,,,,,,,,,,,,,,,,,,,,,,,,,,,,1.016975333293279,1.0796053999802098,506.45318880002014,None,ScrollDown,정답입니다,506.45318880002014,None,506.45318880002014,None,506.45318880002014,None,506.45318880002014,None,507.4338400000124,None,507.4338400000124,507.93374210002366,,,,,,,,,,,,,,,,209,2023-04-04_14h04.24.511,FishGame,2022.1.1,60.32432772724741,
,4,넌 철학적이야,3,Green,B,4.5,4.266666666666667,ScrollUp,ScrollDown,Green.png,4,Neutral,Neutral,0,0,0,0,,,,,,,,,,,,,,,,,,,,,,,,,0,3,3,3,,,,,,,,,,,,,,,,,,,,,,,,,,,,,,,,,,,,,,,,,,,,,,,,,,,,,,,,,,,,,,,,,,,,,,,,,1.5555555584530034,0.9226130000315607,508.5735147999949,None,ScrollUp,정답입니다,508.5735147999949,None,508.5735147999949,None,508.5735147999949,None,508.5735147999949,None,509.3813729000394,None,509.3813729000394,509.88139250001404,,,,,,,,,,,,,,,,209,2023-04-04_14h04.24.511,FishGame,2022.1.1,60.32432772724741,
,5,넌 쩨쩨해,5,Orange,A,2.375,2.133333333333333,ScrollDown,ScrollUp,Orange.png,4,Negative,Incongruent,0,0,0,0,,,,,,,,,,,,,,,,,,,,,,,,,0,4,4,4,,,,,,,,,,,,,,,,,,,,,,,,,,,,,,,,,,,,,,,,,,,,,,,,,,,,,,,,,,,,,,,,,,,,,,,,,1.1296296268701553,0.9150172999943607,510.49993910000194,None,ScrollDown,정답입니다,510.49993910000194,None,510.49993910000194,None,510.49993910000194,None,510.49993910000194,None,511.31474040000467,None,511.31474040000467,511.8170925999875,,,,,,,,,,,,,,,,209,2023-04-04_14h04.24.511,FishGame,2022.1.1,60.32432772724741,
,6,나를 데려가줘,6,Green,B,0,0,ScrollDown,ScrollUp,Green.png,4,NonTarget,NonTarget,0,0,0,0,,,,,,,,,,,,,,,,,,,,,,,,,0,5,5,5,,,,,,,,,,,,,,,,,,,,,,,,,,,,,,,,,,,,,,,,,,,,,,,,,,,,,,,,,,,,,,,,,,,,,,,,,1.016975333293279,0.9818059999961406,512.4371681000339,None,ScrollDown,정답입니다,512.4371681000339,None,512.4371681000339,None,512.4371681000339,None,512.4371681000339,None,513.317143000022,None,513.317143000022,513.8169234000379,,,,,,,,,,,,,,,,209,2023-04-04_14h04.24.511,FishGame,2022.1.1,60.32432772724741,
,7,넌 고집불통이야,5,Green,B,2.875,2,ScrollUp,ScrollDown,Green.png,4,Negative,Congruent,0,0,0,0,,,,,,,,,,,,,,,,,,,,,,,,,0,6,6,6,,,,,,,,,,,,,,,,,,,,,,,,,,,,,,,,,,,,,,,,,,,,,,,,,,,,,,,,,,,,,,,,,,,,,,,,,1.8858024626970291,0.9152031000121497,514.4394425000064,None,ScrollUp,정답입니다,514.4394425000064,None,514.4394425000064,None,514.4394425000064,None,514.4394425000064,None,515.2503066000063,None,515.2503066000063,515.750285200018,,,,,,,,,,,,,,,,209,2023-04-04_14h04.24.511,FishGame,2022.1.1,60.32432772724741,
,8,넌 무심해,4,Orange,A,2.875,3.2,ScrollDown,ScrollUp,Orange.png,4,Negative,Incongruent,0,0,0,0,,,,,,,,,,,,,,,,,,,,,,,,,0,7,7,7,,,,,,,,,,,,,,,,,,,,,,,,,,,,,,,,,,,,,,,,,,,,,,,,,,,,,,,,,,,,,,,,,,,,,,,,,1,0.9129686999949627,516.3713730000309,None,ScrollDown,정답입니다,516.3713730000309,None,516.3713730000309,None,516.3713730000309,None,516.3713730000309,None,517.1835355000221,None,517.1835355000221,517.6834862999967,,,,,,,,,,,,,,,,209,2023-04-04_14h04.24.511,FishGame,2022.1.1,60.32432772724741,
,9,넌 정겨워,1,Orange,A,5.791666666666667,5.666666666666667,ScrollDown,ScrollUp,Orange.png,4,Positive,Congruent,0,0,0,0,,,,,,,,,,,,,,,,,,,,,,,,,0,8,8,8,,,,,,,,,,,,,,,,,,,,,,,,,,,,,,,,,,,,,,,,,,,,,,,,,,,,,,,,,,,,,,,,,,,,,,,,,1.0354938507080078,0.9131920000072569,518.3071756000281,None,ScrollDown,정답입니다,518.3071756000281,None,518.3071756000281,None,518.3071756000281,None,518.3071756000281,None,519.1168824000051,None,519.1168824000051,519.6168233000208,,,,,,,,,,,,,,,,209,2023-04-04_14h04.24.511,FishGame,2022.1.1,60.32432772724741,
,10,나를 데려가줘,6,Green,B,0,0,ScrollDown,ScrollUp,Green.png,4,NonTarget,NonTarget,0,0,0,0,,,,,,,,,,,,,,,,,,,,,,,,,0,9,9,9,,,,,,,,,,,,,,,,,,,,,,,,,,,,,,,,,,,,,,,,,,,,,,,,,,,,,,,,,,,,,,,,,,,,,,,,,1,0.9963984999922104,520.2355841000099,None,ScrollDown,정답입니다,520.2355841000099,None,520.2355841000099,None,520.2355841000099,None,520.2355841000099,None,521.1334480000078,None,521.1334480000078,521.6333664000267,,,,,,,,,,,,,,,,209,2023-04-04_14h04.24.511,FishGame,2022.1.1,60.32432772724741,
,11,넌 체제순응적이야,4,Green,B,3,3.6,ScrollUp,ScrollDown,Green.png,4,Negative,Congruent,0,0,0,0,,,,,,,,,,,,,,,,,,,,,,,,,0,10,10,10,,,,,,,,,,,,,,,,,,,,,,,,,,,,,,,,,,,,,,,,,,,,,,,,,,,,,,,,,,,,,,,,,,,,,,,,,2,0.9630784000037238,522.2729445000296,None,ScrollUp,정답입니다,522.2729445000296,None,522.2729445000296,None,522.2729445000296,None,522.2729445000296,None,523.1313583999872,None,523.1313583999872,523.6333947000094,,,,,,,,,,,,,,,,209,2023-04-04_14h04.24.511,FishGame,2022.1.1,60.32432772724741,
,12,나를 보내줘,6,Orange,A,0,0,ScrollUp,ScrollDown,Orange.png,4,NonTarget,NonTarget,0,0,0,0,,,,,,,,,,,,,,,,,,,,,,,,,0,11,11,11,,,,,,,,,,,,,,,,,,,,,,,,,,,,,,,,,,,,,,,,,,,,,,,,,,,,,,,,,,,,,,,,,,,,,,,,,2,0.9959079000400379,524.2593736000126,None,ScrollUp,정답입니다,524.2593736000126,None,524.2593736000126,None,524.2593736000126,None,524.2593736000126,None,525.147800100036,None,525.147800100036,525.6480398999993,,,,,,,,,,,,,,,,209,2023-04-04_14h04.24.511,FishGame,2022.1.1,60.32432772724741,
,13,넌 박식해,2,Orange,A,5.625,3.933333333333333,ScrollDown,ScrollUp,Orange.png,4,Positive,Congruent,0,0,0,0,,,,,,,,,,,,,,,,,,,,,,,,,0,12,12,12,,,,,,,,,,,,,,,,,,,,,,,,,,,,,,,,,,,,,,,,,,,,,,,,,,,,,,,,,,,,,,,,,,,,,,,,,1.0308642089366913,0.914731299970299,526.2665011000354,None,ScrollDown,정답입니다,526.2665011000354,None,526.2665011000354,None,526.2665011000354,None,526.2665011000354,None,527.0810450999998,None,527.0810450999998,527.5810429999838,,,,,,,,,,,,,,,,209,2023-04-04_14h04.24.511,FishGame,2022.1.1,60.32432772724741,
,14,나를 보내줘,6,Orange,A,0,0,ScrollUp,ScrollDown,Orange.png,4,NonTarget,NonTarget,0,0,0,0,,,,,,,,,,,,,,,,,,,,,,,,,0,13,13,13,,,,,,,,,,,,,,,,,,,,,,,,,,,,,,,,,,,,,,,,,,,,,,,,,,,,,,,,,,,,,,,,,,,,,,,,,1.7175925920406976,0.8817939999862574,528.2024452000041,None,ScrollUp,정답입니다,528.2024452000041,None,528.2024452000041,None,528.2024452000041,None,528.2024452000041,None,528.9834457000252,None,528.9834457000252,529.4833917000215,,,,,,,,,,,,,,,,209,2023-04-04_14h04.24.511,FishGame,2022.1.1,60.32432772724741,
,15,넌 침착해,1,Green,B,5.458333333333333,5.566666666666666,ScrollUp,ScrollDown,Green.png,4,Positive,Incongruent,0,0,0,0,,,,,,,,,,,,,,,,,,,,,,,,,0,14,14,14,,,,,,,,,,,,,,,,,,,,,,,,,,,,,,,,,,,,,,,,,,,,,,,,,,,,,,,,,,,,,,,,,,,,,,,,,1.9783950746059418,0.915181600023061,530.1109396000393,None,ScrollUp,정답입니다,530.1109396000393,None,530.1109396000393,None,530.1109396000393,None,530.1109396000393,None,530.9166130000376,None,530.9166130000376,531.4165635000099,,,,,,,,,,,,,,,,209,2023-04-04_14h04.24.511,FishGame,2022.1.1,60.32432772724741,
,16,나를 데려가줘,6,Green,B,0,0,ScrollDown,ScrollUp,Green.png,4,NonTarget,NonTarget,0,0,0,0,,,,,,,,,,,,,,,,,,,,,,,,,0,15,15,15,,,,,,,,,,,,,,,,,,,,,,,,,,,,,,,,,,,,,,,,,,,,,,,,,,,,,,,,,,,,,,,,,,,,,,,,,1.0817901194095612,0.9432728000101633,532.0456534000114,None,ScrollDown,정답입니다,532.0456534000114,None,532.0456534000114,None,532.0456534000114,None,532.0456534000114,None,532.8831467999844,None,532.8831467999844,533.3831542000407,,,,,,,,,,,,,,,,209,2023-04-04_14h04.24.511,FishGame,2022.1.1,60.32432772724741,
,17,넌 행복해,1,Orange,A,6.416666666666666,6.166666666666667,ScrollDown,ScrollUp,Orange.png,4,Positive,Congruent,0,0,0,0,,,,,,,,,,,,,,,,,,,,,,,,,0,16,16,16,,,,,,,,,,,,,,,,,,,,,,,,,,,,,,,,,,,,,,,,,,,,,,,,,,,,,,,,,,,,,,,,,,,,,,,,,1,1.4265606999979354,534.0161810999853,None,ScrollDown,정답입니다,534.0161810999853,None,534.0161810999853,None,534.0161810999853,None,534.0161810999853,None,535.3331416000146,None,535.3331416000146,535.8330902000307,,,,,,,,,,,,,,,,209,2023-04-04_14h04.24.511,FishGame,2022.1.1,60.32432772724741,
,18,넌 겸손해,2,Green,B,5.791666666666667,4.766666666666667,ScrollUp,ScrollDown,Green.png,4,Positive,Incongruent,0,0,0,0,,,,,,,,,,,,,,,,,,,,,,,,,0,17,17,17,,,,,,,,,,,,,,,,,,,,,,,,,,,,,,,,,,,,,,,,,,,,,,,,,,,,,,,,,,,,,,,,,,,,,,,,,2,0.965058500005398,536.4520431000274,None,ScrollUp,정답입니다,536.4520431000274,None,536.4520431000274,None,536.4520431000274,None,536.4520431000274,None,537.3165649999864,None,537.3165649999864,537.8164241000195,,,,,,,,,,,,,,,,209,2023-04-04_14h04.24.511,FishGame,2022.1.1,60.32432772724741,
,19,나를 보내줘,6,Orange,A,0,0,ScrollUp,ScrollDown,Orange.png,4,NonTarget,NonTarget,0,0,0,0,,,,,,,,,,,,,,,,,,,,,,,,,0,18,18,18,,,,,,,,,,,,,,,,,,,,,,,,,,,,,,,,,,,,,,,,,,,,,,,,,,,,,,,,,,,,,,,,,,,,,,,,,2,1.0943415999645367,538.435369200015,None,ScrollUp,정답입니다,538.435369200015,None,538.435369200015,None,538.435369200015,None,538.435369200015,None,539.424628400011,None,539.424628400011,539.9307196000009,,,,,,,,,,,,,,,,209,2023-04-04_14h04.24.511,FishGame,2022.1.1,60.32432772724741,
,20,넌 의심없어,3,Orange,A,4.166666666666667,4.6,ScrollDown,ScrollUp,Orange.png,4,Neutral,Neutral,0,0,0,0,,,,,,,,,,,,,,,,,,,,,,,,,0,19,19,19,,,,,,,,,,,,,,,,,,,,,,,,,,,,,,,,,,,,,,,,,,,,,,,,,,,,,,,,,,,,,,,,,,,,,,,,,1.0077160497506459,1.1131667000008747,540.5519161000266,None,ScrollDown,정답입니다,540.5519161000266,None,540.5519161000266,None,540.5519161000266,None,540.5519161000266,None,541.564053900016,None,541.564053900016,542.0664418000379,,,,,,,,,,,,,,,,209,2023-04-04_14h04.24.511,FishGame,2022.1.1,60.32432772724741,
,21,넌 시시해,4,Orange,A,2.666666666666667,2.966666666666667,ScrollDown,ScrollUp,Orange.png,4,Negative,Incongruent,0,0,0,0,,,,,,,,,,,,,,,,,,,,,,,,,0,20,20,20,,,,,,,,,,,,,,,,,,,,,,,,,,,,,,,,,,,,,,,,,,,,,,,,,,,,,,,,,,,,,,,,,,,,,,,,,1.0817901194095612,0.8652047000359744,542.6844527000212,None,ScrollDown,정답입니다,542.6844527000212,None,542.6844527000212,None,542.6844527000212,None,542.6844527000212,None,543.4499605000019,None,543.4499605000019,543.949801300012,,,,,,,,,,,,,,,,209,2023-04-04_14h04.24.511,FishGame,2022.1.1,60.32432772724741,
,22,나를 데려가줘,6,Green,B,0,0,ScrollDown,ScrollUp,Green.png,4,NonTarget,NonTarget,0,0,0,0,,,,,,,,,,,,,,,,,,,,,,,,,0,21,21,21,,,,,,,,,,,,,,,,,,,,,,,,,,,,,,,,,,,,,,,,,,,,,,,,,,,,,,,,,,,,,,,,,,,,,,,,,1.0725308855374653,0.9448893000371754,544.5701834000065,None,ScrollDown,정답입니다,544.5701834000065,None,544.5701834000065,None,544.5701834000065,None,544.5701834000065,None,545.4164445000351,None,545.4164445000351,545.9162525000283,,,,,,,,,,,,,,,,209,2023-04-04_14h04.24.511,FishGame,2022.1.1,60.32432772724741,
,23,넌 무정해,5,Orange,A,2.5,2.2,ScrollDown,ScrollUp,Orange.png,4,Negative,Incongruent,0,0,0,0,,,,,,,,,,,,,,,,,,,,,,,,,0,22,22,22,,,,,,,,,,,,,,,,,,,,,,,,,,,,,,,,,,,,,,,,,,,,,,,,,,,,,,,,,,,,,,,,,,,,,,,,,1.0200617114702861,1.292958499980159,546.5398841000278,None,ScrollDown,정답입니다,546.5398841000278,None,546.5398841000278,None,546.5398841000278,None,546.5398841000278,None,547.730827899999,None,547.730827899999,548.2328554000123,,,,,,,,,,,,,,,,209,2023-04-04_14h04.24.511,FishGame,2022.1.1,60.32432772724741,
,24,넌 긍정적이야,1,Green,B,6.041666666666667,6.066666666666666,ScrollUp,ScrollDown,Green.png,4,Positive,Incongruent,0,0,0,0,,,,,,,,,,,,,,,,,,,,,,,,,0,23,23,23,,,,,,,,,,,,,,,,,,,,,,,,,,,,,,,,,,,,,,,,,,,,,,,,,,,,,,,,,,,,,,,,,,,,,,,,,2,1.1462766000186093,548.8529408000177,None,ScrollUp,정답입니다,548.8529408000177,None,548.8529408000177,None,548.8529408000177,None,548.8529408000177,None,549.8974095000303,None,549.8974095000303,550.3994301999919,,,,,,,,,,,,,,,,209,2023-04-04_14h04.24.511,FishGame,2022.1.1,60.32432772724741,
,25,나를 보내줘,6,Orange,A,0,0,ScrollUp,ScrollDown,Orange.png,4,NonTarget,NonTarget,0,0,0,0,,,,,,,,,,,,,,,,,,,,,,,,,0,24,24,24,,,,,,,,,,,,,,,,,,,,,,,,,,,,,,,,,,,,,,,,,,,,,,,,,,,,,,,,,,,,,,,,,,,,,,,,,2,0.9485022000153549,551.020530000038,None,ScrollUp,정답입니다,551.020530000038,None,551.020530000038,None,551.020530000038,None,551.020530000038,None,551.8660999999847,None,551.8660999999847,552.366119400016,,,,,,,,,,,,,,,,209,2023-04-04_14h04.24.511,FishGame,2022.1.1,60.32432772724741,
,26,넌 시기심이 많아,5,Green,B,2.458333333333333,2.233333333333333,ScrollUp,ScrollDown,Green.png,4,Negative,Congruent,0,0,0,0,,,,,,,,,,,,,,,,,,,,,,,,,0,25,25,25,,,,,,,,,,,,,,,,,,,,,,,,,,,,,,,,,,,,,,,,,,,,,,,,,,,,,,,,,,,,,,,,,,,,,,,,,1.8611111144224803,1.2462371999863535,552.9959400999942,None,ScrollUp,정답입니다,552.9959400999942,None,552.9959400999942,None,552.9959400999942,None,552.9959400999942,None,554.1327473000274,None,554.1327473000274,554.6326943000313,,,,,,,,,,,,,,,,209,2023-04-04_14h04.24.511,FishGame,2022.1.1,60.32432772724741,
,27,넌 탁월해,2,Orange,A,5.708333333333334,4.5,ScrollDown,ScrollUp,Orange.png,4,Positive,Congruent,0,0,0,0,,,,,,,,,,,,,,,,,,,,,,,,,0,26,26,26,,,,,,,,,,,,,,,,,,,,,,,,,,,,,,,,,,,,,,,,,,,,,,,,,,,,,,,,,,,,,,,,,,,,,,,,,1.1358024577299755,0.8183230000431649,555.256423200015,None,ScrollDown,정답입니다,555.256423200015,None,555.256423200015,None,555.256423200015,None,555.256423200015,None,555.9695870000287,None,555.9695870000287,556.4826472999994,,,,,,,,,,,,,,,,209,2023-04-04_14h04.24.511,FishGame,2022.1.1,60.32432772724741,
,28,나를 데려가줘,6,Green,B,0,0,ScrollDown,ScrollUp,Green.png,4,NonTarget,NonTarget,0,0,0,0,,,,,,,,,,,,,,,,,,,,,,,,,0,27,27,27,,,,,,,,,,,,,,,,,,,,,,,,,,,,,,,,,,,,,,,,,,,,,,,,,,,,,,,,,,,,,,,,,,,,,,,,,1.10030863682429,0.8964891999494284,557.100433500018,None,ScrollDown,정답입니다,557.100433500018,None,557.100433500018,None,557.100433500018,None,557.100433500018,None,557.8993394999998,None,557.8993394999998,558.3992852999945,,,,,,,,,,,,,,,,209,2023-04-04_14h04.24.511,FishGame,2022.1.1,60.32432772724741,
,29,넌 조용해,3,Green,B,4.333333333333333,4.166666666666667,ScrollUp,ScrollDown,Green.png,4,Neutral,Neutral,0,0,0,0,,,,,,,,,,,,,,,,,,,,,,,,,0,28,28,28,,,,,,,,,,,,,,,,,,,,,,,,,,,,,,,,,,,,,,,,,,,,,,,,,,,,,,,,,,,,,,,,,,,,,,,,,1.919753094514211,0.9816335000214167,559.0174314000178,None,ScrollUp,정답입니다,559.0174314000178,None,559.0174314000178,None,559.0174314000178,None,559.0174314000178,None,559.8972448999994,None,559.8972448999994,560.3992807000177,,,,,,,,,,,,,,,,209,2023-04-04_14h04.24.511,FishGame,2022.1.1,60.32432772724741,
,30,넌 다정해,1,Orange,A,5.833333333333334,5.7,ScrollDown,ScrollUp,Orange.png,4,Positive,Congruent,0,0,0,0,,,,,,,,,,,,,,,,,,,,,,,,,0,29,29,29,,,,,,,,,,,,,,,,,,,,,,,,,,,,,,,,,,,,,,,,,,,,,,,,,,,,,,,,,,,,,,,,,,,,,,,,,1.1558641890684764,0.8294964999658987,561.025510300009,None,ScrollDown,정답입니다,561.025510300009,None,561.025510300009,None,561.025510300009,None,561.025510300009,None,561.7471765000373,None,561.7471765000373,562.2491940000327,,,,,,,,,,,,,,,,209,2023-04-04_14h04.24.511,FishGame,2022.1.1,60.32432772724741,
,31,넌 능력있어,2,Green,B,6.166666666666666,4.6,ScrollUp,ScrollDown,Green.png,4,Positive,Incongruent,0,0,0,0,,,,,,,,,,,,,,,,,,,,,,,,,0,30,30,30,,,,,,,,,,,,,,,,,,,,,,,,,,,,,,,,,,,,,,,,,,,,,,,,,,,,,,,,,,,,,,,,,,,,,,,,,1.604938273628553,0.8458343999809586,562.8674769999925,None,ScrollUp,정답입니다,562.8674769999925,None,562.8674769999925,None,562.8674769999925,None,562.8674769999925,None,563.615871499991,None,563.615871499991,564.1158622000366,,,,,,,,,,,,,,,,209,2023-04-04_14h04.24.511,FishGame,2022.1.1,60.32432772724741,
,32,넌 불쾌해,5,Orange,A,2.125,1.933333333333333,ScrollDown,ScrollUp,Orange.png,4,Negative,Incongruent,0,0,0,0,,,,,,,,,,,,,,,,,,,,,,,,,0,31,31,31,,,,,,,,,,,,,,,,,,,,,,,,,,,,,,,,,,,,,,,,,,,,,,,,,,,,,,,,,,,,,,,,,,,,,,,,,1.120370368162791,0.7629322999855503,564.7338353000232,None,ScrollDown,정답입니다,564.7338353000232,None,564.7338353000232,None,564.7338353000232,None,564.7338353000232,None,565.3968330000062,None,565.3968330000062,565.8969659000286,,,,,,,,,,,,,,,,209,2023-04-04_14h04.24.511,FishGame,2022.1.1,60.32432772724741,
,33,나를 데려가줘,6,Green,B,0,0,ScrollDown,ScrollUp,Green.png,4,NonTarget,NonTarget,0,0,0,0,,,,,,,,,,,,,,,,,,,,,,,,,0,32,32,32,,,,,,,,,,,,,,,,,,,,,,,,,,,,,,,,,,,,,,,,,,,,,,,,,,,,,,,,,,,,,,,,,,,,,,,,,1.1450617164373398,1.031583599979058,566.5114124999964,None,ScrollDown,정답입니다,566.5114124999964,None,566.5114124999964,None,566.5114124999964,None,566.5114124999964,None,567.4468404999934,None,567.4468404999934,567.9492304000305,,,,,,,,,,,,,,,,209,2023-04-04_14h04.24.511,FishGame,2022.1.1,60.32432772724741,
,34,넌 유순해,3,Orange,A,4.458333333333333,5,ScrollDown,ScrollUp,Orange.png,4,Neutral,Neutral,0,0,0,0,,,,,,,,,,,,,,,,,,,,,,,,,0,33,33,33,,,,,,,,,,,,,,,,,,,,,,,,,,,,,,,,,,,,,,,,,,,,,,,,,,,,,,,,,,,,,,,,,,,,,,,,,1,0.8487581000081263,568.5699046000373,None,ScrollDown,정답입니다,568.5699046000373,None,568.5699046000373,None,568.5699046000373,None,568.5699046000373,None,569.3159148999839,None,569.3159148999839,569.818956800038,,,,,,,,,,,,,,,,209,2023-04-04_14h04.24.511,FishGame,2022.1.1,60.32432772724741,
,35,넌 근심스러워,4,Green,B,2.708333333333333,3.133333333333333,ScrollUp,ScrollDown,Green.png,4,Negative,Congruent,0,0,0,0,,,,,,,,,,,,,,,,,,,,,,,,,0,34,34,34,,,,,,,,,,,,,,,,,,,,,,,,,,,,,,,,,,,,,,,,,,,,,,,,,,,,,,,,,,,,,,,,,,,,,,,,,1.8101851791143417,0.7628265999956056,570.4356694000307,None,ScrollUp,정답입니다,570.4356694000307,None,570.4356694000307,None,570.4356694000307,None,570.4356694000307,None,571.0990439000307,None,571.0990439000307,571.599084299989,,,,,,,,,,,,,,,,209,2023-04-04_14h04.24.511,FishGame,2022.1.1,60.32432772724741,
,36,넌 세련되었어,2,Orange,A,5.5,4.6,ScrollDown,ScrollUp,Orange.png,4,Positive,Congruent,0,0,0,0,,,,,,,,,,,,,,,,,,,,,,,,,0,35,35,35,,,,,,,,,,,,,,,,,,,,,,,,,,,,,,,,,,,,,,,,,,,,,,,,,,,,,,,,,,,,,,,,,,,,,,,,,1.2052469104528427,0.8428957000141963,572.2363733000238,None,ScrollDown,정답입니다,572.2363733000238,None,572.2363733000238,None,572.2363733000238,None,572.2363733000238,None,572.9633479000186,None,572.9633479000186,573.4633080000058,,,,,,,,,,,,,,,,209,2023-04-04_14h04.24.511,FishGame,2022.1.1,60.32432772724741,
,37,나를 보내줘,6,Orange,A,0,0,ScrollUp,ScrollDown,Orange.png,4,NonTarget,NonTarget,0,0,0,0,,,,,,,,,,,,,,,,,,,,,,,,,0,36,36,36,,,,,,,,,,,,,,,,,,,,,,,,,,,,,,,,,,,,,,,,,,,,,,,,,,,,,,,,,,,,,,,,,,,,,,,,,1.8348765522241592,1.281483799975831,574.0848074000096,None,ScrollUp,정답입니다,574.0848074000096,None,574.0848074000096,None,574.0848074000096,None,574.0848074000096,None,575.2659651000286,None,575.2659651000286,575.7656898000278,,,,,,,,,,,,,,,,209,2023-04-04_14h04.24.511,FishGame,2022.1.1,60.32432772724741,
,38,넌 확고해,3,Green,B,4.708333333333334,4.566666666666666,ScrollUp,ScrollDown,Green.png,4,Neutral,Neutral,0,0,0,0,,,,,,,,,,,,,,,,,,,,,,,,,0,37,37,37,,,,,,,,,,,,,,,,,,,,,,,,,,,,,,,,,,,,,,,,,,,,,,,,,,,,,,,,,,,,,,,,,,,,,,,,,1.8858024626970291,0.9126796000055037,576.3854459000286,None,ScrollUp,정답입니다,576.3854459000286,None,576.3854459000286,None,576.3854459000286,None,576.3854459000286,None,577.1965700000292,None,577.1965700000292,577.6965737999999,,,,,,,,,,,,,,,,209,2023-04-04_14h04.24.511,FishGame,2022.1.1,60.32432772724741,
,39,넌 이해심이 많아,1,Green,B,6.041666666666668,5.533333333333333,ScrollUp,ScrollDown,Green.png,4,Positive,Incongruent,0,0,0,0,,,,,,,,,,,,,,,,,,,,,,,,,0,38,38,38,,,,,,,,,,,,,,,,,,,,,,,,,,,,,,,,,,,,,,,,,,,,,,,,,,,,,,,,,,,,,,,,,,,,,,,,,1.7839506169160206,1.1475671000080183,578.3142341999919,None,ScrollUp,정답입니다,578.3142341999919,None,578.3142341999919,None,578.3142341999919,None,578.3142341999919,None,579.3632548000314,None,579.3632548000314,579.8656106999842,,,,,,,,,,,,,,,,209,2023-04-04_14h04.24.511,FishGame,2022.1.1,60.32432772724741,
,40,나를 보내줘,6,Orange,A,0,0,ScrollUp,ScrollDown,Orange.png,4,NonTarget,NonTarget,0,0,0,0,,,,,,,,,,,,,,,,,,,,,,,,,0,39,39,39,,,,,,,,,,,,,,,,,,,,,,,,,,,,,,,,,,,,,,,,,,,,,,,,,,,,,,,,,,,,,,,,,,,,,,,,,1.90586419403553,1.0484652000013739,580.4836174999946,None,ScrollUp,정답입니다,580.4836174999946,None,580.4836174999946,None,580.4836174999946,None,580.4836174999946,None,581.4322931999923,None,581.4322931999923,581.9321262000012,,,,,,,,,,,,,,,,209,2023-04-04_14h04.24.511,FishGame,2022.1.1,60.32432772724741,
,41,넌 거칠어,4,Orange,A,2.625,3.033333333333333,ScrollDown,ScrollUp,Orange.png,4,Negative,Incongruent,0,0,0,0,,,,,,,,,,,,,,,,,,,,,,,,,0,40,40,40,,,,,,,,,,,,,,,,,,,,,,,,,,,,,,,,,,,,,,,,,,,,,,,,,,,,,,,,,,,,,,,,,,,,,,,,,1.32253085821867,1.729744300013408,582.5530884999898,None,ScrollDown,정답입니다,582.5530884999898,None,582.5530884999898,None,582.5530884999898,None,582.5530884999898,None,584.1801052000374,None,584.1801052000374,584.6821046000114,,,,,,,,,,,,,,,,209,2023-04-04_14h04.24.511,FishGame,2022.1.1,60.32432772724741,
,42,넌 변덕맞아,5,Green,B,2.75,2.166666666666667,ScrollUp,ScrollDown,Green.png,4,Negative,Congruent,0,0,0,0,,,,,,,,,,,,,,,,,,,,,,,,,0,41,41,41,,,,,,,,,,,,,,,,,,,,,,,,,,,,,,,,,,,,,,,,,,,,,,,,,,,,,,,,,,,,,,,,,,,,,,,,,1.8024691343307495,0.9961786000058055,585.3050349000259,None,ScrollUp,정답입니다,585.3050349000259,None,585.3050349000259,None,585.3050349000259,None,585.3050349000259,None,586.1987322000205,None,586.1987322000205,586.6986477000173,,,,,,,,,,,,,,,,209,2023-04-04_14h04.24.511,FishGame,2022.1.1,60.32432772724741,
,43,나를 데려가줘,6,Green,B,0,0,ScrollDown,ScrollUp,Green.png,4,NonTarget,NonTarget,0,0,0,0,,,,,,,,,,,,,,,,,,,,,,,,,0,42,42,42,,,,,,,,,,,,,,,,,,,,,,,,,,,,,,,,,,,,,,,,,,,,,,,,,,,,,,,,,,,,,,,,,,,,,,,,,1.0833333333333333,2.6815992999472655,587.3144091999857,None,ScrollDown,정답입니다,587.3144091999857,None,587.3144091999857,None,587.3144091999857,None,587.3144091999857,None,589.8986712000333,None,589.8986712000333,590.4018487000139,,,,,,,,,,,,,,,,209,2023-04-04_14h04.24.511,FishGame,2022.1.1,60.32432772724741,
,44,넌 외로워,4,Green,B,2.833333333333333,3.3,ScrollUp,ScrollDown,Green.png,4,Negative,Congruent,0,0,0,0,,,,,,,,,,,,,,,,,,,,,,,,,0,43,43,43,,,,,,,,,,,,,,,,,,,,,,,,,,,,,,,,,,,,,,,,,,,,,,,,,,,,,,,,,,,,,,,,,,,,,,,,,1.8749999900658925,1.1985849000047892,591.0329230999923,None,ScrollUp,정답입니다,591.0329230999923,None,591.0329230999923,None,591.0329230999923,None,591.0329230999923,None,592.1152436000411,None,592.1152436000411,592.6151836999925,,,,,,,,,,,,,,,,209,2023-04-04_14h04.24.511,FishGame,2022.1.1,60.32432772724741,
,1,넌 불평스러워,5,Orange,A,2.25,2.066666666666667,ScrollDown,ScrollUp,Orange.png,5,Negative,Incongruent,0,0,0,0,,,,,,,,,,,,,,,,,,,,,,,,,,,,,0,0,0,0,,,,,,,,,,,,,,,,,,,,,,,,,,,,624.6311900999863,626.1313601000002,626.1646832000115,627.1177957000327,627.1678276000312,628.1313990000053,628.1146568999975,None,,,,,,,,,,,,,,,,,,,,,,,,,,,,,,,,,,1.060185174147288,1.0318565999623388,629.2261884000036,None,ScrollDown,정답입니다,629.2261884000036,None,629.2261884000036,None,629.2261884000036,None,629.2261884000036,None,630.145425499999,None,630.145425499999,630.6453915000311,593.1152214999893,None,593.1152214999893,None,-0.12777779,-0.098148145,1,0,0,0.016207139939069748,None,623.1144830000121,None,,,209,2023-04-04_14h04.24.511,FishGame,2022.1.1,60.32432772724741,
,2,나를 보내줘,6,Orange,A,0,0,ScrollUp,ScrollDown,Orange.png,5,NonTarget,NonTarget,0,0,0,0,,,,,,,,,,,,,,,,,,,,,,,,,,,,,0,1,1,1,,,,,,,,,,,,,,,,,,,,,,,,,,,,,,,,,,,,,,,,,,,,,,,,,,,,,,,,,,,,,,,,,,,,,1.7407407512267432,0.7476147000561468,631.2616713999887,None,ScrollUp,정답입니다,631.2616713999887,None,631.2616713999887,None,631.2616713999887,None,631.2616713999887,None,631.9121401000302,None,631.9121401000302,632.4144872000325,,,,,,,,,,,,,,,,209,2023-04-04_14h04.24.511,FishGame,2022.1.1,60.32432772724741,
,3,넌 다재다능해,2,Green,B,6.208333333333333,4.5,ScrollUp,ScrollDown,Green.png,5,Positive,Incongruent,0,0,0,0,,,,,,,,,,,,,,,,,,,,,,,,,,,,,0,2,2,2,,,,,,,,,,,,,,,,,,,,,,,,,,,,,,,,,,,,,,,,,,,,,,,,,,,,,,,,,,,,,,,,,,,,,1.723765422900518,0.7151373000233434,633.0324841000256,None,ScrollUp,정답입니다,633.0324841000256,None,633.0324841000256,None,633.0324841000256,None,633.0324841000256,None,633.6480253000045,None,633.6480253000045,634.1478738000151,,,,,,,,,,,,,,,,209,2023-04-04_14h04.24.511,FishGame,2022.1.1,60.32432772724741,
,4,넌 과감해,3,Orange,A,4.833333333333334,4.6,ScrollDown,ScrollUp,Orange.png,5,Neutral,Neutral,0,0,0,0,,,,,,,,,,,,,,,,,,,,,,,,,,,,,0,3,3,3,,,,,,,,,,,,,,,,,,,,,,,,,,,,,,,,,,,,,,,,,,,,,,,,,,,,,,,,,,,,,,,,,,,,,1.0632716019948323,0.764826999977231,634.7680106000043,None,ScrollDown,정답입니다,634.7680106000043,None,634.7680106000043,None,634.7680106000043,None,634.7680106000043,None,635.4291250000242,None,635.4291250000242,635.9309840000351,,,,,,,,,,,,,,,,209,2023-04-04_14h04.24.511,FishGame,2022.1.1,60.32432772724741,
,5,넌 고분고분해,3,Green,B,3.75,4.033333333333333,ScrollUp,ScrollDown,Green.png,5,Neutral,Neutral,0,0,0,0,,,,,,,,,,,,,,,,,,,,,,,,,,,,,0,4,4,4,,,,,,,,,,,,,,,,,,,,,,,,,,,,,,,,,,,,,,,,,,,,,,,,,,,,,,,,,,,,,,,,,,,,,1.7962963034709294,0.7767041999613866,636.5694182000007,None,ScrollUp,정답입니다,636.5694182000007,None,636.5694182000007,None,636.5694182000007,None,636.5694182000007,None,637.2309478000388,None,637.2309478000388,637.7308857000316,,,,,,,,,,,,,,,,209,2023-04-04_14h04.24.511,FishGame,2022.1.1,60.32432772724741,
,6,나를 보내줘,6,Orange,A,0,0,ScrollUp,ScrollDown,Orange.png,5,NonTarget,NonTarget,0,0,0,0,,,,,,,,,,,,,,,,,,,,,,,,,,,,,0,5,5,5,,,,,,,,,,,,,,,,,,,,,,,,,,,,,,,,,,,,,,,,,,,,,,,,,,,,,,,,,,,,,,,,,,,,,1.819444437821706,0.9814386999933049,638.3528740000329,None,ScrollUp,정답입니다,638.3528740000329,None,638.3528740000329,None,638.3528740000329,None,638.3528740000329,None,639.2310037999996,None,639.2310037999996,639.7309341999935,,,,,,,,,,,,,,,,209,2023-04-04_14h04.24.511,FishGame,2022.1.1,60.32432772724741,
,7,넌 잘 잊어,4,Orange,A,3,3.7,ScrollDown,ScrollUp,Orange.png,5,Negative,Incongruent,0,0,0,0,,,,,,,,,,,,,,,,,,,,,,,,,,,,,0,6,6,6,,,,,,,,,,,,,,,,,,,,,,,,,,,,,,,,,,,,,,,,,,,,,,,,,,,,,,,,,,,,,,,,,,,,,1.1188271542390187,0.7624941000249237,640.361743299989,None,ScrollDown,정답입니다,640.361743299989,None,640.361743299989,None,640.361743299989,None,640.361743299989,None,641.0118696999853,None,641.0118696999853,641.5118460000376,,,,,,,,,,,,,,,,209,2023-04-04_14h04.24.511,FishGame,2022.1.1,60.32432772724741,
,8,넌 탐구심이없어,4,Green,B,2.833333333333333,3.066666666666667,ScrollUp,ScrollDown,Green.png,5,Negative,Congruent,0,0,0,0,,,,,,,,,,,,,,,,,,,,,,,,,,,,,0,7,7,7,,,,,,,,,,,,,,,,,,,,,,,,,,,,,,,,,,,,,,,,,,,,,,,,,,,,,,,,,,,,,,,,,,,,,1.7746913582086563,0.6645275999908336,642.1311345000286,None,ScrollUp,정답입니다,642.1311345000286,None,642.1311345000286,None,642.1311345000286,None,642.1311345000286,None,642.695210600039,None,642.695210600039,643.1975554000237,,,,,,,,,,,,,,,,209,2023-04-04_14h04.24.511,FishGame,2022.1.1,60.32432772724741,
,9,나를 데려가줘,6,Green,B,0,0,ScrollDown,ScrollUp,Green.png,5,NonTarget,NonTarget,0,0,0,0,,,,,,,,,,,,,,,,,,,,,,,,,,,,,0,8,8,8,,,,,,,,,,,,,,,,,,,,,,,,,,,,,,,,,,,,,,,,,,,,,,,,,,,,,,,,,,,,,,,,,,,,,1.0200617114702861,1.0316694000503048,643.8167199000018,None,ScrollDown,정답입니다,643.8167199000018,None,643.8167199000018,None,643.8167199000018,None,643.8167199000018,None,644.7475224999944,None,644.7475224999944,645.2508779999916,,,,,,,,,,,,,,,,209,2023-04-04_14h04.24.511,FishGame,2022.1.1,60.32432772724741,
,10,넌 참되어,2,Orange,A,6.041666666666664,4.733333333333333,ScrollDown,ScrollUp,Orange.png,5,Positive,Congruent,0,0,0,0,,,,,,,,,,,,,,,,,,,,,,,,,,,,,0,9,9,9,,,,,,,,,,,,,,,,,,,,,,,,,,,,,,,,,,,,,,,,,,,,,,,,,,,,,,,,,,,,,,,,,,,,,1.0540123681227367,0.7960462000337429,645.8678385000094,None,ScrollDown,정답입니다,645.8678385000094,None,645.8678385000094,None,645.8678385000094,None,645.8678385000094,None,646.5640501999878,None,646.5640501999878,647.0641256000381,,,,,,,,,,,,,,,,209,2023-04-04_14h04.24.511,FishGame,2022.1.1,60.32432772724741,
,11,넌 생기있어,1,Green,B,5.875,5.633333333333334,ScrollUp,ScrollDown,Green.png,5,Positive,Incongruent,0,0,0,0,,,,,,,,,,,,,,,,,,,,,,,,,,,,,0,10,10,10,,,,,,,,,,,,,,,,,,,,,,,,,,,,,,,,,,,,,,,,,,,,,,,,,,,,,,,,,,,,,,,,,,,,,1.7716049303611119,0.6952466999646276,647.6871948000044,None,ScrollUp,정답입니다,647.6871948000044,None,647.6871948000044,None,647.6871948000044,None,647.6871948000044,None,648.2806866000174,None,648.2806866000174,648.7806335000205,,,,,,,,,,,,,,,,209,2023-04-04_14h04.24.511,FishGame,2022.1.1,60.32432772724741,
,12,넌 비사교적이야,4,Green,B,2.875,2.9,ScrollUp,ScrollDown,Green.png,5,Negative,Congruent,0,0,0,0,,,,,,,,,,,,,,,,,,,,,,,,,,,,,0,11,11,11,,,,,,,,,,,,,,,,,,,,,,,,,,,,,,,,,,,,,,,,,,,,,,,,,,,,,,,,,,,,,,,,,,,,,1.785493830839793,0.7464085000101477,649.4103308999911,None,ScrollUp,정답입니다,649.4103308999911,None,649.4103308999911,None,649.4103308999911,None,649.4103308999911,None,650.0474942000001,None,650.0474942000001,650.5473383000353,,,,,,,,,,,,,,,,209,2023-04-04_14h04.24.511,FishGame,2022.1.1,60.32432772724741,
,13,나를 데려가줘,6,Green,B,0,0,ScrollDown,ScrollUp,Green.png,5,NonTarget,NonTarget,0,0,0,0,,,,,,,,,,,,,,,,,,,,,,,,,,,,,0,12,12,12,,,,,,,,,,,,,,,,,,,,,,,,,,,,,,,,,,,,,,,,,,,,,,,,,,,,,,,,,,,,,,,,,,,,,1.141975313425064,0.7928633000119589,651.1779625000199,None,ScrollDown,정답입니다,651.1779625000199,None,651.1779625000199,None,651.1779625000199,None,651.1779625000199,None,651.8616264000302,None,651.8616264000302,652.3616068999982,,,,,,,,,,,,,,,,209,2023-04-04_14h04.24.511,FishGame,2022.1.1,60.32432772724741,
