name,TrialNum,Word,WordCategory,FishType,WordList,WordValence,WordReputation,CorrectResp,IncorrectResp,FishTypeFile,Round,WordType,Condition,LoopforOrange.thisRepN,LoopforOrange.thisTrialN,LoopforOrange.thisN,LoopforOrange.thisIndex,LoopForGreen.thisRepN,LoopForGreen.thisTrialN,LoopForGreen.thisN,LoopForGreen.thisIndex,GreenInstLoop.thisRepN,GreenInstLoop.thisTrialN,GreenInstLoop.thisN,GreenInstLoop.thisIndex,GreenPrac.thisRepN,GreenPrac.thisTrialN,GreenPrac.thisN,GreenPrac.thisIndex,trials_2.thisRepN,trials_2.thisTrialN,trials_2.thisN,trials_2.thisIndex,GreenRound1.thisRepN,GreenRound1.thisTrialN,GreenRound1.thisN,GreenRound1.thisIndex,GreenRound2.thisRepN,GreenRound2.thisTrialN,GreenRound2.thisN,GreenRound2.thisIndex,GreenRound3.thisRepN,GreenRound3.thisTrialN,GreenRound3.thisN,GreenRound3.thisIndex,GreenRound4.thisRepN,GreenRound4.thisTrialN,GreenRound4.thisN,GreenRound4.thisIndex,GreenRound5.thisRepN,GreenRound5.thisTrialN,GreenRound5.thisN,GreenRound5.thisIndex,text_2.started,text_2.stopped,text_3.started,text_3.stopped,key_resp.keys,key_resp.rt,key_resp.started,key_resp.stopped,PassI.started,PassI.stopped,PassInst.keys,PassInst.rt,PassInst.started,PassInst.stopped,mouse_2.x,mouse_2.y,mouse_2.leftButton,mouse_2.midButton,mouse_2.rightButton,mouse_2.started,mouse_2.stopped,image.started,image.stopped,text_5.started,text_5.stopped,text_6.started,text_6.stopped,text_7.started,text_7.stopped,text_8.started,text_8.stopped,slider_3.response,slider_3.rt,slider_3.started,slider_3.stopped,Response_3,Feedback_3,BackGround_3.started,BackGround_3.stopped,Fish_3.started,Fish_3.stopped,WordBox_3.started,WordBox_3.stopped,Words_3.started,Words_3.stopped,BackGround_Feedback_3.started,BackGround_Feedback_3.stopped,Feedbacks_3.started,Feedbacks_3.stopped,Continue_or_not_2.keys,Continue_or_not_2.rt,Continue_or_not_2.started,Continue_or_not_2.stopped,image_4.started,image_4.stopped,mouse_3.x,mouse_3.y,mouse_3.leftButton,mouse_3.midButton,mouse_3.rightButton,mouse_3.started,mouse_3.stopped,startmain.started,startmain.stopped,slider_4.response,slider_4.rt,slider_4.started,slider_4.stopped,Response_4,Feedback_4,BackGround_4.started,BackGround_4.stopped,Fish_4.started,Fish_4.stopped,WordBox_4.started,WordBox_4.stopped,Words_4.started,Words_4.stopped,BackGround_Feedback_4.started,BackGround_Feedback_4.stopped,Feedbacks_4.started,Feedbacks_4.stopped,text.started,text.stopped,break_interval.started,break_interval.stopped,mouse.x,mouse.y,mouse.leftButton,mouse.midButton,mouse.rightButton,mouse.started,mouse.stopped,stratnextround.started,stratnextround.stopped,endgame.started,endgame.stopped,participant,date,expName,psychopyVersion,frameRate,
,,,,,,,,,,,,,,,,,,,,,,,,,,,,,,,,,,,,,,,,,,,,,,,,,,,,,,20.237415000097826,None,20.237415000097826,None,space,2.3019478999776766,20.731620600097813,None,,,,,,,,,,,,,,,,,,,,,,,,,,,,,,,,,,,,,,,,,,,,,,,,,,,,,,,,,,,,,,,,,,,,,,,,,,,,,,,,,,,,,,,,,,210,2023-04-05_15h18.45.158,FishGame,2022.1.1,60.039469940543945,
물고기과제_instruction(참가자용)GreenVersion.mp4,,,,,,,,,,,,,,,,,,0,0,0,0,0,0,0,0,,,,,,,,,,,,,,,,,,,,,,,,,,,,,,,,,,,,,95.42691040004138,None,n,5.1998681999975815,95.42691040004138,None,,,,,,,,,,,,,,,,,,,,,,,,,,,,,,,,,,,,,,,,,,,,,,,,,,,,,,,,,,,,,,,,,,,,,,,,,,,,,,,,,,,,210,2023-04-05_15h18.45.158,FishGame,2022.1.1,60.039469940543945,
,1,넌 교활해,5,Orange,B,2.333333333333333,2.133333333333333,ScrollUp,ScrollDown,Orange.png,practice,,,,,,,0,0,0,0,,,,,0,0,0,0,0,0,0,0,,,,,,,,,,,,,,,,,,,,,,,,,,,,,,,,,,,0.1675926,-0.20277777,0,0,1,0.5144316300284117,None,100.64343500009272,None,103.85785120003857,105.35997300001327,105.39333680004347,106.34090740000829,106.39331620000303,107.34326910006348,107.34326910006348,None,1.9367283980051677,1.756199900060892,108.64131640002597,None,ScrollUp,정답입니다,108.64131640002597,None,108.64131640002597,None,108.64131640002597,None,108.64131640002597,None,110.0907920000609,None,110.0907920000609,110.59071130002849,,,,,,,,,,,,,,,,,,,,,,,,,,,,,,,,,,,,,,,,,,,,,,,,,210,2023-04-05_15h18.45.158,FishGame,2022.1.1,60.039469940543945,
,2,넌 슬기로워,2,Green,A,6.166666666666667,4.1,ScrollDown,ScrollUp,Green.png,practice,,,,,,,0,0,0,0,,,,,0,0,0,0,0,1,1,1,,,,,,,,,,,,,,,,,,,,,,,,,,,,,,,,,,,,,,,,,,,,,,,,,,,,1,1.0670275000156835,111.21376359998249,None,ScrollDown,정답입니다,111.21376359998249,None,111.21376359998249,None,111.21376359998249,None,111.21376359998249,None,112.1764930000063,None,112.1764930000063,112.67648660007399,,,,,,,,,,,,,,,,,,,,,,,,,,,,,,,,,,,,,,,,,,,,,,,,,210,2023-04-05_15h18.45.158,FishGame,2022.1.1,60.039469940543945,
,3,나를 보내줘,6,Green,A,0,0,ScrollUp,ScrollDown,Green.png,practice,,,,,,,0,0,0,0,,,,,0,0,0,0,0,2,2,2,,,,,,,,,,,,,,,,,,,,,,,,,,,,,,,,,,,,,,,,,,,,,,,,,,,,1.5987654303510985,1.1793549000285566,113.30011340009514,None,ScrollUp,정답입니다,113.30011340009514,None,113.30011340009514,None,113.30011340009514,None,113.30011340009514,None,114.37399290001485,None,114.37399290001485,114.8740391000174,,,,,,,,,,,,,,,,,,,,,,,,,,,,,,,,,,,,,,,,,,,,,,,,,210,2023-04-05_15h18.45.158,FishGame,2022.1.1,60.039469940543945,
,4,나를 데려가줘,6,Orange,B,0,0,ScrollDown,ScrollUp,Orange.png,practice,,,,,,,0,0,0,0,,,,,0,0,0,0,0,3,3,3,,,,,,,,,,,,,,,,,,,,,,,,,,,,,,,,,,,,,,,,,,,,,,,,,,,,1,1.1318784001050517,115.49887460004538,None,ScrollDown,정답입니다,115.49887460004538,None,115.49887460004538,None,115.49887460004538,None,115.49887460004538,None,116.52639430004638,None,116.52639430004638,117.02636850008275,,,,,,,,,,,,,,,,,,,,,,,,,,,,,,,,,,,,,,,,,,,,,,,,,210,2023-04-05_15h18.45.158,FishGame,2022.1.1,60.039469940543945,
,1,넌 교활해,5,Orange,B,2.333333333333333,2.133333333333333,ScrollUp,ScrollDown,Orange.png,practice,,,,,,,0,0,0,0,,,,,0,0,0,0,,,,,,,,,,,,,,,,,,,,,,,,,,,,,,,,,,,,,,,,,,,,,,,,,,,,,,,,,,,,,,,,,,,,,,,,,,n,6.286545300041325,117.52637149998918,None,117.52637149998918,None,,,,,,,,,,,,,,,,,,,,,,,,,,,,,,,,,,,,,,,,,,,210,2023-04-05_15h18.45.158,FishGame,2022.1.1,60.039469940543945,
,1,넌 따뜻해,1,Orange,B,6.083333333333333,5.6,ScrollUp,ScrollDown,Orange.png,1,Positive,Incongruent,,,,,0,0,0,0,,,,,,,,,,,,,0,0,0,0,,,,,,,,,,,,,,,,,,,,,,,,,,,,,,,,,,,,,,,,126.04072410007939,127.54285920003895,127.5761957000941,128.52618769998662,128.57619410008192,129.52616770006716,129.52616770006716,None,,,,,,,,,,,,,,,,,,,,,,,,,0.013888889,-0.11481482,1,0,0,0.31504793011117727,None,123.84266740002204,None,1.594135800997416,1.1939099999144673,130.83166510006413,None,ScrollUp,정답입니다,130.83166510006413,None,130.83166510006413,None,130.83166510006413,None,130.83166510006413,None,131.7084732000949,None,131.7084732000949,132.2092025000602,,,,,,,,,,,,,,,,210,2023-04-05_15h18.45.158,FishGame,2022.1.1,60.039469940543945,
,2,넌 기품있어,2,Orange,B,5.791666666666668,4.5,ScrollUp,ScrollDown,Orange.png,1,Positive,Incongruent,,,,,0,0,0,0,,,,,,,,,,,,,0,1,1,1,,,,,,,,,,,,,,,,,,,,,,,,,,,,,,,,,,,,,,,,,,,,,,,,,,,,,,,,,,,,,,,,,,,,,,,,,,,,,,,,,2,1.7650601000059396,132.84422610001639,None,ScrollUp,정답입니다,132.84422610001639,None,132.84422610001639,None,132.84422610001639,None,132.84422610001639,None,134.4905186999822,None,134.4905186999822,134.99252379999962,,,,,,,,,,,,,,,,210,2023-04-05_15h18.45.158,FishGame,2022.1.1,60.039469940543945,
,3,나를 보내줘,6,Green,A,0,0,ScrollUp,ScrollDown,Green.png,1,NonTarget,NonTarget,,,,,0,0,0,0,,,,,,,,,,,,,0,2,2,2,,,,,,,,,,,,,,,,,,,,,,,,,,,,,,,,,,,,,,,,,,,,,,,,,,,,,,,,,,,,,,,,,,,,,,,,,,,,,,,,,1.9537037014961243,1.1817444999469444,135.62221140007023,None,ScrollUp,정답입니다,135.62221140007023,None,135.62221140007023,None,135.62221140007023,None,135.62221140007023,None,136.69251970003825,None,136.69251970003825,137.19572250009514,,,,,,,,,,,,,,,,210,2023-04-05_15h18.45.158,FishGame,2022.1.1,60.039469940543945,
,4,넌 수동적이야,4,Green,A,2.833333333333333,2.933333333333333,ScrollDown,ScrollUp,Green.png,1,Negative,Incongruent,,,,,0,0,0,0,,,,,,,,,,,,,0,3,3,3,,,,,,,,,,,,,,,,,,,,,,,,,,,,,,,,,,,,,,,,,,,,,,,,,,,,,,,,,,,,,,,,,,,,,,,,,,,,,,,,,1,0.9818587999325246,137.8223500000313,None,ScrollDown,정답입니다,137.8223500000313,None,137.8223500000313,None,137.8223500000313,None,137.8223500000313,None,138.69249530008528,None,138.69249530008528,139.19240280007944,,,,,,,,,,,,,,,,210,2023-04-05_15h18.45.158,FishGame,2022.1.1,60.039469940543945,
,5,넌 사심이 없어,3,Orange,B,4.916666666666666,4.333333333333333,ScrollUp,ScrollDown,Orange.png,1,Neutral,Neutral,,,,,0,0,0,0,,,,,,,,,,,,,0,4,4,4,,,,,,,,,,,,,,,,,,,,,,,,,,,,,,,,,,,,,,,,,,,,,,,,,,,,,,,,,,,,,,,,,,,,,,,,,,,,,,,,,1.9567901293436687,1.0149588000494987,139.82234680000693,None,ScrollUp,정답입니다,139.82234680000693,None,139.82234680000693,None,139.82234680000693,None,139.82234680000693,None,140.72576130006928,None,140.72576130006928,141.22575209999923,,,,,,,,,,,,,,,,210,2023-04-05_15h18.45.158,FishGame,2022.1.1,60.039469940543945,
,6,넌 헤퍼,5,Green,A,2.458333333333334,2.233333333333333,ScrollDown,ScrollUp,Green.png,1,Negative,Incongruent,,,,,0,0,0,0,,,,,,,,,,,,,0,5,5,5,,,,,,,,,,,,,,,,,,,,,,,,,,,,,,,,,,,,,,,,,,,,,,,,,,,,,,,,,,,,,,,,,,,,,,,,,,,,,,,,,1.0462962985038757,0.9959775999886915,141.85635240003467,None,ScrollDown,정답입니다,141.85635240003467,None,141.85635240003467,None,141.85635240003467,None,141.85635240003467,None,142.7423166000517,None,142.7423166000517,143.24233350006398,,,,,,,,,,,,,,,,210,2023-04-05_15h18.45.158,FishGame,2022.1.1,60.039469940543945,
,7,넌 말쑥해,3,Green,A,4.833333333333334,4.333333333333333,ScrollDown,ScrollUp,Green.png,1,Neutral,Neutral,,,,,0,0,0,0,,,,,,,,,,,,,0,6,6,6,,,,,,,,,,,,,,,,,,,,,,,,,,,,,,,,,,,,,,,,,,,,,,,,,,,,,,,,,,,,,,,,,,,,,,,,,,,,,,,,,1,0.9984452000353485,143.87680440000258,None,ScrollDown,정답입니다,143.87680440000258,None,143.87680440000258,None,143.87680440000258,None,143.87680440000258,None,144.75912649999373,None,144.75912649999373,145.25894780003,,,,,,,,,,,,,,,,210,2023-04-05_15h18.45.158,FishGame,2022.1.1,60.039469940543945,
,8,넌 투덜거려,5,Orange,B,2.541666666666667,2.266666666666667,ScrollUp,ScrollDown,Orange.png,1,Negative,Congruent,,,,,0,0,0,0,,,,,,,,,,,,,0,7,7,7,,,,,,,,,,,,,,,,,,,,,,,,,,,,,,,,,,,,,,,,,,,,,,,,,,,,,,,,,,,,,,,,,,,,,,,,,,,,,,,,,2,0.9961284999735653,145.88987610000186,None,ScrollUp,정답입니다,145.88987610000186,None,145.88987610000186,None,145.88987610000186,None,145.88987610000186,None,146.77556340000592,None,146.77556340000592,147.27557450009044,,,,,,,,,,,,,,,,210,2023-04-05_15h18.45.158,FishGame,2022.1.1,60.039469940543945,
,9,넌 적극적이야,1,Green,A,5.708333333333333,5.533333333333333,ScrollDown,ScrollUp,Green.png,1,Positive,Congruent,,,,,0,0,0,0,,,,,,,,,,,,,0,8,8,8,,,,,,,,,,,,,,,,,,,,,,,,,,,,,,,,,,,,,,,,,,,,,,,,,,,,,,,,,,,,,,,,,,,,,,,,,,,,,,,,,1.0277777810891469,0.8978073999751359,147.9012653999962,None,ScrollDown,정답입니다,147.9012653999962,None,147.9012653999962,None,147.9012653999962,None,147.9012653999962,None,148.6922495000763,None,148.6922495000763,149.19226330006495,,,,,,,,,,,,,,,,210,2023-04-05_15h18.45.158,FishGame,2022.1.1,60.039469940543945,
,10,넌 재미없어,4,Orange,B,2.625,2.966666666666667,ScrollUp,ScrollDown,Orange.png,1,Negative,Congruent,,,,,0,0,0,0,,,,,,,,,,,,,0,9,9,9,,,,,,,,,,,,,,,,,,,,,,,,,,,,,,,,,,,,,,,,,,,,,,,,,,,,,,,,,,,,,,,,,,,,,,,,,,,,,,,,,1.7716049303611119,1.1794321000343189,149.82103680004366,None,ScrollUp,정답입니다,149.82103680004366,None,149.82103680004366,None,149.82103680004366,None,149.82103680004366,None,150.8899201999884,None,150.8899201999884,151.3898809000384,,,,,,,,,,,,,,,,210,2023-04-05_15h18.45.158,FishGame,2022.1.1,60.039469940543945,
,11,넌 명석해,2,Green,A,5.875,4.033333333333333,ScrollDown,ScrollUp,Green.png,1,Positive,Congruent,,,,,0,0,0,0,,,,,,,,,,,,,0,10,10,10,,,,,,,,,,,,,,,,,,,,,,,,,,,,,,,,,,,,,,,,,,,,,,,,,,,,,,,,,,,,,,,,,,,,,,,,,,,,,,,,,1,0.9506607999792323,152.0162202999927,None,ScrollDown,정답입니다,152.0162202999927,None,152.0162202999927,None,152.0162202999927,None,152.0162202999927,None,152.8591365000466,None,152.8591365000466,153.35895610006992,,,,,,,,,,,,,,,,210,2023-04-05_15h18.45.158,FishGame,2022.1.1,60.039469940543945,
,12,나를 데려가줘,6,Orange,B,0,0,ScrollDown,ScrollUp,Orange.png,1,NonTarget,NonTarget,,,,,0,0,0,0,,,,,,,,,,,,,0,11,11,11,,,,,,,,,,,,,,,,,,,,,,,,,,,,,,,,,,,,,,,,,,,,,,,,,,,,,,,,,,,,,,,,,,,,,,,,,,,,,,,,,1,1.2460672999732196,153.9900762999896,None,ScrollDown,정답입니다,153.9900762999896,None,153.9900762999896,None,153.9900762999896,None,153.9900762999896,None,155.1254525000695,None,155.1254525000695,155.62538440001663,,,,,,,,,,,,,,,,210,2023-04-05_15h18.45.158,FishGame,2022.1.1,60.039469940543945,
,13,넌 소심해,4,Green,A,3,3.1,ScrollDown,ScrollUp,Green.png,1,Negative,Incongruent,,,,,0,0,0,0,,,,,,,,,,,,,0,12,12,12,,,,,,,,,,,,,,,,,,,,,,,,,,,,,,,,,,,,,,,,,,,,,,,,,,,,,,,,,,,,,,,,,,,,,,,,,,,,,,,,,1,0.962915699928999,156.2502236000728,None,ScrollDown,정답입니다,156.2502236000728,None,156.2502236000728,None,156.2502236000728,None,156.2502236000728,None,157.10874900000636,None,157.10874900000636,157.6087823000271,,,,,,,,,,,,,,,,210,2023-04-05_15h18.45.158,FishGame,2022.1.1,60.039469940543945,
,14,넌 합리적이야,2,Green,A,5.583333333333333,4.733333333333333,ScrollDown,ScrollUp,Green.png,1,Positive,Congruent,,,,,0,0,0,0,,,,,,,,,,,,,0,13,13,13,,,,,,,,,,,,,,,,,,,,,,,,,,,,,,,,,,,,,,,,,,,,,,,,,,,,,,,,,,,,,,,,,,,,,,,,,,,,,,,,,1,0.9461987999966368,158.23500119999517,None,ScrollDown,정답입니다,158.23500119999517,None,158.23500119999517,None,158.23500119999517,None,158.23500119999517,None,159.07541679998394,None,159.07541679998394,159.57527350005694,,,,,,,,,,,,,,,,210,2023-04-05_15h18.45.158,FishGame,2022.1.1,60.039469940543945,
,15,넌 무자비해,5,Orange,B,2.333333333333333,2.1,ScrollUp,ScrollDown,Orange.png,1,Negative,Congruent,,,,,0,0,0,0,,,,,,,,,,,,,0,14,14,14,,,,,,,,,,,,,,,,,,,,,,,,,,,,,,,,,,,,,,,,,,,,,,,,,,,,,,,,,,,,,,,,,,,,,,,,,,,,,,,,,2,1.3793667999561876,160.2133258000249,None,ScrollUp,정답입니다,160.2133258000249,None,160.2133258000249,None,160.2133258000249,None,160.2133258000249,None,161.47539640008472,None,161.47539640008472,161.97534880007152,,,,,,,,,,,,,,,,210,2023-04-05_15h18.45.158,FishGame,2022.1.1,60.039469940543945,
,16,나를 보내줘,6,Green,A,0,0,ScrollUp,ScrollDown,Green.png,1,NonTarget,NonTarget,,,,,0,0,0,0,,,,,,,,,,,,,0,15,15,15,,,,,,,,,,,,,,,,,,,,,,,,,,,,,,,,,,,,,,,,,,,,,,,,,,,,,,,,,,,,,,,,,,,,,,,,,,,,,,,,,2,1.1481712000677362,162.60314870008733,None,ScrollUp,정답입니다,162.60314870008733,None,162.60314870008733,None,162.60314870008733,None,162.60314870008733,None,163.64189530001022,None,163.64189530001022,164.1419013000559,,,,,,,,,,,,,,,,210,2023-04-05_15h18.45.158,FishGame,2022.1.1,60.039469940543945,
,17,넌 현실적이야,3,Orange,B,4.608695652173913,4.766666666666667,ScrollUp,ScrollDown,Orange.png,1,Neutral,Neutral,,,,,0,0,0,0,,,,,,,,,,,,,0,16,16,16,,,,,,,,,,,,,,,,,,,,,,,,,,,,,,,,,,,,,,,,,,,,,,,,,,,,,,,,,,,,,,,,,,,,,,,,,,,,,,,,,1.9783950746059418,1.334916300023906,164.77084390004165,None,ScrollUp,정답입니다,164.77084390004165,None,164.77084390004165,None,164.77084390004165,None,164.77084390004165,None,165.99559720000252,None,165.99559720000252,166.50846690009348,,,,,,,,,,,,,,,,210,2023-04-05_15h18.45.158,FishGame,2022.1.1,60.039469940543945,
,18,넌 의리있어,1,Orange,B,5.833333333333334,5.633333333333334,ScrollUp,ScrollDown,Orange.png,1,Positive,Incongruent,,,,,0,0,0,0,,,,,,,,,,,,,0,17,17,17,,,,,,,,,,,,,,,,,,,,,,,,,,,,,,,,,,,,,,,,,,,,,,,,,,,,,,,,,,,,,,,,,,,,,,,,,,,,,,,,,1.9722222189108531,0.9797422999981791,167.13545330008492,None,ScrollUp,정답입니다,167.13545330008492,None,167.13545330008492,None,167.13545330008492,None,167.13545330008492,None,168.008483099984,None,168.008483099984,168.50848820002284,,,,,,,,,,,,,,,,210,2023-04-05_15h18.45.158,FishGame,2022.1.1,60.039469940543945,
,19,넌 신경과민이야,5,Green,A,2.541666666666667,2.166666666666667,ScrollDown,ScrollUp,Green.png,1,Negative,Incongruent,,,,,0,0,0,0,,,,,,,,,,,,,0,18,18,18,,,,,,,,,,,,,,,,,,,,,,,,,,,,,,,,,,,,,,,,,,,,,,,,,,,,,,,,,,,,,,,,,,,,,,,,,,,,,,,,,1,0.8821970999706537,169.13769400003366,None,ScrollDown,정답입니다,169.13769400003366,None,169.13769400003366,None,169.13769400003366,None,169.13769400003366,None,169.9064549000468,None,169.9064549000468,170.4084981000051,,,,,,,,,,,,,,,,210,2023-04-05_15h18.45.158,FishGame,2022.1.1,60.039469940543945,
,20,넌 편안해,1,Green,A,5.916666666666666,5.866666666666666,ScrollDown,ScrollUp,Green.png,1,Positive,Congruent,,,,,0,0,0,0,,,,,,,,,,,,,0,19,19,19,,,,,,,,,,,,,,,,,,,,,,,,,,,,,,,,,,,,,,,,,,,,,,,,,,,,,,,,,,,,,,,,,,,,,,,,,,,,,,,,,1,0.8129247999750078,171.03883360000327,None,ScrollDown,정답입니다,171.03883360000327,None,171.03883360000327,None,171.03883360000327,None,171.03883360000327,None,171.7417134999996,None,171.7417134999996,172.24170520005282,,,,,,,,,,,,,,,,210,2023-04-05_15h18.45.158,FishGame,2022.1.1,60.039469940543945,
,21,넌 품위있어,2,Orange,B,5.291666666666666,4.466666666666667,ScrollUp,ScrollDown,Orange.png,1,Positive,Incongruent,,,,,0,0,0,0,,,,,,,,,,,,,0,20,20,20,,,,,,,,,,,,,,,,,,,,,,,,,,,,,,,,,,,,,,,,,,,,,,,,,,,,,,,,,,,,,,,,,,,,,,,,,,,,,,,,,1.9290123283863068,0.9150945000583306,172.86917100008577,None,ScrollUp,정답입니다,172.86917100008577,None,172.86917100008577,None,172.86917100008577,None,172.86917100008577,None,173.67515660007484,None,173.67515660007484,174.17507230001502,,,,,,,,,,,,,,,,210,2023-04-05_15h18.45.158,FishGame,2022.1.1,60.039469940543945,
,22,넌 빈틈없어,3,Green,A,4.833333333333333,3.966666666666667,ScrollDown,ScrollUp,Green.png,1,Neutral,Neutral,,,,,0,0,0,0,,,,,,,,,,,,,0,21,21,21,,,,,,,,,,,,,,,,,,,,,,,,,,,,,,,,,,,,,,,,,,,,,,,,,,,,,,,,,,,,,,,,,,,,,,,,,,,,,,,,,1,0.8958238000050187,174.80177440005355,None,ScrollDown,정답입니다,174.80177440005355,None,174.80177440005355,None,174.80177440005355,None,174.80177440005355,None,175.58937529998366,None,175.58937529998366,176.089370300062,,,,,,,,,,,,,,,,210,2023-04-05_15h18.45.158,FishGame,2022.1.1,60.039469940543945,
,23,넌 상상력없어,4,Orange,B,2.833333333333333,3.133333333333333,ScrollUp,ScrollDown,Orange.png,1,Negative,Congruent,,,,,0,0,0,0,,,,,,,,,,,,,0,22,22,22,,,,,,,,,,,,,,,,,,,,,,,,,,,,,,,,,,,,,,,,,,,,,,,,,,,,,,,,,,,,,,,,,,,,,,,,,,,,,,,,,1.873456800977389,0.8479745000367984,176.7154078000458,None,ScrollUp,정답입니다,176.7154078000458,None,176.7154078000458,None,176.7154078000458,None,176.7154078000458,None,177.4560691000661,None,177.4560691000661,177.9584775000112,,,,,,,,,,,,,,,,210,2023-04-05_15h18.45.158,FishGame,2022.1.1,60.039469940543945,
,24,넌 지혜로워,2,Orange,B,6.333333333333334,4.633333333333334,ScrollUp,ScrollDown,Orange.png,1,Positive,Incongruent,,,,,0,0,0,0,,,,,,,,,,,,,0,23,23,23,,,,,,,,,,,,,,,,,,,,,,,,,,,,,,,,,,,,,,,,,,,,,,,,,,,,,,,,,,,,,,,,,,,,,,,,,,,,,,,,,1.879629631837209,0.914859400014393,178.58930680004414,None,ScrollUp,정답입니다,178.58930680004414,None,178.58930680004414,None,178.58930680004414,None,178.58930680004414,None,179.3917934000492,None,179.3917934000492,179.89519920002203,,,,,,,,,,,,,,,,210,2023-04-05_15h18.45.158,FishGame,2022.1.1,60.039469940543945,
,25,넌 시끄러워,4,Green,A,2.833333333333333,3.033333333333333,ScrollDown,ScrollUp,Green.png,1,Negative,Incongruent,,,,,0,0,0,0,,,,,,,,,,,,,0,24,24,24,,,,,,,,,,,,,,,,,,,,,,,,,,,,,,,,,,,,,,,,,,,,,,,,,,,,,,,,,,,,,,,,,,,,,,,,,,,,,,,,,1.0061728358268738,0.9123927000910044,180.5195150000509,None,ScrollDown,정답입니다,180.5195150000509,None,180.5195150000509,None,180.5195150000509,None,180.5195150000509,None,181.32487560005393,None,181.32487560005393,181.82489819999319,,,,,,,,,,,,,,,,210,2023-04-05_15h18.45.158,FishGame,2022.1.1,60.039469940543945,
,26,넌 만사태평이야,3,Orange,B,4,4.333333333333333,ScrollUp,ScrollDown,Orange.png,1,Neutral,Neutral,,,,,0,0,0,0,,,,,,,,,,,,,0,25,25,25,,,,,,,,,,,,,,,,,,,,,,,,,,,,,,,,,,,,,,,,,,,,,,,,,,,,,,,,,,,,,,,,,,,,,,,,,,,,,,,,,1.9984568059444427,0.8595544999698177,182.46687310002744,None,ScrollUp,정답입니다,182.46687310002744,None,182.46687310002744,None,182.46687310002744,None,182.46687310002744,None,183.2058880000841,None,183.2058880000841,183.70587210007943,,,,,,,,,,,,,,,,210,2023-04-05_15h18.45.158,FishGame,2022.1.1,60.039469940543945,
,27,넌 붙임성있어,1,Green,A,5.708333333333333,5.633333333333334,ScrollDown,ScrollUp,Green.png,1,Positive,Congruent,,,,,0,0,0,0,,,,,,,,,,,,,0,26,26,26,,,,,,,,,,,,,,,,,,,,,,,,,,,,,,,,,,,,,,,,,,,,,,,,,,,,,,,,,,,,,,,,,,,,,,,,,,,,,,,,,1.1250000099341075,0.7647754000499845,184.3315622000955,None,ScrollDown,정답입니다,184.3315622000955,None,184.3315622000955,None,184.3315622000955,None,184.3315622000955,None,184.98924250004347,None,184.98924250004347,185.49160000006668,,,,,,,,,,,,,,,,210,2023-04-05_15h18.45.158,FishGame,2022.1.1,60.039469940543945,
,28,넌 영리해,2,Green,A,6,4.033333333333333,ScrollDown,ScrollUp,Green.png,1,Positive,Congruent,,,,,0,0,0,0,,,,,,,,,,,,,0,27,27,27,,,,,,,,,,,,,,,,,,,,,,,,,,,,,,,,,,,,,,,,,,,,,,,,,,,,,,,,,,,,,,,,,,,,,,,,,,,,,,,,,1.0617283880710602,0.8294721000129357,186.11657190008555,None,ScrollDown,정답입니다,186.11657190008555,None,186.11657190008555,None,186.11657190008555,None,186.11657190008555,None,186.84160590008833,None,186.84160590008833,187.34160610008985,,,,,,,,,,,,,,,,210,2023-04-05_15h18.45.158,FishGame,2022.1.1,60.039469940543945,
,29,넌 열심이야,1,Orange,B,6.041666666666667,5.833333333333333,ScrollUp,ScrollDown,Orange.png,1,Positive,Incongruent,,,,,0,0,0,0,,,,,,,,,,,,,0,28,28,28,,,,,,,,,,,,,,,,,,,,,,,,,,,,,,,,,,,,,,,,,,,,,,,,,,,,,,,,,,,,,,,,,,,,,,,,,,,,,,,,,1.8410493830839794,1.0452383999945596,187.9769775000168,None,ScrollUp,정답입니다,187.9769775000168,None,187.9769775000168,None,187.9769775000168,None,187.9769775000168,None,188.90824930008966,None,188.90824930008966,189.40809839998838,,,,,,,,,,,,,,,,210,2023-04-05_15h18.45.158,FishGame,2022.1.1,60.039469940543945,
,30,넌 인기없어,4,Orange,B,3,3.3,ScrollUp,ScrollDown,Orange.png,1,Negative,Congruent,,,,,0,0,0,0,,,,,,,,,,,,,0,29,29,29,,,,,,,,,,,,,,,,,,,,,,,,,,,,,,,,,,,,,,,,,,,,,,,,,,,,,,,,,,,,,,,,,,,,,,,,,,,,,,,,,2,0.946205300046131,190.043982500094,None,ScrollUp,정답입니다,190.043982500094,None,190.043982500094,None,190.043982500094,None,190.043982500094,None,190.87239760009106,None,190.87239760009106,191.37240880005993,,,,,,,,,,,,,,,,210,2023-04-05_15h18.45.158,FishGame,2022.1.1,60.039469940543945,
,31,넌 익살스러워,3,Green,A,4.708333333333334,4.833333333333333,ScrollDown,ScrollUp,Green.png,1,Neutral,Neutral,,,,,0,0,0,0,,,,,,,,,,,,,0,30,30,30,,,,,,,,,,,,,,,,,,,,,,,,,,,,,,,,,,,,,,,,,,,,,,,,,,,,,,,,,,,,,,,,,,,,,,,,,,,,,,,,,1.0432098706563313,0.8496469999663532,191.99914020008873,None,ScrollDown,정답입니다,191.99914020008873,None,191.99914020008873,None,191.99914020008873,None,191.99914020008873,None,192.7414892000379,None,192.7414892000379,193.24149759998545,,,,,,,,,,,,,,,,210,2023-04-05_15h18.45.158,FishGame,2022.1.1,60.039469940543945,
,32,넌 이기적이야,5,Orange,B,2.291666666666667,2.333333333333333,ScrollUp,ScrollDown,Orange.png,1,Negative,Congruent,,,,,0,0,0,0,,,,,,,,,,,,,0,31,31,31,,,,,,,,,,,,,,,,,,,,,,,,,,,,,,,,,,,,,,,,,,,,,,,,,,,,,,,,,,,,,,,,,,,,,,,,,,,,,,,,,1.919753094514211,0.7984211000148207,193.86679000000004,None,ScrollUp,정답입니다,193.86679000000004,None,193.86679000000004,None,193.86679000000004,None,193.86679000000004,None,194.55825220001861,None,194.55825220001861,195.0615051999921,,,,,,,,,,,,,,,,210,2023-04-05_15h18.45.158,FishGame,2022.1.1,60.039469940543945,
,33,나를 데려가줘,6,Orange,B,0,0,ScrollDown,ScrollUp,Orange.png,1,NonTarget,NonTarget,,,,,0,0,0,0,,,,,,,,,,,,,0,32,32,32,,,,,,,,,,,,,,,,,,,,,,,,,,,,,,,,,,,,,,,,,,,,,,,,,,,,,,,,,,,,,,,,,,,,,,,,,,,,,,,,,1.1712963034709294,1.2316483999602497,195.68352920003235,None,ScrollDown,정답입니다,195.68352920003235,None,195.68352920003235,None,195.68352920003235,None,195.68352920003235,None,196.80797950003762,None,196.80797950003762,197.30794090009294,,,,,,,,,,,,,,,,210,2023-04-05_15h18.45.158,FishGame,2022.1.1,60.039469940543945,
,34,넌 기회주의자야,5,Green,A,2.875,2.133333333333333,ScrollDown,ScrollUp,Green.png,1,Negative,Incongruent,,,,,0,0,0,0,,,,,,,,,,,,,0,33,33,33,,,,,,,,,,,,,,,,,,,,,,,,,,,,,,,,,,,,,,,,,,,,,,,,,,,,,,,,,,,,,,,,,,,,,,,,,,,,,,,,,1,0.9816129999235272,197.93503140006214,None,ScrollDown,정답입니다,197.93503140006214,None,197.93503140006214,None,197.93503140006214,None,197.93503140006214,None,198.80779210000765,None,198.80779210000765,199.30779620003887,,,,,,,,,,,,,,,,210,2023-04-05_15h18.45.158,FishGame,2022.1.1,60.039469940543945,
,1,넌 미성숙해,4,Green,A,3,3.2,ScrollDown,ScrollUp,Green.png,2,Negative,Incongruent,,,,,0,0,0,0,,,,,,,,,,,,,,,,,0,0,0,0,,,,,,,,,,,,,,,,,,,,,,,,,,,,,,,,,,,,231.55730540002696,233.05734380008653,233.0906505000312,234.0383541000774,234.09064680000301,235.04067660006694,235.04067660006694,None,,,,,,,,,,,,,,,,,,,,,,,,,,,,,,,,,,1,1.1041793000185862,236.14767209999263,None,ScrollDown,정답입니다,236.14767209999263,None,236.14767209999263,None,236.14767209999263,None,236.14767209999263,None,237.13809810008388,None,237.13809810008388,237.63807390001602,199.8078155000694,None,199.8078155000694,None,0.03425926,-0.096296296,1,0,0,0.01609233010094613,None,229.80711040005554,None,,,210,2023-04-05_15h18.45.158,FishGame,2022.1.1,60.039469940543945,
,2,넌 반사회적이야,5,Orange,B,2.416666666666667,2.033333333333333,ScrollUp,ScrollDown,Orange.png,2,Negative,Congruent,,,,,0,0,0,0,,,,,,,,,,,,,,,,,0,1,1,1,,,,,,,,,,,,,,,,,,,,,,,,,,,,,,,,,,,,,,,,,,,,,,,,,,,,,,,,,,,,,,,,,,,,,,,,,,,,,2,0.999732399941422,238.26670150004793,None,ScrollUp,정답입니다,238.26670150004793,None,238.26670150004793,None,238.26670150004793,None,238.26670150004793,None,239.15727030008566,None,239.15727030008566,239.65715770004317,,,,,,,,,,,,,,,,210,2023-04-05_15h18.45.158,FishGame,2022.1.1,60.039469940543945,
,3,넌 유능해,2,Green,A,6.208333333333333,4.433333333333334,ScrollDown,ScrollUp,Green.png,2,Positive,Congruent,,,,,0,0,0,0,,,,,,,,,,,,,,,,,0,2,2,2,,,,,,,,,,,,,,,,,,,,,,,,,,,,,,,,,,,,,,,,,,,,,,,,,,,,,,,,,,,,,,,,,,,,,,,,,,,,,1,0.8982602000469342,240.2829977000365,None,ScrollDown,정답입니다,240.2829977000365,None,240.2829977000365,None,240.2829977000365,None,240.2829977000365,None,241.07386890007183,None,241.07386890007183,241.57682760001626,,,,,,,,,,,,,,,,210,2023-04-05_15h18.45.158,FishGame,2022.1.1,60.039469940543945,
,4,넌 능숙해,2,Orange,B,5.666666666666667,4.733333333333333,ScrollUp,ScrollDown,Orange.png,2,Positive,Incongruent,,,,,0,0,0,0,,,,,,,,,,,,,,,,,0,3,3,3,,,,,,,,,,,,,,,,,,,,,,,,,,,,,,,,,,,,,,,,,,,,,,,,,,,,,,,,,,,,,,,,,,,,,,,,,,,,,2,0.9815423999680206,242.19848070002627,None,ScrollUp,정답입니다,242.19848070002627,None,242.19848070002627,None,242.19848070002627,None,242.19848070002627,None,243.07364910002798,None,243.07364910002798,243.5736361000454,,,,,,,,,,,,,,,,210,2023-04-05_15h18.45.158,FishGame,2022.1.1,60.039469940543945,
,5,넌 진부해,4,Orange,B,2.458333333333333,3.166666666666667,ScrollUp,ScrollDown,Orange.png,2,Negative,Congruent,,,,,0,0,0,0,,,,,,,,,,,,,,,,,0,4,4,4,,,,,,,,,,,,,,,,,,,,,,,,,,,,,,,,,,,,,,,,,,,,,,,,,,,,,,,,,,,,,,,,,,,,,,,,,,,,,2,1.0460768999764696,244.20166430005338,None,ScrollUp,정답입니다,244.20166430005338,None,244.20166430005338,None,244.20166430005338,None,244.20166430005338,None,245.13793590001296,None,245.13793590001296,245.63791530008893,,,,,,,,,,,,,,,,210,2023-04-05_15h18.45.158,FishGame,2022.1.1,60.039469940543945,
,6,나를 보내줘,6,Green,A,0,0,ScrollUp,ScrollDown,Green.png,2,NonTarget,NonTarget,,,,,0,0,0,0,,,,,,,,,,,,,,,,,0,5,5,5,,,,,,,,,,,,,,,,,,,,,,,,,,,,,,,,,,,,,,,,,,,,,,,,,,,,,,,,,,,,,,,,,,,,,,,,,,,,,2,1.3837343000341207,246.26024810003582,None,ScrollUp,정답입니다,246.26024810003582,None,246.26024810003582,None,246.26024810003582,None,246.26024810003582,None,247.5404206000967,None,247.5404206000967,248.0402991999872,,,,,,,,,,,,,,,,210,2023-04-05_15h18.45.158,FishGame,2022.1.1,60.039469940543945,
,7,넌 엄격해,3,Green,A,4.166666666666666,4.1,ScrollDown,ScrollUp,Green.png,2,Neutral,Neutral,,,,,0,0,0,0,,,,,,,,,,,,,,,,,0,6,6,6,,,,,,,,,,,,,,,,,,,,,,,,,,,,,,,,,,,,,,,,,,,,,,,,,,,,,,,,,,,,,,,,,,,,,,,,,,,,,1,0.9123594999546185,248.6668732999824,None,ScrollDown,정답입니다,248.6668732999824,None,248.6668732999824,None,248.6668732999824,None,248.6668732999824,None,249.47117979999166,None,249.47117979999166,249.97114949999377,,,,,,,,,,,,,,,,210,2023-04-05_15h18.45.158,FishGame,2022.1.1,60.039469940543945,
,8,나를 보내줘,6,Green,A,0,0,ScrollUp,ScrollDown,Green.png,2,NonTarget,NonTarget,,,,,0,0,0,0,,,,,,,,,,,,,,,,,0,7,7,7,,,,,,,,,,,,,,,,,,,,,,,,,,,,,,,,,,,,,,,,,,,,,,,,,,,,,,,,,,,,,,,,,,,,,,,,,,,,,1.878086417913437,1.2840661000227556,250.5909185000928,None,ScrollUp,정답입니다,250.5909185000928,None,250.5909185000928,None,250.5909185000928,None,250.5909185000928,None,251.77367100003175,None,251.77367100003175,252.27354070008732,,,,,,,,,,,,,,,,210,2023-04-05_15h18.45.158,FishGame,2022.1.1,60.039469940543945,
,9,넌 대담해,3,Orange,B,4.875,4.866666666666666,ScrollUp,ScrollDown,Orange.png,2,Neutral,Neutral,,,,,0,0,0,0,,,,,,,,,,,,,,,,,0,8,8,8,,,,,,,,,,,,,,,,,,,,,,,,,,,,,,,,,,,,,,,,,,,,,,,,,,,,,,,,,,,,,,,,,,,,,,,,,,,,,1.7361111094554267,1.045576100004837,252.90224329999182,None,ScrollUp,정답입니다,252.90224329999182,None,252.90224329999182,None,252.90224329999182,None,252.90224329999182,None,253.8400786999846,None,253.8400786999846,254.34005140000954,,,,,,,,,,,,,,,,210,2023-04-05_15h18.45.158,FishGame,2022.1.1,60.039469940543945,
,10,넌 꾸준해,1,Green,A,5.916666666666668,5.8,ScrollDown,ScrollUp,Green.png,2,Positive,Congruent,,,,,0,0,0,0,,,,,,,,,,,,,,,,,0,9,9,9,,,,,,,,,,,,,,,,,,,,,,,,,,,,,,,,,,,,,,,,,,,,,,,,,,,,,,,,,,,,,,,,,,,,,,,,,,,,,1.1496913582086563,0.8650173000060022,254.9655017000623,None,ScrollDown,정답입니다,254.9655017000623,None,254.9655017000623,None,254.9655017000623,None,254.9655017000623,None,255.72349700005725,None,255.72349700005725,256.22339870000724,,,,,,,,,,,,,,,,210,2023-04-05_15h18.45.158,FishGame,2022.1.1,60.039469940543945,
,11,나를 데려가줘,6,Orange,B,0,0,ScrollDown,ScrollUp,Orange.png,2,NonTarget,NonTarget,,,,,0,0,0,0,,,,,,,,,,,,,,,,,0,10,10,10,,,,,,,,,,,,,,,,,,,,,,,,,,,,,,,,,,,,,,,,,,,,,,,,,,,,,,,,,,,,,,,,,,,,,,,,,,,,,1,1.0454467999516055,256.85133179998957,None,ScrollDown,정답입니다,256.85133179998957,None,256.85133179998957,None,256.85133179998957,None,256.85133179998957,None,257.7900330000557,None,257.7900330000557,258.2899735000683,,,,,,,,,,,,,,,,210,2023-04-05_15h18.45.158,FishGame,2022.1.1,60.039469940543945,
,12,넌 독선적이야,5,Green,A,2.458333333333333,1.933333333333333,ScrollDown,ScrollUp,Green.png,2,Negative,Incongruent,,,,,0,0,0,0,,,,,,,,,,,,,,,,,0,11,11,11,,,,,,,,,,,,,,,,,,,,,,,,,,,,,,,,,,,,,,,,,,,,,,,,,,,,,,,,,,,,,,,,,,,,,,,,,,,,,1,0.9791350999148563,258.92079870007,None,ScrollDown,정답입니다,258.92079870007,None,258.92079870007,None,258.92079870007,None,258.92079870007,None,259.78762230009306,None,259.78762230009306,260.2876797000645,,,,,,,,,,,,,,,,210,2023-04-05_15h18.45.158,FishGame,2022.1.1,60.039469940543945,
,13,나를 보내줘,6,Green,A,0,0,ScrollUp,ScrollDown,Green.png,2,NonTarget,NonTarget,,,,,0,0,0,0,,,,,,,,,,,,,,,,,0,12,12,12,,,,,,,,,,,,,,,,,,,,,,,,,,,,,,,,,,,,,,,,,,,,,,,,,,,,,,,,,,,,,,,,,,,,,,,,,,,,,1.8888888905445735,1.0001782999606803,260.90819990006275,None,ScrollUp,정답입니다,260.90819990006275,None,260.90819990006275,None,260.90819990006275,None,260.90819990006275,None,261.80678250000346,None,261.80678250000346,262.3066945000319,,,,,,,,,,,,,,,,210,2023-04-05_15h18.45.158,FishGame,2022.1.1,60.039469940543945,
,14,넌 책임감있어,1,Orange,B,6.347826086956522,6,ScrollUp,ScrollDown,Orange.png,2,Positive,Incongruent,,,,,0,0,0,0,,,,,,,,,,,,,,,,,0,13,13,13,,,,,,,,,,,,,,,,,,,,,,,,,,,,,,,,,,,,,,,,,,,,,,,,,,,,,,,,,,,,,,,,,,,,,,,,,,,,,2,1.5981446000514552,262.93546270008665,None,ScrollUp,정답입니다,262.93546270008665,None,262.93546270008665,None,262.93546270008665,None,262.93546270008665,None,264.42114630003925,None,264.42114630003925,264.9231549000833,,,,,,,,,,,,,,,,210,2023-04-05_15h18.45.158,FishGame,2022.1.1,60.039469940543945,
,15,넌 문학적이야,3,Green,A,4.708333333333334,4.333333333333333,ScrollDown,ScrollUp,Green.png,2,Neutral,Neutral,,,,,0,0,0,0,,,,,,,,,,,,,,,,,0,14,14,14,,,,,,,,,,,,,,,,,,,,,,,,,,,,,,,,,,,,,,,,,,,,,,,,,,,,,,,,,,,,,,,,,,,,,,,,,,,,,1,1.1816487999167293,265.54903760005254,None,ScrollDown,정답입니다,265.54903760005254,None,265.54903760005254,None,265.54903760005254,None,265.54903760005254,None,266.6232370000798,None,266.6232370000798,267.1231727000559,,,,,,,,,,,,,,,,210,2023-04-05_15h18.45.158,FishGame,2022.1.1,60.039469940543945,
,16,넌 재미있어,1,Orange,B,5.875,5.7,ScrollUp,ScrollDown,Orange.png,2,Positive,Incongruent,,,,,0,0,0,0,,,,,,,,,,,,,,,,,0,15,15,15,,,,,,,,,,,,,,,,,,,,,,,,,,,,,,,,,,,,,,,,,,,,,,,,,,,,,,,,,,,,,,,,,,,,,,,,,,,,,1.8333333383003871,1.176670900080353,267.7507263000589,None,ScrollUp,정답입니다,267.7507263000589,None,267.7507263000589,None,267.7507263000589,None,267.7507263000589,None,268.8210594999837,None,268.8210594999837,269.32301430008374,,,,,,,,,,,,,,,,210,2023-04-05_15h18.45.158,FishGame,2022.1.1,60.039469940543945,
,17,나를 데려가줘,6,Orange,B,0,0,ScrollDown,ScrollUp,Orange.png,2,NonTarget,NonTarget,,,,,0,0,0,0,,,,,,,,,,,,,,,,,0,16,16,16,,,,,,,,,,,,,,,,,,,,,,,,,,,,,,,,,,,,,,,,,,,,,,,,,,,,,,,,,,,,,,,,,,,,,,,,,,,,,1,1.365011600079015,269.9479239000939,None,ScrollDown,정답입니다,269.9479239000939,None,269.9479239000939,None,269.9479239000939,None,269.9479239000939,None,271.2044417000143,None,271.2044417000143,271.7062810000498,,,,,,,,,,,,,,,,210,2023-04-05_15h18.45.158,FishGame,2022.1.1,60.039469940543945,
,18,넌 협력적이야,1,Green,A,5.625,5.633333333333334,ScrollDown,ScrollUp,Green.png,2,Positive,Congruent,,,,,0,0,0,0,,,,,,,,,,,,,,,,,0,17,17,17,,,,,,,,,,,,,,,,,,,,,,,,,,,,,,,,,,,,,,,,,,,,,,,,,,,,,,,,,,,,,,,,,,,,,,,,,,,,,1,0.8961035999236628,272.33339130005334,None,ScrollDown,정답입니다,272.33339130005334,None,272.33339130005334,None,272.33339130005334,None,272.33339130005334,None,273.1209030000027,None,273.1209030000027,273.622928100056,,,,,,,,,,,,,,,,210,2023-04-05_15h18.45.158,FishGame,2022.1.1,60.039469940543945,
,19,넌 평범해,3,Orange,B,4.333333333333332,4.233333333333333,ScrollUp,ScrollDown,Orange.png,2,Neutral,Neutral,,,,,0,0,0,0,,,,,,,,,,,,,,,,,0,18,18,18,,,,,,,,,,,,,,,,,,,,,,,,,,,,,,,,,,,,,,,,,,,,,,,,,,,,,,,,,,,,,,,,,,,,,,,,,,,,,1.7762345721324284,0.9817520000506192,274.25082730001304,None,ScrollUp,정답입니다,274.25082730001304,None,274.25082730001304,None,274.25082730001304,None,274.25082730001304,None,275.12311350007076,None,275.12311350007076,275.62297040002886,,,,,,,,,,,,,,,,210,2023-04-05_15h18.45.158,FishGame,2022.1.1,60.039469940543945,
,20,넌 오만해,5,Green,A,2.333333333333333,2,ScrollDown,ScrollUp,Green.png,2,Negative,Incongruent,,,,,0,0,0,0,,,,,,,,,,,,,,,,,0,19,19,19,,,,,,,,,,,,,,,,,,,,,,,,,,,,,,,,,,,,,,,,,,,,,,,,,,,,,,,,,,,,,,,,,,,,,,,,,,,,,1,0.8650576999643818,276.26466049999,None,ScrollDown,정답입니다,276.26466049999,None,276.26466049999,None,276.26466049999,None,276.26466049999,None,277.02083280007355,None,277.02083280007355,277.5228710999945,,,,,,,,,,,,,,,,210,2023-04-05_15h18.45.158,FishGame,2022.1.1,60.039469940543945,
,21,넌 운이없어,4,Orange,B,3,3.466666666666667,ScrollUp,ScrollDown,Orange.png,2,Negative,Congruent,,,,,0,0,0,0,,,,,,,,,,,,,,,,,0,20,20,20,,,,,,,,,,,,,,,,,,,,,,,,,,,,,,,,,,,,,,,,,,,,,,,,,,,,,,,,,,,,,,,,,,,,,,,,,,,,,1.8117283930381138,1.0628326999722049,278.14944150007796,None,ScrollUp,정답입니다,278.14944150007796,None,278.14944150007796,None,278.14944150007796,None,278.14944150007796,None,279.10620390006807,None,279.10620390006807,279.60615240002517,,,,,,,,,,,,,,,,210,2023-04-05_15h18.45.158,FishGame,2022.1.1,60.039469940543945,
,22,넌 창조적이야,2,Orange,B,6.125,4.633333333333334,ScrollUp,ScrollDown,Orange.png,2,Positive,Incongruent,,,,,0,0,0,0,,,,,,,,,,,,,,,,,0,21,21,21,,,,,,,,,,,,,,,,,,,,,,,,,,,,,,,,,,,,,,,,,,,,,,,,,,,,,,,,,,,,,,,,,,,,,,,,,,,,,1.837962955236435,0.8984532000031322,280.2347776000388,None,ScrollUp,정답입니다,280.2347776000388,None,280.2347776000388,None,280.2347776000388,None,280.2347776000388,None,281.02290700003505,None,281.02290700003505,281.52281800005585,,,,,,,,,,,,,,,,210,2023-04-05_15h18.45.158,FishGame,2022.1.1,60.039469940543945,
,23,나를 보내줘,6,Green,A,0,0,ScrollUp,ScrollDown,Green.png,2,NonTarget,NonTarget,,,,,0,0,0,0,,,,,,,,,,,,,,,,,0,22,22,22,,,,,,,,,,,,,,,,,,,,,,,,,,,,,,,,,,,,,,,,,,,,,,,,,,,,,,,,,,,,,,,,,,,,,,,,,,,,,1.9799382885297139,1.095319400075823,282.15206840005703,None,ScrollUp,정답입니다,282.15206840005703,None,282.15206840005703,None,282.15206840005703,None,282.15206840005703,None,283.13711810007226,None,283.13711810007226,283.6378551000962,,,,,,,,,,,,,,,,210,2023-04-05_15h18.45.158,FishGame,2022.1.1,60.039469940543945,
,24,넌 통찰력있어,2,Green,A,6.5,4.8,ScrollDown,ScrollUp,Green.png,2,Positive,Congruent,,,,,0,0,0,0,,,,,,,,,,,,,,,,,0,23,23,23,,,,,,,,,,,,,,,,,,,,,,,,,,,,,,,,,,,,,,,,,,,,,,,,,,,,,,,,,,,,,,,,,,,,,,,,,,,,,1,1.4312407999532297,284.2693341000704,None,ScrollDown,정답입니다,284.2693341000704,None,284.2693341000704,None,284.2693341000704,None,284.2693341000704,None,285.58961670007557,None,285.58961670007557,286.08959530002903,,,,,,,,,,,,,,,,210,2023-04-05_15h18.45.158,FishGame,2022.1.1,60.039469940543945,
,25,넌 경솔해,5,Orange,B,2.458333333333333,2.266666666666667,ScrollUp,ScrollDown,Orange.png,2,Negative,Congruent,,,,,0,0,0,0,,,,,,,,,,,,,,,,,0,24,24,24,,,,,,,,,,,,,,,,,,,,,,,,,,,,,,,,,,,,,,,,,,,,,,,,,,,,,,,,,,,,,,,,,,,,,,,,,,,,,1.679012343287468,0.9791999999433756,286.7166034000693,None,ScrollUp,정답입니다,286.7166034000693,None,286.7166034000693,None,286.7166034000693,None,286.7166034000693,None,287.5893829000415,None,287.5893829000415,288.08933550002985,,,,,,,,,,,,,,,,210,2023-04-05_15h18.45.158,FishGame,2022.1.1,60.039469940543945,
,26,넌 초조해,4,Green,A,2.916666666666667,3.133333333333333,ScrollDown,ScrollUp,Green.png,2,Negative,Incongruent,,,,,0,0,0,0,,,,,,,,,,,,,,,,,0,25,25,25,,,,,,,,,,,,,,,,,,,,,,,,,,,,,,,,,,,,,,,,,,,,,,,,,,,,,,,,,,,,,,,,,,,,,,,,,,,,,1.0046296219031017,1.3460838999599218,288.71364810003433,None,ScrollDown,정답입니다,288.71364810003433,None,288.71364810003433,None,288.71364810003433,None,288.71364810003433,None,289.9536663000472,None,289.9536663000472,290.45366510003805,,,,,,,,,,,,,,,,210,2023-04-05_15h18.45.158,FishGame,2022.1.1,60.039469940543945,
,27,넌 무관심해,4,Orange,B,2.833333333333333,2.9,ScrollUp,ScrollDown,Orange.png,2,Negative,Congruent,,,,,0,0,0,0,,,,,,,,,,,,,,,,,0,26,26,26,,,,,,,,,,,,,,,,,,,,,,,,,,,,,,,,,,,,,,,,,,,,,,,,,,,,,,,,,,,,,,,,,,,,,,,,,,,,,1.723765422900518,0.8982723000226542,291.08342979999725,None,ScrollUp,정답입니다,291.08342979999725,None,291.08342979999725,None,291.08342979999725,None,291.08342979999725,None,291.8727613000665,None,291.8727613000665,292.3726991000585,,,,,,,,,,,,,,,,210,2023-04-05_15h18.45.158,FishGame,2022.1.1,60.039469940543945,
,28,넌 감성적이야,3,Orange,B,4.125,4.166666666666667,ScrollUp,ScrollDown,Orange.png,2,Neutral,Neutral,,,,,0,0,0,0,,,,,,,,,,,,,,,,,0,27,27,27,,,,,,,,,,,,,,,,,,,,,,,,,,,,,,,,,,,,,,,,,,,,,,,,,,,,,,,,,,,,,,,,,,,,,,,,,,,,,1.6959876591960588,0.9313113000243902,292.9974557000678,None,ScrollUp,정답입니다,292.9974557000678,None,292.9974557000678,None,292.9974557000678,None,292.9974557000678,None,293.82259430002887,None,293.82259430002887,294.3225510000484,,,,,,,,,,,,,,,,210,2023-04-05_15h18.45.158,FishGame,2022.1.1,60.039469940543945,
,29,넌 배려심있어,1,Green,A,6.083333333333333,5.5,ScrollDown,ScrollUp,Green.png,2,Positive,Congruent,,,,,0,0,0,0,,,,,,,,,,,,,,,,,0,28,28,28,,,,,,,,,,,,,,,,,,,,,,,,,,,,,,,,,,,,,,,,,,,,,,,,,,,,,,,,,,,,,,,,,,,,,,,,,,,,,1.0787036915620167,0.8649770000483841,294.94706580007914,None,ScrollDown,정답입니다,294.94706580007914,None,294.94706580007914,None,294.94706580007914,None,294.94706580007914,None,295.705895000021,None,295.705895000021,296.20593340008054,,,,,,,,,,,,,,,,210,2023-04-05_15h18.45.158,FishGame,2022.1.1,60.039469940543945,
,30,넌 숨김없어,3,Green,A,4.5,4.933333333333334,ScrollDown,ScrollUp,Green.png,2,Neutral,Neutral,,,,,0,0,0,0,,,,,,,,,,,,,,,,,0,29,29,29,,,,,,,,,,,,,,,,,,,,,,,,,,,,,,,,,,,,,,,,,,,,,,,,,,,,,,,,,,,,,,,,,,,,,,,,,,,,,1.0848765472571056,0.8963127000024542,296.8317618999863,None,ScrollDown,정답입니다,296.8317618999863,None,296.8317618999863,None,296.8317618999863,None,296.8317618999863,None,297.62246640003286,None,297.62246640003286,298.12243200000376,,,,,,,,,,,,,,,,210,2023-04-05_15h18.45.158,FishGame,2022.1.1,60.039469940543945,
,31,넌 훌륭해,2,Orange,B,5.916666666666667,4.033333333333333,ScrollUp,ScrollDown,Orange.png,2,Positive,Incongruent,,,,,0,0,0,0,,,,,,,,,,,,,,,,,0,30,30,30,,,,,,,,,,,,,,,,,,,,,,,,,,,,,,,,,,,,,,,,,,,,,,,,,,,,,,,,,,,,,,,,,,,,,,,,,,,,,1.7685185273488362,0.931660300004296,298.7527759000659,None,ScrollUp,정답입니다,298.7527759000659,None,298.7527759000659,None,298.7527759000659,None,298.7527759000659,None,299.57243470009416,None,299.57243470009416,300.0724663999863,,,,,,,,,,,,,,,,210,2023-04-05_15h18.45.158,FishGame,2022.1.1,60.039469940543945,
,32,넌 슬기로워,2,Green,A,6.166666666666667,4.1,ScrollDown,ScrollUp,Green.png,2,Positive,Congruent,,,,,0,0,0,0,,,,,,,,,,,,,,,,,0,31,31,31,,,,,,,,,,,,,,,,,,,,,,,,,,,,,,,,,,,,,,,,,,,,,,,,,,,,,,,,,,,,,,,,,,,,,,,,,,,,,1.2314814726511638,0.7911543000955135,300.69671930000186,None,ScrollDown,정답입니다,300.69671930000186,None,300.69671930000186,None,300.69671930000186,None,300.69671930000186,None,301.3822813000297,None,301.3822813000297,301.8867420000024,,,,,,,,,,,,,,,,210,2023-04-05_15h18.45.158,FishGame,2022.1.1,60.039469940543945,
,33,넌 냉혹해,5,Green,A,2.583333333333333,2.1,ScrollDown,ScrollUp,Green.png,2,Negative,Incongruent,,,,,0,0,0,0,,,,,,,,,,,,,,,,,0,32,32,32,,,,,,,,,,,,,,,,,,,,,,,,,,,,,,,,,,,,,,,,,,,,,,,,,,,,,,,,,,,,,,,,,,,,,,,,,,,,,1,1.280982599942945,302.5113869000925,None,ScrollDown,정답입니다,302.5113869000925,None,302.5113869000925,None,302.5113869000925,None,302.5113869000925,None,303.68679360009264,None,303.68679360009264,304.18923570006154,,,,,,,,,,,,,,,,210,2023-04-05_15h18.45.158,FishGame,2022.1.1,60.039469940543945,
,34,나를 데려가줘,6,Orange,B,0,0,ScrollDown,ScrollUp,Orange.png,2,NonTarget,NonTarget,,,,,0,0,0,0,,,,,,,,,,,,,,,,,0,33,33,33,,,,,,,,,,,,,,,,,,,,,,,,,,,,,,,,,,,,,,,,,,,,,,,,,,,,,,,,,,,,,,,,,,,,,,,,,,,,,1,1.1315462000202388,304.8143343999982,None,ScrollDown,정답입니다,304.8143343999982,None,304.8143343999982,None,304.8143343999982,None,304.8143343999982,None,305.83921650005504,None,305.83921650005504,306.33917100005783,,,,,,,,,,,,,,,,210,2023-04-05_15h18.45.158,FishGame,2022.1.1,60.039469940543945,
,35,넌 편파적이야,5,Orange,B,2.125,2,ScrollUp,ScrollDown,Orange.png,2,Negative,Congruent,,,,,0,0,0,0,,,,,,,,,,,,,,,,,0,34,34,34,,,,,,,,,,,,,,,,,,,,,,,,,,,,,,,,,,,,,,,,,,,,,,,,,,,,,,,,,,,,,,,,,,,,,,,,,,,,,1.9567901293436687,0.9451953999232501,306.9757892000489,None,ScrollUp,정답입니다,306.9757892000489,None,306.9757892000489,None,306.9757892000489,None,306.9757892000489,None,307.8056841000216,None,307.8056841000216,308.3055809000507,,,,,,,,,,,,,,,,210,2023-04-05_15h18.45.158,FishGame,2022.1.1,60.039469940543945,
,36,넌 슬퍼,4,Green,A,2.583333333333333,3.066666666666667,ScrollDown,ScrollUp,Green.png,2,Negative,Incongruent,,,,,0,0,0,0,,,,,,,,,,,,,,,,,0,35,35,35,,,,,,,,,,,,,,,,,,,,,,,,,,,,,,,,,,,,,,,,,,,,,,,,,,,,,,,,,,,,,,,,,,,,,,,,,,,,,1,0.8125761999981478,308.9292629000265,None,ScrollDown,정답입니다,308.9292629000265,None,308.9292629000265,None,308.9292629000265,None,308.9292629000265,None,309.6365902000107,None,309.6365902000107,310.136557299993,,,,,,,,,,,,,,,,210,2023-04-05_15h18.45.158,FishGame,2022.1.1,60.039469940543945,
,37,나를 데려가줘,6,Orange,B,0,0,ScrollDown,ScrollUp,Orange.png,2,NonTarget,NonTarget,,,,,0,0,0,0,,,,,,,,,,,,,,,,,0,36,36,36,,,,,,,,,,,,,,,,,,,,,,,,,,,,,,,,,,,,,,,,,,,,,,,,,,,,,,,,,,,,,,,,,,,,,,,,,,,,,1.0370370149612427,0.9648440000601113,310.7597010000609,None,ScrollDown,정답입니다,310.7597010000609,None,310.7597010000609,None,310.7597010000609,None,310.7597010000609,None,311.6223549999995,None,311.6223549999995,312.1222609000979,,,,,,,,,,,,,,,,210,2023-04-05_15h18.45.158,FishGame,2022.1.1,60.039469940543945,
,38,넌 친절해,1,Orange,B,6.041666666666667,5.533333333333333,ScrollUp,ScrollDown,Orange.png,2,Positive,Incongruent,,,,,0,0,0,0,,,,,,,,,,,,,,,,,0,37,37,37,,,,,,,,,,,,,,,,,,,,,,,,,,,,,,,,,,,,,,,,,,,,,,,,,,,,,,,,,,,,,,,,,,,,,,,,,,,,,1.663580241302649,1.2815011000493541,312.75090199999977,None,ScrollUp,정답입니다,312.75090199999977,None,312.75090199999977,None,312.75090199999977,None,312.75090199999977,None,313.92231530009303,None,313.92231530009303,314.4387727000285,,,,,,,,,,,,,,,,210,2023-04-05_15h18.45.158,FishGame,2022.1.1,60.039469940543945,
,1,넌 엉성해,4,Green,A,3,3.3,ScrollDown,ScrollUp,Green.png,3,Negative,Incongruent,,,,,0,0,0,0,,,,,,,,,,,,,,,,,,,,,0,0,0,0,,,,,,,,,,,,,,,,,,,,,,,,,,,,,,,,346.30487570003606,347.80495780007914,347.8383066999959,348.7913003000431,348.82470680004917,349.78825390001293,349.78825390001293,None,,,,,,,,,,,,,,,,,,,,,,,,,,,,,,,,,,1,1.0399795999983326,350.90491280006245,None,ScrollDown,정답입니다,350.90491280006245,None,350.90491280006245,None,350.90491280006245,None,350.90491280006245,None,351.82142080005724,None,351.82142080005724,352.32132610003464,314.9221118000569,None,314.9221118000569,None,0.0712963,-0.10555556,1,0,0,0.016232230002060533,None,344.921392200049,None,,,210,2023-04-05_15h18.45.158,FishGame,2022.1.1,60.039469940543945,
,2,나를 보내줘,6,Green,A,0,0,ScrollUp,ScrollDown,Green.png,3,NonTarget,NonTarget,,,,,0,0,0,0,,,,,,,,,,,,,,,,,,,,,0,1,1,1,,,,,,,,,,,,,,,,,,,,,,,,,,,,,,,,,,,,,,,,,,,,,,,,,,,,,,,,,,,,,,,,,,,,,,,,,1.9969135920206706,1.063011199934408,352.94343690003734,None,ScrollUp,정답입니다,352.94343690003734,None,352.94343690003734,None,352.94343690003734,None,352.94343690003734,None,353.90457700006664,None,353.90457700006664,354.4046110000927,,,,,,,,,,,,,,,,210,2023-04-05_15h18.45.158,FishGame,2022.1.1,60.039469940543945,
,3,넌 활발해,1,Orange,B,5.666666666666667,5.6,ScrollUp,ScrollDown,Orange.png,3,Positive,Incongruent,,,,,0,0,0,0,,,,,,,,,,,,,,,,,,,,,0,2,2,2,,,,,,,,,,,,,,,,,,,,,,,,,,,,,,,,,,,,,,,,,,,,,,,,,,,,,,,,,,,,,,,,,,,,,,,,,2,1.1295492999488488,355.03236140008084,None,ScrollUp,정답입니다,355.03236140008084,None,355.03236140008084,None,355.03236140008084,None,355.03236140008084,None,356.0526211000979,None,356.0526211000979,356.55461049999576,,,,,,,,,,,,,,,,210,2023-04-05_15h18.45.158,FishGame,2022.1.1,60.039469940543945,
,4,넌 논리적이야,2,Green,A,5.666666666666666,4.633333333333334,ScrollDown,ScrollUp,Green.png,3,Positive,Congruent,,,,,0,0,0,0,,,,,,,,,,,,,,,,,,,,,0,3,3,3,,,,,,,,,,,,,,,,,,,,,,,,,,,,,,,,,,,,,,,,,,,,,,,,,,,,,,,,,,,,,,,,,,,,,,,,,1,0.8794051000149921,357.18040170008317,None,ScrollDown,정답입니다,357.18040170008317,None,357.18040170008317,None,357.18040170008317,None,357.18040170008317,None,357.9522440000437,None,357.9522440000437,358.45223410008475,,,,,,,,,,,,,,,,210,2023-04-05_15h18.45.158,FishGame,2022.1.1,60.039469940543945,
,5,넌 과묵해,3,Green,A,3.875,4.4,ScrollDown,ScrollUp,Green.png,3,Neutral,Neutral,,,,,0,0,0,0,,,,,,,,,,,,,,,,,,,,,0,4,4,4,,,,,,,,,,,,,,,,,,,,,,,,,,,,,,,,,,,,,,,,,,,,,,,,,,,,,,,,,,,,,,,,,,,,,,,,,1.0123456915219624,0.8314231999684125,359.07501350005623,None,ScrollDown,정답입니다,359.07501350005623,None,359.07501350005623,None,359.07501350005623,None,359.07501350005623,None,359.8022614000365,None,359.8022614000365,360.30223999999,,,,,,,,,,,,,,,,210,2023-04-05_15h18.45.158,FishGame,2022.1.1,60.039469940543945,
,6,나를 데려가줘,6,Orange,B,0,0,ScrollDown,ScrollUp,Orange.png,3,NonTarget,NonTarget,,,,,0,0,0,0,,,,,,,,,,,,,,,,,,,,,0,5,5,5,,,,,,,,,,,,,,,,,,,,,,,,,,,,,,,,,,,,,,,,,,,,,,,,,,,,,,,,,,,,,,,,,,,,,,,,,1,1.0817885999567807,360.92993630003184,None,ScrollDown,정답입니다,360.92993630003184,None,360.92993630003184,None,360.92993630003184,None,360.92993630003184,None,361.90468490007333,None,361.90468490007333,362.4080735000316,,,,,,,,,,,,,,,,210,2023-04-05_15h18.45.158,FishGame,2022.1.1,60.039469940543945,
,7,넌 미숙해,4,Orange,B,3,3,ScrollUp,ScrollDown,Orange.png,3,Negative,Congruent,,,,,0,0,0,0,,,,,,,,,,,,,,,,,,,,,0,6,6,6,,,,,,,,,,,,,,,,,,,,,,,,,,,,,,,,,,,,,,,,,,,,,,,,,,,,,,,,,,,,,,,,,,,,,,,,,1.8024691343307495,0.863335800007917,363.031468900037,None,ScrollUp,정답입니다,363.031468900037,None,363.031468900037,None,363.031468900037,None,363.031468900037,None,363.78773610002827,None,363.78773610002827,364.28773430001456,,,,,,,,,,,,,,,,210,2023-04-05_15h18.45.158,FishGame,2022.1.1,60.039469940543945,
,8,나를 보내줘,6,Green,A,0,0,ScrollUp,ScrollDown,Green.png,3,NonTarget,NonTarget,,,,,0,0,0,0,,,,,,,,,,,,,,,,,,,,,0,7,7,7,,,,,,,,,,,,,,,,,,,,,,,,,,,,,,,,,,,,,,,,,,,,,,,,,,,,,,,,,,,,,,,,,,,,,,,,,1.7114197611808777,0.8129590000025928,364.91019750002306,None,ScrollUp,정답입니다,364.91019750002306,None,364.91019750002306,None,364.91019750002306,None,364.91019750002306,None,365.62099319999106,None,365.62099319999106,366.1209897000808,,,,,,,,,,,,,,,,210,2023-04-05_15h18.45.158,FishGame,2022.1.1,60.039469940543945,
,9,넌 자신만만해,3,Orange,B,4.833333333333334,4.333333333333333,ScrollUp,ScrollDown,Orange.png,3,Neutral,Neutral,,,,,0,0,0,0,,,,,,,,,,,,,,,,,,,,,0,8,8,8,,,,,,,,,,,,,,,,,,,,,,,,,,,,,,,,,,,,,,,,,,,,,,,,,,,,,,,,,,,,,,,,,,,,,,,,,1.6682098706563315,0.8129003999056295,366.74501320009585,None,ScrollUp,정답입니다,366.74501320009585,None,366.74501320009585,None,366.74501320009585,None,366.74501320009585,None,367.4544207000872,None,367.4544207000872,367.9543449000921,,,,,,,,,,,,,,,,210,2023-04-05_15h18.45.158,FishGame,2022.1.1,60.039469940543945,
,10,넌 탐욕스러워,5,Green,A,2.25,2.1,ScrollDown,ScrollUp,Green.png,3,Negative,Incongruent,,,,,0,0,0,0,,,,,,,,,,,,,,,,,,,,,0,9,9,9,,,,,,,,,,,,,,,,,,,,,,,,,,,,,,,,,,,,,,,,,,,,,,,,,,,,,,,,,,,,,,,,,,,,,,,,,1.0293209950129192,0.9463179000886157,368.58318170008715,None,ScrollDown,정답입니다,368.58318170008715,None,368.58318170008715,None,368.58318170008715,None,368.58318170008715,None,369.4210223000264,None,369.4210223000264,369.92103890003636,,,,,,,,,,,,,,,,210,2023-04-05_15h18.45.158,FishGame,2022.1.1,60.039469940543945,
,11,넌 인기있어,2,Green,A,5.458333333333333,4.5,ScrollDown,ScrollUp,Green.png,3,Positive,Congruent,,,,,0,0,0,0,,,,,,,,,,,,,,,,,,,,,0,10,10,10,,,,,,,,,,,,,,,,,,,,,,,,,,,,,,,,,,,,,,,,,,,,,,,,,,,,,,,,,,,,,,,,,,,,,,,,,1.194444437821706,0.7928339999634773,370.5518443000037,None,ScrollDown,정답입니다,370.5518443000037,None,370.5518443000037,None,370.5518443000037,None,370.5518443000037,None,371.23532179999165,None,371.23532179999165,371.73529340000823,,,,,,,,,,,,,,,,210,2023-04-05_15h18.45.158,FishGame,2022.1.1,60.039469940543945,
,12,나를 데려가줘,6,Orange,B,0,0,ScrollDown,ScrollUp,Orange.png,3,NonTarget,NonTarget,,,,,0,0,0,0,,,,,,,,,,,,,,,,,,,,,0,11,11,11,,,,,,,,,,,,,,,,,,,,,,,,,,,,,,,,,,,,,,,,,,,,,,,,,,,,,,,,,,,,,,,,,,,,,,,,,1.0293209950129192,0.9614663000684232,372.3635980000254,None,ScrollDown,정답입니다,372.3635980000254,None,372.3635980000254,None,372.3635980000254,None,372.3635980000254,None,373.2186434000032,None,373.2186434000032,373.7210353000555,,,,,,,,,,,,,,,,210,2023-04-05_15h18.45.158,FishGame,2022.1.1,60.039469940543945,
,13,넌 뛰어나,2,Orange,B,6.166666666666667,4,ScrollUp,ScrollDown,Orange.png,3,Positive,Incongruent,,,,,0,0,0,0,,,,,,,,,,,,,,,,,,,,,0,12,12,12,,,,,,,,,,,,,,,,,,,,,,,,,,,,,,,,,,,,,,,,,,,,,,,,,,,,,,,,,,,,,,,,,,,,,,,,,1.825617293516795,0.829970599967055,374.34669580007903,None,ScrollUp,정답입니다,374.34669580007903,None,374.34669580007903,None,374.34669580007903,None,374.34669580007903,None,375.0715761000756,None,375.0715761000756,375.5710960000288,,,,,,,,,,,,,,,,210,2023-04-05_15h18.45.158,FishGame,2022.1.1,60.039469940543945,
,14,넌 낙관적이야,1,Green,A,5.75,5.8,ScrollDown,ScrollUp,Green.png,3,Positive,Congruent,,,,,0,0,0,0,,,,,,,,,,,,,,,,,,,,,0,13,13,13,,,,,,,,,,,,,,,,,,,,,,,,,,,,,,,,,,,,,,,,,,,,,,,,,,,,,,,,,,,,,,,,,,,,,,,,,1,0.8981774999992922,376.1939491000958,None,ScrollDown,정답입니다,376.1939491000958,None,376.1939491000958,None,376.1939491000958,None,376.1939491000958,None,376.9875546999974,None,376.9875546999974,377.4875038000755,,,,,,,,,,,,,,,,210,2023-04-05_15h18.45.158,FishGame,2022.1.1,60.039469940543945,
,15,넌 산만해,4,Orange,B,2.695652173913043,3.033333333333333,ScrollUp,ScrollDown,Orange.png,3,Negative,Congruent,,,,,0,0,0,0,,,,,,,,,,,,,,,,,,,,,0,14,14,14,,,,,,,,,,,,,,,,,,,,,,,,,,,,,,,,,,,,,,,,,,,,,,,,,,,,,,,,,,,,,,,,,,,,,,,,,1.817901223897934,0.8794460000935942,378.11695530009456,None,ScrollUp,정답입니다,378.11695530009456,None,378.11695530009456,None,378.11695530009456,None,378.11695530009456,None,378.88747439999133,None,378.88747439999133,379.38741640001535,,,,,,,,,,,,,,,,210,2023-04-05_15h18.45.158,FishGame,2022.1.1,60.039469940543945,
,16,나를 보내줘,6,Green,A,0,0,ScrollUp,ScrollDown,Green.png,3,NonTarget,NonTarget,,,,,0,0,0,0,,,,,,,,,,,,,,,,,,,,,0,15,15,15,,,,,,,,,,,,,,,,,,,,,,,,,,,,,,,,,,,,,,,,,,,,,,,,,,,,,,,,,,,,,,,,,,,,,,,,,1.7808641890684764,0.996280699968338,380.0099416000303,None,ScrollUp,정답입니다,380.0099416000303,None,380.0099416000303,None,380.0099416000303,None,380.0099416000303,None,380.90420490002725,None,380.90420490002725,381.40409209998325,,,,,,,,,,,,,,,,210,2023-04-05_15h18.45.158,FishGame,2022.1.1,60.039469940543945,
,17,넌 교활해,5,Orange,B,2.333333333333333,2.133333333333333,ScrollUp,ScrollDown,Orange.png,3,Negative,Congruent,,,,,0,0,0,0,,,,,,,,,,,,,,,,,,,,,0,16,16,16,,,,,,,,,,,,,,,,,,,,,,,,,,,,,,,,,,,,,,,,,,,,,,,,,,,,,,,,,,,,,,,,,,,,,,,,,1.751543199022611,1.162758499966003,382.0295064999955,None,ScrollUp,정답입니다,382.0295064999955,None,382.0295064999955,None,382.0295064999955,None,382.0295064999955,None,383.0851006000303,None,383.0851006000303,383.58505750005133,,,,,,,,,,,,,,,,210,2023-04-05_15h18.45.158,FishGame,2022.1.1,60.039469940543945,
,18,나를 보내줘,6,Green,A,0,0,ScrollUp,ScrollDown,Green.png,3,NonTarget,NonTarget,,,,,0,0,0,0,,,,,,,,,,,,,,,,,,,,,0,17,17,17,,,,,,,,,,,,,,,,,,,,,,,,,,,,,,,,,,,,,,,,,,,,,,,,,,,,,,,,,,,,,,,,,,,,,,,,,1.825617293516795,1.2173102999804541,384.20548130001407,None,ScrollUp,정답입니다,384.20548130001407,None,384.20548130001407,None,384.20548130001407,None,384.20548130001407,None,385.3208804000169,None,385.3208804000169,385.82079570007045,,,,,,,,,,,,,,,,210,2023-04-05_15h18.45.158,FishGame,2022.1.1,60.039469940543945,
,19,넌 불친절해,5,Orange,B,2.208333333333333,2.033333333333333,ScrollUp,ScrollDown,Orange.png,3,Negative,Congruent,,,,,0,0,0,0,,,,,,,,,,,,,,,,,,,,,0,18,18,18,,,,,,,,,,,,,,,,,,,,,,,,,,,,,,,,,,,,,,,,,,,,,,,,,,,,,,,,,,,,,,,,,,,,,,,,,1.7947530895471573,0.8424071000190452,386.4549656000454,None,ScrollUp,정답입니다,386.4549656000454,None,386.4549656000454,None,386.4549656000454,None,386.4549656000454,None,387.18500880000647,None,387.18500880000647,387.6849563000724,,,,,,,,,,,,,,,,210,2023-04-05_15h18.45.158,FishGame,2022.1.1,60.039469940543945,
,20,넌 지적이야,2,Orange,B,5.75,4.366666666666666,ScrollUp,ScrollDown,Orange.png,3,Positive,Incongruent,,,,,0,0,0,0,,,,,,,,,,,,,,,,,,,,,0,19,19,19,,,,,,,,,,,,,,,,,,,,,,,,,,,,,,,,,,,,,,,,,,,,,,,,,,,,,,,,,,,,,,,,,,,,,,,,,1.8317901243766148,0.9341111000394449,388.31145340006333,None,ScrollUp,정답입니다,388.31145340006333,None,388.31145340006333,None,388.31145340006333,None,388.31145340006333,None,389.137367599993,None,389.137367599993,389.6373231000034,,,,,,,,,,,,,,,,210,2023-04-05_15h18.45.158,FishGame,2022.1.1,60.039469940543945,
,21,넌 우유부단해,4,Green,A,2.666666666666667,3.166666666666667,ScrollDown,ScrollUp,Green.png,3,Negative,Incongruent,,,,,0,0,0,0,,,,,,,,,,,,,,,,,,,,,0,20,20,20,,,,,,,,,,,,,,,,,,,,,,,,,,,,,,,,,,,,,,,,,,,,,,,,,,,,,,,,,,,,,,,,,,,,,,,,,1,0.8482644000323489,390.26309250004124,None,ScrollDown,정답입니다,390.26309250004124,None,390.26309250004124,None,390.26309250004124,None,390.26309250004124,None,391.00406730000395,None,391.00406730000395,391.5074876000872,,,,,,,,,,,,,,,,210,2023-04-05_15h18.45.158,FishGame,2022.1.1,60.039469940543945,
,22,나를 데려가줘,6,Orange,B,0,0,ScrollDown,ScrollUp,Orange.png,3,NonTarget,NonTarget,,,,,0,0,0,0,,,,,,,,,,,,,,,,,,,,,0,21,21,21,,,,,,,,,,,,,,,,,,,,,,,,,,,,,,,,,,,,,,,,,,,,,,,,,,,,,,,,,,,,,,,,,,,,,,,,,1,0.9817249999614432,392.1262714000186,None,ScrollDown,정답입니다,392.1262714000186,None,392.1262714000186,None,392.1262714000186,None,392.1262714000186,None,393.0038794000866,None,393.0038794000866,393.5038449000567,,,,,,,,,,,,,,,,210,2023-04-05_15h18.45.158,FishGame,2022.1.1,60.039469940543945,
,23,넌 성실해,1,Orange,B,6.041666666666666,5.7,ScrollUp,ScrollDown,Orange.png,3,Positive,Incongruent,,,,,0,0,0,0,,,,,,,,,,,,,,,,,,,,,0,22,22,22,,,,,,,,,,,,,,,,,,,,,,,,,,,,,,,,,,,,,,,,,,,,,,,,,,,,,,,,,,,,,,,,,,,,,,,,,1.7623456716537476,0.8958764000562951,394.1279404000379,None,ScrollUp,정답입니다,394.1279404000379,None,394.1279404000379,None,394.1279404000379,None,394.1279404000379,None,394.9181572000962,None,394.9181572000962,395.41813520004507,,,,,,,,,,,,,,,,210,2023-04-05_15h18.45.158,FishGame,2022.1.1,60.039469940543945,
,24,넌 현실주의적이야,3,Green,A,4.625,4.4,ScrollDown,ScrollUp,Green.png,3,Neutral,Neutral,,,,,0,0,0,0,,,,,,,,,,,,,,,,,,,,,0,23,23,23,,,,,,,,,,,,,,,,,,,,,,,,,,,,,,,,,,,,,,,,,,,,,,,,,,,,,,,,,,,,,,,,,,,,,,,,,1.0154321193695068,0.8273876999737695,396.0457309000194,None,ScrollDown,정답입니다,396.0457309000194,None,396.0457309000194,None,396.0457309000194,None,396.0457309000194,None,396.7681567000691,None,396.7681567000691,397.27056810003705,,,,,,,,,,,,,,,,210,2023-04-05_15h18.45.158,FishGame,2022.1.1,60.039469940543945,
,25,넌 진실돼,1,Green,A,6.625,5.566666666666666,ScrollDown,ScrollUp,Green.png,3,Positive,Congruent,,,,,0,0,0,0,,,,,,,,,,,,,,,,,,,,,0,24,24,24,,,,,,,,,,,,,,,,,,,,,,,,,,,,,,,,,,,,,,,,,,,,,,,,,,,,,,,,,,,,,,,,,,,,,,,,,1,0.8461795999901369,397.894684500061,None,ScrollDown,정답입니다,397.894684500061,None,397.894684500061,None,397.894684500061,None,397.894684500061,None,398.63722650008276,None,398.63722650008276,399.1371688999934,,,,,,,,,,,,,,,,210,2023-04-05_15h18.45.158,FishGame,2022.1.1,60.039469940543945,
,26,넌 천진난만해,3,Orange,B,4.958333333333334,4.833333333333333,ScrollUp,ScrollDown,Orange.png,3,Neutral,Neutral,,,,,0,0,0,0,,,,,,,,,,,,,,,,,,,,,0,25,25,25,,,,,,,,,,,,,,,,,,,,,,,,,,,,,,,,,,,,,,,,,,,,,,,,,,,,,,,,,,,,,,,,,,,,,,,,,1.878086417913437,0.8463901999639347,399.7632481000619,None,ScrollUp,정답입니다,399.7632481000619,None,399.7632481000619,None,399.7632481000619,None,399.7632481000619,None,400.50374339998234,None,400.50374339998234,401.00366839999333,,,,,,,,,,,,,,,,210,2023-04-05_15h18.45.158,FishGame,2022.1.1,60.039469940543945,
,27,넌 교양없어,5,Green,A,2.416666666666667,2.2,ScrollDown,ScrollUp,Green.png,3,Negative,Incongruent,,,,,0,0,0,0,,,,,,,,,,,,,,,,,,,,,0,26,26,26,,,,,,,,,,,,,,,,,,,,,,,,,,,,,,,,,,,,,,,,,,,,,,,,,,,,,,,,,,,,,,,,,,,,,,,,,1,0.846465100068599,401.63156400003936,None,ScrollDown,정답입니다,401.63156400003936,None,401.63156400003936,None,401.63156400003936,None,401.63156400003936,None,402.3702751999954,None,402.3702751999954,402.87024170008954,,,,,,,,,,,,,,,,210,2023-04-05_15h18.45.158,FishGame,2022.1.1,60.039469940543945,
,28,나를 보내줘,6,Green,A,0,0,ScrollUp,ScrollDown,Green.png,3,NonTarget,NonTarget,,,,,0,0,0,0,,,,,,,,,,,,,,,,,,,,,0,27,27,27,,,,,,,,,,,,,,,,,,,,,,,,,,,,,,,,,,,,,,,,,,,,,,,,,,,,,,,,,,,,,,,,,,,,,,,,,1.6898148159186044,0.9794610999524593,403.4927101000212,None,ScrollUp,정답입니다,403.4927101000212,None,403.4927101000212,None,403.4927101000212,None,403.4927101000212,None,404.36825080006383,None,404.36825080006383,404.8702933000168,,,,,,,,,,,,,,,,210,2023-04-05_15h18.45.158,FishGame,2022.1.1,60.039469940543945,
,29,넌 엉뚱스러워,3,Green,A,4.166666666666667,4.133333333333334,ScrollDown,ScrollUp,Green.png,3,Neutral,Neutral,,,,,0,0,0,0,,,,,,,,,,,,,,,,,,,,,0,28,28,28,,,,,,,,,,,,,,,,,,,,,,,,,,,,,,,,,,,,,,,,,,,,,,,,,,,,,,,,,,,,,,,,,,,,,,,,,1.0200617114702861,0.8459872000385076,405.4954027000349,None,ScrollDown,정답입니다,405.4954027000349,None,405.4954027000349,None,405.4954027000349,None,405.4954027000349,None,406.23481910000555,None,406.23481910000555,406.7368552000262,,,,,,,,,,,,,,,,210,2023-04-05_15h18.45.158,FishGame,2022.1.1,60.039469940543945,
,30,넌 무지해,4,Orange,B,2.541666666666667,3.066666666666667,ScrollUp,ScrollDown,Orange.png,3,Negative,Congruent,,,,,0,0,0,0,,,,,,,,,,,,,,,,,,,,,0,29,29,29,,,,,,,,,,,,,,,,,,,,,,,,,,,,,,,,,,,,,,,,,,,,,,,,,,,,,,,,,,,,,,,,,,,,,,,,,1.7283950646718345,0.9126246999949217,407.35926180006936,None,ScrollUp,정답입니다,407.35926180006936,None,407.35926180006936,None,407.35926180006936,None,407.35926180006936,None,408.1681307000108,None,408.1681307000108,408.67015130002983,,,,,,,,,,,,,,,,210,2023-04-05_15h18.45.158,FishGame,2022.1.1,60.039469940543945,
,31,넌 음울해,5,Orange,B,2.25,2.233333333333333,ScrollUp,ScrollDown,Orange.png,3,Negative,Congruent,,,,,0,0,0,0,,,,,,,,,,,,,,,,,,,,,0,30,30,30,,,,,,,,,,,,,,,,,,,,,,,,,,,,,,,,,,,,,,,,,,,,,,,,,,,,,,,,,,,,,,,,,,,,,,,,,1.9768518606821697,0.9319112999364734,409.2990004000021,None,ScrollUp,정답입니다,409.2990004000021,None,409.2990004000021,None,409.2990004000021,None,409.2990004000021,None,410.12023800006136,None,410.12023800006136,410.6201522999909,,,,,,,,,,,,,,,,210,2023-04-05_15h18.45.158,FishGame,2022.1.1,60.039469940543945,
,32,넌 냉소적이야,5,Green,A,2.916666666666667,2.4,ScrollDown,ScrollUp,Green.png,3,Negative,Incongruent,,,,,0,0,0,0,,,,,,,,,,,,,,,,,,,,,0,31,31,31,,,,,,,,,,,,,,,,,,,,,,,,,,,,,,,,,,,,,,,,,,,,,,,,,,,,,,,,,,,,,,,,,,,,,,,,,1,0.8291510000126436,411.2430372000672,None,ScrollDown,정답입니다,411.2430372000672,None,411.2430372000672,None,411.2430372000672,None,411.2430372000672,None,411.96777760004625,None,411.96777760004625,412.46776959998533,,,,,,,,,,,,,,,,210,2023-04-05_15h18.45.158,FishGame,2022.1.1,60.039469940543945,
,33,나를 데려가줘,6,Orange,B,0,0,ScrollDown,ScrollUp,Orange.png,3,NonTarget,NonTarget,,,,,0,0,0,0,,,,,,,,,,,,,,,,,,,,,0,32,32,32,,,,,,,,,,,,,,,,,,,,,,,,,,,,,,,,,,,,,,,,,,,,,,,,,,,,,,,,,,,,,,,,,,,,,,,,,1,1.1135108000598848,413.09089610003866,None,ScrollDown,정답입니다,413.09089610003866,None,413.09089610003866,None,413.09089610003866,None,413.09089610003866,None,414.101166700013,None,414.101166700013,414.60355790005997,,,,,,,,,,,,,,,,210,2023-04-05_15h18.45.158,FishGame,2022.1.1,60.039469940543945,
,34,넌 쾌활해,1,Green,A,5.541666666666666,5.733333333333333,ScrollDown,ScrollUp,Green.png,3,Positive,Congruent,,,,,0,0,0,0,,,,,,,,,,,,,,,,,,,,,0,33,33,33,,,,,,,,,,,,,,,,,,,,,,,,,,,,,,,,,,,,,,,,,,,,,,,,,,,,,,,,,,,,,,,,,,,,,,,,,1,0.8986180999781936,415.22557150002103,None,ScrollDown,정답입니다,415.22557150002103,None,415.22557150002103,None,415.22557150002103,None,415.22557150002103,None,416.02028170006815,None,416.02028170006815,416.5202334000496,,,,,,,,,,,,,,,,210,2023-04-05_15h18.45.158,FishGame,2022.1.1,60.039469940543945,
,35,나를 보내줘,6,Green,A,0,0,ScrollUp,ScrollDown,Green.png,3,NonTarget,NonTarget,,,,,0,0,0,0,,,,,,,,,,,,,,,,,,,,,0,34,34,34,,,,,,,,,,,,,,,,,,,,,,,,,,,,,,,,,,,,,,,,,,,,,,,,,,,,,,,,,,,,,,,,,,,,,,,,,1.6805555572112403,0.8788630999624729,417.1426074000774,None,ScrollUp,정답입니다,417.1426074000774,None,417.1426074000774,None,417.1426074000774,None,417.1426074000774,None,417.9176834000973,None,417.9176834000973,418.4176554000005,,,,,,,,,,,,,,,,210,2023-04-05_15h18.45.158,FishGame,2022.1.1,60.039469940543945,
,36,넌 명랑해,1,Orange,B,5.739130434782609,5.666666666666667,ScrollUp,ScrollDown,Orange.png,3,Positive,Incongruent,,,,,0,0,0,0,,,,,,,,,,,,,,,,,,,,,0,35,35,35,,,,,,,,,,,,,,,,,,,,,,,,,,,,,,,,,,,,,,,,,,,,,,,,,,,,,,,,,,,,,,,,,,,,,,,,,1.6851851865649223,0.8964404999278486,419.044921600027,None,ScrollUp,정답입니다,419.044921600027,None,419.044921600027,None,419.044921600027,None,419.044921600027,None,419.83436069998425,None,419.83436069998425,420.3367284000851,,,,,,,,,,,,,,,,210,2023-04-05_15h18.45.158,FishGame,2022.1.1,60.039469940543945,
,37,넌 멍해,4,Green,A,2.833333333333333,3.4,ScrollDown,ScrollUp,Green.png,3,Negative,Incongruent,,,,,0,0,0,0,,,,,,,,,,,,,,,,,,,,,0,36,36,36,,,,,,,,,,,,,,,,,,,,,,,,,,,,,,,,,,,,,,,,,,,,,,,,,,,,,,,,,,,,,,,,,,,,,,,,,1,0.7653066000202671,420.96076400007587,None,ScrollDown,정답입니다,420.96076400007587,None,420.96076400007587,None,420.96076400007587,None,420.96076400007587,None,421.6201055999845,None,421.6201055999845,422.1200527000474,,,,,,,,,,,,,,,,210,2023-04-05_15h18.45.158,FishGame,2022.1.1,60.039469940543945,
,38,나를 데려가줘,6,Orange,B,0,0,ScrollDown,ScrollUp,Orange.png,3,NonTarget,NonTarget,,,,,0,0,0,0,,,,,,,,,,,,,,,,,,,,,0,37,37,37,,,,,,,,,,,,,,,,,,,,,,,,,,,,,,,,,,,,,,,,,,,,,,,,,,,,,,,,,,,,,,,,,,,,,,,,,1,0.9811823000200093,422.74886330007575,None,ScrollDown,정답입니다,422.74886330007575,None,422.74886330007575,None,422.74886330007575,None,422.74886330007575,None,423.61755580001045,None,423.61755580001045,424.11764090007637,,,,,,,,,,,,,,,,210,2023-04-05_15h18.45.158,FishGame,2022.1.1,60.039469940543945,
,39,넌 현명해,2,Green,A,6.541666666666666,4.533333333333333,ScrollDown,ScrollUp,Green.png,3,Positive,Congruent,,,,,0,0,0,0,,,,,,,,,,,,,,,,,,,,,0,38,38,38,,,,,,,,,,,,,,,,,,,,,,,,,,,,,,,,,,,,,,,,,,,,,,,,,,,,,,,,,,,,,,,,,,,,,,,,,1,0.8479401000076905,424.7444095000392,None,ScrollDown,정답입니다,424.7444095000392,None,424.7444095000392,None,424.7444095000392,None,424.7444095000392,None,425.48671740002465,None,425.48671740002465,425.98659600003157,,,,,,,,,,,,,,,,210,2023-04-05_15h18.45.158,FishGame,2022.1.1,60.039469940543945,
,40,넌 수줍어,3,Orange,B,3.541666666666666,4.366666666666666,ScrollUp,ScrollDown,Orange.png,3,Neutral,Neutral,,,,,0,0,0,0,,,,,,,,,,,,,,,,,,,,,0,39,39,39,,,,,,,,,,,,,,,,,,,,,,,,,,,,,,,,,,,,,,,,,,,,,,,,,,,,,,,,,,,,,,,,,,,,,,,,,1.9135802388191223,1.0156110000098124,426.614753400092,None,ScrollUp,정답입니다,426.614753400092,None,426.614753400092,None,426.614753400092,None,426.614753400092,None,427.5199918000726,None,427.5199918000726,428.01979480008595,,,,,,,,,,,,,,,,210,2023-04-05_15h18.45.158,FishGame,2022.1.1,60.039469940543945,
,41,나를 데려가줘,6,Orange,B,0,0,ScrollDown,ScrollUp,Orange.png,3,NonTarget,NonTarget,,,,,0,0,0,0,,,,,,,,,,,,,,,,,,,,,0,40,40,40,,,,,,,,,,,,,,,,,,,,,,,,,,,,,,,,,,,,,,,,,,,,,,,,,,,,,,,,,,,,,,,,,,,,,,,,,1,0.981911199982278,428.6439878999954,None,ScrollDown,정답입니다,428.6439878999954,None,428.6439878999954,None,428.6439878999954,None,428.6439878999954,None,429.51975850004237,None,429.51975850004237,430.0230223000981,,,,,,,,,,,,,,,,210,2023-04-05_15h18.45.158,FishGame,2022.1.1,60.039469940543945,
,42,넌 성숙해,2,Orange,B,5.833333333333333,4.533333333333333,ScrollUp,ScrollDown,Orange.png,3,Positive,Incongruent,,,,,0,0,0,0,,,,,,,,,,,,,,,,,,,,,0,41,41,41,,,,,,,,,,,,,,,,,,,,,,,,,,,,,,,,,,,,,,,,,,,,,,,,,,,,,,,,,,,,,,,,,,,,,,,,,1.7700617164373398,0.9131846999516711,430.6412926000776,None,ScrollUp,정답입니다,430.6412926000776,None,430.6412926000776,None,430.6412926000776,None,430.6412926000776,None,431.45100230001844,None,431.45100230001844,431.95296780008357,,,,,,,,,,,,,,,,210,2023-04-05_15h18.45.158,FishGame,2022.1.1,60.039469940543945,
,1,넌 매력적이야,2,Orange,B,6.125,4.666666666666667,ScrollUp,ScrollDown,Orange.png,4,Positive,Incongruent,,,,,0,0,0,0,,,,,,,,,,,,,,,,,,,,,,,,,0,0,0,0,,,,,,,,,,,,,,,,,,,,,,,,,,,,463.6189988000551,465.1191887999885,465.152523900033,466.10248140001204,466.15249680005945,467.10246070008725,467.10246070008725,None,,,,,,,,,,,,,,,,,,,,,,,,,,,,,,,,,,2,0.9383096999954432,468.20580580004025,None,ScrollUp,정답입니다,468.20580580004025,None,468.20580580004025,None,468.20580580004025,None,468.20580580004025,None,469.0356827999931,None,469.0356827999931,469.53892730001826,432.4530236000428,None,432.4530236000428,None,0.06759259,-0.096296296,1,0,0,0.016221930040046573,None,462.4522283000406,None,,,210,2023-04-05_15h18.45.158,FishGame,2022.1.1,60.039469940543945,
,2,나를 보내줘,6,Green,A,0,0,ScrollUp,ScrollDown,Green.png,4,NonTarget,NonTarget,,,,,0,0,0,0,,,,,,,,,,,,,,,,,,,,,,,,,0,1,1,1,,,,,,,,,,,,,,,,,,,,,,,,,,,,,,,,,,,,,,,,,,,,,,,,,,,,,,,,,,,,,,,,,,,,,1.7885802586873372,1.0294674000469968,470.1570021000225,None,ScrollUp,정답입니다,470.1570021000225,None,470.1570021000225,None,470.1570021000225,None,470.1570021000225,None,471.08546860003844,None,471.08546860003844,471.58549080009107,,,,,,,,,,,,,,,,210,2023-04-05_15h18.45.158,FishGame,2022.1.1,60.039469940543945,
,3,넌 조심스러워,3,Green,A,4.791666666666666,4.666666666666667,ScrollDown,ScrollUp,Green.png,4,Neutral,Neutral,,,,,0,0,0,0,,,,,,,,,,,,,,,,,,,,,,,,,0,2,2,2,,,,,,,,,,,,,,,,,,,,,,,,,,,,,,,,,,,,,,,,,,,,,,,,,,,,,,,,,,,,,,,,,,,,,1,0.8133405999979004,472.20526020007674,None,ScrollDown,정답입니다,472.20526020007674,None,472.20526020007674,None,472.20526020007674,None,472.20526020007674,None,472.9188859000569,None,472.9188859000569,473.4188773999922,,,,,,,,,,,,,,,,210,2023-04-05_15h18.45.158,FishGame,2022.1.1,60.039469940543945,
,4,넌 철학적이야,3,Orange,B,4.5,4.266666666666667,ScrollUp,ScrollDown,Orange.png,4,Neutral,Neutral,,,,,0,0,0,0,,,,,,,,,,,,,,,,,,,,,,,,,0,3,3,3,,,,,,,,,,,,,,,,,,,,,,,,,,,,,,,,,,,,,,,,,,,,,,,,,,,,,,,,,,,,,,,,,,,,,1.8348765522241592,0.8626988999312744,474.0464103000704,None,ScrollUp,정답입니다,474.0464103000704,None,474.0464103000704,None,474.0464103000704,None,474.0464103000704,None,474.802071299986,None,474.802071299986,475.30208440008573,,,,,,,,,,,,,,,,210,2023-04-05_15h18.45.158,FishGame,2022.1.1,60.039469940543945,
,5,넌 쩨쩨해,5,Green,A,2.375,2.133333333333333,ScrollDown,ScrollUp,Green.png,4,Negative,Incongruent,,,,,0,0,0,0,,,,,,,,,,,,,,,,,,,,,,,,,0,4,4,4,,,,,,,,,,,,,,,,,,,,,,,,,,,,,,,,,,,,,,,,,,,,,,,,,,,,,,,,,,,,,,,,,,,,,1,0.879786100005731,475.930793800042,None,ScrollDown,정답입니다,475.930793800042,None,475.930793800042,None,475.930793800042,None,475.930793800042,None,476.7020761000458,None,476.7020761000458,477.2020516000921,,,,,,,,,,,,,,,,210,2023-04-05_15h18.45.158,FishGame,2022.1.1,60.039469940543945,
,6,나를 데려가줘,6,Orange,B,0,0,ScrollDown,ScrollUp,Orange.png,4,NonTarget,NonTarget,,,,,0,0,0,0,,,,,,,,,,,,,,,,,,,,,,,,,0,5,5,5,,,,,,,,,,,,,,,,,,,,,,,,,,,,,,,,,,,,,,,,,,,,,,,,,,,,,,,,,,,,,,,,,,,,,1,1.1319927999284118,477.84241180005483,None,ScrollDown,정답입니다,477.84241180005483,None,477.84241180005483,None,477.84241180005483,None,477.84241180005483,None,478.8688234000001,None,478.8688234000001,479.36876119999215,,,,,,,,,,,,,,,,210,2023-04-05_15h18.45.158,FishGame,2022.1.1,60.039469940543945,
,7,넌 고집불통이야,5,Orange,B,2.875,2,ScrollUp,ScrollDown,Orange.png,4,Negative,Congruent,,,,,0,0,0,0,,,,,,,,,,,,,,,,,,,,,,,,,0,6,6,6,,,,,,,,,,,,,,,,,,,,,,,,,,,,,,,,,,,,,,,,,,,,,,,,,,,,,,,,,,,,,,,,,,,,,1.7885802586873372,0.8794924999820068,479.99937400000636,None,ScrollUp,정답입니다,479.99937400000636,None,479.99937400000636,None,479.99937400000636,None,479.99937400000636,None,480.7665825000731,None,480.7665825000731,481.26863420009613,,,,,,,,,,,,,,,,210,2023-04-05_15h18.45.158,FishGame,2022.1.1,60.039469940543945,
,8,넌 무심해,4,Green,A,2.875,3.2,ScrollDown,ScrollUp,Green.png,4,Negative,Incongruent,,,,,0,0,0,0,,,,,,,,,,,,,,,,,,,,,,,,,0,7,7,7,,,,,,,,,,,,,,,,,,,,,,,,,,,,,,,,,,,,,,,,,,,,,,,,,,,,,,,,,,,,,,,,,,,,,1,0.8626480000093579,481.8934941000771,None,ScrollDown,정답입니다,481.8934941000771,None,481.8934941000771,None,481.8934941000771,None,481.8934941000771,None,482.65196430007927,None,482.65196430007927,483.15196769998875,,,,,,,,,,,,,,,,210,2023-04-05_15h18.45.158,FishGame,2022.1.1,60.039469940543945,
,9,넌 정겨워,1,Green,A,5.791666666666667,5.666666666666667,ScrollDown,ScrollUp,Green.png,4,Positive,Congruent,,,,,0,0,0,0,,,,,,,,,,,,,,,,,,,,,,,,,0,8,8,8,,,,,,,,,,,,,,,,,,,,,,,,,,,,,,,,,,,,,,,,,,,,,,,,,,,,,,,,,,,,,,,,,,,,,1,0.7818543000612408,483.7775834000204,None,ScrollDown,정답입니다,483.7775834000204,None,483.7775834000204,None,483.7775834000204,None,483.7775834000204,None,484.45202630001586,None,484.45202630001586,484.95529120007996,,,,,,,,,,,,,,,,210,2023-04-05_15h18.45.158,FishGame,2022.1.1,60.039469940543945,
,10,나를 데려가줘,6,Orange,B,0,0,ScrollDown,ScrollUp,Orange.png,4,NonTarget,NonTarget,,,,,0,0,0,0,,,,,,,,,,,,,,,,,,,,,,,,,0,9,9,9,,,,,,,,,,,,,,,,,,,,,,,,,,,,,,,,,,,,,,,,,,,,,,,,,,,,,,,,,,,,,,,,,,,,,1.0246913532416027,0.9629378999816254,485.57600260002073,None,ScrollDown,정답입니다,485.57600260002073,None,485.57600260002073,None,485.57600260002073,None,485.57600260002073,None,486.4331446000142,None,486.4331446000142,486.9351568000857,,,,,,,,,,,,,,,,210,2023-04-05_15h18.45.158,FishGame,2022.1.1,60.039469940543945,
,11,넌 체제순응적이야,4,Orange,B,3,3.6,ScrollUp,ScrollDown,Orange.png,4,Negative,Congruent,,,,,0,0,0,0,,,,,,,,,,,,,,,,,,,,,,,,,0,10,10,10,,,,,,,,,,,,,,,,,,,,,,,,,,,,,,,,,,,,,,,,,,,,,,,,,,,,,,,,,,,,,,,,,,,,,1.7901234477758408,0.8485152999637648,487.5644927000394,None,ScrollUp,정답입니다,487.5644927000394,None,487.5644927000394,None,487.5644927000394,None,487.5644927000394,None,488.3019297000719,None,488.3019297000719,488.8018619000213,,,,,,,,,,,,,,,,210,2023-04-05_15h18.45.158,FishGame,2022.1.1,60.039469940543945,
,12,나를 보내줘,6,Green,A,0,0,ScrollUp,ScrollDown,Green.png,4,NonTarget,NonTarget,,,,,0,0,0,0,,,,,,,,,,,,,,,,,,,,,,,,,0,11,11,11,,,,,,,,,,,,,,,,,,,,,,,,,,,,,,,,,,,,,,,,,,,,,,,,,,,,,,,,,,,,,,,,,,,,,1.6975308607021966,0.9791040000272915,489.42851480003446,None,ScrollUp,정답입니다,489.42851480003446,None,489.42851480003446,None,489.42851480003446,None,489.42851480003446,None,490.29948600009084,None,490.29948600009084,490.7994840000756,,,,,,,,,,,,,,,,210,2023-04-05_15h18.45.158,FishGame,2022.1.1,60.039469940543945,
,13,넌 박식해,2,Green,A,5.625,3.933333333333333,ScrollDown,ScrollUp,Green.png,4,Positive,Congruent,,,,,0,0,0,0,,,,,,,,,,,,,,,,,,,,,,,,,0,12,12,12,,,,,,,,,,,,,,,,,,,,,,,,,,,,,,,,,,,,,,,,,,,,,,,,,,,,,,,,,,,,,,,,,,,,,1,0.8481730999192223,491.42494910000823,None,ScrollDown,정답입니다,491.42494910000823,None,491.42494910000823,None,491.42494910000823,None,491.42494910000823,None,492.1661805000622,None,492.1661805000622,492.66854590002913,,,,,,,,,,,,,,,,210,2023-04-05_15h18.45.158,FishGame,2022.1.1,60.039469940543945,
,14,나를 보내줘,6,Green,A,0,0,ScrollUp,ScrollDown,Green.png,4,NonTarget,NonTarget,,,,,0,0,0,0,,,,,,,,,,,,,,,,,,,,,,,,,0,13,13,13,,,,,,,,,,,,,,,,,,,,,,,,,,,,,,,,,,,,,,,,,,,,,,,,,,,,,,,,,,,,,,,,,,,,,1.8472222139437993,0.9148977999575436,493.2911797000561,None,ScrollUp,정답입니다,493.2911797000561,None,493.2911797000561,None,493.2911797000561,None,493.2911797000561,None,494.10187130002305,None,494.10187130002305,494.60186819999944,,,,,,,,,,,,,,,,210,2023-04-05_15h18.45.158,FishGame,2022.1.1,60.039469940543945,
,15,넌 침착해,1,Orange,B,5.458333333333333,5.566666666666666,ScrollUp,ScrollDown,Orange.png,4,Positive,Incongruent,,,,,0,0,0,0,,,,,,,,,,,,,,,,,,,,,,,,,0,14,14,14,,,,,,,,,,,,,,,,,,,,,,,,,,,,,,,,,,,,,,,,,,,,,,,,,,,,,,,,,,,,,,,,,,,,,1.6882716019948325,1.029878000030294,495.2303604000481,None,ScrollUp,정답입니다,495.2303604000481,None,495.2303604000481,None,495.2303604000481,None,495.2303604000481,None,496.151620300021,None,496.151620300021,496.6516900000861,,,,,,,,,,,,,,,,210,2023-04-05_15h18.45.158,FishGame,2022.1.1,60.039469940543945,
,16,나를 데려가줘,6,Orange,B,0,0,ScrollDown,ScrollUp,Orange.png,4,NonTarget,NonTarget,,,,,0,0,0,0,,,,,,,,,,,,,,,,,,,,,,,,,0,15,15,15,,,,,,,,,,,,,,,,,,,,,,,,,,,,,,,,,,,,,,,,,,,,,,,,,,,,,,,,,,,,,,,,,,,,,1,1.062722200062126,497.2811062000692,None,ScrollDown,정답입니다,497.2811062000692,None,497.2811062000692,None,497.2811062000692,None,497.2811062000692,None,498.23265690007247,None,498.23265690007247,498.7326511000283,,,,,,,,,,,,,,,,210,2023-04-05_15h18.45.158,FishGame,2022.1.1,60.039469940543945,
,17,넌 행복해,1,Green,A,6.416666666666666,6.166666666666667,ScrollDown,ScrollUp,Green.png,4,Positive,Congruent,,,,,0,0,0,0,,,,,,,,,,,,,,,,,,,,,,,,,0,16,16,16,,,,,,,,,,,,,,,,,,,,,,,,,,,,,,,,,,,,,,,,,,,,,,,,,,,,,,,,,,,,,,,,,,,,,1.0123456915219624,0.8333347999723628,499.3578488000203,None,ScrollDown,정답입니다,499.3578488000203,None,499.3578488000203,None,499.3578488000203,None,499.3578488000203,None,500.0851156000281,None,500.0851156000281,500.5850418000482,,,,,,,,,,,,,,,,210,2023-04-05_15h18.45.158,FishGame,2022.1.1,60.039469940543945,
,18,넌 겸손해,2,Orange,B,5.791666666666667,4.766666666666667,ScrollUp,ScrollDown,Orange.png,4,Positive,Incongruent,,,,,0,0,0,0,,,,,,,,,,,,,,,,,,,,,,,,,0,17,17,17,,,,,,,,,,,,,,,,,,,,,,,,,,,,,,,,,,,,,,,,,,,,,,,,,,,,,,,,,,,,,,,,,,,,,1.8086419651905696,0.7820220000576228,501.21003030007705,None,ScrollUp,정답입니다,501.21003030007705,None,501.21003030007705,None,501.21003030007705,None,501.21003030007705,None,501.88507309998386,None,501.88507309998386,502.3850231000688,,,,,,,,,,,,,,,,210,2023-04-05_15h18.45.158,FishGame,2022.1.1,60.039469940543945,
,19,나를 보내줘,6,Green,A,0,0,ScrollUp,ScrollDown,Green.png,4,NonTarget,NonTarget,,,,,0,0,0,0,,,,,,,,,,,,,,,,,,,,,,,,,0,18,18,18,,,,,,,,,,,,,,,,,,,,,,,,,,,,,,,,,,,,,,,,,,,,,,,,,,,,,,,,,,,,,,,,,,,,,1.9104938358068466,1.1129462000681087,503.00701290008146,None,ScrollUp,정답입니다,503.00701290008146,None,503.00701290008146,None,503.00701290008146,None,503.00701290008146,None,504.01872550009284,None,504.01872550009284,504.51822820003144,,,,,,,,,,,,,,,,210,2023-04-05_15h18.45.158,FishGame,2022.1.1,60.039469940543945,
,20,넌 의심없어,3,Green,A,4.166666666666667,4.6,ScrollDown,ScrollUp,Green.png,4,Neutral,Neutral,,,,,0,0,0,0,,,,,,,,,,,,,,,,,,,,,,,,,0,19,19,19,,,,,,,,,,,,,,,,,,,,,,,,,,,,,,,,,,,,,,,,,,,,,,,,,,,,,,,,,,,,,,,,,,,,,1.0555555323759716,0.8961468000197783,505.1455056000268,None,ScrollDown,정답입니다,505.1455056000268,None,505.1455056000268,None,505.1455056000268,None,505.1455056000268,None,505.9325319000054,None,505.9325319000054,506.43249170004856,,,,,,,,,,,,,,,,210,2023-04-05_15h18.45.158,FishGame,2022.1.1,60.039469940543945,
,21,넌 시시해,4,Green,A,2.666666666666667,2.966666666666667,ScrollDown,ScrollUp,Green.png,4,Negative,Incongruent,,,,,0,0,0,0,,,,,,,,,,,,,,,,,,,,,,,,,0,20,20,20,,,,,,,,,,,,,,,,,,,,,,,,,,,,,,,,,,,,,,,,,,,,,,,,,,,,,,,,,,,,,,,,,,,,,1,0.8795844999840483,507.0562644000165,None,ScrollDown,정답입니다,507.0562644000165,None,507.0562644000165,None,507.0562644000165,None,507.0562644000165,None,507.83254109998234,None,507.83254109998234,508.3349153000163,,,,,,,,,,,,,,,,210,2023-04-05_15h18.45.158,FishGame,2022.1.1,60.039469940543945,
,22,나를 데려가줘,6,Orange,B,0,0,ScrollDown,ScrollUp,Orange.png,4,NonTarget,NonTarget,,,,,0,0,0,0,,,,,,,,,,,,,,,,,,,,,,,,,0,21,21,21,,,,,,,,,,,,,,,,,,,,,,,,,,,,,,,,,,,,,,,,,,,,,,,,,,,,,,,,,,,,,,,,,,,,,1,0.9314984000520781,508.9577484000474,None,ScrollDown,정답입니다,508.9577484000474,None,508.9577484000474,None,508.9577484000474,None,508.9577484000474,None,509.7849560000468,None,509.7849560000468,510.28491420007776,,,,,,,,,,,,,,,,210,2023-04-05_15h18.45.158,FishGame,2022.1.1,60.039469940543945,
,23,넌 무정해,5,Green,A,2.5,2.2,ScrollDown,ScrollUp,Green.png,4,Negative,Incongruent,,,,,0,0,0,0,,,,,,,,,,,,,,,,,,,,,,,,,0,22,22,22,,,,,,,,,,,,,,,,,,,,,,,,,,,,,,,,,,,,,,,,,,,,,,,,,,,,,,,,,,,,,,,,,,,,,1,0.9484242999460548,510.90674350003246,None,ScrollDown,정답입니다,510.90674350003246,None,510.90674350003246,None,510.90674350003246,None,510.90674350003246,None,511.7513527000556,None,511.7513527000556,512.2513537000632,,,,,,,,,,,,,,,,210,2023-04-05_15h18.45.158,FishGame,2022.1.1,60.039469940543945,
,24,넌 긍정적이야,1,Orange,B,6.041666666666667,6.066666666666666,ScrollUp,ScrollDown,Orange.png,4,Positive,Incongruent,,,,,0,0,0,0,,,,,,,,,,,,,,,,,,,,,,,,,0,23,23,23,,,,,,,,,,,,,,,,,,,,,,,,,,,,,,,,,,,,,,,,,,,,,,,,,,,,,,,,,,,,,,,,,,,,,1.7608024577299755,0.7956674000015482,512.8862956000958,None,ScrollUp,정답입니다,512.8862956000958,None,512.8862956000958,None,512.8862956000958,None,512.8862956000958,None,513.5656842000317,None,513.5656842000317,514.0656582000665,,,,,,,,,,,,,,,,210,2023-04-05_15h18.45.158,FishGame,2022.1.1,60.039469940543945,
,25,나를 보내줘,6,Green,A,0,0,ScrollUp,ScrollDown,Green.png,4,NonTarget,NonTarget,,,,,0,0,0,0,,,,,,,,,,,,,,,,,,,,,,,,,0,24,24,24,,,,,,,,,,,,,,,,,,,,,,,,,,,,,,,,,,,,,,,,,,,,,,,,,,,,,,,,,,,,,,,,,,,,,1.7824074029922485,0.9477510000579059,514.6857303000288,None,ScrollUp,정답입니다,514.6857303000288,None,514.6857303000288,None,514.6857303000288,None,514.6857303000288,None,515.5323716000421,None,515.5323716000421,516.0347088000271,,,,,,,,,,,,,,,,210,2023-04-05_15h18.45.158,FishGame,2022.1.1,60.039469940543945,
,26,넌 시기심이 많아,5,Orange,B,2.458333333333333,2.233333333333333,ScrollUp,ScrollDown,Orange.png,4,Negative,Congruent,,,,,0,0,0,0,,,,,,,,,,,,,,,,,,,,,,,,,0,25,25,25,,,,,,,,,,,,,,,,,,,,,,,,,,,,,,,,,,,,,,,,,,,,,,,,,,,,,,,,,,,,,,,,,,,,,1.7098765472571054,0.9317484999774024,516.6643673999934,None,ScrollUp,정답입니다,516.6643673999934,None,516.6643673999934,None,516.6643673999934,None,516.6643673999934,None,517.4847599000204,None,517.4847599000204,517.9847421000013,,,,,,,,,,,,,,,,210,2023-04-05_15h18.45.158,FishGame,2022.1.1,60.039469940543945,
,27,넌 탁월해,2,Green,A,5.708333333333334,4.5,ScrollDown,ScrollUp,Green.png,4,Positive,Congruent,,,,,0,0,0,0,,,,,,,,,,,,,,,,,,,,,,,,,0,26,26,26,,,,,,,,,,,,,,,,,,,,,,,,,,,,,,,,,,,,,,,,,,,,,,,,,,,,,,,,,,,,,,,,,,,,,1,0.8483247000258416,518.6100055000279,None,ScrollDown,정답입니다,518.6100055000279,None,518.6100055000279,None,518.6100055000279,None,518.6100055000279,None,519.3513171999948,None,519.3513171999948,519.8511701000389,,,,,,,,,,,,,,,,210,2023-04-05_15h18.45.158,FishGame,2022.1.1,60.039469940543945,
,28,나를 데려가줘,6,Orange,B,0,0,ScrollDown,ScrollUp,Orange.png,4,NonTarget,NonTarget,,,,,0,0,0,0,,,,,,,,,,,,,,,,,,,,,,,,,0,27,27,27,,,,,,,,,,,,,,,,,,,,,,,,,,,,,,,,,,,,,,,,,,,,,,,,,,,,,,,,,,,,,,,,,,,,,1,0.9798034999985248,520.4758742999984,None,ScrollDown,정답입니다,520.4758742999984,None,520.4758742999984,None,520.4758742999984,None,520.4758742999984,None,521.3511310000904,None,521.3511310000904,521.8512363000773,,,,,,,,,,,,,,,,210,2023-04-05_15h18.45.158,FishGame,2022.1.1,60.039469940543945,
,29,넌 조용해,3,Orange,B,4.333333333333333,4.166666666666667,ScrollUp,ScrollDown,Orange.png,4,Neutral,Neutral,,,,,0,0,0,0,,,,,,,,,,,,,,,,,,,,,,,,,0,28,28,28,,,,,,,,,,,,,,,,,,,,,,,,,,,,,,,,,,,,,,,,,,,,,,,,,,,,,,,,,,,,,,,,,,,,,1.7268518507480621,0.9265738000394776,522.486916600028,None,ScrollUp,정답입니다,522.486916600028,None,522.486916600028,None,522.486916600028,None,522.486916600028,None,523.3011159000453,None,523.3011159000453,523.8010848000413,,,,,,,,,,,,,,,,210,2023-04-05_15h18.45.158,FishGame,2022.1.1,60.039469940543945,
,30,넌 다정해,1,Green,A,5.833333333333334,5.7,ScrollDown,ScrollUp,Green.png,4,Positive,Congruent,,,,,0,0,0,0,,,,,,,,,,,,,,,,,,,,,,,,,0,29,29,29,,,,,,,,,,,,,,,,,,,,,,,,,,,,,,,,,,,,,,,,,,,,,,,,,,,,,,,,,,,,,,,,,,,,,1,0.8985576999839395,524.4224977000849,None,ScrollDown,정답입니다,524.4224977000849,None,524.4224977000849,None,524.4224977000849,None,524.4224977000849,None,525.215736299986,None,525.215736299986,525.7177629000507,,,,,,,,,,,,,,,,210,2023-04-05_15h18.45.158,FishGame,2022.1.1,60.039469940543945,
,31,넌 능력있어,2,Orange,B,6.166666666666666,4.6,ScrollUp,ScrollDown,Orange.png,4,Positive,Incongruent,,,,,0,0,0,0,,,,,,,,,,,,,,,,,,,,,,,,,0,30,30,30,,,,,,,,,,,,,,,,,,,,,,,,,,,,,,,,,,,,,,,,,,,,,,,,,,,,,,,,,,,,,,,,,,,,,1.532407408580184,0.7796172000234947,526.3422887000488,None,NoResponse,무응답입니다,526.3422887000488,None,526.3422887000488,None,526.3422887000488,None,526.3422887000488,None,527.0154277000111,None,527.0154277000111,527.5153916000854,,,,,,,,,,,,,,,,210,2023-04-05_15h18.45.158,FishGame,2022.1.1,60.039469940543945,
,32,넌 불쾌해,5,Green,A,2.125,1.933333333333333,ScrollDown,ScrollUp,Green.png,4,Negative,Incongruent,,,,,0,0,0,0,,,,,,,,,,,,,,,,,,,,,,,,,0,31,31,31,,,,,,,,,,,,,,,,,,,,,,,,,,,,,,,,,,,,,,,,,,,,,,,,,,,,,,,,,,,,,,,,,,,,,1,1.0314251000527292,528.1351932000834,None,ScrollDown,정답입니다,528.1351932000834,None,528.1351932000834,None,528.1351932000834,None,528.1351932000834,None,529.0679197000572,None,529.0679197000572,529.5678080000216,,,,,,,,,,,,,,,,210,2023-04-05_15h18.45.158,FishGame,2022.1.1,60.039469940543945,
,33,나를 데려가줘,6,Orange,B,0,0,ScrollDown,ScrollUp,Orange.png,4,NonTarget,NonTarget,,,,,0,0,0,0,,,,,,,,,,,,,,,,,,,,,,,,,0,32,32,32,,,,,,,,,,,,,,,,,,,,,,,,,,,,,,,,,,,,,,,,,,,,,,,,,,,,,,,,,,,,,,,,,,,,,1.0185184975465138,1.0317101998953149,530.192133900011,None,ScrollDown,정답입니다,530.192133900011,None,530.192133900011,None,530.192133900011,None,530.192133900011,None,531.117766099982,None,531.117766099982,531.6208656000672,,,,,,,,,,,,,,,,210,2023-04-05_15h18.45.158,FishGame,2022.1.1,60.039469940543945,
,34,넌 유순해,3,Green,A,4.458333333333333,5,ScrollDown,ScrollUp,Green.png,4,Neutral,Neutral,,,,,0,0,0,0,,,,,,,,,,,,,,,,,,,,,,,,,0,33,33,33,,,,,,,,,,,,,,,,,,,,,,,,,,,,,,,,,,,,,,,,,,,,,,,,,,,,,,,,,,,,,,,,,,,,,1,0.998470599995926,532.2372280000709,None,ScrollDown,정답입니다,532.2372280000709,None,532.2372280000709,None,532.2372280000709,None,532.2372280000709,None,533.1344175999984,None,533.1344175999984,533.6343056000769,,,,,,,,,,,,,,,,210,2023-04-05_15h18.45.158,FishGame,2022.1.1,60.039469940543945,
,35,넌 근심스러워,4,Orange,B,2.708333333333333,3.133333333333333,ScrollUp,ScrollDown,Orange.png,4,Negative,Congruent,,,,,0,0,0,0,,,,,,,,,,,,,,,,,,,,,,,,,0,34,34,34,,,,,,,,,,,,,,,,,,,,,,,,,,,,,,,,,,,,,,,,,,,,,,,,,,,,,,,,,,,,,,,,,,,,,1.703703703979651,0.9296750000212342,534.2653574000578,None,ScrollUp,정답입니다,534.2653574000578,None,534.2653574000578,None,534.2653574000578,None,534.2653574000578,None,535.0841361000203,None,535.0841361000203,535.5841664000181,,,,,,,,,,,,,,,,210,2023-04-05_15h18.45.158,FishGame,2022.1.1,60.039469940543945,
,36,넌 세련되었어,2,Green,A,5.5,4.6,ScrollDown,ScrollUp,Green.png,4,Positive,Congruent,,,,,0,0,0,0,,,,,,,,,,,,,,,,,,,,,,,,,0,35,35,35,,,,,,,,,,,,,,,,,,,,,,,,,,,,,,,,,,,,,,,,,,,,,,,,,,,,,,,,,,,,,,,,,,,,,1,0.8448771999683231,536.2173639000393,None,ScrollDown,정답입니다,536.2173639000393,None,536.2173639000393,None,536.2173639000393,None,536.2173639000393,None,536.9508333000122,None,536.9508333000122,537.4508492000168,,,,,,,,,,,,,,,,210,2023-04-05_15h18.45.158,FishGame,2022.1.1,60.039469940543945,
,37,나를 보내줘,6,Green,A,0,0,ScrollUp,ScrollDown,Green.png,4,NonTarget,NonTarget,,,,,0,0,0,0,,,,,,,,,,,,,,,,,,,,,,,,,0,36,36,36,,,,,,,,,,,,,,,,,,,,,,,,,,,,,,,,,,,,,,,,,,,,,,,,,,,,,,,,,,,,,,,,,,,,,1.7453703681627908,1.1297945000696927,538.0888873999938,None,ScrollUp,정답입니다,538.0888873999938,None,538.0888873999938,None,538.0888873999938,None,538.0888873999938,None,539.1173998999875,None,539.1173998999875,539.6173937000567,,,,,,,,,,,,,,,,210,2023-04-05_15h18.45.158,FishGame,2022.1.1,60.039469940543945,
,38,넌 확고해,3,Orange,B,4.708333333333334,4.566666666666666,ScrollUp,ScrollDown,Orange.png,4,Neutral,Neutral,,,,,0,0,0,0,,,,,,,,,,,,,,,,,,,,,,,,,0,37,37,37,,,,,,,,,,,,,,,,,,,,,,,,,,,,,,,,,,,,,,,,,,,,,,,,,,,,,,,,,,,,,,,,,,,,,1.8086419651905696,0.9628695000428706,540.2441245000809,None,ScrollUp,정답입니다,540.2441245000809,None,540.2441245000809,None,540.2441245000809,None,540.2441245000809,None,541.1007151000667,None,541.1007151000667,541.6007765000686,,,,,,,,,,,,,,,,210,2023-04-05_15h18.45.158,FishGame,2022.1.1,60.039469940543945,
,39,넌 이해심이 많아,1,Orange,B,6.041666666666668,5.533333333333333,ScrollUp,ScrollDown,Orange.png,4,Positive,Incongruent,,,,,0,0,0,0,,,,,,,,,,,,,,,,,,,,,,,,,0,38,38,38,,,,,,,,,,,,,,,,,,,,,,,,,,,,,,,,,,,,,,,,,,,,,,,,,,,,,,,,,,,,,,,,,,,,,1.6003086442748704,0.8482687999494374,542.2262324000476,None,ScrollUp,정답입니다,542.2262324000476,None,542.2262324000476,None,542.2262324000476,None,542.2262324000476,None,542.9674232000252,None,542.9674232000252,543.4819806000451,,,,,,,,,,,,,,,,210,2023-04-05_15h18.45.158,FishGame,2022.1.1,60.039469940543945,
,40,나를 보내줘,6,Green,A,0,0,ScrollUp,ScrollDown,Green.png,4,NonTarget,NonTarget,,,,,0,0,0,0,,,,,,,,,,,,,,,,,,,,,,,,,0,39,39,39,,,,,,,,,,,,,,,,,,,,,,,,,,,,,,,,,,,,,,,,,,,,,,,,,,,,,,,,,,,,,,,,,,,,,1.6404320945342383,0.8818353000096977,544.0892569000134,None,ScrollUp,정답입니다,544.0892569000134,None,544.0892569000134,None,544.0892569000134,None,544.0892569000134,None,544.8652957000304,None,544.8652957000304,545.367304500076,,,,,,,,,,,,,,,,210,2023-04-05_15h18.45.158,FishGame,2022.1.1,60.039469940543945,
,41,넌 거칠어,4,Green,A,2.625,3.033333333333333,ScrollDown,ScrollUp,Green.png,4,Negative,Incongruent,,,,,0,0,0,0,,,,,,,,,,,,,,,,,,,,,,,,,0,40,40,40,,,,,,,,,,,,,,,,,,,,,,,,,,,,,,,,,,,,,,,,,,,,,,,,,,,,,,,,,,,,,,,,,,,,,1,0.8984023999655619,545.9909205000149,None,ScrollDown,정답입니다,545.9909205000149,None,545.9909205000149,None,545.9909205000149,None,545.9909205000149,None,546.7819869000232,None,546.7819869000232,547.2839966000756,,,,,,,,,,,,,,,,210,2023-04-05_15h18.45.158,FishGame,2022.1.1,60.039469940543945,
,42,넌 변덕맞아,5,Orange,B,2.75,2.166666666666667,ScrollUp,ScrollDown,Orange.png,4,Negative,Congruent,,,,,0,0,0,0,,,,,,,,,,,,,,,,,,,,,,,,,0,41,41,41,,,,,,,,,,,,,,,,,,,,,,,,,,,,,,,,,,,,,,,,,,,,,,,,,,,,,,,,,,,,,,,,,,,,,1.629629634320736,0.7801270999480039,547.914985200041,None,ScrollUp,정답입니다,547.914985200041,None,547.914985200041,None,547.914985200041,None,547.914985200041,None,548.5819418000756,None,548.5819418000756,549.0839089000365,,,,,,,,,,,,,,,,210,2023-04-05_15h18.45.158,FishGame,2022.1.1,60.039469940543945,
,43,나를 데려가줘,6,Orange,B,0,0,ScrollDown,ScrollUp,Orange.png,4,NonTarget,NonTarget,,,,,0,0,0,0,,,,,,,,,,,,,,,,,,,,,,,,,0,42,42,42,,,,,,,,,,,,,,,,,,,,,,,,,,,,,,,,,,,,,,,,,,,,,,,,,,,,,,,,,,,,,,,,,,,,,1,0.8794377000303939,549.7086313000182,None,ScrollDown,정답입니다,549.7086313000182,None,549.7086313000182,None,549.7086313000182,None,549.7086313000182,None,550.4815919999965,None,550.4815919999965,550.9815721000778,,,,,,,,,,,,,,,,210,2023-04-05_15h18.45.158,FishGame,2022.1.1,60.039469940543945,
,44,넌 외로워,4,Orange,B,2.833333333333333,3.3,ScrollUp,ScrollDown,Orange.png,4,Negative,Congruent,,,,,0,0,0,0,,,,,,,,,,,,,,,,,,,,,,,,,0,43,43,43,,,,,,,,,,,,,,,,,,,,,,,,,,,,,,,,,,,,,,,,,,,,,,,,,,,,,,,,,,,,,,,,,,,,,1.9583333432674408,1.0149610000662506,551.6067549000727,None,ScrollUp,정답입니다,551.6067549000727,None,551.6067549000727,None,551.6067549000727,None,551.6067549000727,None,552.514950199984,None,552.514950199984,553.0172787000192,,,,,,,,,,,,,,,,210,2023-04-05_15h18.45.158,FishGame,2022.1.1,60.039469940543945,
,1,넌 불평스러워,5,Green,A,2.25,2.066666666666667,ScrollDown,ScrollUp,Green.png,5,Negative,Incongruent,,,,,0,0,0,0,,,,,,,,,,,,,,,,,,,,,,,,,,,,,0,0,0,0,,,,,,,,,,,,,,,,,,,,,,,,584.6477832000237,586.1530013000593,586.1696807000553,587.1333462999901,587.1833302000305,588.136501400033,588.136501400033,None,,,,,,,,,,,,,,,,,,,,,,,,,,,,,,,,,,1,0.8757004000945017,589.3191886000568,None,ScrollDown,정답입니다,589.3191886000568,None,589.3191886000568,None,589.3191886000568,None,589.3191886000568,None,590.0831477000611,None,590.0831477000611,590.5831047000829,553.5173511999892,None,553.5173511999892,None,0.032407407,-0.1388889,1,0,0,0.016227430081926286,None,583.5164027999854,None,,,210,2023-04-05_15h18.45.158,FishGame,2022.1.1,60.039469940543945,
,2,나를 보내줘,6,Green,A,0,0,ScrollUp,ScrollDown,Green.png,5,NonTarget,NonTarget,,,,,0,0,0,0,,,,,,,,,,,,,,,,,,,,,,,,,,,,,0,1,1,1,,,,,,,,,,,,,,,,,,,,,,,,,,,,,,,,,,,,,,,,,,,,,,,,,,,,,,,,,,,,,,,,,1.9413580397764842,0.9296911000274122,591.2047704000724,None,ScrollUp,정답입니다,591.2047704000724,None,591.2047704000724,None,591.2047704000724,None,591.2047704000724,None,592.0309646000387,None,592.0309646000387,592.5329912999878,,,,,,,,,,,,,,,,210,2023-04-05_15h18.45.158,FishGame,2022.1.1,60.039469940543945,
,3,넌 다재다능해,2,Orange,B,6.208333333333333,4.5,ScrollUp,ScrollDown,Orange.png,5,Positive,Incongruent,,,,,0,0,0,0,,,,,,,,,,,,,,,,,,,,,,,,,,,,,0,2,2,2,,,,,,,,,,,,,,,,,,,,,,,,,,,,,,,,,,,,,,,,,,,,,,,,,,,,,,,,,,,,,,,,,1.9259259502092998,0.7966801000293344,593.1577168999938,None,ScrollUp,정답입니다,593.1577168999938,None,593.1577168999938,None,593.1577168999938,None,593.1577168999938,None,593.849676300073,None,593.849676300073,594.3496859000297,,,,,,,,,,,,,,,,210,2023-04-05_15h18.45.158,FishGame,2022.1.1,60.039469940543945,
,4,넌 과감해,3,Green,A,4.833333333333334,4.6,ScrollDown,ScrollUp,Green.png,5,Neutral,Neutral,,,,,0,0,0,0,,,,,,,,,,,,,,,,,,,,,,,,,,,,,0,3,3,3,,,,,,,,,,,,,,,,,,,,,,,,,,,,,,,,,,,,,,,,,,,,,,,,,,,,,,,,,,,,,,,,,1,0.729411100037396,594.9786860999884,None,ScrollDown,정답입니다,594.9786860999884,None,594.9786860999884,None,594.9786860999884,None,594.9786860999884,None,595.5972934000893,None,595.5972934000893,596.0973048000596,,,,,,,,,,,,,,,,210,2023-04-05_15h18.45.158,FishGame,2022.1.1,60.039469940543945,
,5,넌 고분고분해,3,Orange,B,3.75,4.033333333333333,ScrollUp,ScrollDown,Orange.png,5,Neutral,Neutral,,,,,0,0,0,0,,,,,,,,,,,,,,,,,,,,,,,,,,,,,0,4,4,4,,,,,,,,,,,,,,,,,,,,,,,,,,,,,,,,,,,,,,,,,,,,,,,,,,,,,,,,,,,,,,,,,1.8626543283462524,0.7648413999704644,596.72100400005,None,ScrollUp,정답입니다,596.72100400005,None,596.72100400005,None,596.72100400005,None,596.72100400005,None,597.3806525000837,None,597.3806525000837,597.8830450000241,,,,,,,,,,,,,,,,210,2023-04-05_15h18.45.158,FishGame,2022.1.1,60.039469940543945,
,6,나를 보내줘,6,Green,A,0,0,ScrollUp,ScrollDown,Green.png,5,NonTarget,NonTarget,,,,,0,0,0,0,,,,,,,,,,,,,,,,,,,,,,,,,,,,,0,5,5,5,,,,,,,,,,,,,,,,,,,,,,,,,,,,,,,,,,,,,,,,,,,,,,,,,,,,,,,,,,,,,,,,,1.9027777661879857,0.9629294000333175,598.5052116999868,None,ScrollUp,정답입니다,598.5052116999868,None,598.5052116999868,None,598.5052116999868,None,598.5052116999868,None,599.3663429000881,None,599.3663429000881,599.869697200018,,,,,,,,,,,,,,,,210,2023-04-05_15h18.45.158,FishGame,2022.1.1,60.039469940543945,
,7,넌 잘 잊어,4,Green,A,3,3.7,ScrollDown,ScrollUp,Green.png,5,Negative,Incongruent,,,,,0,0,0,0,,,,,,,,,,,,,,,,,,,,,,,,,,,,,0,6,6,6,,,,,,,,,,,,,,,,,,,,,,,,,,,,,,,,,,,,,,,,,,,,,,,,,,,,,,,,,,,,,,,,,1,0.7831539999460801,600.4925769000547,None,ScrollDown,정답입니다,600.4925769000547,None,600.4925769000547,None,600.4925769000547,None,600.4925769000547,None,601.1661656000651,None,601.1661656000651,601.6661673000781,,,,,,,,,,,,,,,,210,2023-04-05_15h18.45.158,FishGame,2022.1.1,60.039469940543945,
,8,넌 탐구심이없어,4,Orange,B,2.833333333333333,3.066666666666667,ScrollUp,ScrollDown,Orange.png,5,Negative,Congruent,,,,,0,0,0,0,,,,,,,,,,,,,,,,,,,,,,,,,,,,,0,7,7,7,,,,,,,,,,,,,,,,,,,,,,,,,,,,,,,,,,,,,,,,,,,,,,,,,,,,,,,,,,,,,,,,,1.879629631837209,0.7462031000759453,602.2951669000322,None,ScrollUp,정답입니다,602.2951669000322,None,602.2951669000322,None,602.2951669000322,None,602.2951669000322,None,602.9307264999952,None,602.9307264999952,603.4327408000827,,,,,,,,,,,,,,,,210,2023-04-05_15h18.45.158,FishGame,2022.1.1,60.039469940543945,
,9,나를 데려가줘,6,Orange,B,0,0,ScrollDown,ScrollUp,Orange.png,5,NonTarget,NonTarget,,,,,0,0,0,0,,,,,,,,,,,,,,,,,,,,,,,,,,,,,0,8,8,8,,,,,,,,,,,,,,,,,,,,,,,,,,,,,,,,,,,,,,,,,,,,,,,,,,,,,,,,,,,,,,,,,1,1.0649796000216156,604.0567969999975,None,ScrollDown,정답입니다,604.0567969999975,None,604.0567969999975,None,604.0567969999975,None,604.0567969999975,None,605.0160641000839,None,605.0160641000839,605.5160741000436,,,,,,,,,,,,,,,,210,2023-04-05_15h18.45.158,FishGame,2022.1.1,60.039469940543945,
,10,넌 참되어,2,Green,A,6.041666666666664,4.733333333333333,ScrollDown,ScrollUp,Green.png,5,Positive,Congruent,,,,,0,0,0,0,,,,,,,,,,,,,,,,,,,,,,,,,,,,,0,9,9,9,,,,,,,,,,,,,,,,,,,,,,,,,,,,,,,,,,,,,,,,,,,,,,,,,,,,,,,,,,,,,,,,,1,0.8482121000997722,606.1409848000621,None,ScrollDown,정답입니다,606.1409848000621,None,606.1409848000621,None,606.1409848000621,None,606.1409848000621,None,606.8828806000529,None,606.8828806000529,607.3827613000758,,,,,,,,,,,,,,,,210,2023-04-05_15h18.45.158,FishGame,2022.1.1,60.039469940543945,
,11,넌 생기있어,1,Orange,B,5.875,5.633333333333334,ScrollUp,ScrollDown,Orange.png,5,Positive,Incongruent,,,,,0,0,0,0,,,,,,,,,,,,,,,,,,,,,,,,,,,,,0,10,10,10,,,,,,,,,,,,,,,,,,,,,,,,,,,,,,,,,,,,,,,,,,,,,,,,,,,,,,,,,,,,,,,,,1.8148148208856583,0.8962930000852793,608.0096689000493,None,ScrollUp,정답입니다,608.0096689000493,None,608.0096689000493,None,608.0096689000493,None,608.0096689000493,None,608.7993929000804,None,608.7993929000804,609.2992622000165,,,,,,,,,,,,,,,,210,2023-04-05_15h18.45.158,FishGame,2022.1.1,60.039469940543945,
,12,넌 비사교적이야,4,Orange,B,2.875,2.9,ScrollUp,ScrollDown,Orange.png,5,Negative,Congruent,,,,,0,0,0,0,,,,,,,,,,,,,,,,,,,,,,,,,,,,,0,11,11,11,,,,,,,,,,,,,,,,,,,,,,,,,,,,,,,,,,,,,,,,,,,,,,,,,,,,,,,,,,,,,,,,,1.8749999900658925,0.7797242000233382,609.9233139000135,None,ScrollUp,정답입니다,609.9233139000135,None,609.9233139000135,None,609.9233139000135,None,609.9233139000135,None,610.5993288999889,None,610.5993288999889,611.099323600065,,,,,,,,,,,,,,,,210,2023-04-05_15h18.45.158,FishGame,2022.1.1,60.039469940543945,
,13,나를 데려가줘,6,Orange,B,0,0,ScrollDown,ScrollUp,Orange.png,5,NonTarget,NonTarget,,,,,0,0,0,0,,,,,,,,,,,,,,,,,,,,,,,,,,,,,0,12,12,12,,,,,,,,,,,,,,,,,,,,,,,,,,,,,,,,,,,,,,,,,,,,,,,,,,,,,,,,,,,,,,,,,1,0.9959272999549285,611.7217260000762,None,ScrollDown,정답입니다,611.7217260000762,None,611.7217260000762,None,611.7217260000762,None,611.7217260000762,None,612.613640800002,None,612.613640800002,613.1136172000552,,,,,,,,,,,,,,,,210,2023-04-05_15h18.45.158,FishGame,2022.1.1,60.039469940543945,
,14,넌 고독해,4,Green,A,2.916666666666667,3.233333333333333,ScrollDown,ScrollUp,Green.png,5,Negative,Incongruent,,,,,0,0,0,0,,,,,,,,,,,,,,,,,,,,,,,,,,,,,0,13,13,13,,,,,,,,,,,,,,,,,,,,,,,,,,,,,,,,,,,,,,,,,,,,,,,,,,,,,,,,,,,,,,,,,1,0.7479597000638023,613.7339968000306,None,ScrollDown,정답입니다,613.7339968000306,None,613.7339968000306,None,613.7339968000306,None,613.7339968000306,None,614.3803018000908,None,614.3803018000908,614.8826997000724,,,,,,,,,,,,,,,,210,2023-04-05_15h18.45.158,FishGame,2022.1.1,60.039469940543945,
,15,넌 신경질적이야,5,Orange,B,2.375,2.233333333333333,ScrollUp,ScrollDown,Orange.png,5,Negative,Congruent,,,,,0,0,0,0,,,,,,,,,,,,,,,,,,,,,,,,,,,,,0,14,14,14,,,,,,,,,,,,,,,,,,,,,,,,,,,,,,,,,,,,,,,,,,,,,,,,,,,,,,,,,,,,,,,,,1.8904321044683456,0.8482365000527352,615.518797500059,None,ScrollUp,정답입니다,615.518797500059,None,615.518797500059,None,615.518797500059,None,615.518797500059,None,616.2493703000946,None,616.2493703000946,616.7524159000022,,,,,,,,,,,,,,,,210,2023-04-05_15h18.45.158,FishGame,2022.1.1,60.039469940543945,
,16,넌 똑똑해,2,Orange,B,5.666666666666667,3.966666666666667,ScrollUp,ScrollDown,Orange.png,5,Positive,Incongruent,,,,,0,0,0,0,,,,,,,,,,,,,,,,,,,,,,,,,,,,,0,15,15,15,,,,,,,,,,,,,,,,,,,,,,,,,,,,,,,,,,,,,,,,,,,,,,,,,,,,,,,,,,,,,,,,,1.8441358109315236,0.7461066000396386,617.3753657999914,None,ScrollUp,정답입니다,617.3753657999914,None,617.3753657999914,None,617.3753657999914,None,617.3753657999914,None,618.015819100081,None,618.015819100081,618.5158512000926,,,,,,,,,,,,,,,,210,2023-04-05_15h18.45.158,FishGame,2022.1.1,60.039469940543945,
,17,나를 보내줘,6,Green,A,0,0,ScrollUp,ScrollDown,Green.png,5,NonTarget,NonTarget,,,,,0,0,0,0,,,,,,,,,,,,,,,,,,,,,,,,,,,,,0,16,16,16,,,,,,,,,,,,,,,,,,,,,,,,,,,,,,,,,,,,,,,,,,,,,,,,,,,,,,,,,,,,,,,,,1.9089506218830745,1.1133899000706151,619.1350213000551,None,ScrollUp,정답입니다,619.1350213000551,None,619.1350213000551,None,619.1350213000551,None,619.1350213000551,None,620.1490738000721,None,620.1490738000721,620.6490780999884,,,,,,,,,,,,,,,,210,2023-04-05_15h18.45.158,FishGame,2022.1.1,60.039469940543945,
,18,넌 협조적이야,1,Green,A,5.625,5.666666666666667,ScrollDown,ScrollUp,Green.png,5,Positive,Congruent,,,,,0,0,0,0,,,,,,,,,,,,,,,,,,,,,,,,,,,,,0,17,17,17,,,,,,,,,,,,,,,,,,,,,,,,,,,,,,,,,,,,,,,,,,,,,,,,,,,,,,,,,,,,,,,,,1.0416666567325592,0.8819061999674886,621.2722938000225,None,ScrollDown,정답입니다,621.2722938000225,None,621.2722938000225,None,621.2722938000225,None,621.2722938000225,None,622.0470902000088,None,622.0470902000088,622.549119100091,,,,,,,,,,,,,,,,210,2023-04-05_15h18.45.158,FishGame,2022.1.1,60.039469940543945,
,19,나를 데려가줘,6,Orange,B,0,0,ScrollDown,ScrollUp,Orange.png,5,NonTarget,NonTarget,,,,,0,0,0,0,,,,,,,,,,,,,,,,,,,,,,,,,,,,,0,18,18,18,,,,,,,,,,,,,,,,,,,,,,,,,,,,,,,,,,,,,,,,,,,,,,,,,,,,,,,,,,,,,,,,,1,1.029678100021556,623.183122800081,None,ScrollDown,정답입니다,623.183122800081,None,623.183122800081,None,623.183122800081,None,623.183122800081,None,624.0967378000496,None,624.0967378000496,624.5967122000875,,,,,,,,,,,,,,,,210,2023-04-05_15h18.45.158,FishGame,2022.1.1,60.039469940543945,
,20,넌 몰인정해,5,Orange,B,2.541666666666667,2.066666666666667,ScrollUp,ScrollDown,Orange.png,5,Negative,Congruent,,,,,0,0,0,0,,,,,,,,,,,,,,,,,,,,,,,,,,,,,0,19,19,19,,,,,,,,,,,,,,,,,,,,,,,,,,,,,,,,,,,,,,,,,,,,,,,,,,,,,,,,,,,,,,,,,1.8040123482545216,0.8169525000266731,625.224579700036,None,ScrollUp,정답입니다,625.224579700036,None,625.224579700036,None,625.224579700036,None,625.224579700036,None,625.9326197000919,None,625.9326197000919,626.4324613000499,,,,,,,,,,,,,,,,210,2023-04-05_15h18.45.158,FishGame,2022.1.1,60.039469940543945,
,21,나를 데려가줘,6,Orange,B,0,0,ScrollDown,ScrollUp,Orange.png,5,NonTarget,NonTarget,,,,,0,0,0,0,,,,,,,,,,,,,,,,,,,,,,,,,,,,,0,20,20,20,,,,,,,,,,,,,,,,,,,,,,,,,,,,,,,,,,,,,,,,,,,,,,,,,,,,,,,,,,,,,,,,,1,0.9148903999011964,627.0581307000248,None,ScrollDown,정답입니다,627.0581307000248,None,627.0581307000248,None,627.0581307000248,None,627.0581307000248,None,627.8659494000021,None,627.8659494000021,628.36904530006,,,,,,,,,,,,,,,,210,2023-04-05_15h18.45.158,FishGame,2022.1.1,60.039469940543945,
,22,넌 순진해,3,Orange,B,4.125,4.166666666666667,ScrollUp,ScrollDown,Orange.png,5,Neutral,Neutral,,,,,0,0,0,0,,,,,,,,,,,,,,,,,,,,,,,,,,,,,0,21,21,21,,,,,,,,,,,,,,,,,,,,,,,,,,,,,,,,,,,,,,,,,,,,,,,,,,,,,,,,,,,,,,,,,1.9290123283863068,0.8818079999182373,628.9902260000817,None,ScrollUp,정답입니다,628.9902260000817,None,628.9902260000817,None,628.9902260000817,None,628.9902260000817,None,629.7657277000835,None,629.7657277000835,630.2656333000632,,,,,,,,,,,,,,,,210,2023-04-05_15h18.45.158,FishGame,2022.1.1,60.039469940543945,
,23,넌 신뢰할만해,1,Green,A,6.625,5.533333333333333,ScrollDown,ScrollUp,Green.png,5,Positive,Congruent,,,,,0,0,0,0,,,,,,,,,,,,,,,,,,,,,,,,,,,,,0,22,22,22,,,,,,,,,,,,,,,,,,,,,,,,,,,,,,,,,,,,,,,,,,,,,,,,,,,,,,,,,,,,,,,,,1,1.0483018999220803,630.8928777000401,None,ScrollDown,정답입니다,630.8928777000401,None,630.8928777000401,None,630.8928777000401,None,630.8928777000401,None,631.8321604999946,None,631.8321604999946,632.3321366000455,,,,,,,,,,,,,,,,210,2023-04-05_15h18.45.158,FishGame,2022.1.1,60.039469940543945,
