name,TrialNum,Word,WordCategory,FishType,WordList,WordValence,WordReputation,CorrectResp,IncorrectResp,FishTypeFile,Round,WordType,Condition,LoopforOrange.thisRepN,LoopforOrange.thisTrialN,LoopforOrange.thisN,LoopforOrange.thisIndex,OrangeInstLoop.thisRepN,OrangeInstLoop.thisTrialN,OrangeInstLoop.thisN,OrangeInstLoop.thisIndex,OrangePrac.thisRepN,OrangePrac.thisTrialN,OrangePrac.thisN,OrangePrac.thisIndex,temp1.thisRepN,temp1.thisTrialN,temp1.thisN,temp1.thisIndex,OrangeRound1.thisRepN,OrangeRound1.thisTrialN,OrangeRound1.thisN,OrangeRound1.thisIndex,OrangeRound2.thisRepN,OrangeRound2.thisTrialN,OrangeRound2.thisN,OrangeRound2.thisIndex,OrangeRound3.thisRepN,OrangeRound3.thisTrialN,OrangeRound3.thisN,OrangeRound3.thisIndex,OrangeRound4.thisRepN,OrangeRound4.thisTrialN,OrangeRound4.thisN,OrangeRound4.thisIndex,OrangeRound5.thisRepN,OrangeRound5.thisTrialN,OrangeRound5.thisN,OrangeRound5.thisIndex,LoopForGreen.thisRepN,LoopForGreen.thisTrialN,LoopForGreen.thisN,LoopForGreen.thisIndex,text_2.started,text_2.stopped,text_3.started,text_3.stopped,key_resp.keys,key_resp.rt,key_resp.started,key_resp.stopped,PassI_2.started,PassI_2.stopped,PassInst_2.keys,PassInst_2.rt,PassInst_2.started,PassInst_2.stopped,mouse_2.x,mouse_2.y,mouse_2.leftButton,mouse_2.midButton,mouse_2.rightButton,mouse_2.started,mouse_2.stopped,image.started,image.stopped,text_5.started,text_5.stopped,text_6.started,text_6.stopped,text_7.started,text_7.stopped,text_8.started,text_8.stopped,slider_2.response,slider_2.rt,slider_2.started,slider_2.stopped,Response_2,Feedback_2,BackGround_2.started,BackGround_2.stopped,Fish_2.started,Fish_2.stopped,WordBox_2.started,WordBox_2.stopped,Words_2.started,Words_2.stopped,BackGround_Feedback_2.started,BackGround_Feedback_2.stopped,Feedbacks_2.started,Feedbacks_2.stopped,Continue_or_not.keys,Continue_or_not.rt,Continue_or_not.started,Continue_or_not.stopped,image_3.started,image_3.stopped,mouse_3.x,mouse_3.y,mouse_3.leftButton,mouse_3.midButton,mouse_3.rightButton,mouse_3.started,mouse_3.stopped,startmain.started,startmain.stopped,slider.response,slider.rt,slider.started,slider.stopped,Response,Feedback,BackGround.started,BackGround.stopped,Fish.started,Fish.stopped,WordBox.started,WordBox.stopped,Words.started,Words.stopped,BackGround_Feedback.started,BackGround_Feedback.stopped,Feedbacks.started,Feedbacks.stopped,text.started,text.stopped,break_interval.started,break_interval.stopped,mouse.x,mouse.y,mouse.leftButton,mouse.midButton,mouse.rightButton,mouse.started,mouse.stopped,stratnextround.started,stratnextround.stopped,endgame.started,endgame.stopped,participant,date,expName,psychopyVersion,frameRate,
,,,,,,,,,,,,,,,,,,,,,,,,,,,,,,,,,,,,,,,,,,,,,,,,,,,,,,18.56769399996847,None,18.56769399996847,None,space,4.95125869999174,19.04805869999109,None,,,,,,,,,,,,,,,,,,,,,,,,,,,,,,,,,,,,,,,,,,,,,,,,,,,,,,,,,,,,,,,,,,,,,,,,,,,,,,,,,,,,,,,,,,001,2022-05-02_11h24.28.800,FishGame,2022.1.1,59.80775396090755,
물고기과제_instruction(참가자용)OrangeVersion.mp4,,,,,,,,,,,,,,0,0,0,0,0,0,0,0,,,,,,,,,,,,,,,,,,,,,,,,,,,,,,,,,,,,,,,,,107.57615179999266,None,n,9.422949499974493,107.57615179999266,None,,,,,,,,,,,,,,,,,,,,,,,,,,,,,,,,,,,,,,,,,,,,,,,,,,,,,,,,,,,,,,,,,,,,,,,,,,,,,,,,,,,,001,2022-05-02_11h24.28.800,FishGame,2022.1.1,59.80775396090755,
,1,넌 교활해,5,Green,B,2.333333333333333,2.133333333333333,ScrollUp,ScrollDown,Green.png,practice,,,0,0,0,0,,,,,0,0,0,0,0,0,0,0,,,,,,,,,,,,,,,,,,,,,,,,,,,,,,,,,,,,,,,0.02962963,-0.2175926,1,0,0,0.5139795099967159,None,117.02364659996238,None,139.70634679996874,141.2087303000153,141.2419818000053,142.18972339999164,142.2397265000036,143.1896926999907,143.1896926999907,None,1.6250000049670539,5.868967099988367,144.48185169999488,None,ScrollUp,정답입니다,144.48185169999488,None,144.48185169999488,None,144.48185169999488,None,144.48185169999488,None,150.05621700000484,None,150.05621700000484,150.5585062999744,,,,,,,,,,,,,,,,,,,,,,,,,,,,,,,,,,,,,,,,,,,,,,,,,001,2022-05-02_11h24.28.800,FishGame,2022.1.1,59.80775396090755,
,2,넌 슬기로워,2,Orange,A,6.166666666666667,4.1,ScrollDown,ScrollUp,Orange.png,practice,,,0,0,0,0,,,,,0,0,0,0,0,1,1,1,,,,,,,,,,,,,,,,,,,,,,,,,,,,,,,,,,,,,,,,,,,,,,,,,,,,,,,,1.0740740497907002,1.6652968000271358,151.18302180001047,None,ScrollDown,정답입니다,151.18302180001047,None,151.18302180001047,None,151.18302180001047,None,151.18302180001047,None,152.72745189996203,None,152.72745189996203,153.24167249997845,,,,,,,,,,,,,,,,,,,,,,,,,,,,,,,,,,,,,,,,,,,,,,,,,001,2022-05-02_11h24.28.800,FishGame,2022.1.1,59.80775396090755,
,3,나를 보내줘,6,Orange,A,0,0,ScrollUp,ScrollDown,Orange.png,practice,,,0,0,0,0,,,,,0,0,0,0,0,2,2,2,,,,,,,,,,,,,,,,,,,,,,,,,,,,,,,,,,,,,,,,,,,,,,,,,,,,,,,,1.7500000099341075,1.3766985000111163,153.8651414999622,None,ScrollUp,정답입니다,153.8651414999622,None,153.8651414999622,None,153.8651414999622,None,153.8651414999622,None,155.13912030000938,None,155.13912030000938,155.6391856999835,,,,,,,,,,,,,,,,,,,,,,,,,,,,,,,,,,,,,,,,,,,,,,,,,001,2022-05-02_11h24.28.800,FishGame,2022.1.1,59.80775396090755,
,4,나를 데려가줘,6,Green,B,0,0,ScrollDown,ScrollUp,Green.png,practice,,,0,0,0,0,,,,,0,0,0,0,0,3,3,3,,,,,,,,,,,,,,,,,,,,,,,,,,,,,,,,,,,,,,,,,,,,,,,,,,,,,,,,1,3.0449969000183046,156.25422130001243,None,ScrollDown,정답입니다,156.25422130001243,None,156.25422130001243,None,156.25422130001243,None,156.25422130001243,None,159.2060693000094,None,159.2060693000094,159.70830980001483,,,,,,,,,,,,,,,,,,,,,,,,,,,,,,,,,,,,,,,,,,,,,,,,,001,2022-05-02_11h24.28.800,FishGame,2022.1.1,59.80775396090755,
,1,넌 교활해,5,Green,B,2.333333333333333,2.133333333333333,ScrollUp,ScrollDown,Green.png,practice,,,0,0,0,0,,,,,0,0,0,0,,,,,,,,,,,,,,,,,,,,,,,,,,,,,,,,,,,,,,,,,,,,,,,,,,,,,,,,,,,,,,,,,,,,,,,,,,,,,,y,6.086347500036936,160.20848739997018,None,160.20848739997018,None,,,,,,,,,,,,,,,,,,,,,,,,,,,,,,,,,,,,,,,,,,,001,2022-05-02_11h24.28.800,FishGame,2022.1.1,59.80775396090755,
,1,넌 교활해,5,Green,B,2.333333333333333,2.133333333333333,ScrollUp,ScrollDown,Green.png,practice,,,0,0,0,0,,,,,0,1,1,1,0,0,0,0,,,,,,,,,,,,,,,,,,,,,,,,,,,,,,,,,,,,,,,,,,,,,,,,,,,,,,,,1.6620370397965112,1.5699649000307545,166.44624819996534,None,ScrollUp,정답입니다,166.44624819996534,None,166.44624819996534,None,166.44624819996534,None,166.44624819996534,None,167.92240649997257,None,167.92240649997257,168.42247980000684,,,,,,,,,,,,,,,,,,,,,,,,,,,,,,,,,,,,,,,,,,,,,,,,,001,2022-05-02_11h24.28.800,FishGame,2022.1.1,59.80775396090755,
,2,넌 슬기로워,2,Orange,A,6.166666666666667,4.1,ScrollDown,ScrollUp,Orange.png,practice,,,0,0,0,0,,,,,0,1,1,1,0,1,1,1,,,,,,,,,,,,,,,,,,,,,,,,,,,,,,,,,,,,,,,,,,,,,,,,,,,,,,,,1.0817901194095612,1.0955008000019006,169.03817939996952,None,ScrollDown,정답입니다,169.03817939996952,None,169.03817939996952,None,169.03817939996952,None,169.03817939996952,None,170.03909749997547,None,170.03909749997547,170.54137389996322,,,,,,,,,,,,,,,,,,,,,,,,,,,,,,,,,,,,,,,,,,,,,,,,,001,2022-05-02_11h24.28.800,FishGame,2022.1.1,59.80775396090755,
,3,나를 보내줘,6,Orange,A,0,0,ScrollUp,ScrollDown,Orange.png,practice,,,0,0,0,0,,,,,0,1,1,1,0,2,2,2,,,,,,,,,,,,,,,,,,,,,,,,,,,,,,,,,,,,,,,,,,,,,,,,,,,,,,,,1.6435185223817825,1.0425141000305302,171.16222409997135,None,ScrollUp,정답입니다,171.16222409997135,None,171.16222409997135,None,171.16222409997135,None,171.16222409997135,None,172.10573299997486,None,172.10573299997486,172.60796709998976,,,,,,,,,,,,,,,,,,,,,,,,,,,,,,,,,,,,,,,,,,,,,,,,,001,2022-05-02_11h24.28.800,FishGame,2022.1.1,59.80775396090755,
,4,나를 데려가줘,6,Green,B,0,0,ScrollDown,ScrollUp,Green.png,practice,,,0,0,0,0,,,,,0,1,1,1,0,3,3,3,,,,,,,,,,,,,,,,,,,,,,,,,,,,,,,,,,,,,,,,,,,,,,,,,,,,,,,,1,1.0614692999515682,173.22462090000045,None,ScrollDown,정답입니다,173.22462090000045,None,173.22462090000045,None,173.22462090000045,None,173.22462090000045,None,174.18900720000966,None,174.18900720000966,174.6911588999792,,,,,,,,,,,,,,,,,,,,,,,,,,,,,,,,,,,,,,,,,,,,,,,,,001,2022-05-02_11h24.28.800,FishGame,2022.1.1,59.80775396090755,
,2,넌 슬기로워,2,Orange,A,6.166666666666667,4.1,ScrollDown,ScrollUp,Orange.png,practice,,,0,0,0,0,,,,,0,1,1,1,,,,,,,,,,,,,,,,,,,,,,,,,,,,,,,,,,,,,,,,,,,,,,,,,,,,,,,,,,,,,,,,,,,,,,,,,,,,,,n,5.042607999988832,175.18908189999638,None,175.18908189999638,None,,,,,,,,,,,,,,,,,,,,,,,,,,,,,,,,,,,,,,,,,,,001,2022-05-02_11h24.28.800,FishGame,2022.1.1,59.80775396090755,
,1,넌 따뜻해,1,Green,B,6.083333333333333,5.6,ScrollUp,ScrollDown,Green.png,1,Positive,Incongruent,0,0,0,0,,,,,,,,,,,,,0,0,0,0,,,,,,,,,,,,,,,,,,,,,,,,,,,,,,,,,,,,,,,,,,,,186.82202259998303,188.3276936999755,188.3441817999701,189.30544799997006,189.3578456999967,190.31085099995835,190.2941813999787,None,,,,,,,,,,,,,,,,,,,,,,,,,0.0018518518,-0.12777779,1,0,0,0.3008644100627862,None,180.25559949997114,None,1.7716049303611119,1.6238832999952137,191.61501670000143,None,ScrollUp,정답입니다,191.61501670000143,None,191.61501670000143,None,191.61501670000143,None,191.61501670000143,None,192.9386552000069,None,192.9386552000069,193.44094359996961,,,,,,,,,,,,,,,,001,2022-05-02_11h24.28.800,FishGame,2022.1.1,59.80775396090755,
,2,넌 기품있어,2,Green,B,5.791666666666668,4.5,ScrollUp,ScrollDown,Green.png,1,Positive,Incongruent,0,0,0,0,,,,,,,,,,,,,0,1,1,1,,,,,,,,,,,,,,,,,,,,,,,,,,,,,,,,,,,,,,,,,,,,,,,,,,,,,,,,,,,,,,,,,,,,,,,,,,,,,,,,,,,,,1.6234567910432816,1.0264630000456236,194.0817350000143,None,ScrollUp,정답입니다,194.0817350000143,None,194.0817350000143,None,194.0817350000143,None,194.0817350000143,None,194.9886757999775,None,194.9886757999775,195.49087300000247,,,,,,,,,,,,,,,,001,2022-05-02_11h24.28.800,FishGame,2022.1.1,59.80775396090755,
,3,나를 보내줘,6,Orange,A,0,0,ScrollUp,ScrollDown,Orange.png,1,NonTarget,NonTarget,0,0,0,0,,,,,,,,,,,,,0,2,2,2,,,,,,,,,,,,,,,,,,,,,,,,,,,,,,,,,,,,,,,,,,,,,,,,,,,,,,,,,,,,,,,,,,,,,,,,,,,,,,,,,,,,,1.7685185273488362,1.2087927000247873,196.12615819997154,None,ScrollUp,정답입니다,196.12615819997154,None,196.12615819997154,None,196.12615819997154,None,196.12615819997154,None,197.2241389999981,None,197.2241389999981,197.7407525999588,,,,,,,,,,,,,,,,001,2022-05-02_11h24.28.800,FishGame,2022.1.1,59.80775396090755,
,4,넌 수동적이야,4,Orange,A,2.833333333333333,2.933333333333333,ScrollDown,ScrollUp,Orange.png,1,Negative,Incongruent,0,0,0,0,,,,,,,,,,,,,0,3,3,3,,,,,,,,,,,,,,,,,,,,,,,,,,,,,,,,,,,,,,,,,,,,,,,,,,,,,,,,,,,,,,,,,,,,,,,,,,,,,,,,,,,,,1.040123442808787,1.4925749999820255,198.37493669998366,None,ScrollDown,정답입니다,198.37493669998366,None,198.37493669998366,None,198.37493669998366,None,198.37493669998366,None,199.7548748999834,None,199.7548748999834,200.25495729997056,,,,,,,,,,,,,,,,001,2022-05-02_11h24.28.800,FishGame,2022.1.1,59.80775396090755,
,5,넌 사심이 없어,3,Green,B,4.916666666666666,4.333333333333333,ScrollUp,ScrollDown,Green.png,1,Neutral,Neutral,0,0,0,0,,,,,,,,,,,,,0,4,4,4,,,,,,,,,,,,,,,,,,,,,,,,,,,,,,,,,,,,,,,,,,,,,,,,,,,,,,,,,,,,,,,,,,,,,,,,,,,,,,,,,,,,,1.6311728358268738,1.2618878000066616,200.88156189996516,None,ScrollUp,정답입니다,200.88156189996516,None,200.88156189996516,None,200.88156189996516,None,200.88156189996516,None,202.0408101999783,None,202.0408101999783,202.54076429997804,,,,,,,,,,,,,,,,001,2022-05-02_11h24.28.800,FishGame,2022.1.1,59.80775396090755,
,6,넌 헤퍼,5,Orange,A,2.458333333333334,2.233333333333333,ScrollDown,ScrollUp,Orange.png,1,Negative,Incongruent,0,0,0,0,,,,,,,,,,,,,0,5,5,5,,,,,,,,,,,,,,,,,,,,,,,,,,,,,,,,,,,,,,,,,,,,,,,,,,,,,,,,,,,,,,,,,,,,,,,,,,,,,,,,,,,,,1.0756172637144725,1.2940645000198856,203.1662075999775,None,ScrollDown,정답입니다,203.1662075999775,None,203.1662075999775,None,203.1662075999775,None,203.1662075999775,None,204.3550188000081,None,204.3550188000081,204.85511309996946,,,,,,,,,,,,,,,,001,2022-05-02_11h24.28.800,FishGame,2022.1.1,59.80775396090755,
,7,넌 말쑥해,3,Orange,A,4.833333333333334,4.333333333333333,ScrollDown,ScrollUp,Orange.png,1,Neutral,Neutral,0,0,0,0,,,,,,,,,,,,,0,6,6,6,,,,,,,,,,,,,,,,,,,,,,,,,,,,,,,,,,,,,,,,,,,,,,,,,,,,,,,,,,,,,,,,,,,,,,,,,,,,,,,,,,,,,1.0787036915620167,0.9934160999837331,205.47961360000772,None,ScrollDown,정답입니다,205.47961360000772,None,205.47961360000772,None,205.47961360000772,None,205.47961360000772,None,206.3716994000133,None,206.3716994000133,206.87400690000504,,,,,,,,,,,,,,,,001,2022-05-02_11h24.28.800,FishGame,2022.1.1,59.80775396090755,
,8,넌 투덜거려,5,Green,B,2.541666666666667,2.266666666666667,ScrollUp,ScrollDown,Green.png,1,Negative,Congruent,0,0,0,0,,,,,,,,,,,,,0,7,7,7,,,,,,,,,,,,,,,,,,,,,,,,,,,,,,,,,,,,,,,,,,,,,,,,,,,,,,,,,,,,,,,,,,,,,,,,,,,,,,,,,,,,,1.7253086368242898,1.0946679000044242,207.50599229999352,None,ScrollUp,정답입니다,207.50599229999352,None,207.50599229999352,None,207.50599229999352,None,207.50599229999352,None,208.48832179995952,None,208.48832179995952,208.98832750000292,,,,,,,,,,,,,,,,001,2022-05-02_11h24.28.800,FishGame,2022.1.1,59.80775396090755,
,9,넌 적극적이야,1,Orange,A,5.708333333333333,5.533333333333333,ScrollDown,ScrollUp,Orange.png,1,Positive,Congruent,0,0,0,0,,,,,,,,,,,,,0,8,8,8,,,,,,,,,,,,,,,,,,,,,,,,,,,,,,,,,,,,,,,,,,,,,,,,,,,,,,,,,,,,,,,,,,,,,,,,,,,,,,,,,,,,,1,1.2092218999750912,209.61464929999784,None,ScrollDown,정답입니다,209.61464929999784,None,209.61464929999784,None,209.61464929999784,None,209.61464929999784,None,210.72161319997394,None,210.72161319997394,211.22383169998648,,,,,,,,,,,,,,,,001,2022-05-02_11h24.28.800,FishGame,2022.1.1,59.80775396090755,
,10,넌 재미없어,4,Green,B,2.625,2.966666666666667,ScrollUp,ScrollDown,Green.png,1,Negative,Congruent,0,0,0,0,,,,,,,,,,,,,0,9,9,9,,,,,,,,,,,,,,,,,,,,,,,,,,,,,,,,,,,,,,,,,,,,,,,,,,,,,,,,,,,,,,,,,,,,,,,,,,,,,,,,,,,,,1.6250000049670539,1.1092131999903359,211.8471809999901,None,ScrollUp,정답입니다,211.8471809999901,None,211.8471809999901,None,211.8471809999901,None,211.8471809999901,None,212.85484330001054,None,212.85484330001054,213.35706800001208,,,,,,,,,,,,,,,,001,2022-05-02_11h24.28.800,FishGame,2022.1.1,59.80775396090755,
,11,넌 명석해,2,Orange,A,5.875,4.033333333333333,ScrollDown,ScrollUp,Orange.png,1,Positive,Congruent,0,0,0,0,,,,,,,,,,,,,0,10,10,10,,,,,,,,,,,,,,,,,,,,,,,,,,,,,,,,,,,,,,,,,,,,,,,,,,,,,,,,,,,,,,,,,,,,,,,,,,,,,,,,,,,,,1.016975333293279,1.178232200036291,213.9928487999714,None,ScrollDown,정답입니다,213.9928487999714,None,213.9928487999714,None,213.9928487999714,None,213.9928487999714,None,215.05486329999985,None,215.05486329999985,215.55491149995942,,,,,,,,,,,,,,,,001,2022-05-02_11h24.28.800,FishGame,2022.1.1,59.80775396090755,
,12,나를 데려가줘,6,Green,B,0,0,ScrollDown,ScrollUp,Green.png,1,NonTarget,NonTarget,0,0,0,0,,,,,,,,,,,,,0,11,11,11,,,,,,,,,,,,,,,,,,,,,,,,,,,,,,,,,,,,,,,,,,,,,,,,,,,,,,,,,,,,,,,,,,,,,,,,,,,,,,,,,,,,,1.0015431940555573,1.2760587999946438,216.18212770001264,None,ScrollDown,정답입니다,216.18212770001264,None,216.18212770001264,None,216.18212770001264,None,216.18212770001264,None,217.35475369996857,None,217.35475369996857,217.85483419999946,,,,,,,,,,,,,,,,001,2022-05-02_11h24.28.800,FishGame,2022.1.1,59.80775396090755,
,13,넌 소심해,4,Orange,A,3,3.1,ScrollDown,ScrollUp,Orange.png,1,Negative,Incongruent,0,0,0,0,,,,,,,,,,,,,0,12,12,12,,,,,,,,,,,,,,,,,,,,,,,,,,,,,,,,,,,,,,,,,,,,,,,,,,,,,,,,,,,,,,,,,,,,,,,,,,,,,,,,,,,,,1.1080246816078823,1.3113464000052772,218.48214310000185,None,ScrollDown,정답입니다,218.48214310000185,None,218.48214310000185,None,218.48214310000185,None,218.48214310000185,None,219.68810139998095,None,219.68810139998095,220.19036030001007,,,,,,,,,,,,,,,,001,2022-05-02_11h24.28.800,FishGame,2022.1.1,59.80775396090755,
,14,넌 합리적이야,2,Orange,A,5.583333333333333,4.733333333333333,ScrollDown,ScrollUp,Orange.png,1,Positive,Congruent,0,0,0,0,,,,,,,,,,,,,0,13,13,13,,,,,,,,,,,,,,,,,,,,,,,,,,,,,,,,,,,,,,,,,,,,,,,,,,,,,,,,,,,,,,,,,,,,,,,,,,,,,,,,,,,,,1.0015431940555573,1.1591342999599874,220.8306722000125,None,ScrollDown,정답입니다,220.8306722000125,None,220.8306722000125,None,220.8306722000125,None,220.8306722000125,None,221.87134039995726,None,221.87134039995726,222.37139659997774,,,,,,,,,,,,,,,,001,2022-05-02_11h24.28.800,FishGame,2022.1.1,59.80775396090755,
,15,넌 무자비해,5,Green,B,2.333333333333333,2.1,ScrollUp,ScrollDown,Green.png,1,Negative,Congruent,0,0,0,0,,,,,,,,,,,,,0,14,14,14,,,,,,,,,,,,,,,,,,,,,,,,,,,,,,,,,,,,,,,,,,,,,,,,,,,,,,,,,,,,,,,,,,,,,,,,,,,,,,,,,,,,,1.743827154239019,1.078012400015723,222.99581140000373,None,ScrollUp,정답입니다,222.99581140000373,None,222.99581140000373,None,222.99581140000373,None,222.99581140000373,None,223.97137290000683,None,223.97137290000683,224.4735359000042,,,,,,,,,,,,,,,,001,2022-05-02_11h24.28.800,FishGame,2022.1.1,59.80775396090755,
,16,나를 보내줘,6,Orange,A,0,0,ScrollUp,ScrollDown,Orange.png,1,NonTarget,NonTarget,0,0,0,0,,,,,,,,,,,,,0,15,15,15,,,,,,,,,,,,,,,,,,,,,,,,,,,,,,,,,,,,,,,,,,,,,,,,,,,,,,,,,,,,,,,,,,,,,,,,,,,,,,,,,,,,,1.8564814726511638,1.1780841000145301,225.09719269996276,None,ScrollUp,정답입니다,225.09719269996276,None,225.09719269996276,None,225.09719269996276,None,225.09719269996276,None,226.17129979998572,None,226.17129979998572,226.6736024999991,,,,,,,,,,,,,,,,001,2022-05-02_11h24.28.800,FishGame,2022.1.1,59.80775396090755,
,17,넌 현실적이야,3,Green,B,4.608695652173913,4.766666666666667,ScrollUp,ScrollDown,Green.png,1,Neutral,Neutral,0,0,0,0,,,,,,,,,,,,,0,16,16,16,,,,,,,,,,,,,,,,,,,,,,,,,,,,,,,,,,,,,,,,,,,,,,,,,,,,,,,,,,,,,,,,,,,,,,,,,,,,,,,,,,,,,1.7345678955316544,1.0095252000028268,227.3079839000129,None,ScrollUp,정답입니다,227.3079839000129,None,227.3079839000129,None,227.3079839000129,None,227.3079839000129,None,228.20430589996977,None,228.20430589996977,228.7043854999938,,,,,,,,,,,,,,,,001,2022-05-02_11h24.28.800,FishGame,2022.1.1,59.80775396090755,
,18,넌 의리있어,1,Green,B,5.833333333333334,5.633333333333334,ScrollUp,ScrollDown,Green.png,1,Positive,Incongruent,0,0,0,0,,,,,,,,,,,,,0,17,17,17,,,,,,,,,,,,,,,,,,,,,,,,,,,,,,,,,,,,,,,,,,,,,,,,,,,,,,,,,,,,,,,,,,,,,,,,,,,,,,,,,,,,,1.8641975422700245,0.994916399999056,229.3254468999803,None,ScrollUp,정답입니다,229.3254468999803,None,229.3254468999803,None,229.3254468999803,None,229.3254468999803,None,230.22356319997925,None,230.22356319997925,230.7235428999993,,,,,,,,,,,,,,,,001,2022-05-02_11h24.28.800,FishGame,2022.1.1,59.80775396090755,
,19,넌 신경과민이야,5,Orange,A,2.541666666666667,2.166666666666667,ScrollDown,ScrollUp,Orange.png,1,Negative,Incongruent,0,0,0,0,,,,,,,,,,,,,0,18,18,18,,,,,,,,,,,,,,,,,,,,,,,,,,,,,,,,,,,,,,,,,,,,,,,,,,,,,,,,,,,,,,,,,,,,,,,,,,,,,,,,,,,,,1.1774691343307495,1.029512999986764,231.34695139998803,None,ScrollDown,정답입니다,231.34695139998803,None,231.34695139998803,None,231.34695139998803,None,231.34695139998803,None,232.2734700999572,None,232.2734700999572,232.78997739998158,,,,,,,,,,,,,,,,001,2022-05-02_11h24.28.800,FishGame,2022.1.1,59.80775396090755,
,20,넌 편안해,1,Orange,A,5.916666666666666,5.866666666666666,ScrollDown,ScrollUp,Orange.png,1,Positive,Congruent,0,0,0,0,,,,,,,,,,,,,0,19,19,19,,,,,,,,,,,,,,,,,,,,,,,,,,,,,,,,,,,,,,,,,,,,,,,,,,,,,,,,,,,,,,,,,,,,,,,,,,,,,,,,,,,,,1.1373456716537476,0.9779971000389196,233.41125909995753,None,ScrollDown,정답입니다,233.41125909995753,None,233.41125909995753,None,233.41125909995753,None,233.41125909995753,None,234.28780579997692,None,234.28780579997692,234.79011389997322,,,,,,,,,,,,,,,,001,2022-05-02_11h24.28.800,FishGame,2022.1.1,59.80775396090755,
,21,넌 품위있어,2,Green,B,5.291666666666666,4.466666666666667,ScrollUp,ScrollDown,Green.png,1,Positive,Incongruent,0,0,0,0,,,,,,,,,,,,,0,20,20,20,,,,,,,,,,,,,,,,,,,,,,,,,,,,,,,,,,,,,,,,,,,,,,,,,,,,,,,,,,,,,,,,,,,,,,,,,,,,,,,,,,,,,1.71913580596447,0.9424785999581218,235.4168579999823,None,ScrollUp,정답입니다,235.4168579999823,None,235.4168579999823,None,235.4168579999823,None,235.4168579999823,None,236.25447709998116,None,236.25447709998116,236.75662060000468,,,,,,,,,,,,,,,,001,2022-05-02_11h24.28.800,FishGame,2022.1.1,59.80775396090755,
,22,넌 빈틈없어,3,Orange,A,4.833333333333333,3.966666666666667,ScrollDown,ScrollUp,Orange.png,1,Neutral,Neutral,0,0,0,0,,,,,,,,,,,,,0,21,21,21,,,,,,,,,,,,,,,,,,,,,,,,,,,,,,,,,,,,,,,,,,,,,,,,,,,,,,,,,,,,,,,,,,,,,,,,,,,,,,,,,,,,,1.2700617214043937,0.92814490001183,237.38057370000752,None,ScrollDown,정답입니다,237.38057370000752,None,237.38057370000752,None,237.38057370000752,None,237.38057370000752,None,238.20439269999042,None,238.20439269999042,238.7044564000098,,,,,,,,,,,,,,,,001,2022-05-02_11h24.28.800,FishGame,2022.1.1,59.80775396090755,
,23,넌 상상력없어,4,Green,B,2.833333333333333,3.133333333333333,ScrollUp,ScrollDown,Green.png,1,Negative,Congruent,0,0,0,0,,,,,,,,,,,,,0,22,22,22,,,,,,,,,,,,,,,,,,,,,,,,,,,,,,,,,,,,,,,,,,,,,,,,,,,,,,,,,,,,,,,,,,,,,,,,,,,,,,,,,,,,,1.6898148159186044,0.9091108000138775,239.32950980000896,None,ScrollUp,정답입니다,239.32950980000896,None,239.32950980000896,None,239.32950980000896,None,239.32950980000896,None,240.1377259999863,None,240.1377259999863,240.63769529998535,,,,,,,,,,,,,,,,001,2022-05-02_11h24.28.800,FishGame,2022.1.1,59.80775396090755,
,24,넌 지혜로워,2,Green,B,6.333333333333334,4.633333333333334,ScrollUp,ScrollDown,Green.png,1,Positive,Incongruent,0,0,0,0,,,,,,,,,,,,,0,23,23,23,,,,,,,,,,,,,,,,,,,,,,,,,,,,,,,,,,,,,,,,,,,,,,,,,,,,,,,,,,,,,,,,,,,,,,,,,,,,,,,,,,,,,1.807098776102066,0.9089851999888197,241.26607429998694,None,ScrollUp,정답입니다,241.26607429998694,None,241.26607429998694,None,241.26607429998694,None,241.26607429998694,None,242.07099619996734,None,242.07099619996734,242.57103549997555,,,,,,,,,,,,,,,,001,2022-05-02_11h24.28.800,FishGame,2022.1.1,59.80775396090755,
,25,넌 시끄러워,4,Orange,A,2.833333333333333,3.033333333333333,ScrollDown,ScrollUp,Orange.png,1,Negative,Incongruent,0,0,0,0,,,,,,,,,,,,,0,24,24,24,,,,,,,,,,,,,,,,,,,,,,,,,,,,,,,,,,,,,,,,,,,,,,,,,,,,,,,,,,,,,,,,,,,,,,,,,,,,,,,,,,,,,1.1851851791143417,0.9779477000120096,243.20010779995937,None,ScrollDown,정답입니다,243.20010779995937,None,243.20010779995937,None,243.20010779995937,None,243.20010779995937,None,244.07098979997681,None,244.07098979997681,244.57102540001506,,,,,,,,,,,,,,,,001,2022-05-02_11h24.28.800,FishGame,2022.1.1,59.80775396090755,
,26,넌 만사태평이야,3,Green,B,4,4.333333333333333,ScrollUp,ScrollDown,Green.png,1,Neutral,Neutral,0,0,0,0,,,,,,,,,,,,,0,25,25,25,,,,,,,,,,,,,,,,,,,,,,,,,,,,,,,,,,,,,,,,,,,,,,,,,,,,,,,,,,,,,,,,,,,,,,,,,,,,,,,,,,,,,1.7175925920406976,0.992564499960281,245.19708559999708,None,ScrollUp,정답입니다,245.19708559999708,None,245.19708559999708,None,245.19708559999708,None,245.19708559999708,None,246.08751619997201,None,246.08751619997201,246.5897117999848,,,,,,,,,,,,,,,,001,2022-05-02_11h24.28.800,FishGame,2022.1.1,59.80775396090755,
,27,넌 붙임성있어,1,Orange,A,5.708333333333333,5.633333333333334,ScrollDown,ScrollUp,Orange.png,1,Positive,Congruent,0,0,0,0,,,,,,,,,,,,,0,26,26,26,,,,,,,,,,,,,,,,,,,,,,,,,,,,,,,,,,,,,,,,,,,,,,,,,,,,,,,,,,,,,,,,,,,,,,,,,,,,,,,,,,,,,1.2083333383003871,0.9456429000128992,247.21172859997023,None,ScrollDown,정답입니다,247.21172859997023,None,247.21172859997023,None,247.21172859997023,None,247.21172859997023,None,248.05648369999835,None,248.05648369999835,248.5564123999793,,,,,,,,,,,,,,,,001,2022-05-02_11h24.28.800,FishGame,2022.1.1,59.80775396090755,
,28,넌 영리해,2,Orange,A,6,4.033333333333333,ScrollDown,ScrollUp,Orange.png,1,Positive,Congruent,0,0,0,0,,,,,,,,,,,,,0,27,27,27,,,,,,,,,,,,,,,,,,,,,,,,,,,,,,,,,,,,,,,,,,,,,,,,,,,,,,,,,,,,,,,,,,,,,,,,,,,,,,,,,,,,,1.2793209801117578,0.9260102999978699,249.18248229997698,None,ScrollDown,정답입니다,249.18248229997698,None,249.18248229997698,None,249.18248229997698,None,249.18248229997698,None,250.00639170000795,None,250.00639170000795,250.52305550000165,,,,,,,,,,,,,,,,001,2022-05-02_11h24.28.800,FishGame,2022.1.1,59.80775396090755,
,29,넌 열심이야,1,Green,B,6.041666666666667,5.833333333333333,ScrollUp,ScrollDown,Green.png,1,Positive,Incongruent,0,0,0,0,,,,,,,,,,,,,0,28,28,28,,,,,,,,,,,,,,,,,,,,,,,,,,,,,,,,,,,,,,,,,,,,,,,,,,,,,,,,,,,,,,,,,,,,,,,,,,,,,,,,,,,,,1.6219135771195092,0.8784078999888152,251.14448039996205,None,ScrollUp,정답입니다,251.14448039996205,None,251.14448039996205,None,251.14448039996205,None,251.14448039996205,None,251.92078069999116,None,251.92078069999116,252.422945600003,,,,,,,,,,,,,,,,001,2022-05-02_11h24.28.800,FishGame,2022.1.1,59.80775396090755,
,30,넌 인기없어,4,Green,B,3,3.3,ScrollUp,ScrollDown,Green.png,1,Negative,Congruent,0,0,0,0,,,,,,,,,,,,,0,29,29,29,,,,,,,,,,,,,,,,,,,,,,,,,,,,,,,,,,,,,,,,,,,,,,,,,,,,,,,,,,,,,,,,,,,,,,,,,,,,,,,,,,,,,1.878086417913437,0.8605351999867707,253.04178580001462,None,ScrollUp,정답입니다,253.04178580001462,None,253.04178580001462,None,253.04178580001462,None,253.04178580001462,None,253.8040856999578,None,253.8040856999578,254.30407519999426,,,,,,,,,,,,,,,,001,2022-05-02_11h24.28.800,FishGame,2022.1.1,59.80775396090755,
,31,넌 익살스러워,3,Orange,A,4.708333333333334,4.833333333333333,ScrollDown,ScrollUp,Orange.png,1,Neutral,Neutral,0,0,0,0,,,,,,,,,,,,,0,30,30,30,,,,,,,,,,,,,,,,,,,,,,,,,,,,,,,,,,,,,,,,,,,,,,,,,,,,,,,,,,,,,,,,,,,,,,,,,,,,,,,,,,,,,1.0787036915620167,0.992264200001955,254.9396507999627,None,ScrollDown,정답입니다,254.9396507999627,None,254.9396507999627,None,254.9396507999627,None,254.9396507999627,None,255.82042359997286,None,255.82042359997286,256.3204855999793,,,,,,,,,,,,,,,,001,2022-05-02_11h24.28.800,FishGame,2022.1.1,59.80775396090755,
,32,넌 이기적이야,5,Green,B,2.291666666666667,2.333333333333333,ScrollUp,ScrollDown,Green.png,1,Negative,Congruent,0,0,0,0,,,,,,,,,,,,,0,31,31,31,,,,,,,,,,,,,,,,,,,,,,,,,,,,,,,,,,,,,,,,,,,,,,,,,,,,,,,,,,,,,,,,,,,,,,,,,,,,,,,,,,,,,1.8009259204069774,0.878574899979867,256.93700519995764,None,ScrollUp,정답입니다,256.93700519995764,None,256.93700519995764,None,256.93700519995764,None,256.93700519995764,None,257.72294589999365,None,257.72294589999365,258.223030299996,,,,,,,,,,,,,,,,001,2022-05-02_11h24.28.800,FishGame,2022.1.1,59.80775396090755,
,33,나를 데려가줘,6,Green,B,0,0,ScrollDown,ScrollUp,Green.png,1,NonTarget,NonTarget,0,0,0,0,,,,,,,,,,,,,0,32,32,32,,,,,,,,,,,,,,,,,,,,,,,,,,,,,,,,,,,,,,,,,,,,,,,,,,,,,,,,,,,,,,,,,,,,,,,,,,,,,,,,,,,,,1.0540123681227367,1.0271423000376672,258.8403583999607,None,ScrollDown,정답입니다,258.8403583999607,None,258.8403583999607,None,258.8403583999607,None,258.8403583999607,None,259.77071349998005,None,259.77071349998005,260.27606939995894,,,,,,,,,,,,,,,,001,2022-05-02_11h24.28.800,FishGame,2022.1.1,59.80775396090755,
,34,넌 기회주의자야,5,Orange,A,2.875,2.133333333333333,ScrollDown,ScrollUp,Orange.png,1,Negative,Incongruent,0,0,0,0,,,,,,,,,,,,,0,33,33,33,,,,,,,,,,,,,,,,,,,,,,,,,,,,,,,,,,,,,,,,,,,,,,,,,,,,,,,,,,,,,,,,,,,,,,,,,,,,,,,,,,,,,1,1.0280771999969147,260.89892889995826,None,ScrollDown,정답입니다,260.89892889995826,None,260.89892889995826,None,260.89892889995826,None,260.89892889995826,None,261.82055939995917,None,261.82055939995917,262.32272759999614,,,,,,,,,,,,,,,,001,2022-05-02_11h24.28.800,FishGame,2022.1.1,59.80775396090755,
,1,넌 미성숙해,4,Orange,A,3,3.2,ScrollDown,ScrollUp,Orange.png,2,Negative,Incongruent,0,0,0,0,,,,,,,,,,,,,,,,,0,0,0,0,,,,,,,,,,,,,,,,,,,,,,,,,,,,,,,,,,,,,,,,297.10324570001103,298.6086643000017,298.6419830999803,299.6032317999634,299.6388614999596,300.5919807999744,300.5919807999744,None,,,,,,,,,,,,,,,,,,,,,,,,,,,,,,,,,,1.1851851791143417,1.0682482999982312,301.70120429998497,None,ScrollDown,정답입니다,301.70120429998497,None,301.70120429998497,None,301.70120429998497,None,301.70120429998497,None,302.6698222999694,None,302.6698222999694,303.1697904999601,262.8205744000152,None,262.8205744000152,None,0.12037037,-0.09074074,1,0,0,0.015754010062664747,None,292.8199857000145,None,,,001,2022-05-02_11h24.28.800,FishGame,2022.1.1,59.80775396090755,
,2,넌 반사회적이야,5,Green,B,2.416666666666667,2.033333333333333,ScrollUp,ScrollDown,Green.png,2,Negative,Congruent,0,0,0,0,,,,,,,,,,,,,,,,,0,1,1,1,,,,,,,,,,,,,,,,,,,,,,,,,,,,,,,,,,,,,,,,,,,,,,,,,,,,,,,,,,,,,,,,,,,,,,,,,,,,,,,,,1.5879629639287791,0.8756392999785021,303.79992449999554,None,ScrollUp,정답입니다,303.79992449999554,None,303.79992449999554,None,303.79992449999554,None,303.79992449999554,None,304.56968419998884,None,304.56968419998884,305.07001199998194,,,,,,,,,,,,,,,,001,2022-05-02_11h24.28.800,FishGame,2022.1.1,59.80775396090755,
,3,넌 유능해,2,Orange,A,6.208333333333333,4.433333333333334,ScrollDown,ScrollUp,Orange.png,2,Positive,Congruent,0,0,0,0,,,,,,,,,,,,,,,,,0,2,2,2,,,,,,,,,,,,,,,,,,,,,,,,,,,,,,,,,,,,,,,,,,,,,,,,,,,,,,,,,,,,,,,,,,,,,,,,,,,,,,,,,1.1234567960103352,0.8613097000052221,305.6977881999919,None,ScrollDown,정답입니다,305.6977881999919,None,305.6977881999919,None,305.6977881999919,None,305.6977881999919,None,306.4530264000059,None,306.4530264000059,306.9530366999679,,,,,,,,,,,,,,,,001,2022-05-02_11h24.28.800,FishGame,2022.1.1,59.80775396090755,
,4,넌 능숙해,2,Green,B,5.666666666666667,4.733333333333333,ScrollUp,ScrollDown,Green.png,2,Positive,Incongruent,0,0,0,0,,,,,,,,,,,,,,,,,0,3,3,3,,,,,,,,,,,,,,,,,,,,,,,,,,,,,,,,,,,,,,,,,,,,,,,,,,,,,,,,,,,,,,,,,,,,,,,,,,,,,,,,,1.746913582086563,0.8595249999780208,307.5738382000127,None,ScrollUp,정답입니다,307.5738382000127,None,307.5738382000127,None,307.5738382000127,None,307.5738382000127,None,308.3363482999848,None,308.3363482999848,308.83848380000563,,,,,,,,,,,,,,,,001,2022-05-02_11h24.28.800,FishGame,2022.1.1,59.80775396090755,
,5,넌 진부해,4,Green,B,2.458333333333333,3.166666666666667,ScrollUp,ScrollDown,Green.png,2,Negative,Congruent,0,0,0,0,,,,,,,,,,,,,,,,,0,4,4,4,,,,,,,,,,,,,,,,,,,,,,,,,,,,,,,,,,,,,,,,,,,,,,,,,,,,,,,,,,,,,,,,,,,,,,,,,,,,,,,,,1.6805555572112403,0.8448117999942042,309.4564705999801,None,ScrollUp,정답입니다,309.4564705999801,None,309.4564705999801,None,309.4564705999801,None,309.4564705999801,None,310.2029397999868,None,310.2029397999868,310.7029743999592,,,,,,,,,,,,,,,,001,2022-05-02_11h24.28.800,FishGame,2022.1.1,59.80775396090755,
,6,나를 보내줘,6,Orange,A,0,0,ScrollUp,ScrollDown,Orange.png,2,NonTarget,NonTarget,0,0,0,0,,,,,,,,,,,,,,,,,0,5,5,5,,,,,,,,,,,,,,,,,,,,,,,,,,,,,,,,,,,,,,,,,,,,,,,,,,,,,,,,,,,,,,,,,,,,,,,,,,,,,,,,,1.6851851865649223,0.9783797999843955,311.32564519997686,None,ScrollUp,정답입니다,311.32564519997686,None,311.32564519997686,None,311.32564519997686,None,311.32564519997686,None,312.20292670000345,None,312.20292670000345,312.70298279996496,,,,,,,,,,,,,,,,001,2022-05-02_11h24.28.800,FishGame,2022.1.1,59.80775396090755,
,7,넌 엄격해,3,Orange,A,4.166666666666666,4.1,ScrollDown,ScrollUp,Orange.png,2,Neutral,Neutral,0,0,0,0,,,,,,,,,,,,,,,,,0,6,6,6,,,,,,,,,,,,,,,,,,,,,,,,,,,,,,,,,,,,,,,,,,,,,,,,,,,,,,,,,,,,,,,,,,,,,,,,,,,,,,,,,1.120370368162791,0.8588610999868251,313.3293010999914,None,ScrollDown,정답입니다,313.3293010999914,None,313.3293010999914,None,313.3293010999914,None,313.3293010999914,None,314.0861337999813,None,314.0861337999813,314.58625849999953,,,,,,,,,,,,,,,,001,2022-05-02_11h24.28.800,FishGame,2022.1.1,59.80775396090755,
,8,나를 보내줘,6,Orange,A,0,0,ScrollUp,ScrollDown,Orange.png,2,NonTarget,NonTarget,0,0,0,0,,,,,,,,,,,,,,,,,0,7,7,7,,,,,,,,,,,,,,,,,,,,,,,,,,,,,,,,,,,,,,,,,,,,,,,,,,,,,,,,,,,,,,,,,,,,,,,,,,,,,,,,,1.609567902982235,0.9780917000025511,315.20932859997265,None,ScrollUp,정답입니다,315.20932859997265,None,315.20932859997265,None,315.20932859997265,None,315.20932859997265,None,316.08614460000535,None,316.08614460000535,316.58621569996467,,,,,,,,,,,,,,,,001,2022-05-02_11h24.28.800,FishGame,2022.1.1,59.80775396090755,
,9,넌 대담해,3,Green,B,4.875,4.866666666666666,ScrollUp,ScrollDown,Green.png,2,Neutral,Neutral,0,0,0,0,,,,,,,,,,,,,,,,,0,8,8,8,,,,,,,,,,,,,,,,,,,,,,,,,,,,,,,,,,,,,,,,,,,,,,,,,,,,,,,,,,,,,,,,,,,,,,,,,,,,,,,,,1.6250000049670539,0.8949385000159964,317.2092373999767,None,ScrollUp,정답입니다,317.2092373999767,None,317.2092373999767,None,317.2092373999767,None,317.2092373999767,None,318.0050770000089,None,318.0050770000089,318.50284269999247,,,,,,,,,,,,,,,,001,2022-05-02_11h24.28.800,FishGame,2022.1.1,59.80775396090755,
,10,넌 꾸준해,1,Orange,A,5.916666666666668,5.8,ScrollDown,ScrollUp,Orange.png,2,Positive,Congruent,0,0,0,0,,,,,,,,,,,,,,,,,0,9,9,9,,,,,,,,,,,,,,,,,,,,,,,,,,,,,,,,,,,,,,,,,,,,,,,,,,,,,,,,,,,,,,,,,,,,,,,,,,,,,,,,,1.1975308656692505,0.9593428000225686,319.13821529998677,None,ScrollDown,정답입니다,319.13821529998677,None,319.13821529998677,None,319.13821529998677,None,319.13821529998677,None,319.9860440999619,None,319.9860440999619,320.4882398999762,,,,,,,,,,,,,,,,001,2022-05-02_11h24.28.800,FishGame,2022.1.1,59.80775396090755,
,11,나를 데려가줘,6,Green,B,0,0,ScrollDown,ScrollUp,Green.png,2,NonTarget,NonTarget,0,0,0,0,,,,,,,,,,,,,,,,,0,10,10,10,,,,,,,,,,,,,,,,,,,,,,,,,,,,,,,,,,,,,,,,,,,,,,,,,,,,,,,,,,,,,,,,,,,,,,,,,,,,,,,,,1.1049382785956066,0.9948373000370339,321.1087400999968,None,ScrollDown,정답입니다,321.1087400999968,None,321.1087400999968,None,321.1087400999968,None,321.1087400999968,None,322.0027218000032,None,322.0027218000032,322.5049107999657,,,,,,,,,,,,,,,,001,2022-05-02_11h24.28.800,FishGame,2022.1.1,59.80775396090755,
,12,넌 독선적이야,5,Orange,A,2.458333333333333,1.933333333333333,ScrollDown,ScrollUp,Orange.png,2,Negative,Incongruent,0,0,0,0,,,,,,,,,,,,,,,,,0,11,11,11,,,,,,,,,,,,,,,,,,,,,,,,,,,,,,,,,,,,,,,,,,,,,,,,,,,,,,,,,,,,,,,,,,,,,,,,,,,,,,,,,1.1296296268701553,0.9084705000277609,323.13029749999987,None,ScrollDown,정답입니다,323.13029749999987,None,323.13029749999987,None,323.13029749999987,None,323.13029749999987,None,323.9313078999985,None,323.9313078999985,324.4357923999778,,,,,,,,,,,,,,,,001,2022-05-02_11h24.28.800,FishGame,2022.1.1,59.80775396090755,
,13,나를 보내줘,6,Orange,A,0,0,ScrollUp,ScrollDown,Orange.png,2,NonTarget,NonTarget,0,0,0,0,,,,,,,,,,,,,,,,,0,12,12,12,,,,,,,,,,,,,,,,,,,,,,,,,,,,,,,,,,,,,,,,,,,,,,,,,,,,,,,,,,,,,,,,,,,,,,,,,,,,,,,,,1.7283950646718345,0.8615171000128612,325.05280249996576,None,ScrollUp,정답입니다,325.05280249996576,None,325.05280249996576,None,325.05280249996576,None,325.05280249996576,None,325.8190635999781,None,325.8190635999781,326.3191574999946,,,,,,,,,,,,,,,,001,2022-05-02_11h24.28.800,FishGame,2022.1.1,59.80775396090755,
,14,넌 책임감있어,1,Green,B,6.347826086956522,6,ScrollUp,ScrollDown,Green.png,2,Positive,Incongruent,0,0,0,0,,,,,,,,,,,,,,,,,0,13,13,13,,,,,,,,,,,,,,,,,,,,,,,,,,,,,,,,,,,,,,,,,,,,,,,,,,,,,,,,,,,,,,,,,,,,,,,,,,,,,,,,,1.7206790198882422,0.9761643999954686,326.94499519997044,None,ScrollUp,정답입니다,326.94499519997044,None,326.94499519997044,None,326.94499519997044,None,326.94499519997044,None,327.8215295000118,None,327.8215295000118,328.3216216999572,,,,,,,,,,,,,,,,001,2022-05-02_11h24.28.800,FishGame,2022.1.1,59.80775396090755,
,15,넌 문학적이야,3,Orange,A,4.708333333333334,4.333333333333333,ScrollDown,ScrollUp,Orange.png,2,Neutral,Neutral,0,0,0,0,,,,,,,,,,,,,,,,,0,14,14,14,,,,,,,,,,,,,,,,,,,,,,,,,,,,,,,,,,,,,,,,,,,,,,,,,,,,,,,,,,,,,,,,,,,,,,,,,,,,,,,,,1.0910493781169255,1.0614902999950573,328.9597335999715,None,ScrollDown,정답입니다,328.9597335999715,None,328.9597335999715,None,328.9597335999715,None,328.9597335999715,None,329.9192161000101,None,329.9192161000101,330.4214053999749,,,,,,,,,,,,,,,,001,2022-05-02_11h24.28.800,FishGame,2022.1.1,59.80775396090755,
,16,넌 재미있어,1,Green,B,5.875,5.7,ScrollUp,ScrollDown,Green.png,2,Positive,Incongruent,0,0,0,0,,,,,,,,,,,,,,,,,0,15,15,15,,,,,,,,,,,,,,,,,,,,,,,,,,,,,,,,,,,,,,,,,,,,,,,,,,,,,,,,,,,,,,,,,,,,,,,,,,,,,,,,,1.6466049378116927,0.7762270999955945,331.043663199991,None,ScrollUp,정답입니다,331.043663199991,None,331.043663199991,None,331.043663199991,None,331.043663199991,None,331.7191662999685,None,331.7191662999685,332.2192095000064,,,,,,,,,,,,,,,,001,2022-05-02_11h24.28.800,FishGame,2022.1.1,59.80775396090755,
,17,나를 데려가줘,6,Green,B,0,0,ScrollDown,ScrollUp,Green.png,2,NonTarget,NonTarget,0,0,0,0,,,,,,,,,,,,,,,,,0,16,16,16,,,,,,,,,,,,,,,,,,,,,,,,,,,,,,,,,,,,,,,,,,,,,,,,,,,,,,,,,,,,,,,,,,,,,,,,,,,,,,,,,1.040123442808787,1.1114043000270613,332.8370797999669,None,ScrollDown,정답입니다,332.8370797999669,None,332.8370797999669,None,332.8370797999669,None,332.8370797999669,None,333.85251519997837,None,333.85251519997837,334.3546815000009,,,,,,,,,,,,,,,,001,2022-05-02_11h24.28.800,FishGame,2022.1.1,59.80775396090755,
,18,넌 협력적이야,1,Orange,A,5.625,5.633333333333334,ScrollDown,ScrollUp,Orange.png,2,Positive,Congruent,0,0,0,0,,,,,,,,,,,,,,,,,0,17,17,17,,,,,,,,,,,,,,,,,,,,,,,,,,,,,,,,,,,,,,,,,,,,,,,,,,,,,,,,,,,,,,,,,,,,,,,,,,,,,,,,,1.1466049303611119,0.8948820000514388,334.9748741000076,None,ScrollDown,정답입니다,334.9748741000076,None,334.9748741000076,None,334.9748741000076,None,334.9748741000076,None,335.7691871999996,None,335.7691871999996,336.2713381999638,,,,,,,,,,,,,,,,001,2022-05-02_11h24.28.800,FishGame,2022.1.1,59.80775396090755,
,19,넌 평범해,3,Green,B,4.333333333333332,4.233333333333333,ScrollUp,ScrollDown,Green.png,2,Neutral,Neutral,0,0,0,0,,,,,,,,,,,,,,,,,0,18,18,18,,,,,,,,,,,,,,,,,,,,,,,,,,,,,,,,,,,,,,,,,,,,,,,,,,,,,,,,,,,,,,,,,,,,,,,,,,,,,,,,,1.8564814726511638,0.9278157000080682,336.88960910000606,None,ScrollUp,정답입니다,336.88960910000606,None,336.88960910000606,None,336.88960910000606,None,336.88960910000606,None,337.7190666999668,None,337.7190666999668,338.2191005999921,,,,,,,,,,,,,,,,001,2022-05-02_11h24.28.800,FishGame,2022.1.1,59.80775396090755,
,20,넌 오만해,5,Orange,A,2.333333333333333,2,ScrollDown,ScrollUp,Orange.png,2,Negative,Incongruent,0,0,0,0,,,,,,,,,,,,,,,,,0,19,19,19,,,,,,,,,,,,,,,,,,,,,,,,,,,,,,,,,,,,,,,,,,,,,,,,,,,,,,,,,,,,,,,,,,,,,,,,,,,,,,,,,1.09413580596447,0.7764298000256531,338.84390769997844,None,ScrollDown,정답입니다,338.84390769997844,None,338.84390769997844,None,338.84390769997844,None,338.84390769997844,None,339.519030299969,None,339.519030299969,340.0212480999762,,,,,,,,,,,,,,,,001,2022-05-02_11h24.28.800,FishGame,2022.1.1,59.80775396090755,
,21,넌 운이없어,4,Green,B,3,3.466666666666667,ScrollUp,ScrollDown,Green.png,2,Negative,Congruent,0,0,0,0,,,,,,,,,,,,,,,,,0,20,20,20,,,,,,,,,,,,,,,,,,,,,,,,,,,,,,,,,,,,,,,,,,,,,,,,,,,,,,,,,,,,,,,,,,,,,,,,,,,,,,,,,1.7793209999799728,0.873326700006146,340.64121480000904,None,ScrollUp,정답입니다,340.64121480000904,None,340.64121480000904,None,340.64121480000904,None,340.64121480000904,None,341.41429759998573,None,341.41429759998573,341.9187954000081,,,,,,,,,,,,,,,,001,2022-05-02_11h24.28.800,FishGame,2022.1.1,59.80775396090755,
,22,넌 창조적이야,2,Green,B,6.125,4.633333333333334,ScrollUp,ScrollDown,Green.png,2,Positive,Incongruent,0,0,0,0,,,,,,,,,,,,,,,,,0,21,21,21,,,,,,,,,,,,,,,,,,,,,,,,,,,,,,,,,,,,,,,,,,,,,,,,,,,,,,,,,,,,,,,,,,,,,,,,,,,,,,,,,1.89969136317571,0.8618909000069834,342.54169079998974,None,ScrollUp,정답입니다,342.54169079998974,None,342.54169079998974,None,342.54169079998974,None,342.54169079998974,None,343.30206099996576,None,343.30206099996576,343.80213009996805,,,,,,,,,,,,,,,,001,2022-05-02_11h24.28.800,FishGame,2022.1.1,59.80775396090755,
,23,나를 보내줘,6,Orange,A,0,0,ScrollUp,ScrollDown,Orange.png,2,NonTarget,NonTarget,0,0,0,0,,,,,,,,,,,,,,,,,0,22,22,22,,,,,,,,,,,,,,,,,,,,,,,,,,,,,,,,,,,,,,,,,,,,,,,,,,,,,,,,,,,,,,,,,,,,,,,,,,,,,,,,,1.9938271641731262,0.9474716000258923,344.421729099995,None,ScrollUp,정답입니다,344.421729099995,None,344.421729099995,None,344.421729099995,None,344.421729099995,None,345.27129539998714,None,345.27129539998714,345.7712851999677,,,,,,,,,,,,,,,,001,2022-05-02_11h24.28.800,FishGame,2022.1.1,59.80775396090755,
,24,넌 통찰력있어,2,Orange,A,6.5,4.8,ScrollDown,ScrollUp,Orange.png,2,Positive,Congruent,0,0,0,0,,,,,,,,,,,,,,,,,0,23,23,23,,,,,,,,,,,,,,,,,,,,,,,,,,,,,,,,,,,,,,,,,,,,,,,,,,,,,,,,,,,,,,,,,,,,,,,,,,,,,,,,,1.0555555323759716,0.8294169000000693,346.3919418999576,None,ScrollDown,정답입니다,346.3919418999576,None,346.3919418999576,None,346.3919418999576,None,346.3919418999576,None,347.12108819995774,None,347.12108819995774,347.63559129997157,,,,,,,,,,,,,,,,001,2022-05-02_11h24.28.800,FishGame,2022.1.1,59.80775396090755,
,25,넌 경솔해,5,Green,B,2.458333333333333,2.266666666666667,ScrollUp,ScrollDown,Green.png,2,Negative,Congruent,0,0,0,0,,,,,,,,,,,,,,,,,0,24,24,24,,,,,,,,,,,,,,,,,,,,,,,,,,,,,,,,,,,,,,,,,,,,,,,,,,,,,,,,,,,,,,,,,,,,,,,,,,,,,,,,,1.959876557191213,0.8780185999930836,348.258795199974,None,ScrollUp,정답입니다,348.258795199974,None,348.258795199974,None,348.258795199974,None,348.258795199974,None,349.03552579996176,None,349.03552579996176,349.5377495000139,,,,,,,,,,,,,,,,001,2022-05-02_11h24.28.800,FishGame,2022.1.1,59.80775396090755,
,26,넌 초조해,4,Orange,A,2.916666666666667,3.133333333333333,ScrollDown,ScrollUp,Orange.png,2,Negative,Incongruent,0,0,0,0,,,,,,,,,,,,,,,,,0,25,25,25,,,,,,,,,,,,,,,,,,,,,,,,,,,,,,,,,,,,,,,,,,,,,,,,,,,,,,,,,,,,,,,,,,,,,,,,,,,,,,,,,1.1666666616996129,0.8588711000047624,350.16673170001013,None,ScrollDown,정답입니다,350.16673170001013,None,350.16673170001013,None,350.16673170001013,None,350.16673170001013,None,350.9185193000012,None,350.9185193000012,351.4186004999792,,,,,,,,,,,,,,,,001,2022-05-02_11h24.28.800,FishGame,2022.1.1,59.80775396090755,
,27,넌 무관심해,4,Green,B,2.833333333333333,2.9,ScrollUp,ScrollDown,Green.png,2,Negative,Congruent,0,0,0,0,,,,,,,,,,,,,,,,,0,26,26,26,,,,,,,,,,,,,,,,,,,,,,,,,,,,,,,,,,,,,,,,,,,,,,,,,,,,,,,,,,,,,,,,,,,,,,,,,,,,,,,,,1.8271604826052983,0.7446686999755912,352.0485714999959,None,ScrollUp,정답입니다,352.0485714999959,None,352.0485714999959,None,352.0485714999959,None,352.0485714999959,None,352.68519639997976,None,352.68519639997976,353.18784470000537,,,,,,,,,,,,,,,,001,2022-05-02_11h24.28.800,FishGame,2022.1.1,59.80775396090755,
,28,넌 감성적이야,3,Green,B,4.125,4.166666666666667,ScrollUp,ScrollDown,Green.png,2,Neutral,Neutral,0,0,0,0,,,,,,,,,,,,,,,,,0,27,27,27,,,,,,,,,,,,,,,,,,,,,,,,,,,,,,,,,,,,,,,,,,,,,,,,,,,,,,,,,,,,,,,,,,,,,,,,,,,,,,,,,1.7253086368242898,0.7776488999952562,353.80422059999546,None,ScrollUp,정답입니다,353.80422059999546,None,353.80422059999546,None,353.80422059999546,None,353.80422059999546,None,354.4877991999965,None,354.4877991999965,354.9877785000135,,,,,,,,,,,,,,,,001,2022-05-02_11h24.28.800,FishGame,2022.1.1,59.80775396090755,
,29,넌 배려심있어,1,Orange,A,6.083333333333333,5.5,ScrollDown,ScrollUp,Orange.png,2,Positive,Congruent,0,0,0,0,,,,,,,,,,,,,,,,,0,28,28,28,,,,,,,,,,,,,,,,,,,,,,,,,,,,,,,,,,,,,,,,,,,,,,,,,,,,,,,,,,,,,,,,,,,,,,,,,,,,,,,,,1.2623456766208014,0.7261128000100143,355.62464699998964,None,ScrollDown,정답입니다,355.62464699998964,None,355.62464699998964,None,355.62464699998964,None,355.62464699998964,None,356.2520469999872,None,356.2520469999872,356.75208959996235,,,,,,,,,,,,,,,,001,2022-05-02_11h24.28.800,FishGame,2022.1.1,59.80775396090755,
,30,넌 숨김없어,3,Orange,A,4.5,4.933333333333334,ScrollDown,ScrollUp,Orange.png,2,Neutral,Neutral,0,0,0,0,,,,,,,,,,,,,,,,,0,29,29,29,,,,,,,,,,,,,,,,,,,,,,,,,,,,,,,,,,,,,,,,,,,,,,,,,,,,,,,,,,,,,,,,,,,,,,,,,,,,,,,,,1.2175925970077515,0.8091841000132263,357.3815464999643,None,ScrollDown,정답입니다,357.3815464999643,None,357.3815464999643,None,357.3815464999643,None,357.3815464999643,None,358.0852839999716,None,358.0852839999716,358.5853910999722,,,,,,,,,,,,,,,,001,2022-05-02_11h24.28.800,FishGame,2022.1.1,59.80775396090755,
,31,넌 훌륭해,2,Green,B,5.916666666666667,4.033333333333333,ScrollUp,ScrollDown,Green.png,2,Positive,Incongruent,0,0,0,0,,,,,,,,,,,,,,,,,0,30,30,30,,,,,,,,,,,,,,,,,,,,,,,,,,,,,,,,,,,,,,,,,,,,,,,,,,,,,,,,,,,,,,,,,,,,,,,,,,,,,,,,,1.8672839452823002,0.8281498000142165,359.21560369996587,None,ScrollUp,정답입니다,359.21560369996587,None,359.21560369996587,None,359.21560369996587,None,359.21560369996587,None,359.93525199999567,None,359.93525199999567,360.4374583999743,,,,,,,,,,,,,,,,001,2022-05-02_11h24.28.800,FishGame,2022.1.1,59.80775396090755,
,32,넌 슬기로워,2,Orange,A,6.166666666666667,4.1,ScrollDown,ScrollUp,Orange.png,2,Positive,Congruent,0,0,0,0,,,,,,,,,,,,,,,,,0,31,31,31,,,,,,,,,,,,,,,,,,,,,,,,,,,,,,,,,,,,,,,,,,,,,,,,,,,,,,,,,,,,,,,,,,,,,,,,,,,,,,,,,1.2623456766208014,0.8279219000251032,361.06096299999626,None,ScrollDown,정답입니다,361.06096299999626,None,361.06096299999626,None,361.06096299999626,None,361.06096299999626,None,361.7852381999837,None,361.7852381999837,362.2853908999823,,,,,,,,,,,,,,,,001,2022-05-02_11h24.28.800,FishGame,2022.1.1,59.80775396090755,
,33,넌 냉혹해,5,Orange,A,2.583333333333333,2.1,ScrollDown,ScrollUp,Orange.png,2,Negative,Incongruent,0,0,0,0,,,,,,,,,,,,,,,,,0,32,32,32,,,,,,,,,,,,,,,,,,,,,,,,,,,,,,,,,,,,,,,,,,,,,,,,,,,,,,,,,,,,,,,,,,,,,,,,,,,,,,,,,1.28086419403553,0.7516030000406317,362.9126118000131,None,ScrollDown,정답입니다,362.9126118000131,None,362.9126118000131,None,362.9126118000131,None,362.9126118000131,None,363.563820499985,None,363.563820499985,364.0683466999908,,,,,,,,,,,,,,,,001,2022-05-02_11h24.28.800,FishGame,2022.1.1,59.80775396090755,
,34,나를 데려가줘,6,Green,B,0,0,ScrollDown,ScrollUp,Green.png,2,NonTarget,NonTarget,0,0,0,0,,,,,,,,,,,,,,,,,0,33,33,33,,,,,,,,,,,,,,,,,,,,,,,,,,,,,,,,,,,,,,,,,,,,,,,,,,,,,,,,,,,,,,,,,,,,,,,,,,,,,,,,,1.1589506169160206,0.9948469999944791,364.68926279997686,None,ScrollDown,정답입니다,364.68926279997686,None,364.68926279997686,None,364.68926279997686,None,364.68926279997686,None,365.5849372000084,None,365.5849372000084,366.08502219995717,,,,,,,,,,,,,,,,001,2022-05-02_11h24.28.800,FishGame,2022.1.1,59.80775396090755,
,35,넌 편파적이야,5,Green,B,2.125,2,ScrollUp,ScrollDown,Green.png,2,Negative,Congruent,0,0,0,0,,,,,,,,,,,,,,,,,0,34,34,34,,,,,,,,,,,,,,,,,,,,,,,,,,,,,,,,,,,,,,,,,,,,,,,,,,,,,,,,,,,,,,,,,,,,,,,,,,,,,,,,,1.6604938258727393,0.7929669999866746,366.7095817999798,None,ScrollUp,정답입니다,366.7095817999798,None,366.7095817999798,None,366.7095817999798,None,366.7095817999798,None,367.40420150000136,None,367.40420150000136,367.90412369999103,,,,,,,,,,,,,,,,001,2022-05-02_11h24.28.800,FishGame,2022.1.1,59.80775396090755,
,36,넌 슬퍼,4,Orange,A,2.583333333333333,3.066666666666667,ScrollDown,ScrollUp,Orange.png,2,Negative,Incongruent,0,0,0,0,,,,,,,,,,,,,,,,,0,35,35,35,,,,,,,,,,,,,,,,,,,,,,,,,,,,,,,,,,,,,,,,,,,,,,,,,,,,,,,,,,,,,,,,,,,,,,,,,,,,,,,,,1.2037036965290706,0.9127908999798819,368.5233655999764,None,ScrollDown,정답입니다,368.5233655999764,None,368.5233655999764,None,368.5233655999764,None,368.5233655999764,None,369.33513269998366,None,369.33513269998366,369.8372982000001,,,,,,,,,,,,,,,,001,2022-05-02_11h24.28.800,FishGame,2022.1.1,59.80775396090755,
,37,나를 데려가줘,6,Green,B,0,0,ScrollDown,ScrollUp,Green.png,2,NonTarget,NonTarget,0,0,0,0,,,,,,,,,,,,,,,,,0,36,36,36,,,,,,,,,,,,,,,,,,,,,,,,,,,,,,,,,,,,,,,,,,,,,,,,,,,,,,,,,,,,,,,,,,,,,,,,,,,,,,,,,1.1342592686414719,0.9115894999704324,370.4550814999966,None,ScrollDown,정답입니다,370.4550814999966,None,370.4550814999966,None,370.4550814999966,None,370.4550814999966,None,371.26842789998045,None,371.26842789998045,371.7741963000153,,,,,,,,,,,,,,,,001,2022-05-02_11h24.28.800,FishGame,2022.1.1,59.80775396090755,
,38,넌 친절해,1,Green,B,6.041666666666667,5.533333333333333,ScrollUp,ScrollDown,Green.png,2,Positive,Incongruent,0,0,0,0,,,,,,,,,,,,,,,,,0,37,37,37,,,,,,,,,,,,,,,,,,,,,,,,,,,,,,,,,,,,,,,,,,,,,,,,,,,,,,,,,,,,,,,,,,,,,,,,,,,,,,,,,1.1697530895471573,0.8594702000264078,372.3951304999646,None,ScrollDown,오답입니다,372.3951304999646,None,372.3951304999646,None,372.3951304999646,None,372.3951304999646,None,373.151659199968,None,373.151659199968,373.6517118999618,,,,,,,,,,,,,,,,001,2022-05-02_11h24.28.800,FishGame,2022.1.1,59.80775396090755,
,1,넌 엉성해,4,Orange,A,3,3.3,ScrollDown,ScrollUp,Orange.png,3,Negative,Incongruent,0,0,0,0,,,,,,,,,,,,,,,,,,,,,0,0,0,0,,,,,,,,,,,,,,,,,,,,,,,,,,,,,,,,,,,,408.2010060999892,409.70101369998883,409.7366788999643,410.6898277999717,410.72319200000493,411.68674149998697,411.68674149998697,None,,,,,,,,,,,,,,,,,,,,,,,,,,,,,,,,,,1.325617286066214,0.9602590000140481,412.7908899000031,None,ScrollDown,정답입니다,412.7908899000031,None,412.7908899000031,None,412.7908899000031,None,412.7908899000031,None,413.6509414999746,None,413.6509414999746,414.1509633999667,374.1516523999744,None,374.1516523999744,None,0.1037037,-0.09537037,1,0,0,0.015964609978254884,None,404.15093199996045,None,,,001,2022-05-02_11h24.28.800,FishGame,2022.1.1,59.80775396090755,
,2,나를 보내줘,6,Orange,A,0,0,ScrollUp,ScrollDown,Orange.png,3,NonTarget,NonTarget,0,0,0,0,,,,,,,,,,,,,,,,,,,,,0,1,1,1,,,,,,,,,,,,,,,,,,,,,,,,,,,,,,,,,,,,,,,,,,,,,,,,,,,,,,,,,,,,,,,,,,,,,,,,,,,,,1.6496913532416024,0.8937041999888606,414.7703702999861,None,ScrollUp,정답입니다,414.7703702999861,None,414.7703702999861,None,414.7703702999861,None,414.7703702999861,None,415.56972379999934,None,415.56972379999934,416.0864047000068,,,,,,,,,,,,,,,,001,2022-05-02_11h24.28.800,FishGame,2022.1.1,59.80775396090755,
,3,넌 활발해,1,Green,B,5.666666666666667,5.6,ScrollUp,ScrollDown,Green.png,3,Positive,Incongruent,0,0,0,0,,,,,,,,,,,,,,,,,,,,,0,2,2,2,,,,,,,,,,,,,,,,,,,,,,,,,,,,,,,,,,,,,,,,,,,,,,,,,,,,,,,,,,,,,,,,,,,,,,,,,,,,,1.6111111169060073,1.1262828999897465,416.7043976999703,None,ScrollUp,정답입니다,416.7043976999703,None,416.7043976999703,None,416.7043976999703,None,416.7043976999703,None,417.7341022999608,None,417.7341022999608,418.2363093000022,,,,,,,,,,,,,,,,001,2022-05-02_11h24.28.800,FishGame,2022.1.1,59.80775396090755,
,4,넌 논리적이야,2,Orange,A,5.666666666666666,4.633333333333334,ScrollDown,ScrollUp,Orange.png,3,Positive,Congruent,0,0,0,0,,,,,,,,,,,,,,,,,,,,,0,3,3,3,,,,,,,,,,,,,,,,,,,,,,,,,,,,,,,,,,,,,,,,,,,,,,,,,,,,,,,,,,,,,,,,,,,,,,,,,,,,,1.2098765522241592,0.8927749000140466,418.862266000011,None,ScrollDown,정답입니다,418.862266000011,None,418.862266000011,None,418.862266000011,None,418.862266000011,None,419.6507677999907,None,419.6507677999907,420.15297279995866,,,,,,,,,,,,,,,,001,2022-05-02_11h24.28.800,FishGame,2022.1.1,59.80775396090755,
,5,넌 과묵해,3,Orange,A,3.875,4.4,ScrollDown,ScrollUp,Orange.png,3,Neutral,Neutral,0,0,0,0,,,,,,,,,,,,,,,,,,,,,0,4,4,4,,,,,,,,,,,,,,,,,,,,,,,,,,,,,,,,,,,,,,,,,,,,,,,,,,,,,,,,,,,,,,,,,,,,,,,,,,,,,1.233024686574936,0.8438020999892615,420.7773315999657,None,ScrollDown,정답입니다,420.7773315999657,None,420.7773315999657,None,420.7773315999657,None,420.7773315999657,None,421.51733939995756,None,421.51733939995756,422.01739170000656,,,,,,,,,,,,,,,,001,2022-05-02_11h24.28.800,FishGame,2022.1.1,59.80775396090755,
,6,나를 데려가줘,6,Green,B,0,0,ScrollDown,ScrollUp,Green.png,3,NonTarget,NonTarget,0,0,0,0,,,,,,,,,,,,,,,,,,,,,0,5,5,5,,,,,,,,,,,,,,,,,,,,,,,,,,,,,,,,,,,,,,,,,,,,,,,,,,,,,,,,,,,,,,,,,,,,,,,,,,,,,1.2314814726511638,0.925788399996236,422.6373764000018,None,ScrollDown,정답입니다,422.6373764000018,None,422.6373764000018,None,422.6373764000018,None,422.6373764000018,None,423.4673591000028,None,423.4673591000028,423.9695582999848,,,,,,,,,,,,,,,,001,2022-05-02_11h24.28.800,FishGame,2022.1.1,59.80775396090755,
,7,넌 미숙해,4,Green,B,3,3,ScrollUp,ScrollDown,Green.png,3,Negative,Congruent,0,0,0,0,,,,,,,,,,,,,,,,,,,,,0,6,6,6,,,,,,,,,,,,,,,,,,,,,,,,,,,,,,,,,,,,,,,,,,,,,,,,,,,,,,,,,,,,,,,,,,,,,,,,,,,,,1.5709876542290053,0.9095415999763645,424.5896458000061,None,ScrollUp,정답입니다,424.5896458000061,None,424.5896458000061,None,424.5896458000061,None,424.5896458000061,None,425.4028764999821,None,425.4028764999821,425.90643639996415,,,,,,,,,,,,,,,,001,2022-05-02_11h24.28.800,FishGame,2022.1.1,59.80775396090755,
,8,나를 보내줘,6,Orange,A,0,0,ScrollUp,ScrollDown,Orange.png,3,NonTarget,NonTarget,0,0,0,0,,,,,,,,,,,,,,,,,,,,,0,7,7,7,,,,,,,,,,,,,,,,,,,,,,,,,,,,,,,,,,,,,,,,,,,,,,,,,,,,,,,,,,,,,,,,,,,,,,,,,,,,,1.7283950646718345,0.8922641000244766,426.52168730000267,None,ScrollUp,정답입니다,426.52168730000267,None,426.52168730000267,None,426.52168730000267,None,426.52168730000267,None,427.31721519998973,None,427.31721519998973,427.8173330000136,,,,,,,,,,,,,,,,001,2022-05-02_11h24.28.800,FishGame,2022.1.1,59.80775396090755,
,9,넌 자신만만해,3,Green,B,4.833333333333334,4.333333333333333,ScrollUp,ScrollDown,Green.png,3,Neutral,Neutral,0,0,0,0,,,,,,,,,,,,,,,,,,,,,0,8,8,8,,,,,,,,,,,,,,,,,,,,,,,,,,,,,,,,,,,,,,,,,,,,,,,,,,,,,,,,,,,,,,,,,,,,,,,,,,,,,1.6358024651805558,0.7954562000231817,428.4314905999927,None,ScrollUp,정답입니다,428.4314905999927,None,428.4314905999927,None,428.4314905999927,None,428.4314905999927,None,429.13391249999404,None,429.13391249999404,429.63393760001054,,,,,,,,,,,,,,,,001,2022-05-02_11h24.28.800,FishGame,2022.1.1,59.80775396090755,
,10,넌 탐욕스러워,5,Orange,A,2.25,2.1,ScrollDown,ScrollUp,Orange.png,3,Negative,Incongruent,0,0,0,0,,,,,,,,,,,,,,,,,,,,,0,9,9,9,,,,,,,,,,,,,,,,,,,,,,,,,,,,,,,,,,,,,,,,,,,,,,,,,,,,,,,,,,,,,,,,,,,,,,,,,,,,,1.1975308656692505,0.7894939999678172,430.2643934999942,None,ScrollDown,정답입니다,430.2643934999942,None,430.2643934999942,None,430.2643934999942,None,430.2643934999942,None,430.9458692999906,None,430.9458692999906,431.4503477999824,,,,,,,,,,,,,,,,001,2022-05-02_11h24.28.800,FishGame,2022.1.1,59.80775396090755,
,11,넌 인기있어,2,Orange,A,5.458333333333333,4.5,ScrollDown,ScrollUp,Orange.png,3,Positive,Congruent,0,0,0,0,,,,,,,,,,,,,,,,,,,,,0,10,10,10,,,,,,,,,,,,,,,,,,,,,,,,,,,,,,,,,,,,,,,,,,,,,,,,,,,,,,,,,,,,,,,,,,,,,,,,,,,,,1.2824074079593024,0.7780123999691568,432.06997959996806,None,ScrollDown,정답입니다,432.06997959996806,None,432.06997959996806,None,432.06997959996806,None,432.06997959996806,None,432.7502177999704,None,432.7502177999704,433.2503486999776,,,,,,,,,,,,,,,,001,2022-05-02_11h24.28.800,FishGame,2022.1.1,59.80775396090755,
,12,나를 데려가줘,6,Green,B,0,0,ScrollDown,ScrollUp,Green.png,3,NonTarget,NonTarget,0,0,0,0,,,,,,,,,,,,,,,,,,,,,0,11,11,11,,,,,,,,,,,,,,,,,,,,,,,,,,,,,,,,,,,,,,,,,,,,,,,,,,,,,,,,,,,,,,,,,,,,,,,,,,,,,1.1851851791143417,0.8777154000126757,433.8720280000125,None,ScrollDown,정답입니다,433.8720280000125,None,433.8720280000125,None,433.8720280000125,None,433.8720280000125,None,434.6505732999649,None,434.6505732999649,435.1528040000121,,,,,,,,,,,,,,,,001,2022-05-02_11h24.28.800,FishGame,2022.1.1,59.80775396090755,
,13,넌 뛰어나,2,Green,B,6.166666666666667,4,ScrollUp,ScrollDown,Green.png,3,Positive,Incongruent,0,0,0,0,,,,,,,,,,,,,,,,,,,,,0,12,12,12,,,,,,,,,,,,,,,,,,,,,,,,,,,,,,,,,,,,,,,,,,,,,,,,,,,,,,,,,,,,,,,,,,,,,,,,,,,,,1.654320982595285,0.8624395999941044,435.77046819997486,None,ScrollUp,정답입니다,435.77046819997486,None,435.77046819997486,None,435.77046819997486,None,435.77046819997486,None,436.53348969999934,None,436.53348969999934,437.03352689999156,,,,,,,,,,,,,,,,001,2022-05-02_11h24.28.800,FishGame,2022.1.1,59.80775396090755,
,14,넌 낙관적이야,1,Orange,A,5.75,5.8,ScrollDown,ScrollUp,Orange.png,3,Positive,Congruent,0,0,0,0,,,,,,,,,,,,,,,,,,,,,0,13,13,13,,,,,,,,,,,,,,,,,,,,,,,,,,,,,,,,,,,,,,,,,,,,,,,,,,,,,,,,,,,,,,,,,,,,,,,,,,,,,1.212962955236435,0.7446505000116304,437.6554815999698,None,ScrollDown,정답입니다,437.6554815999698,None,437.6554815999698,None,437.6554815999698,None,437.6554815999698,None,438.3001726999646,None,438.3001726999646,438.80275309999706,,,,,,,,,,,,,,,,001,2022-05-02_11h24.28.800,FishGame,2022.1.1,59.80775396090755,
,15,넌 산만해,4,Green,B,2.695652173913043,3.033333333333333,ScrollUp,ScrollDown,Green.png,3,Negative,Congruent,0,0,0,0,,,,,,,,,,,,,,,,,,,,,0,14,14,14,,,,,,,,,,,,,,,,,,,,,,,,,,,,,,,,,,,,,,,,,,,,,,,,,,,,,,,,,,,,,,,,,,,,,,,,,,,,,1.544753085821867,0.7259584999992512,439.4248641000013,None,NoResponse,무응답입니다,439.4248641000013,None,439.4248641000013,None,439.4248641000013,None,439.4248641000013,None,440.0504474999616,None,440.0504474999616,440.55610779998824,,,,,,,,,,,,,,,,001,2022-05-02_11h24.28.800,FishGame,2022.1.1,59.80775396090755,
,16,나를 보내줘,6,Orange,A,0,0,ScrollUp,ScrollDown,Orange.png,3,NonTarget,NonTarget,0,0,0,0,,,,,,,,,,,,,,,,,,,,,0,15,15,15,,,,,,,,,,,,,,,,,,,,,,,,,,,,,,,,,,,,,,,,,,,,,,,,,,,,,,,,,,,,,,,,,,,,,,,,,,,,,1.2469135870536168,0.878231999988202,441.168821499974,None,ScrollDown,오답입니다,441.168821499974,None,441.168821499974,None,441.168821499974,None,441.168821499974,None,441.95035880000796,None,441.95035880000796,442.4524972999934,,,,,,,,,,,,,,,,001,2022-05-02_11h24.28.800,FishGame,2022.1.1,59.80775396090755,
,17,넌 교활해,5,Green,B,2.333333333333333,2.133333333333333,ScrollUp,ScrollDown,Green.png,3,Negative,Congruent,0,0,0,0,,,,,,,,,,,,,,,,,,,,,0,16,16,16,,,,,,,,,,,,,,,,,,,,,,,,,,,,,,,,,,,,,,,,,,,,,,,,,,,,,,,,,,,,,,,,,,,,,,,,,,,,,1.6651234552264214,0.892435799993109,443.07073739997577,None,ScrollUp,정답입니다,443.07073739997577,None,443.07073739997577,None,443.07073739997577,None,443.07073739997577,None,443.86702309997054,None,443.86702309997054,444.36909469997045,,,,,,,,,,,,,,,,001,2022-05-02_11h24.28.800,FishGame,2022.1.1,59.80775396090755,
,18,나를 보내줘,6,Orange,A,0,0,ScrollUp,ScrollDown,Orange.png,3,NonTarget,NonTarget,0,0,0,0,,,,,,,,,,,,,,,,,,,,,0,17,17,17,,,,,,,,,,,,,,,,,,,,,,,,,,,,,,,,,,,,,,,,,,,,,,,,,,,,,,,,,,,,,,,,,,,,,,,,,,,,,1.6574074104428291,0.9592516999691725,444.98960239998996,None,ScrollUp,정답입니다,444.98960239998996,None,444.98960239998996,None,444.98960239998996,None,444.98960239998996,None,445.8502945000073,None,445.8502945000073,446.3524336999981,,,,,,,,,,,,,,,,001,2022-05-02_11h24.28.800,FishGame,2022.1.1,59.80775396090755,
,19,넌 불친절해,5,Green,B,2.208333333333333,2.033333333333333,ScrollUp,ScrollDown,Green.png,3,Negative,Congruent,0,0,0,0,,,,,,,,,,,,,,,,,,,,,0,18,18,18,,,,,,,,,,,,,,,,,,,,,,,,,,,,,,,,,,,,,,,,,,,,,,,,,,,,,,,,,,,,,,,,,,,,,,,,,,,,,2,1.4614147000247613,446.97023109998554,None,ScrollUp,정답입니다,446.97023109998554,None,446.97023109998554,None,446.97023109998554,None,446.97023109998554,None,448.33353409997653,None,448.33353409997653,448.8358142999932,,,,,,,,,,,,,,,,001,2022-05-02_11h24.28.800,FishGame,2022.1.1,59.80775396090755,
,20,넌 지적이야,2,Green,B,5.75,4.366666666666666,ScrollUp,ScrollDown,Green.png,3,Positive,Incongruent,0,0,0,0,,,,,,,,,,,,,,,,,,,,,0,19,19,19,,,,,,,,,,,,,,,,,,,,,,,,,,,,,,,,,,,,,,,,,,,,,,,,,,,,,,,,,,,,,,,,,,,,,,,,,,,,,2,0.9927701000124216,449.4617033000104,None,ScrollUp,정답입니다,449.4617033000104,None,449.4617033000104,None,449.4617033000104,None,449.4617033000104,None,450.3502362999716,None,450.3502362999716,450.85019420000026,,,,,,,,,,,,,,,,001,2022-05-02_11h24.28.800,FishGame,2022.1.1,59.80775396090755,
,21,넌 우유부단해,4,Orange,A,2.666666666666667,3.166666666666667,ScrollDown,ScrollUp,Orange.png,3,Negative,Incongruent,0,0,0,0,,,,,,,,,,,,,,,,,,,,,0,20,20,20,,,,,,,,,,,,,,,,,,,,,,,,,,,,,,,,,,,,,,,,,,,,,,,,,,,,,,,,,,,,,,,,,,,,,,,,,,,,,1.1064814925193787,0.875761000032071,451.476649899967,None,ScrollDown,정답입니다,451.476649899967,None,451.476649899967,None,451.476649899967,None,451.476649899967,None,452.25005390000297,None,452.25005390000297,452.75225979997776,,,,,,,,,,,,,,,,001,2022-05-02_11h24.28.800,FishGame,2022.1.1,59.80775396090755,
,22,나를 데려가줘,6,Green,B,0,0,ScrollDown,ScrollUp,Green.png,3,NonTarget,NonTarget,0,0,0,0,,,,,,,,,,,,,,,,,,,,,0,21,21,21,,,,,,,,,,,,,,,,,,,,,,,,,,,,,,,,,,,,,,,,,,,,,,,,,,,,,,,,,,,,,,,,,,,,,,,,,,,,,1.1296296268701553,1.0922270999872126,453.3709620999871,None,ScrollDown,정답입니다,453.3709620999871,None,453.3709620999871,None,453.3709620999871,None,453.3709620999871,None,454.3667151000118,None,454.3667151000118,454.86896459996933,,,,,,,,,,,,,,,,001,2022-05-02_11h24.28.800,FishGame,2022.1.1,59.80775396090755,
,23,넌 성실해,1,Green,B,6.041666666666666,5.7,ScrollUp,ScrollDown,Green.png,3,Positive,Incongruent,0,0,0,0,,,,,,,,,,,,,,,,,,,,,0,22,22,22,,,,,,,,,,,,,,,,,,,,,,,,,,,,,,,,,,,,,,,,,,,,,,,,,,,,,,,,,,,,,,,,,,,,,,,,,,,,,1.7283950646718345,1.3590933000086807,455.4873806000105,None,ScrollUp,정답입니다,455.4873806000105,None,455.4873806000105,None,455.4873806000105,None,455.4873806000105,None,456.7500358999823,None,456.7500358999823,457.2553205000004,,,,,,,,,,,,,,,,001,2022-05-02_11h24.28.800,FishGame,2022.1.1,59.80775396090755,
,24,넌 현실주의적이야,3,Orange,A,4.625,4.4,ScrollDown,ScrollUp,Orange.png,3,Neutral,Neutral,0,0,0,0,,,,,,,,,,,,,,,,,,,,,0,23,23,23,,,,,,,,,,,,,,,,,,,,,,,,,,,,,,,,,,,,,,,,,,,,,,,,,,,,,,,,,,,,,,,,,,,,,,,,,,,,,1.2268518557151158,0.8589685999904759,457.8725856000092,None,ScrollDown,정답입니다,457.8725856000092,None,457.8725856000092,None,457.8725856000092,None,457.8725856000092,None,458.63327419996494,None,458.63327419996494,459.1333275999641,,,,,,,,,,,,,,,,001,2022-05-02_11h24.28.800,FishGame,2022.1.1,59.80775396090755,
,25,넌 진실돼,1,Orange,A,6.625,5.566666666666666,ScrollDown,ScrollUp,Orange.png,3,Positive,Congruent,0,0,0,0,,,,,,,,,,,,,,,,,,,,,0,24,24,24,,,,,,,,,,,,,,,,,,,,,,,,,,,,,,,,,,,,,,,,,,,,,,,,,,,,,,,,,,,,,,,,,,,,,,,,,,,,,1.1033950646718342,1.0112950999755412,459.7547227999894,None,ScrollDown,정답입니다,459.7547227999894,None,459.7547227999894,None,459.7547227999894,None,459.7547227999894,None,460.66643280000426,None,460.66643280000426,461.16669439995894,,,,,,,,,,,,,,,,001,2022-05-02_11h24.28.800,FishGame,2022.1.1,59.80775396090755,
,26,넌 천진난만해,3,Green,B,4.958333333333334,4.833333333333333,ScrollUp,ScrollDown,Green.png,3,Neutral,Neutral,0,0,0,0,,,,,,,,,,,,,,,,,,,,,0,25,25,25,,,,,,,,,,,,,,,,,,,,,,,,,,,,,,,,,,,,,,,,,,,,,,,,,,,,,,,,,,,,,,,,,,,,,,,,,,,,,1.9104938358068466,0.9258213000139222,461.7927050999715,None,ScrollUp,정답입니다,461.7927050999715,None,461.7927050999715,None,461.7927050999715,None,461.7927050999715,None,462.61651829996845,None,462.61651829996845,463.1188062999863,,,,,,,,,,,,,,,,001,2022-05-02_11h24.28.800,FishGame,2022.1.1,59.80775396090755,
,27,넌 교양없어,5,Orange,A,2.416666666666667,2.2,ScrollDown,ScrollUp,Orange.png,3,Negative,Incongruent,0,0,0,0,,,,,,,,,,,,,,,,,,,,,0,26,26,26,,,,,,,,,,,,,,,,,,,,,,,,,,,,,,,,,,,,,,,,,,,,,,,,,,,,,,,,,,,,,,,,,,,,,,,,,,,,,1.115740751226743,0.8425896000117064,463.7405007999623,None,ScrollDown,정답입니다,463.7405007999623,None,463.7405007999623,None,463.7405007999623,None,463.7405007999623,None,464.4832639999804,None,464.4832639999804,464.9853400000138,,,,,,,,,,,,,,,,001,2022-05-02_11h24.28.800,FishGame,2022.1.1,59.80775396090755,
,28,나를 보내줘,6,Orange,A,0,0,ScrollUp,ScrollDown,Orange.png,3,NonTarget,NonTarget,0,0,0,0,,,,,,,,,,,,,,,,,,,,,0,27,27,27,,,,,,,,,,,,,,,,,,,,,,,,,,,,,,,,,,,,,,,,,,,,,,,,,,,,,,,,,,,,,,,,,,,,,,,,,,,,,1.8719135870536168,0.926008099981118,465.602562199987,None,ScrollUp,정답입니다,465.602562199987,None,465.602562199987,None,465.602562199987,None,465.602562199987,None,466.4331623999751,None,466.4331623999751,466.93536359997233,,,,,,,,,,,,,,,,001,2022-05-02_11h24.28.800,FishGame,2022.1.1,59.80775396090755,
,29,넌 엉뚱스러워,3,Orange,A,4.166666666666667,4.133333333333334,ScrollDown,ScrollUp,Orange.png,3,Neutral,Neutral,0,0,0,0,,,,,,,,,,,,,,,,,,,,,0,28,28,28,,,,,,,,,,,,,,,,,,,,,,,,,,,,,,,,,,,,,,,,,,,,,,,,,,,,,,,,,,,,,,,,,,,,,,,,,,,,,1.160493830839793,0.9755011000088416,467.5832334999577,None,ScrollDown,정답입니다,467.5832334999577,None,467.5832334999577,None,467.5832334999577,None,467.5832334999577,None,468.43306889996165,None,468.43306889996165,468.93527399998857,,,,,,,,,,,,,,,,001,2022-05-02_11h24.28.800,FishGame,2022.1.1,59.80775396090755,
,30,넌 무지해,4,Green,B,2.541666666666667,3.066666666666667,ScrollUp,ScrollDown,Green.png,3,Negative,Congruent,0,0,0,0,,,,,,,,,,,,,,,,,,,,,0,29,29,29,,,,,,,,,,,,,,,,,,,,,,,,,,,,,,,,,,,,,,,,,,,,,,,,,,,,,,,,,,,,,,,,,,,,,,,,,,,,,2,0.8620591000071727,469.54649039998185,None,ScrollUp,정답입니다,469.54649039998185,None,469.54649039998185,None,469.54649039998185,None,469.54649039998185,None,470.31641979998676,None,470.31641979998676,470.8186299999943,,,,,,,,,,,,,,,,001,2022-05-02_11h24.28.800,FishGame,2022.1.1,59.80775396090755,
,31,넌 음울해,5,Green,B,2.25,2.233333333333333,ScrollUp,ScrollDown,Green.png,3,Negative,Congruent,0,0,0,0,,,,,,,,,,,,,,,,,,,,,0,30,30,30,,,,,,,,,,,,,,,,,,,,,,,,,,,,,,,,,,,,,,,,,,,,,,,,,,,,,,,,,,,,,,,,,,,,,,,,,,,,,1.7484567960103354,1.092150499986019,471.4393810000038,None,ScrollUp,정답입니다,471.4393810000038,None,471.4393810000038,None,471.4393810000038,None,471.4393810000038,None,472.43275149998954,None,472.43275149998954,472.93283060000977,,,,,,,,,,,,,,,,001,2022-05-02_11h24.28.800,FishGame,2022.1.1,59.80775396090755,
,32,넌 냉소적이야,5,Orange,A,2.916666666666667,2.4,ScrollDown,ScrollUp,Orange.png,3,Negative,Incongruent,0,0,0,0,,,,,,,,,,,,,,,,,,,,,0,31,31,31,,,,,,,,,,,,,,,,,,,,,,,,,,,,,,,,,,,,,,,,,,,,,,,,,,,,,,,,,,,,,,,,,,,,,,,,,,,,,1.1589506169160206,0.8943637000047602,473.5484654000029,None,ScrollDown,정답입니다,473.5484654000029,None,473.5484654000029,None,473.5484654000029,None,473.5484654000029,None,474.34943000000203,None,474.34943000000203,474.84950339997886,,,,,,,,,,,,,,,,001,2022-05-02_11h24.28.800,FishGame,2022.1.1,59.80775396090755,
,33,나를 데려가줘,6,Green,B,0,0,ScrollDown,ScrollUp,Green.png,3,NonTarget,NonTarget,0,0,0,0,,,,,,,,,,,,,,,,,,,,,0,32,32,32,,,,,,,,,,,,,,,,,,,,,,,,,,,,,,,,,,,,,,,,,,,,,,,,,,,,,,,,,,,,,,,,,,,,,,,,,,,,,1.1512345721324284,0.9425694000092335,475.4693864000146,None,ScrollDown,정답입니다,475.4693864000146,None,475.4693864000146,None,475.4693864000146,None,475.4693864000146,None,476.31859679997433,None,476.31859679997433,476.81641259999014,,,,,,,,,,,,,,,,001,2022-05-02_11h24.28.800,FishGame,2022.1.1,59.80775396090755,
,34,넌 쾌활해,1,Orange,A,5.541666666666666,5.733333333333333,ScrollDown,ScrollUp,Orange.png,3,Positive,Congruent,0,0,0,0,,,,,,,,,,,,,,,,,,,,,0,33,33,33,,,,,,,,,,,,,,,,,,,,,,,,,,,,,,,,,,,,,,,,,,,,,,,,,,,,,,,,,,,,,,,,,,,,,,,,,,,,,1.1574074029922485,1.042469699983485,477.44497660000343,None,ScrollDown,정답입니다,477.44497660000343,None,477.44497660000343,None,477.44497660000343,None,477.44497660000343,None,478.38288019999163,None,478.38288019999163,478.882959999959,,,,,,,,,,,,,,,,001,2022-05-02_11h24.28.800,FishGame,2022.1.1,59.80775396090755,
,35,나를 보내줘,6,Orange,A,0,0,ScrollUp,ScrollDown,Orange.png,3,NonTarget,NonTarget,0,0,0,0,,,,,,,,,,,,,,,,,,,,,0,34,34,34,,,,,,,,,,,,,,,,,,,,,,,,,,,,,,,,,,,,,,,,,,,,,,,,,,,,,,,,,,,,,,,,,,,,,,,,,,,,,1.9382716119289398,0.9588192999945022,479.50327220000327,None,ScrollUp,정답입니다,479.50327220000327,None,479.50327220000327,None,479.50327220000327,None,479.50327220000327,None,480.36623970000073,None,480.36623970000073,480.87158360000467,,,,,,,,,,,,,,,,001,2022-05-02_11h24.28.800,FishGame,2022.1.1,59.80775396090755,
,36,넌 명랑해,1,Green,B,5.739130434782609,5.666666666666667,ScrollUp,ScrollDown,Green.png,3,Positive,Incongruent,0,0,0,0,,,,,,,,,,,,,,,,,,,,,0,35,35,35,,,,,,,,,,,,,,,,,,,,,,,,,,,,,,,,,,,,,,,,,,,,,,,,,,,,,,,,,,,,,,,,,,,,,,,,,,,,,1.7052469179034233,0.9277777000097558,481.49244760000147,None,ScrollUp,정답입니다,481.49244760000147,None,481.49244760000147,None,481.49244760000147,None,481.49244760000147,None,482.3161060999846,None,482.3161060999846,482.81620150001254,,,,,,,,,,,,,,,,001,2022-05-02_11h24.28.800,FishGame,2022.1.1,59.80775396090755,
,37,넌 멍해,4,Orange,A,2.833333333333333,3.4,ScrollDown,ScrollUp,Orange.png,3,Negative,Incongruent,0,0,0,0,,,,,,,,,,,,,,,,,,,,,0,36,36,36,,,,,,,,,,,,,,,,,,,,,,,,,,,,,,,,,,,,,,,,,,,,,,,,,,,,,,,,,,,,,,,,,,,,,,,,,,,,,1.1095678955316544,0.9279412999749184,483.4386164000025,None,ScrollDown,정답입니다,483.4386164000025,None,483.4386164000025,None,483.4386164000025,None,483.4386164000025,None,484.2682812999701,None,484.2682812999701,484.76834169996437,,,,,,,,,,,,,,,,001,2022-05-02_11h24.28.800,FishGame,2022.1.1,59.80775396090755,
,38,나를 데려가줘,6,Green,B,0,0,ScrollDown,ScrollUp,Green.png,3,NonTarget,NonTarget,0,0,0,0,,,,,,,,,,,,,,,,,,,,,0,37,37,37,,,,,,,,,,,,,,,,,,,,,,,,,,,,,,,,,,,,,,,,,,,,,,,,,,,,,,,,,,,,,,,,,,,,,,,,,,,,,1.2222222139437993,0.9059083999600261,485.38488969998434,None,ScrollDown,정답입니다,485.38488969998434,None,485.38488969998434,None,485.38488969998434,None,485.38488969998434,None,486.1947479000082,None,486.1947479000082,486.69922379998025,,,,,,,,,,,,,,,,001,2022-05-02_11h24.28.800,FishGame,2022.1.1,59.80775396090755,
,39,넌 현명해,2,Orange,A,6.541666666666666,4.533333333333333,ScrollDown,ScrollUp,Orange.png,3,Positive,Congruent,0,0,0,0,,,,,,,,,,,,,,,,,,,,,0,38,38,38,,,,,,,,,,,,,,,,,,,,,,,,,,,,,,,,,,,,,,,,,,,,,,,,,,,,,,,,,,,,,,,,,,,,,,,,,,,,,1.1774691343307495,0.9290696999523789,487.3180055000121,None,ScrollDown,정답입니다,487.3180055000121,None,487.3180055000121,None,487.3180055000121,None,487.3180055000121,None,488.14915899996413,None,488.14915899996413,488.6492273999611,,,,,,,,,,,,,,,,001,2022-05-02_11h24.28.800,FishGame,2022.1.1,59.80775396090755,
,40,넌 수줍어,3,Green,B,3.541666666666666,4.366666666666666,ScrollUp,ScrollDown,Green.png,3,Neutral,Neutral,0,0,0,0,,,,,,,,,,,,,,,,,,,,,0,39,39,39,,,,,,,,,,,,,,,,,,,,,,,,,,,,,,,,,,,,,,,,,,,,,,,,,,,,,,,,,,,,,,,,,,,,,,,,,,,,,1.8425925970077515,0.9090479000005871,489.27030189998914,None,ScrollUp,정답입니다,489.27030189998914,None,489.27030189998914,None,489.27030189998914,None,489.27030189998914,None,490.0849856999703,None,490.0849856999703,490.58505739999237,,,,,,,,,,,,,,,,001,2022-05-02_11h24.28.800,FishGame,2022.1.1,59.80775396090755,
,41,나를 데려가줘,6,Green,B,0,0,ScrollDown,ScrollUp,Green.png,3,NonTarget,NonTarget,0,0,0,0,,,,,,,,,,,,,,,,,,,,,0,40,40,40,,,,,,,,,,,,,,,,,,,,,,,,,,,,,,,,,,,,,,,,,,,,,,,,,,,,,,,,,,,,,,,,,,,,,,,,,,,,,1,0.9924286000314169,491.21840630000224,None,ScrollDown,정답입니다,491.21840630000224,None,491.21840630000224,None,491.21840630000224,None,491.21840630000224,None,492.1160094999941,None,492.1160094999941,492.6160555999959,,,,,,,,,,,,,,,,001,2022-05-02_11h24.28.800,FishGame,2022.1.1,59.80775396090755,
,42,넌 성숙해,2,Green,B,5.833333333333333,4.533333333333333,ScrollUp,ScrollDown,Green.png,3,Positive,Incongruent,0,0,0,0,,,,,,,,,,,,,,,,,,,,,0,41,41,41,,,,,,,,,,,,,,,,,,,,,,,,,,,,,,,,,,,,,,,,,,,,,,,,,,,,,,,,,,,,,,,,,,,,,,,,,,,,,1.8333333383003871,0.9269818000029773,493.2384377999697,None,ScrollUp,정답입니다,493.2384377999697,None,493.2384377999697,None,493.2384377999697,None,493.2384377999697,None,494.0659430999658,None,494.0659430999658,494.56820809998317,,,,,,,,,,,,,,,,001,2022-05-02_11h24.28.800,FishGame,2022.1.1,59.80775396090755,
,1,넌 매력적이야,2,Green,B,6.125,4.666666666666667,ScrollUp,ScrollDown,Green.png,4,Positive,Incongruent,0,0,0,0,,,,,,,,,,,,,,,,,,,,,,,,,0,0,0,0,,,,,,,,,,,,,,,,,,,,,,,,,,,,,,,,528.6010627999785,530.1009623999707,530.1319120000117,531.0843387999921,531.1343441999634,532.0818609999842,532.0675421999767,None,,,,,,,,,,,,,,,,,,,,,,,,,,,,,,,,,,2,1.322062499995809,533.1710818000138,None,ScrollUp,정답입니다,533.1710818000138,None,533.1710818000138,None,533.1710818000138,None,533.1710818000138,None,534.3984093999607,None,534.3984093999607,534.8984823999926,495.0660044999677,None,495.0660044999677,None,0.15092592,-0.096296296,1,0,0,0.015935010043904185,None,525.0651248999638,None,,,001,2022-05-02_11h24.28.800,FishGame,2022.1.1,59.80775396090755,
,2,나를 보내줘,6,Orange,A,0,0,ScrollUp,ScrollDown,Orange.png,4,NonTarget,NonTarget,0,0,0,0,,,,,,,,,,,,,,,,,,,,,,,,,0,1,1,1,,,,,,,,,,,,,,,,,,,,,,,,,,,,,,,,,,,,,,,,,,,,,,,,,,,,,,,,,,,,,,,,,,,,,,,,,1.6126543184121451,0.9756978000514209,535.5205538999871,None,ScrollUp,정답입니다,535.5205538999871,None,535.5205538999871,None,535.5205538999871,None,535.5205538999871,None,536.3984001000063,None,536.3984001000063,536.9006116999662,,,,,,,,,,,,,,,,001,2022-05-02_11h24.28.800,FishGame,2022.1.1,59.80775396090755,
,3,넌 조심스러워,3,Orange,A,4.791666666666666,4.666666666666667,ScrollDown,ScrollUp,Orange.png,4,Neutral,Neutral,0,0,0,0,,,,,,,,,,,,,,,,,,,,,,,,,0,2,2,2,,,,,,,,,,,,,,,,,,,,,,,,,,,,,,,,,,,,,,,,,,,,,,,,,,,,,,,,,,,,,,,,,,,,,,,,,1.2592592487732568,0.8457011000136845,537.5166149999714,None,ScrollDown,정답입니다,537.5166149999714,None,537.5166149999714,None,537.5166149999714,None,537.5166149999714,None,538.2650611000136,None,538.2650611000136,538.7651042999933,,,,,,,,,,,,,,,,001,2022-05-02_11h24.28.800,FishGame,2022.1.1,59.80775396090755,
,4,넌 철학적이야,3,Green,B,4.5,4.266666666666667,ScrollUp,ScrollDown,Green.png,4,Neutral,Neutral,0,0,0,0,,,,,,,,,,,,,,,,,,,,,,,,,0,3,3,3,,,,,,,,,,,,,,,,,,,,,,,,,,,,,,,,,,,,,,,,,,,,,,,,,,,,,,,,,,,,,,,,,,,,,,,,,1.6820987711350122,1.0094235999858938,539.390416899987,None,ScrollUp,정답입니다,539.390416899987,None,539.390416899987,None,539.390416899987,None,539.390416899987,None,540.2983048000024,None,540.2983048000024,540.8005131999962,,,,,,,,,,,,,,,,001,2022-05-02_11h24.28.800,FishGame,2022.1.1,59.80775396090755,
,5,넌 쩨쩨해,5,Orange,A,2.375,2.133333333333333,ScrollDown,ScrollUp,Orange.png,4,Negative,Incongruent,0,0,0,0,,,,,,,,,,,,,,,,,,,,,,,,,0,4,4,4,,,,,,,,,,,,,,,,,,,,,,,,,,,,,,,,,,,,,,,,,,,,,,,,,,,,,,,,,,,,,,,,,,,,,,,,,1.2175925970077515,0.8091576999868266,541.423861599993,None,ScrollDown,정답입니다,541.423861599993,None,541.423861599993,None,541.423861599993,None,541.423861599993,None,542.1316499999957,None,542.1316499999957,542.6338463000138,,,,,,,,,,,,,,,,001,2022-05-02_11h24.28.800,FishGame,2022.1.1,59.80775396090755,
,6,나를 데려가줘,6,Green,B,0,0,ScrollDown,ScrollUp,Green.png,4,NonTarget,NonTarget,0,0,0,0,,,,,,,,,,,,,,,,,,,,,,,,,0,5,5,5,,,,,,,,,,,,,,,,,,,,,,,,,,,,,,,,,,,,,,,,,,,,,,,,,,,,,,,,,,,,,,,,,,,,,,,,,1.2206790000200272,0.8257952999556437,543.258187600004,None,ScrollDown,정답입니다,543.258187600004,None,543.258187600004,None,543.258187600004,None,543.258187600004,None,543.9816769000026,None,543.9816769000026,544.4837897999678,,,,,,,,,,,,,,,,001,2022-05-02_11h24.28.800,FishGame,2022.1.1,59.80775396090755,
,7,넌 고집불통이야,5,Green,B,2.875,2,ScrollUp,ScrollDown,Green.png,4,Negative,Congruent,0,0,0,0,,,,,,,,,,,,,,,,,,,,,,,,,0,6,6,6,,,,,,,,,,,,,,,,,,,,,,,,,,,,,,,,,,,,,,,,,,,,,,,,,,,,,,,,,,,,,,,,,,,,,,,,,1.6126543184121451,0.8588701999979094,545.1167205999955,None,ScrollUp,정답입니다,545.1167205999955,None,545.1167205999955,None,545.1167205999955,None,545.1167205999955,None,545.864860599977,None,545.864860599977,546.3649077999871,,,,,,,,,,,,,,,,001,2022-05-02_11h24.28.800,FishGame,2022.1.1,59.80775396090755,
,8,넌 무심해,4,Orange,A,2.875,3.2,ScrollDown,ScrollUp,Orange.png,4,Negative,Incongruent,0,0,0,0,,,,,,,,,,,,,,,,,,,,,,,,,0,7,7,7,,,,,,,,,,,,,,,,,,,,,,,,,,,,,,,,,,,,,,,,,,,,,,,,,,,,,,,,,,,,,,,,,,,,,,,,,1.3580246915419898,0.7592383000301197,546.9870462999679,None,ScrollDown,정답입니다,546.9870462999679,None,546.9870462999679,None,546.9870462999679,None,546.9870462999679,None,547.6481727999635,None,547.6481727999635,548.148235199973,,,,,,,,,,,,,,,,001,2022-05-02_11h24.28.800,FishGame,2022.1.1,59.80775396090755,
,9,넌 정겨워,1,Orange,A,5.791666666666667,5.666666666666667,ScrollDown,ScrollUp,Orange.png,4,Positive,Congruent,0,0,0,0,,,,,,,,,,,,,,,,,,,,,,,,,0,8,8,8,,,,,,,,,,,,,,,,,,,,,,,,,,,,,,,,,,,,,,,,,,,,,,,,,,,,,,,,,,,,,,,,,,,,,,,,,1.31635802735885,0.7614785999758169,548.783230800007,None,ScrollDown,정답입니다,548.783230800007,None,548.783230800007,None,548.783230800007,None,548.783230800007,None,549.4315109999734,None,549.4315109999734,549.9337854000041,,,,,,,,,,,,,,,,001,2022-05-02_11h24.28.800,FishGame,2022.1.1,59.80775396090755,
,10,나를 데려가줘,6,Green,B,0,0,ScrollDown,ScrollUp,Green.png,4,NonTarget,NonTarget,0,0,0,0,,,,,,,,,,,,,,,,,,,,,,,,,0,9,9,9,,,,,,,,,,,,,,,,,,,,,,,,,,,,,,,,,,,,,,,,,,,,,,,,,,,,,,,,,,,,,,,,,,,,,,,,,1.0570987462997437,0.9282765000243671,550.5462522999733,None,ScrollDown,정답입니다,550.5462522999733,None,550.5462522999733,None,550.5462522999733,None,550.5462522999733,None,551.381393699965,None,551.381393699965,551.8814992000116,,,,,,,,,,,,,,,,001,2022-05-02_11h24.28.800,FishGame,2022.1.1,59.80775396090755,
,11,넌 체제순응적이야,4,Green,B,3,3.6,ScrollUp,ScrollDown,Green.png,4,Negative,Congruent,0,0,0,0,,,,,,,,,,,,,,,,,,,,,,,,,0,10,10,10,,,,,,,,,,,,,,,,,,,,,,,,,,,,,,,,,,,,,,,,,,,,,,,,,,,,,,,,,,,,,,,,,,,,,,,,,1.6913580298423767,1.0117320999852382,552.5103989999625,None,ScrollUp,정답입니다,552.5103989999625,None,552.5103989999625,None,552.5103989999625,None,552.5103989999625,None,553.4147438000073,None,553.4147438000073,553.9169562999741,,,,,,,,,,,,,,,,001,2022-05-02_11h24.28.800,FishGame,2022.1.1,59.80775396090755,
,12,나를 보내줘,6,Orange,A,0,0,ScrollUp,ScrollDown,Orange.png,4,NonTarget,NonTarget,0,0,0,0,,,,,,,,,,,,,,,,,,,,,,,,,0,11,11,11,,,,,,,,,,,,,,,,,,,,,,,,,,,,,,,,,,,,,,,,,,,,,,,,,,,,,,,,,,,,,,,,,,,,,,,,,1.71913580596447,0.8754958999925293,554.5348195999977,None,ScrollUp,정답입니다,554.5348195999977,None,554.5348195999977,None,554.5348195999977,None,554.5348195999977,None,555.3146573000122,None,555.3146573000122,555.8147177000064,,,,,,,,,,,,,,,,001,2022-05-02_11h24.28.800,FishGame,2022.1.1,59.80775396090755,
,13,넌 박식해,2,Orange,A,5.625,3.933333333333333,ScrollDown,ScrollUp,Orange.png,4,Positive,Congruent,0,0,0,0,,,,,,,,,,,,,,,,,,,,,,,,,0,12,12,12,,,,,,,,,,,,,,,,,,,,,,,,,,,,,,,,,,,,,,,,,,,,,,,,,,,,,,,,,,,,,,,,,,,,,,,,,1.174382706483205,0.8276130000012927,556.4406643999973,None,ScrollDown,정답입니다,556.4406643999973,None,556.4406643999973,None,556.4406643999973,None,556.4406643999973,None,557.1646325999754,None,557.1646325999754,557.6668577999808,,,,,,,,,,,,,,,,001,2022-05-02_11h24.28.800,FishGame,2022.1.1,59.80775396090755,
,14,나를 보내줘,6,Orange,A,0,0,ScrollUp,ScrollDown,Orange.png,4,NonTarget,NonTarget,0,0,0,0,,,,,,,,,,,,,,,,,,,,,,,,,0,13,13,13,,,,,,,,,,,,,,,,,,,,,,,,,,,,,,,,,,,,,,,,,,,,,,,,,,,,,,,,,,,,,,,,,,,,,,,,,1.7762345721324284,0.8595032999874093,558.2868718999671,None,ScrollUp,정답입니다,558.2868718999671,None,558.2868718999671,None,558.2868718999671,None,558.2868718999671,None,559.0479883999797,None,559.0479883999797,559.550185,,,,,,,,,,,,,,,,001,2022-05-02_11h24.28.800,FishGame,2022.1.1,59.80775396090755,
,15,넌 침착해,1,Green,B,5.458333333333333,5.566666666666666,ScrollUp,ScrollDown,Green.png,4,Positive,Incongruent,0,0,0,0,,,,,,,,,,,,,,,,,,,,,,,,,0,14,14,14,,,,,,,,,,,,,,,,,,,,,,,,,,,,,,,,,,,,,,,,,,,,,,,,,,,,,,,,,,,,,,,,,,,,,,,,,1.7160493781169257,0.8943016999983229,560.1741727999761,None,ScrollUp,정답입니다,560.1741727999761,None,560.1741727999761,None,560.1741727999761,None,560.1741727999761,None,560.9645626000129,None,560.9645626000129,561.4667453999864,,,,,,,,,,,,,,,,001,2022-05-02_11h24.28.800,FishGame,2022.1.1,59.80775396090755,
,16,나를 데려가줘,6,Green,B,0,0,ScrollDown,ScrollUp,Green.png,4,NonTarget,NonTarget,0,0,0,0,,,,,,,,,,,,,,,,,,,,,,,,,0,15,15,15,,,,,,,,,,,,,,,,,,,,,,,,,,,,,,,,,,,,,,,,,,,,,,,,,,,,,,,,,,,,,,,,,,,,,,,,,1.0108024775981903,0.9262319999979809,562.0808806999703,None,ScrollDown,정답입니다,562.0808806999703,None,562.0808806999703,None,562.0808806999703,None,562.0808806999703,None,562.9167601999943,None,562.9167601999943,563.4167549000122,,,,,,,,,,,,,,,,001,2022-05-02_11h24.28.800,FishGame,2022.1.1,59.80775396090755,
,17,넌 행복해,1,Orange,A,6.416666666666666,6.166666666666667,ScrollDown,ScrollUp,Orange.png,4,Positive,Congruent,0,0,0,0,,,,,,,,,,,,,,,,,,,,,,,,,0,16,16,16,,,,,,,,,,,,,,,,,,,,,,,,,,,,,,,,,,,,,,,,,,,,,,,,,,,,,,,,,,,,,,,,,,,,,,,,,1.095679019888242,0.8432768000056967,564.0422837999649,None,ScrollDown,정답입니다,564.0422837999649,None,564.0422837999649,None,564.0422837999649,None,564.0422837999649,None,564.7812059000134,None,564.7812059000134,565.2834069000091,,,,,,,,,,,,,,,,001,2022-05-02_11h24.28.800,FishGame,2022.1.1,59.80775396090755,
,18,넌 겸손해,2,Green,B,5.791666666666667,4.766666666666667,ScrollUp,ScrollDown,Green.png,4,Positive,Incongruent,0,0,0,0,,,,,,,,,,,,,,,,,,,,,,,,,0,17,17,17,,,,,,,,,,,,,,,,,,,,,,,,,,,,,,,,,,,,,,,,,,,,,,,,,,,,,,,,,,,,,,,,,,,,,,,,,1.7777777860562007,0.8921936000115238,565.9057504999801,None,ScrollUp,정답입니다,565.9057504999801,None,565.9057504999801,None,565.9057504999801,None,565.9057504999801,None,566.6978370000143,None,566.6978370000143,567.1978957999963,,,,,,,,,,,,,,,,001,2022-05-02_11h24.28.800,FishGame,2022.1.1,59.80775396090755,
,19,나를 보내줘,6,Orange,A,0,0,ScrollUp,ScrollDown,Orange.png,4,NonTarget,NonTarget,0,0,0,0,,,,,,,,,,,,,,,,,,,,,,,,,0,18,18,18,,,,,,,,,,,,,,,,,,,,,,,,,,,,,,,,,,,,,,,,,,,,,,,,,,,,,,,,,,,,,,,,,,,,,,,,,1.7962963034709294,0.9625642000464723,567.8159950000118,None,ScrollUp,정답입니다,567.8159950000118,None,567.8159950000118,None,567.8159950000118,None,567.8159950000118,None,568.6810714000021,None,568.6810714000021,569.1832703999826,,,,,,,,,,,,,,,,001,2022-05-02_11h24.28.800,FishGame,2022.1.1,59.80775396090755,
,20,넌 의심없어,3,Orange,A,4.166666666666667,4.6,ScrollDown,ScrollUp,Orange.png,4,Neutral,Neutral,0,0,0,0,,,,,,,,,,,,,,,,,,,,,,,,,0,19,19,19,,,,,,,,,,,,,,,,,,,,,,,,,,,,,,,,,,,,,,,,,,,,,,,,,,,,,,,,,,,,,,,,,,,,,,,,,1.2283950696388881,0.828028500021901,569.803995699971,None,ScrollDown,정답입니다,569.803995699971,None,569.803995699971,None,569.803995699971,None,569.803995699971,None,570.531083000009,None,570.531083000009,571.0311729999958,,,,,,,,,,,,,,,,001,2022-05-02_11h24.28.800,FishGame,2022.1.1,59.80775396090755,
,21,넌 시시해,4,Orange,A,2.666666666666667,2.966666666666667,ScrollDown,ScrollUp,Orange.png,4,Negative,Incongruent,0,0,0,0,,,,,,,,,,,,,,,,,,,,,,,,,0,20,20,20,,,,,,,,,,,,,,,,,,,,,,,,,,,,,,,,,,,,,,,,,,,,,,,,,,,,,,,,,,,,,,,,,,,,,,,,,1.2237654278675716,0.8427085999865085,571.6511546999682,None,ScrollDown,정답입니다,571.6511546999682,None,571.6511546999682,None,571.6511546999682,None,571.6511546999682,None,572.3976384999696,None,572.3976384999696,572.8977225999697,,,,,,,,,,,,,,,,001,2022-05-02_11h24.28.800,FishGame,2022.1.1,59.80775396090755,
,22,나를 데려가줘,6,Green,B,0,0,ScrollDown,ScrollUp,Green.png,4,NonTarget,NonTarget,0,0,0,0,,,,,,,,,,,,,,,,,,,,,,,,,0,21,21,21,,,,,,,,,,,,,,,,,,,,,,,,,,,,,,,,,,,,,,,,,,,,,,,,,,,,,,,,,,,,,,,,,,,,,,,,,1.253086417913437,0.9127707000006922,573.5122087000054,None,ScrollDown,정답입니다,573.5122087000054,None,573.5122087000054,None,573.5122087000054,None,573.5122087000054,None,574.3309571999707,None,574.3309571999707,574.8333016000106,,,,,,,,,,,,,,,,001,2022-05-02_11h24.28.800,FishGame,2022.1.1,59.80775396090755,
,23,넌 무정해,5,Orange,A,2.5,2.2,ScrollDown,ScrollUp,Orange.png,4,Negative,Incongruent,0,0,0,0,,,,,,,,,,,,,,,,,,,,,,,,,0,22,22,22,,,,,,,,,,,,,,,,,,,,,,,,,,,,,,,,,,,,,,,,,,,,,,,,,,,,,,,,,,,,,,,,,,,,,,,,,1.212962955236435,0.9602563000516966,575.4480799000012,None,ScrollDown,정답입니다,575.4480799000012,None,575.4480799000012,None,575.4480799000012,None,575.4480799000012,None,576.3143386999727,None,576.3143386999727,576.8165066000074,,,,,,,,,,,,,,,,001,2022-05-02_11h24.28.800,FishGame,2022.1.1,59.80775396090755,
,24,넌 긍정적이야,1,Green,B,6.041666666666667,6.066666666666666,ScrollUp,ScrollDown,Green.png,4,Positive,Incongruent,0,0,0,0,,,,,,,,,,,,,,,,,,,,,,,,,0,23,23,23,,,,,,,,,,,,,,,,,,,,,,,,,,,,,,,,,,,,,,,,,,,,,,,,,,,,,,,,,,,,,,,,,,,,,,,,,1.879629631837209,1.1253021999727935,577.4393972000107,None,ScrollUp,정답입니다,577.4393972000107,None,577.4393972000107,None,577.4393972000107,None,577.4393972000107,None,578.46421559999,None,578.46421559999,578.966402399994,,,,,,,,,,,,,,,,001,2022-05-02_11h24.28.800,FishGame,2022.1.1,59.80775396090755,
,25,나를 보내줘,6,Orange,A,0,0,ScrollUp,ScrollDown,Orange.png,4,NonTarget,NonTarget,0,0,0,0,,,,,,,,,,,,,,,,,,,,,,,,,0,24,24,24,,,,,,,,,,,,,,,,,,,,,,,,,,,,,,,,,,,,,,,,,,,,,,,,,,,,,,,,,,,,,,,,,,,,,,,,,1.674382713933786,0.9277778000105172,579.5852552999859,None,ScrollUp,정답입니다,579.5852552999859,None,579.5852552999859,None,579.5852552999859,None,579.5852552999859,None,580.414195099962,None,580.414195099962,580.9142607999966,,,,,,,,,,,,,,,,001,2022-05-02_11h24.28.800,FishGame,2022.1.1,59.80775396090755,
,26,넌 시기심이 많아,5,Green,B,2.458333333333333,2.233333333333333,ScrollUp,ScrollDown,Green.png,4,Negative,Congruent,0,0,0,0,,,,,,,,,,,,,,,,,,,,,,,,,0,25,25,25,,,,,,,,,,,,,,,,,,,,,,,,,,,,,,,,,,,,,,,,,,,,,,,,,,,,,,,,,,,,,,,,,,,,,,,,,1.6111111169060073,0.9757971999933943,581.5381705999607,None,ScrollUp,정답입니다,581.5381705999607,None,581.5381705999607,None,581.5381705999607,None,581.5381705999607,None,582.4141916999943,None,582.4141916999943,582.914172299963,,,,,,,,,,,,,,,,001,2022-05-02_11h24.28.800,FishGame,2022.1.1,59.80775396090755,
,27,넌 탁월해,2,Orange,A,5.708333333333334,4.5,ScrollDown,ScrollUp,Orange.png,4,Positive,Congruent,0,0,0,0,,,,,,,,,,,,,,,,,,,,,,,,,0,26,26,26,,,,,,,,,,,,,,,,,,,,,,,,,,,,,,,,,,,,,,,,,,,,,,,,,,,,,,,,,,,,,,,,,,,,,,,,,1.2623456766208014,0.8780582000035793,583.5378872999572,None,ScrollDown,정답입니다,583.5378872999572,None,583.5378872999572,None,583.5378872999572,None,583.5378872999572,None,584.3140915000113,None,584.3140915000113,584.8141660999972,,,,,,,,,,,,,,,,001,2022-05-02_11h24.28.800,FishGame,2022.1.1,59.80775396090755,
,28,나를 데려가줘,6,Green,B,0,0,ScrollDown,ScrollUp,Green.png,4,NonTarget,NonTarget,0,0,0,0,,,,,,,,,,,,,,,,,,,,,,,,,0,27,27,27,,,,,,,,,,,,,,,,,,,,,,,,,,,,,,,,,,,,,,,,,,,,,,,,,,,,,,,,,,,,,,,,,,,,,,,,,1,1.4610483000287786,585.4335110000102,None,ScrollDown,정답입니다,585.4335110000102,None,585.4335110000102,None,585.4335110000102,None,585.4335110000102,None,586.7974092999939,None,586.7974092999939,587.2997687999741,,,,,,,,,,,,,,,,001,2022-05-02_11h24.28.800,FishGame,2022.1.1,59.80775396090755,
,29,넌 조용해,3,Green,B,4.333333333333333,4.166666666666667,ScrollUp,ScrollDown,Green.png,4,Neutral,Neutral,0,0,0,0,,,,,,,,,,,,,,,,,,,,,,,,,0,28,28,28,,,,,,,,,,,,,,,,,,,,,,,,,,,,,,,,,,,,,,,,,,,,,,,,,,,,,,,,,,,,,,,,,,,,,,,,,1,0.9936632000026293,587.9160645999946,None,ScrollDown,오답입니다,587.9160645999946,None,587.9160645999946,None,587.9160645999946,None,587.9160645999946,None,588.8139893999905,None,588.8139893999905,589.3161805999698,,,,,,,,,,,,,,,,001,2022-05-02_11h24.28.800,FishGame,2022.1.1,59.80775396090755,
,30,넌 다정해,1,Orange,A,5.833333333333334,5.7,ScrollDown,ScrollUp,Orange.png,4,Positive,Congruent,0,0,0,0,,,,,,,,,,,,,,,,,,,,,,,,,0,29,29,29,,,,,,,,,,,,,,,,,,,,,,,,,,,,,,,,,,,,,,,,,,,,,,,,,,,,,,,,,,,,,,,,,,,,,,,,,1,0.9445697999908589,589.9442634999868,None,ScrollDown,정답입니다,589.9442634999868,None,589.9442634999868,None,589.9442634999868,None,589.9442634999868,None,590.7806739999796,None,590.7806739999796,591.2807446999941,,,,,,,,,,,,,,,,001,2022-05-02_11h24.28.800,FishGame,2022.1.1,59.80775396090755,
,31,넌 능력있어,2,Green,B,6.166666666666666,4.6,ScrollUp,ScrollDown,Green.png,4,Positive,Incongruent,0,0,0,0,,,,,,,,,,,,,,,,,,,,,,,,,0,30,30,30,,,,,,,,,,,,,,,,,,,,,,,,,,,,,,,,,,,,,,,,,,,,,,,,,,,,,,,,,,,,,,,,,,,,,,,,,1.9336419701576233,0.8261222000000998,591.8970057999832,None,ScrollUp,정답입니다,591.8970057999832,None,591.8970057999832,None,591.8970057999832,None,591.8970057999832,None,592.630631899985,None,592.630631899985,593.1306566999992,,,,,,,,,,,,,,,,001,2022-05-02_11h24.28.800,FishGame,2022.1.1,59.80775396090755,
,32,넌 불쾌해,5,Orange,A,2.125,1.933333333333333,ScrollDown,ScrollUp,Orange.png,4,Negative,Incongruent,0,0,0,0,,,,,,,,,,,,,,,,,,,,,,,,,0,31,31,31,,,,,,,,,,,,,,,,,,,,,,,,,,,,,,,,,,,,,,,,,,,,,,,,,,,,,,,,,,,,,,,,,,,,,,,,,1.0540123681227367,0.894603000022471,593.7464694000082,None,ScrollDown,정답입니다,593.7464694000082,None,593.7464694000082,None,593.7464694000082,None,593.7464694000082,None,594.5472291999613,None,594.5472291999613,595.0473242999869,,,,,,,,,,,,,,,,001,2022-05-02_11h24.28.800,FishGame,2022.1.1,59.80775396090755,
,33,나를 데려가줘,6,Green,B,0,0,ScrollDown,ScrollUp,Green.png,4,NonTarget,NonTarget,0,0,0,0,,,,,,,,,,,,,,,,,,,,,,,,,0,32,32,32,,,,,,,,,,,,,,,,,,,,,,,,,,,,,,,,,,,,,,,,,,,,,,,,,,,,,,,,,,,,,,,,,,,,,,,,,1.0108024775981903,0.9782955999835394,595.6659966000007,None,ScrollDown,정답입니다,595.6659966000007,None,595.6659966000007,None,595.6659966000007,None,595.6659966000007,None,596.5472259999951,None,596.5472259999951,597.0495831000153,,,,,,,,,,,,,,,,001,2022-05-02_11h24.28.800,FishGame,2022.1.1,59.80775396090755,
,34,넌 유순해,3,Orange,A,4.458333333333333,5,ScrollDown,ScrollUp,Orange.png,4,Neutral,Neutral,0,0,0,0,,,,,,,,,,,,,,,,,,,,,,,,,0,33,33,33,,,,,,,,,,,,,,,,,,,,,,,,,,,,,,,,,,,,,,,,,,,,,,,,,,,,,,,,,,,,,,,,,,,,,,,,,1,0.9276984999887645,597.667961900006,None,ScrollDown,정답입니다,597.667961900006,None,597.667961900006,None,597.667961900006,None,597.667961900006,None,598.4971208999632,None,598.4971208999632,598.9971834999742,,,,,,,,,,,,,,,,001,2022-05-02_11h24.28.800,FishGame,2022.1.1,59.80775396090755,
,35,넌 근심스러워,4,Green,B,2.708333333333333,3.133333333333333,ScrollUp,ScrollDown,Green.png,4,Negative,Congruent,0,0,0,0,,,,,,,,,,,,,,,,,,,,,,,,,0,34,34,34,,,,,,,,,,,,,,,,,,,,,,,,,,,,,,,,,,,,,,,,,,,,,,,,,,,,,,,,,,,,,,,,,,,,,,,,,1.8935185074806213,0.9791251000133343,599.6148214999703,None,ScrollUp,정답입니다,599.6148214999703,None,599.6148214999703,None,599.6148214999703,None,599.6148214999703,None,600.4971256999997,None,600.4971256999997,600.9972115000128,,,,,,,,,,,,,,,,001,2022-05-02_11h24.28.800,FishGame,2022.1.1,59.80775396090755,
,36,넌 세련되었어,2,Orange,A,5.5,4.6,ScrollDown,ScrollUp,Orange.png,4,Positive,Congruent,0,0,0,0,,,,,,,,,,,,,,,,,,,,,,,,,0,35,35,35,,,,,,,,,,,,,,,,,,,,,,,,,,,,,,,,,,,,,,,,,,,,,,,,,,,,,,,,,,,,,,,,,,,,,,,,,1.2947530820965767,0.8091030999785289,601.6283947000047,None,ScrollDown,정답입니다,601.6283947000047,None,601.6283947000047,None,601.6283947000047,None,601.6283947000047,None,602.3304712999961,None,602.3304712999961,602.8358040999738,,,,,,,,,,,,,,,,001,2022-05-02_11h24.28.800,FishGame,2022.1.1,59.80775396090755,
,37,나를 보내줘,6,Orange,A,0,0,ScrollUp,ScrollDown,Orange.png,4,NonTarget,NonTarget,0,0,0,0,,,,,,,,,,,,,,,,,,,,,,,,,0,36,36,36,,,,,,,,,,,,,,,,,,,,,,,,,,,,,,,,,,,,,,,,,,,,,,,,,,,,,,,,,,,,,,,,,,,,,,,,,1.8564814726511638,1.0945808999822475,603.4535950999707,None,ScrollUp,정답입니다,603.4535950999707,None,603.4535950999707,None,603.4535950999707,None,603.4535950999707,None,604.4469998999848,None,604.4469998999848,604.9492256999947,,,,,,,,,,,,,,,,001,2022-05-02_11h24.28.800,FishGame,2022.1.1,59.80775396090755,
,38,넌 확고해,3,Green,B,4.708333333333334,4.566666666666666,ScrollUp,ScrollDown,Green.png,4,Neutral,Neutral,0,0,0,0,,,,,,,,,,,,,,,,,,,,,,,,,0,37,37,37,,,,,,,,,,,,,,,,,,,,,,,,,,,,,,,,,,,,,,,,,,,,,,,,,,,,,,,,,,,,,,,,,,,,,,,,,1.8456790000200272,0.9761476999847218,605.5683656999609,None,ScrollUp,정답입니다,605.5683656999609,None,605.5683656999609,None,605.5683656999609,None,605.5683656999609,None,606.4470067999791,None,606.4470067999791,606.9492987999693,,,,,,,,,,,,,,,,001,2022-05-02_11h24.28.800,FishGame,2022.1.1,59.80775396090755,
,39,넌 이해심이 많아,1,Green,B,6.041666666666668,5.533333333333333,ScrollUp,ScrollDown,Green.png,4,Positive,Incongruent,0,0,0,0,,,,,,,,,,,,,,,,,,,,,,,,,0,38,38,38,,,,,,,,,,,,,,,,,,,,,,,,,,,,,,,,,,,,,,,,,,,,,,,,,,,,,,,,,,,,,,,,,,,,,,,,,1.8364197413126628,0.910704700043425,607.561195999966,None,ScrollUp,정답입니다,607.561195999966,None,607.561195999966,None,607.561195999966,None,607.561195999966,None,608.3803201999981,None,608.3803201999981,608.8803345999913,,,,,,,,,,,,,,,,001,2022-05-02_11h24.28.800,FishGame,2022.1.1,59.80775396090755,
,40,나를 보내줘,6,Orange,A,0,0,ScrollUp,ScrollDown,Orange.png,4,NonTarget,NonTarget,0,0,0,0,,,,,,,,,,,,,,,,,,,,,,,,,0,39,39,39,,,,,,,,,,,,,,,,,,,,,,,,,,,,,,,,,,,,,,,,,,,,,,,,,,,,,,,,,,,,,,,,,,,,,,,,,1.68364197264115,0.8946676999912597,609.4966772999614,None,ScrollUp,정답입니다,609.4966772999614,None,609.4966772999614,None,609.4966772999614,None,609.4966772999614,None,610.2970107999863,None,610.2970107999863,610.7969692999613,,,,,,,,,,,,,,,,001,2022-05-02_11h24.28.800,FishGame,2022.1.1,59.80775396090755,
,41,넌 거칠어,4,Orange,A,2.625,3.033333333333333,ScrollDown,ScrollUp,Orange.png,4,Negative,Incongruent,0,0,0,0,,,,,,,,,,,,,,,,,,,,,,,,,0,40,40,40,,,,,,,,,,,,,,,,,,,,,,,,,,,,,,,,,,,,,,,,,,,,,,,,,,,,,,,,,,,,,,,,,,,,,,,,,1.2391975422700245,0.8427809999557212,611.4242912000045,None,ScrollDown,정답입니다,611.4242912000045,None,611.4242912000045,None,611.4242912000045,None,611.4242912000045,None,612.1658320999704,None,612.1658320999704,612.6636372999637,,,,,,,,,,,,,,,,001,2022-05-02_11h24.28.800,FishGame,2022.1.1,59.80775396090755,
,42,넌 변덕맞아,5,Green,B,2.75,2.166666666666667,ScrollUp,ScrollDown,Green.png,4,Negative,Congruent,0,0,0,0,,,,,,,,,,,,,,,,,,,,,,,,,0,41,41,41,,,,,,,,,,,,,,,,,,,,,,,,,,,,,,,,,,,,,,,,,,,,,,,,,,,,,,,,,,,,,,,,,,,,,,,,,1.629629634320736,0.8425259999930859,613.2918266999768,None,ScrollUp,정답입니다,613.2918266999768,None,613.2918266999768,None,613.2918266999768,None,613.2918266999768,None,614.0301458999747,None,614.0301458999747,614.5302132999641,,,,,,,,,,,,,,,,001,2022-05-02_11h24.28.800,FishGame,2022.1.1,59.80775396090755,
,43,나를 데려가줘,6,Green,B,0,0,ScrollDown,ScrollUp,Green.png,4,NonTarget,NonTarget,0,0,0,0,,,,,,,,,,,,,,,,,,,,,,,,,0,42,42,42,,,,,,,,,,,,,,,,,,,,,,,,,,,,,,,,,,,,,,,,,,,,,,,,,,,,,,,,,,,,,,,,,,,,,,,,,1.1527777860562007,0.9096010000212118,615.1508283999865,None,ScrollDown,정답입니다,615.1508283999865,None,615.1508283999865,None,615.1508283999865,None,615.1508283999865,None,615.9634682000033,None,615.9634682000033,616.463539099961,,,,,,,,,,,,,,,,001,2022-05-02_11h24.28.800,FishGame,2022.1.1,59.80775396090755,
,44,넌 외로워,4,Green,B,2.833333333333333,3.3,ScrollUp,ScrollDown,Green.png,4,Negative,Congruent,0,0,0,0,,,,,,,,,,,,,,,,,,,,,,,,,0,43,43,43,,,,,,,,,,,,,,,,,,,,,,,,,,,,,,,,,,,,,,,,,,,,,,,,,,,,,,,,,,,,,,,,,,,,,,,,,1.7746913582086563,0.842584700032603,617.0863096999819,None,ScrollUp,정답입니다,617.0863096999819,None,617.0863096999819,None,617.0863096999819,None,617.0863096999819,None,617.8301425999962,None,617.8301425999962,618.3324127999949,,,,,,,,,,,,,,,,001,2022-05-02_11h24.28.800,FishGame,2022.1.1,59.80775396090755,
,1,넌 불평스러워,5,Orange,A,2.25,2.066666666666667,ScrollDown,ScrollUp,Orange.png,5,Negative,Incongruent,0,0,0,0,,,,,,,,,,,,,,,,,,,,,,,,,,,,,0,0,0,0,,,,,,,,,,,,,,,,,,,,,,,,,,,,652.2461695999955,653.7484781999956,653.7817745999782,654.7484346000128,654.779469000001,655.734820499958,655.7181407999597,None,,,,,,,,,,,,,,,,,,,,,,,,,,,,,,,,,,1,1.7246271999902092,656.8321123999776,None,ScrollDown,정답입니다,656.8321123999776,None,656.8321123999776,None,656.8321123999776,None,656.8321123999776,None,658.4627105999971,None,658.4627105999971,658.9648639999796,618.829868700006,None,618.829868700006,None,0.12777779,-0.10185185,1,0,0,0.016200710029806942,None,648.8295405000099,None,,,001,2022-05-02_11h24.28.800,FishGame,2022.1.1,59.80775396090755,
,2,나를 보내줘,6,Orange,A,0,0,ScrollUp,ScrollDown,Orange.png,5,NonTarget,NonTarget,0,0,0,0,,,,,,,,,,,,,,,,,,,,,,,,,,,,,0,1,1,1,,,,,,,,,,,,,,,,,,,,,,,,,,,,,,,,,,,,,,,,,,,,,,,,,,,,,,,,,,,,,,,,,,,,,1.7839506169160206,0.9591156999813393,659.5843018000014,None,ScrollUp,정답입니다,659.5843018000014,None,659.5843018000014,None,659.5843018000014,None,659.5843018000014,None,660.4458697999944,None,660.4458697999944,660.9459392999997,,,,,,,,,,,,,,,,001,2022-05-02_11h24.28.800,FishGame,2022.1.1,59.80775396090755,
,3,넌 다재다능해,2,Green,B,6.208333333333333,4.5,ScrollUp,ScrollDown,Green.png,5,Positive,Incongruent,0,0,0,0,,,,,,,,,,,,,,,,,,,,,,,,,,,,,0,2,2,2,,,,,,,,,,,,,,,,,,,,,,,,,,,,,,,,,,,,,,,,,,,,,,,,,,,,,,,,,,,,,,,,,,,,,1.8209876517454784,0.7949524999712594,661.5659245999996,None,ScrollUp,정답입니다,661.5659245999996,None,661.5659245999996,None,661.5659245999996,None,661.5659245999996,None,662.2626037999871,None,662.2626037999871,662.7626184999826,,,,,,,,,,,,,,,,001,2022-05-02_11h24.28.800,FishGame,2022.1.1,59.80775396090755,
,4,넌 과감해,3,Orange,A,4.833333333333334,4.6,ScrollDown,ScrollUp,Orange.png,5,Neutral,Neutral,0,0,0,0,,,,,,,,,,,,,,,,,,,,,,,,,,,,,0,3,3,3,,,,,,,,,,,,,,,,,,,,,,,,,,,,,,,,,,,,,,,,,,,,,,,,,,,,,,,,,,,,,,,,,,,,,1.2422839452823002,0.6810417000087909,663.3779896000051,None,ScrollDown,정답입니다,663.3779896000051,None,663.3779896000051,None,663.3779896000051,None,663.3779896000051,None,663.9681927000056,None,663.9681927000056,664.4792294999934,,,,,,,,,,,,,,,,001,2022-05-02_11h24.28.800,FishGame,2022.1.1,59.80775396090755,
,5,넌 고분고분해,3,Green,B,3.75,4.033333333333333,ScrollUp,ScrollDown,Green.png,5,Neutral,Neutral,0,0,0,0,,,,,,,,,,,,,,,,,,,,,,,,,,,,,0,4,4,4,,,,,,,,,,,,,,,,,,,,,,,,,,,,,,,,,,,,,,,,,,,,,,,,,,,,,,,,,,,,,,,,,,,,,1.8086419651905696,0.8096349000115879,665.101259899966,None,ScrollUp,정답입니다,665.101259899966,None,665.101259899966,None,665.101259899966,None,665.101259899966,None,665.8124299999909,None,665.8124299999909,666.3125384000014,,,,,,,,,,,,,,,,001,2022-05-02_11h24.28.800,FishGame,2022.1.1,59.80775396090755,
,6,나를 보내줘,6,Orange,A,0,0,ScrollUp,ScrollDown,Orange.png,5,NonTarget,NonTarget,0,0,0,0,,,,,,,,,,,,,,,,,,,,,,,,,,,,,0,5,5,5,,,,,,,,,,,,,,,,,,,,,,,,,,,,,,,,,,,,,,,,,,,,,,,,,,,,,,,,,,,,,,,,,,,,,1.6481481517354646,0.8281849999912083,666.9324788000085,None,ScrollUp,정답입니다,666.9324788000085,None,666.9324788000085,None,666.9324788000085,None,666.9324788000085,None,667.6624739000108,None,667.6624739000108,668.1625203000149,,,,,,,,,,,,,,,,001,2022-05-02_11h24.28.800,FishGame,2022.1.1,59.80775396090755,
,7,넌 잘 잊어,4,Orange,A,3,3.7,ScrollDown,ScrollUp,Orange.png,5,Negative,Incongruent,0,0,0,0,,,,,,,,,,,,,,,,,,,,,,,,,,,,,0,6,6,6,,,,,,,,,,,,,,,,,,,,,,,,,,,,,,,,,,,,,,,,,,,,,,,,,,,,,,,,,,,,,,,,,,,,,1.0540123681227367,0.7778065999737009,668.7844209999894,None,ScrollDown,정답입니다,668.7844209999894,None,668.7844209999894,None,668.7844209999894,None,668.7844209999894,None,669.4624221000122,None,669.4624221000122,669.9645147999981,,,,,,,,,,,,,,,,001,2022-05-02_11h24.28.800,FishGame,2022.1.1,59.80775396090755,
,8,넌 탐구심이없어,4,Green,B,2.833333333333333,3.066666666666667,ScrollUp,ScrollDown,Green.png,5,Negative,Congruent,0,0,0,0,,,,,,,,,,,,,,,,,,,,,,,,,,,,,0,7,7,7,,,,,,,,,,,,,,,,,,,,,,,,,,,,,,,,,,,,,,,,,,,,,,,,,,,,,,,,,,,,,,,,,,,,,1.6172839477658272,0.7287327999947593,670.5872259999742,None,ScrollUp,정답입니다,670.5872259999742,None,670.5872259999742,None,670.5872259999742,None,670.5872259999742,None,671.2123554999707,None,671.2123554999707,671.7124335999833,,,,,,,,,,,,,,,,001,2022-05-02_11h24.28.800,FishGame,2022.1.1,59.80775396090755,
,9,나를 데려가줘,6,Green,B,0,0,ScrollDown,ScrollUp,Green.png,5,NonTarget,NonTarget,0,0,0,0,,,,,,,,,,,,,,,,,,,,,,,,,,,,,0,8,8,8,,,,,,,,,,,,,,,,,,,,,,,,,,,,,,,,,,,,,,,,,,,,,,,,,,,,,,,,,,,,,,,,,,,,,1.2577160596847534,0.81110319995787,672.3335581999854,None,ScrollDown,정답입니다,672.3335581999854,None,672.3335581999854,None,672.3335581999854,None,672.3335581999854,None,673.0458239999716,None,673.0458239999716,673.5480620999588,,,,,,,,,,,,,,,,001,2022-05-02_11h24.28.800,FishGame,2022.1.1,59.80775396090755,
,10,넌 참되어,2,Orange,A,6.041666666666664,4.733333333333333,ScrollDown,ScrollUp,Orange.png,5,Positive,Congruent,0,0,0,0,,,,,,,,,,,,,,,,,,,,,,,,,,,,,0,9,9,9,,,,,,,,,,,,,,,,,,,,,,,,,,,,,,,,,,,,,,,,,,,,,,,,,,,,,,,,,,,,,,,,,,,,,1.141975313425064,0.7934871999896131,674.1718364999979,None,ScrollDown,정답입니다,674.1718364999979,None,674.1718364999979,None,674.1718364999979,None,674.1718364999979,None,674.8623504000134,None,674.8623504000134,675.3623408999993,,,,,,,,,,,,,,,,001,2022-05-02_11h24.28.800,FishGame,2022.1.1,59.80775396090755,
,11,넌 생기있어,1,Green,B,5.875,5.633333333333334,ScrollUp,ScrollDown,Green.png,5,Positive,Incongruent,0,0,0,0,,,,,,,,,,,,,,,,,,,,,,,,,,,,,0,10,10,10,,,,,,,,,,,,,,,,,,,,,,,,,,,,,,,,,,,,,,,,,,,,,,,,,,,,,,,,,,,,,,,,,,,,,1.663580241302649,0.8125516999862157,675.9801235999912,None,ScrollUp,정답입니다,675.9801235999912,None,675.9801235999912,None,675.9801235999912,None,675.9801235999912,None,676.6956209999626,None,676.6956209999626,677.1978849999723,,,,,,,,,,,,,,,,001,2022-05-02_11h24.28.800,FishGame,2022.1.1,59.80775396090755,
,12,넌 비사교적이야,4,Green,B,2.875,2.9,ScrollUp,ScrollDown,Green.png,5,Negative,Congruent,0,0,0,0,,,,,,,,,,,,,,,,,,,,,,,,,,,,,0,11,11,11,,,,,,,,,,,,,,,,,,,,,,,,,,,,,,,,,,,,,,,,,,,,,,,,,,,,,,,,,,,,,,,,,,,,,1.5617283955216408,0.7925380999804474,677.8154777999735,None,ScrollUp,정답입니다,677.8154777999735,None,677.8154777999735,None,677.8154777999735,None,677.8154777999735,None,678.5122776000062,None,678.5122776000062,679.0122521999874,,,,,,,,,,,,,,,,001,2022-05-02_11h24.28.800,FishGame,2022.1.1,59.80775396090755,
,13,나를 데려가줘,6,Green,B,0,0,ScrollDown,ScrollUp,Green.png,5,NonTarget,NonTarget,0,0,0,0,,,,,,,,,,,,,,,,,,,,,,,,,,,,,0,12,12,12,,,,,,,,,,,,,,,,,,,,,,,,,,,,,,,,,,,,,,,,,,,,,,,,,,,,,,,,,,,,,,,,,,,,,1.1712963034709294,0.859493299969472,679.6323510999791,None,ScrollDown,정답입니다,679.6323510999791,None,679.6323510999791,None,679.6323510999791,None,679.6323510999791,None,680.3954725000076,None,680.3954725000076,680.8955867000041,,,,,,,,,,,,,,,,001,2022-05-02_11h24.28.800,FishGame,2022.1.1,59.80775396090755,
,14,넌 고독해,4,Orange,A,2.916666666666667,3.233333333333333,ScrollDown,ScrollUp,Orange.png,5,Negative,Incongruent,0,0,0,0,,,,,,,,,,,,,,,,,,,,,,,,,,,,,0,13,13,13,,,,,,,,,,,,,,,,,,,,,,,,,,,,,,,,,,,,,,,,,,,,,,,,,,,,,,,,,,,,,,,,,,,,,1.3271604999899864,0.761562799976673,681.5139018999762,None,ScrollDown,정답입니다,681.5139018999762,None,681.5139018999762,None,681.5139018999762,None,681.5139018999762,None,682.1810284999665,None,682.1810284999665,682.6810359999654,,,,,,,,,,,,,,,,001,2022-05-02_11h24.28.800,FishGame,2022.1.1,59.80775396090755,
,15,넌 신경질적이야,5,Green,B,2.375,2.233333333333333,ScrollUp,ScrollDown,Green.png,5,Negative,Congruent,0,0,0,0,,,,,,,,,,,,,,,,,,,,,,,,,,,,,0,14,14,14,,,,,,,,,,,,,,,,,,,,,,,,,,,,,,,,,,,,,,,,,,,,,,,,,,,,,,,,,,,,,,,,,,,,,1.5046296297417334,0.7088802000507712,683.2995607999619,None,NoResponse,무응답입니다,683.2995607999619,None,683.2995607999619,None,683.2995607999619,None,683.2995607999619,None,683.9120753000025,None,683.9120753000025,684.4121883999906,,,,,,,,,,,,,,,,001,2022-05-02_11h24.28.800,FishGame,2022.1.1,59.80775396090755,
,16,넌 똑똑해,2,Green,B,5.666666666666667,3.966666666666667,ScrollUp,ScrollDown,Green.png,5,Positive,Incongruent,0,0,0,0,,,,,,,,,,,,,,,,,,,,,,,,,,,,,0,15,15,15,,,,,,,,,,,,,,,,,,,,,,,,,,,,,,,,,,,,,,,,,,,,,,,,,,,,,,,,,,,,,,,,,,,,,1.674382713933786,0.8426431000116281,685.0357850000146,None,ScrollUp,정답입니다,685.0357850000146,None,685.0357850000146,None,685.0357850000146,None,685.0357850000146,None,685.7787538999692,None,685.7787538999692,686.2809257999761,,,,,,,,,,,,,,,,001,2022-05-02_11h24.28.800,FishGame,2022.1.1,59.80775396090755,
,17,나를 보내줘,6,Orange,A,0,0,ScrollUp,ScrollDown,Orange.png,5,NonTarget,NonTarget,0,0,0,0,,,,,,,,,,,,,,,,,,,,,,,,,,,,,0,16,16,16,,,,,,,,,,,,,,,,,,,,,,,,,,,,,,,,,,,,,,,,,,,,,,,,,,,,,,,,,,,,,,,,,,,,,1.6250000049670539,1.3446207999950275,686.8952728000004,None,ScrollUp,정답입니다,686.8952728000004,None,686.8952728000004,None,686.8952728000004,None,686.8952728000004,None,688.1453887000098,None,688.1453887000098,688.6477122000069,,,,,,,,,,,,,,,,001,2022-05-02_11h24.28.800,FishGame,2022.1.1,59.80775396090755,
