name,TrialNum,Word,WordCategory,FishType,WordList,WordValence,WordReputation,CorrectResp,IncorrectResp,FishTypeFile,Round,WordType,Condition,LoopforOrange.thisRepN,LoopforOrange.thisTrialN,LoopforOrange.thisN,LoopforOrange.thisIndex,LoopForGreen.thisRepN,LoopForGreen.thisTrialN,LoopForGreen.thisN,LoopForGreen.thisIndex,GreenInstLoop.thisRepN,GreenInstLoop.thisTrialN,GreenInstLoop.thisN,GreenInstLoop.thisIndex,GreenPrac.thisRepN,GreenPrac.thisTrialN,GreenPrac.thisN,GreenPrac.thisIndex,trials_2.thisRepN,trials_2.thisTrialN,trials_2.thisN,trials_2.thisIndex,GreenRound1.thisRepN,GreenRound1.thisTrialN,GreenRound1.thisN,GreenRound1.thisIndex,GreenRound2.thisRepN,GreenRound2.thisTrialN,GreenRound2.thisN,GreenRound2.thisIndex,GreenRound3.thisRepN,GreenRound3.thisTrialN,GreenRound3.thisN,GreenRound3.thisIndex,GreenRound4.thisRepN,GreenRound4.thisTrialN,GreenRound4.thisN,GreenRound4.thisIndex,GreenRound5.thisRepN,GreenRound5.thisTrialN,GreenRound5.thisN,GreenRound5.thisIndex,text_2.started,text_2.stopped,text_3.started,text_3.stopped,key_resp.keys,key_resp.rt,key_resp.started,key_resp.stopped,PassI.started,PassI.stopped,PassInst.keys,PassInst.rt,PassInst.started,PassInst.stopped,mouse_2.x,mouse_2.y,mouse_2.leftButton,mouse_2.midButton,mouse_2.rightButton,mouse_2.started,mouse_2.stopped,image.started,image.stopped,text_5.started,text_5.stopped,text_6.started,text_6.stopped,text_7.started,text_7.stopped,text_8.started,text_8.stopped,slider_3.response,slider_3.rt,slider_3.started,slider_3.stopped,Response_3,Feedback_3,BackGround_3.started,BackGround_3.stopped,Fish_3.started,Fish_3.stopped,WordBox_3.started,WordBox_3.stopped,Words_3.started,Words_3.stopped,BackGround_Feedback_3.started,BackGround_Feedback_3.stopped,Feedbacks_3.started,Feedbacks_3.stopped,Continue_or_not_2.keys,Continue_or_not_2.rt,Continue_or_not_2.started,Continue_or_not_2.stopped,image_4.started,image_4.stopped,mouse_3.x,mouse_3.y,mouse_3.leftButton,mouse_3.midButton,mouse_3.rightButton,mouse_3.started,mouse_3.stopped,startmain.started,startmain.stopped,slider_4.response,slider_4.rt,slider_4.started,slider_4.stopped,Response_4,Feedback_4,BackGround_4.started,BackGround_4.stopped,Fish_4.started,Fish_4.stopped,WordBox_4.started,WordBox_4.stopped,Words_4.started,Words_4.stopped,BackGround_Feedback_4.started,BackGround_Feedback_4.stopped,Feedbacks_4.started,Feedbacks_4.stopped,text.started,text.stopped,break_interval.started,break_interval.stopped,mouse.x,mouse.y,mouse.leftButton,mouse.midButton,mouse.rightButton,mouse.started,mouse.stopped,stratnextround.started,stratnextround.stopped,endgame.started,endgame.stopped,participant,date,expName,psychopyVersion,frameRate,
,,,,,,,,,,,,,,,,,,,,,,,,,,,,,,,,,,,,,,,,,,,,,,,,,,,,,,19.225510300020687,None,19.225510300020687,None,space,3.109385499963537,19.711146999965422,None,,,,,,,,,,,,,,,,,,,,,,,,,,,,,,,,,,,,,,,,,,,,,,,,,,,,,,,,,,,,,,,,,,,,,,,,,,,,,,,,,,,,,,,,,,002,2022-05-04_16h20.25.260,FishGame,2022.1.1,60.177125340372015,
물고기과제_instruction(참가자용)GreenVersion.mp4,,,,,,,,,,,,,,,,,,0,0,0,0,0,0,0,0,,,,,,,,,,,,,,,,,,,,,,,,,,,,,,,,,,,,,113.95911649998743,None,n,5.597162699908949,113.95911649998743,None,,,,,,,,,,,,,,,,,,,,,,,,,,,,,,,,,,,,,,,,,,,,,,,,,,,,,,,,,,,,,,,,,,,,,,,,,,,,,,,,,,,,002,2022-05-04_16h20.25.260,FishGame,2022.1.1,60.177125340372015,
,1,넌 교활해,5,Orange,B,2.333333333333333,2.133333333333333,ScrollUp,ScrollDown,Orange.png,practice,,,,,,,0,0,0,0,,,,,0,0,0,0,0,0,0,0,,,,,,,,,,,,,,,,,,,,,,,,,,,,,,,,,,,0.5185185,-0.27685186,1,0,0,0.5062814201228321,None,119.58317790005822,None,132.10866649996024,133.60855700005777,133.64198710001074,134.59514450002462,134.64247079996858,135.59514410002157,135.59514410002157,None,1.5586419738829136,2.56899689999409,136.9315779999597,None,ScrollUp,정답입니다,136.9315779999597,None,136.9315779999597,None,136.9315779999597,None,136.9315779999597,None,139.1752523999894,None,139.1752523999894,139.67537760001142,,,,,,,,,,,,,,,,,,,,,,,,,,,,,,,,,,,,,,,,,,,,,,,,,002,2022-05-04_16h20.25.260,FishGame,2022.1.1,60.177125340372015,
,2,넌 슬기로워,2,Green,A,6.166666666666667,4.1,ScrollDown,ScrollUp,Green.png,practice,,,,,,,0,0,0,0,,,,,0,0,0,0,0,1,1,1,,,,,,,,,,,,,,,,,,,,,,,,,,,,,,,,,,,,,,,,,,,,,,,,,,,,1.1095678955316544,1.3116193999303505,140.31961230002344,None,ScrollDown,정답입니다,140.31961230002344,None,140.31961230002344,None,140.31961230002344,None,140.31961230002344,None,141.50856159999967,None,141.50856159999967,142.00861729995813,,,,,,,,,,,,,,,,,,,,,,,,,,,,,,,,,,,,,,,,,,,,,,,,,002,2022-05-04_16h20.25.260,FishGame,2022.1.1,60.177125340372015,
,3,나를 보내줘,6,Green,A,0,0,ScrollUp,ScrollDown,Green.png,practice,,,,,,,0,0,0,0,,,,,0,0,0,0,0,2,2,2,,,,,,,,,,,,,,,,,,,,,,,,,,,,,,,,,,,,,,,,,,,,,,,,,,,,1.858024686574936,1.3115152000682428,142.6303109000437,None,ScrollUp,정답입니다,142.6303109000437,None,142.6303109000437,None,142.6303109000437,None,142.6303109000437,None,143.84153550001793,None,143.84153550001793,144.34181690006517,,,,,,,,,,,,,,,,,,,,,,,,,,,,,,,,,,,,,,,,,,,,,,,,,002,2022-05-04_16h20.25.260,FishGame,2022.1.1,60.177125340372015,
,4,나를 데려가줘,6,Orange,B,0,0,ScrollDown,ScrollUp,Orange.png,practice,,,,,,,0,0,0,0,,,,,0,0,0,0,0,3,3,3,,,,,,,,,,,,,,,,,,,,,,,,,,,,,,,,,,,,,,,,,,,,,,,,,,,,1.0092592636744182,1.2747399000218138,144.97091789997648,None,ScrollDown,정답입니다,144.97091789997648,None,144.97091789997648,None,144.97091789997648,None,144.97091789997648,None,146.1251492999727,None,146.1251492999727,146.62517090002075,,,,,,,,,,,,,,,,,,,,,,,,,,,,,,,,,,,,,,,,,,,,,,,,,002,2022-05-04_16h20.25.260,FishGame,2022.1.1,60.177125340372015,
,1,넌 교활해,5,Orange,B,2.333333333333333,2.133333333333333,ScrollUp,ScrollDown,Orange.png,practice,,,,,,,0,0,0,0,,,,,0,0,0,0,,,,,,,,,,,,,,,,,,,,,,,,,,,,,,,,,,,,,,,,,,,,,,,,,,,,,,,,,,,,,,,,,,,,,,,,,,n,25.127740799915045,147.12518049997743,None,147.12518049997743,None,,,,,,,,,,,,,,,,,,,,,,,,,,,,,,,,,,,,,,,,,,,002,2022-05-04_16h20.25.260,FishGame,2022.1.1,60.177125340372015,
,1,넌 따뜻해,1,Orange,B,6.083333333333333,5.6,ScrollUp,ScrollDown,Orange.png,1,Positive,Incongruent,,,,,0,0,0,0,,,,,,,,,,,,,0,0,0,0,,,,,,,,,,,,,,,,,,,,,,,,,,,,,,,,,,,,,,,,174.12420059996657,175.62436699995305,175.65759309998248,176.6108864999842,176.64433349994943,177.59434019995388,177.59434019995388,None,,,,,,,,,,,,,,,,,,,,,,,,,0.07962963,-0.11666667,1,0,0,0.31436081998981535,None,172.27741990005597,None,1.6697530845801034,1.5326154000358656,178.91843900003005,None,ScrollUp,정답입니다,178.91843900003005,None,178.91843900003005,None,178.91843900003005,None,178.91843900003005,None,180.14100699999835,None,180.14100699999835,180.64116040000226,,,,,,,,,,,,,,,,002,2022-05-04_16h20.25.260,FishGame,2022.1.1,60.177125340372015,
,2,넌 기품있어,2,Orange,B,5.791666666666668,4.5,ScrollUp,ScrollDown,Orange.png,1,Positive,Incongruent,,,,,0,0,0,0,,,,,,,,,,,,,0,1,1,1,,,,,,,,,,,,,,,,,,,,,,,,,,,,,,,,,,,,,,,,,,,,,,,,,,,,,,,,,,,,,,,,,,,,,,,,,,,,,,,,,1.7978395173947017,1.1608680000063032,181.27114279998932,None,ScrollUp,정답입니다,181.27114279998932,None,181.27114279998932,None,181.27114279998932,None,181.27114279998932,None,182.3271130999783,None,182.3271130999783,182.8412784000393,,,,,,,,,,,,,,,,002,2022-05-04_16h20.25.260,FishGame,2022.1.1,60.177125340372015,
,3,나를 보내줘,6,Green,A,0,0,ScrollUp,ScrollDown,Green.png,1,NonTarget,NonTarget,,,,,0,0,0,0,,,,,,,,,,,,,0,2,2,2,,,,,,,,,,,,,,,,,,,,,,,,,,,,,,,,,,,,,,,,,,,,,,,,,,,,,,,,,,,,,,,,,,,,,,,,,,,,,,,,,1.7978395173947017,1.258998200064525,183.48125900002196,None,ScrollUp,정답입니다,183.48125900002196,None,183.48125900002196,None,183.48125900002196,None,183.48125900002196,None,184.62431400001515,None,184.62431400001515,185.1240417000372,,,,,,,,,,,,,,,,002,2022-05-04_16h20.25.260,FishGame,2022.1.1,60.177125340372015,
,4,넌 수동적이야,4,Green,A,2.833333333333333,2.933333333333333,ScrollDown,ScrollUp,Green.png,1,Negative,Incongruent,,,,,0,0,0,0,,,,,,,,,,,,,0,3,3,3,,,,,,,,,,,,,,,,,,,,,,,,,,,,,,,,,,,,,,,,,,,,,,,,,,,,,,,,,,,,,,,,,,,,,,,,,,,,,,,,,1.2021604826052983,1.2783156000077724,185.75066150003113,None,ScrollDown,정답입니다,185.75066150003113,None,185.75066150003113,None,185.75066150003113,None,185.75066150003113,None,186.92397989996243,None,186.92397989996243,187.42404409998562,,,,,,,,,,,,,,,,002,2022-05-04_16h20.25.260,FishGame,2022.1.1,60.177125340372015,
,5,넌 사심이 없어,3,Orange,B,4.916666666666666,4.333333333333333,ScrollUp,ScrollDown,Orange.png,1,Neutral,Neutral,,,,,0,0,0,0,,,,,,,,,,,,,0,4,4,4,,,,,,,,,,,,,,,,,,,,,,,,,,,,,,,,,,,,,,,,,,,,,,,,,,,,,,,,,,,,,,,,,,,,,,,,,,,,,,,,,1.7175925920406976,1.2782579000340775,188.05709140002728,None,ScrollUp,정답입니다,188.05709140002728,None,188.05709140002728,None,188.05709140002728,None,188.05709140002728,None,189.22700680000708,None,189.22700680000708,189.72425329999533,,,,,,,,,,,,,,,,002,2022-05-04_16h20.25.260,FishGame,2022.1.1,60.177125340372015,
,6,넌 헤퍼,5,Green,A,2.458333333333334,2.233333333333333,ScrollDown,ScrollUp,Green.png,1,Negative,Incongruent,,,,,0,0,0,0,,,,,,,,,,,,,0,5,5,5,,,,,,,,,,,,,,,,,,,,,,,,,,,,,,,,,,,,,,,,,,,,,,,,,,,,,,,,,,,,,,,,,,,,,,,,,,,,,,,,,1.2993827114502587,1.3928370999637991,190.3530199000379,None,ScrollDown,정답입니다,190.3530199000379,None,190.3530199000379,None,190.3530199000379,None,190.3530199000379,None,191.64083849999588,None,191.64083849999588,192.1436099000275,,,,,,,,,,,,,,,,002,2022-05-04_16h20.25.260,FishGame,2022.1.1,60.177125340372015,
,7,넌 말쑥해,3,Green,A,4.833333333333334,4.333333333333333,ScrollDown,ScrollUp,Green.png,1,Neutral,Neutral,,,,,0,0,0,0,,,,,,,,,,,,,0,6,6,6,,,,,,,,,,,,,,,,,,,,,,,,,,,,,,,,,,,,,,,,,,,,,,,,,,,,,,,,,,,,,,,,,,,,,,,,,,,,,,,,,1.1589506169160206,1.1739974999800324,192.77553340001032,None,ScrollDown,정답입니다,192.77553340001032,None,192.77553340001032,None,192.77553340001032,None,192.77553340001032,None,193.84043810004368,None,193.84043810004368,194.3406342000235,,,,,,,,,,,,,,,,002,2022-05-04_16h20.25.260,FishGame,2022.1.1,60.177125340372015,
,8,넌 투덜거려,5,Orange,B,2.541666666666667,2.266666666666667,ScrollUp,ScrollDown,Orange.png,1,Negative,Congruent,,,,,0,0,0,0,,,,,,,,,,,,,0,7,7,7,,,,,,,,,,,,,,,,,,,,,,,,,,,,,,,,,,,,,,,,,,,,,,,,,,,,,,,,,,,,,,,,,,,,,,,,,,,,,,,,,1.6188271616895995,0.9813296999782324,194.97398110001814,None,ScrollUp,정답입니다,194.97398110001814,None,194.97398110001814,None,194.97398110001814,None,194.97398110001814,None,195.84076699998695,None,195.84076699998695,196.3408471000148,,,,,,,,,,,,,,,,002,2022-05-04_16h20.25.260,FishGame,2022.1.1,60.177125340372015,
,9,넌 적극적이야,1,Green,A,5.708333333333333,5.533333333333333,ScrollDown,ScrollUp,Green.png,1,Positive,Congruent,,,,,0,0,0,0,,,,,,,,,,,,,0,8,8,8,,,,,,,,,,,,,,,,,,,,,,,,,,,,,,,,,,,,,,,,,,,,,,,,,,,,,,,,,,,,,,,,,,,,,,,,,,,,,,,,,1.2314814726511638,1.0603075999533758,196.96680010005366,None,ScrollDown,정답입니다,196.96680010005366,None,196.96680010005366,None,196.96680010005366,None,196.96680010005366,None,197.92406940006185,None,197.92406940006185,198.4240712999599,,,,,,,,,,,,,,,,002,2022-05-04_16h20.25.260,FishGame,2022.1.1,60.177125340372015,
,10,넌 재미없어,4,Orange,B,2.625,2.966666666666667,ScrollUp,ScrollDown,Orange.png,1,Negative,Congruent,,,,,0,0,0,0,,,,,,,,,,,,,0,9,9,9,,,,,,,,,,,,,,,,,,,,,,,,,,,,,,,,,,,,,,,,,,,,,,,,,,,,,,,,,,,,,,,,,,,,,,,,,,,,,,,,,1.6651234552264214,0.9979380000149831,199.0496501000598,None,ScrollUp,정답입니다,199.0496501000598,None,199.0496501000598,None,199.0496501000598,None,199.0496501000598,None,199.94055569998454,None,199.94055569998454,200.44064130005427,,,,,,,,,,,,,,,,002,2022-05-04_16h20.25.260,FishGame,2022.1.1,60.177125340372015,
,11,넌 명석해,2,Green,A,5.875,4.033333333333333,ScrollDown,ScrollUp,Green.png,1,Positive,Congruent,,,,,0,0,0,0,,,,,,,,,,,,,0,10,10,10,,,,,,,,,,,,,,,,,,,,,,,,,,,,,,,,,,,,,,,,,,,,,,,,,,,,,,,,,,,,,,,,,,,,,,,,,,,,,,,,,1.2932098805904388,1.0622480999445543,201.0641848000232,None,ScrollDown,정답입니다,201.0641848000232,None,201.0641848000232,None,201.0641848000232,None,201.0641848000232,None,202.02385780005716,None,202.02385780005716,202.5239446000196,,,,,,,,,,,,,,,,002,2022-05-04_16h20.25.260,FishGame,2022.1.1,60.177125340372015,
,12,나를 데려가줘,6,Orange,B,0,0,ScrollDown,ScrollUp,Orange.png,1,NonTarget,NonTarget,,,,,0,0,0,0,,,,,,,,,,,,,0,11,11,11,,,,,,,,,,,,,,,,,,,,,,,,,,,,,,,,,,,,,,,,,,,,,,,,,,,,,,,,,,,,,,,,,,,,,,,,,,,,,,,,,1.2114197413126628,1.546002700109966,203.15133929997683,None,ScrollDown,정답입니다,203.15133929997683,None,203.15133929997683,None,203.15133929997683,None,203.15133929997683,None,204.5905097000068,None,204.5905097000068,205.09368599997833,,,,,,,,,,,,,,,,002,2022-05-04_16h20.25.260,FishGame,2022.1.1,60.177125340372015,
,13,넌 소심해,4,Green,A,3,3.1,ScrollDown,ScrollUp,Green.png,1,Negative,Incongruent,,,,,0,0,0,0,,,,,,,,,,,,,0,12,12,12,,,,,,,,,,,,,,,,,,,,,,,,,,,,,,,,,,,,,,,,,,,,,,,,,,,,,,,,,,,,,,,,,,,,,,,,,,,,,,,,,1.2299382835626602,1.2774894998874515,205.71885619999375,None,ScrollDown,정답입니다,205.71885619999375,None,205.71885619999375,None,205.71885619999375,None,205.71885619999375,None,206.89048980001826,None,206.89048980001826,207.39338649995625,,,,,,,,,,,,,,,,002,2022-05-04_16h20.25.260,FishGame,2022.1.1,60.177125340372015,
,14,넌 합리적이야,2,Green,A,5.583333333333333,4.733333333333333,ScrollDown,ScrollUp,Green.png,1,Positive,Congruent,,,,,0,0,0,0,,,,,,,,,,,,,0,13,13,13,,,,,,,,,,,,,,,,,,,,,,,,,,,,,,,,,,,,,,,,,,,,,,,,,,,,,,,,,,,,,,,,,,,,,,,,,,,,,,,,,1.2083333383003871,0.9586859000846744,208.0273664999986,None,ScrollDown,정답입니다,208.0273664999986,None,208.0273664999986,None,208.0273664999986,None,208.0273664999986,None,208.87375509995036,None,208.87375509995036,209.37378360005096,,,,,,,,,,,,,,,,002,2022-05-04_16h20.25.260,FishGame,2022.1.1,60.177125340372015,
,15,넌 무자비해,5,Orange,B,2.333333333333333,2.1,ScrollUp,ScrollDown,Orange.png,1,Negative,Congruent,,,,,0,0,0,0,,,,,,,,,,,,,0,14,14,14,,,,,,,,,,,,,,,,,,,,,,,,,,,,,,,,,,,,,,,,,,,,,,,,,,,,,,,,,,,,,,,,,,,,,,,,,,,,,,,,,1.817901223897934,1.0947145998943597,210.0048343000235,None,ScrollUp,정답입니다,210.0048343000235,None,210.0048343000235,None,210.0048343000235,None,210.0048343000235,None,210.9904112999793,None,210.9904112999793,211.49045809998643,,,,,,,,,,,,,,,,002,2022-05-04_16h20.25.260,FishGame,2022.1.1,60.177125340372015,
,16,나를 보내줘,6,Green,A,0,0,ScrollUp,ScrollDown,Green.png,1,NonTarget,NonTarget,,,,,0,0,0,0,,,,,,,,,,,,,0,15,15,15,,,,,,,,,,,,,,,,,,,,,,,,,,,,,,,,,,,,,,,,,,,,,,,,,,,,,,,,,,,,,,,,,,,,,,,,,,,,,,,,,2,1.260282399947755,212.11428700003307,None,ScrollUp,정답입니다,212.11428700003307,None,212.11428700003307,None,212.11428700003307,None,212.11428700003307,None,213.27337730000727,None,213.27337730000727,213.77346679999027,,,,,,,,,,,,,,,,002,2022-05-04_16h20.25.260,FishGame,2022.1.1,60.177125340372015,
,17,넌 현실적이야,3,Orange,B,4.608695652173913,4.766666666666667,ScrollUp,ScrollDown,Orange.png,1,Neutral,Neutral,,,,,0,0,0,0,,,,,,,,,,,,,0,16,16,16,,,,,,,,,,,,,,,,,,,,,,,,,,,,,,,,,,,,,,,,,,,,,,,,,,,,,,,,,,,,,,,,,,,,,,,,,,,,,,,,,1.7546296268701553,1.4449332000222057,214.4052935000509,None,ScrollUp,정답입니다,214.4052935000509,None,214.4052935000509,None,214.4052935000509,None,214.4052935000509,None,215.7403626999585,None,215.7403626999585,216.24348820000887,,,,,,,,,,,,,,,,002,2022-05-04_16h20.25.260,FishGame,2022.1.1,60.177125340372015,
,18,넌 의리있어,1,Orange,B,5.833333333333334,5.633333333333334,ScrollUp,ScrollDown,Orange.png,1,Positive,Incongruent,,,,,0,0,0,0,,,,,,,,,,,,,0,17,17,17,,,,,,,,,,,,,,,,,,,,,,,,,,,,,,,,,,,,,,,,,,,,,,,,,,,,,,,,,,,,,,,,,,,,,,,,,,,,,,,,,1.8333333383003871,1.0129411000525579,216.87336309999228,None,ScrollUp,정답입니다,216.87336309999228,None,216.87336309999228,None,216.87336309999228,None,216.87336309999228,None,217.77364040003158,None,217.77364040003158,218.2733608999988,,,,,,,,,,,,,,,,002,2022-05-04_16h20.25.260,FishGame,2022.1.1,60.177125340372015,
,19,넌 신경과민이야,5,Green,A,2.541666666666667,2.166666666666667,ScrollDown,ScrollUp,Green.png,1,Negative,Incongruent,,,,,0,0,0,0,,,,,,,,,,,,,0,18,18,18,,,,,,,,,,,,,,,,,,,,,,,,,,,,,,,,,,,,,,,,,,,,,,,,,,,,,,,,,,,,,,,,,,,,,,,,,,,,,,,,,1.1774691343307495,1.2292014999547973,218.89972820004914,None,ScrollDown,정답입니다,218.89972820004914,None,218.89972820004914,None,218.89972820004914,None,218.89972820004914,None,220.02329589996953,None,220.02329589996953,220.52333979995456,,,,,,,,,,,,,,,,002,2022-05-04_16h20.25.260,FishGame,2022.1.1,60.177125340372015,
,20,넌 편안해,1,Green,A,5.916666666666666,5.866666666666666,ScrollDown,ScrollUp,Green.png,1,Positive,Congruent,,,,,0,0,0,0,,,,,,,,,,,,,0,19,19,19,,,,,,,,,,,,,,,,,,,,,,,,,,,,,,,,,,,,,,,,,,,,,,,,,,,,,,,,,,,,,,,,,,,,,,,,,,,,,,,,,1.160493830839793,1.1127297000493854,221.14897370000836,None,ScrollDown,정답입니다,221.14897370000836,None,221.14897370000836,None,221.14897370000836,None,221.14897370000836,None,222.15690830000676,None,222.15690830000676,222.65691639995202,,,,,,,,,,,,,,,,002,2022-05-04_16h20.25.260,FishGame,2022.1.1,60.177125340372015,
,21,넌 품위있어,2,Orange,B,5.291666666666666,4.466666666666667,ScrollUp,ScrollDown,Orange.png,1,Positive,Incongruent,,,,,0,0,0,0,,,,,,,,,,,,,0,20,20,20,,,,,,,,,,,,,,,,,,,,,,,,,,,,,,,,,,,,,,,,,,,,,,,,,,,,,,,,,,,,,,,,,,,,,,,,,,,,,,,,,1.7453703681627908,0.976748599903658,223.2885135000106,None,ScrollUp,정답입니다,223.2885135000106,None,223.2885135000106,None,223.2885135000106,None,223.2885135000106,None,224.15683079999872,None,224.15683079999872,224.65686830005143,,,,,,,,,,,,,,,,002,2022-05-04_16h20.25.260,FishGame,2022.1.1,60.177125340372015,
,22,넌 빈틈없어,3,Green,A,4.833333333333333,3.966666666666667,ScrollDown,ScrollUp,Green.png,1,Neutral,Neutral,,,,,0,0,0,0,,,,,,,,,,,,,0,21,21,21,,,,,,,,,,,,,,,,,,,,,,,,,,,,,,,,,,,,,,,,,,,,,,,,,,,,,,,,,,,,,,,,,,,,,,,,,,,,,,,,,1.1481481442848842,1.111513699986972,225.29886910005007,None,ScrollDown,정답입니다,225.29886910005007,None,225.29886910005007,None,225.29886910005007,None,225.29886910005007,None,226.29001929995138,None,226.29001929995138,226.7904081000015,,,,,,,,,,,,,,,,002,2022-05-04_16h20.25.260,FishGame,2022.1.1,60.177125340372015,
,23,넌 상상력없어,4,Orange,B,2.833333333333333,3.133333333333333,ScrollUp,ScrollDown,Orange.png,1,Negative,Congruent,,,,,0,0,0,0,,,,,,,,,,,,,0,22,22,22,,,,,,,,,,,,,,,,,,,,,,,,,,,,,,,,,,,,,,,,,,,,,,,,,,,,,,,,,,,,,,,,,,,,,,,,,,,,,,,,,1.7052469179034233,1.161345300031826,227.427461400046,None,ScrollUp,정답입니다,227.427461400046,None,227.427461400046,None,227.427461400046,None,227.427461400046,None,228.47625349997543,None,228.47625349997543,228.9904178000288,,,,,,,,,,,,,,,,002,2022-05-04_16h20.25.260,FishGame,2022.1.1,60.177125340372015,
,24,넌 지혜로워,2,Orange,B,6.333333333333334,4.633333333333334,ScrollUp,ScrollDown,Orange.png,1,Positive,Incongruent,,,,,0,0,0,0,,,,,,,,,,,,,0,23,23,23,,,,,,,,,,,,,,,,,,,,,,,,,,,,,,,,,,,,,,,,,,,,,,,,,,,,,,,,,,,,,,,,,,,,,,,,,,,,,,,,,1.8487654278675716,1.2420729999430478,229.62912699999288,None,ScrollUp,정답입니다,229.62912699999288,None,229.62912699999288,None,229.62912699999288,None,229.62912699999288,None,230.75664060004056,None,230.75664060004056,231.2566797999898,,,,,,,,,,,,,,,,002,2022-05-04_16h20.25.260,FishGame,2022.1.1,60.177125340372015,
,25,넌 시끄러워,4,Green,A,2.833333333333333,3.033333333333333,ScrollDown,ScrollUp,Green.png,1,Negative,Incongruent,,,,,0,0,0,0,,,,,,,,,,,,,0,24,24,24,,,,,,,,,,,,,,,,,,,,,,,,,,,,,,,,,,,,,,,,,,,,,,,,,,,,,,,,,,,,,,,,,,,,,,,,,,,,,,,,,1.2206790000200272,1.2946117999963462,231.88701910001691,None,ScrollDown,정답입니다,231.88701910001691,None,231.88701910001691,None,231.88701910001691,None,231.88701910001691,None,233.07295129995327,None,233.07295129995327,233.57306630001403,,,,,,,,,,,,,,,,002,2022-05-04_16h20.25.260,FishGame,2022.1.1,60.177125340372015,
,26,넌 만사태평이야,3,Orange,B,4,4.333333333333333,ScrollUp,ScrollDown,Orange.png,1,Neutral,Neutral,,,,,0,0,0,0,,,,,,,,,,,,,0,25,25,25,,,,,,,,,,,,,,,,,,,,,,,,,,,,,,,,,,,,,,,,,,,,,,,,,,,,,,,,,,,,,,,,,,,,,,,,,,,,,,,,,1.799382706483205,1.0117070999694988,234.20309069997165,None,ScrollUp,정답입니다,234.20309069997165,None,234.20309069997165,None,234.20309069997165,None,234.20309069997165,None,235.10660449997522,None,235.10660449997522,235.6094821000006,,,,,,,,,,,,,,,,002,2022-05-04_16h20.25.260,FishGame,2022.1.1,60.177125340372015,
,27,넌 붙임성있어,1,Green,A,5.708333333333333,5.633333333333334,ScrollDown,ScrollUp,Green.png,1,Positive,Congruent,,,,,0,0,0,0,,,,,,,,,,,,,0,26,26,26,,,,,,,,,,,,,,,,,,,,,,,,,,,,,,,,,,,,,,,,,,,,,,,,,,,,,,,,,,,,,,,,,,,,,,,,,,,,,,,,,1.2592592487732568,1.060859499964863,236.24359610001557,None,ScrollDown,정답입니다,236.24359610001557,None,236.24359610001557,None,236.24359610001557,None,236.24359610001557,None,237.1929330000421,None,237.1929330000421,237.6898693999974,,,,,,,,,,,,,,,,002,2022-05-04_16h20.25.260,FishGame,2022.1.1,60.177125340372015,
,28,넌 영리해,2,Green,A,6,4.033333333333333,ScrollDown,ScrollUp,Green.png,1,Positive,Congruent,,,,,0,0,0,0,,,,,,,,,,,,,0,27,27,27,,,,,,,,,,,,,,,,,,,,,,,,,,,,,,,,,,,,,,,,,,,,,,,,,,,,,,,,,,,,,,,,,,,,,,,,,,,,,,,,,1.0987654229005177,0.9943376999581233,238.33362259995192,None,ScrollDown,정답입니다,238.33362259995192,None,238.33362259995192,None,238.33362259995192,None,238.33362259995192,None,239.22282789996825,None,239.22282789996825,239.7229101000121,,,,,,,,,,,,,,,,002,2022-05-04_16h20.25.260,FishGame,2022.1.1,60.177125340372015,
,29,넌 열심이야,1,Orange,B,6.041666666666667,5.833333333333333,ScrollUp,ScrollDown,Orange.png,1,Positive,Incongruent,,,,,0,0,0,0,,,,,,,,,,,,,0,28,28,28,,,,,,,,,,,,,,,,,,,,,,,,,,,,,,,,,,,,,,,,,,,,,,,,,,,,,,,,,,,,,,,,,,,,,,,,,,,,,,,,,1.663580241302649,0.9111885000020266,240.34820590005256,None,ScrollUp,정답입니다,240.34820590005256,None,240.34820590005256,None,240.34820590005256,None,240.34820590005256,None,241.1561646000482,None,241.1561646000482,241.65676859999076,,,,,,,,,,,,,,,,002,2022-05-04_16h20.25.260,FishGame,2022.1.1,60.177125340372015,
,30,넌 인기없어,4,Orange,B,3,3.3,ScrollUp,ScrollDown,Orange.png,1,Negative,Congruent,,,,,0,0,0,0,,,,,,,,,,,,,0,29,29,29,,,,,,,,,,,,,,,,,,,,,,,,,,,,,,,,,,,,,,,,,,,,,,,,,,,,,,,,,,,,,,,,,,,,,,,,,,,,,,,,,2,0.964603399974294,242.2815386999864,None,ScrollUp,정답입니다,242.2815386999864,None,242.2815386999864,None,242.2815386999864,None,242.2815386999864,None,243.1397807999747,None,243.1397807999747,243.6397689000005,,,,,,,,,,,,,,,,002,2022-05-04_16h20.25.260,FishGame,2022.1.1,60.177125340372015,
,31,넌 익살스러워,3,Green,A,4.708333333333334,4.833333333333333,ScrollDown,ScrollUp,Green.png,1,Neutral,Neutral,,,,,0,0,0,0,,,,,,,,,,,,,0,30,30,30,,,,,,,,,,,,,,,,,,,,,,,,,,,,,,,,,,,,,,,,,,,,,,,,,,,,,,,,,,,,,,,,,,,,,,,,,,,,,,,,,1,0.9952644999139011,244.2666190000018,None,ScrollDown,정답입니다,244.2666190000018,None,244.2666190000018,None,244.2666190000018,None,244.2666190000018,None,245.15627979999408,None,245.15627979999408,245.65652249997947,,,,,,,,,,,,,,,,002,2022-05-04_16h20.25.260,FishGame,2022.1.1,60.177125340372015,
,32,넌 이기적이야,5,Orange,B,2.291666666666667,2.333333333333333,ScrollUp,ScrollDown,Orange.png,1,Negative,Congruent,,,,,0,0,0,0,,,,,,,,,,,,,0,31,31,31,,,,,,,,,,,,,,,,,,,,,,,,,,,,,,,,,,,,,,,,,,,,,,,,,,,,,,,,,,,,,,,,,,,,,,,,,,,,,,,,,2,0.9585372000001371,246.28570300003048,None,ScrollUp,정답입니다,246.28570300003048,None,246.28570300003048,None,246.28570300003048,None,246.28570300003048,None,247.1395967999706,None,247.1395967999706,247.63965989998542,,,,,,,,,,,,,,,,002,2022-05-04_16h20.25.260,FishGame,2022.1.1,60.177125340372015,
,33,나를 데려가줘,6,Orange,B,0,0,ScrollDown,ScrollUp,Orange.png,1,NonTarget,NonTarget,,,,,0,0,0,0,,,,,,,,,,,,,0,32,32,32,,,,,,,,,,,,,,,,,,,,,,,,,,,,,,,,,,,,,,,,,,,,,,,,,,,,,,,,,,,,,,,,,,,,,,,,,,,,,,,,,2,0.9279525999445468,248.26814269996248,None,ScrollUp,오답입니다,248.26814269996248,None,248.26814269996248,None,248.26814269996248,None,248.26814269996248,None,249.08959310001228,None,249.08959310001228,249.5896422000369,,,,,,,,,,,,,,,,002,2022-05-04_16h20.25.260,FishGame,2022.1.1,60.177125340372015,
,34,넌 기회주의자야,5,Green,A,2.875,2.133333333333333,ScrollDown,ScrollUp,Green.png,1,Negative,Incongruent,,,,,0,0,0,0,,,,,,,,,,,,,0,33,33,33,,,,,,,,,,,,,,,,,,,,,,,,,,,,,,,,,,,,,,,,,,,,,,,,,,,,,,,,,,,,,,,,,,,,,,,,,,,,,,,,,1.0740740497907002,1.3755720000481233,250.22661290003452,None,ScrollDown,정답입니다,250.22661290003452,None,250.22661290003452,None,250.22661290003452,None,250.22661290003452,None,251.48955639998894,None,251.48955639998894,251.9893124999944,,,,,,,,,,,,,,,,002,2022-05-04_16h20.25.260,FishGame,2022.1.1,60.177125340372015,
,1,넌 미성숙해,4,Green,A,3,3.2,ScrollDown,ScrollUp,Green.png,2,Negative,Incongruent,,,,,0,0,0,0,,,,,,,,,,,,,,,,,0,0,0,0,,,,,,,,,,,,,,,,,,,,,,,,,,,,,,,,,,,,284.4555659999605,285.95853850001004,285.97528809995856,286.9292679000646,286.979405399994,287.93872750003356,287.93872750003356,None,,,,,,,,,,,,,,,,,,,,,,,,,,,,,,,,,,1.060185174147288,1.4699694000883028,289.0421048999997,None,ScrollDown,정답입니다,289.0421048999997,None,289.0421048999997,None,289.0421048999997,None,289.0421048999997,None,290.40507500001695,None,290.40507500001695,290.90518810006324,252.48961619997863,None,252.48961619997863,None,0.06481481,-0.11574074,1,0,0,0.0158046199940145,None,282.4886389999883,None,,,002,2022-05-04_16h20.25.260,FishGame,2022.1.1,60.177125340372015,
,2,넌 반사회적이야,5,Orange,B,2.416666666666667,2.033333333333333,ScrollUp,ScrollDown,Orange.png,2,Negative,Congruent,,,,,0,0,0,0,,,,,,,,,,,,,,,,,0,1,1,1,,,,,,,,,,,,,,,,,,,,,,,,,,,,,,,,,,,,,,,,,,,,,,,,,,,,,,,,,,,,,,,,,,,,,,,,,,,,,2,1.1290631999727339,291.5317355999723,None,ScrollUp,정답입니다,291.5317355999723,None,291.5317355999723,None,291.5317355999723,None,291.5317355999723,None,292.55538829998113,None,292.55538829998113,293.0583133000182,,,,,,,,,,,,,,,,002,2022-05-04_16h20.25.260,FishGame,2022.1.1,60.177125340372015,
,3,넌 유능해,2,Green,A,6.208333333333333,4.433333333333334,ScrollDown,ScrollUp,Green.png,2,Positive,Congruent,,,,,0,0,0,0,,,,,,,,,,,,,,,,,0,2,2,2,,,,,,,,,,,,,,,,,,,,,,,,,,,,,,,,,,,,,,,,,,,,,,,,,,,,,,,,,,,,,,,,,,,,,,,,,,,,,1.0385802288850148,0.9587727999314666,293.68621139996685,None,ScrollDown,정답입니다,293.68621139996685,None,293.68621139996685,None,293.68621139996685,None,293.68621139996685,None,294.54146019998007,None,294.54146019998007,295.055454300018,,,,,,,,,,,,,,,,002,2022-05-04_16h20.25.260,FishGame,2022.1.1,60.177125340372015,
,4,넌 능숙해,2,Orange,B,5.666666666666667,4.733333333333333,ScrollUp,ScrollDown,Orange.png,2,Positive,Incongruent,,,,,0,0,0,0,,,,,,,,,,,,,,,,,0,3,3,3,,,,,,,,,,,,,,,,,,,,,,,,,,,,,,,,,,,,,,,,,,,,,,,,,,,,,,,,,,,,,,,,,,,,,,,,,,,,,1.9012345770994823,0.9743504000362009,295.67008910002187,None,ScrollUp,정답입니다,295.67008910002187,None,295.67008910002187,None,295.67008910002187,None,295.67008910002187,None,296.53856769995764,None,296.53856769995764,297.0386471999809,,,,,,,,,,,,,,,,002,2022-05-04_16h20.25.260,FishGame,2022.1.1,60.177125340372015,
,5,넌 진부해,4,Orange,B,2.458333333333333,3.166666666666667,ScrollUp,ScrollDown,Orange.png,2,Negative,Congruent,,,,,0,0,0,0,,,,,,,,,,,,,,,,,0,4,4,4,,,,,,,,,,,,,,,,,,,,,,,,,,,,,,,,,,,,,,,,,,,,,,,,,,,,,,,,,,,,,,,,,,,,,,,,,,,,,1.799382706483205,0.9772799999918789,297.6669806999853,None,ScrollUp,정답입니다,297.6669806999853,None,297.6669806999853,None,297.6669806999853,None,297.6669806999853,None,298.538508299971,None,298.538508299971,299.03855779999867,,,,,,,,,,,,,,,,002,2022-05-04_16h20.25.260,FishGame,2022.1.1,60.177125340372015,
,6,나를 보내줘,6,Green,A,0,0,ScrollUp,ScrollDown,Green.png,2,NonTarget,NonTarget,,,,,0,0,0,0,,,,,,,,,,,,,,,,,0,5,5,5,,,,,,,,,,,,,,,,,,,,,,,,,,,,,,,,,,,,,,,,,,,,,,,,,,,,,,,,,,,,,,,,,,,,,,,,,,,,,2,1.225721099996008,299.66612359997816,None,ScrollUp,정답입니다,299.66612359997816,None,299.66612359997816,None,299.66612359997816,None,299.66612359997816,None,300.78832449996844,None,300.78832449996844,301.2885445000138,,,,,,,,,,,,,,,,002,2022-05-04_16h20.25.260,FishGame,2022.1.1,60.177125340372015,
,7,넌 엄격해,3,Green,A,4.166666666666666,4.1,ScrollDown,ScrollUp,Green.png,2,Neutral,Neutral,,,,,0,0,0,0,,,,,,,,,,,,,,,,,0,6,6,6,,,,,,,,,,,,,,,,,,,,,,,,,,,,,,,,,,,,,,,,,,,,,,,,,,,,,,,,,,,,,,,,,,,,,,,,,,,,,1,1.0947415999835357,301.9188352000201,None,ScrollDown,정답입니다,301.9188352000201,None,301.9188352000201,None,301.9188352000201,None,301.9188352000201,None,302.9051233000355,None,302.9051233000355,303.4049201000016,,,,,,,,,,,,,,,,002,2022-05-04_16h20.25.260,FishGame,2022.1.1,60.177125340372015,
,8,나를 보내줘,6,Green,A,0,0,ScrollUp,ScrollDown,Green.png,2,NonTarget,NonTarget,,,,,0,0,0,0,,,,,,,,,,,,,,,,,0,7,7,7,,,,,,,,,,,,,,,,,,,,,,,,,,,,,,,,,,,,,,,,,,,,,,,,,,,,,,,,,,,,,,,,,,,,,,,,,,,,,1.9290123283863068,1.0779147000284865,304.02820850000717,None,ScrollUp,정답입니다,304.02820850000717,None,304.02820850000717,None,304.02820850000717,None,304.02820850000717,None,305.0047483999515,None,305.0047483999515,305.50487319997046,,,,,,,,,,,,,,,,002,2022-05-04_16h20.25.260,FishGame,2022.1.1,60.177125340372015,
,9,넌 대담해,3,Orange,B,4.875,4.866666666666666,ScrollUp,ScrollDown,Orange.png,2,Neutral,Neutral,,,,,0,0,0,0,,,,,,,,,,,,,,,,,0,8,8,8,,,,,,,,,,,,,,,,,,,,,,,,,,,,,,,,,,,,,,,,,,,,,,,,,,,,,,,,,,,,,,,,,,,,,,,,,,,,,1.9120370248953502,1.2617282000137493,306.1414535000222,None,ScrollUp,정답입니다,306.1414535000222,None,306.1414535000222,None,306.1414535000222,None,306.1414535000222,None,307.2883800000418,None,307.2883800000418,307.78842050000094,,,,,,,,,,,,,,,,002,2022-05-04_16h20.25.260,FishGame,2022.1.1,60.177125340372015,
,10,넌 꾸준해,1,Green,A,5.916666666666668,5.8,ScrollDown,ScrollUp,Green.png,2,Positive,Congruent,,,,,0,0,0,0,,,,,,,,,,,,,,,,,0,9,9,9,,,,,,,,,,,,,,,,,,,,,,,,,,,,,,,,,,,,,,,,,,,,,,,,,,,,,,,,,,,,,,,,,,,,,,,,,,,,,1.0432098706563313,1.1116844998905435,308.4151894999668,None,ScrollDown,정답입니다,308.4151894999668,None,308.4151894999668,None,308.4151894999668,None,308.4151894999668,None,309.42157320003025,None,309.42157320003025,309.92169740004465,,,,,,,,,,,,,,,,002,2022-05-04_16h20.25.260,FishGame,2022.1.1,60.177125340372015,
,11,나를 데려가줘,6,Orange,B,0,0,ScrollDown,ScrollUp,Orange.png,2,NonTarget,NonTarget,,,,,0,0,0,0,,,,,,,,,,,,,,,,,0,10,10,10,,,,,,,,,,,,,,,,,,,,,,,,,,,,,,,,,,,,,,,,,,,,,,,,,,,,,,,,,,,,,,,,,,,,,,,,,,,,,1.0756172637144725,1.3614385999972,310.54664329998195,None,ScrollDown,정답입니다,310.54664329998195,None,310.54664329998195,None,310.54664329998195,None,310.54664329998195,None,311.8048848999897,None,311.8048848999897,312.30778230004944,,,,,,,,,,,,,,,,002,2022-05-04_16h20.25.260,FishGame,2022.1.1,60.177125340372015,
,12,넌 독선적이야,5,Green,A,2.458333333333333,1.933333333333333,ScrollDown,ScrollUp,Green.png,2,Negative,Incongruent,,,,,0,0,0,0,,,,,,,,,,,,,,,,,0,11,11,11,,,,,,,,,,,,,,,,,,,,,,,,,,,,,,,,,,,,,,,,,,,,,,,,,,,,,,,,,,,,,,,,,,,,,,,,,,,,,1.140432099501292,1.2125662000617012,312.9311653999612,None,ScrollDown,정답입니다,312.9311653999612,None,312.9311653999612,None,312.9311653999612,None,312.9311653999612,None,314.03820109996013,None,314.03820109996013,314.5382851000177,,,,,,,,,,,,,,,,002,2022-05-04_16h20.25.260,FishGame,2022.1.1,60.177125340372015,
,13,나를 보내줘,6,Green,A,0,0,ScrollUp,ScrollDown,Green.png,2,NonTarget,NonTarget,,,,,0,0,0,0,,,,,,,,,,,,,,,,,0,12,12,12,,,,,,,,,,,,,,,,,,,,,,,,,,,,,,,,,,,,,,,,,,,,,,,,,,,,,,,,,,,,,,,,,,,,,,,,,,,,,1.8564814726511638,1.1449218000052497,315.16275110002607,None,ScrollUp,정답입니다,315.16275110002607,None,315.16275110002607,None,315.16275110002607,None,315.16275110002607,None,316.20483479998074,None,316.20483479998074,316.71229229995515,,,,,,,,,,,,,,,,002,2022-05-04_16h20.25.260,FishGame,2022.1.1,60.177125340372015,
,14,넌 책임감있어,1,Orange,B,6.347826086956522,6,ScrollUp,ScrollDown,Orange.png,2,Positive,Incongruent,,,,,0,0,0,0,,,,,,,,,,,,,,,,,0,13,13,13,,,,,,,,,,,,,,,,,,,,,,,,,,,,,,,,,,,,,,,,,,,,,,,,,,,,,,,,,,,,,,,,,,,,,,,,,,,,,1.8888888905445735,1.144761799951084,317.3310286999913,None,ScrollUp,정답입니다,317.3310286999913,None,317.3310286999913,None,317.3310286999913,None,317.3310286999913,None,318.37113580002915,None,318.37113580002915,318.87127630005125,,,,,,,,,,,,,,,,002,2022-05-04_16h20.25.260,FishGame,2022.1.1,60.177125340372015,
,15,넌 문학적이야,3,Green,A,4.708333333333334,4.333333333333333,ScrollDown,ScrollUp,Green.png,2,Neutral,Neutral,,,,,0,0,0,0,,,,,,,,,,,,,,,,,0,14,14,14,,,,,,,,,,,,,,,,,,,,,,,,,,,,,,,,,,,,,,,,,,,,,,,,,,,,,,,,,,,,,,,,,,,,,,,,,,,,,1.120370368162791,0.926821600063704,319.51036419998854,None,ScrollDown,정답입니다,319.51036419998854,None,319.51036419998854,None,319.51036419998854,None,319.51036419998854,None,320.3214573999867,None,320.3214573999867,320.8243986000307,,,,,,,,,,,,,,,,002,2022-05-04_16h20.25.260,FishGame,2022.1.1,60.177125340372015,
,16,넌 재미있어,1,Orange,B,5.875,5.7,ScrollUp,ScrollDown,Orange.png,2,Positive,Incongruent,,,,,0,0,0,0,,,,,,,,,,,,,,,,,0,15,15,15,,,,,,,,,,,,,,,,,,,,,,,,,,,,,,,,,,,,,,,,,,,,,,,,,,,,,,,,,,,,,,,,,,,,,,,,,,,,,1.765432099501292,0.9755307999439538,321.45089650002774,None,ScrollUp,정답입니다,321.45089650002774,None,321.45089650002774,None,321.45089650002774,None,321.45089650002774,None,322.3214175000321,None,322.3214175000321,322.82137520005926,,,,,,,,,,,,,,,,002,2022-05-04_16h20.25.260,FishGame,2022.1.1,60.177125340372015,
,17,나를 데려가줘,6,Orange,B,0,0,ScrollDown,ScrollUp,Orange.png,2,NonTarget,NonTarget,,,,,0,0,0,0,,,,,,,,,,,,,,,,,0,16,16,16,,,,,,,,,,,,,,,,,,,,,,,,,,,,,,,,,,,,,,,,,,,,,,,,,,,,,,,,,,,,,,,,,,,,,,,,,,,,,1.0756172637144725,1.290777700021863,323.45004480006173,None,ScrollDown,정답입니다,323.45004480006173,None,323.45004480006173,None,323.45004480006173,None,323.45004480006173,None,324.63798670005053,None,324.63798670005053,325.1379421000602,,,,,,,,,,,,,,,,002,2022-05-04_16h20.25.260,FishGame,2022.1.1,60.177125340372015,
,18,넌 협력적이야,1,Green,A,5.625,5.633333333333334,ScrollDown,ScrollUp,Green.png,2,Positive,Congruent,,,,,0,0,0,0,,,,,,,,,,,,,,,,,0,17,17,17,,,,,,,,,,,,,,,,,,,,,,,,,,,,,,,,,,,,,,,,,,,,,,,,,,,,,,,,,,,,,,,,,,,,,,,,,,,,,1.1574074029922485,1.3297182000242174,325.7649578000419,None,ScrollDown,정답입니다,325.7649578000419,None,325.7649578000419,None,325.7649578000419,None,325.7649578000419,None,326.9908113999991,None,326.9908113999991,327.5074390999507,,,,,,,,,,,,,,,,002,2022-05-04_16h20.25.260,FishGame,2022.1.1,60.177125340372015,
,19,넌 평범해,3,Orange,B,4.333333333333332,4.233333333333333,ScrollUp,ScrollDown,Orange.png,2,Neutral,Neutral,,,,,0,0,0,0,,,,,,,,,,,,,,,,,0,18,18,18,,,,,,,,,,,,,,,,,,,,,,,,,,,,,,,,,,,,,,,,,,,,,,,,,,,,,,,,,,,,,,,,,,,,,,,,,,,,,1.7422839403152466,0.9939658999210224,328.13261129998136,None,ScrollUp,정답입니다,328.13261129998136,None,328.13261129998136,None,328.13261129998136,None,328.13261129998136,None,329.0241255000001,None,329.0241255000001,329.5376424000133,,,,,,,,,,,,,,,,002,2022-05-04_16h20.25.260,FishGame,2022.1.1,60.177125340372015,
,20,넌 오만해,5,Green,A,2.333333333333333,2,ScrollDown,ScrollUp,Green.png,2,Negative,Incongruent,,,,,0,0,0,0,,,,,,,,,,,,,,,,,0,19,19,19,,,,,,,,,,,,,,,,,,,,,,,,,,,,,,,,,,,,,,,,,,,,,,,,,,,,,,,,,,,,,,,,,,,,,,,,,,,,,1.1064814925193787,1.0610274000791833,330.1624360999558,None,ScrollDown,정답입니다,330.1624360999558,None,330.1624360999558,None,330.1624360999558,None,330.1624360999558,None,331.1208744000178,None,331.1208744000178,331.62100669997744,,,,,,,,,,,,,,,,002,2022-05-04_16h20.25.260,FishGame,2022.1.1,60.177125340372015,
,21,넌 운이없어,4,Orange,B,3,3.466666666666667,ScrollUp,ScrollDown,Orange.png,2,Negative,Congruent,,,,,0,0,0,0,,,,,,,,,,,,,,,,,0,20,20,20,,,,,,,,,,,,,,,,,,,,,,,,,,,,,,,,,,,,,,,,,,,,,,,,,,,,,,,,,,,,,,,,,,,,,,,,,,,,,1.5987654303510985,1.0116029999917373,332.2588051999919,None,ScrollUp,정답입니다,332.2588051999919,None,332.2588051999919,None,332.2588051999919,None,332.2588051999919,None,333.154515500064,None,333.154515500064,333.65732070000377,,,,,,,,,,,,,,,,002,2022-05-04_16h20.25.260,FishGame,2022.1.1,60.177125340372015,
,22,넌 창조적이야,2,Orange,B,6.125,4.633333333333334,ScrollUp,ScrollDown,Orange.png,2,Positive,Incongruent,,,,,0,0,0,0,,,,,,,,,,,,,,,,,0,21,21,21,,,,,,,,,,,,,,,,,,,,,,,,,,,,,,,,,,,,,,,,,,,,,,,,,,,,,,,,,,,,,,,,,,,,,,,,,,,,,1.7685185273488362,0.9943511000601575,334.2834330999758,None,ScrollUp,정답입니다,334.2834330999758,None,334.2834330999758,None,334.2834330999758,None,334.2834330999758,None,335.1711306000361,None,335.1711306000361,335.67087310005445,,,,,,,,,,,,,,,,002,2022-05-04_16h20.25.260,FishGame,2022.1.1,60.177125340372015,
,23,나를 보내줘,6,Green,A,0,0,ScrollUp,ScrollDown,Green.png,2,NonTarget,NonTarget,,,,,0,0,0,0,,,,,,,,,,,,,,,,,0,22,22,22,,,,,,,,,,,,,,,,,,,,,,,,,,,,,,,,,,,,,,,,,,,,,,,,,,,,,,,,,,,,,,,,,,,,,,,,,,,,,1.7206790198882422,1.0778265999397263,336.29372489999514,None,ScrollUp,정답입니다,336.29372489999514,None,336.29372489999514,None,336.29372489999514,None,336.29372489999514,None,337.2707914999919,None,337.2707914999919,337.770865199971,,,,,,,,,,,,,,,,002,2022-05-04_16h20.25.260,FishGame,2022.1.1,60.177125340372015,
,24,넌 통찰력있어,2,Green,A,6.5,4.8,ScrollDown,ScrollUp,Green.png,2,Positive,Congruent,,,,,0,0,0,0,,,,,,,,,,,,,,,,,0,23,23,23,,,,,,,,,,,,,,,,,,,,,,,,,,,,,,,,,,,,,,,,,,,,,,,,,,,,,,,,,,,,,,,,,,,,,,,,,,,,,1.126543199022611,1.1944882000098005,338.40122410003096,None,ScrollDown,정답입니다,338.40122410003096,None,338.40122410003096,None,338.40122410003096,None,338.40122410003096,None,339.490528000053,None,339.490528000053,339.98774630005937,,,,,,,,,,,,,,,,002,2022-05-04_16h20.25.260,FishGame,2022.1.1,60.177125340372015,
,25,넌 경솔해,5,Orange,B,2.458333333333333,2.266666666666667,ScrollUp,ScrollDown,Orange.png,2,Negative,Congruent,,,,,0,0,0,0,,,,,,,,,,,,,,,,,0,24,24,24,,,,,,,,,,,,,,,,,,,,,,,,,,,,,,,,,,,,,,,,,,,,,,,,,,,,,,,,,,,,,,,,,,,,,,,,,,,,,1.8009259204069774,0.924038500059396,340.6370418999577,None,ScrollUp,정답입니다,340.6370418999577,None,340.6370418999577,None,340.6370418999577,None,340.6370418999577,None,341.45100899995305,None,341.45100899995305,341.9540963000618,,,,,,,,,,,,,,,,002,2022-05-04_16h20.25.260,FishGame,2022.1.1,60.177125340372015,
,26,넌 초조해,4,Green,A,2.916666666666667,3.133333333333333,ScrollDown,ScrollUp,Green.png,2,Negative,Incongruent,,,,,0,0,0,0,,,,,,,,,,,,,,,,,0,25,25,25,,,,,,,,,,,,,,,,,,,,,,,,,,,,,,,,,,,,,,,,,,,,,,,,,,,,,,,,,,,,,,,,,,,,,,,,,,,,,1.1095678955316544,0.9776964999036863,342.5797732999781,None,ScrollDown,정답입니다,342.5797732999781,None,342.5797732999781,None,342.5797732999781,None,342.5797732999781,None,343.45404540002346,None,343.45404540002346,343.95405339996796,,,,,,,,,,,,,,,,002,2022-05-04_16h20.25.260,FishGame,2022.1.1,60.177125340372015,
,27,넌 무관심해,4,Orange,B,2.833333333333333,2.9,ScrollUp,ScrollDown,Orange.png,2,Negative,Congruent,,,,,0,0,0,0,,,,,,,,,,,,,,,,,0,26,26,26,,,,,,,,,,,,,,,,,,,,,,,,,,,,,,,,,,,,,,,,,,,,,,,,,,,,,,,,,,,,,,,,,,,,,,,,,,,,,1.9228395223617554,0.925213500042446,344.58557230001315,None,ScrollUp,정답입니다,344.58557230001315,None,344.58557230001315,None,344.58557230001315,None,344.58557230001315,None,345.40705090004485,None,345.40705090004485,345.92371600004844,,,,,,,,,,,,,,,,002,2022-05-04_16h20.25.260,FishGame,2022.1.1,60.177125340372015,
,28,넌 감성적이야,3,Orange,B,4.125,4.166666666666667,ScrollUp,ScrollDown,Orange.png,2,Neutral,Neutral,,,,,0,0,0,0,,,,,,,,,,,,,,,,,0,27,27,27,,,,,,,,,,,,,,,,,,,,,,,,,,,,,,,,,,,,,,,,,,,,,,,,,,,,,,,,,,,,,,,,,,,,,,,,,,,,,1.8719135870536168,0.9765510000288486,346.55553939996753,None,ScrollUp,정답입니다,346.55553939996753,None,346.55553939996753,None,346.55553939996753,None,346.55553939996753,None,347.4208218000131,None,347.4208218000131,347.9208338999888,,,,,,,,,,,,,,,,002,2022-05-04_16h20.25.260,FishGame,2022.1.1,60.177125340372015,
,29,넌 배려심있어,1,Green,A,6.083333333333333,5.5,ScrollDown,ScrollUp,Green.png,2,Positive,Congruent,,,,,0,0,0,0,,,,,,,,,,,,,,,,,0,28,28,28,,,,,,,,,,,,,,,,,,,,,,,,,,,,,,,,,,,,,,,,,,,,,,,,,,,,,,,,,,,,,,,,,,,,,,,,,,,,,1.0709876716136932,0.995370699907653,348.5485280000139,None,ScrollDown,정답입니다,348.5485280000139,None,348.5485280000139,None,348.5485280000139,None,348.5485280000139,None,349.4374614000553,None,349.4374614000553,349.9374655999709,,,,,,,,,,,,,,,,002,2022-05-04_16h20.25.260,FishGame,2022.1.1,60.177125340372015,
,30,넌 숨김없어,3,Green,A,4.5,4.933333333333334,ScrollDown,ScrollUp,Green.png,2,Neutral,Neutral,,,,,0,0,0,0,,,,,,,,,,,,,,,,,0,29,29,29,,,,,,,,,,,,,,,,,,,,,,,,,,,,,,,,,,,,,,,,,,,,,,,,,,,,,,,,,,,,,,,,,,,,,,,,,,,,,1.1712963034709294,1.2613740999950096,350.5680017999839,None,ScrollDown,정답입니다,350.5680017999839,None,350.5680017999839,None,350.5680017999839,None,350.5680017999839,None,351.72077260003425,None,351.72077260003425,352.22080260002986,,,,,,,,,,,,,,,,002,2022-05-04_16h20.25.260,FishGame,2022.1.1,60.177125340372015,
,31,넌 훌륭해,2,Orange,B,5.916666666666667,4.033333333333333,ScrollUp,ScrollDown,Orange.png,2,Positive,Incongruent,,,,,0,0,0,0,,,,,,,,,,,,,,,,,0,30,30,30,,,,,,,,,,,,,,,,,,,,,,,,,,,,,,,,,,,,,,,,,,,,,,,,,,,,,,,,,,,,,,,,,,,,,,,,,,,,,1.8101851791143417,1.0977916000410914,352.84989149996545,None,ScrollUp,정답입니다,352.84989149996545,None,352.84989149996545,None,352.84989149996545,None,352.84989149996545,None,353.837364200037,None,353.837364200037,354.3374361000024,,,,,,,,,,,,,,,,002,2022-05-04_16h20.25.260,FishGame,2022.1.1,60.177125340372015,
,32,넌 슬기로워,2,Green,A,6.166666666666667,4.1,ScrollDown,ScrollUp,Green.png,2,Positive,Congruent,,,,,0,0,0,0,,,,,,,,,,,,,,,,,0,31,31,31,,,,,,,,,,,,,,,,,,,,,,,,,,,,,,,,,,,,,,,,,,,,,,,,,,,,,,,,,,,,,,,,,,,,,,,,,,,,,1.1311728407939274,0.957477799966,354.97256659995764,None,ScrollDown,정답입니다,354.97256659995764,None,354.97256659995764,None,354.97256659995764,None,354.97256659995764,None,355.82034450001083,None,355.82034450001083,356.3204277000623,,,,,,,,,,,,,,,,002,2022-05-04_16h20.25.260,FishGame,2022.1.1,60.177125340372015,
,33,넌 냉혹해,5,Green,A,2.583333333333333,2.1,ScrollDown,ScrollUp,Green.png,2,Negative,Incongruent,,,,,0,0,0,0,,,,,,,,,,,,,,,,,0,32,32,32,,,,,,,,,,,,,,,,,,,,,,,,,,,,,,,,,,,,,,,,,,,,,,,,,,,,,,,,,,,,,,,,,,,,,,,,,,,,,1.140432099501292,1.045336600043811,356.94358820002526,None,ScrollDown,정답입니다,356.94358820002526,None,356.94358820002526,None,356.94358820002526,None,356.94358820002526,None,357.8870046000229,None,357.8870046000229,358.38747820002027,,,,,,,,,,,,,,,,002,2022-05-04_16h20.25.260,FishGame,2022.1.1,60.177125340372015,
,34,나를 데려가줘,6,Orange,B,0,0,ScrollDown,ScrollUp,Orange.png,2,NonTarget,NonTarget,,,,,0,0,0,0,,,,,,,,,,,,,,,,,0,33,33,33,,,,,,,,,,,,,,,,,,,,,,,,,,,,,,,,,,,,,,,,,,,,,,,,,,,,,,,,,,,,,,,,,,,,,,,,,,,,,1.1496913582086563,1.494853699929081,359.0200138000073,None,ScrollDown,정답입니다,359.0200138000073,None,359.0200138000073,None,359.0200138000073,None,359.0200138000073,None,360.4039381999755,None,360.4039381999755,360.904000599985,,,,,,,,,,,,,,,,002,2022-05-04_16h20.25.260,FishGame,2022.1.1,60.177125340372015,
,35,넌 편파적이야,5,Orange,B,2.125,2,ScrollUp,ScrollDown,Orange.png,2,Negative,Congruent,,,,,0,0,0,0,,,,,,,,,,,,,,,,,0,34,34,34,,,,,,,,,,,,,,,,,,,,,,,,,,,,,,,,,,,,,,,,,,,,,,,,,,,,,,,,,,,,,,,,,,,,,,,,,,,,,1.9212963084379833,1.3074292000383139,361.53631910006516,None,ScrollUp,정답입니다,361.53631910006516,None,361.53631910006516,None,361.53631910006516,None,361.53631910006516,None,362.73719909996726,None,362.73719909996726,363.2379090000177,,,,,,,,,,,,,,,,002,2022-05-04_16h20.25.260,FishGame,2022.1.1,60.177125340372015,
,36,넌 슬퍼,4,Green,A,2.583333333333333,3.066666666666667,ScrollDown,ScrollUp,Green.png,2,Negative,Incongruent,,,,,0,0,0,0,,,,,,,,,,,,,,,,,0,35,35,35,,,,,,,,,,,,,,,,,,,,,,,,,,,,,,,,,,,,,,,,,,,,,,,,,,,,,,,,,,,,,,,,,,,,,,,,,,,,,1.1280864129463832,0.9944202000042424,363.86427440005355,None,ScrollDown,정답입니다,363.86427440005355,None,363.86427440005355,None,363.86427440005355,None,363.86427440005355,None,364.75377489998937,None,364.75377489998937,365.2540835000109,,,,,,,,,,,,,,,,002,2022-05-04_16h20.25.260,FishGame,2022.1.1,60.177125340372015,
,37,나를 데려가줘,6,Orange,B,0,0,ScrollDown,ScrollUp,Orange.png,2,NonTarget,NonTarget,,,,,0,0,0,0,,,,,,,,,,,,,,,,,0,36,36,36,,,,,,,,,,,,,,,,,,,,,,,,,,,,,,,,,,,,,,,,,,,,,,,,,,,,,,,,,,,,,,,,,,,,,,,,,,,,,1.1080246816078823,1.1809676000848413,365.87459520006087,None,ScrollDown,정답입니다,365.87459520006087,None,365.87459520006087,None,365.87459520006087,None,365.87459520006087,None,366.9538339000428,None,366.9538339000428,367.4538970000576,,,,,,,,,,,,,,,,002,2022-05-04_16h20.25.260,FishGame,2022.1.1,60.177125340372015,
,38,넌 친절해,1,Orange,B,6.041666666666667,5.533333333333333,ScrollUp,ScrollDown,Orange.png,2,Positive,Incongruent,,,,,0,0,0,0,,,,,,,,,,,,,,,,,0,37,37,37,,,,,,,,,,,,,,,,,,,,,,,,,,,,,,,,,,,,,,,,,,,,,,,,,,,,,,,,,,,,,,,,,,,,,,,,,,,,,1.89969136317571,1.1909413000103086,368.09203010005876,None,ScrollUp,정답입니다,368.09203010005876,None,368.09203010005876,None,368.09203010005876,None,368.09203010005876,None,369.1700600000331,None,369.1700600000331,369.6701506000245,,,,,,,,,,,,,,,,002,2022-05-04_16h20.25.260,FishGame,2022.1.1,60.177125340372015,
,1,넌 엉성해,4,Green,A,3,3.3,ScrollDown,ScrollUp,Green.png,3,Negative,Incongruent,,,,,0,0,0,0,,,,,,,,,,,,,,,,,,,,,0,0,0,0,,,,,,,,,,,,,,,,,,,,,,,,,,,,,,,,401.4037606000202,402.9032385000028,402.9394180000527,403.88961169996765,403.93938570003957,404.89339069998823,404.8767667999491,None,,,,,,,,,,,,,,,,,,,,,,,,,,,,,,,,,,1.0570987462997437,1.3128766000736505,405.9951669999864,None,ScrollDown,정답입니다,405.9951669999864,None,405.9951669999864,None,405.9951669999864,None,405.9951669999864,None,407.2028557000449,None,407.2028557000449,407.703324800008,370.17021849995945,None,370.17021849995945,None,0.17592593,-0.08425926,1,0,0,0.01607301994226873,None,400.1694718999788,None,,,002,2022-05-04_16h20.25.260,FishGame,2022.1.1,60.177125340372015,
,2,나를 보내줘,6,Green,A,0,0,ScrollUp,ScrollDown,Green.png,3,NonTarget,NonTarget,,,,,0,0,0,0,,,,,,,,,,,,,,,,,,,,,0,1,1,1,,,,,,,,,,,,,,,,,,,,,,,,,,,,,,,,,,,,,,,,,,,,,,,,,,,,,,,,,,,,,,,,,,,,,,,,,1.787037044763565,1.1755224000662565,408.3290036000544,None,ScrollUp,정답입니다,408.3290036000544,None,408.3290036000544,None,408.3290036000544,None,408.3290036000544,None,409.40285820001736,None,409.40285820001736,409.90320209995843,,,,,,,,,,,,,,,,002,2022-05-04_16h20.25.260,FishGame,2022.1.1,60.177125340372015,
,3,넌 활발해,1,Orange,B,5.666666666666667,5.6,ScrollUp,ScrollDown,Orange.png,3,Positive,Incongruent,,,,,0,0,0,0,,,,,,,,,,,,,,,,,,,,,0,2,2,2,,,,,,,,,,,,,,,,,,,,,,,,,,,,,,,,,,,,,,,,,,,,,,,,,,,,,,,,,,,,,,,,,,,,,,,,,1.7608024577299755,1.193942799931392,410.5374574000016,None,ScrollUp,정답입니다,410.5374574000016,None,410.5374574000016,None,410.5374574000016,None,410.5374574000016,None,411.61951670004055,None,411.61951670004055,412.11922800005414,,,,,,,,,,,,,,,,002,2022-05-04_16h20.25.260,FishGame,2022.1.1,60.177125340372015,
,4,넌 논리적이야,2,Green,A,5.666666666666666,4.633333333333334,ScrollDown,ScrollUp,Green.png,3,Positive,Congruent,,,,,0,0,0,0,,,,,,,,,,,,,,,,,,,,,0,3,3,3,,,,,,,,,,,,,,,,,,,,,,,,,,,,,,,,,,,,,,,,,,,,,,,,,,,,,,,,,,,,,,,,,,,,,,,,,1.0987654229005177,1.0285556999733672,412.7421774000395,None,ScrollDown,정답입니다,412.7421774000395,None,412.7421774000395,None,412.7421774000395,None,412.7421774000395,None,413.6691210999852,None,413.6691210999852,414.1692289999919,,,,,,,,,,,,,,,,002,2022-05-04_16h20.25.260,FishGame,2022.1.1,60.177125340372015,
,5,넌 과묵해,3,Green,A,3.875,4.4,ScrollDown,ScrollUp,Green.png,3,Neutral,Neutral,,,,,0,0,0,0,,,,,,,,,,,,,,,,,,,,,0,4,4,4,,,,,,,,,,,,,,,,,,,,,,,,,,,,,,,,,,,,,,,,,,,,,,,,,,,,,,,,,,,,,,,,,,,,,,,,,1.0308642089366913,0.928103500045836,414.79548239998985,None,ScrollDown,정답입니다,414.79548239998985,None,414.79548239998985,None,414.79548239998985,None,414.79548239998985,None,415.6222707000561,None,415.6222707000561,416.1389511000598,,,,,,,,,,,,,,,,002,2022-05-04_16h20.25.260,FishGame,2022.1.1,60.177125340372015,
,6,나를 데려가줘,6,Orange,B,0,0,ScrollDown,ScrollUp,Orange.png,3,NonTarget,NonTarget,,,,,0,0,0,0,,,,,,,,,,,,,,,,,,,,,0,5,5,5,,,,,,,,,,,,,,,,,,,,,,,,,,,,,,,,,,,,,,,,,,,,,,,,,,,,,,,,,,,,,,,,,,,,,,,,,1.0910493781169255,1.0306947999633849,416.75726179999765,None,ScrollDown,정답입니다,416.75726179999765,None,416.75726179999765,None,416.75726179999765,None,416.75726179999765,None,417.6693371000001,None,417.6693371000001,418.1693168999627,,,,,,,,,,,,,,,,002,2022-05-04_16h20.25.260,FishGame,2022.1.1,60.177125340372015,
,7,넌 미숙해,4,Orange,B,3,3,ScrollUp,ScrollDown,Orange.png,3,Negative,Congruent,,,,,0,0,0,0,,,,,,,,,,,,,,,,,,,,,0,6,6,6,,,,,,,,,,,,,,,,,,,,,,,,,,,,,,,,,,,,,,,,,,,,,,,,,,,,,,,,,,,,,,,,,,,,,,,,,1.7530864129463832,1.258567199925892,418.7992422999814,None,ScrollUp,정답입니다,418.7992422999814,None,418.7992422999814,None,418.7992422999814,None,418.7992422999814,None,419.952587399981,None,419.952587399981,420.45264420006424,,,,,,,,,,,,,,,,002,2022-05-04_16h20.25.260,FishGame,2022.1.1,60.177125340372015,
,8,나를 보내줘,6,Green,A,0,0,ScrollUp,ScrollDown,Green.png,3,NonTarget,NonTarget,,,,,0,0,0,0,,,,,,,,,,,,,,,,,,,,,0,7,7,7,,,,,,,,,,,,,,,,,,,,,,,,,,,,,,,,,,,,,,,,,,,,,,,,,,,,,,,,,,,,,,,,,,,,,,,,,1.7160493781169257,1.7943223998881876,421.07734479999635,None,ScrollUp,정답입니다,421.07734479999635,None,421.07734479999635,None,421.07734479999635,None,421.07734479999635,None,422.7692305999808,None,422.7692305999808,423.2696532000555,,,,,,,,,,,,,,,,002,2022-05-04_16h20.25.260,FishGame,2022.1.1,60.177125340372015,
,9,넌 자신만만해,3,Orange,B,4.833333333333334,4.333333333333333,ScrollUp,ScrollDown,Orange.png,3,Neutral,Neutral,,,,,0,0,0,0,,,,,,,,,,,,,,,,,,,,,0,8,8,8,,,,,,,,,,,,,,,,,,,,,,,,,,,,,,,,,,,,,,,,,,,,,,,,,,,,,,,,,,,,,,,,,,,,,,,,,1.8040123482545216,1.3917498000664636,423.8995294000488,None,ScrollUp,정답입니다,423.8995294000488,None,423.8995294000488,None,423.8995294000488,None,423.8995294000488,None,425.1858754999703,None,425.1858754999703,425.68871979997493,,,,,,,,,,,,,,,,002,2022-05-04_16h20.25.260,FishGame,2022.1.1,60.177125340372015,
,10,넌 탐욕스러워,5,Green,A,2.25,2.1,ScrollDown,ScrollUp,Green.png,3,Negative,Incongruent,,,,,0,0,0,0,,,,,,,,,,,,,,,,,,,,,0,9,9,9,,,,,,,,,,,,,,,,,,,,,,,,,,,,,,,,,,,,,,,,,,,,,,,,,,,,,,,,,,,,,,,,,,,,,,,,,1.0925925920406978,1.0276750000193715,426.3175656000385,None,ScrollDown,정답입니다,426.3175656000385,None,426.3175656000385,None,426.3175656000385,None,426.3175656000385,None,427.235790799954,None,427.235790799954,427.73557100002654,,,,,,,,,,,,,,,,002,2022-05-04_16h20.25.260,FishGame,2022.1.1,60.177125340372015,
,11,넌 인기있어,2,Green,A,5.458333333333333,4.5,ScrollDown,ScrollUp,Green.png,3,Positive,Congruent,,,,,0,0,0,0,,,,,,,,,,,,,,,,,,,,,0,10,10,10,,,,,,,,,,,,,,,,,,,,,,,,,,,,,,,,,,,,,,,,,,,,,,,,,,,,,,,,,,,,,,,,,,,,,,,,,1.2839506218830743,1.1793849000241607,428.35631699999794,None,ScrollDown,정답입니다,428.35631699999794,None,428.35631699999794,None,428.35631699999794,None,428.35631699999794,None,429.43862819997594,None,429.43862819997594,429.93896679999307,,,,,,,,,,,,,,,,002,2022-05-04_16h20.25.260,FishGame,2022.1.1,60.177125340372015,
,12,나를 데려가줘,6,Orange,B,0,0,ScrollDown,ScrollUp,Orange.png,3,NonTarget,NonTarget,,,,,0,0,0,0,,,,,,,,,,,,,,,,,,,,,0,11,11,11,,,,,,,,,,,,,,,,,,,,,,,,,,,,,,,,,,,,,,,,,,,,,,,,,,,,,,,,,,,,,,,,,,,,,,,,,1.1682098756233852,1.162338399910368,430.5598586000269,None,ScrollDown,정답입니다,430.5598586000269,None,430.5598586000269,None,430.5598586000269,None,430.5598586000269,None,431.61906549998093,None,431.61906549998093,432.119186899974,,,,,,,,,,,,,,,,002,2022-05-04_16h20.25.260,FishGame,2022.1.1,60.177125340372015,
,13,넌 뛰어나,2,Orange,B,6.166666666666667,4,ScrollUp,ScrollDown,Orange.png,3,Positive,Incongruent,,,,,0,0,0,0,,,,,,,,,,,,,,,,,,,,,0,12,12,12,,,,,,,,,,,,,,,,,,,,,,,,,,,,,,,,,,,,,,,,,,,,,,,,,,,,,,,,,,,,,,,,,,,,,,,,,1.9675925771395366,1.1242011999711394,432.7557851000456,None,ScrollUp,정답입니다,432.7557851000456,None,432.7557851000456,None,432.7557851000456,None,432.7557851000456,None,433.7686888000462,None,433.7686888000462,434.2687552999705,,,,,,,,,,,,,,,,002,2022-05-04_16h20.25.260,FishGame,2022.1.1,60.177125340372015,
,14,넌 낙관적이야,1,Green,A,5.75,5.8,ScrollDown,ScrollUp,Green.png,3,Positive,Congruent,,,,,0,0,0,0,,,,,,,,,,,,,,,,,,,,,0,13,13,13,,,,,,,,,,,,,,,,,,,,,,,,,,,,,,,,,,,,,,,,,,,,,,,,,,,,,,,,,,,,,,,,,,,,,,,,,1.126543199022611,0.96178290003445,434.8953179999953,None,ScrollDown,정답입니다,434.8953179999953,None,434.8953179999953,None,434.8953179999953,None,434.8953179999953,None,435.7523614000529,None,435.7523614000529,436.2551509999903,,,,,,,,,,,,,,,,002,2022-05-04_16h20.25.260,FishGame,2022.1.1,60.177125340372015,
,15,넌 산만해,4,Orange,B,2.695652173913043,3.033333333333333,ScrollUp,ScrollDown,Orange.png,3,Negative,Congruent,,,,,0,0,0,0,,,,,,,,,,,,,,,,,,,,,0,14,14,14,,,,,,,,,,,,,,,,,,,,,,,,,,,,,,,,,,,,,,,,,,,,,,,,,,,,,,,,,,,,,,,,,,,,,,,,,1.6944444452722869,0.9939108000835404,436.88049060001504,None,ScrollUp,정답입니다,436.88049060001504,None,436.88049060001504,None,436.88049060001504,None,436.88049060001504,None,437.76896110002417,None,437.76896110002417,438.27173290005885,,,,,,,,,,,,,,,,002,2022-05-04_16h20.25.260,FishGame,2022.1.1,60.177125340372015,
,16,나를 보내줘,6,Green,A,0,0,ScrollUp,ScrollDown,Green.png,3,NonTarget,NonTarget,,,,,0,0,0,0,,,,,,,,,,,,,,,,,,,,,0,15,15,15,,,,,,,,,,,,,,,,,,,,,,,,,,,,,,,,,,,,,,,,,,,,,,,,,,,,,,,,,,,,,,,,,,,,,,,,,1.7808641890684764,1.3408375999424607,438.89423049998004,None,ScrollUp,정답입니다,438.89423049998004,None,438.89423049998004,None,438.89423049998004,None,438.89423049998004,None,440.135580400005,None,440.135580400005,440.63570910005365,,,,,,,,,,,,,,,,002,2022-05-04_16h20.25.260,FishGame,2022.1.1,60.177125340372015,
,17,넌 교활해,5,Orange,B,2.333333333333333,2.133333333333333,ScrollUp,ScrollDown,Orange.png,3,Negative,Congruent,,,,,0,0,0,0,,,,,,,,,,,,,,,,,,,,,0,16,16,16,,,,,,,,,,,,,,,,,,,,,,,,,,,,,,,,,,,,,,,,,,,,,,,,,,,,,,,,,,,,,,,,,,,,,,,,,1.5956790149211884,1.3977881000610068,441.25926279998384,None,ScrollUp,정답입니다,441.25926279998384,None,441.25926279998384,None,441.25926279998384,None,441.25926279998384,None,442.5521241000388,None,442.5521241000388,443.05214070004877,,,,,,,,,,,,,,,,002,2022-05-04_16h20.25.260,FishGame,2022.1.1,60.177125340372015,
,18,나를 보내줘,6,Green,A,0,0,ScrollUp,ScrollDown,Green.png,3,NonTarget,NonTarget,,,,,0,0,0,0,,,,,,,,,,,,,,,,,,,,,0,17,17,17,,,,,,,,,,,,,,,,,,,,,,,,,,,,,,,,,,,,,,,,,,,,,,,,,,,,,,,,,,,,,,,,,,,,,,,,,1.6234567910432816,1.2585547000635415,443.6799172000028,None,ScrollUp,정답입니다,443.6799172000028,None,443.6799172000028,None,443.6799172000028,None,443.6799172000028,None,444.8383050999837,None,444.8383050999837,445.3518933999585,,,,,,,,,,,,,,,,002,2022-05-04_16h20.25.260,FishGame,2022.1.1,60.177125340372015,
,19,넌 불친절해,5,Orange,B,2.208333333333333,2.033333333333333,ScrollUp,ScrollDown,Orange.png,3,Negative,Congruent,,,,,0,0,0,0,,,,,,,,,,,,,,,,,,,,,0,18,18,18,,,,,,,,,,,,,,,,,,,,,,,,,,,,,,,,,,,,,,,,,,,,,,,,,,,,,,,,,,,,,,,,,,,,,,,,,1.5864197500050068,1.0448952000588179,445.97976540005766,None,ScrollUp,정답입니다,445.97976540005766,None,445.97976540005766,None,445.97976540005766,None,445.97976540005766,None,446.91839760006405,None,446.91839760006405,447.4187207999639,,,,,,,,,,,,,,,,002,2022-05-04_16h20.25.260,FishGame,2022.1.1,60.177125340372015,
,20,넌 지적이야,2,Orange,B,5.75,4.366666666666666,ScrollUp,ScrollDown,Orange.png,3,Positive,Incongruent,,,,,0,0,0,0,,,,,,,,,,,,,,,,,,,,,0,19,19,19,,,,,,,,,,,,,,,,,,,,,,,,,,,,,,,,,,,,,,,,,,,,,,,,,,,,,,,,,,,,,,,,,,,,,,,,,1.7623456716537476,0.9950184000190347,448.04786110005807,None,ScrollUp,정답입니다,448.04786110005807,None,448.04786110005807,None,448.04786110005807,None,448.04786110005807,None,448.9353747999994,None,448.9353747999994,449.43845410004724,,,,,,,,,,,,,,,,002,2022-05-04_16h20.25.260,FishGame,2022.1.1,60.177125340372015,
,21,넌 우유부단해,4,Green,A,2.666666666666667,3.166666666666667,ScrollDown,ScrollUp,Green.png,3,Negative,Incongruent,,,,,0,0,0,0,,,,,,,,,,,,,,,,,,,,,0,20,20,20,,,,,,,,,,,,,,,,,,,,,,,,,,,,,,,,,,,,,,,,,,,,,,,,,,,,,,,,,,,,,,,,,,,,,,,,,1.1435185273488362,0.9751815000781789,450.06312569999136,None,ScrollDown,정답입니다,450.06312569999136,None,450.06312569999136,None,450.06312569999136,None,450.06312569999136,None,450.91832719999366,None,450.91832719999366,451.4183969000587,,,,,,,,,,,,,,,,002,2022-05-04_16h20.25.260,FishGame,2022.1.1,60.177125340372015,
,22,나를 데려가줘,6,Orange,B,0,0,ScrollDown,ScrollUp,Orange.png,3,NonTarget,NonTarget,,,,,0,0,0,0,,,,,,,,,,,,,,,,,,,,,0,21,21,21,,,,,,,,,,,,,,,,,,,,,,,,,,,,,,,,,,,,,,,,,,,,,,,,,,,,,,,,,,,,,,,,,,,,,,,,,1.2608024626970291,1.2282424999866635,452.04059999994934,None,ScrollDown,정답입니다,452.04059999994934,None,452.04059999994934,None,452.04059999994934,None,452.04059999994934,None,453.1683209000621,None,453.1683209000621,453.6684002999682,,,,,,,,,,,,,,,,002,2022-05-04_16h20.25.260,FishGame,2022.1.1,60.177125340372015,
,23,넌 성실해,1,Orange,B,6.041666666666666,5.7,ScrollUp,ScrollDown,Orange.png,3,Positive,Incongruent,,,,,0,0,0,0,,,,,,,,,,,,,,,,,,,,,0,22,22,22,,,,,,,,,,,,,,,,,,,,,,,,,,,,,,,,,,,,,,,,,,,,,,,,,,,,,,,,,,,,,,,,,,,,,,,,,1.7453703681627908,0.9612417999887839,454.2913122000173,None,ScrollUp,정답입니다,454.2913122000173,None,454.2913122000173,None,454.2913122000173,None,454.2913122000173,None,455.15482890000567,None,455.15482890000567,455.6549304999644,,,,,,,,,,,,,,,,002,2022-05-04_16h20.25.260,FishGame,2022.1.1,60.177125340372015,
,24,넌 현실주의적이야,3,Green,A,4.625,4.4,ScrollDown,ScrollUp,Green.png,3,Neutral,Neutral,,,,,0,0,0,0,,,,,,,,,,,,,,,,,,,,,0,23,23,23,,,,,,,,,,,,,,,,,,,,,,,,,,,,,,,,,,,,,,,,,,,,,,,,,,,,,,,,,,,,,,,,,,,,,,,,,1.2391975422700245,1.3124165999470279,456.27617500000633,None,ScrollDown,정답입니다,456.27617500000633,None,456.27617500000633,None,456.27617500000633,None,456.27617500000633,None,457.4852229000535,None,457.4852229000535,457.98803969996516,,,,,,,,,,,,,,,,002,2022-05-04_16h20.25.260,FishGame,2022.1.1,60.177125340372015,
,25,넌 진실돼,1,Green,A,6.625,5.566666666666666,ScrollDown,ScrollUp,Green.png,3,Positive,Congruent,,,,,0,0,0,0,,,,,,,,,,,,,,,,,,,,,0,24,24,24,,,,,,,,,,,,,,,,,,,,,,,,,,,,,,,,,,,,,,,,,,,,,,,,,,,,,,,,,,,,,,,,,,,,,,,,,1.2268518557151158,0.9417013999773189,458.6170659000054,None,ScrollDown,정답입니다,458.6170659000054,None,458.6170659000054,None,458.6170659000054,None,458.6170659000054,None,459.4517286999617,None,459.4517286999617,459.9518469000468,,,,,,,,,,,,,,,,002,2022-05-04_16h20.25.260,FishGame,2022.1.1,60.177125340372015,
,26,넌 천진난만해,3,Orange,B,4.958333333333334,4.833333333333333,ScrollUp,ScrollDown,Orange.png,3,Neutral,Neutral,,,,,0,0,0,0,,,,,,,,,,,,,,,,,,,,,0,25,25,25,,,,,,,,,,,,,,,,,,,,,,,,,,,,,,,,,,,,,,,,,,,,,,,,,,,,,,,,,,,,,,,,,,,,,,,,,1.6234567910432816,1.1811893000267446,460.57311330002267,None,ScrollUp,정답입니다,460.57311330002267,None,460.57311330002267,None,460.57311330002267,None,460.57311330002267,None,461.6517036999576,None,461.6517036999576,462.15472520003095,,,,,,,,,,,,,,,,002,2022-05-04_16h20.25.260,FishGame,2022.1.1,60.177125340372015,
,27,넌 교양없어,5,Green,A,2.416666666666667,2.2,ScrollDown,ScrollUp,Green.png,3,Negative,Incongruent,,,,,0,0,0,0,,,,,,,,,,,,,,,,,,,,,0,26,26,26,,,,,,,,,,,,,,,,,,,,,,,,,,,,,,,,,,,,,,,,,,,,,,,,,,,,,,,,,,,,,,,,,,,,,,,,,1.1296296268701553,0.9446392999961972,462.7846868999768,None,ScrollDown,정답입니다,462.7846868999768,None,462.7846868999768,None,462.7846868999768,None,462.7846868999768,None,463.6211159999948,None,463.6211159999948,464.11861909995787,,,,,,,,,,,,,,,,002,2022-05-04_16h20.25.260,FishGame,2022.1.1,60.177125340372015,
,28,나를 보내줘,6,Green,A,0,0,ScrollUp,ScrollDown,Green.png,3,NonTarget,NonTarget,,,,,0,0,0,0,,,,,,,,,,,,,,,,,,,,,0,27,27,27,,,,,,,,,,,,,,,,,,,,,,,,,,,,,,,,,,,,,,,,,,,,,,,,,,,,,,,,,,,,,,,,,,,,,,,,,1.8657407313585281,1.04169580002781,464.7429371000035,None,ScrollUp,정답입니다,464.7429371000035,None,464.7429371000035,None,464.7429371000035,None,464.7429371000035,None,465.68501200003084,None,465.68501200003084,466.1850508999778,,,,,,,,,,,,,,,,002,2022-05-04_16h20.25.260,FishGame,2022.1.1,60.177125340372015,
,29,넌 엉뚱스러워,3,Green,A,4.166666666666667,4.133333333333334,ScrollDown,ScrollUp,Green.png,3,Neutral,Neutral,,,,,0,0,0,0,,,,,,,,,,,,,,,,,,,,,0,28,28,28,,,,,,,,,,,,,,,,,,,,,,,,,,,,,,,,,,,,,,,,,,,,,,,,,,,,,,,,,,,,,,,,,,,,,,,,,1.2021604826052983,1.1281608999706805,466.80868600006215,None,ScrollDown,정답입니다,466.80868600006215,None,466.80868600006215,None,466.80868600006215,None,466.80868600006215,None,467.8346466999501,None,467.8346466999501,468.334693999961,,,,,,,,,,,,,,,,002,2022-05-04_16h20.25.260,FishGame,2022.1.1,60.177125340372015,
,30,넌 무지해,4,Orange,B,2.541666666666667,3.066666666666667,ScrollUp,ScrollDown,Orange.png,3,Negative,Congruent,,,,,0,0,0,0,,,,,,,,,,,,,,,,,,,,,0,29,29,29,,,,,,,,,,,,,,,,,,,,,,,,,,,,,,,,,,,,,,,,,,,,,,,,,,,,,,,,,,,,,,,,,,,,,,,,,1.6574074104428291,0.7948418000014499,468.9586040000431,None,ScrollUp,정답입니다,468.9586040000431,None,468.9586040000431,None,468.9586040000431,None,468.9586040000431,None,469.65162879996933,None,469.65162879996933,470.1525375000201,,,,,,,,,,,,,,,,002,2022-05-04_16h20.25.260,FishGame,2022.1.1,60.177125340372015,
,31,넌 음울해,5,Orange,B,2.25,2.233333333333333,ScrollUp,ScrollDown,Orange.png,3,Negative,Congruent,,,,,0,0,0,0,,,,,,,,,,,,,,,,,,,,,0,30,30,30,,,,,,,,,,,,,,,,,,,,,,,,,,,,,,,,,,,,,,,,,,,,,,,,,,,,,,,,,,,,,,,,,,,,,,,,,1.5092592594834664,0.8097666000248864,470.78127679997124,None,NoResponse,무응답입니다,470.78127679997124,None,470.78127679997124,None,470.78127679997124,None,470.78127679997124,None,471.4849132000236,None,471.4849132000236,471.9849124000175,,,,,,,,,,,,,,,,002,2022-05-04_16h20.25.260,FishGame,2022.1.1,60.177125340372015,
,32,넌 냉소적이야,5,Green,A,2.916666666666667,2.4,ScrollDown,ScrollUp,Green.png,3,Negative,Incongruent,,,,,0,0,0,0,,,,,,,,,,,,,,,,,,,,,0,31,31,31,,,,,,,,,,,,,,,,,,,,,,,,,,,,,,,,,,,,,,,,,,,,,,,,,,,,,,,,,,,,,,,,,,,,,,,,,1.2654321044683456,0.8407881000312045,472.61398130003363,None,ScrollDown,정답입니다,472.61398130003363,None,472.61398130003363,None,472.61398130003363,None,472.61398130003363,None,473.3511847000336,None,473.3511847000336,473.8513014999917,,,,,,,,,,,,,,,,002,2022-05-04_16h20.25.260,FishGame,2022.1.1,60.177125340372015,
,33,나를 데려가줘,6,Orange,B,0,0,ScrollDown,ScrollUp,Orange.png,3,NonTarget,NonTarget,,,,,0,0,0,0,,,,,,,,,,,,,,,,,,,,,0,32,32,32,,,,,,,,,,,,,,,,,,,,,,,,,,,,,,,,,,,,,,,,,,,,,,,,,,,,,,,,,,,,,,,,,,,,,,,,,1.2638888905445733,1.2613132999977097,474.4835368000204,None,ScrollDown,정답입니다,474.4835368000204,None,474.4835368000204,None,474.4835368000204,None,474.4835368000204,None,475.6347939999541,None,475.6347939999541,476.13764690002427,,,,,,,,,,,,,,,,002,2022-05-04_16h20.25.260,FishGame,2022.1.1,60.177125340372015,
,34,넌 쾌활해,1,Green,A,5.541666666666666,5.733333333333333,ScrollDown,ScrollUp,Green.png,3,Positive,Congruent,,,,,0,0,0,0,,,,,,,,,,,,,,,,,,,,,0,33,33,33,,,,,,,,,,,,,,,,,,,,,,,,,,,,,,,,,,,,,,,,,,,,,,,,,,,,,,,,,,,,,,,,,,,,,,,,,1.2438271592060726,1.1650692999828607,476.76879170001484,None,ScrollDown,정답입니다,476.76879170001484,None,476.76879170001484,None,476.76879170001484,None,476.76879170001484,None,477.82093669997994,None,477.82093669997994,478.31809459999204,,,,,,,,,,,,,,,,002,2022-05-04_16h20.25.260,FishGame,2022.1.1,60.177125340372015,
,35,나를 보내줘,6,Green,A,0,0,ScrollUp,ScrollDown,Green.png,3,NonTarget,NonTarget,,,,,0,0,0,0,,,,,,,,,,,,,,,,,,,,,0,34,34,34,,,,,,,,,,,,,,,,,,,,,,,,,,,,,,,,,,,,,,,,,,,,,,,,,,,,,,,,,,,,,,,,,,,,,,,,,1.7268518507480621,1.0454282000428066,478.9557218999835,None,ScrollUp,정답입니다,478.9557218999835,None,478.9557218999835,None,478.9557218999835,None,478.9557218999835,None,479.9010358999949,None,479.9010358999949,480.40107999998145,,,,,,,,,,,,,,,,002,2022-05-04_16h20.25.260,FishGame,2022.1.1,60.177125340372015,
,36,넌 명랑해,1,Orange,B,5.739130434782609,5.666666666666667,ScrollUp,ScrollDown,Orange.png,3,Positive,Incongruent,,,,,0,0,0,0,,,,,,,,,,,,,,,,,,,,,0,35,35,35,,,,,,,,,,,,,,,,,,,,,,,,,,,,,,,,,,,,,,,,,,,,,,,,,,,,,,,,,,,,,,,,,,,,,,,,,1.663580241302649,0.9117794999619946,481.032064500032,None,ScrollUp,정답입니다,481.032064500032,None,481.032064500032,None,481.032064500032,None,481.032064500032,None,481.8374713000376,None,481.8374713000376,482.3350900999503,,,,,,,,,,,,,,,,002,2022-05-04_16h20.25.260,FishGame,2022.1.1,60.177125340372015,
,37,넌 멍해,4,Green,A,2.833333333333333,3.4,ScrollDown,ScrollUp,Green.png,3,Negative,Incongruent,,,,,0,0,0,0,,,,,,,,,,,,,,,,,,,,,0,36,36,36,,,,,,,,,,,,,,,,,,,,,,,,,,,,,,,,,,,,,,,,,,,,,,,,,,,,,,,,,,,,,,,,,,,,,,,,,1.2237654278675716,1.043383500073105,482.98696340003517,None,ScrollDown,정답입니다,482.98696340003517,None,482.98696340003517,None,482.98696340003517,None,482.98696340003517,None,483.9179618000053,None,483.9179618000053,484.4208464999683,,,,,,,,,,,,,,,,002,2022-05-04_16h20.25.260,FishGame,2022.1.1,60.177125340372015,
,38,나를 데려가줘,6,Orange,B,0,0,ScrollDown,ScrollUp,Orange.png,3,NonTarget,NonTarget,,,,,0,0,0,0,,,,,,,,,,,,,,,,,,,,,0,37,37,37,,,,,,,,,,,,,,,,,,,,,,,,,,,,,,,,,,,,,,,,,,,,,,,,,,,,,,,,,,,,,,,,,,,,,,,,,1.248456800977389,1.1278413999825716,485.03773820004426,None,ScrollDown,정답입니다,485.03773820004426,None,485.03773820004426,None,485.03773820004426,None,485.03773820004426,None,486.0675707999617,None,486.0675707999617,486.5676957999822,,,,,,,,,,,,,,,,002,2022-05-04_16h20.25.260,FishGame,2022.1.1,60.177125340372015,
,39,넌 현명해,2,Green,A,6.541666666666666,4.533333333333333,ScrollDown,ScrollUp,Green.png,3,Positive,Congruent,,,,,0,0,0,0,,,,,,,,,,,,,,,,,,,,,0,38,38,38,,,,,,,,,,,,,,,,,,,,,,,,,,,,,,,,,,,,,,,,,,,,,,,,,,,,,,,,,,,,,,,,,,,,,,,,,1.2021604826052983,1.0115383999655023,487.1929865999846,None,ScrollDown,정답입니다,487.1929865999846,None,487.1929865999846,None,487.1929865999846,None,487.1929865999846,None,488.10408309998456,None,488.10408309998456,488.60121590003837,,,,,,,,,,,,,,,,002,2022-05-04_16h20.25.260,FishGame,2022.1.1,60.177125340372015,
,40,넌 수줍어,3,Orange,B,3.541666666666666,4.366666666666666,ScrollUp,ScrollDown,Orange.png,3,Neutral,Neutral,,,,,0,0,0,0,,,,,,,,,,,,,,,,,,,,,0,39,39,39,,,,,,,,,,,,,,,,,,,,,,,,,,,,,,,,,,,,,,,,,,,,,,,,,,,,,,,,,,,,,,,,,,,,,,,,,1.6959876591960588,0.8794717999408022,489.24482639995404,None,ScrollUp,정답입니다,489.24482639995404,None,489.24482639995404,None,489.24482639995404,None,489.24482639995404,None,490.0206482000649,None,490.0206482000649,490.53453569998965,,,,,,,,,,,,,,,,002,2022-05-04_16h20.25.260,FishGame,2022.1.1,60.177125340372015,
,41,나를 데려가줘,6,Orange,B,0,0,ScrollDown,ScrollUp,Orange.png,3,NonTarget,NonTarget,,,,,0,0,0,0,,,,,,,,,,,,,,,,,,,,,0,40,40,40,,,,,,,,,,,,,,,,,,,,,,,,,,,,,,,,,,,,,,,,,,,,,,,,,,,,,,,,,,,,,,,,,,,,,,,,,1.182098776102066,1.011731999926269,491.15833210002165,None,ScrollDown,정답입니다,491.15833210002165,None,491.15833210002165,None,491.15833210002165,None,491.15833210002165,None,492.0674468000652,None,492.0674468000652,492.56749609997496,,,,,,,,,,,,,,,,002,2022-05-04_16h20.25.260,FishGame,2022.1.1,60.177125340372015,
,42,넌 성숙해,2,Orange,B,5.833333333333333,4.533333333333333,ScrollUp,ScrollDown,Orange.png,3,Positive,Incongruent,,,,,0,0,0,0,,,,,,,,,,,,,,,,,,,,,0,41,41,41,,,,,,,,,,,,,,,,,,,,,,,,,,,,,,,,,,,,,,,,,,,,,,,,,,,,,,,,,,,,,,,,,,,,,,,,,1.654320982595285,1.1129536000080407,493.1964702999685,None,ScrollUp,정답입니다,493.1964702999685,None,493.1964702999685,None,493.1964702999685,None,493.1964702999685,None,494.2038518000627,None,494.2038518000627,494.70387980004307,,,,,,,,,,,,,,,,002,2022-05-04_16h20.25.260,FishGame,2022.1.1,60.177125340372015,
,1,넌 매력적이야,2,Orange,B,6.125,4.666666666666667,ScrollUp,ScrollDown,Orange.png,4,Positive,Incongruent,,,,,0,0,0,0,,,,,,,,,,,,,,,,,,,,,,,,,0,0,0,0,,,,,,,,,,,,,,,,,,,,,,,,,,,,526.6865926999599,528.2034155000001,528.2174110000487,529.1670006000204,529.2170142000541,530.1670002000174,530.1670002000174,None,,,,,,,,,,,,,,,,,,,,,,,,,,,,,,,,,,1.7268518507480621,1.3144252999918535,531.2796248999657,None,ScrollUp,정답입니다,531.2796248999657,None,531.2796248999657,None,531.2796248999657,None,531.2796248999657,None,532.4835723000579,None,532.4835723000579,532.9836097999942,495.2177540999837,None,495.2177540999837,None,-0.117592596,-0.11296296,1,0,0,0.016238620039075613,None,525.2171349000419,None,,,002,2022-05-04_16h20.25.260,FishGame,2022.1.1,60.177125340372015,
,2,나를 보내줘,6,Green,A,0,0,ScrollUp,ScrollDown,Green.png,4,NonTarget,NonTarget,,,,,0,0,0,0,,,,,,,,,,,,,,,,,,,,,,,,,0,1,1,1,,,,,,,,,,,,,,,,,,,,,,,,,,,,,,,,,,,,,,,,,,,,,,,,,,,,,,,,,,,,,,,,,,,,,1.5570987661679587,1.1248380000470206,533.6072857000399,None,ScrollUp,정답입니다,533.6072857000399,None,533.6072857000399,None,533.6072857000399,None,533.6072857000399,None,534.6335299999919,None,534.6335299999919,535.1332930000499,,,,,,,,,,,,,,,,002,2022-05-04_16h20.25.260,FishGame,2022.1.1,60.177125340372015,
,3,넌 조심스러워,3,Green,A,4.791666666666666,4.666666666666667,ScrollDown,ScrollUp,Green.png,4,Neutral,Neutral,,,,,0,0,0,0,,,,,,,,,,,,,,,,,,,,,,,,,0,2,2,2,,,,,,,,,,,,,,,,,,,,,,,,,,,,,,,,,,,,,,,,,,,,,,,,,,,,,,,,,,,,,,,,,,,,,1.141975313425064,1.178178200032562,535.7528541999636,None,ScrollDown,정답입니다,535.7528541999636,None,535.7528541999636,None,535.7528541999636,None,535.7528541999636,None,536.8332145999884,None,536.8332145999884,537.3333243000088,,,,,,,,,,,,,,,,002,2022-05-04_16h20.25.260,FishGame,2022.1.1,60.177125340372015,
,4,넌 철학적이야,3,Orange,B,4.5,4.266666666666667,ScrollUp,ScrollDown,Orange.png,4,Neutral,Neutral,,,,,0,0,0,0,,,,,,,,,,,,,,,,,,,,,,,,,0,3,3,3,,,,,,,,,,,,,,,,,,,,,,,,,,,,,,,,,,,,,,,,,,,,,,,,,,,,,,,,,,,,,,,,,,,,,1.6882716019948325,0.9446020999457687,537.962274700054,None,ScrollUp,정답입니다,537.962274700054,None,537.962274700054,None,537.962274700054,None,537.962274700054,None,538.8001611999935,None,538.8001611999935,539.3029251999687,,,,,,,,,,,,,,,,002,2022-05-04_16h20.25.260,FishGame,2022.1.1,60.177125340372015,
,5,넌 쩨쩨해,5,Green,A,2.375,2.133333333333333,ScrollDown,ScrollUp,Green.png,4,Negative,Incongruent,,,,,0,0,0,0,,,,,,,,,,,,,,,,,,,,,,,,,0,4,4,4,,,,,,,,,,,,,,,,,,,,,,,,,,,,,,,,,,,,,,,,,,,,,,,,,,,,,,,,,,,,,,,,,,,,,1.2237654278675716,0.9710870999842882,539.921380899963,None,ScrollDown,정답입니다,539.921380899963,None,539.921380899963,None,539.921380899963,None,539.921380899963,None,540.7907741999952,None,540.7907741999952,541.2998516999651,,,,,,,,,,,,,,,,002,2022-05-04_16h20.25.260,FishGame,2022.1.1,60.177125340372015,
,6,나를 데려가줘,6,Orange,B,0,0,ScrollDown,ScrollUp,Orange.png,4,NonTarget,NonTarget,,,,,0,0,0,0,,,,,,,,,,,,,,,,,,,,,,,,,0,5,5,5,,,,,,,,,,,,,,,,,,,,,,,,,,,,,,,,,,,,,,,,,,,,,,,,,,,,,,,,,,,,,,,,,,,,,1.1327160547176998,1.046739700017497,541.9189320000587,None,ScrollDown,정답입니다,541.9189320000587,None,541.9189320000587,None,541.9189320000587,None,541.9189320000587,None,542.8664625999518,None,542.8664625999518,543.3664598000469,,,,,,,,,,,,,,,,002,2022-05-04_16h20.25.260,FishGame,2022.1.1,60.177125340372015,
,7,넌 고집불통이야,5,Orange,B,2.875,2,ScrollUp,ScrollDown,Orange.png,4,Negative,Congruent,,,,,0,0,0,0,,,,,,,,,,,,,,,,,,,,,,,,,0,6,6,6,,,,,,,,,,,,,,,,,,,,,,,,,,,,,,,,,,,,,,,,,,,,,,,,,,,,,,,,,,,,,,,,,,,,,1.807098776102066,0.9125193000072613,543.9952050000429,None,ScrollUp,정답입니다,543.9952050000429,None,543.9952050000429,None,543.9952050000429,None,543.9952050000429,None,544.8000219999813,None,544.8000219999813,545.3000565000111,,,,,,,,,,,,,,,,002,2022-05-04_16h20.25.260,FishGame,2022.1.1,60.177125340372015,
,8,넌 무심해,4,Green,A,2.875,3.2,ScrollDown,ScrollUp,Green.png,4,Negative,Incongruent,,,,,0,0,0,0,,,,,,,,,,,,,,,,,,,,,,,,,0,7,7,7,,,,,,,,,,,,,,,,,,,,,,,,,,,,,,,,,,,,,,,,,,,,,,,,,,,,,,,,,,,,,,,,,,,,,1.2839506218830743,0.894046499975957,545.9251335000154,None,ScrollDown,정답입니다,545.9251335000154,None,545.9251335000154,None,545.9251335000154,None,545.9251335000154,None,546.7166235999903,None,546.7166235999903,547.2163624999812,,,,,,,,,,,,,,,,002,2022-05-04_16h20.25.260,FishGame,2022.1.1,60.177125340372015,
,9,넌 정겨워,1,Green,A,5.791666666666667,5.666666666666667,ScrollDown,ScrollUp,Green.png,4,Positive,Congruent,,,,,0,0,0,0,,,,,,,,,,,,,,,,,,,,,,,,,0,8,8,8,,,,,,,,,,,,,,,,,,,,,,,,,,,,,,,,,,,,,,,,,,,,,,,,,,,,,,,,,,,,,,,,,,,,,1.3395061741272607,0.7943972999928519,547.8421328000259,None,ScrollDown,정답입니다,547.8421328000259,None,547.8421328000259,None,547.8421328000259,None,547.8421328000259,None,548.5329135999782,None,548.5329135999782,549.033426900045,,,,,,,,,,,,,,,,002,2022-05-04_16h20.25.260,FishGame,2022.1.1,60.177125340372015,
,10,나를 데려가줘,6,Orange,B,0,0,ScrollDown,ScrollUp,Orange.png,4,NonTarget,NonTarget,,,,,0,0,0,0,,,,,,,,,,,,,,,,,,,,,,,,,0,9,9,9,,,,,,,,,,,,,,,,,,,,,,,,,,,,,,,,,,,,,,,,,,,,,,,,,,,,,,,,,,,,,,,,,,,,,1.276234577099482,0.8949499001028016,549.6579072000459,None,ScrollDown,정답입니다,549.6579072000459,None,549.6579072000459,None,549.6579072000459,None,549.6579072000459,None,550.4500182999764,None,550.4500182999764,550.9498687000014,,,,,,,,,,,,,,,,002,2022-05-04_16h20.25.260,FishGame,2022.1.1,60.177125340372015,
,11,넌 체제순응적이야,4,Orange,B,3,3.6,ScrollUp,ScrollDown,Orange.png,4,Negative,Congruent,,,,,0,0,0,0,,,,,,,,,,,,,,,,,,,,,,,,,0,10,10,10,,,,,,,,,,,,,,,,,,,,,,,,,,,,,,,,,,,,,,,,,,,,,,,,,,,,,,,,,,,,,,,,,,,,,1.7376543233791986,0.995056200074032,551.5913822000148,None,ScrollUp,정답입니다,551.5913822000148,None,551.5913822000148,None,551.5913822000148,None,551.5913822000148,None,552.4692929000594,None,552.4692929000594,552.9739342000103,,,,,,,,,,,,,,,,002,2022-05-04_16h20.25.260,FishGame,2022.1.1,60.177125340372015,
,12,나를 보내줘,6,Green,A,0,0,ScrollUp,ScrollDown,Green.png,4,NonTarget,NonTarget,,,,,0,0,0,0,,,,,,,,,,,,,,,,,,,,,,,,,0,11,11,11,,,,,,,,,,,,,,,,,,,,,,,,,,,,,,,,,,,,,,,,,,,,,,,,,,,,,,,,,,,,,,,,,,,,,1.1172839403152466,1.161710999906063,553.6003288000356,None,ScrollDown,오답입니다,553.6003288000356,None,553.6003288000356,None,553.6003288000356,None,553.6003288000356,None,554.6664457999868,None,554.6664457999868,555.1662469999865,,,,,,,,,,,,,,,,002,2022-05-04_16h20.25.260,FishGame,2022.1.1,60.177125340372015,
,13,넌 박식해,2,Green,A,5.625,3.933333333333333,ScrollDown,ScrollUp,Green.png,4,Positive,Congruent,,,,,0,0,0,0,,,,,,,,,,,,,,,,,,,,,,,,,0,12,12,12,,,,,,,,,,,,,,,,,,,,,,,,,,,,,,,,,,,,,,,,,,,,,,,,,,,,,,,,,,,,,,,,,,,,,1.2901234527428946,0.9784431000007316,555.7951729999622,None,ScrollDown,정답입니다,555.7951729999622,None,555.7951729999622,None,555.7951729999622,None,555.7951729999622,None,556.6692238999531,None,556.6692238999531,557.1831294000149,,,,,,,,,,,,,,,,002,2022-05-04_16h20.25.260,FishGame,2022.1.1,60.177125340372015,
,14,나를 보내줘,6,Green,A,0,0,ScrollUp,ScrollDown,Green.png,4,NonTarget,NonTarget,,,,,0,0,0,0,,,,,,,,,,,,,,,,,,,,,,,,,0,13,13,13,,,,,,,,,,,,,,,,,,,,,,,,,,,,,,,,,,,,,,,,,,,,,,,,,,,,,,,,,,,,,,,,,,,,,1.6234567910432816,0.97670380002819,557.790130599984,None,ScrollUp,정답입니다,557.790130599984,None,557.790130599984,None,557.790130599984,None,557.790130599984,None,558.666368199978,None,558.666368199978,559.1662165999878,,,,,,,,,,,,,,,,002,2022-05-04_16h20.25.260,FishGame,2022.1.1,60.177125340372015,
,15,넌 침착해,1,Orange,B,5.458333333333333,5.566666666666666,ScrollUp,ScrollDown,Orange.png,4,Positive,Incongruent,,,,,0,0,0,0,,,,,,,,,,,,,,,,,,,,,,,,,0,14,14,14,,,,,,,,,,,,,,,,,,,,,,,,,,,,,,,,,,,,,,,,,,,,,,,,,,,,,,,,,,,,,,,,,,,,,1.5092592594834664,1.194333799998276,559.7952716000145,None,NoResponse,무응답입니다,559.7952716000145,None,559.7952716000145,None,559.7952716000145,None,559.7952716000145,None,560.8827041999903,None,560.8827041999903,561.3828762000194,,,,,,,,,,,,,,,,002,2022-05-04_16h20.25.260,FishGame,2022.1.1,60.177125340372015,
,16,나를 데려가줘,6,Orange,B,0,0,ScrollDown,ScrollUp,Orange.png,4,NonTarget,NonTarget,,,,,0,0,0,0,,,,,,,,,,,,,,,,,,,,,,,,,0,15,15,15,,,,,,,,,,,,,,,,,,,,,,,,,,,,,,,,,,,,,,,,,,,,,,,,,,,,,,,,,,,,,,,,,,,,,1.276234577099482,1.3617325999075547,562.0083898999728,None,ScrollDown,정답입니다,562.0083898999728,None,562.0083898999728,None,562.0083898999728,None,562.0083898999728,None,563.2662862000288,None,563.2662862000288,563.7691804000642,,,,,,,,,,,,,,,,002,2022-05-04_16h20.25.260,FishGame,2022.1.1,60.177125340372015,
,17,넌 행복해,1,Green,A,6.416666666666666,6.166666666666667,ScrollDown,ScrollUp,Green.png,4,Positive,Congruent,,,,,0,0,0,0,,,,,,,,,,,,,,,,,,,,,,,,,0,16,16,16,,,,,,,,,,,,,,,,,,,,,,,,,,,,,,,,,,,,,,,,,,,,,,,,,,,,,,,,,,,,,,,,,,,,,1.3055555547277131,0.9102008999325335,564.3903256000485,None,ScrollDown,정답입니다,564.3903256000485,None,564.3903256000485,None,564.3903256000485,None,564.3903256000485,None,565.1995325000025,None,565.1995325000025,565.7023650000338,,,,,,,,,,,,,,,,002,2022-05-04_16h20.25.260,FishGame,2022.1.1,60.177125340372015,
,18,넌 겸손해,2,Orange,B,5.791666666666667,4.766666666666667,ScrollUp,ScrollDown,Orange.png,4,Positive,Incongruent,,,,,0,0,0,0,,,,,,,,,,,,,,,,,,,,,,,,,0,17,17,17,,,,,,,,,,,,,,,,,,,,,,,,,,,,,,,,,,,,,,,,,,,,,,,,,,,,,,,,,,,,,,,,,,,,,2,1.0794973999727517,566.325994099956,None,ScrollUp,정답입니다,566.325994099956,None,566.325994099956,None,566.325994099956,None,566.325994099956,None,567.2994223999558,None,567.2994223999558,567.8000293000368,,,,,,,,,,,,,,,,002,2022-05-04_16h20.25.260,FishGame,2022.1.1,60.177125340372015,
,19,나를 보내줘,6,Green,A,0,0,ScrollUp,ScrollDown,Green.png,4,NonTarget,NonTarget,,,,,0,0,0,0,,,,,,,,,,,,,,,,,,,,,,,,,0,18,18,18,,,,,,,,,,,,,,,,,,,,,,,,,,,,,,,,,,,,,,,,,,,,,,,,,,,,,,,,,,,,,,,,,,,,,1.858024686574936,1.081240399973467,568.4174606000306,None,ScrollUp,정답입니다,568.4174606000306,None,568.4174606000306,None,568.4174606000306,None,568.4174606000306,None,569.3994132999796,None,569.3994132999796,569.9023286000593,,,,,,,,,,,,,,,,002,2022-05-04_16h20.25.260,FishGame,2022.1.1,60.177125340372015,
,20,넌 의심없어,3,Green,A,4.166666666666667,4.6,ScrollDown,ScrollUp,Green.png,4,Neutral,Neutral,,,,,0,0,0,0,,,,,,,,,,,,,,,,,,,,,,,,,0,19,19,19,,,,,,,,,,,,,,,,,,,,,,,,,,,,,,,,,,,,,,,,,,,,,,,,,,,,,,,,,,,,,,,,,,,,,1.162037044763565,1.1625679999124259,570.519305099966,None,ScrollDown,정답입니다,570.519305099966,None,570.519305099966,None,570.519305099966,None,570.519305099966,None,571.5827153000282,None,571.5827153000282,572.082896900014,,,,,,,,,,,,,,,,002,2022-05-04_16h20.25.260,FishGame,2022.1.1,60.177125340372015,
,21,넌 시시해,4,Green,A,2.666666666666667,2.966666666666667,ScrollDown,ScrollUp,Green.png,4,Negative,Incongruent,,,,,0,0,0,0,,,,,,,,,,,,,,,,,,,,,,,,,0,20,20,20,,,,,,,,,,,,,,,,,,,,,,,,,,,,,,,,,,,,,,,,,,,,,,,,,,,,,,,,,,,,,,,,,,,,,1.0648148159186046,1.058857100084424,572.7087051999988,None,ScrollDown,정답입니다,572.7087051999988,None,572.7087051999988,None,572.7087051999988,None,572.7087051999988,None,573.665999699966,None,573.665999699966,574.1660304999677,,,,,,,,,,,,,,,,002,2022-05-04_16h20.25.260,FishGame,2022.1.1,60.177125340372015,
,22,나를 데려가줘,6,Orange,B,0,0,ScrollDown,ScrollUp,Orange.png,4,NonTarget,NonTarget,,,,,0,0,0,0,,,,,,,,,,,,,,,,,,,,,,,,,0,21,21,21,,,,,,,,,,,,,,,,,,,,,,,,,,,,,,,,,,,,,,,,,,,,,,,,,,,,,,,,,,,,,,,,,,,,,1.0895061641931534,1.2300371000310406,574.7880866000196,None,ScrollDown,정답입니다,574.7880866000196,None,574.7880866000196,None,574.7880866000196,None,574.7880866000196,None,575.91602470004,None,575.91602470004,576.416205400019,,,,,,,,,,,,,,,,002,2022-05-04_16h20.25.260,FishGame,2022.1.1,60.177125340372015,
,23,넌 무정해,5,Green,A,2.5,2.2,ScrollDown,ScrollUp,Green.png,4,Negative,Incongruent,,,,,0,0,0,0,,,,,,,,,,,,,,,,,,,,,,,,,0,22,22,22,,,,,,,,,,,,,,,,,,,,,,,,,,,,,,,,,,,,,,,,,,,,,,,,,,,,,,,,,,,,,,,,,,,,,1.1975308656692505,1.263193399994634,577.0347998000216,None,ScrollDown,정답입니다,577.0347998000216,None,577.0347998000216,None,577.0347998000216,None,577.0347998000216,None,578.1992329000495,None,578.1992329000495,578.7021897999803,,,,,,,,,,,,,,,,002,2022-05-04_16h20.25.260,FishGame,2022.1.1,60.177125340372015,
,24,넌 긍정적이야,1,Orange,B,6.041666666666667,6.066666666666666,ScrollUp,ScrollDown,Orange.png,4,Positive,Incongruent,,,,,0,0,0,0,,,,,,,,,,,,,,,,,,,,,,,,,0,23,23,23,,,,,,,,,,,,,,,,,,,,,,,,,,,,,,,,,,,,,,,,,,,,,,,,,,,,,,,,,,,,,,,,,,,,,2,1.1767019999679178,579.3311055999948,None,ScrollUp,정답입니다,579.3311055999948,None,579.3311055999948,None,579.3311055999948,None,579.3311055999948,None,580.3992091000546,None,580.3992091000546,580.8992512000259,,,,,,,,,,,,,,,,002,2022-05-04_16h20.25.260,FishGame,2022.1.1,60.177125340372015,
,25,나를 보내줘,6,Green,A,0,0,ScrollUp,ScrollDown,Green.png,4,NonTarget,NonTarget,,,,,0,0,0,0,,,,,,,,,,,,,,,,,,,,,,,,,0,24,24,24,,,,,,,,,,,,,,,,,,,,,,,,,,,,,,,,,,,,,,,,,,,,,,,,,,,,,,,,,,,,,,,,,,,,,1.959876557191213,1.214755899971351,581.5250476000365,None,ScrollUp,정답입니다,581.5250476000365,None,581.5250476000365,None,581.5250476000365,None,581.5250476000365,None,582.6325388000114,None,582.6325388000114,583.1328224999597,,,,,,,,,,,,,,,,002,2022-05-04_16h20.25.260,FishGame,2022.1.1,60.177125340372015,
,26,넌 시기심이 많아,5,Orange,B,2.458333333333333,2.233333333333333,ScrollUp,ScrollDown,Orange.png,4,Negative,Congruent,,,,,0,0,0,0,,,,,,,,,,,,,,,,,,,,,,,,,0,25,25,25,,,,,,,,,,,,,,,,,,,,,,,,,,,,,,,,,,,,,,,,,,,,,,,,,,,,,,,,,,,,,,,,,,,,,2,1.1128363000461832,583.7595121000195,None,ScrollUp,정답입니다,583.7595121000195,None,583.7595121000195,None,583.7595121000195,None,583.7595121000195,None,584.765772499959,None,584.765772499959,585.2686059999978,,,,,,,,,,,,,,,,002,2022-05-04_16h20.25.260,FishGame,2022.1.1,60.177125340372015,
,27,넌 탁월해,2,Green,A,5.708333333333334,4.5,ScrollDown,ScrollUp,Green.png,4,Positive,Congruent,,,,,0,0,0,0,,,,,,,,,,,,,,,,,,,,,,,,,0,26,26,26,,,,,,,,,,,,,,,,,,,,,,,,,,,,,,,,,,,,,,,,,,,,,,,,,,,,,,,,,,,,,,,,,,,,,1.200617293516795,1.277248900034465,585.8922364000464,None,ScrollDown,정답입니다,585.8922364000464,None,585.8922364000464,None,585.8922364000464,None,585.8922364000464,None,587.0657371999696,None,587.0657371999696,587.5661862000125,,,,,,,,,,,,,,,,002,2022-05-04_16h20.25.260,FishGame,2022.1.1,60.177125340372015,
,28,나를 데려가줘,6,Orange,B,0,0,ScrollDown,ScrollUp,Orange.png,4,NonTarget,NonTarget,,,,,0,0,0,0,,,,,,,,,,,,,,,,,,,,,,,,,0,27,27,27,,,,,,,,,,,,,,,,,,,,,,,,,,,,,,,,,,,,,,,,,,,,,,,,,,,,,,,,,,,,,,,,,,,,,1.0308642089366913,1.1079853000119328,588.1930869000498,None,ScrollDown,정답입니다,588.1930869000498,None,588.1930869000498,None,588.1930869000498,None,588.1930869000498,None,589.1989599999506,None,589.1989599999506,589.7019864000613,,,,,,,,,,,,,,,,002,2022-05-04_16h20.25.260,FishGame,2022.1.1,60.177125340372015,
,29,넌 조용해,3,Orange,B,4.333333333333333,4.166666666666667,ScrollUp,ScrollDown,Orange.png,4,Neutral,Neutral,,,,,0,0,0,0,,,,,,,,,,,,,,,,,,,,,,,,,0,28,28,28,,,,,,,,,,,,,,,,,,,,,,,,,,,,,,,,,,,,,,,,,,,,,,,,,,,,,,,,,,,,,,,,,,,,,2,1.2481296999612823,590.3206893999595,None,ScrollUp,정답입니다,590.3206893999595,None,590.3206893999595,None,590.3206893999595,None,590.3206893999595,None,591.4657389000058,None,591.4657389000058,591.9656393000623,,,,,,,,,,,,,,,,002,2022-05-04_16h20.25.260,FishGame,2022.1.1,60.177125340372015,
,30,넌 다정해,1,Green,A,5.833333333333334,5.7,ScrollDown,ScrollUp,Green.png,4,Positive,Congruent,,,,,0,0,0,0,,,,,,,,,,,,,,,,,,,,,,,,,0,29,29,29,,,,,,,,,,,,,,,,,,,,,,,,,,,,,,,,,,,,,,,,,,,,,,,,,,,,,,,,,,,,,,,,,,,,,1.1790123482545216,1.0433906000107527,592.5918070999905,None,ScrollDown,정답입니다,592.5918070999905,None,592.5918070999905,None,592.5918070999905,None,592.5918070999905,None,593.5320969000459,None,593.5320969000459,594.0324003000278,,,,,,,,,,,,,,,,002,2022-05-04_16h20.25.260,FishGame,2022.1.1,60.177125340372015,
,31,넌 능력있어,2,Orange,B,6.166666666666666,4.6,ScrollUp,ScrollDown,Orange.png,4,Positive,Incongruent,,,,,0,0,0,0,,,,,,,,,,,,,,,,,,,,,,,,,0,30,30,30,,,,,,,,,,,,,,,,,,,,,,,,,,,,,,,,,,,,,,,,,,,,,,,,,,,,,,,,,,,,,,,,,,,,,2,1.041800200007856,594.6585373999551,None,ScrollUp,정답입니다,594.6585373999551,None,594.6585373999551,None,594.6585373999551,None,594.6585373999551,None,595.5987954000011,None,595.5987954000011,596.1016887000296,,,,,,,,,,,,,,,,002,2022-05-04_16h20.25.260,FishGame,2022.1.1,60.177125340372015,
,32,넌 불쾌해,5,Green,A,2.125,1.933333333333333,ScrollDown,ScrollUp,Green.png,4,Negative,Incongruent,,,,,0,0,0,0,,,,,,,,,,,,,,,,,,,,,,,,,0,31,31,31,,,,,,,,,,,,,,,,,,,,,,,,,,,,,,,,,,,,,,,,,,,,,,,,,,,,,,,,,,,,,,,,,,,,,1.1481481442848842,1.1125667000887915,596.7212591000134,None,ScrollDown,정답입니다,596.7212591000134,None,596.7212591000134,None,596.7212591000134,None,596.7212591000134,None,597.7321241999744,None,597.7321241999744,598.23219660006,,,,,,,,,,,,,,,,002,2022-05-04_16h20.25.260,FishGame,2022.1.1,60.177125340372015,
,33,나를 데려가줘,6,Orange,B,0,0,ScrollDown,ScrollUp,Orange.png,4,NonTarget,NonTarget,,,,,0,0,0,0,,,,,,,,,,,,,,,,,,,,,,,,,0,32,32,32,,,,,,,,,,,,,,,,,,,,,,,,,,,,,,,,,,,,,,,,,,,,,,,,,,,,,,,,,,,,,,,,,,,,,1.162037044763565,1.3111159999389201,598.8591680000536,None,ScrollDown,정답입니다,598.8591680000536,None,598.8591680000536,None,598.8591680000536,None,598.8591680000536,None,600.0683309000451,None,600.0683309000451,600.5654547000304,,,,,,,,,,,,,,,,002,2022-05-04_16h20.25.260,FishGame,2022.1.1,60.177125340372015,
,34,넌 유순해,3,Green,A,4.458333333333333,5,ScrollDown,ScrollUp,Green.png,4,Neutral,Neutral,,,,,0,0,0,0,,,,,,,,,,,,,,,,,,,,,,,,,0,33,33,33,,,,,,,,,,,,,,,,,,,,,,,,,,,,,,,,,,,,,,,,,,,,,,,,,,,,,,,,,,,,,,,,,,,,,1.1836419651905696,1.1628650000784546,601.2048705000198,None,ScrollDown,정답입니다,601.2048705000198,None,601.2048705000198,None,601.2048705000198,None,601.2048705000198,None,602.2654095999897,None,602.2654095999897,602.7683669000398,,,,,,,,,,,,,,,,002,2022-05-04_16h20.25.260,FishGame,2022.1.1,60.177125340372015,
,35,넌 근심스러워,4,Orange,B,2.708333333333333,3.133333333333333,ScrollUp,ScrollDown,Orange.png,4,Negative,Congruent,,,,,0,0,0,0,,,,,,,,,,,,,,,,,,,,,,,,,0,34,34,34,,,,,,,,,,,,,,,,,,,,,,,,,,,,,,,,,,,,,,,,,,,,,,,,,,,,,,,,,,,,,,,,,,,,,1.884259248773257,1.0446726999944076,603.3992505000206,None,ScrollUp,정답입니다,603.3992505000206,None,603.3992505000206,None,603.3992505000206,None,603.3992505000206,None,604.3317250000546,None,604.3317250000546,604.8318542999914,,,,,,,,,,,,,,,,002,2022-05-04_16h20.25.260,FishGame,2022.1.1,60.177125340372015,
,36,넌 세련되었어,2,Green,A,5.5,4.6,ScrollDown,ScrollUp,Green.png,4,Positive,Congruent,,,,,0,0,0,0,,,,,,,,,,,,,,,,,,,,,,,,,0,35,35,35,,,,,,,,,,,,,,,,,,,,,,,,,,,,,,,,,,,,,,,,,,,,,,,,,,,,,,,,,,,,,,,,,,,,,1.1851851791143417,1.0950299999676645,605.4630650000181,None,ScrollDown,정답입니다,605.4630650000181,None,605.4630650000181,None,605.4630650000181,None,605.4630650000181,None,606.4487081000116,None,606.4487081000116,606.9515694000293,,,,,,,,,,,,,,,,002,2022-05-04_16h20.25.260,FishGame,2022.1.1,60.177125340372015,
,37,나를 보내줘,6,Green,A,0,0,ScrollUp,ScrollDown,Green.png,4,NonTarget,NonTarget,,,,,0,0,0,0,,,,,,,,,,,,,,,,,,,,,,,,,0,36,36,36,,,,,,,,,,,,,,,,,,,,,,,,,,,,,,,,,,,,,,,,,,,,,,,,,,,,,,,,,,,,,,,,,,,,,1.7685185273488362,1.075452100019902,607.5800392000237,None,ScrollUp,정답입니다,607.5800392000237,None,607.5800392000237,None,607.5800392000237,None,607.5800392000237,None,608.5486529000336,None,608.5486529000336,609.0515714000212,,,,,,,,,,,,,,,,002,2022-05-04_16h20.25.260,FishGame,2022.1.1,60.177125340372015,
,38,넌 확고해,3,Orange,B,4.708333333333334,4.566666666666666,ScrollUp,ScrollDown,Orange.png,4,Neutral,Neutral,,,,,0,0,0,0,,,,,,,,,,,,,,,,,,,,,,,,,0,37,37,37,,,,,,,,,,,,,,,,,,,,,,,,,,,,,,,,,,,,,,,,,,,,,,,,,,,,,,,,,,,,,,,,,,,,,1.8888888905445735,1.4943991000764072,609.6754688000074,None,ScrollUp,정답입니다,609.6754688000074,None,609.6754688000074,None,609.6754688000074,None,609.6754688000074,None,611.064940799959,None,611.064940799959,611.5650716000237,,,,,,,,,,,,,,,,002,2022-05-04_16h20.25.260,FishGame,2022.1.1,60.177125340372015,
,39,넌 이해심이 많아,1,Orange,B,6.041666666666668,5.533333333333333,ScrollUp,ScrollDown,Orange.png,4,Positive,Incongruent,,,,,0,0,0,0,,,,,,,,,,,,,,,,,,,,,,,,,0,38,38,38,,,,,,,,,,,,,,,,,,,,,,,,,,,,,,,,,,,,,,,,,,,,,,,,,,,,,,,,,,,,,,,,,,,,,1.9537037014961243,1.1100928999949247,612.1905569999944,None,ScrollUp,정답입니다,612.1905569999944,None,612.1905569999944,None,612.1905569999944,None,612.1905569999944,None,613.2013207999989,None,613.2013207999989,613.6985339999665,,,,,,,,,,,,,,,,002,2022-05-04_16h20.25.260,FishGame,2022.1.1,60.177125340372015,
,40,나를 보내줘,6,Green,A,0,0,ScrollUp,ScrollDown,Green.png,4,NonTarget,NonTarget,,,,,0,0,0,0,,,,,,,,,,,,,,,,,,,,,,,,,0,39,39,39,,,,,,,,,,,,,,,,,,,,,,,,,,,,,,,,,,,,,,,,,,,,,,,,,,,,,,,,,,,,,,,,,,,,,2,1.1461591999977827,614.3405790999532,None,ScrollUp,정답입니다,614.3405790999532,None,614.3405790999532,None,614.3405790999532,None,614.3405790999532,None,615.3814891000511,None,615.3814891000511,615.8816096000373,,,,,,,,,,,,,,,,002,2022-05-04_16h20.25.260,FishGame,2022.1.1,60.177125340372015,
,41,넌 거칠어,4,Green,A,2.625,3.033333333333333,ScrollDown,ScrollUp,Green.png,4,Negative,Incongruent,,,,,0,0,0,0,,,,,,,,,,,,,,,,,,,,,,,,,0,40,40,40,,,,,,,,,,,,,,,,,,,,,,,,,,,,,,,,,,,,,,,,,,,,,,,,,,,,,,,,,,,,,,,,,,,,,1.1790123482545216,1.0793317999923602,616.5079483999871,None,ScrollDown,정답입니다,616.5079483999871,None,616.5079483999871,None,616.5079483999871,None,616.5079483999871,None,617.4814781000605,None,617.4814781000605,617.9846705000382,,,,,,,,,,,,,,,,002,2022-05-04_16h20.25.260,FishGame,2022.1.1,60.177125340372015,
,42,넌 변덕맞아,5,Orange,B,2.75,2.166666666666667,ScrollUp,ScrollDown,Orange.png,4,Negative,Congruent,,,,,0,0,0,0,,,,,,,,,,,,,,,,,,,,,,,,,0,41,41,41,,,,,,,,,,,,,,,,,,,,,,,,,,,,,,,,,,,,,,,,,,,,,,,,,,,,,,,,,,,,,,,,,,,,,1.9089506218830745,1.0765241000335664,618.6162494999589,None,ScrollUp,정답입니다,618.6162494999589,None,618.6162494999589,None,618.6162494999589,None,618.6162494999589,None,619.5817630999954,None,619.5817630999954,620.0821086000651,,,,,,,,,,,,,,,,002,2022-05-04_16h20.25.260,FishGame,2022.1.1,60.177125340372015,
,43,나를 데려가줘,6,Orange,B,0,0,ScrollDown,ScrollUp,Orange.png,4,NonTarget,NonTarget,,,,,0,0,0,0,,,,,,,,,,,,,,,,,,,,,,,,,0,42,42,42,,,,,,,,,,,,,,,,,,,,,,,,,,,,,,,,,,,,,,,,,,,,,,,,,,,,,,,,,,,,,,,,,,,,,1.0447530845801036,1.1763171999482438,620.7094773000572,None,ScrollDown,정답입니다,620.7094773000572,None,620.7094773000572,None,620.7094773000572,None,620.7094773000572,None,621.7815824999707,None,621.7815824999707,622.2817106000148,,,,,,,,,,,,,,,,002,2022-05-04_16h20.25.260,FishGame,2022.1.1,60.177125340372015,
,44,넌 외로워,4,Orange,B,2.833333333333333,3.3,ScrollUp,ScrollDown,Orange.png,4,Negative,Congruent,,,,,0,0,0,0,,,,,,,,,,,,,,,,,,,,,,,,,0,43,43,43,,,,,,,,,,,,,,,,,,,,,,,,,,,,,,,,,,,,,,,,,,,,,,,,,,,,,,,,,,,,,,,,,,,,,1.8302469104528427,1.4481408999999985,622.904323900002,None,ScrollUp,정답입니다,622.904323900002,None,622.904323900002,None,622.904323900002,None,622.904323900002,None,624.248280000058,None,624.248280000058,624.7511889999732,,,,,,,,,,,,,,,,002,2022-05-04_16h20.25.260,FishGame,2022.1.1,60.177125340372015,
,1,넌 불평스러워,5,Green,A,2.25,2.066666666666667,ScrollDown,ScrollUp,Green.png,5,Negative,Incongruent,,,,,0,0,0,0,,,,,,,,,,,,,,,,,,,,,,,,,,,,,0,0,0,0,,,,,,,,,,,,,,,,,,,,,,,,656.9341480999719,658.4339578000363,658.4672548000235,659.4338853999507,659.4671428999864,660.4311261000112,660.417119699996,None,,,,,,,,,,,,,,,,,,,,,,,,,,,,,,,,,,1.345679017404715,1.1523304000729695,661.5310373000102,None,ScrollDown,정답입니다,661.5310373000102,None,661.5310373000102,None,661.5310373000102,None,661.5310373000102,None,662.5808145999908,None,662.5808145999908,663.0836861999705,625.2483071000315,None,625.2483071000315,None,0.05185185,-0.11851852,1,0,0,0.015964520047418773,None,655.2474070000462,None,,,002,2022-05-04_16h20.25.260,FishGame,2022.1.1,60.177125340372015,
,2,나를 보내줘,6,Green,A,0,0,ScrollUp,ScrollDown,Green.png,5,NonTarget,NonTarget,,,,,0,0,0,0,,,,,,,,,,,,,,,,,,,,,,,,,,,,,0,1,1,1,,,,,,,,,,,,,,,,,,,,,,,,,,,,,,,,,,,,,,,,,,,,,,,,,,,,,,,,,,,,,,,,,1.9413580397764842,1.143434299970977,663.702041600016,None,ScrollUp,정답입니다,663.702041600016,None,663.702041600016,None,663.702041600016,None,663.702041600016,None,664.7474158999976,None,664.7474158999976,665.247436500038,,,,,,,,,,,,,,,,002,2022-05-04_16h20.25.260,FishGame,2022.1.1,60.177125340372015,
,3,넌 다재다능해,2,Orange,B,6.208333333333333,4.5,ScrollUp,ScrollDown,Orange.png,5,Positive,Incongruent,,,,,0,0,0,0,,,,,,,,,,,,,,,,,,,,,,,,,,,,,0,2,2,2,,,,,,,,,,,,,,,,,,,,,,,,,,,,,,,,,,,,,,,,,,,,,,,,,,,,,,,,,,,,,,,,,1.9953703780968983,1.1793045999947935,665.8740724000381,None,ScrollUp,정답입니다,665.8740724000381,None,665.8740724000381,None,665.8740724000381,None,665.8740724000381,None,666.947376199998,None,666.947376199998,667.4475565999746,,,,,,,,,,,,,,,,002,2022-05-04_16h20.25.260,FishGame,2022.1.1,60.177125340372015,
,4,넌 과감해,3,Green,A,4.833333333333334,4.6,ScrollDown,ScrollUp,Green.png,5,Neutral,Neutral,,,,,0,0,0,0,,,,,,,,,,,,,,,,,,,,,,,,,,,,,0,3,3,3,,,,,,,,,,,,,,,,,,,,,,,,,,,,,,,,,,,,,,,,,,,,,,,,,,,,,,,,,,,,,,,,,1.0848765472571056,1.073880200041458,668.0761206999887,None,ScrollDown,정답입니다,668.0761206999887,None,668.0761206999887,None,668.0761206999887,None,668.0761206999887,None,669.0470133000053,None,669.0470133000053,669.5470932000317,,,,,,,,,,,,,,,,002,2022-05-04_16h20.25.260,FishGame,2022.1.1,60.177125340372015,
,5,넌 고분고분해,3,Orange,B,3.75,4.033333333333333,ScrollUp,ScrollDown,Orange.png,5,Neutral,Neutral,,,,,0,0,0,0,,,,,,,,,,,,,,,,,,,,,,,,,,,,,0,4,4,4,,,,,,,,,,,,,,,,,,,,,,,,,,,,,,,,,,,,,,,,,,,,,,,,,,,,,,,,,,,,,,,,,2,1.045062500052154,670.1737705999985,None,ScrollUp,정답입니다,670.1737705999985,None,670.1737705999985,None,670.1737705999985,None,670.1737705999985,None,671.1139888999751,None,671.1139888999751,671.6168175999774,,,,,,,,,,,,,,,,002,2022-05-04_16h20.25.260,FishGame,2022.1.1,60.177125340372015,
,6,나를 보내줘,6,Green,A,0,0,ScrollUp,ScrollDown,Green.png,5,NonTarget,NonTarget,,,,,0,0,0,0,,,,,,,,,,,,,,,,,,,,,,,,,,,,,0,5,5,5,,,,,,,,,,,,,,,,,,,,,,,,,,,,,,,,,,,,,,,,,,,,,,,,,,,,,,,,,,,,,,,,,2,1.1620003000134602,672.2353499999736,None,ScrollUp,정답입니다,672.2353499999736,None,672.2353499999736,None,672.2353499999736,None,672.2353499999736,None,673.2972789000487,None,673.2972789000487,673.8002362999832,,,,,,,,,,,,,,,,002,2022-05-04_16h20.25.260,FishGame,2022.1.1,60.177125340372015,
,7,넌 잘 잊어,4,Green,A,3,3.7,ScrollDown,ScrollUp,Green.png,5,Negative,Incongruent,,,,,0,0,0,0,,,,,,,,,,,,,,,,,,,,,,,,,,,,,0,6,6,6,,,,,,,,,,,,,,,,,,,,,,,,,,,,,,,,,,,,,,,,,,,,,,,,,,,,,,,,,,,,,,,,,1.0324074228604634,1.2977294999873266,674.4298135000281,None,ScrollDown,정답입니다,674.4298135000281,None,674.4298135000281,None,674.4298135000281,None,674.4298135000281,None,675.6138066999847,None,675.6138066999847,676.1138650999637,,,,,,,,,,,,,,,,002,2022-05-04_16h20.25.260,FishGame,2022.1.1,60.177125340372015,
,8,넌 탐구심이없어,4,Orange,B,2.833333333333333,3.066666666666667,ScrollUp,ScrollDown,Orange.png,5,Negative,Congruent,,,,,0,0,0,0,,,,,,,,,,,,,,,,,,,,,,,,,,,,,0,7,7,7,,,,,,,,,,,,,,,,,,,,,,,,,,,,,,,,,,,,,,,,,,,,,,,,,,,,,,,,,,,,,,,,,1.959876557191213,1.0147799000842497,676.7359108000528,None,ScrollUp,정답입니다,676.7359108000528,None,676.7359108000528,None,676.7359108000528,None,676.7359108000528,None,677.6471487999661,None,677.6471487999661,678.1473436000524,,,,,,,,,,,,,,,,002,2022-05-04_16h20.25.260,FishGame,2022.1.1,60.177125340372015,
,9,나를 데려가줘,6,Orange,B,0,0,ScrollDown,ScrollUp,Orange.png,5,NonTarget,NonTarget,,,,,0,0,0,0,,,,,,,,,,,,,,,,,,,,,,,,,,,,,0,8,8,8,,,,,,,,,,,,,,,,,,,,,,,,,,,,,,,,,,,,,,,,,,,,,,,,,,,,,,,,,,,,,,,,,1.0277777810891469,1.2293200000422075,678.7783700999571,None,ScrollDown,정답입니다,678.7783700999571,None,678.7783700999571,None,678.7783700999571,None,678.7783700999571,None,679.896778000053,None,679.896778000053,680.3968570999568,,,,,,,,,,,,,,,,002,2022-05-04_16h20.25.260,FishGame,2022.1.1,60.177125340372015,
,10,넌 참되어,2,Green,A,6.041666666666664,4.733333333333333,ScrollDown,ScrollUp,Green.png,5,Positive,Congruent,,,,,0,0,0,0,,,,,,,,,,,,,,,,,,,,,,,,,,,,,0,9,9,9,,,,,,,,,,,,,,,,,,,,,,,,,,,,,,,,,,,,,,,,,,,,,,,,,,,,,,,,,,,,,,,,,1.0987654229005177,0.9782482000300661,681.0247831000015,None,ScrollDown,정답입니다,681.0247831000015,None,681.0247831000015,None,681.0247831000015,None,681.0247831000015,None,681.897091699997,None,681.897091699997,682.3974587999983,,,,,,,,,,,,,,,,002,2022-05-04_16h20.25.260,FishGame,2022.1.1,60.177125340372015,
,11,넌 생기있어,1,Orange,B,5.875,5.633333333333334,ScrollUp,ScrollDown,Orange.png,5,Positive,Incongruent,,,,,0,0,0,0,,,,,,,,,,,,,,,,,,,,,,,,,,,,,0,10,10,10,,,,,,,,,,,,,,,,,,,,,,,,,,,,,,,,,,,,,,,,,,,,,,,,,,,,,,,,,,,,,,,,,1.9444444676240284,0.9934356999583542,683.0280851999996,None,ScrollUp,정답입니다,683.0280851999996,None,683.0280851999996,None,683.0280851999996,None,683.0280851999996,None,683.9137150000315,None,683.9137150000315,684.4137122000102,,,,,,,,,,,,,,,,002,2022-05-04_16h20.25.260,FishGame,2022.1.1,60.177125340372015,
,12,넌 비사교적이야,4,Orange,B,2.875,2.9,ScrollUp,ScrollDown,Orange.png,5,Negative,Congruent,,,,,0,0,0,0,,,,,,,,,,,,,,,,,,,,,,,,,,,,,0,11,11,11,,,,,,,,,,,,,,,,,,,,,,,,,,,,,,,,,,,,,,,,,,,,,,,,,,,,,,,,,,,,,,,,,1.7932098756233852,1.3446945999749005,685.0351521000266,None,ScrollUp,정답입니다,685.0351521000266,None,685.0351521000266,None,685.0351521000266,None,685.0351521000266,None,686.2799854000332,None,686.2799854000332,686.7801720000571,,,,,,,,,,,,,,,,002,2022-05-04_16h20.25.260,FishGame,2022.1.1,60.177125340372015,
,13,나를 데려가줘,6,Orange,B,0,0,ScrollDown,ScrollUp,Orange.png,5,NonTarget,NonTarget,,,,,0,0,0,0,,,,,,,,,,,,,,,,,,,,,,,,,,,,,0,12,12,12,,,,,,,,,,,,,,,,,,,,,,,,,,,,,,,,,,,,,,,,,,,,,,,,,,,,,,,,,,,,,,,,,1.162037044763565,1.128855700022541,687.4042554000625,None,ScrollDown,정답입니다,687.4042554000625,None,687.4042554000625,None,687.4042554000625,None,687.4042554000625,None,688.4330792999826,None,688.4330792999826,688.9472128000343,,,,,,,,,,,,,,,,002,2022-05-04_16h20.25.260,FishGame,2022.1.1,60.177125340372015,
,14,넌 고독해,4,Green,A,2.916666666666667,3.233333333333333,ScrollDown,ScrollUp,Green.png,5,Negative,Incongruent,,,,,0,0,0,0,,,,,,,,,,,,,,,,,,,,,,,,,,,,,0,13,13,13,,,,,,,,,,,,,,,,,,,,,,,,,,,,,,,,,,,,,,,,,,,,,,,,,,,,,,,,,,,,,,,,,1.192901223897934,0.8965198999503627,689.571774299955,None,ScrollDown,정답입니다,689.571774299955,None,689.571774299955,None,689.571774299955,None,689.571774299955,None,690.3635606999742,None,690.3635606999742,690.8632044000551,,,,,,,,,,,,,,,,002,2022-05-04_16h20.25.260,FishGame,2022.1.1,60.177125340372015,
,15,넌 신경질적이야,5,Orange,B,2.375,2.233333333333333,ScrollUp,ScrollDown,Orange.png,5,Negative,Congruent,,,,,0,0,0,0,,,,,,,,,,,,,,,,,,,,,,,,,,,,,0,14,14,14,,,,,,,,,,,,,,,,,,,,,,,,,,,,,,,,,,,,,,,,,,,,,,,,,,,,,,,,,,,,,,,,,2,1.0947022000327706,691.4871754000196,None,ScrollUp,정답입니다,691.4871754000196,None,691.4871754000196,None,691.4871754000196,None,691.4871754000196,None,692.4798438999569,None,692.4798438999569,692.9800583999604,,,,,,,,,,,,,,,,002,2022-05-04_16h20.25.260,FishGame,2022.1.1,60.177125340372015,
,16,넌 똑똑해,2,Orange,B,5.666666666666667,3.966666666666667,ScrollUp,ScrollDown,Orange.png,5,Positive,Incongruent,,,,,0,0,0,0,,,,,,,,,,,,,,,,,,,,,,,,,,,,,0,15,15,15,,,,,,,,,,,,,,,,,,,,,,,,,,,,,,,,,,,,,,,,,,,,,,,,,,,,,,,,,,,,,,,,,1.8163580348094304,1.278097299975343,693.61296389997,None,ScrollUp,정답입니다,693.61296389997,None,693.61296389997,None,693.61296389997,None,693.61296389997,None,694.7830230999971,None,694.7830230999971,695.2968068000628,,,,,,,,,,,,,,,,002,2022-05-04_16h20.25.260,FishGame,2022.1.1,60.177125340372015,
,17,나를 보내줘,6,Green,A,0,0,ScrollUp,ScrollDown,Green.png,5,NonTarget,NonTarget,,,,,0,0,0,0,,,,,,,,,,,,,,,,,,,,,,,,,,,,,0,16,16,16,,,,,,,,,,,,,,,,,,,,,,,,,,,,,,,,,,,,,,,,,,,,,,,,,,,,,,,,,,,,,,,,,1.8888888905445735,1.1589313999284059,695.9072079999605,None,ScrollUp,정답입니다,695.9072079999605,None,695.9072079999605,None,695.9072079999605,None,695.9072079999605,None,696.9633171999594,None,696.9633171999594,697.4634000000078,,,,,,,,,,,,,,,,002,2022-05-04_16h20.25.260,FishGame,2022.1.1,60.177125340372015,
,18,넌 협조적이야,1,Green,A,5.625,5.666666666666667,ScrollDown,ScrollUp,Green.png,5,Positive,Congruent,,,,,0,0,0,0,,,,,,,,,,,,,,,,,,,,,,,,,,,,,0,17,17,17,,,,,,,,,,,,,,,,,,,,,,,,,,,,,,,,,,,,,,,,,,,,,,,,,,,,,,,,,,,,,,,,,1.1651234477758408,1.0099093000171706,698.0838234999683,None,ScrollDown,정답입니다,698.0838234999683,None,698.0838234999683,None,698.0838234999683,None,698.0838234999683,None,698.9966685000109,None,698.9966685000109,699.4996513000224,,,,,,,,,,,,,,,,002,2022-05-04_16h20.25.260,FishGame,2022.1.1,60.177125340372015,
,19,나를 데려가줘,6,Orange,B,0,0,ScrollDown,ScrollUp,Orange.png,5,NonTarget,NonTarget,,,,,0,0,0,0,,,,,,,,,,,,,,,,,,,,,,,,,,,,,0,18,18,18,,,,,,,,,,,,,,,,,,,,,,,,,,,,,,,,,,,,,,,,,,,,,,,,,,,,,,,,,,,,,,,,,1.2314814726511638,1.0780828000279143,700.1219353000633,None,ScrollDown,정답입니다,700.1219353000633,None,700.1219353000633,None,700.1219353000633,None,700.1219353000633,None,701.0966872000135,None,701.0966872000135,701.5966503999662,,,,,,,,,,,,,,,,002,2022-05-04_16h20.25.260,FishGame,2022.1.1,60.177125340372015,
,20,넌 몰인정해,5,Orange,B,2.541666666666667,2.066666666666667,ScrollUp,ScrollDown,Orange.png,5,Negative,Congruent,,,,,0,0,0,0,,,,,,,,,,,,,,,,,,,,,,,,,,,,,0,19,19,19,,,,,,,,,,,,,,,,,,,,,,,,,,,,,,,,,,,,,,,,,,,,,,,,,,,,,,,,,,,,,,,,,1.8981481492519379,1.061592899961397,702.2333498999942,None,ScrollUp,정답입니다,702.2333498999942,None,702.2333498999942,None,702.2333498999942,None,702.2333498999942,None,703.1827233999502,None,703.1827233999502,703.6802018999588,,,,,,,,,,,,,,,,002,2022-05-04_16h20.25.260,FishGame,2022.1.1,60.177125340372015,
,21,나를 데려가줘,6,Orange,B,0,0,ScrollDown,ScrollUp,Orange.png,5,NonTarget,NonTarget,,,,,0,0,0,0,,,,,,,,,,,,,,,,,,,,,,,,,,,,,0,20,20,20,,,,,,,,,,,,,,,,,,,,,,,,,,,,,,,,,,,,,,,,,,,,,,,,,,,,,,,,,,,,,,,,,1.2222222139437993,1.1087680000346154,704.307949100039,None,ScrollDown,정답입니다,704.307949100039,None,704.307949100039,None,704.307949100039,None,704.307949100039,None,705.3129167000297,None,705.3129167000297,705.8130270000547,,,,,,,,,,,,,,,,002,2022-05-04_16h20.25.260,FishGame,2022.1.1,60.177125340372015,
