name,TrialNum,Word,WordCategory,FishType,WordList,WordValence,WordReputation,CorrectResp,IncorrectResp,FishTypeFile,Round,WordType,Condition,LoopforOrange.thisRepN,LoopforOrange.thisTrialN,LoopforOrange.thisN,LoopforOrange.thisIndex,OrangeInstLoop.thisRepN,OrangeInstLoop.thisTrialN,OrangeInstLoop.thisN,OrangeInstLoop.thisIndex,OrangePrac.thisRepN,OrangePrac.thisTrialN,OrangePrac.thisN,OrangePrac.thisIndex,temp1.thisRepN,temp1.thisTrialN,temp1.thisN,temp1.thisIndex,OrangeRound1.thisRepN,OrangeRound1.thisTrialN,OrangeRound1.thisN,OrangeRound1.thisIndex,OrangeRound2.thisRepN,OrangeRound2.thisTrialN,OrangeRound2.thisN,OrangeRound2.thisIndex,OrangeRound3.thisRepN,OrangeRound3.thisTrialN,OrangeRound3.thisN,OrangeRound3.thisIndex,OrangeRound4.thisRepN,OrangeRound4.thisTrialN,OrangeRound4.thisN,OrangeRound4.thisIndex,OrangeRound5.thisRepN,OrangeRound5.thisTrialN,OrangeRound5.thisN,OrangeRound5.thisIndex,LoopForGreen.thisRepN,LoopForGreen.thisTrialN,LoopForGreen.thisN,LoopForGreen.thisIndex,text_2.started,text_2.stopped,text_3.started,text_3.stopped,key_resp.keys,key_resp.rt,key_resp.started,key_resp.stopped,PassI_2.started,PassI_2.stopped,PassInst_2.keys,PassInst_2.rt,PassInst_2.started,PassInst_2.stopped,mouse_2.x,mouse_2.y,mouse_2.leftButton,mouse_2.midButton,mouse_2.rightButton,mouse_2.started,mouse_2.stopped,image.started,image.stopped,text_5.started,text_5.stopped,text_6.started,text_6.stopped,text_7.started,text_7.stopped,text_8.started,text_8.stopped,slider_2.response,slider_2.rt,slider_2.started,slider_2.stopped,Response_2,Feedback_2,BackGround_2.started,BackGround_2.stopped,Fish_2.started,Fish_2.stopped,WordBox_2.started,WordBox_2.stopped,Words_2.started,Words_2.stopped,BackGround_Feedback_2.started,BackGround_Feedback_2.stopped,Feedbacks_2.started,Feedbacks_2.stopped,Continue_or_not.keys,Continue_or_not.rt,Continue_or_not.started,Continue_or_not.stopped,image_3.started,image_3.stopped,mouse_3.x,mouse_3.y,mouse_3.leftButton,mouse_3.midButton,mouse_3.rightButton,mouse_3.started,mouse_3.stopped,startmain.started,startmain.stopped,slider.response,slider.rt,slider.started,slider.stopped,Response,Feedback,BackGround.started,BackGround.stopped,Fish.started,Fish.stopped,WordBox.started,WordBox.stopped,Words.started,Words.stopped,BackGround_Feedback.started,BackGround_Feedback.stopped,Feedbacks.started,Feedbacks.stopped,text.started,text.stopped,break_interval.started,break_interval.stopped,mouse.x,mouse.y,mouse.leftButton,mouse.midButton,mouse.rightButton,mouse.started,mouse.stopped,stratnextround.started,stratnextround.stopped,endgame.started,endgame.stopped,participant,date,expName,psychopyVersion,frameRate,
,,,,,,,,,,,,,,,,,,,,,,,,,,,,,,,,,,,,,,,,,,,,,,,,,,,,,,18.580563400057144,None,18.580563400057144,None,space,2.769569500000216,19.064945699996315,None,,,,,,,,,,,,,,,,,,,,,,,,,,,,,,,,,,,,,,,,,,,,,,,,,,,,,,,,,,,,,,,,,,,,,,,,,,,,,,,,,,,,,,,,,,003,2022-05-05_17h55.30.347,FishGame,2022.1.1,60.024441957196174,
물고기과제_instruction(참가자용)OrangeVersion.mp4,,,,,,,,,,,,,,0,0,0,0,0,0,0,0,,,,,,,,,,,,,,,,,,,,,,,,,,,,,,,,,,,,,,,,,100.37985929998104,None,n,7.775211600004695,100.37985929998104,None,,,,,,,,,,,,,,,,,,,,,,,,,,,,,,,,,,,,,,,,,,,,,,,,,,,,,,,,,,,,,,,,,,,,,,,,,,,,,,,,,,,,003,2022-05-05_17h55.30.347,FishGame,2022.1.1,60.024441957196174,
,1,넌 교활해,5,Green,B,2.333333333333333,2.133333333333333,ScrollUp,ScrollDown,Green.png,practice,,,0,0,0,0,,,,,0,0,0,0,0,0,0,0,,,,,,,,,,,,,,,,,,,,,,,,,,,,,,,,,,,,,,,0.13518518,-0.26574075,1,0,0,0.4992195599479601,None,108.17947590001859,None,112.1970214000903,113.69921550003346,113.7295724999858,114.67957350006327,114.73245410004165,115.69918700004928,115.67955000000075,None,2,2.2520250000525266,116.97522560006473,None,ScrollUp,정답입니다,116.97522560006473,None,116.97522560006473,None,116.97522560006473,None,116.97522560006473,None,118.92940070002805,None,118.92940070002805,119.42947900004219,,,,,,,,,,,,,,,,,,,,,,,,,,,,,,,,,,,,,,,,,,,,,,,,,003,2022-05-05_17h55.30.347,FishGame,2022.1.1,60.024441957196174,
,2,넌 슬기로워,2,Orange,A,6.166666666666667,4.1,ScrollDown,ScrollUp,Orange.png,practice,,,0,0,0,0,,,,,0,0,0,0,0,1,1,1,,,,,,,,,,,,,,,,,,,,,,,,,,,,,,,,,,,,,,,,,,,,,,,,,,,,,,,,1,1.110224200063385,120.05795990000479,None,ScrollDown,정답입니다,120.05795990000479,None,120.05795990000479,None,120.05795990000479,None,120.05795990000479,None,121.06268069997896,None,121.06268069997896,121.56550870009232,,,,,,,,,,,,,,,,,,,,,,,,,,,,,,,,,,,,,,,,,,,,,,,,,003,2022-05-05_17h55.30.347,FishGame,2022.1.1,60.024441957196174,
,3,나를 보내줘,6,Orange,A,0,0,ScrollUp,ScrollDown,Orange.png,practice,,,0,0,0,0,,,,,0,0,0,0,0,2,2,2,,,,,,,,,,,,,,,,,,,,,,,,,,,,,,,,,,,,,,,,,,,,,,,,,,,,,,,,1.6620370397965112,1.3762137000449002,122.19407119997777,None,ScrollUp,정답입니다,122.19407119997777,None,122.19407119997777,None,122.19407119997777,None,122.19407119997777,None,123.46235110005364,None,123.46235110005364,123.96243060007691,,,,,,,,,,,,,,,,,,,,,,,,,,,,,,,,,,,,,,,,,,,,,,,,,003,2022-05-05_17h55.30.347,FishGame,2022.1.1,60.024441957196174,
,4,나를 데려가줘,6,Green,B,0,0,ScrollDown,ScrollUp,Green.png,practice,,,0,0,0,0,,,,,0,0,0,0,0,3,3,3,,,,,,,,,,,,,,,,,,,,,,,,,,,,,,,,,,,,,,,,,,,,,,,,,,,,,,,,1,1.2280911999987438,124.5849766000174,None,ScrollDown,정답입니다,124.5849766000174,None,124.5849766000174,None,124.5849766000174,None,124.5849766000174,None,125.71267530007754,None,125.71267530007754,126.2156254000729,,,,,,,,,,,,,,,,,,,,,,,,,,,,,,,,,,,,,,,,,,,,,,,,,003,2022-05-05_17h55.30.347,FishGame,2022.1.1,60.024441957196174,
,1,넌 교활해,5,Green,B,2.333333333333333,2.133333333333333,ScrollUp,ScrollDown,Green.png,practice,,,0,0,0,0,,,,,0,0,0,0,,,,,,,,,,,,,,,,,,,,,,,,,,,,,,,,,,,,,,,,,,,,,,,,,,,,,,,,,,,,,,,,,,,,,,,,,,,,,,n,14.486910099978559,126.71541649999563,None,126.71541649999563,None,,,,,,,,,,,,,,,,,,,,,,,,,,,,,,,,,,,,,,,,,,,003,2022-05-05_17h55.30.347,FishGame,2022.1.1,60.024441957196174,
,1,넌 따뜻해,1,Green,B,6.083333333333333,5.6,ScrollUp,ScrollDown,Green.png,1,Positive,Incongruent,0,0,0,0,,,,,,,,,,,,,0,0,0,0,,,,,,,,,,,,,,,,,,,,,,,,,,,,,,,,,,,,,,,,,,,,142.42872860003263,143.93199050007388,143.96530520007946,144.93194660008885,144.96528160001617,145.92886960005853,145.91221800004132,None,,,,,,,,,,,,,,,,,,,,,,,,,-0.044444446,-0.17314816,1,0,0,0.31376815994735807,None,141.2287340000039,None,2,1.6130799000384286,147.22263940004632,None,ScrollUp,정답입니다,147.22263940004632,None,147.22263940004632,None,147.22263940004632,None,147.22263940004632,None,148.5287595000118,None,148.5287595000118,149.02880780003034,,,,,,,,,,,,,,,,003,2022-05-05_17h55.30.347,FishGame,2022.1.1,60.024441957196174,
,2,넌 기품있어,2,Green,B,5.791666666666668,4.5,ScrollUp,ScrollDown,Green.png,1,Positive,Incongruent,0,0,0,0,,,,,,,,,,,,,0,1,1,1,,,,,,,,,,,,,,,,,,,,,,,,,,,,,,,,,,,,,,,,,,,,,,,,,,,,,,,,,,,,,,,,,,,,,,,,,,,,,,,,,,,,,2,1.143453299999237,149.65863419999368,None,ScrollUp,정답입니다,149.65863419999368,None,149.65863419999368,None,149.65863419999368,None,149.65863419999368,None,150.6954022999853,None,150.6954022999853,151.19529519998468,,,,,,,,,,,,,,,,003,2022-05-05_17h55.30.347,FishGame,2022.1.1,60.024441957196174,
,3,나를 보내줘,6,Orange,A,0,0,ScrollUp,ScrollDown,Orange.png,1,NonTarget,NonTarget,0,0,0,0,,,,,,,,,,,,,0,2,2,2,,,,,,,,,,,,,,,,,,,,,,,,,,,,,,,,,,,,,,,,,,,,,,,,,,,,,,,,,,,,,,,,,,,,,,,,,,,,,,,,,,,,,2,1.160806900006719,151.8368873000145,None,ScrollUp,정답입니다,151.8368873000145,None,151.8368873000145,None,151.8368873000145,None,151.8368873000145,None,152.8784103000071,None,152.8784103000071,153.378472100012,,,,,,,,,,,,,,,,003,2022-05-05_17h55.30.347,FishGame,2022.1.1,60.024441957196174,
,4,넌 수동적이야,4,Orange,A,2.833333333333333,2.933333333333333,ScrollDown,ScrollUp,Orange.png,1,Negative,Incongruent,0,0,0,0,,,,,,,,,,,,,0,3,3,3,,,,,,,,,,,,,,,,,,,,,,,,,,,,,,,,,,,,,,,,,,,,,,,,,,,,,,,,,,,,,,,,,,,,,,,,,,,,,,,,,,,,,1,1.2967500000959262,154.01109939999878,None,ScrollDown,정답입니다,154.01109939999878,None,154.01109939999878,None,154.01109939999878,None,154.01109939999878,None,155.1981259000022,None,155.1981259000022,155.71206980000716,,,,,,,,,,,,,,,,003,2022-05-05_17h55.30.347,FishGame,2022.1.1,60.024441957196174,
,5,넌 사심이 없어,3,Green,B,4.916666666666666,4.333333333333333,ScrollUp,ScrollDown,Green.png,1,Neutral,Neutral,0,0,0,0,,,,,,,,,,,,,0,4,4,4,,,,,,,,,,,,,,,,,,,,,,,,,,,,,,,,,,,,,,,,,,,,,,,,,,,,,,,,,,,,,,,,,,,,,,,,,,,,,,,,,,,,,1.9413580397764842,1.3601381999906152,156.32899890001863,None,ScrollUp,정답입니다,156.32899890001863,None,156.32899890001863,None,156.32899890001863,None,156.32899890001863,None,157.58144019998144,None,157.58144019998144,158.08611050003674,,,,,,,,,,,,,,,,003,2022-05-05_17h55.30.347,FishGame,2022.1.1,60.024441957196174,
,6,넌 헤퍼,5,Orange,A,2.458333333333334,2.233333333333333,ScrollDown,ScrollUp,Orange.png,1,Negative,Incongruent,0,0,0,0,,,,,,,,,,,,,0,5,5,5,,,,,,,,,,,,,,,,,,,,,,,,,,,,,,,,,,,,,,,,,,,,,,,,,,,,,,,,,,,,,,,,,,,,,,,,,,,,,,,,,,,,,1,1.6798336999490857,158.72501629998442,None,ScrollDown,정답입니다,158.72501629998442,None,158.72501629998442,None,158.72501629998442,None,158.72501629998442,None,160.29493520001415,None,160.29493520001415,160.79500899999402,,,,,,,,,,,,,,,,003,2022-05-05_17h55.30.347,FishGame,2022.1.1,60.024441957196174,
,7,넌 말쑥해,3,Orange,A,4.833333333333334,4.333333333333333,ScrollDown,ScrollUp,Orange.png,1,Neutral,Neutral,0,0,0,0,,,,,,,,,,,,,0,6,6,6,,,,,,,,,,,,,,,,,,,,,,,,,,,,,,,,,,,,,,,,,,,,,,,,,,,,,,,,,,,,,,,,,,,,,,,,,,,,,,,,,,,,,1.0185184975465138,1.1083976000081748,161.42918029997963,None,ScrollDown,정답입니다,161.42918029997963,None,161.42918029997963,None,161.42918029997963,None,161.42918029997963,None,162.42854740004987,None,162.42854740004987,162.92854100000113,,,,,,,,,,,,,,,,003,2022-05-05_17h55.30.347,FishGame,2022.1.1,60.024441957196174,
,8,넌 투덜거려,5,Green,B,2.541666666666667,2.266666666666667,ScrollUp,ScrollDown,Green.png,1,Negative,Congruent,0,0,0,0,,,,,,,,,,,,,0,7,7,7,,,,,,,,,,,,,,,,,,,,,,,,,,,,,,,,,,,,,,,,,,,,,,,,,,,,,,,,,,,,,,,,,,,,,,,,,,,,,,,,,,,,,1.7623456716537476,1.0599376999307424,163.5613598000491,None,ScrollUp,정답입니다,163.5613598000491,None,163.5613598000491,None,163.5613598000491,None,163.5613598000491,None,164.5117066000821,None,164.5117066000821,165.01179960009176,,,,,,,,,,,,,,,,003,2022-05-05_17h55.30.347,FishGame,2022.1.1,60.024441957196174,
,9,넌 적극적이야,1,Orange,A,5.708333333333333,5.533333333333333,ScrollDown,ScrollUp,Orange.png,1,Positive,Congruent,0,0,0,0,,,,,,,,,,,,,0,8,8,8,,,,,,,,,,,,,,,,,,,,,,,,,,,,,,,,,,,,,,,,,,,,,,,,,,,,,,,,,,,,,,,,,,,,,,,,,,,,,,,,,,,,,1.016975333293279,1.0601091999560595,165.6442310999846,None,ScrollDown,정답입니다,165.6442310999846,None,165.6442310999846,None,165.6442310999846,None,165.6442310999846,None,166.5950169999851,None,166.5950169999851,167.09510869998485,,,,,,,,,,,,,,,,003,2022-05-05_17h55.30.347,FishGame,2022.1.1,60.024441957196174,
,10,넌 재미없어,4,Green,B,2.625,2.966666666666667,ScrollUp,ScrollDown,Green.png,1,Negative,Congruent,0,0,0,0,,,,,,,,,,,,,0,9,9,9,,,,,,,,,,,,,,,,,,,,,,,,,,,,,,,,,,,,,,,,,,,,,,,,,,,,,,,,,,,,,,,,,,,,,,,,,,,,,,,,,,,,,2,1.044427299988456,167.7289229000453,None,ScrollUp,정답입니다,167.7289229000453,None,167.7289229000453,None,167.7289229000453,None,167.7289229000453,None,168.66172249999363,None,168.66172249999363,169.16463450004812,,,,,,,,,,,,,,,,003,2022-05-05_17h55.30.347,FishGame,2022.1.1,60.024441957196174,
,11,넌 명석해,2,Orange,A,5.875,4.033333333333333,ScrollDown,ScrollUp,Orange.png,1,Positive,Congruent,0,0,0,0,,,,,,,,,,,,,0,10,10,10,,,,,,,,,,,,,,,,,,,,,,,,,,,,,,,,,,,,,,,,,,,,,,,,,,,,,,,,,,,,,,,,,,,,,,,,,,,,,,,,,,,,,1,1.2111947999801487,169.79585920006502,None,ScrollDown,정답입니다,169.79585920006502,None,169.79585920006502,None,169.79585920006502,None,169.79585920006502,None,170.89498440001626,None,170.89498440001626,171.3950584999984,,,,,,,,,,,,,,,,003,2022-05-05_17h55.30.347,FishGame,2022.1.1,60.024441957196174,
,12,나를 데려가줘,6,Green,B,0,0,ScrollDown,ScrollUp,Green.png,1,NonTarget,NonTarget,0,0,0,0,,,,,,,,,,,,,0,11,11,11,,,,,,,,,,,,,,,,,,,,,,,,,,,,,,,,,,,,,,,,,,,,,,,,,,,,,,,,,,,,,,,,,,,,,,,,,,,,,,,,,,,,,1,1.1945551000535488,172.03383149998263,None,ScrollDown,정답입니다,172.03383149998263,None,172.03383149998263,None,172.03383149998263,None,172.03383149998263,None,173.11153750005178,None,173.11153750005178,173.61162510002032,,,,,,,,,,,,,,,,003,2022-05-05_17h55.30.347,FishGame,2022.1.1,60.024441957196174,
,13,넌 소심해,4,Orange,A,3,3.1,ScrollDown,ScrollUp,Orange.png,1,Negative,Incongruent,0,0,0,0,,,,,,,,,,,,,0,12,12,12,,,,,,,,,,,,,,,,,,,,,,,,,,,,,,,,,,,,,,,,,,,,,,,,,,,,,,,,,,,,,,,,,,,,,,,,,,,,,,,,,,,,,1,1.0782492000143975,174.2399715000065,None,ScrollDown,정답입니다,174.2399715000065,None,174.2399715000065,None,174.2399715000065,None,174.2399715000065,None,175.21159010007977,None,175.21159010007977,175.71439259999897,,,,,,,,,,,,,,,,003,2022-05-05_17h55.30.347,FishGame,2022.1.1,60.024441957196174,
,14,넌 합리적이야,2,Orange,A,5.583333333333333,4.733333333333333,ScrollDown,ScrollUp,Orange.png,1,Positive,Congruent,0,0,0,0,,,,,,,,,,,,,0,13,13,13,,,,,,,,,,,,,,,,,,,,,,,,,,,,,,,,,,,,,,,,,,,,,,,,,,,,,,,,,,,,,,,,,,,,,,,,,,,,,,,,,,,,,1,0.9429826999548823,176.3420874000294,None,ScrollDown,정답입니다,176.3420874000294,None,176.3420874000294,None,176.3420874000294,None,176.3420874000294,None,177.18114640004933,None,177.18114640004933,177.69766090007033,,,,,,,,,,,,,,,,003,2022-05-05_17h55.30.347,FishGame,2022.1.1,60.024441957196174,
,15,넌 무자비해,5,Green,B,2.333333333333333,2.1,ScrollUp,ScrollDown,Green.png,1,Negative,Congruent,0,0,0,0,,,,,,,,,,,,,0,14,14,14,,,,,,,,,,,,,,,,,,,,,,,,,,,,,,,,,,,,,,,,,,,,,,,,,,,,,,,,,,,,,,,,,,,,,,,,,,,,,,,,,,,,,1.8919753183921177,1.1911831999896094,178.30934859998524,None,ScrollUp,정답입니다,178.30934859998524,None,178.30934859998524,None,178.30934859998524,None,178.30934859998524,None,179.39478590001818,None,179.39478590001818,179.89481209998485,,,,,,,,,,,,,,,,003,2022-05-05_17h55.30.347,FishGame,2022.1.1,60.024441957196174,
,16,나를 보내줘,6,Orange,A,0,0,ScrollUp,ScrollDown,Orange.png,1,NonTarget,NonTarget,0,0,0,0,,,,,,,,,,,,,0,15,15,15,,,,,,,,,,,,,,,,,,,,,,,,,,,,,,,,,,,,,,,,,,,,,,,,,,,,,,,,,,,,,,,,,,,,,,,,,,,,,,,,,,,,,1.89969136317571,1.3293727999553084,180.52110910008196,None,ScrollUp,정답입니다,180.52110910008196,None,180.52110910008196,None,180.52110910008196,None,180.52110910008196,None,181.7447129000211,None,181.7447129000211,182.2475526999915,,,,,,,,,,,,,,,,003,2022-05-05_17h55.30.347,FishGame,2022.1.1,60.024441957196174,
,17,넌 현실적이야,3,Green,B,4.608695652173913,4.766666666666667,ScrollUp,ScrollDown,Green.png,1,Neutral,Neutral,0,0,0,0,,,,,,,,,,,,,0,16,16,16,,,,,,,,,,,,,,,,,,,,,,,,,,,,,,,,,,,,,,,,,,,,,,,,,,,,,,,,,,,,,,,,,,,,,,,,,,,,,,,,,,,,,1.8225308656692505,1.4444807000691071,182.88195650000125,None,ScrollUp,정답입니다,182.88195650000125,None,182.88195650000125,None,182.88195650000125,None,182.88195650000125,None,184.21136459999252,None,184.21136459999252,184.71423660009168,,,,,,,,,,,,,,,,003,2022-05-05_17h55.30.347,FishGame,2022.1.1,60.024441957196174,
,18,넌 의리있어,1,Green,B,5.833333333333334,5.633333333333334,ScrollUp,ScrollDown,Green.png,1,Positive,Incongruent,0,0,0,0,,,,,,,,,,,,,0,17,17,17,,,,,,,,,,,,,,,,,,,,,,,,,,,,,,,,,,,,,,,,,,,,,,,,,,,,,,,,,,,,,,,,,,,,,,,,,,,,,,,,,,,,,1.8688271592060726,1.0258268000325188,185.34392710006796,None,ScrollUp,정답입니다,185.34392710006796,None,185.34392710006796,None,185.34392710006796,None,185.34392710006796,None,186.26124959997833,None,186.26124959997833,186.76138420007192,,,,,,,,,,,,,,,,003,2022-05-05_17h55.30.347,FishGame,2022.1.1,60.024441957196174,
,19,넌 신경과민이야,5,Orange,A,2.541666666666667,2.166666666666667,ScrollDown,ScrollUp,Orange.png,1,Negative,Incongruent,0,0,0,0,,,,,,,,,,,,,0,18,18,18,,,,,,,,,,,,,,,,,,,,,,,,,,,,,,,,,,,,,,,,,,,,,,,,,,,,,,,,,,,,,,,,,,,,,,,,,,,,,,,,,,,,,1.0709876716136932,0.8777528000064194,187.39570360002108,None,ScrollDown,정답입니다,187.39570360002108,None,187.39570360002108,None,187.39570360002108,None,187.39570360002108,None,188.16124130005483,None,188.16124130005483,188.6614146999782,,,,,,,,,,,,,,,,003,2022-05-05_17h55.30.347,FishGame,2022.1.1,60.024441957196174,
,20,넌 편안해,1,Orange,A,5.916666666666666,5.866666666666666,ScrollDown,ScrollUp,Orange.png,1,Positive,Congruent,0,0,0,0,,,,,,,,,,,,,0,19,19,19,,,,,,,,,,,,,,,,,,,,,,,,,,,,,,,,,,,,,,,,,,,,,,,,,,,,,,,,,,,,,,,,,,,,,,,,,,,,,,,,,,,,,1.0540123681227367,0.9590570000000298,189.2969635000918,None,ScrollDown,정답입니다,189.2969635000918,None,189.2969635000918,None,189.2969635000918,None,189.2969635000918,None,190.14456649997737,None,190.14456649997737,190.6474042000482,,,,,,,,,,,,,,,,003,2022-05-05_17h55.30.347,FishGame,2022.1.1,60.024441957196174,
,21,넌 품위있어,2,Green,B,5.291666666666666,4.466666666666667,ScrollUp,ScrollDown,Green.png,1,Positive,Incongruent,0,0,0,0,,,,,,,,,,,,,0,20,20,20,,,,,,,,,,,,,,,,,,,,,,,,,,,,,,,,,,,,,,,,,,,,,,,,,,,,,,,,,,,,,,,,,,,,,,,,,,,,,,,,,,,,,1.9320987562338512,1.0611196999670938,191.28131250001024,None,ScrollUp,정답입니다,191.28131250001024,None,191.28131250001024,None,191.28131250001024,None,191.28131250001024,None,192.2275728000095,None,192.2275728000095,192.72763820004184,,,,,,,,,,,,,,,,003,2022-05-05_17h55.30.347,FishGame,2022.1.1,60.024441957196174,
,22,넌 빈틈없어,3,Orange,A,4.833333333333333,3.966666666666667,ScrollDown,ScrollUp,Orange.png,1,Neutral,Neutral,0,0,0,0,,,,,,,,,,,,,0,21,21,21,,,,,,,,,,,,,,,,,,,,,,,,,,,,,,,,,,,,,,,,,,,,,,,,,,,,,,,,,,,,,,,,,,,,,,,,,,,,,,,,,,,,,1.1697530895471573,0.8947962999809533,193.36197690002155,None,ScrollDown,정답입니다,193.36197690002155,None,193.36197690002155,None,193.36197690002155,None,193.36197690002155,None,194.14423780003563,None,194.14423780003563,194.6446203000378,,,,,,,,,,,,,,,,003,2022-05-05_17h55.30.347,FishGame,2022.1.1,60.024441957196174,
,23,넌 상상력없어,4,Green,B,2.833333333333333,3.133333333333333,ScrollUp,ScrollDown,Green.png,1,Negative,Congruent,0,0,0,0,,,,,,,,,,,,,0,22,22,22,,,,,,,,,,,,,,,,,,,,,,,,,,,,,,,,,,,,,,,,,,,,,,,,,,,,,,,,,,,,,,,,,,,,,,,,,,,,,,,,,,,,,1.5432098750025034,1.0773821000475436,195.27210469997954,None,NoResponse,무응답입니다,195.27210469997954,None,195.27210469997954,None,195.27210469997954,None,195.27210469997954,None,196.24449180008378,None,196.24449180008378,196.74736660008784,,,,,,,,,,,,,,,,003,2022-05-05_17h55.30.347,FishGame,2022.1.1,60.024441957196174,
,24,넌 지혜로워,2,Green,B,6.333333333333334,4.633333333333334,ScrollUp,ScrollDown,Green.png,1,Positive,Incongruent,0,0,0,0,,,,,,,,,,,,,0,23,23,23,,,,,,,,,,,,,,,,,,,,,,,,,,,,,,,,,,,,,,,,,,,,,,,,,,,,,,,,,,,,,,,,,,,,,,,,,,,,,,,,,,,,,1.7561728407939274,0.9951290999306366,197.3764424000401,None,ScrollUp,정답입니다,197.3764424000401,None,197.3764424000401,None,197.3764424000401,None,197.3764424000401,None,198.2607766999863,None,198.2607766999863,198.7608372999821,,,,,,,,,,,,,,,,003,2022-05-05_17h55.30.347,FishGame,2022.1.1,60.024441957196174,
,25,넌 시끄러워,4,Orange,A,2.833333333333333,3.033333333333333,ScrollDown,ScrollUp,Orange.png,1,Negative,Incongruent,0,0,0,0,,,,,,,,,,,,,0,24,24,24,,,,,,,,,,,,,,,,,,,,,,,,,,,,,,,,,,,,,,,,,,,,,,,,,,,,,,,,,,,,,,,,,,,,,,,,,,,,,,,,,,,,,1,0.978144499938935,199.39396590006072,None,ScrollDown,정답입니다,199.39396590006072,None,199.39396590006072,None,199.39396590006072,None,199.39396590006072,None,200.2610624000663,None,200.2610624000663,200.76390280004125,,,,,,,,,,,,,,,,003,2022-05-05_17h55.30.347,FishGame,2022.1.1,60.024441957196174,
,26,넌 만사태평이야,3,Green,B,4,4.333333333333333,ScrollUp,ScrollDown,Green.png,1,Neutral,Neutral,0,0,0,0,,,,,,,,,,,,,0,25,25,25,,,,,,,,,,,,,,,,,,,,,,,,,,,,,,,,,,,,,,,,,,,,,,,,,,,,,,,,,,,,,,,,,,,,,,,,,,,,,,,,,,,,,1.9984568059444427,1.0087192000355572,201.392041800078,None,ScrollUp,정답입니다,201.392041800078,None,201.392041800078,None,201.392041800078,None,201.392041800078,None,202.2943510999903,None,202.2943510999903,202.79721640003845,,,,,,,,,,,,,,,,003,2022-05-05_17h55.30.347,FishGame,2022.1.1,60.024441957196174,
,27,넌 붙임성있어,1,Orange,A,5.708333333333333,5.633333333333334,ScrollDown,ScrollUp,Orange.png,1,Positive,Congruent,0,0,0,0,,,,,,,,,,,,,0,26,26,26,,,,,,,,,,,,,,,,,,,,,,,,,,,,,,,,,,,,,,,,,,,,,,,,,,,,,,,,,,,,,,,,,,,,,,,,,,,,,,,,,,,,,1,1.0251762999687344,203.4362682000501,None,ScrollDown,정답입니다,203.4362682000501,None,203.4362682000501,None,203.4362682000501,None,203.4362682000501,None,204.34396050008945,None,204.34396050008945,204.84405210008845,,,,,,,,,,,,,,,,003,2022-05-05_17h55.30.347,FishGame,2022.1.1,60.024441957196174,
,28,넌 영리해,2,Orange,A,6,4.033333333333333,ScrollDown,ScrollUp,Orange.png,1,Positive,Congruent,0,0,0,0,,,,,,,,,,,,,0,27,27,27,,,,,,,,,,,,,,,,,,,,,,,,,,,,,,,,,,,,,,,,,,,,,,,,,,,,,,,,,,,,,,,,,,,,,,,,,,,,,,,,,,,,,1.1543209999799728,0.8783663000212982,205.47109110001475,None,ScrollDown,정답입니다,205.47109110001475,None,205.47109110001475,None,205.47109110001475,None,205.47109110001475,None,206.24397190008312,None,206.24397190008312,206.74709100008477,,,,,,,,,,,,,,,,003,2022-05-05_17h55.30.347,FishGame,2022.1.1,60.024441957196174,
,29,넌 열심이야,1,Green,B,6.041666666666667,5.833333333333333,ScrollUp,ScrollDown,Green.png,1,Positive,Incongruent,0,0,0,0,,,,,,,,,,,,,0,28,28,28,,,,,,,,,,,,,,,,,,,,,,,,,,,,,,,,,,,,,,,,,,,,,,,,,,,,,,,,,,,,,,,,,,,,,,,,,,,,,,,,,,,,,1.743827154239019,1.0273523000068963,207.37417269998696,None,ScrollUp,정답입니다,207.37417269998696,None,207.37417269998696,None,207.37417269998696,None,207.37417269998696,None,208.29420890007168,None,208.29420890007168,208.79429670004174,,,,,,,,,,,,,,,,003,2022-05-05_17h55.30.347,FishGame,2022.1.1,60.024441957196174,
,30,넌 인기없어,4,Green,B,3,3.3,ScrollUp,ScrollDown,Green.png,1,Negative,Congruent,0,0,0,0,,,,,,,,,,,,,0,29,29,29,,,,,,,,,,,,,,,,,,,,,,,,,,,,,,,,,,,,,,,,,,,,,,,,,,,,,,,,,,,,,,,,,,,,,,,,,,,,,,,,,,,,,1.7839506169160206,1.24359120009467,209.4251394000603,None,ScrollUp,정답입니다,209.4251394000603,None,209.4251394000603,None,209.4251394000603,None,209.4251394000603,None,210.560486100032,None,210.560486100032,211.06055910000578,,,,,,,,,,,,,,,,003,2022-05-05_17h55.30.347,FishGame,2022.1.1,60.024441957196174,
,31,넌 익살스러워,3,Orange,A,4.708333333333334,4.833333333333333,ScrollDown,ScrollUp,Orange.png,1,Neutral,Neutral,0,0,0,0,,,,,,,,,,,,,0,30,30,30,,,,,,,,,,,,,,,,,,,,,,,,,,,,,,,,,,,,,,,,,,,,,,,,,,,,,,,,,,,,,,,,,,,,,,,,,,,,,,,,,,,,,1,1.0285184999229386,211.6931646000594,None,ScrollDown,정답입니다,211.6931646000594,None,211.6931646000594,None,211.6931646000594,None,211.6931646000594,None,212.6108130000066,None,212.6108130000066,213.1107972000027,,,,,,,,,,,,,,,,003,2022-05-05_17h55.30.347,FishGame,2022.1.1,60.024441957196174,
,32,넌 이기적이야,5,Green,B,2.291666666666667,2.333333333333333,ScrollUp,ScrollDown,Green.png,1,Negative,Congruent,0,0,0,0,,,,,,,,,,,,,0,31,31,31,,,,,,,,,,,,,,,,,,,,,,,,,,,,,,,,,,,,,,,,,,,,,,,,,,,,,,,,,,,,,,,,,,,,,,,,,,,,,,,,,,,,,1.9799382885297139,0.9772598000708967,213.74064640002325,None,ScrollUp,정답입니다,213.74064640002325,None,213.74064640002325,None,213.74064640002325,None,213.74064640002325,None,214.61353440000676,None,214.61353440000676,215.12739849998616,,,,,,,,,,,,,,,,003,2022-05-05_17h55.30.347,FishGame,2022.1.1,60.024441957196174,
,33,나를 데려가줘,6,Green,B,0,0,ScrollDown,ScrollUp,Green.png,1,NonTarget,NonTarget,0,0,0,0,,,,,,,,,,,,,0,32,32,32,,,,,,,,,,,,,,,,,,,,,,,,,,,,,,,,,,,,,,,,,,,,,,,,,,,,,,,,,,,,,,,,,,,,,,,,,,,,,,,,,,,,,1,1.1245901000220329,215.7368218000047,None,ScrollDown,정답입니다,215.7368218000047,None,215.7368218000047,None,215.7368218000047,None,215.7368218000047,None,216.76065120007843,None,216.76065120007843,217.26069230004214,,,,,,,,,,,,,,,,003,2022-05-05_17h55.30.347,FishGame,2022.1.1,60.024441957196174,
,34,넌 기회주의자야,5,Orange,A,2.875,2.133333333333333,ScrollDown,ScrollUp,Orange.png,1,Negative,Incongruent,0,0,0,0,,,,,,,,,,,,,0,33,33,33,,,,,,,,,,,,,,,,,,,,,,,,,,,,,,,,,,,,,,,,,,,,,,,,,,,,,,,,,,,,,,,,,,,,,,,,,,,,,,,,,,,,,1,0.9281395999714732,217.8934014000697,None,ScrollDown,정답입니다,217.8934014000697,None,217.8934014000697,None,217.8934014000697,None,217.8934014000697,None,218.7106840000488,None,218.7106840000488,219.21355650003534,,,,,,,,,,,,,,,,003,2022-05-05_17h55.30.347,FishGame,2022.1.1,60.024441957196174,
,1,넌 미성숙해,4,Orange,A,3,3.2,ScrollDown,ScrollUp,Orange.png,2,Negative,Incongruent,0,0,0,0,,,,,,,,,,,,,,,,,0,0,0,0,,,,,,,,,,,,,,,,,,,,,,,,,,,,,,,,,,,,,,,,250.99343630007934,252.49621350003872,252.52655760000926,253.47947470005602,253.52666350000072,254.48350680002477,254.48350680002477,None,,,,,,,,,,,,,,,,,,,,,,,,,,,,,,,,,,1,1.149990100064315,255.60195829998702,None,ScrollDown,정답입니다,255.60195829998702,None,255.60195829998702,None,255.60195829998702,None,255.60195829998702,None,256.64310870005284,None,256.64310870005284,257.1431815000251,219.71346870006528,None,219.71346870006528,None,0.0009259259,-0.22962964,1,0,0,0.01637615996878594,None,249.72670520003885,None,,,003,2022-05-05_17h55.30.347,FishGame,2022.1.1,60.024441957196174,
,2,넌 반사회적이야,5,Green,B,2.416666666666667,2.033333333333333,ScrollUp,ScrollDown,Green.png,2,Negative,Congruent,0,0,0,0,,,,,,,,,,,,,,,,,0,1,1,1,,,,,,,,,,,,,,,,,,,,,,,,,,,,,,,,,,,,,,,,,,,,,,,,,,,,,,,,,,,,,,,,,,,,,,,,,,,,,,,,,1.9027777661879857,1.0962863999884576,257.7743469000561,None,ScrollUp,정답입니다,257.7743469000561,None,257.7743469000561,None,257.7743469000561,None,257.7743469000561,None,258.7625169000821,None,258.7625169000821,259.259878700017,,,,,,,,,,,,,,,,003,2022-05-05_17h55.30.347,FishGame,2022.1.1,60.024441957196174,
,3,넌 유능해,2,Orange,A,6.208333333333333,4.433333333333334,ScrollDown,ScrollUp,Orange.png,2,Positive,Congruent,0,0,0,0,,,,,,,,,,,,,,,,,0,2,2,2,,,,,,,,,,,,,,,,,,,,,,,,,,,,,,,,,,,,,,,,,,,,,,,,,,,,,,,,,,,,,,,,,,,,,,,,,,,,,,,,,1,0.9614203999517485,259.90261820005253,None,ScrollDown,정답입니다,259.90261820005253,None,259.90261820005253,None,259.90261820005253,None,259.90261820005253,None,260.7594310999848,None,260.7594310999848,261.25950520008337,,,,,,,,,,,,,,,,003,2022-05-05_17h55.30.347,FishGame,2022.1.1,60.024441957196174,
,4,넌 능숙해,2,Green,B,5.666666666666667,4.733333333333333,ScrollUp,ScrollDown,Green.png,2,Positive,Incongruent,0,0,0,0,,,,,,,,,,,,,,,,,0,3,3,3,,,,,,,,,,,,,,,,,,,,,,,,,,,,,,,,,,,,,,,,,,,,,,,,,,,,,,,,,,,,,,,,,,,,,,,,,,,,,,,,,2,0.929235199932009,261.8754466000246,None,ScrollUp,정답입니다,261.8754466000246,None,261.8754466000246,None,261.8754466000246,None,261.8754466000246,None,262.70942119997926,None,262.70942119997926,263.21273270004895,,,,,,,,,,,,,,,,003,2022-05-05_17h55.30.347,FishGame,2022.1.1,60.024441957196174,
,5,넌 진부해,4,Green,B,2.458333333333333,3.166666666666667,ScrollUp,ScrollDown,Green.png,2,Negative,Congruent,0,0,0,0,,,,,,,,,,,,,,,,,0,4,4,4,,,,,,,,,,,,,,,,,,,,,,,,,,,,,,,,,,,,,,,,,,,,,,,,,,,,,,,,,,,,,,,,,,,,,,,,,,,,,,,,,1.703703703979651,1.0458341999910772,263.8337420000462,None,ScrollUp,정답입니다,263.8337420000462,None,263.8337420000462,None,263.8337420000462,None,263.8337420000462,None,264.77910250006244,None,264.77910250006244,265.2791427000193,,,,,,,,,,,,,,,,003,2022-05-05_17h55.30.347,FishGame,2022.1.1,60.024441957196174,
,6,나를 보내줘,6,Orange,A,0,0,ScrollUp,ScrollDown,Orange.png,2,NonTarget,NonTarget,0,0,0,0,,,,,,,,,,,,,,,,,0,5,5,5,,,,,,,,,,,,,,,,,,,,,,,,,,,,,,,,,,,,,,,,,,,,,,,,,,,,,,,,,,,,,,,,,,,,,,,,,,,,,,,,,1.9861110945542653,1.2091617999831215,265.90087900008075,None,ScrollUp,정답입니다,265.90087900008075,None,265.90087900008075,None,265.90087900008075,None,265.90087900008075,None,267.0095778000541,None,267.0095778000541,267.51235430000816,,,,,,,,,,,,,,,,003,2022-05-05_17h55.30.347,FishGame,2022.1.1,60.024441957196174,
,7,넌 엄격해,3,Orange,A,4.166666666666666,4.1,ScrollDown,ScrollUp,Orange.png,2,Neutral,Neutral,0,0,0,0,,,,,,,,,,,,,,,,,0,6,6,6,,,,,,,,,,,,,,,,,,,,,,,,,,,,,,,,,,,,,,,,,,,,,,,,,,,,,,,,,,,,,,,,,,,,,,,,,,,,,,,,,1.0108024775981903,1.1783402999863029,268.13492750003934,None,ScrollDown,정답입니다,268.13492750003934,None,268.13492750003934,None,268.13492750003934,None,268.13492750003934,None,269.2095063000452,None,269.2095063000452,269.71232470008545,,,,,,,,,,,,,,,,003,2022-05-05_17h55.30.347,FishGame,2022.1.1,60.024441957196174,
,8,나를 보내줘,6,Orange,A,0,0,ScrollUp,ScrollDown,Orange.png,2,NonTarget,NonTarget,0,0,0,0,,,,,,,,,,,,,,,,,0,7,7,7,,,,,,,,,,,,,,,,,,,,,,,,,,,,,,,,,,,,,,,,,,,,,,,,,,,,,,,,,,,,,,,,,,,,,,,,,,,,,,,,,1.939814825852712,1.1423566999146715,270.3344033000758,None,ScrollUp,정답입니다,270.3344033000758,None,270.3344033000758,None,270.3344033000758,None,270.3344033000758,None,271.37615430005826,None,271.37615430005826,271.87622830003966,,,,,,,,,,,,,,,,003,2022-05-05_17h55.30.347,FishGame,2022.1.1,60.024441957196174,
,9,넌 대담해,3,Green,B,4.875,4.866666666666666,ScrollUp,ScrollDown,Green.png,2,Neutral,Neutral,0,0,0,0,,,,,,,,,,,,,,,,,0,8,8,8,,,,,,,,,,,,,,,,,,,,,,,,,,,,,,,,,,,,,,,,,,,,,,,,,,,,,,,,,,,,,,,,,,,,,,,,,,,,,,,,,2,1.061307099997066,272.5001703000162,None,ScrollUp,정답입니다,272.5001703000162,None,272.5001703000162,None,272.5001703000162,None,272.5001703000162,None,273.4595226000529,None,273.4595226000529,273.95918970007915,,,,,,,,,,,,,,,,003,2022-05-05_17h55.30.347,FishGame,2022.1.1,60.024441957196174,
,10,넌 꾸준해,1,Orange,A,5.916666666666668,5.8,ScrollDown,ScrollUp,Orange.png,2,Positive,Congruent,0,0,0,0,,,,,,,,,,,,,,,,,0,9,9,9,,,,,,,,,,,,,,,,,,,,,,,,,,,,,,,,,,,,,,,,,,,,,,,,,,,,,,,,,,,,,,,,,,,,,,,,,,,,,,,,,1,0.929708500043489,274.58414699998684,None,ScrollDown,정답입니다,274.58414699998684,None,274.58414699998684,None,274.58414699998684,None,274.58414699998684,None,275.40908970008604,None,275.40908970008604,275.9092394000618,,,,,,,,,,,,,,,,003,2022-05-05_17h55.30.347,FishGame,2022.1.1,60.024441957196174,
,11,나를 데려가줘,6,Green,B,0,0,ScrollDown,ScrollUp,Green.png,2,NonTarget,NonTarget,0,0,0,0,,,,,,,,,,,,,,,,,0,10,10,10,,,,,,,,,,,,,,,,,,,,,,,,,,,,,,,,,,,,,,,,,,,,,,,,,,,,,,,,,,,,,,,,,,,,,,,,,,,,,,,,,1,1.4113840000936761,276.5309409000911,None,ScrollDown,정답입니다,276.5309409000911,None,276.5309409000911,None,276.5309409000911,None,276.5309409000911,None,277.84272770001553,None,277.84272770001553,278.34552630002145,,,,,,,,,,,,,,,,003,2022-05-05_17h55.30.347,FishGame,2022.1.1,60.024441957196174,
,12,넌 독선적이야,5,Orange,A,2.458333333333333,1.933333333333333,ScrollDown,ScrollUp,Orange.png,2,Negative,Incongruent,0,0,0,0,,,,,,,,,,,,,,,,,0,11,11,11,,,,,,,,,,,,,,,,,,,,,,,,,,,,,,,,,,,,,,,,,,,,,,,,,,,,,,,,,,,,,,,,,,,,,,,,,,,,,,,,,1.0895061641931534,1.1766695000696927,278.9708762000082,None,ScrollDown,정답입니다,278.9708762000082,None,278.9708762000082,None,278.9708762000082,None,278.9708762000082,None,280.04265529999975,None,280.04265529999975,280.5426969000837,,,,,,,,,,,,,,,,003,2022-05-05_17h55.30.347,FishGame,2022.1.1,60.024441957196174,
,13,나를 보내줘,6,Orange,A,0,0,ScrollUp,ScrollDown,Orange.png,2,NonTarget,NonTarget,0,0,0,0,,,,,,,,,,,,,,,,,0,12,12,12,,,,,,,,,,,,,,,,,,,,,,,,,,,,,,,,,,,,,,,,,,,,,,,,,,,,,,,,,,,,,,,,,,,,,,,,,,,,,,,,,1.743827154239019,1.0408920000772923,281.17455760005396,None,ScrollUp,정답입니다,281.17455760005396,None,281.17455760005396,None,281.17455760005396,None,281.17455760005396,None,282.1090144000482,None,282.1090144000482,282.60904090001713,,,,,,,,,,,,,,,,003,2022-05-05_17h55.30.347,FishGame,2022.1.1,60.024441957196174,
,14,넌 책임감있어,1,Green,B,6.347826086956522,6,ScrollUp,ScrollDown,Green.png,2,Positive,Incongruent,0,0,0,0,,,,,,,,,,,,,,,,,0,13,13,13,,,,,,,,,,,,,,,,,,,,,,,,,,,,,,,,,,,,,,,,,,,,,,,,,,,,,,,,,,,,,,,,,,,,,,,,,,,,,,,,,1.9861110945542653,1.0618769000284374,283.2352244000649,None,ScrollUp,정답입니다,283.2352244000649,None,283.2352244000649,None,283.2352244000649,None,283.2352244000649,None,284.19244230003096,None,284.19244230003096,284.6926577000413,,,,,,,,,,,,,,,,003,2022-05-05_17h55.30.347,FishGame,2022.1.1,60.024441957196174,
,15,넌 문학적이야,3,Orange,A,4.708333333333334,4.333333333333333,ScrollDown,ScrollUp,Orange.png,2,Neutral,Neutral,0,0,0,0,,,,,,,,,,,,,,,,,0,14,14,14,,,,,,,,,,,,,,,,,,,,,,,,,,,,,,,,,,,,,,,,,,,,,,,,,,,,,,,,,,,,,,,,,,,,,,,,,,,,,,,,,1,1.175463099963963,285.32293150003534,None,ScrollDown,정답입니다,285.32293150003534,None,285.32293150003534,None,285.32293150003534,None,285.32293150003534,None,286.3925574000459,None,286.3925574000459,286.8925854000263,,,,,,,,,,,,,,,,003,2022-05-05_17h55.30.347,FishGame,2022.1.1,60.024441957196174,
,16,넌 재미있어,1,Green,B,5.875,5.7,ScrollUp,ScrollDown,Green.png,2,Positive,Incongruent,0,0,0,0,,,,,,,,,,,,,,,,,0,15,15,15,,,,,,,,,,,,,,,,,,,,,,,,,,,,,,,,,,,,,,,,,,,,,,,,,,,,,,,,,,,,,,,,,,,,,,,,,,,,,,,,,1.8503086417913437,1.1767278000479564,287.5188652999932,None,ScrollUp,정답입니다,287.5188652999932,None,287.5188652999932,None,287.5188652999932,None,287.5188652999932,None,288.59242750005797,None,288.59242750005797,289.09250080003403,,,,,,,,,,,,,,,,003,2022-05-05_17h55.30.347,FishGame,2022.1.1,60.024441957196174,
,17,나를 데려가줘,6,Green,B,0,0,ScrollDown,ScrollUp,Green.png,2,NonTarget,NonTarget,0,0,0,0,,,,,,,,,,,,,,,,,0,16,16,16,,,,,,,,,,,,,,,,,,,,,,,,,,,,,,,,,,,,,,,,,,,,,,,,,,,,,,,,,,,,,,,,,,,,,,,,,,,,,,,,,1,1.075641900068149,289.71643720008433,None,ScrollDown,정답입니다,289.71643720008433,None,289.71643720008433,None,289.71643720008433,None,289.71643720008433,None,290.6924720000243,None,290.6924720000243,291.19248600001447,,,,,,,,,,,,,,,,003,2022-05-05_17h55.30.347,FishGame,2022.1.1,60.024441957196174,
,18,넌 협력적이야,1,Orange,A,5.625,5.633333333333334,ScrollDown,ScrollUp,Orange.png,2,Positive,Congruent,0,0,0,0,,,,,,,,,,,,,,,,,0,17,17,17,,,,,,,,,,,,,,,,,,,,,,,,,,,,,,,,,,,,,,,,,,,,,,,,,,,,,,,,,,,,,,,,,,,,,,,,,,,,,,,,,1,1.0164376000175253,291.81360390002374,None,ScrollDown,정답입니다,291.81360390002374,None,291.81360390002374,None,291.81360390002374,None,291.81360390002374,None,292.72539969999343,None,292.72539969999343,293.22547140007373,,,,,,,,,,,,,,,,003,2022-05-05_17h55.30.347,FishGame,2022.1.1,60.024441957196174,
,19,넌 평범해,3,Green,B,4.333333333333332,4.233333333333333,ScrollUp,ScrollDown,Green.png,2,Neutral,Neutral,0,0,0,0,,,,,,,,,,,,,,,,,0,18,18,18,,,,,,,,,,,,,,,,,,,,,,,,,,,,,,,,,,,,,,,,,,,,,,,,,,,,,,,,,,,,,,,,,,,,,,,,,,,,,,,,,2,0.9781702000182122,293.8507899000542,None,ScrollUp,정답입니다,293.8507899000542,None,293.8507899000542,None,293.8507899000542,None,293.8507899000542,None,294.72541850002017,None,294.72541850002017,295.2285174999852,,,,,,,,,,,,,,,,003,2022-05-05_17h55.30.347,FishGame,2022.1.1,60.024441957196174,
,20,넌 오만해,5,Orange,A,2.333333333333333,2,ScrollDown,ScrollUp,Orange.png,2,Negative,Incongruent,0,0,0,0,,,,,,,,,,,,,,,,,0,19,19,19,,,,,,,,,,,,,,,,,,,,,,,,,,,,,,,,,,,,,,,,,,,,,,,,,,,,,,,,,,,,,,,,,,,,,,,,,,,,,,,,,1,0.9938460000557825,295.8550006999867,None,ScrollDown,정답입니다,295.8550006999867,None,295.8550006999867,None,295.8550006999867,None,295.8550006999867,None,296.7451194000896,None,296.7451194000896,297.2424437000882,,,,,,,,,,,,,,,,003,2022-05-05_17h55.30.347,FishGame,2022.1.1,60.024441957196174,
,21,넌 운이없어,4,Green,B,3,3.466666666666667,ScrollUp,ScrollDown,Green.png,2,Negative,Congruent,0,0,0,0,,,,,,,,,,,,,,,,,0,20,20,20,,,,,,,,,,,,,,,,,,,,,,,,,,,,,,,,,,,,,,,,,,,,,,,,,,,,,,,,,,,,,,,,,,,,,,,,,,,,,,,,,1.7824074029922485,0.9740896999137476,297.8731923000887,None,ScrollUp,정답입니다,297.8731923000887,None,297.8731923000887,None,297.8731923000887,None,297.8731923000887,None,298.74193720007315,None,298.74193720007315,299.2420059000142,,,,,,,,,,,,,,,,003,2022-05-05_17h55.30.347,FishGame,2022.1.1,60.024441957196174,
,22,넌 창조적이야,2,Green,B,6.125,4.633333333333334,ScrollUp,ScrollDown,Green.png,2,Positive,Incongruent,0,0,0,0,,,,,,,,,,,,,,,,,0,21,21,21,,,,,,,,,,,,,,,,,,,,,,,,,,,,,,,,,,,,,,,,,,,,,,,,,,,,,,,,,,,,,,,,,,,,,,,,,,,,,,,,,1.68364197264115,1.1947188000194728,299.8668972000014,None,ScrollUp,정답입니다,299.8668972000014,None,299.8668972000014,None,299.8668972000014,None,299.8668972000014,None,300.9618567000143,None,300.9618567000143,301.47564990003593,,,,,,,,,,,,,,,,003,2022-05-05_17h55.30.347,FishGame,2022.1.1,60.024441957196174,
,23,나를 보내줘,6,Orange,A,0,0,ScrollUp,ScrollDown,Orange.png,2,NonTarget,NonTarget,0,0,0,0,,,,,,,,,,,,,,,,,0,22,22,22,,,,,,,,,,,,,,,,,,,,,,,,,,,,,,,,,,,,,,,,,,,,,,,,,,,,,,,,,,,,,,,,,,,,,,,,,,,,,,,,,1.9506172736485798,1.143605799996294,302.0822000000626,None,ScrollUp,정답입니다,302.0822000000626,None,302.0822000000626,None,302.0822000000626,None,302.0822000000626,None,303.12847770005465,None,303.12847770005465,303.6422496000305,,,,,,,,,,,,,,,,003,2022-05-05_17h55.30.347,FishGame,2022.1.1,60.024441957196174,
,24,넌 통찰력있어,2,Orange,A,6.5,4.8,ScrollDown,ScrollUp,Orange.png,2,Positive,Congruent,0,0,0,0,,,,,,,,,,,,,,,,,0,23,23,23,,,,,,,,,,,,,,,,,,,,,,,,,,,,,,,,,,,,,,,,,,,,,,,,,,,,,,,,,,,,,,,,,,,,,,,,,,,,,,,,,1,0.9753322000615299,304.2574900999898,None,ScrollDown,정답입니다,304.2574900999898,None,304.2574900999898,None,304.2574900999898,None,304.2574900999898,None,305.1254758000141,None,305.1254758000141,305.62545679998584,,,,,,,,,,,,,,,,003,2022-05-05_17h55.30.347,FishGame,2022.1.1,60.024441957196174,
,25,넌 경솔해,5,Green,B,2.458333333333333,2.266666666666667,ScrollUp,ScrollDown,Green.png,2,Negative,Congruent,0,0,0,0,,,,,,,,,,,,,,,,,0,24,24,24,,,,,,,,,,,,,,,,,,,,,,,,,,,,,,,,,,,,,,,,,,,,,,,,,,,,,,,,,,,,,,,,,,,,,,,,,,,,,,,,,1.9521604875723522,0.9267394000198692,306.2490598000586,None,ScrollUp,정답입니다,306.2490598000586,None,306.2490598000586,None,306.2490598000586,None,306.2490598000586,None,307.0753675000742,None,307.0753675000742,307.57822790008504,,,,,,,,,,,,,,,,003,2022-05-05_17h55.30.347,FishGame,2022.1.1,60.024441957196174,
,26,넌 초조해,4,Orange,A,2.916666666666667,3.133333333333333,ScrollDown,ScrollUp,Orange.png,2,Negative,Incongruent,0,0,0,0,,,,,,,,,,,,,,,,,0,25,25,25,,,,,,,,,,,,,,,,,,,,,,,,,,,,,,,,,,,,,,,,,,,,,,,,,,,,,,,,,,,,,,,,,,,,,,,,,,,,,,,,,1,1.0112526000011712,308.2046944000758,None,ScrollDown,정답입니다,308.2046944000758,None,308.2046944000758,None,308.2046944000758,None,308.2046944000758,None,309.108681700076,None,309.108681700076,309.6087197000161,,,,,,,,,,,,,,,,003,2022-05-05_17h55.30.347,FishGame,2022.1.1,60.024441957196174,
,27,넌 무관심해,4,Green,B,2.833333333333333,2.9,ScrollUp,ScrollDown,Green.png,2,Negative,Congruent,0,0,0,0,,,,,,,,,,,,,,,,,0,26,26,26,,,,,,,,,,,,,,,,,,,,,,,,,,,,,,,,,,,,,,,,,,,,,,,,,,,,,,,,,,,,,,,,,,,,,,,,,,,,,,,,,1.7685185273488362,1.1114028000738472,310.2348699000431,None,ScrollUp,정답입니다,310.2348699000431,None,310.2348699000431,None,310.2348699000431,None,310.2348699000431,None,311.24199570005294,None,311.24199570005294,311.74175300006755,,,,,,,,,,,,,,,,003,2022-05-05_17h55.30.347,FishGame,2022.1.1,60.024441957196174,
,28,넌 감성적이야,3,Green,B,4.125,4.166666666666667,ScrollUp,ScrollDown,Green.png,2,Neutral,Neutral,0,0,0,0,,,,,,,,,,,,,,,,,0,27,27,27,,,,,,,,,,,,,,,,,,,,,,,,,,,,,,,,,,,,,,,,,,,,,,,,,,,,,,,,,,,,,,,,,,,,,,,,,,,,,,,,,1.9120370248953502,1.06148909998592,312.362215799978,None,ScrollUp,정답입니다,312.362215799978,None,312.362215799978,None,312.362215799978,None,312.362215799978,None,313.32496510003693,None,313.32496510003693,313.82509470009245,,,,,,,,,,,,,,,,003,2022-05-05_17h55.30.347,FishGame,2022.1.1,60.024441957196174,
,29,넌 배려심있어,1,Orange,A,6.083333333333333,5.5,ScrollDown,ScrollUp,Orange.png,2,Positive,Congruent,0,0,0,0,,,,,,,,,,,,,,,,,0,28,28,28,,,,,,,,,,,,,,,,,,,,,,,,,,,,,,,,,,,,,,,,,,,,,,,,,,,,,,,,,,,,,,,,,,,,,,,,,,,,,,,,,1.0262345671653748,1.2251461999258026,314.4553628000431,None,ScrollDown,정답입니다,314.4553628000431,None,314.4553628000431,None,314.4553628000431,None,314.4553628000431,None,315.5780071000336,None,315.5780071000336,316.0919619000051,,,,,,,,,,,,,,,,003,2022-05-05_17h55.30.347,FishGame,2022.1.1,60.024441957196174,
,30,넌 숨김없어,3,Orange,A,4.5,4.933333333333334,ScrollDown,ScrollUp,Orange.png,2,Neutral,Neutral,0,0,0,0,,,,,,,,,,,,,,,,,0,29,29,29,,,,,,,,,,,,,,,,,,,,,,,,,,,,,,,,,,,,,,,,,,,,,,,,,,,,,,,,,,,,,,,,,,,,,,,,,,,,,,,,,1,0.9586986000649631,316.7057923000539,None,ScrollDown,정답입니다,316.7057923000539,None,316.7057923000539,None,316.7057923000539,None,316.7057923000539,None,317.55843169998843,None,317.55843169998843,318.0585188000696,,,,,,,,,,,,,,,,003,2022-05-05_17h55.30.347,FishGame,2022.1.1,60.024441957196174,
,31,넌 훌륭해,2,Green,B,5.916666666666667,4.033333333333333,ScrollUp,ScrollDown,Green.png,2,Positive,Incongruent,0,0,0,0,,,,,,,,,,,,,,,,,0,30,30,30,,,,,,,,,,,,,,,,,,,,,,,,,,,,,,,,,,,,,,,,,,,,,,,,,,,,,,,,,,,,,,,,,,,,,,,,,,,,,,,,,2,0.9443239000393078,318.6829229000723,None,ScrollUp,정답입니다,318.6829229000723,None,318.6829229000723,None,318.6829229000723,None,318.6829229000723,None,319.5250699000899,None,319.5250699000899,320.0279179000063,,,,,,,,,,,,,,,,003,2022-05-05_17h55.30.347,FishGame,2022.1.1,60.024441957196174,
,32,넌 슬기로워,2,Orange,A,6.166666666666667,4.1,ScrollDown,ScrollUp,Orange.png,2,Positive,Congruent,0,0,0,0,,,,,,,,,,,,,,,,,0,31,31,31,,,,,,,,,,,,,,,,,,,,,,,,,,,,,,,,,,,,,,,,,,,,,,,,,,,,,,,,,,,,,,,,,,,,,,,,,,,,,,,,,1,0.9628535999218002,320.65569100005087,None,ScrollDown,정답입니다,320.65569100005087,None,320.65569100005087,None,320.65569100005087,None,320.65569100005087,None,321.5083962000208,None,321.5083962000208,322.0084865000099,,,,,,,,,,,,,,,,003,2022-05-05_17h55.30.347,FishGame,2022.1.1,60.024441957196174,
,33,넌 냉혹해,5,Orange,A,2.583333333333333,2.1,ScrollDown,ScrollUp,Orange.png,2,Negative,Incongruent,0,0,0,0,,,,,,,,,,,,,,,,,0,32,32,32,,,,,,,,,,,,,,,,,,,,,,,,,,,,,,,,,,,,,,,,,,,,,,,,,,,,,,,,,,,,,,,,,,,,,,,,,,,,,,,,,1,0.9933652998879552,322.6350292999996,None,ScrollDown,정답입니다,322.6350292999996,None,322.6350292999996,None,322.6350292999996,None,322.6350292999996,None,323.5250575999962,None,323.5250575999962,324.0251307000872,,,,,,,,,,,,,,,,003,2022-05-05_17h55.30.347,FishGame,2022.1.1,60.024441957196174,
,34,나를 데려가줘,6,Green,B,0,0,ScrollDown,ScrollUp,Green.png,2,NonTarget,NonTarget,0,0,0,0,,,,,,,,,,,,,,,,,0,33,33,33,,,,,,,,,,,,,,,,,,,,,,,,,,,,,,,,,,,,,,,,,,,,,,,,,,,,,,,,,,,,,,,,,,,,,,,,,,,,,,,,,1,1.1925379000604153,324.6498545000795,None,ScrollDown,정답입니다,324.6498545000795,None,324.6498545000795,None,324.6498545000795,None,324.6498545000795,None,325.74137010006234,None,325.74137010006234,326.2414292000467,,,,,,,,,,,,,,,,003,2022-05-05_17h55.30.347,FishGame,2022.1.1,60.024441957196174,
,35,넌 편파적이야,5,Green,B,2.125,2,ScrollUp,ScrollDown,Green.png,2,Negative,Congruent,0,0,0,0,,,,,,,,,,,,,,,,,0,34,34,34,,,,,,,,,,,,,,,,,,,,,,,,,,,,,,,,,,,,,,,,,,,,,,,,,,,,,,,,,,,,,,,,,,,,,,,,,,,,,,,,,1.9182098805904388,0.9279372999444604,326.87415100005455,None,ScrollUp,정답입니다,326.87415100005455,None,326.87415100005455,None,326.87415100005455,None,326.87415100005455,None,327.6945257000625,None,327.6945257000625,328.21110040007625,,,,,,,,,,,,,,,,003,2022-05-05_17h55.30.347,FishGame,2022.1.1,60.024441957196174,
,36,넌 슬퍼,4,Orange,A,2.583333333333333,3.066666666666667,ScrollDown,ScrollUp,Orange.png,2,Negative,Incongruent,0,0,0,0,,,,,,,,,,,,,,,,,0,35,35,35,,,,,,,,,,,,,,,,,,,,,,,,,,,,,,,,,,,,,,,,,,,,,,,,,,,,,,,,,,,,,,,,,,,,,,,,,,,,,,,,,1.0216049253940582,0.9436600999906659,328.82065360003617,None,ScrollDown,정답입니다,328.82065360003617,None,328.82065360003617,None,328.82065360003617,None,328.82065360003617,None,329.6583072000649,None,329.6583072000649,330.1582812999841,,,,,,,,,,,,,,,,003,2022-05-05_17h55.30.347,FishGame,2022.1.1,60.024441957196174,
,37,나를 데려가줘,6,Green,B,0,0,ScrollDown,ScrollUp,Green.png,2,NonTarget,NonTarget,0,0,0,0,,,,,,,,,,,,,,,,,0,36,36,36,,,,,,,,,,,,,,,,,,,,,,,,,,,,,,,,,,,,,,,,,,,,,,,,,,,,,,,,,,,,,,,,,,,,,,,,,,,,,,,,,1.0586419602235158,1.1445309000555426,330.7804363000905,None,ScrollDown,정답입니다,330.7804363000905,None,330.7804363000905,None,330.7804363000905,None,330.7804363000905,None,331.82457130006514,None,331.82457130006514,332.32464480004273,,,,,,,,,,,,,,,,003,2022-05-05_17h55.30.347,FishGame,2022.1.1,60.024441957196174,
,38,넌 친절해,1,Green,B,6.041666666666667,5.533333333333333,ScrollUp,ScrollDown,Green.png,2,Positive,Incongruent,0,0,0,0,,,,,,,,,,,,,,,,,0,37,37,37,,,,,,,,,,,,,,,,,,,,,,,,,,,,,,,,,,,,,,,,,,,,,,,,,,,,,,,,,,,,,,,,,,,,,,,,,,,,,,,,,1.7422839403152466,0.9782528999494389,332.94995749997906,None,ScrollUp,정답입니다,332.94995749997906,None,332.94995749997906,None,332.94995749997906,None,332.94995749997906,None,333.827640100033,None,333.827640100033,334.34157480008435,,,,,,,,,,,,,,,,003,2022-05-05_17h55.30.347,FishGame,2022.1.1,60.024441957196174,
,1,넌 엉성해,4,Orange,A,3,3.3,ScrollDown,ScrollUp,Orange.png,3,Negative,Incongruent,0,0,0,0,,,,,,,,,,,,,,,,,,,,,0,0,0,0,,,,,,,,,,,,,,,,,,,,,,,,,,,,,,,,,,,,365.90766440005973,367.4075118000619,367.4437738000415,368.40749440004583,368.44384000007994,369.3907494000159,369.3907494000159,None,,,,,,,,,,,,,,,,,,,,,,,,,,,,,,,,,,1,1.180002300068736,370.49746540002525,None,ScrollDown,정답입니다,370.49746540002525,None,370.49746540002525,None,370.49746540002525,None,370.49746540002525,None,371.57396900001913,None,371.57396900001913,372.07403860008344,334.8276979000075,None,334.8276979000075,None,-0.011111111,-0.24722221,1,0,0,0.016481260070577264,None,364.8409627000801,None,,,003,2022-05-05_17h55.30.347,FishGame,2022.1.1,60.024441957196174,
,2,나를 보내줘,6,Orange,A,0,0,ScrollUp,ScrollDown,Orange.png,3,NonTarget,NonTarget,0,0,0,0,,,,,,,,,,,,,,,,,,,,,0,1,1,1,,,,,,,,,,,,,,,,,,,,,,,,,,,,,,,,,,,,,,,,,,,,,,,,,,,,,,,,,,,,,,,,,,,,,,,,,,,,,2,1.0111213000491261,372.69782280002255,None,ScrollUp,정답입니다,372.69782280002255,None,372.69782280002255,None,372.69782280002255,None,372.69782280002255,None,373.60733120003715,None,373.60733120003715,374.1073580000084,,,,,,,,,,,,,,,,003,2022-05-05_17h55.30.347,FishGame,2022.1.1,60.024441957196174,
,3,넌 활발해,1,Green,B,5.666666666666667,5.6,ScrollUp,ScrollDown,Green.png,3,Positive,Incongruent,0,0,0,0,,,,,,,,,,,,,,,,,,,,,0,2,2,2,,,,,,,,,,,,,,,,,,,,,,,,,,,,,,,,,,,,,,,,,,,,,,,,,,,,,,,,,,,,,,,,,,,,,,,,,,,,,2,0.9281511000590399,374.73489000007976,None,ScrollUp,정답입니다,374.73489000007976,None,374.73489000007976,None,374.73489000007976,None,374.73489000007976,None,375.55726819997653,None,375.55726819997653,376.0573076000437,,,,,,,,,,,,,,,,003,2022-05-05_17h55.30.347,FishGame,2022.1.1,60.024441957196174,
,4,넌 논리적이야,2,Orange,A,5.666666666666666,4.633333333333334,ScrollDown,ScrollUp,Orange.png,3,Positive,Congruent,0,0,0,0,,,,,,,,,,,,,,,,,,,,,0,3,3,3,,,,,,,,,,,,,,,,,,,,,,,,,,,,,,,,,,,,,,,,,,,,,,,,,,,,,,,,,,,,,,,,,,,,,,,,,,,,,1,1.1122570000588894,376.69167440000456,None,ScrollDown,정답입니다,376.69167440000456,None,376.69167440000456,None,376.69167440000456,None,376.69167440000456,None,377.6902189999819,None,377.6902189999819,378.19032880000304,,,,,,,,,,,,,,,,003,2022-05-05_17h55.30.347,FishGame,2022.1.1,60.024441957196174,
,5,넌 과묵해,3,Orange,A,3.875,4.4,ScrollDown,ScrollUp,Orange.png,3,Neutral,Neutral,0,0,0,0,,,,,,,,,,,,,,,,,,,,,0,4,4,4,,,,,,,,,,,,,,,,,,,,,,,,,,,,,,,,,,,,,,,,,,,,,,,,,,,,,,,,,,,,,,,,,,,,,,,,,,,,,1.0925925920406978,1.0452920000534505,378.8154260000447,None,ScrollDown,정답입니다,378.8154260000447,None,378.8154260000447,None,378.8154260000447,None,378.8154260000447,None,379.760128700058,None,379.760128700058,380.2739706999855,,,,,,,,,,,,,,,,003,2022-05-05_17h55.30.347,FishGame,2022.1.1,60.024441957196174,
,6,나를 데려가줘,6,Green,B,0,0,ScrollDown,ScrollUp,Green.png,3,NonTarget,NonTarget,0,0,0,0,,,,,,,,,,,,,,,,,,,,,0,5,5,5,,,,,,,,,,,,,,,,,,,,,,,,,,,,,,,,,,,,,,,,,,,,,,,,,,,,,,,,,,,,,,,,,,,,,,,,,,,,,1,1.2437921999953687,380.89985570008866,None,ScrollDown,정답입니다,380.89985570008866,None,380.89985570008866,None,380.89985570008866,None,380.89985570008866,None,382.04051670001354,None,382.04051670001354,382.5405569000868,,,,,,,,,,,,,,,,003,2022-05-05_17h55.30.347,FishGame,2022.1.1,60.024441957196174,
,7,넌 미숙해,4,Green,B,3,3,ScrollUp,ScrollDown,Green.png,3,Negative,Congruent,0,0,0,0,,,,,,,,,,,,,,,,,,,,,0,6,6,6,,,,,,,,,,,,,,,,,,,,,,,,,,,,,,,,,,,,,,,,,,,,,,,,,,,,,,,,,,,,,,,,,,,,,,,,,,,,,1.9429012537002563,0.9425802000332624,383.1639331000624,None,ScrollUp,정답입니다,383.1639331000624,None,383.1639331000624,None,383.1639331000624,None,383.1639331000624,None,384.0070651000133,None,384.0070651000133,384.50993699999526,,,,,,,,,,,,,,,,003,2022-05-05_17h55.30.347,FishGame,2022.1.1,60.024441957196174,
,8,나를 보내줘,6,Orange,A,0,0,ScrollUp,ScrollDown,Orange.png,3,NonTarget,NonTarget,0,0,0,0,,,,,,,,,,,,,,,,,,,,,0,7,7,7,,,,,,,,,,,,,,,,,,,,,,,,,,,,,,,,,,,,,,,,,,,,,,,,,,,,,,,,,,,,,,,,,,,,,,,,,,,,,1.6419753084580102,0.975701899966225,385.13879470003303,None,ScrollUp,정답입니다,385.13879470003303,None,385.13879470003303,None,385.13879470003303,None,385.13879470003303,None,386.006785399979,None,386.006785399979,386.5068123000674,,,,,,,,,,,,,,,,003,2022-05-05_17h55.30.347,FishGame,2022.1.1,60.024441957196174,
,9,넌 자신만만해,3,Green,B,4.833333333333334,4.333333333333333,ScrollUp,ScrollDown,Green.png,3,Neutral,Neutral,0,0,0,0,,,,,,,,,,,,,,,,,,,,,0,8,8,8,,,,,,,,,,,,,,,,,,,,,,,,,,,,,,,,,,,,,,,,,,,,,,,,,,,,,,,,,,,,,,,,,,,,,,,,,,,,,1.8148148208856583,1.0951236999826506,387.1233472999884,None,ScrollUp,정답입니다,387.1233472999884,None,387.1233472999884,None,387.1233472999884,None,387.1233472999884,None,388.1237243000651,None,388.1237243000651,388.6266795999836,,,,,,,,,,,,,,,,003,2022-05-05_17h55.30.347,FishGame,2022.1.1,60.024441957196174,
,10,넌 탐욕스러워,5,Orange,A,2.25,2.1,ScrollDown,ScrollUp,Orange.png,3,Negative,Incongruent,0,0,0,0,,,,,,,,,,,,,,,,,,,,,0,9,9,9,,,,,,,,,,,,,,,,,,,,,,,,,,,,,,,,,,,,,,,,,,,,,,,,,,,,,,,,,,,,,,,,,,,,,,,,,,,,,1.121913582086563,0.8773951000766829,389.25175460008904,None,ScrollDown,정답입니다,389.25175460008904,None,389.25175460008904,None,389.25175460008904,None,389.25175460008904,None,390.0236766000744,None,390.0236766000744,390.52369870000985,,,,,,,,,,,,,,,,003,2022-05-05_17h55.30.347,FishGame,2022.1.1,60.024441957196174,
,11,넌 인기있어,2,Orange,A,5.458333333333333,4.5,ScrollDown,ScrollUp,Orange.png,3,Positive,Congruent,0,0,0,0,,,,,,,,,,,,,,,,,,,,,0,10,10,10,,,,,,,,,,,,,,,,,,,,,,,,,,,,,,,,,,,,,,,,,,,,,,,,,,,,,,,,,,,,,,,,,,,,,,,,,,,,,1.0524691541989644,1.1584929999662563,391.1500305000227,None,ScrollDown,정답입니다,391.1500305000227,None,391.1500305000227,None,391.1500305000227,None,391.1500305000227,None,392.20694110007025,None,392.20694110007025,392.70692250004504,,,,,,,,,,,,,,,,003,2022-05-05_17h55.30.347,FishGame,2022.1.1,60.024441957196174,
,12,나를 데려가줘,6,Green,B,0,0,ScrollDown,ScrollUp,Green.png,3,NonTarget,NonTarget,0,0,0,0,,,,,,,,,,,,,,,,,,,,,0,11,11,11,,,,,,,,,,,,,,,,,,,,,,,,,,,,,,,,,,,,,,,,,,,,,,,,,,,,,,,,,,,,,,,,,,,,,,,,,,,,,1,1.109012100030668,393.33339260006323,None,ScrollDown,정답입니다,393.33339260006323,None,393.33339260006323,None,393.33339260006323,None,393.33339260006323,None,394.34015930001624,None,394.34015930001624,394.84313260007184,,,,,,,,,,,,,,,,003,2022-05-05_17h55.30.347,FishGame,2022.1.1,60.024441957196174,
,13,넌 뛰어나,2,Green,B,6.166666666666667,4,ScrollUp,ScrollDown,Green.png,3,Positive,Incongruent,0,0,0,0,,,,,,,,,,,,,,,,,,,,,0,12,12,12,,,,,,,,,,,,,,,,,,,,,,,,,,,,,,,,,,,,,,,,,,,,,,,,,,,,,,,,,,,,,,,,,,,,,,,,,,,,,1.9320987562338512,0.9779541000025347,395.4743809000356,None,ScrollUp,정답입니다,395.4743809000356,None,395.4743809000356,None,395.4743809000356,None,395.4743809000356,None,396.34015330008697,None,396.34015330008697,396.84314290003385,,,,,,,,,,,,,,,,003,2022-05-05_17h55.30.347,FishGame,2022.1.1,60.024441957196174,
,14,넌 낙관적이야,1,Orange,A,5.75,5.8,ScrollDown,ScrollUp,Orange.png,3,Positive,Congruent,0,0,0,0,,,,,,,,,,,,,,,,,,,,,0,13,13,13,,,,,,,,,,,,,,,,,,,,,,,,,,,,,,,,,,,,,,,,,,,,,,,,,,,,,,,,,,,,,,,,,,,,,,,,,,,,,1.0370370149612427,0.953875899896957,397.4733353999909,None,ScrollDown,정답입니다,397.4733353999909,None,397.4733353999909,None,397.4733353999909,None,397.4733353999909,None,398.3172745000338,None,398.3172745000338,398.8232064000331,,,,,,,,,,,,,,,,003,2022-05-05_17h55.30.347,FishGame,2022.1.1,60.024441957196174,
,15,넌 산만해,4,Green,B,2.695652173913043,3.033333333333333,ScrollUp,ScrollDown,Green.png,3,Negative,Congruent,0,0,0,0,,,,,,,,,,,,,,,,,,,,,0,14,14,14,,,,,,,,,,,,,,,,,,,,,,,,,,,,,,,,,,,,,,,,,,,,,,,,,,,,,,,,,,,,,,,,,,,,,,,,,,,,,1.6929012313485146,1.0285493000410497,399.44199369999114,None,ScrollUp,정답입니다,399.44199369999114,None,399.44199369999114,None,399.44199369999114,None,399.44199369999114,None,400.3731471999781,None,400.3731471999781,400.8731803999981,,,,,,,,,,,,,,,,003,2022-05-05_17h55.30.347,FishGame,2022.1.1,60.024441957196174,
,16,나를 보내줘,6,Orange,A,0,0,ScrollUp,ScrollDown,Orange.png,3,NonTarget,NonTarget,0,0,0,0,,,,,,,,,,,,,,,,,,,,,0,15,15,15,,,,,,,,,,,,,,,,,,,,,,,,,,,,,,,,,,,,,,,,,,,,,,,,,,,,,,,,,,,,,,,,,,,,,,,,,,,,,1.6620370397965112,0.9280582000501454,401.4939334000228,None,ScrollUp,정답입니다,401.4939334000228,None,401.4939334000228,None,401.4939334000228,None,401.4939334000228,None,402.32312030007597,None,402.32312030007597,402.8263271000469,,,,,,,,,,,,,,,,003,2022-05-05_17h55.30.347,FishGame,2022.1.1,60.024441957196174,
,17,넌 교활해,5,Green,B,2.333333333333333,2.133333333333333,ScrollUp,ScrollDown,Green.png,3,Negative,Congruent,0,0,0,0,,,,,,,,,,,,,,,,,,,,,0,16,16,16,,,,,,,,,,,,,,,,,,,,,,,,,,,,,,,,,,,,,,,,,,,,,,,,,,,,,,,,,,,,,,,,,,,,,,,,,,,,,1.6419753084580102,0.9288520999252796,403.4450714000268,None,ScrollUp,정답입니다,403.4450714000268,None,403.4450714000268,None,403.4450714000268,None,403.4450714000268,None,404.2763179000467,None,404.2763179000467,404.79290080000646,,,,,,,,,,,,,,,,003,2022-05-05_17h55.30.347,FishGame,2022.1.1,60.024441957196174,
,18,나를 보내줘,6,Orange,A,0,0,ScrollUp,ScrollDown,Orange.png,3,NonTarget,NonTarget,0,0,0,0,,,,,,,,,,,,,,,,,,,,,0,17,17,17,,,,,,,,,,,,,,,,,,,,,,,,,,,,,,,,,,,,,,,,,,,,,,,,,,,,,,,,,,,,,,,,,,,,,,,,,,,,,1.584876542290052,1.2082903000991791,405.3991998999845,None,ScrollUp,정답입니다,405.3991998999845,None,405.3991998999845,None,405.3991998999845,None,405.3991998999845,None,406.5063013000181,None,406.5063013000181,407.00637850002386,,,,,,,,,,,,,,,,003,2022-05-05_17h55.30.347,FishGame,2022.1.1,60.024441957196174,
,19,넌 불친절해,5,Green,B,2.208333333333333,2.033333333333333,ScrollUp,ScrollDown,Green.png,3,Negative,Congruent,0,0,0,0,,,,,,,,,,,,,,,,,,,,,0,18,18,18,,,,,,,,,,,,,,,,,,,,,,,,,,,,,,,,,,,,,,,,,,,,,,,,,,,,,,,,,,,,,,,,,,,,,,,,,,,,,1.5293209869414568,0.8619419999886304,407.6286194000859,None,NoResponse,무응답입니다,407.6286194000859,None,407.6286194000859,None,407.6286194000859,None,407.6286194000859,None,408.389645999996,None,408.389645999996,408.8899454000639,,,,,,,,,,,,,,,,003,2022-05-05_17h55.30.347,FishGame,2022.1.1,60.024441957196174,
,20,넌 지적이야,2,Green,B,5.75,4.366666666666666,ScrollUp,ScrollDown,Green.png,3,Positive,Incongruent,0,0,0,0,,,,,,,,,,,,,,,,,,,,,0,19,19,19,,,,,,,,,,,,,,,,,,,,,,,,,,,,,,,,,,,,,,,,,,,,,,,,,,,,,,,,,,,,,,,,,,,,,,,,,,,,,1.6805555572112403,0.8613866999512538,409.5087000000058,None,ScrollUp,정답입니다,409.5087000000058,None,409.5087000000058,None,409.5087000000058,None,409.5087000000058,None,410.27322990004905,None,410.27322990004905,410.77629010006785,,,,,,,,,,,,,,,,003,2022-05-05_17h55.30.347,FishGame,2022.1.1,60.024441957196174,
,21,넌 우유부단해,4,Orange,A,2.666666666666667,3.166666666666667,ScrollDown,ScrollUp,Orange.png,3,Negative,Incongruent,0,0,0,0,,,,,,,,,,,,,,,,,,,,,0,20,20,20,,,,,,,,,,,,,,,,,,,,,,,,,,,,,,,,,,,,,,,,,,,,,,,,,,,,,,,,,,,,,,,,,,,,,,,,,,,,,1,0.9434842999326065,411.403686500038,None,ScrollDown,정답입니다,411.403686500038,None,411.403686500038,None,411.403686500038,None,411.403686500038,None,412.23950150003657,None,412.23950150003657,412.73960010008886,,,,,,,,,,,,,,,,003,2022-05-05_17h55.30.347,FishGame,2022.1.1,60.024441957196174,
,22,나를 데려가줘,6,Green,B,0,0,ScrollDown,ScrollUp,Green.png,3,NonTarget,NonTarget,0,0,0,0,,,,,,,,,,,,,,,,,,,,,0,21,21,21,,,,,,,,,,,,,,,,,,,,,,,,,,,,,,,,,,,,,,,,,,,,,,,,,,,,,,,,,,,,,,,,,,,,,,,,,,,,,1.0555555323759716,1.0781770000467077,413.3588693999918,None,ScrollDown,정답입니다,413.3588693999918,None,413.3588693999918,None,413.3588693999918,None,413.3588693999918,None,414.33951479999814,None,414.33951479999814,414.8427135000238,,,,,,,,,,,,,,,,003,2022-05-05_17h55.30.347,FishGame,2022.1.1,60.024441957196174,
,23,넌 성실해,1,Green,B,6.041666666666666,5.7,ScrollUp,ScrollDown,Green.png,3,Positive,Incongruent,0,0,0,0,,,,,,,,,,,,,,,,,,,,,0,22,22,22,,,,,,,,,,,,,,,,,,,,,,,,,,,,,,,,,,,,,,,,,,,,,,,,,,,,,,,,,,,,,,,,,,,,,,,,,,,,,1.9845678806304932,0.9939638000214472,415.46220900001936,None,ScrollUp,정답입니다,415.46220900001936,None,415.46220900001936,None,415.46220900001936,None,415.46220900001936,None,416.35921580006834,None,416.35921580006834,416.85642000008374,,,,,,,,,,,,,,,,003,2022-05-05_17h55.30.347,FishGame,2022.1.1,60.024441957196174,
,24,넌 현실주의적이야,3,Orange,A,4.625,4.4,ScrollDown,ScrollUp,Orange.png,3,Neutral,Neutral,0,0,0,0,,,,,,,,,,,,,,,,,,,,,0,23,23,23,,,,,,,,,,,,,,,,,,,,,,,,,,,,,,,,,,,,,,,,,,,,,,,,,,,,,,,,,,,,,,,,,,,,,,,,,,,,,1,1.0275977000128478,417.48691760003567,None,ScrollDown,정답입니다,417.48691760003567,None,417.48691760003567,None,417.48691760003567,None,417.48691760003567,None,418.4090675000334,None,418.4090675000334,418.9230242000194,,,,,,,,,,,,,,,,003,2022-05-05_17h55.30.347,FishGame,2022.1.1,60.024441957196174,
,25,넌 진실돼,1,Orange,A,6.625,5.566666666666666,ScrollDown,ScrollUp,Orange.png,3,Positive,Congruent,0,0,0,0,,,,,,,,,,,,,,,,,,,,,0,24,24,24,,,,,,,,,,,,,,,,,,,,,,,,,,,,,,,,,,,,,,,,,,,,,,,,,,,,,,,,,,,,,,,,,,,,,,,,,,,,,1,0.9420982000883669,419.533051299979,None,ScrollDown,정답입니다,419.533051299979,None,419.533051299979,None,419.533051299979,None,419.533051299979,None,420.3729682000121,None,420.3729682000121,420.8757013999857,,,,,,,,,,,,,,,,003,2022-05-05_17h55.30.347,FishGame,2022.1.1,60.024441957196174,
,26,넌 천진난만해,3,Green,B,4.958333333333334,4.833333333333333,ScrollUp,ScrollDown,Green.png,3,Neutral,Neutral,0,0,0,0,,,,,,,,,,,,,,,,,,,,,0,25,25,25,,,,,,,,,,,,,,,,,,,,,,,,,,,,,,,,,,,,,,,,,,,,,,,,,,,,,,,,,,,,,,,,,,,,,,,,,,,,,1.9953703780968983,1.0118333999998868,421.49680169997737,None,ScrollUp,정답입니다,421.49680169997737,None,421.49680169997737,None,421.49680169997737,None,421.49680169997737,None,422.4062436000677,None,422.4062436000677,422.9062573000556,,,,,,,,,,,,,,,,003,2022-05-05_17h55.30.347,FishGame,2022.1.1,60.024441957196174,
,27,넌 교양없어,5,Orange,A,2.416666666666667,2.2,ScrollDown,ScrollUp,Orange.png,3,Negative,Incongruent,0,0,0,0,,,,,,,,,,,,,,,,,,,,,0,26,26,26,,,,,,,,,,,,,,,,,,,,,,,,,,,,,,,,,,,,,,,,,,,,,,,,,,,,,,,,,,,,,,,,,,,,,,,,,,,,,1.0077160497506459,1.1130018999101594,423.5409491000464,None,ScrollDown,정답입니다,423.5409491000464,None,423.5409491000464,None,423.5409491000464,None,423.5409491000464,None,424.5395327000879,None,424.5395327000879,425.0394732999848,,,,,,,,,,,,,,,,003,2022-05-05_17h55.30.347,FishGame,2022.1.1,60.024441957196174,
,28,나를 보내줘,6,Orange,A,0,0,ScrollUp,ScrollDown,Orange.png,3,NonTarget,NonTarget,0,0,0,0,,,,,,,,,,,,,,,,,,,,,0,27,27,27,,,,,,,,,,,,,,,,,,,,,,,,,,,,,,,,,,,,,,,,,,,,,,,,,,,,,,,,,,,,,,,,,,,,,,,,,,,,,1.9691357910633087,0.9914678999921307,425.66788480000105,None,ScrollUp,정답입니다,425.66788480000105,None,425.66788480000105,None,425.66788480000105,None,425.66788480000105,None,426.5558793999953,None,426.5558793999953,427.0559323000489,,,,,,,,,,,,,,,,003,2022-05-05_17h55.30.347,FishGame,2022.1.1,60.024441957196174,
,29,넌 엉뚱스러워,3,Orange,A,4.166666666666667,4.133333333333334,ScrollDown,ScrollUp,Orange.png,3,Neutral,Neutral,0,0,0,0,,,,,,,,,,,,,,,,,,,,,0,28,28,28,,,,,,,,,,,,,,,,,,,,,,,,,,,,,,,,,,,,,,,,,,,,,,,,,,,,,,,,,,,,,,,,,,,,,,,,,,,,,1.0030864079793294,0.9447999000549316,427.6867282000603,None,ScrollDown,정답입니다,427.6867282000603,None,427.6867282000603,None,427.6867282000603,None,427.6867282000603,None,428.5228593000211,None,428.5228593000211,429.02291170007084,,,,,,,,,,,,,,,,003,2022-05-05_17h55.30.347,FishGame,2022.1.1,60.024441957196174,
,30,넌 무지해,4,Green,B,2.541666666666667,3.066666666666667,ScrollUp,ScrollDown,Green.png,3,Negative,Congruent,0,0,0,0,,,,,,,,,,,,,,,,,,,,,0,29,29,29,,,,,,,,,,,,,,,,,,,,,,,,,,,,,,,,,,,,,,,,,,,,,,,,,,,,,,,,,,,,,,,,,,,,,,,,,,,,,1.9135802388191223,0.9930923000210896,429.64788110007066,None,ScrollUp,정답입니다,429.64788110007066,None,429.64788110007066,None,429.64788110007066,None,429.64788110007066,None,430.53947090008296,None,430.53947090008296,431.0424035000615,,,,,,,,,,,,,,,,003,2022-05-05_17h55.30.347,FishGame,2022.1.1,60.024441957196174,
,31,넌 음울해,5,Green,B,2.25,2.233333333333333,ScrollUp,ScrollDown,Green.png,3,Negative,Congruent,0,0,0,0,,,,,,,,,,,,,,,,,,,,,0,30,30,30,,,,,,,,,,,,,,,,,,,,,,,,,,,,,,,,,,,,,,,,,,,,,,,,,,,,,,,,,,,,,,,,,,,,,,,,,,,,,1.9413580397764842,1.0165909000206739,431.6598766000243,None,ScrollUp,정답입니다,431.6598766000243,None,431.6598766000243,None,431.6598766000243,None,431.6598766000243,None,432.5726281000534,None,432.5726281000534,433.0754853000399,,,,,,,,,,,,,,,,003,2022-05-05_17h55.30.347,FishGame,2022.1.1,60.024441957196174,
,32,넌 냉소적이야,5,Orange,A,2.916666666666667,2.4,ScrollDown,ScrollUp,Orange.png,3,Negative,Incongruent,0,0,0,0,,,,,,,,,,,,,,,,,,,,,0,31,31,31,,,,,,,,,,,,,,,,,,,,,,,,,,,,,,,,,,,,,,,,,,,,,,,,,,,,,,,,,,,,,,,,,,,,,,,,,,,,,1.0108024775981903,1.0964313999284059,433.6998288000468,None,ScrollDown,정답입니다,433.6998288000468,None,433.6998288000468,None,433.6998288000468,None,433.6998288000468,None,434.68926520005334,None,434.68926520005334,435.1922077999916,,,,,,,,,,,,,,,,003,2022-05-05_17h55.30.347,FishGame,2022.1.1,60.024441957196174,
,33,나를 데려가줘,6,Green,B,0,0,ScrollDown,ScrollUp,Green.png,3,NonTarget,NonTarget,0,0,0,0,,,,,,,,,,,,,,,,,,,,,0,32,32,32,,,,,,,,,,,,,,,,,,,,,,,,,,,,,,,,,,,,,,,,,,,,,,,,,,,,,,,,,,,,,,,,,,,,,,,,,,,,,1.0185184975465138,1.094947199919261,435.8133760000346,None,ScrollDown,정답입니다,435.8133760000346,None,435.8133760000346,None,435.8133760000346,None,435.8133760000346,None,436.80599110003095,None,436.80599110003095,437.30606149998493,,,,,,,,,,,,,,,,003,2022-05-05_17h55.30.347,FishGame,2022.1.1,60.024441957196174,
,34,넌 쾌활해,1,Orange,A,5.541666666666666,5.733333333333333,ScrollDown,ScrollUp,Orange.png,3,Positive,Congruent,0,0,0,0,,,,,,,,,,,,,,,,,,,,,0,33,33,33,,,,,,,,,,,,,,,,,,,,,,,,,,,,,,,,,,,,,,,,,,,,,,,,,,,,,,,,,,,,,,,,,,,,,,,,,,,,,1.0308642089366913,0.9948674000333995,437.9320380000863,None,ScrollDown,정답입니다,437.9320380000863,None,437.9320380000863,None,437.9320380000863,None,437.9320380000863,None,438.8226284000557,None,438.8226284000557,439.3253989000805,,,,,,,,,,,,,,,,003,2022-05-05_17h55.30.347,FishGame,2022.1.1,60.024441957196174,
,35,나를 보내줘,6,Orange,A,0,0,ScrollUp,ScrollDown,Orange.png,3,NonTarget,NonTarget,0,0,0,0,,,,,,,,,,,,,,,,,,,,,0,34,34,34,,,,,,,,,,,,,,,,,,,,,,,,,,,,,,,,,,,,,,,,,,,,,,,,,,,,,,,,,,,,,,,,,,,,,,,,,,,,,1.9166666666666667,1.0610100000631064,439.94325730006676,None,ScrollUp,정답입니다,439.94325730006676,None,439.94325730006676,None,439.94325730006676,None,439.94325730006676,None,440.90556039998773,None,440.90556039998773,441.40562450001016,,,,,,,,,,,,,,,,003,2022-05-05_17h55.30.347,FishGame,2022.1.1,60.024441957196174,
,36,넌 명랑해,1,Green,B,5.739130434782609,5.666666666666667,ScrollUp,ScrollDown,Green.png,3,Positive,Incongruent,0,0,0,0,,,,,,,,,,,,,,,,,,,,,0,35,35,35,,,,,,,,,,,,,,,,,,,,,,,,,,,,,,,,,,,,,,,,,,,,,,,,,,,,,,,,,,,,,,,,,,,,,,,,,,,,,1.733024681607882,1.0116853000363335,442.02908930007834,None,ScrollUp,정답입니다,442.02908930007834,None,442.02908930007834,None,442.02908930007834,None,442.02908930007834,None,442.93924259999767,None,442.93924259999767,443.4421445000917,,,,,,,,,,,,,,,,003,2022-05-05_17h55.30.347,FishGame,2022.1.1,60.024441957196174,
,37,넌 멍해,4,Orange,A,2.833333333333333,3.4,ScrollDown,ScrollUp,Orange.png,3,Negative,Incongruent,0,0,0,0,,,,,,,,,,,,,,,,,,,,,0,36,36,36,,,,,,,,,,,,,,,,,,,,,,,,,,,,,,,,,,,,,,,,,,,,,,,,,,,,,,,,,,,,,,,,,,,,,,,,,,,,,1.180555562178294,0.8754762000171468,444.0691534000216,None,ScrollDown,정답입니다,444.0691534000216,None,444.0691534000216,None,444.0691534000216,None,444.0691534000216,None,444.8391488000052,None,444.8391488000052,445.3391924999887,,,,,,,,,,,,,,,,003,2022-05-05_17h55.30.347,FishGame,2022.1.1,60.024441957196174,
,38,나를 데려가줘,6,Green,B,0,0,ScrollDown,ScrollUp,Green.png,3,NonTarget,NonTarget,0,0,0,0,,,,,,,,,,,,,,,,,,,,,0,37,37,37,,,,,,,,,,,,,,,,,,,,,,,,,,,,,,,,,,,,,,,,,,,,,,,,,,,,,,,,,,,,,,,,,,,,,,,,,,,,,1,1.0408107000403106,445.9677911000326,None,ScrollDown,정답입니다,445.9677911000326,None,445.9677911000326,None,445.9677911000326,None,445.9677911000326,None,446.9054325000616,None,446.9054325000616,447.405511100078,,,,,,,,,,,,,,,,003,2022-05-05_17h55.30.347,FishGame,2022.1.1,60.024441957196174,
,39,넌 현명해,2,Orange,A,6.541666666666666,4.533333333333333,ScrollDown,ScrollUp,Orange.png,3,Positive,Congruent,0,0,0,0,,,,,,,,,,,,,,,,,,,,,0,38,38,38,,,,,,,,,,,,,,,,,,,,,,,,,,,,,,,,,,,,,,,,,,,,,,,,,,,,,,,,,,,,,,,,,,,,,,,,,,,,,1.0632716019948323,0.9949029000708833,448.0265658000717,None,ScrollDown,정답입니다,448.0265658000717,None,448.0265658000717,None,448.0265658000717,None,448.0265658000717,None,448.92211190005764,None,448.92211190005764,449.4223152999766,,,,,,,,,,,,,,,,003,2022-05-05_17h55.30.347,FishGame,2022.1.1,60.024441957196174,
,40,넌 수줍어,3,Green,B,3.541666666666666,4.366666666666666,ScrollUp,ScrollDown,Green.png,3,Neutral,Neutral,0,0,0,0,,,,,,,,,,,,,,,,,,,,,0,39,39,39,,,,,,,,,,,,,,,,,,,,,,,,,,,,,,,,,,,,,,,,,,,,,,,,,,,,,,,,,,,,,,,,,,,,,,,,,,,,,1.674382713933786,0.8590010999469087,450.05150709999725,None,ScrollUp,정답입니다,450.05150709999725,None,450.05150709999725,None,450.05150709999725,None,450.05150709999725,None,450.80576960009057,None,450.80576960009057,451.30856410006527,,,,,,,,,,,,,,,,003,2022-05-05_17h55.30.347,FishGame,2022.1.1,60.024441957196174,
,41,나를 데려가줘,6,Green,B,0,0,ScrollDown,ScrollUp,Green.png,3,NonTarget,NonTarget,0,0,0,0,,,,,,,,,,,,,,,,,,,,,0,40,40,40,,,,,,,,,,,,,,,,,,,,,,,,,,,,,,,,,,,,,,,,,,,,,,,,,,,,,,,,,,,,,,,,,,,,,,,,,,,,,1.1018518507480621,1.0483950999332592,451.92877230001613,None,ScrollDown,정답입니다,451.92877230001613,None,451.92877230001613,None,451.92877230001613,None,451.92877230001613,None,452.87223280000035,None,452.87223280000035,453.37229229998775,,,,,,,,,,,,,,,,003,2022-05-05_17h55.30.347,FishGame,2022.1.1,60.024441957196174,
,42,넌 성숙해,2,Green,B,5.833333333333333,4.533333333333333,ScrollUp,ScrollDown,Green.png,3,Positive,Incongruent,0,0,0,0,,,,,,,,,,,,,,,,,,,,,0,41,41,41,,,,,,,,,,,,,,,,,,,,,,,,,,,,,,,,,,,,,,,,,,,,,,,,,,,,,,,,,,,,,,,,,,,,,,,,,,,,,1.7145061641931534,1.0605815999442711,453.9954068000661,None,ScrollUp,정답입니다,453.9954068000661,None,453.9954068000661,None,453.9954068000661,None,453.9954068000661,None,454.9555549999932,None,454.9555549999932,455.45855990005657,,,,,,,,,,,,,,,,003,2022-05-05_17h55.30.347,FishGame,2022.1.1,60.024441957196174,
,1,넌 매력적이야,2,Green,B,6.125,4.666666666666667,ScrollUp,ScrollDown,Green.png,4,Positive,Incongruent,0,0,0,0,,,,,,,,,,,,,,,,,,,,,,,,,0,0,0,0,,,,,,,,,,,,,,,,,,,,,,,,,,,,,,,,486.98846670007333,488.49121220002417,488.5215328000486,489.47156039997935,489.52875080006197,490.48819270008244,490.4744169000769,None,,,,,,,,,,,,,,,,,,,,,,,,,,,,,,,,,,2,1.2697791999671608,491.5748350999784,None,ScrollUp,정답입니다,491.5748350999784,None,491.5748350999784,None,491.5748350999784,None,491.5748350999784,None,492.7380574999843,None,492.7380574999843,493.23809150001034,455.955629000091,None,455.955629000091,None,0.08888889,-0.16203703,1,0,0,0.016267259954474866,None,485.9578196000075,None,,,003,2022-05-05_17h55.30.347,FishGame,2022.1.1,60.024441957196174,
,2,나를 보내줘,6,Orange,A,0,0,ScrollUp,ScrollDown,Orange.png,4,NonTarget,NonTarget,0,0,0,0,,,,,,,,,,,,,,,,,,,,,,,,,0,1,1,1,,,,,,,,,,,,,,,,,,,,,,,,,,,,,,,,,,,,,,,,,,,,,,,,,,,,,,,,,,,,,,,,,,,,,,,,,2,1.1277289999416098,493.8697031000629,None,ScrollUp,정답입니다,493.8697031000629,None,493.8697031000629,None,493.8697031000629,None,493.8697031000629,None,494.88803010003176,None,494.88803010003176,495.388157300069,,,,,,,,,,,,,,,,003,2022-05-05_17h55.30.347,FishGame,2022.1.1,60.024441957196174,
,3,넌 조심스러워,3,Orange,A,4.791666666666666,4.666666666666667,ScrollDown,ScrollUp,Orange.png,4,Neutral,Neutral,0,0,0,0,,,,,,,,,,,,,,,,,,,,,,,,,0,2,2,2,,,,,,,,,,,,,,,,,,,,,,,,,,,,,,,,,,,,,,,,,,,,,,,,,,,,,,,,,,,,,,,,,,,,,,,,,1.0354938507080078,0.994717700057663,496.0135758999968,None,ScrollDown,정답입니다,496.0135758999968,None,496.0135758999968,None,496.0135758999968,None,496.0135758999968,None,496.9046738999896,None,496.9046738999896,497.4047305000713,,,,,,,,,,,,,,,,003,2022-05-05_17h55.30.347,FishGame,2022.1.1,60.024441957196174,
,4,넌 철학적이야,3,Green,B,4.5,4.266666666666667,ScrollUp,ScrollDown,Green.png,4,Neutral,Neutral,0,0,0,0,,,,,,,,,,,,,,,,,,,,,,,,,0,3,3,3,,,,,,,,,,,,,,,,,,,,,,,,,,,,,,,,,,,,,,,,,,,,,,,,,,,,,,,,,,,,,,,,,,,,,,,,,1.9907407363255818,1.0266027000034228,498.0295931000728,None,ScrollUp,정답입니다,498.0295931000728,None,498.0295931000728,None,498.0295931000728,None,498.0295931000728,None,498.95457840000745,None,498.95457840000745,499.45467980008107,,,,,,,,,,,,,,,,003,2022-05-05_17h55.30.347,FishGame,2022.1.1,60.024441957196174,
,5,넌 쩨쩨해,5,Orange,A,2.375,2.133333333333333,ScrollDown,ScrollUp,Orange.png,4,Negative,Incongruent,0,0,0,0,,,,,,,,,,,,,,,,,,,,,,,,,0,4,4,4,,,,,,,,,,,,,,,,,,,,,,,,,,,,,,,,,,,,,,,,,,,,,,,,,,,,,,,,,,,,,,,,,,,,,,,,,1.0447530845801036,0.9612091999733821,500.0814715999877,None,ScrollDown,정답입니다,500.0814715999877,None,500.0814715999877,None,500.0814715999877,None,500.0814715999877,None,500.937902100035,None,500.937902100035,501.437968900078,,,,,,,,,,,,,,,,003,2022-05-05_17h55.30.347,FishGame,2022.1.1,60.024441957196174,
,6,나를 데려가줘,6,Green,B,0,0,ScrollDown,ScrollUp,Green.png,4,NonTarget,NonTarget,0,0,0,0,,,,,,,,,,,,,,,,,,,,,,,,,0,5,5,5,,,,,,,,,,,,,,,,,,,,,,,,,,,,,,,,,,,,,,,,,,,,,,,,,,,,,,,,,,,,,,,,,,,,,,,,,1,1.1280763000249863,502.06499400001485,None,ScrollDown,정답입니다,502.06499400001485,None,502.06499400001485,None,502.06499400001485,None,502.06499400001485,None,503.0878448000876,None,503.0878448000876,503.58792800002266,,,,,,,,,,,,,,,,003,2022-05-05_17h55.30.347,FishGame,2022.1.1,60.024441957196174,
,7,넌 고집불통이야,5,Green,B,2.875,2,ScrollUp,ScrollDown,Green.png,4,Negative,Congruent,0,0,0,0,,,,,,,,,,,,,,,,,,,,,,,,,0,6,6,6,,,,,,,,,,,,,,,,,,,,,,,,,,,,,,,,,,,,,,,,,,,,,,,,,,,,,,,,,,,,,,,,,,,,,,,,,1.6003086442748704,0.9799571000039577,504.21741490007844,None,ScrollUp,정답입니다,504.21741490007844,None,504.21741490007844,None,504.21741490007844,None,504.21741490007844,None,505.09050619998015,None,505.09050619998015,505.6045424999902,,,,,,,,,,,,,,,,003,2022-05-05_17h55.30.347,FishGame,2022.1.1,60.024441957196174,
,8,넌 무심해,4,Orange,A,2.875,3.2,ScrollDown,ScrollUp,Orange.png,4,Negative,Incongruent,0,0,0,0,,,,,,,,,,,,,,,,,,,,,,,,,0,7,7,7,,,,,,,,,,,,,,,,,,,,,,,,,,,,,,,,,,,,,,,,,,,,,,,,,,,,,,,,,,,,,,,,,,,,,,,,,1,0.8781875999411568,506.2296613000799,None,ScrollDown,정답입니다,506.2296613000799,None,506.2296613000799,None,506.2296613000799,None,506.2296613000799,None,507.0044434000738,None,507.0044434000738,507.5045155000407,,,,,,,,,,,,,,,,003,2022-05-05_17h55.30.347,FishGame,2022.1.1,60.024441957196174,
,9,넌 정겨워,1,Orange,A,5.791666666666667,5.666666666666667,ScrollDown,ScrollUp,Orange.png,4,Positive,Congruent,0,0,0,0,,,,,,,,,,,,,,,,,,,,,,,,,0,8,8,8,,,,,,,,,,,,,,,,,,,,,,,,,,,,,,,,,,,,,,,,,,,,,,,,,,,,,,,,,,,,,,,,,,,,,,,,,1.0277777810891469,0.9447423000819981,508.14287610002793,None,ScrollDown,정답입니다,508.14287610002793,None,508.14287610002793,None,508.14287610002793,None,508.14287610002793,None,508.9710860000923,None,508.9710860000923,509.47105870000087,,,,,,,,,,,,,,,,003,2022-05-05_17h55.30.347,FishGame,2022.1.1,60.024441957196174,
,10,나를 데려가줘,6,Green,B,0,0,ScrollDown,ScrollUp,Green.png,4,NonTarget,NonTarget,0,0,0,0,,,,,,,,,,,,,,,,,,,,,,,,,0,9,9,9,,,,,,,,,,,,,,,,,,,,,,,,,,,,,,,,,,,,,,,,,,,,,,,,,,,,,,,,,,,,,,,,,,,,,,,,,1,1.1783851000946015,510.093142000027,None,ScrollDown,정답입니다,510.093142000027,None,510.093142000027,None,510.093142000027,None,510.093142000027,None,511.17072330007795,None,511.17072330007795,511.67085320001934,,,,,,,,,,,,,,,,003,2022-05-05_17h55.30.347,FishGame,2022.1.1,60.024441957196174,
,11,넌 체제순응적이야,4,Green,B,3,3.6,ScrollUp,ScrollDown,Green.png,4,Negative,Congruent,0,0,0,0,,,,,,,,,,,,,,,,,,,,,,,,,0,10,10,10,,,,,,,,,,,,,,,,,,,,,,,,,,,,,,,,,,,,,,,,,,,,,,,,,,,,,,,,,,,,,,,,,,,,,,,,,1.8611111144224803,1.0281935000093654,512.3043243000284,None,ScrollUp,정답입니다,512.3043243000284,None,512.3043243000284,None,512.3043243000284,None,512.3043243000284,None,513.2210294000106,None,513.2210294000106,513.7240006000502,,,,,,,,,,,,,,,,003,2022-05-05_17h55.30.347,FishGame,2022.1.1,60.024441957196174,
,12,나를 보내줘,6,Orange,A,0,0,ScrollUp,ScrollDown,Orange.png,4,NonTarget,NonTarget,0,0,0,0,,,,,,,,,,,,,,,,,,,,,,,,,0,11,11,11,,,,,,,,,,,,,,,,,,,,,,,,,,,,,,,,,,,,,,,,,,,,,,,,,,,,,,,,,,,,,,,,,,,,,,,,,1.8765432039896648,1.1439292998984456,514.34702440002,None,ScrollUp,정답입니다,514.34702440002,None,514.34702440002,None,514.34702440002,None,514.34702440002,None,515.3876229000743,None,515.3876229000743,515.8876997000771,,,,,,,,,,,,,,,,003,2022-05-05_17h55.30.347,FishGame,2022.1.1,60.024441957196174,
,13,넌 박식해,2,Orange,A,5.625,3.933333333333333,ScrollDown,ScrollUp,Orange.png,4,Positive,Congruent,0,0,0,0,,,,,,,,,,,,,,,,,,,,,,,,,0,12,12,12,,,,,,,,,,,,,,,,,,,,,,,,,,,,,,,,,,,,,,,,,,,,,,,,,,,,,,,,,,,,,,,,,,,,,,,,,1,1.044831799925305,516.517110500019,None,ScrollDown,정답입니다,516.517110500019,None,516.517110500019,None,516.517110500019,None,516.517110500019,None,517.4539220000152,None,517.4539220000152,517.9540515000699,,,,,,,,,,,,,,,,003,2022-05-05_17h55.30.347,FishGame,2022.1.1,60.024441957196174,
,14,나를 보내줘,6,Orange,A,0,0,ScrollUp,ScrollDown,Orange.png,4,NonTarget,NonTarget,0,0,0,0,,,,,,,,,,,,,,,,,,,,,,,,,0,13,13,13,,,,,,,,,,,,,,,,,,,,,,,,,,,,,,,,,,,,,,,,,,,,,,,,,,,,,,,,,,,,,,,,,,,,,,,,,1.7407407512267432,0.9955000000772998,518.5762962000445,None,ScrollUp,정답입니다,518.5762962000445,None,518.5762962000445,None,518.5762962000445,None,518.5762962000445,None,519.4708768000128,None,519.4708768000128,519.9709944999777,,,,,,,,,,,,,,,,003,2022-05-05_17h55.30.347,FishGame,2022.1.1,60.024441957196174,
,15,넌 침착해,1,Green,B,5.458333333333333,5.566666666666666,ScrollUp,ScrollDown,Green.png,4,Positive,Incongruent,0,0,0,0,,,,,,,,,,,,,,,,,,,,,,,,,0,14,14,14,,,,,,,,,,,,,,,,,,,,,,,,,,,,,,,,,,,,,,,,,,,,,,,,,,,,,,,,,,,,,,,,,,,,,,,,,1.8533950696388881,0.9088377000298351,520.5966738000279,None,ScrollUp,정답입니다,520.5966738000279,None,520.5966738000279,None,520.5966738000279,None,520.5966738000279,None,521.4042232000502,None,521.4042232000502,521.9071260000346,,,,,,,,,,,,,,,,003,2022-05-05_17h55.30.347,FishGame,2022.1.1,60.024441957196174,
,16,나를 데려가줘,6,Green,B,0,0,ScrollDown,ScrollUp,Green.png,4,NonTarget,NonTarget,0,0,0,0,,,,,,,,,,,,,,,,,,,,,,,,,0,15,15,15,,,,,,,,,,,,,,,,,,,,,,,,,,,,,,,,,,,,,,,,,,,,,,,,,,,,,,,,,,,,,,,,,,,,,,,,,1,0.9753732000244781,522.530573700089,None,ScrollDown,정답입니다,522.530573700089,None,522.530573700089,None,522.530573700089,None,522.530573700089,None,523.4040191000095,None,523.4040191000095,523.9040879000677,,,,,,,,,,,,,,,,003,2022-05-05_17h55.30.347,FishGame,2022.1.1,60.024441957196174,
,17,넌 행복해,1,Orange,A,6.416666666666666,6.166666666666667,ScrollDown,ScrollUp,Orange.png,4,Positive,Congruent,0,0,0,0,,,,,,,,,,,,,,,,,,,,,,,,,0,16,16,16,,,,,,,,,,,,,,,,,,,,,,,,,,,,,,,,,,,,,,,,,,,,,,,,,,,,,,,,,,,,,,,,,,,,,,,,,1.0138889054457347,1.0780010999878868,524.5325859000441,None,ScrollDown,정답입니다,524.5325859000441,None,524.5325859000441,None,524.5325859000441,None,524.5325859000441,None,525.5040094000287,None,525.5040094000287,526.0068626999855,,,,,,,,,,,,,,,,003,2022-05-05_17h55.30.347,FishGame,2022.1.1,60.024441957196174,
,18,넌 겸손해,2,Green,B,5.791666666666667,4.766666666666667,ScrollUp,ScrollDown,Green.png,4,Positive,Incongruent,0,0,0,0,,,,,,,,,,,,,,,,,,,,,,,,,0,17,17,17,,,,,,,,,,,,,,,,,,,,,,,,,,,,,,,,,,,,,,,,,,,,,,,,,,,,,,,,,,,,,,,,,,,,,,,,,1.8348765522241592,1.0423346000025049,526.6319476000499,None,ScrollUp,정답입니다,526.6319476000499,None,526.6319476000499,None,526.6319476000499,None,526.6319476000499,None,527.5706567000598,None,527.5706567000598,528.0707218000898,,,,,,,,,,,,,,,,003,2022-05-05_17h55.30.347,FishGame,2022.1.1,60.024441957196174,
,19,나를 보내줘,6,Orange,A,0,0,ScrollUp,ScrollDown,Orange.png,4,NonTarget,NonTarget,0,0,0,0,,,,,,,,,,,,,,,,,,,,,,,,,0,18,18,18,,,,,,,,,,,,,,,,,,,,,,,,,,,,,,,,,,,,,,,,,,,,,,,,,,,,,,,,,,,,,,,,,,,,,,,,,1.6975308607021966,0.9780660000396892,528.7020750000374,None,ScrollUp,정답입니다,528.7020750000374,None,528.7020750000374,None,528.7020750000374,None,528.7020750000374,None,529.5706391000422,None,529.5706391000422,530.0780383000383,,,,,,,,,,,,,,,,003,2022-05-05_17h55.30.347,FishGame,2022.1.1,60.024441957196174,
,20,넌 의심없어,3,Orange,A,4.166666666666667,4.6,ScrollDown,ScrollUp,Orange.png,4,Neutral,Neutral,0,0,0,0,,,,,,,,,,,,,,,,,,,,,,,,,0,19,19,19,,,,,,,,,,,,,,,,,,,,,,,,,,,,,,,,,,,,,,,,,,,,,,,,,,,,,,,,,,,,,,,,,,,,,,,,,1,1.028247700072825,530.6966132000089,None,ScrollDown,정답입니다,530.6966132000089,None,530.6966132000089,None,530.6966132000089,None,530.6966132000089,None,531.6203008000739,None,531.6203008000739,532.120398900006,,,,,,,,,,,,,,,,003,2022-05-05_17h55.30.347,FishGame,2022.1.1,60.024441957196174,
,21,넌 시시해,4,Orange,A,2.666666666666667,2.966666666666667,ScrollDown,ScrollUp,Orange.png,4,Negative,Incongruent,0,0,0,0,,,,,,,,,,,,,,,,,,,,,,,,,0,20,20,20,,,,,,,,,,,,,,,,,,,,,,,,,,,,,,,,,,,,,,,,,,,,,,,,,,,,,,,,,,,,,,,,,,,,,,,,,1.0725308855374653,0.8968316999962553,532.7462340000784,None,ScrollDown,정답입니다,532.7462340000784,None,532.7462340000784,None,532.7462340000784,None,532.7462340000784,None,533.5401017999975,None,533.5401017999975,534.0567722000415,,,,,,,,,,,,,,,,003,2022-05-05_17h55.30.347,FishGame,2022.1.1,60.024441957196174,
,22,나를 데려가줘,6,Green,B,0,0,ScrollDown,ScrollUp,Green.png,4,NonTarget,NonTarget,0,0,0,0,,,,,,,,,,,,,,,,,,,,,,,,,0,21,21,21,,,,,,,,,,,,,,,,,,,,,,,,,,,,,,,,,,,,,,,,,,,,,,,,,,,,,,,,,,,,,,,,,,,,,,,,,1.0879629751046498,1.062012100010179,534.6813147000503,None,ScrollDown,정답입니다,534.6813147000503,None,534.6813147000503,None,534.6813147000503,None,534.6813147000503,None,535.6371922000544,None,535.6371922000544,536.1372185000218,,,,,,,,,,,,,,,,003,2022-05-05_17h55.30.347,FishGame,2022.1.1,60.024441957196174,
,23,넌 무정해,5,Orange,A,2.5,2.2,ScrollDown,ScrollUp,Orange.png,4,Negative,Incongruent,0,0,0,0,,,,,,,,,,,,,,,,,,,,,,,,,0,22,22,22,,,,,,,,,,,,,,,,,,,,,,,,,,,,,,,,,,,,,,,,,,,,,,,,,,,,,,,,,,,,,,,,,,,,,,,,,1.0246913532416027,0.9910415000049397,536.7639019000344,None,ScrollDown,정답입니다,536.7639019000344,None,536.7639019000344,None,536.7639019000344,None,536.7639019000344,None,537.6537348000566,None,537.6537348000566,538.1566296999808,,,,,,,,,,,,,,,,003,2022-05-05_17h55.30.347,FishGame,2022.1.1,60.024441957196174,
,24,넌 긍정적이야,1,Green,B,6.041666666666667,6.066666666666666,ScrollUp,ScrollDown,Green.png,4,Positive,Incongruent,0,0,0,0,,,,,,,,,,,,,,,,,,,,,,,,,0,23,23,23,,,,,,,,,,,,,,,,,,,,,,,,,,,,,,,,,,,,,,,,,,,,,,,,,,,,,,,,,,,,,,,,,,,,,,,,,1.7916666616996129,0.9091214999789372,538.7817414000165,None,ScrollUp,정답입니다,538.7817414000165,None,538.7817414000165,None,538.7817414000165,None,538.7817414000165,None,539.5871152000036,None,539.5871152000036,540.089888800052,,,,,,,,,,,,,,,,003,2022-05-05_17h55.30.347,FishGame,2022.1.1,60.024441957196174,
,25,나를 보내줘,6,Orange,A,0,0,ScrollUp,ScrollDown,Orange.png,4,NonTarget,NonTarget,0,0,0,0,,,,,,,,,,,,,,,,,,,,,,,,,0,24,24,24,,,,,,,,,,,,,,,,,,,,,,,,,,,,,,,,,,,,,,,,,,,,,,,,,,,,,,,,,,,,,,,,,,,,,,,,,1.6450617238879204,0.8949580000480637,540.7120787000749,None,ScrollUp,정답입니다,540.7120787000749,None,540.7120787000749,None,540.7120787000749,None,540.7120787000749,None,541.5037815000396,None,541.5037815000396,542.0065370000666,,,,,,,,,,,,,,,,003,2022-05-05_17h55.30.347,FishGame,2022.1.1,60.024441957196174,
,26,넌 시기심이 많아,5,Green,B,2.458333333333333,2.233333333333333,ScrollUp,ScrollDown,Green.png,4,Negative,Congruent,0,0,0,0,,,,,,,,,,,,,,,,,,,,,,,,,0,25,25,25,,,,,,,,,,,,,,,,,,,,,,,,,,,,,,,,,,,,,,,,,,,,,,,,,,,,,,,,,,,,,,,,,,,,,,,,,1.71913580596447,0.9431609000312164,542.629588700016,None,ScrollUp,정답입니다,542.629588700016,None,542.629588700016,None,542.629588700016,None,542.629588700016,None,543.4703123000218,None,543.4703123000218,543.9702873000642,,,,,,,,,,,,,,,,003,2022-05-05_17h55.30.347,FishGame,2022.1.1,60.024441957196174,
,27,넌 탁월해,2,Orange,A,5.708333333333334,4.5,ScrollDown,ScrollUp,Orange.png,4,Positive,Congruent,0,0,0,0,,,,,,,,,,,,,,,,,,,,,,,,,0,26,26,26,,,,,,,,,,,,,,,,,,,,,,,,,,,,,,,,,,,,,,,,,,,,,,,,,,,,,,,,,,,,,,,,,,,,,,,,,1.0370370149612427,0.8131025999318808,544.6007569000358,None,ScrollDown,정답입니다,544.6007569000358,None,544.6007569000358,None,544.6007569000358,None,544.6007569000358,None,545.3063353000907,None,545.3063353000907,545.8203386000823,,,,,,,,,,,,,,,,003,2022-05-05_17h55.30.347,FishGame,2022.1.1,60.024441957196174,
,28,나를 데려가줘,6,Green,B,0,0,ScrollDown,ScrollUp,Green.png,4,NonTarget,NonTarget,0,0,0,0,,,,,,,,,,,,,,,,,,,,,,,,,0,27,27,27,,,,,,,,,,,,,,,,,,,,,,,,,,,,,,,,,,,,,,,,,,,,,,,,,,,,,,,,,,,,,,,,,,,,,,,,,1.0617283880710602,1.0115590000059456,546.4434232000494,None,ScrollDown,정답입니다,546.4434232000494,None,546.4434232000494,None,546.4434232000494,None,546.4434232000494,None,547.3536766000325,None,547.3536766000325,547.8536941000493,,,,,,,,,,,,,,,,003,2022-05-05_17h55.30.347,FishGame,2022.1.1,60.024441957196174,
,29,넌 조용해,3,Green,B,4.333333333333333,4.166666666666667,ScrollUp,ScrollDown,Green.png,4,Neutral,Neutral,0,0,0,0,,,,,,,,,,,,,,,,,,,,,,,,,0,28,28,28,,,,,,,,,,,,,,,,,,,,,,,,,,,,,,,,,,,,,,,,,,,,,,,,,,,,,,,,,,,,,,,,,,,,,,,,,1.7345678955316544,1.0281392999459058,548.4867205000482,None,ScrollUp,정답입니다,548.4867205000482,None,548.4867205000482,None,548.4867205000482,None,548.4867205000482,None,549.4035642000381,None,549.4035642000381,549.9036181999836,,,,,,,,,,,,,,,,003,2022-05-05_17h55.30.347,FishGame,2022.1.1,60.024441957196174,
,30,넌 다정해,1,Orange,A,5.833333333333334,5.7,ScrollDown,ScrollUp,Orange.png,4,Positive,Congruent,0,0,0,0,,,,,,,,,,,,,,,,,,,,,,,,,0,29,29,29,,,,,,,,,,,,,,,,,,,,,,,,,,,,,,,,,,,,,,,,,,,,,,,,,,,,,,,,,,,,,,,,,,,,,,,,,1.0895061641931534,0.9114150999812409,550.5260556000285,None,ScrollDown,정답입니다,550.5260556000285,None,550.5260556000285,None,550.5260556000285,None,550.5260556000285,None,551.3365433000727,None,551.3365433000727,551.8365777999861,,,,,,,,,,,,,,,,003,2022-05-05_17h55.30.347,FishGame,2022.1.1,60.024441957196174,
,31,넌 능력있어,2,Green,B,6.166666666666666,4.6,ScrollUp,ScrollDown,Green.png,4,Positive,Incongruent,0,0,0,0,,,,,,,,,,,,,,,,,,,,,,,,,0,30,30,30,,,,,,,,,,,,,,,,,,,,,,,,,,,,,,,,,,,,,,,,,,,,,,,,,,,,,,,,,,,,,,,,,,,,,,,,,1.7006172885497413,1.1133866000454873,552.4584307000041,None,ScrollUp,정답입니다,552.4584307000041,None,552.4584307000041,None,552.4584307000041,None,552.4584307000041,None,553.4701568000019,None,553.4701568000019,553.9702366000274,,,,,,,,,,,,,,,,003,2022-05-05_17h55.30.347,FishGame,2022.1.1,60.024441957196174,
,32,넌 불쾌해,5,Orange,A,2.125,1.933333333333333,ScrollDown,ScrollUp,Orange.png,4,Negative,Incongruent,0,0,0,0,,,,,,,,,,,,,,,,,,,,,,,,,0,31,31,31,,,,,,,,,,,,,,,,,,,,,,,,,,,,,,,,,,,,,,,,,,,,,,,,,,,,,,,,,,,,,,,,,,,,,,,,,1.2037036965290706,0.9436704999534413,554.595335500082,None,ScrollDown,정답입니다,554.595335500082,None,554.595335500082,None,554.595335500082,None,554.595335500082,None,555.4367939999793,None,555.4367939999793,555.9442729000002,,,,,,,,,,,,,,,,003,2022-05-05_17h55.30.347,FishGame,2022.1.1,60.024441957196174,
,33,나를 데려가줘,6,Green,B,0,0,ScrollDown,ScrollUp,Green.png,4,NonTarget,NonTarget,0,0,0,0,,,,,,,,,,,,,,,,,,,,,,,,,0,32,32,32,,,,,,,,,,,,,,,,,,,,,,,,,,,,,,,,,,,,,,,,,,,,,,,,,,,,,,,,,,,,,,,,,,,,,,,,,1.0864197611808777,0.9297919999808073,556.5600474000676,None,ScrollDown,정답입니다,556.5600474000676,None,556.5600474000676,None,556.5600474000676,None,556.5600474000676,None,557.3863914000103,None,557.3863914000103,557.8865169000346,,,,,,,,,,,,,,,,003,2022-05-05_17h55.30.347,FishGame,2022.1.1,60.024441957196174,
,34,넌 유순해,3,Orange,A,4.458333333333333,5,ScrollDown,ScrollUp,Orange.png,4,Neutral,Neutral,0,0,0,0,,,,,,,,,,,,,,,,,,,,,,,,,0,33,33,33,,,,,,,,,,,,,,,,,,,,,,,,,,,,,,,,,,,,,,,,,,,,,,,,,,,,,,,,,,,,,,,,,,,,,,,,,1.0833333333333333,0.9452477999730036,558.5138423000462,None,ScrollDown,정답입니다,558.5138423000462,None,558.5138423000462,None,558.5138423000462,None,558.5138423000462,None,559.3533947999822,None,559.3533947999822,559.856300799991,,,,,,,,,,,,,,,,003,2022-05-05_17h55.30.347,FishGame,2022.1.1,60.024441957196174,
,35,넌 근심스러워,4,Green,B,2.708333333333333,3.133333333333333,ScrollUp,ScrollDown,Green.png,4,Negative,Congruent,0,0,0,0,,,,,,,,,,,,,,,,,,,,,,,,,0,34,34,34,,,,,,,,,,,,,,,,,,,,,,,,,,,,,,,,,,,,,,,,,,,,,,,,,,,,,,,,,,,,,,,,,,,,,,,,,1.8009259204069774,0.9109318000264466,560.4833081000252,None,ScrollUp,정답입니다,560.4833081000252,None,560.4833081000252,None,560.4833081000252,None,560.4833081000252,None,561.2866536000511,None,561.2866536000511,561.7866837000474,,,,,,,,,,,,,,,,003,2022-05-05_17h55.30.347,FishGame,2022.1.1,60.024441957196174,
,36,넌 세련되었어,2,Orange,A,5.5,4.6,ScrollDown,ScrollUp,Orange.png,4,Positive,Congruent,0,0,0,0,,,,,,,,,,,,,,,,,,,,,,,,,0,35,35,35,,,,,,,,,,,,,,,,,,,,,,,,,,,,,,,,,,,,,,,,,,,,,,,,,,,,,,,,,,,,,,,,,,,,,,,,,1.3040123408039412,0.8616516999900341,562.4184409000445,None,ScrollDown,정답입니다,562.4184409000445,None,562.4184409000445,None,562.4184409000445,None,562.4184409000445,None,563.1696041000541,None,563.1696041000541,563.6696820000652,,,,,,,,,,,,,,,,003,2022-05-05_17h55.30.347,FishGame,2022.1.1,60.024441957196174,
,37,나를 보내줘,6,Orange,A,0,0,ScrollUp,ScrollDown,Orange.png,4,NonTarget,NonTarget,0,0,0,0,,,,,,,,,,,,,,,,,,,,,,,,,0,36,36,36,,,,,,,,,,,,,,,,,,,,,,,,,,,,,,,,,,,,,,,,,,,,,,,,,,,,,,,,,,,,,,,,,,,,,,,,,1.632716049750646,0.9451990999514237,564.2943167000776,None,ScrollUp,정답입니다,564.2943167000776,None,564.2943167000776,None,564.2943167000776,None,564.2943167000776,None,565.1365987000754,None,565.1365987000754,565.6394110000692,,,,,,,,,,,,,,,,003,2022-05-05_17h55.30.347,FishGame,2022.1.1,60.024441957196174,
,38,넌 확고해,3,Green,B,4.708333333333334,4.566666666666666,ScrollUp,ScrollDown,Green.png,4,Neutral,Neutral,0,0,0,0,,,,,,,,,,,,,,,,,,,,,,,,,0,37,37,37,,,,,,,,,,,,,,,,,,,,,,,,,,,,,,,,,,,,,,,,,,,,,,,,,,,,,,,,,,,,,,,,,,,,,,,,,1.6851851865649223,1.0611923000542447,566.263134000008,None,ScrollUp,정답입니다,566.263134000008,None,566.263134000008,None,566.263134000008,None,566.263134000008,None,567.222628800082,None,567.222628800082,567.7227987999795,,,,,,,,,,,,,,,,003,2022-05-05_17h55.30.347,FishGame,2022.1.1,60.024441957196174,
,39,넌 이해심이 많아,1,Green,B,6.041666666666668,5.533333333333333,ScrollUp,ScrollDown,Green.png,4,Positive,Incongruent,0,0,0,0,,,,,,,,,,,,,,,,,,,,,,,,,0,38,38,38,,,,,,,,,,,,,,,,,,,,,,,,,,,,,,,,,,,,,,,,,,,,,,,,,,,,,,,,,,,,,,,,,,,,,,,,,1.4166666654249032,1.0296273999847472,568.3564609000459,None,ScrollDown,오답입니다,568.3564609000459,None,568.3564609000459,None,568.3564609000459,None,568.3564609000459,None,569.2861267999979,None,569.2861267999979,569.7862080000341,,,,,,,,,,,,,,,,003,2022-05-05_17h55.30.347,FishGame,2022.1.1,60.024441957196174,
,40,나를 보내줘,6,Orange,A,0,0,ScrollUp,ScrollDown,Orange.png,4,NonTarget,NonTarget,0,0,0,0,,,,,,,,,,,,,,,,,,,,,,,,,0,39,39,39,,,,,,,,,,,,,,,,,,,,,,,,,,,,,,,,,,,,,,,,,,,,,,,,,,,,,,,,,,,,,,,,,,,,,,,,,1.7685185273488362,1.2952575999079272,570.412654899992,None,ScrollUp,정답입니다,570.412654899992,None,570.412654899992,None,570.412654899992,None,570.412654899992,None,571.6031100000255,None,571.6031100000255,572.1031854000175,,,,,,,,,,,,,,,,003,2022-05-05_17h55.30.347,FishGame,2022.1.1,60.024441957196174,
,41,넌 거칠어,4,Orange,A,2.625,3.033333333333333,ScrollDown,ScrollUp,Orange.png,4,Negative,Incongruent,0,0,0,0,,,,,,,,,,,,,,,,,,,,,,,,,0,40,40,40,,,,,,,,,,,,,,,,,,,,,,,,,,,,,,,,,,,,,,,,,,,,,,,,,,,,,,,,,,,,,,,,,,,,,,,,,1,1.1451107000466436,572.7313352000201,None,ScrollDown,정답입니다,572.7313352000201,None,572.7313352000201,None,572.7313352000201,None,572.7313352000201,None,573.7726521000732,None,573.7726521000732,574.2860981000122,,,,,,,,,,,,,,,,003,2022-05-05_17h55.30.347,FishGame,2022.1.1,60.024441957196174,
,42,넌 변덕맞아,5,Green,B,2.75,2.166666666666667,ScrollUp,ScrollDown,Green.png,4,Negative,Congruent,0,0,0,0,,,,,,,,,,,,,,,,,,,,,,,,,0,41,41,41,,,,,,,,,,,,,,,,,,,,,,,,,,,,,,,,,,,,,,,,,,,,,,,,,,,,,,,,,,,,,,,,,,,,,,,,,1.9984568059444427,1.028474299935624,574.913345900015,None,ScrollUp,정답입니다,574.913345900015,None,574.913345900015,None,574.913345900015,None,574.913345900015,None,575.8360245000804,None,575.8360245000804,576.3361163000809,,,,,,,,,,,,,,,,003,2022-05-05_17h55.30.347,FishGame,2022.1.1,60.024441957196174,
,43,나를 데려가줘,6,Green,B,0,0,ScrollDown,ScrollUp,Green.png,4,NonTarget,NonTarget,0,0,0,0,,,,,,,,,,,,,,,,,,,,,,,,,0,42,42,42,,,,,,,,,,,,,,,,,,,,,,,,,,,,,,,,,,,,,,,,,,,,,,,,,,,,,,,,,,,,,,,,,,,,,,,,,1.0864197611808777,1.0119657999603078,576.9629303000402,None,ScrollDown,정답입니다,576.9629303000402,None,576.9629303000402,None,576.9629303000402,None,576.9629303000402,None,577.8724359000335,None,577.8724359000335,578.3863416999811,,,,,,,,,,,,,,,,003,2022-05-05_17h55.30.347,FishGame,2022.1.1,60.024441957196174,
,44,넌 외로워,4,Green,B,2.833333333333333,3.3,ScrollUp,ScrollDown,Green.png,4,Negative,Congruent,0,0,0,0,,,,,,,,,,,,,,,,,,,,,,,,,0,43,43,43,,,,,,,,,,,,,,,,,,,,,,,,,,,,,,,,,,,,,,,,,,,,,,,,,,,,,,,,,,,,,,,,,,,,,,,,,1.8935185074806213,1.1437810000497848,578.9951271000318,None,ScrollUp,정답입니다,578.9951271000318,None,578.9951271000318,None,578.9951271000318,None,578.9951271000318,None,580.036225900054,None,580.036225900054,580.5390916999895,,,,,,,,,,,,,,,,003,2022-05-05_17h55.30.347,FishGame,2022.1.1,60.024441957196174,
,1,넌 불평스러워,5,Orange,A,2.25,2.066666666666667,ScrollDown,ScrollUp,Orange.png,5,Negative,Incongruent,0,0,0,0,,,,,,,,,,,,,,,,,,,,,,,,,,,,,0,0,0,0,,,,,,,,,,,,,,,,,,,,,,,,,,,,615.5019584000111,617.0051585000474,617.0384704000317,617.9884711999912,618.038406800013,619.0050423999783,618.9854011000134,None,,,,,,,,,,,,,,,,,,,,,,,,,,,,,,,,,,1,1.3121513999067247,620.0927624000469,None,ScrollDown,정답입니다,620.0927624000469,None,620.0927624000469,None,620.0927624000469,None,620.0927624000469,None,621.3019433000591,None,621.3019433000591,621.8020632000407,581.0362032999983,None,581.0362032999983,None,0.16851851,-0.23981482,1,0,0,0.01629256014712155,None,611.0356153000612,None,,,003,2022-05-05_17h55.30.347,FishGame,2022.1.1,60.024441957196174,
,2,나를 보내줘,6,Orange,A,0,0,ScrollUp,ScrollDown,Orange.png,5,NonTarget,NonTarget,0,0,0,0,,,,,,,,,,,,,,,,,,,,,,,,,,,,,0,1,1,1,,,,,,,,,,,,,,,,,,,,,,,,,,,,,,,,,,,,,,,,,,,,,,,,,,,,,,,,,,,,,,,,,,,,,1.89969136317571,1.108751800027676,622.4275651000207,None,ScrollUp,정답입니다,622.4275651000207,None,622.4275651000207,None,622.4275651000207,None,622.4275651000207,None,623.438259000075,None,623.438259000075,623.9353151000105,,,,,,,,,,,,,,,,003,2022-05-05_17h55.30.347,FishGame,2022.1.1,60.024441957196174,
,3,넌 다재다능해,2,Green,B,6.208333333333333,4.5,ScrollUp,ScrollDown,Green.png,5,Positive,Incongruent,0,0,0,0,,,,,,,,,,,,,,,,,,,,,,,,,,,,,0,2,2,2,,,,,,,,,,,,,,,,,,,,,,,,,,,,,,,,,,,,,,,,,,,,,,,,,,,,,,,,,,,,,,,,,,,,,2,1.2101851999759674,624.5585121000186,None,ScrollUp,정답입니다,624.5585121000186,None,624.5585121000186,None,624.5585121000186,None,624.5585121000186,None,625.6685677000787,None,625.6685677000787,626.1682275000494,,,,,,,,,,,,,,,,003,2022-05-05_17h55.30.347,FishGame,2022.1.1,60.024441957196174,
,4,넌 과감해,3,Orange,A,4.833333333333334,4.6,ScrollDown,ScrollUp,Orange.png,5,Neutral,Neutral,0,0,0,0,,,,,,,,,,,,,,,,,,,,,,,,,,,,,0,3,3,3,,,,,,,,,,,,,,,,,,,,,,,,,,,,,,,,,,,,,,,,,,,,,,,,,,,,,,,,,,,,,,,,,,,,,1,0.9945964999496937,626.7927950000158,None,ScrollDown,정답입니다,626.7927950000158,None,626.7927950000158,None,626.7927950000158,None,626.7927950000158,None,627.6848763000453,None,627.6848763000453,628.1850058999844,,,,,,,,,,,,,,,,003,2022-05-05_17h55.30.347,FishGame,2022.1.1,60.024441957196174,
,5,넌 고분고분해,3,Green,B,3.75,4.033333333333333,ScrollUp,ScrollDown,Green.png,5,Neutral,Neutral,0,0,0,0,,,,,,,,,,,,,,,,,,,,,,,,,,,,,0,4,4,4,,,,,,,,,,,,,,,,,,,,,,,,,,,,,,,,,,,,,,,,,,,,,,,,,,,,,,,,,,,,,,,,,,,,,1.9135802388191223,0.9784890000009909,628.804716499988,None,ScrollUp,정답입니다,628.804716499988,None,628.804716499988,None,628.804716499988,None,628.804716499988,None,629.6848992999876,None,629.6848992999876,630.1880623000907,,,,,,,,,,,,,,,,003,2022-05-05_17h55.30.347,FishGame,2022.1.1,60.024441957196174,
,6,나를 보내줘,6,Orange,A,0,0,ScrollUp,ScrollDown,Orange.png,5,NonTarget,NonTarget,0,0,0,0,,,,,,,,,,,,,,,,,,,,,,,,,,,,,0,5,5,5,,,,,,,,,,,,,,,,,,,,,,,,,,,,,,,,,,,,,,,,,,,,,,,,,,,,,,,,,,,,,,,,,,,,,1.7160493781169257,1.0625912999967113,630.8053116999799,None,ScrollUp,정답입니다,630.8053116999799,None,630.8053116999799,None,630.8053116999799,None,630.8053116999799,None,631.7714298000792,None,631.7714298000792,632.2880636000773,,,,,,,,,,,,,,,,003,2022-05-05_17h55.30.347,FishGame,2022.1.1,60.024441957196174,
,7,넌 잘 잊어,4,Orange,A,3,3.7,ScrollDown,ScrollUp,Orange.png,5,Negative,Incongruent,0,0,0,0,,,,,,,,,,,,,,,,,,,,,,,,,,,,,0,6,6,6,,,,,,,,,,,,,,,,,,,,,,,,,,,,,,,,,,,,,,,,,,,,,,,,,,,,,,,,,,,,,,,,,,,,,1.0787036915620167,0.9783683000132442,632.896633700002,None,ScrollDown,정답입니다,632.896633700002,None,632.896633700002,None,632.896633700002,None,632.896633700002,None,633.7683212000411,None,633.7683212000411,634.2683994000545,,,,,,,,,,,,,,,,003,2022-05-05_17h55.30.347,FishGame,2022.1.1,60.024441957196174,
,8,넌 탐구심이없어,4,Green,B,2.833333333333333,3.066666666666667,ScrollUp,ScrollDown,Green.png,5,Negative,Congruent,0,0,0,0,,,,,,,,,,,,,,,,,,,,,,,,,,,,,0,7,7,7,,,,,,,,,,,,,,,,,,,,,,,,,,,,,,,,,,,,,,,,,,,,,,,,,,,,,,,,,,,,,,,,,,,,,1.7222222338120141,0.8947182999690995,634.8944936000044,None,ScrollUp,정답입니다,634.8944936000044,None,634.8944936000044,None,634.8944936000044,None,634.8944936000044,None,635.6849811000284,None,635.6849811000284,636.1850624000654,,,,,,,,,,,,,,,,003,2022-05-05_17h55.30.347,FishGame,2022.1.1,60.024441957196174,
,9,나를 데려가줘,6,Green,B,0,0,ScrollDown,ScrollUp,Green.png,5,NonTarget,NonTarget,0,0,0,0,,,,,,,,,,,,,,,,,,,,,,,,,,,,,0,8,8,8,,,,,,,,,,,,,,,,,,,,,,,,,,,,,,,,,,,,,,,,,,,,,,,,,,,,,,,,,,,,,,,,,,,,,1.0509259402751923,1.096277500037104,636.8052139000501,None,ScrollDown,정답입니다,636.8052139000501,None,636.8052139000501,None,636.8052139000501,None,636.8052139000501,None,637.8016044000397,None,637.8016044000397,638.3016777000157,,,,,,,,,,,,,,,,003,2022-05-05_17h55.30.347,FishGame,2022.1.1,60.024441957196174,
,10,넌 참되어,2,Orange,A,6.041666666666664,4.733333333333333,ScrollDown,ScrollUp,Orange.png,5,Positive,Congruent,0,0,0,0,,,,,,,,,,,,,,,,,,,,,,,,,,,,,0,9,9,9,,,,,,,,,,,,,,,,,,,,,,,,,,,,,,,,,,,,,,,,,,,,,,,,,,,,,,,,,,,,,,,,,,,,,1.180555562178294,0.8946661999216303,638.9320177000482,None,ScrollDown,정답입니다,638.9320177000482,None,638.9320177000482,None,638.9320177000482,None,638.9320177000482,None,639.7182884999784,None,639.7182884999784,640.2183257000288,,,,,,,,,,,,,,,,003,2022-05-05_17h55.30.347,FishGame,2022.1.1,60.024441957196174,
,11,넌 생기있어,1,Green,B,5.875,5.633333333333334,ScrollUp,ScrollDown,Green.png,5,Positive,Incongruent,0,0,0,0,,,,,,,,,,,,,,,,,,,,,,,,,,,,,0,10,10,10,,,,,,,,,,,,,,,,,,,,,,,,,,,,,,,,,,,,,,,,,,,,,,,,,,,,,,,,,,,,,,,,,,,,,1.8858024626970291,1.0781535999849439,640.8364223000826,None,ScrollUp,정답입니다,640.8364223000826,None,640.8364223000826,None,640.8364223000826,None,640.8364223000826,None,641.8179082000861,None,641.8179082000861,642.317989800009,,,,,,,,,,,,,,,,003,2022-05-05_17h55.30.347,FishGame,2022.1.1,60.024441957196174,
,12,넌 비사교적이야,4,Green,B,2.875,2.9,ScrollUp,ScrollDown,Green.png,5,Negative,Congruent,0,0,0,0,,,,,,,,,,,,,,,,,,,,,,,,,,,,,0,11,11,11,,,,,,,,,,,,,,,,,,,,,,,,,,,,,,,,,,,,,,,,,,,,,,,,,,,,,,,,,,,,,,,,,,,,,1.9706790049870808,1.0116947999922559,642.9384456999833,None,ScrollUp,정답입니다,642.9384456999833,None,642.9384456999833,None,642.9384456999833,None,642.9384456999833,None,643.851575299981,None,643.851575299981,644.351640000008,,,,,,,,,,,,,,,,003,2022-05-05_17h55.30.347,FishGame,2022.1.1,60.024441957196174,
,13,나를 데려가줘,6,Green,B,0,0,ScrollDown,ScrollUp,Green.png,5,NonTarget,NonTarget,0,0,0,0,,,,,,,,,,,,,,,,,,,,,,,,,,,,,0,12,12,12,,,,,,,,,,,,,,,,,,,,,,,,,,,,,,,,,,,,,,,,,,,,,,,,,,,,,,,,,,,,,,,,,,,,,1.1388888855775197,0.9257532000774518,644.9732262000907,None,ScrollDown,정답입니다,644.9732262000907,None,644.9732262000907,None,644.9732262000907,None,644.9732262000907,None,645.8015116000315,None,645.8015116000315,646.3015348000918,,,,,,,,,,,,,,,,003,2022-05-05_17h55.30.347,FishGame,2022.1.1,60.024441957196174,
,14,넌 고독해,4,Orange,A,2.916666666666667,3.233333333333333,ScrollDown,ScrollUp,Orange.png,5,Negative,Incongruent,0,0,0,0,,,,,,,,,,,,,,,,,,,,,,,,,,,,,0,13,13,13,,,,,,,,,,,,,,,,,,,,,,,,,,,,,,,,,,,,,,,,,,,,,,,,,,,,,,,,,,,,,,,,,,,,,1.1635802586873372,0.9281754000112414,646.9223639999982,None,ScrollDown,정답입니다,646.9223639999982,None,646.9223639999982,None,646.9223639999982,None,646.9223639999982,None,647.7511230000528,None,647.7511230000528,648.251198300044,,,,,,,,,,,,,,,,003,2022-05-05_17h55.30.347,FishGame,2022.1.1,60.024441957196174,
,15,넌 신경질적이야,5,Green,B,2.375,2.233333333333333,ScrollUp,ScrollDown,Green.png,5,Negative,Congruent,0,0,0,0,,,,,,,,,,,,,,,,,,,,,,,,,,,,,0,14,14,14,,,,,,,,,,,,,,,,,,,,,,,,,,,,,,,,,,,,,,,,,,,,,,,,,,,,,,,,,,,,,,,,,,,,,1.9012345770994823,1.0450261000078171,648.8860003000591,None,ScrollUp,정답입니다,648.8860003000591,None,648.8860003000591,None,648.8860003000591,None,648.8860003000591,None,649.8181085999822,None,649.8181085999822,650.3209326000651,,,,,,,,,,,,,,,,003,2022-05-05_17h55.30.347,FishGame,2022.1.1,60.024441957196174,
,16,넌 똑똑해,2,Green,B,5.666666666666667,3.966666666666667,ScrollUp,ScrollDown,Green.png,5,Positive,Incongruent,0,0,0,0,,,,,,,,,,,,,,,,,,,,,,,,,,,,,0,15,15,15,,,,,,,,,,,,,,,,,,,,,,,,,,,,,,,,,,,,,,,,,,,,,,,,,,,,,,,,,,,,,,,,,,,,,1.9027777661879857,1.0089321999112144,650.9436658000341,None,ScrollUp,정답입니다,650.9436658000341,None,650.9436658000341,None,650.9436658000341,None,650.9436658000341,None,651.8514272000175,None,651.8514272000175,652.3543645000318,,,,,,,,,,,,,,,,003,2022-05-05_17h55.30.347,FishGame,2022.1.1,60.024441957196174,
,17,나를 보내줘,6,Orange,A,0,0,ScrollUp,ScrollDown,Orange.png,5,NonTarget,NonTarget,0,0,0,0,,,,,,,,,,,,,,,,,,,,,,,,,,,,,0,16,16,16,,,,,,,,,,,,,,,,,,,,,,,,,,,,,,,,,,,,,,,,,,,,,,,,,,,,,,,,,,,,,,,,,,,,,1.703703703979651,1.0948807999957353,652.9704249000642,None,ScrollUp,정답입니다,652.9704249000642,None,652.9704249000642,None,652.9704249000642,None,652.9704249000642,None,653.9676503000082,None,653.9676503000082,654.4677299000323,,,,,,,,,,,,,,,,003,2022-05-05_17h55.30.347,FishGame,2022.1.1,60.024441957196174,
,18,넌 협조적이야,1,Orange,A,5.625,5.666666666666667,ScrollDown,ScrollUp,Orange.png,5,Positive,Congruent,0,0,0,0,,,,,,,,,,,,,,,,,,,,,,,,,,,,,0,17,17,17,,,,,,,,,,,,,,,,,,,,,,,,,,,,,,,,,,,,,,,,,,,,,,,,,,,,,,,,,,,,,,,,,,,,,1,0.8951285999501124,655.0910400000867,None,ScrollDown,정답입니다,655.0910400000867,None,655.0910400000867,None,655.0910400000867,None,655.0910400000867,None,655.884664400015,None,655.884664400015,656.3847075999947,,,,,,,,,,,,,,,,003,2022-05-05_17h55.30.347,FishGame,2022.1.1,60.024441957196174,
,19,나를 데려가줘,6,Green,B,0,0,ScrollDown,ScrollUp,Green.png,5,NonTarget,NonTarget,0,0,0,0,,,,,,,,,,,,,,,,,,,,,,,,,,,,,0,18,18,18,,,,,,,,,,,,,,,,,,,,,,,,,,,,,,,,,,,,,,,,,,,,,,,,,,,,,,,,,,,,,,,,,,,,,1.1018518507480621,1.0922700999071822,657.0067700999789,None,ScrollDown,정답입니다,657.0067700999789,None,657.0067700999789,None,657.0067700999789,None,657.0067700999789,None,658.0013627000153,None,658.0013627000153,658.5040269000456,,,,,,,,,,,,,,,,003,2022-05-05_17h55.30.347,FishGame,2022.1.1,60.024441957196174,
,20,넌 몰인정해,5,Green,B,2.541666666666667,2.066666666666667,ScrollUp,ScrollDown,Green.png,5,Negative,Congruent,0,0,0,0,,,,,,,,,,,,,,,,,,,,,,,,,,,,,0,19,19,19,,,,,,,,,,,,,,,,,,,,,,,,,,,,,,,,,,,,,,,,,,,,,,,,,,,,,,,,,,,,,,,,,,,,,1.9182098805904388,0.9949667000910267,659.1226033000275,None,ScrollUp,정답입니다,659.1226033000275,None,659.1226033000275,None,659.1226033000275,None,659.1226033000275,None,660.0175265000435,None,660.0175265000435,660.5176010000287,,,,,,,,,,,,,,,,003,2022-05-05_17h55.30.347,FishGame,2022.1.1,60.024441957196174,
,21,나를 데려가줘,6,Green,B,0,0,ScrollDown,ScrollUp,Green.png,5,NonTarget,NonTarget,0,0,0,0,,,,,,,,,,,,,,,,,,,,,,,,,,,,,0,20,20,20,,,,,,,,,,,,,,,,,,,,,,,,,,,,,,,,,,,,,,,,,,,,,,,,,,,,,,,,,,,,,,,,,,,,,1.1311728407939274,1.0118623999878764,661.1406661000801,None,ScrollDown,정답입니다,661.1406661000801,None,661.1406661000801,None,661.1406661000801,None,661.1406661000801,None,662.0511706999969,None,662.0511706999969,662.5512046000222,,,,,,,,,,,,,,,,003,2022-05-05_17h55.30.347,FishGame,2022.1.1,60.024441957196174,
,22,넌 순진해,3,Green,B,4.125,4.166666666666667,ScrollUp,ScrollDown,Green.png,5,Neutral,Neutral,0,0,0,0,,,,,,,,,,,,,,,,,,,,,,,,,,,,,0,21,21,21,,,,,,,,,,,,,,,,,,,,,,,,,,,,,,,,,,,,,,,,,,,,,,,,,,,,,,,,,,,,,,,,,,,,,1.71296297510465,0.9482359000248834,663.1657200000482,None,ScrollUp,정답입니다,663.1657200000482,None,663.1657200000482,None,663.1657200000482,None,663.1657200000482,None,664.0177845000289,None,664.0177845000289,664.5178967000684,,,,,,,,,,,,,,,,003,2022-05-05_17h55.30.347,FishGame,2022.1.1,60.024441957196174,
