name,TrialNum,Word,WordCategory,FishType,WordList,WordValence,WordReputation,CorrectResp,IncorrectResp,FishTypeFile,Round,WordType,Condition,LoopforOrange.thisRepN,LoopforOrange.thisTrialN,LoopforOrange.thisN,LoopforOrange.thisIndex,LoopForGreen.thisRepN,LoopForGreen.thisTrialN,LoopForGreen.thisN,LoopForGreen.thisIndex,GreenInstLoop.thisRepN,GreenInstLoop.thisTrialN,GreenInstLoop.thisN,GreenInstLoop.thisIndex,GreenPrac.thisRepN,GreenPrac.thisTrialN,GreenPrac.thisN,GreenPrac.thisIndex,trials_2.thisRepN,trials_2.thisTrialN,trials_2.thisN,trials_2.thisIndex,GreenRound1.thisRepN,GreenRound1.thisTrialN,GreenRound1.thisN,GreenRound1.thisIndex,GreenRound2.thisRepN,GreenRound2.thisTrialN,GreenRound2.thisN,GreenRound2.thisIndex,GreenRound3.thisRepN,GreenRound3.thisTrialN,GreenRound3.thisN,GreenRound3.thisIndex,GreenRound4.thisRepN,GreenRound4.thisTrialN,GreenRound4.thisN,GreenRound4.thisIndex,GreenRound5.thisRepN,GreenRound5.thisTrialN,GreenRound5.thisN,GreenRound5.thisIndex,text_2.started,text_2.stopped,text_3.started,text_3.stopped,key_resp.keys,key_resp.rt,key_resp.started,key_resp.stopped,PassI.started,PassI.stopped,PassInst.keys,PassInst.rt,PassInst.started,PassInst.stopped,mouse_2.x,mouse_2.y,mouse_2.leftButton,mouse_2.midButton,mouse_2.rightButton,mouse_2.started,mouse_2.stopped,image.started,image.stopped,text_5.started,text_5.stopped,text_6.started,text_6.stopped,text_7.started,text_7.stopped,text_8.started,text_8.stopped,slider_3.response,slider_3.rt,slider_3.started,slider_3.stopped,Response_3,Feedback_3,BackGround_3.started,BackGround_3.stopped,Fish_3.started,Fish_3.stopped,WordBox_3.started,WordBox_3.stopped,Words_3.started,Words_3.stopped,BackGround_Feedback_3.started,BackGround_Feedback_3.stopped,Feedbacks_3.started,Feedbacks_3.stopped,Continue_or_not_2.keys,Continue_or_not_2.rt,Continue_or_not_2.started,Continue_or_not_2.stopped,image_4.started,image_4.stopped,mouse_3.x,mouse_3.y,mouse_3.leftButton,mouse_3.midButton,mouse_3.rightButton,mouse_3.started,mouse_3.stopped,startmain.started,startmain.stopped,slider_4.response,slider_4.rt,slider_4.started,slider_4.stopped,Response_4,Feedback_4,BackGround_4.started,BackGround_4.stopped,Fish_4.started,Fish_4.stopped,WordBox_4.started,WordBox_4.stopped,Words_4.started,Words_4.stopped,BackGround_Feedback_4.started,BackGround_Feedback_4.stopped,Feedbacks_4.started,Feedbacks_4.stopped,text.started,text.stopped,break_interval.started,break_interval.stopped,mouse.x,mouse.y,mouse.leftButton,mouse.midButton,mouse.rightButton,mouse.started,mouse.stopped,stratnextround.started,stratnextround.stopped,endgame.started,endgame.stopped,participant,date,expName,psychopyVersion,frameRate,
,,,,,,,,,,,,,,,,,,,,,,,,,,,,,,,,,,,,,,,,,,,,,,,,,,,,,,18.62054569995962,None,18.62054569995962,None,space,4.700533400056884,19.106900100014172,None,,,,,,,,,,,,,,,,,,,,,,,,,,,,,,,,,,,,,,,,,,,,,,,,,,,,,,,,,,,,,,,,,,,,,,,,,,,,,,,,,,,,,,,,,,004,2022-05-06_10h51.26.878,FishGame,2022.1.1,59.8074320539405,
물고기과제_instruction(참가자용)GreenVersion.mp4,,,,,,,,,,,,,,,,,,0,0,0,0,0,0,0,0,,,,,,,,,,,,,,,,,,,,,,,,,,,,,,,,,,,,,100.80525129998568,None,n,8.530260000028647,100.80525129998568,None,,,,,,,,,,,,,,,,,,,,,,,,,,,,,,,,,,,,,,,,,,,,,,,,,,,,,,,,,,,,,,,,,,,,,,,,,,,,,,,,,,,,004,2022-05-06_10h51.26.878,FishGame,2022.1.1,59.8074320539405,
,1,넌 교활해,5,Orange,B,2.333333333333333,2.133333333333333,ScrollUp,ScrollDown,Orange.png,practice,,,,,,,0,0,0,0,,,,,0,0,0,0,0,0,0,0,,,,,,,,,,,,,,,,,,,,,,,,,,,,,,,,,,,0.028703704,-0.21851853,1,0,0,0.5154889199184254,None,109.35510129993781,None,113.85747159994207,115.35732279997319,115.38853999995627,116.33830349997152,116.39061289990786,117.35493219993077,117.34068369993474,None,2,2.1812915999908,118.65520319994539,None,ScrollUp,정답입니다,118.65520319994539,None,118.65520319994539,None,118.65520319994539,None,118.65520319994539,None,120.53815089992713,None,120.53815089992713,121.03820810001343,,,,,,,,,,,,,,,,,,,,,,,,,,,,,,,,,,,,,,,,,,,,,,,,,004,2022-05-06_10h51.26.878,FishGame,2022.1.1,59.8074320539405,
,2,넌 슬기로워,2,Green,A,6.166666666666667,4.1,ScrollDown,ScrollUp,Green.png,practice,,,,,,,0,0,0,0,,,,,0,0,0,0,0,1,1,1,,,,,,,,,,,,,,,,,,,,,,,,,,,,,,,,,,,,,,,,,,,,,,,,,,,,1,1.1586513000074774,121.65981959993951,None,ScrollDown,정답입니다,121.65981959993951,None,121.65981959993951,None,121.65981959993951,None,121.65981959993951,None,122.72139700001571,None,122.72139700001571,123.22150809993036,,,,,,,,,,,,,,,,,,,,,,,,,,,,,,,,,,,,,,,,,,,,,,,,,004,2022-05-06_10h51.26.878,FishGame,2022.1.1,59.8074320539405,
,3,나를 보내줘,6,Green,A,0,0,ScrollUp,ScrollDown,Green.png,practice,,,,,,,0,0,0,0,,,,,0,0,0,0,0,2,2,2,,,,,,,,,,,,,,,,,,,,,,,,,,,,,,,,,,,,,,,,,,,,,,,,,,,,2,1.2789810999529436,123.84398769994732,None,ScrollUp,정답입니다,123.84398769994732,None,123.84398769994732,None,123.84398769994732,None,123.84398769994732,None,125.02140119997784,None,125.02140119997784,125.5214347000001,,,,,,,,,,,,,,,,,,,,,,,,,,,,,,,,,,,,,,,,,,,,,,,,,004,2022-05-06_10h51.26.878,FishGame,2022.1.1,59.8074320539405,
,4,나를 데려가줘,6,Orange,B,0,0,ScrollDown,ScrollUp,Orange.png,practice,,,,,,,0,0,0,0,,,,,0,0,0,0,0,3,3,3,,,,,,,,,,,,,,,,,,,,,,,,,,,,,,,,,,,,,,,,,,,,,,,,,,,,1,1.4421670999145135,126.14398509997409,None,ScrollDown,정답입니다,126.14398509997409,None,126.14398509997409,None,126.14398509997409,None,126.14398509997409,None,127.48772739991546,None,127.48772739991546,127.98783040000126,,,,,,,,,,,,,,,,,,,,,,,,,,,,,,,,,,,,,,,,,,,,,,,,,004,2022-05-06_10h51.26.878,FishGame,2022.1.1,59.8074320539405,
,1,넌 교활해,5,Orange,B,2.333333333333333,2.133333333333333,ScrollUp,ScrollDown,Orange.png,practice,,,,,,,0,0,0,0,,,,,0,0,0,0,,,,,,,,,,,,,,,,,,,,,,,,,,,,,,,,,,,,,,,,,,,,,,,,,,,,,,,,,,,,,,,,,,,,,,,,,,n,8.039977699983865,128.48784999991767,None,128.48784999991767,None,,,,,,,,,,,,,,,,,,,,,,,,,,,,,,,,,,,,,,,,,,,004,2022-05-06_10h51.26.878,FishGame,2022.1.1,59.8074320539405,
,1,넌 따뜻해,1,Orange,B,6.083333333333333,5.6,ScrollUp,ScrollDown,Orange.png,1,Positive,Incongruent,,,,,0,0,0,0,,,,,,,,,,,,,0,0,0,0,,,,,,,,,,,,,,,,,,,,,,,,,,,,,,,,,,,,,,,,140.17112939991057,141.67103069997393,141.7044175999472,142.65681770001538,142.70681040000636,143.67122519994155,143.65438959992025,None,,,,,,,,,,,,,,,,,,,,,,,,,-0.016666668,-0.12037037,1,0,0,0.31400082004256546,None,136.55449669994414,None,2,1.865459099994041,144.95471059996635,None,ScrollUp,정답입니다,144.95471059996635,None,144.95471059996635,None,144.95471059996635,None,144.95471059996635,None,146.52095859998371,None,146.52095859998371,147.0267007999355,,,,,,,,,,,,,,,,004,2022-05-06_10h51.26.878,FishGame,2022.1.1,59.8074320539405,
,2,넌 기품있어,2,Orange,B,5.791666666666668,4.5,ScrollUp,ScrollDown,Orange.png,1,Positive,Incongruent,,,,,0,0,0,0,,,,,,,,,,,,,0,1,1,1,,,,,,,,,,,,,,,,,,,,,,,,,,,,,,,,,,,,,,,,,,,,,,,,,,,,,,,,,,,,,,,,,,,,,,,,,,,,,,,,,1.5478395074605942,1.2782505999784917,147.6467135999119,None,NoResponse,무응답입니다,147.6467135999119,None,147.6467135999119,None,147.6467135999119,None,147.6467135999119,None,148.8208402999444,None,148.8208402999444,149.3209199999692,,,,,,,,,,,,,,,,004,2022-05-06_10h51.26.878,FishGame,2022.1.1,59.8074320539405,
,3,나를 보내줘,6,Green,A,0,0,ScrollUp,ScrollDown,Green.png,1,NonTarget,NonTarget,,,,,0,0,0,0,,,,,,,,,,,,,0,2,2,2,,,,,,,,,,,,,,,,,,,,,,,,,,,,,,,,,,,,,,,,,,,,,,,,,,,,,,,,,,,,,,,,,,,,,,,,,,,,,,,,,2,1.4111194000579417,149.95629659993574,None,ScrollUp,정답입니다,149.95629659993574,None,149.95629659993574,None,149.95629659993574,None,149.95629659993574,None,151.25418679998256,None,151.25418679998256,151.75418889999855,,,,,,,,,,,,,,,,004,2022-05-06_10h51.26.878,FishGame,2022.1.1,59.8074320539405,
,4,넌 수동적이야,4,Green,A,2.833333333333333,2.933333333333333,ScrollDown,ScrollUp,Green.png,1,Negative,Incongruent,,,,,0,0,0,0,,,,,,,,,,,,,0,3,3,3,,,,,,,,,,,,,,,,,,,,,,,,,,,,,,,,,,,,,,,,,,,,,,,,,,,,,,,,,,,,,,,,,,,,,,,,,,,,,,,,,1,1.9814017000608146,152.37789969996084,None,ScrollDown,정답입니다,152.37789969996084,None,152.37789969996084,None,152.37789969996084,None,152.37789969996084,None,154.25405779993162,None,154.25405779993162,154.75631039997097,,,,,,,,,,,,,,,,004,2022-05-06_10h51.26.878,FishGame,2022.1.1,59.8074320539405,
,5,넌 사심이 없어,3,Orange,B,4.916666666666666,4.333333333333333,ScrollUp,ScrollDown,Orange.png,1,Neutral,Neutral,,,,,0,0,0,0,,,,,,,,,,,,,0,4,4,4,,,,,,,,,,,,,,,,,,,,,,,,,,,,,,,,,,,,,,,,,,,,,,,,,,,,,,,,,,,,,,,,,,,,,,,,,,,,,,,,,2,1.3425900000147521,155.3825467999559,None,ScrollUp,정답입니다,155.3825467999559,None,155.3825467999559,None,155.3825467999559,None,155.3825467999559,None,156.6230157999089,None,156.6230157999089,157.1374529999448,,,,,,,,,,,,,,,,004,2022-05-06_10h51.26.878,FishGame,2022.1.1,59.8074320539405,
,6,넌 헤퍼,5,Green,A,2.458333333333334,2.233333333333333,ScrollDown,ScrollUp,Green.png,1,Negative,Incongruent,,,,,0,0,0,0,,,,,,,,,,,,,0,5,5,5,,,,,,,,,,,,,,,,,,,,,,,,,,,,,,,,,,,,,,,,,,,,,,,,,,,,,,,,,,,,,,,,,,,,,,,,,,,,,,,,,1,1.3926992999622598,157.7531677999068,None,ScrollDown,정답입니다,157.7531677999068,None,157.7531677999068,None,157.7531677999068,None,157.7531677999068,None,159.03740629996173,None,159.03740629996173,159.53738869994413,,,,,,,,,,,,,,,,004,2022-05-06_10h51.26.878,FishGame,2022.1.1,59.8074320539405,
,7,넌 말쑥해,3,Green,A,4.833333333333334,4.333333333333333,ScrollDown,ScrollUp,Green.png,1,Neutral,Neutral,,,,,0,0,0,0,,,,,,,,,,,,,0,6,6,6,,,,,,,,,,,,,,,,,,,,,,,,,,,,,,,,,,,,,,,,,,,,,,,,,,,,,,,,,,,,,,,,,,,,,,,,,,,,,,,,,1,1.442438400001265,160.1705520999385,None,ScrollDown,정답입니다,160.1705520999385,None,160.1705520999385,None,160.1705520999385,None,160.1705520999385,None,161.50396250002086,None,161.50396250002086,162.00626799999736,,,,,,,,,,,,,,,,004,2022-05-06_10h51.26.878,FishGame,2022.1.1,59.8074320539405,
,8,넌 투덜거려,5,Orange,B,2.541666666666667,2.266666666666667,ScrollUp,ScrollDown,Orange.png,1,Negative,Congruent,,,,,0,0,0,0,,,,,,,,,,,,,0,7,7,7,,,,,,,,,,,,,,,,,,,,,,,,,,,,,,,,,,,,,,,,,,,,,,,,,,,,,,,,,,,,,,,,,,,,,,,,,,,,,,,,,2,1.4263944000704214,162.6313089999603,None,ScrollUp,정답입니다,162.6313089999603,None,162.6313089999603,None,162.6313089999603,None,162.6313089999603,None,163.953903799993,None,163.953903799993,164.45395220001228,,,,,,,,,,,,,,,,004,2022-05-06_10h51.26.878,FishGame,2022.1.1,59.8074320539405,
,9,넌 적극적이야,1,Green,A,5.708333333333333,5.533333333333333,ScrollDown,ScrollUp,Green.png,1,Positive,Congruent,,,,,0,0,0,0,,,,,,,,,,,,,0,8,8,8,,,,,,,,,,,,,,,,,,,,,,,,,,,,,,,,,,,,,,,,,,,,,,,,,,,,,,,,,,,,,,,,,,,,,,,,,,,,,,,,,1,1.3758622999303043,165.08083579991944,None,ScrollDown,정답입니다,165.08083579991944,None,165.08083579991944,None,165.08083579991944,None,165.08083579991944,None,166.35380189993884,None,166.35380189993884,166.85385069996119,,,,,,,,,,,,,,,,004,2022-05-06_10h51.26.878,FishGame,2022.1.1,59.8074320539405,
,10,넌 재미없어,4,Orange,B,2.625,2.966666666666667,ScrollUp,ScrollDown,Orange.png,1,Negative,Congruent,,,,,0,0,0,0,,,,,,,,,,,,,0,9,9,9,,,,,,,,,,,,,,,,,,,,,,,,,,,,,,,,,,,,,,,,,,,,,,,,,,,,,,,,,,,,,,,,,,,,,,,,,,,,,,,,,2,1.092700400040485,167.48304610000923,None,ScrollUp,정답입니다,167.48304610000923,None,167.48304610000923,None,167.48304610000923,None,167.48304610000923,None,168.4705281999195,None,168.4705281999195,168.97270479996223,,,,,,,,,,,,,,,,004,2022-05-06_10h51.26.878,FishGame,2022.1.1,59.8074320539405,
,11,넌 명석해,2,Green,A,5.875,4.033333333333333,ScrollDown,ScrollUp,Green.png,1,Positive,Congruent,,,,,0,0,0,0,,,,,,,,,,,,,0,10,10,10,,,,,,,,,,,,,,,,,,,,,,,,,,,,,,,,,,,,,,,,,,,,,,,,,,,,,,,,,,,,,,,,,,,,,,,,,,,,,,,,,1,1.1593670999864116,169.59654179995414,None,ScrollDown,정답입니다,169.59654179995414,None,169.59654179995414,None,169.59654179995414,None,169.59654179995414,None,170.65375699999277,None,170.65375699999277,171.15383440000005,,,,,,,,,,,,,,,,004,2022-05-06_10h51.26.878,FishGame,2022.1.1,59.8074320539405,
,12,나를 데려가줘,6,Orange,B,0,0,ScrollDown,ScrollUp,Orange.png,1,NonTarget,NonTarget,,,,,0,0,0,0,,,,,,,,,,,,,0,11,11,11,,,,,,,,,,,,,,,,,,,,,,,,,,,,,,,,,,,,,,,,,,,,,,,,,,,,,,,,,,,,,,,,,,,,,,,,,,,,,,,,,1,1.2782363999867812,171.77897079999093,None,ScrollDown,정답입니다,171.77897079999093,None,171.77897079999093,None,171.77897079999093,None,171.77897079999093,None,172.95368939999025,None,172.95368939999025,173.4537324999692,,,,,,,,,,,,,,,,004,2022-05-06_10h51.26.878,FishGame,2022.1.1,59.8074320539405,
,13,넌 소심해,4,Green,A,3,3.1,ScrollDown,ScrollUp,Green.png,1,Negative,Incongruent,,,,,0,0,0,0,,,,,,,,,,,,,0,12,12,12,,,,,,,,,,,,,,,,,,,,,,,,,,,,,,,,,,,,,,,,,,,,,,,,,,,,,,,,,,,,,,,,,,,,,,,,,,,,,,,,,1,1.2592512000119314,174.07984659995418,None,ScrollDown,정답입니다,174.07984659995418,None,174.07984659995418,None,174.07984659995418,None,174.07984659995418,None,175.23700500000268,None,175.23700500000268,175.7391957999207,,,,,,,,,,,,,,,,004,2022-05-06_10h51.26.878,FishGame,2022.1.1,59.8074320539405,
,14,넌 합리적이야,2,Green,A,5.583333333333333,4.733333333333333,ScrollDown,ScrollUp,Green.png,1,Positive,Congruent,,,,,0,0,0,0,,,,,,,,,,,,,0,13,13,13,,,,,,,,,,,,,,,,,,,,,,,,,,,,,,,,,,,,,,,,,,,,,,,,,,,,,,,,,,,,,,,,,,,,,,,,,,,,,,,,,1,1.3424292000709102,176.36757110001054,None,ScrollDown,정답입니다,176.36757110001054,None,176.36757110001054,None,176.36757110001054,None,176.36757110001054,None,177.6033248999156,None,177.6033248999156,178.1034006999107,,,,,,,,,,,,,,,,004,2022-05-06_10h51.26.878,FishGame,2022.1.1,59.8074320539405,
,15,넌 무자비해,5,Orange,B,2.333333333333333,2.1,ScrollUp,ScrollDown,Orange.png,1,Negative,Congruent,,,,,0,0,0,0,,,,,,,,,,,,,0,14,14,14,,,,,,,,,,,,,,,,,,,,,,,,,,,,,,,,,,,,,,,,,,,,,,,,,,,,,,,,,,,,,,,,,,,,,,,,,,,,,,,,,2,1.2951742999721318,178.73911530000623,None,ScrollUp,정답입니다,178.73911530000623,None,178.73911530000623,None,178.73911530000623,None,178.73911530000623,None,179.92252109991387,None,179.92252109991387,180.42259490001015,,,,,,,,,,,,,,,,004,2022-05-06_10h51.26.878,FishGame,2022.1.1,59.8074320539405,
,16,나를 보내줘,6,Green,A,0,0,ScrollUp,ScrollDown,Green.png,1,NonTarget,NonTarget,,,,,0,0,0,0,,,,,,,,,,,,,0,15,15,15,,,,,,,,,,,,,,,,,,,,,,,,,,,,,,,,,,,,,,,,,,,,,,,,,,,,,,,,,,,,,,,,,,,,,,,,,,,,,,,,,2,1.442563600023277,181.0415834999876,None,ScrollUp,정답입니다,181.0415834999876,None,181.0415834999876,None,181.0415834999876,None,181.0415834999876,None,182.38684359996114,None,182.38684359996114,182.8868957000086,,,,,,,,,,,,,,,,004,2022-05-06_10h51.26.878,FishGame,2022.1.1,59.8074320539405,
,17,넌 현실적이야,3,Orange,B,4.608695652173913,4.766666666666667,ScrollUp,ScrollDown,Orange.png,1,Neutral,Neutral,,,,,0,0,0,0,,,,,,,,,,,,,0,16,16,16,,,,,,,,,,,,,,,,,,,,,,,,,,,,,,,,,,,,,,,,,,,,,,,,,,,,,,,,,,,,,,,,,,,,,,,,,,,,,,,,,2,1.5120097000617534,183.51444689999335,None,ScrollUp,정답입니다,183.51444689999335,None,183.51444689999335,None,183.51444689999335,None,183.51444689999335,None,184.92007999995258,None,184.92007999995258,185.42028299998492,,,,,,,,,,,,,,,,004,2022-05-06_10h51.26.878,FishGame,2022.1.1,59.8074320539405,
,18,넌 의리있어,1,Orange,B,5.833333333333334,5.633333333333334,ScrollUp,ScrollDown,Orange.png,1,Positive,Incongruent,,,,,0,0,0,0,,,,,,,,,,,,,0,17,17,17,,,,,,,,,,,,,,,,,,,,,,,,,,,,,,,,,,,,,,,,,,,,,,,,,,,,,,,,,,,,,,,,,,,,,,,,,,,,,,,,,2,1.2433129999553785,186.0514022000134,None,ScrollUp,정답입니다,186.0514022000134,None,186.0514022000134,None,186.0514022000134,None,186.0514022000134,None,187.18898059998173,None,187.18898059998173,187.7034498999128,,,,,,,,,,,,,,,,004,2022-05-06_10h51.26.878,FishGame,2022.1.1,59.8074320539405,
,19,넌 신경과민이야,5,Green,A,2.541666666666667,2.166666666666667,ScrollDown,ScrollUp,Green.png,1,Negative,Incongruent,,,,,0,0,0,0,,,,,,,,,,,,,0,18,18,18,,,,,,,,,,,,,,,,,,,,,,,,,,,,,,,,,,,,,,,,,,,,,,,,,,,,,,,,,,,,,,,,,,,,,,,,,,,,,,,,,1,1.194690499920398,188.311670999974,None,ScrollDown,정답입니다,188.311670999974,None,188.311670999974,None,188.311670999974,None,188.311670999974,None,189.4033005000092,None,189.4033005000092,189.9035245999694,,,,,,,,,,,,,,,,004,2022-05-06_10h51.26.878,FishGame,2022.1.1,59.8074320539405,
,20,넌 편안해,1,Green,A,5.916666666666666,5.866666666666666,ScrollDown,ScrollUp,Green.png,1,Positive,Congruent,,,,,0,0,0,0,,,,,,,,,,,,,0,19,19,19,,,,,,,,,,,,,,,,,,,,,,,,,,,,,,,,,,,,,,,,,,,,,,,,,,,,,,,,,,,,,,,,,,,,,,,,,,,,,,,,,1,1.0781439000274986,190.52479940000921,None,ScrollDown,정답입니다,190.52479940000921,None,190.52479940000921,None,190.52479940000921,None,190.52479940000921,None,191.5033219999168,None,191.5033219999168,192.00337829999626,,,,,,,,,,,,,,,,004,2022-05-06_10h51.26.878,FishGame,2022.1.1,59.8074320539405,
,21,넌 품위있어,2,Orange,B,5.291666666666666,4.466666666666667,ScrollUp,ScrollDown,Orange.png,1,Positive,Incongruent,,,,,0,0,0,0,,,,,,,,,,,,,0,20,20,20,,,,,,,,,,,,,,,,,,,,,,,,,,,,,,,,,,,,,,,,,,,,,,,,,,,,,,,,,,,,,,,,,,,,,,,,,,,,,,,,,2,1.2946820999495685,192.6397536000004,None,ScrollUp,정답입니다,192.6397536000004,None,192.6397536000004,None,192.6397536000004,None,192.6397536000004,None,193.8198859000113,None,193.8198859000113,194.319991700002,,,,,,,,,,,,,,,,004,2022-05-06_10h51.26.878,FishGame,2022.1.1,59.8074320539405,
,22,넌 빈틈없어,3,Green,A,4.833333333333333,3.966666666666667,ScrollDown,ScrollUp,Green.png,1,Neutral,Neutral,,,,,0,0,0,0,,,,,,,,,,,,,0,21,21,21,,,,,,,,,,,,,,,,,,,,,,,,,,,,,,,,,,,,,,,,,,,,,,,,,,,,,,,,,,,,,,,,,,,,,,,,,,,,,,,,,1,1.127822000067681,194.94566079997458,None,ScrollDown,정답입니다,194.94566079997458,None,194.94566079997458,None,194.94566079997458,None,194.94566079997458,None,195.9699293000158,None,195.9699293000158,196.47205999994185,,,,,,,,,,,,,,,,004,2022-05-06_10h51.26.878,FishGame,2022.1.1,59.8074320539405,
,23,넌 상상력없어,4,Orange,B,2.833333333333333,3.133333333333333,ScrollUp,ScrollDown,Orange.png,1,Negative,Congruent,,,,,0,0,0,0,,,,,,,,,,,,,0,22,22,22,,,,,,,,,,,,,,,,,,,,,,,,,,,,,,,,,,,,,,,,,,,,,,,,,,,,,,,,,,,,,,,,,,,,,,,,,,,,,,,,,2,1.2278664000332355,197.10661559994332,None,ScrollUp,정답입니다,197.10661559994332,None,197.10661559994332,None,197.10661559994332,None,197.10661559994332,None,198.21987019991502,None,198.21987019991502,198.72523979994003,,,,,,,,,,,,,,,,004,2022-05-06_10h51.26.878,FishGame,2022.1.1,59.8074320539405,
,24,넌 지혜로워,2,Orange,B,6.333333333333334,4.633333333333334,ScrollUp,ScrollDown,Orange.png,1,Positive,Incongruent,,,,,0,0,0,0,,,,,,,,,,,,,0,23,23,23,,,,,,,,,,,,,,,,,,,,,,,,,,,,,,,,,,,,,,,,,,,,,,,,,,,,,,,,,,,,,,,,,,,,,,,,,,,,,,,,,2,1.2092285000253469,199.3486965999473,None,ScrollUp,정답입니다,199.3486965999473,None,199.3486965999473,None,199.3486965999473,None,199.3486965999473,None,200.45307319995482,None,200.45307319995482,200.95317059999797,,,,,,,,,,,,,,,,004,2022-05-06_10h51.26.878,FishGame,2022.1.1,59.8074320539405,
,25,넌 시끄러워,4,Green,A,2.833333333333333,3.033333333333333,ScrollDown,ScrollUp,Green.png,1,Negative,Incongruent,,,,,0,0,0,0,,,,,,,,,,,,,0,24,24,24,,,,,,,,,,,,,,,,,,,,,,,,,,,,,,,,,,,,,,,,,,,,,,,,,,,,,,,,,,,,,,,,,,,,,,,,,,,,,,,,,1,1.2782059999881312,201.57907059998251,None,ScrollDown,정답입니다,201.57907059998251,None,201.57907059998251,None,201.57907059998251,None,201.57907059998251,None,202.7553307999624,None,202.7553307999624,203.253015199909,,,,,,,,,,,,,,,,004,2022-05-06_10h51.26.878,FishGame,2022.1.1,59.8074320539405,
,26,넌 만사태평이야,3,Orange,B,4,4.333333333333333,ScrollUp,ScrollDown,Orange.png,1,Neutral,Neutral,,,,,0,0,0,0,,,,,,,,,,,,,0,25,25,25,,,,,,,,,,,,,,,,,,,,,,,,,,,,,,,,,,,,,,,,,,,,,,,,,,,,,,,,,,,,,,,,,,,,,,,,,,,,,,,,,2,1.209014399908483,203.88431579992175,None,ScrollUp,정답입니다,203.88431579992175,None,203.88431579992175,None,203.88431579992175,None,203.88431579992175,None,204.98606019990984,None,204.98606019990984,205.48613179998938,,,,,,,,,,,,,,,,004,2022-05-06_10h51.26.878,FishGame,2022.1.1,59.8074320539405,
,27,넌 붙임성있어,1,Green,A,5.708333333333333,5.633333333333334,ScrollDown,ScrollUp,Green.png,1,Positive,Congruent,,,,,0,0,0,0,,,,,,,,,,,,,0,26,26,26,,,,,,,,,,,,,,,,,,,,,,,,,,,,,,,,,,,,,,,,,,,,,,,,,,,,,,,,,,,,,,,,,,,,,,,,,,,,,,,,,1,1.0784782000118867,206.11031020001974,None,ScrollDown,정답입니다,206.11031020001974,None,206.11031020001974,None,206.11031020001974,None,206.11031020001974,None,207.08863399992697,None,207.08863399992697,207.58867779991124,,,,,,,,,,,,,,,,004,2022-05-06_10h51.26.878,FishGame,2022.1.1,59.8074320539405,
,28,넌 영리해,2,Green,A,6,4.033333333333333,ScrollDown,ScrollUp,Green.png,1,Positive,Congruent,,,,,0,0,0,0,,,,,,,,,,,,,0,27,27,27,,,,,,,,,,,,,,,,,,,,,,,,,,,,,,,,,,,,,,,,,,,,,,,,,,,,,,,,,,,,,,,,,,,,,,,,,,,,,,,,,1,1.0259867999702692,208.2094545,None,ScrollDown,정답입니다,208.2094545,None,208.2094545,None,208.2094545,None,208.2094545,None,209.13850489992183,None,209.13850489992183,209.65305299998727,,,,,,,,,,,,,,,,004,2022-05-06_10h51.26.878,FishGame,2022.1.1,59.8074320539405,
,29,넌 열심이야,1,Orange,B,6.041666666666667,5.833333333333333,ScrollUp,ScrollDown,Orange.png,1,Positive,Incongruent,,,,,0,0,0,0,,,,,,,,,,,,,0,28,28,28,,,,,,,,,,,,,,,,,,,,,,,,,,,,,,,,,,,,,,,,,,,,,,,,,,,,,,,,,,,,,,,,,,,,,,,,,,,,,,,,,2,1.0260249999118969,210.28286449995358,None,ScrollUp,정답입니다,210.28286449995358,None,210.28286449995358,None,210.28286449995358,None,210.28286449995358,None,211.20502369990572,None,211.20502369990572,211.7194518999895,,,,,,,,,,,,,,,,004,2022-05-06_10h51.26.878,FishGame,2022.1.1,59.8074320539405,
,30,넌 인기없어,4,Orange,B,3,3.3,ScrollUp,ScrollDown,Orange.png,1,Negative,Congruent,,,,,0,0,0,0,,,,,,,,,,,,,0,29,29,29,,,,,,,,,,,,,,,,,,,,,,,,,,,,,,,,,,,,,,,,,,,,,,,,,,,,,,,,,,,,,,,,,,,,,,,,,,,,,,,,,2,1.0278060999698937,212.32580829993822,None,ScrollUp,정답입니다,212.32580829993822,None,212.32580829993822,None,212.32580829993822,None,212.32580829993822,None,213.2528221999528,None,213.2528221999528,213.75501730001997,,,,,,,,,,,,,,,,004,2022-05-06_10h51.26.878,FishGame,2022.1.1,59.8074320539405,
,31,넌 익살스러워,3,Green,A,4.708333333333334,4.833333333333333,ScrollDown,ScrollUp,Green.png,1,Neutral,Neutral,,,,,0,0,0,0,,,,,,,,,,,,,0,30,30,30,,,,,,,,,,,,,,,,,,,,,,,,,,,,,,,,,,,,,,,,,,,,,,,,,,,,,,,,,,,,,,,,,,,,,,,,,,,,,,,,,1,0.9928885999834165,214.3784800999565,None,ScrollDown,정답입니다,214.3784800999565,None,214.3784800999565,None,214.3784800999565,None,214.3784800999565,None,215.2695790999569,None,215.2695790999569,215.77171090000775,,,,,,,,,,,,,,,,004,2022-05-06_10h51.26.878,FishGame,2022.1.1,59.8074320539405,
,32,넌 이기적이야,5,Orange,B,2.291666666666667,2.333333333333333,ScrollUp,ScrollDown,Orange.png,1,Negative,Congruent,,,,,0,0,0,0,,,,,,,,,,,,,0,31,31,31,,,,,,,,,,,,,,,,,,,,,,,,,,,,,,,,,,,,,,,,,,,,,,,,,,,,,,,,,,,,,,,,,,,,,,,,,,,,,,,,,2,0.992132700048387,216.3957888999721,None,ScrollUp,정답입니다,216.3957888999721,None,216.3957888999721,None,216.3957888999721,None,216.3957888999721,None,217.28582539991476,None,217.28582539991476,217.78590309992433,,,,,,,,,,,,,,,,004,2022-05-06_10h51.26.878,FishGame,2022.1.1,59.8074320539405,
,33,나를 데려가줘,6,Orange,B,0,0,ScrollDown,ScrollUp,Orange.png,1,NonTarget,NonTarget,,,,,0,0,0,0,,,,,,,,,,,,,0,32,32,32,,,,,,,,,,,,,,,,,,,,,,,,,,,,,,,,,,,,,,,,,,,,,,,,,,,,,,,,,,,,,,,,,,,,,,,,,,,,,,,,,1,1.3615959999151528,218.40597319998778,None,ScrollDown,정답입니다,218.40597319998778,None,218.40597319998778,None,218.40597319998778,None,218.40597319998778,None,219.67172549990937,None,219.67172549990937,220.17221069999505,,,,,,,,,,,,,,,,004,2022-05-06_10h51.26.878,FishGame,2022.1.1,59.8074320539405,
,34,넌 기회주의자야,5,Green,A,2.875,2.133333333333333,ScrollDown,ScrollUp,Green.png,1,Negative,Incongruent,,,,,0,0,0,0,,,,,,,,,,,,,0,33,33,33,,,,,,,,,,,,,,,,,,,,,,,,,,,,,,,,,,,,,,,,,,,,,,,,,,,,,,,,,,,,,,,,,,,,,,,,,,,,,,,,,1,1.0591213000006974,220.79562749993056,None,ScrollDown,정답입니다,220.79562749993056,None,220.79562749993056,None,220.79562749993056,None,220.79562749993056,None,221.7550409999676,None,221.7550409999676,222.26935179997236,,,,,,,,,,,,,,,,004,2022-05-06_10h51.26.878,FishGame,2022.1.1,59.8074320539405,
,1,넌 미성숙해,4,Green,A,3,3.2,ScrollDown,ScrollUp,Green.png,2,Negative,Incongruent,,,,,0,0,0,0,,,,,,,,,,,,,,,,,0,0,0,0,,,,,,,,,,,,,,,,,,,,,,,,,,,,,,,,,,,,306.0343913999386,307.5366841999348,307.5675660999259,308.517684899969,308.56769980001263,309.5176880999934,309.5176880999934,None,,,,,,,,,,,,,,,,,,,,,,,,,,,,,,,,,,1,1.2352481000125408,310.62105580000207,None,ScrollDown,정답입니다,310.62105580000207,None,310.62105580000207,None,310.62105580000207,None,310.62105580000207,None,311.75081789994147,None,311.75081789994147,312.2507236999227,222.75263919995632,None,222.75263919995632,None,0.08981481,-0.08888889,1,0,0,0.01570592005737126,None,252.7523075999925,None,,,004,2022-05-06_10h51.26.878,FishGame,2022.1.1,59.8074320539405,
,2,넌 반사회적이야,5,Orange,B,2.416666666666667,2.033333333333333,ScrollUp,ScrollDown,Orange.png,2,Negative,Congruent,,,,,0,0,0,0,,,,,,,,,,,,,,,,,0,1,1,1,,,,,,,,,,,,,,,,,,,,,,,,,,,,,,,,,,,,,,,,,,,,,,,,,,,,,,,,,,,,,,,,,,,,,,,,,,,,,2,1.4447142001008615,312.875766400015,None,ScrollUp,정답입니다,312.875766400015,None,312.875766400015,None,312.875766400015,None,312.875766400015,None,314.2171725999797,None,314.2171725999797,314.7172289999435,,,,,,,,,,,,,,,,004,2022-05-06_10h51.26.878,FishGame,2022.1.1,59.8074320539405,
,3,넌 유능해,2,Green,A,6.208333333333333,4.433333333333334,ScrollDown,ScrollUp,Green.png,2,Positive,Congruent,,,,,0,0,0,0,,,,,,,,,,,,,,,,,0,2,2,2,,,,,,,,,,,,,,,,,,,,,,,,,,,,,,,,,,,,,,,,,,,,,,,,,,,,,,,,,,,,,,,,,,,,,,,,,,,,,1,1.0260727999266237,315.34983479999937,None,ScrollDown,정답입니다,315.34983479999937,None,315.34983479999937,None,315.34983479999937,None,315.34983479999937,None,316.2697668999899,None,316.2697668999899,316.7677960000001,,,,,,,,,,,,,,,,004,2022-05-06_10h51.26.878,FishGame,2022.1.1,59.8074320539405,
,4,넌 능숙해,2,Orange,B,5.666666666666667,4.733333333333333,ScrollUp,ScrollDown,Orange.png,2,Positive,Incongruent,,,,,0,0,0,0,,,,,,,,,,,,,,,,,0,3,3,3,,,,,,,,,,,,,,,,,,,,,,,,,,,,,,,,,,,,,,,,,,,,,,,,,,,,,,,,,,,,,,,,,,,,,,,,,,,,,2,1.180040800012648,317.40432630002033,None,ScrollUp,정답입니다,317.40432630002033,None,317.40432630002033,None,317.40432630002033,None,317.40432630002033,None,318.48397359997034,None,318.48397359997034,318.98410339991096,,,,,,,,,,,,,,,,004,2022-05-06_10h51.26.878,FishGame,2022.1.1,59.8074320539405,
,5,넌 진부해,4,Orange,B,2.458333333333333,3.166666666666667,ScrollUp,ScrollDown,Orange.png,2,Negative,Congruent,,,,,0,0,0,0,,,,,,,,,,,,,,,,,0,4,4,4,,,,,,,,,,,,,,,,,,,,,,,,,,,,,,,,,,,,,,,,,,,,,,,,,,,,,,,,,,,,,,,,,,,,,,,,,,,,,2,1.8278344999998808,319.612148999935,None,ScrollUp,정답입니다,319.612148999935,None,319.612148999935,None,319.612148999935,None,319.612148999935,None,321.33386879996397,None,321.33386879996397,321.83394929999486,,,,,,,,,,,,,,,,004,2022-05-06_10h51.26.878,FishGame,2022.1.1,59.8074320539405,
,6,나를 보내줘,6,Green,A,0,0,ScrollUp,ScrollDown,Green.png,2,NonTarget,NonTarget,,,,,0,0,0,0,,,,,,,,,,,,,,,,,0,5,5,5,,,,,,,,,,,,,,,,,,,,,,,,,,,,,,,,,,,,,,,,,,,,,,,,,,,,,,,,,,,,,,,,,,,,,,,,,,,,,2,1.3958664000965655,322.449756899965,None,ScrollUp,정답입니다,322.449756899965,None,322.449756899965,None,322.449756899965,None,322.449756899965,None,323.7505522000138,None,323.7505522000138,324.25058689992875,,,,,,,,,,,,,,,,004,2022-05-06_10h51.26.878,FishGame,2022.1.1,59.8074320539405,
,7,넌 엄격해,3,Green,A,4.166666666666666,4.1,ScrollDown,ScrollUp,Green.png,2,Neutral,Neutral,,,,,0,0,0,0,,,,,,,,,,,,,,,,,0,6,6,6,,,,,,,,,,,,,,,,,,,,,,,,,,,,,,,,,,,,,,,,,,,,,,,,,,,,,,,,,,,,,,,,,,,,,,,,,,,,,1,1.1592575999675319,324.8946080999449,None,ScrollDown,정답입니다,324.8946080999449,None,324.8946080999449,None,324.8946080999449,None,324.8946080999449,None,325.9335365999723,None,325.9335365999723,326.4336122999666,,,,,,,,,,,,,,,,004,2022-05-06_10h51.26.878,FishGame,2022.1.1,59.8074320539405,
,8,나를 보내줘,6,Green,A,0,0,ScrollUp,ScrollDown,Green.png,2,NonTarget,NonTarget,,,,,0,0,0,0,,,,,,,,,,,,,,,,,0,7,7,7,,,,,,,,,,,,,,,,,,,,,,,,,,,,,,,,,,,,,,,,,,,,,,,,,,,,,,,,,,,,,,,,,,,,,,,,,,,,,2,1.2618995999218896,327.05149859993253,None,ScrollUp,정답입니다,327.05149859993253,None,327.05149859993253,None,327.05149859993253,None,327.05149859993253,None,328.21951079997234,None,328.21951079997234,328.7194253000198,,,,,,,,,,,,,,,,004,2022-05-06_10h51.26.878,FishGame,2022.1.1,59.8074320539405,
,9,넌 대담해,3,Orange,B,4.875,4.866666666666666,ScrollUp,ScrollDown,Orange.png,2,Neutral,Neutral,,,,,0,0,0,0,,,,,,,,,,,,,,,,,0,8,8,8,,,,,,,,,,,,,,,,,,,,,,,,,,,,,,,,,,,,,,,,,,,,,,,,,,,,,,,,,,,,,,,,,,,,,,,,,,,,,2,1.7944886999903247,329.3427117000101,None,ScrollUp,정답입니다,329.3427117000101,None,329.3427117000101,None,329.3427117000101,None,329.3427117000101,None,331.0334318999667,None,331.0334318999667,331.5335036999313,,,,,,,,,,,,,,,,004,2022-05-06_10h51.26.878,FishGame,2022.1.1,59.8074320539405,
,10,넌 꾸준해,1,Green,A,5.916666666666668,5.8,ScrollDown,ScrollUp,Green.png,2,Positive,Congruent,,,,,0,0,0,0,,,,,,,,,,,,,,,,,0,9,9,9,,,,,,,,,,,,,,,,,,,,,,,,,,,,,,,,,,,,,,,,,,,,,,,,,,,,,,,,,,,,,,,,,,,,,,,,,,,,,1,0.9780116999754682,332.1526569999987,None,ScrollDown,정답입니다,332.1526569999987,None,332.1526569999987,None,332.1526569999987,None,332.1526569999987,None,333.03343479998875,None,333.03343479998875,333.5359288000036,,,,,,,,,,,,,,,,004,2022-05-06_10h51.26.878,FishGame,2022.1.1,59.8074320539405,
,11,나를 데려가줘,6,Orange,B,0,0,ScrollDown,ScrollUp,Orange.png,2,NonTarget,NonTarget,,,,,0,0,0,0,,,,,,,,,,,,,,,,,0,10,10,10,,,,,,,,,,,,,,,,,,,,,,,,,,,,,,,,,,,,,,,,,,,,,,,,,,,,,,,,,,,,,,,,,,,,,,,,,,,,,1,1.4097771999659017,334.16002419998404,None,ScrollDown,정답입니다,334.16002419998404,None,334.16002419998404,None,334.16002419998404,None,334.16002419998404,None,335.4669103999622,None,335.4669103999622,335.969157799962,,,,,,,,,,,,,,,,004,2022-05-06_10h51.26.878,FishGame,2022.1.1,59.8074320539405,
,12,넌 독선적이야,5,Green,A,2.458333333333333,1.933333333333333,ScrollDown,ScrollUp,Green.png,2,Negative,Incongruent,,,,,0,0,0,0,,,,,,,,,,,,,,,,,0,11,11,11,,,,,,,,,,,,,,,,,,,,,,,,,,,,,,,,,,,,,,,,,,,,,,,,,,,,,,,,,,,,,,,,,,,,,,,,,,,,,1,1.21126190002542,336.592115300009,None,ScrollDown,정답입니다,336.592115300009,None,336.592115300009,None,336.592115300009,None,336.592115300009,None,337.7002261999296,None,337.7002261999296,338.2003493999364,,,,,,,,,,,,,,,,004,2022-05-06_10h51.26.878,FishGame,2022.1.1,59.8074320539405,
,13,나를 보내줘,6,Green,A,0,0,ScrollUp,ScrollDown,Green.png,2,NonTarget,NonTarget,,,,,0,0,0,0,,,,,,,,,,,,,,,,,0,12,12,12,,,,,,,,,,,,,,,,,,,,,,,,,,,,,,,,,,,,,,,,,,,,,,,,,,,,,,,,,,,,,,,,,,,,,,,,,,,,,2,1.3614452000474557,338.8227498999331,None,ScrollUp,정답입니다,338.8227498999331,None,338.8227498999331,None,338.8227498999331,None,338.8227498999331,None,340.0857566000195,None,340.0857566000195,340.6024400999304,,,,,,,,,,,,,,,,004,2022-05-06_10h51.26.878,FishGame,2022.1.1,59.8074320539405,
,14,넌 책임감있어,1,Orange,B,6.347826086956522,6,ScrollUp,ScrollDown,Orange.png,2,Positive,Incongruent,,,,,0,0,0,0,,,,,,,,,,,,,,,,,0,13,13,13,,,,,,,,,,,,,,,,,,,,,,,,,,,,,,,,,,,,,,,,,,,,,,,,,,,,,,,,,,,,,,,,,,,,,,,,,,,,,2,1.2618338000029325,341.2279868000187,None,ScrollUp,정답입니다,341.2279868000187,None,341.2279868000187,None,341.2279868000187,None,341.2279868000187,None,342.38346509996336,None,342.38346509996336,342.88349019992165,,,,,,,,,,,,,,,,004,2022-05-06_10h51.26.878,FishGame,2022.1.1,59.8074320539405,
,15,넌 문학적이야,3,Green,A,4.708333333333334,4.333333333333333,ScrollDown,ScrollUp,Green.png,2,Neutral,Neutral,,,,,0,0,0,0,,,,,,,,,,,,,,,,,0,14,14,14,,,,,,,,,,,,,,,,,,,,,,,,,,,,,,,,,,,,,,,,,,,,,,,,,,,,,,,,,,,,,,,,,,,,,,,,,,,,,1,1.094774500001222,343.5145155999344,None,ScrollDown,정답입니다,343.5145155999344,None,343.5145155999344,None,343.5145155999344,None,343.5145155999344,None,344.5001089000143,None,344.5001089000143,345.0024803999113,,,,,,,,,,,,,,,,004,2022-05-06_10h51.26.878,FishGame,2022.1.1,59.8074320539405,
,16,넌 재미있어,1,Orange,B,5.875,5.7,ScrollUp,ScrollDown,Orange.png,2,Positive,Incongruent,,,,,0,0,0,0,,,,,,,,,,,,,,,,,0,15,15,15,,,,,,,,,,,,,,,,,,,,,,,,,,,,,,,,,,,,,,,,,,,,,,,,,,,,,,,,,,,,,,,,,,,,,,,,,,,,,2,1.176000399980694,345.62277949997224,None,ScrollUp,정답입니다,345.62277949997224,None,345.62277949997224,None,345.62277949997224,None,345.62277949997224,None,346.7000000999542,None,346.7000000999542,347.2000832000049,,,,,,,,,,,,,,,,004,2022-05-06_10h51.26.878,FishGame,2022.1.1,59.8074320539405,
,17,나를 데려가줘,6,Orange,B,0,0,ScrollDown,ScrollUp,Orange.png,2,NonTarget,NonTarget,,,,,0,0,0,0,,,,,,,,,,,,,,,,,0,16,16,16,,,,,,,,,,,,,,,,,,,,,,,,,,,,,,,,,,,,,,,,,,,,,,,,,,,,,,,,,,,,,,,,,,,,,,,,,,,,,1,1.1928769999649376,347.8269273999613,None,ScrollDown,정답입니다,347.8269273999613,None,347.8269273999613,None,347.8269273999613,None,347.8269273999613,None,348.91668119991664,None,348.91668119991664,349.418869099929,,,,,,,,,,,,,,,,004,2022-05-06_10h51.26.878,FishGame,2022.1.1,59.8074320539405,
,18,넌 협력적이야,1,Green,A,5.625,5.633333333333334,ScrollDown,ScrollUp,Green.png,2,Positive,Congruent,,,,,0,0,0,0,,,,,,,,,,,,,,,,,0,17,17,17,,,,,,,,,,,,,,,,,,,,,,,,,,,,,,,,,,,,,,,,,,,,,,,,,,,,,,,,,,,,,,,,,,,,,,,,,,,,,1,1.1289551999652758,350.0402644999558,None,ScrollDown,정답입니다,350.0402644999558,None,350.0402644999558,None,350.0402644999558,None,350.0402644999558,None,351.06656579999253,None,351.06656579999253,351.56662860000506,,,,,,,,,,,,,,,,004,2022-05-06_10h51.26.878,FishGame,2022.1.1,59.8074320539405,
,19,넌 평범해,3,Orange,B,4.333333333333332,4.233333333333333,ScrollUp,ScrollDown,Orange.png,2,Neutral,Neutral,,,,,0,0,0,0,,,,,,,,,,,,,,,,,0,18,18,18,,,,,,,,,,,,,,,,,,,,,,,,,,,,,,,,,,,,,,,,,,,,,,,,,,,,,,,,,,,,,,,,,,,,,,,,,,,,,2,1.2592835000250489,352.19343969994225,None,ScrollUp,정답입니다,352.19343969994225,None,352.19343969994225,None,352.19343969994225,None,352.19343969994225,None,353.3499163999222,None,353.3499163999222,353.8499586000107,,,,,,,,,,,,,,,,004,2022-05-06_10h51.26.878,FishGame,2022.1.1,59.8074320539405,
,20,넌 오만해,5,Green,A,2.333333333333333,2,ScrollDown,ScrollUp,Green.png,2,Negative,Incongruent,,,,,0,0,0,0,,,,,,,,,,,,,,,,,0,19,19,19,,,,,,,,,,,,,,,,,,,,,,,,,,,,,,,,,,,,,,,,,,,,,,,,,,,,,,,,,,,,,,,,,,,,,,,,,,,,,1,1.0947607998969033,354.4714034999488,None,ScrollDown,정답입니다,354.4714034999488,None,354.4714034999488,None,354.4714034999488,None,354.4714034999488,None,355.46647669991944,None,355.46647669991944,355.9667561999522,,,,,,,,,,,,,,,,004,2022-05-06_10h51.26.878,FishGame,2022.1.1,59.8074320539405,
,21,넌 운이없어,4,Orange,B,3,3.466666666666667,ScrollUp,ScrollDown,Orange.png,2,Negative,Congruent,,,,,0,0,0,0,,,,,,,,,,,,,,,,,0,20,20,20,,,,,,,,,,,,,,,,,,,,,,,,,,,,,,,,,,,,,,,,,,,,,,,,,,,,,,,,,,,,,,,,,,,,,,,,,,,,,2,1.1116003999486566,356.59866429993417,None,ScrollUp,정답입니다,356.59866429993417,None,356.59866429993417,None,356.59866429993417,None,356.59866429993417,None,357.59981409995817,None,357.59981409995817,358.09984649997205,,,,,,,,,,,,,,,,004,2022-05-06_10h51.26.878,FishGame,2022.1.1,59.8074320539405,
,22,넌 창조적이야,2,Orange,B,6.125,4.633333333333334,ScrollUp,ScrollDown,Orange.png,2,Positive,Incongruent,,,,,0,0,0,0,,,,,,,,,,,,,,,,,0,21,21,21,,,,,,,,,,,,,,,,,,,,,,,,,,,,,,,,,,,,,,,,,,,,,,,,,,,,,,,,,,,,,,,,,,,,,,,,,,,,,2,1.1097623000387102,358.7252432999667,None,ScrollUp,정답입니다,358.7252432999667,None,358.7252432999667,None,358.7252432999667,None,358.7252432999667,None,359.73313710000366,None,359.73313710000366,360.23308609996457,,,,,,,,,,,,,,,,004,2022-05-06_10h51.26.878,FishGame,2022.1.1,59.8074320539405,
,23,나를 보내줘,6,Green,A,0,0,ScrollUp,ScrollDown,Green.png,2,NonTarget,NonTarget,,,,,0,0,0,0,,,,,,,,,,,,,,,,,0,22,22,22,,,,,,,,,,,,,,,,,,,,,,,,,,,,,,,,,,,,,,,,,,,,,,,,,,,,,,,,,,,,,,,,,,,,,,,,,,,,,2,1.2623375999974087,360.84867340000346,None,ScrollUp,정답입니다,360.84867340000346,None,360.84867340000346,None,360.84867340000346,None,360.84867340000346,None,362.01635839999653,None,362.01635839999653,362.5164748999523,,,,,,,,,,,,,,,,004,2022-05-06_10h51.26.878,FishGame,2022.1.1,59.8074320539405,
,24,넌 통찰력있어,2,Green,A,6.5,4.8,ScrollDown,ScrollUp,Green.png,2,Positive,Congruent,,,,,0,0,0,0,,,,,,,,,,,,,,,,,0,23,23,23,,,,,,,,,,,,,,,,,,,,,,,,,,,,,,,,,,,,,,,,,,,,,,,,,,,,,,,,,,,,,,,,,,,,,,,,,,,,,1,1.1594604999991134,363.1425075000152,None,ScrollDown,정답입니다,363.1425075000152,None,363.1425075000152,None,363.1425075000152,None,363.1425075000152,None,364.19970469991677,None,364.19970469991677,364.70186999998987,,,,,,,,,,,,,,,,004,2022-05-06_10h51.26.878,FishGame,2022.1.1,59.8074320539405,
,25,넌 경솔해,5,Orange,B,2.458333333333333,2.266666666666667,ScrollUp,ScrollDown,Orange.png,2,Negative,Congruent,,,,,0,0,0,0,,,,,,,,,,,,,,,,,0,24,24,24,,,,,,,,,,,,,,,,,,,,,,,,,,,,,,,,,,,,,,,,,,,,,,,,,,,,,,,,,,,,,,,,,,,,,,,,,,,,,2,1.0759952999651432,365.32360719994176,None,ScrollUp,정답입니다,365.32360719994176,None,365.32360719994176,None,365.32360719994176,None,365.32360719994176,None,366.2996820999542,None,366.2996820999542,366.7997064999072,,,,,,,,,,,,,,,,004,2022-05-06_10h51.26.878,FishGame,2022.1.1,59.8074320539405,
,26,넌 초조해,4,Green,A,2.916666666666667,3.133333333333333,ScrollDown,ScrollUp,Green.png,2,Negative,Incongruent,,,,,0,0,0,0,,,,,,,,,,,,,,,,,0,25,25,25,,,,,,,,,,,,,,,,,,,,,,,,,,,,,,,,,,,,,,,,,,,,,,,,,,,,,,,,,,,,,,,,,,,,,,,,,,,,,1,1.028070000000298,367.42018609994557,None,ScrollDown,정답입니다,367.42018609994557,None,367.42018609994557,None,367.42018609994557,None,367.42018609994557,None,368.351833099965,None,368.351833099965,368.8684699999867,,,,,,,,,,,,,,,,004,2022-05-06_10h51.26.878,FishGame,2022.1.1,59.8074320539405,
,27,넌 무관심해,4,Orange,B,2.833333333333333,2.9,ScrollUp,ScrollDown,Orange.png,2,Negative,Congruent,,,,,0,0,0,0,,,,,,,,,,,,,,,,,0,26,26,26,,,,,,,,,,,,,,,,,,,,,,,,,,,,,,,,,,,,,,,,,,,,,,,,,,,,,,,,,,,,,,,,,,,,,,,,,,,,,2,1.078131000045687,369.49011679994874,None,ScrollUp,정답입니다,369.49011679994874,None,369.49011679994874,None,369.49011679994874,None,369.49011679994874,None,370.46593179996125,None,370.46593179996125,370.96599679999053,,,,,,,,,,,,,,,,004,2022-05-06_10h51.26.878,FishGame,2022.1.1,59.8074320539405,
,28,넌 감성적이야,3,Orange,B,4.125,4.166666666666667,ScrollUp,ScrollDown,Orange.png,2,Neutral,Neutral,,,,,0,0,0,0,,,,,,,,,,,,,,,,,0,27,27,27,,,,,,,,,,,,,,,,,,,,,,,,,,,,,,,,,,,,,,,,,,,,,,,,,,,,,,,,,,,,,,,,,,,,,,,,,,,,,2,1.1780953999841586,371.586053899955,None,ScrollUp,정답입니다,371.586053899955,None,371.586053899955,None,371.586053899955,None,371.586053899955,None,372.66598629998043,None,372.66598629998043,373.1685436000116,,,,,,,,,,,,,,,,004,2022-05-06_10h51.26.878,FishGame,2022.1.1,59.8074320539405,
,29,넌 배려심있어,1,Green,A,6.083333333333333,5.5,ScrollDown,ScrollUp,Green.png,2,Positive,Congruent,,,,,0,0,0,0,,,,,,,,,,,,,,,,,0,28,28,28,,,,,,,,,,,,,,,,,,,,,,,,,,,,,,,,,,,,,,,,,,,,,,,,,,,,,,,,,,,,,,,,,,,,,,,,,,,,,1,1.1929849999723956,373.80421360000037,None,ScrollDown,정답입니다,373.80421360000037,None,373.80421360000037,None,373.80421360000037,None,373.80421360000037,None,374.8851393999066,None,374.8851393999066,375.3994778000051,,,,,,,,,,,,,,,,004,2022-05-06_10h51.26.878,FishGame,2022.1.1,59.8074320539405,
,30,넌 숨김없어,3,Green,A,4.5,4.933333333333334,ScrollDown,ScrollUp,Green.png,2,Neutral,Neutral,,,,,0,0,0,0,,,,,,,,,,,,,,,,,0,29,29,29,,,,,,,,,,,,,,,,,,,,,,,,,,,,,,,,,,,,,,,,,,,,,,,,,,,,,,,,,,,,,,,,,,,,,,,,,,,,,1,1.0115444000111893,376.0388024999993,None,ScrollDown,정답입니다,376.0388024999993,None,376.0388024999993,None,376.0388024999993,None,376.0388024999993,None,376.9328050999902,None,376.9328050999902,377.43514049996156,,,,,,,,,,,,,,,,004,2022-05-06_10h51.26.878,FishGame,2022.1.1,59.8074320539405,
,31,넌 훌륭해,2,Orange,B,5.916666666666667,4.033333333333333,ScrollUp,ScrollDown,Orange.png,2,Positive,Incongruent,,,,,0,0,0,0,,,,,,,,,,,,,,,,,0,30,30,30,,,,,,,,,,,,,,,,,,,,,,,,,,,,,,,,,,,,,,,,,,,,,,,,,,,,,,,,,,,,,,,,,,,,,,,,,,,,,2,1.1096828000154346,378.057861499954,None,ScrollUp,정답입니다,378.057861499954,None,378.057861499954,None,378.057861499954,None,378.057861499954,None,379.06598899990786,None,379.06598899990786,379.566261400003,,,,,,,,,,,,,,,,004,2022-05-06_10h51.26.878,FishGame,2022.1.1,59.8074320539405,
,32,넌 슬기로워,2,Green,A,6.166666666666667,4.1,ScrollDown,ScrollUp,Green.png,2,Positive,Congruent,,,,,0,0,0,0,,,,,,,,,,,,,,,,,0,31,31,31,,,,,,,,,,,,,,,,,,,,,,,,,,,,,,,,,,,,,,,,,,,,,,,,,,,,,,,,,,,,,,,,,,,,,,,,,,,,,1,1.2783677999395877,380.1893461999716,None,ScrollDown,정답입니다,380.1893461999716,None,380.1893461999716,None,380.1893461999716,None,380.1893461999716,None,381.3681826000102,None,381.3681826000102,381.88274269993417,,,,,,,,,,,,,,,,004,2022-05-06_10h51.26.878,FishGame,2022.1.1,59.8074320539405,
,33,넌 냉혹해,5,Green,A,2.583333333333333,2.1,ScrollDown,ScrollUp,Green.png,2,Negative,Incongruent,,,,,0,0,0,0,,,,,,,,,,,,,,,,,0,32,32,32,,,,,,,,,,,,,,,,,,,,,,,,,,,,,,,,,,,,,,,,,,,,,,,,,,,,,,,,,,,,,,,,,,,,,,,,,,,,,1,1.142203600029461,382.4943848999683,None,ScrollDown,정답입니다,382.4943848999683,None,382.4943848999683,None,382.4943848999683,None,382.4943848999683,None,383.5323102999246,None,383.5323102999246,384.0323980000103,,,,,,,,,,,,,,,,004,2022-05-06_10h51.26.878,FishGame,2022.1.1,59.8074320539405,
,34,나를 데려가줘,6,Orange,B,0,0,ScrollDown,ScrollUp,Orange.png,2,NonTarget,NonTarget,,,,,0,0,0,0,,,,,,,,,,,,,,,,,0,33,33,33,,,,,,,,,,,,,,,,,,,,,,,,,,,,,,,,,,,,,,,,,,,,,,,,,,,,,,,,,,,,,,,,,,,,,,,,,,,,,1,1.6948189000831917,384.6538143999642,None,ScrollDown,정답입니다,384.6538143999642,None,384.6538143999642,None,384.6538143999642,None,384.6538143999642,None,386.25158769998234,None,386.25158769998234,386.7496291999705,,,,,,,,,,,,,,,,004,2022-05-06_10h51.26.878,FishGame,2022.1.1,59.8074320539405,
,35,넌 편파적이야,5,Orange,B,2.125,2,ScrollUp,ScrollDown,Orange.png,2,Negative,Congruent,,,,,0,0,0,0,,,,,,,,,,,,,,,,,0,34,34,34,,,,,,,,,,,,,,,,,,,,,,,,,,,,,,,,,,,,,,,,,,,,,,,,,,,,,,,,,,,,,,,,,,,,,,,,,,,,,2,1.1987678000004962,387.3732822999591,None,ScrollUp,정답입니다,387.3732822999591,None,387.3732822999591,None,387.3732822999591,None,387.3732822999591,None,388.4717797000194,None,388.4717797000194,388.98256249993574,,,,,,,,,,,,,,,,004,2022-05-06_10h51.26.878,FishGame,2022.1.1,59.8074320539405,
,36,넌 슬퍼,4,Green,A,2.583333333333333,3.066666666666667,ScrollDown,ScrollUp,Green.png,2,Negative,Incongruent,,,,,0,0,0,0,,,,,,,,,,,,,,,,,0,35,35,35,,,,,,,,,,,,,,,,,,,,,,,,,,,,,,,,,,,,,,,,,,,,,,,,,,,,,,,,,,,,,,,,,,,,,,,,,,,,,1,1.2617064999649301,389.6008237999631,None,ScrollDown,정답입니다,389.6008237999631,None,389.6008237999631,None,389.6008237999631,None,389.6008237999631,None,390.7658815999748,None,390.7658815999748,391.2658073999919,,,,,,,,,,,,,,,,004,2022-05-06_10h51.26.878,FishGame,2022.1.1,59.8074320539405,
,37,나를 데려가줘,6,Orange,B,0,0,ScrollDown,ScrollUp,Orange.png,2,NonTarget,NonTarget,,,,,0,0,0,0,,,,,,,,,,,,,,,,,0,36,36,36,,,,,,,,,,,,,,,,,,,,,,,,,,,,,,,,,,,,,,,,,,,,,,,,,,,,,,,,,,,,,,,,,,,,,,,,,,,,,1,1.3427137000253424,391.89245249994565,None,ScrollDown,정답입니다,391.89245249994565,None,391.89245249994565,None,391.89245249994565,None,391.89245249994565,None,393.13240150001366,None,393.13240150001366,393.6324528999394,,,,,,,,,,,,,,,,004,2022-05-06_10h51.26.878,FishGame,2022.1.1,59.8074320539405,
,38,넌 친절해,1,Orange,B,6.041666666666667,5.533333333333333,ScrollUp,ScrollDown,Orange.png,2,Positive,Incongruent,,,,,0,0,0,0,,,,,,,,,,,,,,,,,0,37,37,37,,,,,,,,,,,,,,,,,,,,,,,,,,,,,,,,,,,,,,,,,,,,,,,,,,,,,,,,,,,,,,,,,,,,,,,,,,,,,2,1.6614402000559494,394.2613854999654,None,ScrollUp,정답입니다,394.2613854999654,None,394.2613854999654,None,394.2613854999654,None,394.2613854999654,None,395.8156799999997,None,395.8156799999997,396.31575389998034,,,,,,,,,,,,,,,,004,2022-05-06_10h51.26.878,FishGame,2022.1.1,59.8074320539405,
,1,넌 엉성해,4,Green,A,3,3.3,ScrollDown,ScrollUp,Green.png,3,Negative,Incongruent,,,,,0,0,0,0,,,,,,,,,,,,,,,,,,,,,0,0,0,0,,,,,,,,,,,,,,,,,,,,,,,,,,,,,,,,429.36518789990805,430.8674196000211,430.8982982999878,431.85066280001774,431.90069109993055,432.8649994999869,432.84829100000206,None,,,,,,,,,,,,,,,,,,,,,,,,,,,,,,,,,,1,1.0626763000618666,433.94621169997845,None,ScrollDown,정답입니다,433.94621169997845,None,433.94621169997845,None,433.94621169997845,None,433.94621169997845,None,434.91006739996374,None,434.91006739996374,435.4146497999318,396.81797659990843,None,396.81797659990843,None,0.23148148,-0.07685185,1,0,0,0.016245219972915947,None,426.83160649996717,None,,,004,2022-05-06_10h51.26.878,FishGame,2022.1.1,59.8074320539405,
,2,나를 보내줘,6,Green,A,0,0,ScrollUp,ScrollDown,Green.png,3,NonTarget,NonTarget,,,,,0,0,0,0,,,,,,,,,,,,,,,,,,,,,0,1,1,1,,,,,,,,,,,,,,,,,,,,,,,,,,,,,,,,,,,,,,,,,,,,,,,,,,,,,,,,,,,,,,,,,,,,,,,,,2,1.162372799939476,436.03546499996446,None,ScrollUp,정답입니다,436.03546499996446,None,436.03546499996446,None,436.03546499996446,None,436.03546499996446,None,437.09807009994984,None,437.09807009994984,437.60045319993515,,,,,,,,,,,,,,,,004,2022-05-06_10h51.26.878,FishGame,2022.1.1,59.8074320539405,
,3,넌 활발해,1,Orange,B,5.666666666666667,5.6,ScrollUp,ScrollDown,Orange.png,3,Positive,Incongruent,,,,,0,0,0,0,,,,,,,,,,,,,,,,,,,,,0,2,2,2,,,,,,,,,,,,,,,,,,,,,,,,,,,,,,,,,,,,,,,,,,,,,,,,,,,,,,,,,,,,,,,,,,,,,,,,,2,1.046093299984932,438.2214595999103,None,ScrollUp,정답입니다,438.2214595999103,None,438.2214595999103,None,438.2214595999103,None,438.2214595999103,None,439.1671032999875,None,439.1671032999875,439.6672064999584,,,,,,,,,,,,,,,,004,2022-05-06_10h51.26.878,FishGame,2022.1.1,59.8074320539405,
,4,넌 논리적이야,2,Green,A,5.666666666666666,4.633333333333334,ScrollDown,ScrollUp,Green.png,3,Positive,Congruent,,,,,0,0,0,0,,,,,,,,,,,,,,,,,,,,,0,3,3,3,,,,,,,,,,,,,,,,,,,,,,,,,,,,,,,,,,,,,,,,,,,,,,,,,,,,,,,,,,,,,,,,,,,,,,,,,1,1.2091347000095993,440.3116081999615,None,ScrollDown,정답입니다,440.3116081999615,None,440.3116081999615,None,440.3116081999615,None,440.3116081999615,None,441.4147372000152,None,441.4147372000152,441.9147438999498,,,,,,,,,,,,,,,,004,2022-05-06_10h51.26.878,FishGame,2022.1.1,59.8074320539405,
,5,넌 과묵해,3,Green,A,3.875,4.4,ScrollDown,ScrollUp,Green.png,3,Neutral,Neutral,,,,,0,0,0,0,,,,,,,,,,,,,,,,,,,,,0,4,4,4,,,,,,,,,,,,,,,,,,,,,,,,,,,,,,,,,,,,,,,,,,,,,,,,,,,,,,,,,,,,,,,,,,,,,,,,,1.0092592636744182,0.9814772999379784,442.5407374999486,None,ScrollDown,정답입니다,442.5407374999486,None,442.5407374999486,None,442.5407374999486,None,442.5407374999486,None,443.41465459996834,None,443.41465459996834,443.91684369998984,,,,,,,,,,,,,,,,004,2022-05-06_10h51.26.878,FishGame,2022.1.1,59.8074320539405,
,6,나를 데려가줘,6,Orange,B,0,0,ScrollDown,ScrollUp,Orange.png,3,NonTarget,NonTarget,,,,,0,0,0,0,,,,,,,,,,,,,,,,,,,,,0,5,5,5,,,,,,,,,,,,,,,,,,,,,,,,,,,,,,,,,,,,,,,,,,,,,,,,,,,,,,,,,,,,,,,,,,,,,,,,,1,1.2764300000853837,444.53503059991635,None,ScrollDown,정답입니다,444.53503059991635,None,444.53503059991635,None,444.53503059991635,None,444.53503059991635,None,445.71684349991847,None,445.71684349991847,446.21999979997054,,,,,,,,,,,,,,,,004,2022-05-06_10h51.26.878,FishGame,2022.1.1,59.8074320539405,
,7,넌 미숙해,4,Orange,B,3,3,ScrollUp,ScrollDown,Orange.png,3,Negative,Congruent,,,,,0,0,0,0,,,,,,,,,,,,,,,,,,,,,0,6,6,6,,,,,,,,,,,,,,,,,,,,,,,,,,,,,,,,,,,,,,,,,,,,,,,,,,,,,,,,,,,,,,,,,,,,,,,,,1.9675925771395366,1.0260833000065759,446.84470969997346,None,ScrollUp,정답입니다,446.84470969997346,None,446.84470969997346,None,446.84470969997346,None,446.84470969997346,None,447.7646568999626,None,447.7646568999626,448.26463569991756,,,,,,,,,,,,,,,,004,2022-05-06_10h51.26.878,FishGame,2022.1.1,59.8074320539405,
,8,나를 보내줘,6,Green,A,0,0,ScrollUp,ScrollDown,Green.png,3,NonTarget,NonTarget,,,,,0,0,0,0,,,,,,,,,,,,,,,,,,,,,0,7,7,7,,,,,,,,,,,,,,,,,,,,,,,,,,,,,,,,,,,,,,,,,,,,,,,,,,,,,,,,,,,,,,,,,,,,,,,,,2,1.1932367000263184,448.88353699992876,None,ScrollUp,정답입니다,448.88353699992876,None,448.88353699992876,None,448.88353699992876,None,448.88353699992876,None,449.98121369990986,None,449.98121369990986,450.48123619996477,,,,,,,,,,,,,,,,004,2022-05-06_10h51.26.878,FishGame,2022.1.1,59.8074320539405,
,9,넌 자신만만해,3,Orange,B,4.833333333333334,4.333333333333333,ScrollUp,ScrollDown,Orange.png,3,Neutral,Neutral,,,,,0,0,0,0,,,,,,,,,,,,,,,,,,,,,0,8,8,8,,,,,,,,,,,,,,,,,,,,,,,,,,,,,,,,,,,,,,,,,,,,,,,,,,,,,,,,,,,,,,,,,,,,,,,,,2,0.9761151999700814,451.1042898999294,None,ScrollUp,정답입니다,451.1042898999294,None,451.1042898999294,None,451.1042898999294,None,451.1042898999294,None,451.98110069998074,None,451.98110069998074,452.4811811000109,,,,,,,,,,,,,,,,004,2022-05-06_10h51.26.878,FishGame,2022.1.1,59.8074320539405,
,10,넌 탐욕스러워,5,Green,A,2.25,2.1,ScrollDown,ScrollUp,Green.png,3,Negative,Incongruent,,,,,0,0,0,0,,,,,,,,,,,,,,,,,,,,,0,9,9,9,,,,,,,,,,,,,,,,,,,,,,,,,,,,,,,,,,,,,,,,,,,,,,,,,,,,,,,,,,,,,,,,,,,,,,,,,1,1.2951609999872744,453.10664869996253,None,ScrollDown,정답입니다,453.10664869996253,None,453.10664869996253,None,453.10664869996253,None,453.10664869996253,None,454.297791399993,None,454.297791399993,454.797816199949,,,,,,,,,,,,,,,,004,2022-05-06_10h51.26.878,FishGame,2022.1.1,59.8074320539405,
,11,넌 인기있어,2,Green,A,5.458333333333333,4.5,ScrollDown,ScrollUp,Green.png,3,Positive,Congruent,,,,,0,0,0,0,,,,,,,,,,,,,,,,,,,,,0,10,10,10,,,,,,,,,,,,,,,,,,,,,,,,,,,,,,,,,,,,,,,,,,,,,,,,,,,,,,,,,,,,,,,,,,,,,,,,,1.0709876716136932,0.9760644000489265,455.41806099994574,None,ScrollDown,정답입니다,455.41806099994574,None,455.41806099994574,None,455.41806099994574,None,455.41806099994574,None,456.2976861000061,None,456.2976861000061,456.7977448999882,,,,,,,,,,,,,,,,004,2022-05-06_10h51.26.878,FishGame,2022.1.1,59.8074320539405,
,12,나를 데려가줘,6,Orange,B,0,0,ScrollDown,ScrollUp,Orange.png,3,NonTarget,NonTarget,,,,,0,0,0,0,,,,,,,,,,,,,,,,,,,,,0,11,11,11,,,,,,,,,,,,,,,,,,,,,,,,,,,,,,,,,,,,,,,,,,,,,,,,,,,,,,,,,,,,,,,,,,,,,,,,,1,1.228007800062187,457.4248186999466,None,ScrollDown,정답입니다,457.4248186999466,None,457.4248186999466,None,457.4248186999466,None,457.4248186999466,None,458.54764849995263,None,458.54764849995263,459.0499291999731,,,,,,,,,,,,,,,,004,2022-05-06_10h51.26.878,FishGame,2022.1.1,59.8074320539405,
,13,넌 뛰어나,2,Orange,B,6.166666666666667,4,ScrollUp,ScrollDown,Orange.png,3,Positive,Incongruent,,,,,0,0,0,0,,,,,,,,,,,,,,,,,,,,,0,12,12,12,,,,,,,,,,,,,,,,,,,,,,,,,,,,,,,,,,,,,,,,,,,,,,,,,,,,,,,,,,,,,,,,,,,,,,,,,2,1.2095749999862164,459.6725465999916,None,ScrollUp,정답입니다,459.6725465999916,None,459.6725465999916,None,459.6725465999916,None,459.6725465999916,None,460.78100279998034,None,460.78100279998034,461.2810755999526,,,,,,,,,,,,,,,,004,2022-05-06_10h51.26.878,FishGame,2022.1.1,59.8074320539405,
,14,넌 낙관적이야,1,Green,A,5.75,5.8,ScrollDown,ScrollUp,Green.png,3,Positive,Congruent,,,,,0,0,0,0,,,,,,,,,,,,,,,,,,,,,0,13,13,13,,,,,,,,,,,,,,,,,,,,,,,,,,,,,,,,,,,,,,,,,,,,,,,,,,,,,,,,,,,,,,,,,,,,,,,,,1,1.026333799934946,461.90561030001845,None,ScrollDown,정답입니다,461.90561030001845,None,461.90561030001845,None,461.90561030001845,None,461.90561030001845,None,462.8308733999729,None,462.8308733999729,463.33099259994924,,,,,,,,,,,,,,,,004,2022-05-06_10h51.26.878,FishGame,2022.1.1,59.8074320539405,
,15,넌 산만해,4,Orange,B,2.695652173913043,3.033333333333333,ScrollUp,ScrollDown,Orange.png,3,Negative,Congruent,,,,,0,0,0,0,,,,,,,,,,,,,,,,,,,,,0,14,14,14,,,,,,,,,,,,,,,,,,,,,,,,,,,,,,,,,,,,,,,,,,,,,,,,,,,,,,,,,,,,,,,,,,,,,,,,,2,1.7648223999422044,463.9501193999313,None,ScrollUp,정답입니다,463.9501193999313,None,463.9501193999313,None,463.9501193999313,None,463.9501193999313,None,465.61420840001665,None,465.61420840001665,466.1166019999655,,,,,,,,,,,,,,,,004,2022-05-06_10h51.26.878,FishGame,2022.1.1,59.8074320539405,
,16,나를 보내줘,6,Green,A,0,0,ScrollUp,ScrollDown,Green.png,3,NonTarget,NonTarget,,,,,0,0,0,0,,,,,,,,,,,,,,,,,,,,,0,15,15,15,,,,,,,,,,,,,,,,,,,,,,,,,,,,,,,,,,,,,,,,,,,,,,,,,,,,,,,,,,,,,,,,,,,,,,,,,2,1.1423866000259295,466.73882909992244,None,ScrollUp,정답입니다,466.73882909992244,None,466.73882909992244,None,466.73882909992244,None,466.73882909992244,None,467.78078489995096,None,467.78078489995096,468.28093649994116,,,,,,,,,,,,,,,,004,2022-05-06_10h51.26.878,FishGame,2022.1.1,59.8074320539405,
,17,넌 교활해,5,Orange,B,2.333333333333333,2.133333333333333,ScrollUp,ScrollDown,Orange.png,3,Negative,Congruent,,,,,0,0,0,0,,,,,,,,,,,,,,,,,,,,,0,16,16,16,,,,,,,,,,,,,,,,,,,,,,,,,,,,,,,,,,,,,,,,,,,,,,,,,,,,,,,,,,,,,,,,,,,,,,,,,2,1.0282252000179142,468.9154116999125,None,ScrollUp,정답입니다,468.9154116999125,None,468.9154116999125,None,468.9154116999125,None,468.9154116999125,None,469.83080220001284,None,469.83080220001284,470.3330728999572,,,,,,,,,,,,,,,,004,2022-05-06_10h51.26.878,FishGame,2022.1.1,59.8074320539405,
,18,나를 보내줘,6,Green,A,0,0,ScrollUp,ScrollDown,Green.png,3,NonTarget,NonTarget,,,,,0,0,0,0,,,,,,,,,,,,,,,,,,,,,0,17,17,17,,,,,,,,,,,,,,,,,,,,,,,,,,,,,,,,,,,,,,,,,,,,,,,,,,,,,,,,,,,,,,,,,,,,,,,,,2,1.1615920000476763,470.95158959995024,None,ScrollUp,정답입니다,470.95158959995024,None,470.95158959995024,None,470.95158959995024,None,470.95158959995024,None,472.01378089992795,None,472.01378089992795,472.51383680000436,,,,,,,,,,,,,,,,004,2022-05-06_10h51.26.878,FishGame,2022.1.1,59.8074320539405,
,19,넌 불친절해,5,Orange,B,2.208333333333333,2.033333333333333,ScrollUp,ScrollDown,Orange.png,3,Negative,Congruent,,,,,0,0,0,0,,,,,,,,,,,,,,,,,,,,,0,18,18,18,,,,,,,,,,,,,,,,,,,,,,,,,,,,,,,,,,,,,,,,,,,,,,,,,,,,,,,,,,,,,,,,,,,,,,,,,2,1.0284787999698892,473.1376532999566,None,ScrollUp,정답입니다,473.1376532999566,None,473.1376532999566,None,473.1376532999566,None,473.1376532999566,None,474.06643849995453,None,474.06643849995453,474.5663195999805,,,,,,,,,,,,,,,,004,2022-05-06_10h51.26.878,FishGame,2022.1.1,59.8074320539405,
,20,넌 지적이야,2,Orange,B,5.75,4.366666666666666,ScrollUp,ScrollDown,Orange.png,3,Positive,Incongruent,,,,,0,0,0,0,,,,,,,,,,,,,,,,,,,,,0,19,19,19,,,,,,,,,,,,,,,,,,,,,,,,,,,,,,,,,,,,,,,,,,,,,,,,,,,,,,,,,,,,,,,,,,,,,,,,,2,1.0104003999149427,475.18938599992543,None,ScrollUp,정답입니다,475.18938599992543,None,475.18938599992543,None,475.18938599992543,None,475.18938599992543,None,476.0973147000186,None,476.0973147000186,476.5973731999984,,,,,,,,,,,,,,,,004,2022-05-06_10h51.26.878,FishGame,2022.1.1,59.8074320539405,
,21,넌 우유부단해,4,Green,A,2.666666666666667,3.166666666666667,ScrollDown,ScrollUp,Green.png,3,Negative,Incongruent,,,,,0,0,0,0,,,,,,,,,,,,,,,,,,,,,0,20,20,20,,,,,,,,,,,,,,,,,,,,,,,,,,,,,,,,,,,,,,,,,,,,,,,,,,,,,,,,,,,,,,,,,,,,,,,,,1,1.0423907999647781,477.22119589999784,None,ScrollDown,정답입니다,477.22119589999784,None,477.22119589999784,None,477.22119589999784,None,477.22119589999784,None,478.16616269992664,None,478.16616269992664,478.6693092000205,,,,,,,,,,,,,,,,004,2022-05-06_10h51.26.878,FishGame,2022.1.1,59.8074320539405,
,22,나를 데려가줘,6,Orange,B,0,0,ScrollDown,ScrollUp,Orange.png,3,NonTarget,NonTarget,,,,,0,0,0,0,,,,,,,,,,,,,,,,,,,,,0,21,21,21,,,,,,,,,,,,,,,,,,,,,,,,,,,,,,,,,,,,,,,,,,,,,,,,,,,,,,,,,,,,,,,,,,,,,,,,,1.0725308855374653,1.0950881000608206,479.30163519992493,None,ScrollDown,정답입니다,479.30163519992493,None,479.30163519992493,None,479.30163519992493,None,479.30163519992493,None,480.2971711999271,None,480.2971711999271,480.799390799948,,,,,,,,,,,,,,,,004,2022-05-06_10h51.26.878,FishGame,2022.1.1,59.8074320539405,
,23,넌 성실해,1,Orange,B,6.041666666666666,5.7,ScrollUp,ScrollDown,Orange.png,3,Positive,Incongruent,,,,,0,0,0,0,,,,,,,,,,,,,,,,,,,,,0,22,22,22,,,,,,,,,,,,,,,,,,,,,,,,,,,,,,,,,,,,,,,,,,,,,,,,,,,,,,,,,,,,,,,,,,,,,,,,,2,1.1610383000224829,481.4163669999689,None,ScrollUp,정답입니다,481.4163669999689,None,481.4163669999689,None,481.4163669999689,None,481.4163669999689,None,482.48052420001477,None,482.48052420001477,482.9828028000193,,,,,,,,,,,,,,,,004,2022-05-06_10h51.26.878,FishGame,2022.1.1,59.8074320539405,
,24,넌 현실주의적이야,3,Green,A,4.625,4.4,ScrollDown,ScrollUp,Green.png,3,Neutral,Neutral,,,,,0,0,0,0,,,,,,,,,,,,,,,,,,,,,0,23,23,23,,,,,,,,,,,,,,,,,,,,,,,,,,,,,,,,,,,,,,,,,,,,,,,,,,,,,,,,,,,,,,,,,,,,,,,,,1,1.0776671000057831,483.6028998999391,None,ScrollDown,정답입니다,483.6028998999391,None,483.6028998999391,None,483.6028998999391,None,483.6028998999391,None,484.58048749994487,None,484.58048749994487,485.0805059999693,,,,,,,,,,,,,,,,004,2022-05-06_10h51.26.878,FishGame,2022.1.1,59.8074320539405,
,25,넌 진실돼,1,Green,A,6.625,5.566666666666666,ScrollDown,ScrollUp,Green.png,3,Positive,Congruent,,,,,0,0,0,0,,,,,,,,,,,,,,,,,,,,,0,24,24,24,,,,,,,,,,,,,,,,,,,,,,,,,,,,,,,,,,,,,,,,,,,,,,,,,,,,,,,,,,,,,,,,,,,,,,,,,1,0.8758740000193939,485.7026921999641,None,ScrollDown,정답입니다,485.7026921999641,None,485.7026921999641,None,485.7026921999641,None,485.7026921999641,None,486.48044850002043,None,486.48044850002043,486.9804710999597,,,,,,,,,,,,,,,,004,2022-05-06_10h51.26.878,FishGame,2022.1.1,59.8074320539405,
,26,넌 천진난만해,3,Orange,B,4.958333333333334,4.833333333333333,ScrollUp,ScrollDown,Orange.png,3,Neutral,Neutral,,,,,0,0,0,0,,,,,,,,,,,,,,,,,,,,,0,25,25,25,,,,,,,,,,,,,,,,,,,,,,,,,,,,,,,,,,,,,,,,,,,,,,,,,,,,,,,,,,,,,,,,,,,,,,,,,2,1.4266242000740021,487.60328889999073,None,ScrollUp,정답입니다,487.60328889999073,None,487.60328889999073,None,487.60328889999073,None,487.60328889999073,None,488.9303295999998,None,488.9303295999998,489.43032639997546,,,,,,,,,,,,,,,,004,2022-05-06_10h51.26.878,FishGame,2022.1.1,59.8074320539405,
,27,넌 교양없어,5,Green,A,2.416666666666667,2.2,ScrollDown,ScrollUp,Green.png,3,Negative,Incongruent,,,,,0,0,0,0,,,,,,,,,,,,,,,,,,,,,0,26,26,26,,,,,,,,,,,,,,,,,,,,,,,,,,,,,,,,,,,,,,,,,,,,,,,,,,,,,,,,,,,,,,,,,,,,,,,,,1,0.9780473000137135,490.0541401999071,None,ScrollDown,정답입니다,490.0541401999071,None,490.0541401999071,None,490.0541401999071,None,490.0541401999071,None,490.9303520999383,None,490.9303520999383,491.4325727999676,,,,,,,,,,,,,,,,004,2022-05-06_10h51.26.878,FishGame,2022.1.1,59.8074320539405,
,28,나를 보내줘,6,Green,A,0,0,ScrollUp,ScrollDown,Green.png,3,NonTarget,NonTarget,,,,,0,0,0,0,,,,,,,,,,,,,,,,,,,,,0,27,27,27,,,,,,,,,,,,,,,,,,,,,,,,,,,,,,,,,,,,,,,,,,,,,,,,,,,,,,,,,,,,,,,,,,,,,,,,,2,1.177783100050874,492.05377659993246,None,ScrollUp,정답입니다,492.05377659993246,None,492.05377659993246,None,492.05377659993246,None,492.05377659993246,None,493.13029250002,None,493.13029250002,493.6303315999685,,,,,,,,,,,,,,,,004,2022-05-06_10h51.26.878,FishGame,2022.1.1,59.8074320539405,
,29,넌 엉뚱스러워,3,Green,A,4.166666666666667,4.133333333333334,ScrollDown,ScrollUp,Green.png,3,Neutral,Neutral,,,,,0,0,0,0,,,,,,,,,,,,,,,,,,,,,0,28,28,28,,,,,,,,,,,,,,,,,,,,,,,,,,,,,,,,,,,,,,,,,,,,,,,,,,,,,,,,,,,,,,,,,,,,,,,,,1,1.0610607999842614,494.2583663999103,None,ScrollDown,정답입니다,494.2583663999103,None,494.2583663999103,None,494.2583663999103,None,494.2583663999103,None,495.2135896999389,None,495.2135896999389,495.7136395999696,,,,,,,,,,,,,,,,004,2022-05-06_10h51.26.878,FishGame,2022.1.1,59.8074320539405,
,30,넌 무지해,4,Orange,B,2.541666666666667,3.066666666666667,ScrollUp,ScrollDown,Orange.png,3,Negative,Congruent,,,,,0,0,0,0,,,,,,,,,,,,,,,,,,,,,0,29,29,29,,,,,,,,,,,,,,,,,,,,,,,,,,,,,,,,,,,,,,,,,,,,,,,,,,,,,,,,,,,,,,,,,,,,,,,,,2,0.9505696999840438,496.3379669999704,None,ScrollUp,정답입니다,496.3379669999704,None,496.3379669999704,None,496.3379669999704,None,496.3379669999704,None,497.18604509998113,None,497.18604509998113,497.6971287999768,,,,,,,,,,,,,,,,004,2022-05-06_10h51.26.878,FishGame,2022.1.1,59.8074320539405,
,31,넌 음울해,5,Orange,B,2.25,2.233333333333333,ScrollUp,ScrollDown,Orange.png,3,Negative,Congruent,,,,,0,0,0,0,,,,,,,,,,,,,,,,,,,,,0,30,30,30,,,,,,,,,,,,,,,,,,,,,,,,,,,,,,,,,,,,,,,,,,,,,,,,,,,,,,,,,,,,,,,,,,,,,,,,,2,0.9590504000661895,498.32209389994387,None,ScrollUp,정답입니다,498.32209389994387,None,498.32209389994387,None,498.32209389994387,None,498.32209389994387,None,499.18018589995336,None,499.18018589995336,499.6801955999108,,,,,,,,,,,,,,,,004,2022-05-06_10h51.26.878,FishGame,2022.1.1,59.8074320539405,
,32,넌 냉소적이야,5,Green,A,2.916666666666667,2.4,ScrollDown,ScrollUp,Green.png,3,Negative,Incongruent,,,,,0,0,0,0,,,,,,,,,,,,,,,,,,,,,0,31,31,31,,,,,,,,,,,,,,,,,,,,,,,,,,,,,,,,,,,,,,,,,,,,,,,,,,,,,,,,,,,,,,,,,,,,,,,,,1,1.0425169999944046,500.3000598999206,None,ScrollDown,정답입니다,500.3000598999206,None,500.3000598999206,None,500.3000598999206,None,500.3000598999206,None,501.24680540000554,None,501.24680540000554,501.7468763999641,,,,,,,,,,,,,,,,004,2022-05-06_10h51.26.878,FishGame,2022.1.1,59.8074320539405,
,33,나를 데려가줘,6,Orange,B,0,0,ScrollDown,ScrollUp,Orange.png,3,NonTarget,NonTarget,,,,,0,0,0,0,,,,,,,,,,,,,,,,,,,,,0,32,32,32,,,,,,,,,,,,,,,,,,,,,,,,,,,,,,,,,,,,,,,,,,,,,,,,,,,,,,,,,,,,,,,,,,,,,,,,,1,1.1092785999644548,502.37121649994515,None,ScrollDown,정답입니다,502.37121649994515,None,502.37121649994515,None,502.37121649994515,None,502.37121649994515,None,503.38003060000483,None,503.38003060000483,503.88008049991913,,,,,,,,,,,,,,,,004,2022-05-06_10h51.26.878,FishGame,2022.1.1,59.8074320539405,
,34,넌 쾌활해,1,Green,A,5.541666666666666,5.733333333333333,ScrollDown,ScrollUp,Green.png,3,Positive,Congruent,,,,,0,0,0,0,,,,,,,,,,,,,,,,,,,,,0,33,33,33,,,,,,,,,,,,,,,,,,,,,,,,,,,,,,,,,,,,,,,,,,,,,,,,,,,,,,,,,,,,,,,,,,,,,,,,,1,1.1110820999601856,504.5006689999718,None,ScrollDown,정답입니다,504.5006689999718,None,504.5006689999718,None,504.5006689999718,None,504.5006689999718,None,505.51555389992427,None,505.51555389992427,506.03224179998506,,,,,,,,,,,,,,,,004,2022-05-06_10h51.26.878,FishGame,2022.1.1,59.8074320539405,
,35,나를 보내줘,6,Green,A,0,0,ScrollUp,ScrollDown,Green.png,3,NonTarget,NonTarget,,,,,0,0,0,0,,,,,,,,,,,,,,,,,,,,,0,34,34,34,,,,,,,,,,,,,,,,,,,,,,,,,,,,,,,,,,,,,,,,,,,,,,,,,,,,,,,,,,,,,,,,,,,,,,,,,2,1.1425362000009045,506.6369851999916,None,ScrollUp,정답입니다,506.6369851999916,None,506.6369851999916,None,506.6369851999916,None,506.6369851999916,None,507.6796949999407,None,507.6796949999407,508.1798675999744,,,,,,,,,,,,,,,,004,2022-05-06_10h51.26.878,FishGame,2022.1.1,59.8074320539405,
,36,넌 명랑해,1,Orange,B,5.739130434782609,5.666666666666667,ScrollUp,ScrollDown,Orange.png,3,Positive,Incongruent,,,,,0,0,0,0,,,,,,,,,,,,,,,,,,,,,0,35,35,35,,,,,,,,,,,,,,,,,,,,,,,,,,,,,,,,,,,,,,,,,,,,,,,,,,,,,,,,,,,,,,,,,,,,,,,,,2,1.2948309999192134,508.80756509990897,None,ScrollUp,정답입니다,508.80756509990897,None,508.80756509990897,None,508.80756509990897,None,508.80756509990897,None,509.9989836999448,None,509.9989836999448,510.4990356999915,,,,,,,,,,,,,,,,004,2022-05-06_10h51.26.878,FishGame,2022.1.1,59.8074320539405,
,37,넌 멍해,4,Green,A,2.833333333333333,3.4,ScrollDown,ScrollUp,Green.png,3,Negative,Incongruent,,,,,0,0,0,0,,,,,,,,,,,,,,,,,,,,,0,36,36,36,,,,,,,,,,,,,,,,,,,,,,,,,,,,,,,,,,,,,,,,,,,,,,,,,,,,,,,,,,,,,,,,,,,,,,,,,1,1.0433266999898478,511.11366819997784,None,ScrollDown,정답입니다,511.11366819997784,None,511.11366819997784,None,511.11366819997784,None,511.11366819997784,None,512.0586003999924,None,512.0586003999924,512.5631499999436,,,,,,,,,,,,,,,,004,2022-05-06_10h51.26.878,FishGame,2022.1.1,59.8074320539405,
,38,나를 데려가줘,6,Orange,B,0,0,ScrollDown,ScrollUp,Orange.png,3,NonTarget,NonTarget,,,,,0,0,0,0,,,,,,,,,,,,,,,,,,,,,0,37,37,37,,,,,,,,,,,,,,,,,,,,,,,,,,,,,,,,,,,,,,,,,,,,,,,,,,,,,,,,,,,,,,,,,,,,,,,,,1,1.0781888000201434,513.1827667999314,None,ScrollDown,정답입니다,513.1827667999314,None,513.1827667999314,None,513.1827667999314,None,513.1827667999314,None,514.1629479000112,None,514.1629479000112,514.6653813999146,,,,,,,,,,,,,,,,004,2022-05-06_10h51.26.878,FishGame,2022.1.1,59.8074320539405,
,39,넌 현명해,2,Green,A,6.541666666666666,4.533333333333333,ScrollDown,ScrollUp,Green.png,3,Positive,Congruent,,,,,0,0,0,0,,,,,,,,,,,,,,,,,,,,,0,38,38,38,,,,,,,,,,,,,,,,,,,,,,,,,,,,,,,,,,,,,,,,,,,,,,,,,,,,,,,,,,,,,,,,,,,,,,,,,1,1.1612949999980628,515.2818032999057,None,ScrollDown,정답입니다,515.2818032999057,None,515.2818032999057,None,515.2818032999057,None,515.2818032999057,None,516.3465510999085,None,516.3465510999085,516.8519330999115,,,,,,,,,,,,,,,,004,2022-05-06_10h51.26.878,FishGame,2022.1.1,59.8074320539405,
,40,넌 수줍어,3,Orange,B,3.541666666666666,4.366666666666666,ScrollUp,ScrollDown,Orange.png,3,Neutral,Neutral,,,,,0,0,0,0,,,,,,,,,,,,,,,,,,,,,0,39,39,39,,,,,,,,,,,,,,,,,,,,,,,,,,,,,,,,,,,,,,,,,,,,,,,,,,,,,,,,,,,,,,,,,,,,,,,,,2,1.0940922000445426,517.4664019999327,None,ScrollUp,정답입니다,517.4664019999327,None,517.4664019999327,None,517.4664019999327,None,517.4664019999327,None,518.4631216999842,None,518.4631216999842,518.9631384999957,,,,,,,,,,,,,,,,004,2022-05-06_10h51.26.878,FishGame,2022.1.1,59.8074320539405,
,41,나를 데려가줘,6,Orange,B,0,0,ScrollDown,ScrollUp,Orange.png,3,NonTarget,NonTarget,,,,,0,0,0,0,,,,,,,,,,,,,,,,,,,,,0,40,40,40,,,,,,,,,,,,,,,,,,,,,,,,,,,,,,,,,,,,,,,,,,,,,,,,,,,,,,,,,,,,,,,,,,,,,,,,,1,1.1784752999665216,519.5826889999444,None,ScrollDown,정답입니다,519.5826889999444,None,519.5826889999444,None,519.5826889999444,None,519.5826889999444,None,520.6631008000113,None,520.6631008000113,521.1631324000191,,,,,,,,,,,,,,,,004,2022-05-06_10h51.26.878,FishGame,2022.1.1,59.8074320539405,
,42,넌 성숙해,2,Orange,B,5.833333333333333,4.533333333333333,ScrollUp,ScrollDown,Orange.png,3,Positive,Incongruent,,,,,0,0,0,0,,,,,,,,,,,,,,,,,,,,,0,41,41,41,,,,,,,,,,,,,,,,,,,,,,,,,,,,,,,,,,,,,,,,,,,,,,,,,,,,,,,,,,,,,,,,,,,,,,,,,2,1.21144640003331,521.780309899943,None,ScrollUp,정답입니다,521.780309899943,None,521.780309899943,None,521.780309899943,None,521.780309899943,None,522.8963306999067,None,522.8963306999067,523.3963970999466,,,,,,,,,,,,,,,,004,2022-05-06_10h51.26.878,FishGame,2022.1.1,59.8074320539405,
,1,넌 매력적이야,2,Orange,B,6.125,4.666666666666667,ScrollUp,ScrollDown,Orange.png,4,Positive,Incongruent,,,,,0,0,0,0,,,,,,,,,,,,,,,,,,,,,,,,,0,0,0,0,,,,,,,,,,,,,,,,,,,,,,,,,,,,555.4620724999113,556.9677390999859,556.9844150999561,557.9480578999501,557.997967400006,558.951092400006,558.9344415999949,None,,,,,,,,,,,,,,,,,,,,,,,,,,,,,,,,,,2,1.11335570004303,560.1083225000184,None,ScrollUp,정답입니다,560.1083225000184,None,560.1083225000184,None,560.1083225000184,None,560.1083225000184,None,561.0622493999545,None,561.0622493999545,561.5621531999204,523.8963248999789,None,523.8963248999789,None,0.18240741,-0.074074075,1,0,0,0.015946720144711435,None,553.8955053999089,None,,,004,2022-05-06_10h51.26.878,FishGame,2022.1.1,59.8074320539405,
,2,나를 보내줘,6,Green,A,0,0,ScrollUp,ScrollDown,Green.png,4,NonTarget,NonTarget,,,,,0,0,0,0,,,,,,,,,,,,,,,,,,,,,,,,,0,1,1,1,,,,,,,,,,,,,,,,,,,,,,,,,,,,,,,,,,,,,,,,,,,,,,,,,,,,,,,,,,,,,,,,,,,,,2,1.1788815000327304,562.1770924999146,None,ScrollUp,정답입니다,562.1770924999146,None,562.1770924999146,None,562.1770924999146,None,562.1770924999146,None,563.2620971999131,None,563.2620971999131,563.7621745999204,,,,,,,,,,,,,,,,004,2022-05-06_10h51.26.878,FishGame,2022.1.1,59.8074320539405,
,3,넌 조심스러워,3,Green,A,4.791666666666666,4.666666666666667,ScrollDown,ScrollUp,Green.png,4,Neutral,Neutral,,,,,0,0,0,0,,,,,,,,,,,,,,,,,,,,,,,,,0,2,2,2,,,,,,,,,,,,,,,,,,,,,,,,,,,,,,,,,,,,,,,,,,,,,,,,,,,,,,,,,,,,,,,,,,,,,1.0570987462997437,1.0611423999071121,564.3884938999545,None,ScrollDown,정답입니다,564.3884938999545,None,564.3884938999545,None,564.3884938999545,None,564.3884938999545,None,565.3454883999657,None,565.3454883999657,565.8477158999303,,,,,,,,,,,,,,,,004,2022-05-06_10h51.26.878,FishGame,2022.1.1,59.8074320539405,
,4,넌 철학적이야,3,Orange,B,4.5,4.266666666666667,ScrollUp,ScrollDown,Orange.png,4,Neutral,Neutral,,,,,0,0,0,0,,,,,,,,,,,,,,,,,,,,,,,,,0,3,3,3,,,,,,,,,,,,,,,,,,,,,,,,,,,,,,,,,,,,,,,,,,,,,,,,,,,,,,,,,,,,,,,,,,,,,2,1.1757476999191567,566.469447099953,None,ScrollUp,정답입니다,566.469447099953,None,566.469447099953,None,566.469447099953,None,566.469447099953,None,567.5453307999996,None,567.5453307999996,568.0453428999754,,,,,,,,,,,,,,,,004,2022-05-06_10h51.26.878,FishGame,2022.1.1,59.8074320539405,
,5,넌 쩨쩨해,5,Green,A,2.375,2.133333333333333,ScrollDown,ScrollUp,Green.png,4,Negative,Incongruent,,,,,0,0,0,0,,,,,,,,,,,,,,,,,,,,,,,,,0,4,4,4,,,,,,,,,,,,,,,,,,,,,,,,,,,,,,,,,,,,,,,,,,,,,,,,,,,,,,,,,,,,,,,,,,,,,1,1.0284182999748737,568.6681249999674,None,ScrollDown,정답입니다,568.6681249999674,None,568.6681249999674,None,568.6681249999674,None,568.6681249999674,None,569.5953420000151,None,569.5953420000151,570.097630299977,,,,,,,,,,,,,,,,004,2022-05-06_10h51.26.878,FishGame,2022.1.1,59.8074320539405,
,6,나를 데려가줘,6,Orange,B,0,0,ScrollDown,ScrollUp,Orange.png,4,NonTarget,NonTarget,,,,,0,0,0,0,,,,,,,,,,,,,,,,,,,,,,,,,0,5,5,5,,,,,,,,,,,,,,,,,,,,,,,,,,,,,,,,,,,,,,,,,,,,,,,,,,,,,,,,,,,,,,,,,,,,,1,1.2767459999304265,570.7146211999934,None,ScrollDown,정답입니다,570.7146211999934,None,570.7146211999934,None,570.7146211999934,None,570.7146211999934,None,571.8952321999241,None,571.8952321999241,572.3952999999747,,,,,,,,,,,,,,,,004,2022-05-06_10h51.26.878,FishGame,2022.1.1,59.8074320539405,
,7,넌 고집불통이야,5,Orange,B,2.875,2,ScrollUp,ScrollDown,Orange.png,4,Negative,Congruent,,,,,0,0,0,0,,,,,,,,,,,,,,,,,,,,,,,,,0,6,6,6,,,,,,,,,,,,,,,,,,,,,,,,,,,,,,,,,,,,,,,,,,,,,,,,,,,,,,,,,,,,,,,,,,,,,1.652777781089147,0.9775107000023127,573.0270221999381,None,ScrollUp,정답입니다,573.0270221999381,None,573.0270221999381,None,573.0270221999381,None,573.0270221999381,None,573.8952318999218,None,573.8952318999218,574.3953825000208,,,,,,,,,,,,,,,,004,2022-05-06_10h51.26.878,FishGame,2022.1.1,59.8074320539405,
,8,넌 무심해,4,Green,A,2.875,3.2,ScrollDown,ScrollUp,Green.png,4,Negative,Incongruent,,,,,0,0,0,0,,,,,,,,,,,,,,,,,,,,,,,,,0,7,7,7,,,,,,,,,,,,,,,,,,,,,,,,,,,,,,,,,,,,,,,,,,,,,,,,,,,,,,,,,,,,,,,,,,,,,1.0185184975465138,0.9114878000691533,575.0177752999589,None,ScrollDown,정답입니다,575.0177752999589,None,575.0177752999589,None,575.0177752999589,None,575.0177752999589,None,575.8285417999141,None,575.8285417999141,576.3308605999919,,,,,,,,,,,,,,,,004,2022-05-06_10h51.26.878,FishGame,2022.1.1,59.8074320539405,
,9,넌 정겨워,1,Green,A,5.791666666666667,5.666666666666667,ScrollDown,ScrollUp,Green.png,4,Positive,Congruent,,,,,0,0,0,0,,,,,,,,,,,,,,,,,,,,,,,,,0,8,8,8,,,,,,,,,,,,,,,,,,,,,,,,,,,,,,,,,,,,,,,,,,,,,,,,,,,,,,,,,,,,,,,,,,,,,1.1728395173947017,0.9092943000141531,576.9508620999986,None,ScrollDown,정답입니다,576.9508620999986,None,576.9508620999986,None,576.9508620999986,None,576.9508620999986,None,577.7618399999337,None,577.7618399999337,578.262020999915,,,,,,,,,,,,,,,,004,2022-05-06_10h51.26.878,FishGame,2022.1.1,59.8074320539405,
,10,나를 데려가줘,6,Orange,B,0,0,ScrollDown,ScrollUp,Orange.png,4,NonTarget,NonTarget,,,,,0,0,0,0,,,,,,,,,,,,,,,,,,,,,,,,,0,9,9,9,,,,,,,,,,,,,,,,,,,,,,,,,,,,,,,,,,,,,,,,,,,,,,,,,,,,,,,,,,,,,,,,,,,,,1.1435185273488362,1.011513500008732,578.8855968000134,None,ScrollDown,정답입니다,578.8855968000134,None,578.8855968000134,None,578.8855968000134,None,578.8855968000134,None,579.7951287999749,None,579.7951287999749,580.2952035999624,,,,,,,,,,,,,,,,004,2022-05-06_10h51.26.878,FishGame,2022.1.1,59.8074320539405,
,11,넌 체제순응적이야,4,Orange,B,3,3.6,ScrollUp,ScrollDown,Orange.png,4,Negative,Congruent,,,,,0,0,0,0,,,,,,,,,,,,,,,,,,,,,,,,,0,10,10,10,,,,,,,,,,,,,,,,,,,,,,,,,,,,,,,,,,,,,,,,,,,,,,,,,,,,,,,,,,,,,,,,,,,,,2,1.1101048999698833,580.9196987999603,None,ScrollUp,정답입니다,580.9196987999603,None,580.9196987999603,None,580.9196987999603,None,580.9196987999603,None,581.9283574000001,None,581.9283574000001,582.4284114999464,,,,,,,,,,,,,,,,004,2022-05-06_10h51.26.878,FishGame,2022.1.1,59.8074320539405,
,12,나를 보내줘,6,Green,A,0,0,ScrollUp,ScrollDown,Green.png,4,NonTarget,NonTarget,,,,,0,0,0,0,,,,,,,,,,,,,,,,,,,,,,,,,0,11,11,11,,,,,,,,,,,,,,,,,,,,,,,,,,,,,,,,,,,,,,,,,,,,,,,,,,,,,,,,,,,,,,,,,,,,,2,1.1297762000467628,583.041007099906,None,ScrollUp,정답입니다,583.041007099906,None,583.041007099906,None,583.041007099906,None,583.041007099906,None,584.080551699968,None,584.080551699968,584.5951784999343,,,,,,,,,,,,,,,,004,2022-05-06_10h51.26.878,FishGame,2022.1.1,59.8074320539405,
,13,넌 박식해,2,Green,A,5.625,3.933333333333333,ScrollDown,ScrollUp,Green.png,4,Positive,Congruent,,,,,0,0,0,0,,,,,,,,,,,,,,,,,,,,,,,,,0,12,12,12,,,,,,,,,,,,,,,,,,,,,,,,,,,,,,,,,,,,,,,,,,,,,,,,,,,,,,,,,,,,,,,,,,,,,1,0.9922929999884218,585.2045671999222,None,ScrollDown,정답입니다,585.2045671999222,None,585.2045671999222,None,585.2045671999222,None,585.2045671999222,None,586.0949827999575,None,586.0949827999575,586.5949865999864,,,,,,,,,,,,,,,,004,2022-05-06_10h51.26.878,FishGame,2022.1.1,59.8074320539405,
,14,나를 보내줘,6,Green,A,0,0,ScrollUp,ScrollDown,Green.png,4,NonTarget,NonTarget,,,,,0,0,0,0,,,,,,,,,,,,,,,,,,,,,,,,,0,13,13,13,,,,,,,,,,,,,,,,,,,,,,,,,,,,,,,,,,,,,,,,,,,,,,,,,,,,,,,,,,,,,,,,,,,,,1.9783950746059418,1.1114330999553204,587.2089390999172,None,ScrollUp,정답입니다,587.2089390999172,None,587.2089390999172,None,587.2089390999172,None,587.2089390999172,None,588.2282508999342,None,588.2282508999342,588.7304469000082,,,,,,,,,,,,,,,,004,2022-05-06_10h51.26.878,FishGame,2022.1.1,59.8074320539405,
,15,넌 침착해,1,Orange,B,5.458333333333333,5.566666666666666,ScrollUp,ScrollDown,Orange.png,4,Positive,Incongruent,,,,,0,0,0,0,,,,,,,,,,,,,,,,,,,,,,,,,0,14,14,14,,,,,,,,,,,,,,,,,,,,,,,,,,,,,,,,,,,,,,,,,,,,,,,,,,,,,,,,,,,,,,,,,,,,,2,1.0281620000023395,589.3624547999352,None,ScrollUp,정답입니다,589.3624547999352,None,589.3624547999352,None,589.3624547999352,None,589.3624547999352,None,590.2782914999407,None,590.2782914999407,590.7783846999519,,,,,,,,,,,,,,,,004,2022-05-06_10h51.26.878,FishGame,2022.1.1,59.8074320539405,
,16,나를 데려가줘,6,Orange,B,0,0,ScrollDown,ScrollUp,Orange.png,4,NonTarget,NonTarget,,,,,0,0,0,0,,,,,,,,,,,,,,,,,,,,,,,,,0,15,15,15,,,,,,,,,,,,,,,,,,,,,,,,,,,,,,,,,,,,,,,,,,,,,,,,,,,,,,,,,,,,,,,,,,,,,1.0787036915620167,0.9283006000332534,591.4098293000134,None,ScrollDown,정답입니다,591.4098293000134,None,591.4098293000134,None,591.4098293000134,None,591.4098293000134,None,592.2281508999877,None,592.2281508999877,592.7282158000162,,,,,,,,,,,,,,,,004,2022-05-06_10h51.26.878,FishGame,2022.1.1,59.8074320539405,
,17,넌 행복해,1,Green,A,6.416666666666666,6.166666666666667,ScrollDown,ScrollUp,Green.png,4,Positive,Congruent,,,,,0,0,0,0,,,,,,,,,,,,,,,,,,,,,,,,,0,16,16,16,,,,,,,,,,,,,,,,,,,,,,,,,,,,,,,,,,,,,,,,,,,,,,,,,,,,,,,,,,,,,,,,,,,,,1.0462962985038757,0.8762336000800133,593.348021099926,None,ScrollDown,정답입니다,593.348021099926,None,593.348021099926,None,593.348021099926,None,593.348021099926,None,594.1281606999692,None,594.1281606999692,594.6281751999632,,,,,,,,,,,,,,,,004,2022-05-06_10h51.26.878,FishGame,2022.1.1,59.8074320539405,
,18,넌 겸손해,2,Orange,B,5.791666666666667,4.766666666666667,ScrollUp,ScrollDown,Orange.png,4,Positive,Incongruent,,,,,0,0,0,0,,,,,,,,,,,,,,,,,,,,,,,,,0,17,17,17,,,,,,,,,,,,,,,,,,,,,,,,,,,,,,,,,,,,,,,,,,,,,,,,,,,,,,,,,,,,,,,,,,,,,2,1.1926419000374153,595.2539643999189,None,ScrollUp,정답입니다,595.2539643999189,None,595.2539643999189,None,595.2539643999189,None,595.2539643999189,None,596.3447255999781,None,596.3447255999781,596.8448854999151,,,,,,,,,,,,,,,,004,2022-05-06_10h51.26.878,FishGame,2022.1.1,59.8074320539405,
,19,나를 보내줘,6,Green,A,0,0,ScrollUp,ScrollDown,Green.png,4,NonTarget,NonTarget,,,,,0,0,0,0,,,,,,,,,,,,,,,,,,,,,,,,,0,18,18,18,,,,,,,,,,,,,,,,,,,,,,,,,,,,,,,,,,,,,,,,,,,,,,,,,,,,,,,,,,,,,,,,,,,,,1.90586419403553,1.1424649000400677,597.4792768999469,None,ScrollUp,정답입니다,597.4792768999469,None,597.4792768999469,None,597.4792768999469,None,597.4792768999469,None,598.513525599963,None,598.513525599963,599.0303005999885,,,,,,,,,,,,,,,,004,2022-05-06_10h51.26.878,FishGame,2022.1.1,59.8074320539405,
,20,넌 의심없어,3,Green,A,4.166666666666667,4.6,ScrollDown,ScrollUp,Green.png,4,Neutral,Neutral,,,,,0,0,0,0,,,,,,,,,,,,,,,,,,,,,,,,,0,19,19,19,,,,,,,,,,,,,,,,,,,,,,,,,,,,,,,,,,,,,,,,,,,,,,,,,,,,,,,,,,,,,,,,,,,,,1.174382706483205,1.0423669000156224,599.6328378999606,None,ScrollDown,정답입니다,599.6328378999606,None,599.6328378999606,None,599.6328378999606,None,599.6328378999606,None,600.577727099997,None,600.577727099997,601.0777885999996,,,,,,,,,,,,,,,,004,2022-05-06_10h51.26.878,FishGame,2022.1.1,59.8074320539405,
,21,넌 시시해,4,Green,A,2.666666666666667,2.966666666666667,ScrollDown,ScrollUp,Green.png,4,Negative,Incongruent,,,,,0,0,0,0,,,,,,,,,,,,,,,,,,,,,,,,,0,20,20,20,,,,,,,,,,,,,,,,,,,,,,,,,,,,,,,,,,,,,,,,,,,,,,,,,,,,,,,,,,,,,,,,,,,,,1.2237654278675716,0.7780378999887034,601.698240299942,None,ScrollDown,정답입니다,601.698240299942,None,601.698240299942,None,601.698240299942,None,601.698240299942,None,602.3777419999242,None,602.3777419999242,602.8803187999874,,,,,,,,,,,,,,,,004,2022-05-06_10h51.26.878,FishGame,2022.1.1,59.8074320539405,
,22,나를 데려가줘,6,Orange,B,0,0,ScrollDown,ScrollUp,Orange.png,4,NonTarget,NonTarget,,,,,0,0,0,0,,,,,,,,,,,,,,,,,,,,,,,,,0,21,21,21,,,,,,,,,,,,,,,,,,,,,,,,,,,,,,,,,,,,,,,,,,,,,,,,,,,,,,,,,,,,,,,,,,,,,1.2438271592060726,1.0094504000153393,603.5020431999583,None,ScrollDown,정답입니다,603.5020431999583,None,603.5020431999583,None,603.5020431999583,None,603.5020431999583,None,604.4136365000159,None,604.4136365000159,604.9113159999251,,,,,,,,,,,,,,,,004,2022-05-06_10h51.26.878,FishGame,2022.1.1,59.8074320539405,
,23,넌 무정해,5,Green,A,2.5,2.2,ScrollDown,ScrollUp,Green.png,4,Negative,Incongruent,,,,,0,0,0,0,,,,,,,,,,,,,,,,,,,,,,,,,0,22,22,22,,,,,,,,,,,,,,,,,,,,,,,,,,,,,,,,,,,,,,,,,,,,,,,,,,,,,,,,,,,,,,,,,,,,,1.0570987462997437,0.8806721000000834,605.5412923999829,None,ScrollDown,정답입니다,605.5412923999829,None,605.5412923999829,None,605.5412923999829,None,605.5412923999829,None,606.3279391999822,None,606.3279391999822,606.8302564999321,,,,,,,,,,,,,,,,004,2022-05-06_10h51.26.878,FishGame,2022.1.1,59.8074320539405,
,24,넌 긍정적이야,1,Orange,B,6.041666666666667,6.066666666666666,ScrollUp,ScrollDown,Orange.png,4,Positive,Incongruent,,,,,0,0,0,0,,,,,,,,,,,,,,,,,,,,,,,,,0,23,23,23,,,,,,,,,,,,,,,,,,,,,,,,,,,,,,,,,,,,,,,,,,,,,,,,,,,,,,,,,,,,,,,,,,,,,1.8749999900658925,1.0596948999445885,607.4567012999905,None,ScrollUp,정답입니다,607.4567012999905,None,607.4567012999905,None,607.4567012999905,None,607.4567012999905,None,608.4108959999867,None,608.4108959999867,608.9110263999319,,,,,,,,,,,,,,,,004,2022-05-06_10h51.26.878,FishGame,2022.1.1,59.8074320539405,
,25,나를 보내줘,6,Green,A,0,0,ScrollUp,ScrollDown,Green.png,4,NonTarget,NonTarget,,,,,0,0,0,0,,,,,,,,,,,,,,,,,,,,,,,,,0,24,24,24,,,,,,,,,,,,,,,,,,,,,,,,,,,,,,,,,,,,,,,,,,,,,,,,,,,,,,,,,,,,,,,,,,,,,2,1.7949068000307307,609.5264405999333,None,ScrollUp,정답입니다,609.5264405999333,None,609.5264405999333,None,609.5264405999333,None,609.5264405999333,None,611.2301055999706,None,611.2301055999706,611.7301901999163,,,,,,,,,,,,,,,,004,2022-05-06_10h51.26.878,FishGame,2022.1.1,59.8074320539405,
,26,넌 시기심이 많아,5,Orange,B,2.458333333333333,2.233333333333333,ScrollUp,ScrollDown,Orange.png,4,Negative,Congruent,,,,,0,0,0,0,,,,,,,,,,,,,,,,,,,,,,,,,0,25,25,25,,,,,,,,,,,,,,,,,,,,,,,,,,,,,,,,,,,,,,,,,,,,,,,,,,,,,,,,,,,,,,,,,,,,,1.919753094514211,0.9760052000638098,612.3545436999993,None,ScrollUp,정답입니다,612.3545436999993,None,612.3545436999993,None,612.3545436999993,None,612.3545436999993,None,613.2300247999374,None,613.2300247999374,613.727676999988,,,,,,,,,,,,,,,,004,2022-05-06_10h51.26.878,FishGame,2022.1.1,59.8074320539405,
,27,넌 탁월해,2,Green,A,5.708333333333334,4.5,ScrollDown,ScrollUp,Green.png,4,Positive,Congruent,,,,,0,0,0,0,,,,,,,,,,,,,,,,,,,,,,,,,0,26,26,26,,,,,,,,,,,,,,,,,,,,,,,,,,,,,,,,,,,,,,,,,,,,,,,,,,,,,,,,,,,,,,,,,,,,,1.1574074029922485,1.3782418000046164,614.3645541999722,None,ScrollDown,정답입니다,614.3645541999722,None,614.3645541999722,None,614.3645541999722,None,614.3645541999722,None,615.6443770999322,None,615.6443770999322,616.1442359000212,,,,,,,,,,,,,,,,004,2022-05-06_10h51.26.878,FishGame,2022.1.1,59.8074320539405,
,28,나를 데려가줘,6,Orange,B,0,0,ScrollDown,ScrollUp,Orange.png,4,NonTarget,NonTarget,,,,,0,0,0,0,,,,,,,,,,,,,,,,,,,,,,,,,0,27,27,27,,,,,,,,,,,,,,,,,,,,,,,,,,,,,,,,,,,,,,,,,,,,,,,,,,,,,,,,,,,,,,,,,,,,,1.0848765472571056,1.0090506999986246,616.7713535999646,None,ScrollDown,정답입니다,616.7713535999646,None,616.7713535999646,None,616.7713535999646,None,616.7713535999646,None,617.6773849999299,None,617.6773849999299,618.1774505999638,,,,,,,,,,,,,,,,004,2022-05-06_10h51.26.878,FishGame,2022.1.1,59.8074320539405,
,29,넌 조용해,3,Orange,B,4.333333333333333,4.166666666666667,ScrollUp,ScrollDown,Orange.png,4,Neutral,Neutral,,,,,0,0,0,0,,,,,,,,,,,,,,,,,,,,,,,,,0,28,28,28,,,,,,,,,,,,,,,,,,,,,,,,,,,,,,,,,,,,,,,,,,,,,,,,,,,,,,,,,,,,,,,,,,,,,1.9367283980051677,1.0781750000314787,618.8011399999959,None,ScrollUp,정답입니다,618.8011399999959,None,618.8011399999959,None,618.8011399999959,None,618.8011399999959,None,619.7798747000052,None,619.7798747000052,620.2798420999898,,,,,,,,,,,,,,,,004,2022-05-06_10h51.26.878,FishGame,2022.1.1,59.8074320539405,
,30,넌 다정해,1,Green,A,5.833333333333334,5.7,ScrollDown,ScrollUp,Green.png,4,Positive,Congruent,,,,,0,0,0,0,,,,,,,,,,,,,,,,,,,,,,,,,0,29,29,29,,,,,,,,,,,,,,,,,,,,,,,,,,,,,,,,,,,,,,,,,,,,,,,,,,,,,,,,,,,,,,,,,,,,,1,0.8939991999650374,620.9020048999228,None,ScrollDown,정답입니다,620.9020048999228,None,620.9020048999228,None,620.9020048999228,None,620.9020048999228,None,621.6965993000194,None,621.6965993000194,622.1941720999312,,,,,,,,,,,,,,,,004,2022-05-06_10h51.26.878,FishGame,2022.1.1,59.8074320539405,
,31,넌 능력있어,2,Orange,B,6.166666666666666,4.6,ScrollUp,ScrollDown,Orange.png,4,Positive,Incongruent,,,,,0,0,0,0,,,,,,,,,,,,,,,,,,,,,,,,,0,30,30,30,,,,,,,,,,,,,,,,,,,,,,,,,,,,,,,,,,,,,,,,,,,,,,,,,,,,,,,,,,,,,,,,,,,,,2,1.3614877000218257,622.8326622999739,None,ScrollUp,정답입니다,622.8326622999739,None,622.8326622999739,None,622.8326622999739,None,622.8326622999739,None,624.0941941000056,None,624.0941941000056,624.594256500015,,,,,,,,,,,,,,,,004,2022-05-06_10h51.26.878,FishGame,2022.1.1,59.8074320539405,
,32,넌 불쾌해,5,Green,A,2.125,1.933333333333333,ScrollDown,ScrollUp,Green.png,4,Negative,Incongruent,,,,,0,0,0,0,,,,,,,,,,,,,,,,,,,,,,,,,0,31,31,31,,,,,,,,,,,,,,,,,,,,,,,,,,,,,,,,,,,,,,,,,,,,,,,,,,,,,,,,,,,,,,,,,,,,,1.0416666567325592,0.9591877000639215,625.2174128999468,None,ScrollDown,정답입니다,625.2174128999468,None,625.2174128999468,None,625.2174128999468,None,625.2174128999468,None,626.0771914999932,None,626.0771914999932,626.5772625999525,,,,,,,,,,,,,,,,004,2022-05-06_10h51.26.878,FishGame,2022.1.1,59.8074320539405,
,33,나를 데려가줘,6,Orange,B,0,0,ScrollDown,ScrollUp,Orange.png,4,NonTarget,NonTarget,,,,,0,0,0,0,,,,,,,,,,,,,,,,,,,,,,,,,0,32,32,32,,,,,,,,,,,,,,,,,,,,,,,,,,,,,,,,,,,,,,,,,,,,,,,,,,,,,,,,,,,,,,,,,,,,,1.1095678955316544,1.361809500027448,627.1978586999467,None,ScrollDown,정답입니다,627.1978586999467,None,627.1978586999467,None,627.1978586999467,None,627.1978586999467,None,628.4630747999763,None,628.4630747999763,628.9630565999541,,,,,,,,,,,,,,,,004,2022-05-06_10h51.26.878,FishGame,2022.1.1,59.8074320539405,
,34,넌 유순해,3,Green,A,4.458333333333333,5,ScrollDown,ScrollUp,Green.png,4,Neutral,Neutral,,,,,0,0,0,0,,,,,,,,,,,,,,,,,,,,,,,,,0,33,33,33,,,,,,,,,,,,,,,,,,,,,,,,,,,,,,,,,,,,,,,,,,,,,,,,,,,,,,,,,,,,,,,,,,,,,1.1481481442848842,0.9606594999786466,629.5803524999646,None,ScrollDown,정답입니다,629.5803524999646,None,629.5803524999646,None,629.5803524999646,None,629.5803524999646,None,630.444049899932,None,630.444049899932,630.9441823000088,,,,,,,,,,,,,,,,004,2022-05-06_10h51.26.878,FishGame,2022.1.1,59.8074320539405,
,35,넌 근심스러워,4,Orange,B,2.708333333333333,3.133333333333333,ScrollUp,ScrollDown,Orange.png,4,Negative,Congruent,,,,,0,0,0,0,,,,,,,,,,,,,,,,,,,,,,,,,0,34,34,34,,,,,,,,,,,,,,,,,,,,,,,,,,,,,,,,,,,,,,,,,,,,,,,,,,,,,,,,,,,,,,,,,,,,,1.8904321044683456,1.0259367000544444,631.5699934000149,None,ScrollUp,정답입니다,631.5699934000149,None,631.5699934000149,None,631.5699934000149,None,631.5699934000149,None,632.4940397000173,None,632.4940397000173,632.9940937999636,,,,,,,,,,,,,,,,004,2022-05-06_10h51.26.878,FishGame,2022.1.1,59.8074320539405,
,36,넌 세련되었어,2,Green,A,5.5,4.6,ScrollDown,ScrollUp,Green.png,4,Positive,Congruent,,,,,0,0,0,0,,,,,,,,,,,,,,,,,,,,,,,,,0,35,35,35,,,,,,,,,,,,,,,,,,,,,,,,,,,,,,,,,,,,,,,,,,,,,,,,,,,,,,,,,,,,,,,,,,,,,1.1018518507480621,0.9778155999956653,633.6306110000005,None,ScrollDown,정답입니다,633.6306110000005,None,633.6306110000005,None,633.6306110000005,None,633.6306110000005,None,634.4940084000118,None,634.4940084000118,634.9939959999174,,,,,,,,,,,,,,,,004,2022-05-06_10h51.26.878,FishGame,2022.1.1,59.8074320539405,
,37,나를 보내줘,6,Green,A,0,0,ScrollUp,ScrollDown,Green.png,4,NonTarget,NonTarget,,,,,0,0,0,0,,,,,,,,,,,,,,,,,,,,,,,,,0,36,36,36,,,,,,,,,,,,,,,,,,,,,,,,,,,,,,,,,,,,,,,,,,,,,,,,,,,,,,,,,,,,,,,,,,,,,2,1.2465006998972967,635.6117022999097,None,ScrollUp,정답입니다,635.6117022999097,None,635.6117022999097,None,635.6117022999097,None,635.6117022999097,None,636.7605926999822,None,636.7605926999822,637.2627844999079,,,,,,,,,,,,,,,,004,2022-05-06_10h51.26.878,FishGame,2022.1.1,59.8074320539405,
,38,넌 확고해,3,Orange,B,4.708333333333334,4.566666666666666,ScrollUp,ScrollDown,Orange.png,4,Neutral,Neutral,,,,,0,0,0,0,,,,,,,,,,,,,,,,,,,,,,,,,0,37,37,37,,,,,,,,,,,,,,,,,,,,,,,,,,,,,,,,,,,,,,,,,,,,,,,,,,,,,,,,,,,,,,,,,,,,,2,1.0260519000003114,637.8883890999714,None,ScrollUp,정답입니다,637.8883890999714,None,637.8883890999714,None,637.8883890999714,None,637.8883890999714,None,638.8105700999731,None,638.8105700999731,639.3104650999885,,,,,,,,,,,,,,,,004,2022-05-06_10h51.26.878,FishGame,2022.1.1,59.8074320539405,
,39,넌 이해심이 많아,1,Orange,B,6.041666666666668,5.533333333333333,ScrollUp,ScrollDown,Orange.png,4,Positive,Incongruent,,,,,0,0,0,0,,,,,,,,,,,,,,,,,,,,,,,,,0,38,38,38,,,,,,,,,,,,,,,,,,,,,,,,,,,,,,,,,,,,,,,,,,,,,,,,,,,,,,,,,,,,,,,,,,,,,2,1.1426885999972,639.9321100999368,None,ScrollUp,정답입니다,639.9321100999368,None,639.9321100999368,None,639.9321100999368,None,639.9321100999368,None,640.9771532999584,None,640.9771532999584,641.479350599926,,,,,,,,,,,,,,,,004,2022-05-06_10h51.26.878,FishGame,2022.1.1,59.8074320539405,
,40,나를 보내줘,6,Green,A,0,0,ScrollUp,ScrollDown,Green.png,4,NonTarget,NonTarget,,,,,0,0,0,0,,,,,,,,,,,,,,,,,,,,,,,,,0,39,39,39,,,,,,,,,,,,,,,,,,,,,,,,,,,,,,,,,,,,,,,,,,,,,,,,,,,,,,,,,,,,,,,,,,,,,1.9783950746059418,1.1926634999690577,642.0953950999537,None,ScrollUp,정답입니다,642.0953950999537,None,642.0953950999537,None,642.0953950999537,None,642.0953950999537,None,643.1937213999918,None,643.1937213999918,643.6937824999914,,,,,,,,,,,,,,,,004,2022-05-06_10h51.26.878,FishGame,2022.1.1,59.8074320539405,
,41,넌 거칠어,4,Green,A,2.625,3.033333333333333,ScrollDown,ScrollUp,Green.png,4,Negative,Incongruent,,,,,0,0,0,0,,,,,,,,,,,,,,,,,,,,,,,,,0,40,40,40,,,,,,,,,,,,,,,,,,,,,,,,,,,,,,,,,,,,,,,,,,,,,,,,,,,,,,,,,,,,,,,,,,,,,1.174382706483205,1.0260504999896511,644.3172881999053,None,ScrollDown,정답입니다,644.3172881999053,None,644.3172881999053,None,644.3172881999053,None,644.3172881999053,None,645.2437444999814,None,645.2437444999814,645.7437571999617,,,,,,,,,,,,,,,,004,2022-05-06_10h51.26.878,FishGame,2022.1.1,59.8074320539405,
,42,넌 변덕맞아,5,Orange,B,2.75,2.166666666666667,ScrollUp,ScrollDown,Orange.png,4,Negative,Congruent,,,,,0,0,0,0,,,,,,,,,,,,,,,,,,,,,,,,,0,41,41,41,,,,,,,,,,,,,,,,,,,,,,,,,,,,,,,,,,,,,,,,,,,,,,,,,,,,,,,,,,,,,,,,,,,,,1.9675925771395366,1.3281072000972927,646.3702500999207,None,ScrollUp,정답입니다,646.3702500999207,None,646.3702500999207,None,646.3702500999207,None,646.3702500999207,None,647.5936351999408,None,647.5936351999408,648.0936969999457,,,,,,,,,,,,,,,,004,2022-05-06_10h51.26.878,FishGame,2022.1.1,59.8074320539405,
,43,나를 데려가줘,6,Orange,B,0,0,ScrollDown,ScrollUp,Orange.png,4,NonTarget,NonTarget,,,,,0,0,0,0,,,,,,,,,,,,,,,,,,,,,,,,,0,42,42,42,,,,,,,,,,,,,,,,,,,,,,,,,,,,,,,,,,,,,,,,,,,,,,,,,,,,,,,,,,,,,,,,,,,,,1.0833333333333333,1.0614761000033468,648.7121384999482,None,ScrollDown,정답입니다,648.7121384999482,None,648.7121384999482,None,648.7121384999482,None,648.7121384999482,None,649.6769554999191,None,649.6769554999191,650.1792356999358,,,,,,,,,,,,,,,,004,2022-05-06_10h51.26.878,FishGame,2022.1.1,59.8074320539405,
,44,넌 외로워,4,Orange,B,2.833333333333333,3.3,ScrollUp,ScrollDown,Orange.png,4,Negative,Congruent,,,,,0,0,0,0,,,,,,,,,,,,,,,,,,,,,,,,,0,43,43,43,,,,,,,,,,,,,,,,,,,,,,,,,,,,,,,,,,,,,,,,,,,,,,,,,,,,,,,,,,,,,,,,,,,,,2,1.111459199921228,650.79985760001,None,ScrollUp,정답입니다,650.79985760001,None,650.79985760001,None,650.79985760001,None,650.79985760001,None,651.8124668999808,None,651.8124668999808,652.3103502999293,,,,,,,,,,,,,,,,004,2022-05-06_10h51.26.878,FishGame,2022.1.1,59.8074320539405,
,1,넌 불평스러워,5,Green,A,2.25,2.066666666666667,ScrollDown,ScrollUp,Green.png,5,Negative,Incongruent,,,,,0,0,0,0,,,,,,,,,,,,,,,,,,,,,,,,,,,,,0,0,0,0,,,,,,,,,,,,,,,,,,,,,,,,684.8430783000076,686.345259899972,686.3764127999311,687.3316641999409,687.3594257999212,688.3097067999188,688.3262117999839,None,,,,,,,,,,,,,,,,,,,,,,,,,,,,,,,,,,1,1.0389436000259593,689.4457788999425,None,ScrollDown,정답입니다,689.4457788999425,None,689.4457788999425,None,689.4457788999425,None,689.4457788999425,None,690.3784377999837,None,690.3784377999837,690.8928349999478,652.8160910999868,None,652.8160910999868,None,-0.015740741,-0.09166667,1,0,0,0.016419320018030703,None,682.8262096999679,None,,,004,2022-05-06_10h51.26.878,FishGame,2022.1.1,59.8074320539405,
,2,나를 보내줘,6,Green,A,0,0,ScrollUp,ScrollDown,Green.png,5,NonTarget,NonTarget,,,,,0,0,0,0,,,,,,,,,,,,,,,,,,,,,,,,,,,,,0,1,1,1,,,,,,,,,,,,,,,,,,,,,,,,,,,,,,,,,,,,,,,,,,,,,,,,,,,,,,,,,,,,,,,,,2,1.2101084999740124,691.4976079999469,None,ScrollUp,정답입니다,691.4976079999469,None,691.4976079999469,None,691.4976079999469,None,691.4976079999469,None,692.609428799944,None,692.609428799944,693.109450399992,,,,,,,,,,,,,,,,004,2022-05-06_10h51.26.878,FishGame,2022.1.1,59.8074320539405,
,3,넌 다재다능해,2,Orange,B,6.208333333333333,4.5,ScrollUp,ScrollDown,Orange.png,5,Positive,Incongruent,,,,,0,0,0,0,,,,,,,,,,,,,,,,,,,,,,,,,,,,,0,2,2,2,,,,,,,,,,,,,,,,,,,,,,,,,,,,,,,,,,,,,,,,,,,,,,,,,,,,,,,,,,,,,,,,,2,1.1758581000613049,693.7302823999198,None,ScrollUp,정답입니다,693.7302823999198,None,693.7302823999198,None,693.7302823999198,None,693.7302823999198,None,694.809404599946,None,694.809404599946,695.3094451999059,,,,,,,,,,,,,,,,004,2022-05-06_10h51.26.878,FishGame,2022.1.1,59.8074320539405,
,4,넌 과감해,3,Green,A,4.833333333333334,4.6,ScrollDown,ScrollUp,Green.png,5,Neutral,Neutral,,,,,0,0,0,0,,,,,,,,,,,,,,,,,,,,,,,,,,,,,0,3,3,3,,,,,,,,,,,,,,,,,,,,,,,,,,,,,,,,,,,,,,,,,,,,,,,,,,,,,,,,,,,,,,,,,1.016975333293279,1.1111856000497937,695.9270902000135,None,ScrollDown,정답입니다,695.9270902000135,None,695.9270902000135,None,695.9270902000135,None,695.9270902000135,None,696.9426492999773,None,696.9426492999773,697.444889599923,,,,,,,,,,,,,,,,004,2022-05-06_10h51.26.878,FishGame,2022.1.1,59.8074320539405,
,5,넌 고분고분해,3,Orange,B,3.75,4.033333333333333,ScrollUp,ScrollDown,Orange.png,5,Neutral,Neutral,,,,,0,0,0,0,,,,,,,,,,,,,,,,,,,,,,,,,,,,,0,4,4,4,,,,,,,,,,,,,,,,,,,,,,,,,,,,,,,,,,,,,,,,,,,,,,,,,,,,,,,,,,,,,,,,,1.7376543233791986,1.0754702999256551,698.0704493999947,None,ScrollUp,정답입니다,698.0704493999947,None,698.0704493999947,None,698.0704493999947,None,698.0704493999947,None,699.0423210000154,None,699.0423210000154,699.5424294999102,,,,,,,,,,,,,,,,004,2022-05-06_10h51.26.878,FishGame,2022.1.1,59.8074320539405,
,6,나를 보내줘,6,Green,A,0,0,ScrollUp,ScrollDown,Green.png,5,NonTarget,NonTarget,,,,,0,0,0,0,,,,,,,,,,,,,,,,,,,,,,,,,,,,,0,5,5,5,,,,,,,,,,,,,,,,,,,,,,,,,,,,,,,,,,,,,,,,,,,,,,,,,,,,,,,,,,,,,,,,,1.9706790049870808,1.0782678000396118,700.1601687999209,None,ScrollUp,정답입니다,700.1601687999209,None,700.1601687999209,None,700.1601687999209,None,700.1601687999209,None,701.1448561999714,None,701.1448561999714,701.6615623999387,,,,,,,,,,,,,,,,004,2022-05-06_10h51.26.878,FishGame,2022.1.1,59.8074320539405,
,7,넌 잘 잊어,4,Green,A,3,3.7,ScrollDown,ScrollUp,Green.png,5,Negative,Incongruent,,,,,0,0,0,0,,,,,,,,,,,,,,,,,,,,,,,,,,,,,0,6,6,6,,,,,,,,,,,,,,,,,,,,,,,,,,,,,,,,,,,,,,,,,,,,,,,,,,,,,,,,,,,,,,,,,1.1651234477758408,0.9479998000897467,702.2643703999929,None,ScrollDown,정답입니다,702.2643703999929,None,702.2643703999929,None,702.2643703999929,None,702.2643703999929,None,703.1148961000144,None,703.1148961000144,703.625834699953,,,,,,,,,,,,,,,,004,2022-05-06_10h51.26.878,FishGame,2022.1.1,59.8074320539405,
,8,넌 탐구심이없어,4,Orange,B,2.833333333333333,3.066666666666667,ScrollUp,ScrollDown,Orange.png,5,Negative,Congruent,,,,,0,0,0,0,,,,,,,,,,,,,,,,,,,,,,,,,,,,,0,7,7,7,,,,,,,,,,,,,,,,,,,,,,,,,,,,,,,,,,,,,,,,,,,,,,,,,,,,,,,,,,,,,,,,,1.7700617164373398,0.9782961999299005,704.248924799962,None,ScrollUp,정답입니다,704.248924799962,None,704.248924799962,None,704.248924799962,None,704.248924799962,None,705.1258225999773,None,705.1258225999773,705.6282039999496,,,,,,,,,,,,,,,,004,2022-05-06_10h51.26.878,FishGame,2022.1.1,59.8074320539405,
,9,나를 데려가줘,6,Orange,B,0,0,ScrollDown,ScrollUp,Orange.png,5,NonTarget,NonTarget,,,,,0,0,0,0,,,,,,,,,,,,,,,,,,,,,,,,,,,,,0,8,8,8,,,,,,,,,,,,,,,,,,,,,,,,,,,,,,,,,,,,,,,,,,,,,,,,,,,,,,,,,,,,,,,,,1.0231481393178303,1.1257836000295356,706.2506251999876,None,ScrollDown,정답입니다,706.2506251999876,None,706.2506251999876,None,706.2506251999876,None,706.2506251999876,None,707.2757624000078,None,707.2757624000078,707.7757571999682,,,,,,,,,,,,,,,,004,2022-05-06_10h51.26.878,FishGame,2022.1.1,59.8074320539405,
,10,넌 참되어,2,Green,A,6.041666666666664,4.733333333333333,ScrollDown,ScrollUp,Green.png,5,Positive,Congruent,,,,,0,0,0,0,,,,,,,,,,,,,,,,,,,,,,,,,,,,,0,9,9,9,,,,,,,,,,,,,,,,,,,,,,,,,,,,,,,,,,,,,,,,,,,,,,,,,,,,,,,,,,,,,,,,,1.367283950249354,0.9446873000124469,708.3956919999328,None,ScrollDown,정답입니다,708.3956919999328,None,708.3956919999328,None,708.3956919999328,None,708.3956919999328,None,709.2423831999768,None,709.2423831999768,709.7446292999666,,,,,,,,,,,,,,,,004,2022-05-06_10h51.26.878,FishGame,2022.1.1,59.8074320539405,
,11,넌 생기있어,1,Orange,B,5.875,5.633333333333334,ScrollUp,ScrollDown,Orange.png,5,Positive,Incongruent,,,,,0,0,0,0,,,,,,,,,,,,,,,,,,,,,,,,,,,,,0,10,10,10,,,,,,,,,,,,,,,,,,,,,,,,,,,,,,,,,,,,,,,,,,,,,,,,,,,,,,,,,,,,,,,,,1.8904321044683456,1.0754791999934241,710.3710945999483,None,ScrollUp,정답입니다,710.3710945999483,None,710.3710945999483,None,710.3710945999483,None,710.3710945999483,None,711.3420473999577,None,711.3420473999577,711.8421612000093,,,,,,,,,,,,,,,,004,2022-05-06_10h51.26.878,FishGame,2022.1.1,59.8074320539405,
,12,넌 비사교적이야,4,Orange,B,2.875,2.9,ScrollUp,ScrollDown,Orange.png,5,Negative,Congruent,,,,,0,0,0,0,,,,,,,,,,,,,,,,,,,,,,,,,,,,,0,11,11,11,,,,,,,,,,,,,,,,,,,,,,,,,,,,,,,,,,,,,,,,,,,,,,,,,,,,,,,,,,,,,,,,,1.7422839403152466,0.8616371999960393,712.4611444999464,None,ScrollUp,정답입니다,712.4611444999464,None,712.4611444999464,None,712.4611444999464,None,712.4611444999464,None,713.2253954999615,None,713.2253954999615,713.7279852000065,,,,,,,,,,,,,,,,004,2022-05-06_10h51.26.878,FishGame,2022.1.1,59.8074320539405,
,13,나를 데려가줘,6,Orange,B,0,0,ScrollDown,ScrollUp,Orange.png,5,NonTarget,NonTarget,,,,,0,0,0,0,,,,,,,,,,,,,,,,,,,,,,,,,,,,,0,12,12,12,,,,,,,,,,,,,,,,,,,,,,,,,,,,,,,,,,,,,,,,,,,,,,,,,,,,,,,,,,,,,,,,,1.194444437821706,1.0096503999084234,714.3491828999249,None,ScrollDown,정답입니다,714.3491828999249,None,714.3491828999249,None,714.3491828999249,None,714.3491828999249,None,715.2590254999232,None,715.2590254999232,715.7612960999832,,,,,,,,,,,,,,,,004,2022-05-06_10h51.26.878,FishGame,2022.1.1,59.8074320539405,
,14,넌 고독해,4,Green,A,2.916666666666667,3.233333333333333,ScrollDown,ScrollUp,Green.png,5,Negative,Incongruent,,,,,0,0,0,0,,,,,,,,,,,,,,,,,,,,,,,,,,,,,0,13,13,13,,,,,,,,,,,,,,,,,,,,,,,,,,,,,,,,,,,,,,,,,,,,,,,,,,,,,,,,,,,,,,,,,1.1435185273488362,0.9260485999984667,716.3771763999248,None,ScrollDown,정답입니다,716.3771763999248,None,716.3771763999248,None,716.3771763999248,None,716.3771763999248,None,717.2085884999251,None,717.2085884999251,717.7086745999986,,,,,,,,,,,,,,,,004,2022-05-06_10h51.26.878,FishGame,2022.1.1,59.8074320539405,
,15,넌 신경질적이야,5,Orange,B,2.375,2.233333333333333,ScrollUp,ScrollDown,Orange.png,5,Negative,Congruent,,,,,0,0,0,0,,,,,,,,,,,,,,,,,,,,,,,,,,,,,0,14,14,14,,,,,,,,,,,,,,,,,,,,,,,,,,,,,,,,,,,,,,,,,,,,,,,,,,,,,,,,,,,,,,,,,2,1.295044899918139,718.3280635999981,None,ScrollUp,정답입니다,718.3280635999981,None,718.3280635999981,None,718.3280635999981,None,718.3280635999981,None,719.5278468999313,None,719.5278468999313,720.0258477999596,,,,,,,,,,,,,,,,004,2022-05-06_10h51.26.878,FishGame,2022.1.1,59.8074320539405,
,16,넌 똑똑해,2,Orange,B,5.666666666666667,3.966666666666667,ScrollUp,ScrollDown,Orange.png,5,Positive,Incongruent,,,,,0,0,0,0,,,,,,,,,,,,,,,,,,,,,,,,,,,,,0,15,15,15,,,,,,,,,,,,,,,,,,,,,,,,,,,,,,,,,,,,,,,,,,,,,,,,,,,,,,,,,,,,,,,,,2,0.9755090000107884,720.6666905999882,None,ScrollUp,정답입니다,720.6666905999882,None,720.6666905999882,None,720.6666905999882,None,720.6666905999882,None,721.5278578000143,None,721.5278578000143,722.027817599941,,,,,,,,,,,,,,,,004,2022-05-06_10h51.26.878,FishGame,2022.1.1,59.8074320539405,
,17,나를 보내줘,6,Green,A,0,0,ScrollUp,ScrollDown,Green.png,5,NonTarget,NonTarget,,,,,0,0,0,0,,,,,,,,,,,,,,,,,,,,,,,,,,,,,0,16,16,16,,,,,,,,,,,,,,,,,,,,,,,,,,,,,,,,,,,,,,,,,,,,,,,,,,,,,,,,,,,,,,,,,1.8904321044683456,1.2261376000242308,722.6484300999437,None,ScrollUp,정답입니다,722.6484300999437,None,722.6484300999437,None,722.6484300999437,None,722.6484300999437,None,723.7751412999351,None,723.7751412999351,724.2752213999629,,,,,,,,,,,,,,,,004,2022-05-06_10h51.26.878,FishGame,2022.1.1,59.8074320539405,
,18,넌 협조적이야,1,Green,A,5.625,5.666666666666667,ScrollDown,ScrollUp,Green.png,5,Positive,Congruent,,,,,0,0,0,0,,,,,,,,,,,,,,,,,,,,,,,,,,,,,0,17,17,17,,,,,,,,,,,,,,,,,,,,,,,,,,,,,,,,,,,,,,,,,,,,,,,,,,,,,,,,,,,,,,,,,1.2592592487732568,0.9115821999730542,724.8963916999055,None,ScrollDown,정답입니다,724.8963916999055,None,724.8963916999055,None,724.8963916999055,None,724.8963916999055,None,725.7087913999567,None,725.7087913999567,726.2110731999855,,,,,,,,,,,,,,,,004,2022-05-06_10h51.26.878,FishGame,2022.1.1,59.8074320539405,
,19,나를 데려가줘,6,Orange,B,0,0,ScrollDown,ScrollUp,Orange.png,5,NonTarget,NonTarget,,,,,0,0,0,0,,,,,,,,,,,,,,,,,,,,,,,,,,,,,0,18,18,18,,,,,,,,,,,,,,,,,,,,,,,,,,,,,,,,,,,,,,,,,,,,,,,,,,,,,,,,,,,,,,,,,1.2793209801117578,1.1257834000280127,726.8355631999439,None,ScrollDown,정답입니다,726.8355631999439,None,726.8355631999439,None,726.8355631999439,None,726.8355631999439,None,727.8610091999872,None,727.8610091999872,728.3753842000151,,,,,,,,,,,,,,,,004,2022-05-06_10h51.26.878,FishGame,2022.1.1,59.8074320539405,
,20,넌 몰인정해,5,Orange,B,2.541666666666667,2.066666666666667,ScrollUp,ScrollDown,Orange.png,5,Negative,Congruent,,,,,0,0,0,0,,,,,,,,,,,,,,,,,,,,,,,,,,,,,0,19,19,19,,,,,,,,,,,,,,,,,,,,,,,,,,,,,,,,,,,,,,,,,,,,,,,,,,,,,,,,,,,,,,,,,2,1.5933969999896362,728.996071600006,None,ScrollUp,정답입니다,728.996071600006,None,728.996071600006,None,728.996071600006,None,728.996071600006,None,730.4919459999073,None,730.4919459999073,730.9942404999165,,,,,,,,,,,,,,,,004,2022-05-06_10h51.26.878,FishGame,2022.1.1,59.8074320539405,
,21,나를 데려가줘,6,Orange,B,0,0,ScrollDown,ScrollUp,Orange.png,5,NonTarget,NonTarget,,,,,0,0,0,0,,,,,,,,,,,,,,,,,,,,,,,,,,,,,0,20,20,20,,,,,,,,,,,,,,,,,,,,,,,,,,,,,,,,,,,,,,,,,,,,,,,,,,,,,,,,,,,,,,,,,1.174382706483205,1.0089007000206038,731.6196900999639,None,ScrollDown,정답입니다,731.6196900999639,None,731.6196900999639,None,731.6196900999639,None,731.6196900999639,None,732.5249304999597,None,732.5249304999597,733.0250098999823,,,,,,,,,,,,,,,,004,2022-05-06_10h51.26.878,FishGame,2022.1.1,59.8074320539405,
,22,넌 순진해,3,Orange,B,4.125,4.166666666666667,ScrollUp,ScrollDown,Orange.png,5,Neutral,Neutral,,,,,0,0,0,0,,,,,,,,,,,,,,,,,,,,,,,,,,,,,0,21,21,21,,,,,,,,,,,,,,,,,,,,,,,,,,,,,,,,,,,,,,,,,,,,,,,,,,,,,,,,,,,,,,,,,1.7376543233791986,1.080868799937889,733.6421590999234,None,ScrollUp,정답입니다,733.6421590999234,None,733.6421590999234,None,733.6421590999234,None,733.6421590999234,None,734.6275495999726,None,734.6275495999726,735.1275938999606,,,,,,,,,,,,,,,,004,2022-05-06_10h51.26.878,FishGame,2022.1.1,59.8074320539405,
,23,넌 신뢰할만해,1,Green,A,6.625,5.533333333333333,ScrollDown,ScrollUp,Green.png,5,Positive,Congruent,,,,,0,0,0,0,,,,,,,,,,,,,,,,,,,,,,,,,,,,,0,22,22,22,,,,,,,,,,,,,,,,,,,,,,,,,,,,,,,,,,,,,,,,,,,,,,,,,,,,,,,,,,,,,,,,,1.0385802288850148,0.9265915000578389,735.7462008999428,None,ScrollDown,정답입니다,735.7462008999428,None,735.7462008999428,None,735.7462008999428,None,735.7462008999428,None,736.5774357999908,None,736.5774357999908,737.0806016999995,,,,,,,,,,,,,,,,004,2022-05-06_10h51.26.878,FishGame,2022.1.1,59.8074320539405,
,24,나를 보내줘,6,Green,A,0,0,ScrollUp,ScrollDown,Green.png,5,NonTarget,NonTarget,,,,,0,0,0,0,,,,,,,,,,,,,,,,,,,,,,,,,,,,,0,23,23,23,,,,,,,,,,,,,,,,,,,,,,,,,,,,,,,,,,,,,,,,,,,,,,,,,,,,,,,,,,,,,,,,,1.9027777661879857,0.9595188000239432,737.6918385999743,None,ScrollUp,정답입니다,737.6918385999743,None,737.6918385999743,None,737.6918385999743,None,737.6918385999743,None,738.5584129999625,None,738.5584129999625,739.0584401999367,,,,,,,,,,,,,,,,004,2022-05-06_10h51.26.878,FishGame,2022.1.1,59.8074320539405,
,25,넌 인색해,5,Green,A,2.625,2.233333333333333,ScrollDown,ScrollUp,Green.png,5,Negative,Incongruent,,,,,0,0,0,0,,,,,,,,,,,,,,,,,,,,,,,,,,,,,0,24,24,24,,,,,,,,,,,,,,,,,,,,,,,,,,,,,,,,,,,,,,,,,,,,,,,,,,,,,,,,,,,,,,,,,1.1342592686414719,0.9427642000373453,739.6835235999897,None,ScrollDown,정답입니다,739.6835235999897,None,739.6835235999897,None,739.6835235999897,None,739.6835235999897,None,740.5250573999947,None,740.5250573999947,741.0251051000087,,,,,,,,,,,,,,,,004,2022-05-06_10h51.26.878,FishGame,2022.1.1,59.8074320539405,
,26,넌 유쾌해,1,Orange,B,5.833333333333333,5.766666666666667,ScrollUp,ScrollDown,Orange.png,5,Positive,Incongruent,,,,,0,0,0,0,,,,,,,,,,,,,,,,,,,,,,,,,,,,,0,25,25,25,,,,,,,,,,,,,,,,,,,,,,,,,,,,,,,,,,,,,,,,,,,,,,,,,,,,,,,,,,,,,,,,,1.89969136317571,0.9421444999752566,741.647398000001,None,ScrollUp,정답입니다,741.647398000001,None,741.647398000001,None,741.647398000001,None,741.647398000001,None,742.4916710999096,None,742.4916710999096,742.9939110999694,,,,,,,,,,,,,,,,004,2022-05-06_10h51.26.878,FishGame,2022.1.1,59.8074320539405,
