name,TrialNum,Word,WordCategory,FishType,WordList,WordValence,WordReputation,CorrectResp,IncorrectResp,FishTypeFile,Round,WordType,Condition,LoopforOrange.thisRepN,LoopforOrange.thisTrialN,LoopforOrange.thisN,LoopforOrange.thisIndex,OrangeInstLoop.thisRepN,OrangeInstLoop.thisTrialN,OrangeInstLoop.thisN,OrangeInstLoop.thisIndex,OrangePrac.thisRepN,OrangePrac.thisTrialN,OrangePrac.thisN,OrangePrac.thisIndex,temp1.thisRepN,temp1.thisTrialN,temp1.thisN,temp1.thisIndex,OrangeRound1.thisRepN,OrangeRound1.thisTrialN,OrangeRound1.thisN,OrangeRound1.thisIndex,OrangeRound2.thisRepN,OrangeRound2.thisTrialN,OrangeRound2.thisN,OrangeRound2.thisIndex,OrangeRound3.thisRepN,OrangeRound3.thisTrialN,OrangeRound3.thisN,OrangeRound3.thisIndex,OrangeRound4.thisRepN,OrangeRound4.thisTrialN,OrangeRound4.thisN,OrangeRound4.thisIndex,OrangeRound5.thisRepN,OrangeRound5.thisTrialN,OrangeRound5.thisN,OrangeRound5.thisIndex,LoopForGreen.thisRepN,LoopForGreen.thisTrialN,LoopForGreen.thisN,LoopForGreen.thisIndex,text_2.started,text_2.stopped,text_3.started,text_3.stopped,key_resp.keys,key_resp.rt,key_resp.started,key_resp.stopped,PassI_2.started,PassI_2.stopped,PassInst_2.keys,PassInst_2.rt,PassInst_2.started,PassInst_2.stopped,mouse_2.x,mouse_2.y,mouse_2.leftButton,mouse_2.midButton,mouse_2.rightButton,mouse_2.started,mouse_2.stopped,image.started,image.stopped,text_5.started,text_5.stopped,text_6.started,text_6.stopped,text_7.started,text_7.stopped,text_8.started,text_8.stopped,slider_2.response,slider_2.rt,slider_2.started,slider_2.stopped,Response_2,Feedback_2,BackGround_2.started,BackGround_2.stopped,Fish_2.started,Fish_2.stopped,WordBox_2.started,WordBox_2.stopped,Words_2.started,Words_2.stopped,BackGround_Feedback_2.started,BackGround_Feedback_2.stopped,Feedbacks_2.started,Feedbacks_2.stopped,Continue_or_not.keys,Continue_or_not.rt,Continue_or_not.started,Continue_or_not.stopped,image_3.started,image_3.stopped,mouse_3.x,mouse_3.y,mouse_3.leftButton,mouse_3.midButton,mouse_3.rightButton,mouse_3.started,mouse_3.stopped,startmain.started,startmain.stopped,slider.response,slider.rt,slider.started,slider.stopped,Response,Feedback,BackGround.started,BackGround.stopped,Fish.started,Fish.stopped,WordBox.started,WordBox.stopped,Words.started,Words.stopped,BackGround_Feedback.started,BackGround_Feedback.stopped,Feedbacks.started,Feedbacks.stopped,text.started,text.stopped,break_interval.started,break_interval.stopped,mouse.x,mouse.y,mouse.leftButton,mouse.midButton,mouse.rightButton,mouse.started,mouse.stopped,stratnextround.started,stratnextround.stopped,endgame.started,endgame.stopped,participant,date,expName,psychopyVersion,frameRate,
,,,,,,,,,,,,,,,,,,,,,,,,,,,,,,,,,,,,,,,,,,,,,,,,,,,,,,18.43943449994549,None,18.43943449994549,None,space,2.7824323000386357,18.93774670001585,None,,,,,,,,,,,,,,,,,,,,,,,,,,,,,,,,,,,,,,,,,,,,,,,,,,,,,,,,,,,,,,,,,,,,,,,,,,,,,,,,,,,,,,,,,,005,2022-05-06_17h50.26.087,FishGame,2022.1.1,60.00376825136869,
물고기과제_instruction(참가자용)OrangeVersion.mp4,,,,,,,,,,,,,,0,0,0,0,0,0,0,0,,,,,,,,,,,,,,,,,,,,,,,,,,,,,,,,,,,,,,,,,103.48595230001956,None,n,3.7881941000232473,103.48595230001956,None,,,,,,,,,,,,,,,,,,,,,,,,,,,,,,,,,,,,,,,,,,,,,,,,,,,,,,,,,,,,,,,,,,,,,,,,,,,,,,,,,,,,005,2022-05-06_17h50.26.087,FishGame,2022.1.1,60.00376825136869,
,1,넌 교활해,5,Green,B,2.333333333333333,2.133333333333333,ScrollUp,ScrollDown,Green.png,practice,,,0,0,0,0,,,,,0,0,0,0,0,0,0,0,,,,,,,,,,,,,,,,,,,,,,,,,,,,,,,,,,,,,,,0.6944444,0.03425926,1,0,0,0.5103696000296623,None,107.29706509993412,None,112.89726330002304,114.39685319992714,114.43024110002443,115.38026649993844,115.4302491999697,116.38552809995599,116.38552809995599,None,2,1.8454526000423357,117.69146150001325,None,ScrollUp,정답입니다,117.69146150001325,None,117.69146150001325,None,117.69146150001325,None,117.69146150001325,None,119.2393207999412,None,119.2393207999412,119.74655209993944,,,,,,,,,,,,,,,,,,,,,,,,,,,,,,,,,,,,,,,,,,,,,,,,,005,2022-05-06_17h50.26.087,FishGame,2022.1.1,60.00376825136869,
,2,넌 슬기로워,2,Orange,A,6.166666666666667,4.1,ScrollDown,ScrollUp,Orange.png,practice,,,0,0,0,0,,,,,0,0,0,0,0,1,1,1,,,,,,,,,,,,,,,,,,,,,,,,,,,,,,,,,,,,,,,,,,,,,,,,,,,,,,,,1,1.2300851000472903,120.37249530002009,None,ScrollDown,정답입니다,120.37249530002009,None,120.37249530002009,None,120.37249530002009,None,120.37249530002009,None,121.49652149993926,None,121.49652149993926,121.99899679992814,,,,,,,,,,,,,,,,,,,,,,,,,,,,,,,,,,,,,,,,,,,,,,,,,005,2022-05-06_17h50.26.087,FishGame,2022.1.1,60.00376825136869,
,3,나를 보내줘,6,Orange,A,0,0,ScrollUp,ScrollDown,Orange.png,practice,,,0,0,0,0,,,,,0,0,0,0,0,2,2,2,,,,,,,,,,,,,,,,,,,,,,,,,,,,,,,,,,,,,,,,,,,,,,,,,,,,,,,,2,1.368420199956745,122.61929159995634,None,ScrollUp,정답입니다,122.61929159995634,None,122.61929159995634,None,122.61929159995634,None,122.61929159995634,None,123.89213639998343,None,123.89213639998343,124.39888679992873,,,,,,,,,,,,,,,,,,,,,,,,,,,,,,,,,,,,,,,,,,,,,,,,,005,2022-05-06_17h50.26.087,FishGame,2022.1.1,60.00376825136869,
,4,나를 데려가줘,6,Green,B,0,0,ScrollDown,ScrollUp,Green.png,practice,,,0,0,0,0,,,,,0,0,0,0,0,3,3,3,,,,,,,,,,,,,,,,,,,,,,,,,,,,,,,,,,,,,,,,,,,,,,,,,,,,,,,,1,1.0444259999785572,125.01601749996189,None,ScrollDown,정답입니다,125.01601749996189,None,125.01601749996189,None,125.01601749996189,None,125.01601749996189,None,125.96548609994352,None,125.96548609994352,126.46320889994968,,,,,,,,,,,,,,,,,,,,,,,,,,,,,,,,,,,,,,,,,,,,,,,,,005,2022-05-06_17h50.26.087,FishGame,2022.1.1,60.00376825136869,
,1,넌 교활해,5,Green,B,2.333333333333333,2.133333333333333,ScrollUp,ScrollDown,Green.png,practice,,,0,0,0,0,,,,,0,0,0,0,,,,,,,,,,,,,,,,,,,,,,,,,,,,,,,,,,,,,,,,,,,,,,,,,,,,,,,,,,,,,,,,,,,,,,,,,,,,,,n,7.374653199920431,126.9687134999549,None,126.9687134999549,None,,,,,,,,,,,,,,,,,,,,,,,,,,,,,,,,,,,,,,,,,,,005,2022-05-06_17h50.26.087,FishGame,2022.1.1,60.00376825136869,
,1,넌 따뜻해,1,Green,B,6.083333333333333,5.6,ScrollUp,ScrollDown,Green.png,1,Positive,Incongruent,0,0,0,0,,,,,,,,,,,,,0,0,0,0,,,,,,,,,,,,,,,,,,,,,,,,,,,,,,,,,,,,,,,,,,,,136.29660939995665,137.79878139996435,137.83210310002323,138.7987294999184,138.83002759993542,139.78218500001822,139.78218500001822,None,,,,,,,,,,,,,,,,,,,,,,,,,0.76203704,-0.23055555,1,0,0,0.31396410008892417,None,134.3630998999579,None,2,1.5888724999967963,141.08613199996762,None,ScrollUp,정답입니다,141.08613199996762,None,141.08613199996762,None,141.08613199996762,None,141.08613199996762,None,142.37540379993152,None,142.37540379993152,142.87936689995695,,,,,,,,,,,,,,,,005,2022-05-06_17h50.26.087,FishGame,2022.1.1,60.00376825136869,
,2,넌 기품있어,2,Green,B,5.791666666666668,4.5,ScrollUp,ScrollDown,Green.png,1,Positive,Incongruent,0,0,0,0,,,,,,,,,,,,,0,1,1,1,,,,,,,,,,,,,,,,,,,,,,,,,,,,,,,,,,,,,,,,,,,,,,,,,,,,,,,,,,,,,,,,,,,,,,,,,,,,,,,,,,,,,2,1.2281307999510318,143.50749490002636,None,ScrollUp,정답입니다,143.50749490002636,None,143.50749490002636,None,143.50749490002636,None,143.50749490002636,None,144.62931160000153,None,144.62931160000153,145.13180149998516,,,,,,,,,,,,,,,,005,2022-05-06_17h50.26.087,FishGame,2022.1.1,60.00376825136869,
,3,나를 보내줘,6,Orange,A,0,0,ScrollUp,ScrollDown,Orange.png,1,NonTarget,NonTarget,0,0,0,0,,,,,,,,,,,,,0,2,2,2,,,,,,,,,,,,,,,,,,,,,,,,,,,,,,,,,,,,,,,,,,,,,,,,,,,,,,,,,,,,,,,,,,,,,,,,,,,,,,,,,,,,,2,1.229622200015001,145.75528119993396,None,ScrollUp,정답입니다,145.75528119993396,None,145.75528119993396,None,145.75528119993396,None,145.75528119993396,None,146.8817767999135,None,146.8817767999135,147.38179939996917,,,,,,,,,,,,,,,,005,2022-05-06_17h50.26.087,FishGame,2022.1.1,60.00376825136869,
,4,넌 수동적이야,4,Orange,A,2.833333333333333,2.933333333333333,ScrollDown,ScrollUp,Orange.png,1,Negative,Incongruent,0,0,0,0,,,,,,,,,,,,,0,3,3,3,,,,,,,,,,,,,,,,,,,,,,,,,,,,,,,,,,,,,,,,,,,,,,,,,,,,,,,,,,,,,,,,,,,,,,,,,,,,,,,,,,,,,1,1.0786133999936283,148.01156799995806,None,ScrollDown,정답입니다,148.01156799995806,None,148.01156799995806,None,148.01156799995806,None,148.01156799995806,None,148.97945470002014,None,148.97945470002014,149.48175689997151,,,,,,,,,,,,,,,,005,2022-05-06_17h50.26.087,FishGame,2022.1.1,60.00376825136869,
,5,넌 사심이 없어,3,Green,B,4.916666666666666,4.333333333333333,ScrollUp,ScrollDown,Green.png,1,Neutral,Neutral,0,0,0,0,,,,,,,,,,,,,0,4,4,4,,,,,,,,,,,,,,,,,,,,,,,,,,,,,,,,,,,,,,,,,,,,,,,,,,,,,,,,,,,,,,,,,,,,,,,,,,,,,,,,,,,,,2,1.2098663999931887,150.1036905000219,None,ScrollUp,정답입니다,150.1036905000219,None,150.1036905000219,None,150.1036905000219,None,150.1036905000219,None,151.2126851999201,None,151.2126851999201,151.71491400001105,,,,,,,,,,,,,,,,005,2022-05-06_17h50.26.087,FishGame,2022.1.1,60.00376825136869,
,6,넌 헤퍼,5,Orange,A,2.458333333333334,2.233333333333333,ScrollDown,ScrollUp,Orange.png,1,Negative,Incongruent,0,0,0,0,,,,,,,,,,,,,0,5,5,5,,,,,,,,,,,,,,,,,,,,,,,,,,,,,,,,,,,,,,,,,,,,,,,,,,,,,,,,,,,,,,,,,,,,,,,,,,,,,,,,,,,,,1,1.0759401000104845,152.33720920002088,None,ScrollDown,정답입니다,152.33720920002088,None,152.33720920002088,None,152.33720920002088,None,152.33720920002088,None,153.31269179994706,None,153.31269179994706,153.81275919999462,,,,,,,,,,,,,,,,005,2022-05-06_17h50.26.087,FishGame,2022.1.1,60.00376825136869,
,7,넌 말쑥해,3,Orange,A,4.833333333333334,4.333333333333333,ScrollDown,ScrollUp,Orange.png,1,Neutral,Neutral,0,0,0,0,,,,,,,,,,,,,0,6,6,6,,,,,,,,,,,,,,,,,,,,,,,,,,,,,,,,,,,,,,,,,,,,,,,,,,,,,,,,,,,,,,,,,,,,,,,,,,,,,,,,,,,,,1,1.0587613000534475,154.44503499998245,None,ScrollDown,정답입니다,154.44503499998245,None,154.44503499998245,None,154.44503499998245,None,154.44503499998245,None,155.39813749992754,None,155.39813749992754,155.91480909998063,,,,,,,,,,,,,,,,005,2022-05-06_17h50.26.087,FishGame,2022.1.1,60.00376825136869,
,8,넌 투덜거려,5,Green,B,2.541666666666667,2.266666666666667,ScrollUp,ScrollDown,Green.png,1,Negative,Congruent,0,0,0,0,,,,,,,,,,,,,0,7,7,7,,,,,,,,,,,,,,,,,,,,,,,,,,,,,,,,,,,,,,,,,,,,,,,,,,,,,,,,,,,,,,,,,,,,,,,,,,,,,,,,,,,,,2,1.129745699930936,156.53680809994694,None,ScrollUp,정답입니다,156.53680809994694,None,156.53680809994694,None,156.53680809994694,None,156.53680809994694,None,157.56259310001042,None,157.56259310001042,158.06485429999884,,,,,,,,,,,,,,,,005,2022-05-06_17h50.26.087,FishGame,2022.1.1,60.00376825136869,
,9,넌 적극적이야,1,Orange,A,5.708333333333333,5.533333333333333,ScrollDown,ScrollUp,Orange.png,1,Positive,Congruent,0,0,0,0,,,,,,,,,,,,,0,8,8,8,,,,,,,,,,,,,,,,,,,,,,,,,,,,,,,,,,,,,,,,,,,,,,,,,,,,,,,,,,,,,,,,,,,,,,,,,,,,,,,,,,,,,1,1.0758770999964327,158.69126069999766,None,ScrollDown,정답입니다,158.69126069999766,None,158.69126069999766,None,158.69126069999766,None,158.69126069999766,None,159.66250670002773,None,159.66250670002773,160.16256560001057,,,,,,,,,,,,,,,,005,2022-05-06_17h50.26.087,FishGame,2022.1.1,60.00376825136869,
,10,넌 재미없어,4,Green,B,2.625,2.966666666666667,ScrollUp,ScrollDown,Green.png,1,Negative,Congruent,0,0,0,0,,,,,,,,,,,,,0,9,9,9,,,,,,,,,,,,,,,,,,,,,,,,,,,,,,,,,,,,,,,,,,,,,,,,,,,,,,,,,,,,,,,,,,,,,,,,,,,,,,,,,,,,,2,1.042304200003855,160.7907661999343,None,ScrollUp,정답입니다,160.7907661999343,None,160.7907661999343,None,160.7907661999343,None,160.7907661999343,None,161.72915039991494,None,161.72915039991494,162.22922340000514,,,,,,,,,,,,,,,,005,2022-05-06_17h50.26.087,FishGame,2022.1.1,60.00376825136869,
,11,넌 명석해,2,Orange,A,5.875,4.033333333333333,ScrollDown,ScrollUp,Orange.png,1,Positive,Congruent,0,0,0,0,,,,,,,,,,,,,0,10,10,10,,,,,,,,,,,,,,,,,,,,,,,,,,,,,,,,,,,,,,,,,,,,,,,,,,,,,,,,,,,,,,,,,,,,,,,,,,,,,,,,,,,,,1,0.9631660000886768,162.85181279992685,None,ScrollDown,정답입니다,162.85181279992685,None,162.85181279992685,None,162.85181279992685,None,162.85181279992685,None,163.71239379991312,None,163.71239379991312,164.2125971999485,,,,,,,,,,,,,,,,005,2022-05-06_17h50.26.087,FishGame,2022.1.1,60.00376825136869,
,12,나를 데려가줘,6,Green,B,0,0,ScrollDown,ScrollUp,Green.png,1,NonTarget,NonTarget,0,0,0,0,,,,,,,,,,,,,0,11,11,11,,,,,,,,,,,,,,,,,,,,,,,,,,,,,,,,,,,,,,,,,,,,,,,,,,,,,,,,,,,,,,,,,,,,,,,,,,,,,,,,,,,,,1,1.0145572000183165,164.83290369994938,None,ScrollDown,정답입니다,164.83290369994938,None,164.83290369994938,None,164.83290369994938,None,164.83290369994938,None,165.74778500001412,None,165.74778500001412,166.26249220001046,,,,,,,,,,,,,,,,005,2022-05-06_17h50.26.087,FishGame,2022.1.1,60.00376825136869,
,13,넌 소심해,4,Orange,A,3,3.1,ScrollDown,ScrollUp,Orange.png,1,Negative,Incongruent,0,0,0,0,,,,,,,,,,,,,0,12,12,12,,,,,,,,,,,,,,,,,,,,,,,,,,,,,,,,,,,,,,,,,,,,,,,,,,,,,,,,,,,,,,,,,,,,,,,,,,,,,,,,,,,,,1,0.9592396999942139,166.8703896999359,None,ScrollDown,정답입니다,166.8703896999359,None,166.8703896999359,None,166.8703896999359,None,166.8703896999359,None,167.7290987999877,None,167.7290987999877,168.23123549995944,,,,,,,,,,,,,,,,005,2022-05-06_17h50.26.087,FishGame,2022.1.1,60.00376825136869,
,14,넌 합리적이야,2,Orange,A,5.583333333333333,4.733333333333333,ScrollDown,ScrollUp,Orange.png,1,Positive,Congruent,0,0,0,0,,,,,,,,,,,,,0,13,13,13,,,,,,,,,,,,,,,,,,,,,,,,,,,,,,,,,,,,,,,,,,,,,,,,,,,,,,,,,,,,,,,,,,,,,,,,,,,,,,,,,,,,,1,1.0759225999936461,168.8582202999387,None,ScrollDown,정답입니다,168.8582202999387,None,168.8582202999387,None,168.8582202999387,None,168.8582202999387,None,169.82869929994922,None,169.82869929994922,170.32878209999762,,,,,,,,,,,,,,,,005,2022-05-06_17h50.26.087,FishGame,2022.1.1,60.00376825136869,
,15,넌 무자비해,5,Green,B,2.333333333333333,2.1,ScrollUp,ScrollDown,Green.png,1,Negative,Congruent,0,0,0,0,,,,,,,,,,,,,0,14,14,14,,,,,,,,,,,,,,,,,,,,,,,,,,,,,,,,,,,,,,,,,,,,,,,,,,,,,,,,,,,,,,,,,,,,,,,,,,,,,,,,,,,,,2,1.032346700085327,170.96700449998025,None,ScrollUp,정답입니다,170.96700449998025,None,170.96700449998025,None,170.96700449998025,None,170.96700449998025,None,171.88120930001605,None,171.88120930001605,172.38124749995768,,,,,,,,,,,,,,,,005,2022-05-06_17h50.26.087,FishGame,2022.1.1,60.00376825136869,
,16,나를 보내줘,6,Orange,A,0,0,ScrollUp,ScrollDown,Orange.png,1,NonTarget,NonTarget,0,0,0,0,,,,,,,,,,,,,0,15,15,15,,,,,,,,,,,,,,,,,,,,,,,,,,,,,,,,,,,,,,,,,,,,,,,,,,,,,,,,,,,,,,,,,,,,,,,,,,,,,,,,,,,,,2,1.200056599918753,172.99771329993382,None,ScrollUp,정답입니다,172.99771329993382,None,172.99771329993382,None,172.99771329993382,None,172.99771329993382,None,174.1013003999833,None,174.1013003999833,174.61228699993808,,,,,,,,,,,,,,,,005,2022-05-06_17h50.26.087,FishGame,2022.1.1,60.00376825136869,
,17,넌 현실적이야,3,Green,B,4.608695652173913,4.766666666666667,ScrollUp,ScrollDown,Green.png,1,Neutral,Neutral,0,0,0,0,,,,,,,,,,,,,0,16,16,16,,,,,,,,,,,,,,,,,,,,,,,,,,,,,,,,,,,,,,,,,,,,,,,,,,,,,,,,,,,,,,,,,,,,,,,,,,,,,,,,,,,,,2,1.192833499982953,175.23697620001622,None,ScrollUp,정답입니다,175.23697620001622,None,175.23697620001622,None,175.23697620001622,None,175.23697620001622,None,176.32888049993198,None,176.32888049993198,176.83421010000166,,,,,,,,,,,,,,,,005,2022-05-06_17h50.26.087,FishGame,2022.1.1,60.00376825136869,
,18,넌 의리있어,1,Green,B,5.833333333333334,5.633333333333334,ScrollUp,ScrollDown,Green.png,1,Positive,Incongruent,0,0,0,0,,,,,,,,,,,,,0,17,17,17,,,,,,,,,,,,,,,,,,,,,,,,,,,,,,,,,,,,,,,,,,,,,,,,,,,,,,,,,,,,,,,,,,,,,,,,,,,,,,,,,,,,,2,0.9923564000055194,177.45383839996066,None,ScrollUp,정답입니다,177.45383839996066,None,177.45383839996066,None,177.45383839996066,None,177.45383839996066,None,178.34543410001788,None,178.34543410001788,178.84767709998414,,,,,,,,,,,,,,,,005,2022-05-06_17h50.26.087,FishGame,2022.1.1,60.00376825136869,
,19,넌 신경과민이야,5,Orange,A,2.541666666666667,2.166666666666667,ScrollDown,ScrollUp,Orange.png,1,Negative,Incongruent,0,0,0,0,,,,,,,,,,,,,0,18,18,18,,,,,,,,,,,,,,,,,,,,,,,,,,,,,,,,,,,,,,,,,,,,,,,,,,,,,,,,,,,,,,,,,,,,,,,,,,,,,,,,,,,,,1,0.9089680999750271,179.47422640002333,None,ScrollDown,정답입니다,179.47422640002333,None,179.47422640002333,None,179.47422640002333,None,179.47422640002333,None,180.2787855999777,None,180.2787855999777,180.78096619993448,,,,,,,,,,,,,,,,005,2022-05-06_17h50.26.087,FishGame,2022.1.1,60.00376825136869,
,20,넌 편안해,1,Orange,A,5.916666666666666,5.866666666666666,ScrollDown,ScrollUp,Orange.png,1,Positive,Congruent,0,0,0,0,,,,,,,,,,,,,0,19,19,19,,,,,,,,,,,,,,,,,,,,,,,,,,,,,,,,,,,,,,,,,,,,,,,,,,,,,,,,,,,,,,,,,,,,,,,,,,,,,,,,,,,,,1,0.9439039999851957,181.4052870000014,None,ScrollDown,정답입니다,181.4052870000014,None,181.4052870000014,None,181.4052870000014,None,181.4052870000014,None,182.245098699932,None,182.245098699932,182.74518859991804,,,,,,,,,,,,,,,,005,2022-05-06_17h50.26.087,FishGame,2022.1.1,60.00376825136869,
,21,넌 품위있어,2,Green,B,5.291666666666666,4.466666666666667,ScrollUp,ScrollDown,Green.png,1,Positive,Incongruent,0,0,0,0,,,,,,,,,,,,,0,20,20,20,,,,,,,,,,,,,,,,,,,,,,,,,,,,,,,,,,,,,,,,,,,,,,,,,,,,,,,,,,,,,,,,,,,,,,,,,,,,,,,,,,,,,2,0.9965530999470502,183.3789372999454,None,ScrollUp,정답입니다,183.3789372999454,None,183.3789372999454,None,183.3789372999454,None,183.3789372999454,None,184.26180189999286,None,184.26180189999286,184.76452329999302,,,,,,,,,,,,,,,,005,2022-05-06_17h50.26.087,FishGame,2022.1.1,60.00376825136869,
,22,넌 빈틈없어,3,Orange,A,4.833333333333333,3.966666666666667,ScrollDown,ScrollUp,Orange.png,1,Neutral,Neutral,0,0,0,0,,,,,,,,,,,,,0,21,21,21,,,,,,,,,,,,,,,,,,,,,,,,,,,,,,,,,,,,,,,,,,,,,,,,,,,,,,,,,,,,,,,,,,,,,,,,,,,,,,,,,,,,,1,0.8632061999524012,185.3929687999189,None,ScrollDown,정답입니다,185.3929687999189,None,185.3929687999189,None,185.3929687999189,None,185.3929687999189,None,186.1475995000219,None,186.1475995000219,186.6476232999703,,,,,,,,,,,,,,,,005,2022-05-06_17h50.26.087,FishGame,2022.1.1,60.00376825136869,
,23,넌 상상력없어,4,Green,B,2.833333333333333,3.133333333333333,ScrollUp,ScrollDown,Green.png,1,Negative,Congruent,0,0,0,0,,,,,,,,,,,,,0,22,22,22,,,,,,,,,,,,,,,,,,,,,,,,,,,,,,,,,,,,,,,,,,,,,,,,,,,,,,,,,,,,,,,,,,,,,,,,,,,,,,,,,,,,,2,1.0458728999365121,187.29141790000722,None,ScrollUp,정답입니다,187.29141790000722,None,187.29141790000722,None,187.29141790000722,None,187.29141790000722,None,188.22860989999026,None,188.22860989999026,188.7307667999994,,,,,,,,,,,,,,,,005,2022-05-06_17h50.26.087,FishGame,2022.1.1,60.00376825136869,
,24,넌 지혜로워,2,Green,B,6.333333333333334,4.633333333333334,ScrollUp,ScrollDown,Green.png,1,Positive,Incongruent,0,0,0,0,,,,,,,,,,,,,0,23,23,23,,,,,,,,,,,,,,,,,,,,,,,,,,,,,,,,,,,,,,,,,,,,,,,,,,,,,,,,,,,,,,,,,,,,,,,,,,,,,,,,,,,,,2,1.011218799976632,189.35732229996938,None,ScrollUp,정답입니다,189.35732229996938,None,189.35732229996938,None,189.35732229996938,None,189.35732229996938,None,190.26161749998573,None,190.26161749998573,190.761686099926,,,,,,,,,,,,,,,,005,2022-05-06_17h50.26.087,FishGame,2022.1.1,60.00376825136869,
,25,넌 시끄러워,4,Orange,A,2.833333333333333,3.033333333333333,ScrollDown,ScrollUp,Orange.png,1,Negative,Incongruent,0,0,0,0,,,,,,,,,,,,,0,24,24,24,,,,,,,,,,,,,,,,,,,,,,,,,,,,,,,,,,,,,,,,,,,,,,,,,,,,,,,,,,,,,,,,,,,,,,,,,,,,,,,,,,,,,1,0.9947369999717921,191.3893262000056,None,ScrollDown,정답입니다,191.3893262000056,None,191.3893262000056,None,191.3893262000056,None,191.3893262000056,None,192.27828119997866,None,192.27828119997866,192.78078909998294,,,,,,,,,,,,,,,,005,2022-05-06_17h50.26.087,FishGame,2022.1.1,60.00376825136869,
,26,넌 만사태평이야,3,Green,B,4,4.333333333333333,ScrollUp,ScrollDown,Green.png,1,Neutral,Neutral,0,0,0,0,,,,,,,,,,,,,0,25,25,25,,,,,,,,,,,,,,,,,,,,,,,,,,,,,,,,,,,,,,,,,,,,,,,,,,,,,,,,,,,,,,,,,,,,,,,,,,,,,,,,,,,,,2,0.9772062000120059,193.40409359999467,None,ScrollUp,정답입니다,193.40409359999467,None,193.40409359999467,None,193.40409359999467,None,193.40409359999467,None,194.2807958999183,None,194.2807958999183,194.78398019995075,,,,,,,,,,,,,,,,005,2022-05-06_17h50.26.087,FishGame,2022.1.1,60.00376825136869,
,27,넌 붙임성있어,1,Orange,A,5.708333333333333,5.633333333333334,ScrollDown,ScrollUp,Orange.png,1,Positive,Congruent,0,0,0,0,,,,,,,,,,,,,0,26,26,26,,,,,,,,,,,,,,,,,,,,,,,,,,,,,,,,,,,,,,,,,,,,,,,,,,,,,,,,,,,,,,,,,,,,,,,,,,,,,,,,,,,,,1,0.9927944999653846,195.41003629995976,None,ScrollDown,정답입니다,195.41003629995976,None,195.41003629995976,None,195.41003629995976,None,195.41003629995976,None,196.2950990999816,None,196.2950990999816,196.79512889997568,,,,,,,,,,,,,,,,005,2022-05-06_17h50.26.087,FishGame,2022.1.1,60.00376825136869,
,28,넌 영리해,2,Orange,A,6,4.033333333333333,ScrollDown,ScrollUp,Orange.png,1,Positive,Congruent,0,0,0,0,,,,,,,,,,,,,0,27,27,27,,,,,,,,,,,,,,,,,,,,,,,,,,,,,,,,,,,,,,,,,,,,,,,,,,,,,,,,,,,,,,,,,,,,,,,,,,,,,,,,,,,,,1,0.9441348999971524,197.42572599998675,None,ScrollDown,정답입니다,197.42572599998675,None,197.42572599998675,None,197.42572599998675,None,197.42572599998675,None,198.26383139996324,None,198.26383139996324,198.77845230000094,,,,,,,,,,,,,,,,005,2022-05-06_17h50.26.087,FishGame,2022.1.1,60.00376825136869,
,29,넌 열심이야,1,Green,B,6.041666666666667,5.833333333333333,ScrollUp,ScrollDown,Green.png,1,Positive,Incongruent,0,0,0,0,,,,,,,,,,,,,0,28,28,28,,,,,,,,,,,,,,,,,,,,,,,,,,,,,,,,,,,,,,,,,,,,,,,,,,,,,,,,,,,,,,,,,,,,,,,,,,,,,,,,,,,,,2,0.9927023999625817,199.40211539994925,None,ScrollUp,정답입니다,199.40211539994925,None,199.40211539994925,None,199.40211539994925,None,199.40211539994925,None,200.2950251000002,None,200.2950251000002,200.79721220000647,,,,,,,,,,,,,,,,005,2022-05-06_17h50.26.087,FishGame,2022.1.1,60.00376825136869,
,30,넌 인기없어,4,Green,B,3,3.3,ScrollUp,ScrollDown,Green.png,1,Negative,Congruent,0,0,0,0,,,,,,,,,,,,,0,29,29,29,,,,,,,,,,,,,,,,,,,,,,,,,,,,,,,,,,,,,,,,,,,,,,,,,,,,,,,,,,,,,,,,,,,,,,,,,,,,,,,,,,,,,2,1.043829300091602,201.4151736999629,None,ScrollUp,정답입니다,201.4151736999629,None,201.4151736999629,None,201.4151736999629,None,201.4151736999629,None,202.3615852999501,None,202.3615852999501,202.86166409996804,,,,,,,,,,,,,,,,005,2022-05-06_17h50.26.087,FishGame,2022.1.1,60.00376825136869,
,31,넌 익살스러워,3,Orange,A,4.708333333333334,4.833333333333333,ScrollDown,ScrollUp,Orange.png,1,Neutral,Neutral,0,0,0,0,,,,,,,,,,,,,0,30,30,30,,,,,,,,,,,,,,,,,,,,,,,,,,,,,,,,,,,,,,,,,,,,,,,,,,,,,,,,,,,,,,,,,,,,,,,,,,,,,,,,,,,,,1,0.961820499971509,203.4884290000191,None,ScrollDown,정답입니다,203.4884290000191,None,203.4884290000191,None,203.4884290000191,None,203.4884290000191,None,204.34488659992348,None,204.34488659992348,204.84708689991385,,,,,,,,,,,,,,,,005,2022-05-06_17h50.26.087,FishGame,2022.1.1,60.00376825136869,
,32,넌 이기적이야,5,Green,B,2.291666666666667,2.333333333333333,ScrollUp,ScrollDown,Green.png,1,Negative,Congruent,0,0,0,0,,,,,,,,,,,,,0,31,31,31,,,,,,,,,,,,,,,,,,,,,,,,,,,,,,,,,,,,,,,,,,,,,,,,,,,,,,,,,,,,,,,,,,,,,,,,,,,,,,,,,,,,,2,0.9769221000606194,205.46378819993697,None,ScrollUp,정답입니다,205.46378819993697,None,205.46378819993697,None,205.46378819993697,None,205.46378819993697,None,206.34704869997222,None,206.34704869997222,206.86155609996058,,,,,,,,,,,,,,,,005,2022-05-06_17h50.26.087,FishGame,2022.1.1,60.00376825136869,
,33,나를 데려가줘,6,Green,B,0,0,ScrollDown,ScrollUp,Green.png,1,NonTarget,NonTarget,0,0,0,0,,,,,,,,,,,,,0,32,32,32,,,,,,,,,,,,,,,,,,,,,,,,,,,,,,,,,,,,,,,,,,,,,,,,,,,,,,,,,,,,,,,,,,,,,,,,,,,,,,,,,,,,,1,1.1260679999832064,207.48356989992317,None,ScrollDown,정답입니다,207.48356989992317,None,207.48356989992317,None,207.48356989992317,None,207.48356989992317,None,208.51145649992395,None,208.51145649992395,209.013739899965,,,,,,,,,,,,,,,,005,2022-05-06_17h50.26.087,FishGame,2022.1.1,60.00376825136869,
,34,넌 기회주의자야,5,Orange,A,2.875,2.133333333333333,ScrollDown,ScrollUp,Orange.png,1,Negative,Incongruent,0,0,0,0,,,,,,,,,,,,,0,33,33,33,,,,,,,,,,,,,,,,,,,,,,,,,,,,,,,,,,,,,,,,,,,,,,,,,,,,,,,,,,,,,,,,,,,,,,,,,,,,,,,,,,,,,1,1.0610411000670865,209.64389049995225,None,ScrollDown,정답입니다,209.64389049995225,None,209.64389049995225,None,209.64389049995225,None,209.64389049995225,None,210.59693449991755,None,210.59693449991755,211.09486610000022,,,,,,,,,,,,,,,,005,2022-05-06_17h50.26.087,FishGame,2022.1.1,60.00376825136869,
,1,넌 미성숙해,4,Orange,A,3,3.2,ScrollDown,ScrollUp,Orange.png,2,Negative,Incongruent,0,0,0,0,,,,,,,,,,,,,,,,,0,0,0,0,,,,,,,,,,,,,,,,,,,,,,,,,,,,,,,,,,,,,,,,245.26071379997302,246.76309249992482,246.79642619995866,247.7495070999721,247.78284070000518,248.7463707999559,248.7463707999559,None,,,,,,,,,,,,,,,,,,,,,,,,,,,,,,,,,,1,1.2114059999585152,249.8470060999971,None,ScrollDown,정답입니다,249.8470060999971,None,249.8470060999971,None,249.8470060999971,None,249.8470060999971,None,250.96055840002373,None,250.96055840002373,251.46278179995716,211.59480339998845,None,211.59480339998845,None,0.16203703,-0.06759259,1,0,0,0.016138900071382523,None,241.59626209991984,None,,,005,2022-05-06_17h50.26.087,FishGame,2022.1.1,60.00376825136869,
,2,넌 반사회적이야,5,Green,B,2.416666666666667,2.033333333333333,ScrollUp,ScrollDown,Green.png,2,Negative,Congruent,0,0,0,0,,,,,,,,,,,,,,,,,0,1,1,1,,,,,,,,,,,,,,,,,,,,,,,,,,,,,,,,,,,,,,,,,,,,,,,,,,,,,,,,,,,,,,,,,,,,,,,,,,,,,,,,,2,1.1104990999447182,252.08359139994718,None,ScrollUp,정답입니다,252.08359139994718,None,252.08359139994718,None,252.08359139994718,None,252.08359139994718,None,253.09362039994448,None,253.09362039994448,253.59365209995303,,,,,,,,,,,,,,,,005,2022-05-06_17h50.26.087,FishGame,2022.1.1,60.00376825136869,
,3,넌 유능해,2,Orange,A,6.208333333333333,4.433333333333334,ScrollDown,ScrollUp,Orange.png,2,Positive,Congruent,0,0,0,0,,,,,,,,,,,,,,,,,0,2,2,2,,,,,,,,,,,,,,,,,,,,,,,,,,,,,,,,,,,,,,,,,,,,,,,,,,,,,,,,,,,,,,,,,,,,,,,,,,,,,,,,,1,1.0116859000409022,254.21543729992118,None,ScrollDown,정답입니다,254.21543729992118,None,254.21543729992118,None,254.21543729992118,None,254.21543729992118,None,255.12693919998128,None,255.12693919998128,255.62946600001305,,,,,,,,,,,,,,,,005,2022-05-06_17h50.26.087,FishGame,2022.1.1,60.00376825136869,
,4,넌 능숙해,2,Green,B,5.666666666666667,4.733333333333333,ScrollUp,ScrollDown,Green.png,2,Positive,Incongruent,0,0,0,0,,,,,,,,,,,,,,,,,0,3,3,3,,,,,,,,,,,,,,,,,,,,,,,,,,,,,,,,,,,,,,,,,,,,,,,,,,,,,,,,,,,,,,,,,,,,,,,,,,,,,,,,,2,0.9464510000543669,256.24293850001413,None,ScrollUp,정답입니다,256.24293850001413,None,256.24293850001413,None,256.24293850001413,None,256.24293850001413,None,257.0961177999852,None,257.0961177999852,257.59916839993093,,,,,,,,,,,,,,,,005,2022-05-06_17h50.26.087,FishGame,2022.1.1,60.00376825136869,
,5,넌 진부해,4,Green,B,2.458333333333333,3.166666666666667,ScrollUp,ScrollDown,Green.png,2,Negative,Congruent,0,0,0,0,,,,,,,,,,,,,,,,,0,4,4,4,,,,,,,,,,,,,,,,,,,,,,,,,,,,,,,,,,,,,,,,,,,,,,,,,,,,,,,,,,,,,,,,,,,,,,,,,,,,,,,,,2,0.9423544999444857,258.21630979992915,None,ScrollUp,정답입니다,258.21630979992915,None,258.21630979992915,None,258.21630979992915,None,258.21630979992915,None,259.06042609992437,None,259.06042609992437,259.5626158999512,,,,,,,,,,,,,,,,005,2022-05-06_17h50.26.087,FishGame,2022.1.1,60.00376825136869,
,6,나를 보내줘,6,Orange,A,0,0,ScrollUp,ScrollDown,Orange.png,2,NonTarget,NonTarget,0,0,0,0,,,,,,,,,,,,,,,,,0,5,5,5,,,,,,,,,,,,,,,,,,,,,,,,,,,,,,,,,,,,,,,,,,,,,,,,,,,,,,,,,,,,,,,,,,,,,,,,,,,,,,,,,2,1.0444642000366002,260.18607069994323,None,ScrollUp,정답입니다,260.18607069994323,None,260.18607069994323,None,260.18607069994323,None,260.18607069994323,None,261.1269825999625,None,261.1269825999625,261.62919459992554,,,,,,,,,,,,,,,,005,2022-05-06_17h50.26.087,FishGame,2022.1.1,60.00376825136869,
,7,넌 엄격해,3,Orange,A,4.166666666666666,4.1,ScrollDown,ScrollUp,Orange.png,2,Neutral,Neutral,0,0,0,0,,,,,,,,,,,,,,,,,0,6,6,6,,,,,,,,,,,,,,,,,,,,,,,,,,,,,,,,,,,,,,,,,,,,,,,,,,,,,,,,,,,,,,,,,,,,,,,,,,,,,,,,,1,1.0424493999453261,262.2541951999301,None,ScrollDown,정답입니다,262.2541951999301,None,262.2541951999301,None,262.2541951999301,None,262.2541951999301,None,263.1958338000113,None,263.1958338000113,263.7103724000044,,,,,,,,,,,,,,,,005,2022-05-06_17h50.26.087,FishGame,2022.1.1,60.00376825136869,
,8,나를 보내줘,6,Orange,A,0,0,ScrollUp,ScrollDown,Orange.png,2,NonTarget,NonTarget,0,0,0,0,,,,,,,,,,,,,,,,,0,7,7,7,,,,,,,,,,,,,,,,,,,,,,,,,,,,,,,,,,,,,,,,,,,,,,,,,,,,,,,,,,,,,,,,,,,,,,,,,,,,,,,,,2,1.0425225000362843,264.31844019994605,None,ScrollUp,정답입니다,264.31844019994605,None,264.31844019994605,None,264.31844019994605,None,264.31844019994605,None,265.26032120001037,None,265.26032120001037,265.76030419999734,,,,,,,,,,,,,,,,005,2022-05-06_17h50.26.087,FishGame,2022.1.1,60.00376825136869,
,9,넌 대담해,3,Green,B,4.875,4.866666666666666,ScrollUp,ScrollDown,Green.png,2,Neutral,Neutral,0,0,0,0,,,,,,,,,,,,,,,,,0,8,8,8,,,,,,,,,,,,,,,,,,,,,,,,,,,,,,,,,,,,,,,,,,,,,,,,,,,,,,,,,,,,,,,,,,,,,,,,,,,,,,,,,2,1.0800003999611363,266.3790521000046,None,ScrollUp,정답입니다,266.3790521000046,None,266.3790521000046,None,266.3790521000046,None,266.3790521000046,None,267.3602396999486,None,267.3602396999486,267.86036859999876,,,,,,,,,,,,,,,,005,2022-05-06_17h50.26.087,FishGame,2022.1.1,60.00376825136869,
,10,넌 꾸준해,1,Orange,A,5.916666666666668,5.8,ScrollDown,ScrollUp,Orange.png,2,Positive,Congruent,0,0,0,0,,,,,,,,,,,,,,,,,0,9,9,9,,,,,,,,,,,,,,,,,,,,,,,,,,,,,,,,,,,,,,,,,,,,,,,,,,,,,,,,,,,,,,,,,,,,,,,,,,,,,,,,,1,0.9768690000055358,268.4820800999878,None,ScrollDown,정답입니다,268.4820800999878,None,268.4820800999878,None,268.4820800999878,None,268.4820800999878,None,269.36234859994147,None,269.36234859994147,269.8789951999206,,,,,,,,,,,,,,,,005,2022-05-06_17h50.26.087,FishGame,2022.1.1,60.00376825136869,
,11,나를 데려가줘,6,Green,B,0,0,ScrollDown,ScrollUp,Green.png,2,NonTarget,NonTarget,0,0,0,0,,,,,,,,,,,,,,,,,0,10,10,10,,,,,,,,,,,,,,,,,,,,,,,,,,,,,,,,,,,,,,,,,,,,,,,,,,,,,,,,,,,,,,,,,,,,,,,,,,,,,,,,,1,1.0950443999608979,270.49700380000286,None,ScrollDown,정답입니다,270.49700380000286,None,270.49700380000286,None,270.49700380000286,None,270.49700380000286,None,271.4934181999415,None,271.4934181999415,271.995617599925,,,,,,,,,,,,,,,,005,2022-05-06_17h50.26.087,FishGame,2022.1.1,60.00376825136869,
,12,넌 독선적이야,5,Orange,A,2.458333333333333,1.933333333333333,ScrollDown,ScrollUp,Orange.png,2,Negative,Incongruent,0,0,0,0,,,,,,,,,,,,,,,,,0,11,11,11,,,,,,,,,,,,,,,,,,,,,,,,,,,,,,,,,,,,,,,,,,,,,,,,,,,,,,,,,,,,,,,,,,,,,,,,,,,,,,,,,1,0.9928772000130266,272.62193129991647,None,ScrollDown,정답입니다,272.62193129991647,None,272.62193129991647,None,272.62193129991647,None,272.62193129991647,None,273.512238199939,None,273.512238199939,274.01236539997626,,,,,,,,,,,,,,,,005,2022-05-06_17h50.26.087,FishGame,2022.1.1,60.00376825136869,
,13,나를 보내줘,6,Orange,A,0,0,ScrollUp,ScrollDown,Orange.png,2,NonTarget,NonTarget,0,0,0,0,,,,,,,,,,,,,,,,,0,12,12,12,,,,,,,,,,,,,,,,,,,,,,,,,,,,,,,,,,,,,,,,,,,,,,,,,,,,,,,,,,,,,,,,,,,,,,,,,,,,,,,,,2,1.076804699958302,274.63457949995063,None,ScrollUp,정답입니다,274.63457949995063,None,274.63457949995063,None,274.63457949995063,None,274.63457949995063,None,275.6100256999489,None,275.6100256999489,276.11012600001413,,,,,,,,,,,,,,,,005,2022-05-06_17h50.26.087,FishGame,2022.1.1,60.00376825136869,
,14,넌 책임감있어,1,Green,B,6.347826086956522,6,ScrollUp,ScrollDown,Green.png,2,Positive,Incongruent,0,0,0,0,,,,,,,,,,,,,,,,,0,13,13,13,,,,,,,,,,,,,,,,,,,,,,,,,,,,,,,,,,,,,,,,,,,,,,,,,,,,,,,,,,,,,,,,,,,,,,,,,,,,,,,,,2,0.9938696000026539,276.7303422000259,None,ScrollUp,정답입니다,276.7303422000259,None,276.7303422000259,None,276.7303422000259,None,276.7303422000259,None,277.62667219992727,None,277.62667219992727,278.12885979993735,,,,,,,,,,,,,,,,005,2022-05-06_17h50.26.087,FishGame,2022.1.1,60.00376825136869,
,15,넌 문학적이야,3,Orange,A,4.708333333333334,4.333333333333333,ScrollDown,ScrollUp,Orange.png,2,Neutral,Neutral,0,0,0,0,,,,,,,,,,,,,,,,,0,14,14,14,,,,,,,,,,,,,,,,,,,,,,,,,,,,,,,,,,,,,,,,,,,,,,,,,,,,,,,,,,,,,,,,,,,,,,,,,,,,,,,,,1,0.9593289999756962,278.75473399995826,None,ScrollDown,정답입니다,278.75473399995826,None,278.75473399995826,None,278.75473399995826,None,278.75473399995826,None,279.60996319993865,None,279.60996319993865,280.10981599998195,,,,,,,,,,,,,,,,005,2022-05-06_17h50.26.087,FishGame,2022.1.1,60.00376825136869,
,16,넌 재미있어,1,Green,B,5.875,5.7,ScrollUp,ScrollDown,Green.png,2,Positive,Incongruent,0,0,0,0,,,,,,,,,,,,,,,,,0,15,15,15,,,,,,,,,,,,,,,,,,,,,,,,,,,,,,,,,,,,,,,,,,,,,,,,,,,,,,,,,,,,,,,,,,,,,,,,,,,,,,,,,2,1.096654299995862,280.72456779994536,None,ScrollUp,정답입니다,280.72456779994536,None,280.72456779994536,None,280.72456779994536,None,280.72456779994536,None,281.7263433999615,None,281.7263433999615,282.2294319999637,,,,,,,,,,,,,,,,005,2022-05-06_17h50.26.087,FishGame,2022.1.1,60.00376825136869,
,17,나를 데려가줘,6,Green,B,0,0,ScrollDown,ScrollUp,Green.png,2,NonTarget,NonTarget,0,0,0,0,,,,,,,,,,,,,,,,,0,16,16,16,,,,,,,,,,,,,,,,,,,,,,,,,,,,,,,,,,,,,,,,,,,,,,,,,,,,,,,,,,,,,,,,,,,,,,,,,,,,,,,,,1,1.1119943000376225,282.8404596999753,None,ScrollDown,정답입니다,282.8404596999753,None,282.8404596999753,None,282.8404596999753,None,282.8404596999753,None,283.86220510001294,None,283.86220510001294,284.36262319993693,,,,,,,,,,,,,,,,005,2022-05-06_17h50.26.087,FishGame,2022.1.1,60.00376825136869,
,18,넌 협력적이야,1,Orange,A,5.625,5.633333333333334,ScrollDown,ScrollUp,Orange.png,2,Positive,Congruent,0,0,0,0,,,,,,,,,,,,,,,,,0,17,17,17,,,,,,,,,,,,,,,,,,,,,,,,,,,,,,,,,,,,,,,,,,,,,,,,,,,,,,,,,,,,,,,,,,,,,,,,,,,,,,,,,1,0.9266643999144435,284.98926039994694,None,ScrollDown,정답입니다,284.98926039994694,None,284.98926039994694,None,284.98926039994694,None,284.98926039994694,None,285.8095806000056,None,285.8095806000056,286.30960809998214,,,,,,,,,,,,,,,,005,2022-05-06_17h50.26.087,FishGame,2022.1.1,60.00376825136869,
,19,넌 평범해,3,Green,B,4.333333333333332,4.233333333333333,ScrollUp,ScrollDown,Green.png,2,Neutral,Neutral,0,0,0,0,,,,,,,,,,,,,,,,,0,18,18,18,,,,,,,,,,,,,,,,,,,,,,,,,,,,,,,,,,,,,,,,,,,,,,,,,,,,,,,,,,,,,,,,,,,,,,,,,,,,,,,,,2,0.9783540000207722,286.9262010999955,None,ScrollUp,정답입니다,286.9262010999955,None,286.9262010999955,None,286.9262010999955,None,286.9262010999955,None,287.81209369993303,None,287.81209369993303,288.3121076999232,,,,,,,,,,,,,,,,005,2022-05-06_17h50.26.087,FishGame,2022.1.1,60.00376825136869,
,20,넌 오만해,5,Orange,A,2.333333333333333,2,ScrollDown,ScrollUp,Orange.png,2,Negative,Incongruent,0,0,0,0,,,,,,,,,,,,,,,,,0,19,19,19,,,,,,,,,,,,,,,,,,,,,,,,,,,,,,,,,,,,,,,,,,,,,,,,,,,,,,,,,,,,,,,,,,,,,,,,,,,,,,,,,1,0.8789045000448823,288.9334474999923,None,ScrollDown,정답입니다,288.9334474999923,None,288.9334474999923,None,288.9334474999923,None,288.9334474999923,None,289.7120351999765,None,289.7120351999765,290.2125645999331,,,,,,,,,,,,,,,,005,2022-05-06_17h50.26.087,FishGame,2022.1.1,60.00376825136869,
,21,넌 운이없어,4,Green,B,3,3.466666666666667,ScrollUp,ScrollDown,Green.png,2,Negative,Congruent,0,0,0,0,,,,,,,,,,,,,,,,,0,20,20,20,,,,,,,,,,,,,,,,,,,,,,,,,,,,,,,,,,,,,,,,,,,,,,,,,,,,,,,,,,,,,,,,,,,,,,,,,,,,,,,,,2,0.977581899962388,290.8454525999259,None,ScrollUp,정답입니다,290.8454525999259,None,290.8454525999259,None,290.8454525999259,None,290.8454525999259,None,291.7097179000266,None,291.7097179000266,292.21201749995816,,,,,,,,,,,,,,,,005,2022-05-06_17h50.26.087,FishGame,2022.1.1,60.00376825136869,
,22,넌 창조적이야,2,Green,B,6.125,4.633333333333334,ScrollUp,ScrollDown,Green.png,2,Positive,Incongruent,0,0,0,0,,,,,,,,,,,,,,,,,0,21,21,21,,,,,,,,,,,,,,,,,,,,,,,,,,,,,,,,,,,,,,,,,,,,,,,,,,,,,,,,,,,,,,,,,,,,,,,,,,,,,,,,,2,0.9279940999113023,292.8339134999551,None,ScrollUp,정답입니다,292.8339134999551,None,292.8339134999551,None,292.8339134999551,None,292.8339134999551,None,293.6596252999734,None,293.6596252999734,294.15974859998096,,,,,,,,,,,,,,,,005,2022-05-06_17h50.26.087,FishGame,2022.1.1,60.00376825136869,
,23,나를 보내줘,6,Orange,A,0,0,ScrollUp,ScrollDown,Orange.png,2,NonTarget,NonTarget,0,0,0,0,,,,,,,,,,,,,,,,,0,22,22,22,,,,,,,,,,,,,,,,,,,,,,,,,,,,,,,,,,,,,,,,,,,,,,,,,,,,,,,,,,,,,,,,,,,,,,,,,,,,,,,,,2,0.994395799934864,294.78252539993264,None,ScrollUp,정답입니다,294.78252539993264,None,294.78252539993264,None,294.78252539993264,None,294.78252539993264,None,295.67629819992,None,295.67629819992,296.1763540999964,,,,,,,,,,,,,,,,005,2022-05-06_17h50.26.087,FishGame,2022.1.1,60.00376825136869,
,24,넌 통찰력있어,2,Orange,A,6.5,4.8,ScrollDown,ScrollUp,Orange.png,2,Positive,Congruent,0,0,0,0,,,,,,,,,,,,,,,,,0,23,23,23,,,,,,,,,,,,,,,,,,,,,,,,,,,,,,,,,,,,,,,,,,,,,,,,,,,,,,,,,,,,,,,,,,,,,,,,,,,,,,,,,1,0.9963621000060812,296.8001547999447,None,ScrollDown,정답입니다,296.8001547999447,None,296.8001547999447,None,296.8001547999447,None,296.8001547999447,None,297.6928723999299,None,297.6928723999299,298.1929194999393,,,,,,,,,,,,,,,,005,2022-05-06_17h50.26.087,FishGame,2022.1.1,60.00376825136869,
,25,넌 경솔해,5,Green,B,2.458333333333333,2.266666666666667,ScrollUp,ScrollDown,Green.png,2,Negative,Congruent,0,0,0,0,,,,,,,,,,,,,,,,,0,24,24,24,,,,,,,,,,,,,,,,,,,,,,,,,,,,,,,,,,,,,,,,,,,,,,,,,,,,,,,,,,,,,,,,,,,,,,,,,,,,,,,,,2,0.826094799907878,298.8174152999418,None,ScrollUp,정답입니다,298.8174152999418,None,298.8174152999418,None,298.8174152999418,None,298.8174152999418,None,299.54516849992797,None,299.54516849992797,300.06174179993104,,,,,,,,,,,,,,,,005,2022-05-06_17h50.26.087,FishGame,2022.1.1,60.00376825136869,
,26,넌 초조해,4,Orange,A,2.916666666666667,3.133333333333333,ScrollDown,ScrollUp,Orange.png,2,Negative,Incongruent,0,0,0,0,,,,,,,,,,,,,,,,,0,25,25,25,,,,,,,,,,,,,,,,,,,,,,,,,,,,,,,,,,,,,,,,,,,,,,,,,,,,,,,,,,,,,,,,,,,,,,,,,,,,,,,,,1,0.8758836999768391,300.6677185000153,None,ScrollDown,정답입니다,300.6677185000153,None,300.6677185000153,None,300.6677185000153,None,300.6677185000153,None,301.4428579999367,None,301.4428579999367,301.94821109995246,,,,,,,,,,,,,,,,005,2022-05-06_17h50.26.087,FishGame,2022.1.1,60.00376825136869,
,27,넌 무관심해,4,Green,B,2.833333333333333,2.9,ScrollUp,ScrollDown,Green.png,2,Negative,Congruent,0,0,0,0,,,,,,,,,,,,,,,,,0,26,26,26,,,,,,,,,,,,,,,,,,,,,,,,,,,,,,,,,,,,,,,,,,,,,,,,,,,,,,,,,,,,,,,,,,,,,,,,,,,,,,,,,1.9506172736485798,0.942709100083448,302.5682382999221,None,ScrollUp,정답입니다,302.5682382999221,None,302.5682382999221,None,302.5682382999221,None,302.5682382999221,None,303.40948499995284,None,303.40948499995284,303.9094599999953,,,,,,,,,,,,,,,,005,2022-05-06_17h50.26.087,FishGame,2022.1.1,60.00376825136869,
,28,넌 감성적이야,3,Green,B,4.125,4.166666666666667,ScrollUp,ScrollDown,Green.png,2,Neutral,Neutral,0,0,0,0,,,,,,,,,,,,,,,,,0,27,27,27,,,,,,,,,,,,,,,,,,,,,,,,,,,,,,,,,,,,,,,,,,,,,,,,,,,,,,,,,,,,,,,,,,,,,,,,,,,,,,,,,2,0.9758092999691144,304.5319348999765,None,ScrollUp,정답입니다,304.5319348999765,None,304.5319348999765,None,304.5319348999765,None,304.5319348999765,None,305.40942259994335,None,305.40942259994335,305.911689999979,,,,,,,,,,,,,,,,005,2022-05-06_17h50.26.087,FishGame,2022.1.1,60.00376825136869,
,29,넌 배려심있어,1,Orange,A,6.083333333333333,5.5,ScrollDown,ScrollUp,Orange.png,2,Positive,Congruent,0,0,0,0,,,,,,,,,,,,,,,,,0,28,28,28,,,,,,,,,,,,,,,,,,,,,,,,,,,,,,,,,,,,,,,,,,,,,,,,,,,,,,,,,,,,,,,,,,,,,,,,,,,,,,,,,1,0.8593650000402704,306.54010119999293,None,ScrollDown,정답입니다,306.54010119999293,None,306.54010119999293,None,306.54010119999293,None,306.54010119999293,None,307.2926515999716,None,307.2926515999716,307.79276610002853,,,,,,,,,,,,,,,,005,2022-05-06_17h50.26.087,FishGame,2022.1.1,60.00376825136869,
,30,넌 숨김없어,3,Orange,A,4.5,4.933333333333334,ScrollDown,ScrollUp,Orange.png,2,Neutral,Neutral,0,0,0,0,,,,,,,,,,,,,,,,,0,29,29,29,,,,,,,,,,,,,,,,,,,,,,,,,,,,,,,,,,,,,,,,,,,,,,,,,,,,,,,,,,,,,,,,,,,,,,,,,,,,,,,,,1,0.8928011000389233,308.42175969993696,None,ScrollDown,정답입니다,308.42175969993696,None,308.42175969993696,None,308.42175969993696,None,308.42175969993696,None,309.2093470999971,None,309.2093470999971,309.7115017999895,,,,,,,,,,,,,,,,005,2022-05-06_17h50.26.087,FishGame,2022.1.1,60.00376825136869,
,31,넌 훌륭해,2,Green,B,5.916666666666667,4.033333333333333,ScrollUp,ScrollDown,Green.png,2,Positive,Incongruent,0,0,0,0,,,,,,,,,,,,,,,,,0,30,30,30,,,,,,,,,,,,,,,,,,,,,,,,,,,,,,,,,,,,,,,,,,,,,,,,,,,,,,,,,,,,,,,,,,,,,,,,,,,,,,,,,2,0.91077969991602,310.3291746999603,None,ScrollUp,정답입니다,310.3291746999603,None,310.3291746999603,None,310.3291746999603,None,310.3291746999603,None,311.1426267999923,None,311.1426267999923,311.6427695999155,,,,,,,,,,,,,,,,005,2022-05-06_17h50.26.087,FishGame,2022.1.1,60.00376825136869,
,32,넌 슬기로워,2,Orange,A,6.166666666666667,4.1,ScrollDown,ScrollUp,Orange.png,2,Positive,Congruent,0,0,0,0,,,,,,,,,,,,,,,,,0,31,31,31,,,,,,,,,,,,,,,,,,,,,,,,,,,,,,,,,,,,,,,,,,,,,,,,,,,,,,,,,,,,,,,,,,,,,,,,,,,,,,,,,1,0.8440008000470698,312.2848658999428,None,ScrollDown,정답입니다,312.2848658999428,None,312.2848658999428,None,312.2848658999428,None,312.2848658999428,None,313.00893889996223,None,313.00893889996223,313.5091045999434,,,,,,,,,,,,,,,,005,2022-05-06_17h50.26.087,FishGame,2022.1.1,60.00376825136869,
,33,넌 냉혹해,5,Orange,A,2.583333333333333,2.1,ScrollDown,ScrollUp,Orange.png,2,Negative,Incongruent,0,0,0,0,,,,,,,,,,,,,,,,,0,32,32,32,,,,,,,,,,,,,,,,,,,,,,,,,,,,,,,,,,,,,,,,,,,,,,,,,,,,,,,,,,,,,,,,,,,,,,,,,,,,,,,,,1,0.8778558000922203,314.1336431999225,None,ScrollDown,정답입니다,314.1336431999225,None,314.1336431999225,None,314.1336431999225,None,314.1336431999225,None,314.908936599968,None,314.908936599968,315.41171180002857,,,,,,,,,,,,,,,,005,2022-05-06_17h50.26.087,FishGame,2022.1.1,60.00376825136869,
,34,나를 데려가줘,6,Green,B,0,0,ScrollDown,ScrollUp,Green.png,2,NonTarget,NonTarget,0,0,0,0,,,,,,,,,,,,,,,,,0,33,33,33,,,,,,,,,,,,,,,,,,,,,,,,,,,,,,,,,,,,,,,,,,,,,,,,,,,,,,,,,,,,,,,,,,,,,,,,,,,,,,,,,1,1.0285986999515444,316.0276847999776,None,ScrollDown,정답입니다,316.0276847999776,None,316.0276847999776,None,316.0276847999776,None,316.0276847999776,None,316.96146619995125,None,316.96146619995125,317.46148559998255,,,,,,,,,,,,,,,,005,2022-05-06_17h50.26.087,FishGame,2022.1.1,60.00376825136869,
,35,넌 편파적이야,5,Green,B,2.125,2,ScrollUp,ScrollDown,Green.png,2,Negative,Congruent,0,0,0,0,,,,,,,,,,,,,,,,,0,34,34,34,,,,,,,,,,,,,,,,,,,,,,,,,,,,,,,,,,,,,,,,,,,,,,,,,,,,,,,,,,,,,,,,,,,,,,,,,,,,,,,,,2,0.861140500055626,318.0807822999777,None,ScrollUp,정답입니다,318.0807822999777,None,318.0807822999777,None,318.0807822999777,None,318.0807822999777,None,318.8445872999728,None,318.8445872999728,319.3446270999266,,,,,,,,,,,,,,,,005,2022-05-06_17h50.26.087,FishGame,2022.1.1,60.00376825136869,
,36,넌 슬퍼,4,Orange,A,2.583333333333333,3.066666666666667,ScrollDown,ScrollUp,Orange.png,2,Negative,Incongruent,0,0,0,0,,,,,,,,,,,,,,,,,0,35,35,35,,,,,,,,,,,,,,,,,,,,,,,,,,,,,,,,,,,,,,,,,,,,,,,,,,,,,,,,,,,,,,,,,,,,,,,,,,,,,,,,,1,0.8423080999637023,319.9700290999608,None,ScrollDown,정답입니다,319.9700290999608,None,319.9700290999608,None,319.9700290999608,None,319.9700290999608,None,320.7090599000221,None,320.7090599000221,321.20913410000503,,,,,,,,,,,,,,,,005,2022-05-06_17h50.26.087,FishGame,2022.1.1,60.00376825136869,
,37,나를 데려가줘,6,Green,B,0,0,ScrollDown,ScrollUp,Green.png,2,NonTarget,NonTarget,0,0,0,0,,,,,,,,,,,,,,,,,0,36,36,36,,,,,,,,,,,,,,,,,,,,,,,,,,,,,,,,,,,,,,,,,,,,,,,,,,,,,,,,,,,,,,,,,,,,,,,,,,,,,,,,,1,0.9611981000052765,321.829153599916,None,ScrollDown,정답입니다,321.829153599916,None,321.829153599916,None,321.829153599916,None,321.829153599916,None,322.69452090002596,None,322.69452090002596,323.21126719994936,,,,,,,,,,,,,,,,005,2022-05-06_17h50.26.087,FishGame,2022.1.1,60.00376825136869,
,38,넌 친절해,1,Green,B,6.041666666666667,5.533333333333333,ScrollUp,ScrollDown,Green.png,2,Positive,Incongruent,0,0,0,0,,,,,,,,,,,,,,,,,0,37,37,37,,,,,,,,,,,,,,,,,,,,,,,,,,,,,,,,,,,,,,,,,,,,,,,,,,,,,,,,,,,,,,,,,,,,,,,,,,,,,,,,,2,0.8756451999070123,323.8152694000164,None,ScrollUp,정답입니다,323.8152694000164,None,323.8152694000164,None,323.8152694000164,None,323.8152694000164,None,324.5920483999653,None,324.5920483999653,325.0921338999178,,,,,,,,,,,,,,,,005,2022-05-06_17h50.26.087,FishGame,2022.1.1,60.00376825136869,
,1,넌 엉성해,4,Orange,A,3,3.3,ScrollDown,ScrollUp,Orange.png,3,Negative,Incongruent,0,0,0,0,,,,,,,,,,,,,,,,,,,,,0,0,0,0,,,,,,,,,,,,,,,,,,,,,,,,,,,,,,,,,,,,356.6806703999173,358.1939274999313,358.2085763999494,359.15842320001684,359.2107149999356,360.177331999992,360.1583220999455,None,,,,,,,,,,,,,,,,,,,,,,,,,,,,,,,,,,1,1.0121152000501752,361.2675658999942,None,ScrollDown,정답입니다,361.2675658999942,None,361.2675658999942,None,361.2675658999942,None,361.2675658999942,None,362.1748895000201,None,362.1748895000201,362.6751582999714,325.59211809991393,None,325.59211809991393,None,0.36481482,-0.22685185,1,0,0,0.015985800069756806,None,355.593774799956,None,,,005,2022-05-06_17h50.26.087,FishGame,2022.1.1,60.00376825136869,
,2,나를 보내줘,6,Orange,A,0,0,ScrollUp,ScrollDown,Orange.png,3,NonTarget,NonTarget,0,0,0,0,,,,,,,,,,,,,,,,,,,,,0,1,1,1,,,,,,,,,,,,,,,,,,,,,,,,,,,,,,,,,,,,,,,,,,,,,,,,,,,,,,,,,,,,,,,,,,,,,,,,,,,,,2,0.9960714000044391,363.29318979999516,None,ScrollUp,정답입니다,363.29318979999516,None,363.29318979999516,None,363.29318979999516,None,363.29318979999516,None,364.1914499999257,None,364.1914499999257,364.69148159993347,,,,,,,,,,,,,,,,005,2022-05-06_17h50.26.087,FishGame,2022.1.1,60.00376825136869,
,3,넌 활발해,1,Green,B,5.666666666666667,5.6,ScrollUp,ScrollDown,Green.png,3,Positive,Incongruent,0,0,0,0,,,,,,,,,,,,,,,,,,,,,0,2,2,2,,,,,,,,,,,,,,,,,,,,,,,,,,,,,,,,,,,,,,,,,,,,,,,,,,,,,,,,,,,,,,,,,,,,,,,,,,,,,2,0.9458405999466777,365.3164974999381,None,ScrollUp,정답입니다,365.3164974999381,None,365.3164974999381,None,365.3164974999381,None,365.3164974999381,None,366.16029189992696,None,366.16029189992696,366.6770112999948,,,,,,,,,,,,,,,,005,2022-05-06_17h50.26.087,FishGame,2022.1.1,60.00376825136869,
,4,넌 논리적이야,2,Orange,A,5.666666666666666,4.633333333333334,ScrollDown,ScrollUp,Orange.png,3,Positive,Congruent,0,0,0,0,,,,,,,,,,,,,,,,,,,,,0,3,3,3,,,,,,,,,,,,,,,,,,,,,,,,,,,,,,,,,,,,,,,,,,,,,,,,,,,,,,,,,,,,,,,,,,,,,,,,,,,,,1,0.9257274999981746,367.2840607999824,None,ScrollDown,정답입니다,367.2840607999824,None,367.2840607999824,None,367.2840607999824,None,367.2840607999824,None,368.10799659998156,None,368.10799659998156,368.6101968999719,,,,,,,,,,,,,,,,005,2022-05-06_17h50.26.087,FishGame,2022.1.1,60.00376825136869,
,5,넌 과묵해,3,Orange,A,3.875,4.4,ScrollDown,ScrollUp,Orange.png,3,Neutral,Neutral,0,0,0,0,,,,,,,,,,,,,,,,,,,,,0,4,4,4,,,,,,,,,,,,,,,,,,,,,,,,,,,,,,,,,,,,,,,,,,,,,,,,,,,,,,,,,,,,,,,,,,,,,,,,,,,,,1,0.8936281999340281,369.23291459993925,None,ScrollDown,정답입니다,369.23291459993925,None,369.23291459993925,None,369.23291459993925,None,369.23291459993925,None,370.0246694999514,None,370.0246694999514,370.52688489994034,,,,,,,,,,,,,,,,005,2022-05-06_17h50.26.087,FishGame,2022.1.1,60.00376825136869,
,6,나를 데려가줘,6,Green,B,0,0,ScrollDown,ScrollUp,Green.png,3,NonTarget,NonTarget,0,0,0,0,,,,,,,,,,,,,,,,,,,,,0,5,5,5,,,,,,,,,,,,,,,,,,,,,,,,,,,,,,,,,,,,,,,,,,,,,,,,,,,,,,,,,,,,,,,,,,,,,,,,,,,,,1,1.0425301999785006,371.1482196999714,None,ScrollDown,정답입니다,371.1482196999714,None,371.1482196999714,None,371.1482196999714,None,371.1482196999714,None,372.0912592000095,None,372.0912592000095,372.59132659994066,,,,,,,,,,,,,,,,005,2022-05-06_17h50.26.087,FishGame,2022.1.1,60.00376825136869,
,7,넌 미숙해,4,Green,B,3,3,ScrollUp,ScrollDown,Green.png,3,Negative,Congruent,0,0,0,0,,,,,,,,,,,,,,,,,,,,,0,6,6,6,,,,,,,,,,,,,,,,,,,,,,,,,,,,,,,,,,,,,,,,,,,,,,,,,,,,,,,,,,,,,,,,,,,,,,,,,,,,,2,0.8958731000311673,373.2060557999648,None,ScrollUp,정답입니다,373.2060557999648,None,373.2060557999648,None,373.2060557999648,None,373.2060557999648,None,374.00790009996854,None,374.00790009996854,374.5102679999545,,,,,,,,,,,,,,,,005,2022-05-06_17h50.26.087,FishGame,2022.1.1,60.00376825136869,
,8,나를 보내줘,6,Orange,A,0,0,ScrollUp,ScrollDown,Orange.png,3,NonTarget,NonTarget,0,0,0,0,,,,,,,,,,,,,,,,,,,,,0,7,7,7,,,,,,,,,,,,,,,,,,,,,,,,,,,,,,,,,,,,,,,,,,,,,,,,,,,,,,,,,,,,,,,,,,,,,,,,,,,,,2,0.9435074999928474,375.1276658999268,None,ScrollUp,정답입니다,375.1276658999268,None,375.1276658999268,None,375.1276658999268,None,375.1276658999268,None,375.97670439991634,None,375.97670439991634,376.49125700001605,,,,,,,,,,,,,,,,005,2022-05-06_17h50.26.087,FishGame,2022.1.1,60.00376825136869,
,9,넌 자신만만해,3,Green,B,4.833333333333334,4.333333333333333,ScrollUp,ScrollDown,Green.png,3,Neutral,Neutral,0,0,0,0,,,,,,,,,,,,,,,,,,,,,0,8,8,8,,,,,,,,,,,,,,,,,,,,,,,,,,,,,,,,,,,,,,,,,,,,,,,,,,,,,,,,,,,,,,,,,,,,,,,,,,,,,2,0.8765519000589848,377.0900429999456,None,ScrollUp,정답입니다,377.0900429999456,None,377.0900429999456,None,377.0900429999456,None,377.0900429999456,None,377.87423560000025,None,377.87423560000025,378.3742943999823,,,,,,,,,,,,,,,,005,2022-05-06_17h50.26.087,FishGame,2022.1.1,60.00376825136869,
,10,넌 탐욕스러워,5,Orange,A,2.25,2.1,ScrollDown,ScrollUp,Orange.png,3,Negative,Incongruent,0,0,0,0,,,,,,,,,,,,,,,,,,,,,0,9,9,9,,,,,,,,,,,,,,,,,,,,,,,,,,,,,,,,,,,,,,,,,,,,,,,,,,,,,,,,,,,,,,,,,,,,,,,,,,,,,1,0.928273499943316,378.99737529992126,None,ScrollDown,정답입니다,378.99737529992126,None,378.99737529992126,None,378.99737529992126,None,378.99737529992126,None,379.82424809993245,None,379.82424809993245,380.32675569993444,,,,,,,,,,,,,,,,005,2022-05-06_17h50.26.087,FishGame,2022.1.1,60.00376825136869,
,11,넌 인기있어,2,Orange,A,5.458333333333333,4.5,ScrollDown,ScrollUp,Orange.png,3,Positive,Congruent,0,0,0,0,,,,,,,,,,,,,,,,,,,,,0,10,10,10,,,,,,,,,,,,,,,,,,,,,,,,,,,,,,,,,,,,,,,,,,,,,,,,,,,,,,,,,,,,,,,,,,,,,,,,,,,,,1,0.8940932999830693,380.94728850002866,None,ScrollDown,정답입니다,380.94728850002866,None,380.94728850002866,None,380.94728850002866,None,380.94728850002866,None,381.7434005999239,None,381.7434005999239,382.2433925999794,,,,,,,,,,,,,,,,005,2022-05-06_17h50.26.087,FishGame,2022.1.1,60.00376825136869,
,12,나를 데려가줘,6,Green,B,0,0,ScrollDown,ScrollUp,Green.png,3,NonTarget,NonTarget,0,0,0,0,,,,,,,,,,,,,,,,,,,,,0,11,11,11,,,,,,,,,,,,,,,,,,,,,,,,,,,,,,,,,,,,,,,,,,,,,,,,,,,,,,,,,,,,,,,,,,,,,,,,,,,,,1,0.9924234000500292,382.8612815999659,None,ScrollDown,정답입니다,382.8612815999659,None,382.8612815999659,None,382.8612815999659,None,382.8612815999659,None,383.75995590002276,None,383.75995590002276,384.25786799995694,,,,,,,,,,,,,,,,005,2022-05-06_17h50.26.087,FishGame,2022.1.1,60.00376825136869,
,13,넌 뛰어나,2,Green,B,6.166666666666667,4,ScrollUp,ScrollDown,Green.png,3,Positive,Incongruent,0,0,0,0,,,,,,,,,,,,,,,,,,,,,0,12,12,12,,,,,,,,,,,,,,,,,,,,,,,,,,,,,,,,,,,,,,,,,,,,,,,,,,,,,,,,,,,,,,,,,,,,,,,,,,,,,2,0.96046660002321,384.8772120999638,None,ScrollUp,정답입니다,384.8772120999638,None,384.8772120999638,None,384.8772120999638,None,384.8772120999638,None,385.7407158999704,None,385.7407158999704,386.24081019998994,,,,,,,,,,,,,,,,005,2022-05-06_17h50.26.087,FishGame,2022.1.1,60.00376825136869,
,14,넌 낙관적이야,1,Orange,A,5.75,5.8,ScrollDown,ScrollUp,Orange.png,3,Positive,Congruent,0,0,0,0,,,,,,,,,,,,,,,,,,,,,0,13,13,13,,,,,,,,,,,,,,,,,,,,,,,,,,,,,,,,,,,,,,,,,,,,,,,,,,,,,,,,,,,,,,,,,,,,,,,,,,,,,1,0.995992699987255,386.859216199955,None,ScrollDown,정답입니다,386.859216199955,None,386.859216199955,None,386.859216199955,None,386.859216199955,None,387.75992560002487,None,387.75992560002487,388.25998069997877,,,,,,,,,,,,,,,,005,2022-05-06_17h50.26.087,FishGame,2022.1.1,60.00376825136869,
,15,넌 산만해,4,Green,B,2.695652173913043,3.033333333333333,ScrollUp,ScrollDown,Green.png,3,Negative,Congruent,0,0,0,0,,,,,,,,,,,,,,,,,,,,,0,14,14,14,,,,,,,,,,,,,,,,,,,,,,,,,,,,,,,,,,,,,,,,,,,,,,,,,,,,,,,,,,,,,,,,,,,,,,,,,,,,,2,0.909402700024657,388.8809245999437,None,ScrollUp,정답입니다,388.8809245999437,None,388.8809245999437,None,388.8809245999437,None,388.8809245999437,None,389.6933168999385,None,389.6933168999385,390.1964125999948,,,,,,,,,,,,,,,,005,2022-05-06_17h50.26.087,FishGame,2022.1.1,60.00376825136869,
,16,나를 보내줘,6,Orange,A,0,0,ScrollUp,ScrollDown,Orange.png,3,NonTarget,NonTarget,0,0,0,0,,,,,,,,,,,,,,,,,,,,,0,15,15,15,,,,,,,,,,,,,,,,,,,,,,,,,,,,,,,,,,,,,,,,,,,,,,,,,,,,,,,,,,,,,,,,,,,,,,,,,,,,,2,1.0942981999833137,390.8148212999804,None,ScrollUp,정답입니다,390.8148212999804,None,390.8148212999804,None,390.8148212999804,None,390.8148212999804,None,391.8075659999158,None,391.8075659999158,392.3077101999661,,,,,,,,,,,,,,,,005,2022-05-06_17h50.26.087,FishGame,2022.1.1,60.00376825136869,
,17,넌 교활해,5,Green,B,2.333333333333333,2.133333333333333,ScrollUp,ScrollDown,Green.png,3,Negative,Congruent,0,0,0,0,,,,,,,,,,,,,,,,,,,,,0,16,16,16,,,,,,,,,,,,,,,,,,,,,,,,,,,,,,,,,,,,,,,,,,,,,,,,,,,,,,,,,,,,,,,,,,,,,,,,,,,,,1.9228395223617554,0.9928382999496534,392.9336044000229,None,ScrollUp,정답입니다,392.9336044000229,None,392.9336044000229,None,392.9336044000229,None,392.9336044000229,None,393.8238952999236,None,393.8238952999236,394.32397389994003,,,,,,,,,,,,,,,,005,2022-05-06_17h50.26.087,FishGame,2022.1.1,60.00376825136869,
,18,나를 보내줘,6,Orange,A,0,0,ScrollUp,ScrollDown,Orange.png,3,NonTarget,NonTarget,0,0,0,0,,,,,,,,,,,,,,,,,,,,,0,17,17,17,,,,,,,,,,,,,,,,,,,,,,,,,,,,,,,,,,,,,,,,,,,,,,,,,,,,,,,,,,,,,,,,,,,,,,,,,,,,,2,1.0117336999392137,394.94418999995105,None,ScrollUp,정답입니다,394.94418999995105,None,394.94418999995105,None,394.94418999995105,None,394.94418999995105,None,395.8598289999645,None,395.8598289999645,396.3597415999975,,,,,,,,,,,,,,,,005,2022-05-06_17h50.26.087,FishGame,2022.1.1,60.00376825136869,
,19,넌 불친절해,5,Green,B,2.208333333333333,2.033333333333333,ScrollUp,ScrollDown,Green.png,3,Negative,Congruent,0,0,0,0,,,,,,,,,,,,,,,,,,,,,0,18,18,18,,,,,,,,,,,,,,,,,,,,,,,,,,,,,,,,,,,,,,,,,,,,,,,,,,,,,,,,,,,,,,,,,,,,,,,,,,,,,1.9768518606821697,1.0644304000306875,396.989381399937,None,ScrollUp,정답입니다,396.989381399937,None,396.989381399937,None,396.989381399937,None,396.989381399937,None,397.9429447000148,None,397.9429447000148,398.4408007999882,,,,,,,,,,,,,,,,005,2022-05-06_17h50.26.087,FishGame,2022.1.1,60.00376825136869,
,20,넌 지적이야,2,Green,B,5.75,4.366666666666666,ScrollUp,ScrollDown,Green.png,3,Positive,Incongruent,0,0,0,0,,,,,,,,,,,,,,,,,,,,,0,19,19,19,,,,,,,,,,,,,,,,,,,,,,,,,,,,,,,,,,,,,,,,,,,,,,,,,,,,,,,,,,,,,,,,,,,,,,,,,,,,,2,0.8594940000912175,399.0626678999979,None,ScrollUp,정답입니다,399.0626678999979,None,399.0626678999979,None,399.0626678999979,None,399.0626678999979,None,399.824052699958,None,399.824052699958,400.3264406999806,,,,,,,,,,,,,,,,005,2022-05-06_17h50.26.087,FishGame,2022.1.1,60.00376825136869,
,21,넌 우유부단해,4,Orange,A,2.666666666666667,3.166666666666667,ScrollDown,ScrollUp,Orange.png,3,Negative,Incongruent,0,0,0,0,,,,,,,,,,,,,,,,,,,,,0,20,20,20,,,,,,,,,,,,,,,,,,,,,,,,,,,,,,,,,,,,,,,,,,,,,,,,,,,,,,,,,,,,,,,,,,,,,,,,,,,,,1,0.9931385000236332,400.95947270002216,None,ScrollDown,정답입니다,400.95947270002216,None,400.95947270002216,None,400.95947270002216,None,400.95947270002216,None,401.84040989994537,None,401.84040989994537,402.34046969993506,,,,,,,,,,,,,,,,005,2022-05-06_17h50.26.087,FishGame,2022.1.1,60.00376825136869,
,22,나를 데려가줘,6,Green,B,0,0,ScrollDown,ScrollUp,Green.png,3,NonTarget,NonTarget,0,0,0,0,,,,,,,,,,,,,,,,,,,,,0,21,21,21,,,,,,,,,,,,,,,,,,,,,,,,,,,,,,,,,,,,,,,,,,,,,,,,,,,,,,,,,,,,,,,,,,,,,,,,,,,,,1,0.9955909000709653,402.96119559998624,None,ScrollDown,정답입니다,402.96119559998624,None,402.96119559998624,None,402.96119559998624,None,402.96119559998624,None,403.8596478999825,None,403.8596478999825,404.36004339996725,,,,,,,,,,,,,,,,005,2022-05-06_17h50.26.087,FishGame,2022.1.1,60.00376825136869,
,23,넌 성실해,1,Green,B,6.041666666666666,5.7,ScrollUp,ScrollDown,Green.png,3,Positive,Incongruent,0,0,0,0,,,,,,,,,,,,,,,,,,,,,0,22,22,22,,,,,,,,,,,,,,,,,,,,,,,,,,,,,,,,,,,,,,,,,,,,,,,,,,,,,,,,,,,,,,,,,,,,,,,,,,,,,1.9645061492919922,0.8792427000589669,404.9732872999739,None,ScrollUp,정답입니다,404.9732872999739,None,404.9732872999739,None,404.9732872999739,None,404.9732872999739,None,405.759563999949,None,405.759563999949,406.27402469993103,,,,,,,,,,,,,,,,005,2022-05-06_17h50.26.087,FishGame,2022.1.1,60.00376825136869,
,24,넌 현실주의적이야,3,Orange,A,4.625,4.4,ScrollDown,ScrollUp,Orange.png,3,Neutral,Neutral,0,0,0,0,,,,,,,,,,,,,,,,,,,,,0,23,23,23,,,,,,,,,,,,,,,,,,,,,,,,,,,,,,,,,,,,,,,,,,,,,,,,,,,,,,,,,,,,,,,,,,,,,,,,,,,,,1.0216049253940582,0.9090421999571845,406.8787294999929,None,ScrollDown,정답입니다,406.8787294999929,None,406.8787294999929,None,406.8787294999929,None,406.8787294999929,None,407.69272739998996,None,407.69272739998996,408.2072288999334,,,,,,,,,,,,,,,,005,2022-05-06_17h50.26.087,FishGame,2022.1.1,60.00376825136869,
,25,넌 진실돼,1,Orange,A,6.625,5.566666666666666,ScrollDown,ScrollUp,Orange.png,3,Positive,Congruent,0,0,0,0,,,,,,,,,,,,,,,,,,,,,0,24,24,24,,,,,,,,,,,,,,,,,,,,,,,,,,,,,,,,,,,,,,,,,,,,,,,,,,,,,,,,,,,,,,,,,,,,,,,,,,,,,1.0277777810891469,0.8607987000141293,408.81510629993863,None,ScrollDown,정답입니다,408.81510629993863,None,408.81510629993863,None,408.81510629993863,None,408.81510629993863,None,409.5737623999594,None,409.5737623999594,410.0738765000133,,,,,,,,,,,,,,,,005,2022-05-06_17h50.26.087,FishGame,2022.1.1,60.00376825136869,
,26,넌 천진난만해,3,Green,B,4.958333333333334,4.833333333333333,ScrollUp,ScrollDown,Green.png,3,Neutral,Neutral,0,0,0,0,,,,,,,,,,,,,,,,,,,,,0,25,25,25,,,,,,,,,,,,,,,,,,,,,,,,,,,,,,,,,,,,,,,,,,,,,,,,,,,,,,,,,,,,,,,,,,,,,,,,,,,,,2,1.0131132000824437,410.69474830001127,None,ScrollUp,정답입니다,410.69474830001127,None,410.69474830001127,None,410.69474830001127,None,410.69474830001127,None,411.60930629994255,None,411.60930629994255,412.1241370999487,,,,,,,,,,,,,,,,005,2022-05-06_17h50.26.087,FishGame,2022.1.1,60.00376825136869,
,27,넌 교양없어,5,Orange,A,2.416666666666667,2.2,ScrollDown,ScrollUp,Orange.png,3,Negative,Incongruent,0,0,0,0,,,,,,,,,,,,,,,,,,,,,0,26,26,26,,,,,,,,,,,,,,,,,,,,,,,,,,,,,,,,,,,,,,,,,,,,,,,,,,,,,,,,,,,,,,,,,,,,,,,,,,,,,1.0262345671653748,0.9115367999766022,412.7328548999503,None,ScrollDown,정답입니다,412.7328548999503,None,412.7328548999503,None,412.7328548999503,None,412.7328548999503,None,413.54042480001226,None,413.54042480001226,414.0425433999626,,,,,,,,,,,,,,,,005,2022-05-06_17h50.26.087,FishGame,2022.1.1,60.00376825136869,
,28,나를 보내줘,6,Orange,A,0,0,ScrollUp,ScrollDown,Orange.png,3,NonTarget,NonTarget,0,0,0,0,,,,,,,,,,,,,,,,,,,,,0,27,27,27,,,,,,,,,,,,,,,,,,,,,,,,,,,,,,,,,,,,,,,,,,,,,,,,,,,,,,,,,,,,,,,,,,,,,,,,,,,,,2,1.075785299995914,414.66205129993614,None,ScrollUp,정답입니다,414.66205129993614,None,414.66205129993614,None,414.66205129993614,None,414.66205129993614,None,415.640331099974,None,415.640331099974,416.14039880002383,,,,,,,,,,,,,,,,005,2022-05-06_17h50.26.087,FishGame,2022.1.1,60.00376825136869,
,29,넌 엉뚱스러워,3,Orange,A,4.166666666666667,4.133333333333334,ScrollDown,ScrollUp,Orange.png,3,Neutral,Neutral,0,0,0,0,,,,,,,,,,,,,,,,,,,,,0,28,28,28,,,,,,,,,,,,,,,,,,,,,,,,,,,,,,,,,,,,,,,,,,,,,,,,,,,,,,,,,,,,,,,,,,,,,,,,,,,,,1,0.9612190999323502,416.7807813999243,None,ScrollDown,정답입니다,416.7807813999243,None,416.7807813999243,None,416.7807813999243,None,416.7807813999243,None,417.62366509996355,None,417.62366509996355,418.1259135999717,,,,,,,,,,,,,,,,005,2022-05-06_17h50.26.087,FishGame,2022.1.1,60.00376825136869,
,30,넌 무지해,4,Green,B,2.541666666666667,3.066666666666667,ScrollUp,ScrollDown,Green.png,3,Negative,Congruent,0,0,0,0,,,,,,,,,,,,,,,,,,,,,0,29,29,29,,,,,,,,,,,,,,,,,,,,,,,,,,,,,,,,,,,,,,,,,,,,,,,,,,,,,,,,,,,,,,,,,,,,,,,,,,,,,2,0.8887093999655917,418.74488669994753,None,ScrollUp,정답입니다,418.74488669994753,None,418.74488669994753,None,418.74488669994753,None,418.74488669994753,None,419.5356624999549,None,419.5356624999549,420.04011119995266,,,,,,,,,,,,,,,,005,2022-05-06_17h50.26.087,FishGame,2022.1.1,60.00376825136869,
,31,넌 음울해,5,Green,B,2.25,2.233333333333333,ScrollUp,ScrollDown,Green.png,3,Negative,Congruent,0,0,0,0,,,,,,,,,,,,,,,,,,,,,0,30,30,30,,,,,,,,,,,,,,,,,,,,,,,,,,,,,,,,,,,,,,,,,,,,,,,,,,,,,,,,,,,,,,,,,,,,,,,,,,,,,2,0.9632627000100911,420.66129039996304,None,ScrollUp,정답입니다,420.66129039996304,None,420.66129039996304,None,420.66129039996304,None,420.66129039996304,None,421.52336079999804,None,421.52336079999804,422.023410600028,,,,,,,,,,,,,,,,005,2022-05-06_17h50.26.087,FishGame,2022.1.1,60.00376825136869,
,32,넌 냉소적이야,5,Orange,A,2.916666666666667,2.4,ScrollDown,ScrollUp,Orange.png,3,Negative,Incongruent,0,0,0,0,,,,,,,,,,,,,,,,,,,,,0,31,31,31,,,,,,,,,,,,,,,,,,,,,,,,,,,,,,,,,,,,,,,,,,,,,,,,,,,,,,,,,,,,,,,,,,,,,,,,,,,,,1,0.9781300999457017,422.64481239998713,None,ScrollDown,정답입니다,422.64481239998713,None,422.64481239998713,None,422.64481239998713,None,422.64481239998713,None,423.5258288999321,None,423.5258288999321,424.0293274000287,,,,,,,,,,,,,,,,005,2022-05-06_17h50.26.087,FishGame,2022.1.1,60.00376825136869,
,33,나를 데려가줘,6,Green,B,0,0,ScrollDown,ScrollUp,Green.png,3,NonTarget,NonTarget,0,0,0,0,,,,,,,,,,,,,,,,,,,,,0,32,32,32,,,,,,,,,,,,,,,,,,,,,,,,,,,,,,,,,,,,,,,,,,,,,,,,,,,,,,,,,,,,,,,,,,,,,,,,,,,,,1,0.9925818999763578,424.64221780002117,None,ScrollDown,정답입니다,424.64221780002117,None,424.64221780002117,None,424.64221780002117,None,424.64221780002117,None,425.54013450001366,None,425.54013450001366,426.0403299999889,,,,,,,,,,,,,,,,005,2022-05-06_17h50.26.087,FishGame,2022.1.1,60.00376825136869,
,34,넌 쾌활해,1,Orange,A,5.541666666666666,5.733333333333333,ScrollDown,ScrollUp,Orange.png,3,Positive,Congruent,0,0,0,0,,,,,,,,,,,,,,,,,,,,,0,33,33,33,,,,,,,,,,,,,,,,,,,,,,,,,,,,,,,,,,,,,,,,,,,,,,,,,,,,,,,,,,,,,,,,,,,,,,,,,,,,,1.0216049253940582,0.9610070999478921,426.68586129997857,None,ScrollDown,정답입니다,426.68586129997857,None,426.68586129997857,None,426.68586129997857,None,426.68586129997857,None,427.5234075000044,None,427.5234075000044,428.0257250999566,,,,,,,,,,,,,,,,005,2022-05-06_17h50.26.087,FishGame,2022.1.1,60.00376825136869,
,35,나를 보내줘,6,Orange,A,0,0,ScrollUp,ScrollDown,Orange.png,3,NonTarget,NonTarget,0,0,0,0,,,,,,,,,,,,,,,,,,,,,0,34,34,34,,,,,,,,,,,,,,,,,,,,,,,,,,,,,,,,,,,,,,,,,,,,,,,,,,,,,,,,,,,,,,,,,,,,,,,,,,,,,2,0.9965668999357149,428.6439069999615,None,ScrollUp,정답입니다,428.6439069999615,None,428.6439069999615,None,428.6439069999615,None,428.6439069999615,None,429.5400447000284,None,429.5400447000284,430.0423654000042,,,,,,,,,,,,,,,,005,2022-05-06_17h50.26.087,FishGame,2022.1.1,60.00376825136869,
,36,넌 명랑해,1,Green,B,5.739130434782609,5.666666666666667,ScrollUp,ScrollDown,Green.png,3,Positive,Incongruent,0,0,0,0,,,,,,,,,,,,,,,,,,,,,0,35,35,35,,,,,,,,,,,,,,,,,,,,,,,,,,,,,,,,,,,,,,,,,,,,,,,,,,,,,,,,,,,,,,,,,,,,,,,,,,,,,2,0.8455603000475094,430.65719549998175,None,ScrollUp,정답입니다,430.65719549998175,None,430.65719549998175,None,430.65719549998175,None,430.65719549998175,None,431.4088209000183,None,431.4088209000183,431.91224330000114,,,,,,,,,,,,,,,,005,2022-05-06_17h50.26.087,FishGame,2022.1.1,60.00376825136869,
,37,넌 멍해,4,Orange,A,2.833333333333333,3.4,ScrollDown,ScrollUp,Orange.png,3,Negative,Incongruent,0,0,0,0,,,,,,,,,,,,,,,,,,,,,0,36,36,36,,,,,,,,,,,,,,,,,,,,,,,,,,,,,,,,,,,,,,,,,,,,,,,,,,,,,,,,,,,,,,,,,,,,,,,,,,,,,1,0.893098600092344,432.5477841999382,None,ScrollDown,정답입니다,432.5477841999382,None,432.5477841999382,None,432.5477841999382,None,432.5477841999382,None,433.3399256999837,None,433.3399256999837,433.8400023999857,,,,,,,,,,,,,,,,005,2022-05-06_17h50.26.087,FishGame,2022.1.1,60.00376825136869,
,38,나를 데려가줘,6,Green,B,0,0,ScrollDown,ScrollUp,Green.png,3,NonTarget,NonTarget,0,0,0,0,,,,,,,,,,,,,,,,,,,,,0,37,37,37,,,,,,,,,,,,,,,,,,,,,,,,,,,,,,,,,,,,,,,,,,,,,,,,,,,,,,,,,,,,,,,,,,,,,,,,,,,,,1,0.9595517000416294,434.462455199915,None,ScrollDown,정답입니다,434.462455199915,None,434.462455199915,None,434.462455199915,None,434.462455199915,None,435.32547549996525,None,435.32547549996525,435.8421777000185,,,,,,,,,,,,,,,,005,2022-05-06_17h50.26.087,FishGame,2022.1.1,60.00376825136869,
,39,넌 현명해,2,Orange,A,6.541666666666666,4.533333333333333,ScrollDown,ScrollUp,Orange.png,3,Positive,Congruent,0,0,0,0,,,,,,,,,,,,,,,,,,,,,0,38,38,38,,,,,,,,,,,,,,,,,,,,,,,,,,,,,,,,,,,,,,,,,,,,,,,,,,,,,,,,,,,,,,,,,,,,,,,,,,,,,1,0.8427393999882042,436.4448684999952,None,ScrollDown,정답입니다,436.4448684999952,None,436.4448684999952,None,436.4448684999952,None,436.4448684999952,None,437.18984359991737,None,437.18984359991737,437.69012049993034,,,,,,,,,,,,,,,,005,2022-05-06_17h50.26.087,FishGame,2022.1.1,60.00376825136869,
,40,넌 수줍어,3,Green,B,3.541666666666666,4.366666666666666,ScrollUp,ScrollDown,Green.png,3,Neutral,Neutral,0,0,0,0,,,,,,,,,,,,,,,,,,,,,0,39,39,39,,,,,,,,,,,,,,,,,,,,,,,,,,,,,,,,,,,,,,,,,,,,,,,,,,,,,,,,,,,,,,,,,,,,,,,,,,,,,2,0.9115200999658555,438.3063384999987,None,ScrollUp,정답입니다,438.3063384999987,None,438.3063384999987,None,438.3063384999987,None,438.3063384999987,None,439.1253404999152,None,439.1253404999152,439.63997489993926,,,,,,,,,,,,,,,,005,2022-05-06_17h50.26.087,FishGame,2022.1.1,60.00376825136869,
,41,나를 데려가줘,6,Green,B,0,0,ScrollDown,ScrollUp,Green.png,3,NonTarget,NonTarget,0,0,0,0,,,,,,,,,,,,,,,,,,,,,0,40,40,40,,,,,,,,,,,,,,,,,,,,,,,,,,,,,,,,,,,,,,,,,,,,,,,,,,,,,,,,,,,,,,,,,,,,,,,,,,,,,1,0.9605518999742344,440.2577736999374,None,ScrollDown,정답입니다,440.2577736999374,None,440.2577736999374,None,440.2577736999374,None,440.2577736999374,None,441.12317089992575,None,441.12317089992575,441.6253758999519,,,,,,,,,,,,,,,,005,2022-05-06_17h50.26.087,FishGame,2022.1.1,60.00376825136869,
,42,넌 성숙해,2,Green,B,5.833333333333333,4.533333333333333,ScrollUp,ScrollDown,Green.png,3,Positive,Incongruent,0,0,0,0,,,,,,,,,,,,,,,,,,,,,0,41,41,41,,,,,,,,,,,,,,,,,,,,,,,,,,,,,,,,,,,,,,,,,,,,,,,,,,,,,,,,,,,,,,,,,,,,,,,,,,,,,2,0.8260636000195518,442.25042830000166,None,ScrollUp,정답입니다,442.25042830000166,None,442.25042830000166,None,442.25042830000166,None,442.25042830000166,None,442.97313009994105,None,442.97313009994105,443.4753476999467,,,,,,,,,,,,,,,,005,2022-05-06_17h50.26.087,FishGame,2022.1.1,60.00376825136869,
,1,넌 매력적이야,2,Green,B,6.125,4.666666666666667,ScrollUp,ScrollDown,Green.png,4,Positive,Incongruent,0,0,0,0,,,,,,,,,,,,,,,,,,,,,,,,,0,0,0,0,,,,,,,,,,,,,,,,,,,,,,,,,,,,,,,,474.5911677000113,476.09146499994677,476.12476159993093,477.0914598000236,477.1248703999445,478.0914539999794,478.07478419994004,None,,,,,,,,,,,,,,,,,,,,,,,,,,,,,,,,,,1.9629629850387573,1.045495199970901,479.1808467999799,None,ScrollUp,정답입니다,479.1808467999799,None,479.1808467999799,None,479.1808467999799,None,479.1808467999799,None,480.122327900026,None,480.122327900026,480.6245099999942,443.97527439997066,None,443.97527439997066,None,0.35462964,-0.11481482,1,0,0,0.015914899995550513,None,473.9724966000067,None,,,005,2022-05-06_17h50.26.087,FishGame,2022.1.1,60.00376825136869,
,2,나를 보내줘,6,Orange,A,0,0,ScrollUp,ScrollDown,Orange.png,4,NonTarget,NonTarget,0,0,0,0,,,,,,,,,,,,,,,,,,,,,,,,,0,1,1,1,,,,,,,,,,,,,,,,,,,,,,,,,,,,,,,,,,,,,,,,,,,,,,,,,,,,,,,,,,,,,,,,,,,,,,,,,2,0.9777042999630794,481.24092239991296,None,ScrollUp,정답입니다,481.24092239991296,None,481.24092239991296,None,481.24092239991296,None,481.24092239991296,None,482.1219731000019,None,482.1219731000019,482.62205319991335,,,,,,,,,,,,,,,,005,2022-05-06_17h50.26.087,FishGame,2022.1.1,60.00376825136869,
,3,넌 조심스러워,3,Orange,A,4.791666666666666,4.666666666666667,ScrollDown,ScrollUp,Orange.png,4,Neutral,Neutral,0,0,0,0,,,,,,,,,,,,,,,,,,,,,,,,,0,2,2,2,,,,,,,,,,,,,,,,,,,,,,,,,,,,,,,,,,,,,,,,,,,,,,,,,,,,,,,,,,,,,,,,,,,,,,,,,1.0092592636744182,0.9950861000688747,483.2426128999796,None,ScrollDown,정답입니다,483.2426128999796,None,483.2426128999796,None,483.2426128999796,None,483.2426128999796,None,484.14115399995353,None,484.14115399995353,484.64119579992257,,,,,,,,,,,,,,,,005,2022-05-06_17h50.26.087,FishGame,2022.1.1,60.00376825136869,
,4,넌 철학적이야,3,Green,B,4.5,4.266666666666667,ScrollUp,ScrollDown,Green.png,4,Neutral,Neutral,0,0,0,0,,,,,,,,,,,,,,,,,,,,,,,,,0,3,3,3,,,,,,,,,,,,,,,,,,,,,,,,,,,,,,,,,,,,,,,,,,,,,,,,,,,,,,,,,,,,,,,,,,,,,,,,,2,0.995975200086832,485.2569077999797,None,ScrollUp,정답입니다,485.2569077999797,None,485.2569077999797,None,485.2569077999797,None,485.2569077999797,None,486.15780329995323,None,486.15780329995323,486.6722448000219,,,,,,,,,,,,,,,,005,2022-05-06_17h50.26.087,FishGame,2022.1.1,60.00376825136869,
,5,넌 쩨쩨해,5,Orange,A,2.375,2.133333333333333,ScrollDown,ScrollUp,Orange.png,4,Negative,Incongruent,0,0,0,0,,,,,,,,,,,,,,,,,,,,,,,,,0,4,4,4,,,,,,,,,,,,,,,,,,,,,,,,,,,,,,,,,,,,,,,,,,,,,,,,,,,,,,,,,,,,,,,,,,,,,,,,,1.0756172637144725,0.8609319999814034,487.28204540000297,None,ScrollDown,정답입니다,487.28204540000297,None,487.28204540000297,None,487.28204540000297,None,487.28204540000297,None,488.038879300002,None,488.038879300002,488.53882219991647,,,,,,,,,,,,,,,,005,2022-05-06_17h50.26.087,FishGame,2022.1.1,60.00376825136869,
,6,나를 데려가줘,6,Green,B,0,0,ScrollDown,ScrollUp,Green.png,4,NonTarget,NonTarget,0,0,0,0,,,,,,,,,,,,,,,,,,,,,,,,,0,5,5,5,,,,,,,,,,,,,,,,,,,,,,,,,,,,,,,,,,,,,,,,,,,,,,,,,,,,,,,,,,,,,,,,,,,,,,,,,1,0.9096276999916881,489.1628591999179,None,ScrollDown,정답입니다,489.1628591999179,None,489.1628591999179,None,489.1628591999179,None,489.1628591999179,None,489.9718282999238,None,489.9718282999238,490.47188590001315,,,,,,,,,,,,,,,,005,2022-05-06_17h50.26.087,FishGame,2022.1.1,60.00376825136869,
,7,넌 고집불통이야,5,Green,B,2.875,2,ScrollUp,ScrollDown,Green.png,4,Negative,Congruent,0,0,0,0,,,,,,,,,,,,,,,,,,,,,,,,,0,6,6,6,,,,,,,,,,,,,,,,,,,,,,,,,,,,,,,,,,,,,,,,,,,,,,,,,,,,,,,,,,,,,,,,,,,,,,,,,2,0.9117216999875382,491.0923882999923,None,ScrollUp,정답입니다,491.0923882999923,None,491.0923882999923,None,491.0923882999923,None,491.0923882999923,None,491.9051757999696,None,491.9051757999696,492.40773189999163,,,,,,,,,,,,,,,,005,2022-05-06_17h50.26.087,FishGame,2022.1.1,60.00376825136869,
,8,넌 무심해,4,Orange,A,2.875,3.2,ScrollDown,ScrollUp,Orange.png,4,Negative,Incongruent,0,0,0,0,,,,,,,,,,,,,,,,,,,,,,,,,0,7,7,7,,,,,,,,,,,,,,,,,,,,,,,,,,,,,,,,,,,,,,,,,,,,,,,,,,,,,,,,,,,,,,,,,,,,,,,,,1.0447530845801036,0.8480551999527961,493.0225187999895,None,ScrollDown,정답입니다,493.0225187999895,None,493.0225187999895,None,493.0225187999895,None,493.0225187999895,None,493.7742987999227,None,493.7742987999227,494.27743409993127,,,,,,,,,,,,,,,,005,2022-05-06_17h50.26.087,FishGame,2022.1.1,60.00376825136869,
,9,넌 정겨워,1,Orange,A,5.791666666666667,5.666666666666667,ScrollDown,ScrollUp,Orange.png,4,Positive,Congruent,0,0,0,0,,,,,,,,,,,,,,,,,,,,,,,,,0,8,8,8,,,,,,,,,,,,,,,,,,,,,,,,,,,,,,,,,,,,,,,,,,,,,,,,,,,,,,,,,,,,,,,,,,,,,,,,,1.0709876716136932,0.8950215000659227,494.89193629997317,None,ScrollDown,정답입니다,494.89193629997317,None,494.89193629997317,None,494.89193629997317,None,494.89193629997317,None,495.6886509999167,None,495.6886509999167,496.1908229999244,,,,,,,,,,,,,,,,005,2022-05-06_17h50.26.087,FishGame,2022.1.1,60.00376825136869,
,10,나를 데려가줘,6,Green,B,0,0,ScrollDown,ScrollUp,Green.png,4,NonTarget,NonTarget,0,0,0,0,,,,,,,,,,,,,,,,,,,,,,,,,0,9,9,9,,,,,,,,,,,,,,,,,,,,,,,,,,,,,,,,,,,,,,,,,,,,,,,,,,,,,,,,,,,,,,,,,,,,,,,,,1,1.0961218000156805,496.807022199966,None,ScrollDown,정답입니다,496.807022199966,None,496.807022199966,None,496.807022199966,None,496.807022199966,None,497.8051899999846,None,497.8051899999846,498.3052825999912,,,,,,,,,,,,,,,,005,2022-05-06_17h50.26.087,FishGame,2022.1.1,60.00376825136869,
,11,넌 체제순응적이야,4,Green,B,3,3.6,ScrollUp,ScrollDown,Green.png,4,Negative,Congruent,0,0,0,0,,,,,,,,,,,,,,,,,,,,,,,,,0,10,10,10,,,,,,,,,,,,,,,,,,,,,,,,,,,,,,,,,,,,,,,,,,,,,,,,,,,,,,,,,,,,,,,,,,,,,,,,,2,0.9603996999794617,498.93516669992823,None,ScrollUp,정답입니다,498.93516669992823,None,498.93516669992823,None,498.93516669992823,None,498.93516669992823,None,499.78856379992794,None,499.78856379992794,500.29077700001653,,,,,,,,,,,,,,,,005,2022-05-06_17h50.26.087,FishGame,2022.1.1,60.00376825136869,
,12,나를 보내줘,6,Orange,A,0,0,ScrollUp,ScrollDown,Orange.png,4,NonTarget,NonTarget,0,0,0,0,,,,,,,,,,,,,,,,,,,,,,,,,0,11,11,11,,,,,,,,,,,,,,,,,,,,,,,,,,,,,,,,,,,,,,,,,,,,,,,,,,,,,,,,,,,,,,,,,,,,,,,,,2,1.0423096000449732,500.9124715999933,None,ScrollUp,정답입니다,500.9124715999933,None,500.9124715999933,None,500.9124715999933,None,500.9124715999933,None,501.85488390002865,None,501.85488390002865,502.35496639995836,,,,,,,,,,,,,,,,005,2022-05-06_17h50.26.087,FishGame,2022.1.1,60.00376825136869,
,13,넌 박식해,2,Orange,A,5.625,3.933333333333333,ScrollDown,ScrollUp,Orange.png,4,Positive,Congruent,0,0,0,0,,,,,,,,,,,,,,,,,,,,,,,,,0,12,12,12,,,,,,,,,,,,,,,,,,,,,,,,,,,,,,,,,,,,,,,,,,,,,,,,,,,,,,,,,,,,,,,,,,,,,,,,,1,0.9446451999247074,502.9728761999868,None,ScrollDown,정답입니다,502.9728761999868,None,502.9728761999868,None,502.9728761999868,None,502.9728761999868,None,503.8215818000026,None,503.8215818000026,504.32411409995984,,,,,,,,,,,,,,,,005,2022-05-06_17h50.26.087,FishGame,2022.1.1,60.00376825136869,
,14,나를 보내줘,6,Orange,A,0,0,ScrollUp,ScrollDown,Orange.png,4,NonTarget,NonTarget,0,0,0,0,,,,,,,,,,,,,,,,,,,,,,,,,0,13,13,13,,,,,,,,,,,,,,,,,,,,,,,,,,,,,,,,,,,,,,,,,,,,,,,,,,,,,,,,,,,,,,,,,,,,,,,,,1.9351851840813954,0.9480347000062466,504.9395529999165,None,ScrollUp,정답입니다,504.9395529999165,None,504.9395529999165,None,504.9395529999165,None,504.9395529999165,None,505.7907328000292,None,505.7907328000292,506.29074750002474,,,,,,,,,,,,,,,,005,2022-05-06_17h50.26.087,FishGame,2022.1.1,60.00376825136869,
,15,넌 침착해,1,Green,B,5.458333333333333,5.566666666666666,ScrollUp,ScrollDown,Green.png,4,Positive,Incongruent,0,0,0,0,,,,,,,,,,,,,,,,,,,,,,,,,0,14,14,14,,,,,,,,,,,,,,,,,,,,,,,,,,,,,,,,,,,,,,,,,,,,,,,,,,,,,,,,,,,,,,,,,,,,,,,,,2,0.9635384000139311,506.9075956000015,None,ScrollUp,정답입니다,506.9075956000015,None,506.9075956000015,None,506.9075956000015,None,506.9075956000015,None,507.77143949992023,None,507.77143949992023,508.27150619996246,,,,,,,,,,,,,,,,005,2022-05-06_17h50.26.087,FishGame,2022.1.1,60.00376825136869,
,16,나를 데려가줘,6,Green,B,0,0,ScrollDown,ScrollUp,Green.png,4,NonTarget,NonTarget,0,0,0,0,,,,,,,,,,,,,,,,,,,,,,,,,0,15,15,15,,,,,,,,,,,,,,,,,,,,,,,,,,,,,,,,,,,,,,,,,,,,,,,,,,,,,,,,,,,,,,,,,,,,,,,,,1,0.9284313000971451,508.8897887999192,None,ScrollDown,정답입니다,508.8897887999192,None,508.8897887999192,None,508.8897887999192,None,508.8897887999192,None,509.72405059996527,None,509.72405059996527,510.22400149994064,,,,,,,,,,,,,,,,005,2022-05-06_17h50.26.087,FishGame,2022.1.1,60.00376825136869,
,17,넌 행복해,1,Orange,A,6.416666666666666,6.166666666666667,ScrollDown,ScrollUp,Orange.png,4,Positive,Congruent,0,0,0,0,,,,,,,,,,,,,,,,,,,,,,,,,0,16,16,16,,,,,,,,,,,,,,,,,,,,,,,,,,,,,,,,,,,,,,,,,,,,,,,,,,,,,,,,,,,,,,,,,,,,,,,,,1,0.9126293000299484,510.84382329997607,None,ScrollDown,정답입니다,510.84382329997607,None,510.84382329997607,None,510.84382329997607,None,510.84382329997607,None,511.6574135000119,None,511.6574135000119,512.1739376999903,,,,,,,,,,,,,,,,005,2022-05-06_17h50.26.087,FishGame,2022.1.1,60.00376825136869,
,18,넌 겸손해,2,Green,B,5.791666666666667,4.766666666666667,ScrollUp,ScrollDown,Green.png,4,Positive,Incongruent,0,0,0,0,,,,,,,,,,,,,,,,,,,,,,,,,0,17,17,17,,,,,,,,,,,,,,,,,,,,,,,,,,,,,,,,,,,,,,,,,,,,,,,,,,,,,,,,,,,,,,,,,,,,,,,,,2,0.9925985001027584,512.7803323999979,None,ScrollUp,정답입니다,512.7803323999979,None,512.7803323999979,None,512.7803323999979,None,512.7803323999979,None,513.67160589993,None,513.67160589993,514.1738702999428,,,,,,,,,,,,,,,,005,2022-05-06_17h50.26.087,FishGame,2022.1.1,60.00376825136869,
,19,나를 보내줘,6,Orange,A,0,0,ScrollUp,ScrollDown,Orange.png,4,NonTarget,NonTarget,0,0,0,0,,,,,,,,,,,,,,,,,,,,,,,,,0,18,18,18,,,,,,,,,,,,,,,,,,,,,,,,,,,,,,,,,,,,,,,,,,,,,,,,,,,,,,,,,,,,,,,,,,,,,,,,,2,0.9926087000640109,514.7969332999783,None,ScrollUp,정답입니다,514.7969332999783,None,514.7969332999783,None,514.7969332999783,None,514.7969332999783,None,515.6879336999264,None,515.6879336999264,516.1880470999749,,,,,,,,,,,,,,,,005,2022-05-06_17h50.26.087,FishGame,2022.1.1,60.00376825136869,
,20,넌 의심없어,3,Orange,A,4.166666666666667,4.6,ScrollDown,ScrollUp,Orange.png,4,Neutral,Neutral,0,0,0,0,,,,,,,,,,,,,,,,,,,,,,,,,0,19,19,19,,,,,,,,,,,,,,,,,,,,,,,,,,,,,,,,,,,,,,,,,,,,,,,,,,,,,,,,,,,,,,,,,,,,,,,,,1.0185184975465138,0.8632635000394657,516.809169300017,None,ScrollDown,정답입니다,516.809169300017,None,516.809169300017,None,516.809169300017,None,516.809169300017,None,517.5712891999865,None,517.5712891999865,518.0738368999446,,,,,,,,,,,,,,,,005,2022-05-06_17h50.26.087,FishGame,2022.1.1,60.00376825136869,
,21,넌 시시해,4,Orange,A,2.666666666666667,2.966666666666667,ScrollDown,ScrollUp,Orange.png,4,Negative,Incongruent,0,0,0,0,,,,,,,,,,,,,,,,,,,,,,,,,0,20,20,20,,,,,,,,,,,,,,,,,,,,,,,,,,,,,,,,,,,,,,,,,,,,,,,,,,,,,,,,,,,,,,,,,,,,,,,,,1.0663580298423767,0.8290066999616101,518.6918687999714,None,ScrollDown,정답입니다,518.6918687999714,None,518.6918687999714,None,518.6918687999714,None,518.6918687999714,None,519.423774600029,None,519.423774600029,519.9237593000289,,,,,,,,,,,,,,,,005,2022-05-06_17h50.26.087,FishGame,2022.1.1,60.00376825136869,
,22,나를 데려가줘,6,Green,B,0,0,ScrollDown,ScrollUp,Green.png,4,NonTarget,NonTarget,0,0,0,0,,,,,,,,,,,,,,,,,,,,,,,,,0,21,21,21,,,,,,,,,,,,,,,,,,,,,,,,,,,,,,,,,,,,,,,,,,,,,,,,,,,,,,,,,,,,,,,,,,,,,,,,,1,1.0467060999944806,520.537613100023,None,ScrollDown,정답입니다,520.537613100023,None,520.537613100023,None,520.537613100023,None,520.537613100023,None,521.4881104999222,None,521.4881104999222,521.9884316999232,,,,,,,,,,,,,,,,005,2022-05-06_17h50.26.087,FishGame,2022.1.1,60.00376825136869,
,23,넌 무정해,5,Orange,A,2.5,2.2,ScrollDown,ScrollUp,Orange.png,4,Negative,Incongruent,0,0,0,0,,,,,,,,,,,,,,,,,,,,,,,,,0,22,22,22,,,,,,,,,,,,,,,,,,,,,,,,,,,,,,,,,,,,,,,,,,,,,,,,,,,,,,,,,,,,,,,,,,,,,,,,,1.0216049253940582,0.943128400016576,522.6087085999316,None,ScrollDown,정답입니다,522.6087085999316,None,522.6087085999316,None,522.6087085999316,None,522.6087085999316,None,523.4547707999591,None,523.4547707999591,523.9600856999168,,,,,,,,,,,,,,,,005,2022-05-06_17h50.26.087,FishGame,2022.1.1,60.00376825136869,
,24,넌 긍정적이야,1,Green,B,6.041666666666667,6.066666666666666,ScrollUp,ScrollDown,Green.png,4,Positive,Incongruent,0,0,0,0,,,,,,,,,,,,,,,,,,,,,,,,,0,23,23,23,,,,,,,,,,,,,,,,,,,,,,,,,,,,,,,,,,,,,,,,,,,,,,,,,,,,,,,,,,,,,,,,,,,,,,,,,2,1.0279256999492645,524.5810416999739,None,ScrollUp,정답입니다,524.5810416999739,None,524.5810416999739,None,524.5810416999739,None,524.5810416999739,None,525.5049812999787,None,525.5049812999787,526.0047923999373,,,,,,,,,,,,,,,,005,2022-05-06_17h50.26.087,FishGame,2022.1.1,60.00376825136869,
,25,나를 보내줘,6,Orange,A,0,0,ScrollUp,ScrollDown,Orange.png,4,NonTarget,NonTarget,0,0,0,0,,,,,,,,,,,,,,,,,,,,,,,,,0,24,24,24,,,,,,,,,,,,,,,,,,,,,,,,,,,,,,,,,,,,,,,,,,,,,,,,,,,,,,,,,,,,,,,,,,,,,,,,,2,0.9927638999652117,526.6271760999225,None,ScrollUp,정답입니다,526.6271760999225,None,526.6271760999225,None,526.6271760999225,None,526.6271760999225,None,527.5235320000211,None,527.5235320000211,528.0213036999339,,,,,,,,,,,,,,,,005,2022-05-06_17h50.26.087,FishGame,2022.1.1,60.00376825136869,
,26,넌 시기심이 많아,5,Green,B,2.458333333333333,2.233333333333333,ScrollUp,ScrollDown,Green.png,4,Negative,Congruent,0,0,0,0,,,,,,,,,,,,,,,,,,,,,,,,,0,25,25,25,,,,,,,,,,,,,,,,,,,,,,,,,,,,,,,,,,,,,,,,,,,,,,,,,,,,,,,,,,,,,,,,,,,,,,,,,1.9938271641731262,1.0777293000137433,528.6658449999522,None,ScrollUp,정답입니다,528.6658449999522,None,528.6658449999522,None,528.6658449999522,None,528.6658449999522,None,529.6378731000004,None,529.6378731000004,530.138137599919,,,,,,,,,,,,,,,,005,2022-05-06_17h50.26.087,FishGame,2022.1.1,60.00376825136869,
,27,넌 탁월해,2,Orange,A,5.708333333333334,4.5,ScrollDown,ScrollUp,Orange.png,4,Positive,Congruent,0,0,0,0,,,,,,,,,,,,,,,,,,,,,,,,,0,26,26,26,,,,,,,,,,,,,,,,,,,,,,,,,,,,,,,,,,,,,,,,,,,,,,,,,,,,,,,,,,,,,,,,,,,,,,,,,1,0.9614803000586107,530.7643654999556,None,ScrollDown,정답입니다,530.7643654999556,None,530.7643654999556,None,530.7643654999556,None,530.7643654999556,None,531.6233959000092,None,531.6233959000092,532.1234064999735,,,,,,,,,,,,,,,,005,2022-05-06_17h50.26.087,FishGame,2022.1.1,60.00376825136869,
,28,나를 데려가줘,6,Green,B,0,0,ScrollDown,ScrollUp,Green.png,4,NonTarget,NonTarget,0,0,0,0,,,,,,,,,,,,,,,,,,,,,,,,,0,27,27,27,,,,,,,,,,,,,,,,,,,,,,,,,,,,,,,,,,,,,,,,,,,,,,,,,,,,,,,,,,,,,,,,,,,,,,,,,1,0.9440300000132993,532.7413345000241,None,ScrollDown,정답입니다,532.7413345000241,None,532.7413345000241,None,532.7413345000241,None,532.7413345000241,None,533.5875446000136,None,533.5875446000136,534.0877085999819,,,,,,,,,,,,,,,,005,2022-05-06_17h50.26.087,FishGame,2022.1.1,60.00376825136869,
,29,넌 조용해,3,Green,B,4.333333333333333,4.166666666666667,ScrollUp,ScrollDown,Green.png,4,Neutral,Neutral,0,0,0,0,,,,,,,,,,,,,,,,,,,,,,,,,0,28,28,28,,,,,,,,,,,,,,,,,,,,,,,,,,,,,,,,,,,,,,,,,,,,,,,,,,,,,,,,,,,,,,,,,,,,,,,,,1.9552469154198964,0.8115462000714615,534.707894799998,None,ScrollUp,정답입니다,534.707894799998,None,534.707894799998,None,534.707894799998,None,534.707894799998,None,535.4209306000266,None,535.4209306000266,535.9209439000115,,,,,,,,,,,,,,,,005,2022-05-06_17h50.26.087,FishGame,2022.1.1,60.00376825136869,
,30,넌 다정해,1,Orange,A,5.833333333333334,5.7,ScrollDown,ScrollUp,Orange.png,4,Positive,Congruent,0,0,0,0,,,,,,,,,,,,,,,,,,,,,,,,,0,29,29,29,,,,,,,,,,,,,,,,,,,,,,,,,,,,,,,,,,,,,,,,,,,,,,,,,,,,,,,,,,,,,,,,,,,,,,,,,1,0.8441553000593558,536.5452325999504,None,ScrollDown,정답입니다,536.5452325999504,None,536.5452325999504,None,536.5452325999504,None,536.5452325999504,None,537.2900257000001,None,537.2900257000001,537.7900412000017,,,,,,,,,,,,,,,,005,2022-05-06_17h50.26.087,FishGame,2022.1.1,60.00376825136869,
,31,넌 능력있어,2,Green,B,6.166666666666666,4.6,ScrollUp,ScrollDown,Green.png,4,Positive,Incongruent,0,0,0,0,,,,,,,,,,,,,,,,,,,,,,,,,0,30,30,30,,,,,,,,,,,,,,,,,,,,,,,,,,,,,,,,,,,,,,,,,,,,,,,,,,,,,,,,,,,,,,,,,,,,,,,,,1.9614197711149852,1.1138202000875026,538.4071872999193,None,ScrollUp,정답입니다,538.4071872999193,None,538.4071872999193,None,538.4071872999193,None,538.4071872999193,None,539.4232334999833,None,539.4232334999833,539.9377210999373,,,,,,,,,,,,,,,,005,2022-05-06_17h50.26.087,FishGame,2022.1.1,60.00376825136869,
,32,넌 불쾌해,5,Orange,A,2.125,1.933333333333333,ScrollDown,ScrollUp,Orange.png,4,Negative,Incongruent,0,0,0,0,,,,,,,,,,,,,,,,,,,,,,,,,0,31,31,31,,,,,,,,,,,,,,,,,,,,,,,,,,,,,,,,,,,,,,,,,,,,,,,,,,,,,,,,,,,,,,,,,,,,,,,,,1.141975313425064,0.8607325999764726,540.5423558999319,None,ScrollDown,정답입니다,540.5423558999319,None,540.5423558999319,None,540.5423558999319,None,540.5423558999319,None,541.3064402999589,None,541.3064402999589,541.8064982999349,,,,,,,,,,,,,,,,005,2022-05-06_17h50.26.087,FishGame,2022.1.1,60.00376825136869,
,33,나를 데려가줘,6,Green,B,0,0,ScrollDown,ScrollUp,Green.png,4,NonTarget,NonTarget,0,0,0,0,,,,,,,,,,,,,,,,,,,,,,,,,0,32,32,32,,,,,,,,,,,,,,,,,,,,,,,,,,,,,,,,,,,,,,,,,,,,,,,,,,,,,,,,,,,,,,,,,,,,,,,,,1,0.9126879000104964,542.4359903999139,None,ScrollDown,정답입니다,542.4359903999139,None,542.4359903999139,None,542.4359903999139,None,542.4359903999139,None,543.2543286000146,None,543.2543286000146,543.7564643999794,,,,,,,,,,,,,,,,005,2022-05-06_17h50.26.087,FishGame,2022.1.1,60.00376825136869,
,34,넌 유순해,3,Orange,A,4.458333333333333,5,ScrollDown,ScrollUp,Orange.png,4,Neutral,Neutral,0,0,0,0,,,,,,,,,,,,,,,,,,,,,,,,,0,33,33,33,,,,,,,,,,,,,,,,,,,,,,,,,,,,,,,,,,,,,,,,,,,,,,,,,,,,,,,,,,,,,,,,,,,,,,,,,1.233024686574936,0.8102107999147847,544.374341799994,None,ScrollDown,정답입니다,544.374341799994,None,544.374341799994,None,544.374341799994,None,544.374341799994,None,545.0875785999233,None,545.0875785999233,545.5877611999167,,,,,,,,,,,,,,,,005,2022-05-06_17h50.26.087,FishGame,2022.1.1,60.00376825136869,
,35,넌 근심스러워,4,Green,B,2.708333333333333,3.133333333333333,ScrollUp,ScrollDown,Green.png,4,Negative,Congruent,0,0,0,0,,,,,,,,,,,,,,,,,,,,,,,,,0,34,34,34,,,,,,,,,,,,,,,,,,,,,,,,,,,,,,,,,,,,,,,,,,,,,,,,,,,,,,,,,,,,,,,,,,,,,,,,,2,0.8947182000847533,546.2127336999401,None,ScrollUp,정답입니다,546.2127336999401,None,546.2127336999401,None,546.2127336999401,None,546.2127336999401,None,547.0041602000128,None,547.0041602000128,547.5042123999447,,,,,,,,,,,,,,,,005,2022-05-06_17h50.26.087,FishGame,2022.1.1,60.00376825136869,
,36,넌 세련되었어,2,Orange,A,5.5,4.6,ScrollDown,ScrollUp,Orange.png,4,Positive,Congruent,0,0,0,0,,,,,,,,,,,,,,,,,,,,,,,,,0,35,35,35,,,,,,,,,,,,,,,,,,,,,,,,,,,,,,,,,,,,,,,,,,,,,,,,,,,,,,,,,,,,,,,,,,,,,,,,,1,0.8935189999174327,548.1310534999939,None,ScrollDown,정답입니다,548.1310534999939,None,548.1310534999939,None,548.1310534999939,None,548.1310534999939,None,548.9208397999173,None,548.9208397999173,549.4230151999509,,,,,,,,,,,,,,,,005,2022-05-06_17h50.26.087,FishGame,2022.1.1,60.00376825136869,
,37,나를 보내줘,6,Orange,A,0,0,ScrollUp,ScrollDown,Orange.png,4,NonTarget,NonTarget,0,0,0,0,,,,,,,,,,,,,,,,,,,,,,,,,0,36,36,36,,,,,,,,,,,,,,,,,,,,,,,,,,,,,,,,,,,,,,,,,,,,,,,,,,,,,,,,,,,,,,,,,,,,,,,,,2,0.9088238999247551,550.0427484000102,None,ScrollUp,정답입니다,550.0427484000102,None,550.0427484000102,None,550.0427484000102,None,550.0427484000102,None,550.854073699913,None,550.854073699913,551.3541390999453,,,,,,,,,,,,,,,,005,2022-05-06_17h50.26.087,FishGame,2022.1.1,60.00376825136869,
,38,넌 확고해,3,Green,B,4.708333333333334,4.566666666666666,ScrollUp,ScrollDown,Green.png,4,Neutral,Neutral,0,0,0,0,,,,,,,,,,,,,,,,,,,,,,,,,0,37,37,37,,,,,,,,,,,,,,,,,,,,,,,,,,,,,,,,,,,,,,,,,,,,,,,,,,,,,,,,,,,,,,,,,,,,,,,,,1.9984568059444427,0.8595076000783592,551.9765496000182,None,ScrollUp,정답입니다,551.9765496000182,None,551.9765496000182,None,551.9765496000182,None,551.9765496000182,None,552.7373974999646,None,552.7373974999646,553.2374550999375,,,,,,,,,,,,,,,,005,2022-05-06_17h50.26.087,FishGame,2022.1.1,60.00376825136869,
,39,넌 이해심이 많아,1,Green,B,6.041666666666668,5.533333333333333,ScrollUp,ScrollDown,Green.png,4,Positive,Incongruent,0,0,0,0,,,,,,,,,,,,,,,,,,,,,,,,,0,38,38,38,,,,,,,,,,,,,,,,,,,,,,,,,,,,,,,,,,,,,,,,,,,,,,,,,,,,,,,,,,,,,,,,,,,,,,,,,1.9891975224018097,0.9260820000199601,553.8597678999649,None,ScrollUp,정답입니다,553.8597678999649,None,553.8597678999649,None,553.8597678999649,None,553.8597678999649,None,554.6874015999492,None,554.6874015999492,555.1874013999477,,,,,,,,,,,,,,,,005,2022-05-06_17h50.26.087,FishGame,2022.1.1,60.00376825136869,
,40,나를 보내줘,6,Orange,A,0,0,ScrollUp,ScrollDown,Orange.png,4,NonTarget,NonTarget,0,0,0,0,,,,,,,,,,,,,,,,,,,,,,,,,0,39,39,39,,,,,,,,,,,,,,,,,,,,,,,,,,,,,,,,,,,,,,,,,,,,,,,,,,,,,,,,,,,,,,,,,,,,,,,,,2,0.9752385000465438,555.8109489999479,None,ScrollUp,정답입니다,555.8109489999479,None,555.8109489999479,None,555.8109489999479,None,555.8109489999479,None,556.6871147999773,None,556.6871147999773,557.1871152999811,,,,,,,,,,,,,,,,005,2022-05-06_17h50.26.087,FishGame,2022.1.1,60.00376825136869,
,41,넌 거칠어,4,Orange,A,2.625,3.033333333333333,ScrollDown,ScrollUp,Orange.png,4,Negative,Incongruent,0,0,0,0,,,,,,,,,,,,,,,,,,,,,,,,,0,40,40,40,,,,,,,,,,,,,,,,,,,,,,,,,,,,,,,,,,,,,,,,,,,,,,,,,,,,,,,,,,,,,,,,,,,,,,,,,1,0.8951962999999523,557.8100498999702,None,ScrollDown,정답입니다,557.8100498999702,None,557.8100498999702,None,557.8100498999702,None,557.8100498999702,None,558.6062954999506,None,558.6062954999506,559.1066141999327,,,,,,,,,,,,,,,,005,2022-05-06_17h50.26.087,FishGame,2022.1.1,60.00376825136869,
,42,넌 변덕맞아,5,Green,B,2.75,2.166666666666667,ScrollUp,ScrollDown,Green.png,4,Negative,Congruent,0,0,0,0,,,,,,,,,,,,,,,,,,,,,,,,,0,41,41,41,,,,,,,,,,,,,,,,,,,,,,,,,,,,,,,,,,,,,,,,,,,,,,,,,,,,,,,,,,,,,,,,,,,,,,,,,1.7561728407939274,0.8623307000380009,559.725373000023,None,ScrollUp,정답입니다,559.725373000023,None,559.725373000023,None,559.725373000023,None,559.725373000023,None,560.4896427999483,None,560.4896427999483,560.9896115999436,,,,,,,,,,,,,,,,005,2022-05-06_17h50.26.087,FishGame,2022.1.1,60.00376825136869,
,43,나를 데려가줘,6,Green,B,0,0,ScrollDown,ScrollUp,Green.png,4,NonTarget,NonTarget,0,0,0,0,,,,,,,,,,,,,,,,,,,,,,,,,0,42,42,42,,,,,,,,,,,,,,,,,,,,,,,,,,,,,,,,,,,,,,,,,,,,,,,,,,,,,,,,,,,,,,,,,,,,,,,,,1,0.9927610999438912,561.6100117999595,None,ScrollDown,정답입니다,561.6100117999595,None,561.6100117999595,None,561.6100117999595,None,561.6100117999595,None,562.5041612000205,None,562.5041612000205,563.0041680999566,,,,,,,,,,,,,,,,005,2022-05-06_17h50.26.087,FishGame,2022.1.1,60.00376825136869,
,44,넌 외로워,4,Green,B,2.833333333333333,3.3,ScrollUp,ScrollDown,Green.png,4,Negative,Congruent,0,0,0,0,,,,,,,,,,,,,,,,,,,,,,,,,0,43,43,43,,,,,,,,,,,,,,,,,,,,,,,,,,,,,,,,,,,,,,,,,,,,,,,,,,,,,,,,,,,,,,,,,,,,,,,,,2,0.8959403999615461,563.6252901999978,None,ScrollUp,정답입니다,563.6252901999978,None,563.6252901999978,None,563.6252901999978,None,563.6252901999978,None,564.4263650999637,None,564.4263650999637,564.9371824000264,,,,,,,,,,,,,,,,005,2022-05-06_17h50.26.087,FishGame,2022.1.1,60.00376825136869,
,1,넌 불평스러워,5,Orange,A,2.25,2.066666666666667,ScrollDown,ScrollUp,Orange.png,5,Negative,Incongruent,0,0,0,0,,,,,,,,,,,,,,,,,,,,,,,,,,,,,0,0,0,0,,,,,,,,,,,,,,,,,,,,,,,,,,,,596.071872600005,597.5752274999395,597.5919392999494,598.5533782999264,598.605542599922,599.5586281999713,599.541953900014,None,,,,,,,,,,,,,,,,,,,,,,,,,,,,,,,,,,1.0015431940555573,1.047443600022234,600.6526989999693,None,ScrollDown,정답입니다,600.6526989999693,None,600.6526989999693,None,600.6526989999693,None,600.6526989999693,None,601.605231900001,None,601.605231900001,602.1221004999243,565.4373814000282,None,565.4373814000282,None,0.2212963,-0.08425926,1,0,0,0.016426400048658252,None,595.4368024999276,None,,,005,2022-05-06_17h50.26.087,FishGame,2022.1.1,60.00376825136869,
,2,나를 보내줘,6,Orange,A,0,0,ScrollUp,ScrollDown,Orange.png,5,NonTarget,NonTarget,0,0,0,0,,,,,,,,,,,,,,,,,,,,,,,,,,,,,0,1,1,1,,,,,,,,,,,,,,,,,,,,,,,,,,,,,,,,,,,,,,,,,,,,,,,,,,,,,,,,,,,,,,,,,,,,,2,1.012716400087811,602.7381923999637,None,ScrollUp,정답입니다,602.7381923999637,None,602.7381923999637,None,602.7381923999637,None,602.7381923999637,None,603.652965300018,None,603.652965300018,604.1530591999181,,,,,,,,,,,,,,,,005,2022-05-06_17h50.26.087,FishGame,2022.1.1,60.00376825136869,
,3,넌 다재다능해,2,Green,B,6.208333333333333,4.5,ScrollUp,ScrollDown,Green.png,5,Positive,Incongruent,0,0,0,0,,,,,,,,,,,,,,,,,,,,,,,,,,,,,0,2,2,2,,,,,,,,,,,,,,,,,,,,,,,,,,,,,,,,,,,,,,,,,,,,,,,,,,,,,,,,,,,,,,,,,,,,,2,0.9093334000790492,604.7737633999204,None,ScrollUp,정답입니다,604.7737633999204,None,604.7737633999204,None,604.7737633999204,None,604.7737633999204,None,605.5862877999898,None,605.5862877999898,606.0863323999802,,,,,,,,,,,,,,,,005,2022-05-06_17h50.26.087,FishGame,2022.1.1,60.00376825136869,
,4,넌 과감해,3,Orange,A,4.833333333333334,4.6,ScrollDown,ScrollUp,Orange.png,5,Neutral,Neutral,0,0,0,0,,,,,,,,,,,,,,,,,,,,,,,,,,,,,0,3,3,3,,,,,,,,,,,,,,,,,,,,,,,,,,,,,,,,,,,,,,,,,,,,,,,,,,,,,,,,,,,,,,,,,,,,,1.0432098706563313,0.892832399928011,606.7099759000121,None,ScrollDown,정답입니다,606.7099759000121,None,606.7099759000121,None,606.7099759000121,None,606.7099759000121,None,607.5028982999502,None,607.5028982999502,608.002961399965,,,,,,,,,,,,,,,,005,2022-05-06_17h50.26.087,FishGame,2022.1.1,60.00376825136869,
,5,넌 고분고분해,3,Green,B,3.75,4.033333333333333,ScrollUp,ScrollDown,Green.png,5,Neutral,Neutral,0,0,0,0,,,,,,,,,,,,,,,,,,,,,,,,,,,,,0,4,4,4,,,,,,,,,,,,,,,,,,,,,,,,,,,,,,,,,,,,,,,,,,,,,,,,,,,,,,,,,,,,,,,,,,,,,2,0.9465135000646114,608.686726499931,None,ScrollUp,정답입니다,608.686726499931,None,608.686726499931,None,608.686726499931,None,608.686726499931,None,609.4695421999786,None,609.4695421999786,609.9719486000249,,,,,,,,,,,,,,,,005,2022-05-06_17h50.26.087,FishGame,2022.1.1,60.00376825136869,
,6,나를 보내줘,6,Orange,A,0,0,ScrollUp,ScrollDown,Orange.png,5,NonTarget,NonTarget,0,0,0,0,,,,,,,,,,,,,,,,,,,,,,,,,,,,,0,5,5,5,,,,,,,,,,,,,,,,,,,,,,,,,,,,,,,,,,,,,,,,,,,,,,,,,,,,,,,,,,,,,,,,,,,,,2,0.9775882000103593,610.5925982999615,None,ScrollUp,정답입니다,610.5925982999615,None,610.5925982999615,None,610.5925982999615,None,610.5925982999615,None,611.4694416000275,None,611.4694416000275,611.9697253999766,,,,,,,,,,,,,,,,005,2022-05-06_17h50.26.087,FishGame,2022.1.1,60.00376825136869,
,7,넌 잘 잊어,4,Orange,A,3,3.7,ScrollDown,ScrollUp,Orange.png,5,Negative,Incongruent,0,0,0,0,,,,,,,,,,,,,,,,,,,,,,,,,,,,,0,6,6,6,,,,,,,,,,,,,,,,,,,,,,,,,,,,,,,,,,,,,,,,,,,,,,,,,,,,,,,,,,,,,,,,,,,,,1,0.9278193999780342,612.5987413999392,None,ScrollDown,정답입니다,612.5987413999392,None,612.5987413999392,None,612.5987413999392,None,612.5987413999392,None,613.4215328999562,None,613.4215328999562,613.9362220999319,,,,,,,,,,,,,,,,005,2022-05-06_17h50.26.087,FishGame,2022.1.1,60.00376825136869,
,8,넌 탐구심이없어,4,Green,B,2.833333333333333,3.066666666666667,ScrollUp,ScrollDown,Green.png,5,Negative,Congruent,0,0,0,0,,,,,,,,,,,,,,,,,,,,,,,,,,,,,0,7,7,7,,,,,,,,,,,,,,,,,,,,,,,,,,,,,,,,,,,,,,,,,,,,,,,,,,,,,,,,,,,,,,,,,,,,,2,0.8927437999518588,614.542747200001,None,ScrollUp,정답입니다,614.542747200001,None,614.542747200001,None,614.542747200001,None,614.542747200001,None,615.3382769000018,None,615.3382769000018,615.8360840999521,,,,,,,,,,,,,,,,005,2022-05-06_17h50.26.087,FishGame,2022.1.1,60.00376825136869,
,9,나를 데려가줘,6,Green,B,0,0,ScrollDown,ScrollUp,Green.png,5,NonTarget,NonTarget,0,0,0,0,,,,,,,,,,,,,,,,,,,,,,,,,,,,,0,8,8,8,,,,,,,,,,,,,,,,,,,,,,,,,,,,,,,,,,,,,,,,,,,,,,,,,,,,,,,,,,,,,,,,,,,,,1,0.9757285999367014,616.4578594999621,None,ScrollDown,정답입니다,616.4578594999621,None,616.4578594999621,None,616.4578594999621,None,616.4578594999621,None,617.3360278999899,None,617.3360278999899,617.8381667999784,,,,,,,,,,,,,,,,005,2022-05-06_17h50.26.087,FishGame,2022.1.1,60.00376825136869,
,10,넌 참되어,2,Orange,A,6.041666666666664,4.733333333333333,ScrollDown,ScrollUp,Orange.png,5,Positive,Congruent,0,0,0,0,,,,,,,,,,,,,,,,,,,,,,,,,,,,,0,9,9,9,,,,,,,,,,,,,,,,,,,,,,,,,,,,,,,,,,,,,,,,,,,,,,,,,,,,,,,,,,,,,,,,,,,,,1,0.8782689999789,618.4572977999924,None,ScrollDown,정답입니다,618.4572977999924,None,618.4572977999924,None,618.4572977999924,None,618.4572977999924,None,619.2359998999164,None,619.2359998999164,619.7360152999172,,,,,,,,,,,,,,,,005,2022-05-06_17h50.26.087,FishGame,2022.1.1,60.00376825136869,
,11,넌 생기있어,1,Green,B,5.875,5.633333333333334,ScrollUp,ScrollDown,Green.png,5,Positive,Incongruent,0,0,0,0,,,,,,,,,,,,,,,,,,,,,,,,,,,,,0,10,10,10,,,,,,,,,,,,,,,,,,,,,,,,,,,,,,,,,,,,,,,,,,,,,,,,,,,,,,,,,,,,,,,,,,,,,2,0.8758163000456989,620.373422899982,None,ScrollUp,정답입니다,620.373422899982,None,620.373422899982,None,620.373422899982,None,620.373422899982,None,621.135903700022,None,621.135903700022,621.6359597999835,,,,,,,,,,,,,,,,005,2022-05-06_17h50.26.087,FishGame,2022.1.1,60.00376825136869,
,12,넌 비사교적이야,4,Green,B,2.875,2.9,ScrollUp,ScrollDown,Green.png,5,Negative,Congruent,0,0,0,0,,,,,,,,,,,,,,,,,,,,,,,,,,,,,0,11,11,11,,,,,,,,,,,,,,,,,,,,,,,,,,,,,,,,,,,,,,,,,,,,,,,,,,,,,,,,,,,,,,,,,,,,,1.9351851840813954,0.9472798999631777,622.2587548999581,None,ScrollUp,정답입니다,622.2587548999581,None,622.2587548999581,None,622.2587548999581,None,622.2587548999581,None,623.1025666999631,None,623.1025666999631,623.6027326999465,,,,,,,,,,,,,,,,005,2022-05-06_17h50.26.087,FishGame,2022.1.1,60.00376825136869,
,13,나를 데려가줘,6,Green,B,0,0,ScrollDown,ScrollUp,Green.png,5,NonTarget,NonTarget,0,0,0,0,,,,,,,,,,,,,,,,,,,,,,,,,,,,,0,12,12,12,,,,,,,,,,,,,,,,,,,,,,,,,,,,,,,,,,,,,,,,,,,,,,,,,,,,,,,,,,,,,,,,,,,,,1,0.99445839994587,624.226183700026,None,ScrollDown,정답입니다,624.226183700026,None,624.226183700026,None,624.226183700026,None,624.226183700026,None,625.1213754999917,None,625.1213754999917,625.6360377999954,,,,,,,,,,,,,,,,005,2022-05-06_17h50.26.087,FishGame,2022.1.1,60.00376825136869,
,14,넌 고독해,4,Orange,A,2.916666666666667,3.233333333333333,ScrollDown,ScrollUp,Orange.png,5,Negative,Incongruent,0,0,0,0,,,,,,,,,,,,,,,,,,,,,,,,,,,,,0,13,13,13,,,,,,,,,,,,,,,,,,,,,,,,,,,,,,,,,,,,,,,,,,,,,,,,,,,,,,,,,,,,,,,,,,,,,1,0.809126399923116,626.246221599984,None,ScrollDown,정답입니다,626.246221599984,None,626.246221599984,None,626.246221599984,None,626.246221599984,None,626.954680899973,None,626.954680899973,627.4692982999841,,,,,,,,,,,,,,,,005,2022-05-06_17h50.26.087,FishGame,2022.1.1,60.00376825136869,
,15,넌 신경질적이야,5,Green,B,2.375,2.233333333333333,ScrollUp,ScrollDown,Green.png,5,Negative,Congruent,0,0,0,0,,,,,,,,,,,,,,,,,,,,,,,,,,,,,0,14,14,14,,,,,,,,,,,,,,,,,,,,,,,,,,,,,,,,,,,,,,,,,,,,,,,,,,,,,,,,,,,,,,,,,,,,,1.9953703780968983,0.8946003000019118,628.072731000022,None,ScrollUp,정답입니다,628.072731000022,None,628.072731000022,None,628.072731000022,None,628.072731000022,None,628.869070100016,None,628.869070100016,629.3714526999975,,,,,,,,,,,,,,,,005,2022-05-06_17h50.26.087,FishGame,2022.1.1,60.00376825136869,
,16,넌 똑똑해,2,Green,B,5.666666666666667,3.966666666666667,ScrollUp,ScrollDown,Green.png,5,Positive,Incongruent,0,0,0,0,,,,,,,,,,,,,,,,,,,,,,,,,,,,,0,15,15,15,,,,,,,,,,,,,,,,,,,,,,,,,,,,,,,,,,,,,,,,,,,,,,,,,,,,,,,,,,,,,,,,,,,,,2,0.9106493999715894,630.0016473999713,None,ScrollUp,정답입니다,630.0016473999713,None,630.0016473999713,None,630.0016473999713,None,630.0016473999713,None,630.8024140999187,None,630.8024140999187,631.3024388999911,,,,,,,,,,,,,,,,005,2022-05-06_17h50.26.087,FishGame,2022.1.1,60.00376825136869,
,17,나를 보내줘,6,Orange,A,0,0,ScrollUp,ScrollDown,Orange.png,5,NonTarget,NonTarget,0,0,0,0,,,,,,,,,,,,,,,,,,,,,,,,,,,,,0,16,16,16,,,,,,,,,,,,,,,,,,,,,,,,,,,,,,,,,,,,,,,,,,,,,,,,,,,,,,,,,,,,,,,,,,,,,2,0.925993200042285,631.925336199929,None,ScrollUp,정답입니다,631.925336199929,None,631.925336199929,None,631.925336199929,None,631.925336199929,None,632.7523948999587,None,632.7523948999587,633.2546993999276,,,,,,,,,,,,,,,,005,2022-05-06_17h50.26.087,FishGame,2022.1.1,60.00376825136869,
,18,넌 협조적이야,1,Orange,A,5.625,5.666666666666667,ScrollDown,ScrollUp,Orange.png,5,Positive,Congruent,0,0,0,0,,,,,,,,,,,,,,,,,,,,,,,,,,,,,0,17,17,17,,,,,,,,,,,,,,,,,,,,,,,,,,,,,,,,,,,,,,,,,,,,,,,,,,,,,,,,,,,,,,,,,,,,,1,0.9114166999934241,633.878663099953,None,ScrollDown,정답입니다,633.878663099953,None,633.878663099953,None,633.878663099953,None,633.878663099953,None,634.6856946999906,None,634.6856946999906,635.1857007999206,,,,,,,,,,,,,,,,005,2022-05-06_17h50.26.087,FishGame,2022.1.1,60.00376825136869,
,19,나를 데려가줘,6,Green,B,0,0,ScrollDown,ScrollUp,Green.png,5,NonTarget,NonTarget,0,0,0,0,,,,,,,,,,,,,,,,,,,,,,,,,,,,,0,18,18,18,,,,,,,,,,,,,,,,,,,,,,,,,,,,,,,,,,,,,,,,,,,,,,,,,,,,,,,,,,,,,,,,,,,,,1,0.8945251000113785,635.8040269999765,None,ScrollDown,정답입니다,635.8040269999765,None,635.8040269999765,None,635.8040269999765,None,635.8040269999765,None,636.6045551999705,None,636.6045551999705,637.1023615999147,,,,,,,,,,,,,,,,005,2022-05-06_17h50.26.087,FishGame,2022.1.1,60.00376825136869,
,20,넌 몰인정해,5,Green,B,2.541666666666667,2.066666666666667,ScrollUp,ScrollDown,Green.png,5,Negative,Congruent,0,0,0,0,,,,,,,,,,,,,,,,,,,,,,,,,,,,,0,19,19,19,,,,,,,,,,,,,,,,,,,,,,,,,,,,,,,,,,,,,,,,,,,,,,,,,,,,,,,,,,,,,,,,,,,,,2,0.8923688000068069,637.7325469999341,None,ScrollUp,정답입니다,637.7325469999341,None,637.7325469999341,None,637.7325469999341,None,637.7325469999341,None,638.5210882999236,None,638.5210882999236,639.0377568999538,,,,,,,,,,,,,,,,005,2022-05-06_17h50.26.087,FishGame,2022.1.1,60.00376825136869,
,21,나를 데려가줘,6,Green,B,0,0,ScrollDown,ScrollUp,Green.png,5,NonTarget,NonTarget,0,0,0,0,,,,,,,,,,,,,,,,,,,,,,,,,,,,,0,20,20,20,,,,,,,,,,,,,,,,,,,,,,,,,,,,,,,,,,,,,,,,,,,,,,,,,,,,,,,,,,,,,,,,,,,,,1.0648148159186046,0.9073067000135779,639.6375576999271,None,ScrollDown,정답입니다,639.6375576999271,None,639.6375576999271,None,639.6375576999271,None,639.6375576999271,None,640.4475275999866,None,640.4475275999866,640.9519876999548,,,,,,,,,,,,,,,,005,2022-05-06_17h50.26.087,FishGame,2022.1.1,60.00376825136869,
,22,넌 순진해,3,Green,B,4.125,4.166666666666667,ScrollUp,ScrollDown,Green.png,5,Neutral,Neutral,0,0,0,0,,,,,,,,,,,,,,,,,,,,,,,,,,,,,0,21,21,21,,,,,,,,,,,,,,,,,,,,,,,,,,,,,,,,,,,,,,,,,,,,,,,,,,,,,,,,,,,,,,,,,,,,,1.9228395223617554,0.8616525999968871,641.5763828000054,None,ScrollUp,정답입니다,641.5763828000054,None,641.5763828000054,None,641.5763828000054,None,641.5763828000054,None,642.3352504000068,None,642.3352504000068,642.8385600999463,,,,,,,,,,,,,,,,005,2022-05-06_17h50.26.087,FishGame,2022.1.1,60.00376825136869,
,23,넌 신뢰할만해,1,Orange,A,6.625,5.533333333333333,ScrollDown,ScrollUp,Orange.png,5,Positive,Congruent,0,0,0,0,,,,,,,,,,,,,,,,,,,,,,,,,,,,,0,22,22,22,,,,,,,,,,,,,,,,,,,,,,,,,,,,,,,,,,,,,,,,,,,,,,,,,,,,,,,,,,,,,,,,,,,,,1.1095678955316544,0.827882600016892,643.4648418999277,None,ScrollDown,정답입니다,643.4648418999277,None,643.4648418999277,None,643.4648418999277,None,643.4648418999277,None,644.187693099957,None,644.187693099957,644.6880519000115,,,,,,,,,,,,,,,,005,2022-05-06_17h50.26.087,FishGame,2022.1.1,60.00376825136869,
,24,나를 보내줘,6,Orange,A,0,0,ScrollUp,ScrollDown,Orange.png,5,NonTarget,NonTarget,0,0,0,0,,,,,,,,,,,,,,,,,,,,,,,,,,,,,0,23,23,23,,,,,,,,,,,,,,,,,,,,,,,,,,,,,,,,,,,,,,,,,,,,,,,,,,,,,,,,,,,,,,,,,,,,,2,0.9618453999282792,645.3063676999882,None,ScrollUp,정답입니다,645.3063676999882,None,645.3063676999882,None,645.3063676999882,None,645.3063676999882,None,646.1687238999875,None,646.1687238999875,646.6687390999869,,,,,,,,,,,,,,,,005,2022-05-06_17h50.26.087,FishGame,2022.1.1,60.00376825136869,
,25,넌 인색해,5,Orange,A,2.625,2.233333333333333,ScrollDown,ScrollUp,Orange.png,5,Negative,Incongruent,0,0,0,0,,,,,,,,,,,,,,,,,,,,,,,,,,,,,0,24,24,24,,,,,,,,,,,,,,,,,,,,,,,,,,,,,,,,,,,,,,,,,,,,,,,,,,,,,,,,,,,,,,,,,,,,,1,0.8793710999889299,647.2895174999721,None,ScrollDown,정답입니다,647.2895174999721,None,647.2895174999721,None,647.2895174999721,None,647.2895174999721,None,648.0686844999436,None,648.0686844999436,648.5687188999727,,,,,,,,,,,,,,,,005,2022-05-06_17h50.26.087,FishGame,2022.1.1,60.00376825136869,
,26,넌 유쾌해,1,Green,B,5.833333333333333,5.766666666666667,ScrollUp,ScrollDown,Green.png,5,Positive,Incongruent,0,0,0,0,,,,,,,,,,,,,,,,,,,,,,,,,,,,,0,25,25,25,,,,,,,,,,,,,,,,,,,,,,,,,,,,,,,,,,,,,,,,,,,,,,,,,,,,,,,,,,,,,,,,,,,,,2,0.944611500017345,649.1912227999419,None,ScrollUp,정답입니다,649.1912227999419,None,649.1912227999419,None,649.1912227999419,None,649.1912227999419,None,650.0353469999973,None,650.0353469999973,650.5356680999976,,,,,,,,,,,,,,,,005,2022-05-06_17h50.26.087,FishGame,2022.1.1,60.00376825136869,
