name,TrialNum,Word,WordCategory,FishType,WordList,WordValence,WordReputation,CorrectResp,IncorrectResp,FishTypeFile,Round,WordType,Condition,LoopforOrange.thisRepN,LoopforOrange.thisTrialN,LoopforOrange.thisN,LoopforOrange.thisIndex,LoopForGreen.thisRepN,LoopForGreen.thisTrialN,LoopForGreen.thisN,LoopForGreen.thisIndex,GreenInstLoop.thisRepN,GreenInstLoop.thisTrialN,GreenInstLoop.thisN,GreenInstLoop.thisIndex,GreenPrac.thisRepN,GreenPrac.thisTrialN,GreenPrac.thisN,GreenPrac.thisIndex,trials_2.thisRepN,trials_2.thisTrialN,trials_2.thisN,trials_2.thisIndex,GreenRound1.thisRepN,GreenRound1.thisTrialN,GreenRound1.thisN,GreenRound1.thisIndex,GreenRound2.thisRepN,GreenRound2.thisTrialN,GreenRound2.thisN,GreenRound2.thisIndex,GreenRound3.thisRepN,GreenRound3.thisTrialN,GreenRound3.thisN,GreenRound3.thisIndex,GreenRound4.thisRepN,GreenRound4.thisTrialN,GreenRound4.thisN,GreenRound4.thisIndex,GreenRound5.thisRepN,GreenRound5.thisTrialN,GreenRound5.thisN,GreenRound5.thisIndex,text_2.started,text_2.stopped,text_3.started,text_3.stopped,key_resp.keys,key_resp.rt,key_resp.started,key_resp.stopped,PassI.started,PassI.stopped,PassInst.keys,PassInst.rt,PassInst.started,PassInst.stopped,mouse_2.x,mouse_2.y,mouse_2.leftButton,mouse_2.midButton,mouse_2.rightButton,mouse_2.started,mouse_2.stopped,image.started,image.stopped,text_5.started,text_5.stopped,text_6.started,text_6.stopped,text_7.started,text_7.stopped,text_8.started,text_8.stopped,slider_3.response,slider_3.rt,slider_3.started,slider_3.stopped,Response_3,Feedback_3,BackGround_3.started,BackGround_3.stopped,Fish_3.started,Fish_3.stopped,WordBox_3.started,WordBox_3.stopped,Words_3.started,Words_3.stopped,BackGround_Feedback_3.started,BackGround_Feedback_3.stopped,Feedbacks_3.started,Feedbacks_3.stopped,Continue_or_not_2.keys,Continue_or_not_2.rt,Continue_or_not_2.started,Continue_or_not_2.stopped,image_4.started,image_4.stopped,mouse_3.x,mouse_3.y,mouse_3.leftButton,mouse_3.midButton,mouse_3.rightButton,mouse_3.started,mouse_3.stopped,startmain.started,startmain.stopped,slider_4.response,slider_4.rt,slider_4.started,slider_4.stopped,Response_4,Feedback_4,BackGround_4.started,BackGround_4.stopped,Fish_4.started,Fish_4.stopped,WordBox_4.started,WordBox_4.stopped,Words_4.started,Words_4.stopped,BackGround_Feedback_4.started,BackGround_Feedback_4.stopped,Feedbacks_4.started,Feedbacks_4.stopped,text.started,text.stopped,break_interval.started,break_interval.stopped,mouse.x,mouse.y,mouse.leftButton,mouse.midButton,mouse.rightButton,mouse.started,mouse.stopped,stratnextround.started,stratnextround.stopped,endgame.started,endgame.stopped,participant,date,expName,psychopyVersion,frameRate,
,,,,,,,,,,,,,,,,,,,,,,,,,,,,,,,,,,,,,,,,,,,,,,,,,,,,,,19.739179600030184,None,19.739179600030184,None,space,3.2622691000578925,20.22939959994983,None,,,,,,,,,,,,,,,,,,,,,,,,,,,,,,,,,,,,,,,,,,,,,,,,,,,,,,,,,,,,,,,,,,,,,,,,,,,,,,,,,,,,,,,,,,006,2022-05-06_19h44.40.477,FishGame,2022.1.1,60.01720092102189,
물고기과제_instruction(참가자용)GreenVersion.mp4,,,,,,,,,,,,,,,,,,0,0,0,0,0,0,0,0,,,,,,,,,,,,,,,,,,,,,,,,,,,,,,,,,,,,,95.30810210003983,None,n,5.202457799925469,95.30810210003983,None,,,,,,,,,,,,,,,,,,,,,,,,,,,,,,,,,,,,,,,,,,,,,,,,,,,,,,,,,,,,,,,,,,,,,,,,,,,,,,,,,,,,006,2022-05-06_19h44.40.477,FishGame,2022.1.1,60.01720092102189,
,1,넌 교활해,5,Orange,B,2.333333333333333,2.133333333333333,ScrollUp,ScrollDown,Orange.png,practice,,,,,,,0,0,0,0,,,,,0,0,0,0,0,0,0,0,,,,,,,,,,,,,,,,,,,,,,,,,,,,,,,,,,,0.0027777778,-0.22962964,1,0,0,0.5076810399768874,None,100.53885769995395,None,106.12208450003527,107.62441859999672,107.65775500005111,108.60774080001283,108.65766160003841,109.60769620002247,109.60769620002247,None,1.9212963084379833,1.3802490000380203,110.90686780004762,None,ScrollUp,정답입니다,110.90686780004762,None,110.90686780004762,None,110.90686780004762,None,110.90686780004762,None,111.99071899999399,None,111.99071899999399,112.49088529997971,,,,,,,,,,,,,,,,,,,,,,,,,,,,,,,,,,,,,,,,,,,,,,,,,006,2022-05-06_19h44.40.477,FishGame,2022.1.1,60.01720092102189,
,2,넌 슬기로워,2,Green,A,6.166666666666667,4.1,ScrollDown,ScrollUp,Green.png,practice,,,,,,,0,0,0,0,,,,,0,0,0,0,0,1,1,1,,,,,,,,,,,,,,,,,,,,,,,,,,,,,,,,,,,,,,,,,,,,,,,,,,,,1.1342592686414719,1.1615163000533357,113.10883849998936,None,ScrollDown,정답입니다,113.10883849998936,None,113.10883849998936,None,113.10883849998936,None,113.10883849998936,None,114.17180380003992,None,114.17180380003992,114.67399859998841,,,,,,,,,,,,,,,,,,,,,,,,,,,,,,,,,,,,,,,,,,,,,,,,,006,2022-05-06_19h44.40.477,FishGame,2022.1.1,60.01720092102189,
,3,나를 보내줘,6,Green,A,0,0,ScrollUp,ScrollDown,Green.png,practice,,,,,,,0,0,0,0,,,,,0,0,0,0,0,2,2,2,,,,,,,,,,,,,,,,,,,,,,,,,,,,,,,,,,,,,,,,,,,,,,,,,,,,1.8333333383003871,1.1589738000184298,115.29610299994238,None,ScrollUp,정답입니다,115.29610299994238,None,115.29610299994238,None,115.29610299994238,None,115.29610299994238,None,116.35515910002869,None,116.35515910002869,116.85746890003793,,,,,,,,,,,,,,,,,,,,,,,,,,,,,,,,,,,,,,,,,,,,,,,,,006,2022-05-06_19h44.40.477,FishGame,2022.1.1,60.01720092102189,
,4,나를 데려가줘,6,Orange,B,0,0,ScrollDown,ScrollUp,Orange.png,practice,,,,,,,0,0,0,0,,,,,0,0,0,0,0,3,3,3,,,,,,,,,,,,,,,,,,,,,,,,,,,,,,,,,,,,,,,,,,,,,,,,,,,,1.182098776102066,1.2439654999179766,117.48489479999989,None,ScrollDown,정답입니다,117.48489479999989,None,117.48489479999989,None,117.48489479999989,None,117.48489479999989,None,118.62206990004051,None,118.62206990004051,119.12177620001603,,,,,,,,,,,,,,,,,,,,,,,,,,,,,,,,,,,,,,,,,,,,,,,,,006,2022-05-06_19h44.40.477,FishGame,2022.1.1,60.01720092102189,
,1,넌 교활해,5,Orange,B,2.333333333333333,2.133333333333333,ScrollUp,ScrollDown,Orange.png,practice,,,,,,,0,0,0,0,,,,,0,0,0,0,,,,,,,,,,,,,,,,,,,,,,,,,,,,,,,,,,,,,,,,,,,,,,,,,,,,,,,,,,,,,,,,,,,,,,,,,,n,5.406142499996349,119.62394159997348,None,119.62394159997348,None,,,,,,,,,,,,,,,,,,,,,,,,,,,,,,,,,,,,,,,,,,,006,2022-05-06_19h44.40.477,FishGame,2022.1.1,60.01720092102189,
,1,넌 따뜻해,1,Orange,B,6.083333333333333,5.6,ScrollUp,ScrollDown,Orange.png,1,Positive,Incongruent,,,,,0,0,0,0,,,,,,,,,,,,,0,0,0,0,,,,,,,,,,,,,,,,,,,,,,,,,,,,,,,,,,,,,,,,128.47358240000904,129.9739375000354,130.00733059993945,130.95723579998594,131.00726129999384,131.96017149998806,131.96017149998806,None,,,,,,,,,,,,,,,,,,,,,,,,,0.019444445,-0.14166667,1,0,0,0.3139510399196297,None,125.05498140002601,None,1.8456790000200272,1.2296255000401288,133.28278070001397,None,ScrollUp,정답입니다,133.28278070001397,None,133.28278070001397,None,133.28278070001397,None,133.28278070001397,None,134.20479660003912,None,134.20479660003912,134.70475359994452,,,,,,,,,,,,,,,,006,2022-05-06_19h44.40.477,FishGame,2022.1.1,60.01720092102189,
,2,넌 기품있어,2,Orange,B,5.791666666666668,4.5,ScrollUp,ScrollDown,Orange.png,1,Positive,Incongruent,,,,,0,0,0,0,,,,,,,,,,,,,0,1,1,1,,,,,,,,,,,,,,,,,,,,,,,,,,,,,,,,,,,,,,,,,,,,,,,,,,,,,,,,,,,,,,,,,,,,,,,,,,,,,,,,,1.614197532335917,0.9422724000178277,135.3397198000457,None,ScrollUp,정답입니다,135.3397198000457,None,135.3397198000457,None,135.3397198000457,None,135.3397198000457,None,136.17133929999545,None,136.17133929999545,136.67137889994774,,,,,,,,,,,,,,,,006,2022-05-06_19h44.40.477,FishGame,2022.1.1,60.01720092102189,
,3,나를 보내줘,6,Green,A,0,0,ScrollUp,ScrollDown,Green.png,1,NonTarget,NonTarget,,,,,0,0,0,0,,,,,,,,,,,,,0,2,2,2,,,,,,,,,,,,,,,,,,,,,,,,,,,,,,,,,,,,,,,,,,,,,,,,,,,,,,,,,,,,,,,,,,,,,,,,,,,,,,,,,1.629629634320736,1.0444689999567345,137.31061709998176,None,ScrollUp,정답입니다,137.31061709998176,None,137.31061709998176,None,137.31061709998176,None,137.31061709998176,None,138.23802319995593,None,138.23802319995593,138.74025589996018,,,,,,,,,,,,,,,,006,2022-05-06_19h44.40.477,FishGame,2022.1.1,60.01720092102189,
,4,넌 수동적이야,4,Green,A,2.833333333333333,2.933333333333333,ScrollDown,ScrollUp,Green.png,1,Negative,Incongruent,,,,,0,0,0,0,,,,,,,,,,,,,0,3,3,3,,,,,,,,,,,,,,,,,,,,,,,,,,,,,,,,,,,,,,,,,,,,,,,,,,,,,,,,,,,,,,,,,,,,,,,,,,,,,,,,,1.1836419651905696,1.1962233999511227,139.36389200005215,None,ScrollDown,정답입니다,139.36389200005215,None,139.36389200005215,None,139.36389200005215,None,139.36389200005215,None,140.45434519997798,None,140.45434519997798,140.95442229998298,,,,,,,,,,,,,,,,006,2022-05-06_19h44.40.477,FishGame,2022.1.1,60.01720092102189,
,5,넌 사심이 없어,3,Orange,B,4.916666666666666,4.333333333333333,ScrollUp,ScrollDown,Orange.png,1,Neutral,Neutral,,,,,0,0,0,0,,,,,,,,,,,,,0,4,4,4,,,,,,,,,,,,,,,,,,,,,,,,,,,,,,,,,,,,,,,,,,,,,,,,,,,,,,,,,,,,,,,,,,,,,,,,,,,,,,,,,1.501543209849236,0.9472371001029387,141.58356579998508,None,NoResponse,무응답입니다,141.58356579998508,None,141.58356579998508,None,141.58356579998508,None,141.58356579998508,None,142.42357089999132,None,142.42357089999132,142.9236030000029,,,,,,,,,,,,,,,,006,2022-05-06_19h44.40.477,FishGame,2022.1.1,60.01720092102189,
,6,넌 헤퍼,5,Green,A,2.458333333333334,2.233333333333333,ScrollDown,ScrollUp,Green.png,1,Negative,Incongruent,,,,,0,0,0,0,,,,,,,,,,,,,0,5,5,5,,,,,,,,,,,,,,,,,,,,,,,,,,,,,,,,,,,,,,,,,,,,,,,,,,,,,,,,,,,,,,,,,,,,,,,,,,,,,,,,,1,1.1772030999418348,143.5455312000122,None,ScrollDown,정답입니다,143.5455312000122,None,143.5455312000122,None,143.5455312000122,None,143.5455312000122,None,144.6212199999718,None,144.6212199999718,145.12122059997637,,,,,,,,,,,,,,,,006,2022-05-06_19h44.40.477,FishGame,2022.1.1,60.01720092102189,
,7,넌 말쑥해,3,Green,A,4.833333333333334,4.333333333333333,ScrollDown,ScrollUp,Green.png,1,Neutral,Neutral,,,,,0,0,0,0,,,,,,,,,,,,,0,6,6,6,,,,,,,,,,,,,,,,,,,,,,,,,,,,,,,,,,,,,,,,,,,,,,,,,,,,,,,,,,,,,,,,,,,,,,,,,,,,,,,,,1,1.1441639000549912,145.746279999963,None,ScrollDown,정답입니다,145.746279999963,None,145.746279999963,None,145.746279999963,None,145.746279999963,None,146.78784510004334,None,146.78784510004334,147.2900805999525,,,,,,,,,,,,,,,,006,2022-05-06_19h44.40.477,FishGame,2022.1.1,60.01720092102189,
,8,넌 투덜거려,5,Orange,B,2.541666666666667,2.266666666666667,ScrollUp,ScrollDown,Orange.png,1,Negative,Congruent,,,,,0,0,0,0,,,,,,,,,,,,,0,7,7,7,,,,,,,,,,,,,,,,,,,,,,,,,,,,,,,,,,,,,,,,,,,,,,,,,,,,,,,,,,,,,,,,,,,,,,,,,,,,,,,,,2,1.0785917000612244,147.9153423999669,None,ScrollUp,정답입니다,147.9153423999669,None,147.9153423999669,None,147.9153423999669,None,147.9153423999669,None,148.88987279997673,None,148.88987279997673,149.40439689997584,,,,,,,,,,,,,,,,006,2022-05-06_19h44.40.477,FishGame,2022.1.1,60.01720092102189,
,9,넌 적극적이야,1,Green,A,5.708333333333333,5.533333333333333,ScrollDown,ScrollUp,Green.png,1,Positive,Congruent,,,,,0,0,0,0,,,,,,,,,,,,,0,8,8,8,,,,,,,,,,,,,,,,,,,,,,,,,,,,,,,,,,,,,,,,,,,,,,,,,,,,,,,,,,,,,,,,,,,,,,,,,,,,,,,,,1,1.0298686000751331,150.01661809999496,None,ScrollDown,정답입니다,150.01661809999496,None,150.01661809999496,None,150.01661809999496,None,150.01661809999496,None,150.93775209994055,None,150.93775209994055,151.4399830000475,,,,,,,,,,,,,,,,006,2022-05-06_19h44.40.477,FishGame,2022.1.1,60.01720092102189,
,10,넌 재미없어,4,Orange,B,2.625,2.966666666666667,ScrollUp,ScrollDown,Orange.png,1,Negative,Congruent,,,,,0,0,0,0,,,,,,,,,,,,,0,9,9,9,,,,,,,,,,,,,,,,,,,,,,,,,,,,,,,,,,,,,,,,,,,,,,,,,,,,,,,,,,,,,,,,,,,,,,,,,,,,,,,,,2,1.2109361999901012,152.06510140001774,None,ScrollUp,정답입니다,152.06510140001774,None,152.06510140001774,None,152.06510140001774,None,152.06510140001774,None,153.17095790000167,None,153.17095790000167,153.67105060000904,,,,,,,,,,,,,,,,006,2022-05-06_19h44.40.477,FishGame,2022.1.1,60.01720092102189,
,11,넌 명석해,2,Green,A,5.875,4.033333333333333,ScrollDown,ScrollUp,Green.png,1,Positive,Congruent,,,,,0,0,0,0,,,,,,,,,,,,,0,10,10,10,,,,,,,,,,,,,,,,,,,,,,,,,,,,,,,,,,,,,,,,,,,,,,,,,,,,,,,,,,,,,,,,,,,,,,,,,,,,,,,,,1,1.1260899000335485,154.29726989998017,None,ScrollDown,정답입니다,154.29726989998017,None,154.29726989998017,None,154.29726989998017,None,154.29726989998017,None,155.3209733000258,None,155.3209733000258,155.82323099998757,,,,,,,,,,,,,,,,006,2022-05-06_19h44.40.477,FishGame,2022.1.1,60.01720092102189,
,12,나를 데려가줘,6,Orange,B,0,0,ScrollDown,ScrollUp,Orange.png,1,NonTarget,NonTarget,,,,,0,0,0,0,,,,,,,,,,,,,0,11,11,11,,,,,,,,,,,,,,,,,,,,,,,,,,,,,,,,,,,,,,,,,,,,,,,,,,,,,,,,,,,,,,,,,,,,,,,,,,,,,,,,,1,1.1774959999602288,156.45041970000602,None,ScrollDown,정답입니다,156.45041970000602,None,156.45041970000602,None,156.45041970000602,None,156.45041970000602,None,157.52322360000107,None,157.52322360000107,158.03762349998578,,,,,,,,,,,,,,,,006,2022-05-06_19h44.40.477,FishGame,2022.1.1,60.01720092102189,
,13,넌 소심해,4,Green,A,3,3.1,ScrollDown,ScrollUp,Green.png,1,Negative,Incongruent,,,,,0,0,0,0,,,,,,,,,,,,,0,12,12,12,,,,,,,,,,,,,,,,,,,,,,,,,,,,,,,,,,,,,,,,,,,,,,,,,,,,,,,,,,,,,,,,,,,,,,,,,,,,,,,,,1,1.2948734998935834,158.6601331999991,None,ScrollDown,정답입니다,158.6601331999991,None,158.6601331999991,None,158.6601331999991,None,158.6601331999991,None,159.8541882999707,None,159.8541882999707,160.35637539997697,,,,,,,,,,,,,,,,006,2022-05-06_19h44.40.477,FishGame,2022.1.1,60.01720092102189,
,14,넌 합리적이야,2,Green,A,5.583333333333333,4.733333333333333,ScrollDown,ScrollUp,Green.png,1,Positive,Congruent,,,,,0,0,0,0,,,,,,,,,,,,,0,13,13,13,,,,,,,,,,,,,,,,,,,,,,,,,,,,,,,,,,,,,,,,,,,,,,,,,,,,,,,,,,,,,,,,,,,,,,,,,,,,,,,,,1,0.9446154999313876,160.98296449996997,None,ScrollDown,정답입니다,160.98296449996997,None,160.98296449996997,None,160.98296449996997,None,160.98296449996997,None,161.8230414999416,None,161.8230414999416,162.32312349998392,,,,,,,,,,,,,,,,006,2022-05-06_19h44.40.477,FishGame,2022.1.1,60.01720092102189,
,15,넌 무자비해,5,Orange,B,2.333333333333333,2.1,ScrollUp,ScrollDown,Orange.png,1,Negative,Congruent,,,,,0,0,0,0,,,,,,,,,,,,,0,14,14,14,,,,,,,,,,,,,,,,,,,,,,,,,,,,,,,,,,,,,,,,,,,,,,,,,,,,,,,,,,,,,,,,,,,,,,,,,,,,,,,,,2,0.9926390000618994,162.95277249999344,None,ScrollUp,정답입니다,162.95277249999344,None,162.95277249999344,None,162.95277249999344,None,162.95277249999344,None,163.8395806000335,None,163.8395806000335,164.354123899946,,,,,,,,,,,,,,,,006,2022-05-06_19h44.40.477,FishGame,2022.1.1,60.01720092102189,
,16,나를 보내줘,6,Green,A,0,0,ScrollUp,ScrollDown,Green.png,1,NonTarget,NonTarget,,,,,0,0,0,0,,,,,,,,,,,,,0,15,15,15,,,,,,,,,,,,,,,,,,,,,,,,,,,,,,,,,,,,,,,,,,,,,,,,,,,,,,,,,,,,,,,,,,,,,,,,,,,,,,,,,1.8441358109315236,1.1618940000189468,164.97527679998893,None,ScrollUp,정답입니다,164.97527679998893,None,164.97527679998893,None,164.97527679998893,None,164.97527679998893,None,166.0395714000333,None,166.0395714000333,166.53966210002545,,,,,,,,,,,,,,,,006,2022-05-06_19h44.40.477,FishGame,2022.1.1,60.01720092102189,
,17,넌 현실적이야,3,Orange,B,4.608695652173913,4.766666666666667,ScrollUp,ScrollDown,Orange.png,1,Neutral,Neutral,,,,,0,0,0,0,,,,,,,,,,,,,0,16,16,16,,,,,,,,,,,,,,,,,,,,,,,,,,,,,,,,,,,,,,,,,,,,,,,,,,,,,,,,,,,,,,,,,,,,,,,,,,,,,,,,,1.7314814925193787,1.024117000051774,167.16804489993956,None,ScrollUp,정답입니다,167.16804489993956,None,167.16804489993956,None,167.16804489993956,None,167.16804489993956,None,168.0827191999415,None,168.0827191999415,168.58736400003545,,,,,,,,,,,,,,,,006,2022-05-06_19h44.40.477,FishGame,2022.1.1,60.01720092102189,
,18,넌 의리있어,1,Orange,B,5.833333333333334,5.633333333333334,ScrollUp,ScrollDown,Orange.png,1,Positive,Incongruent,,,,,0,0,0,0,,,,,,,,,,,,,0,17,17,17,,,,,,,,,,,,,,,,,,,,,,,,,,,,,,,,,,,,,,,,,,,,,,,,,,,,,,,,,,,,,,,,,,,,,,,,,,,,,,,,,1.71913580596447,0.9779760000528768,169.21213600004558,None,ScrollUp,정답입니다,169.21213600004558,None,169.21213600004558,None,169.21213600004558,None,169.21213600004558,None,170.0894448000472,None,170.0894448000472,170.60402109997813,,,,,,,,,,,,,,,,006,2022-05-06_19h44.40.477,FishGame,2022.1.1,60.01720092102189,
,19,넌 신경과민이야,5,Green,A,2.541666666666667,2.166666666666667,ScrollDown,ScrollUp,Green.png,1,Negative,Incongruent,,,,,0,0,0,0,,,,,,,,,,,,,0,18,18,18,,,,,,,,,,,,,,,,,,,,,,,,,,,,,,,,,,,,,,,,,,,,,,,,,,,,,,,,,,,,,,,,,,,,,,,,,,,,,,,,,1,1.176101699937135,171.21783640002832,None,ScrollDown,정답입니다,171.21783640002832,None,171.21783640002832,None,171.21783640002832,None,171.21783640002832,None,172.2894551999634,None,172.2894551999634,172.7895630999701,,,,,,,,,,,,,,,,006,2022-05-06_19h44.40.477,FishGame,2022.1.1,60.01720092102189,
,20,넌 편안해,1,Green,A,5.916666666666666,5.866666666666666,ScrollDown,ScrollUp,Green.png,1,Positive,Congruent,,,,,0,0,0,0,,,,,,,,,,,,,0,19,19,19,,,,,,,,,,,,,,,,,,,,,,,,,,,,,,,,,,,,,,,,,,,,,,,,,,,,,,,,,,,,,,,,,,,,,,,,,,,,,,,,,1,0.8962915000738576,173.4103490000125,None,ScrollDown,정답입니다,173.4103490000125,None,173.4103490000125,None,173.4103490000125,None,173.4103490000125,None,174.20361430000048,None,174.20361430000048,174.70372460002545,,,,,,,,,,,,,,,,006,2022-05-06_19h44.40.477,FishGame,2022.1.1,60.01720092102189,
,21,넌 품위있어,2,Orange,B,5.291666666666666,4.466666666666667,ScrollUp,ScrollDown,Orange.png,1,Positive,Incongruent,,,,,0,0,0,0,,,,,,,,,,,,,0,20,20,20,,,,,,,,,,,,,,,,,,,,,,,,,,,,,,,,,,,,,,,,,,,,,,,,,,,,,,,,,,,,,,,,,,,,,,,,,,,,,,,,,2,1.2817830999847502,175.3322932999581,None,ScrollUp,정답입니다,175.3322932999581,None,175.3322932999581,None,175.3322932999581,None,175.3322932999581,None,176.50611950003076,None,176.50611950003076,177.00640429998748,,,,,,,,,,,,,,,,006,2022-05-06_19h44.40.477,FishGame,2022.1.1,60.01720092102189,
,22,넌 빈틈없어,3,Green,A,4.833333333333333,3.966666666666667,ScrollDown,ScrollUp,Green.png,1,Neutral,Neutral,,,,,0,0,0,0,,,,,,,,,,,,,0,21,21,21,,,,,,,,,,,,,,,,,,,,,,,,,,,,,,,,,,,,,,,,,,,,,,,,,,,,,,,,,,,,,,,,,,,,,,,,,,,,,,,,,1.0509259402751923,0.8648143999744207,177.6329345999984,None,ScrollDown,정답입니다,177.6329345999984,None,177.6329345999984,None,177.6329345999984,None,177.6329345999984,None,178.38943690003362,None,178.38943690003362,178.88939639995806,,,,,,,,,,,,,,,,006,2022-05-06_19h44.40.477,FishGame,2022.1.1,60.01720092102189,
,23,넌 상상력없어,4,Orange,B,2.833333333333333,3.133333333333333,ScrollUp,ScrollDown,Orange.png,1,Negative,Congruent,,,,,0,0,0,0,,,,,,,,,,,,,0,22,22,22,,,,,,,,,,,,,,,,,,,,,,,,,,,,,,,,,,,,,,,,,,,,,,,,,,,,,,,,,,,,,,,,,,,,,,,,,,,,,,,,,1.9645061492919922,0.8593887999886647,179.5149430000456,None,ScrollUp,정답입니다,179.5149430000456,None,179.5149430000456,None,179.5149430000456,None,179.5149430000456,None,180.2725805999944,None,180.2725805999944,180.772660800023,,,,,,,,,,,,,,,,006,2022-05-06_19h44.40.477,FishGame,2022.1.1,60.01720092102189,
,24,넌 지혜로워,2,Orange,B,6.333333333333334,4.633333333333334,ScrollUp,ScrollDown,Orange.png,1,Positive,Incongruent,,,,,0,0,0,0,,,,,,,,,,,,,0,23,23,23,,,,,,,,,,,,,,,,,,,,,,,,,,,,,,,,,,,,,,,,,,,,,,,,,,,,,,,,,,,,,,,,,,,,,,,,,,,,,,,,,1.766975313425064,0.893544299993664,181.408791200025,None,ScrollUp,정답입니다,181.408791200025,None,181.408791200025,None,181.408791200025,None,181.408791200025,None,182.18678270000964,None,182.18678270000964,182.68698290002067,,,,,,,,,,,,,,,,006,2022-05-06_19h44.40.477,FishGame,2022.1.1,60.01720092102189,
,25,넌 시끄러워,4,Green,A,2.833333333333333,3.033333333333333,ScrollDown,ScrollUp,Green.png,1,Negative,Incongruent,,,,,0,0,0,0,,,,,,,,,,,,,0,24,24,24,,,,,,,,,,,,,,,,,,,,,,,,,,,,,,,,,,,,,,,,,,,,,,,,,,,,,,,,,,,,,,,,,,,,,,,,,,,,,,,,,1.0740740497907002,1.1470553999533877,183.30800289998297,None,ScrollDown,정답입니다,183.30800289998297,None,183.30800289998297,None,183.30800289998297,None,183.30800289998297,None,184.3534542999696,None,184.3534542999696,184.85633989993948,,,,,,,,,,,,,,,,006,2022-05-06_19h44.40.477,FishGame,2022.1.1,60.01720092102189,
,26,넌 만사태평이야,3,Orange,B,4,4.333333333333333,ScrollUp,ScrollDown,Orange.png,1,Neutral,Neutral,,,,,0,0,0,0,,,,,,,,,,,,,0,25,25,25,,,,,,,,,,,,,,,,,,,,,,,,,,,,,,,,,,,,,,,,,,,,,,,,,,,,,,,,,,,,,,,,,,,,,,,,,,,,,,,,,1.7422839403152466,0.8296001000562683,185.48381250002421,None,ScrollUp,정답입니다,185.48381250002421,None,185.48381250002421,None,185.48381250002421,None,185.48381250002421,None,186.2059983999934,None,186.2059983999934,186.7058662000345,,,,,,,,,,,,,,,,006,2022-05-06_19h44.40.477,FishGame,2022.1.1,60.01720092102189,
,27,넌 붙임성있어,1,Green,A,5.708333333333333,5.633333333333334,ScrollDown,ScrollUp,Green.png,1,Positive,Congruent,,,,,0,0,0,0,,,,,,,,,,,,,0,26,26,26,,,,,,,,,,,,,,,,,,,,,,,,,,,,,,,,,,,,,,,,,,,,,,,,,,,,,,,,,,,,,,,,,,,,,,,,,,,,,,,,,1.0632716019948323,0.9091374999843538,187.3303759000264,None,ScrollDown,정답입니다,187.3303759000264,None,187.3303759000264,None,187.3303759000264,None,187.3303759000264,None,188.1369415000081,None,188.1369415000081,188.6392138999654,,,,,,,,,,,,,,,,006,2022-05-06_19h44.40.477,FishGame,2022.1.1,60.01720092102189,
,28,넌 영리해,2,Green,A,6,4.033333333333333,ScrollDown,ScrollUp,Green.png,1,Positive,Congruent,,,,,0,0,0,0,,,,,,,,,,,,,0,27,27,27,,,,,,,,,,,,,,,,,,,,,,,,,,,,,,,,,,,,,,,,,,,,,,,,,,,,,,,,,,,,,,,,,,,,,,,,,,,,,,,,,1.060185174147288,0.8260634000180289,189.26445440005045,None,ScrollDown,정답입니다,189.26445440005045,None,189.26445440005045,None,189.26445440005045,None,189.26445440005045,None,189.986607800005,None,189.986607800005,190.48689850000665,,,,,,,,,,,,,,,,006,2022-05-06_19h44.40.477,FishGame,2022.1.1,60.01720092102189,
,29,넌 열심이야,1,Orange,B,6.041666666666667,5.833333333333333,ScrollUp,ScrollDown,Orange.png,1,Positive,Incongruent,,,,,0,0,0,0,,,,,,,,,,,,,0,28,28,28,,,,,,,,,,,,,,,,,,,,,,,,,,,,,,,,,,,,,,,,,,,,,,,,,,,,,,,,,,,,,,,,,,,,,,,,,,,,,,,,,1.8811728457609813,0.9118854999542236,191.10892080003396,None,ScrollUp,정답입니다,191.10892080003396,None,191.10892080003396,None,191.10892080003396,None,191.10892080003396,None,191.91995589993894,None,191.91995589993894,192.42243170004804,,,,,,,,,,,,,,,,006,2022-05-06_19h44.40.477,FishGame,2022.1.1,60.01720092102189,
,30,넌 인기없어,4,Orange,B,3,3.3,ScrollUp,ScrollDown,Orange.png,1,Negative,Congruent,,,,,0,0,0,0,,,,,,,,,,,,,0,29,29,29,,,,,,,,,,,,,,,,,,,,,,,,,,,,,,,,,,,,,,,,,,,,,,,,,,,,,,,,,,,,,,,,,,,,,,,,,,,,,,,,,1.799382706483205,0.8456654000328854,193.04467339999974,None,ScrollUp,정답입니다,193.04467339999974,None,193.04467339999974,None,193.04467339999974,None,193.04467339999974,None,193.7891043999698,None,193.7891043999698,194.3089262000285,,,,,,,,,,,,,,,,006,2022-05-06_19h44.40.477,FishGame,2022.1.1,60.01720092102189,
,31,넌 익살스러워,3,Green,A,4.708333333333334,4.833333333333333,ScrollDown,ScrollUp,Green.png,1,Neutral,Neutral,,,,,0,0,0,0,,,,,,,,,,,,,0,30,30,30,,,,,,,,,,,,,,,,,,,,,,,,,,,,,,,,,,,,,,,,,,,,,,,,,,,,,,,,,,,,,,,,,,,,,,,,,,,,,,,,,1.0817901194095612,0.8594633000902832,194.91605630004779,None,ScrollDown,정답입니다,194.91605630004779,None,194.91605630004779,None,194.91605630004779,None,194.91605630004779,None,195.67225369997323,None,195.67225369997323,196.17231679998804,,,,,,,,,,,,,,,,006,2022-05-06_19h44.40.477,FishGame,2022.1.1,60.01720092102189,
,32,넌 이기적이야,5,Orange,B,2.291666666666667,2.333333333333333,ScrollUp,ScrollDown,Orange.png,1,Negative,Congruent,,,,,0,0,0,0,,,,,,,,,,,,,0,31,31,31,,,,,,,,,,,,,,,,,,,,,,,,,,,,,,,,,,,,,,,,,,,,,,,,,,,,,,,,,,,,,,,,,,,,,,,,,,,,,,,,,1.873456800977389,0.7943272999254987,196.79409079998732,None,ScrollUp,정답입니다,196.79409079998732,None,196.79409079998732,None,196.79409079998732,None,196.79409079998732,None,197.48646359995473,None,197.48646359995473,197.98670669994317,,,,,,,,,,,,,,,,006,2022-05-06_19h44.40.477,FishGame,2022.1.1,60.01720092102189,
,33,나를 데려가줘,6,Orange,B,0,0,ScrollDown,ScrollUp,Orange.png,1,NonTarget,NonTarget,,,,,0,0,0,0,,,,,,,,,,,,,0,32,32,32,,,,,,,,,,,,,,,,,,,,,,,,,,,,,,,,,,,,,,,,,,,,,,,,,,,,,,,,,,,,,,,,,,,,,,,,,,,,,,,,,1.09413580596447,1.0117667999584228,198.6117541999556,None,ScrollDown,정답입니다,198.6117541999556,None,198.6117541999556,None,198.6117541999556,None,198.6117541999556,None,199.51977999997325,None,199.51977999997325,200.02228220005054,,,,,,,,,,,,,,,,006,2022-05-06_19h44.40.477,FishGame,2022.1.1,60.01720092102189,
,34,넌 기회주의자야,5,Green,A,2.875,2.133333333333333,ScrollDown,ScrollUp,Green.png,1,Negative,Incongruent,,,,,0,0,0,0,,,,,,,,,,,,,0,33,33,33,,,,,,,,,,,,,,,,,,,,,,,,,,,,,,,,,,,,,,,,,,,,,,,,,,,,,,,,,,,,,,,,,,,,,,,,,,,,,,,,,1.126543199022611,0.9797421999974176,200.6454662999604,None,ScrollDown,정답입니다,200.6454662999604,None,200.6454662999604,None,200.6454662999604,None,200.6454662999604,None,201.52228110004216,None,201.52228110004216,202.02226540003903,,,,,,,,,,,,,,,,006,2022-05-06_19h44.40.477,FishGame,2022.1.1,60.01720092102189,
,1,넌 미성숙해,4,Green,A,3,3.2,ScrollDown,ScrollUp,Green.png,2,Negative,Incongruent,,,,,0,0,0,0,,,,,,,,,,,,,,,,,0,0,0,0,,,,,,,,,,,,,,,,,,,,,,,,,,,,,,,,,,,,238.42129890003707,239.93596969998907,239.9526412000414,240.90816210000776,240.958121499978,241.9191306999419,241.90533029998187,None,,,,,,,,,,,,,,,,,,,,,,,,,,,,,,,,,,1.0123456915219624,1.1129761999472976,243.01354349998292,None,ScrollDown,정답입니다,243.01354349998292,None,243.01354349998292,None,243.01354349998292,None,243.01354349998292,None,244.01902100001462,None,244.01902100001462,244.51884110004175,202.51995470002294,None,202.51995470002294,None,0.06666667,-0.096296296,1,0,0,0.015944340033456683,None,232.519345000037,None,,,006,2022-05-06_19h44.40.477,FishGame,2022.1.1,60.01720092102189,
,2,넌 반사회적이야,5,Orange,B,2.416666666666667,2.033333333333333,ScrollUp,ScrollDown,Orange.png,2,Negative,Congruent,,,,,0,0,0,0,,,,,,,,,,,,,,,,,0,1,1,1,,,,,,,,,,,,,,,,,,,,,,,,,,,,,,,,,,,,,,,,,,,,,,,,,,,,,,,,,,,,,,,,,,,,,,,,,,,,,2,1.1280937000410631,245.14893859997392,None,ScrollUp,정답입니다,245.14893859997392,None,245.14893859997392,None,245.14893859997392,None,245.14893859997392,None,246.17129039997235,None,246.17129039997235,246.67129149998073,,,,,,,,,,,,,,,,006,2022-05-06_19h44.40.477,FishGame,2022.1.1,60.01720092102189,
,3,넌 유능해,2,Green,A,6.208333333333333,4.433333333333334,ScrollDown,ScrollUp,Green.png,2,Positive,Congruent,,,,,0,0,0,0,,,,,,,,,,,,,,,,,0,2,2,2,,,,,,,,,,,,,,,,,,,,,,,,,,,,,,,,,,,,,,,,,,,,,,,,,,,,,,,,,,,,,,,,,,,,,,,,,,,,,1.1759259204069774,0.8440539999864995,247.30063710000832,None,ScrollDown,정답입니다,247.30063710000832,None,247.30063710000832,None,247.30063710000832,None,247.30063710000832,None,248.03792140004225,None,248.03792140004225,248.55447540001478,,,,,,,,,,,,,,,,006,2022-05-06_19h44.40.477,FishGame,2022.1.1,60.01720092102189,
,4,넌 능숙해,2,Orange,B,5.666666666666667,4.733333333333333,ScrollUp,ScrollDown,Orange.png,2,Positive,Incongruent,,,,,0,0,0,0,,,,,,,,,,,,,,,,,0,3,3,3,,,,,,,,,,,,,,,,,,,,,,,,,,,,,,,,,,,,,,,,,,,,,,,,,,,,,,,,,,,,,,,,,,,,,,,,,,,,,1.6265432064731917,0.8931727999588475,249.15910799999256,None,ScrollUp,정답입니다,249.15910799999256,None,249.15910799999256,None,249.15910799999256,None,249.15910799999256,None,249.9522699000081,None,249.9522699000081,250.45258509996347,,,,,,,,,,,,,,,,006,2022-05-06_19h44.40.477,FishGame,2022.1.1,60.01720092102189,
,5,넌 진부해,4,Orange,B,2.458333333333333,3.166666666666667,ScrollUp,ScrollDown,Orange.png,2,Negative,Congruent,,,,,0,0,0,0,,,,,,,,,,,,,,,,,0,4,4,4,,,,,,,,,,,,,,,,,,,,,,,,,,,,,,,,,,,,,,,,,,,,,,,,,,,,,,,,,,,,,,,,,,,,,,,,,,,,,1.699074074625969,0.8258263999596238,251.08407009998336,None,ScrollUp,정답입니다,251.08407009998336,None,251.08407009998336,None,251.08407009998336,None,251.08407009998336,None,251.80224390001968,None,251.80224390001968,252.3044433000032,,,,,,,,,,,,,,,,006,2022-05-06_19h44.40.477,FishGame,2022.1.1,60.01720092102189,
,6,나를 보내줘,6,Green,A,0,0,ScrollUp,ScrollDown,Green.png,2,NonTarget,NonTarget,,,,,0,0,0,0,,,,,,,,,,,,,,,,,0,5,5,5,,,,,,,,,,,,,,,,,,,,,,,,,,,,,,,,,,,,,,,,,,,,,,,,,,,,,,,,,,,,,,,,,,,,,,,,,,,,,1.68364197264115,0.9614679999649525,252.92217260005418,None,ScrollUp,정답입니다,252.92217260005418,None,252.92217260005418,None,252.92217260005418,None,252.92217260005418,None,253.78773560002446,None,253.78773560002446,254.30302350001875,,,,,,,,,,,,,,,,006,2022-05-06_19h44.40.477,FishGame,2022.1.1,60.01720092102189,
,7,넌 엄격해,3,Green,A,4.166666666666666,4.1,ScrollDown,ScrollUp,Green.png,2,Neutral,Neutral,,,,,0,0,0,0,,,,,,,,,,,,,,,,,0,6,6,6,,,,,,,,,,,,,,,,,,,,,,,,,,,,,,,,,,,,,,,,,,,,,,,,,,,,,,,,,,,,,,,,,,,,,,,,,,,,,1.095679019888242,0.8763337000273168,254.92997970001306,None,ScrollDown,정답입니다,254.92997970001306,None,254.92997970001306,None,254.92997970001306,None,254.92997970001306,None,255.70210500003304,None,255.70210500003304,256.2024330999702,,,,,,,,,,,,,,,,006,2022-05-06_19h44.40.477,FishGame,2022.1.1,60.01720092102189,
,8,나를 보내줘,6,Green,A,0,0,ScrollUp,ScrollDown,Green.png,2,NonTarget,NonTarget,,,,,0,0,0,0,,,,,,,,,,,,,,,,,0,7,7,7,,,,,,,,,,,,,,,,,,,,,,,,,,,,,,,,,,,,,,,,,,,,,,,,,,,,,,,,,,,,,,,,,,,,,,,,,,,,,1.703703703979651,1.027726300060749,256.82228490000125,None,ScrollUp,정답입니다,256.82228490000125,None,256.82228490000125,None,256.82228490000125,None,256.82228490000125,None,257.75211550004315,None,257.75211550004315,258.25433919997886,,,,,,,,,,,,,,,,006,2022-05-06_19h44.40.477,FishGame,2022.1.1,60.01720092102189,
,9,넌 대담해,3,Orange,B,4.875,4.866666666666666,ScrollUp,ScrollDown,Orange.png,2,Neutral,Neutral,,,,,0,0,0,0,,,,,,,,,,,,,,,,,0,8,8,8,,,,,,,,,,,,,,,,,,,,,,,,,,,,,,,,,,,,,,,,,,,,,,,,,,,,,,,,,,,,,,,,,,,,,,,,,,,,,1.68364197264115,1.3259585000341758,258.8882007000502,None,ScrollUp,정답입니다,258.8882007000502,None,258.8882007000502,None,258.8882007000502,None,258.8882007000502,None,260.1020680000074,None,260.1020680000074,260.6042066999944,,,,,,,,,,,,,,,,006,2022-05-06_19h44.40.477,FishGame,2022.1.1,60.01720092102189,
,10,넌 꾸준해,1,Green,A,5.916666666666668,5.8,ScrollDown,ScrollUp,Green.png,2,Positive,Congruent,,,,,0,0,0,0,,,,,,,,,,,,,,,,,0,9,9,9,,,,,,,,,,,,,,,,,,,,,,,,,,,,,,,,,,,,,,,,,,,,,,,,,,,,,,,,,,,,,,,,,,,,,,,,,,,,,1.1188271542390187,1.0261595000047237,261.2296364000067,None,ScrollDown,정답입니다,261.2296364000067,None,261.2296364000067,None,261.2296364000067,None,261.2296364000067,None,262.15203080000356,None,262.15203080000356,262.65425150003284,,,,,,,,,,,,,,,,006,2022-05-06_19h44.40.477,FishGame,2022.1.1,60.01720092102189,
,11,나를 데려가줘,6,Orange,B,0,0,ScrollDown,ScrollUp,Orange.png,2,NonTarget,NonTarget,,,,,0,0,0,0,,,,,,,,,,,,,,,,,0,10,10,10,,,,,,,,,,,,,,,,,,,,,,,,,,,,,,,,,,,,,,,,,,,,,,,,,,,,,,,,,,,,,,,,,,,,,,,,,,,,,1.1558641890684764,1.0943782000103965,263.2774641000433,None,ScrollDown,정답입니다,263.2774641000433,None,263.2774641000433,None,263.2774641000433,None,263.2774641000433,None,264.27083870000206,None,264.27083870000206,264.78528239997104,,,,,,,,,,,,,,,,006,2022-05-06_19h44.40.477,FishGame,2022.1.1,60.01720092102189,
,12,넌 독선적이야,5,Green,A,2.458333333333333,1.933333333333333,ScrollDown,ScrollUp,Green.png,2,Negative,Incongruent,,,,,0,0,0,0,,,,,,,,,,,,,,,,,0,11,11,11,,,,,,,,,,,,,,,,,,,,,,,,,,,,,,,,,,,,,,,,,,,,,,,,,,,,,,,,,,,,,,,,,,,,,,,,,,,,,1.1959876517454784,0.9948653999017552,265.4137705999892,None,ScrollDown,정답입니다,265.4137705999892,None,265.4137705999892,None,265.4137705999892,None,265.4137705999892,None,266.3018756000092,None,266.3018756000092,266.8041248000227,,,,,,,,,,,,,,,,006,2022-05-06_19h44.40.477,FishGame,2022.1.1,60.01720092102189,
,13,나를 보내줘,6,Green,A,0,0,ScrollUp,ScrollDown,Green.png,2,NonTarget,NonTarget,,,,,0,0,0,0,,,,,,,,,,,,,,,,,0,12,12,12,,,,,,,,,,,,,,,,,,,,,,,,,,,,,,,,,,,,,,,,,,,,,,,,,,,,,,,,,,,,,,,,,,,,,,,,,,,,,1.5216049375012517,0.9961156999925151,267.41995180002414,None,NoResponse,무응답입니다,267.41995180002414,None,267.41995180002414,None,267.41995180002414,None,267.41995180002414,None,268.318569199997,None,268.318569199997,268.820833100006,,,,,,,,,,,,,,,,006,2022-05-06_19h44.40.477,FishGame,2022.1.1,60.01720092102189,
,14,넌 책임감있어,1,Orange,B,6.347826086956522,6,ScrollUp,ScrollDown,Orange.png,2,Positive,Incongruent,,,,,0,0,0,0,,,,,,,,,,,,,,,,,0,13,13,13,,,,,,,,,,,,,,,,,,,,,,,,,,,,,,,,,,,,,,,,,,,,,,,,,,,,,,,,,,,,,,,,,,,,,,,,,,,,,2,1.0448106999974698,269.4472307000542,None,ScrollUp,정답입니다,269.4472307000542,None,269.4472307000542,None,269.4472307000542,None,269.4472307000542,None,270.38519569998607,None,270.38519569998607,270.8873136000475,,,,,,,,,,,,,,,,006,2022-05-06_19h44.40.477,FishGame,2022.1.1,60.01720092102189,
,15,넌 문학적이야,3,Green,A,4.708333333333334,4.333333333333333,ScrollDown,ScrollUp,Green.png,2,Neutral,Neutral,,,,,0,0,0,0,,,,,,,,,,,,,,,,,0,14,14,14,,,,,,,,,,,,,,,,,,,,,,,,,,,,,,,,,,,,,,,,,,,,,,,,,,,,,,,,,,,,,,,,,,,,,,,,,,,,,1,0.9950032000197098,271.50854219996836,None,ScrollDown,정답입니다,271.50854219996836,None,271.50854219996836,None,271.50854219996836,None,271.50854219996836,None,272.40400570002384,None,272.40400570002384,272.90392810001504,,,,,,,,,,,,,,,,006,2022-05-06_19h44.40.477,FishGame,2022.1.1,60.01720092102189,
,16,넌 재미있어,1,Orange,B,5.875,5.7,ScrollUp,ScrollDown,Orange.png,2,Positive,Incongruent,,,,,0,0,0,0,,,,,,,,,,,,,,,,,0,15,15,15,,,,,,,,,,,,,,,,,,,,,,,,,,,,,,,,,,,,,,,,,,,,,,,,,,,,,,,,,,,,,,,,,,,,,,,,,,,,,2,1.0094857999356464,273.52871360001154,None,ScrollUp,정답입니다,273.52871360001154,None,273.52871360001154,None,273.52871360001154,None,273.52871360001154,None,274.4351314000087,None,274.4351314000087,274.9404513000045,,,,,,,,,,,,,,,,006,2022-05-06_19h44.40.477,FishGame,2022.1.1,60.01720092102189,
,17,나를 데려가줘,6,Orange,B,0,0,ScrollDown,ScrollUp,Orange.png,2,NonTarget,NonTarget,,,,,0,0,0,0,,,,,,,,,,,,,,,,,0,16,16,16,,,,,,,,,,,,,,,,,,,,,,,,,,,,,,,,,,,,,,,,,,,,,,,,,,,,,,,,,,,,,,,,,,,,,,,,,,,,,1,1.0098728999728337,275.5610667000292,None,ScrollDown,정답입니다,275.5610667000292,None,275.5610667000292,None,275.5610667000292,None,275.5610667000292,None,276.46831729996484,None,276.46831729996484,276.96840809995774,,,,,,,,,,,,,,,,006,2022-05-06_19h44.40.477,FishGame,2022.1.1,60.01720092102189,
,18,넌 협력적이야,1,Green,A,5.625,5.633333333333334,ScrollDown,ScrollUp,Green.png,2,Positive,Congruent,,,,,0,0,0,0,,,,,,,,,,,,,,,,,0,17,17,17,,,,,,,,,,,,,,,,,,,,,,,,,,,,,,,,,,,,,,,,,,,,,,,,,,,,,,,,,,,,,,,,,,,,,,,,,,,,,1,0.9587275999365374,277.5955130000366,None,ScrollDown,정답입니다,277.5955130000366,None,277.5955130000366,None,277.5955130000366,None,277.5955130000366,None,278.4516690999735,None,278.4516690999735,278.9539293999551,,,,,,,,,,,,,,,,006,2022-05-06_19h44.40.477,FishGame,2022.1.1,60.01720092102189,
,19,넌 평범해,3,Orange,B,4.333333333333332,4.233333333333333,ScrollUp,ScrollDown,Orange.png,2,Neutral,Neutral,,,,,0,0,0,0,,,,,,,,,,,,,,,,,0,18,18,18,,,,,,,,,,,,,,,,,,,,,,,,,,,,,,,,,,,,,,,,,,,,,,,,,,,,,,,,,,,,,,,,,,,,,,,,,,,,,2,1.0093455000314862,279.5793877999531,None,ScrollUp,정답입니다,279.5793877999531,None,279.5793877999531,None,279.5793877999531,None,279.5793877999531,None,280.48494690004736,None,280.48494690004736,280.9850150999846,,,,,,,,,,,,,,,,006,2022-05-06_19h44.40.477,FishGame,2022.1.1,60.01720092102189,
,20,넌 오만해,5,Green,A,2.333333333333333,2,ScrollDown,ScrollUp,Green.png,2,Negative,Incongruent,,,,,0,0,0,0,,,,,,,,,,,,,,,,,0,19,19,19,,,,,,,,,,,,,,,,,,,,,,,,,,,,,,,,,,,,,,,,,,,,,,,,,,,,,,,,,,,,,,,,,,,,,,,,,,,,,1,0.9121527998941019,281.61112619994674,None,ScrollDown,정답입니다,281.61112619994674,None,281.61112619994674,None,281.61112619994674,None,281.61112619994674,None,282.41824909998104,None,282.41824909998104,282.92048109997995,,,,,,,,,,,,,,,,006,2022-05-06_19h44.40.477,FishGame,2022.1.1,60.01720092102189,
,21,넌 운이없어,4,Orange,B,3,3.466666666666667,ScrollUp,ScrollDown,Orange.png,2,Negative,Congruent,,,,,0,0,0,0,,,,,,,,,,,,,,,,,0,20,20,20,,,,,,,,,,,,,,,,,,,,,,,,,,,,,,,,,,,,,,,,,,,,,,,,,,,,,,,,,,,,,,,,,,,,,,,,,,,,,2,0.9612499000504613,283.54284160002135,None,ScrollUp,정답입니다,283.54284160002135,None,283.54284160002135,None,283.54284160002135,None,283.54284160002135,None,284.403692199965,None,284.403692199965,284.9181422999827,,,,,,,,,,,,,,,,006,2022-05-06_19h44.40.477,FishGame,2022.1.1,60.01720092102189,
,22,넌 창조적이야,2,Orange,B,6.125,4.633333333333334,ScrollUp,ScrollDown,Orange.png,2,Positive,Incongruent,,,,,0,0,0,0,,,,,,,,,,,,,,,,,0,21,21,21,,,,,,,,,,,,,,,,,,,,,,,,,,,,,,,,,,,,,,,,,,,,,,,,,,,,,,,,,,,,,,,,,,,,,,,,,,,,,2,1.046734100091271,285.5467784999637,None,ScrollUp,정답입니다,285.5467784999637,None,285.5467784999637,None,285.5467784999637,None,285.5467784999637,None,286.4848307999782,None,286.4848307999782,286.98707190004643,,,,,,,,,,,,,,,,006,2022-05-06_19h44.40.477,FishGame,2022.1.1,60.01720092102189,
,23,나를 보내줘,6,Green,A,0,0,ScrollUp,ScrollDown,Green.png,2,NonTarget,NonTarget,,,,,0,0,0,0,,,,,,,,,,,,,,,,,0,22,22,22,,,,,,,,,,,,,,,,,,,,,,,,,,,,,,,,,,,,,,,,,,,,,,,,,,,,,,,,,,,,,,,,,,,,,,,,,,,,,1.8765432039896648,0.9594066999852657,287.61170520004816,None,ScrollUp,정답입니다,287.61170520004816,None,287.61170520004816,None,287.61170520004816,None,287.61170520004816,None,288.46812480001245,None,288.46812480001245,288.97041429998353,,,,,,,,,,,,,,,,006,2022-05-06_19h44.40.477,FishGame,2022.1.1,60.01720092102189,
,24,넌 통찰력있어,2,Green,A,6.5,4.8,ScrollDown,ScrollUp,Green.png,2,Positive,Congruent,,,,,0,0,0,0,,,,,,,,,,,,,,,,,0,23,23,23,,,,,,,,,,,,,,,,,,,,,,,,,,,,,,,,,,,,,,,,,,,,,,,,,,,,,,,,,,,,,,,,,,,,,,,,,,,,,1,0.9259890000103042,289.6101742000319,None,ScrollDown,정답입니다,289.6101742000319,None,289.6101742000319,None,289.6101742000319,None,289.6101742000319,None,290.4202719000168,None,290.4202719000168,290.91804959997535,,,,,,,,,,,,,,,,006,2022-05-06_19h44.40.477,FishGame,2022.1.1,60.01720092102189,
,25,넌 경솔해,5,Orange,B,2.458333333333333,2.266666666666667,ScrollUp,ScrollDown,Orange.png,2,Negative,Congruent,,,,,0,0,0,0,,,,,,,,,,,,,,,,,0,24,24,24,,,,,,,,,,,,,,,,,,,,,,,,,,,,,,,,,,,,,,,,,,,,,,,,,,,,,,,,,,,,,,,,,,,,,,,,,,,,,1.9753086467583973,0.844990799902007,291.56291149999015,None,ScrollUp,정답입니다,291.56291149999015,None,291.56291149999015,None,291.56291149999015,None,291.56291149999015,None,292.3035149000352,None,292.3035149000352,292.81801509996876,,,,,,,,,,,,,,,,006,2022-05-06_19h44.40.477,FishGame,2022.1.1,60.01720092102189,
,26,넌 초조해,4,Green,A,2.916666666666667,3.133333333333333,ScrollDown,ScrollUp,Green.png,2,Negative,Incongruent,,,,,0,0,0,0,,,,,,,,,,,,,,,,,0,25,25,25,,,,,,,,,,,,,,,,,,,,,,,,,,,,,,,,,,,,,,,,,,,,,,,,,,,,,,,,,,,,,,,,,,,,,,,,,,,,,1,0.9599761000135913,293.42429210001137,None,ScrollDown,정답입니다,293.42429210001137,None,293.42429210001137,None,293.42429210001137,None,293.42429210001137,None,294.28461049997713,None,294.28461049997713,294.78687119996175,,,,,,,,,,,,,,,,006,2022-05-06_19h44.40.477,FishGame,2022.1.1,60.01720092102189,
,27,넌 무관심해,4,Orange,B,2.833333333333333,2.9,ScrollUp,ScrollDown,Orange.png,2,Negative,Congruent,,,,,0,0,0,0,,,,,,,,,,,,,,,,,0,26,26,26,,,,,,,,,,,,,,,,,,,,,,,,,,,,,,,,,,,,,,,,,,,,,,,,,,,,,,,,,,,,,,,,,,,,,,,,,,,,,1.9212963084379833,0.9091199999675155,295.41534199996386,None,ScrollUp,정답입니다,295.41534199996386,None,295.41534199996386,None,295.41534199996386,None,295.41534199996386,None,296.2179620000534,None,296.2179620000534,296.7202306999825,,,,,,,,,,,,,,,,006,2022-05-06_19h44.40.477,FishGame,2022.1.1,60.01720092102189,
,28,넌 감성적이야,3,Orange,B,4.125,4.166666666666667,ScrollUp,ScrollDown,Orange.png,2,Neutral,Neutral,,,,,0,0,0,0,,,,,,,,,,,,,,,,,0,27,27,27,,,,,,,,,,,,,,,,,,,,,,,,,,,,,,,,,,,,,,,,,,,,,,,,,,,,,,,,,,,,,,,,,,,,,,,,,,,,,2,0.8942176999989897,297.34005759994034,None,ScrollUp,정답입니다,297.34005759994034,None,297.34005759994034,None,297.34005759994034,None,297.34005759994034,None,298.1345312000485,None,298.1345312000485,298.63671500002965,,,,,,,,,,,,,,,,006,2022-05-06_19h44.40.477,FishGame,2022.1.1,60.01720092102189,
,29,넌 배려심있어,1,Green,A,6.083333333333333,5.5,ScrollDown,ScrollUp,Green.png,2,Positive,Congruent,,,,,0,0,0,0,,,,,,,,,,,,,,,,,0,28,28,28,,,,,,,,,,,,,,,,,,,,,,,,,,,,,,,,,,,,,,,,,,,,,,,,,,,,,,,,,,,,,,,,,,,,,,,,,,,,,1,0.859475800069049,299.25884859997313,None,ScrollDown,정답입니다,299.25884859997313,None,299.25884859997313,None,299.25884859997313,None,299.25884859997313,None,300.02000899997074,None,300.02000899997074,300.53676179994363,,,,,,,,,,,,,,,,006,2022-05-06_19h44.40.477,FishGame,2022.1.1,60.01720092102189,
,30,넌 숨김없어,3,Green,A,4.5,4.933333333333334,ScrollDown,ScrollUp,Green.png,2,Neutral,Neutral,,,,,0,0,0,0,,,,,,,,,,,,,,,,,0,29,29,29,,,,,,,,,,,,,,,,,,,,,,,,,,,,,,,,,,,,,,,,,,,,,,,,,,,,,,,,,,,,,,,,,,,,,,,,,,,,,1.040123442808787,0.8591383000602946,301.1459694999503,None,ScrollDown,정답입니다,301.1459694999503,None,301.1459694999503,None,301.1459694999503,None,301.1459694999503,None,301.9033316000132,None,301.9033316000132,302.4013359999517,,,,,,,,,,,,,,,,006,2022-05-06_19h44.40.477,FishGame,2022.1.1,60.01720092102189,
,31,넌 훌륭해,2,Orange,B,5.916666666666667,4.033333333333333,ScrollUp,ScrollDown,Orange.png,2,Positive,Incongruent,,,,,0,0,0,0,,,,,,,,,,,,,,,,,0,30,30,30,,,,,,,,,,,,,,,,,,,,,,,,,,,,,,,,,,,,,,,,,,,,,,,,,,,,,,,,,,,,,,,,,,,,,,,,,,,,,1.6265432064731917,0.8126280999276787,303.04227990005165,None,ScrollUp,정답입니다,303.04227990005165,None,303.04227990005165,None,303.04227990005165,None,303.04227990005165,None,303.7510755000403,None,303.7510755000403,304.25324610003736,,,,,,,,,,,,,,,,006,2022-05-06_19h44.40.477,FishGame,2022.1.1,60.01720092102189,
,32,넌 슬기로워,2,Green,A,6.166666666666667,4.1,ScrollDown,ScrollUp,Green.png,2,Positive,Congruent,,,,,0,0,0,0,,,,,,,,,,,,,,,,,0,31,31,31,,,,,,,,,,,,,,,,,,,,,,,,,,,,,,,,,,,,,,,,,,,,,,,,,,,,,,,,,,,,,,,,,,,,,,,,,,,,,1.0324074228604634,0.8427547999890521,304.878213900025,None,ScrollDown,정답입니다,304.878213900025,None,304.878213900025,None,304.878213900025,None,304.878213900025,None,305.617734999978,None,305.617734999978,306.1199585000286,,,,,,,,,,,,,,,,006,2022-05-06_19h44.40.477,FishGame,2022.1.1,60.01720092102189,
,33,넌 냉혹해,5,Green,A,2.583333333333333,2.1,ScrollDown,ScrollUp,Green.png,2,Negative,Incongruent,,,,,0,0,0,0,,,,,,,,,,,,,,,,,0,32,32,32,,,,,,,,,,,,,,,,,,,,,,,,,,,,,,,,,,,,,,,,,,,,,,,,,,,,,,,,,,,,,,,,,,,,,,,,,,,,,1.0015431940555573,0.8230191000038758,306.74359299999196,None,ScrollDown,정답입니다,306.74359299999196,None,306.74359299999196,None,306.74359299999196,None,306.74359299999196,None,307.4630029000109,None,307.4630029000109,307.9674972000066,,,,,,,,,,,,,,,,006,2022-05-06_19h44.40.477,FishGame,2022.1.1,60.01720092102189,
,34,나를 데려가줘,6,Orange,B,0,0,ScrollDown,ScrollUp,Orange.png,2,NonTarget,NonTarget,,,,,0,0,0,0,,,,,,,,,,,,,,,,,0,33,33,33,,,,,,,,,,,,,,,,,,,,,,,,,,,,,,,,,,,,,,,,,,,,,,,,,,,,,,,,,,,,,,,,,,,,,,,,,,,,,1.0262345671653748,1.0460167999844998,308.5863467999734,None,ScrollDown,정답입니다,308.5863467999734,None,308.5863467999734,None,308.5863467999734,None,308.5863467999734,None,309.53408579993993,None,309.53408579993993,310.03425010002684,,,,,,,,,,,,,,,,006,2022-05-06_19h44.40.477,FishGame,2022.1.1,60.01720092102189,
,35,넌 편파적이야,5,Orange,B,2.125,2,ScrollUp,ScrollDown,Orange.png,2,Negative,Congruent,,,,,0,0,0,0,,,,,,,,,,,,,,,,,0,34,34,34,,,,,,,,,,,,,,,,,,,,,,,,,,,,,,,,,,,,,,,,,,,,,,,,,,,,,,,,,,,,,,,,,,,,,,,,,,,,,2,0.8929873999441043,310.6613172000507,None,ScrollUp,정답입니다,310.6613172000507,None,310.6613172000507,None,310.6613172000507,None,310.6613172000507,None,311.4510612000013,None,311.4510612000013,311.95347960002255,,,,,,,,,,,,,,,,006,2022-05-06_19h44.40.477,FishGame,2022.1.1,60.01720092102189,
,36,넌 슬퍼,4,Green,A,2.583333333333333,3.066666666666667,ScrollDown,ScrollUp,Green.png,2,Negative,Incongruent,,,,,0,0,0,0,,,,,,,,,,,,,,,,,0,35,35,35,,,,,,,,,,,,,,,,,,,,,,,,,,,,,,,,,,,,,,,,,,,,,,,,,,,,,,,,,,,,,,,,,,,,,,,,,,,,,1,0.8931999000487849,312.5765977000119,None,ScrollDown,정답입니다,312.5765977000119,None,312.5765977000119,None,312.5765977000119,None,312.5765977000119,None,313.36979280004743,None,313.36979280004743,313.88655539997853,,,,,,,,,,,,,,,,006,2022-05-06_19h44.40.477,FishGame,2022.1.1,60.01720092102189,
,37,나를 데려가줘,6,Orange,B,0,0,ScrollDown,ScrollUp,Orange.png,2,NonTarget,NonTarget,,,,,0,0,0,0,,,,,,,,,,,,,,,,,0,36,36,36,,,,,,,,,,,,,,,,,,,,,,,,,,,,,,,,,,,,,,,,,,,,,,,,,,,,,,,,,,,,,,,,,,,,,,,,,,,,,1.0339506367842357,0.9814385999925435,314.5105658000102,None,ScrollDown,정답입니다,314.5105658000102,None,314.5105658000102,None,314.5105658000102,None,314.5105658000102,None,315.3898775000125,None,315.3898775000125,315.9009060000535,,,,,,,,,,,,,,,,006,2022-05-06_19h44.40.477,FishGame,2022.1.1,60.01720092102189,
,38,넌 친절해,1,Orange,B,6.041666666666667,5.533333333333333,ScrollUp,ScrollDown,Orange.png,2,Positive,Incongruent,,,,,0,0,0,0,,,,,,,,,,,,,,,,,0,37,37,37,,,,,,,,,,,,,,,,,,,,,,,,,,,,,,,,,,,,,,,,,,,,,,,,,,,,,,,,,,,,,,,,,,,,,,,,,,,,,2,0.9603582000127062,316.52725980000105,None,ScrollUp,정답입니다,316.52725980000105,None,316.52725980000105,None,316.52725980000105,None,316.52725980000105,None,317.3841432000045,None,317.3841432000045,317.88424879999366,,,,,,,,,,,,,,,,006,2022-05-06_19h44.40.477,FishGame,2022.1.1,60.01720092102189,
,1,넌 엉성해,4,Green,A,3,3.3,ScrollDown,ScrollUp,Green.png,3,Negative,Incongruent,,,,,0,0,0,0,,,,,,,,,,,,,,,,,,,,,0,0,0,0,,,,,,,,,,,,,,,,,,,,,,,,,,,,,,,,349.7021773000015,351.2191639000084,351.2358057999518,352.185773300007,352.2334210999543,353.18578189995605,353.18578189995605,None,,,,,,,,,,,,,,,,,,,,,,,,,,,,,,,,,,1,0.9273434999631718,354.3001866999548,None,ScrollDown,정답입니다,354.3001866999548,None,354.3001866999548,None,354.3001866999548,None,354.3001866999548,None,355.11671209998894,None,355.11671209998894,355.6224948000163,318.38636210002005,None,318.38636210002005,None,0.044444446,-0.08611111,1,0,0,0.01636844000313431,None,348.40025439998135,None,,,006,2022-05-06_19h44.40.477,FishGame,2022.1.1,60.01720092102189,
,2,나를 보내줘,6,Green,A,0,0,ScrollUp,ScrollDown,Green.png,3,NonTarget,NonTarget,,,,,0,0,0,0,,,,,,,,,,,,,,,,,,,,,0,1,1,1,,,,,,,,,,,,,,,,,,,,,,,,,,,,,,,,,,,,,,,,,,,,,,,,,,,,,,,,,,,,,,,,,,,,,,,,,1.9969135920206706,1.025571099948138,356.23969770001713,None,ScrollUp,정답입니다,356.23969770001713,None,356.23969770001713,None,356.23969770001713,None,356.23969770001713,None,357.1666047000326,None,357.1666047000326,357.6666510000359,,,,,,,,,,,,,,,,006,2022-05-06_19h44.40.477,FishGame,2022.1.1,60.01720092102189,
,3,넌 활발해,1,Orange,B,5.666666666666667,5.6,ScrollUp,ScrollDown,Orange.png,3,Positive,Incongruent,,,,,0,0,0,0,,,,,,,,,,,,,,,,,,,,,0,2,2,2,,,,,,,,,,,,,,,,,,,,,,,,,,,,,,,,,,,,,,,,,,,,,,,,,,,,,,,,,,,,,,,,,,,,,,,,,1.9104938358068466,1.0094853999326006,358.2971590999514,None,ScrollUp,정답입니다,358.2971590999514,None,358.2971590999514,None,358.2971590999514,None,358.2971590999514,None,359.1999444999965,None,359.1999444999965,359.7022749000462,,,,,,,,,,,,,,,,006,2022-05-06_19h44.40.477,FishGame,2022.1.1,60.01720092102189,
,4,넌 논리적이야,2,Green,A,5.666666666666666,4.633333333333334,ScrollDown,ScrollUp,Green.png,3,Positive,Congruent,,,,,0,0,0,0,,,,,,,,,,,,,,,,,,,,,0,3,3,3,,,,,,,,,,,,,,,,,,,,,,,,,,,,,,,,,,,,,,,,,,,,,,,,,,,,,,,,,,,,,,,,,,,,,,,,,1,0.8100189999677241,360.3235949999653,None,ScrollDown,정답입니다,360.3235949999653,None,360.3235949999653,None,360.3235949999653,None,360.3235949999653,None,361.0331636000192,None,361.0331636000192,361.5354961999692,,,,,,,,,,,,,,,,006,2022-05-06_19h44.40.477,FishGame,2022.1.1,60.01720092102189,
,5,넌 과묵해,3,Green,A,3.875,4.4,ScrollDown,ScrollUp,Green.png,3,Neutral,Neutral,,,,,0,0,0,0,,,,,,,,,,,,,,,,,,,,,0,4,4,4,,,,,,,,,,,,,,,,,,,,,,,,,,,,,,,,,,,,,,,,,,,,,,,,,,,,,,,,,,,,,,,,,,,,,,,,,1,0.8957048999145627,362.1537113999948,None,ScrollDown,정답입니다,362.1537113999948,None,362.1537113999948,None,362.1537113999948,None,362.1537113999948,None,362.9498267000308,None,362.9498267000308,363.4521151999943,,,,,,,,,,,,,,,,006,2022-05-06_19h44.40.477,FishGame,2022.1.1,60.01720092102189,
,6,나를 데려가줘,6,Orange,B,0,0,ScrollDown,ScrollUp,Orange.png,3,NonTarget,NonTarget,,,,,0,0,0,0,,,,,,,,,,,,,,,,,,,,,0,5,5,5,,,,,,,,,,,,,,,,,,,,,,,,,,,,,,,,,,,,,,,,,,,,,,,,,,,,,,,,,,,,,,,,,,,,,,,,,1.1342592686414719,1.0763436999404803,364.0737183999736,None,ScrollDown,정답입니다,364.0737183999736,None,364.0737183999736,None,364.0737183999736,None,364.0737183999736,None,365.0498155000387,None,365.0498155000387,365.5521220000228,,,,,,,,,,,,,,,,006,2022-05-06_19h44.40.477,FishGame,2022.1.1,60.01720092102189,
,7,넌 미숙해,4,Orange,B,3,3,ScrollUp,ScrollDown,Orange.png,3,Negative,Congruent,,,,,0,0,0,0,,,,,,,,,,,,,,,,,,,,,0,6,6,6,,,,,,,,,,,,,,,,,,,,,,,,,,,,,,,,,,,,,,,,,,,,,,,,,,,,,,,,,,,,,,,,,,,,,,,,,2,0.9274072999833152,366.1723407000536,None,ScrollUp,정답입니다,366.1723407000536,None,366.1723407000536,None,366.1723407000536,None,366.1723407000536,None,366.9997693999903,None,366.9997693999903,367.5019783000462,,,,,,,,,,,,,,,,006,2022-05-06_19h44.40.477,FishGame,2022.1.1,60.01720092102189,
,8,나를 보내줘,6,Green,A,0,0,ScrollUp,ScrollDown,Green.png,3,NonTarget,NonTarget,,,,,0,0,0,0,,,,,,,,,,,,,,,,,,,,,0,7,7,7,,,,,,,,,,,,,,,,,,,,,,,,,,,,,,,,,,,,,,,,,,,,,,,,,,,,,,,,,,,,,,,,,,,,,,,,,1.8888888905445735,0.9114400999387726,368.11958189995494,None,ScrollUp,정답입니다,368.11958189995494,None,368.11958189995494,None,368.11958189995494,None,368.11958189995494,None,368.9330452999566,None,368.9330452999566,369.43525280000176,,,,,,,,,,,,,,,,006,2022-05-06_19h44.40.477,FishGame,2022.1.1,60.01720092102189,
,9,넌 자신만만해,3,Orange,B,4.833333333333334,4.333333333333333,ScrollUp,ScrollDown,Orange.png,3,Neutral,Neutral,,,,,0,0,0,0,,,,,,,,,,,,,,,,,,,,,0,8,8,8,,,,,,,,,,,,,,,,,,,,,,,,,,,,,,,,,,,,,,,,,,,,,,,,,,,,,,,,,,,,,,,,,,,,,,,,,2,0.8924915000097826,370.0573513000272,None,ScrollUp,정답입니다,370.0573513000272,None,370.0573513000272,None,370.0573513000272,None,370.0573513000272,None,370.8519091999624,None,370.8519091999624,371.3663569999626,,,,,,,,,,,,,,,,006,2022-05-06_19h44.40.477,FishGame,2022.1.1,60.01720092102189,
,10,넌 탐욕스러워,5,Green,A,2.25,2.1,ScrollDown,ScrollUp,Green.png,3,Negative,Incongruent,,,,,0,0,0,0,,,,,,,,,,,,,,,,,,,,,0,9,9,9,,,,,,,,,,,,,,,,,,,,,,,,,,,,,,,,,,,,,,,,,,,,,,,,,,,,,,,,,,,,,,,,,,,,,,,,,1.0370370149612427,0.9096590999979526,371.9924964000238,None,ScrollDown,정답입니다,371.9924964000238,None,371.9924964000238,None,371.9924964000238,None,371.9924964000238,None,372.79958969994914,None,372.79958969994914,373.3019421000499,,,,,,,,,,,,,,,,006,2022-05-06_19h44.40.477,FishGame,2022.1.1,60.01720092102189,
,11,넌 인기있어,2,Green,A,5.458333333333333,4.5,ScrollDown,ScrollUp,Green.png,3,Positive,Congruent,,,,,0,0,0,0,,,,,,,,,,,,,,,,,,,,,0,10,10,10,,,,,,,,,,,,,,,,,,,,,,,,,,,,,,,,,,,,,,,,,,,,,,,,,,,,,,,,,,,,,,,,,,,,,,,,,1.1250000099341075,0.9590728000039235,373.92604629998095,None,ScrollDown,정답입니다,373.92604629998095,None,373.92604629998095,None,373.92604629998095,None,373.92604629998095,None,374.7829371000407,None,374.7829371000407,375.2851616999833,,,,,,,,,,,,,,,,006,2022-05-06_19h44.40.477,FishGame,2022.1.1,60.01720092102189,
,12,나를 데려가줘,6,Orange,B,0,0,ScrollDown,ScrollUp,Orange.png,3,NonTarget,NonTarget,,,,,0,0,0,0,,,,,,,,,,,,,,,,,,,,,0,11,11,11,,,,,,,,,,,,,,,,,,,,,,,,,,,,,,,,,,,,,,,,,,,,,,,,,,,,,,,,,,,,,,,,,,,,,,,,,1,0.9594897000351921,375.9119158999529,None,ScrollDown,정답입니다,375.9119158999529,None,375.9119158999529,None,375.9119158999529,None,375.9119158999529,None,376.7659516000422,None,376.7659516000422,377.2660313999513,,,,,,,,,,,,,,,,006,2022-05-06_19h44.40.477,FishGame,2022.1.1,60.01720092102189,
,13,넌 뛰어나,2,Orange,B,6.166666666666667,4,ScrollUp,ScrollDown,Orange.png,3,Positive,Incongruent,,,,,0,0,0,0,,,,,,,,,,,,,,,,,,,,,0,12,12,12,,,,,,,,,,,,,,,,,,,,,,,,,,,,,,,,,,,,,,,,,,,,,,,,,,,,,,,,,,,,,,,,,,,,,,,,,2,0.9951645999681205,377.8873223999981,None,ScrollUp,정답입니다,377.8873223999981,None,377.8873223999981,None,377.8873223999981,None,377.8873223999981,None,378.7851350000128,None,378.7851350000128,379.28512090002187,,,,,,,,,,,,,,,,006,2022-05-06_19h44.40.477,FishGame,2022.1.1,60.01720092102189,
,14,넌 낙관적이야,1,Green,A,5.75,5.8,ScrollDown,ScrollUp,Green.png,3,Positive,Congruent,,,,,0,0,0,0,,,,,,,,,,,,,,,,,,,,,0,13,13,13,,,,,,,,,,,,,,,,,,,,,,,,,,,,,,,,,,,,,,,,,,,,,,,,,,,,,,,,,,,,,,,,,,,,,,,,,1,0.89857189997565,379.9040800000075,None,ScrollDown,정답입니다,379.9040800000075,None,379.9040800000075,None,379.9040800000075,None,379.9040800000075,None,380.7017664000159,None,380.7017664000159,381.20176009996794,,,,,,,,,,,,,,,,006,2022-05-06_19h44.40.477,FishGame,2022.1.1,60.01720092102189,
,15,넌 산만해,4,Orange,B,2.695652173913043,3.033333333333333,ScrollUp,ScrollDown,Orange.png,3,Negative,Congruent,,,,,0,0,0,0,,,,,,,,,,,,,,,,,,,,,0,14,14,14,,,,,,,,,,,,,,,,,,,,,,,,,,,,,,,,,,,,,,,,,,,,,,,,,,,,,,,,,,,,,,,,,,,,,,,,,1.817901223897934,0.9605499999597669,381.82730260002427,None,ScrollUp,정답입니다,381.82730260002427,None,381.82730260002427,None,381.82730260002427,None,381.82730260002427,None,382.6827777000144,None,382.6827777000144,383.184982100036,,,,,,,,,,,,,,,,006,2022-05-06_19h44.40.477,FishGame,2022.1.1,60.01720092102189,
,16,나를 보내줘,6,Green,A,0,0,ScrollUp,ScrollDown,Green.png,3,NonTarget,NonTarget,,,,,0,0,0,0,,,,,,,,,,,,,,,,,,,,,0,15,15,15,,,,,,,,,,,,,,,,,,,,,,,,,,,,,,,,,,,,,,,,,,,,,,,,,,,,,,,,,,,,,,,,,,,,,,,,,1.8086419651905696,0.9112309999763966,383.80539660004433,None,ScrollUp,정답입니다,383.80539660004433,None,383.80539660004433,None,383.80539660004433,None,383.80539660004433,None,384.61607590003405,None,384.61607590003405,385.11820829997305,,,,,,,,,,,,,,,,006,2022-05-06_19h44.40.477,FishGame,2022.1.1,60.01720092102189,
,17,넌 교활해,5,Orange,B,2.333333333333333,2.133333333333333,ScrollUp,ScrollDown,Orange.png,3,Negative,Congruent,,,,,0,0,0,0,,,,,,,,,,,,,,,,,,,,,0,16,16,16,,,,,,,,,,,,,,,,,,,,,,,,,,,,,,,,,,,,,,,,,,,,,,,,,,,,,,,,,,,,,,,,,,,,,,,,,1.8518518557151158,0.9592777999350801,385.7453751999419,None,ScrollUp,정답입니다,385.7453751999419,None,385.7453751999419,None,385.7453751999419,None,385.7453751999419,None,386.5993471000111,None,386.5993471000111,387.1016067999881,,,,,,,,,,,,,,,,006,2022-05-06_19h44.40.477,FishGame,2022.1.1,60.01720092102189,
,18,나를 보내줘,6,Green,A,0,0,ScrollUp,ScrollDown,Green.png,3,NonTarget,NonTarget,,,,,0,0,0,0,,,,,,,,,,,,,,,,,,,,,0,17,17,17,,,,,,,,,,,,,,,,,,,,,,,,,,,,,,,,,,,,,,,,,,,,,,,,,,,,,,,,,,,,,,,,,,,,,,,,,1.6234567910432816,0.9425096999621019,387.7219291999936,None,ScrollUp,정답입니다,387.7219291999936,None,387.7219291999936,None,387.7219291999936,None,387.7219291999936,None,388.56567110004835,None,388.56567110004835,389.0657334999414,,,,,,,,,,,,,,,,006,2022-05-06_19h44.40.477,FishGame,2022.1.1,60.01720092102189,
,19,넌 불친절해,5,Orange,B,2.208333333333333,2.033333333333333,ScrollUp,ScrollDown,Orange.png,3,Negative,Congruent,,,,,0,0,0,0,,,,,,,,,,,,,,,,,,,,,0,18,18,18,,,,,,,,,,,,,,,,,,,,,,,,,,,,,,,,,,,,,,,,,,,,,,,,,,,,,,,,,,,,,,,,,,,,,,,,,1.9537037014961243,0.9281647000461817,389.6899541999446,None,ScrollUp,정답입니다,389.6899541999446,None,389.6899541999446,None,389.6899541999446,None,389.6899541999446,None,390.5156983999768,None,390.5156983999768,391.015816399944,,,,,,,,,,,,,,,,006,2022-05-06_19h44.40.477,FishGame,2022.1.1,60.01720092102189,
,20,넌 지적이야,2,Orange,B,5.75,4.366666666666666,ScrollUp,ScrollDown,Orange.png,3,Positive,Incongruent,,,,,0,0,0,0,,,,,,,,,,,,,,,,,,,,,0,19,19,19,,,,,,,,,,,,,,,,,,,,,,,,,,,,,,,,,,,,,,,,,,,,,,,,,,,,,,,,,,,,,,,,,,,,,,,,,1.9274691144625347,0.8956938999472186,391.63697450002655,None,ScrollUp,정답입니다,391.63697450002655,None,391.63697450002655,None,391.63697450002655,None,391.63697450002655,None,392.43485540000256,None,392.43485540000256,392.9383183999453,,,,,,,,,,,,,,,,006,2022-05-06_19h44.40.477,FishGame,2022.1.1,60.01720092102189,
,21,넌 우유부단해,4,Green,A,2.666666666666667,3.166666666666667,ScrollDown,ScrollUp,Green.png,3,Negative,Incongruent,,,,,0,0,0,0,,,,,,,,,,,,,,,,,,,,,0,20,20,20,,,,,,,,,,,,,,,,,,,,,,,,,,,,,,,,,,,,,,,,,,,,,,,,,,,,,,,,,,,,,,,,,,,,,,,,,1.296296296020349,0.7594888000749052,393.56205870001577,None,ScrollDown,정답입니다,393.56205870001577,None,393.56205870001577,None,393.56205870001577,None,393.56205870001577,None,394.2158390999539,None,394.2158390999539,394.7159010999603,,,,,,,,,,,,,,,,006,2022-05-06_19h44.40.477,FishGame,2022.1.1,60.01720092102189,
,22,나를 데려가줘,6,Orange,B,0,0,ScrollDown,ScrollUp,Orange.png,3,NonTarget,NonTarget,,,,,0,0,0,0,,,,,,,,,,,,,,,,,,,,,0,21,21,21,,,,,,,,,,,,,,,,,,,,,,,,,,,,,,,,,,,,,,,,,,,,,,,,,,,,,,,,,,,,,,,,,,,,,,,,,1.0061728358268738,1.0593892000615597,395.3467733999714,None,ScrollDown,정답입니다,395.3467733999714,None,395.3467733999714,None,395.3467733999714,None,395.3467733999714,None,396.3013174999505,None,396.3013174999505,396.7991809999803,,,,,,,,,,,,,,,,006,2022-05-06_19h44.40.477,FishGame,2022.1.1,60.01720092102189,
,23,넌 성실해,1,Orange,B,6.041666666666666,5.7,ScrollUp,ScrollDown,Orange.png,3,Positive,Incongruent,,,,,0,0,0,0,,,,,,,,,,,,,,,,,,,,,0,22,22,22,,,,,,,,,,,,,,,,,,,,,,,,,,,,,,,,,,,,,,,,,,,,,,,,,,,,,,,,,,,,,,,,,,,,,,,,,1.6651234552264214,0.8424954001093283,397.43388439994305,None,ScrollUp,정답입니다,397.43388439994305,None,397.43388439994305,None,397.43388439994305,None,397.43388439994305,None,398.16547939996235,None,398.16547939996235,398.665553299943,,,,,,,,,,,,,,,,006,2022-05-06_19h44.40.477,FishGame,2022.1.1,60.01720092102189,
,24,넌 현실주의적이야,3,Green,A,4.625,4.4,ScrollDown,ScrollUp,Green.png,3,Neutral,Neutral,,,,,0,0,0,0,,,,,,,,,,,,,,,,,,,,,0,23,23,23,,,,,,,,,,,,,,,,,,,,,,,,,,,,,,,,,,,,,,,,,,,,,,,,,,,,,,,,,,,,,,,,,,,,,,,,,1,1.0113536999560893,399.28606680000667,None,ScrollDown,정답입니다,399.28606680000667,None,399.28606680000667,None,399.28606680000667,None,399.28606680000667,None,400.1988209999399,None,400.1988209999399,400.70137689996045,,,,,,,,,,,,,,,,006,2022-05-06_19h44.40.477,FishGame,2022.1.1,60.01720092102189,
,25,넌 진실돼,1,Green,A,6.625,5.566666666666666,ScrollDown,ScrollUp,Green.png,3,Positive,Congruent,,,,,0,0,0,0,,,,,,,,,,,,,,,,,,,,,0,24,24,24,,,,,,,,,,,,,,,,,,,,,,,,,,,,,,,,,,,,,,,,,,,,,,,,,,,,,,,,,,,,,,,,,,,,,,,,,1.0123456915219624,0.8986482000909746,401.3197742999764,None,ScrollDown,정답입니다,401.3197742999764,None,401.3197742999764,None,401.3197742999764,None,401.3197742999764,None,402.1179822999984,None,402.1179822999984,402.6180096999742,,,,,,,,,,,,,,,,006,2022-05-06_19h44.40.477,FishGame,2022.1.1,60.01720092102189,
,26,넌 천진난만해,3,Orange,B,4.958333333333334,4.833333333333333,ScrollUp,ScrollDown,Orange.png,3,Neutral,Neutral,,,,,0,0,0,0,,,,,,,,,,,,,,,,,,,,,0,25,25,25,,,,,,,,,,,,,,,,,,,,,,,,,,,,,,,,,,,,,,,,,,,,,,,,,,,,,,,,,,,,,,,,,,,,,,,,,1.4830246918524306,0.8293828999157995,403.245024099946,None,NoResponse,무응답입니다,403.245024099946,None,403.245024099946,None,403.245024099946,None,403.245024099946,None,403.9653640999459,None,403.9653640999459,404.46542519994546,,,,,,,,,,,,,,,,006,2022-05-06_19h44.40.477,FishGame,2022.1.1,60.01720092102189,
,27,넌 교양없어,5,Green,A,2.416666666666667,2.2,ScrollDown,ScrollUp,Green.png,3,Negative,Incongruent,,,,,0,0,0,0,,,,,,,,,,,,,,,,,,,,,0,26,26,26,,,,,,,,,,,,,,,,,,,,,,,,,,,,,,,,,,,,,,,,,,,,,,,,,,,,,,,,,,,,,,,,,,,,,,,,,1.1172839403152466,0.8780624000355601,405.0897678999463,None,ScrollDown,정답입니다,405.0897678999463,None,405.0897678999463,None,405.0897678999463,None,405.0897678999463,None,405.8653644999722,None,405.8653644999722,406.3654444999993,,,,,,,,,,,,,,,,006,2022-05-06_19h44.40.477,FishGame,2022.1.1,60.01720092102189,
,28,나를 보내줘,6,Green,A,0,0,ScrollUp,ScrollDown,Green.png,3,NonTarget,NonTarget,,,,,0,0,0,0,,,,,,,,,,,,,,,,,,,,,0,27,27,27,,,,,,,,,,,,,,,,,,,,,,,,,,,,,,,,,,,,,,,,,,,,,,,,,,,,,,,,,,,,,,,,,,,,,,,,,2,0.8935151000041515,406.9859790999908,None,ScrollUp,정답입니다,406.9859790999908,None,406.9859790999908,None,406.9859790999908,None,406.9859790999908,None,407.78451629995834,None,407.78451629995834,408.2844947000267,,,,,,,,,,,,,,,,006,2022-05-06_19h44.40.477,FishGame,2022.1.1,60.01720092102189,
,29,넌 엉뚱스러워,3,Green,A,4.166666666666667,4.133333333333334,ScrollDown,ScrollUp,Green.png,3,Neutral,Neutral,,,,,0,0,0,0,,,,,,,,,,,,,,,,,,,,,0,28,28,28,,,,,,,,,,,,,,,,,,,,,,,,,,,,,,,,,,,,,,,,,,,,,,,,,,,,,,,,,,,,,,,,,,,,,,,,,1,0.9780143999960274,408.922743299976,None,ScrollDown,정답입니다,408.922743299976,None,408.922743299976,None,408.922743299976,None,408.922743299976,None,409.8009903000202,None,409.8009903000202,410.3176749999402,,,,,,,,,,,,,,,,006,2022-05-06_19h44.40.477,FishGame,2022.1.1,60.01720092102189,
,30,넌 무지해,4,Orange,B,2.541666666666667,3.066666666666667,ScrollUp,ScrollDown,Orange.png,3,Negative,Congruent,,,,,0,0,0,0,,,,,,,,,,,,,,,,,,,,,0,29,29,29,,,,,,,,,,,,,,,,,,,,,,,,,,,,,,,,,,,,,,,,,,,,,,,,,,,,,,,,,,,,,,,,,,,,,,,,,2,0.8756318000378087,410.92683540005237,None,ScrollUp,정답입니다,410.92683540005237,None,410.92683540005237,None,410.92683540005237,None,410.92683540005237,None,411.69851130002644,None,411.69851130002644,412.19859459996223,,,,,,,,,,,,,,,,006,2022-05-06_19h44.40.477,FishGame,2022.1.1,60.01720092102189,
,31,넌 음울해,5,Orange,B,2.25,2.233333333333333,ScrollUp,ScrollDown,Orange.png,3,Negative,Congruent,,,,,0,0,0,0,,,,,,,,,,,,,,,,,,,,,0,30,30,30,,,,,,,,,,,,,,,,,,,,,,,,,,,,,,,,,,,,,,,,,,,,,,,,,,,,,,,,,,,,,,,,,,,,,,,,,2,0.9613757999613881,412.8228019999806,None,ScrollUp,정답입니다,412.8228019999806,None,412.8228019999806,None,412.8228019999806,None,412.8228019999806,None,413.68185549997725,None,413.68185549997725,414.18439149996266,,,,,,,,,,,,,,,,006,2022-05-06_19h44.40.477,FishGame,2022.1.1,60.01720092102189,
,32,넌 냉소적이야,5,Green,A,2.916666666666667,2.4,ScrollDown,ScrollUp,Green.png,3,Negative,Incongruent,,,,,0,0,0,0,,,,,,,,,,,,,,,,,,,,,0,31,31,31,,,,,,,,,,,,,,,,,,,,,,,,,,,,,,,,,,,,,,,,,,,,,,,,,,,,,,,,,,,,,,,,,,,,,,,,,1,1.0463264000136405,414.8010011999868,None,ScrollDown,정답입니다,414.8010011999868,None,414.8010011999868,None,414.8010011999868,None,414.8010011999868,None,415.75099109997973,None,415.75099109997973,416.2509985000361,,,,,,,,,,,,,,,,006,2022-05-06_19h44.40.477,FishGame,2022.1.1,60.01720092102189,
,33,나를 데려가줘,6,Orange,B,0,0,ScrollDown,ScrollUp,Orange.png,3,NonTarget,NonTarget,,,,,0,0,0,0,,,,,,,,,,,,,,,,,,,,,0,32,32,32,,,,,,,,,,,,,,,,,,,,,,,,,,,,,,,,,,,,,,,,,,,,,,,,,,,,,,,,,,,,,,,,,,,,,,,,,1.0416666567325592,0.9270964000606909,416.87179190001916,None,ScrollDown,정답입니다,416.87179190001916,None,416.87179190001916,None,416.87179190001916,None,416.87179190001916,None,417.6986778000137,None,417.6986778000137,418.20079809997696,,,,,,,,,,,,,,,,006,2022-05-06_19h44.40.477,FishGame,2022.1.1,60.01720092102189,
,34,넌 쾌활해,1,Green,A,5.541666666666666,5.733333333333333,ScrollDown,ScrollUp,Green.png,3,Positive,Congruent,,,,,0,0,0,0,,,,,,,,,,,,,,,,,,,,,0,33,33,33,,,,,,,,,,,,,,,,,,,,,,,,,,,,,,,,,,,,,,,,,,,,,,,,,,,,,,,,,,,,,,,,,,,,,,,,,1.0586419602235158,0.9091096000047401,418.8228213000111,None,ScrollDown,정답입니다,418.8228213000111,None,418.8228213000111,None,418.8228213000111,None,418.8228213000111,None,419.6318186999997,None,419.6318186999997,420.13214510004036,,,,,,,,,,,,,,,,006,2022-05-06_19h44.40.477,FishGame,2022.1.1,60.01720092102189,
,35,나를 보내줘,6,Green,A,0,0,ScrollUp,ScrollDown,Green.png,3,NonTarget,NonTarget,,,,,0,0,0,0,,,,,,,,,,,,,,,,,,,,,0,34,34,34,,,,,,,,,,,,,,,,,,,,,,,,,,,,,,,,,,,,,,,,,,,,,,,,,,,,,,,,,,,,,,,,,,,,,,,,,2,1.0946892999345437,420.75895829999354,None,ScrollUp,정답입니다,420.75895829999354,None,420.75895829999354,None,420.75895829999354,None,420.75895829999354,None,421.74860069993883,None,421.74860069993883,422.25104620005004,,,,,,,,,,,,,,,,006,2022-05-06_19h44.40.477,FishGame,2022.1.1,60.01720092102189,
,36,넌 명랑해,1,Orange,B,5.739130434782609,5.666666666666667,ScrollUp,ScrollDown,Orange.png,3,Positive,Incongruent,,,,,0,0,0,0,,,,,,,,,,,,,,,,,,,,,0,35,35,35,,,,,,,,,,,,,,,,,,,,,,,,,,,,,,,,,,,,,,,,,,,,,,,,,,,,,,,,,,,,,,,,,,,,,,,,,1.8163580348094304,0.9920737999491394,422.87927299994044,None,ScrollUp,정답입니다,422.87927299994044,None,422.87927299994044,None,422.87927299994044,None,422.87927299994044,None,423.76492139999755,None,423.76492139999755,424.2649999000132,,,,,,,,,,,,,,,,006,2022-05-06_19h44.40.477,FishGame,2022.1.1,60.01720092102189,
,37,넌 멍해,4,Green,A,2.833333333333333,3.4,ScrollDown,ScrollUp,Green.png,3,Negative,Incongruent,,,,,0,0,0,0,,,,,,,,,,,,,,,,,,,,,0,36,36,36,,,,,,,,,,,,,,,,,,,,,,,,,,,,,,,,,,,,,,,,,,,,,,,,,,,,,,,,,,,,,,,,,,,,,,,,,1.1466049303611119,0.830440399935469,424.8938189999899,None,ScrollDown,정답입니다,424.8938189999899,None,424.8938189999899,None,424.8938189999899,None,424.8938189999899,None,425.61743650003336,None,425.61743650003336,426.1174596999772,,,,,,,,,,,,,,,,006,2022-05-06_19h44.40.477,FishGame,2022.1.1,60.01720092102189,
,38,나를 데려가줘,6,Orange,B,0,0,ScrollDown,ScrollUp,Orange.png,3,NonTarget,NonTarget,,,,,0,0,0,0,,,,,,,,,,,,,,,,,,,,,0,37,37,37,,,,,,,,,,,,,,,,,,,,,,,,,,,,,,,,,,,,,,,,,,,,,,,,,,,,,,,,,,,,,,,,,,,,,,,,,1,0.9793502999236807,426.7399407000048,None,ScrollDown,정답입니다,426.7399407000048,None,426.7399407000048,None,426.7399407000048,None,426.7399407000048,None,427.617426999961,None,427.617426999961,428.1172880999511,,,,,,,,,,,,,,,,006,2022-05-06_19h44.40.477,FishGame,2022.1.1,60.01720092102189,
,39,넌 현명해,2,Green,A,6.541666666666666,4.533333333333333,ScrollDown,ScrollUp,Green.png,3,Positive,Congruent,,,,,0,0,0,0,,,,,,,,,,,,,,,,,,,,,0,38,38,38,,,,,,,,,,,,,,,,,,,,,,,,,,,,,,,,,,,,,,,,,,,,,,,,,,,,,,,,,,,,,,,,,,,,,,,,,1.0540123681227367,0.8594942999770865,428.73643669998273,None,ScrollDown,정답입니다,428.73643669998273,None,428.73643669998273,None,428.73643669998273,None,428.73643669998273,None,429.5005214000121,None,429.5005214000121,429.99857820000034,,,,,,,,,,,,,,,,006,2022-05-06_19h44.40.477,FishGame,2022.1.1,60.01720092102189,
,40,넌 수줍어,3,Orange,B,3.541666666666666,4.366666666666666,ScrollUp,ScrollDown,Orange.png,3,Neutral,Neutral,,,,,0,0,0,0,,,,,,,,,,,,,,,,,,,,,0,39,39,39,,,,,,,,,,,,,,,,,,,,,,,,,,,,,,,,,,,,,,,,,,,,,,,,,,,,,,,,,,,,,,,,,,,,,,,,,1.8549382835626602,0.8590879000257701,430.63083279994316,None,ScrollUp,정답입니다,430.63083279994316,None,430.63083279994316,None,430.63083279994316,None,430.63083279994316,None,431.3817192999413,None,431.3817192999413,431.8840229000198,,,,,,,,,,,,,,,,006,2022-05-06_19h44.40.477,FishGame,2022.1.1,60.01720092102189,
,41,나를 데려가줘,6,Orange,B,0,0,ScrollDown,ScrollUp,Orange.png,3,NonTarget,NonTarget,,,,,0,0,0,0,,,,,,,,,,,,,,,,,,,,,0,40,40,40,,,,,,,,,,,,,,,,,,,,,,,,,,,,,,,,,,,,,,,,,,,,,,,,,,,,,,,,,,,,,,,,,,,,,,,,,1.0447530845801036,0.8774766999995336,432.50830909993965,None,ScrollDown,정답입니다,432.50830909993965,None,432.50830909993965,None,432.50830909993965,None,432.50830909993965,None,433.28170880000107,None,433.28170880000107,433.78739329997916,,,,,,,,,,,,,,,,006,2022-05-06_19h44.40.477,FishGame,2022.1.1,60.01720092102189,
,42,넌 성숙해,2,Orange,B,5.833333333333333,4.533333333333333,ScrollUp,ScrollDown,Orange.png,3,Positive,Incongruent,,,,,0,0,0,0,,,,,,,,,,,,,,,,,,,,,0,41,41,41,,,,,,,,,,,,,,,,,,,,,,,,,,,,,,,,,,,,,,,,,,,,,,,,,,,,,,,,,,,,,,,,,,,,,,,,,2,1.0593341999920085,434.40635079995263,None,ScrollUp,정답입니다,434.40635079995263,None,434.40635079995263,None,434.40635079995263,None,434.40635079995263,None,435.3671570000006,None,435.3671570000006,435.881723199971,,,,,,,,,,,,,,,,006,2022-05-06_19h44.40.477,FishGame,2022.1.1,60.01720092102189,
,1,넌 매력적이야,2,Orange,B,6.125,4.666666666666667,ScrollUp,ScrollDown,Orange.png,4,Positive,Incongruent,,,,,0,0,0,0,,,,,,,,,,,,,,,,,,,,,,,,,0,0,0,0,,,,,,,,,,,,,,,,,,,,,,,,,,,,467.81629979994614,469.3332269999664,469.34990489995107,470.2999370000325,470.3499339999398,471.3165737000527,471.29990840004757,None,,,,,,,,,,,,,,,,,,,,,,,,,,,,,,,,,,1.9552469154198964,0.9958634000504389,472.4049085000297,None,ScrollUp,정답입니다,472.4049085000297,None,472.4049085000297,None,472.4049085000297,None,472.4049085000297,None,473.29968980001286,None,473.29968980001286,473.79747019999195,436.3671498999465,None,436.3671498999465,None,-0.0712963,-0.05740741,1,0,0,0.016121539985761046,None,466.36638919997495,None,,,006,2022-05-06_19h44.40.477,FishGame,2022.1.1,60.01720092102189,
,2,나를 보내줘,6,Green,A,0,0,ScrollUp,ScrollDown,Green.png,4,NonTarget,NonTarget,,,,,0,0,0,0,,,,,,,,,,,,,,,,,,,,,,,,,0,1,1,1,,,,,,,,,,,,,,,,,,,,,,,,,,,,,,,,,,,,,,,,,,,,,,,,,,,,,,,,,,,,,,,,,,,,,1.5925925932824612,0.9425820000469685,474.4382545000408,None,ScrollUp,정답입니다,474.4382545000408,None,474.4382545000408,None,474.4382545000408,None,474.4382545000408,None,475.2807241999544,None,475.2807241999544,475.7809000000125,,,,,,,,,,,,,,,,006,2022-05-06_19h44.40.477,FishGame,2022.1.1,60.01720092102189,
,3,넌 조심스러워,3,Green,A,4.791666666666666,4.666666666666667,ScrollDown,ScrollUp,Green.png,4,Neutral,Neutral,,,,,0,0,0,0,,,,,,,,,,,,,,,,,,,,,,,,,0,2,2,2,,,,,,,,,,,,,,,,,,,,,,,,,,,,,,,,,,,,,,,,,,,,,,,,,,,,,,,,,,,,,,,,,,,,,1.0848765472571056,0.8780866999877617,476.40430189995095,None,ScrollDown,정답입니다,476.40430189995095,None,476.40430189995095,None,476.40430189995095,None,476.40430189995095,None,477.1829030000372,None,477.1829030000372,477.6830398000311,,,,,,,,,,,,,,,,006,2022-05-06_19h44.40.477,FishGame,2022.1.1,60.01720092102189,
,4,넌 철학적이야,3,Orange,B,4.5,4.266666666666667,ScrollUp,ScrollDown,Orange.png,4,Neutral,Neutral,,,,,0,0,0,0,,,,,,,,,,,,,,,,,,,,,,,,,0,3,3,3,,,,,,,,,,,,,,,,,,,,,,,,,,,,,,,,,,,,,,,,,,,,,,,,,,,,,,,,,,,,,,,,,,,,,1.9552469154198964,0.8759542000479996,478.3110704999417,None,ScrollUp,정답입니다,478.3110704999417,None,478.3110704999417,None,478.3110704999417,None,478.3110704999417,None,479.0806336000096,None,479.0806336000096,479.5828603999689,,,,,,,,,,,,,,,,006,2022-05-06_19h44.40.477,FishGame,2022.1.1,60.01720092102189,
,5,넌 쩨쩨해,5,Green,A,2.375,2.133333333333333,ScrollDown,ScrollUp,Green.png,4,Negative,Incongruent,,,,,0,0,0,0,,,,,,,,,,,,,,,,,,,,,,,,,0,4,4,4,,,,,,,,,,,,,,,,,,,,,,,,,,,,,,,,,,,,,,,,,,,,,,,,,,,,,,,,,,,,,,,,,,,,,1.0154321193695068,0.8764887000434101,480.20492299995385,None,ScrollDown,정답입니다,480.20492299995385,None,480.20492299995385,None,480.20492299995385,None,480.20492299995385,None,480.9827814999735,None,480.9827814999735,481.49948779994156,,,,,,,,,,,,,,,,006,2022-05-06_19h44.40.477,FishGame,2022.1.1,60.01720092102189,
,6,나를 데려가줘,6,Orange,B,0,0,ScrollDown,ScrollUp,Orange.png,4,NonTarget,NonTarget,,,,,0,0,0,0,,,,,,,,,,,,,,,,,,,,,,,,,0,5,5,5,,,,,,,,,,,,,,,,,,,,,,,,,,,,,,,,,,,,,,,,,,,,,,,,,,,,,,,,,,,,,,,,,,,,,1.0385802288850148,0.9093815999804065,482.1060260999948,None,ScrollDown,정답입니다,482.1060260999948,None,482.1060260999948,None,482.1060260999948,None,482.1060260999948,None,482.9139622000512,None,482.9139622000512,483.4139644999523,,,,,,,,,,,,,,,,006,2022-05-06_19h44.40.477,FishGame,2022.1.1,60.01720092102189,
,7,넌 고집불통이야,5,Orange,B,2.875,2,ScrollUp,ScrollDown,Orange.png,4,Negative,Congruent,,,,,0,0,0,0,,,,,,,,,,,,,,,,,,,,,,,,,0,6,6,6,,,,,,,,,,,,,,,,,,,,,,,,,,,,,,,,,,,,,,,,,,,,,,,,,,,,,,,,,,,,,,,,,,,,,1.9429012537002563,1.0094687000382692,484.04565810004715,None,ScrollUp,정답입니다,484.04565810004715,None,484.04565810004715,None,484.04565810004715,None,484.04565810004715,None,484.94693350000307,None,484.94693350000307,485.44700359995477,,,,,,,,,,,,,,,,006,2022-05-06_19h44.40.477,FishGame,2022.1.1,60.01720092102189,
,8,넌 무심해,4,Green,A,2.875,3.2,ScrollDown,ScrollUp,Green.png,4,Negative,Incongruent,,,,,0,0,0,0,,,,,,,,,,,,,,,,,,,,,,,,,0,7,7,7,,,,,,,,,,,,,,,,,,,,,,,,,,,,,,,,,,,,,,,,,,,,,,,,,,,,,,,,,,,,,,,,,,,,,1.121913582086563,0.8805809000041336,486.06653910002206,None,ScrollDown,정답입니다,486.06653910002206,None,486.06653910002206,None,486.06653910002206,None,486.06653910002206,None,486.84949569997843,None,486.84949569997843,487.34949819999747,,,,,,,,,,,,,,,,006,2022-05-06_19h44.40.477,FishGame,2022.1.1,60.01720092102189,
,9,넌 정겨워,1,Green,A,5.791666666666667,5.666666666666667,ScrollDown,ScrollUp,Green.png,4,Positive,Congruent,,,,,0,0,0,0,,,,,,,,,,,,,,,,,,,,,,,,,0,8,8,8,,,,,,,,,,,,,,,,,,,,,,,,,,,,,,,,,,,,,,,,,,,,,,,,,,,,,,,,,,,,,,,,,,,,,1.0370370149612427,0.8460916999028996,487.9692503999686,None,ScrollDown,정답입니다,487.9692503999686,None,487.9692503999686,None,487.9692503999686,None,487.9692503999686,None,488.7161342999898,None,488.7161342999898,489.2192332999548,,,,,,,,,,,,,,,,006,2022-05-06_19h44.40.477,FishGame,2022.1.1,60.01720092102189,
,10,나를 데려가줘,6,Orange,B,0,0,ScrollDown,ScrollUp,Orange.png,4,NonTarget,NonTarget,,,,,0,0,0,0,,,,,,,,,,,,,,,,,,,,,,,,,0,9,9,9,,,,,,,,,,,,,,,,,,,,,,,,,,,,,,,,,,,,,,,,,,,,,,,,,,,,,,,,,,,,,,,,,,,,,1.1342592686414719,0.9760853999760002,489.84265849995427,None,ScrollDown,정답입니다,489.84265849995427,None,489.84265849995427,None,489.84265849995427,None,489.84265849995427,None,490.7159647999797,None,490.7159647999797,491.2160095999716,,,,,,,,,,,,,,,,006,2022-05-06_19h44.40.477,FishGame,2022.1.1,60.01720092102189,
,11,넌 체제순응적이야,4,Orange,B,3,3.6,ScrollUp,ScrollDown,Orange.png,4,Negative,Congruent,,,,,0,0,0,0,,,,,,,,,,,,,,,,,,,,,,,,,0,10,10,10,,,,,,,,,,,,,,,,,,,,,,,,,,,,,,,,,,,,,,,,,,,,,,,,,,,,,,,,,,,,,,,,,,,,,2,1.0228234000969678,491.8540826999815,None,ScrollUp,정답입니다,491.8540826999815,None,491.8540826999815,None,491.8540826999815,None,491.8540826999815,None,492.7634559000144,None,492.7634559000144,493.2635213000467,,,,,,,,,,,,,,,,006,2022-05-06_19h44.40.477,FishGame,2022.1.1,60.01720092102189,
,12,나를 보내줘,6,Green,A,0,0,ScrollUp,ScrollDown,Green.png,4,NonTarget,NonTarget,,,,,0,0,0,0,,,,,,,,,,,,,,,,,,,,,,,,,0,11,11,11,,,,,,,,,,,,,,,,,,,,,,,,,,,,,,,,,,,,,,,,,,,,,,,,,,,,,,,,,,,,,,,,,,,,,1.9691357910633087,1.0302681000903249,493.88720809994265,None,ScrollUp,정답입니다,493.88720809994265,None,493.88720809994265,None,493.88720809994265,None,493.88720809994265,None,494.81598830001894,None,494.81598830001894,495.3159510999685,,,,,,,,,,,,,,,,006,2022-05-06_19h44.40.477,FishGame,2022.1.1,60.01720092102189,
,13,넌 박식해,2,Green,A,5.625,3.933333333333333,ScrollDown,ScrollUp,Green.png,4,Positive,Congruent,,,,,0,0,0,0,,,,,,,,,,,,,,,,,,,,,,,,,0,12,12,12,,,,,,,,,,,,,,,,,,,,,,,,,,,,,,,,,,,,,,,,,,,,,,,,,,,,,,,,,,,,,,,,,,,,,1,0.9129537000553682,495.93629550002515,None,ScrollDown,정답입니다,495.93629550002515,None,495.93629550002515,None,495.93629550002515,None,495.93629550002515,None,496.7492633999791,None,496.7492633999791,497.26584739994723,,,,,,,,,,,,,,,,006,2022-05-06_19h44.40.477,FishGame,2022.1.1,60.01720092102189,
,14,나를 보내줘,6,Green,A,0,0,ScrollUp,ScrollDown,Green.png,4,NonTarget,NonTarget,,,,,0,0,0,0,,,,,,,,,,,,,,,,,,,,,,,,,0,13,13,13,,,,,,,,,,,,,,,,,,,,,,,,,,,,,,,,,,,,,,,,,,,,,,,,,,,,,,,,,,,,,,,,,,,,,1.9274691144625347,1.059373200056143,497.8687166000018,None,ScrollUp,정답입니다,497.8687166000018,None,497.8687166000018,None,497.8687166000018,None,497.8687166000018,None,498.8302438999526,None,498.8302438999526,499.3325477000326,,,,,,,,,,,,,,,,006,2022-05-06_19h44.40.477,FishGame,2022.1.1,60.01720092102189,
,15,넌 침착해,1,Orange,B,5.458333333333333,5.566666666666666,ScrollUp,ScrollDown,Orange.png,4,Positive,Incongruent,,,,,0,0,0,0,,,,,,,,,,,,,,,,,,,,,,,,,0,14,14,14,,,,,,,,,,,,,,,,,,,,,,,,,,,,,,,,,,,,,,,,,,,,,,,,,,,,,,,,,,,,,,,,,,,,,1.89969136317571,1.0756830000318587,499.96266900002956,None,ScrollUp,정답입니다,499.96266900002956,None,499.96266900002956,None,499.96266900002956,None,499.96266900002956,None,500.92993290000595,None,500.92993290000595,501.4300456000492,,,,,,,,,,,,,,,,006,2022-05-06_19h44.40.477,FishGame,2022.1.1,60.01720092102189,
,16,나를 데려가줘,6,Orange,B,0,0,ScrollDown,ScrollUp,Orange.png,4,NonTarget,NonTarget,,,,,0,0,0,0,,,,,,,,,,,,,,,,,,,,,,,,,0,15,15,15,,,,,,,,,,,,,,,,,,,,,,,,,,,,,,,,,,,,,,,,,,,,,,,,,,,,,,,,,,,,,,,,,,,,,1.09413580596447,0.9641030000057071,502.0534483999945,None,ScrollDown,정답입니다,502.0534483999945,None,502.0534483999945,None,502.0534483999945,None,502.0534483999945,None,502.91580069996417,None,502.91580069996417,503.41582819994073,,,,,,,,,,,,,,,,006,2022-05-06_19h44.40.477,FishGame,2022.1.1,60.01720092102189,
,17,넌 행복해,1,Green,A,6.416666666666666,6.166666666666667,ScrollDown,ScrollUp,Green.png,4,Positive,Congruent,,,,,0,0,0,0,,,,,,,,,,,,,,,,,,,,,,,,,0,16,16,16,,,,,,,,,,,,,,,,,,,,,,,,,,,,,,,,,,,,,,,,,,,,,,,,,,,,,,,,,,,,,,,,,,,,,1.1450617164373398,0.9090902999741957,504.0391501999693,None,ScrollDown,정답입니다,504.0391501999693,None,504.0391501999693,None,504.0391501999693,None,504.0391501999693,None,504.84215709997807,None,504.84215709997807,505.3489906999748,,,,,,,,,,,,,,,,006,2022-05-06_19h44.40.477,FishGame,2022.1.1,60.01720092102189,
,18,넌 겸손해,2,Orange,B,5.791666666666667,4.766666666666667,ScrollUp,ScrollDown,Orange.png,4,Positive,Incongruent,,,,,0,0,0,0,,,,,,,,,,,,,,,,,,,,,,,,,0,17,17,17,,,,,,,,,,,,,,,,,,,,,,,,,,,,,,,,,,,,,,,,,,,,,,,,,,,,,,,,,,,,,,,,,,,,,1.9336419701576233,0.992993799969554,505.975483700051,None,ScrollUp,정답입니다,505.975483700051,None,505.975483700051,None,505.975483700051,None,505.975483700051,None,506.86343659996055,None,506.86343659996055,507.36566520005,,,,,,,,,,,,,,,,006,2022-05-06_19h44.40.477,FishGame,2022.1.1,60.01720092102189,
,19,나를 보내줘,6,Green,A,0,0,ScrollUp,ScrollDown,Green.png,4,NonTarget,NonTarget,,,,,0,0,0,0,,,,,,,,,,,,,,,,,,,,,,,,,0,18,18,18,,,,,,,,,,,,,,,,,,,,,,,,,,,,,,,,,,,,,,,,,,,,,,,,,,,,,,,,,,,,,,,,,,,,,1.8503086417913437,1.058857399970293,507.99347300000954,None,ScrollUp,정답입니다,507.99347300000954,None,507.99347300000954,None,507.99347300000954,None,507.99347300000954,None,508.9464183000382,None,508.9464183000382,509.44670480000786,,,,,,,,,,,,,,,,006,2022-05-06_19h44.40.477,FishGame,2022.1.1,60.01720092102189,
,20,넌 의심없어,3,Green,A,4.166666666666667,4.6,ScrollDown,ScrollUp,Green.png,4,Neutral,Neutral,,,,,0,0,0,0,,,,,,,,,,,,,,,,,,,,,,,,,0,19,19,19,,,,,,,,,,,,,,,,,,,,,,,,,,,,,,,,,,,,,,,,,,,,,,,,,,,,,,,,,,,,,,,,,,,,,1.1790123482545216,0.8977258999366313,510.064663499943,None,ScrollDown,정답입니다,510.064663499943,None,510.064663499943,None,510.064663499943,None,510.064663499943,None,510.86343739996664,None,510.86343739996664,511.3656954000471,,,,,,,,,,,,,,,,006,2022-05-06_19h44.40.477,FishGame,2022.1.1,60.01720092102189,
,21,넌 시시해,4,Green,A,2.666666666666667,2.966666666666667,ScrollDown,ScrollUp,Green.png,4,Negative,Incongruent,,,,,0,0,0,0,,,,,,,,,,,,,,,,,,,,,,,,,0,20,20,20,,,,,,,,,,,,,,,,,,,,,,,,,,,,,,,,,,,,,,,,,,,,,,,,,,,,,,,,,,,,,,,,,,,,,1.2314814726511638,0.8624035000102594,511.97942180000246,None,ScrollDown,정답입니다,511.97942180000246,None,511.97942180000246,None,511.97942180000246,None,511.97942180000246,None,512.7467427999945,None,512.7467427999945,513.2521243999945,,,,,,,,,,,,,,,,006,2022-05-06_19h44.40.477,FishGame,2022.1.1,60.01720092102189,
,22,나를 데려가줘,6,Orange,B,0,0,ScrollDown,ScrollUp,Orange.png,4,NonTarget,NonTarget,,,,,0,0,0,0,,,,,,,,,,,,,,,,,,,,,,,,,0,21,21,21,,,,,,,,,,,,,,,,,,,,,,,,,,,,,,,,,,,,,,,,,,,,,,,,,,,,,,,,,,,,,,,,,,,,,1.1095678955316544,0.909345900057815,513.8776806000387,None,ScrollDown,정답입니다,513.8776806000387,None,513.8776806000387,None,513.8776806000387,None,513.8776806000387,None,514.6821274999529,None,514.6821274999529,515.1822249999968,,,,,,,,,,,,,,,,006,2022-05-06_19h44.40.477,FishGame,2022.1.1,60.01720092102189,
,23,넌 무정해,5,Green,A,2.5,2.2,ScrollDown,ScrollUp,Green.png,4,Negative,Incongruent,,,,,0,0,0,0,,,,,,,,,,,,,,,,,,,,,,,,,0,22,22,22,,,,,,,,,,,,,,,,,,,,,,,,,,,,,,,,,,,,,,,,,,,,,,,,,,,,,,,,,,,,,,,,,,,,,1.2592592487732568,0.8972685999469832,515.8170122000156,None,ScrollDown,정답입니다,515.8170122000156,None,515.8170122000156,None,515.8170122000156,None,515.8170122000156,None,516.6131707000313,None,516.6131707000313,517.1131851000246,,,,,,,,,,,,,,,,006,2022-05-06_19h44.40.477,FishGame,2022.1.1,60.01720092102189,
,24,넌 긍정적이야,1,Orange,B,6.041666666666667,6.066666666666666,ScrollUp,ScrollDown,Orange.png,4,Positive,Incongruent,,,,,0,0,0,0,,,,,,,,,,,,,,,,,,,,,,,,,0,23,23,23,,,,,,,,,,,,,,,,,,,,,,,,,,,,,,,,,,,,,,,,,,,,,,,,,,,,,,,,,,,,,,,,,,,,,1.8549382835626602,0.9135034999344498,517.7404717999743,None,ScrollUp,정답입니다,517.7404717999743,None,517.7404717999743,None,517.7404717999743,None,517.7404717999743,None,518.5465195999714,None,518.5465195999714,519.046657799976,,,,,,,,,,,,,,,,006,2022-05-06_19h44.40.477,FishGame,2022.1.1,60.01720092102189,
,25,나를 보내줘,6,Green,A,0,0,ScrollUp,ScrollDown,Green.png,4,NonTarget,NonTarget,,,,,0,0,0,0,,,,,,,,,,,,,,,,,,,,,,,,,0,24,24,24,,,,,,,,,,,,,,,,,,,,,,,,,,,,,,,,,,,,,,,,,,,,,,,,,,,,,,,,,,,,,,,,,,,,,1.7222222338120141,0.9077413999475539,519.6644881999819,None,ScrollUp,정답입니다,519.6644881999819,None,519.6644881999819,None,519.6644881999819,None,519.6644881999819,None,520.4751078999834,None,520.4751078999834,520.9795750000048,,,,,,,,,,,,,,,,006,2022-05-06_19h44.40.477,FishGame,2022.1.1,60.01720092102189,
,26,넌 시기심이 많아,5,Orange,B,2.458333333333333,2.233333333333333,ScrollUp,ScrollDown,Orange.png,4,Negative,Congruent,,,,,0,0,0,0,,,,,,,,,,,,,,,,,,,,,,,,,0,25,25,25,,,,,,,,,,,,,,,,,,,,,,,,,,,,,,,,,,,,,,,,,,,,,,,,,,,,,,,,,,,,,,,,,,,,,1.7746913582086563,0.8284717999631539,521.6049870999996,None,ScrollUp,정답입니다,521.6049870999996,None,521.6049870999996,None,521.6049870999996,None,521.6049870999996,None,522.3295278999722,None,522.3295278999722,522.8296236000024,,,,,,,,,,,,,,,,006,2022-05-06_19h44.40.477,FishGame,2022.1.1,60.01720092102189,
,27,넌 탁월해,2,Green,A,5.708333333333334,4.5,ScrollDown,ScrollUp,Green.png,4,Positive,Congruent,,,,,0,0,0,0,,,,,,,,,,,,,,,,,,,,,,,,,0,26,26,26,,,,,,,,,,,,,,,,,,,,,,,,,,,,,,,,,,,,,,,,,,,,,,,,,,,,,,,,,,,,,,,,,,,,,1.0185184975465138,0.8782386000966653,523.457974000019,None,ScrollDown,정답입니다,523.457974000019,None,523.457974000019,None,523.457974000019,None,523.457974000019,None,524.2320120000513,None,524.2320120000513,524.7321101999842,,,,,,,,,,,,,,,,006,2022-05-06_19h44.40.477,FishGame,2022.1.1,60.01720092102189,
,28,나를 데려가줘,6,Orange,B,0,0,ScrollDown,ScrollUp,Orange.png,4,NonTarget,NonTarget,,,,,0,0,0,0,,,,,,,,,,,,,,,,,,,,,,,,,0,27,27,27,,,,,,,,,,,,,,,,,,,,,,,,,,,,,,,,,,,,,,,,,,,,,,,,,,,,,,,,,,,,,,,,,,,,,1.162037044763565,0.8438384999753907,525.3569025000324,None,ScrollDown,정답입니다,525.3569025000324,None,525.3569025000324,None,525.3569025000324,None,525.3569025000324,None,526.0960609000176,None,526.0960609000176,526.5961433999473,,,,,,,,,,,,,,,,006,2022-05-06_19h44.40.477,FishGame,2022.1.1,60.01720092102189,
,29,넌 조용해,3,Orange,B,4.333333333333333,4.166666666666667,ScrollUp,ScrollDown,Orange.png,4,Neutral,Neutral,,,,,0,0,0,0,,,,,,,,,,,,,,,,,,,,,,,,,0,28,28,28,,,,,,,,,,,,,,,,,,,,,,,,,,,,,,,,,,,,,,,,,,,,,,,,,,,,,,,,,,,,,,,,,,,,,1.983024666706721,0.9612663999432698,527.2202013999922,None,ScrollUp,정답입니다,527.2202013999922,None,527.2202013999922,None,527.2202013999922,None,527.2202013999922,None,528.0794194999617,None,528.0794194999617,528.5823377999477,,,,,,,,,,,,,,,,006,2022-05-06_19h44.40.477,FishGame,2022.1.1,60.01720092102189,
,30,넌 다정해,1,Green,A,5.833333333333334,5.7,ScrollDown,ScrollUp,Green.png,4,Positive,Congruent,,,,,0,0,0,0,,,,,,,,,,,,,,,,,,,,,,,,,0,29,29,29,,,,,,,,,,,,,,,,,,,,,,,,,,,,,,,,,,,,,,,,,,,,,,,,,,,,,,,,,,,,,,,,,,,,,1,0.8467462999979034,529.2044295000378,None,ScrollDown,정답입니다,529.2044295000378,None,529.2044295000378,None,529.2044295000378,None,529.2044295000378,None,529.9486096999608,None,529.9486096999608,530.4652408999391,,,,,,,,,,,,,,,,006,2022-05-06_19h44.40.477,FishGame,2022.1.1,60.01720092102189,
,31,넌 능력있어,2,Orange,B,6.166666666666666,4.6,ScrollUp,ScrollDown,Orange.png,4,Positive,Incongruent,,,,,0,0,0,0,,,,,,,,,,,,,,,,,,,,,,,,,0,30,30,30,,,,,,,,,,,,,,,,,,,,,,,,,,,,,,,,,,,,,,,,,,,,,,,,,,,,,,,,,,,,,,,,,,,,,1.8858024626970291,0.9950713999569416,531.0841385000385,None,ScrollUp,정답입니다,531.0841385000385,None,531.0841385000385,None,531.0841385000385,None,531.0841385000385,None,531.9795591000002,None,531.9795591000002,532.4818803999806,,,,,,,,,,,,,,,,006,2022-05-06_19h44.40.477,FishGame,2022.1.1,60.01720092102189,
,32,넌 불쾌해,5,Green,A,2.125,1.933333333333333,ScrollDown,ScrollUp,Green.png,4,Negative,Incongruent,,,,,0,0,0,0,,,,,,,,,,,,,,,,,,,,,,,,,0,31,31,31,,,,,,,,,,,,,,,,,,,,,,,,,,,,,,,,,,,,,,,,,,,,,,,,,,,,,,,,,,,,,,,,,,,,,1.095679019888242,0.878067500074394,533.1007424000418,None,ScrollDown,정답입니다,533.1007424000418,None,533.1007424000418,None,533.1007424000418,None,533.1007424000418,None,533.8794690000359,None,533.8794690000359,534.3798224000493,,,,,,,,,,,,,,,,006,2022-05-06_19h44.40.477,FishGame,2022.1.1,60.01720092102189,
,33,나를 데려가줘,6,Orange,B,0,0,ScrollDown,ScrollUp,Orange.png,4,NonTarget,NonTarget,,,,,0,0,0,0,,,,,,,,,,,,,,,,,,,,,,,,,0,32,32,32,,,,,,,,,,,,,,,,,,,,,,,,,,,,,,,,,,,,,,,,,,,,,,,,,,,,,,,,,,,,,,,,,,,,,1.0138889054457347,0.9427153000142425,535.004711800022,None,ScrollDown,정답입니다,535.004711800022,None,535.004711800022,None,535.004711800022,None,535.004711800022,None,535.8483875000384,None,535.8483875000384,536.348605099949,,,,,,,,,,,,,,,,006,2022-05-06_19h44.40.477,FishGame,2022.1.1,60.01720092102189,
,34,넌 유순해,3,Green,A,4.458333333333333,5,ScrollDown,ScrollUp,Green.png,4,Neutral,Neutral,,,,,0,0,0,0,,,,,,,,,,,,,,,,,,,,,,,,,0,33,33,33,,,,,,,,,,,,,,,,,,,,,,,,,,,,,,,,,,,,,,,,,,,,,,,,,,,,,,,,,,,,,,,,,,,,,1.0216049253940582,1.4592792000621557,536.9712412999943,None,ScrollDown,정답입니다,536.9712412999943,None,536.9712412999943,None,536.9712412999943,None,536.9712412999943,None,538.3293679000344,None,538.3293679000344,538.8315974000143,,,,,,,,,,,,,,,,006,2022-05-06_19h44.40.477,FishGame,2022.1.1,60.01720092102189,
,35,넌 근심스러워,4,Orange,B,2.708333333333333,3.133333333333333,ScrollUp,ScrollDown,Orange.png,4,Negative,Congruent,,,,,0,0,0,0,,,,,,,,,,,,,,,,,,,,,,,,,0,34,34,34,,,,,,,,,,,,,,,,,,,,,,,,,,,,,,,,,,,,,,,,,,,,,,,,,,,,,,,,,,,,,,,,,,,,,1.884259248773257,0.961735500022769,539.4566340999445,None,ScrollUp,정답입니다,539.4566340999445,None,539.4566340999445,None,539.4566340999445,None,539.4566340999445,None,540.3127165000187,None,540.3127165000187,540.8149876999669,,,,,,,,,,,,,,,,006,2022-05-06_19h44.40.477,FishGame,2022.1.1,60.01720092102189,
,36,넌 세련되었어,2,Green,A,5.5,4.6,ScrollDown,ScrollUp,Green.png,4,Positive,Congruent,,,,,0,0,0,0,,,,,,,,,,,,,,,,,,,,,,,,,0,35,35,35,,,,,,,,,,,,,,,,,,,,,,,,,,,,,,,,,,,,,,,,,,,,,,,,,,,,,,,,,,,,,,,,,,,,,1,0.9109827999491245,541.439339500037,None,ScrollDown,정답입니다,541.439339500037,None,541.439339500037,None,541.439339500037,None,541.439339500037,None,542.2457253000466,None,542.2457253000466,542.7458158000372,,,,,,,,,,,,,,,,006,2022-05-06_19h44.40.477,FishGame,2022.1.1,60.01720092102189,
,37,나를 보내줘,6,Green,A,0,0,ScrollUp,ScrollDown,Green.png,4,NonTarget,NonTarget,,,,,0,0,0,0,,,,,,,,,,,,,,,,,,,,,,,,,0,36,36,36,,,,,,,,,,,,,,,,,,,,,,,,,,,,,,,,,,,,,,,,,,,,,,,,,,,,,,,,,,,,,,,,,,,,,1.9475308458010356,0.9450054001063108,543.3630093999673,None,ScrollUp,정답입니다,543.3630093999673,None,543.3630093999673,None,543.3630093999673,None,543.3630093999673,None,544.2123913000105,None,544.2123913000105,544.7149193000514,,,,,,,,,,,,,,,,006,2022-05-06_19h44.40.477,FishGame,2022.1.1,60.01720092102189,
,38,넌 확고해,3,Orange,B,4.708333333333334,4.566666666666666,ScrollUp,ScrollDown,Orange.png,4,Neutral,Neutral,,,,,0,0,0,0,,,,,,,,,,,,,,,,,,,,,,,,,0,37,37,37,,,,,,,,,,,,,,,,,,,,,,,,,,,,,,,,,,,,,,,,,,,,,,,,,,,,,,,,,,,,,,,,,,,,,1.9799382885297139,1.2463338000234216,545.3360434999922,None,ScrollUp,정답입니다,545.3360434999922,None,545.3360434999922,None,545.3360434999922,None,545.3360434999922,None,546.4816073999973,None,546.4816073999973,546.9819935000269,,,,,,,,,,,,,,,,006,2022-05-06_19h44.40.477,FishGame,2022.1.1,60.01720092102189,
,39,넌 이해심이 많아,1,Orange,B,6.041666666666668,5.533333333333333,ScrollUp,ScrollDown,Orange.png,4,Positive,Incongruent,,,,,0,0,0,0,,,,,,,,,,,,,,,,,,,,,,,,,0,38,38,38,,,,,,,,,,,,,,,,,,,,,,,,,,,,,,,,,,,,,,,,,,,,,,,,,,,,,,,,,,,,,,,,,,,,,2,0.9926128000952303,547.6069363999413,None,ScrollUp,정답입니다,547.6069363999413,None,547.6069363999413,None,547.6069363999413,None,547.6069363999413,None,548.498041999992,None,548.498041999992,548.9959138999693,,,,,,,,,,,,,,,,006,2022-05-06_19h44.40.477,FishGame,2022.1.1,60.01720092102189,
,40,나를 보내줘,6,Green,A,0,0,ScrollUp,ScrollDown,Green.png,4,NonTarget,NonTarget,,,,,0,0,0,0,,,,,,,,,,,,,,,,,,,,,,,,,0,39,39,39,,,,,,,,,,,,,,,,,,,,,,,,,,,,,,,,,,,,,,,,,,,,,,,,,,,,,,,,,,,,,,,,,,,,,1.9459876318772633,1.0091414999915287,549.6163640000159,None,ScrollUp,정답입니다,549.6163640000159,None,549.6163640000159,None,549.6163640000159,None,549.6163640000159,None,550.5288702000398,None,550.5288702000398,551.0289862999925,,,,,,,,,,,,,,,,006,2022-05-06_19h44.40.477,FishGame,2022.1.1,60.01720092102189,
,41,넌 거칠어,4,Green,A,2.625,3.033333333333333,ScrollDown,ScrollUp,Green.png,4,Negative,Incongruent,,,,,0,0,0,0,,,,,,,,,,,,,,,,,,,,,,,,,0,40,40,40,,,,,,,,,,,,,,,,,,,,,,,,,,,,,,,,,,,,,,,,,,,,,,,,,,,,,,,,,,,,,,,,,,,,,1.1280864129463832,0.8781439999584109,551.6540613999823,None,ScrollDown,정답입니다,551.6540613999823,None,551.6540613999823,None,551.6540613999823,None,551.6540613999823,None,552.4288790000137,None,552.4288790000137,552.9314201000379,,,,,,,,,,,,,,,,006,2022-05-06_19h44.40.477,FishGame,2022.1.1,60.01720092102189,
,42,넌 변덕맞아,5,Orange,B,2.75,2.166666666666667,ScrollUp,ScrollDown,Orange.png,4,Negative,Congruent,,,,,0,0,0,0,,,,,,,,,,,,,,,,,,,,,,,,,0,41,41,41,,,,,,,,,,,,,,,,,,,,,,,,,,,,,,,,,,,,,,,,,,,,,,,,,,,,,,,,,,,,,,,,,,,,,1.9413580397764842,0.9098015000345185,553.562372699962,None,ScrollUp,정답입니다,553.562372699962,None,553.562372699962,None,553.562372699962,None,553.562372699962,None,554.3647119000088,None,554.3647119000088,554.8652496000286,,,,,,,,,,,,,,,,006,2022-05-06_19h44.40.477,FishGame,2022.1.1,60.01720092102189,
,43,나를 데려가줘,6,Orange,B,0,0,ScrollDown,ScrollUp,Orange.png,4,NonTarget,NonTarget,,,,,0,0,0,0,,,,,,,,,,,,,,,,,,,,,,,,,0,42,42,42,,,,,,,,,,,,,,,,,,,,,,,,,,,,,,,,,,,,,,,,,,,,,,,,,,,,,,,,,,,,,,,,,,,,,1.0817901194095612,0.9094124000985175,555.4863270999631,None,ScrollDown,정답입니다,555.4863270999631,None,555.4863270999631,None,555.4863270999631,None,555.4863270999631,None,556.295685900026,None,556.295685900026,556.7979431999847,,,,,,,,,,,,,,,,006,2022-05-06_19h44.40.477,FishGame,2022.1.1,60.01720092102189,
,44,넌 외로워,4,Orange,B,2.833333333333333,3.3,ScrollUp,ScrollDown,Orange.png,4,Negative,Congruent,,,,,0,0,0,0,,,,,,,,,,,,,,,,,,,,,,,,,0,43,43,43,,,,,,,,,,,,,,,,,,,,,,,,,,,,,,,,,,,,,,,,,,,,,,,,,,,,,,,,,,,,,,,,,,,,,1.8827160596847534,0.9260389000410214,557.4252106000204,None,ScrollUp,정답입니다,557.4252106000204,None,557.4252106000204,None,557.4252106000204,None,557.4252106000204,None,558.2477755999425,None,558.2477755999425,558.7457401000429,,,,,,,,,,,,,,,,006,2022-05-06_19h44.40.477,FishGame,2022.1.1,60.01720092102189,
,1,넌 불평스러워,5,Green,A,2.25,2.066666666666667,ScrollDown,ScrollUp,Green.png,5,Negative,Incongruent,,,,,0,0,0,0,,,,,,,,,,,,,,,,,,,,,,,,,,,,,0,0,0,0,,,,,,,,,,,,,,,,,,,,,,,,591.1804098000284,592.6973402999574,592.7140156000387,593.663868600037,593.7139689000323,594.663951799972,594.663951799972,None,,,,,,,,,,,,,,,,,,,,,,,,,,,,,,,,,,1.0478395124276478,1.0230364999733865,595.7858018999686,None,ScrollDown,정답입니다,595.7858018999686,None,595.7858018999686,None,595.7858018999686,None,595.7858018999686,None,596.7115243000444,None,596.7115243000444,597.2168390000006,559.2460523999762,None,559.2460523999762,None,0.11574074,-0.049074072,1,0,0,0.016480840044096112,None,589.263690300053,None,,,006,2022-05-06_19h44.40.477,FishGame,2022.1.1,60.01720092102189,
,2,나를 보내줘,6,Green,A,0,0,ScrollUp,ScrollDown,Green.png,5,NonTarget,NonTarget,,,,,0,0,0,0,,,,,,,,,,,,,,,,,,,,,,,,,,,,,0,1,1,1,,,,,,,,,,,,,,,,,,,,,,,,,,,,,,,,,,,,,,,,,,,,,,,,,,,,,,,,,,,,,,,,,1.9429012537002563,0.9608727999730036,597.8304435999598,None,ScrollUp,정답입니다,597.8304435999598,None,597.8304435999598,None,597.8304435999598,None,597.8304435999598,None,598.6951571999816,None,598.6951571999816,599.1969943000004,,,,,,,,,,,,,,,,006,2022-05-06_19h44.40.477,FishGame,2022.1.1,60.01720092102189,
,3,넌 다재다능해,2,Orange,B,6.208333333333333,4.5,ScrollUp,ScrollDown,Orange.png,5,Positive,Incongruent,,,,,0,0,0,0,,,,,,,,,,,,,,,,,,,,,,,,,,,,,0,2,2,2,,,,,,,,,,,,,,,,,,,,,,,,,,,,,,,,,,,,,,,,,,,,,,,,,,,,,,,,,,,,,,,,,1.9706790049870808,0.9759586999425665,599.8205444000196,None,ScrollUp,정답입니다,599.8205444000196,None,599.8205444000196,None,599.8205444000196,None,599.8205444000196,None,600.6969846000429,None,600.6969846000429,601.1949780000141,,,,,,,,,,,,,,,,006,2022-05-06_19h44.40.477,FishGame,2022.1.1,60.01720092102189,
,4,넌 과감해,3,Green,A,4.833333333333334,4.6,ScrollDown,ScrollUp,Green.png,5,Neutral,Neutral,,,,,0,0,0,0,,,,,,,,,,,,,,,,,,,,,,,,,,,,,0,3,3,3,,,,,,,,,,,,,,,,,,,,,,,,,,,,,,,,,,,,,,,,,,,,,,,,,,,,,,,,,,,,,,,,,1.0354938507080078,0.8259269999107346,601.8217702000402,None,ScrollDown,정답입니다,601.8217702000402,None,601.8217702000402,None,601.8217702000402,None,601.8217702000402,None,602.5449540000409,None,602.5449540000409,603.0469643999822,,,,,,,,,,,,,,,,006,2022-05-06_19h44.40.477,FishGame,2022.1.1,60.01720092102189,
,5,넌 고분고분해,3,Orange,B,3.75,4.033333333333333,ScrollUp,ScrollDown,Orange.png,5,Neutral,Neutral,,,,,0,0,0,0,,,,,,,,,,,,,,,,,,,,,,,,,,,,,0,4,4,4,,,,,,,,,,,,,,,,,,,,,,,,,,,,,,,,,,,,,,,,,,,,,,,,,,,,,,,,,,,,,,,,,2,0.9614013999234885,603.67035270005,None,ScrollUp,정답입니다,603.67035270005,None,603.67035270005,None,603.67035270005,None,603.67035270005,None,604.5280037999619,None,604.5280037999619,605.0302989999764,,,,,,,,,,,,,,,,006,2022-05-06_19h44.40.477,FishGame,2022.1.1,60.01720092102189,
,6,나를 보내줘,6,Green,A,0,0,ScrollUp,ScrollDown,Green.png,5,NonTarget,NonTarget,,,,,0,0,0,0,,,,,,,,,,,,,,,,,,,,,,,,,,,,,0,5,5,5,,,,,,,,,,,,,,,,,,,,,,,,,,,,,,,,,,,,,,,,,,,,,,,,,,,,,,,,,,,,,,,,,2,0.9947555999970064,605.6470686999382,None,ScrollUp,정답입니다,605.6470686999382,None,605.6470686999382,None,605.6470686999382,None,605.6470686999382,None,606.5468773000175,None,606.5468773000175,607.061239899951,,,,,,,,,,,,,,,,006,2022-05-06_19h44.40.477,FishGame,2022.1.1,60.01720092102189,
,7,넌 잘 잊어,4,Green,A,3,3.7,ScrollDown,ScrollUp,Green.png,5,Negative,Incongruent,,,,,0,0,0,0,,,,,,,,,,,,,,,,,,,,,,,,,,,,,0,6,6,6,,,,,,,,,,,,,,,,,,,,,,,,,,,,,,,,,,,,,,,,,,,,,,,,,,,,,,,,,,,,,,,,,1.0555555323759716,0.7782727999147028,607.6836975000333,None,ScrollDown,정답입니다,607.6836975000333,None,607.6836975000333,None,607.6836975000333,None,607.6836975000333,None,608.3616745000472,None,608.3616745000472,608.8612370999763,,,,,,,,,,,,,,,,006,2022-05-06_19h44.40.477,FishGame,2022.1.1,60.01720092102189,
,8,넌 탐구심이없어,4,Orange,B,2.833333333333333,3.066666666666667,ScrollUp,ScrollDown,Orange.png,5,Negative,Congruent,,,,,0,0,0,0,,,,,,,,,,,,,,,,,,,,,,,,,,,,,0,7,7,7,,,,,,,,,,,,,,,,,,,,,,,,,,,,,,,,,,,,,,,,,,,,,,,,,,,,,,,,,,,,,,,,,1.5632716032365956,0.7761817000573501,609.4900387000525,None,ScrollUp,정답입니다,609.4900387000525,None,609.4900387000525,None,609.4900387000525,None,609.4900387000525,None,610.1612184999976,None,610.1612184999976,610.6634339999873,,,,,,,,,,,,,,,,006,2022-05-06_19h44.40.477,FishGame,2022.1.1,60.01720092102189,
,9,나를 데려가줘,6,Orange,B,0,0,ScrollDown,ScrollUp,Orange.png,5,NonTarget,NonTarget,,,,,0,0,0,0,,,,,,,,,,,,,,,,,,,,,,,,,,,,,0,8,8,8,,,,,,,,,,,,,,,,,,,,,,,,,,,,,,,,,,,,,,,,,,,,,,,,,,,,,,,,,,,,,,,,,1.0447530845801036,0.97710180003196,611.2859850999666,None,ScrollDown,정답입니다,611.2859850999666,None,611.2859850999666,None,611.2859850999666,None,611.2859850999666,None,612.1608905999456,None,612.1608905999456,612.6609598000068,,,,,,,,,,,,,,,,006,2022-05-06_19h44.40.477,FishGame,2022.1.1,60.01720092102189,
,10,넌 참되어,2,Green,A,6.041666666666664,4.733333333333333,ScrollDown,ScrollUp,Green.png,5,Positive,Congruent,,,,,0,0,0,0,,,,,,,,,,,,,,,,,,,,,,,,,,,,,0,9,9,9,,,,,,,,,,,,,,,,,,,,,,,,,,,,,,,,,,,,,,,,,,,,,,,,,,,,,,,,,,,,,,,,,1.0262345671653748,0.8949205999961123,613.284978199983,None,ScrollDown,정답입니다,613.284978199983,None,613.284978199983,None,613.284978199983,None,613.284978199983,None,614.077543499996,None,614.077543499996,614.5801213999512,,,,,,,,,,,,,,,,006,2022-05-06_19h44.40.477,FishGame,2022.1.1,60.01720092102189,
,11,넌 생기있어,1,Orange,B,5.875,5.633333333333334,ScrollUp,ScrollDown,Orange.png,5,Positive,Incongruent,,,,,0,0,0,0,,,,,,,,,,,,,,,,,,,,,,,,,,,,,0,10,10,10,,,,,,,,,,,,,,,,,,,,,,,,,,,,,,,,,,,,,,,,,,,,,,,,,,,,,,,,,,,,,,,,,1.7808641890684764,0.8961804000427946,615.1994154000422,None,ScrollUp,정답입니다,615.1994154000422,None,615.1994154000422,None,615.1994154000422,None,615.1994154000422,None,615.996723499964,None,615.996723499964,616.4943175000371,,,,,,,,,,,,,,,,006,2022-05-06_19h44.40.477,FishGame,2022.1.1,60.01720092102189,
,12,넌 비사교적이야,4,Orange,B,2.875,2.9,ScrollUp,ScrollDown,Orange.png,5,Negative,Congruent,,,,,0,0,0,0,,,,,,,,,,,,,,,,,,,,,,,,,,,,,0,11,11,11,,,,,,,,,,,,,,,,,,,,,,,,,,,,,,,,,,,,,,,,,,,,,,,,,,,,,,,,,,,,,,,,,1.7793209999799728,0.9106539000058547,617.1192572000436,None,ScrollUp,정답입니다,617.1192572000436,None,617.1192572000436,None,617.1192572000436,None,617.1192572000436,None,617.9277104999637,None,617.9277104999637,618.4300145000452,,,,,,,,,,,,,,,,006,2022-05-06_19h44.40.477,FishGame,2022.1.1,60.01720092102189,
,13,나를 데려가줘,6,Orange,B,0,0,ScrollDown,ScrollUp,Orange.png,5,NonTarget,NonTarget,,,,,0,0,0,0,,,,,,,,,,,,,,,,,,,,,,,,,,,,,0,12,12,12,,,,,,,,,,,,,,,,,,,,,,,,,,,,,,,,,,,,,,,,,,,,,,,,,,,,,,,,,,,,,,,,,1.0370370149612427,0.9090948000084609,619.0545793999918,None,ScrollDown,정답입니다,619.0545793999918,None,619.0545793999918,None,619.0545793999918,None,619.0545793999918,None,619.8609606999671,None,619.8609606999671,620.3610275000101,,,,,,,,,,,,,,,,006,2022-05-06_19h44.40.477,FishGame,2022.1.1,60.01720092102189,
,14,넌 고독해,4,Green,A,2.916666666666667,3.233333333333333,ScrollDown,ScrollUp,Green.png,5,Negative,Incongruent,,,,,0,0,0,0,,,,,,,,,,,,,,,,,,,,,,,,,,,,,0,13,13,13,,,,,,,,,,,,,,,,,,,,,,,,,,,,,,,,,,,,,,,,,,,,,,,,,,,,,,,,,,,,,,,,,1.1172839403152466,0.8448618000838906,620.983510500053,None,ScrollDown,정답입니다,620.983510500053,None,620.983510500053,None,620.983510500053,None,620.983510500053,None,621.7276304999832,None,621.7276304999832,622.2298647999996,,,,,,,,,,,,,,,,006,2022-05-06_19h44.40.477,FishGame,2022.1.1,60.01720092102189,
,15,넌 신경질적이야,5,Orange,B,2.375,2.233333333333333,ScrollUp,ScrollDown,Orange.png,5,Negative,Congruent,,,,,0,0,0,0,,,,,,,,,,,,,,,,,,,,,,,,,,,,,0,14,14,14,,,,,,,,,,,,,,,,,,,,,,,,,,,,,,,,,,,,,,,,,,,,,,,,,,,,,,,,,,,,,,,,,1.7561728407939274,0.8947398000163957,622.8601108000148,None,ScrollUp,정답입니다,622.8601108000148,None,622.8601108000148,None,622.8601108000148,None,622.8601108000148,None,623.6442768999841,None,623.6442768999841,624.1465621000389,,,,,,,,,,,,,,,,006,2022-05-06_19h44.40.477,FishGame,2022.1.1,60.01720092102189,
,16,넌 똑똑해,2,Orange,B,5.666666666666667,3.966666666666667,ScrollUp,ScrollDown,Orange.png,5,Positive,Incongruent,,,,,0,0,0,0,,,,,,,,,,,,,,,,,,,,,,,,,,,,,0,15,15,15,,,,,,,,,,,,,,,,,,,,,,,,,,,,,,,,,,,,,,,,,,,,,,,,,,,,,,,,,,,,,,,,,2,0.8924606000073254,624.7824446000159,None,ScrollUp,정답입니다,624.7824446000159,None,624.7824446000159,None,624.7824446000159,None,624.7824446000159,None,625.5608252000529,None,625.5608252000529,626.0608621999854,,,,,,,,,,,,,,,,006,2022-05-06_19h44.40.477,FishGame,2022.1.1,60.01720092102189,
,17,나를 보내줘,6,Green,A,0,0,ScrollUp,ScrollDown,Green.png,5,NonTarget,NonTarget,,,,,0,0,0,0,,,,,,,,,,,,,,,,,,,,,,,,,,,,,0,16,16,16,,,,,,,,,,,,,,,,,,,,,,,,,,,,,,,,,,,,,,,,,,,,,,,,,,,,,,,,,,,,,,,,,1.5817901206513247,0.8926041000522673,626.6852752999403,None,ScrollUp,정답입니다,626.6852752999403,None,626.6852752999403,None,626.6852752999403,None,626.6852752999403,None,627.4775140000274,None,627.4775140000274,627.9797699999763,,,,,,,,,,,,,,,,006,2022-05-06_19h44.40.477,FishGame,2022.1.1,60.01720092102189,
,18,넌 협조적이야,1,Green,A,5.625,5.666666666666667,ScrollDown,ScrollUp,Green.png,5,Positive,Congruent,,,,,0,0,0,0,,,,,,,,,,,,,,,,,,,,,,,,,,,,,0,17,17,17,,,,,,,,,,,,,,,,,,,,,,,,,,,,,,,,,,,,,,,,,,,,,,,,,,,,,,,,,,,,,,,,,1.0910493781169255,0.9651895000133663,628.5965159999905,None,ScrollDown,정답입니다,628.5965159999905,None,628.5965159999905,None,628.5965159999905,None,628.5965159999905,None,629.4607438000385,None,629.4607438000385,629.9607741000364,,,,,,,,,,,,,,,,006,2022-05-06_19h44.40.477,FishGame,2022.1.1,60.01720092102189,
,19,나를 데려가줘,6,Orange,B,0,0,ScrollDown,ScrollUp,Orange.png,5,NonTarget,NonTarget,,,,,0,0,0,0,,,,,,,,,,,,,,,,,,,,,,,,,,,,,0,18,18,18,,,,,,,,,,,,,,,,,,,,,,,,,,,,,,,,,,,,,,,,,,,,,,,,,,,,,,,,,,,,,,,,,1.0555555323759716,1.0278996000997722,630.5850894999458,None,ScrollDown,정답입니다,630.5850894999458,None,630.5850894999458,None,630.5850894999458,None,630.5850894999458,None,631.5107234000461,None,631.5107234000461,632.0129163999809,,,,,,,,,,,,,,,,006,2022-05-06_19h44.40.477,FishGame,2022.1.1,60.01720092102189,
,20,넌 몰인정해,5,Orange,B,2.541666666666667,2.066666666666667,ScrollUp,ScrollDown,Orange.png,5,Negative,Congruent,,,,,0,0,0,0,,,,,,,,,,,,,,,,,,,,,,,,,,,,,0,19,19,19,,,,,,,,,,,,,,,,,,,,,,,,,,,,,,,,,,,,,,,,,,,,,,,,,,,,,,,,,,,,,,,,,2,0.8769557999912649,632.6366581999464,None,ScrollUp,정답입니다,632.6366581999464,None,632.6366581999464,None,632.6366581999464,None,632.6366581999464,None,633.4107139999978,None,633.4107139999978,633.9129293999868,,,,,,,,,,,,,,,,006,2022-05-06_19h44.40.477,FishGame,2022.1.1,60.01720092102189,
,21,나를 데려가줘,6,Orange,B,0,0,ScrollDown,ScrollUp,Orange.png,5,NonTarget,NonTarget,,,,,0,0,0,0,,,,,,,,,,,,,,,,,,,,,,,,,,,,,0,20,20,20,,,,,,,,,,,,,,,,,,,,,,,,,,,,,,,,,,,,,,,,,,,,,,,,,,,,,,,,,,,,,,,,,1.0879629751046498,0.8925442000618204,634.5359604000114,None,ScrollDown,정답입니다,634.5359604000114,None,634.5359604000114,None,634.5359604000114,None,634.5359604000114,None,635.3272813999793,None,635.3272813999793,635.8294904000359,,,,,,,,,,,,,,,,006,2022-05-06_19h44.40.477,FishGame,2022.1.1,60.01720092102189,
,22,넌 순진해,3,Orange,B,4.125,4.166666666666667,ScrollUp,ScrollDown,Orange.png,5,Neutral,Neutral,,,,,0,0,0,0,,,,,,,,,,,,,,,,,,,,,,,,,,,,,0,21,21,21,,,,,,,,,,,,,,,,,,,,,,,,,,,,,,,,,,,,,,,,,,,,,,,,,,,,,,,,,,,,,,,,,1.9969135920206706,0.8612581000197679,636.4515952999936,None,ScrollUp,정답입니다,636.4515952999936,None,636.4515952999936,None,636.4515952999936,None,636.4515952999936,None,637.2106019000057,None,637.2106019000057,637.7105952999555,,,,,,,,,,,,,,,,006,2022-05-06_19h44.40.477,FishGame,2022.1.1,60.01720092102189,
,23,넌 신뢰할만해,1,Green,A,6.625,5.533333333333333,ScrollDown,ScrollUp,Green.png,5,Positive,Congruent,,,,,0,0,0,0,,,,,,,,,,,,,,,,,,,,,,,,,,,,,0,22,22,22,,,,,,,,,,,,,,,,,,,,,,,,,,,,,,,,,,,,,,,,,,,,,,,,,,,,,,,,,,,,,,,,,1.0370370149612427,0.9295567999361083,638.3318524999777,None,ScrollDown,정답입니다,638.3318524999777,None,638.3318524999777,None,638.3318524999777,None,638.3318524999777,None,639.1605994999409,None,639.1605994999409,639.6628309000516,,,,,,,,,,,,,,,,006,2022-05-06_19h44.40.477,FishGame,2022.1.1,60.01720092102189,
