name,TrialNum,Word,WordCategory,FishType,WordList,WordValence,WordReputation,CorrectResp,IncorrectResp,FishTypeFile,Round,WordType,Condition,LoopforOrange.thisRepN,LoopforOrange.thisTrialN,LoopforOrange.thisN,LoopforOrange.thisIndex,OrangeInstLoop.thisRepN,OrangeInstLoop.thisTrialN,OrangeInstLoop.thisN,OrangeInstLoop.thisIndex,OrangePrac.thisRepN,OrangePrac.thisTrialN,OrangePrac.thisN,OrangePrac.thisIndex,temp1.thisRepN,temp1.thisTrialN,temp1.thisN,temp1.thisIndex,OrangeRound1.thisRepN,OrangeRound1.thisTrialN,OrangeRound1.thisN,OrangeRound1.thisIndex,OrangeRound2.thisRepN,OrangeRound2.thisTrialN,OrangeRound2.thisN,OrangeRound2.thisIndex,OrangeRound3.thisRepN,OrangeRound3.thisTrialN,OrangeRound3.thisN,OrangeRound3.thisIndex,OrangeRound4.thisRepN,OrangeRound4.thisTrialN,OrangeRound4.thisN,OrangeRound4.thisIndex,OrangeRound5.thisRepN,OrangeRound5.thisTrialN,OrangeRound5.thisN,OrangeRound5.thisIndex,LoopForGreen.thisRepN,LoopForGreen.thisTrialN,LoopForGreen.thisN,LoopForGreen.thisIndex,text_2.started,text_2.stopped,text_3.started,text_3.stopped,key_resp.keys,key_resp.rt,key_resp.started,key_resp.stopped,PassI_2.started,PassI_2.stopped,PassInst_2.keys,PassInst_2.rt,PassInst_2.started,PassInst_2.stopped,mouse_2.x,mouse_2.y,mouse_2.leftButton,mouse_2.midButton,mouse_2.rightButton,mouse_2.started,mouse_2.stopped,image.started,image.stopped,text_5.started,text_5.stopped,text_6.started,text_6.stopped,text_7.started,text_7.stopped,text_8.started,text_8.stopped,slider_2.response,slider_2.rt,slider_2.started,slider_2.stopped,Response_2,Feedback_2,BackGround_2.started,BackGround_2.stopped,Fish_2.started,Fish_2.stopped,WordBox_2.started,WordBox_2.stopped,Words_2.started,Words_2.stopped,BackGround_Feedback_2.started,BackGround_Feedback_2.stopped,Feedbacks_2.started,Feedbacks_2.stopped,Continue_or_not.keys,Continue_or_not.rt,Continue_or_not.started,Continue_or_not.stopped,image_3.started,image_3.stopped,mouse_3.x,mouse_3.y,mouse_3.leftButton,mouse_3.midButton,mouse_3.rightButton,mouse_3.started,mouse_3.stopped,startmain.started,startmain.stopped,slider.response,slider.rt,slider.started,slider.stopped,Response,Feedback,BackGround.started,BackGround.stopped,Fish.started,Fish.stopped,WordBox.started,WordBox.stopped,Words.started,Words.stopped,BackGround_Feedback.started,BackGround_Feedback.stopped,Feedbacks.started,Feedbacks.stopped,text.started,text.stopped,break_interval.started,break_interval.stopped,mouse.x,mouse.y,mouse.leftButton,mouse.midButton,mouse.rightButton,mouse.started,mouse.stopped,stratnextround.started,stratnextround.stopped,endgame.started,endgame.stopped,participant,date,expName,psychopyVersion,frameRate,
,,,,,,,,,,,,,,,,,,,,,,,,,,,,,,,,,,,,,,,,,,,,,,,,,,,,,,17.860920200007968,None,17.860920200007968,None,space,2.7784596000565216,18.347724699997343,None,,,,,,,,,,,,,,,,,,,,,,,,,,,,,,,,,,,,,,,,,,,,,,,,,,,,,,,,,,,,,,,,,,,,,,,,,,,,,,,,,,,,,,,,,,007,2022-05-09_14h00.53.606,FishGame,2022.1.1,60.02350520193826,
물고기과제_instruction(참가자용)OrangeVersion.mp4,,,,,,,,,,,,,,0,0,0,0,0,0,0,0,,,,,,,,,,,,,,,,,,,,,,,,,,,,,,,,,,,,,,,,,120.91224550001789,None,n,3.5737073000054806,120.91224550001789,None,,,,,,,,,,,,,,,,,,,,,,,,,,,,,,,,,,,,,,,,,,,,,,,,,,,,,,,,,,,,,,,,,,,,,,,,,,,,,,,,,,,,007,2022-05-09_14h00.53.606,FishGame,2022.1.1,60.02350520193826,
,1,넌 교활해,5,Green,B,2.333333333333333,2.133333333333333,ScrollUp,ScrollDown,Green.png,practice,,,0,0,0,0,,,,,0,0,0,0,0,0,0,0,,,,,,,,,,,,,,,,,,,,,,,,,,,,,,,,,,,,,,,0.03888889,-0.23055555,1,0,0,0.5061494300607592,None,124.49513339996338,None,128.0316139999777,129.53578349994496,129.5523839999223,130.51491109991912,130.54532409994863,131.49529819993768,131.51196389994584,None,1.7098765472571054,1.451229099999182,132.80169280001428,None,ScrollUp,정답입니다,132.80169280001428,None,132.80169280001428,None,132.80169280001428,None,132.80169280001428,None,133.964902699925,None,133.964902699925,134.48139899992384,,,,,,,,,,,,,,,,,,,,,,,,,,,,,,,,,,,,,,,,,,,,,,,,,007,2022-05-09_14h00.53.606,FishGame,2022.1.1,60.02350520193826,
,2,넌 슬기로워,2,Orange,A,6.166666666666667,4.1,ScrollDown,ScrollUp,Orange.png,practice,,,0,0,0,0,,,,,0,0,0,0,0,1,1,1,,,,,,,,,,,,,,,,,,,,,,,,,,,,,,,,,,,,,,,,,,,,,,,,,,,,,,,,1.2993827114502587,0.9586363000562415,135.12011979997624,None,ScrollDown,정답입니다,135.12011979997624,None,135.12011979997624,None,135.12011979997624,None,135.12011979997624,None,135.96184889995493,None,135.96184889995493,136.46471760002896,,,,,,,,,,,,,,,,,,,,,,,,,,,,,,,,,,,,,,,,,,,,,,,,,007,2022-05-09_14h00.53.606,FishGame,2022.1.1,60.02350520193826,
,3,나를 보내줘,6,Orange,A,0,0,ScrollUp,ScrollDown,Orange.png,practice,,,0,0,0,0,,,,,0,0,0,0,0,2,2,2,,,,,,,,,,,,,,,,,,,,,,,,,,,,,,,,,,,,,,,,,,,,,,,,,,,,,,,,1.4027777773638566,1.2492810999974608,137.08665329997893,None,ScrollDown,오답입니다,137.08665329997893,None,137.08665329997893,None,137.08665329997893,None,137.08665329997893,None,138.23366899997927,None,138.23366899997927,138.74492279998958,,,,,,,,,,,,,,,,,,,,,,,,,,,,,,,,,,,,,,,,,,,,,,,,,007,2022-05-09_14h00.53.606,FishGame,2022.1.1,60.02350520193826,
,4,나를 데려가줘,6,Green,B,0,0,ScrollDown,ScrollUp,Green.png,practice,,,0,0,0,0,,,,,0,0,0,0,0,3,3,3,,,,,,,,,,,,,,,,,,,,,,,,,,,,,,,,,,,,,,,,,,,,,,,,,,,,,,,,1.365740736325582,2.594832699978724,139.36083719995804,None,ScrollDown,정답입니다,139.36083719995804,None,139.36083719995804,None,139.36083719995804,None,139.36083719995804,None,141.86177690001205,None,141.86177690001205,142.36182749993168,,,,,,,,,,,,,,,,,,,,,,,,,,,,,,,,,,,,,,,,,,,,,,,,,007,2022-05-09_14h00.53.606,FishGame,2022.1.1,60.02350520193826,
,1,넌 교활해,5,Green,B,2.333333333333333,2.133333333333333,ScrollUp,ScrollDown,Green.png,practice,,,0,0,0,0,,,,,0,0,0,0,,,,,,,,,,,,,,,,,,,,,,,,,,,,,,,,,,,,,,,,,,,,,,,,,,,,,,,,,,,,,,,,,,,,,,,,,,,,,,n,5.5681700999848545,142.86176709993742,None,142.86176709993742,None,,,,,,,,,,,,,,,,,,,,,,,,,,,,,,,,,,,,,,,,,,,007,2022-05-09_14h00.53.606,FishGame,2022.1.1,60.02350520193826,
,1,넌 따뜻해,1,Green,B,6.083333333333333,5.6,ScrollUp,ScrollDown,Green.png,1,Positive,Incongruent,0,0,0,0,,,,,,,,,,,,,0,0,0,0,,,,,,,,,,,,,,,,,,,,,,,,,,,,,,,,,,,,,,,,,,,,152.16130169993266,153.66132299997844,153.69466319994535,154.64792619994842,154.69789229996968,155.64793540001847,155.6311957000289,None,,,,,,,,,,,,,,,,,,,,,,,,,-0.013888889,-0.117592596,1,0,0,0.31386512995231897,None,148.44785579992458,None,1.5385802456488213,1.5039226999506354,156.92115169996396,None,NoResponse,무응답입니다,156.92115169996396,None,156.92115169996396,None,156.92115169996396,None,156.92115169996396,None,158.127869799966,None,158.127869799966,158.63089509995189,,,,,,,,,,,,,,,,007,2022-05-09_14h00.53.606,FishGame,2022.1.1,60.02350520193826,
,2,넌 기품있어,2,Green,B,5.791666666666668,4.5,ScrollUp,ScrollDown,Green.png,1,Positive,Incongruent,0,0,0,0,,,,,,,,,,,,,0,1,1,1,,,,,,,,,,,,,,,,,,,,,,,,,,,,,,,,,,,,,,,,,,,,,,,,,,,,,,,,,,,,,,,,,,,,,,,,,,,,,,,,,,,,,1.496913580301528,0.9110688000218943,159.25545970001258,None,NoResponse,무응답입니다,159.25545970001258,None,159.25545970001258,None,159.25545970001258,None,159.25545970001258,None,160.06408399995416,None,160.06408399995416,160.56433959992137,,,,,,,,,,,,,,,,007,2022-05-09_14h00.53.606,FishGame,2022.1.1,60.02350520193826,
,3,나를 보내줘,6,Orange,A,0,0,ScrollUp,ScrollDown,Orange.png,1,NonTarget,NonTarget,0,0,0,0,,,,,,,,,,,,,0,2,2,2,,,,,,,,,,,,,,,,,,,,,,,,,,,,,,,,,,,,,,,,,,,,,,,,,,,,,,,,,,,,,,,,,,,,,,,,,,,,,,,,,,,,,1.4891975312493742,1.2918853999581188,161.19429020001553,None,NoResponse,무응답입니다,161.19429020001553,None,161.19429020001553,None,161.19429020001553,None,161.19429020001553,None,162.38084619992878,None,162.38084619992878,162.89758330001496,,,,,,,,,,,,,,,,007,2022-05-09_14h00.53.606,FishGame,2022.1.1,60.02350520193826,
,4,넌 수동적이야,4,Orange,A,2.833333333333333,2.933333333333333,ScrollDown,ScrollUp,Orange.png,1,Negative,Incongruent,0,0,0,0,,,,,,,,,,,,,0,3,3,3,,,,,,,,,,,,,,,,,,,,,,,,,,,,,,,,,,,,,,,,,,,,,,,,,,,,,,,,,,,,,,,,,,,,,,,,,,,,,,,,,,,,,1.1959876517454784,1.3754587000003085,163.5066189999925,None,ScrollDown,정답입니다,163.5066189999925,None,163.5066189999925,None,163.5066189999925,None,163.5066189999925,None,164.7776115000015,None,164.7776115000015,165.27777799998876,,,,,,,,,,,,,,,,007,2022-05-09_14h00.53.606,FishGame,2022.1.1,60.02350520193826,
,5,넌 사심이 없어,3,Green,B,4.916666666666666,4.333333333333333,ScrollUp,ScrollDown,Green.png,1,Neutral,Neutral,0,0,0,0,,,,,,,,,,,,,0,4,4,4,,,,,,,,,,,,,,,,,,,,,,,,,,,,,,,,,,,,,,,,,,,,,,,,,,,,,,,,,,,,,,,,,,,,,,,,,,,,,,,,,,,,,1.766975313425064,1.1279864999232814,165.90217669995036,None,ScrollUp,정답입니다,165.90217669995036,None,165.90217669995036,None,165.90217669995036,None,165.90217669995036,None,166.92792499996722,None,166.92792499996722,167.42795619997196,,,,,,,,,,,,,,,,007,2022-05-09_14h00.53.606,FishGame,2022.1.1,60.02350520193826,
,6,넌 헤퍼,5,Orange,A,2.458333333333334,2.233333333333333,ScrollDown,ScrollUp,Orange.png,1,Negative,Incongruent,0,0,0,0,,,,,,,,,,,,,0,5,5,5,,,,,,,,,,,,,,,,,,,,,,,,,,,,,,,,,,,,,,,,,,,,,,,,,,,,,,,,,,,,,,,,,,,,,,,,,,,,,,,,,,,,,1.1512345721324284,0.8267877999460325,168.0565545000136,None,ScrollDown,정답입니다,168.0565545000136,None,168.0565545000136,None,168.0565545000136,None,168.0565545000136,None,168.77786859998014,None,168.77786859998014,169.285288700019,,,,,,,,,,,,,,,,007,2022-05-09_14h00.53.606,FishGame,2022.1.1,60.02350520193826,
,7,넌 말쑥해,3,Orange,A,4.833333333333334,4.333333333333333,ScrollDown,ScrollUp,Orange.png,1,Neutral,Neutral,0,0,0,0,,,,,,,,,,,,,0,6,6,6,,,,,,,,,,,,,,,,,,,,,,,,,,,,,,,,,,,,,,,,,,,,,,,,,,,,,,,,,,,,,,,,,,,,,,,,,,,,,,,,,,,,,1.2638888905445733,0.9292913000099361,169.9022639999166,None,ScrollDown,정답입니다,169.9022639999166,None,169.9022639999166,None,169.9022639999166,None,169.9022639999166,None,170.72748569992837,None,170.72748569992837,171.2276089999359,,,,,,,,,,,,,,,,007,2022-05-09_14h00.53.606,FishGame,2022.1.1,60.02350520193826,
,8,넌 투덜거려,5,Green,B,2.541666666666667,2.266666666666667,ScrollUp,ScrollDown,Green.png,1,Negative,Congruent,0,0,0,0,,,,,,,,,,,,,0,7,7,7,,,,,,,,,,,,,,,,,,,,,,,,,,,,,,,,,,,,,,,,,,,,,,,,,,,,,,,,,,,,,,,,,,,,,,,,,,,,,,,,,,,,,1.67746914178133,0.6447327000787482,171.85540939995553,None,ScrollUp,정답입니다,171.85540939995553,None,171.85540939995553,None,171.85540939995553,None,171.85540939995553,None,172.39449159998912,None,172.39449159998912,172.89747949992307,,,,,,,,,,,,,,,,007,2022-05-09_14h00.53.606,FishGame,2022.1.1,60.02350520193826,
,9,넌 적극적이야,1,Orange,A,5.708333333333333,5.533333333333333,ScrollDown,ScrollUp,Orange.png,1,Positive,Congruent,0,0,0,0,,,,,,,,,,,,,0,8,8,8,,,,,,,,,,,,,,,,,,,,,,,,,,,,,,,,,,,,,,,,,,,,,,,,,,,,,,,,,,,,,,,,,,,,,,,,,,,,,,,,,,,,,1.3132715995113053,0.679698699968867,173.5185715999687,None,ScrollDown,정답입니다,173.5185715999687,None,173.5185715999687,None,173.5185715999687,None,173.5185715999687,None,174.09442929993384,None,174.09442929993384,174.5972445999505,,,,,,,,,,,,,,,,007,2022-05-09_14h00.53.606,FishGame,2022.1.1,60.02350520193826,
,10,넌 재미없어,4,Green,B,2.625,2.966666666666667,ScrollUp,ScrollDown,Green.png,1,Negative,Congruent,0,0,0,0,,,,,,,,,,,,,0,9,9,9,,,,,,,,,,,,,,,,,,,,,,,,,,,,,,,,,,,,,,,,,,,,,,,,,,,,,,,,,,,,,,,,,,,,,,,,,,,,,,,,,,,,,1.71913580596447,0.7588713000295684,175.22050479997415,None,ScrollUp,정답입니다,175.22050479997415,None,175.22050479997415,None,175.22050479997415,None,175.22050479997415,None,175.87768829998095,None,175.87768829998095,176.37771469994914,,,,,,,,,,,,,,,,007,2022-05-09_14h00.53.606,FishGame,2022.1.1,60.02350520193826,
,11,넌 명석해,2,Orange,A,5.875,4.033333333333333,ScrollDown,ScrollUp,Orange.png,1,Positive,Congruent,0,0,0,0,,,,,,,,,,,,,0,10,10,10,,,,,,,,,,,,,,,,,,,,,,,,,,,,,,,,,,,,,,,,,,,,,,,,,,,,,,,,,,,,,,,,,,,,,,,,,,,,,,,,,,,,,1.2824074079593024,1.4753741999156773,177.0055894999532,None,ScrollDown,정답입니다,177.0055894999532,None,177.0055894999532,None,177.0055894999532,None,177.0055894999532,None,178.37760929996148,None,178.37760929996148,178.8776623000158,,,,,,,,,,,,,,,,007,2022-05-09_14h00.53.606,FishGame,2022.1.1,60.02350520193826,
,12,나를 데려가줘,6,Green,B,0,0,ScrollDown,ScrollUp,Green.png,1,NonTarget,NonTarget,0,0,0,0,,,,,,,,,,,,,0,11,11,11,,,,,,,,,,,,,,,,,,,,,,,,,,,,,,,,,,,,,,,,,,,,,,,,,,,,,,,,,,,,,,,,,,,,,,,,,,,,,,,,,,,,,1.1373456716537476,1.1281985000241548,179.50333799992222,None,ScrollDown,정답입니다,179.50333799992222,None,179.50333799992222,None,179.50333799992222,None,179.50333799992222,None,180.5275876999367,None,180.5275876999367,181.0304315999383,,,,,,,,,,,,,,,,007,2022-05-09_14h00.53.606,FishGame,2022.1.1,60.02350520193826,
,13,넌 소심해,4,Orange,A,3,3.1,ScrollDown,ScrollUp,Orange.png,1,Negative,Incongruent,0,0,0,0,,,,,,,,,,,,,0,12,12,12,,,,,,,,,,,,,,,,,,,,,,,,,,,,,,,,,,,,,,,,,,,,,,,,,,,,,,,,,,,,,,,,,,,,,,,,,,,,,,,,,,,,,1.2716049353281655,0.9586618000175804,181.65323109994642,None,ScrollDown,정답입니다,181.65323109994642,None,181.65323109994642,None,181.65323109994642,None,181.65323109994642,None,182.51368209999055,None,182.51368209999055,183.02729909995105,,,,,,,,,,,,,,,,007,2022-05-09_14h00.53.606,FishGame,2022.1.1,60.02350520193826,
,14,넌 합리적이야,2,Orange,A,5.583333333333333,4.733333333333333,ScrollDown,ScrollUp,Orange.png,1,Positive,Congruent,0,0,0,0,,,,,,,,,,,,,0,13,13,13,,,,,,,,,,,,,,,,,,,,,,,,,,,,,,,,,,,,,,,,,,,,,,,,,,,,,,,,,,,,,,,,,,,,,,,,,,,,,,,,,,,,,1.320987656712532,1.0614327000221238,183.6679138999898,None,ScrollDown,정답입니다,183.6679138999898,None,183.6679138999898,None,183.6679138999898,None,183.6679138999898,None,184.61055079998914,None,184.61055079998914,185.11066639993805,,,,,,,,,,,,,,,,007,2022-05-09_14h00.53.606,FishGame,2022.1.1,60.02350520193826,
,15,넌 무자비해,5,Green,B,2.333333333333333,2.1,ScrollUp,ScrollDown,Green.png,1,Negative,Congruent,0,0,0,0,,,,,,,,,,,,,0,14,14,14,,,,,,,,,,,,,,,,,,,,,,,,,,,,,,,,,,,,,,,,,,,,,,,,,,,,,,,,,,,,,,,,,,,,,,,,,,,,,,,,,,,,,1.7083333333333335,0.8777372000040486,185.75309749995358,None,ScrollUp,정답입니다,185.75309749995358,None,185.75309749995358,None,185.75309749995358,None,185.75309749995358,None,186.51083659997676,None,186.51083659997676,187.0137609000085,,,,,,,,,,,,,,,,007,2022-05-09_14h00.53.606,FishGame,2022.1.1,60.02350520193826,
,16,나를 보내줘,6,Orange,A,0,0,ScrollUp,ScrollDown,Orange.png,1,NonTarget,NonTarget,0,0,0,0,,,,,,,,,,,,,0,15,15,15,,,,,,,,,,,,,,,,,,,,,,,,,,,,,,,,,,,,,,,,,,,,,,,,,,,,,,,,,,,,,,,,,,,,,,,,,,,,,,,,,,,,,1.7746913582086563,1.1446338999085128,187.6351522000041,None,ScrollUp,정답입니다,187.6351522000041,None,187.6351522000041,None,187.6351522000041,None,187.6351522000041,None,188.68033849995118,None,188.68033849995118,189.20149150001816,,,,,,,,,,,,,,,,007,2022-05-09_14h00.53.606,FishGame,2022.1.1,60.02350520193826,
,17,넌 현실적이야,3,Green,B,4.608695652173913,4.766666666666667,ScrollUp,ScrollDown,Green.png,1,Neutral,Neutral,0,0,0,0,,,,,,,,,,,,,0,16,16,16,,,,,,,,,,,,,,,,,,,,,,,,,,,,,,,,,,,,,,,,,,,,,,,,,,,,,,,,,,,,,,,,,,,,,,,,,,,,,,,,,,,,,1.805555562178294,0.9287833999842405,189.81178240000736,None,ScrollUp,정답입니다,189.81178240000736,None,189.81178240000736,None,189.81178240000736,None,189.81178240000736,None,190.64377820002846,None,190.64377820002846,191.1438026999822,,,,,,,,,,,,,,,,007,2022-05-09_14h00.53.606,FishGame,2022.1.1,60.02350520193826,
,18,넌 의리있어,1,Green,B,5.833333333333334,5.633333333333334,ScrollUp,ScrollDown,Green.png,1,Positive,Incongruent,0,0,0,0,,,,,,,,,,,,,0,17,17,17,,,,,,,,,,,,,,,,,,,,,,,,,,,,,,,,,,,,,,,,,,,,,,,,,,,,,,,,,,,,,,,,,,,,,,,,,,,,,,,,,,,,,1.873456800977389,1.095492299995385,191.76144879998174,None,ScrollUp,정답입니다,191.76144879998174,None,191.76144879998174,None,191.76144879998174,None,191.76144879998174,None,192.7604170999257,None,192.7604170999257,193.26366519997828,,,,,,,,,,,,,,,,007,2022-05-09_14h00.53.606,FishGame,2022.1.1,60.02350520193826,
,19,넌 신경과민이야,5,Orange,A,2.541666666666667,2.166666666666667,ScrollDown,ScrollUp,Orange.png,1,Negative,Incongruent,0,0,0,0,,,,,,,,,,,,,0,18,18,18,,,,,,,,,,,,,,,,,,,,,,,,,,,,,,,,,,,,,,,,,,,,,,,,,,,,,,,,,,,,,,,,,,,,,,,,,,,,,,,,,,,,,1.0447530845801036,0.8649114000145346,193.88621719996445,None,ScrollDown,정답입니다,193.88621719996445,None,193.88621719996445,None,193.88621719996445,None,193.88621719996445,None,194.64401129994076,None,194.64401129994076,195.14682289992925,,,,,,,,,,,,,,,,007,2022-05-09_14h00.53.606,FishGame,2022.1.1,60.02350520193826,
,20,넌 편안해,1,Orange,A,5.916666666666666,5.866666666666666,ScrollDown,ScrollUp,Orange.png,1,Positive,Congruent,0,0,0,0,,,,,,,,,,,,,0,19,19,19,,,,,,,,,,,,,,,,,,,,,,,,,,,,,,,,,,,,,,,,,,,,,,,,,,,,,,,,,,,,,,,,,,,,,,,,,,,,,,,,,,,,,1.1682098756233852,0.8136435999767855,195.770325499936,None,ScrollDown,정답입니다,195.770325499936,None,195.770325499936,None,195.770325499936,None,195.770325499936,None,196.48627779993694,None,196.48627779993694,196.99367649992928,,,,,,,,,,,,,,,,007,2022-05-09_14h00.53.606,FishGame,2022.1.1,60.02350520193826,
,21,넌 품위있어,2,Green,B,5.291666666666666,4.466666666666667,ScrollUp,ScrollDown,Green.png,1,Positive,Incongruent,0,0,0,0,,,,,,,,,,,,,0,20,20,20,,,,,,,,,,,,,,,,,,,,,,,,,,,,,,,,,,,,,,,,,,,,,,,,,,,,,,,,,,,,,,,,,,,,,,,,,,,,,,,,,,,,,1.9367283980051677,0.9118342000292614,197.62974769994617,None,ScrollUp,정답입니다,197.62974769994617,None,197.62974769994617,None,197.62974769994617,None,197.62974769994617,None,198.426941899932,None,198.426941899932,198.927038099966,,,,,,,,,,,,,,,,007,2022-05-09_14h00.53.606,FishGame,2022.1.1,60.02350520193826,
,22,넌 빈틈없어,3,Orange,A,4.833333333333333,3.966666666666667,ScrollDown,ScrollUp,Orange.png,1,Neutral,Neutral,0,0,0,0,,,,,,,,,,,,,0,21,21,21,,,,,,,,,,,,,,,,,,,,,,,,,,,,,,,,,,,,,,,,,,,,,,,,,,,,,,,,,,,,,,,,,,,,,,,,,,,,,,,,,,,,,1.3348765447735786,0.759530899929814,199.5528460999485,None,ScrollDown,정답입니다,199.5528460999485,None,199.5528460999485,None,199.5528460999485,None,199.5528460999485,None,200.2105511999689,None,200.2105511999689,200.71060819993727,,,,,,,,,,,,,,,,007,2022-05-09_14h00.53.606,FishGame,2022.1.1,60.02350520193826,
,23,넌 상상력없어,4,Green,B,2.833333333333333,3.133333333333333,ScrollUp,ScrollDown,Green.png,1,Negative,Congruent,0,0,0,0,,,,,,,,,,,,,0,22,22,22,,,,,,,,,,,,,,,,,,,,,,,,,,,,,,,,,,,,,,,,,,,,,,,,,,,,,,,,,,,,,,,,,,,,,,,,,,,,,,,,,,,,,1.5709876542290053,0.725602800026536,201.355232300004,None,ScrollUp,정답입니다,201.355232300004,None,201.355232300004,None,201.355232300004,None,201.355232300004,None,201.9605040999595,None,201.9605040999595,202.46770659997128,,,,,,,,,,,,,,,,007,2022-05-09_14h00.53.606,FishGame,2022.1.1,60.02350520193826,
,24,넌 지혜로워,2,Green,B,6.333333333333334,4.633333333333334,ScrollUp,ScrollDown,Green.png,1,Positive,Incongruent,0,0,0,0,,,,,,,,,,,,,0,23,23,23,,,,,,,,,,,,,,,,,,,,,,,,,,,,,,,,,,,,,,,,,,,,,,,,,,,,,,,,,,,,,,,,,,,,,,,,,,,,,,,,,,,,,1.8271604826052983,0.9281413999851793,203.08420319994912,None,ScrollUp,정답입니다,203.08420319994912,None,203.08420319994912,None,203.08420319994912,None,203.08420319994912,None,203.91012100002263,None,203.91012100002263,204.4101709999377,,,,,,,,,,,,,,,,007,2022-05-09_14h00.53.606,FishGame,2022.1.1,60.02350520193826,
,25,넌 시끄러워,4,Orange,A,2.833333333333333,3.033333333333333,ScrollDown,ScrollUp,Orange.png,1,Negative,Incongruent,0,0,0,0,,,,,,,,,,,,,0,24,24,24,,,,,,,,,,,,,,,,,,,,,,,,,,,,,,,,,,,,,,,,,,,,,,,,,,,,,,,,,,,,,,,,,,,,,,,,,,,,,,,,,,,,,1.2191358109315236,0.8448607999598607,205.03795609995723,None,ScrollDown,정답입니다,205.03795609995723,None,205.03795609995723,None,205.03795609995723,None,205.03795609995723,None,205.77710119995754,None,205.77710119995754,206.28000050003175,,,,,,,,,,,,,,,,007,2022-05-09_14h00.53.606,FishGame,2022.1.1,60.02350520193826,
,26,넌 만사태평이야,3,Green,B,4,4.333333333333333,ScrollUp,ScrollDown,Green.png,1,Neutral,Neutral,0,0,0,0,,,,,,,,,,,,,0,25,25,25,,,,,,,,,,,,,,,,,,,,,,,,,,,,,,,,,,,,,,,,,,,,,,,,,,,,,,,,,,,,,,,,,,,,,,,,,,,,,,,,,,,,,1.6898148159186044,0.9263506999704987,206.90186270000413,None,ScrollUp,정답입니다,206.90186270000413,None,206.90186270000413,None,206.90186270000413,None,206.90186270000413,None,207.727028699941,None,207.727028699941,208.2299103999976,,,,,,,,,,,,,,,,007,2022-05-09_14h00.53.606,FishGame,2022.1.1,60.02350520193826,
,27,넌 붙임성있어,1,Orange,A,5.708333333333333,5.633333333333334,ScrollDown,ScrollUp,Orange.png,1,Positive,Congruent,0,0,0,0,,,,,,,,,,,,,0,26,26,26,,,,,,,,,,,,,,,,,,,,,,,,,,,,,,,,,,,,,,,,,,,,,,,,,,,,,,,,,,,,,,,,,,,,,,,,,,,,,,,,,,,,,1.1234567960103352,0.8151209000498056,208.85309989994857,None,ScrollDown,정답입니다,208.85309989994857,None,208.85309989994857,None,208.85309989994857,None,208.85309989994857,None,209.5599887999706,None,209.5599887999706,210.06006289995275,,,,,,,,,,,,,,,,007,2022-05-09_14h00.53.606,FishGame,2022.1.1,60.02350520193826,
,28,넌 영리해,2,Orange,A,6,4.033333333333333,ScrollDown,ScrollUp,Orange.png,1,Positive,Congruent,0,0,0,0,,,,,,,,,,,,,0,27,27,27,,,,,,,,,,,,,,,,,,,,,,,,,,,,,,,,,,,,,,,,,,,,,,,,,,,,,,,,,,,,,,,,,,,,,,,,,,,,,,,,,,,,,1.1882716069618862,1.0793354000197724,210.68093069992028,None,ScrollDown,정답입니다,210.68093069992028,None,210.68093069992028,None,210.68093069992028,None,210.68093069992028,None,211.66032839997206,None,211.66032839997206,212.1631334000267,,,,,,,,,,,,,,,,007,2022-05-09_14h00.53.606,FishGame,2022.1.1,60.02350520193826,
,29,넌 열심이야,1,Green,B,6.041666666666667,5.833333333333333,ScrollUp,ScrollDown,Green.png,1,Positive,Incongruent,0,0,0,0,,,,,,,,,,,,,0,28,28,28,,,,,,,,,,,,,,,,,,,,,,,,,,,,,,,,,,,,,,,,,,,,,,,,,,,,,,,,,,,,,,,,,,,,,,,,,,,,,,,,,,,,,1.6975308607021966,0.9585681000025943,212.7875879999483,None,ScrollUp,정답입니다,212.7875879999483,None,212.7875879999483,None,212.7875879999483,None,212.7875879999483,None,213.64359290001448,None,213.64359290001448,214.14660789992195,,,,,,,,,,,,,,,,007,2022-05-09_14h00.53.606,FishGame,2022.1.1,60.02350520193826,
,30,넌 인기없어,4,Green,B,3,3.3,ScrollUp,ScrollDown,Green.png,1,Negative,Congruent,0,0,0,0,,,,,,,,,,,,,0,29,29,29,,,,,,,,,,,,,,,,,,,,,,,,,,,,,,,,,,,,,,,,,,,,,,,,,,,,,,,,,,,,,,,,,,,,,,,,,,,,,,,,,,,,,1.7376543233791986,1.00707039993722,214.77104080002755,None,ScrollUp,정답입니다,214.77104080002755,None,214.77104080002755,None,214.77104080002755,None,214.77104080002755,None,215.6765396000119,None,215.6765396000119,216.17661550000776,,,,,,,,,,,,,,,,007,2022-05-09_14h00.53.606,FishGame,2022.1.1,60.02350520193826,
,31,넌 익살스러워,3,Orange,A,4.708333333333334,4.833333333333333,ScrollDown,ScrollUp,Orange.png,1,Neutral,Neutral,0,0,0,0,,,,,,,,,,,,,0,30,30,30,,,,,,,,,,,,,,,,,,,,,,,,,,,,,,,,,,,,,,,,,,,,,,,,,,,,,,,,,,,,,,,,,,,,,,,,,,,,,,,,,,,,,1.162037044763565,0.7951547999400645,216.80234229995403,None,ScrollDown,정답입니다,216.80234229995403,None,216.80234229995403,None,216.80234229995403,None,216.80234229995403,None,217.4935329,None,217.4935329,217.99351699999534,,,,,,,,,,,,,,,,007,2022-05-09_14h00.53.606,FishGame,2022.1.1,60.02350520193826,
,32,넌 이기적이야,5,Green,B,2.291666666666667,2.333333333333333,ScrollUp,ScrollDown,Green.png,1,Negative,Congruent,0,0,0,0,,,,,,,,,,,,,0,31,31,31,,,,,,,,,,,,,,,,,,,,,,,,,,,,,,,,,,,,,,,,,,,,,,,,,,,,,,,,,,,,,,,,,,,,,,,,,,,,,,,,,,,,,1.787037044763565,0.7105906999204308,218.6124747999711,None,ScrollUp,정답입니다,218.6124747999711,None,218.6124747999711,None,218.6124747999711,None,218.6124747999711,None,219.22680239996407,None,219.22680239996407,219.72705629991833,,,,,,,,,,,,,,,,007,2022-05-09_14h00.53.606,FishGame,2022.1.1,60.02350520193826,
,33,나를 데려가줘,6,Green,B,0,0,ScrollDown,ScrollUp,Green.png,1,NonTarget,NonTarget,0,0,0,0,,,,,,,,,,,,,0,32,32,32,,,,,,,,,,,,,,,,,,,,,,,,,,,,,,,,,,,,,,,,,,,,,,,,,,,,,,,,,,,,,,,,,,,,,,,,,,,,,,,,,,,,,1.0617283880710602,1.1919117999495938,220.3491104999557,None,ScrollDown,정답입니다,220.3491104999557,None,220.3491104999557,None,220.3491104999557,None,220.3491104999557,None,221.4433207999682,None,221.4433207999682,221.94335710001178,,,,,,,,,,,,,,,,007,2022-05-09_14h00.53.606,FishGame,2022.1.1,60.02350520193826,
,34,넌 기회주의자야,5,Orange,A,2.875,2.133333333333333,ScrollDown,ScrollUp,Orange.png,1,Negative,Incongruent,0,0,0,0,,,,,,,,,,,,,0,33,33,33,,,,,,,,,,,,,,,,,,,,,,,,,,,,,,,,,,,,,,,,,,,,,,,,,,,,,,,,,,,,,,,,,,,,,,,,,,,,,,,,,,,,,1.1990740795930226,1.0421209000051022,222.5726953999838,None,ScrollDown,정답입니다,222.5726953999838,None,222.5726953999838,None,222.5726953999838,None,222.5726953999838,None,223.5099866000237,None,223.5099866000237,224.0129587999545,,,,,,,,,,,,,,,,007,2022-05-09_14h00.53.606,FishGame,2022.1.1,60.02350520193826,
,1,넌 미성숙해,4,Orange,A,3,3.2,ScrollDown,ScrollUp,Orange.png,2,Negative,Incongruent,0,0,0,0,,,,,,,,,,,,,,,,,0,0,0,0,,,,,,,,,,,,,,,,,,,,,,,,,,,,,,,,,,,,,,,,262.19537109998055,263.69990110001527,263.716312799952,264.67873499996495,264.7258693999611,265.67579300003126,265.67579300003126,None,,,,,,,,,,,,,,,,,,,,,,,,,,,,,,,,,,1.0972222338120143,0.8976237999740988,266.78462029993534,None,ScrollDown,정답입니다,266.78462029993534,None,266.78462029993534,None,266.78462029993534,None,266.78462029993534,None,267.5756840999238,None,267.5756840999238,268.0757719000103,224.51005089993123,None,224.51005089993123,None,0.18055555,-0.09074074,1,0,0,0.015783330076374114,None,254.50918689998798,None,,,007,2022-05-09_14h00.53.606,FishGame,2022.1.1,60.02350520193826,
,2,넌 반사회적이야,5,Green,B,2.416666666666667,2.033333333333333,ScrollUp,ScrollDown,Green.png,2,Negative,Congruent,0,0,0,0,,,,,,,,,,,,,,,,,0,1,1,1,,,,,,,,,,,,,,,,,,,,,,,,,,,,,,,,,,,,,,,,,,,,,,,,,,,,,,,,,,,,,,,,,,,,,,,,,,,,,,,,,1.6250000049670539,0.8955925999907777,268.69663629995193,None,ScrollUp,정답입니다,268.69663629995193,None,268.69663629995193,None,268.69663629995193,None,268.69663629995193,None,269.4923385999864,None,269.4923385999864,269.99240500002634,,,,,,,,,,,,,,,,007,2022-05-09_14h00.53.606,FishGame,2022.1.1,60.02350520193826,
,3,넌 유능해,2,Orange,A,6.208333333333333,4.433333333333334,ScrollDown,ScrollUp,Orange.png,2,Positive,Congruent,0,0,0,0,,,,,,,,,,,,,,,,,0,2,2,2,,,,,,,,,,,,,,,,,,,,,,,,,,,,,,,,,,,,,,,,,,,,,,,,,,,,,,,,,,,,,,,,,,,,,,,,,,,,,,,,,1.2608024626970291,0.8276789999799803,270.6177944999654,None,ScrollDown,정답입니다,270.6177944999654,None,270.6177944999654,None,270.6177944999654,None,270.6177944999654,None,271.34233719995245,None,271.34233719995245,271.84238769998774,,,,,,,,,,,,,,,,007,2022-05-09_14h00.53.606,FishGame,2022.1.1,60.02350520193826,
,4,넌 능숙해,2,Green,B,5.666666666666667,4.733333333333333,ScrollUp,ScrollDown,Green.png,2,Positive,Incongruent,0,0,0,0,,,,,,,,,,,,,,,,,0,3,3,3,,,,,,,,,,,,,,,,,,,,,,,,,,,,,,,,,,,,,,,,,,,,,,,,,,,,,,,,,,,,,,,,,,,,,,,,,,,,,,,,,1.8703703731298447,0.7923461999744177,272.4644216999877,None,ScrollUp,정답입니다,272.4644216999877,None,272.4644216999877,None,272.4644216999877,None,272.4644216999877,None,273.1586918999674,None,273.1586918999674,273.6587050999515,,,,,,,,,,,,,,,,007,2022-05-09_14h00.53.606,FishGame,2022.1.1,60.02350520193826,
,5,넌 진부해,4,Green,B,2.458333333333333,3.166666666666667,ScrollUp,ScrollDown,Green.png,2,Negative,Congruent,0,0,0,0,,,,,,,,,,,,,,,,,0,4,4,4,,,,,,,,,,,,,,,,,,,,,,,,,,,,,,,,,,,,,,,,,,,,,,,,,,,,,,,,,,,,,,,,,,,,,,,,,,,,,,,,,1.7561728407939274,0.9123804999981076,274.2790297999745,None,ScrollUp,정답입니다,274.2790297999745,None,274.2790297999745,None,274.2790297999745,None,274.2790297999745,None,275.09520179999527,None,275.09520179999527,275.61182839993853,,,,,,,,,,,,,,,,007,2022-05-09_14h00.53.606,FishGame,2022.1.1,60.02350520193826,
,6,나를 보내줘,6,Orange,A,0,0,ScrollUp,ScrollDown,Orange.png,2,NonTarget,NonTarget,0,0,0,0,,,,,,,,,,,,,,,,,0,5,5,5,,,,,,,,,,,,,,,,,,,,,,,,,,,,,,,,,,,,,,,,,,,,,,,,,,,,,,,,,,,,,,,,,,,,,,,,,,,,,,,,,1.8641975422700245,1.0595536000328138,276.2138962999452,None,ScrollUp,정답입니다,276.2138962999452,None,276.2138962999452,None,276.2138962999452,None,276.2138962999452,None,277.17840169998817,None,277.17840169998817,277.67848659993615,,,,,,,,,,,,,,,,007,2022-05-09_14h00.53.606,FishGame,2022.1.1,60.02350520193826,
,7,넌 엄격해,3,Orange,A,4.166666666666666,4.1,ScrollDown,ScrollUp,Orange.png,2,Neutral,Neutral,0,0,0,0,,,,,,,,,,,,,,,,,0,6,6,6,,,,,,,,,,,,,,,,,,,,,,,,,,,,,,,,,,,,,,,,,,,,,,,,,,,,,,,,,,,,,,,,,,,,,,,,,,,,,,,,,1.3395061741272607,0.8409781999653205,278.3088208999252,None,ScrollDown,정답입니다,278.3088208999252,None,278.3088208999252,None,278.3088208999252,None,278.3088208999252,None,279.0420930000255,None,279.0420930000255,279.5449158999836,,,,,,,,,,,,,,,,007,2022-05-09_14h00.53.606,FishGame,2022.1.1,60.02350520193826,
,8,나를 보내줘,6,Orange,A,0,0,ScrollUp,ScrollDown,Orange.png,2,NonTarget,NonTarget,0,0,0,0,,,,,,,,,,,,,,,,,0,7,7,7,,,,,,,,,,,,,,,,,,,,,,,,,,,,,,,,,,,,,,,,,,,,,,,,,,,,,,,,,,,,,,,,,,,,,,,,,,,,,,,,,1.7638888855775197,0.9089643999468535,280.16786069993395,None,ScrollUp,정답입니다,280.16786069993395,None,280.16786069993395,None,280.16786069993395,None,280.16786069993395,None,280.97541489999276,None,280.97541489999276,281.4754644000204,,,,,,,,,,,,,,,,007,2022-05-09_14h00.53.606,FishGame,2022.1.1,60.02350520193826,
,9,넌 대담해,3,Green,B,4.875,4.866666666666666,ScrollUp,ScrollDown,Green.png,2,Neutral,Neutral,0,0,0,0,,,,,,,,,,,,,,,,,0,8,8,8,,,,,,,,,,,,,,,,,,,,,,,,,,,,,,,,,,,,,,,,,,,,,,,,,,,,,,,,,,,,,,,,,,,,,,,,,,,,,,,,,1.7175925920406976,0.8946027000201866,282.10121569992043,None,ScrollUp,정답입니다,282.10121569992043,None,282.10121569992043,None,282.10121569992043,None,282.10121569992043,None,282.8921867000172,None,282.8921867000172,283.3920559999533,,,,,,,,,,,,,,,,007,2022-05-09_14h00.53.606,FishGame,2022.1.1,60.02350520193826,
,10,넌 꾸준해,1,Orange,A,5.916666666666668,5.8,ScrollDown,ScrollUp,Orange.png,2,Positive,Congruent,0,0,0,0,,,,,,,,,,,,,,,,,0,9,9,9,,,,,,,,,,,,,,,,,,,,,,,,,,,,,,,,,,,,,,,,,,,,,,,,,,,,,,,,,,,,,,,,,,,,,,,,,,,,,,,,,1.3379629602034888,1.0964727000100538,284.01392169995233,None,ScrollDown,정답입니다,284.01392169995233,None,284.01392169995233,None,284.01392169995233,None,284.01392169995233,None,285.00876290001906,None,285.00876290001906,285.5087399999611,,,,,,,,,,,,,,,,007,2022-05-09_14h00.53.606,FishGame,2022.1.1,60.02350520193826,
,11,나를 데려가줘,6,Green,B,0,0,ScrollDown,ScrollUp,Green.png,2,NonTarget,NonTarget,0,0,0,0,,,,,,,,,,,,,,,,,0,10,10,10,,,,,,,,,,,,,,,,,,,,,,,,,,,,,,,,,,,,,,,,,,,,,,,,,,,,,,,,,,,,,,,,,,,,,,,,,,,,,,,,,1.9104938358068466,0.8104161999654025,286.12738299998455,None,ScrollUp,오답입니다,286.12738299998455,None,286.12738299998455,None,286.12738299998455,None,286.12738299998455,None,286.8420206999872,None,286.8420206999872,287.349106599926,,,,,,,,,,,,,,,,007,2022-05-09_14h00.53.606,FishGame,2022.1.1,60.02350520193826,
,12,넌 독선적이야,5,Orange,A,2.458333333333333,1.933333333333333,ScrollDown,ScrollUp,Orange.png,2,Negative,Incongruent,0,0,0,0,,,,,,,,,,,,,,,,,0,11,11,11,,,,,,,,,,,,,,,,,,,,,,,,,,,,,,,,,,,,,,,,,,,,,,,,,,,,,,,,,,,,,,,,,,,,,,,,,,,,,,,,,1.3179012288649878,0.911486699944362,287.96785729995463,None,ScrollDown,정답입니다,287.96785729995463,None,287.96785729995463,None,287.96785729995463,None,287.96785729995463,None,288.7749781999737,None,288.7749781999737,289.27508799999487,,,,,,,,,,,,,,,,007,2022-05-09_14h00.53.606,FishGame,2022.1.1,60.02350520193826,
,13,나를 보내줘,6,Orange,A,0,0,ScrollUp,ScrollDown,Orange.png,2,NonTarget,NonTarget,0,0,0,0,,,,,,,,,,,,,,,,,0,12,12,12,,,,,,,,,,,,,,,,,,,,,,,,,,,,,,,,,,,,,,,,,,,,,,,,,,,,,,,,,,,,,,,,,,,,,,,,,,,,,,,,,1.9814815024534862,1.1118357999948785,289.9005192000186,None,ScrollUp,정답입니다,289.9005192000186,None,289.9005192000186,None,289.9005192000186,None,289.9005192000186,None,290.9086223000195,None,290.9086223000195,291.40867019991856,,,,,,,,,,,,,,,,007,2022-05-09_14h00.53.606,FishGame,2022.1.1,60.02350520193826,
,14,넌 책임감있어,1,Green,B,6.347826086956522,6,ScrollUp,ScrollDown,Green.png,2,Positive,Incongruent,0,0,0,0,,,,,,,,,,,,,,,,,0,13,13,13,,,,,,,,,,,,,,,,,,,,,,,,,,,,,,,,,,,,,,,,,,,,,,,,,,,,,,,,,,,,,,,,,,,,,,,,,,,,,,,,,2,1.2419358999468386,292.03525299998,None,ScrollUp,정답입니다,292.03525299998,None,292.03525299998,None,292.03525299998,None,292.03525299998,None,293.1751992999343,None,293.1751992999343,293.67522410000674,,,,,,,,,,,,,,,,007,2022-05-09_14h00.53.606,FishGame,2022.1.1,60.02350520193826,
,15,넌 문학적이야,3,Orange,A,4.708333333333334,4.333333333333333,ScrollDown,ScrollUp,Orange.png,2,Neutral,Neutral,0,0,0,0,,,,,,,,,,,,,,,,,0,14,14,14,,,,,,,,,,,,,,,,,,,,,,,,,,,,,,,,,,,,,,,,,,,,,,,,,,,,,,,,,,,,,,,,,,,,,,,,,,,,,,,,,1.2916666666666665,0.8257115000160411,294.30317770002875,None,ScrollDown,정답입니다,294.30317770002875,None,294.30317770002875,None,294.30317770002875,None,294.30317770002875,None,295.0251918999711,None,295.0251918999711,295.52521230001,,,,,,,,,,,,,,,,007,2022-05-09_14h00.53.606,FishGame,2022.1.1,60.02350520193826,
,16,넌 재미있어,1,Green,B,5.875,5.7,ScrollUp,ScrollDown,Green.png,2,Positive,Incongruent,0,0,0,0,,,,,,,,,,,,,,,,,0,15,15,15,,,,,,,,,,,,,,,,,,,,,,,,,,,,,,,,,,,,,,,,,,,,,,,,,,,,,,,,,,,,,,,,,,,,,,,,,,,,,,,,,1.9552469154198964,1.02540849999059,296.14519599999767,None,ScrollUp,정답입니다,296.14519599999767,None,296.14519599999767,None,296.14519599999767,None,296.14519599999767,None,297.0751283999998,None,297.0751283999998,297.58252479997464,,,,,,,,,,,,,,,,007,2022-05-09_14h00.53.606,FishGame,2022.1.1,60.02350520193826,
,17,나를 데려가줘,6,Green,B,0,0,ScrollDown,ScrollUp,Green.png,2,NonTarget,NonTarget,0,0,0,0,,,,,,,,,,,,,,,,,0,16,16,16,,,,,,,,,,,,,,,,,,,,,,,,,,,,,,,,,,,,,,,,,,,,,,,,,,,,,,,,,,,,,,,,,,,,,,,,,,,,,,,,,1.296296296020349,1.1278745000017807,298.1935421000235,None,ScrollDown,정답입니다,298.1935421000235,None,298.1935421000235,None,298.1935421000235,None,298.1935421000235,None,299.2247557999799,None,299.2247557999799,299.72487179993186,,,,,,,,,,,,,,,,007,2022-05-09_14h00.53.606,FishGame,2022.1.1,60.02350520193826,
,18,넌 협력적이야,1,Orange,A,5.625,5.633333333333334,ScrollDown,ScrollUp,Orange.png,2,Positive,Congruent,0,0,0,0,,,,,,,,,,,,,,,,,0,17,17,17,,,,,,,,,,,,,,,,,,,,,,,,,,,,,,,,,,,,,,,,,,,,,,,,,,,,,,,,,,,,,,,,,,,,,,,,,,,,,,,,,1.212962955236435,1.028047600062564,300.34915649995673,None,ScrollDown,정답입니다,300.34915649995673,None,300.34915649995673,None,300.34915649995673,None,300.34915649995673,None,301.2778441000264,None,301.2778441000264,301.7750474999193,,,,,,,,,,,,,,,,007,2022-05-09_14h00.53.606,FishGame,2022.1.1,60.02350520193826,
,19,넌 평범해,3,Green,B,4.333333333333332,4.233333333333333,ScrollUp,ScrollDown,Green.png,2,Neutral,Neutral,0,0,0,0,,,,,,,,,,,,,,,,,0,18,18,18,,,,,,,,,,,,,,,,,,,,,,,,,,,,,,,,,,,,,,,,,,,,,,,,,,,,,,,,,,,,,,,,,,,,,,,,,,,,,,,,,1.8765432039896648,0.9256068000104278,302.39971159992274,None,ScrollUp,정답입니다,302.39971159992274,None,302.39971159992274,None,302.39971159992274,None,302.39971159992274,None,303.2249803999439,None,303.2249803999439,303.72472199995536,,,,,,,,,,,,,,,,007,2022-05-09_14h00.53.606,FishGame,2022.1.1,60.02350520193826,
,20,넌 오만해,5,Orange,A,2.333333333333333,2,ScrollDown,ScrollUp,Orange.png,2,Negative,Incongruent,0,0,0,0,,,,,,,,,,,,,,,,,0,19,19,19,,,,,,,,,,,,,,,,,,,,,,,,,,,,,,,,,,,,,,,,,,,,,,,,,,,,,,,,,,,,,,,,,,,,,,,,,,,,,,,,,1.0246913532416027,0.8778054000576958,304.3478717999533,None,ScrollDown,정답입니다,304.3478717999533,None,304.3478717999533,None,304.3478717999533,None,304.3478717999533,None,305.1246097999392,None,305.1246097999392,305.6247445999179,,,,,,,,,,,,,,,,007,2022-05-09_14h00.53.606,FishGame,2022.1.1,60.02350520193826,
,21,넌 운이없어,4,Green,B,3,3.466666666666667,ScrollUp,ScrollDown,Green.png,2,Negative,Congruent,0,0,0,0,,,,,,,,,,,,,,,,,0,20,20,20,,,,,,,,,,,,,,,,,,,,,,,,,,,,,,,,,,,,,,,,,,,,,,,,,,,,,,,,,,,,,,,,,,,,,,,,,,,,,,,,,1.8564814726511638,0.9291758000617847,306.24414830002934,None,ScrollUp,정답입니다,306.24414830002934,None,306.24414830002934,None,306.24414830002934,None,306.24414830002934,None,307.07776419993024,None,307.07776419993024,307.5749751999974,,,,,,,,,,,,,,,,007,2022-05-09_14h00.53.606,FishGame,2022.1.1,60.02350520193826,
,22,넌 창조적이야,2,Green,B,6.125,4.633333333333334,ScrollUp,ScrollDown,Green.png,2,Positive,Incongruent,0,0,0,0,,,,,,,,,,,,,,,,,0,21,21,21,,,,,,,,,,,,,,,,,,,,,,,,,,,,,,,,,,,,,,,,,,,,,,,,,,,,,,,,,,,,,,,,,,,,,,,,,,,,,,,,,1.8317901243766148,0.9111043999437243,308.19684809993487,None,ScrollUp,정답입니다,308.19684809993487,None,308.19684809993487,None,308.19684809993487,None,308.19684809993487,None,309.0110425000312,None,309.0110425000312,309.5156718000071,,,,,,,,,,,,,,,,007,2022-05-09_14h00.53.606,FishGame,2022.1.1,60.02350520193826,
,23,나를 보내줘,6,Orange,A,0,0,ScrollUp,ScrollDown,Orange.png,2,NonTarget,NonTarget,0,0,0,0,,,,,,,,,,,,,,,,,0,22,22,22,,,,,,,,,,,,,,,,,,,,,,,,,,,,,,,,,,,,,,,,,,,,,,,,,,,,,,,,,,,,,,,,,,,,,,,,,,,,,,,,,1.7422839403152466,1.012206400046125,310.1400930000236,None,ScrollUp,정답입니다,310.1400930000236,None,310.1400930000236,None,310.1400930000236,None,310.1400930000236,None,311.057832499966,None,311.057832499966,311.55795869999565,,,,,,,,,,,,,,,,007,2022-05-09_14h00.53.606,FishGame,2022.1.1,60.02350520193826,
,24,넌 통찰력있어,2,Orange,A,6.5,4.8,ScrollDown,ScrollUp,Orange.png,2,Positive,Congruent,0,0,0,0,,,,,,,,,,,,,,,,,0,23,23,23,,,,,,,,,,,,,,,,,,,,,,,,,,,,,,,,,,,,,,,,,,,,,,,,,,,,,,,,,,,,,,,,,,,,,,,,,,,,,,,,,1.214506169160207,1.0118938999949023,312.1827292999951,None,ScrollDown,정답입니다,312.1827292999951,None,312.1827292999951,None,312.1827292999951,None,312.1827292999951,None,313.0914832999697,None,313.0914832999697,313.5915045000147,,,,,,,,,,,,,,,,007,2022-05-09_14h00.53.606,FishGame,2022.1.1,60.02350520193826,
,25,넌 경솔해,5,Green,B,2.458333333333333,2.266666666666667,ScrollUp,ScrollDown,Green.png,2,Negative,Congruent,0,0,0,0,,,,,,,,,,,,,,,,,0,24,24,24,,,,,,,,,,,,,,,,,,,,,,,,,,,,,,,,,,,,,,,,,,,,,,,,,,,,,,,,,,,,,,,,,,,,,,,,,,,,,,,,,2,0.9756948999129236,314.2175844999729,None,ScrollUp,정답입니다,314.2175844999729,None,314.2175844999729,None,314.2175844999729,None,314.2175844999729,None,315.09147149999626,None,315.09147149999626,315.5984382999595,,,,,,,,,,,,,,,,007,2022-05-09_14h00.53.606,FishGame,2022.1.1,60.02350520193826,
,26,넌 초조해,4,Orange,A,2.916666666666667,3.133333333333333,ScrollDown,ScrollUp,Orange.png,2,Negative,Incongruent,0,0,0,0,,,,,,,,,,,,,,,,,0,25,25,25,,,,,,,,,,,,,,,,,,,,,,,,,,,,,,,,,,,,,,,,,,,,,,,,,,,,,,,,,,,,,,,,,,,,,,,,,,,,,,,,,1.2175925970077515,0.9947517000837252,316.2207028999692,None,ScrollDown,정답입니다,316.2207028999692,None,316.2207028999692,None,316.2207028999692,None,316.2207028999692,None,317.1077056999784,None,317.1077056999784,317.60782219993416,,,,,,,,,,,,,,,,007,2022-05-09_14h00.53.606,FishGame,2022.1.1,60.02350520193826,
,27,넌 무관심해,4,Green,B,2.833333333333333,2.9,ScrollUp,ScrollDown,Green.png,2,Negative,Congruent,0,0,0,0,,,,,,,,,,,,,,,,,0,26,26,26,,,,,,,,,,,,,,,,,,,,,,,,,,,,,,,,,,,,,,,,,,,,,,,,,,,,,,,,,,,,,,,,,,,,,,,,,,,,,,,,,2,0.9117494000820443,318.2277339999564,None,ScrollUp,정답입니다,318.2277339999564,None,318.2277339999564,None,318.2277339999564,None,318.2277339999564,None,319.0413684999803,None,319.0413684999803,319.5413814999629,,,,,,,,,,,,,,,,007,2022-05-09_14h00.53.606,FishGame,2022.1.1,60.02350520193826,
,28,넌 감성적이야,3,Green,B,4.125,4.166666666666667,ScrollUp,ScrollDown,Green.png,2,Neutral,Neutral,0,0,0,0,,,,,,,,,,,,,,,,,0,27,27,27,,,,,,,,,,,,,,,,,,,,,,,,,,,,,,,,,,,,,,,,,,,,,,,,,,,,,,,,,,,,,,,,,,,,,,,,,,,,,,,,,1.9228395223617554,1.0430936999619007,320.16089219995774,None,ScrollUp,정답입니다,320.16089219995774,None,320.16089219995774,None,320.16089219995774,None,320.16089219995774,None,321.1079449999379,None,321.1079449999379,321.6153810999822,,,,,,,,,,,,,,,,007,2022-05-09_14h00.53.606,FishGame,2022.1.1,60.02350520193826,
,29,넌 배려심있어,1,Orange,A,6.083333333333333,5.5,ScrollDown,ScrollUp,Orange.png,2,Positive,Congruent,0,0,0,0,,,,,,,,,,,,,,,,,0,28,28,28,,,,,,,,,,,,,,,,,,,,,,,,,,,,,,,,,,,,,,,,,,,,,,,,,,,,,,,,,,,,,,,,,,,,,,,,,,,,,,,,,1.2824074079593024,1.028078299947083,322.2297237999737,None,ScrollDown,정답입니다,322.2297237999737,None,322.2297237999737,None,322.2297237999737,None,322.2297237999737,None,323.1575767999748,None,323.1575767999748,323.65769329993054,,,,,,,,,,,,,,,,007,2022-05-09_14h00.53.606,FishGame,2022.1.1,60.02350520193826,
,30,넌 숨김없어,3,Orange,A,4.5,4.933333333333334,ScrollDown,ScrollUp,Orange.png,2,Neutral,Neutral,0,0,0,0,,,,,,,,,,,,,,,,,0,29,29,29,,,,,,,,,,,,,,,,,,,,,,,,,,,,,,,,,,,,,,,,,,,,,,,,,,,,,,,,,,,,,,,,,,,,,,,,,,,,,,,,,1.233024686574936,0.8783511000219733,324.2855129999807,None,ScrollDown,정답입니다,324.2855129999807,None,324.2855129999807,None,324.2855129999807,None,324.2855129999807,None,325.0607996999752,None,325.0607996999752,325.574638399994,,,,,,,,,,,,,,,,007,2022-05-09_14h00.53.606,FishGame,2022.1.1,60.02350520193826,
,31,넌 훌륭해,2,Green,B,5.916666666666667,4.033333333333333,ScrollUp,ScrollDown,Green.png,2,Positive,Incongruent,0,0,0,0,,,,,,,,,,,,,,,,,0,30,30,30,,,,,,,,,,,,,,,,,,,,,,,,,,,,,,,,,,,,,,,,,,,,,,,,,,,,,,,,,,,,,,,,,,,,,,,,,,,,,,,,,1.9691357910633087,1.043291199952364,326.1802520999918,None,ScrollUp,정답입니다,326.1802520999918,None,326.1802520999918,None,326.1802520999918,None,326.1802520999918,None,327.1244933999842,None,327.1244933999842,327.63197280000895,,,,,,,,,,,,,,,,007,2022-05-09_14h00.53.606,FishGame,2022.1.1,60.02350520193826,
,32,넌 슬기로워,2,Orange,A,6.166666666666667,4.1,ScrollDown,ScrollUp,Orange.png,2,Positive,Congruent,0,0,0,0,,,,,,,,,,,,,,,,,0,31,31,31,,,,,,,,,,,,,,,,,,,,,,,,,,,,,,,,,,,,,,,,,,,,,,,,,,,,,,,,,,,,,,,,,,,,,,,,,,,,,,,,,1.28703702489535,0.9946791999973357,328.24518389999866,None,ScrollDown,정답입니다,328.24518389999866,None,328.24518389999866,None,328.24518389999866,None,328.24518389999866,None,329.1407640000107,None,329.1407640000107,329.640895599965,,,,,,,,,,,,,,,,007,2022-05-09_14h00.53.606,FishGame,2022.1.1,60.02350520193826,
,33,넌 냉혹해,5,Orange,A,2.583333333333333,2.1,ScrollDown,ScrollUp,Orange.png,2,Negative,Incongruent,0,0,0,0,,,,,,,,,,,,,,,,,0,32,32,32,,,,,,,,,,,,,,,,,,,,,,,,,,,,,,,,,,,,,,,,,,,,,,,,,,,,,,,,,,,,,,,,,,,,,,,,,,,,,,,,,1.3055555547277131,0.9113942999392748,330.27658870001324,None,ScrollDown,정답입니다,330.27658870001324,None,330.27658870001324,None,330.27658870001324,None,330.27658870001324,None,331.0744344999548,None,331.0744344999548,331.5772465999471,,,,,,,,,,,,,,,,007,2022-05-09_14h00.53.606,FishGame,2022.1.1,60.02350520193826,
,34,나를 데려가줘,6,Green,B,0,0,ScrollDown,ScrollUp,Green.png,2,NonTarget,NonTarget,0,0,0,0,,,,,,,,,,,,,,,,,0,33,33,33,,,,,,,,,,,,,,,,,,,,,,,,,,,,,,,,,,,,,,,,,,,,,,,,,,,,,,,,,,,,,,,,,,,,,,,,,,,,,,,,,1.6574074104428291,1.4439324999693781,332.19298279995564,None,ScrollUp,오답입니다,332.19298279995564,None,332.19298279995564,None,332.19298279995564,None,332.19298279995564,None,333.54107209993526,None,333.54107209993526,334.0407495999243,,,,,,,,,,,,,,,,007,2022-05-09_14h00.53.606,FishGame,2022.1.1,60.02350520193826,
,35,넌 편파적이야,5,Green,B,2.125,2,ScrollUp,ScrollDown,Green.png,2,Negative,Congruent,0,0,0,0,,,,,,,,,,,,,,,,,0,34,34,34,,,,,,,,,,,,,,,,,,,,,,,,,,,,,,,,,,,,,,,,,,,,,,,,,,,,,,,,,,,,,,,,,,,,,,,,,,,,,,,,,1.9675925771395366,1.1115617000032216,334.6652750999201,None,ScrollUp,정답입니다,334.6652750999201,None,334.6652750999201,None,334.6652750999201,None,334.6652750999201,None,335.67399949999526,None,335.67399949999526,336.17408149992116,,,,,,,,,,,,,,,,007,2022-05-09_14h00.53.606,FishGame,2022.1.1,60.02350520193826,
,36,넌 슬퍼,4,Orange,A,2.583333333333333,3.066666666666667,ScrollDown,ScrollUp,Orange.png,2,Negative,Incongruent,0,0,0,0,,,,,,,,,,,,,,,,,0,35,35,35,,,,,,,,,,,,,,,,,,,,,,,,,,,,,,,,,,,,,,,,,,,,,,,,,,,,,,,,,,,,,,,,,,,,,,,,,,,,,,,,,1.2083333383003871,0.9753687999909744,336.796306299977,None,ScrollDown,정답입니다,336.796306299977,None,336.796306299977,None,336.796306299977,None,336.796306299977,None,337.6742502999259,None,337.6742502999259,338.1770770000294,,,,,,,,,,,,,,,,007,2022-05-09_14h00.53.606,FishGame,2022.1.1,60.02350520193826,
,37,나를 데려가줘,6,Green,B,0,0,ScrollDown,ScrollUp,Green.png,2,NonTarget,NonTarget,0,0,0,0,,,,,,,,,,,,,,,,,0,36,36,36,,,,,,,,,,,,,,,,,,,,,,,,,,,,,,,,,,,,,,,,,,,,,,,,,,,,,,,,,,,,,,,,,,,,,,,,,,,,,,,,,1.2391975422700245,1.1471054999856278,338.7878105000127,None,ScrollDown,정답입니다,338.7878105000127,None,338.7878105000127,None,338.7878105000127,None,338.7878105000127,None,339.83779839996714,None,339.83779839996714,340.34062889998313,,,,,,,,,,,,,,,,007,2022-05-09_14h00.53.606,FishGame,2022.1.1,60.02350520193826,
,38,넌 친절해,1,Green,B,6.041666666666667,5.533333333333333,ScrollUp,ScrollDown,Green.png,2,Positive,Incongruent,0,0,0,0,,,,,,,,,,,,,,,,,0,37,37,37,,,,,,,,,,,,,,,,,,,,,,,,,,,,,,,,,,,,,,,,,,,,,,,,,,,,,,,,,,,,,,,,,,,,,,,,,,,,,,,,,1.90586419403553,1.1616106000728905,340.9620752999326,None,ScrollUp,정답입니다,340.9620752999326,None,340.9620752999326,None,340.9620752999326,None,340.9620752999326,None,342.02388989995234,None,342.02388989995234,342.5239576000022,,,,,,,,,,,,,,,,007,2022-05-09_14h00.53.606,FishGame,2022.1.1,60.02350520193826,
,1,넌 엉성해,4,Orange,A,3,3.3,ScrollDown,ScrollUp,Orange.png,3,Negative,Incongruent,0,0,0,0,,,,,,,,,,,,,,,,,,,,,0,0,0,0,,,,,,,,,,,,,,,,,,,,,,,,,,,,,,,,,,,,380.8760770999361,382.38996019994374,382.40662919997703,383.35952129994985,383.40662679995876,384.35656069999095,384.35656069999095,None,,,,,,,,,,,,,,,,,,,,,,,,,,,,,,,,,,1.2499999900658925,0.9646098999073729,385.45893279998563,None,ScrollDown,정답입니다,385.45893279998563,None,385.45893279998563,None,385.45893279998563,None,385.45893279998563,None,386.3231743000215,None,386.3231743000215,386.82319769996684,343.0241738000186,None,343.0241738000186,None,0.097222224,-0.1,1,0,0,0.016426229965873063,None,373.0235452000052,None,,,007,2022-05-09_14h00.53.606,FishGame,2022.1.1,60.02350520193826,
,2,나를 보내줘,6,Orange,A,0,0,ScrollUp,ScrollDown,Orange.png,3,NonTarget,NonTarget,0,0,0,0,,,,,,,,,,,,,,,,,,,,,0,1,1,1,,,,,,,,,,,,,,,,,,,,,,,,,,,,,,,,,,,,,,,,,,,,,,,,,,,,,,,,,,,,,,,,,,,,,,,,,,,,,2,0.9779456000542268,387.44619699998293,None,ScrollUp,정답입니다,387.44619699998293,None,387.44619699998293,None,387.44619699998293,None,387.44619699998293,None,388.3231411000015,None,388.3231411000015,388.82321790000424,,,,,,,,,,,,,,,,007,2022-05-09_14h00.53.606,FishGame,2022.1.1,60.02350520193826,
,3,넌 활발해,1,Green,B,5.666666666666667,5.6,ScrollUp,ScrollDown,Green.png,3,Positive,Incongruent,0,0,0,0,,,,,,,,,,,,,,,,,,,,,0,2,2,2,,,,,,,,,,,,,,,,,,,,,,,,,,,,,,,,,,,,,,,,,,,,,,,,,,,,,,,,,,,,,,,,,,,,,,,,,,,,,1.8765432039896648,1.048168000066653,389.4399420999689,None,ScrollUp,정답입니다,389.4399420999689,None,389.4399420999689,None,389.4399420999689,None,389.4399420999689,None,390.3897883000318,None,390.3897883000318,390.89260719995946,,,,,,,,,,,,,,,,007,2022-05-09_14h00.53.606,FishGame,2022.1.1,60.02350520193826,
,4,넌 논리적이야,2,Orange,A,5.666666666666666,4.633333333333334,ScrollDown,ScrollUp,Orange.png,3,Positive,Congruent,0,0,0,0,,,,,,,,,,,,,,,,,,,,,0,3,3,3,,,,,,,,,,,,,,,,,,,,,,,,,,,,,,,,,,,,,,,,,,,,,,,,,,,,,,,,,,,,,,,,,,,,,,,,,,,,,1.3086419701576233,0.8614143999293447,391.5213709999807,None,ScrollDown,정답입니다,391.5213709999807,None,391.5213709999807,None,391.5213709999807,None,391.5213709999807,None,392.2727627999848,None,392.2727627999848,392.77281719993334,,,,,,,,,,,,,,,,007,2022-05-09_14h00.53.606,FishGame,2022.1.1,60.02350520193826,
,5,넌 과묵해,3,Orange,A,3.875,4.4,ScrollDown,ScrollUp,Orange.png,3,Neutral,Neutral,0,0,0,0,,,,,,,,,,,,,,,,,,,,,0,4,4,4,,,,,,,,,,,,,,,,,,,,,,,,,,,,,,,,,,,,,,,,,,,,,,,,,,,,,,,,,,,,,,,,,,,,,,,,,,,,,1.3533950621883073,0.8614922999404371,393.39510909991805,None,ScrollDown,정답입니다,393.39510909991805,None,393.39510909991805,None,393.39510909991805,None,393.39510909991805,None,394.1565040999558,None,394.1565040999558,394.65928889997303,,,,,,,,,,,,,,,,007,2022-05-09_14h00.53.606,FishGame,2022.1.1,60.02350520193826,
,6,나를 데려가줘,6,Green,B,0,0,ScrollDown,ScrollUp,Green.png,3,NonTarget,NonTarget,0,0,0,0,,,,,,,,,,,,,,,,,,,,,0,5,5,5,,,,,,,,,,,,,,,,,,,,,,,,,,,,,,,,,,,,,,,,,,,,,,,,,,,,,,,,,,,,,,,,,,,,,,,,,,,,,1.3148148134350777,1.0423267999431118,395.2782745999284,None,ScrollDown,정답입니다,395.2782745999284,None,395.2782745999284,None,395.2782745999284,None,395.2782745999284,None,396.2230338000227,None,396.2230338000227,396.72583020001184,,,,,,,,,,,,,,,,007,2022-05-09_14h00.53.606,FishGame,2022.1.1,60.02350520193826,
,7,넌 미숙해,4,Green,B,3,3,ScrollUp,ScrollDown,Green.png,3,Negative,Congruent,0,0,0,0,,,,,,,,,,,,,,,,,,,,,0,6,6,6,,,,,,,,,,,,,,,,,,,,,,,,,,,,,,,,,,,,,,,,,,,,,,,,,,,,,,,,,,,,,,,,,,,,,,,,,,,,,1.6820987711350122,1.0075680000009015,397.3413606999675,None,ScrollUp,정답입니다,397.3413606999675,None,397.3413606999675,None,397.3413606999675,None,397.3413606999675,None,398.2559702999424,None,398.2559702999424,398.7560447999276,,,,,,,,,,,,,,,,007,2022-05-09_14h00.53.606,FishGame,2022.1.1,60.02350520193826,
,8,나를 보내줘,6,Orange,A,0,0,ScrollUp,ScrollDown,Orange.png,3,NonTarget,NonTarget,0,0,0,0,,,,,,,,,,,,,,,,,,,,,0,7,7,7,,,,,,,,,,,,,,,,,,,,,,,,,,,,,,,,,,,,,,,,,,,,,,,,,,,,,,,,,,,,,,,,,,,,,,,,,,,,,1.7145061641931534,1.0619032999966294,399.3766074000159,None,ScrollUp,정답입니다,399.3766074000159,None,399.3766074000159,None,399.3766074000159,None,399.3766074000159,None,400.34231729991734,None,400.34231729991734,400.85634880000725,,,,,,,,,,,,,,,,007,2022-05-09_14h00.53.606,FishGame,2022.1.1,60.02350520193826,
,9,넌 자신만만해,3,Green,B,4.833333333333334,4.333333333333333,ScrollUp,ScrollDown,Green.png,3,Neutral,Neutral,0,0,0,0,,,,,,,,,,,,,,,,,,,,,0,8,8,8,,,,,,,,,,,,,,,,,,,,,,,,,,,,,,,,,,,,,,,,,,,,,,,,,,,,,,,,,,,,,,,,,,,,,,,,,,,,,1.8271604826052983,0.9922951000044122,401.4600795999868,None,ScrollUp,정답입니다,401.4600795999868,None,401.4600795999868,None,401.4600795999868,None,401.4600795999868,None,402.35626779997256,None,402.35626779997256,402.85910549992695,,,,,,,,,,,,,,,,007,2022-05-09_14h00.53.606,FishGame,2022.1.1,60.02350520193826,
,10,넌 탐욕스러워,5,Orange,A,2.25,2.1,ScrollDown,ScrollUp,Orange.png,3,Negative,Incongruent,0,0,0,0,,,,,,,,,,,,,,,,,,,,,0,9,9,9,,,,,,,,,,,,,,,,,,,,,,,,,,,,,,,,,,,,,,,,,,,,,,,,,,,,,,,,,,,,,,,,,,,,,,,,,,,,,1.3317901293436685,0.9282388999126852,403.48236429993995,None,ScrollDown,정답입니다,403.48236429993995,None,403.48236429993995,None,403.48236429993995,None,403.48236429993995,None,404.3058446999639,None,404.3058446999639,404.80590469995514,,,,,,,,,,,,,,,,007,2022-05-09_14h00.53.606,FishGame,2022.1.1,60.02350520193826,
,11,넌 인기있어,2,Orange,A,5.458333333333333,4.5,ScrollDown,ScrollUp,Orange.png,3,Positive,Congruent,0,0,0,0,,,,,,,,,,,,,,,,,,,,,0,10,10,10,,,,,,,,,,,,,,,,,,,,,,,,,,,,,,,,,,,,,,,,,,,,,,,,,,,,,,,,,,,,,,,,,,,,,,,,,,,,,1.3734567935268083,0.8282585000852123,405.4308530000271,None,ScrollDown,정답입니다,405.4308530000271,None,405.4308530000271,None,405.4308530000271,None,405.4308530000271,None,406.1561782999197,None,406.1561782999197,406.6590487000067,,,,,,,,,,,,,,,,007,2022-05-09_14h00.53.606,FishGame,2022.1.1,60.02350520193826,
,12,나를 데려가줘,6,Green,B,0,0,ScrollDown,ScrollUp,Green.png,3,NonTarget,NonTarget,0,0,0,0,,,,,,,,,,,,,,,,,,,,,0,11,11,11,,,,,,,,,,,,,,,,,,,,,,,,,,,,,,,,,,,,,,,,,,,,,,,,,,,,,,,,,,,,,,,,,,,,,,,,,,,,,1,1.1755908000050113,407.2778423000127,None,ScrollDown,정답입니다,407.2778423000127,None,407.2778423000127,None,407.2778423000127,None,407.2778423000127,None,408.3560960999457,None,408.3560960999457,408.85900930000935,,,,,,,,,,,,,,,,007,2022-05-09_14h00.53.606,FishGame,2022.1.1,60.02350520193826,
,13,넌 뛰어나,2,Green,B,6.166666666666667,4,ScrollUp,ScrollDown,Green.png,3,Positive,Incongruent,0,0,0,0,,,,,,,,,,,,,,,,,,,,,0,12,12,12,,,,,,,,,,,,,,,,,,,,,,,,,,,,,,,,,,,,,,,,,,,,,,,,,,,,,,,,,,,,,,,,,,,,,,,,,,,,,1.7453703681627908,1.0130180000560358,409.4761761999689,None,ScrollUp,정답입니다,409.4761761999689,None,409.4761761999689,None,409.4761761999689,None,409.4761761999689,None,410.389044099953,None,410.389044099953,410.88912139995955,,,,,,,,,,,,,,,,007,2022-05-09_14h00.53.606,FishGame,2022.1.1,60.02350520193826,
,14,넌 낙관적이야,1,Orange,A,5.75,5.8,ScrollDown,ScrollUp,Orange.png,3,Positive,Congruent,0,0,0,0,,,,,,,,,,,,,,,,,,,,,0,13,13,13,,,,,,,,,,,,,,,,,,,,,,,,,,,,,,,,,,,,,,,,,,,,,,,,,,,,,,,,,,,,,,,,,,,,,,,,,,,,,1.3611111069718995,0.7780758000444621,411.5131666000234,None,ScrollDown,정답입니다,411.5131666000234,None,411.5131666000234,None,411.5131666000234,None,411.5131666000234,None,412.1921766999876,None,412.1921766999876,412.6893682000227,,,,,,,,,,,,,,,,007,2022-05-09_14h00.53.606,FishGame,2022.1.1,60.02350520193826,
,15,넌 산만해,4,Green,B,2.695652173913043,3.033333333333333,ScrollUp,ScrollDown,Green.png,3,Negative,Congruent,0,0,0,0,,,,,,,,,,,,,,,,,,,,,0,14,14,14,,,,,,,,,,,,,,,,,,,,,,,,,,,,,,,,,,,,,,,,,,,,,,,,,,,,,,,,,,,,,,,,,,,,,,,,,,,,,1.8425925970077515,0.9255975999403745,413.3119462999748,None,ScrollUp,정답입니다,413.3119462999748,None,413.3119462999748,None,413.3119462999748,None,413.3119462999748,None,414.1421419000253,None,414.1421419000253,414.6587934999261,,,,,,,,,,,,,,,,007,2022-05-09_14h00.53.606,FishGame,2022.1.1,60.02350520193826,
,16,나를 보내줘,6,Orange,A,0,0,ScrollUp,ScrollDown,Orange.png,3,NonTarget,NonTarget,0,0,0,0,,,,,,,,,,,,,,,,,,,,,0,15,15,15,,,,,,,,,,,,,,,,,,,,,,,,,,,,,,,,,,,,,,,,,,,,,,,,,,,,,,,,,,,,,,,,,,,,,,,,,,,,,1.162037044763565,0.8264596000080928,415.26657470001373,None,ScrollDown,오답입니다,415.26657470001373,None,415.26657470001373,None,415.26657470001373,None,415.26657470001373,None,415.9889225999359,None,415.9889225999359,416.488985999953,,,,,,,,,,,,,,,,007,2022-05-09_14h00.53.606,FishGame,2022.1.1,60.02350520193826,
,17,넌 교활해,5,Green,B,2.333333333333333,2.133333333333333,ScrollUp,ScrollDown,Green.png,3,Negative,Congruent,0,0,0,0,,,,,,,,,,,,,,,,,,,,,0,16,16,16,,,,,,,,,,,,,,,,,,,,,,,,,,,,,,,,,,,,,,,,,,,,,,,,,,,,,,,,,,,,,,,,,,,,,,,,,,,,,1.8348765522241592,1.061671599978581,417.11054689995944,None,ScrollUp,정답입니다,417.11054689995944,None,417.11054689995944,None,417.11054689995944,None,417.11054689995944,None,418.07226809998974,None,418.07226809998974,418.5725556999678,,,,,,,,,,,,,,,,007,2022-05-09_14h00.53.606,FishGame,2022.1.1,60.02350520193826,
,18,나를 보내줘,6,Orange,A,0,0,ScrollUp,ScrollDown,Orange.png,3,NonTarget,NonTarget,0,0,0,0,,,,,,,,,,,,,,,,,,,,,0,17,17,17,,,,,,,,,,,,,,,,,,,,,,,,,,,,,,,,,,,,,,,,,,,,,,,,,,,,,,,,,,,,,,,,,,,,,,,,,,,,,1.4367283967634041,0.8430955000221729,419.19397579994984,None,ScrollDown,오답입니다,419.19397579994984,None,419.19397579994984,None,419.19397579994984,None,419.19397579994984,None,419.939171899925,None,419.939171899925,420.44197689997964,,,,,,,,,,,,,,,,007,2022-05-09_14h00.53.606,FishGame,2022.1.1,60.02350520193826,
,19,넌 불친절해,5,Green,B,2.208333333333333,2.033333333333333,ScrollUp,ScrollDown,Green.png,3,Negative,Congruent,0,0,0,0,,,,,,,,,,,,,,,,,,,,,0,18,18,18,,,,,,,,,,,,,,,,,,,,,,,,,,,,,,,,,,,,,,,,,,,,,,,,,,,,,,,,,,,,,,,,,,,,,,,,,,,,,1.879629631837209,1.1752208999823779,421.06488870002795,None,ScrollUp,정답입니다,421.06488870002795,None,421.06488870002795,None,421.06488870002795,None,421.06488870002795,None,422.13903710001614,None,422.13903710001614,422.6390912999632,,,,,,,,,,,,,,,,007,2022-05-09_14h00.53.606,FishGame,2022.1.1,60.02350520193826,
,20,넌 지적이야,2,Green,B,5.75,4.366666666666666,ScrollUp,ScrollDown,Green.png,3,Positive,Incongruent,0,0,0,0,,,,,,,,,,,,,,,,,,,,,0,19,19,19,,,,,,,,,,,,,,,,,,,,,,,,,,,,,,,,,,,,,,,,,,,,,,,,,,,,,,,,,,,,,,,,,,,,,,,,,,,,,1.723765422900518,0.9953778000781313,423.25572289992124,None,ScrollUp,정답입니다,423.25572289992124,None,423.25572289992124,None,423.25572289992124,None,423.25572289992124,None,424.1557275999803,None,424.1557275999803,424.6557334000245,,,,,,,,,,,,,,,,007,2022-05-09_14h00.53.606,FishGame,2022.1.1,60.02350520193826,
,21,넌 우유부단해,4,Orange,A,2.666666666666667,3.166666666666667,ScrollDown,ScrollUp,Orange.png,3,Negative,Incongruent,0,0,0,0,,,,,,,,,,,,,,,,,,,,,0,20,20,20,,,,,,,,,,,,,,,,,,,,,,,,,,,,,,,,,,,,,,,,,,,,,,,,,,,,,,,,,,,,,,,,,,,,,,,,,,,,,1.0200617114702861,1.7614617999643087,425.28260889998637,None,ScrollDown,정답입니다,425.28260889998637,None,425.28260889998637,None,425.28260889998637,None,425.28260889998637,None,426.9389976999955,None,426.9389976999955,427.44180899998173,,,,,,,,,,,,,,,,007,2022-05-09_14h00.53.606,FishGame,2022.1.1,60.02350520193826,
,22,나를 데려가줘,6,Green,B,0,0,ScrollDown,ScrollUp,Green.png,3,NonTarget,NonTarget,0,0,0,0,,,,,,,,,,,,,,,,,,,,,0,21,21,21,,,,,,,,,,,,,,,,,,,,,,,,,,,,,,,,,,,,,,,,,,,,,,,,,,,,,,,,,,,,,,,,,,,,,,,,,,,,,1.7777777860562007,1.1282826999668032,428.0649894999806,None,ScrollUp,오답입니다,428.0649894999806,None,428.0649894999806,None,428.0649894999806,None,428.0649894999806,None,429.0886520999484,None,429.0886520999484,429.5886962999357,,,,,,,,,,,,,,,,007,2022-05-09_14h00.53.606,FishGame,2022.1.1,60.02350520193826,
,23,넌 성실해,1,Green,B,6.041666666666666,5.7,ScrollUp,ScrollDown,Green.png,3,Positive,Incongruent,0,0,0,0,,,,,,,,,,,,,,,,,,,,,0,22,22,22,,,,,,,,,,,,,,,,,,,,,,,,,,,,,,,,,,,,,,,,,,,,,,,,,,,,,,,,,,,,,,,,,,,,,,,,,,,,,1.9320987562338512,1.2448971000267193,430.2091968000168,None,ScrollUp,정답입니다,430.2091968000168,None,430.2091968000168,None,430.2091968000168,None,430.2091968000168,None,431.3556189999217,None,431.3556189999217,431.8585250999313,,,,,,,,,,,,,,,,007,2022-05-09_14h00.53.606,FishGame,2022.1.1,60.02350520193826,
,24,넌 현실주의적이야,3,Orange,A,4.625,4.4,ScrollDown,ScrollUp,Orange.png,3,Neutral,Neutral,0,0,0,0,,,,,,,,,,,,,,,,,,,,,0,23,23,23,,,,,,,,,,,,,,,,,,,,,,,,,,,,,,,,,,,,,,,,,,,,,,,,,,,,,,,,,,,,,,,,,,,,,,,,,,,,,1.1712963034709294,0.9422766000498086,432.4802017000038,None,ScrollDown,정답입니다,432.4802017000038,None,432.4802017000038,None,432.4802017000038,None,432.4802017000038,None,433.32221200002823,None,433.32221200002823,433.8251125999959,,,,,,,,,,,,,,,,007,2022-05-09_14h00.53.606,FishGame,2022.1.1,60.02350520193826,
,25,넌 진실돼,1,Orange,A,6.625,5.566666666666666,ScrollDown,ScrollUp,Orange.png,3,Positive,Congruent,0,0,0,0,,,,,,,,,,,,,,,,,,,,,0,24,24,24,,,,,,,,,,,,,,,,,,,,,,,,,,,,,,,,,,,,,,,,,,,,,,,,,,,,,,,,,,,,,,,,,,,,,,,,,,,,,1.141975313425064,0.9794009000761434,434.44384590000845,None,ScrollDown,정답입니다,434.44384590000845,None,434.44384590000845,None,434.44384590000845,None,434.44384590000845,None,435.3218108000001,None,435.3218108000001,435.82190889993217,,,,,,,,,,,,,,,,007,2022-05-09_14h00.53.606,FishGame,2022.1.1,60.02350520193826,
,26,넌 천진난만해,3,Green,B,4.958333333333334,4.833333333333333,ScrollUp,ScrollDown,Green.png,3,Neutral,Neutral,0,0,0,0,,,,,,,,,,,,,,,,,,,,,0,25,25,25,,,,,,,,,,,,,,,,,,,,,,,,,,,,,,,,,,,,,,,,,,,,,,,,,,,,,,,,,,,,,,,,,,,,,,,,,,,,,2,1.294753700029105,436.45419049996417,None,ScrollUp,정답입니다,436.45419049996417,None,436.45419049996417,None,436.45419049996417,None,436.45419049996417,None,437.6385046999203,None,437.6385046999203,438.14177210000344,,,,,,,,,,,,,,,,007,2022-05-09_14h00.53.606,FishGame,2022.1.1,60.02350520193826,
,27,넌 교양없어,5,Orange,A,2.416666666666667,2.2,ScrollDown,ScrollUp,Orange.png,3,Negative,Incongruent,0,0,0,0,,,,,,,,,,,,,,,,,,,,,0,26,26,26,,,,,,,,,,,,,,,,,,,,,,,,,,,,,,,,,,,,,,,,,,,,,,,,,,,,,,,,,,,,,,,,,,,,,,,,,,,,,1.31635802735885,1.0471652999985963,438.7607750999741,None,ScrollDown,정답입니다,438.7607750999741,None,438.7607750999741,None,438.7607750999741,None,438.7607750999741,None,439.70542259991635,None,439.70542259991635,440.2082362999208,,,,,,,,,,,,,,,,007,2022-05-09_14h00.53.606,FishGame,2022.1.1,60.02350520193826,
,28,나를 보내줘,6,Orange,A,0,0,ScrollUp,ScrollDown,Orange.png,3,NonTarget,NonTarget,0,0,0,0,,,,,,,,,,,,,,,,,,,,,0,27,27,27,,,,,,,,,,,,,,,,,,,,,,,,,,,,,,,,,,,,,,,,,,,,,,,,,,,,,,,,,,,,,,,,,,,,,,,,,,,,,1.7700617164373398,1.3583452999591827,440.8318585000234,None,ScrollUp,정답입니다,440.8318585000234,None,440.8318585000234,None,440.8318585000234,None,440.8318585000234,None,442.0886527999537,None,442.0886527999537,442.58865479996894,,,,,,,,,,,,,,,,007,2022-05-09_14h00.53.606,FishGame,2022.1.1,60.02350520193826,
,29,넌 엉뚱스러워,3,Orange,A,4.166666666666667,4.133333333333334,ScrollDown,ScrollUp,Orange.png,3,Neutral,Neutral,0,0,0,0,,,,,,,,,,,,,,,,,,,,,0,28,28,28,,,,,,,,,,,,,,,,,,,,,,,,,,,,,,,,,,,,,,,,,,,,,,,,,,,,,,,,,,,,,,,,,,,,,,,,,,,,,1.2253086417913437,1.2122431000461802,443.2311745999614,None,ScrollDown,정답입니다,443.2311745999614,None,443.2311745999614,None,443.2311745999614,None,443.2311745999614,None,444.32192679995205,None,444.32192679995205,444.8247597999871,,,,,,,,,,,,,,,,007,2022-05-09_14h00.53.606,FishGame,2022.1.1,60.02350520193826,
,30,넌 무지해,4,Green,B,2.541666666666667,3.066666666666667,ScrollUp,ScrollDown,Green.png,3,Negative,Congruent,0,0,0,0,,,,,,,,,,,,,,,,,,,,,0,29,29,29,,,,,,,,,,,,,,,,,,,,,,,,,,,,,,,,,,,,,,,,,,,,,,,,,,,,,,,,,,,,,,,,,,,,,,,,,,,,,1.7376543233791986,1.176169199985452,445.44107109995093,None,ScrollUp,정답입니다,445.44107109995093,None,445.44107109995093,None,445.44107109995093,None,445.44107109995093,None,446.5219057999784,None,446.5219057999784,447.0219538999954,,,,,,,,,,,,,,,,007,2022-05-09_14h00.53.606,FishGame,2022.1.1,60.02350520193826,
,31,넌 음울해,5,Green,B,2.25,2.233333333333333,ScrollUp,ScrollDown,Green.png,3,Negative,Congruent,0,0,0,0,,,,,,,,,,,,,,,,,,,,,0,30,30,30,,,,,,,,,,,,,,,,,,,,,,,,,,,,,,,,,,,,,,,,,,,,,,,,,,,,,,,,,,,,,,,,,,,,,,,,,,,,,1.6558641965190568,1.141693599987775,447.64733029995114,None,ScrollUp,정답입니다,447.64733029995114,None,447.64733029995114,None,447.64733029995114,None,447.64733029995114,None,448.6882219000254,None,448.6882219000254,449.18829959991854,,,,,,,,,,,,,,,,007,2022-05-09_14h00.53.606,FishGame,2022.1.1,60.02350520193826,
,32,넌 냉소적이야,5,Orange,A,2.916666666666667,2.4,ScrollDown,ScrollUp,Orange.png,3,Negative,Incongruent,0,0,0,0,,,,,,,,,,,,,,,,,,,,,0,31,31,31,,,,,,,,,,,,,,,,,,,,,,,,,,,,,,,,,,,,,,,,,,,,,,,,,,,,,,,,,,,,,,,,,,,,,,,,,,,,,1.256172845760981,0.9446542999939993,449.8130106999306,None,ScrollDown,정답입니다,449.8130106999306,None,449.8130106999306,None,449.8130106999306,None,449.8130106999306,None,450.65527759992983,None,450.65527759992983,451.15800900000613,,,,,,,,,,,,,,,,007,2022-05-09_14h00.53.606,FishGame,2022.1.1,60.02350520193826,
,33,나를 데려가줘,6,Green,B,0,0,ScrollDown,ScrollUp,Green.png,3,NonTarget,NonTarget,0,0,0,0,,,,,,,,,,,,,,,,,,,,,0,32,32,32,,,,,,,,,,,,,,,,,,,,,,,,,,,,,,,,,,,,,,,,,,,,,,,,,,,,,,,,,,,,,,,,,,,,,,,,,,,,,1.4012345696489017,1.3279112000018358,451.77335949998815,None,ScrollDown,정답입니다,451.77335949998815,None,451.77335949998815,None,451.77335949998815,None,451.77335949998815,None,453.00512320001144,None,453.00512320001144,453.50799039995763,,,,,,,,,,,,,,,,007,2022-05-09_14h00.53.606,FishGame,2022.1.1,60.02350520193826,
,34,넌 쾌활해,1,Orange,A,5.541666666666666,5.733333333333333,ScrollDown,ScrollUp,Orange.png,3,Positive,Congruent,0,0,0,0,,,,,,,,,,,,,,,,,,,,,0,33,33,33,,,,,,,,,,,,,,,,,,,,,,,,,,,,,,,,,,,,,,,,,,,,,,,,,,,,,,,,,,,,,,,,,,,,,,,,,,,,,1.3271604999899864,0.9954102000920102,454.12605680001434,None,ScrollDown,정답입니다,454.12605680001434,None,454.12605680001434,None,454.12605680001434,None,454.12605680001434,None,455.021758900024,None,455.021758900024,455.521714399918,,,,,,,,,,,,,,,,007,2022-05-09_14h00.53.606,FishGame,2022.1.1,60.02350520193826,
,35,나를 보내줘,6,Orange,A,0,0,ScrollUp,ScrollDown,Orange.png,3,NonTarget,NonTarget,0,0,0,0,,,,,,,,,,,,,,,,,,,,,0,34,34,34,,,,,,,,,,,,,,,,,,,,,,,,,,,,,,,,,,,,,,,,,,,,,,,,,,,,,,,,,,,,,,,,,,,,,,,,,,,,,1.8719135870536168,1.1586111000506207,456.14778330002446,None,ScrollUp,정답입니다,456.14778330002446,None,456.14778330002446,None,456.14778330002446,None,456.14778330002446,None,457.2049609000096,None,457.2049609000096,457.70503509999253,,,,,,,,,,,,,,,,007,2022-05-09_14h00.53.606,FishGame,2022.1.1,60.02350520193826,
,36,넌 명랑해,1,Green,B,5.739130434782609,5.666666666666667,ScrollUp,ScrollDown,Green.png,3,Positive,Incongruent,0,0,0,0,,,,,,,,,,,,,,,,,,,,,0,35,35,35,,,,,,,,,,,,,,,,,,,,,,,,,,,,,,,,,,,,,,,,,,,,,,,,,,,,,,,,,,,,,,,,,,,,,,,,,,,,,1.7901234477758408,1.094557199976407,458.3260154000018,None,ScrollUp,정답입니다,458.3260154000018,None,458.3260154000018,None,458.3260154000018,None,458.3260154000018,None,459.321612300002,None,459.321612300002,459.82167889992706,,,,,,,,,,,,,,,,007,2022-05-09_14h00.53.606,FishGame,2022.1.1,60.02350520193826,
,37,넌 멍해,4,Orange,A,2.833333333333333,3.4,ScrollDown,ScrollUp,Orange.png,3,Negative,Incongruent,0,0,0,0,,,,,,,,,,,,,,,,,,,,,0,36,36,36,,,,,,,,,,,,,,,,,,,,,,,,,,,,,,,,,,,,,,,,,,,,,,,,,,,,,,,,,,,,,,,,,,,,,,,,,,,,,1.0648148159186046,1.194710799958557,460.4496624999447,None,ScrollDown,정답입니다,460.4496624999447,None,460.4496624999447,None,460.4496624999447,None,460.4496624999447,None,461.54116169991903,None,461.54116169991903,462.05776539992075,,,,,,,,,,,,,,,,007,2022-05-09_14h00.53.606,FishGame,2022.1.1,60.02350520193826,
,38,나를 데려가줘,6,Green,B,0,0,ScrollDown,ScrollUp,Green.png,3,NonTarget,NonTarget,0,0,0,0,,,,,,,,,,,,,,,,,,,,,0,37,37,37,,,,,,,,,,,,,,,,,,,,,,,,,,,,,,,,,,,,,,,,,,,,,,,,,,,,,,,,,,,,,,,,,,,,,,,,,,,,,1.3919753109415371,1.1584488999797031,462.6588836000301,None,ScrollDown,정답입니다,462.6588836000301,None,462.6588836000301,None,462.6588836000301,None,462.6588836000301,None,463.7212319999235,None,463.7212319999235,464.2212981999619,,,,,,,,,,,,,,,,007,2022-05-09_14h00.53.606,FishGame,2022.1.1,60.02350520193826,
,39,넌 현명해,2,Orange,A,6.541666666666666,4.533333333333333,ScrollDown,ScrollUp,Orange.png,3,Positive,Congruent,0,0,0,0,,,,,,,,,,,,,,,,,,,,,0,38,38,38,,,,,,,,,,,,,,,,,,,,,,,,,,,,,,,,,,,,,,,,,,,,,,,,,,,,,,,,,,,,,,,,,,,,,,,,,,,,,1.3827160522341728,1.1283240999327973,464.8461544000311,None,ScrollDown,정답입니다,464.8461544000311,None,464.8461544000311,None,464.8461544000311,None,464.8461544000311,None,465.8715629000217,None,465.8715629000217,466.37440400000196,,,,,,,,,,,,,,,,007,2022-05-09_14h00.53.606,FishGame,2022.1.1,60.02350520193826,
,40,넌 수줍어,3,Green,B,3.541666666666666,4.366666666666666,ScrollUp,ScrollDown,Green.png,3,Neutral,Neutral,0,0,0,0,,,,,,,,,,,,,,,,,,,,,0,39,39,39,,,,,,,,,,,,,,,,,,,,,,,,,,,,,,,,,,,,,,,,,,,,,,,,,,,,,,,,,,,,,,,,,,,,,,,,,,,,,1.71296297510465,1.1588760999729857,466.9955380000174,None,ScrollUp,정답입니다,466.9955380000174,None,466.9955380000174,None,466.9955380000174,None,466.9955380000174,None,468.05482219997793,None,468.05482219997793,468.5576345999725,,,,,,,,,,,,,,,,007,2022-05-09_14h00.53.606,FishGame,2022.1.1,60.02350520193826,
,41,나를 데려가줘,6,Green,B,0,0,ScrollDown,ScrollUp,Green.png,3,NonTarget,NonTarget,0,0,0,0,,,,,,,,,,,,,,,,,,,,,0,40,40,40,,,,,,,,,,,,,,,,,,,,,,,,,,,,,,,,,,,,,,,,,,,,,,,,,,,,,,,,,,,,,,,,,,,,,,,,,,,,,1.7700617164373398,1.0913258000509813,469.18127910001203,None,ScrollUp,오답입니다,469.18127910001203,None,469.18127910001203,None,469.18127910001203,None,469.18127910001203,None,470.1710773999803,None,470.1710773999803,470.6711509999586,,,,,,,,,,,,,,,,007,2022-05-09_14h00.53.606,FishGame,2022.1.1,60.02350520193826,
,42,넌 성숙해,2,Green,B,5.833333333333333,4.533333333333333,ScrollUp,ScrollDown,Green.png,3,Positive,Incongruent,0,0,0,0,,,,,,,,,,,,,,,,,,,,,0,41,41,41,,,,,,,,,,,,,,,,,,,,,,,,,,,,,,,,,,,,,,,,,,,,,,,,,,,,,,,,,,,,,,,,,,,,,,,,,,,,,1.8518518557151158,2.678212199942209,471.29304859996773,None,ScrollUp,정답입니다,471.29304859996773,None,471.29304859996773,None,471.29304859996773,None,471.29304859996773,None,473.8742336999858,None,473.8742336999858,474.37132469995413,,,,,,,,,,,,,,,,007,2022-05-09_14h00.53.606,FishGame,2022.1.1,60.02350520193826,
,1,넌 매력적이야,2,Green,B,6.125,4.666666666666667,ScrollUp,ScrollDown,Green.png,4,Positive,Incongruent,0,0,0,0,,,,,,,,,,,,,,,,,,,,,,,,,0,0,0,0,,,,,,,,,,,,,,,,,,,,,,,,,,,,,,,,508.2869997000089,509.79027839994524,509.80700809997506,510.76104899996426,510.8110509000253,511.7735189999221,511.7735189999221,None,,,,,,,,,,,,,,,,,,,,,,,,,,,,,,,,,,1.7222222338120141,1.2086369000608101,512.8977787999902,None,ScrollUp,정답입니다,512.8977787999902,None,512.8977787999902,None,512.8977787999902,None,512.8977787999902,None,514.0034915999277,None,514.0034915999277,514.5035687999334,474.87132459995337,None,474.87132459995337,None,0.18055555,-0.098148145,1,0,0,0.01625582983251661,None,504.87352429993916,None,,,007,2022-05-09_14h00.53.606,FishGame,2022.1.1,60.02350520193826,
,2,나를 보내줘,6,Orange,A,0,0,ScrollUp,ScrollDown,Orange.png,4,NonTarget,NonTarget,0,0,0,0,,,,,,,,,,,,,,,,,,,,,,,,,0,1,1,1,,,,,,,,,,,,,,,,,,,,,,,,,,,,,,,,,,,,,,,,,,,,,,,,,,,,,,,,,,,,,,,,,,,,,,,,,1.7793209999799728,1.0948007000843063,515.1268859999254,None,ScrollUp,정답입니다,515.1268859999254,None,515.1268859999254,None,515.1268859999254,None,515.1268859999254,None,516.1205214000074,None,516.1205214000074,516.6233402999351,,,,,,,,,,,,,,,,007,2022-05-09_14h00.53.606,FishGame,2022.1.1,60.02350520193826,
,3,넌 조심스러워,3,Orange,A,4.791666666666666,4.666666666666667,ScrollDown,ScrollUp,Orange.png,4,Neutral,Neutral,0,0,0,0,,,,,,,,,,,,,,,,,,,,,,,,,0,2,2,2,,,,,,,,,,,,,,,,,,,,,,,,,,,,,,,,,,,,,,,,,,,,,,,,,,,,,,,,,,,,,,,,,,,,,,,,,1.3271604999899864,0.8456755999941379,517.2401606999338,None,ScrollDown,정답입니다,517.2401606999338,None,517.2401606999338,None,517.2401606999338,None,517.2401606999338,None,517.9870935999788,None,517.9870935999788,518.4870809999993,,,,,,,,,,,,,,,,007,2022-05-09_14h00.53.606,FishGame,2022.1.1,60.02350520193826,
,4,넌 철학적이야,3,Green,B,4.5,4.266666666666667,ScrollUp,ScrollDown,Green.png,4,Neutral,Neutral,0,0,0,0,,,,,,,,,,,,,,,,,,,,,,,,,0,3,3,3,,,,,,,,,,,,,,,,,,,,,,,,,,,,,,,,,,,,,,,,,,,,,,,,,,,,,,,,,,,,,,,,,,,,,,,,,1.8518518557151158,0.9951347999740392,519.1167052999372,None,ScrollUp,정답입니다,519.1167052999372,None,519.1167052999372,None,519.1167052999372,None,519.1167052999372,None,520.0033427999588,None,520.0033427999588,520.5034207999706,,,,,,,,,,,,,,,,007,2022-05-09_14h00.53.606,FishGame,2022.1.1,60.02350520193826,
,5,넌 쩨쩨해,5,Orange,A,2.375,2.133333333333333,ScrollDown,ScrollUp,Orange.png,4,Negative,Incongruent,0,0,0,0,,,,,,,,,,,,,,,,,,,,,,,,,0,4,4,4,,,,,,,,,,,,,,,,,,,,,,,,,,,,,,,,,,,,,,,,,,,,,,,,,,,,,,,,,,,,,,,,,,,,,,,,,1.3287037014961243,0.9617138999747112,521.1362015999621,None,ScrollDown,정답입니다,521.1362015999621,None,521.1362015999621,None,521.1362015999621,None,521.1362015999621,None,521.9870163999731,None,521.9870163999731,522.4898223999189,,,,,,,,,,,,,,,,007,2022-05-09_14h00.53.606,FishGame,2022.1.1,60.02350520193826,
,6,나를 데려가줘,6,Green,B,0,0,ScrollDown,ScrollUp,Green.png,4,NonTarget,NonTarget,0,0,0,0,,,,,,,,,,,,,,,,,,,,,,,,,0,5,5,5,,,,,,,,,,,,,,,,,,,,,,,,,,,,,,,,,,,,,,,,,,,,,,,,,,,,,,,,,,,,,,,,,,,,,,,,,1.3070987686514854,1.125395099981688,523.1083805999951,None,ScrollDown,정답입니다,523.1083805999951,None,523.1083805999951,None,523.1083805999951,None,523.1083805999951,None,524.1369348999579,None,524.1369348999579,524.6369375999784,,,,,,,,,,,,,,,,007,2022-05-09_14h00.53.606,FishGame,2022.1.1,60.02350520193826,
,7,넌 고집불통이야,5,Green,B,2.875,2,ScrollUp,ScrollDown,Green.png,4,Negative,Congruent,0,0,0,0,,,,,,,,,,,,,,,,,,,,,,,,,0,6,6,6,,,,,,,,,,,,,,,,,,,,,,,,,,,,,,,,,,,,,,,,,,,,,,,,,,,,,,,,,,,,,,,,,,,,,,,,,1.3271604999899864,1.3258659000275657,525.264100200031,None,ScrollDown,오답입니다,525.264100200031,None,525.264100200031,None,525.264100200031,None,525.264100200031,None,526.4865582999773,None,526.4865582999773,526.9866172999609,,,,,,,,,,,,,,,,007,2022-05-09_14h00.53.606,FishGame,2022.1.1,60.02350520193826,
,8,넌 무심해,4,Orange,A,2.875,3.2,ScrollDown,ScrollUp,Orange.png,4,Negative,Incongruent,0,0,0,0,,,,,,,,,,,,,,,,,,,,,,,,,0,7,7,7,,,,,,,,,,,,,,,,,,,,,,,,,,,,,,,,,,,,,,,,,,,,,,,,,,,,,,,,,,,,,,,,,,,,,,,,,1.3580246915419898,0.9451345999259502,527.6083754999563,None,ScrollDown,정답입니다,527.6083754999563,None,527.6083754999563,None,527.6083754999563,None,527.6083754999563,None,528.4535489999689,None,528.4535489999689,528.9536304000067,,,,,,,,,,,,,,,,007,2022-05-09_14h00.53.606,FishGame,2022.1.1,60.02350520193826,
,9,넌 정겨워,1,Orange,A,5.791666666666667,5.666666666666667,ScrollDown,ScrollUp,Orange.png,4,Positive,Congruent,0,0,0,0,,,,,,,,,,,,,,,,,,,,,,,,,0,8,8,8,,,,,,,,,,,,,,,,,,,,,,,,,,,,,,,,,,,,,,,,,,,,,,,,,,,,,,,,,,,,,,,,,,,,,,,,,1.060185174147288,1.2255809000926092,529.5797644000268,None,ScrollDown,정답입니다,529.5797644000268,None,529.5797644000268,None,529.5797644000268,None,529.5797644000268,None,530.7062609000131,None,530.7062609000131,531.2034852999495,,,,,,,,,,,,,,,,007,2022-05-09_14h00.53.606,FishGame,2022.1.1,60.02350520193826,
,10,나를 데려가줘,6,Green,B,0,0,ScrollDown,ScrollUp,Green.png,4,NonTarget,NonTarget,0,0,0,0,,,,,,,,,,,,,,,,,,,,,,,,,0,9,9,9,,,,,,,,,,,,,,,,,,,,,,,,,,,,,,,,,,,,,,,,,,,,,,,,,,,,,,,,,,,,,,,,,,,,,,,,,1.859567900498708,1.1752896000398323,531.8296694000019,None,ScrollUp,오답입니다,531.8296694000019,None,531.8296694000019,None,531.8296694000019,None,531.8296694000019,None,532.9033138999948,None,532.9033138999948,533.4033710999647,,,,,,,,,,,,,,,,007,2022-05-09_14h00.53.606,FishGame,2022.1.1,60.02350520193826,
,11,넌 체제순응적이야,4,Green,B,3,3.6,ScrollUp,ScrollDown,Green.png,4,Negative,Congruent,0,0,0,0,,,,,,,,,,,,,,,,,,,,,,,,,0,10,10,10,,,,,,,,,,,,,,,,,,,,,,,,,,,,,,,,,,,,,,,,,,,,,,,,,,,,,,,,,,,,,,,,,,,,,,,,,1.8317901243766148,1.6777461000019684,534.0317401000066,None,ScrollUp,정답입니다,534.0317401000066,None,534.0317401000066,None,534.0317401000066,None,534.0317401000066,None,535.603428900009,None,535.603428900009,536.1033439999446,,,,,,,,,,,,,,,,007,2022-05-09_14h00.53.606,FishGame,2022.1.1,60.02350520193826,
,12,나를 보내줘,6,Orange,A,0,0,ScrollUp,ScrollDown,Orange.png,4,NonTarget,NonTarget,0,0,0,0,,,,,,,,,,,,,,,,,,,,,,,,,0,11,11,11,,,,,,,,,,,,,,,,,,,,,,,,,,,,,,,,,,,,,,,,,,,,,,,,,,,,,,,,,,,,,,,,,,,,,,,,,1.4151234577099483,1.091747700003907,536.7286282000132,None,ScrollDown,오답입니다,536.7286282000132,None,536.7286282000132,None,536.7286282000132,None,536.7286282000132,None,537.7199968999485,None,537.7199968999485,538.222777799936,,,,,,,,,,,,,,,,007,2022-05-09_14h00.53.606,FishGame,2022.1.1,60.02350520193826,
,13,넌 박식해,2,Orange,A,5.625,3.933333333333333,ScrollDown,ScrollUp,Orange.png,4,Positive,Congruent,0,0,0,0,,,,,,,,,,,,,,,,,,,,,,,,,0,12,12,12,,,,,,,,,,,,,,,,,,,,,,,,,,,,,,,,,,,,,,,,,,,,,,,,,,,,,,,,,,,,,,,,,,,,,,,,,1.248456800977389,2.425154900061898,538.8523719999939,None,ScrollDown,정답입니다,538.8523719999939,None,538.8523719999939,None,538.8523719999939,None,538.8523719999939,None,541.1696113999933,None,541.1696113999933,541.6700038999552,,,,,,,,,,,,,,,,007,2022-05-09_14h00.53.606,FishGame,2022.1.1,60.02350520193826,
,14,나를 보내줘,6,Orange,A,0,0,ScrollUp,ScrollDown,Orange.png,4,NonTarget,NonTarget,0,0,0,0,,,,,,,,,,,,,,,,,,,,,,,,,0,13,13,13,,,,,,,,,,,,,,,,,,,,,,,,,,,,,,,,,,,,,,,,,,,,,,,,,,,,,,,,,,,,,,,,,,,,,,,,,1.7206790198882422,1.1117506000446156,542.2945723999292,None,ScrollUp,정답입니다,542.2945723999292,None,542.2945723999292,None,542.2945723999292,None,542.2945723999292,None,543.3032083000289,None,543.3032083000289,543.8032000999665,,,,,,,,,,,,,,,,007,2022-05-09_14h00.53.606,FishGame,2022.1.1,60.02350520193826,
,15,넌 침착해,1,Green,B,5.458333333333333,5.566666666666666,ScrollUp,ScrollDown,Green.png,4,Positive,Incongruent,0,0,0,0,,,,,,,,,,,,,,,,,,,,,,,,,0,14,14,14,,,,,,,,,,,,,,,,,,,,,,,,,,,,,,,,,,,,,,,,,,,,,,,,,,,,,,,,,,,,,,,,,,,,,,,,,1.654320982595285,1.8419073999393731,544.4276841999963,None,ScrollUp,정답입니다,544.4276841999963,None,544.4276841999963,None,544.4276841999963,None,544.4276841999963,None,546.1697859999258,None,546.1697859999258,546.6698304000311,,,,,,,,,,,,,,,,007,2022-05-09_14h00.53.606,FishGame,2022.1.1,60.02350520193826,
,16,나를 데려가줘,6,Green,B,0,0,ScrollDown,ScrollUp,Green.png,4,NonTarget,NonTarget,0,0,0,0,,,,,,,,,,,,,,,,,,,,,,,,,0,15,15,15,,,,,,,,,,,,,,,,,,,,,,,,,,,,,,,,,,,,,,,,,,,,,,,,,,,,,,,,,,,,,,,,,,,,,,,,,1.2932098805904388,1.111214799922891,547.2925245999359,None,ScrollDown,정답입니다,547.2925245999359,None,547.2925245999359,None,547.2925245999359,None,547.2925245999359,None,548.303179099923,None,548.303179099923,548.8030811999924,,,,,,,,,,,,,,,,007,2022-05-09_14h00.53.606,FishGame,2022.1.1,60.02350520193826,
,17,넌 행복해,1,Orange,A,6.416666666666666,6.166666666666667,ScrollDown,ScrollUp,Orange.png,4,Positive,Congruent,0,0,0,0,,,,,,,,,,,,,,,,,,,,,,,,,0,16,16,16,,,,,,,,,,,,,,,,,,,,,,,,,,,,,,,,,,,,,,,,,,,,,,,,,,,,,,,,,,,,,,,,,,,,,,,,,1.3996913557251294,1.4437062999932095,549.42743349995,None,ScrollDown,정답입니다,549.42743349995,None,549.42743349995,None,549.42743349995,None,549.42743349995,None,550.7698106999742,None,550.7698106999742,551.2697022999637,,,,,,,,,,,,,,,,007,2022-05-09_14h00.53.606,FishGame,2022.1.1,60.02350520193826,
,18,넌 겸손해,2,Green,B,5.791666666666667,4.766666666666667,ScrollUp,ScrollDown,Green.png,4,Positive,Incongruent,0,0,0,0,,,,,,,,,,,,,,,,,,,,,,,,,0,17,17,17,,,,,,,,,,,,,,,,,,,,,,,,,,,,,,,,,,,,,,,,,,,,,,,,,,,,,,,,,,,,,,,,,,,,,,,,,1.8966049353281658,1.3274999000132084,551.9008233000059,None,ScrollUp,정답입니다,551.9008233000059,None,551.9008233000059,None,551.9008233000059,None,551.9008233000059,None,553.1193127000006,None,553.1193127000006,553.6193945999257,,,,,,,,,,,,,,,,007,2022-05-09_14h00.53.606,FishGame,2022.1.1,60.02350520193826,
,19,나를 보내줘,6,Orange,A,0,0,ScrollUp,ScrollDown,Orange.png,4,NonTarget,NonTarget,0,0,0,0,,,,,,,,,,,,,,,,,,,,,,,,,0,18,18,18,,,,,,,,,,,,,,,,,,,,,,,,,,,,,,,,,,,,,,,,,,,,,,,,,,,,,,,,,,,,,,,,,,,,,,,,,1.9552469154198964,1.0792566000018269,554.2373224999756,None,ScrollUp,정답입니다,554.2373224999756,None,554.2373224999756,None,554.2373224999756,None,554.2373224999756,None,555.2196388000157,None,555.2196388000157,555.7224294999614,,,,,,,,,,,,,,,,007,2022-05-09_14h00.53.606,FishGame,2022.1.1,60.02350520193826,
,20,넌 의심없어,3,Orange,A,4.166666666666667,4.6,ScrollDown,ScrollUp,Orange.png,4,Neutral,Neutral,0,0,0,0,,,,,,,,,,,,,,,,,,,,,,,,,0,19,19,19,,,,,,,,,,,,,,,,,,,,,,,,,,,,,,,,,,,,,,,,,,,,,,,,,,,,,,,,,,,,,,,,,,,,,,,,,1.2253086417913437,1.0605933999177068,556.3398970999988,None,ScrollDown,정답입니다,556.3398970999988,None,556.3398970999988,None,556.3398970999988,None,556.3398970999988,None,557.3057150000241,None,557.3057150000241,557.8028915999457,,,,,,,,,,,,,,,,007,2022-05-09_14h00.53.606,FishGame,2022.1.1,60.02350520193826,
,21,넌 시시해,4,Orange,A,2.666666666666667,2.966666666666667,ScrollDown,ScrollUp,Orange.png,4,Negative,Incongruent,0,0,0,0,,,,,,,,,,,,,,,,,,,,,,,,,0,20,20,20,,,,,,,,,,,,,,,,,,,,,,,,,,,,,,,,,,,,,,,,,,,,,,,,,,,,,,,,,,,,,,,,,,,,,,,,,1.2453703731298447,0.9602335999952629,558.4279907000018,None,ScrollDown,정답입니다,558.4279907000018,None,558.4279907000018,None,558.4279907000018,None,558.4279907000018,None,559.2858512999956,None,559.2858512999956,559.7859291000059,,,,,,,,,,,,,,,,007,2022-05-09_14h00.53.606,FishGame,2022.1.1,60.02350520193826,
,22,나를 데려가줘,6,Green,B,0,0,ScrollDown,ScrollUp,Green.png,4,NonTarget,NonTarget,0,0,0,0,,,,,,,,,,,,,,,,,,,,,,,,,0,21,21,21,,,,,,,,,,,,,,,,,,,,,,,,,,,,,,,,,,,,,,,,,,,,,,,,,,,,,,,,,,,,,,,,,,,,,,,,,1.3966049402952194,1.0613399000139907,560.4121050999966,None,ScrollDown,정답입니다,560.4121050999966,None,560.4121050999966,None,560.4121050999966,None,560.4121050999966,None,561.3694967000047,None,561.3694967000047,561.8695244999835,,,,,,,,,,,,,,,,007,2022-05-09_14h00.53.606,FishGame,2022.1.1,60.02350520193826,
,23,넌 무정해,5,Orange,A,2.5,2.2,ScrollDown,ScrollUp,Orange.png,4,Negative,Incongruent,0,0,0,0,,,,,,,,,,,,,,,,,,,,,,,,,0,22,22,22,,,,,,,,,,,,,,,,,,,,,,,,,,,,,,,,,,,,,,,,,,,,,,,,,,,,,,,,,,,,,,,,,,,,,,,,,1.3101851840813956,1.0483968999469653,562.4876789000118,None,ScrollDown,정답입니다,562.4876789000118,None,562.4876789000118,None,562.4876789000118,None,562.4876789000118,None,563.4361040999647,None,563.4361040999647,563.9389364999952,,,,,,,,,,,,,,,,007,2022-05-09_14h00.53.606,FishGame,2022.1.1,60.02350520193826,
,24,넌 긍정적이야,1,Green,B,6.041666666666667,6.066666666666666,ScrollUp,ScrollDown,Green.png,4,Positive,Incongruent,0,0,0,0,,,,,,,,,,,,,,,,,,,,,,,,,0,23,23,23,,,,,,,,,,,,,,,,,,,,,,,,,,,,,,,,,,,,,,,,,,,,,,,,,,,,,,,,,,,,,,,,,,,,,,,,,1.9814815024534862,1.0099648999748752,564.5640370999463,None,ScrollUp,정답입니다,564.5640370999463,None,564.5640370999463,None,564.5640370999463,None,564.5640370999463,None,565.4690213999711,None,565.4690213999711,565.969113899977,,,,,,,,,,,,,,,,007,2022-05-09_14h00.53.606,FishGame,2022.1.1,60.02350520193826,
,25,나를 보내줘,6,Orange,A,0,0,ScrollUp,ScrollDown,Orange.png,4,NonTarget,NonTarget,0,0,0,0,,,,,,,,,,,,,,,,,,,,,,,,,0,24,24,24,,,,,,,,,,,,,,,,,,,,,,,,,,,,,,,,,,,,,,,,,,,,,,,,,,,,,,,,,,,,,,,,,,,,,,,,,1.904320980111758,1.1280266999965534,566.5900812000036,None,ScrollUp,정답입니다,566.5900812000036,None,566.5900812000036,None,566.5900812000036,None,566.5900812000036,None,567.6222212000284,None,567.6222212000284,568.1221572000068,,,,,,,,,,,,,,,,007,2022-05-09_14h00.53.606,FishGame,2022.1.1,60.02350520193826,
,26,넌 시기심이 많아,5,Green,B,2.458333333333333,2.233333333333333,ScrollUp,ScrollDown,Green.png,4,Negative,Congruent,0,0,0,0,,,,,,,,,,,,,,,,,,,,,,,,,0,25,25,25,,,,,,,,,,,,,,,,,,,,,,,,,,,,,,,,,,,,,,,,,,,,,,,,,,,,,,,,,,,,,,,,,,,,,,,,,1.9706790049870808,1.5586838000454009,568.749378599925,None,ScrollUp,정답입니다,568.749378599925,None,568.749378599925,None,568.749378599925,None,568.749378599925,None,570.2026111999294,None,570.2026111999294,570.7027884999989,,,,,,,,,,,,,,,,007,2022-05-09_14h00.53.606,FishGame,2022.1.1,60.02350520193826,
,27,넌 탁월해,2,Orange,A,5.708333333333334,4.5,ScrollDown,ScrollUp,Orange.png,4,Positive,Congruent,0,0,0,0,,,,,,,,,,,,,,,,,,,,,,,,,0,26,26,26,,,,,,,,,,,,,,,,,,,,,,,,,,,,,,,,,,,,,,,,,,,,,,,,,,,,,,,,,,,,,,,,,,,,,,,,,1.276234577099482,0.9243528000079095,571.3290725999977,None,ScrollDown,정답입니다,571.3290725999977,None,571.3290725999977,None,571.3290725999977,None,571.3290725999977,None,572.1525204000063,None,572.1525204000063,572.6525723999366,,,,,,,,,,,,,,,,007,2022-05-09_14h00.53.606,FishGame,2022.1.1,60.02350520193826,
,28,나를 데려가줘,6,Green,B,0,0,ScrollDown,ScrollUp,Green.png,4,NonTarget,NonTarget,0,0,0,0,,,,,,,,,,,,,,,,,,,,,,,,,0,27,27,27,,,,,,,,,,,,,,,,,,,,,,,,,,,,,,,,,,,,,,,,,,,,,,,,,,,,,,,,,,,,,,,,,,,,,,,,,1.3333333308498063,1.0951679999707267,573.2748293000041,None,ScrollDown,정답입니다,573.2748293000041,None,573.2748293000041,None,573.2748293000041,None,573.2748293000041,None,574.2691886000102,None,574.2691886000102,574.7693731000181,,,,,,,,,,,,,,,,007,2022-05-09_14h00.53.606,FishGame,2022.1.1,60.02350520193826,
,29,넌 조용해,3,Green,B,4.333333333333333,4.166666666666667,ScrollUp,ScrollDown,Green.png,4,Neutral,Neutral,0,0,0,0,,,,,,,,,,,,,,,,,,,,,,,,,0,28,28,28,,,,,,,,,,,,,,,,,,,,,,,,,,,,,,,,,,,,,,,,,,,,,,,,,,,,,,,,,,,,,,,,,,,,,,,,,2,1.1907491999445483,575.3925846000202,None,ScrollUp,정답입니다,575.3925846000202,None,575.3925846000202,None,575.3925846000202,None,575.3925846000202,None,576.4857191999909,None,576.4857191999909,576.9886316999327,,,,,,,,,,,,,,,,007,2022-05-09_14h00.53.606,FishGame,2022.1.1,60.02350520193826,
,30,넌 다정해,1,Orange,A,5.833333333333334,5.7,ScrollDown,ScrollUp,Orange.png,4,Positive,Congruent,0,0,0,0,,,,,,,,,,,,,,,,,,,,,,,,,0,29,29,29,,,,,,,,,,,,,,,,,,,,,,,,,,,,,,,,,,,,,,,,,,,,,,,,,,,,,,,,,,,,,,,,,,,,,,,,,1.3395061741272607,0.8615742999827489,577.6075767999282,None,ScrollDown,정답입니다,577.6075767999282,None,577.6075767999282,None,577.6075767999282,None,577.6075767999282,None,578.3690495999763,None,578.3690495999763,578.8691256999737,,,,,,,,,,,,,,,,007,2022-05-09_14h00.53.606,FishGame,2022.1.1,60.02350520193826,
,31,넌 능력있어,2,Green,B,6.166666666666666,4.6,ScrollUp,ScrollDown,Green.png,4,Positive,Incongruent,0,0,0,0,,,,,,,,,,,,,,,,,,,,,,,,,0,30,30,30,,,,,,,,,,,,,,,,,,,,,,,,,,,,,,,,,,,,,,,,,,,,,,,,,,,,,,,,,,,,,,,,,,,,,,,,,1.8950617214043934,0.8089695000089705,579.491406599991,None,ScrollUp,정답입니다,579.491406599991,None,579.491406599991,None,579.491406599991,None,579.491406599991,None,580.2023651999189,None,580.2023651999189,580.7024350999855,,,,,,,,,,,,,,,,007,2022-05-09_14h00.53.606,FishGame,2022.1.1,60.02350520193826,
,32,넌 불쾌해,5,Orange,A,2.125,1.933333333333333,ScrollDown,ScrollUp,Orange.png,4,Negative,Incongruent,0,0,0,0,,,,,,,,,,,,,,,,,,,,,,,,,0,31,31,31,,,,,,,,,,,,,,,,,,,,,,,,,,,,,,,,,,,,,,,,,,,,,,,,,,,,,,,,,,,,,,,,,,,,,,,,,1.2700617214043937,0.7773647999856621,581.323435200029,None,ScrollDown,정답입니다,581.323435200029,None,581.323435200029,None,581.323435200029,None,581.323435200029,None,582.0020306999795,None,582.0020306999795,582.5020950000035,,,,,,,,,,,,,,,,007,2022-05-09_14h00.53.606,FishGame,2022.1.1,60.02350520193826,
,33,나를 데려가줘,6,Green,B,0,0,ScrollDown,ScrollUp,Green.png,4,NonTarget,NonTarget,0,0,0,0,,,,,,,,,,,,,,,,,,,,,,,,,0,32,32,32,,,,,,,,,,,,,,,,,,,,,,,,,,,,,,,,,,,,,,,,,,,,,,,,,,,,,,,,,,,,,,,,,,,,,,,,,1.345679017404715,1.344880499993451,583.1200327000115,None,ScrollDown,정답입니다,583.1200327000115,None,583.1200327000115,None,583.1200327000115,None,583.1200327000115,None,584.3686955999583,None,584.3686955999583,584.8718443999533,,,,,,,,,,,,,,,,007,2022-05-09_14h00.53.606,FishGame,2022.1.1,60.02350520193826,
,34,넌 유순해,3,Orange,A,4.458333333333333,5,ScrollDown,ScrollUp,Orange.png,4,Neutral,Neutral,0,0,0,0,,,,,,,,,,,,,,,,,,,,,,,,,0,33,33,33,,,,,,,,,,,,,,,,,,,,,,,,,,,,,,,,,,,,,,,,,,,,,,,,,,,,,,,,,,,,,,,,,,,,,,,,,1.2623456766208014,1.015251100063324,585.4880392999621,None,ScrollDown,정답입니다,585.4880392999621,None,585.4880392999621,None,585.4880392999621,None,585.4880392999621,None,586.4024336999282,None,586.4024336999282,586.90232559992,,,,,,,,,,,,,,,,007,2022-05-09_14h00.53.606,FishGame,2022.1.1,60.02350520193826,
,35,넌 근심스러워,4,Green,B,2.708333333333333,3.133333333333333,ScrollUp,ScrollDown,Green.png,4,Negative,Congruent,0,0,0,0,,,,,,,,,,,,,,,,,,,,,,,,,0,34,34,34,,,,,,,,,,,,,,,,,,,,,,,,,,,,,,,,,,,,,,,,,,,,,,,,,,,,,,,,,,,,,,,,,,,,,,,,,1.9243827362855275,0.8624130000825971,587.5272077999543,None,ScrollUp,정답입니다,587.5272077999543,None,587.5272077999543,None,587.5272077999543,None,587.5272077999543,None,588.2852085999912,None,588.2852085999912,588.7852935999399,,,,,,,,,,,,,,,,007,2022-05-09_14h00.53.606,FishGame,2022.1.1,60.02350520193826,
,36,넌 세련되었어,2,Orange,A,5.5,4.6,ScrollDown,ScrollUp,Orange.png,4,Positive,Congruent,0,0,0,0,,,,,,,,,,,,,,,,,,,,,,,,,0,35,35,35,,,,,,,,,,,,,,,,,,,,,,,,,,,,,,,,,,,,,,,,,,,,,,,,,,,,,,,,,,,,,,,,,,,,,,,,,1.3533950621883073,0.9946123000700027,589.4190702999476,None,ScrollDown,정답입니다,589.4190702999476,None,589.4190702999476,None,589.4190702999476,None,589.4190702999476,None,590.3019012999721,None,590.3019012999721,590.8051409999607,,,,,,,,,,,,,,,,007,2022-05-09_14h00.53.606,FishGame,2022.1.1,60.02350520193826,
,37,나를 보내줘,6,Orange,A,0,0,ScrollUp,ScrollDown,Orange.png,4,NonTarget,NonTarget,0,0,0,0,,,,,,,,,,,,,,,,,,,,,,,,,0,36,36,36,,,,,,,,,,,,,,,,,,,,,,,,,,,,,,,,,,,,,,,,,,,,,,,,,,,,,,,,,,,,,,,,,,,,,,,,,1.8703703731298447,1.0948210000060499,591.4253119999776,None,ScrollUp,정답입니다,591.4253119999776,None,591.4253119999776,None,591.4253119999776,None,591.4253119999776,None,592.4188248999417,None,592.4188248999417,592.9217592999339,,,,,,,,,,,,,,,,007,2022-05-09_14h00.53.606,FishGame,2022.1.1,60.02350520193826,
,38,넌 확고해,3,Green,B,4.708333333333334,4.566666666666666,ScrollUp,ScrollDown,Green.png,4,Neutral,Neutral,0,0,0,0,,,,,,,,,,,,,,,,,,,,,,,,,0,37,37,37,,,,,,,,,,,,,,,,,,,,,,,,,,,,,,,,,,,,,,,,,,,,,,,,,,,,,,,,,,,,,,,,,,,,,,,,,1.8641975422700245,0.998165600001812,593.5399747999618,None,ScrollUp,정답입니다,593.5399747999618,None,593.5399747999618,None,593.5399747999618,None,593.5399747999618,None,594.4353388999589,None,594.4353388999589,594.9354430999374,,,,,,,,,,,,,,,,007,2022-05-09_14h00.53.606,FishGame,2022.1.1,60.02350520193826,
,39,넌 이해심이 많아,1,Green,B,6.041666666666668,5.533333333333333,ScrollUp,ScrollDown,Green.png,4,Positive,Incongruent,0,0,0,0,,,,,,,,,,,,,,,,,,,,,,,,,0,38,38,38,,,,,,,,,,,,,,,,,,,,,,,,,,,,,,,,,,,,,,,,,,,,,,,,,,,,,,,,,,,,,,,,,,,,,,,,,1.8765432039896648,1.1614556999411434,595.5563267000252,None,ScrollUp,정답입니다,595.5563267000252,None,595.5563267000252,None,595.5563267000252,None,595.5563267000252,None,596.6186738000251,None,596.6186738000251,597.1215147000039,,,,,,,,,,,,,,,,007,2022-05-09_14h00.53.606,FishGame,2022.1.1,60.02350520193826,
,40,나를 보내줘,6,Orange,A,0,0,ScrollUp,ScrollDown,Orange.png,4,NonTarget,NonTarget,0,0,0,0,,,,,,,,,,,,,,,,,,,,,,,,,0,39,39,39,,,,,,,,,,,,,,,,,,,,,,,,,,,,,,,,,,,,,,,,,,,,,,,,,,,,,,,,,,,,,,,,,,,,,,,,,1.3719135796030364,0.79558390006423,597.7381000999594,None,ScrollDown,오답입니다,597.7381000999594,None,597.7381000999594,None,597.7381000999594,None,597.7381000999594,None,598.4353207999375,None,598.4353207999375,598.9381757000228,,,,,,,,,,,,,,,,007,2022-05-09_14h00.53.606,FishGame,2022.1.1,60.02350520193826,
,41,넌 거칠어,4,Orange,A,2.625,3.033333333333333,ScrollDown,ScrollUp,Orange.png,4,Negative,Incongruent,0,0,0,0,,,,,,,,,,,,,,,,,,,,,,,,,0,40,40,40,,,,,,,,,,,,,,,,,,,,,,,,,,,,,,,,,,,,,,,,,,,,,,,,,,,,,,,,,,,,,,,,,,,,,,,,,1.3827160522341728,0.8758001999231055,599.5637641999638,None,ScrollDown,정답입니다,599.5637641999638,None,599.5637641999638,None,599.5637641999638,None,599.5637641999638,None,600.3352967000101,None,600.3352967000101,600.8381981999846,,,,,,,,,,,,,,,,007,2022-05-09_14h00.53.606,FishGame,2022.1.1,60.02350520193826,
,42,넌 변덕맞아,5,Green,B,2.75,2.166666666666667,ScrollUp,ScrollDown,Green.png,4,Negative,Congruent,0,0,0,0,,,,,,,,,,,,,,,,,,,,,,,,,0,41,41,41,,,,,,,,,,,,,,,,,,,,,,,,,,,,,,,,,,,,,,,,,,,,,,,,,,,,,,,,,,,,,,,,,,,,,,,,,1.7916666616996129,1.0423835000256076,601.4596461999463,None,ScrollUp,정답입니다,601.4596461999463,None,601.4596461999463,None,601.4596461999463,None,601.4596461999463,None,602.4019076999975,None,602.4019076999975,602.9089653999545,,,,,,,,,,,,,,,,007,2022-05-09_14h00.53.606,FishGame,2022.1.1,60.02350520193826,
,43,나를 데려가줘,6,Green,B,0,0,ScrollDown,ScrollUp,Green.png,4,NonTarget,NonTarget,0,0,0,0,,,,,,,,,,,,,,,,,,,,,,,,,0,42,42,42,,,,,,,,,,,,,,,,,,,,,,,,,,,,,,,,,,,,,,,,,,,,,,,,,,,,,,,,,,,,,,,,,,,,,,,,,1.1126543233791988,1.9943711999803782,603.5197699000128,None,ScrollDown,정답입니다,603.5197699000128,None,603.5197699000128,None,603.5197699000128,None,603.5197699000128,None,605.4182385000167,None,605.4182385000167,605.92150019994,,,,,,,,,,,,,,,,007,2022-05-09_14h00.53.606,FishGame,2022.1.1,60.02350520193826,
,44,넌 외로워,4,Green,B,2.833333333333333,3.3,ScrollUp,ScrollDown,Green.png,4,Negative,Congruent,0,0,0,0,,,,,,,,,,,,,,,,,,,,,,,,,0,43,43,43,,,,,,,,,,,,,,,,,,,,,,,,,,,,,,,,,,,,,,,,,,,,,,,,,,,,,,,,,,,,,,,,,,,,,,,,,1.8533950696388881,1.559069500071928,606.54207830003,None,ScrollUp,정답입니다,606.54207830003,None,606.54207830003,None,606.54207830003,None,606.54207830003,None,608.0018112999387,None,608.0018112999387,608.5018478999846,,,,,,,,,,,,,,,,007,2022-05-09_14h00.53.606,FishGame,2022.1.1,60.02350520193826,
,1,넌 불평스러워,5,Orange,A,2.25,2.066666666666667,ScrollDown,ScrollUp,Orange.png,5,Negative,Incongruent,0,0,0,0,,,,,,,,,,,,,,,,,,,,,,,,,,,,,0,0,0,0,,,,,,,,,,,,,,,,,,,,,,,,,,,,642.8176190999802,644.3251114999875,644.3418016999494,645.300996099948,645.3509914999595,646.3038914999925,646.3038914999925,None,,,,,,,,,,,,,,,,,,,,,,,,,,,,,,,,,,1.1111111094554265,1.205321399960667,647.3935866999673,None,ScrollDown,정답입니다,647.3935866999673,None,647.3935866999673,None,647.3935866999673,None,647.3935866999673,None,648.5008663999615,None,648.5008663999615,649.0009375999216,609.0017838999629,None,609.0017838999629,None,0.12685186,-0.075,1,0,0,0.01623153011314571,None,639.0011789000127,None,,,007,2022-05-09_14h00.53.606,FishGame,2022.1.1,60.02350520193826,
,2,나를 보내줘,6,Orange,A,0,0,ScrollUp,ScrollDown,Orange.png,5,NonTarget,NonTarget,0,0,0,0,,,,,,,,,,,,,,,,,,,,,,,,,,,,,0,1,1,1,,,,,,,,,,,,,,,,,,,,,,,,,,,,,,,,,,,,,,,,,,,,,,,,,,,,,,,,,,,,,,,,,,,,,1.7700617164373398,0.9611604000674561,649.6209030000027,None,ScrollUp,정답입니다,649.6209030000027,None,649.6209030000027,None,649.6209030000027,None,649.6209030000027,None,650.4841819999274,None,650.4841819999274,650.9870148999617,,,,,,,,,,,,,,,,007,2022-05-09_14h00.53.606,FishGame,2022.1.1,60.02350520193826,
,3,넌 다재다능해,2,Green,B,6.208333333333333,4.5,ScrollUp,ScrollDown,Green.png,5,Positive,Incongruent,0,0,0,0,,,,,,,,,,,,,,,,,,,,,,,,,,,,,0,2,2,2,,,,,,,,,,,,,,,,,,,,,,,,,,,,,,,,,,,,,,,,,,,,,,,,,,,,,,,,,,,,,,,,,,,,,1.9413580397764842,0.9622384000103921,651.6004277999746,None,ScrollUp,정답입니다,651.6004277999746,None,651.6004277999746,None,651.6004277999746,None,651.6004277999746,None,652.4674937999807,None,652.4674937999807,652.9704336000141,,,,,,,,,,,,,,,,007,2022-05-09_14h00.53.606,FishGame,2022.1.1,60.02350520193826,
,4,넌 과감해,3,Orange,A,4.833333333333334,4.6,ScrollDown,ScrollUp,Orange.png,5,Neutral,Neutral,0,0,0,0,,,,,,,,,,,,,,,,,,,,,,,,,,,,,0,3,3,3,,,,,,,,,,,,,,,,,,,,,,,,,,,,,,,,,,,,,,,,,,,,,,,,,,,,,,,,,,,,,,,,,,,,,1.162037044763565,0.794632300036028,653.5887455999618,None,ScrollDown,정답입니다,653.5887455999618,None,653.5887455999618,None,653.5887455999618,None,653.5887455999618,None,654.2838072000304,None,654.2838072000304,654.7838704999303,,,,,,,,,,,,,,,,007,2022-05-09_14h00.53.606,FishGame,2022.1.1,60.02350520193826,
,5,넌 고분고분해,3,Green,B,3.75,4.033333333333333,ScrollUp,ScrollDown,Green.png,5,Neutral,Neutral,0,0,0,0,,,,,,,,,,,,,,,,,,,,,,,,,,,,,0,4,4,4,,,,,,,,,,,,,,,,,,,,,,,,,,,,,,,,,,,,,,,,,,,,,,,,,,,,,,,,,,,,,,,,,,,,,1.9382716119289398,0.9614227000856772,655.4077597999712,None,ScrollUp,정답입니다,655.4077597999712,None,655.4077597999712,None,655.4077597999712,None,655.4077597999712,None,656.267474399996,None,656.267474399996,656.7675567999249,,,,,,,,,,,,,,,,007,2022-05-09_14h00.53.606,FishGame,2022.1.1,60.02350520193826,
,6,나를 보내줘,6,Orange,A,0,0,ScrollUp,ScrollDown,Orange.png,5,NonTarget,NonTarget,0,0,0,0,,,,,,,,,,,,,,,,,,,,,,,,,,,,,0,5,5,5,,,,,,,,,,,,,,,,,,,,,,,,,,,,,,,,,,,,,,,,,,,,,,,,,,,,,,,,,,,,,,,,,,,,,1.7530864129463832,1.0252685999730602,657.391353999963,None,ScrollUp,정답입니다,657.391353999963,None,657.391353999963,None,657.391353999963,None,657.391353999963,None,658.3175089999568,None,658.3175089999568,658.8174232000019,,,,,,,,,,,,,,,,007,2022-05-09_14h00.53.606,FishGame,2022.1.1,60.02350520193826,
,7,넌 잘 잊어,4,Orange,A,3,3.7,ScrollDown,ScrollUp,Orange.png,5,Negative,Incongruent,0,0,0,0,,,,,,,,,,,,,,,,,,,,,,,,,,,,,0,6,6,6,,,,,,,,,,,,,,,,,,,,,,,,,,,,,,,,,,,,,,,,,,,,,,,,,,,,,,,,,,,,,,,,,,,,,1.6311728358268738,1.0920121999224648,659.4506440999685,None,ScrollUp,오답입니다,659.4506440999685,None,659.4506440999685,None,659.4506440999685,None,659.4506440999685,None,660.433663200005,None,660.433663200005,660.9337618999416,,,,,,,,,,,,,,,,007,2022-05-09_14h00.53.606,FishGame,2022.1.1,60.02350520193826,
,8,넌 탐구심이없어,4,Green,B,2.833333333333333,3.066666666666667,ScrollUp,ScrollDown,Green.png,5,Negative,Congruent,0,0,0,0,,,,,,,,,,,,,,,,,,,,,,,,,,,,,0,7,7,7,,,,,,,,,,,,,,,,,,,,,,,,,,,,,,,,,,,,,,,,,,,,,,,,,,,,,,,,,,,,,,,,,,,,,1.7777777860562007,0.9610136999981478,661.5651440999936,None,ScrollUp,정답입니다,661.5651440999936,None,661.5651440999936,None,661.5651440999936,None,661.5651440999936,None,662.4169986000052,None,662.4169986000052,662.9170474000275,,,,,,,,,,,,,,,,007,2022-05-09_14h00.53.606,FishGame,2022.1.1,60.02350520193826,
,9,나를 데려가줘,6,Green,B,0,0,ScrollDown,ScrollUp,Green.png,5,NonTarget,NonTarget,0,0,0,0,,,,,,,,,,,,,,,,,,,,,,,,,,,,,0,8,8,8,,,,,,,,,,,,,,,,,,,,,,,,,,,,,,,,,,,,,,,,,,,,,,,,,,,,,,,,,,,,,,,,,,,,,1.2592592487732568,1.0451739000855014,663.5373322999803,None,ScrollDown,정답입니다,663.5373322999803,None,663.5373322999803,None,663.5373322999803,None,663.5373322999803,None,664.4839676999254,None,664.4839676999254,664.9839476000052,,,,,,,,,,,,,,,,007,2022-05-09_14h00.53.606,FishGame,2022.1.1,60.02350520193826,
,10,넌 참되어,2,Orange,A,6.041666666666664,4.733333333333333,ScrollDown,ScrollUp,Orange.png,5,Positive,Congruent,0,0,0,0,,,,,,,,,,,,,,,,,,,,,,,,,,,,,0,9,9,9,,,,,,,,,,,,,,,,,,,,,,,,,,,,,,,,,,,,,,,,,,,,,,,,,,,,,,,,,,,,,,,,,,,,,1.2037036965290706,0.8755287000676617,665.611155099934,None,ScrollDown,정답입니다,665.611155099934,None,665.611155099934,None,665.611155099934,None,665.611155099934,None,666.383878899971,None,666.383878899971,666.8839568999829,,,,,,,,,,,,,,,,007,2022-05-09_14h00.53.606,FishGame,2022.1.1,60.02350520193826,
,11,넌 생기있어,1,Green,B,5.875,5.633333333333334,ScrollUp,ScrollDown,Green.png,5,Positive,Incongruent,0,0,0,0,,,,,,,,,,,,,,,,,,,,,,,,,,,,,0,10,10,10,,,,,,,,,,,,,,,,,,,,,,,,,,,,,,,,,,,,,,,,,,,,,,,,,,,,,,,,,,,,,,,,,,,,,1.7916666616996129,0.9158162000821903,667.4987037000246,None,ScrollUp,정답입니다,667.4987037000246,None,667.4987037000246,None,667.4987037000246,None,667.4987037000246,None,668.3168313999195,None,668.3168313999195,668.8169150999747,,,,,,,,,,,,,,,,007,2022-05-09_14h00.53.606,FishGame,2022.1.1,60.02350520193826,
,12,넌 비사교적이야,4,Green,B,2.875,2.9,ScrollUp,ScrollDown,Green.png,5,Negative,Congruent,0,0,0,0,,,,,,,,,,,,,,,,,,,,,,,,,,,,,0,11,11,11,,,,,,,,,,,,,,,,,,,,,,,,,,,,,,,,,,,,,,,,,,,,,,,,,,,,,,,,,,,,,,,,,,,,,1.56944444651405,1.1115267000859603,669.4357530999696,None,ScrollUp,정답입니다,669.4357530999696,None,669.4357530999696,None,669.4357530999696,None,669.4357530999696,None,670.4504952999996,None,670.4504952999996,670.9532396999421,,,,,,,,,,,,,,,,007,2022-05-09_14h00.53.606,FishGame,2022.1.1,60.02350520193826,
,13,나를 데려가줘,6,Green,B,0,0,ScrollDown,ScrollUp,Green.png,5,NonTarget,NonTarget,0,0,0,0,,,,,,,,,,,,,,,,,,,,,,,,,,,,,0,12,12,12,,,,,,,,,,,,,,,,,,,,,,,,,,,,,,,,,,,,,,,,,,,,,,,,,,,,,,,,,,,,,,,,,,,,,1.2407407313585281,1.4610226000659168,671.5690717999823,None,ScrollDown,정답입니다,671.5690717999823,None,671.5690717999823,None,671.5690717999823,None,671.5690717999823,None,672.9337539999979,None,672.9337539999979,673.4333857999882,,,,,,,,,,,,,,,,007,2022-05-09_14h00.53.606,FishGame,2022.1.1,60.02350520193826,
,14,넌 고독해,4,Orange,A,2.916666666666667,3.233333333333333,ScrollDown,ScrollUp,Orange.png,5,Negative,Incongruent,0,0,0,0,,,,,,,,,,,,,,,,,,,,,,,,,,,,,0,13,13,13,,,,,,,,,,,,,,,,,,,,,,,,,,,,,,,,,,,,,,,,,,,,,,,,,,,,,,,,,,,,,,,,,,,,,1.2592592487732568,1.1278703999705613,674.0569449999603,None,ScrollDown,정답입니다,674.0569449999603,None,674.0569449999603,None,674.0569449999603,None,674.0569449999603,None,675.0833615999436,None,675.0833615999436,675.5834663999267,,,,,,,,,,,,,,,,007,2022-05-09_14h00.53.606,FishGame,2022.1.1,60.02350520193826,
,15,넌 신경질적이야,5,Green,B,2.375,2.233333333333333,ScrollUp,ScrollDown,Green.png,5,Negative,Congruent,0,0,0,0,,,,,,,,,,,,,,,,,,,,,,,,,,,,,0,14,14,14,,,,,,,,,,,,,,,,,,,,,,,,,,,,,,,,,,,,,,,,,,,,,,,,,,,,,,,,,,,,,,,,,,,,,1.785493830839793,0.9106817999854684,676.2195834999438,None,ScrollUp,정답입니다,676.2195834999438,None,676.2195834999438,None,676.2195834999438,None,676.2195834999438,None,677.0169958999613,None,677.0169958999613,677.519835599931,,,,,,,,,,,,,,,,007,2022-05-09_14h00.53.606,FishGame,2022.1.1,60.02350520193826,
,16,넌 똑똑해,2,Green,B,5.666666666666667,3.966666666666667,ScrollUp,ScrollDown,Green.png,5,Positive,Incongruent,0,0,0,0,,,,,,,,,,,,,,,,,,,,,,,,,,,,,0,15,15,15,,,,,,,,,,,,,,,,,,,,,,,,,,,,,,,,,,,,,,,,,,,,,,,,,,,,,,,,,,,,,,,,,,,,,1.7700617164373398,0.9597411999711767,678.1385224999394,None,ScrollUp,정답입니다,678.1385224999394,None,678.1385224999394,None,678.1385224999394,None,678.1385224999394,None,679.0002792000305,None,679.0002792000305,679.5000068999361,,,,,,,,,,,,,,,,007,2022-05-09_14h00.53.606,FishGame,2022.1.1,60.02350520193826,
,17,나를 보내줘,6,Orange,A,0,0,ScrollUp,ScrollDown,Orange.png,5,NonTarget,NonTarget,0,0,0,0,,,,,,,,,,,,,,,,,,,,,,,,,,,,,0,16,16,16,,,,,,,,,,,,,,,,,,,,,,,,,,,,,,,,,,,,,,,,,,,,,,,,,,,,,,,,,,,,,,,,,,,,,1.1095678955316544,0.7966343000298366,680.1163053999189,None,ScrollDown,오답입니다,680.1163053999189,None,680.1163053999189,None,680.1163053999189,None,680.1163053999189,None,680.8165376000106,None,680.8165376000106,681.3166810999392,,,,,,,,,,,,,,,,007,2022-05-09_14h00.53.606,FishGame,2022.1.1,60.02350520193826,
,18,넌 협조적이야,1,Orange,A,5.625,5.666666666666667,ScrollDown,ScrollUp,Orange.png,5,Positive,Congruent,0,0,0,0,,,,,,,,,,,,,,,,,,,,,,,,,,,,,0,17,17,17,,,,,,,,,,,,,,,,,,,,,,,,,,,,,,,,,,,,,,,,,,,,,,,,,,,,,,,,,,,,,,,,,,,,,1.3425925895571709,0.9449906999943778,681.9413885999238,None,ScrollDown,정답입니다,681.9413885999238,None,681.9413885999238,None,681.9413885999238,None,681.9413885999238,None,682.7835583999986,None,682.7835583999986,683.2863200999564,,,,,,,,,,,,,,,,007,2022-05-09_14h00.53.606,FishGame,2022.1.1,60.02350520193826,
,19,나를 데려가줘,6,Green,B,0,0,ScrollDown,ScrollUp,Green.png,5,NonTarget,NonTarget,0,0,0,0,,,,,,,,,,,,,,,,,,,,,,,,,,,,,0,18,18,18,,,,,,,,,,,,,,,,,,,,,,,,,,,,,,,,,,,,,,,,,,,,,,,,,,,,,,,,,,,,,,,,,,,,,1.2916666666666665,1.359039899893105,683.9066861999454,None,ScrollDown,정답입니다,683.9066861999454,None,683.9066861999454,None,683.9066861999454,None,683.9066861999454,None,685.1668167000171,None,685.1668167000171,685.6665410000132,,,,,,,,,,,,,,,,007,2022-05-09_14h00.53.606,FishGame,2022.1.1,60.02350520193826,
,20,넌 몰인정해,5,Green,B,2.541666666666667,2.066666666666667,ScrollUp,ScrollDown,Green.png,5,Negative,Congruent,0,0,0,0,,,,,,,,,,,,,,,,,,,,,,,,,,,,,0,19,19,19,,,,,,,,,,,,,,,,,,,,,,,,,,,,,,,,,,,,,,,,,,,,,,,,,,,,,,,,,,,,,,,,,,,,,1.5972222226361432,1.094993899925612,686.2889239999931,None,ScrollUp,정답입니다,686.2889239999931,None,686.2889239999931,None,686.2889239999931,None,686.2889239999931,None,687.2831018000143,None,687.2831018000143,687.783229899942,,,,,,,,,,,,,,,,007,2022-05-09_14h00.53.606,FishGame,2022.1.1,60.02350520193826,
,21,나를 데려가줘,6,Green,B,0,0,ScrollDown,ScrollUp,Green.png,5,NonTarget,NonTarget,0,0,0,0,,,,,,,,,,,,,,,,,,,,,,,,,,,,,0,20,20,20,,,,,,,,,,,,,,,,,,,,,,,,,,,,,,,,,,,,,,,,,,,,,,,,,,,,,,,,,,,,,,,,,,,,,1.3194444427887597,0.941853899974376,688.4068529999349,None,ScrollDown,정답입니다,688.4068529999349,None,688.4068529999349,None,688.4068529999349,None,688.4068529999349,None,689.250063000014,None,689.250063000014,689.7501124999253,,,,,,,,,,,,,,,,007,2022-05-09_14h00.53.606,FishGame,2022.1.1,60.02350520193826,
