name,TrialNum,Word,WordCategory,FishType,WordList,WordValence,WordReputation,CorrectResp,IncorrectResp,FishTypeFile,Round,WordType,Condition,LoopforOrange.thisRepN,LoopforOrange.thisTrialN,LoopforOrange.thisN,LoopforOrange.thisIndex,LoopForGreen.thisRepN,LoopForGreen.thisTrialN,LoopForGreen.thisN,LoopForGreen.thisIndex,GreenInstLoop.thisRepN,GreenInstLoop.thisTrialN,GreenInstLoop.thisN,GreenInstLoop.thisIndex,GreenPrac.thisRepN,GreenPrac.thisTrialN,GreenPrac.thisN,GreenPrac.thisIndex,trials_2.thisRepN,trials_2.thisTrialN,trials_2.thisN,trials_2.thisIndex,GreenRound1.thisRepN,GreenRound1.thisTrialN,GreenRound1.thisN,GreenRound1.thisIndex,GreenRound2.thisRepN,GreenRound2.thisTrialN,GreenRound2.thisN,GreenRound2.thisIndex,GreenRound3.thisRepN,GreenRound3.thisTrialN,GreenRound3.thisN,GreenRound3.thisIndex,GreenRound4.thisRepN,GreenRound4.thisTrialN,GreenRound4.thisN,GreenRound4.thisIndex,GreenRound5.thisRepN,GreenRound5.thisTrialN,GreenRound5.thisN,GreenRound5.thisIndex,text_2.started,text_2.stopped,text_3.started,text_3.stopped,key_resp.keys,key_resp.rt,key_resp.started,key_resp.stopped,PassI.started,PassI.stopped,PassInst.keys,PassInst.rt,PassInst.started,PassInst.stopped,mouse_2.x,mouse_2.y,mouse_2.leftButton,mouse_2.midButton,mouse_2.rightButton,mouse_2.started,mouse_2.stopped,image.started,image.stopped,text_5.started,text_5.stopped,text_6.started,text_6.stopped,text_7.started,text_7.stopped,text_8.started,text_8.stopped,slider_3.response,slider_3.rt,slider_3.started,slider_3.stopped,Response_3,Feedback_3,BackGround_3.started,BackGround_3.stopped,Fish_3.started,Fish_3.stopped,WordBox_3.started,WordBox_3.stopped,Words_3.started,Words_3.stopped,BackGround_Feedback_3.started,BackGround_Feedback_3.stopped,Feedbacks_3.started,Feedbacks_3.stopped,Continue_or_not_2.keys,Continue_or_not_2.rt,Continue_or_not_2.started,Continue_or_not_2.stopped,image_4.started,image_4.stopped,mouse_3.x,mouse_3.y,mouse_3.leftButton,mouse_3.midButton,mouse_3.rightButton,mouse_3.started,mouse_3.stopped,startmain.started,startmain.stopped,slider_4.response,slider_4.rt,slider_4.started,slider_4.stopped,Response_4,Feedback_4,BackGround_4.started,BackGround_4.stopped,Fish_4.started,Fish_4.stopped,WordBox_4.started,WordBox_4.stopped,Words_4.started,Words_4.stopped,BackGround_Feedback_4.started,BackGround_Feedback_4.stopped,Feedbacks_4.started,Feedbacks_4.stopped,text.started,text.stopped,break_interval.started,break_interval.stopped,mouse.x,mouse.y,mouse.leftButton,mouse.midButton,mouse.rightButton,mouse.started,mouse.stopped,stratnextround.started,stratnextround.stopped,endgame.started,endgame.stopped,participant,date,expName,psychopyVersion,frameRate,
,,,,,,,,,,,,,,,,,,,,,,,,,,,,,,,,,,,,,,,,,,,,,,,,,,,,,,17.106014099903405,None,17.106014099903405,None,space,0.26603149995207787,17.599575399886817,None,,,,,,,,,,,,,,,,,,,,,,,,,,,,,,,,,,,,,,,,,,,,,,,,,,,,,,,,,,,,,,,,,,,,,,,,,,,,,,,,,,,,,,,,,,008,2022-05-09_15h53.39.424,FishGame,2022.1.1,59.97609350070195,
물고기과제_instruction(참가자용)GreenVersion.mp4,,,,,,,,,,,,,,,,,,0,0,0,0,0,0,0,0,,,,,,,,,,,,,,,,,,,,,,,,,,,,,,,,,,,,,90.98135940008797,None,n,3.412783200154081,90.98135940008797,None,,,,,,,,,,,,,,,,,,,,,,,,,,,,,,,,,,,,,,,,,,,,,,,,,,,,,,,,,,,,,,,,,,,,,,,,,,,,,,,,,,,,008,2022-05-09_15h53.39.424,FishGame,2022.1.1,59.97609350070195,
,1,넌 교활해,5,Orange,B,2.333333333333333,2.133333333333333,ScrollUp,ScrollDown,Orange.png,practice,,,,,,,0,0,0,0,,,,,0,0,0,0,0,0,0,0,,,,,,,,,,,,,,,,,,,,,,,,,,,,,,,,,,,0.05648148,-0.225,1,0,0,0.5129861501045525,None,94.41464699991047,None,98.69789470010437,100.20094299991615,100.23419940005988,101.18831730005331,101.22159469989128,102.18100970005617,102.18100970005617,None,2,2.4155627998989075,103.49171239999123,None,ScrollUp,정답입니다,103.49171239999123,None,103.49171239999123,None,103.49171239999123,None,103.49171239999123,None,105.59745200001635,None,105.59745200001635,106.09746189997531,,,,,,,,,,,,,,,,,,,,,,,,,,,,,,,,,,,,,,,,,,,,,,,,,008,2022-05-09_15h53.39.424,FishGame,2022.1.1,59.97609350070195,
,2,넌 슬기로워,2,Green,A,6.166666666666667,4.1,ScrollDown,ScrollUp,Green.png,practice,,,,,,,0,0,0,0,,,,,0,0,0,0,0,1,1,1,,,,,,,,,,,,,,,,,,,,,,,,,,,,,,,,,,,,,,,,,,,,,,,,,,,,1.0725308855374653,0.9447522000409663,106.72182189999148,None,ScrollDown,정답입니다,106.72182189999148,None,106.72182189999148,None,106.72182189999148,None,106.72182189999148,None,107.56433489988558,None,107.56433489988558,108.06726559996605,,,,,,,,,,,,,,,,,,,,,,,,,,,,,,,,,,,,,,,,,,,,,,,,,008,2022-05-09_15h53.39.424,FishGame,2022.1.1,59.97609350070195,
,3,나를 보내줘,6,Green,A,0,0,ScrollUp,ScrollDown,Green.png,practice,,,,,,,0,0,0,0,,,,,0,0,0,0,0,2,2,2,,,,,,,,,,,,,,,,,,,,,,,,,,,,,,,,,,,,,,,,,,,,,,,,,,,,1.0462962985038757,0.8282834999263287,108.69019949994981,None,ScrollDown,오답입니다,108.69019949994981,None,108.69019949994981,None,108.69019949994981,None,108.69019949994981,None,109.41711820010096,None,109.41711820010096,109.93067350005731,,,,,,,,,,,,,,,,,,,,,,,,,,,,,,,,,,,,,,,,,,,,,,,,,008,2022-05-09_15h53.39.424,FishGame,2022.1.1,59.97609350070195,
,4,나를 데려가줘,6,Orange,B,0,0,ScrollDown,ScrollUp,Orange.png,practice,,,,,,,0,0,0,0,,,,,0,0,0,0,0,3,3,3,,,,,,,,,,,,,,,,,,,,,,,,,,,,,,,,,,,,,,,,,,,,,,,,,,,,1.0555555323759716,1.395071200095117,110.55049189995043,None,ScrollDown,정답입니다,110.55049189995043,None,110.55049189995043,None,110.55049189995043,None,110.55049189995043,None,111.8472692000214,None,111.8472692000214,112.34734819992445,,,,,,,,,,,,,,,,,,,,,,,,,,,,,,,,,,,,,,,,,,,,,,,,,008,2022-05-09_15h53.39.424,FishGame,2022.1.1,59.97609350070195,
,1,넌 교활해,5,Orange,B,2.333333333333333,2.133333333333333,ScrollUp,ScrollDown,Orange.png,practice,,,,,,,0,0,0,0,,,,,0,0,0,0,,,,,,,,,,,,,,,,,,,,,,,,,,,,,,,,,,,,,,,,,,,,,,,,,,,,,,,,,,,,,,,,,,,,,,,,,,n,9.394236900145188,112.8475780999288,None,112.8475780999288,None,,,,,,,,,,,,,,,,,,,,,,,,,,,,,,,,,,,,,,,,,,,008,2022-05-09_15h53.39.424,FishGame,2022.1.1,59.97609350070195,
,1,넌 따뜻해,1,Orange,B,6.083333333333333,5.6,ScrollUp,ScrollDown,Orange.png,1,Positive,Incongruent,,,,,0,0,0,0,,,,,,,,,,,,,0,0,0,0,,,,,,,,,,,,,,,,,,,,,,,,,,,,,,,,,,,,,,,,123.78035410004668,125.28372609987855,125.3170576998964,126.28366150008515,126.31702409987338,127.26390459993854,127.26390459993854,None,,,,,,,,,,,,,,,,,,,,,,,,,0.058333334,-0.117592596,1,0,0,0.31365075008943677,None,122.26375299994834,None,1.733024681607882,1.364326999988407,128.57236390002072,None,ScrollUp,정답입니다,128.57236390002072,None,128.57236390002072,None,128.57236390002072,None,128.57236390002072,None,129.63042300008237,None,129.63042300008237,130.130486600101,,,,,,,,,,,,,,,,008,2022-05-09_15h53.39.424,FishGame,2022.1.1,59.97609350070195,
,2,넌 기품있어,2,Orange,B,5.791666666666668,4.5,ScrollUp,ScrollDown,Orange.png,1,Positive,Incongruent,,,,,0,0,0,0,,,,,,,,,,,,,0,1,1,1,,,,,,,,,,,,,,,,,,,,,,,,,,,,,,,,,,,,,,,,,,,,,,,,,,,,,,,,,,,,,,,,,,,,,,,,,,,,,,,,,1.765432099501292,1.3461698999162763,130.7609854999464,None,ScrollUp,정답입니다,130.7609854999464,None,130.7609854999464,None,130.7609854999464,None,130.7609854999464,None,131.99704580008984,None,131.99704580008984,132.49715470010415,,,,,,,,,,,,,,,,008,2022-05-09_15h53.39.424,FishGame,2022.1.1,59.97609350070195,
,3,나를 보내줘,6,Green,A,0,0,ScrollUp,ScrollDown,Green.png,1,NonTarget,NonTarget,,,,,0,0,0,0,,,,,,,,,,,,,0,2,2,2,,,,,,,,,,,,,,,,,,,,,,,,,,,,,,,,,,,,,,,,,,,,,,,,,,,,,,,,,,,,,,,,,,,,,,,,,,,,,,,,,1.837962955236435,1.6585335999261588,133.12975650001317,None,ScrollUp,정답입니다,133.12975650001317,None,133.12975650001317,None,133.12975650001317,None,133.12975650001317,None,134.68042159988545,None,134.68042159988545,135.1832957000006,,,,,,,,,,,,,,,,008,2022-05-09_15h53.39.424,FishGame,2022.1.1,59.97609350070195,
,4,넌 수동적이야,4,Green,A,2.833333333333333,2.933333333333333,ScrollDown,ScrollUp,Green.png,1,Negative,Incongruent,,,,,0,0,0,0,,,,,,,,,,,,,0,3,3,3,,,,,,,,,,,,,,,,,,,,,,,,,,,,,,,,,,,,,,,,,,,,,,,,,,,,,,,,,,,,,,,,,,,,,,,,,,,,,,,,,1,1.3461937999818474,135.81102550006472,None,ScrollDown,정답입니다,135.81102550006472,None,135.81102550006472,None,135.81102550006472,None,135.81102550006472,None,137.0470181000419,None,137.0470181000419,137.54673049994744,,,,,,,,,,,,,,,,008,2022-05-09_15h53.39.424,FishGame,2022.1.1,59.97609350070195,
,5,넌 사심이 없어,3,Orange,B,4.916666666666666,4.333333333333333,ScrollUp,ScrollDown,Orange.png,1,Neutral,Neutral,,,,,0,0,0,0,,,,,,,,,,,,,0,4,4,4,,,,,,,,,,,,,,,,,,,,,,,,,,,,,,,,,,,,,,,,,,,,,,,,,,,,,,,,,,,,,,,,,,,,,,,,,,,,,,,,,1.7546296268701553,1.7945788002107292,138.17239649989642,None,ScrollUp,정답입니다,138.17239649989642,None,138.17239649989642,None,138.17239649989642,None,138.17239649989642,None,139.86334810010158,None,139.86334810010158,140.3665139998775,,,,,,,,,,,,,,,,008,2022-05-09_15h53.39.424,FishGame,2022.1.1,59.97609350070195,
,6,넌 헤퍼,5,Green,A,2.458333333333334,2.233333333333333,ScrollDown,ScrollUp,Green.png,1,Negative,Incongruent,,,,,0,0,0,0,,,,,,,,,,,,,0,5,5,5,,,,,,,,,,,,,,,,,,,,,,,,,,,,,,,,,,,,,,,,,,,,,,,,,,,,,,,,,,,,,,,,,,,,,,,,,,,,,,,,,1,1.3420147998258471,140.99305330007337,None,ScrollDown,정답입니다,140.99305330007337,None,140.99305330007337,None,140.99305330007337,None,140.99305330007337,None,142.23025029990822,None,142.23025029990822,142.73320379992947,,,,,,,,,,,,,,,,008,2022-05-09_15h53.39.424,FishGame,2022.1.1,59.97609350070195,
,7,넌 말쑥해,3,Green,A,4.833333333333334,4.333333333333333,ScrollDown,ScrollUp,Green.png,1,Neutral,Neutral,,,,,0,0,0,0,,,,,,,,,,,,,0,6,6,6,,,,,,,,,,,,,,,,,,,,,,,,,,,,,,,,,,,,,,,,,,,,,,,,,,,,,,,,,,,,,,,,,,,,,,,,,,,,,,,,,1.0216049253940582,1.2918781999032944,143.36288630007766,None,ScrollDown,정답입니다,143.36288630007766,None,143.36288630007766,None,143.36288630007766,None,143.36288630007766,None,144.54650869988836,None,144.54650869988836,145.0465951000806,,,,,,,,,,,,,,,,008,2022-05-09_15h53.39.424,FishGame,2022.1.1,59.97609350070195,
,8,넌 투덜거려,5,Orange,B,2.541666666666667,2.266666666666667,ScrollUp,ScrollDown,Orange.png,1,Negative,Congruent,,,,,0,0,0,0,,,,,,,,,,,,,0,7,7,7,,,,,,,,,,,,,,,,,,,,,,,,,,,,,,,,,,,,,,,,,,,,,,,,,,,,,,,,,,,,,,,,,,,,,,,,,,,,,,,,,1.743827154239019,1.4962915999349207,145.6752092000097,None,ScrollUp,정답입니다,145.6752092000097,None,145.6752092000097,None,145.6752092000097,None,145.6752092000097,None,147.06348229991272,None,147.06348229991272,147.5635305000469,,,,,,,,,,,,,,,,008,2022-05-09_15h53.39.424,FishGame,2022.1.1,59.97609350070195,
,9,넌 적극적이야,1,Green,A,5.708333333333333,5.533333333333333,ScrollDown,ScrollUp,Green.png,1,Positive,Congruent,,,,,0,0,0,0,,,,,,,,,,,,,0,8,8,8,,,,,,,,,,,,,,,,,,,,,,,,,,,,,,,,,,,,,,,,,,,,,,,,,,,,,,,,,,,,,,,,,,,,,,,,,,,,,,,,,1,1.3613028000108898,148.1936027999036,None,ScrollDown,정답입니다,148.1936027999036,None,148.1936027999036,None,148.1936027999036,None,148.1936027999036,None,149.44674240006134,None,149.44674240006134,149.94673250010237,,,,,,,,,,,,,,,,008,2022-05-09_15h53.39.424,FishGame,2022.1.1,59.97609350070195,
,10,넌 재미없어,4,Orange,B,2.625,2.966666666666667,ScrollUp,ScrollDown,Orange.png,1,Negative,Congruent,,,,,0,0,0,0,,,,,,,,,,,,,0,9,9,9,,,,,,,,,,,,,,,,,,,,,,,,,,,,,,,,,,,,,,,,,,,,,,,,,,,,,,,,,,,,,,,,,,,,,,,,,,,,,,,,,1.6574074104428291,1.2266844999976456,150.5798577000387,None,ScrollUp,정답입니다,150.5798577000387,None,150.5798577000387,None,150.5798577000387,None,150.5798577000387,None,151.69669239991345,None,151.69669239991345,152.20419079996645,,,,,,,,,,,,,,,,008,2022-05-09_15h53.39.424,FishGame,2022.1.1,59.97609350070195,
,11,넌 명석해,2,Green,A,5.875,4.033333333333333,ScrollDown,ScrollUp,Green.png,1,Positive,Congruent,,,,,0,0,0,0,,,,,,,,,,,,,0,10,10,10,,,,,,,,,,,,,,,,,,,,,,,,,,,,,,,,,,,,,,,,,,,,,,,,,,,,,,,,,,,,,,,,,,,,,,,,,,,,,,,,,1.1481481442848842,1.079735399922356,152.82034279988147,None,ScrollDown,정답입니다,152.82034279988147,None,152.82034279988147,None,152.82034279988147,None,152.82034279988147,None,153.79632640001364,None,153.79632640001364,154.2964772998821,,,,,,,,,,,,,,,,008,2022-05-09_15h53.39.424,FishGame,2022.1.1,59.97609350070195,
,12,나를 데려가줘,6,Orange,B,0,0,ScrollDown,ScrollUp,Orange.png,1,NonTarget,NonTarget,,,,,0,0,0,0,,,,,,,,,,,,,0,11,11,11,,,,,,,,,,,,,,,,,,,,,,,,,,,,,,,,,,,,,,,,,,,,,,,,,,,,,,,,,,,,,,,,,,,,,,,,,,,,,,,,,1.0385802288850148,1.1421372001059353,154.93171959999017,None,ScrollDown,정답입니다,154.93171959999017,None,154.93171959999017,None,154.93171959999017,None,154.93171959999017,None,155.96613060007803,None,155.96613060007803,156.4661453999579,,,,,,,,,,,,,,,,008,2022-05-09_15h53.39.424,FishGame,2022.1.1,59.97609350070195,
,13,넌 소심해,4,Green,A,3,3.1,ScrollDown,ScrollUp,Green.png,1,Negative,Incongruent,,,,,0,0,0,0,,,,,,,,,,,,,0,12,12,12,,,,,,,,,,,,,,,,,,,,,,,,,,,,,,,,,,,,,,,,,,,,,,,,,,,,,,,,,,,,,,,,,,,,,,,,,,,,,,,,,1,1.1442021001130342,157.08604929991998,None,ScrollDown,정답입니다,157.08604929991998,None,157.08604929991998,None,157.08604929991998,None,157.08604929991998,None,158.12953840009868,None,158.12953840009868,158.62963119987398,,,,,,,,,,,,,,,,008,2022-05-09_15h53.39.424,FishGame,2022.1.1,59.97609350070195,
,14,넌 합리적이야,2,Green,A,5.583333333333333,4.733333333333333,ScrollDown,ScrollUp,Green.png,1,Positive,Congruent,,,,,0,0,0,0,,,,,,,,,,,,,0,13,13,13,,,,,,,,,,,,,,,,,,,,,,,,,,,,,,,,,,,,,,,,,,,,,,,,,,,,,,,,,,,,,,,,,,,,,,,,,,,,,,,,,1,1.0630881001707166,159.2550049999263,None,ScrollDown,정답입니다,159.2550049999263,None,159.2550049999263,None,159.2550049999263,None,159.2550049999263,None,160.21290399995632,None,160.21290399995632,160.71621340001002,,,,,,,,,,,,,,,,008,2022-05-09_15h53.39.424,FishGame,2022.1.1,59.97609350070195,
,15,넌 무자비해,5,Orange,B,2.333333333333333,2.1,ScrollUp,ScrollDown,Orange.png,1,Negative,Congruent,,,,,0,0,0,0,,,,,,,,,,,,,0,14,14,14,,,,,,,,,,,,,,,,,,,,,,,,,,,,,,,,,,,,,,,,,,,,,,,,,,,,,,,,,,,,,,,,,,,,,,,,,,,,,,,,,1.8425925970077515,1.4116419001948088,161.34400440007448,None,ScrollUp,정답입니다,161.34400440007448,None,161.34400440007448,None,161.34400440007448,None,161.34400440007448,None,162.64648070000112,None,162.64648070000112,163.14941899990663,,,,,,,,,,,,,,,,008,2022-05-09_15h53.39.424,FishGame,2022.1.1,59.97609350070195,
,16,나를 보내줘,6,Green,A,0,0,ScrollUp,ScrollDown,Green.png,1,NonTarget,NonTarget,,,,,0,0,0,0,,,,,,,,,,,,,0,15,15,15,,,,,,,,,,,,,,,,,,,,,,,,,,,,,,,,,,,,,,,,,,,,,,,,,,,,,,,,,,,,,,,,,,,,,,,,,,,,,,,,,1.7762345721324284,1.5435161001514643,163.770791699877,None,ScrollUp,정답입니다,163.770791699877,None,163.770791699877,None,163.770791699877,None,163.770791699877,None,165.21299159992486,None,165.21299159992486,165.7130483998917,,,,,,,,,,,,,,,,008,2022-05-09_15h53.39.424,FishGame,2022.1.1,59.97609350070195,
,17,넌 현실적이야,3,Orange,B,4.608695652173913,4.766666666666667,ScrollUp,ScrollDown,Orange.png,1,Neutral,Neutral,,,,,0,0,0,0,,,,,,,,,,,,,0,16,16,16,,,,,,,,,,,,,,,,,,,,,,,,,,,,,,,,,,,,,,,,,,,,,,,,,,,,,,,,,,,,,,,,,,,,,,,,,,,,,,,,,1.8333333383003871,1.3295328000094742,166.34817470004782,None,ScrollUp,정답입니다,166.34817470004782,None,166.34817470004782,None,166.34817470004782,None,166.34817470004782,None,167.5629749998916,None,167.5629749998916,168.06294539989904,,,,,,,,,,,,,,,,008,2022-05-09_15h53.39.424,FishGame,2022.1.1,59.97609350070195,
,18,넌 의리있어,1,Orange,B,5.833333333333334,5.633333333333334,ScrollUp,ScrollDown,Orange.png,1,Positive,Incongruent,,,,,0,0,0,0,,,,,,,,,,,,,0,17,17,17,,,,,,,,,,,,,,,,,,,,,,,,,,,,,,,,,,,,,,,,,,,,,,,,,,,,,,,,,,,,,,,,,,,,,,,,,,,,,,,,,1.6898148159186044,0.9994475999847054,168.6920227999799,None,ScrollUp,정답입니다,168.6920227999799,None,168.6920227999799,None,168.6920227999799,None,168.6920227999799,None,169.57963870000094,None,169.57963870000094,170.079674199922,,,,,,,,,,,,,,,,008,2022-05-09_15h53.39.424,FishGame,2022.1.1,59.97609350070195,
,19,넌 신경과민이야,5,Green,A,2.541666666666667,2.166666666666667,ScrollDown,ScrollUp,Green.png,1,Negative,Incongruent,,,,,0,0,0,0,,,,,,,,,,,,,0,18,18,18,,,,,,,,,,,,,,,,,,,,,,,,,,,,,,,,,,,,,,,,,,,,,,,,,,,,,,,,,,,,,,,,,,,,,,,,,,,,,,,,,1.0879629751046498,1.2496076999232173,170.7028407000471,None,ScrollDown,정답입니다,170.7028407000471,None,170.7028407000471,None,170.7028407000471,None,170.7028407000471,None,171.84599309996702,None,171.84599309996702,172.34601090010256,,,,,,,,,,,,,,,,008,2022-05-09_15h53.39.424,FishGame,2022.1.1,59.97609350070195,
,20,넌 편안해,1,Green,A,5.916666666666666,5.866666666666666,ScrollDown,ScrollUp,Green.png,1,Positive,Congruent,,,,,0,0,0,0,,,,,,,,,,,,,0,19,19,19,,,,,,,,,,,,,,,,,,,,,,,,,,,,,,,,,,,,,,,,,,,,,,,,,,,,,,,,,,,,,,,,,,,,,,,,,,,,,,,,,1.1188271542390187,1.1971273999661207,172.9703295000363,None,ScrollDown,정답입니다,172.9703295000363,None,172.9703295000363,None,172.9703295000363,None,172.9703295000363,None,174.06567470007576,None,174.06567470007576,174.58254239987582,,,,,,,,,,,,,,,,008,2022-05-09_15h53.39.424,FishGame,2022.1.1,59.97609350070195,
,21,넌 품위있어,2,Orange,B,5.291666666666666,4.466666666666667,ScrollUp,ScrollDown,Orange.png,1,Positive,Incongruent,,,,,0,0,0,0,,,,,,,,,,,,,0,20,20,20,,,,,,,,,,,,,,,,,,,,,,,,,,,,,,,,,,,,,,,,,,,,,,,,,,,,,,,,,,,,,,,,,,,,,,,,,,,,,,,,,1.71913580596447,1.1293610001448542,175.1899983000476,None,ScrollUp,정답입니다,175.1899983000476,None,175.1899983000476,None,175.1899983000476,None,175.1899983000476,None,176.2156718999613,None,176.2156718999613,176.71572269988246,,,,,,,,,,,,,,,,008,2022-05-09_15h53.39.424,FishGame,2022.1.1,59.97609350070195,
,22,넌 빈틈없어,3,Green,A,4.833333333333333,3.966666666666667,ScrollDown,ScrollUp,Green.png,1,Neutral,Neutral,,,,,0,0,0,0,,,,,,,,,,,,,0,21,21,21,,,,,,,,,,,,,,,,,,,,,,,,,,,,,,,,,,,,,,,,,,,,,,,,,,,,,,,,,,,,,,,,,,,,,,,,,,,,,,,,,1.0200617114702861,1.3057783001568168,177.36811929987743,None,ScrollDown,정답입니다,177.36811929987743,None,177.36811929987743,None,177.36811929987743,None,177.36811929987743,None,178.56245790002868,None,178.56245790002868,179.06252599996515,,,,,,,,,,,,,,,,008,2022-05-09_15h53.39.424,FishGame,2022.1.1,59.97609350070195,
,23,넌 상상력없어,4,Orange,B,2.833333333333333,3.133333333333333,ScrollUp,ScrollDown,Orange.png,1,Negative,Congruent,,,,,0,0,0,0,,,,,,,,,,,,,0,22,22,22,,,,,,,,,,,,,,,,,,,,,,,,,,,,,,,,,,,,,,,,,,,,,,,,,,,,,,,,,,,,,,,,,,,,,,,,,,,,,,,,,1.7824074029922485,1.246612000046298,179.69171899999492,None,ScrollUp,정답입니다,179.69171899999492,None,179.69171899999492,None,179.69171899999492,None,179.69171899999492,None,180.82944069989026,None,180.82944069989026,181.3294162999373,,,,,,,,,,,,,,,,008,2022-05-09_15h53.39.424,FishGame,2022.1.1,59.97609350070195,
,24,넌 지혜로워,2,Orange,B,6.333333333333334,4.633333333333334,ScrollUp,ScrollDown,Orange.png,1,Positive,Incongruent,,,,,0,0,0,0,,,,,,,,,,,,,0,23,23,23,,,,,,,,,,,,,,,,,,,,,,,,,,,,,,,,,,,,,,,,,,,,,,,,,,,,,,,,,,,,,,,,,,,,,,,,,,,,,,,,,1.8456790000200272,1.4947903000283986,181.96023550000973,None,ScrollUp,정답입니다,181.96023550000973,None,181.96023550000973,None,181.96023550000973,None,181.96023550000973,None,183.34886700008065,None,183.34886700008065,183.8701325999573,,,,,,,,,,,,,,,,008,2022-05-09_15h53.39.424,FishGame,2022.1.1,59.97609350070195,
,25,넌 시끄러워,4,Green,A,2.833333333333333,3.033333333333333,ScrollDown,ScrollUp,Green.png,1,Negative,Incongruent,,,,,0,0,0,0,,,,,,,,,,,,,0,24,24,24,,,,,,,,,,,,,,,,,,,,,,,,,,,,,,,,,,,,,,,,,,,,,,,,,,,,,,,,,,,,,,,,,,,,,,,,,,,,,,,,,1.1311728407939274,1.1965403999201953,184.48733679996803,None,ScrollDown,정답입니다,184.48733679996803,None,184.48733679996803,None,184.48733679996803,None,184.48733679996803,None,185.57897510007024,None,185.57897510007024,186.07906979997642,,,,,,,,,,,,,,,,008,2022-05-09_15h53.39.424,FishGame,2022.1.1,59.97609350070195,
,26,넌 만사태평이야,3,Orange,B,4,4.333333333333333,ScrollUp,ScrollDown,Orange.png,1,Neutral,Neutral,,,,,0,0,0,0,,,,,,,,,,,,,0,25,25,25,,,,,,,,,,,,,,,,,,,,,,,,,,,,,,,,,,,,,,,,,,,,,,,,,,,,,,,,,,,,,,,,,,,,,,,,,,,,,,,,,1.5740740758677325,1.1280781000386924,186.71013740007766,None,ScrollUp,정답입니다,186.71013740007766,None,186.71013740007766,None,186.71013740007766,None,186.71013740007766,None,187.72925799991935,None,187.72925799991935,188.2292643999681,,,,,,,,,,,,,,,,008,2022-05-09_15h53.39.424,FishGame,2022.1.1,59.97609350070195,
,27,넌 붙임성있어,1,Green,A,5.708333333333333,5.633333333333334,ScrollDown,ScrollUp,Green.png,1,Positive,Congruent,,,,,0,0,0,0,,,,,,,,,,,,,0,26,26,26,,,,,,,,,,,,,,,,,,,,,,,,,,,,,,,,,,,,,,,,,,,,,,,,,,,,,,,,,,,,,,,,,,,,,,,,,,,,,,,,,1.0493827263514202,1.1817930000834167,188.85468599991873,None,ScrollDown,정답입니다,188.85468599991873,None,188.85468599991873,None,188.85468599991873,None,188.85468599991873,None,189.93611739994958,None,189.93611739994958,190.44561180006713,,,,,,,,,,,,,,,,008,2022-05-09_15h53.39.424,FishGame,2022.1.1,59.97609350070195,
,28,넌 영리해,2,Green,A,6,4.033333333333333,ScrollDown,ScrollUp,Green.png,1,Positive,Congruent,,,,,0,0,0,0,,,,,,,,,,,,,0,27,27,27,,,,,,,,,,,,,,,,,,,,,,,,,,,,,,,,,,,,,,,,,,,,,,,,,,,,,,,,,,,,,,,,,,,,,,,,,,,,,,,,,1.0679012437661488,1.29670050018467,191.06810340005904,None,ScrollDown,정답입니다,191.06810340005904,None,191.06810340005904,None,191.06810340005904,None,191.06810340005904,None,192.26225790008903,None,192.26225790008903,192.7622895000968,,,,,,,,,,,,,,,,008,2022-05-09_15h53.39.424,FishGame,2022.1.1,59.97609350070195,
,29,넌 열심이야,1,Orange,B,6.041666666666667,5.833333333333333,ScrollUp,ScrollDown,Orange.png,1,Positive,Incongruent,,,,,0,0,0,0,,,,,,,,,,,,,0,28,28,28,,,,,,,,,,,,,,,,,,,,,,,,,,,,,,,,,,,,,,,,,,,,,,,,,,,,,,,,,,,,,,,,,,,,,,,,,,,,,,,,,1.766975313425064,1.265291600022465,193.3886120999232,None,ScrollUp,정답입니다,193.3886120999232,None,193.3886120999232,None,193.3886120999232,None,193.3886120999232,None,194.54871540004387,None,194.54871540004387,195.04856800008565,,,,,,,,,,,,,,,,008,2022-05-09_15h53.39.424,FishGame,2022.1.1,59.97609350070195,
,30,넌 인기없어,4,Orange,B,3,3.3,ScrollUp,ScrollDown,Orange.png,1,Negative,Congruent,,,,,0,0,0,0,,,,,,,,,,,,,0,29,29,29,,,,,,,,,,,,,,,,,,,,,,,,,,,,,,,,,,,,,,,,,,,,,,,,,,,,,,,,,,,,,,,,,,,,,,,,,,,,,,,,,1.7623456716537476,0.9784341999329627,195.67545929993503,None,ScrollUp,정답입니다,195.67545929993503,None,195.67545929993503,None,195.67545929993503,None,195.67545929993503,None,196.5456719000358,None,196.5456719000358,197.0456769000739,,,,,,,,,,,,,,,,008,2022-05-09_15h53.39.424,FishGame,2022.1.1,59.97609350070195,
,31,넌 익살스러워,3,Green,A,4.708333333333334,4.833333333333333,ScrollDown,ScrollUp,Green.png,1,Neutral,Neutral,,,,,0,0,0,0,,,,,,,,,,,,,0,30,30,30,,,,,,,,,,,,,,,,,,,,,,,,,,,,,,,,,,,,,,,,,,,,,,,,,,,,,,,,,,,,,,,,,,,,,,,,,,,,,,,,,1.0478395124276478,1.0795489998999983,197.673677300103,None,ScrollDown,정답입니다,197.673677300103,None,197.673677300103,None,197.673677300103,None,197.673677300103,None,198.64561229990795,None,198.64561229990795,199.1455218999181,,,,,,,,,,,,,,,,008,2022-05-09_15h53.39.424,FishGame,2022.1.1,59.97609350070195,
,32,넌 이기적이야,5,Orange,B,2.291666666666667,2.333333333333333,ScrollUp,ScrollDown,Orange.png,1,Negative,Congruent,,,,,0,0,0,0,,,,,,,,,,,,,0,31,31,31,,,,,,,,,,,,,,,,,,,,,,,,,,,,,,,,,,,,,,,,,,,,,,,,,,,,,,,,,,,,,,,,,,,,,,,,,,,,,,,,,1.805555562178294,1.1446384999435395,199.77055680006742,None,ScrollUp,정답입니다,199.77055680006742,None,199.77055680006742,None,199.77055680006742,None,199.77055680006742,None,200.81226389994845,None,200.81226389994845,201.31227470003068,,,,,,,,,,,,,,,,008,2022-05-09_15h53.39.424,FishGame,2022.1.1,59.97609350070195,
,33,나를 데려가줘,6,Orange,B,0,0,ScrollDown,ScrollUp,Orange.png,1,NonTarget,NonTarget,,,,,0,0,0,0,,,,,,,,,,,,,0,32,32,32,,,,,,,,,,,,,,,,,,,,,,,,,,,,,,,,,,,,,,,,,,,,,,,,,,,,,,,,,,,,,,,,,,,,,,,,,,,,,,,,,1.126543199022611,1.228722000028938,201.93632169999182,None,ScrollDown,정답입니다,201.93632169999182,None,201.93632169999182,None,201.93632169999182,None,201.93632169999182,None,203.06514590000734,None,203.06514590000734,203.5650720000267,,,,,,,,,,,,,,,,008,2022-05-09_15h53.39.424,FishGame,2022.1.1,59.97609350070195,
,34,넌 기회주의자야,5,Green,A,2.875,2.133333333333333,ScrollDown,ScrollUp,Green.png,1,Negative,Incongruent,,,,,0,0,0,0,,,,,,,,,,,,,0,33,33,33,,,,,,,,,,,,,,,,,,,,,,,,,,,,,,,,,,,,,,,,,,,,,,,,,,,,,,,,,,,,,,,,,,,,,,,,,,,,,,,,,1.0308642089366913,1.2770698999520391,204.18858449999243,None,ScrollDown,정답입니다,204.18858449999243,None,204.18858449999243,None,204.18858449999243,None,204.18858449999243,None,205.36187759996392,None,205.36187759996392,205.8619432998821,,,,,,,,,,,,,,,,008,2022-05-09_15h53.39.424,FishGame,2022.1.1,59.97609350070195,
,1,넌 미성숙해,4,Green,A,3,3.2,ScrollDown,ScrollUp,Green.png,2,Negative,Incongruent,,,,,0,0,0,0,,,,,,,,,,,,,,,,,0,0,0,0,,,,,,,,,,,,,,,,,,,,,,,,,,,,,,,,,,,,237.84452979988419,239.34783079987392,239.38125590002164,240.33551639993675,240.36841239989735,241.328101699939,241.328101699939,None,,,,,,,,,,,,,,,,,,,,,,,,,,,,,,,,,,1,1.473746299976483,242.4438815000467,None,ScrollDown,정답입니다,242.4438815000467,None,242.4438815000467,None,242.4438815000467,None,242.4438815000467,None,243.81103889993392,None,243.81103889993392,244.31108210003003,206.36198209994473,None,206.36198209994473,None,0.13611111,-0.125,1,0,0,0.015790849924087524,None,236.3612812999636,None,,,008,2022-05-09_15h53.39.424,FishGame,2022.1.1,59.97609350070195,
,2,넌 반사회적이야,5,Orange,B,2.416666666666667,2.033333333333333,ScrollUp,ScrollDown,Orange.png,2,Negative,Congruent,,,,,0,0,0,0,,,,,,,,,,,,,,,,,0,1,1,1,,,,,,,,,,,,,,,,,,,,,,,,,,,,,,,,,,,,,,,,,,,,,,,,,,,,,,,,,,,,,,,,,,,,,,,,,,,,,1.858024686574936,1.4616157999262214,244.9394914000295,None,ScrollUp,정답입니다,244.9394914000295,None,244.9394914000295,None,244.9394914000295,None,244.9394914000295,None,246.29466310003772,None,246.29466310003772,246.79765060008503,,,,,,,,,,,,,,,,008,2022-05-09_15h53.39.424,FishGame,2022.1.1,59.97609350070195,
,3,넌 유능해,2,Green,A,6.208333333333333,4.433333333333334,ScrollDown,ScrollUp,Green.png,2,Positive,Congruent,,,,,0,0,0,0,,,,,,,,,,,,,,,,,0,2,2,2,,,,,,,,,,,,,,,,,,,,,,,,,,,,,,,,,,,,,,,,,,,,,,,,,,,,,,,,,,,,,,,,,,,,,,,,,,,,,1.0339506367842357,1.1786601999774575,247.4235580000095,None,ScrollDown,정답입니다,247.4235580000095,None,247.4235580000095,None,247.4235580000095,None,247.4235580000095,None,248.49447480007075,None,248.49447480007075,248.99433999997564,,,,,,,,,,,,,,,,008,2022-05-09_15h53.39.424,FishGame,2022.1.1,59.97609350070195,
,4,넌 능숙해,2,Orange,B,5.666666666666667,4.733333333333333,ScrollUp,ScrollDown,Orange.png,2,Positive,Incongruent,,,,,0,0,0,0,,,,,,,,,,,,,,,,,0,3,3,3,,,,,,,,,,,,,,,,,,,,,,,,,,,,,,,,,,,,,,,,,,,,,,,,,,,,,,,,,,,,,,,,,,,,,,,,,,,,,1.8163580348094304,1.2631004001013935,249.61576159996912,None,ScrollUp,정답입니다,249.61576159996912,None,249.61576159996912,None,249.61576159996912,None,249.61576159996912,None,250.77766730007716,None,250.77766730007716,251.27767809992656,,,,,,,,,,,,,,,,008,2022-05-09_15h53.39.424,FishGame,2022.1.1,59.97609350070195,
,5,넌 진부해,4,Orange,B,2.458333333333333,3.166666666666667,ScrollUp,ScrollDown,Orange.png,2,Negative,Congruent,,,,,0,0,0,0,,,,,,,,,,,,,,,,,0,4,4,4,,,,,,,,,,,,,,,,,,,,,,,,,,,,,,,,,,,,,,,,,,,,,,,,,,,,,,,,,,,,,,,,,,,,,,,,,,,,,1.8148148208856583,1.0130968999583274,251.90776830003597,None,ScrollUp,정답입니다,251.90776830003597,None,251.90776830003597,None,251.90776830003597,None,251.90776830003597,None,252.81117959995754,None,252.81117959995754,253.311221400043,,,,,,,,,,,,,,,,008,2022-05-09_15h53.39.424,FishGame,2022.1.1,59.97609350070195,
,6,나를 보내줘,6,Green,A,0,0,ScrollUp,ScrollDown,Green.png,2,NonTarget,NonTarget,,,,,0,0,0,0,,,,,,,,,,,,,,,,,0,5,5,5,,,,,,,,,,,,,,,,,,,,,,,,,,,,,,,,,,,,,,,,,,,,,,,,,,,,,,,,,,,,,,,,,,,,,,,,,,,,,1.8657407313585281,1.477699700044468,253.94503209996037,None,ScrollUp,정답입니다,253.94503209996037,None,253.94503209996037,None,253.94503209996037,None,253.94503209996037,None,255.31079120002687,None,255.31079120002687,255.8108647998888,,,,,,,,,,,,,,,,008,2022-05-09_15h53.39.424,FishGame,2022.1.1,59.97609350070195,
,7,넌 엄격해,3,Green,A,4.166666666666666,4.1,ScrollDown,ScrollUp,Green.png,2,Neutral,Neutral,,,,,0,0,0,0,,,,,,,,,,,,,,,,,0,6,6,6,,,,,,,,,,,,,,,,,,,,,,,,,,,,,,,,,,,,,,,,,,,,,,,,,,,,,,,,,,,,,,,,,,,,,,,,,,,,,1.1296296268701553,1.1300065000541508,256.4372391998768,None,ScrollDown,정답입니다,256.4372391998768,None,256.4372391998768,None,256.4372391998768,None,256.4372391998768,None,257.4611011000816,None,257.4611011000816,257.96399910002947,,,,,,,,,,,,,,,,008,2022-05-09_15h53.39.424,FishGame,2022.1.1,59.97609350070195,
,8,나를 보내줘,6,Green,A,0,0,ScrollUp,ScrollDown,Green.png,2,NonTarget,NonTarget,,,,,0,0,0,0,,,,,,,,,,,,,,,,,0,7,7,7,,,,,,,,,,,,,,,,,,,,,,,,,,,,,,,,,,,,,,,,,,,,,,,,,,,,,,,,,,,,,,,,,,,,,,,,,,,,,1.6759259278575578,1.161810199962929,258.58784290007316,None,ScrollUp,정답입니다,258.58784290007316,None,258.58784290007316,None,258.58784290007316,None,258.58784290007316,None,259.6443709000014,None,259.6443709000014,260.1472889999859,,,,,,,,,,,,,,,,008,2022-05-09_15h53.39.424,FishGame,2022.1.1,59.97609350070195,
,9,넌 대담해,3,Orange,B,4.875,4.866666666666666,ScrollUp,ScrollDown,Orange.png,2,Neutral,Neutral,,,,,0,0,0,0,,,,,,,,,,,,,,,,,0,8,8,8,,,,,,,,,,,,,,,,,,,,,,,,,,,,,,,,,,,,,,,,,,,,,,,,,,,,,,,,,,,,,,,,,,,,,,,,,,,,,1.6265432064731917,1.173926099902019,260.77756180008873,None,ScrollUp,정답입니다,260.77756180008873,None,260.77756180008873,None,260.77756180008873,None,260.77756180008873,None,261.84398070001043,None,261.84398070001043,262.3440499000717,,,,,,,,,,,,,,,,008,2022-05-09_15h53.39.424,FishGame,2022.1.1,59.97609350070195,
,10,넌 꾸준해,1,Green,A,5.916666666666668,5.8,ScrollDown,ScrollUp,Green.png,2,Positive,Congruent,,,,,0,0,0,0,,,,,,,,,,,,,,,,,0,9,9,9,,,,,,,,,,,,,,,,,,,,,,,,,,,,,,,,,,,,,,,,,,,,,,,,,,,,,,,,,,,,,,,,,,,,,,,,,,,,,1.0555555323759716,0.9966512001119554,262.96890609990805,None,ScrollDown,정답입니다,262.96890609990805,None,262.96890609990805,None,262.96890609990805,None,262.96890609990805,None,263.86096059996635,None,263.86096059996635,264.3639420000836,,,,,,,,,,,,,,,,008,2022-05-09_15h53.39.424,FishGame,2022.1.1,59.97609350070195,
,11,나를 데려가줘,6,Orange,B,0,0,ScrollDown,ScrollUp,Orange.png,2,NonTarget,NonTarget,,,,,0,0,0,0,,,,,,,,,,,,,,,,,0,10,10,10,,,,,,,,,,,,,,,,,,,,,,,,,,,,,,,,,,,,,,,,,,,,,,,,,,,,,,,,,,,,,,,,,,,,,,,,,,,,,1.0725308855374653,1.2271712000947446,264.9949932999443,None,ScrollDown,정답입니다,264.9949932999443,None,264.9949932999443,None,264.9949932999443,None,264.9949932999443,None,266.1108949999325,None,266.1108949999325,266.61380659998395,,,,,,,,,,,,,,,,008,2022-05-09_15h53.39.424,FishGame,2022.1.1,59.97609350070195,
,12,넌 독선적이야,5,Green,A,2.458333333333333,1.933333333333333,ScrollDown,ScrollUp,Green.png,2,Negative,Incongruent,,,,,0,0,0,0,,,,,,,,,,,,,,,,,0,11,11,11,,,,,,,,,,,,,,,,,,,,,,,,,,,,,,,,,,,,,,,,,,,,,,,,,,,,,,,,,,,,,,,,,,,,,,,,,,,,,1.0293209950129192,1.1462377000134438,267.2379191000946,None,ScrollDown,정답입니다,267.2379191000946,None,267.2379191000946,None,267.2379191000946,None,267.2379191000946,None,268.2771741999313,None,268.2771741999313,268.77730399998836,,,,,,,,,,,,,,,,008,2022-05-09_15h53.39.424,FishGame,2022.1.1,59.97609350070195,
,13,나를 보내줘,6,Green,A,0,0,ScrollUp,ScrollDown,Green.png,2,NonTarget,NonTarget,,,,,0,0,0,0,,,,,,,,,,,,,,,,,0,12,12,12,,,,,,,,,,,,,,,,,,,,,,,,,,,,,,,,,,,,,,,,,,,,,,,,,,,,,,,,,,,,,,,,,,,,,,,,,,,,,1.7546296268701553,1.3164339999202639,269.39862439990975,None,ScrollUp,정답입니다,269.39862439990975,None,269.39862439990975,None,269.39862439990975,None,269.39862439990975,None,270.6108073000796,None,270.6108073000796,271.1107987998985,,,,,,,,,,,,,,,,008,2022-05-09_15h53.39.424,FishGame,2022.1.1,59.97609350070195,
,14,넌 책임감있어,1,Orange,B,6.347826086956522,6,ScrollUp,ScrollDown,Orange.png,2,Positive,Incongruent,,,,,0,0,0,0,,,,,,,,,,,,,,,,,0,13,13,13,,,,,,,,,,,,,,,,,,,,,,,,,,,,,,,,,,,,,,,,,,,,,,,,,,,,,,,,,,,,,,,,,,,,,,,,,,,,,1.6913580298423767,1.1192379998974502,271.7419123998843,None,ScrollUp,정답입니다,271.7419123998843,None,271.7419123998843,None,271.7419123998843,None,271.7419123998843,None,272.7566466999706,None,272.7566466999706,273.2604793999344,,,,,,,,,,,,,,,,008,2022-05-09_15h53.39.424,FishGame,2022.1.1,59.97609350070195,
,15,넌 문학적이야,3,Green,A,4.708333333333334,4.333333333333333,ScrollDown,ScrollUp,Green.png,2,Neutral,Neutral,,,,,0,0,0,0,,,,,,,,,,,,,,,,,0,14,14,14,,,,,,,,,,,,,,,,,,,,,,,,,,,,,,,,,,,,,,,,,,,,,,,,,,,,,,,,,,,,,,,,,,,,,,,,,,,,,1.0617283880710602,0.9617392998188734,273.88737630005926,None,ScrollDown,정답입니다,273.88737630005926,None,273.88737630005926,None,273.88737630005926,None,273.88737630005926,None,274.7437243000604,None,274.7437243000604,275.24382540001534,,,,,,,,,,,,,,,,008,2022-05-09_15h53.39.424,FishGame,2022.1.1,59.97609350070195,
,16,넌 재미있어,1,Orange,B,5.875,5.7,ScrollUp,ScrollDown,Orange.png,2,Positive,Incongruent,,,,,0,0,0,0,,,,,,,,,,,,,,,,,0,15,15,15,,,,,,,,,,,,,,,,,,,,,,,,,,,,,,,,,,,,,,,,,,,,,,,,,,,,,,,,,,,,,,,,,,,,,,,,,,,,,1.5679012325902781,0.8619557998608798,275.86793250008486,None,ScrollUp,정답입니다,275.86793250008486,None,275.86793250008486,None,275.86793250008486,None,275.86793250008486,None,276.6273201000877,None,276.6273201000877,277.13032140000723,,,,,,,,,,,,,,,,008,2022-05-09_15h53.39.424,FishGame,2022.1.1,59.97609350070195,
,17,나를 데려가줘,6,Orange,B,0,0,ScrollDown,ScrollUp,Orange.png,2,NonTarget,NonTarget,,,,,0,0,0,0,,,,,,,,,,,,,,,,,0,16,16,16,,,,,,,,,,,,,,,,,,,,,,,,,,,,,,,,,,,,,,,,,,,,,,,,,,,,,,,,,,,,,,,,,,,,,,,,,,,,,1.115740751226743,1.0610556998290122,277.75370169989765,None,ScrollDown,정답입니다,277.75370169989765,None,277.75370169989765,None,277.75370169989765,None,277.75370169989765,None,278.71766519988887,None,278.71766519988887,279.227016299963,,,,,,,,,,,,,,,,008,2022-05-09_15h53.39.424,FishGame,2022.1.1,59.97609350070195,
,18,넌 협력적이야,1,Green,A,5.625,5.633333333333334,ScrollDown,ScrollUp,Green.png,2,Positive,Congruent,,,,,0,0,0,0,,,,,,,,,,,,,,,,,0,17,17,17,,,,,,,,,,,,,,,,,,,,,,,,,,,,,,,,,,,,,,,,,,,,,,,,,,,,,,,,,,,,,,,,,,,,,,,,,,,,,1.1759259204069774,1.1616668000351638,279.85115169989876,None,ScrollDown,정답입니다,279.85115169989876,None,279.85115169989876,None,279.85115169989876,None,279.85115169989876,None,280.9102904999163,None,280.9102904999163,281.41036000009626,,,,,,,,,,,,,,,,008,2022-05-09_15h53.39.424,FishGame,2022.1.1,59.97609350070195,
,19,넌 평범해,3,Orange,B,4.333333333333332,4.233333333333333,ScrollUp,ScrollDown,Orange.png,2,Neutral,Neutral,,,,,0,0,0,0,,,,,,,,,,,,,,,,,0,18,18,18,,,,,,,,,,,,,,,,,,,,,,,,,,,,,,,,,,,,,,,,,,,,,,,,,,,,,,,,,,,,,,,,,,,,,,,,,,,,,1.5987654303510985,1.3100986999925226,282.03636700008065,None,ScrollUp,정답입니다,282.03636700008065,None,282.03636700008065,None,282.03636700008065,None,282.03636700008065,None,283.2438711000141,None,283.2438711000141,283.7468769000843,,,,,,,,,,,,,,,,008,2022-05-09_15h53.39.424,FishGame,2022.1.1,59.97609350070195,
,20,넌 오만해,5,Green,A,2.333333333333333,2,ScrollDown,ScrollUp,Green.png,2,Negative,Incongruent,,,,,0,0,0,0,,,,,,,,,,,,,,,,,0,19,19,19,,,,,,,,,,,,,,,,,,,,,,,,,,,,,,,,,,,,,,,,,,,,,,,,,,,,,,,,,,,,,,,,,,,,,,,,,,,,,1.1836419651905696,1.1751727999653667,284.37097919988446,None,ScrollDown,정답입니다,284.37097919988446,None,284.37097919988446,None,284.37097919988446,None,284.37097919988446,None,285.44370110007003,None,285.44370110007003,285.94377040001564,,,,,,,,,,,,,,,,008,2022-05-09_15h53.39.424,FishGame,2022.1.1,59.97609350070195,
,21,넌 운이없어,4,Orange,B,3,3.466666666666667,ScrollUp,ScrollDown,Orange.png,2,Negative,Congruent,,,,,0,0,0,0,,,,,,,,,,,,,,,,,0,20,20,20,,,,,,,,,,,,,,,,,,,,,,,,,,,,,,,,,,,,,,,,,,,,,,,,,,,,,,,,,,,,,,,,,,,,,,,,,,,,,1.5478395074605942,1.1976275001652539,286.5774071998894,None,NoResponse,무응답입니다,286.5774071998894,None,286.5774071998894,None,286.5774071998894,None,286.5774071998894,None,287.66040159994736,None,287.66040159994736,288.16043090005405,,,,,,,,,,,,,,,,008,2022-05-09_15h53.39.424,FishGame,2022.1.1,59.97609350070195,
,22,넌 창조적이야,2,Orange,B,6.125,4.633333333333334,ScrollUp,ScrollDown,Orange.png,2,Positive,Incongruent,,,,,0,0,0,0,,,,,,,,,,,,,,,,,0,21,21,21,,,,,,,,,,,,,,,,,,,,,,,,,,,,,,,,,,,,,,,,,,,,,,,,,,,,,,,,,,,,,,,,,,,,,,,,,,,,,1.6728395000100136,1.5594560999888927,288.7885270998813,None,ScrollUp,정답입니다,288.7885270998813,None,288.7885270998813,None,288.7885270998813,None,288.7885270998813,None,290.2437082999386,None,290.2437082999386,290.74644879996777,,,,,,,,,,,,,,,,008,2022-05-09_15h53.39.424,FishGame,2022.1.1,59.97609350070195,
,23,나를 보내줘,6,Green,A,0,0,ScrollUp,ScrollDown,Green.png,2,NonTarget,NonTarget,,,,,0,0,0,0,,,,,,,,,,,,,,,,,0,22,22,22,,,,,,,,,,,,,,,,,,,,,,,,,,,,,,,,,,,,,,,,,,,,,,,,,,,,,,,,,,,,,,,,,,,,,,,,,,,,,1.7268518507480621,1.5607256998773664,291.3641766998917,None,ScrollUp,정답입니다,291.3641766998917,None,291.3641766998917,None,291.3641766998917,None,291.3641766998917,None,292.8269581000786,None,292.8269581000786,293.32699709990993,,,,,,,,,,,,,,,,008,2022-05-09_15h53.39.424,FishGame,2022.1.1,59.97609350070195,
,24,넌 통찰력있어,2,Green,A,6.5,4.8,ScrollDown,ScrollUp,Green.png,2,Positive,Congruent,,,,,0,0,0,0,,,,,,,,,,,,,,,,,0,23,23,23,,,,,,,,,,,,,,,,,,,,,,,,,,,,,,,,,,,,,,,,,,,,,,,,,,,,,,,,,,,,,,,,,,,,,,,,,,,,,1,1.364225400146097,293.9575115998741,None,ScrollDown,정답입니다,293.9575115998741,None,293.9575115998741,None,293.9575115998741,None,293.9575115998741,None,295.2099194000475,None,295.2099194000475,295.7099860999733,,,,,,,,,,,,,,,,008,2022-05-09_15h53.39.424,FishGame,2022.1.1,59.97609350070195,
,25,넌 경솔해,5,Orange,B,2.458333333333333,2.266666666666667,ScrollUp,ScrollDown,Orange.png,2,Negative,Congruent,,,,,0,0,0,0,,,,,,,,,,,,,,,,,0,24,24,24,,,,,,,,,,,,,,,,,,,,,,,,,,,,,,,,,,,,,,,,,,,,,,,,,,,,,,,,,,,,,,,,,,,,,,,,,,,,,1.6111111169060073,1.1297942998353392,296.3402658998966,None,ScrollUp,정답입니다,296.3402658998966,None,296.3402658998966,None,296.3402658998966,None,296.3402658998966,None,297.3602310998831,None,297.3602310998831,297.8602132999804,,,,,,,,,,,,,,,,008,2022-05-09_15h53.39.424,FishGame,2022.1.1,59.97609350070195,
,26,넌 초조해,4,Green,A,2.916666666666667,3.133333333333333,ScrollDown,ScrollUp,Green.png,2,Negative,Incongruent,,,,,0,0,0,0,,,,,,,,,,,,,,,,,0,25,25,25,,,,,,,,,,,,,,,,,,,,,,,,,,,,,,,,,,,,,,,,,,,,,,,,,,,,,,,,,,,,,,,,,,,,,,,,,,,,,1,1.1601444999687374,298.48623869987205,None,ScrollDown,정답입니다,298.48623869987205,None,298.48623869987205,None,298.48623869987205,None,298.48623869987205,None,299.5435031999368,None,299.5435031999368,300.04648860008456,,,,,,,,,,,,,,,,008,2022-05-09_15h53.39.424,FishGame,2022.1.1,59.97609350070195,
,27,넌 무관심해,4,Orange,B,2.833333333333333,2.9,ScrollUp,ScrollDown,Orange.png,2,Negative,Congruent,,,,,0,0,0,0,,,,,,,,,,,,,,,,,0,26,26,26,,,,,,,,,,,,,,,,,,,,,,,,,,,,,,,,,,,,,,,,,,,,,,,,,,,,,,,,,,,,,,,,,,,,,,,,,,,,,1.9151234527428944,1.3254643001127988,300.6767273999285,None,ScrollUp,정답입니다,300.6767273999285,None,300.6767273999285,None,300.6767273999285,None,300.6767273999285,None,301.8930790000595,None,301.8930790000595,302.3931762999855,,,,,,,,,,,,,,,,008,2022-05-09_15h53.39.424,FishGame,2022.1.1,59.97609350070195,
,28,넌 감성적이야,3,Orange,B,4.125,4.166666666666667,ScrollUp,ScrollDown,Orange.png,2,Neutral,Neutral,,,,,0,0,0,0,,,,,,,,,,,,,,,,,0,27,27,27,,,,,,,,,,,,,,,,,,,,,,,,,,,,,,,,,,,,,,,,,,,,,,,,,,,,,,,,,,,,,,,,,,,,,,,,,,,,,1.8148148208856583,1.1644159001298249,303.0178308999166,None,ScrollUp,정답입니다,303.0178308999166,None,303.0178308999166,None,303.0178308999166,None,303.0178308999166,None,304.0795120000839,None,304.0795120000839,304.59338369988836,,,,,,,,,,,,,,,,008,2022-05-09_15h53.39.424,FishGame,2022.1.1,59.97609350070195,
,29,넌 배려심있어,1,Green,A,6.083333333333333,5.5,ScrollDown,ScrollUp,Green.png,2,Positive,Congruent,,,,,0,0,0,0,,,,,,,,,,,,,,,,,0,28,28,28,,,,,,,,,,,,,,,,,,,,,,,,,,,,,,,,,,,,,,,,,,,,,,,,,,,,,,,,,,,,,,,,,,,,,,,,,,,,,1,1.2144772000610828,305.20379759999923,None,ScrollDown,정답입니다,305.20379759999923,None,305.20379759999923,None,305.20379759999923,None,305.20379759999923,None,306.3128744000569,None,306.3128744000569,306.8129475999158,,,,,,,,,,,,,,,,008,2022-05-09_15h53.39.424,FishGame,2022.1.1,59.97609350070195,
,30,넌 숨김없어,3,Green,A,4.5,4.933333333333334,ScrollDown,ScrollUp,Green.png,2,Neutral,Neutral,,,,,0,0,0,0,,,,,,,,,,,,,,,,,0,29,29,29,,,,,,,,,,,,,,,,,,,,,,,,,,,,,,,,,,,,,,,,,,,,,,,,,,,,,,,,,,,,,,,,,,,,,,,,,,,,,1.0046296219031017,1.757457299856469,307.4377490999177,None,ScrollDown,정답입니다,307.4377490999177,None,307.4377490999177,None,307.4377490999177,None,307.4377490999177,None,309.09318419988267,None,309.09318419988267,309.59614829998463,,,,,,,,,,,,,,,,008,2022-05-09_15h53.39.424,FishGame,2022.1.1,59.97609350070195,
,31,넌 훌륭해,2,Orange,B,5.916666666666667,4.033333333333333,ScrollUp,ScrollDown,Orange.png,2,Positive,Incongruent,,,,,0,0,0,0,,,,,,,,,,,,,,,,,0,30,30,30,,,,,,,,,,,,,,,,,,,,,,,,,,,,,,,,,,,,,,,,,,,,,,,,,,,,,,,,,,,,,,,,,,,,,,,,,,,,,1.6851851865649223,1.3276313000824302,310.2275398999918,None,ScrollUp,정답입니다,310.2275398999918,None,310.2275398999918,None,310.2275398999918,None,310.2275398999918,None,311.44317530002445,None,311.44317530002445,311.94322780007496,,,,,,,,,,,,,,,,008,2022-05-09_15h53.39.424,FishGame,2022.1.1,59.97609350070195,
,32,넌 슬기로워,2,Green,A,6.166666666666667,4.1,ScrollDown,ScrollUp,Green.png,2,Positive,Congruent,,,,,0,0,0,0,,,,,,,,,,,,,,,,,0,31,31,31,,,,,,,,,,,,,,,,,,,,,,,,,,,,,,,,,,,,,,,,,,,,,,,,,,,,,,,,,,,,,,,,,,,,,,,,,,,,,1,1.1464257999323308,312.56905400007963,None,ScrollDown,정답입니다,312.56905400007963,None,312.56905400007963,None,312.56905400007963,None,312.56905400007963,None,313.61263410001993,None,313.61263410001993,314.1293275000062,,,,,,,,,,,,,,,,008,2022-05-09_15h53.39.424,FishGame,2022.1.1,59.97609350070195,
,33,넌 냉혹해,5,Green,A,2.583333333333333,2.1,ScrollDown,ScrollUp,Green.png,2,Negative,Incongruent,,,,,0,0,0,0,,,,,,,,,,,,,,,,,0,32,32,32,,,,,,,,,,,,,,,,,,,,,,,,,,,,,,,,,,,,,,,,,,,,,,,,,,,,,,,,,,,,,,,,,,,,,,,,,,,,,1.0478395124276478,1.1779364000540227,314.7351645999588,None,ScrollDown,정답입니다,314.7351645999588,None,314.7351645999588,None,314.7351645999588,None,314.7351645999588,None,315.8094752000179,None,315.8094752000179,316.30954500008374,,,,,,,,,,,,,,,,008,2022-05-09_15h53.39.424,FishGame,2022.1.1,59.97609350070195,
,34,나를 데려가줘,6,Orange,B,0,0,ScrollDown,ScrollUp,Orange.png,2,NonTarget,NonTarget,,,,,0,0,0,0,,,,,,,,,,,,,,,,,0,33,33,33,,,,,,,,,,,,,,,,,,,,,,,,,,,,,,,,,,,,,,,,,,,,,,,,,,,,,,,,,,,,,,,,,,,,,,,,,,,,,1,1.3131462999153882,316.93469549994916,None,ScrollDown,정답입니다,316.93469549994916,None,316.93469549994916,None,316.93469549994916,None,316.93469549994916,None,318.14604500005953,None,318.14604500005953,318.66255529993214,,,,,,,,,,,,,,,,008,2022-05-09_15h53.39.424,FishGame,2022.1.1,59.97609350070195,
,35,넌 편파적이야,5,Orange,B,2.125,2,ScrollUp,ScrollDown,Orange.png,2,Negative,Congruent,,,,,0,0,0,0,,,,,,,,,,,,,,,,,0,34,34,34,,,,,,,,,,,,,,,,,,,,,,,,,,,,,,,,,,,,,,,,,,,,,,,,,,,,,,,,,,,,,,,,,,,,,,,,,,,,,1.8472222139437993,2.043475499842316,319.26909819990396,None,ScrollUp,정답입니다,319.26909819990396,None,319.26909819990396,None,319.26909819990396,None,319.26909819990396,None,321.206422700081,None,321.206422700081,321.7094258000143,,,,,,,,,,,,,,,,008,2022-05-09_15h53.39.424,FishGame,2022.1.1,59.97609350070195,
,36,넌 슬퍼,4,Green,A,2.583333333333333,3.066666666666667,ScrollDown,ScrollUp,Green.png,2,Negative,Incongruent,,,,,0,0,0,0,,,,,,,,,,,,,,,,,0,35,35,35,,,,,,,,,,,,,,,,,,,,,,,,,,,,,,,,,,,,,,,,,,,,,,,,,,,,,,,,,,,,,,,,,,,,,,,,,,,,,1.0617283880710602,1.1777864000760019,322.3335355001036,None,ScrollDown,정답입니다,322.3335355001036,None,322.3335355001036,None,322.3335355001036,None,322.3335355001036,None,323.40936050005257,None,323.40936050005257,323.91252549993806,,,,,,,,,,,,,,,,008,2022-05-09_15h53.39.424,FishGame,2022.1.1,59.97609350070195,
,37,나를 데려가줘,6,Orange,B,0,0,ScrollDown,ScrollUp,Orange.png,2,NonTarget,NonTarget,,,,,0,0,0,0,,,,,,,,,,,,,,,,,0,36,36,36,,,,,,,,,,,,,,,,,,,,,,,,,,,,,,,,,,,,,,,,,,,,,,,,,,,,,,,,,,,,,,,,,,,,,,,,,,,,,1.0709876716136932,1.478485899977386,324.5368782998994,None,ScrollDown,정답입니다,324.5368782998994,None,324.5368782998994,None,324.5368782998994,None,324.5368782998994,None,325.9125647000037,None,325.9125647000037,326.42915489990264,,,,,,,,,,,,,,,,008,2022-05-09_15h53.39.424,FishGame,2022.1.1,59.97609350070195,
,38,넌 친절해,1,Orange,B,6.041666666666667,5.533333333333333,ScrollUp,ScrollDown,Orange.png,2,Positive,Incongruent,,,,,0,0,0,0,,,,,,,,,,,,,,,,,0,37,37,37,,,,,,,,,,,,,,,,,,,,,,,,,,,,,,,,,,,,,,,,,,,,,,,,,,,,,,,,,,,,,,,,,,,,,,,,,,,,,1.7592592686414719,1.3953009999822825,327.0554623999633,None,ScrollUp,정답입니다,327.0554623999633,None,327.0554623999633,None,327.0554623999633,None,327.0554623999633,None,328.3429211000912,None,328.3429211000912,328.84581970004365,,,,,,,,,,,,,,,,008,2022-05-09_15h53.39.424,FishGame,2022.1.1,59.97609350070195,
,1,넌 엉성해,4,Green,A,3,3.3,ScrollDown,ScrollUp,Green.png,3,Negative,Incongruent,,,,,0,0,0,0,,,,,,,,,,,,,,,,,,,,,0,0,0,0,,,,,,,,,,,,,,,,,,,,,,,,,,,,,,,,360.60854330006987,362.108608599985,362.1419460999314,363.0951674000826,363.1422097000759,364.09924159990624,364.0825604998972,None,,,,,,,,,,,,,,,,,,,,,,,,,,,,,,,,,,1,1.4485279000364244,365.19450640003197,None,ScrollDown,정답입니다,365.19450640003197,None,365.19450640003197,None,365.19450640003197,None,365.19450640003197,None,366.54198239999823,None,366.54198239999823,367.04198079998605,329.3457418999169,None,329.3457418999169,None,0.073148146,-0.20833333,1,0,0,0.016418749932199717,None,359.3585800998844,None,,,008,2022-05-09_15h53.39.424,FishGame,2022.1.1,59.97609350070195,
,2,나를 보내줘,6,Green,A,0,0,ScrollUp,ScrollDown,Green.png,3,NonTarget,NonTarget,,,,,0,0,0,0,,,,,,,,,,,,,,,,,,,,,0,1,1,1,,,,,,,,,,,,,,,,,,,,,,,,,,,,,,,,,,,,,,,,,,,,,,,,,,,,,,,,,,,,,,,,,,,,,,,,,1.8858024626970291,1.1127915000542998,367.66441289987415,None,ScrollUp,정답입니다,367.66441289987415,None,367.66441289987415,None,367.66441289987415,None,367.66441289987415,None,368.67534930002876,None,368.67534930002876,369.1782100999262,,,,,,,,,,,,,,,,008,2022-05-09_15h53.39.424,FishGame,2022.1.1,59.97609350070195,
,3,넌 활발해,1,Orange,B,5.666666666666667,5.6,ScrollUp,ScrollDown,Orange.png,3,Positive,Incongruent,,,,,0,0,0,0,,,,,,,,,,,,,,,,,,,,,0,2,2,2,,,,,,,,,,,,,,,,,,,,,,,,,,,,,,,,,,,,,,,,,,,,,,,,,,,,,,,,,,,,,,,,,,,,,,,,,1.919753094514211,1.3122046999633312,369.80538540007547,None,ScrollUp,정답입니다,369.80538540007547,None,369.80538540007547,None,369.80538540007547,None,369.80538540007547,None,371.0086497999728,None,371.0086497999728,371.50834019994363,,,,,,,,,,,,,,,,008,2022-05-09_15h53.39.424,FishGame,2022.1.1,59.97609350070195,
,4,넌 논리적이야,2,Green,A,5.666666666666666,4.633333333333334,ScrollDown,ScrollUp,Green.png,3,Positive,Congruent,,,,,0,0,0,0,,,,,,,,,,,,,,,,,,,,,0,3,3,3,,,,,,,,,,,,,,,,,,,,,,,,,,,,,,,,,,,,,,,,,,,,,,,,,,,,,,,,,,,,,,,,,,,,,,,,,1,1.3611357999034226,372.137987999944,None,ScrollDown,정답입니다,372.137987999944,None,372.137987999944,None,372.137987999944,None,372.137987999944,None,373.39464890002273,None,373.39464890002273,373.8918836999219,,,,,,,,,,,,,,,,008,2022-05-09_15h53.39.424,FishGame,2022.1.1,59.97609350070195,
,5,넌 과묵해,3,Green,A,3.875,4.4,ScrollDown,ScrollUp,Green.png,3,Neutral,Neutral,,,,,0,0,0,0,,,,,,,,,,,,,,,,,,,,,0,4,4,4,,,,,,,,,,,,,,,,,,,,,,,,,,,,,,,,,,,,,,,,,,,,,,,,,,,,,,,,,,,,,,,,,,,,,,,,,1,1.2944908000063151,374.51915409998037,None,ScrollDown,정답입니다,374.51915409998037,None,374.51915409998037,None,374.51915409998037,None,374.51915409998037,None,375.7085074998904,None,375.7085074998904,376.2159756999463,,,,,,,,,,,,,,,,008,2022-05-09_15h53.39.424,FishGame,2022.1.1,59.97609350070195,
,6,나를 데려가줘,6,Orange,B,0,0,ScrollDown,ScrollUp,Orange.png,3,NonTarget,NonTarget,,,,,0,0,0,0,,,,,,,,,,,,,,,,,,,,,0,5,5,5,,,,,,,,,,,,,,,,,,,,,,,,,,,,,,,,,,,,,,,,,,,,,,,,,,,,,,,,,,,,,,,,,,,,,,,,,1.0154321193695068,1.1461776001378894,376.8303318999242,None,ScrollDown,정답입니다,376.8303318999242,None,376.8303318999242,None,376.8303318999242,None,376.8303318999242,None,377.87479289993644,None,377.87479289993644,378.37491189991124,,,,,,,,,,,,,,,,008,2022-05-09_15h53.39.424,FishGame,2022.1.1,59.97609350070195,
,7,넌 미숙해,4,Orange,B,3,3,ScrollUp,ScrollDown,Orange.png,3,Negative,Congruent,,,,,0,0,0,0,,,,,,,,,,,,,,,,,,,,,0,6,6,6,,,,,,,,,,,,,,,,,,,,,,,,,,,,,,,,,,,,,,,,,,,,,,,,,,,,,,,,,,,,,,,,,,,,,,,,,1.6851851865649223,1.0997164000291377,379.00265099992976,None,ScrollUp,정답입니다,379.00265099992976,None,379.00265099992976,None,379.00265099992976,None,379.00265099992976,None,379.99175640009344,None,379.99175640009344,380.4947281999048,,,,,,,,,,,,,,,,008,2022-05-09_15h53.39.424,FishGame,2022.1.1,59.97609350070195,
,8,나를 보내줘,6,Green,A,0,0,ScrollUp,ScrollDown,Green.png,3,NonTarget,NonTarget,,,,,0,0,0,0,,,,,,,,,,,,,,,,,,,,,0,7,7,7,,,,,,,,,,,,,,,,,,,,,,,,,,,,,,,,,,,,,,,,,,,,,,,,,,,,,,,,,,,,,,,,,,,,,,,,,1.9614197711149852,1.6099354000762105,381.117800100008,None,ScrollUp,정답입니다,381.117800100008,None,381.117800100008,None,381.117800100008,None,381.117800100008,None,382.6247443999164,None,382.6247443999164,383.1247586000245,,,,,,,,,,,,,,,,008,2022-05-09_15h53.39.424,FishGame,2022.1.1,59.97609350070195,
,9,넌 자신만만해,3,Orange,B,4.833333333333334,4.333333333333333,ScrollUp,ScrollDown,Orange.png,3,Neutral,Neutral,,,,,0,0,0,0,,,,,,,,,,,,,,,,,,,,,0,8,8,8,,,,,,,,,,,,,,,,,,,,,,,,,,,,,,,,,,,,,,,,,,,,,,,,,,,,,,,,,,,,,,,,,,,,,,,,,1.6496913532416024,1.3280374999158084,383.74623030005023,None,ScrollUp,정답입니다,383.74623030005023,None,383.74623030005023,None,383.74623030005023,None,383.74623030005023,None,384.97775639989413,None,384.97775639989413,385.49482230003923,,,,,,,,,,,,,,,,008,2022-05-09_15h53.39.424,FishGame,2022.1.1,59.97609350070195,
,10,넌 탐욕스러워,5,Green,A,2.25,2.1,ScrollDown,ScrollUp,Green.png,3,Negative,Incongruent,,,,,0,0,0,0,,,,,,,,,,,,,,,,,,,,,0,9,9,9,,,,,,,,,,,,,,,,,,,,,,,,,,,,,,,,,,,,,,,,,,,,,,,,,,,,,,,,,,,,,,,,,,,,,,,,,1.1651234477758408,1.4616960999555886,386.10218539997004,None,ScrollDown,정답입니다,386.10218539997004,None,386.10218539997004,None,386.10218539997004,None,386.10218539997004,None,387.458323800005,None,387.458323800005,387.9611831998918,,,,,,,,,,,,,,,,008,2022-05-09_15h53.39.424,FishGame,2022.1.1,59.97609350070195,
,11,넌 인기있어,2,Green,A,5.458333333333333,4.5,ScrollDown,ScrollUp,Green.png,3,Positive,Congruent,,,,,0,0,0,0,,,,,,,,,,,,,,,,,,,,,0,10,10,10,,,,,,,,,,,,,,,,,,,,,,,,,,,,,,,,,,,,,,,,,,,,,,,,,,,,,,,,,,,,,,,,,,,,,,,,,1.0570987462997437,0.9953099000267684,388.5742983999662,None,ScrollDown,정답입니다,388.5742983999662,None,388.5742983999662,None,388.5742983999662,None,388.5742983999662,None,389.4746661998797,None,389.4746661998797,389.9746049998794,,,,,,,,,,,,,,,,008,2022-05-09_15h53.39.424,FishGame,2022.1.1,59.97609350070195,
,12,나를 데려가줘,6,Orange,B,0,0,ScrollDown,ScrollUp,Orange.png,3,NonTarget,NonTarget,,,,,0,0,0,0,,,,,,,,,,,,,,,,,,,,,0,11,11,11,,,,,,,,,,,,,,,,,,,,,,,,,,,,,,,,,,,,,,,,,,,,,,,,,,,,,,,,,,,,,,,,,,,,,,,,,1.1033950646718342,1.2795238001272082,390.59943609987386,None,ScrollDown,정답입니다,390.59943609987386,None,390.59943609987386,None,390.59943609987386,None,390.59943609987386,None,391.77761580003425,None,391.77761580003425,392.2748171999119,,,,,,,,,,,,,,,,008,2022-05-09_15h53.39.424,FishGame,2022.1.1,59.97609350070195,
,13,넌 뛰어나,2,Orange,B,6.166666666666667,4,ScrollUp,ScrollDown,Orange.png,3,Positive,Incongruent,,,,,0,0,0,0,,,,,,,,,,,,,,,,,,,,,0,12,12,12,,,,,,,,,,,,,,,,,,,,,,,,,,,,,,,,,,,,,,,,,,,,,,,,,,,,,,,,,,,,,,,,,,,,,,,,,1.5293209869414568,1.3615323998965323,392.9025004999712,None,NoResponse,무응답입니다,392.9025004999712,None,392.9025004999712,None,392.9025004999712,None,392.9025004999712,None,394.15814840001985,None,394.15814840001985,394.6581151999999,,,,,,,,,,,,,,,,008,2022-05-09_15h53.39.424,FishGame,2022.1.1,59.97609350070195,
,14,넌 낙관적이야,1,Green,A,5.75,5.8,ScrollDown,ScrollUp,Green.png,3,Positive,Congruent,,,,,0,0,0,0,,,,,,,,,,,,,,,,,,,,,0,13,13,13,,,,,,,,,,,,,,,,,,,,,,,,,,,,,,,,,,,,,,,,,,,,,,,,,,,,,,,,,,,,,,,,,,,,,,,,,1.1651234477758408,1.2276672997977585,395.27965219994076,None,ScrollDown,정답입니다,395.27965219994076,None,395.27965219994076,None,395.27965219994076,None,395.27965219994076,None,396.4076926000416,None,396.4076926000416,396.90781589993276,,,,,,,,,,,,,,,,008,2022-05-09_15h53.39.424,FishGame,2022.1.1,59.97609350070195,
,15,넌 산만해,4,Orange,B,2.695652173913043,3.033333333333333,ScrollUp,ScrollDown,Orange.png,3,Negative,Congruent,,,,,0,0,0,0,,,,,,,,,,,,,,,,,,,,,0,14,14,14,,,,,,,,,,,,,,,,,,,,,,,,,,,,,,,,,,,,,,,,,,,,,,,,,,,,,,,,,,,,,,,,,,,,,,,,,1.746913582086563,1.2962799000088125,397.53261049999855,None,ScrollUp,정답입니다,397.53261049999855,None,397.53261049999855,None,397.53261049999855,None,397.53261049999855,None,398.72753520007245,None,398.72753520007245,399.2275350999553,,,,,,,,,,,,,,,,008,2022-05-09_15h53.39.424,FishGame,2022.1.1,59.97609350070195,
,16,나를 보내줘,6,Green,A,0,0,ScrollUp,ScrollDown,Green.png,3,NonTarget,NonTarget,,,,,0,0,0,0,,,,,,,,,,,,,,,,,,,,,0,15,15,15,,,,,,,,,,,,,,,,,,,,,,,,,,,,,,,,,,,,,,,,,,,,,,,,,,,,,,,,,,,,,,,,,,,,,,,,,1.9243827362855275,1.4126327999401838,399.84502459992655,None,ScrollUp,정답입니다,399.84502459992655,None,399.84502459992655,None,399.84502459992655,None,399.84502459992655,None,401.15795979998074,None,401.15795979998074,401.65764750004746,,,,,,,,,,,,,,,,008,2022-05-09_15h53.39.424,FishGame,2022.1.1,59.97609350070195,
,17,넌 교활해,5,Orange,B,2.333333333333333,2.133333333333333,ScrollUp,ScrollDown,Orange.png,3,Negative,Congruent,,,,,0,0,0,0,,,,,,,,,,,,,,,,,,,,,0,16,16,16,,,,,,,,,,,,,,,,,,,,,,,,,,,,,,,,,,,,,,,,,,,,,,,,,,,,,,,,,,,,,,,,,,,,,,,,,1.8240740795930226,1.2273095999844372,402.28350810008124,None,ScrollUp,정답입니다,402.28350810008124,None,402.28350810008124,None,402.28350810008124,None,402.28350810008124,None,403.40755819994956,None,403.40755819994956,403.9076914000325,,,,,,,,,,,,,,,,008,2022-05-09_15h53.39.424,FishGame,2022.1.1,59.97609350070195,
,18,나를 보내줘,6,Green,A,0,0,ScrollUp,ScrollDown,Green.png,3,NonTarget,NonTarget,,,,,0,0,0,0,,,,,,,,,,,,,,,,,,,,,0,17,17,17,,,,,,,,,,,,,,,,,,,,,,,,,,,,,,,,,,,,,,,,,,,,,,,,,,,,,,,,,,,,,,,,,,,,,,,,,1.9475308458010356,1.3612464999314398,404.53077459987253,None,ScrollUp,정답입니다,404.53077459987253,None,404.53077459987253,None,404.53077459987253,None,404.53077459987253,None,405.79117219988257,None,405.79117219988257,406.2912321998738,,,,,,,,,,,,,,,,008,2022-05-09_15h53.39.424,FishGame,2022.1.1,59.97609350070195,
,19,넌 불친절해,5,Orange,B,2.208333333333333,2.033333333333333,ScrollUp,ScrollDown,Orange.png,3,Negative,Congruent,,,,,0,0,0,0,,,,,,,,,,,,,,,,,,,,,0,18,18,18,,,,,,,,,,,,,,,,,,,,,,,,,,,,,,,,,,,,,,,,,,,,,,,,,,,,,,,,,,,,,,,,,,,,,,,,,1.879629631837209,1.6248345000203699,406.92096240003593,None,ScrollUp,정답입니다,406.92096240003593,None,406.92096240003593,None,406.92096240003593,None,406.92096240003593,None,408.4410310999956,None,408.4410310999956,408.94115379988216,,,,,,,,,,,,,,,,008,2022-05-09_15h53.39.424,FishGame,2022.1.1,59.97609350070195,
,20,넌 지적이야,2,Orange,B,5.75,4.366666666666666,ScrollUp,ScrollDown,Orange.png,3,Positive,Incongruent,,,,,0,0,0,0,,,,,,,,,,,,,,,,,,,,,0,19,19,19,,,,,,,,,,,,,,,,,,,,,,,,,,,,,,,,,,,,,,,,,,,,,,,,,,,,,,,,,,,,,,,,,,,,,,,,,2,1.3444085998926312,409.56347690010443,None,ScrollUp,정답입니다,409.56347690010443,None,409.56347690010443,None,409.56347690010443,None,409.56347690010443,None,410.80767780006863,None,410.80767780006863,411.30769639997743,,,,,,,,,,,,,,,,008,2022-05-09_15h53.39.424,FishGame,2022.1.1,59.97609350070195,
,21,넌 우유부단해,4,Green,A,2.666666666666667,3.166666666666667,ScrollDown,ScrollUp,Green.png,3,Negative,Incongruent,,,,,0,0,0,0,,,,,,,,,,,,,,,,,,,,,0,20,20,20,,,,,,,,,,,,,,,,,,,,,,,,,,,,,,,,,,,,,,,,,,,,,,,,,,,,,,,,,,,,,,,,,,,,,,,,,1,1.776815100107342,411.9325492999051,None,ScrollDown,정답입니다,411.9325492999051,None,411.9325492999051,None,411.9325492999051,None,411.9325492999051,None,413.6076434000861,None,413.6076434000861,414.1105426000431,,,,,,,,,,,,,,,,008,2022-05-09_15h53.39.424,FishGame,2022.1.1,59.97609350070195,
,22,나를 데려가줘,6,Orange,B,0,0,ScrollDown,ScrollUp,Orange.png,3,NonTarget,NonTarget,,,,,0,0,0,0,,,,,,,,,,,,,,,,,,,,,0,21,21,21,,,,,,,,,,,,,,,,,,,,,,,,,,,,,,,,,,,,,,,,,,,,,,,,,,,,,,,,,,,,,,,,,,,,,,,,,1,1.5600972000975162,414.73486279998906,None,ScrollDown,정답입니다,414.73486279998906,None,414.73486279998906,None,414.73486279998906,None,414.73486279998906,None,416.193885799963,None,416.193885799963,416.69385650008917,,,,,,,,,,,,,,,,008,2022-05-09_15h53.39.424,FishGame,2022.1.1,59.97609350070195,
,23,넌 성실해,1,Orange,B,6.041666666666666,5.7,ScrollUp,ScrollDown,Orange.png,3,Positive,Incongruent,,,,,0,0,0,0,,,,,,,,,,,,,,,,,,,,,0,22,22,22,,,,,,,,,,,,,,,,,,,,,,,,,,,,,,,,,,,,,,,,,,,,,,,,,,,,,,,,,,,,,,,,,,,,,,,,,1.9151234527428944,1.7072070001158863,417.3227613000199,None,ScrollUp,정답입니다,417.3227613000199,None,417.3227613000199,None,417.3227613000199,None,417.3227613000199,None,418.92389420000836,None,418.92389420000836,419.4240188000258,,,,,,,,,,,,,,,,008,2022-05-09_15h53.39.424,FishGame,2022.1.1,59.97609350070195,
,24,넌 현실주의적이야,3,Green,A,4.625,4.4,ScrollDown,ScrollUp,Green.png,3,Neutral,Neutral,,,,,0,0,0,0,,,,,,,,,,,,,,,,,,,,,0,23,23,23,,,,,,,,,,,,,,,,,,,,,,,,,,,,,,,,,,,,,,,,,,,,,,,,,,,,,,,,,,,,,,,,,,,,,,,,,1,1.427907699951902,420.04388349992223,None,ScrollDown,정답입니다,420.04388349992223,None,420.04388349992223,None,420.04388349992223,None,420.04388349992223,None,421.376995800063,None,421.376995800063,421.8937536999583,,,,,,,,,,,,,,,,008,2022-05-09_15h53.39.424,FishGame,2022.1.1,59.97609350070195,
,25,넌 진실돼,1,Green,A,6.625,5.566666666666666,ScrollDown,ScrollUp,Green.png,3,Positive,Congruent,,,,,0,0,0,0,,,,,,,,,,,,,,,,,,,,,0,24,24,24,,,,,,,,,,,,,,,,,,,,,,,,,,,,,,,,,,,,,,,,,,,,,,,,,,,,,,,,,,,,,,,,,,,,,,,,,1,1.3279763001482934,422.49518040008843,None,ScrollDown,정답입니다,422.49518040008843,None,422.49518040008843,None,422.49518040008843,None,422.49518040008843,None,423.72694889991544,None,423.72694889991544,424.2405312000774,,,,,,,,,,,,,,,,008,2022-05-09_15h53.39.424,FishGame,2022.1.1,59.97609350070195,
,26,넌 천진난만해,3,Orange,B,4.958333333333334,4.833333333333333,ScrollUp,ScrollDown,Orange.png,3,Neutral,Neutral,,,,,0,0,0,0,,,,,,,,,,,,,,,,,,,,,0,25,25,25,,,,,,,,,,,,,,,,,,,,,,,,,,,,,,,,,,,,,,,,,,,,,,,,,,,,,,,,,,,,,,,,,,,,,,,,,1.8225308656692505,1.7114530000835657,424.86388679989614,None,ScrollUp,정답입니다,424.86388679989614,None,424.86388679989614,None,424.86388679989614,None,424.86388679989614,None,426.4737903000787,None,426.4737903000787,426.9770285000559,,,,,,,,,,,,,,,,008,2022-05-09_15h53.39.424,FishGame,2022.1.1,59.97609350070195,
,27,넌 교양없어,5,Green,A,2.416666666666667,2.2,ScrollDown,ScrollUp,Green.png,3,Negative,Incongruent,,,,,0,0,0,0,,,,,,,,,,,,,,,,,,,,,0,26,26,26,,,,,,,,,,,,,,,,,,,,,,,,,,,,,,,,,,,,,,,,,,,,,,,,,,,,,,,,,,,,,,,,,,,,,,,,,1,1.3110840998124331,427.59442409989424,None,ScrollDown,정답입니다,427.59442409989424,None,427.59442409989424,None,427.59442409989424,None,427.59442409989424,None,428.8073430999648,None,428.8073430999648,429.3073356000241,,,,,,,,,,,,,,,,008,2022-05-09_15h53.39.424,FishGame,2022.1.1,59.97609350070195,
,28,나를 보내줘,6,Green,A,0,0,ScrollUp,ScrollDown,Green.png,3,NonTarget,NonTarget,,,,,0,0,0,0,,,,,,,,,,,,,,,,,,,,,0,27,27,27,,,,,,,,,,,,,,,,,,,,,,,,,,,,,,,,,,,,,,,,,,,,,,,,,,,,,,,,,,,,,,,,,,,,,,,,,1.6003086442748704,2.0140706000383943,429.9295763000846,None,ScrollUp,정답입니다,429.9295763000846,None,429.9295763000846,None,429.9295763000846,None,429.9295763000846,None,431.84346010000445,None,431.84346010000445,432.3573121998925,,,,,,,,,,,,,,,,008,2022-05-09_15h53.39.424,FishGame,2022.1.1,59.97609350070195,
,29,넌 엉뚱스러워,3,Green,A,4.166666666666667,4.133333333333334,ScrollDown,ScrollUp,Green.png,3,Neutral,Neutral,,,,,0,0,0,0,,,,,,,,,,,,,,,,,,,,,0,28,28,28,,,,,,,,,,,,,,,,,,,,,,,,,,,,,,,,,,,,,,,,,,,,,,,,,,,,,,,,,,,,,,,,,,,,,,,,,1.0864197611808777,1.2312278000172228,432.9778076999355,None,ScrollDown,정답입니다,432.9778076999355,None,432.9778076999355,None,432.9778076999355,None,432.9778076999355,None,434.1072162000928,None,434.1072162000928,434.6072080999147,,,,,,,,,,,,,,,,008,2022-05-09_15h53.39.424,FishGame,2022.1.1,59.97609350070195,
,30,넌 무지해,4,Orange,B,2.541666666666667,3.066666666666667,ScrollUp,ScrollDown,Orange.png,3,Negative,Congruent,,,,,0,0,0,0,,,,,,,,,,,,,,,,,,,,,0,29,29,29,,,,,,,,,,,,,,,,,,,,,,,,,,,,,,,,,,,,,,,,,,,,,,,,,,,,,,,,,,,,,,,,,,,,,,,,,1.9212963084379833,1.241967299953103,435.23804780002683,None,ScrollUp,정답입니다,435.23804780002683,None,435.23804780002683,None,435.23804780002683,None,435.23804780002683,None,436.3735374000389,None,436.3735374000389,436.8735865999479,,,,,,,,,,,,,,,,008,2022-05-09_15h53.39.424,FishGame,2022.1.1,59.97609350070195,
,31,넌 음울해,5,Orange,B,2.25,2.233333333333333,ScrollUp,ScrollDown,Orange.png,3,Negative,Congruent,,,,,0,0,0,0,,,,,,,,,,,,,,,,,,,,,0,30,30,30,,,,,,,,,,,,,,,,,,,,,,,,,,,,,,,,,,,,,,,,,,,,,,,,,,,,,,,,,,,,,,,,,,,,,,,,,1.8549382835626602,1.678788999794051,437.4951609999407,None,ScrollUp,정답입니다,437.4951609999407,None,437.4951609999407,None,437.4951609999407,None,437.4951609999407,None,439.07380030001514,None,439.07380030001514,439.5738168999087,,,,,,,,,,,,,,,,008,2022-05-09_15h53.39.424,FishGame,2022.1.1,59.97609350070195,
,32,넌 냉소적이야,5,Green,A,2.916666666666667,2.4,ScrollDown,ScrollUp,Green.png,3,Negative,Incongruent,,,,,0,0,0,0,,,,,,,,,,,,,,,,,,,,,0,31,31,31,,,,,,,,,,,,,,,,,,,,,,,,,,,,,,,,,,,,,,,,,,,,,,,,,,,,,,,,,,,,,,,,,,,,,,,,,1.0262345671653748,1.2609556000679731,440.19399959989823,None,ScrollDown,정답입니다,440.19399959989823,None,440.19399959989823,None,440.19399959989823,None,440.19399959989823,None,441.35708800004795,None,441.35708800004795,441.86001940001734,,,,,,,,,,,,,,,,008,2022-05-09_15h53.39.424,FishGame,2022.1.1,59.97609350070195,
,33,나를 데려가줘,6,Orange,B,0,0,ScrollDown,ScrollUp,Orange.png,3,NonTarget,NonTarget,,,,,0,0,0,0,,,,,,,,,,,,,,,,,,,,,0,32,32,32,,,,,,,,,,,,,,,,,,,,,,,,,,,,,,,,,,,,,,,,,,,,,,,,,,,,,,,,,,,,,,,,,,,,,,,,,1.0509259402751923,1.3953488001134247,442.483074599877,None,ScrollDown,정답입니다,442.483074599877,None,442.483074599877,None,442.483074599877,None,442.483074599877,None,443.77359699993394,None,443.77359699993394,444.2736887000501,,,,,,,,,,,,,,,,008,2022-05-09_15h53.39.424,FishGame,2022.1.1,59.97609350070195,
,34,넌 쾌활해,1,Green,A,5.541666666666666,5.733333333333333,ScrollDown,ScrollUp,Green.png,3,Positive,Congruent,,,,,0,0,0,0,,,,,,,,,,,,,,,,,,,,,0,33,33,33,,,,,,,,,,,,,,,,,,,,,,,,,,,,,,,,,,,,,,,,,,,,,,,,,,,,,,,,,,,,,,,,,,,,,,,,,1.8317901243766148,1.4295893001835793,444.89794699987397,None,ScrollUp,오답입니다,444.89794699987397,None,444.89794699987397,None,444.89794699987397,None,444.89794699987397,None,446.2236411999911,None,446.2236411999911,446.72382469987497,,,,,,,,,,,,,,,,008,2022-05-09_15h53.39.424,FishGame,2022.1.1,59.97609350070195,
,35,나를 보내줘,6,Green,A,0,0,ScrollUp,ScrollDown,Green.png,3,NonTarget,NonTarget,,,,,0,0,0,0,,,,,,,,,,,,,,,,,,,,,0,34,34,34,,,,,,,,,,,,,,,,,,,,,,,,,,,,,,,,,,,,,,,,,,,,,,,,,,,,,,,,,,,,,,,,,,,,,,,,,1.89969136317571,1.4955965999979526,447.3493625000119,None,ScrollUp,정답입니다,447.3493625000119,None,447.3493625000119,None,447.3493625000119,None,447.3493625000119,None,448.74027359997854,None,448.74027359997854,449.2402691000607,,,,,,,,,,,,,,,,008,2022-05-09_15h53.39.424,FishGame,2022.1.1,59.97609350070195,
,36,넌 명랑해,1,Orange,B,5.739130434782609,5.666666666666667,ScrollUp,ScrollDown,Orange.png,3,Positive,Incongruent,,,,,0,0,0,0,,,,,,,,,,,,,,,,,,,,,0,35,35,35,,,,,,,,,,,,,,,,,,,,,,,,,,,,,,,,,,,,,,,,,,,,,,,,,,,,,,,,,,,,,,,,,,,,,,,,,1.9320987562338512,1.2915503999684006,449.86770739988424,None,ScrollUp,정답입니다,449.86770739988424,None,449.86770739988424,None,449.86770739988424,None,449.86770739988424,None,451.0565357999876,None,451.0565357999876,451.5566056999378,,,,,,,,,,,,,,,,008,2022-05-09_15h53.39.424,FishGame,2022.1.1,59.97609350070195,
,37,넌 멍해,4,Green,A,2.833333333333333,3.4,ScrollDown,ScrollUp,Green.png,3,Negative,Incongruent,,,,,0,0,0,0,,,,,,,,,,,,,,,,,,,,,0,36,36,36,,,,,,,,,,,,,,,,,,,,,,,,,,,,,,,,,,,,,,,,,,,,,,,,,,,,,,,,,,,,,,,,,,,,,,,,,1,1.4111196000594646,452.17939760000445,None,ScrollDown,정답입니다,452.17939760000445,None,452.17939760000445,None,452.17939760000445,None,452.17939760000445,None,453.49296310008503,None,453.49296310008503,454.009756000014,,,,,,,,,,,,,,,,008,2022-05-09_15h53.39.424,FishGame,2022.1.1,59.97609350070195,
,38,나를 데려가줘,6,Orange,B,0,0,ScrollDown,ScrollUp,Orange.png,3,NonTarget,NonTarget,,,,,0,0,0,0,,,,,,,,,,,,,,,,,,,,,0,37,37,37,,,,,,,,,,,,,,,,,,,,,,,,,,,,,,,,,,,,,,,,,,,,,,,,,,,,,,,,,,,,,,,,,,,,,,,,,1,1.4278299000579864,454.6164112999104,None,ScrollDown,정답입니다,454.6164112999104,None,454.6164112999104,None,454.6164112999104,None,454.6164112999104,None,455.94303119997494,None,455.94303119997494,456.4474068998825,,,,,,,,,,,,,,,,008,2022-05-09_15h53.39.424,FishGame,2022.1.1,59.97609350070195,
,39,넌 현명해,2,Green,A,6.541666666666666,4.533333333333333,ScrollDown,ScrollUp,Green.png,3,Positive,Congruent,,,,,0,0,0,0,,,,,,,,,,,,,,,,,,,,,0,38,38,38,,,,,,,,,,,,,,,,,,,,,,,,,,,,,,,,,,,,,,,,,,,,,,,,,,,,,,,,,,,,,,,,,,,,,,,,,1,1.3442027000710368,457.0746621999424,None,ScrollDown,정답입니다,457.0746621999424,None,457.0746621999424,None,457.0746621999424,None,457.0746621999424,None,458.32304070005193,None,458.32304070005193,458.82316319993697,,,,,,,,,,,,,,,,008,2022-05-09_15h53.39.424,FishGame,2022.1.1,59.97609350070195,
,40,넌 수줍어,3,Orange,B,3.541666666666666,4.366666666666666,ScrollUp,ScrollDown,Orange.png,3,Neutral,Neutral,,,,,0,0,0,0,,,,,,,,,,,,,,,,,,,,,0,39,39,39,,,,,,,,,,,,,,,,,,,,,,,,,,,,,,,,,,,,,,,,,,,,,,,,,,,,,,,,,,,,,,,,,,,,,,,,,1.9027777661879857,1.629947000183165,459.4481259000022,None,ScrollUp,정답입니다,459.4481259000022,None,459.4481259000022,None,459.4481259000022,None,459.4481259000022,None,460.9762661999557,None,460.9762661999557,461.4762575000059,,,,,,,,,,,,,,,,008,2022-05-09_15h53.39.424,FishGame,2022.1.1,59.97609350070195,
,41,나를 데려가줘,6,Orange,B,0,0,ScrollDown,ScrollUp,Orange.png,3,NonTarget,NonTarget,,,,,0,0,0,0,,,,,,,,,,,,,,,,,,,,,0,40,40,40,,,,,,,,,,,,,,,,,,,,,,,,,,,,,,,,,,,,,,,,,,,,,,,,,,,,,,,,,,,,,,,,,,,,,,,,,1,1.3097632999997586,462.11477939994074,None,ScrollDown,정답입니다,462.11477939994074,None,462.11477939994074,None,462.11477939994074,None,462.11477939994074,None,463.3232458999846,None,463.3232458999846,463.82608660007827,,,,,,,,,,,,,,,,008,2022-05-09_15h53.39.424,FishGame,2022.1.1,59.97609350070195,
,42,넌 성숙해,2,Orange,B,5.833333333333333,4.533333333333333,ScrollUp,ScrollDown,Orange.png,3,Positive,Incongruent,,,,,0,0,0,0,,,,,,,,,,,,,,,,,,,,,0,41,41,41,,,,,,,,,,,,,,,,,,,,,,,,,,,,,,,,,,,,,,,,,,,,,,,,,,,,,,,,,,,,,,,,,,,,,,,,,1.8749999900658925,1.3404653000179678,464.45171839999966,None,ScrollUp,정답입니다,464.45171839999966,None,464.45171839999966,None,464.45171839999966,None,464.45171839999966,None,465.68954719998874,None,465.68954719998874,466.18961580004543,,,,,,,,,,,,,,,,008,2022-05-09_15h53.39.424,FishGame,2022.1.1,59.97609350070195,
,1,넌 매력적이야,2,Orange,B,6.125,4.666666666666667,ScrollUp,ScrollDown,Orange.png,4,Positive,Incongruent,,,,,0,0,0,0,,,,,,,,,,,,,,,,,,,,,,,,,0,0,0,0,,,,,,,,,,,,,,,,,,,,,,,,,,,,498.2221327999141,499.7255261999089,499.74217520002276,500.692183899926,500.742191700032,501.7057383998763,501.7057383998763,None,,,,,,,,,,,,,,,,,,,,,,,,,,,,,,,,,,1.9675925771395366,1.2747364998795092,502.81804500008,None,ScrollUp,정답입니다,502.81804500008,None,502.81804500008,None,502.81804500008,None,502.81804500008,None,503.9889909999911,None,503.9889909999911,504.4890650000889,466.68966650008224,None,466.68966650008224,None,0.08240741,-0.20277777,1,0,0,0.015968649880960584,None,496.6889404999092,None,,,008,2022-05-09_15h53.39.424,FishGame,2022.1.1,59.97609350070195,
,2,나를 보내줘,6,Green,A,0,0,ScrollUp,ScrollDown,Green.png,4,NonTarget,NonTarget,,,,,0,0,0,0,,,,,,,,,,,,,,,,,,,,,,,,,0,1,1,1,,,,,,,,,,,,,,,,,,,,,,,,,,,,,,,,,,,,,,,,,,,,,,,,,,,,,,,,,,,,,,,,,,,,,2,1.210216399980709,505.110445600003,None,ScrollUp,정답입니다,505.110445600003,None,505.110445600003,None,505.110445600003,None,505.110445600003,None,506.22229599999264,None,506.22229599999264,506.7223654000554,,,,,,,,,,,,,,,,008,2022-05-09_15h53.39.424,FishGame,2022.1.1,59.97609350070195,
,3,넌 조심스러워,3,Green,A,4.791666666666666,4.666666666666667,ScrollDown,ScrollUp,Green.png,4,Neutral,Neutral,,,,,0,0,0,0,,,,,,,,,,,,,,,,,,,,,,,,,0,2,2,2,,,,,,,,,,,,,,,,,,,,,,,,,,,,,,,,,,,,,,,,,,,,,,,,,,,,,,,,,,,,,,,,,,,,,1,1.2078904998488724,507.3438514000736,None,ScrollDown,정답입니다,507.3438514000736,None,507.3438514000736,None,507.3438514000736,None,507.3438514000736,None,508.4552905000746,None,508.4552905000746,508.95535609987564,,,,,,,,,,,,,,,,008,2022-05-09_15h53.39.424,FishGame,2022.1.1,59.97609350070195,
,4,넌 철학적이야,3,Orange,B,4.5,4.266666666666667,ScrollUp,ScrollDown,Orange.png,4,Neutral,Neutral,,,,,0,0,0,0,,,,,,,,,,,,,,,,,,,,,,,,,0,3,3,3,,,,,,,,,,,,,,,,,,,,,,,,,,,,,,,,,,,,,,,,,,,,,,,,,,,,,,,,,,,,,,,,,,,,,1.746913582086563,1.0281762001104653,509.58921359991655,None,ScrollUp,정답입니다,509.58921359991655,None,509.58921359991655,None,509.58921359991655,None,509.58921359991655,None,510.50832860008813,None,510.50832860008813,511.00841309991665,,,,,,,,,,,,,,,,008,2022-05-09_15h53.39.424,FishGame,2022.1.1,59.97609350070195,
,5,넌 쩨쩨해,5,Green,A,2.375,2.133333333333333,ScrollDown,ScrollUp,Green.png,4,Negative,Incongruent,,,,,0,0,0,0,,,,,,,,,,,,,,,,,,,,,,,,,0,4,4,4,,,,,,,,,,,,,,,,,,,,,,,,,,,,,,,,,,,,,,,,,,,,,,,,,,,,,,,,,,,,,,,,,,,,,1,1.0952437000814825,511.6478967999574,None,ScrollDown,정답입니다,511.6478967999574,None,511.6478967999574,None,511.6478967999574,None,511.6478967999574,None,512.6416925999802,None,512.6416925999802,513.1584648999851,,,,,,,,,,,,,,,,008,2022-05-09_15h53.39.424,FishGame,2022.1.1,59.97609350070195,
,6,나를 데려가줘,6,Orange,B,0,0,ScrollDown,ScrollUp,Orange.png,4,NonTarget,NonTarget,,,,,0,0,0,0,,,,,,,,,,,,,,,,,,,,,,,,,0,5,5,5,,,,,,,,,,,,,,,,,,,,,,,,,,,,,,,,,,,,,,,,,,,,,,,,,,,,,,,,,,,,,,,,,,,,,1,1.3761889999732375,513.7655549999326,None,ScrollDown,정답입니다,513.7655549999326,None,513.7655549999326,None,513.7655549999326,None,513.7655549999326,None,515.0387566999998,None,515.0387566999998,515.538800700102,,,,,,,,,,,,,,,,008,2022-05-09_15h53.39.424,FishGame,2022.1.1,59.97609350070195,
,7,넌 고집불통이야,5,Orange,B,2.875,2,ScrollUp,ScrollDown,Orange.png,4,Negative,Congruent,,,,,0,0,0,0,,,,,,,,,,,,,,,,,,,,,,,,,0,6,6,6,,,,,,,,,,,,,,,,,,,,,,,,,,,,,,,,,,,,,,,,,,,,,,,,,,,,,,,,,,,,,,,,,,,,,1.8472222139437993,1.0944928000681102,516.1746209000703,None,ScrollUp,정답입니다,516.1746209000703,None,516.1746209000703,None,516.1746209000703,None,516.1746209000703,None,517.1553815999068,None,517.1553815999068,517.6553849999327,,,,,,,,,,,,,,,,008,2022-05-09_15h53.39.424,FishGame,2022.1.1,59.97609350070195,
,8,넌 무심해,4,Green,A,2.875,3.2,ScrollDown,ScrollUp,Green.png,4,Negative,Incongruent,,,,,0,0,0,0,,,,,,,,,,,,,,,,,,,,,,,,,0,7,7,7,,,,,,,,,,,,,,,,,,,,,,,,,,,,,,,,,,,,,,,,,,,,,,,,,,,,,,,,,,,,,,,,,,,,,1,1.0631027000490576,518.2755774999969,None,ScrollDown,정답입니다,518.2755774999969,None,518.2755774999969,None,518.2755774999969,None,518.2755774999969,None,519.2415436001029,None,519.2415436001029,519.7554031000473,,,,,,,,,,,,,,,,008,2022-05-09_15h53.39.424,FishGame,2022.1.1,59.97609350070195,
,9,넌 정겨워,1,Green,A,5.791666666666667,5.666666666666667,ScrollDown,ScrollUp,Green.png,4,Positive,Congruent,,,,,0,0,0,0,,,,,,,,,,,,,,,,,,,,,,,,,0,8,8,8,,,,,,,,,,,,,,,,,,,,,,,,,,,,,,,,,,,,,,,,,,,,,,,,,,,,,,,,,,,,,,,,,,,,,1,1.1430428999010473,520.3650772999972,None,ScrollDown,정답입니다,520.3650772999972,None,520.3650772999972,None,520.3650772999972,None,520.3650772999972,None,521.4050636999309,None,521.4050636999309,521.9050747000147,,,,,,,,,,,,,,,,008,2022-05-09_15h53.39.424,FishGame,2022.1.1,59.97609350070195,
,10,나를 데려가줘,6,Orange,B,0,0,ScrollDown,ScrollUp,Orange.png,4,NonTarget,NonTarget,,,,,0,0,0,0,,,,,,,,,,,,,,,,,,,,,,,,,0,9,9,9,,,,,,,,,,,,,,,,,,,,,,,,,,,,,,,,,,,,,,,,,,,,,,,,,,,,,,,,,,,,,,,,,,,,,1,1.2277623999398202,522.5255668999162,None,ScrollDown,정답입니다,522.5255668999162,None,522.5255668999162,None,522.5255668999162,None,522.5255668999162,None,523.6550072999671,None,523.6550072999671,524.1553050999064,,,,,,,,,,,,,,,,008,2022-05-09_15h53.39.424,FishGame,2022.1.1,59.97609350070195,
,11,넌 체제순응적이야,4,Orange,B,3,3.6,ScrollUp,ScrollDown,Orange.png,4,Negative,Congruent,,,,,0,0,0,0,,,,,,,,,,,,,,,,,,,,,,,,,0,10,10,10,,,,,,,,,,,,,,,,,,,,,,,,,,,,,,,,,,,,,,,,,,,,,,,,,,,,,,,,,,,,,,,,,,,,,1.8271604826052983,1.4119742999318987,524.790939199971,None,ScrollUp,정답입니다,524.790939199971,None,524.790939199971,None,524.790939199971,None,524.790939199971,None,526.0885793999769,None,526.0885793999769,526.5915711000562,,,,,,,,,,,,,,,,008,2022-05-09_15h53.39.424,FishGame,2022.1.1,59.97609350070195,
,12,나를 보내줘,6,Green,A,0,0,ScrollUp,ScrollDown,Green.png,4,NonTarget,NonTarget,,,,,0,0,0,0,,,,,,,,,,,,,,,,,,,,,,,,,0,11,11,11,,,,,,,,,,,,,,,,,,,,,,,,,,,,,,,,,,,,,,,,,,,,,,,,,,,,,,,,,,,,,,,,,,,,,1.9953703780968983,1.2626885999925435,527.2116666000802,None,ScrollUp,정답입니다,527.2116666000802,None,527.2116666000802,None,527.2116666000802,None,527.2116666000802,None,528.3717672000639,None,528.3717672000639,528.8718101000413,,,,,,,,,,,,,,,,008,2022-05-09_15h53.39.424,FishGame,2022.1.1,59.97609350070195,
,13,넌 박식해,2,Green,A,5.625,3.933333333333333,ScrollDown,ScrollUp,Green.png,4,Positive,Congruent,,,,,0,0,0,0,,,,,,,,,,,,,,,,,,,,,,,,,0,12,12,12,,,,,,,,,,,,,,,,,,,,,,,,,,,,,,,,,,,,,,,,,,,,,,,,,,,,,,,,,,,,,,,,,,,,,1.1851851791143417,1.079854500014335,529.4990524000023,None,ScrollDown,정답입니다,529.4990524000023,None,529.4990524000023,None,529.4990524000023,None,529.4990524000023,None,530.471743500093,None,530.471743500093,530.9747025000397,,,,,,,,,,,,,,,,008,2022-05-09_15h53.39.424,FishGame,2022.1.1,59.97609350070195,
,14,나를 보내줘,6,Green,A,0,0,ScrollUp,ScrollDown,Green.png,4,NonTarget,NonTarget,,,,,0,0,0,0,,,,,,,,,,,,,,,,,,,,,,,,,0,13,13,13,,,,,,,,,,,,,,,,,,,,,,,,,,,,,,,,,,,,,,,,,,,,,,,,,,,,,,,,,,,,,,,,,,,,,1.6867284004886947,0.9935802000109106,531.5948973998893,None,ScrollUp,정답입니다,531.5948973998893,None,531.5948973998893,None,531.5948973998893,None,531.5948973998893,None,532.4884079999756,None,532.4884079999756,532.9913963999134,,,,,,,,,,,,,,,,008,2022-05-09_15h53.39.424,FishGame,2022.1.1,59.97609350070195,
,15,넌 침착해,1,Orange,B,5.458333333333333,5.566666666666666,ScrollUp,ScrollDown,Orange.png,4,Positive,Incongruent,,,,,0,0,0,0,,,,,,,,,,,,,,,,,,,,,,,,,0,14,14,14,,,,,,,,,,,,,,,,,,,,,,,,,,,,,,,,,,,,,,,,,,,,,,,,,,,,,,,,,,,,,,,,,,,,,1.878086417913437,1.041237099794671,533.6274969000369,None,ScrollUp,정답입니다,533.6274969000369,None,533.6274969000369,None,533.6274969000369,None,533.6274969000369,None,534.5547167998739,None,534.5547167998739,535.0547839999199,,,,,,,,,,,,,,,,008,2022-05-09_15h53.39.424,FishGame,2022.1.1,59.97609350070195,
,16,나를 데려가줘,6,Orange,B,0,0,ScrollDown,ScrollUp,Orange.png,4,NonTarget,NonTarget,,,,,0,0,0,0,,,,,,,,,,,,,,,,,,,,,,,,,0,15,15,15,,,,,,,,,,,,,,,,,,,,,,,,,,,,,,,,,,,,,,,,,,,,,,,,,,,,,,,,,,,,,,,,,,,,,1.0061728358268738,1.1133083999156952,535.6787391998805,None,ScrollDown,정답입니다,535.6787391998805,None,535.6787391998805,None,535.6787391998805,None,535.6787391998805,None,536.6910924999975,None,536.6910924999975,537.207879900001,,,,,,,,,,,,,,,,008,2022-05-09_15h53.39.424,FishGame,2022.1.1,59.97609350070195,
,17,넌 행복해,1,Green,A,6.416666666666666,6.166666666666667,ScrollDown,ScrollUp,Green.png,4,Positive,Congruent,,,,,0,0,0,0,,,,,,,,,,,,,,,,,,,,,,,,,0,16,16,16,,,,,,,,,,,,,,,,,,,,,,,,,,,,,,,,,,,,,,,,,,,,,,,,,,,,,,,,,,,,,,,,,,,,,1.0817901194095612,1.426279200008139,537.8126832998823,None,ScrollDown,정답입니다,537.8126832998823,None,537.8126832998823,None,537.8126832998823,None,537.8126832998823,None,539.138252899982,None,539.138252899982,539.6411431999877,,,,,,,,,,,,,,,,008,2022-05-09_15h53.39.424,FishGame,2022.1.1,59.97609350070195,
,18,넌 겸손해,2,Orange,B,5.791666666666667,4.766666666666667,ScrollUp,ScrollDown,Orange.png,4,Positive,Incongruent,,,,,0,0,0,0,,,,,,,,,,,,,,,,,,,,,,,,,0,17,17,17,,,,,,,,,,,,,,,,,,,,,,,,,,,,,,,,,,,,,,,,,,,,,,,,,,,,,,,,,,,,,,,,,,,,,1.6172839477658272,0.9467567999381572,540.26097199996,None,ScrollUp,정답입니다,540.26097199996,None,540.26097199996,None,540.26097199996,None,540.26097199996,None,541.1045736998785,None,541.1045736998785,541.6046291000675,,,,,,,,,,,,,,,,008,2022-05-09_15h53.39.424,FishGame,2022.1.1,59.97609350070195,
,19,나를 보내줘,6,Green,A,0,0,ScrollUp,ScrollDown,Green.png,4,NonTarget,NonTarget,,,,,0,0,0,0,,,,,,,,,,,,,,,,,,,,,,,,,0,18,18,18,,,,,,,,,,,,,,,,,,,,,,,,,,,,,,,,,,,,,,,,,,,,,,,,,,,,,,,,,,,,,,,,,,,,,1.8148148208856583,1.679865499958396,542.228287700098,None,ScrollUp,정답입니다,542.228287700098,None,542.228287700098,None,542.228287700098,None,542.228287700098,None,543.8048413998913,None,543.8048413998913,544.3048753999174,,,,,,,,,,,,,,,,008,2022-05-09_15h53.39.424,FishGame,2022.1.1,59.97609350070195,
,20,넌 의심없어,3,Green,A,4.166666666666667,4.6,ScrollDown,ScrollUp,Green.png,4,Neutral,Neutral,,,,,0,0,0,0,,,,,,,,,,,,,,,,,,,,,,,,,0,19,19,19,,,,,,,,,,,,,,,,,,,,,,,,,,,,,,,,,,,,,,,,,,,,,,,,,,,,,,,,,,,,,,,,,,,,,1.0123456915219624,1.1626021000556648,544.9266123000998,None,ScrollDown,정답입니다,544.9266123000998,None,544.9266123000998,None,544.9266123000998,None,544.9266123000998,None,545.988130300073,None,545.988130300073,546.4954411000945,,,,,,,,,,,,,,,,008,2022-05-09_15h53.39.424,FishGame,2022.1.1,59.97609350070195,
,21,넌 시시해,4,Green,A,2.666666666666667,2.966666666666667,ScrollDown,ScrollUp,Green.png,4,Negative,Incongruent,,,,,0,0,0,0,,,,,,,,,,,,,,,,,,,,,,,,,0,20,20,20,,,,,,,,,,,,,,,,,,,,,,,,,,,,,,,,,,,,,,,,,,,,,,,,,,,,,,,,,,,,,,,,,,,,,1.0216049253940582,1.111478100065142,547.1056218999438,None,ScrollDown,정답입니다,547.1056218999438,None,547.1056218999438,None,547.1056218999438,None,547.1056218999438,None,548.1210908999201,None,548.1210908999201,548.6212150999345,,,,,,,,,,,,,,,,008,2022-05-09_15h53.39.424,FishGame,2022.1.1,59.97609350070195,
,22,나를 데려가줘,6,Orange,B,0,0,ScrollDown,ScrollUp,Orange.png,4,NonTarget,NonTarget,,,,,0,0,0,0,,,,,,,,,,,,,,,,,,,,,,,,,0,21,21,21,,,,,,,,,,,,,,,,,,,,,,,,,,,,,,,,,,,,,,,,,,,,,,,,,,,,,,,,,,,,,,,,,,,,,1.0632716019948323,1.1995063000358641,549.2417240999639,None,ScrollDown,정답입니다,549.2417240999639,None,549.2417240999639,None,549.2417240999639,None,549.2417240999639,None,550.3380392000545,None,550.3380392000545,550.8410086000804,,,,,,,,,,,,,,,,008,2022-05-09_15h53.39.424,FishGame,2022.1.1,59.97609350070195,
,23,넌 무정해,5,Green,A,2.5,2.2,ScrollDown,ScrollUp,Green.png,4,Negative,Incongruent,,,,,0,0,0,0,,,,,,,,,,,,,,,,,,,,,,,,,0,22,22,22,,,,,,,,,,,,,,,,,,,,,,,,,,,,,,,,,,,,,,,,,,,,,,,,,,,,,,,,,,,,,,,,,,,,,1.192901223897934,1.4281170999165624,551.4615672999062,None,ScrollDown,정답입니다,551.4615672999062,None,551.4615672999062,None,551.4615672999062,None,551.4615672999062,None,552.787668999983,None,552.787668999983,553.287720900029,,,,,,,,,,,,,,,,008,2022-05-09_15h53.39.424,FishGame,2022.1.1,59.97609350070195,
,24,넌 긍정적이야,1,Orange,B,6.041666666666667,6.066666666666666,ScrollUp,ScrollDown,Orange.png,4,Positive,Incongruent,,,,,0,0,0,0,,,,,,,,,,,,,,,,,,,,,,,,,0,23,23,23,,,,,,,,,,,,,,,,,,,,,,,,,,,,,,,,,,,,,,,,,,,,,,,,,,,,,,,,,,,,,,,,,,,,,1.8271604826052983,1.0785411999095231,553.9095375000034,None,ScrollUp,정답입니다,553.9095375000034,None,553.9095375000034,None,553.9095375000034,None,553.9095375000034,None,554.887659,None,554.887659,555.387731899973,,,,,,,,,,,,,,,,008,2022-05-09_15h53.39.424,FishGame,2022.1.1,59.97609350070195,
,25,나를 보내줘,6,Green,A,0,0,ScrollUp,ScrollDown,Green.png,4,NonTarget,NonTarget,,,,,0,0,0,0,,,,,,,,,,,,,,,,,,,,,,,,,0,24,24,24,,,,,,,,,,,,,,,,,,,,,,,,,,,,,,,,,,,,,,,,,,,,,,,,,,,,,,,,,,,,,,,,,,,,,1.743827154239019,1.7126235000323504,556.0064807999879,None,ScrollUp,정답입니다,556.0064807999879,None,556.0064807999879,None,556.0064807999879,None,556.0064807999879,None,557.6212055000942,None,557.6212055000942,558.1242189998738,,,,,,,,,,,,,,,,008,2022-05-09_15h53.39.424,FishGame,2022.1.1,59.97609350070195,
,26,넌 시기심이 많아,5,Orange,B,2.458333333333333,2.233333333333333,ScrollUp,ScrollDown,Orange.png,4,Negative,Congruent,,,,,0,0,0,0,,,,,,,,,,,,,,,,,,,,,,,,,0,25,25,25,,,,,,,,,,,,,,,,,,,,,,,,,,,,,,,,,,,,,,,,,,,,,,,,,,,,,,,,,,,,,,,,,,,,,1.7453703681627908,1.2588951999787241,558.7663010999095,None,ScrollUp,정답입니다,558.7663010999095,None,558.7663010999095,None,558.7663010999095,None,558.7663010999095,None,559.9041609000415,None,559.9041609000415,560.4042346000206,,,,,,,,,,,,,,,,008,2022-05-09_15h53.39.424,FishGame,2022.1.1,59.97609350070195,
,27,넌 탁월해,2,Green,A,5.708333333333334,4.5,ScrollDown,ScrollUp,Green.png,4,Positive,Congruent,,,,,0,0,0,0,,,,,,,,,,,,,,,,,,,,,,,,,0,26,26,26,,,,,,,,,,,,,,,,,,,,,,,,,,,,,,,,,,,,,,,,,,,,,,,,,,,,,,,,,,,,,,,,,,,,,1.1358024577299755,1.229891899973154,561.029908800032,None,ScrollDown,정답입니다,561.029908800032,None,561.029908800032,None,561.029908800032,None,561.029908800032,None,562.1544731000904,None,562.1544731000904,562.6574043000583,,,,,,,,,,,,,,,,008,2022-05-09_15h53.39.424,FishGame,2022.1.1,59.97609350070195,
,28,나를 데려가줘,6,Orange,B,0,0,ScrollDown,ScrollUp,Orange.png,4,NonTarget,NonTarget,,,,,0,0,0,0,,,,,,,,,,,,,,,,,,,,,,,,,0,27,27,27,,,,,,,,,,,,,,,,,,,,,,,,,,,,,,,,,,,,,,,,,,,,,,,,,,,,,,,,,,,,,,,,,,,,,1,1.111627500038594,563.2770388000645,None,ScrollDown,정답입니다,563.2770388000645,None,563.2770388000645,None,563.2770388000645,None,563.2770388000645,None,564.2906923000701,None,564.2906923000701,564.7905818999279,,,,,,,,,,,,,,,,008,2022-05-09_15h53.39.424,FishGame,2022.1.1,59.97609350070195,
,29,넌 조용해,3,Orange,B,4.333333333333333,4.166666666666667,ScrollUp,ScrollDown,Orange.png,4,Neutral,Neutral,,,,,0,0,0,0,,,,,,,,,,,,,,,,,,,,,,,,,0,28,28,28,,,,,,,,,,,,,,,,,,,,,,,,,,,,,,,,,,,,,,,,,,,,,,,,,,,,,,,,,,,,,,,,,,,,,1.733024681607882,1.1588012999854982,565.4187705998775,None,ScrollUp,정답입니다,565.4187705998775,None,565.4187705998775,None,565.4187705998775,None,565.4187705998775,None,566.4706562000792,None,566.4706562000792,566.9707599999383,,,,,,,,,,,,,,,,008,2022-05-09_15h53.39.424,FishGame,2022.1.1,59.97609350070195,
,30,넌 다정해,1,Green,A,5.833333333333334,5.7,ScrollDown,ScrollUp,Green.png,4,Positive,Congruent,,,,,0,0,0,0,,,,,,,,,,,,,,,,,,,,,,,,,0,29,29,29,,,,,,,,,,,,,,,,,,,,,,,,,,,,,,,,,,,,,,,,,,,,,,,,,,,,,,,,,,,,,,,,,,,,,1,1.544994299998507,567.5962561999913,None,ScrollDown,정답입니다,567.5962561999913,None,567.5962561999913,None,567.5962561999913,None,567.5962561999913,None,569.0374580000062,None,569.0374580000062,569.5404839999974,,,,,,,,,,,,,,,,008,2022-05-09_15h53.39.424,FishGame,2022.1.1,59.97609350070195,
,31,넌 능력있어,2,Orange,B,6.166666666666666,4.6,ScrollUp,ScrollDown,Orange.png,4,Positive,Incongruent,,,,,0,0,0,0,,,,,,,,,,,,,,,,,,,,,,,,,0,30,30,30,,,,,,,,,,,,,,,,,,,,,,,,,,,,,,,,,,,,,,,,,,,,,,,,,,,,,,,,,,,,,,,,,,,,,1.7345678955316544,1.1952457998413593,570.1604092998896,None,ScrollUp,정답입니다,570.1604092998896,None,570.1604092998896,None,570.1604092998896,None,570.1604092998896,None,571.2570833000354,None,571.2570833000354,571.7542669998948,,,,,,,,,,,,,,,,008,2022-05-09_15h53.39.424,FishGame,2022.1.1,59.97609350070195,
,32,넌 불쾌해,5,Green,A,2.125,1.933333333333333,ScrollDown,ScrollUp,Green.png,4,Negative,Incongruent,,,,,0,0,0,0,,,,,,,,,,,,,,,,,,,,,,,,,0,31,31,31,,,,,,,,,,,,,,,,,,,,,,,,,,,,,,,,,,,,,,,,,,,,,,,,,,,,,,,,,,,,,,,,,,,,,1.1064814925193787,1.4781359999906272,572.3907490998972,None,ScrollDown,정답입니다,572.3907490998972,None,572.3907490998972,None,572.3907490998972,None,572.3907490998972,None,573.7705069000367,None,573.7705069000367,574.2706506000832,,,,,,,,,,,,,,,,008,2022-05-09_15h53.39.424,FishGame,2022.1.1,59.97609350070195,
,33,나를 데려가줘,6,Orange,B,0,0,ScrollDown,ScrollUp,Orange.png,4,NonTarget,NonTarget,,,,,0,0,0,0,,,,,,,,,,,,,,,,,,,,,,,,,0,32,32,32,,,,,,,,,,,,,,,,,,,,,,,,,,,,,,,,,,,,,,,,,,,,,,,,,,,,,,,,,,,,,,,,,,,,,1.0663580298423767,1.2287636999972165,574.8967369000893,None,ScrollDown,정답입니다,574.8967369000893,None,574.8967369000893,None,574.8967369000893,None,574.8967369000893,None,576.0236293999478,None,576.0236293999478,576.5374801999424,,,,,,,,,,,,,,,,008,2022-05-09_15h53.39.424,FishGame,2022.1.1,59.97609350070195,
,34,넌 유순해,3,Green,A,4.458333333333333,5,ScrollDown,ScrollUp,Green.png,4,Neutral,Neutral,,,,,0,0,0,0,,,,,,,,,,,,,,,,,,,,,,,,,0,33,33,33,,,,,,,,,,,,,,,,,,,,,,,,,,,,,,,,,,,,,,,,,,,,,,,,,,,,,,,,,,,,,,,,,,,,,1.0308642089366913,1.3784636000636965,577.1382009999361,None,ScrollDown,정답입니다,577.1382009999361,None,577.1382009999361,None,577.1382009999361,None,577.1382009999361,None,578.4204275999218,None,578.4204275999218,578.9204941000789,,,,,,,,,,,,,,,,008,2022-05-09_15h53.39.424,FishGame,2022.1.1,59.97609350070195,
,35,넌 근심스러워,4,Orange,B,2.708333333333333,3.133333333333333,ScrollUp,ScrollDown,Orange.png,4,Negative,Congruent,,,,,0,0,0,0,,,,,,,,,,,,,,,,,,,,,,,,,0,34,34,34,,,,,,,,,,,,,,,,,,,,,,,,,,,,,,,,,,,,,,,,,,,,,,,,,,,,,,,,,,,,,,,,,,,,,1.5540123445292315,1.4967420999892056,579.5441958999727,None,ScrollUp,정답입니다,579.5441958999727,None,579.5441958999727,None,579.5441958999727,None,579.5441958999727,None,580.9373969999142,None,580.9373969999142,581.4403033000417,,,,,,,,,,,,,,,,008,2022-05-09_15h53.39.424,FishGame,2022.1.1,59.97609350070195,
,36,넌 세련되었어,2,Green,A,5.5,4.6,ScrollDown,ScrollUp,Green.png,4,Positive,Congruent,,,,,0,0,0,0,,,,,,,,,,,,,,,,,,,,,,,,,0,35,35,35,,,,,,,,,,,,,,,,,,,,,,,,,,,,,,,,,,,,,,,,,,,,,,,,,,,,,,,,,,,,,,,,,,,,,1.0524691541989644,0.9765027998946607,582.0651738999877,None,ScrollDown,정답입니다,582.0651738999877,None,582.0651738999877,None,582.0651738999877,None,582.0651738999877,None,582.9371656000149,None,582.9371656000149,583.4401233999524,,,,,,,,,,,,,,,,008,2022-05-09_15h53.39.424,FishGame,2022.1.1,59.97609350070195,
,37,나를 보내줘,6,Green,A,0,0,ScrollUp,ScrollDown,Green.png,4,NonTarget,NonTarget,,,,,0,0,0,0,,,,,,,,,,,,,,,,,,,,,,,,,0,36,36,36,,,,,,,,,,,,,,,,,,,,,,,,,,,,,,,,,,,,,,,,,,,,,,,,,,,,,,,,,,,,,,,,,,,,,1.8209876517454784,1.276696000015363,584.061835499946,None,ScrollUp,정답입니다,584.061835499946,None,584.061835499946,None,584.061835499946,None,584.061835499946,None,585.2372347000055,None,585.2372347000055,585.7400803999044,,,,,,,,,,,,,,,,008,2022-05-09_15h53.39.424,FishGame,2022.1.1,59.97609350070195,
,38,넌 확고해,3,Orange,B,4.708333333333334,4.566666666666666,ScrollUp,ScrollDown,Orange.png,4,Neutral,Neutral,,,,,0,0,0,0,,,,,,,,,,,,,,,,,,,,,,,,,0,37,37,37,,,,,,,,,,,,,,,,,,,,,,,,,,,,,,,,,,,,,,,,,,,,,,,,,,,,,,,,,,,,,,,,,,,,,1.7253086368242898,1.0105089000426233,586.3754175000358,None,ScrollUp,정답입니다,586.3754175000358,None,586.3754175000358,None,586.3754175000358,None,586.3754175000358,None,587.2706134000327,None,587.2706134000327,587.7734181000851,,,,,,,,,,,,,,,,008,2022-05-09_15h53.39.424,FishGame,2022.1.1,59.97609350070195,
,39,넌 이해심이 많아,1,Orange,B,6.041666666666668,5.533333333333333,ScrollUp,ScrollDown,Orange.png,4,Positive,Incongruent,,,,,0,0,0,0,,,,,,,,,,,,,,,,,,,,,,,,,0,38,38,38,,,,,,,,,,,,,,,,,,,,,,,,,,,,,,,,,,,,,,,,,,,,,,,,,,,,,,,,,,,,,,,,,,,,,1.6867284004886947,1.0572489998303354,588.402531000087,None,ScrollUp,정답입니다,588.402531000087,None,588.402531000087,None,588.402531000087,None,588.402531000087,None,589.3535221000202,None,589.3535221000202,589.8535939999856,,,,,,,,,,,,,,,,008,2022-05-09_15h53.39.424,FishGame,2022.1.1,59.97609350070195,
,40,나를 보내줘,6,Green,A,0,0,ScrollUp,ScrollDown,Green.png,4,NonTarget,NonTarget,,,,,0,0,0,0,,,,,,,,,,,,,,,,,,,,,,,,,0,39,39,39,,,,,,,,,,,,,,,,,,,,,,,,,,,,,,,,,,,,,,,,,,,,,,,,,,,,,,,,,,,,,,,,,,,,,1.6882716019948325,1.1279400999192148,590.4729573999066,None,ScrollUp,정답입니다,590.4729573999066,None,590.4729573999066,None,590.4729573999066,None,590.4729573999066,None,591.5035252000671,None,591.5035252000671,592.006842300063,,,,,,,,,,,,,,,,008,2022-05-09_15h53.39.424,FishGame,2022.1.1,59.97609350070195,
,41,넌 거칠어,4,Green,A,2.625,3.033333333333333,ScrollDown,ScrollUp,Green.png,4,Negative,Incongruent,,,,,0,0,0,0,,,,,,,,,,,,,,,,,,,,,,,,,0,40,40,40,,,,,,,,,,,,,,,,,,,,,,,,,,,,,,,,,,,,,,,,,,,,,,,,,,,,,,,,,,,,,,,,,,,,,1,2.1623564001638442,592.6260567998979,None,ScrollDown,정답입니다,592.6260567998979,None,592.6260567998979,None,592.6260567998979,None,592.6260567998979,None,594.6870645000599,None,594.6870645000599,595.1870508999564,,,,,,,,,,,,,,,,008,2022-05-09_15h53.39.424,FishGame,2022.1.1,59.97609350070195,
,42,넌 변덕맞아,5,Orange,B,2.75,2.166666666666667,ScrollUp,ScrollDown,Orange.png,4,Negative,Congruent,,,,,0,0,0,0,,,,,,,,,,,,,,,,,,,,,,,,,0,41,41,41,,,,,,,,,,,,,,,,,,,,,,,,,,,,,,,,,,,,,,,,,,,,,,,,,,,,,,,,,,,,,,,,,,,,,1.6080246890584626,1.0123249997850507,595.8134864999447,None,ScrollUp,정답입니다,595.8134864999447,None,595.8134864999447,None,595.8134864999447,None,595.8134864999447,None,596.7200295000803,None,596.7200295000803,597.2200988000259,,,,,,,,,,,,,,,,008,2022-05-09_15h53.39.424,FishGame,2022.1.1,59.97609350070195,
,43,나를 데려가줘,6,Orange,B,0,0,ScrollDown,ScrollUp,Orange.png,4,NonTarget,NonTarget,,,,,0,0,0,0,,,,,,,,,,,,,,,,,,,,,,,,,0,42,42,42,,,,,,,,,,,,,,,,,,,,,,,,,,,,,,,,,,,,,,,,,,,,,,,,,,,,,,,,,,,,,,,,,,,,,1.0478395124276478,1.21315829991363,597.8388982999604,None,ScrollDown,정답입니다,597.8388982999604,None,597.8388982999604,None,597.8388982999604,None,597.8388982999604,None,598.953668900067,None,598.953668900067,599.4568598999176,,,,,,,,,,,,,,,,008,2022-05-09_15h53.39.424,FishGame,2022.1.1,59.97609350070195,
,44,넌 외로워,4,Orange,B,2.833333333333333,3.3,ScrollUp,ScrollDown,Orange.png,4,Negative,Congruent,,,,,0,0,0,0,,,,,,,,,,,,,,,,,,,,,,,,,0,43,43,43,,,,,,,,,,,,,,,,,,,,,,,,,,,,,,,,,,,,,,,,,,,,,,,,,,,,,,,,,,,,,,,,,,,,,2,1.5451064999215305,600.0790452999063,None,ScrollUp,정답입니다,600.0790452999063,None,600.0790452999063,None,600.0790452999063,None,600.0790452999063,None,601.5230695998762,None,601.5230695998762,602.0231743000913,,,,,,,,,,,,,,,,008,2022-05-09_15h53.39.424,FishGame,2022.1.1,59.97609350070195,
,1,넌 불평스러워,5,Green,A,2.25,2.066666666666667,ScrollDown,ScrollUp,Green.png,5,Negative,Incongruent,,,,,0,0,0,0,,,,,,,,,,,,,,,,,,,,,,,,,,,,,0,0,0,0,,,,,,,,,,,,,,,,,,,,,,,,633.535941200098,635.0360099000391,635.0693409999367,636.0225591000635,636.0559481000528,637.0059261999559,637.0059261999559,None,,,,,,,,,,,,,,,,,,,,,,,,,,,,,,,,,,1,1.292288800003007,638.1240946000908,None,ScrollDown,정답입니다,638.1240946000908,None,638.1240946000908,None,638.1240946000908,None,638.1240946000908,None,639.3193584999535,None,639.3193584999535,639.8193576000631,602.5366489000153,None,602.5366489000153,None,0.6018519,-0.18796296,1,0,0,0.016329350182786584,None,632.5359310999047,None,,,008,2022-05-09_15h53.39.424,FishGame,2022.1.1,59.97609350070195,
,2,나를 보내줘,6,Green,A,0,0,ScrollUp,ScrollDown,Green.png,5,NonTarget,NonTarget,,,,,0,0,0,0,,,,,,,,,,,,,,,,,,,,,,,,,,,,,0,1,1,1,,,,,,,,,,,,,,,,,,,,,,,,,,,,,,,,,,,,,,,,,,,,,,,,,,,,,,,,,,,,,,,,,1.7083333333333335,1.1111218000296503,640.4439862999134,None,ScrollUp,정답입니다,640.4439862999134,None,640.4439862999134,None,640.4439862999134,None,640.4439862999134,None,641.4527274998836,None,641.4527274998836,641.955503199948,,,,,,,,,,,,,,,,008,2022-05-09_15h53.39.424,FishGame,2022.1.1,59.97609350070195,
,3,넌 다재다능해,2,Orange,B,6.208333333333333,4.5,ScrollUp,ScrollDown,Orange.png,5,Positive,Incongruent,,,,,0,0,0,0,,,,,,,,,,,,,,,,,,,,,,,,,,,,,0,2,2,2,,,,,,,,,,,,,,,,,,,,,,,,,,,,,,,,,,,,,,,,,,,,,,,,,,,,,,,,,,,,,,,,,1.6003086442748704,1.0833924999460578,642.570818200009,None,ScrollUp,정답입니다,642.570818200009,None,642.570818200009,None,642.570818200009,None,642.570818200009,None,643.552651300095,None,643.552651300095,644.0553953999188,,,,,,,,,,,,,,,,008,2022-05-09_15h53.39.424,FishGame,2022.1.1,59.97609350070195,
,4,넌 과감해,3,Green,A,4.833333333333334,4.6,ScrollDown,ScrollUp,Green.png,5,Neutral,Neutral,,,,,0,0,0,0,,,,,,,,,,,,,,,,,,,,,,,,,,,,,0,3,3,3,,,,,,,,,,,,,,,,,,,,,,,,,,,,,,,,,,,,,,,,,,,,,,,,,,,,,,,,,,,,,,,,,1.0231481393178303,1.0621177998837084,644.677907000063,None,ScrollDown,정답입니다,644.677907000063,None,644.677907000063,None,644.677907000063,None,644.677907000063,None,645.6358954000752,None,645.6358954000752,646.1359800999053,,,,,,,,,,,,,,,,008,2022-05-09_15h53.39.424,FishGame,2022.1.1,59.97609350070195,
,5,넌 고분고분해,3,Orange,B,3.75,4.033333333333333,ScrollUp,ScrollDown,Orange.png,5,Neutral,Neutral,,,,,0,0,0,0,,,,,,,,,,,,,,,,,,,,,,,,,,,,,0,4,4,4,,,,,,,,,,,,,,,,,,,,,,,,,,,,,,,,,,,,,,,,,,,,,,,,,,,,,,,,,,,,,,,,,1.6219135771195092,1.0647959001362324,646.7554498000536,None,ScrollUp,정답입니다,646.7554498000536,None,646.7554498000536,None,646.7554498000536,None,646.7554498000536,None,647.7192220001016,None,647.7192220001016,648.2192200000864,,,,,,,,,,,,,,,,008,2022-05-09_15h53.39.424,FishGame,2022.1.1,59.97609350070195,
,6,나를 보내줘,6,Green,A,0,0,ScrollUp,ScrollDown,Green.png,5,NonTarget,NonTarget,,,,,0,0,0,0,,,,,,,,,,,,,,,,,,,,,,,,,,,,,0,5,5,5,,,,,,,,,,,,,,,,,,,,,,,,,,,,,,,,,,,,,,,,,,,,,,,,,,,,,,,,,,,,,,,,,1.6666666691501937,1.0935326002072543,648.8451892999001,None,ScrollUp,정답입니다,648.8451892999001,None,648.8451892999001,None,648.8451892999001,None,648.8451892999001,None,649.8355960000772,None,649.8355960000772,650.3356107000727,,,,,,,,,,,,,,,,008,2022-05-09_15h53.39.424,FishGame,2022.1.1,59.97609350070195,
,7,넌 잘 잊어,4,Green,A,3,3.7,ScrollDown,ScrollUp,Green.png,5,Negative,Incongruent,,,,,0,0,0,0,,,,,,,,,,,,,,,,,,,,,,,,,,,,,0,6,6,6,,,,,,,,,,,,,,,,,,,,,,,,,,,,,,,,,,,,,,,,,,,,,,,,,,,,,,,,,,,,,,,,,1,1.0958823999390006,650.9565413000528,None,ScrollDown,정답입니다,650.9565413000528,None,650.9565413000528,None,650.9565413000528,None,650.9565413000528,None,651.9525373000652,None,651.9525373000652,652.4555114998948,,,,,,,,,,,,,,,,008,2022-05-09_15h53.39.424,FishGame,2022.1.1,59.97609350070195,
,8,넌 탐구심이없어,4,Orange,B,2.833333333333333,3.066666666666667,ScrollUp,ScrollDown,Orange.png,5,Negative,Congruent,,,,,0,0,0,0,,,,,,,,,,,,,,,,,,,,,,,,,,,,,0,7,7,7,,,,,,,,,,,,,,,,,,,,,,,,,,,,,,,,,,,,,,,,,,,,,,,,,,,,,,,,,,,,,,,,,1.663580241302649,1.1790605999995023,653.0770703000017,None,ScrollUp,정답입니다,653.0770703000017,None,653.0770703000017,None,653.0770703000017,None,653.0770703000017,None,654.1524296000134,None,654.1524296000134,654.655414900044,,,,,,,,,,,,,,,,008,2022-05-09_15h53.39.424,FishGame,2022.1.1,59.97609350070195,
,9,나를 데려가줘,6,Orange,B,0,0,ScrollDown,ScrollUp,Orange.png,5,NonTarget,NonTarget,,,,,0,0,0,0,,,,,,,,,,,,,,,,,,,,,,,,,,,,,0,8,8,8,,,,,,,,,,,,,,,,,,,,,,,,,,,,,,,,,,,,,,,,,,,,,,,,,,,,,,,,,,,,,,,,,1.0663580298423767,1.1813264000229537,655.2761613999028,None,ScrollDown,정답입니다,655.2761613999028,None,655.2761613999028,None,655.2761613999028,None,655.2761613999028,None,656.3520605999511,None,656.3520605999511,656.8521330000367,,,,,,,,,,,,,,,,008,2022-05-09_15h53.39.424,FishGame,2022.1.1,59.97609350070195,
,10,넌 참되어,2,Green,A,6.041666666666664,4.733333333333333,ScrollDown,ScrollUp,Green.png,5,Positive,Congruent,,,,,0,0,0,0,,,,,,,,,,,,,,,,,,,,,,,,,,,,,0,9,9,9,,,,,,,,,,,,,,,,,,,,,,,,,,,,,,,,,,,,,,,,,,,,,,,,,,,,,,,,,,,,,,,,,1.0987654229005177,1.063243200071156,657.4754254000727,None,ScrollDown,정답입니다,657.4754254000727,None,657.4754254000727,None,657.4754254000727,None,657.4754254000727,None,658.4357219999656,None,658.4357219999656,658.9386692000553,,,,,,,,,,,,,,,,008,2022-05-09_15h53.39.424,FishGame,2022.1.1,59.97609350070195,
,11,넌 생기있어,1,Orange,B,5.875,5.633333333333334,ScrollUp,ScrollDown,Orange.png,5,Positive,Incongruent,,,,,0,0,0,0,,,,,,,,,,,,,,,,,,,,,,,,,,,,,0,10,10,10,,,,,,,,,,,,,,,,,,,,,,,,,,,,,,,,,,,,,,,,,,,,,,,,,,,,,,,,,,,,,,,,,1.699074074625969,1.8950062999501824,659.5629515999462,None,ScrollUp,정답입니다,659.5629515999462,None,659.5629515999462,None,659.5629515999462,None,659.5629515999462,None,661.3523057999555,None,661.3523057999555,661.8522898000665,,,,,,,,,,,,,,,,008,2022-05-09_15h53.39.424,FishGame,2022.1.1,59.97609350070195,
,12,넌 비사교적이야,4,Orange,B,2.875,2.9,ScrollUp,ScrollDown,Orange.png,5,Negative,Congruent,,,,,0,0,0,0,,,,,,,,,,,,,,,,,,,,,,,,,,,,,0,11,11,11,,,,,,,,,,,,,,,,,,,,,,,,,,,,,,,,,,,,,,,,,,,,,,,,,,,,,,,,,,,,,,,,,1.746913582086563,1.5936524998396635,662.478766300017,None,ScrollUp,정답입니다,662.478766300017,None,662.478766300017,None,662.478766300017,None,662.478766300017,None,663.9688846000936,None,663.9688846000936,664.4717667999212,,,,,,,,,,,,,,,,008,2022-05-09_15h53.39.424,FishGame,2022.1.1,59.97609350070195,
,13,나를 데려가줘,6,Orange,B,0,0,ScrollDown,ScrollUp,Orange.png,5,NonTarget,NonTarget,,,,,0,0,0,0,,,,,,,,,,,,,,,,,,,,,,,,,,,,,0,12,12,12,,,,,,,,,,,,,,,,,,,,,,,,,,,,,,,,,,,,,,,,,,,,,,,,,,,,,,,,,,,,,,,,,1,1.2950253000017256,665.0940229000989,None,ScrollDown,정답입니다,665.0940229000989,None,665.0940229000989,None,665.0940229000989,None,665.0940229000989,None,666.2855036000255,None,666.2855036000255,666.7855416999664,,,,,,,,,,,,,,,,008,2022-05-09_15h53.39.424,FishGame,2022.1.1,59.97609350070195,
,14,넌 고독해,4,Green,A,2.916666666666667,3.233333333333333,ScrollDown,ScrollUp,Green.png,5,Negative,Incongruent,,,,,0,0,0,0,,,,,,,,,,,,,,,,,,,,,,,,,,,,,0,13,13,13,,,,,,,,,,,,,,,,,,,,,,,,,,,,,,,,,,,,,,,,,,,,,,,,,,,,,,,,,,,,,,,,,1.1851851791143417,1.191757199820131,667.4095103000291,None,ScrollDown,정답입니다,667.4095103000291,None,667.4095103000291,None,667.4095103000291,None,667.4095103000291,None,668.5021005999297,None,668.5021005999297,669.0018468000926,,,,,,,,,,,,,,,,008,2022-05-09_15h53.39.424,FishGame,2022.1.1,59.97609350070195,
,15,넌 신경질적이야,5,Orange,B,2.375,2.233333333333333,ScrollUp,ScrollDown,Orange.png,5,Negative,Congruent,,,,,0,0,0,0,,,,,,,,,,,,,,,,,,,,,,,,,,,,,0,14,14,14,,,,,,,,,,,,,,,,,,,,,,,,,,,,,,,,,,,,,,,,,,,,,,,,,,,,,,,,,,,,,,,,,1.9660493632157643,1.4130503998603672,669.6281826999038,None,ScrollUp,정답입니다,669.6281826999038,None,669.6281826999038,None,669.6281826999038,None,669.6281826999038,None,670.9351391999517,None,670.9351391999517,671.4384272999596,,,,,,,,,,,,,,,,008,2022-05-09_15h53.39.424,FishGame,2022.1.1,59.97609350070195,
,16,넌 똑똑해,2,Orange,B,5.666666666666667,3.966666666666667,ScrollUp,ScrollDown,Orange.png,5,Positive,Incongruent,,,,,0,0,0,0,,,,,,,,,,,,,,,,,,,,,,,,,,,,,0,15,15,15,,,,,,,,,,,,,,,,,,,,,,,,,,,,,,,,,,,,,,,,,,,,,,,,,,,,,,,,,,,,,,,,,2,2.427907000062987,672.0588928998914,None,ScrollUp,정답입니다,672.0588928998914,None,672.0588928998914,None,672.0588928998914,None,672.0588928998914,None,674.3853291000705,None,674.3853291000705,674.8855884999502,,,,,,,,,,,,,,,,008,2022-05-09_15h53.39.424,FishGame,2022.1.1,59.97609350070195,
,17,나를 보내줘,6,Green,A,0,0,ScrollUp,ScrollDown,Green.png,5,NonTarget,NonTarget,,,,,0,0,0,0,,,,,,,,,,,,,,,,,,,,,,,,,,,,,0,16,16,16,,,,,,,,,,,,,,,,,,,,,,,,,,,,,,,,,,,,,,,,,,,,,,,,,,,,,,,,,,,,,,,,,1.873456800977389,1.2252845999319106,675.5088810001034,None,ScrollUp,정답입니다,675.5088810001034,None,675.5088810001034,None,675.5088810001034,None,675.5088810001034,None,676.6349617999513,None,676.6349617999513,677.135035000043,,,,,,,,,,,,,,,,008,2022-05-09_15h53.39.424,FishGame,2022.1.1,59.97609350070195,
,18,넌 협조적이야,1,Green,A,5.625,5.666666666666667,ScrollDown,ScrollUp,Green.png,5,Positive,Congruent,,,,,0,0,0,0,,,,,,,,,,,,,,,,,,,,,,,,,,,,,0,17,17,17,,,,,,,,,,,,,,,,,,,,,,,,,,,,,,,,,,,,,,,,,,,,,,,,,,,,,,,,,,,,,,,,,1,1.3779138000681996,677.7624144000001,None,ScrollDown,정답입니다,677.7624144000001,None,677.7624144000001,None,677.7624144000001,None,677.7624144000001,None,679.0349395999219,None,679.0349395999219,679.5350369000807,,,,,,,,,,,,,,,,008,2022-05-09_15h53.39.424,FishGame,2022.1.1,59.97609350070195,
,19,나를 데려가줘,6,Orange,B,0,0,ScrollDown,ScrollUp,Orange.png,5,NonTarget,NonTarget,,,,,0,0,0,0,,,,,,,,,,,,,,,,,,,,,,,,,,,,,0,18,18,18,,,,,,,,,,,,,,,,,,,,,,,,,,,,,,,,,,,,,,,,,,,,,,,,,,,,,,,,,,,,,,,,,1,1.2136090998537838,680.1578693999909,None,ScrollDown,정답입니다,680.1578693999909,None,680.1578693999909,None,680.1578693999909,None,680.1578693999909,None,681.2685453000013,None,681.2685453000013,681.7685358999297,,,,,,,,,,,,,,,,008,2022-05-09_15h53.39.424,FishGame,2022.1.1,59.97609350070195,
,20,넌 몰인정해,5,Orange,B,2.541666666666667,2.066666666666667,ScrollUp,ScrollDown,Orange.png,5,Negative,Congruent,,,,,0,0,0,0,,,,,,,,,,,,,,,,,,,,,,,,,,,,,0,19,19,19,,,,,,,,,,,,,,,,,,,,,,,,,,,,,,,,,,,,,,,,,,,,,,,,,,,,,,,,,,,,,,,,,1.746913582086563,2.941414099885151,682.398243600037,None,ScrollUp,정답입니다,682.398243600037,None,682.398243600037,None,682.398243600037,None,682.398243600037,None,685.2347663000692,None,685.2347663000692,685.7348366999067,,,,,,,,,,,,,,,,008,2022-05-09_15h53.39.424,FishGame,2022.1.1,59.97609350070195,
,21,나를 데려가줘,6,Orange,B,0,0,ScrollDown,ScrollUp,Orange.png,5,NonTarget,NonTarget,,,,,0,0,0,0,,,,,,,,,,,,,,,,,,,,,,,,,,,,,0,20,20,20,,,,,,,,,,,,,,,,,,,,,,,,,,,,,,,,,,,,,,,,,,,,,,,,,,,,,,,,,,,,,,,,,1.0648148159186046,1.2115923000965267,686.3547431000043,None,ScrollDown,정답입니다,686.3547431000043,None,686.3547431000043,None,686.3547431000043,None,686.3547431000043,None,687.4684162999038,None,687.4684162999038,687.9713487999979,,,,,,,,,,,,,,,,008,2022-05-09_15h53.39.424,FishGame,2022.1.1,59.97609350070195,
,22,넌 순진해,3,Orange,B,4.125,4.166666666666667,ScrollUp,ScrollDown,Orange.png,5,Neutral,Neutral,,,,,0,0,0,0,,,,,,,,,,,,,,,,,,,,,,,,,,,,,0,21,21,21,,,,,,,,,,,,,,,,,,,,,,,,,,,,,,,,,,,,,,,,,,,,,,,,,,,,,,,,,,,,,,,,,1.6496913532416024,1.1270326999947429,688.5916120000184,None,ScrollUp,정답입니다,688.5916120000184,None,688.5916120000184,None,688.5916120000184,None,688.5916120000184,None,689.6212832001038,None,689.6212832001038,690.1183396000415,,,,,,,,,,,,,,,,008,2022-05-09_15h53.39.424,FishGame,2022.1.1,59.97609350070195,
