name,TrialNum,Word,WordCategory,FishType,WordList,WordValence,WordReputation,CorrectResp,IncorrectResp,FishTypeFile,Round,WordType,Condition,LoopforOrange.thisRepN,LoopforOrange.thisTrialN,LoopforOrange.thisN,LoopforOrange.thisIndex,OrangeInstLoop.thisRepN,OrangeInstLoop.thisTrialN,OrangeInstLoop.thisN,OrangeInstLoop.thisIndex,OrangePrac.thisRepN,OrangePrac.thisTrialN,OrangePrac.thisN,OrangePrac.thisIndex,temp1.thisRepN,temp1.thisTrialN,temp1.thisN,temp1.thisIndex,OrangeRound1.thisRepN,OrangeRound1.thisTrialN,OrangeRound1.thisN,OrangeRound1.thisIndex,OrangeRound2.thisRepN,OrangeRound2.thisTrialN,OrangeRound2.thisN,OrangeRound2.thisIndex,OrangeRound3.thisRepN,OrangeRound3.thisTrialN,OrangeRound3.thisN,OrangeRound3.thisIndex,OrangeRound4.thisRepN,OrangeRound4.thisTrialN,OrangeRound4.thisN,OrangeRound4.thisIndex,OrangeRound5.thisRepN,OrangeRound5.thisTrialN,OrangeRound5.thisN,OrangeRound5.thisIndex,LoopForGreen.thisRepN,LoopForGreen.thisTrialN,LoopForGreen.thisN,LoopForGreen.thisIndex,text_2.started,text_2.stopped,text_3.started,text_3.stopped,key_resp.keys,key_resp.rt,key_resp.started,key_resp.stopped,PassI_2.started,PassI_2.stopped,PassInst_2.keys,PassInst_2.rt,PassInst_2.started,PassInst_2.stopped,mouse_2.x,mouse_2.y,mouse_2.leftButton,mouse_2.midButton,mouse_2.rightButton,mouse_2.started,mouse_2.stopped,image.started,image.stopped,text_5.started,text_5.stopped,text_6.started,text_6.stopped,text_7.started,text_7.stopped,text_8.started,text_8.stopped,slider_2.response,slider_2.rt,slider_2.started,slider_2.stopped,Response_2,Feedback_2,BackGround_2.started,BackGround_2.stopped,Fish_2.started,Fish_2.stopped,WordBox_2.started,WordBox_2.stopped,Words_2.started,Words_2.stopped,BackGround_Feedback_2.started,BackGround_Feedback_2.stopped,Feedbacks_2.started,Feedbacks_2.stopped,Continue_or_not.keys,Continue_or_not.rt,Continue_or_not.started,Continue_or_not.stopped,image_3.started,image_3.stopped,mouse_3.x,mouse_3.y,mouse_3.leftButton,mouse_3.midButton,mouse_3.rightButton,mouse_3.started,mouse_3.stopped,startmain.started,startmain.stopped,slider.response,slider.rt,slider.started,slider.stopped,Response,Feedback,BackGround.started,BackGround.stopped,Fish.started,Fish.stopped,WordBox.started,WordBox.stopped,Words.started,Words.stopped,BackGround_Feedback.started,BackGround_Feedback.stopped,Feedbacks.started,Feedbacks.stopped,text.started,text.stopped,break_interval.started,break_interval.stopped,mouse.x,mouse.y,mouse.leftButton,mouse.midButton,mouse.rightButton,mouse.started,mouse.stopped,stratnextround.started,stratnextround.stopped,endgame.started,endgame.stopped,participant,date,expName,psychopyVersion,frameRate,
,,,,,,,,,,,,,,,,,,,,,,,,,,,,,,,,,,,,,,,,,,,,,,,,,,,,,,19.045114599866793,None,19.045114599866793,None,space,2.790496899979189,19.536235600011423,None,,,,,,,,,,,,,,,,,,,,,,,,,,,,,,,,,,,,,,,,,,,,,,,,,,,,,,,,,,,,,,,,,,,,,,,,,,,,,,,,,,,,,,,,,,009,2022-05-10_11h08.19.420,FishGame,2022.1.1,59.91399944598588,
물고기과제_instruction(참가자용)OrangeVersion.mp4,,,,,,,,,,,,,,0,0,0,0,0,0,0,0,,,,,,,,,,,,,,,,,,,,,,,,,,,,,,,,,,,,,,,,,93.94595679990016,None,n,2.084060600027442,93.94595679990016,None,,,,,,,,,,,,,,,,,,,,,,,,,,,,,,,,,,,,,,,,,,,,,,,,,,,,,,,,,,,,,,,,,,,,,,,,,,,,,,,,,,,,009,2022-05-10_11h08.19.420,FishGame,2022.1.1,59.91399944598588,
,1,넌 교활해,5,Green,B,2.333333333333333,2.133333333333333,ScrollUp,ScrollDown,Green.png,practice,,,0,0,0,0,,,,,0,0,0,0,0,0,0,0,,,,,,,,,,,,,,,,,,,,,,,,,,,,,,,,,,,,,,,0.022222223,-0.2361111,1,0,0,0.5129051099065691,None,96.06229519983754,None,101.04580289986916,102.54809840000235,102.5790881998837,103.5291687999852,103.57902719988488,104.5315870998893,104.5315870998893,None,1.5709876542290053,1.9364961001556367,105.8332008998841,None,ScrollUp,정답입니다,105.8332008998841,None,105.8332008998841,None,105.8332008998841,None,105.8332008998841,None,107.47897719987668,None,107.47897719987668,107.97919779992662,,,,,,,,,,,,,,,,,,,,,,,,,,,,,,,,,,,,,,,,,,,,,,,,,009,2022-05-10_11h08.19.420,FishGame,2022.1.1,59.91399944598588,
,2,넌 슬기로워,2,Orange,A,6.166666666666667,4.1,ScrollDown,ScrollUp,Orange.png,practice,,,0,0,0,0,,,,,0,0,0,0,0,1,1,1,,,,,,,,,,,,,,,,,,,,,,,,,,,,,,,,,,,,,,,,,,,,,,,,,,,,,,,,1.0138889054457347,2.028031999943778,108.6037763999775,None,ScrollDown,정답입니다,108.6037763999775,None,108.6037763999775,None,108.6037763999775,None,108.6037763999775,None,110.52894479990937,None,110.52894479990937,111.03101269993931,,,,,,,,,,,,,,,,,,,,,,,,,,,,,,,,,,,,,,,,,,,,,,,,,009,2022-05-10_11h08.19.420,FishGame,2022.1.1,59.91399944598588,
,3,나를 보내줘,6,Orange,A,0,0,ScrollUp,ScrollDown,Orange.png,practice,,,0,0,0,0,,,,,0,0,0,0,0,2,2,2,,,,,,,,,,,,,,,,,,,,,,,,,,,,,,,,,,,,,,,,,,,,,,,,,,,,,,,,1.6558641965190568,1.2465427999850363,111.65227109985426,None,ScrollUp,정답입니다,111.65227109985426,None,111.65227109985426,None,111.65227109985426,None,111.65227109985426,None,112.79552239994518,None,112.79552239994518,113.29550109989941,,,,,,,,,,,,,,,,,,,,,,,,,,,,,,,,,,,,,,,,,,,,,,,,,009,2022-05-10_11h08.19.420,FishGame,2022.1.1,59.91399944598588,
,4,나를 데려가줘,6,Green,B,0,0,ScrollDown,ScrollUp,Green.png,practice,,,0,0,0,0,,,,,0,0,0,0,0,3,3,3,,,,,,,,,,,,,,,,,,,,,,,,,,,,,,,,,,,,,,,,,,,,,,,,,,,,,,,,1.1990740795930226,1.077995200175792,113.9130567999091,None,ScrollDown,정답입니다,113.9130567999091,None,113.9130567999091,None,113.9130567999091,None,113.9130567999091,None,114.89543789997697,None,114.89543789997697,115.39769579982385,,,,,,,,,,,,,,,,,,,,,,,,,,,,,,,,,,,,,,,,,,,,,,,,,009,2022-05-10_11h08.19.420,FishGame,2022.1.1,59.91399944598588,
,1,넌 교활해,5,Green,B,2.333333333333333,2.133333333333333,ScrollUp,ScrollDown,Green.png,practice,,,0,0,0,0,,,,,0,0,0,0,,,,,,,,,,,,,,,,,,,,,,,,,,,,,,,,,,,,,,,,,,,,,,,,,,,,,,,,,,,,,,,,,,,,,,,,,,,,,,n,6.612866899929941,115.89762249984778,None,115.89762249984778,None,,,,,,,,,,,,,,,,,,,,,,,,,,,,,,,,,,,,,,,,,,,009,2022-05-10_11h08.19.420,FishGame,2022.1.1,59.91399944598588,
,1,넌 따뜻해,1,Green,B,6.083333333333333,5.6,ScrollUp,ScrollDown,Green.png,1,Positive,Incongruent,0,0,0,0,,,,,,,,,,,,,0,0,0,0,,,,,,,,,,,,,,,,,,,,,,,,,,,,,,,,,,,,,,,,,,,,128.07856639986858,129.58092339988798,129.61185079999268,130.56414719996974,130.61421799985692,131.58084689988755,131.56178969983011,None,,,,,,,,,,,,,,,,,,,,,,,,,0.0027777778,-0.11851852,1,0,0,0.31590901012532413,None,122.53069529985078,None,1.7453703681627908,1.6106562002096325,132.86486470000818,None,ScrollUp,정답입니다,132.86486470000818,None,132.86486470000818,None,132.86486470000818,None,132.86486470000818,None,134.1783129000105,None,134.1783129000105,134.67841279995628,,,,,,,,,,,,,,,,009,2022-05-10_11h08.19.420,FishGame,2022.1.1,59.91399944598588,
,2,넌 기품있어,2,Green,B,5.791666666666668,4.5,ScrollUp,ScrollDown,Green.png,1,Positive,Incongruent,0,0,0,0,,,,,,,,,,,,,0,1,1,1,,,,,,,,,,,,,,,,,,,,,,,,,,,,,,,,,,,,,,,,,,,,,,,,,,,,,,,,,,,,,,,,,,,,,,,,,,,,,,,,,,,,,1.6944444452722869,0.9609942999668419,135.31461189989932,None,ScrollUp,정답입니다,135.31461189989932,None,135.31461189989932,None,135.31461189989932,None,135.31461189989932,None,136.16166269988753,None,136.16166269988753,136.66390789998695,,,,,,,,,,,,,,,,009,2022-05-10_11h08.19.420,FishGame,2022.1.1,59.91399944598588,
,3,나를 보내줘,6,Orange,A,0,0,ScrollUp,ScrollDown,Orange.png,1,NonTarget,NonTarget,0,0,0,0,,,,,,,,,,,,,0,2,2,2,,,,,,,,,,,,,,,,,,,,,,,,,,,,,,,,,,,,,,,,,,,,,,,,,,,,,,,,,,,,,,,,,,,,,,,,,,,,,,,,,,,,,1.746913582086563,1.0588829999323934,137.2966644000262,None,ScrollUp,정답입니다,137.2966644000262,None,137.2966644000262,None,137.2966644000262,None,137.2966644000262,None,138.24488150002435,None,138.24488150002435,138.74495829991065,,,,,,,,,,,,,,,,009,2022-05-10_11h08.19.420,FishGame,2022.1.1,59.91399944598588,
,4,넌 수동적이야,4,Orange,A,2.833333333333333,2.933333333333333,ScrollDown,ScrollUp,Orange.png,1,Negative,Incongruent,0,0,0,0,,,,,,,,,,,,,0,3,3,3,,,,,,,,,,,,,,,,,,,,,,,,,,,,,,,,,,,,,,,,,,,,,,,,,,,,,,,,,,,,,,,,,,,,,,,,,,,,,,,,,,,,,1.1327160547176998,1.3613807000219822,139.37581059988588,None,ScrollDown,정답입니다,139.37581059988588,None,139.37581059988588,None,139.37581059988588,None,139.37581059988588,None,140.62822950002737,None,140.62822950002737,141.12825439986773,,,,,,,,,,,,,,,,009,2022-05-10_11h08.19.420,FishGame,2022.1.1,59.91399944598588,
,5,넌 사심이 없어,3,Green,B,4.916666666666666,4.333333333333333,ScrollUp,ScrollDown,Green.png,1,Neutral,Neutral,0,0,0,0,,,,,,,,,,,,,0,4,4,4,,,,,,,,,,,,,,,,,,,,,,,,,,,,,,,,,,,,,,,,,,,,,,,,,,,,,,,,,,,,,,,,,,,,,,,,,,,,,,,,,,,,,1.5833333345750966,0.9923301001545042,141.75625459989533,None,ScrollUp,정답입니다,141.75625459989533,None,141.75625459989533,None,141.75625459989533,None,141.75625459989533,None,142.6447903998196,None,142.6447903998196,143.14714320003986,,,,,,,,,,,,,,,,009,2022-05-10_11h08.19.420,FishGame,2022.1.1,59.91399944598588,
,6,넌 헤퍼,5,Orange,A,2.458333333333334,2.233333333333333,ScrollDown,ScrollUp,Orange.png,1,Negative,Incongruent,0,0,0,0,,,,,,,,,,,,,0,5,5,5,,,,,,,,,,,,,,,,,,,,,,,,,,,,,,,,,,,,,,,,,,,,,,,,,,,,,,,,,,,,,,,,,,,,,,,,,,,,,,,,,,,,,1.248456800977389,0.9281756998971105,143.77515839994885,None,ScrollDown,정답입니다,143.77515839994885,None,143.77515839994885,None,143.77515839994885,None,143.77515839994885,None,144.5947936999146,None,144.5947936999146,145.09701010002755,,,,,,,,,,,,,,,,009,2022-05-10_11h08.19.420,FishGame,2022.1.1,59.91399944598588,
,7,넌 말쑥해,3,Orange,A,4.833333333333334,4.333333333333333,ScrollDown,ScrollUp,Orange.png,1,Neutral,Neutral,0,0,0,0,,,,,,,,,,,,,0,6,6,6,,,,,,,,,,,,,,,,,,,,,,,,,,,,,,,,,,,,,,,,,,,,,,,,,,,,,,,,,,,,,,,,,,,,,,,,,,,,,,,,,,,,,1.2268518557151158,1.3888906000647694,145.7206973999273,None,ScrollDown,정답입니다,145.7206973999273,None,145.7206973999273,None,145.7206973999273,None,145.7206973999273,None,147.00670109991916,None,147.00670109991916,147.51122389989905,,,,,,,,,,,,,,,,009,2022-05-10_11h08.19.420,FishGame,2022.1.1,59.91399944598588,
,8,넌 투덜거려,5,Green,B,2.541666666666667,2.266666666666667,ScrollUp,ScrollDown,Green.png,1,Negative,Congruent,0,0,0,0,,,,,,,,,,,,,0,7,7,7,,,,,,,,,,,,,,,,,,,,,,,,,,,,,,,,,,,,,,,,,,,,,,,,,,,,,,,,,,,,,,,,,,,,,,,,,,,,,,,,,,,,,1.8672839452823002,0.8944987999275327,148.13325600000098,None,ScrollUp,정답입니다,148.13325600000098,None,148.13325600000098,None,148.13325600000098,None,148.13325600000098,None,148.92781189992093,None,148.92781189992093,149.42789329984225,,,,,,,,,,,,,,,,009,2022-05-10_11h08.19.420,FishGame,2022.1.1,59.91399944598588,
,9,넌 적극적이야,1,Orange,A,5.708333333333333,5.533333333333333,ScrollDown,ScrollUp,Orange.png,1,Positive,Congruent,0,0,0,0,,,,,,,,,,,,,0,8,8,8,,,,,,,,,,,,,,,,,,,,,,,,,,,,,,,,,,,,,,,,,,,,,,,,,,,,,,,,,,,,,,,,,,,,,,,,,,,,,,,,,,,,,1,0.859468299895525,150.05436680000275,None,ScrollDown,정답입니다,150.05436680000275,None,150.05436680000275,None,150.05436680000275,None,150.05436680000275,None,150.81143849994987,None,150.81143849994987,151.31370599986985,,,,,,,,,,,,,,,,009,2022-05-10_11h08.19.420,FishGame,2022.1.1,59.91399944598588,
,10,넌 재미없어,4,Green,B,2.625,2.966666666666667,ScrollUp,ScrollDown,Green.png,1,Negative,Congruent,0,0,0,0,,,,,,,,,,,,,0,9,9,9,,,,,,,,,,,,,,,,,,,,,,,,,,,,,,,,,,,,,,,,,,,,,,,,,,,,,,,,,,,,,,,,,,,,,,,,,,,,,,,,,,,,,1.919753094514211,0.8590144999325275,151.93847409985028,None,ScrollUp,정답입니다,151.93847409985028,None,151.93847409985028,None,151.93847409985028,None,151.93847409985028,None,152.69433519989252,None,152.69433519989252,153.19445650000125,,,,,,,,,,,,,,,,009,2022-05-10_11h08.19.420,FishGame,2022.1.1,59.91399944598588,
,11,넌 명석해,2,Orange,A,5.875,4.033333333333333,ScrollDown,ScrollUp,Orange.png,1,Positive,Congruent,0,0,0,0,,,,,,,,,,,,,0,10,10,10,,,,,,,,,,,,,,,,,,,,,,,,,,,,,,,,,,,,,,,,,,,,,,,,,,,,,,,,,,,,,,,,,,,,,,,,,,,,,,,,,,,,,1,0.8278353998903185,153.81671239994466,None,ScrollDown,정답입니다,153.81671239994466,None,153.81671239994466,None,153.81671239994466,None,153.81671239994466,None,154.54435879993252,None,154.54435879993252,155.0449321998749,,,,,,,,,,,,,,,,009,2022-05-10_11h08.19.420,FishGame,2022.1.1,59.91399944598588,
,12,나를 데려가줘,6,Green,B,0,0,ScrollDown,ScrollUp,Green.png,1,NonTarget,NonTarget,0,0,0,0,,,,,,,,,,,,,0,11,11,11,,,,,,,,,,,,,,,,,,,,,,,,,,,,,,,,,,,,,,,,,,,,,,,,,,,,,,,,,,,,,,,,,,,,,,,,,,,,,,,,,,,,,1,1.4803631000686437,155.66583039984107,None,ScrollDown,정답입니다,155.66583039984107,None,155.66583039984107,None,155.66583039984107,None,155.66583039984107,None,157.0468568999786,None,157.0468568999786,157.544620399829,,,,,,,,,,,,,,,,009,2022-05-10_11h08.19.420,FishGame,2022.1.1,59.91399944598588,
,13,넌 소심해,4,Orange,A,3,3.1,ScrollDown,ScrollUp,Orange.png,1,Negative,Incongruent,0,0,0,0,,,,,,,,,,,,,0,12,12,12,,,,,,,,,,,,,,,,,,,,,,,,,,,,,,,,,,,,,,,,,,,,,,,,,,,,,,,,,,,,,,,,,,,,,,,,,,,,,,,,,,,,,1,0.9593807000201195,158.18501330004074,None,ScrollDown,정답입니다,158.18501330004074,None,158.18501330004074,None,158.18501330004074,None,158.18501330004074,None,159.044540300034,None,159.044540300034,159.54460279992782,,,,,,,,,,,,,,,,009,2022-05-10_11h08.19.420,FishGame,2022.1.1,59.91399944598588,
,14,넌 합리적이야,2,Orange,A,5.583333333333333,4.733333333333333,ScrollDown,ScrollUp,Orange.png,1,Positive,Congruent,0,0,0,0,,,,,,,,,,,,,0,13,13,13,,,,,,,,,,,,,,,,,,,,,,,,,,,,,,,,,,,,,,,,,,,,,,,,,,,,,,,,,,,,,,,,,,,,,,,,,,,,,,,,,,,,,1.174382706483205,0.9121468998491764,160.17604259983636,None,ScrollDown,정답입니다,160.17604259983636,None,160.17604259983636,None,160.17604259983636,None,160.17604259983636,None,160.97774340002798,None,160.97774340002798,161.4779225999955,,,,,,,,,,,,,,,,009,2022-05-10_11h08.19.420,FishGame,2022.1.1,59.91399944598588,
,15,넌 무자비해,5,Green,B,2.333333333333333,2.1,ScrollUp,ScrollDown,Green.png,1,Negative,Congruent,0,0,0,0,,,,,,,,,,,,,0,14,14,14,,,,,,,,,,,,,,,,,,,,,,,,,,,,,,,,,,,,,,,,,,,,,,,,,,,,,,,,,,,,,,,,,,,,,,,,,,,,,,,,,,,,,1.67746914178133,0.9449684999417514,162.10735780000687,None,ScrollUp,정답입니다,162.10735780000687,None,162.10735780000687,None,162.10735780000687,None,162.10735780000687,None,162.94441229989752,None,162.94441229989752,163.4468847999815,,,,,,,,,,,,,,,,009,2022-05-10_11h08.19.420,FishGame,2022.1.1,59.91399944598588,
,16,나를 보내줘,6,Orange,A,0,0,ScrollUp,ScrollDown,Orange.png,1,NonTarget,NonTarget,0,0,0,0,,,,,,,,,,,,,0,15,15,15,,,,,,,,,,,,,,,,,,,,,,,,,,,,,,,,,,,,,,,,,,,,,,,,,,,,,,,,,,,,,,,,,,,,,,,,,,,,,,,,,,,,,1.5540123445292315,1.0616830000653863,164.06401129998267,None,ScrollUp,정답입니다,164.06401129998267,None,164.06401129998267,None,164.06401129998267,None,164.06401129998267,None,165.0277333999984,None,165.0277333999984,165.52772699994966,,,,,,,,,,,,,,,,009,2022-05-10_11h08.19.420,FishGame,2022.1.1,59.91399944598588,
,17,넌 현실적이야,3,Green,B,4.608695652173913,4.766666666666667,ScrollUp,ScrollDown,Green.png,1,Neutral,Neutral,0,0,0,0,,,,,,,,,,,,,0,16,16,16,,,,,,,,,,,,,,,,,,,,,,,,,,,,,,,,,,,,,,,,,,,,,,,,,,,,,,,,,,,,,,,,,,,,,,,,,,,,,,,,,,,,,1.4691358022391796,1.044812399893999,166.1485209998209,None,NoResponse,무응답입니다,166.1485209998209,None,166.1485209998209,None,166.1485209998209,None,166.1485209998209,None,167.09499699994922,None,167.09499699994922,167.5944135999307,,,,,,,,,,,,,,,,009,2022-05-10_11h08.19.420,FishGame,2022.1.1,59.91399944598588,
,18,넌 의리있어,1,Green,B,5.833333333333334,5.633333333333334,ScrollUp,ScrollDown,Green.png,1,Positive,Incongruent,0,0,0,0,,,,,,,,,,,,,0,17,17,17,,,,,,,,,,,,,,,,,,,,,,,,,,,,,,,,,,,,,,,,,,,,,,,,,,,,,,,,,,,,,,,,,,,,,,,,,,,,,,,,,,,,,1.604938273628553,0.8089497999753803,168.22345949988812,None,ScrollUp,정답입니다,168.22345949988812,None,168.22345949988812,None,168.22345949988812,None,168.22345949988812,None,168.92766779987141,None,168.92766779987141,169.42982700001448,,,,,,,,,,,,,,,,009,2022-05-10_11h08.19.420,FishGame,2022.1.1,59.91399944598588,
,19,넌 신경과민이야,5,Orange,A,2.541666666666667,2.166666666666667,ScrollDown,ScrollUp,Orange.png,1,Negative,Incongruent,0,0,0,0,,,,,,,,,,,,,0,18,18,18,,,,,,,,,,,,,,,,,,,,,,,,,,,,,,,,,,,,,,,,,,,,,,,,,,,,,,,,,,,,,,,,,,,,,,,,,,,,,,,,,,,,,1.140432099501292,0.794868899974972,170.05566670000553,None,ScrollDown,정답입니다,170.05566670000553,None,170.05566670000553,None,170.05566670000553,None,170.05566670000553,None,170.74431380000897,None,170.74431380000897,171.24642680003308,,,,,,,,,,,,,,,,009,2022-05-10_11h08.19.420,FishGame,2022.1.1,59.91399944598588,
,20,넌 편안해,1,Orange,A,5.916666666666666,5.866666666666666,ScrollDown,ScrollUp,Orange.png,1,Positive,Congruent,0,0,0,0,,,,,,,,,,,,,0,19,19,19,,,,,,,,,,,,,,,,,,,,,,,,,,,,,,,,,,,,,,,,,,,,,,,,,,,,,,,,,,,,,,,,,,,,,,,,,,,,,,,,,,,,,1.0740740497907002,0.7289559000637382,171.87517919996753,None,ScrollDown,정답입니다,171.87517919996753,None,171.87517919996753,None,171.87517919996753,None,171.87517919996753,None,172.49419400002807,None,172.49419400002807,172.994290899951,,,,,,,,,,,,,,,,009,2022-05-10_11h08.19.420,FishGame,2022.1.1,59.91399944598588,
,21,넌 품위있어,2,Green,B,5.291666666666666,4.466666666666667,ScrollUp,ScrollDown,Green.png,1,Positive,Incongruent,0,0,0,0,,,,,,,,,,,,,0,20,20,20,,,,,,,,,,,,,,,,,,,,,,,,,,,,,,,,,,,,,,,,,,,,,,,,,,,,,,,,,,,,,,,,,,,,,,,,,,,,,,,,,,,,,1.7901234477758408,0.8447124999947846,173.6297188999597,None,ScrollUp,정답입니다,173.6297188999597,None,173.6297188999597,None,173.6297188999597,None,173.6297188999597,None,174.36088239983656,None,174.36088239983656,174.86315310001373,,,,,,,,,,,,,,,,009,2022-05-10_11h08.19.420,FishGame,2022.1.1,59.91399944598588,
,22,넌 빈틈없어,3,Orange,A,4.833333333333333,3.966666666666667,ScrollDown,ScrollUp,Orange.png,1,Neutral,Neutral,0,0,0,0,,,,,,,,,,,,,0,21,21,21,,,,,,,,,,,,,,,,,,,,,,,,,,,,,,,,,,,,,,,,,,,,,,,,,,,,,,,,,,,,,,,,,,,,,,,,,,,,,,,,,,,,,1.3487654328346252,0.7334022000432014,175.48078679991886,None,ScrollDown,정답입니다,175.48078679991886,None,175.48078679991886,None,175.48078679991886,None,175.48078679991886,None,176.1107381999027,None,176.1107381999027,176.61081899981946,,,,,,,,,,,,,,,,009,2022-05-10_11h08.19.420,FishGame,2022.1.1,59.91399944598588,
,23,넌 상상력없어,4,Green,B,2.833333333333333,3.133333333333333,ScrollUp,ScrollDown,Green.png,1,Negative,Congruent,0,0,0,0,,,,,,,,,,,,,0,22,22,22,,,,,,,,,,,,,,,,,,,,,,,,,,,,,,,,,,,,,,,,,,,,,,,,,,,,,,,,,,,,,,,,,,,,,,,,,,,,,,,,,,,,,1.8564814726511638,0.827870599925518,177.23337000003085,None,ScrollUp,정답입니다,177.23337000003085,None,177.23337000003085,None,177.23337000003085,None,177.23337000003085,None,177.96059899986722,None,177.96059899986722,178.46082609985024,,,,,,,,,,,,,,,,009,2022-05-10_11h08.19.420,FishGame,2022.1.1,59.91399944598588,
,24,넌 지혜로워,2,Green,B,6.333333333333334,4.633333333333334,ScrollUp,ScrollDown,Green.png,1,Positive,Incongruent,0,0,0,0,,,,,,,,,,,,,0,23,23,23,,,,,,,,,,,,,,,,,,,,,,,,,,,,,,,,,,,,,,,,,,,,,,,,,,,,,,,,,,,,,,,,,,,,,,,,,,,,,,,,,,,,,1.6682098706563315,0.7299087999854237,179.08378529991023,None,ScrollUp,정답입니다,179.08378529991023,None,179.08378529991023,None,179.08378529991023,None,179.08378529991023,None,179.71082629985176,None,179.71082629985176,180.21075810003094,,,,,,,,,,,,,,,,009,2022-05-10_11h08.19.420,FishGame,2022.1.1,59.91399944598588,
,25,넌 시끄러워,4,Orange,A,2.833333333333333,3.033333333333333,ScrollDown,ScrollUp,Orange.png,1,Negative,Incongruent,0,0,0,0,,,,,,,,,,,,,0,24,24,24,,,,,,,,,,,,,,,,,,,,,,,,,,,,,,,,,,,,,,,,,,,,,,,,,,,,,,,,,,,,,,,,,,,,,,,,,,,,,,,,,,,,,1.2592592487732568,1.3294289999175817,180.83579209982418,None,ScrollDown,정답입니다,180.83579209982418,None,180.83579209982418,None,180.83579209982418,None,180.83579209982418,None,182.06072889990173,None,182.06072889990173,182.56065110000782,,,,,,,,,,,,,,,,009,2022-05-10_11h08.19.420,FishGame,2022.1.1,59.91399944598588,
,26,넌 만사태평이야,3,Green,B,4,4.333333333333333,ScrollUp,ScrollDown,Green.png,1,Neutral,Neutral,0,0,0,0,,,,,,,,,,,,,0,25,25,25,,,,,,,,,,,,,,,,,,,,,,,,,,,,,,,,,,,,,,,,,,,,,,,,,,,,,,,,,,,,,,,,,,,,,,,,,,,,,,,,,,,,,1.8287036965290706,0.7110011000186205,183.18744109990075,None,ScrollUp,정답입니다,183.18744109990075,None,183.18744109990075,None,183.18744109990075,None,183.18744109990075,None,183.79403740004636,None,183.79403740004636,184.29400889994577,,,,,,,,,,,,,,,,009,2022-05-10_11h08.19.420,FishGame,2022.1.1,59.91399944598588,
,27,넌 붙임성있어,1,Orange,A,5.708333333333333,5.633333333333334,ScrollDown,ScrollUp,Orange.png,1,Positive,Congruent,0,0,0,0,,,,,,,,,,,,,0,26,26,26,,,,,,,,,,,,,,,,,,,,,,,,,,,,,,,,,,,,,,,,,,,,,,,,,,,,,,,,,,,,,,,,,,,,,,,,,,,,,,,,,,,,,1.016975333293279,0.7949429999571294,184.91814469988458,None,ScrollDown,정답입니다,184.91814469988458,None,184.91814469988458,None,184.91814469988458,None,184.91814469988458,None,185.61054559983313,None,185.61054559983313,186.1106209999416,,,,,,,,,,,,,,,,009,2022-05-10_11h08.19.420,FishGame,2022.1.1,59.91399944598588,
,28,넌 영리해,2,Orange,A,6,4.033333333333333,ScrollDown,ScrollUp,Orange.png,1,Positive,Congruent,0,0,0,0,,,,,,,,,,,,,0,27,27,27,,,,,,,,,,,,,,,,,,,,,,,,,,,,,,,,,,,,,,,,,,,,,,,,,,,,,,,,,,,,,,,,,,,,,,,,,,,,,,,,,,,,,1.2114197413126628,0.8122503999620676,186.73048599995673,None,ScrollDown,정답입니다,186.73048599995673,None,186.73048599995673,None,186.73048599995673,None,186.73048599995673,None,187.44372870004736,None,187.44372870004736,187.9440899998881,,,,,,,,,,,,,,,,009,2022-05-10_11h08.19.420,FishGame,2022.1.1,59.91399944598588,
,29,넌 열심이야,1,Green,B,6.041666666666667,5.833333333333333,ScrollUp,ScrollDown,Green.png,1,Positive,Incongruent,0,0,0,0,,,,,,,,,,,,,0,28,28,28,,,,,,,,,,,,,,,,,,,,,,,,,,,,,,,,,,,,,,,,,,,,,,,,,,,,,,,,,,,,,,,,,,,,,,,,,,,,,,,,,,,,,1.7839506169160206,0.8799383000005037,188.57278189994395,None,ScrollUp,정답입니다,188.57278189994395,None,188.57278189994395,None,188.57278189994395,None,188.57278189994395,None,189.34391899988987,None,189.34391899988987,189.843959499849,,,,,,,,,,,,,,,,009,2022-05-10_11h08.19.420,FishGame,2022.1.1,59.91399944598588,
,30,넌 인기없어,4,Green,B,3,3.3,ScrollUp,ScrollDown,Green.png,1,Negative,Congruent,0,0,0,0,,,,,,,,,,,,,0,29,29,29,,,,,,,,,,,,,,,,,,,,,,,,,,,,,,,,,,,,,,,,,,,,,,,,,,,,,,,,,,,,,,,,,,,,,,,,,,,,,,,,,,,,,2,0.727562699932605,190.47520440001972,None,ScrollUp,정답입니다,190.47520440001972,None,190.47520440001972,None,190.47520440001972,None,190.47520440001972,None,191.09353359998204,None,191.09353359998204,191.5936195999384,,,,,,,,,,,,,,,,009,2022-05-10_11h08.19.420,FishGame,2022.1.1,59.91399944598588,
,31,넌 익살스러워,3,Orange,A,4.708333333333334,4.833333333333333,ScrollDown,ScrollUp,Orange.png,1,Neutral,Neutral,0,0,0,0,,,,,,,,,,,,,0,30,30,30,,,,,,,,,,,,,,,,,,,,,,,,,,,,,,,,,,,,,,,,,,,,,,,,,,,,,,,,,,,,,,,,,,,,,,,,,,,,,,,,,,,,,1,0.7448358999099582,192.21820549992844,None,ScrollDown,정답입니다,192.21820549992844,None,192.21820549992844,None,192.21820549992844,None,192.21820549992844,None,192.86023309989832,None,192.86023309989832,193.36270589986816,,,,,,,,,,,,,,,,009,2022-05-10_11h08.19.420,FishGame,2022.1.1,59.91399944598588,
,32,넌 이기적이야,5,Green,B,2.291666666666667,2.333333333333333,ScrollUp,ScrollDown,Green.png,1,Negative,Congruent,0,0,0,0,,,,,,,,,,,,,0,31,31,31,,,,,,,,,,,,,,,,,,,,,,,,,,,,,,,,,,,,,,,,,,,,,,,,,,,,,,,,,,,,,,,,,,,,,,,,,,,,,,,,,,,,,1.8364197413126628,0.8759939998853952,193.98706529987976,None,ScrollUp,정답입니다,193.98706529987976,None,193.98706529987976,None,193.98706529987976,None,193.98706529987976,None,194.76050419989042,None,194.76050419989042,195.2627248999197,,,,,,,,,,,,,,,,009,2022-05-10_11h08.19.420,FishGame,2022.1.1,59.91399944598588,
,33,나를 데려가줘,6,Green,B,0,0,ScrollDown,ScrollUp,Green.png,1,NonTarget,NonTarget,0,0,0,0,,,,,,,,,,,,,0,32,32,32,,,,,,,,,,,,,,,,,,,,,,,,,,,,,,,,,,,,,,,,,,,,,,,,,,,,,,,,,,,,,,,,,,,,,,,,,,,,,,,,,,,,,1.174382706483205,0.8281032000668347,195.88318079989403,None,ScrollDown,정답입니다,195.88318079989403,None,195.88318079989403,None,195.88318079989403,None,195.88318079989403,None,196.61046430002898,None,196.61046430002898,197.11046210001223,,,,,,,,,,,,,,,,009,2022-05-10_11h08.19.420,FishGame,2022.1.1,59.91399944598588,
,34,넌 기회주의자야,5,Orange,A,2.875,2.133333333333333,ScrollDown,ScrollUp,Orange.png,1,Negative,Incongruent,0,0,0,0,,,,,,,,,,,,,0,33,33,33,,,,,,,,,,,,,,,,,,,,,,,,,,,,,,,,,,,,,,,,,,,,,,,,,,,,,,,,,,,,,,,,,,,,,,,,,,,,,,,,,,,,,1.0447530845801036,0.9279197999276221,197.7561061999295,None,ScrollDown,정답입니다,197.7561061999295,None,197.7561061999295,None,197.7561061999295,None,197.7561061999295,None,198.56251509999856,None,198.56251509999856,199.0792643998284,,,,,,,,,,,,,,,,009,2022-05-10_11h08.19.420,FishGame,2022.1.1,59.91399944598588,
,1,넌 미성숙해,4,Orange,A,3,3.2,ScrollDown,ScrollUp,Orange.png,2,Negative,Incongruent,0,0,0,0,,,,,,,,,,,,,,,,,0,0,0,0,,,,,,,,,,,,,,,,,,,,,,,,,,,,,,,,,,,,,,,,232.5762763998937,234.07629069988616,234.10965289990418,235.05954459984787,235.10961339995265,236.05946409981698,236.04841169994324,None,,,,,,,,,,,,,,,,,,,,,,,,,,,,,,,,,,1.2361111144224803,1.0499384999275208,237.16475409991108,None,ScrollDown,정답입니다,237.16475409991108,None,237.16475409991108,None,237.16475409991108,None,237.16475409991108,None,238.1095257999841,None,238.1095257999841,238.6095725998748,199.57701719994657,None,199.57701719994657,None,0.05648148,-0.106481485,1,0,0,0.016121910186484456,None,229.57634919998236,None,,,009,2022-05-10_11h08.19.420,FishGame,2022.1.1,59.91399944598588,
,2,넌 반사회적이야,5,Green,B,2.416666666666667,2.033333333333333,ScrollUp,ScrollDown,Green.png,2,Negative,Congruent,0,0,0,0,,,,,,,,,,,,,,,,,0,1,1,1,,,,,,,,,,,,,,,,,,,,,,,,,,,,,,,,,,,,,,,,,,,,,,,,,,,,,,,,,,,,,,,,,,,,,,,,,,,,,,,,,1.7762345721324284,0.9107099000830203,239.2298993000295,None,ScrollUp,정답입니다,239.2298993000295,None,239.2298993000295,None,239.2298993000295,None,239.2298993000295,None,240.04278699983843,None,240.04278699983843,240.54507700004615,,,,,,,,,,,,,,,,009,2022-05-10_11h08.19.420,FishGame,2022.1.1,59.91399944598588,
,3,넌 유능해,2,Orange,A,6.208333333333333,4.433333333333334,ScrollDown,ScrollUp,Orange.png,2,Positive,Congruent,0,0,0,0,,,,,,,,,,,,,,,,,0,2,2,2,,,,,,,,,,,,,,,,,,,,,,,,,,,,,,,,,,,,,,,,,,,,,,,,,,,,,,,,,,,,,,,,,,,,,,,,,,,,,,,,,1.1990740795930226,0.7445163999218494,241.16582759981975,None,ScrollDown,정답입니다,241.16582759981975,None,241.16582759981975,None,241.16582759981975,None,241.16582759981975,None,241.80946929985657,None,241.80946929985657,242.31164319999516,,,,,,,,,,,,,,,,009,2022-05-10_11h08.19.420,FishGame,2022.1.1,59.91399944598588,
,4,넌 능숙해,2,Green,B,5.666666666666667,4.733333333333333,ScrollUp,ScrollDown,Green.png,2,Positive,Incongruent,0,0,0,0,,,,,,,,,,,,,,,,,0,3,3,3,,,,,,,,,,,,,,,,,,,,,,,,,,,,,,,,,,,,,,,,,,,,,,,,,,,,,,,,,,,,,,,,,,,,,,,,,,,,,,,,,1.6944444452722869,0.794776099966839,242.92832949990407,None,ScrollUp,정답입니다,242.92832949990407,None,242.92832949990407,None,242.92832949990407,None,242.92832949990407,None,243.6261892998591,None,243.6261892998591,244.12594659999013,,,,,,,,,,,,,,,,009,2022-05-10_11h08.19.420,FishGame,2022.1.1,59.91399944598588,
,5,넌 진부해,4,Green,B,2.458333333333333,3.166666666666667,ScrollUp,ScrollDown,Green.png,2,Negative,Congruent,0,0,0,0,,,,,,,,,,,,,,,,,0,4,4,4,,,,,,,,,,,,,,,,,,,,,,,,,,,,,,,,,,,,,,,,,,,,,,,,,,,,,,,,,,,,,,,,,,,,,,,,,,,,,,,,,1.5679012325902781,0.6278846999630332,244.74692930001765,None,ScrollUp,정답입니다,244.74692930001765,None,244.74692930001765,None,244.74692930001765,None,244.74692930001765,None,245.2763382999692,None,245.2763382999692,245.77812959998846,,,,,,,,,,,,,,,,009,2022-05-10_11h08.19.420,FishGame,2022.1.1,59.91399944598588,
,6,나를 보내줘,6,Orange,A,0,0,ScrollUp,ScrollDown,Orange.png,2,NonTarget,NonTarget,0,0,0,0,,,,,,,,,,,,,,,,,0,5,5,5,,,,,,,,,,,,,,,,,,,,,,,,,,,,,,,,,,,,,,,,,,,,,,,,,,,,,,,,,,,,,,,,,,,,,,,,,,,,,,,,,1.89969136317571,1.127612499985844,246.397435199935,None,ScrollUp,정답입니다,246.397435199935,None,246.397435199935,None,246.397435199935,None,246.397435199935,None,247.42596429982223,None,247.42596429982223,247.9259863998741,,,,,,,,,,,,,,,,009,2022-05-10_11h08.19.420,FishGame,2022.1.1,59.91399944598588,
,7,넌 엄격해,3,Orange,A,4.166666666666666,4.1,ScrollDown,ScrollUp,Orange.png,2,Neutral,Neutral,0,0,0,0,,,,,,,,,,,,,,,,,0,6,6,6,,,,,,,,,,,,,,,,,,,,,,,,,,,,,,,,,,,,,,,,,,,,,,,,,,,,,,,,,,,,,,,,,,,,,,,,,,,,,,,,,1.1712963034709294,0.8301901000086218,248.54823189997114,None,ScrollDown,정답입니다,248.54823189997114,None,248.54823189997114,None,248.54823189997114,None,248.54823189997114,None,249.27586129982956,None,249.27586129982956,249.77821959997527,,,,,,,,,,,,,,,,009,2022-05-10_11h08.19.420,FishGame,2022.1.1,59.91399944598588,
,8,나를 보내줘,6,Orange,A,0,0,ScrollUp,ScrollDown,Orange.png,2,NonTarget,NonTarget,0,0,0,0,,,,,,,,,,,,,,,,,0,7,7,7,,,,,,,,,,,,,,,,,,,,,,,,,,,,,,,,,,,,,,,,,,,,,,,,,,,,,,,,,,,,,,,,,,,,,,,,,,,,,,,,,1.2577160596847534,0.7115332998801023,250.40274839987978,None,ScrollDown,오답입니다,250.40274839987978,None,250.40274839987978,None,250.40274839987978,None,250.40274839987978,None,251.00921229994856,None,251.00921229994856,251.50934419990517,,,,,,,,,,,,,,,,009,2022-05-10_11h08.19.420,FishGame,2022.1.1,59.91399944598588,
,9,넌 대담해,3,Green,B,4.875,4.866666666666666,ScrollUp,ScrollDown,Green.png,2,Neutral,Neutral,0,0,0,0,,,,,,,,,,,,,,,,,0,8,8,8,,,,,,,,,,,,,,,,,,,,,,,,,,,,,,,,,,,,,,,,,,,,,,,,,,,,,,,,,,,,,,,,,,,,,,,,,,,,,,,,,1.481481481033067,1.196086899843067,252.1293641999364,None,NoResponse,무응답입니다,252.1293641999364,None,252.1293641999364,None,252.1293641999364,None,252.1293641999364,None,253.22797989984974,None,253.22797989984974,253.72807279997505,,,,,,,,,,,,,,,,009,2022-05-10_11h08.19.420,FishGame,2022.1.1,59.91399944598588,
,10,넌 꾸준해,1,Orange,A,5.916666666666668,5.8,ScrollDown,ScrollUp,Orange.png,2,Positive,Congruent,0,0,0,0,,,,,,,,,,,,,,,,,0,9,9,9,,,,,,,,,,,,,,,,,,,,,,,,,,,,,,,,,,,,,,,,,,,,,,,,,,,,,,,,,,,,,,,,,,,,,,,,,,,,,,,,,1.2577160596847534,0.7451180999632925,254.37024610000663,None,ScrollDown,정답입니다,254.37024610000663,None,254.37024610000663,None,254.37024610000663,None,254.37024610000663,None,255.00911380001344,None,255.00911380001344,255.50916090002283,,,,,,,,,,,,,,,,009,2022-05-10_11h08.19.420,FishGame,2022.1.1,59.91399944598588,
,11,나를 데려가줘,6,Green,B,0,0,ScrollDown,ScrollUp,Green.png,2,NonTarget,NonTarget,0,0,0,0,,,,,,,,,,,,,,,,,0,10,10,10,,,,,,,,,,,,,,,,,,,,,,,,,,,,,,,,,,,,,,,,,,,,,,,,,,,,,,,,,,,,,,,,,,,,,,,,,,,,,,,,,1.787037044763565,0.7465415999758989,256.1277709999122,None,ScrollUp,오답입니다,256.1277709999122,None,256.1277709999122,None,256.1277709999122,None,256.1277709999122,None,256.77575120003894,None,256.77575120003894,257.277956899954,,,,,,,,,,,,,,,,009,2022-05-10_11h08.19.420,FishGame,2022.1.1,59.91399944598588,
,12,넌 독선적이야,5,Orange,A,2.458333333333333,1.933333333333333,ScrollDown,ScrollUp,Orange.png,2,Negative,Incongruent,0,0,0,0,,,,,,,,,,,,,,,,,0,11,11,11,,,,,,,,,,,,,,,,,,,,,,,,,,,,,,,,,,,,,,,,,,,,,,,,,,,,,,,,,,,,,,,,,,,,,,,,,,,,,,,,,1.2716049353281655,0.727921900106594,257.90347629995085,None,ScrollDown,정답입니다,257.90347629995085,None,257.90347629995085,None,257.90347629995085,None,257.90347629995085,None,258.52575959987007,None,258.52575959987007,259.0257796999067,,,,,,,,,,,,,,,,009,2022-05-10_11h08.19.420,FishGame,2022.1.1,59.91399944598588,
,13,나를 보내줘,6,Orange,A,0,0,ScrollUp,ScrollDown,Orange.png,2,NonTarget,NonTarget,0,0,0,0,,,,,,,,,,,,,,,,,0,12,12,12,,,,,,,,,,,,,,,,,,,,,,,,,,,,,,,,,,,,,,,,,,,,,,,,,,,,,,,,,,,,,,,,,,,,,,,,,,,,,,,,,2,1.013180200010538,259.6474060998298,None,ScrollUp,정답입니다,259.6474060998298,None,259.6474060998298,None,259.6474060998298,None,259.6474060998298,None,260.5611244000029,None,260.5611244000029,261.0757169998251,,,,,,,,,,,,,,,,009,2022-05-10_11h08.19.420,FishGame,2022.1.1,59.91399944598588,
,14,넌 책임감있어,1,Green,B,6.347826086956522,6,ScrollUp,ScrollDown,Green.png,2,Positive,Incongruent,0,0,0,0,,,,,,,,,,,,,,,,,0,13,13,13,,,,,,,,,,,,,,,,,,,,,,,,,,,,,,,,,,,,,,,,,,,,,,,,,,,,,,,,,,,,,,,,,,,,,,,,,,,,,,,,,1.0138889054457347,0.9803889999166131,261.697024299996,None,ScrollDown,오답입니다,261.697024299996,None,261.697024299996,None,261.697024299996,None,261.697024299996,None,262.57564569986425,None,262.57564569986425,263.075734899845,,,,,,,,,,,,,,,,009,2022-05-10_11h08.19.420,FishGame,2022.1.1,59.91399944598588,
,15,넌 문학적이야,3,Orange,A,4.708333333333334,4.333333333333333,ScrollDown,ScrollUp,Orange.png,2,Neutral,Neutral,0,0,0,0,,,,,,,,,,,,,,,,,0,14,14,14,,,,,,,,,,,,,,,,,,,,,,,,,,,,,,,,,,,,,,,,,,,,,,,,,,,,,,,,,,,,,,,,,,,,,,,,,,,,,,,,,1.3564814776182175,0.8563059000298381,263.7035278000403,None,ScrollDown,정답입니다,263.7035278000403,None,263.7035278000403,None,263.7035278000403,None,263.7035278000403,None,264.45417869999073,None,264.45417869999073,264.9590133000165,,,,,,,,,,,,,,,,009,2022-05-10_11h08.19.420,FishGame,2022.1.1,59.91399944598588,
,16,넌 재미있어,1,Green,B,5.875,5.7,ScrollUp,ScrollDown,Green.png,2,Positive,Incongruent,0,0,0,0,,,,,,,,,,,,,,,,,0,15,15,15,,,,,,,,,,,,,,,,,,,,,,,,,,,,,,,,,,,,,,,,,,,,,,,,,,,,,,,,,,,,,,,,,,,,,,,,,,,,,,,,,1.5154320988804102,0.7927906999830157,265.58398450003006,None,NoResponse,무응답입니다,265.58398450003006,None,265.58398450003006,None,265.58398450003006,None,265.58398450003006,None,266.27562229987234,None,266.27562229987234,266.77564090001397,,,,,,,,,,,,,,,,009,2022-05-10_11h08.19.420,FishGame,2022.1.1,59.91399944598588,
,17,나를 데려가줘,6,Green,B,0,0,ScrollDown,ScrollUp,Green.png,2,NonTarget,NonTarget,0,0,0,0,,,,,,,,,,,,,,,,,0,16,16,16,,,,,,,,,,,,,,,,,,,,,,,,,,,,,,,,,,,,,,,,,,,,,,,,,,,,,,,,,,,,,,,,,,,,,,,,,,,,,,,,,1,1.1797001999802887,267.3986372000072,None,ScrollDown,정답입니다,267.3986372000072,None,267.3986372000072,None,267.3986372000072,None,267.3986372000072,None,268.4755243998952,None,268.4755243998952,268.97581329988316,,,,,,,,,,,,,,,,009,2022-05-10_11h08.19.420,FishGame,2022.1.1,59.91399944598588,
,18,넌 협력적이야,1,Orange,A,5.625,5.633333333333334,ScrollDown,ScrollUp,Orange.png,2,Positive,Congruent,0,0,0,0,,,,,,,,,,,,,,,,,0,17,17,17,,,,,,,,,,,,,,,,,,,,,,,,,,,,,,,,,,,,,,,,,,,,,,,,,,,,,,,,,,,,,,,,,,,,,,,,,,,,,,,,,1,1.3425342999398708,269.612627199851,None,ScrollDown,정답입니다,269.612627199851,None,269.612627199851,None,269.612627199851,None,269.612627199851,None,270.8421032000333,None,270.8421032000333,271.34247379982844,,,,,,,,,,,,,,,,009,2022-05-10_11h08.19.420,FishGame,2022.1.1,59.91399944598588,
,19,넌 평범해,3,Green,B,4.333333333333332,4.233333333333333,ScrollUp,ScrollDown,Green.png,2,Neutral,Neutral,0,0,0,0,,,,,,,,,,,,,,,,,0,18,18,18,,,,,,,,,,,,,,,,,,,,,,,,,,,,,,,,,,,,,,,,,,,,,,,,,,,,,,,,,,,,,,,,,,,,,,,,,,,,,,,,,1.7824074029922485,0.8771216999739408,271.968195799971,None,ScrollUp,정답입니다,271.968195799971,None,271.968195799971,None,271.968195799971,None,271.968195799971,None,272.74216529983096,None,272.74216529983096,273.2444598998409,,,,,,,,,,,,,,,,009,2022-05-10_11h08.19.420,FishGame,2022.1.1,59.91399944598588,
,20,넌 오만해,5,Orange,A,2.333333333333333,2,ScrollDown,ScrollUp,Orange.png,2,Negative,Incongruent,0,0,0,0,,,,,,,,,,,,,,,,,0,19,19,19,,,,,,,,,,,,,,,,,,,,,,,,,,,,,,,,,,,,,,,,,,,,,,,,,,,,,,,,,,,,,,,,,,,,,,,,,,,,,,,,,1.1064814925193787,0.7932931000832468,273.8693283998873,None,ScrollDown,정답입니다,273.8693283998873,None,273.8693283998873,None,273.8693283998873,None,273.8693283998873,None,274.55870799999684,None,274.55870799999684,275.0610609999858,,,,,,,,,,,,,,,,009,2022-05-10_11h08.19.420,FishGame,2022.1.1,59.91399944598588,
,21,넌 운이없어,4,Green,B,3,3.466666666666667,ScrollUp,ScrollDown,Green.png,2,Negative,Congruent,0,0,0,0,,,,,,,,,,,,,,,,,0,20,20,20,,,,,,,,,,,,,,,,,,,,,,,,,,,,,,,,,,,,,,,,,,,,,,,,,,,,,,,,,,,,,,,,,,,,,,,,,,,,,,,,,2,1.227976799942553,275.6788649999071,None,ScrollUp,정답입니다,275.6788649999071,None,275.6788649999071,None,275.6788649999071,None,275.6788649999071,None,276.80854499991983,None,276.80854499991983,277.3087330998387,,,,,,,,,,,,,,,,009,2022-05-10_11h08.19.420,FishGame,2022.1.1,59.91399944598588,
,22,넌 창조적이야,2,Green,B,6.125,4.633333333333334,ScrollUp,ScrollDown,Green.png,2,Positive,Incongruent,0,0,0,0,,,,,,,,,,,,,,,,,0,21,21,21,,,,,,,,,,,,,,,,,,,,,,,,,,,,,,,,,,,,,,,,,,,,,,,,,,,,,,,,,,,,,,,,,,,,,,,,,,,,,,,,,1.5632716032365956,0.7277076998725533,277.9542636999395,None,ScrollUp,정답입니다,277.9542636999395,None,277.9542636999395,None,277.9542636999395,None,277.9542636999395,None,278.55860089999624,None,278.55860089999624,279.0586461999919,,,,,,,,,,,,,,,,009,2022-05-10_11h08.19.420,FishGame,2022.1.1,59.91399944598588,
,23,나를 보내줘,6,Orange,A,0,0,ScrollUp,ScrollDown,Orange.png,2,NonTarget,NonTarget,0,0,0,0,,,,,,,,,,,,,,,,,0,22,22,22,,,,,,,,,,,,,,,,,,,,,,,,,,,,,,,,,,,,,,,,,,,,,,,,,,,,,,,,,,,,,,,,,,,,,,,,,,,,,,,,,1,0.9780951999127865,279.68603700003587,None,ScrollDown,오답입니다,279.68603700003587,None,279.68603700003587,None,279.68603700003587,None,279.68603700003587,None,280.55858299997635,None,280.55858299997635,281.0608542000409,,,,,,,,,,,,,,,,009,2022-05-10_11h08.19.420,FishGame,2022.1.1,59.91399944598588,
,24,넌 통찰력있어,2,Orange,A,6.5,4.8,ScrollDown,ScrollUp,Orange.png,2,Positive,Congruent,0,0,0,0,,,,,,,,,,,,,,,,,0,23,23,23,,,,,,,,,,,,,,,,,,,,,,,,,,,,,,,,,,,,,,,,,,,,,,,,,,,,,,,,,,,,,,,,,,,,,,,,,,,,,,,,,1.2175925970077515,1.8774721999652684,281.6824373998679,None,ScrollDown,정답입니다,281.6824373998679,None,281.6824373998679,None,281.6824373998679,None,281.6824373998679,None,283.4585893000476,None,283.4585893000476,283.9643308999948,,,,,,,,,,,,,,,,009,2022-05-10_11h08.19.420,FishGame,2022.1.1,59.91399944598588,
,25,넌 경솔해,5,Green,B,2.458333333333333,2.266666666666667,ScrollUp,ScrollDown,Green.png,2,Negative,Congruent,0,0,0,0,,,,,,,,,,,,,,,,,0,24,24,24,,,,,,,,,,,,,,,,,,,,,,,,,,,,,,,,,,,,,,,,,,,,,,,,,,,,,,,,,,,,,,,,,,,,,,,,,,,,,,,,,1.6959876591960588,0.7963237999938428,284.581954699941,None,ScrollUp,정답입니다,284.581954699941,None,284.581954699941,None,284.581954699941,None,284.581954699941,None,285.27511339983903,None,285.27511339983903,285.7752329998184,,,,,,,,,,,,,,,,009,2022-05-10_11h08.19.420,FishGame,2022.1.1,59.91399944598588,
,26,넌 초조해,4,Orange,A,2.916666666666667,3.133333333333333,ScrollDown,ScrollUp,Orange.png,2,Negative,Incongruent,0,0,0,0,,,,,,,,,,,,,,,,,0,25,25,25,,,,,,,,,,,,,,,,,,,,,,,,,,,,,,,,,,,,,,,,,,,,,,,,,,,,,,,,,,,,,,,,,,,,,,,,,,,,,,,,,1,1.392667799955234,286.40809849998914,None,ScrollDown,정답입니다,286.40809849998914,None,286.40809849998914,None,286.40809849998914,None,286.40809849998914,None,287.691797999898,None,287.691797999898,288.1919404999353,,,,,,,,,,,,,,,,009,2022-05-10_11h08.19.420,FishGame,2022.1.1,59.91399944598588,
,27,넌 무관심해,4,Green,B,2.833333333333333,2.9,ScrollUp,ScrollDown,Green.png,2,Negative,Congruent,0,0,0,0,,,,,,,,,,,,,,,,,0,26,26,26,,,,,,,,,,,,,,,,,,,,,,,,,,,,,,,,,,,,,,,,,,,,,,,,,,,,,,,,,,,,,,,,,,,,,,,,,,,,,,,,,1.9799382885297139,0.9093017000705004,288.8155057998374,None,ScrollUp,정답입니다,288.8155057998374,None,288.8155057998374,None,288.8155057998374,None,288.8155057998374,None,289.6250273999758,None,289.6250273999758,290.12740009999834,,,,,,,,,,,,,,,,009,2022-05-10_11h08.19.420,FishGame,2022.1.1,59.91399944598588,
,28,넌 감성적이야,3,Green,B,4.125,4.166666666666667,ScrollUp,ScrollDown,Green.png,2,Neutral,Neutral,0,0,0,0,,,,,,,,,,,,,,,,,0,27,27,27,,,,,,,,,,,,,,,,,,,,,,,,,,,,,,,,,,,,,,,,,,,,,,,,,,,,,,,,,,,,,,,,,,,,,,,,,,,,,,,,,1.9274691144625347,0.911597799975425,290.74554169992916,None,ScrollUp,정답입니다,290.74554169992916,None,290.74554169992916,None,290.74554169992916,None,290.74554169992916,None,291.55835009994917,None,291.55835009994917,292.0606678999029,,,,,,,,,,,,,,,,009,2022-05-10_11h08.19.420,FishGame,2022.1.1,59.91399944598588,
,29,넌 배려심있어,1,Orange,A,6.083333333333333,5.5,ScrollDown,ScrollUp,Orange.png,2,Positive,Congruent,0,0,0,0,,,,,,,,,,,,,,,,,0,28,28,28,,,,,,,,,,,,,,,,,,,,,,,,,,,,,,,,,,,,,,,,,,,,,,,,,,,,,,,,,,,,,,,,,,,,,,,,,,,,,,,,,1.1496913582086563,0.7426955001428723,292.6850441999268,None,ScrollDown,정답입니다,292.6850441999268,None,292.6850441999268,None,292.6850441999268,None,292.6850441999268,None,293.32505379989743,None,293.32505379989743,293.82724699983373,,,,,,,,,,,,,,,,009,2022-05-10_11h08.19.420,FishGame,2022.1.1,59.91399944598588,
,30,넌 숨김없어,3,Orange,A,4.5,4.933333333333334,ScrollDown,ScrollUp,Orange.png,2,Neutral,Neutral,0,0,0,0,,,,,,,,,,,,,,,,,0,29,29,29,,,,,,,,,,,,,,,,,,,,,,,,,,,,,,,,,,,,,,,,,,,,,,,,,,,,,,,,,,,,,,,,,,,,,,,,,,,,,,,,,1.0246913532416027,0.646554300095886,294.44823309988715,None,ScrollDown,정답입니다,294.44823309988715,None,294.44823309988715,None,294.44823309988715,None,294.44823309988715,None,294.9915843999479,None,294.9915843999479,295.493785899831,,,,,,,,,,,,,,,,009,2022-05-10_11h08.19.420,FishGame,2022.1.1,59.91399944598588,
,31,넌 훌륭해,2,Green,B,5.916666666666667,4.033333333333333,ScrollUp,ScrollDown,Green.png,2,Positive,Incongruent,0,0,0,0,,,,,,,,,,,,,,,,,0,30,30,30,,,,,,,,,,,,,,,,,,,,,,,,,,,,,,,,,,,,,,,,,,,,,,,,,,,,,,,,,,,,,,,,,,,,,,,,,,,,,,,,,1.8672839452823002,0.8090741999913007,296.12007840001024,None,ScrollUp,정답입니다,296.12007840001024,None,296.12007840001024,None,296.12007840001024,None,296.12007840001024,None,296.82490450004116,None,296.82490450004116,297.32496630004607,,,,,,,,,,,,,,,,009,2022-05-10_11h08.19.420,FishGame,2022.1.1,59.91399944598588,
,32,넌 슬기로워,2,Orange,A,6.166666666666667,4.1,ScrollDown,ScrollUp,Orange.png,2,Positive,Congruent,0,0,0,0,,,,,,,,,,,,,,,,,0,31,31,31,,,,,,,,,,,,,,,,,,,,,,,,,,,,,,,,,,,,,,,,,,,,,,,,,,,,,,,,,,,,,,,,,,,,,,,,,,,,,,,,,1.0910493781169255,0.677590899867937,297.95455310004763,None,ScrollDown,정답입니다,297.95455310004763,None,297.95455310004763,None,297.95455310004763,None,297.95455310004763,None,298.527046199888,None,298.527046199888,299.04383330000564,,,,,,,,,,,,,,,,009,2022-05-10_11h08.19.420,FishGame,2022.1.1,59.91399944598588,
,33,넌 냉혹해,5,Orange,A,2.583333333333333,2.1,ScrollDown,ScrollUp,Orange.png,2,Negative,Incongruent,0,0,0,0,,,,,,,,,,,,,,,,,0,32,32,32,,,,,,,,,,,,,,,,,,,,,,,,,,,,,,,,,,,,,,,,,,,,,,,,,,,,,,,,,,,,,,,,,,,,,,,,,,,,,,,,,1.2037036965290706,0.8260453999973834,299.66453009983525,None,ScrollDown,정답입니다,299.66453009983525,None,299.66453009983525,None,299.66453009983525,None,299.66453009983525,None,300.37494220002554,None,300.37494220002554,300.87482619984075,,,,,,,,,,,,,,,,009,2022-05-10_11h08.19.420,FishGame,2022.1.1,59.91399944598588,
,34,나를 데려가줘,6,Green,B,0,0,ScrollDown,ScrollUp,Green.png,2,NonTarget,NonTarget,0,0,0,0,,,,,,,,,,,,,,,,,0,33,33,33,,,,,,,,,,,,,,,,,,,,,,,,,,,,,,,,,,,,,,,,,,,,,,,,,,,,,,,,,,,,,,,,,,,,,,,,,,,,,,,,,1.2515432039896646,0.9291550000198185,301.4926505999174,None,ScrollDown,정답입니다,301.4926505999174,None,301.4926505999174,None,301.4926505999174,None,301.4926505999174,None,302.32485369988717,None,302.32485369988717,302.8248413000256,,,,,,,,,,,,,,,,009,2022-05-10_11h08.19.420,FishGame,2022.1.1,59.91399944598588,
,35,넌 편파적이야,5,Green,B,2.125,2,ScrollUp,ScrollDown,Green.png,2,Negative,Congruent,0,0,0,0,,,,,,,,,,,,,,,,,0,34,34,34,,,,,,,,,,,,,,,,,,,,,,,,,,,,,,,,,,,,,,,,,,,,,,,,,,,,,,,,,,,,,,,,,,,,,,,,,,,,,,,,,1.0231481393178303,0.8624859000556171,303.4443631998729,None,ScrollDown,오답입니다,303.4443631998729,None,303.4443631998729,None,303.4443631998729,None,303.4443631998729,None,304.20816689985804,None,304.20816689985804,304.7081100998912,,,,,,,,,,,,,,,,009,2022-05-10_11h08.19.420,FishGame,2022.1.1,59.91399944598588,
,36,넌 슬퍼,4,Orange,A,2.583333333333333,3.066666666666667,ScrollDown,ScrollUp,Orange.png,2,Negative,Incongruent,0,0,0,0,,,,,,,,,,,,,,,,,0,35,35,35,,,,,,,,,,,,,,,,,,,,,,,,,,,,,,,,,,,,,,,,,,,,,,,,,,,,,,,,,,,,,,,,,,,,,,,,,,,,,,,,,1,0.7424324001185596,305.3300411000382,None,ScrollDown,정답입니다,305.3300411000382,None,305.3300411000382,None,305.3300411000382,None,305.3300411000382,None,305.9746765999589,None,305.9746765999589,306.47690050001256,,,,,,,,,,,,,,,,009,2022-05-10_11h08.19.420,FishGame,2022.1.1,59.91399944598588,
,37,나를 데려가줘,6,Green,B,0,0,ScrollDown,ScrollUp,Green.png,2,NonTarget,NonTarget,0,0,0,0,,,,,,,,,,,,,,,,,0,36,36,36,,,,,,,,,,,,,,,,,,,,,,,,,,,,,,,,,,,,,,,,,,,,,,,,,,,,,,,,,,,,,,,,,,,,,,,,,,,,,,,,,1,1.0616160999052227,307.09552369988523,None,ScrollDown,정답입니다,307.09552369988523,None,307.09552369988523,None,307.09552369988523,None,307.09552369988523,None,308.05804089992307,None,308.05804089992307,308.5581028999295,,,,,,,,,,,,,,,,009,2022-05-10_11h08.19.420,FishGame,2022.1.1,59.91399944598588,
,38,넌 친절해,1,Green,B,6.041666666666667,5.533333333333333,ScrollUp,ScrollDown,Green.png,2,Positive,Incongruent,0,0,0,0,,,,,,,,,,,,,,,,,0,37,37,37,,,,,,,,,,,,,,,,,,,,,,,,,,,,,,,,,,,,,,,,,,,,,,,,,,,,,,,,,,,,,,,,,,,,,,,,,,,,,,,,,1.8117283930381138,0.992589799920097,309.19001459982246,None,ScrollUp,정답입니다,309.19001459982246,None,309.19001459982246,None,309.19001459982246,None,309.19001459982246,None,310.07459989981726,None,310.07459989981726,310.5747324998956,,,,,,,,,,,,,,,,009,2022-05-10_11h08.19.420,FishGame,2022.1.1,59.91399944598588,
,1,넌 엉성해,4,Orange,A,3,3.3,ScrollDown,ScrollUp,Orange.png,3,Negative,Incongruent,0,0,0,0,,,,,,,,,,,,,,,,,,,,,0,0,0,0,,,,,,,,,,,,,,,,,,,,,,,,,,,,,,,,,,,,342.87410439993255,344.3739461998921,344.4073445999529,345.35966209997423,345.40732329990715,346.3572362998966,346.3572362998966,None,,,,,,,,,,,,,,,,,,,,,,,,,,,,,,,,,,1.0478395124276478,0.9274029000662267,347.4681185998488,None,ScrollDown,정답입니다,347.4681185998488,None,347.4681185998488,None,347.4681185998488,None,347.4681185998488,None,348.2905969999265,None,348.2905969999265,348.7908520998899,311.0747020000126,None,311.0747020000126,None,0.06388889,-0.108333334,1,0,0,0.01604561018757522,None,341.0738349999301,None,,,009,2022-05-10_11h08.19.420,FishGame,2022.1.1,59.91399944598588,
,2,나를 보내줘,6,Orange,A,0,0,ScrollUp,ScrollDown,Orange.png,3,NonTarget,NonTarget,0,0,0,0,,,,,,,,,,,,,,,,,,,,,0,1,1,1,,,,,,,,,,,,,,,,,,,,,,,,,,,,,,,,,,,,,,,,,,,,,,,,,,,,,,,,,,,,,,,,,,,,,,,,,,,,,1.8549382835626602,0.9962834999896586,349.4166993999388,None,ScrollUp,정답입니다,349.4166993999388,None,349.4166993999388,None,349.4166993999388,None,349.4166993999388,None,350.30923189991154,None,350.30923189991154,350.8238341000397,,,,,,,,,,,,,,,,009,2022-05-10_11h08.19.420,FishGame,2022.1.1,59.91399944598588,
,3,넌 활발해,1,Green,B,5.666666666666667,5.6,ScrollUp,ScrollDown,Green.png,3,Positive,Incongruent,0,0,0,0,,,,,,,,,,,,,,,,,,,,,0,2,2,2,,,,,,,,,,,,,,,,,,,,,,,,,,,,,,,,,,,,,,,,,,,,,,,,,,,,,,,,,,,,,,,,,,,,,,,,,,,,,1.6111111169060073,1.013673200039193,351.44737780001014,None,ScrollUp,정답입니다,351.44737780001014,None,351.44737780001014,None,351.44737780001014,None,351.44737780001014,None,352.3571206999477,None,352.3571206999477,352.8594163998496,,,,,,,,,,,,,,,,009,2022-05-10_11h08.19.420,FishGame,2022.1.1,59.91399944598588,
,4,넌 논리적이야,2,Orange,A,5.666666666666666,4.633333333333334,ScrollDown,ScrollUp,Orange.png,3,Positive,Congruent,0,0,0,0,,,,,,,,,,,,,,,,,,,,,0,3,3,3,,,,,,,,,,,,,,,,,,,,,,,,,,,,,,,,,,,,,,,,,,,,,,,,,,,,,,,,,,,,,,,,,,,,,,,,,,,,,1.1018518507480621,0.7941650000866503,353.4888501998503,None,ScrollDown,정답입니다,353.4888501998503,None,353.4888501998503,None,353.4888501998503,None,353.4888501998503,None,354.17343909991905,None,354.17343909991905,354.6734880998265,,,,,,,,,,,,,,,,009,2022-05-10_11h08.19.420,FishGame,2022.1.1,59.91399944598588,
,5,넌 과묵해,3,Orange,A,3.875,4.4,ScrollDown,ScrollUp,Orange.png,3,Neutral,Neutral,0,0,0,0,,,,,,,,,,,,,,,,,,,,,0,4,4,4,,,,,,,,,,,,,,,,,,,,,,,,,,,,,,,,,,,,,,,,,,,,,,,,,,,,,,,,,,,,,,,,,,,,,,,,,,,,,1.0540123681227367,0.7799156000837684,355.2944785000291,None,ScrollDown,정답입니다,355.2944785000291,None,355.2944785000291,None,355.2944785000291,None,355.2944785000291,None,355.9734600998927,None,355.9734600998927,356.473534299992,,,,,,,,,,,,,,,,009,2022-05-10_11h08.19.420,FishGame,2022.1.1,59.91399944598588,
,6,나를 데려가줘,6,Green,B,0,0,ScrollDown,ScrollUp,Green.png,3,NonTarget,NonTarget,0,0,0,0,,,,,,,,,,,,,,,,,,,,,0,5,5,5,,,,,,,,,,,,,,,,,,,,,,,,,,,,,,,,,,,,,,,,,,,,,,,,,,,,,,,,,,,,,,,,,,,,,,,,,,,,,1.0864197611808777,0.9123497998807579,357.09360519982874,None,ScrollDown,정답입니다,357.09360519982874,None,357.09360519982874,None,357.09360519982874,None,357.09360519982874,None,357.90919979987666,None,357.90919979987666,358.4092665000353,,,,,,,,,,,,,,,,009,2022-05-10_11h08.19.420,FishGame,2022.1.1,59.91399944598588,
,7,넌 미숙해,4,Green,B,3,3,ScrollUp,ScrollDown,Green.png,3,Negative,Congruent,0,0,0,0,,,,,,,,,,,,,,,,,,,,,0,6,6,6,,,,,,,,,,,,,,,,,,,,,,,,,,,,,,,,,,,,,,,,,,,,,,,,,,,,,,,,,,,,,,,,,,,,,,,,,,,,,1.9722222189108531,1.0428414000198245,359.0256282000337,None,ScrollUp,정답입니다,359.0256282000337,None,359.0256282000337,None,359.0256282000337,None,359.0256282000337,None,359.9736408998724,None,359.9736408998724,360.4736486999318,,,,,,,,,,,,,,,,009,2022-05-10_11h08.19.420,FishGame,2022.1.1,59.91399944598588,
,8,나를 보내줘,6,Orange,A,0,0,ScrollUp,ScrollDown,Orange.png,3,NonTarget,NonTarget,0,0,0,0,,,,,,,,,,,,,,,,,,,,,0,7,7,7,,,,,,,,,,,,,,,,,,,,,,,,,,,,,,,,,,,,,,,,,,,,,,,,,,,,,,,,,,,,,,,,,,,,,,,,,,,,,1.6280864203969636,0.9594777000602335,361.0978862999473,None,ScrollUp,정답입니다,361.0978862999473,None,361.0978862999473,None,361.0978862999473,None,361.0978862999473,None,361.9568441999145,None,361.9568441999145,362.45684490003623,,,,,,,,,,,,,,,,009,2022-05-10_11h08.19.420,FishGame,2022.1.1,59.91399944598588,
,9,넌 자신만만해,3,Green,B,4.833333333333334,4.333333333333333,ScrollUp,ScrollDown,Green.png,3,Neutral,Neutral,0,0,0,0,,,,,,,,,,,,,,,,,,,,,0,8,8,8,,,,,,,,,,,,,,,,,,,,,,,,,,,,,,,,,,,,,,,,,,,,,,,,,,,,,,,,,,,,,,,,,,,,,,,,,,,,,2,1.0121613999363035,363.0808533998206,None,ScrollUp,정답입니다,363.0808533998206,None,363.0808533998206,None,363.0808533998206,None,363.0808533998206,None,363.9901820998639,None,363.9901820998639,364.49021900002845,,,,,,,,,,,,,,,,009,2022-05-10_11h08.19.420,FishGame,2022.1.1,59.91399944598588,
,10,넌 탐욕스러워,5,Orange,A,2.25,2.1,ScrollDown,ScrollUp,Orange.png,3,Negative,Incongruent,0,0,0,0,,,,,,,,,,,,,,,,,,,,,0,9,9,9,,,,,,,,,,,,,,,,,,,,,,,,,,,,,,,,,,,,,,,,,,,,,,,,,,,,,,,,,,,,,,,,,,,,,,,,,,,,,1.1574074029922485,0.7442398001439869,365.11430249991827,None,ScrollDown,정답입니다,365.11430249991827,None,365.11430249991827,None,365.11430249991827,None,365.11430249991827,None,365.7566841999069,None,365.7566841999069,366.2568383999169,,,,,,,,,,,,,,,,009,2022-05-10_11h08.19.420,FishGame,2022.1.1,59.91399944598588,
,11,넌 인기있어,2,Orange,A,5.458333333333333,4.5,ScrollDown,ScrollUp,Orange.png,3,Positive,Congruent,0,0,0,0,,,,,,,,,,,,,,,,,,,,,0,10,10,10,,,,,,,,,,,,,,,,,,,,,,,,,,,,,,,,,,,,,,,,,,,,,,,,,,,,,,,,,,,,,,,,,,,,,,,,,,,,,1.0493827263514202,0.7963625998236239,366.88094539986923,None,ScrollDown,정답입니다,366.88094539986923,None,366.88094539986923,None,366.88094539986923,None,366.88094539986923,None,367.57350479997694,None,367.57350479997694,368.07352269999683,,,,,,,,,,,,,,,,009,2022-05-10_11h08.19.420,FishGame,2022.1.1,59.91399944598588,
,12,나를 데려가줘,6,Green,B,0,0,ScrollDown,ScrollUp,Green.png,3,NonTarget,NonTarget,0,0,0,0,,,,,,,,,,,,,,,,,,,,,0,11,11,11,,,,,,,,,,,,,,,,,,,,,,,,,,,,,,,,,,,,,,,,,,,,,,,,,,,,,,,,,,,,,,,,,,,,,,,,,,,,,1.2469135870536168,1.0767971000168473,368.69304919987917,None,ScrollDown,정답입니다,368.69304919987917,None,368.69304919987917,None,368.69304919987917,None,368.69304919987917,None,369.6734591999557,None,369.6734591999557,370.1758669000119,,,,,,,,,,,,,,,,009,2022-05-10_11h08.19.420,FishGame,2022.1.1,59.91399944598588,
,13,넌 뛰어나,2,Green,B,6.166666666666667,4,ScrollUp,ScrollDown,Green.png,3,Positive,Incongruent,0,0,0,0,,,,,,,,,,,,,,,,,,,,,0,12,12,12,,,,,,,,,,,,,,,,,,,,,,,,,,,,,,,,,,,,,,,,,,,,,,,,,,,,,,,,,,,,,,,,,,,,,,,,,,,,,1.6651234552264214,0.9637297000735998,370.7974753000308,None,ScrollUp,정답입니다,370.7974753000308,None,370.7974753000308,None,370.7974753000308,None,370.7974753000308,None,371.6567526999861,None,371.6567526999861,372.15680529992096,,,,,,,,,,,,,,,,009,2022-05-10_11h08.19.420,FishGame,2022.1.1,59.91399944598588,
,14,넌 낙관적이야,1,Orange,A,5.75,5.8,ScrollDown,ScrollUp,Orange.png,3,Positive,Congruent,0,0,0,0,,,,,,,,,,,,,,,,,,,,,0,13,13,13,,,,,,,,,,,,,,,,,,,,,,,,,,,,,,,,,,,,,,,,,,,,,,,,,,,,,,,,,,,,,,,,,,,,,,,,,,,,,1.0077160497506459,0.7796922998968512,372.7832966998685,None,ScrollDown,정답입니다,372.7832966998685,None,372.7832966998685,None,372.7832966998685,None,372.7832966998685,None,373.4567095998209,None,373.4567095998209,373.95672190003097,,,,,,,,,,,,,,,,009,2022-05-10_11h08.19.420,FishGame,2022.1.1,59.91399944598588,
,15,넌 산만해,4,Green,B,2.695652173913043,3.033333333333333,ScrollUp,ScrollDown,Green.png,3,Negative,Congruent,0,0,0,0,,,,,,,,,,,,,,,,,,,,,0,14,14,14,,,,,,,,,,,,,,,,,,,,,,,,,,,,,,,,,,,,,,,,,,,,,,,,,,,,,,,,,,,,,,,,,,,,,,,,,,,,,1.6651234552264214,0.9777597999200225,374.58207839983515,None,ScrollUp,정답입니다,374.58207839983515,None,374.58207839983515,None,374.58207839983515,None,374.58207839983515,None,375.4567064999137,None,375.4567064999137,375.95660579996184,,,,,,,,,,,,,,,,009,2022-05-10_11h08.19.420,FishGame,2022.1.1,59.91399944598588,
,16,나를 보내줘,6,Orange,A,0,0,ScrollUp,ScrollDown,Orange.png,3,NonTarget,NonTarget,0,0,0,0,,,,,,,,,,,,,,,,,,,,,0,15,15,15,,,,,,,,,,,,,,,,,,,,,,,,,,,,,,,,,,,,,,,,,,,,,,,,,,,,,,,,,,,,,,,,,,,,,,,,,,,,,1.5570987661679587,1.061589399818331,376.57815960003063,None,ScrollUp,정답입니다,376.57815960003063,None,376.57815960003063,None,376.57815960003063,None,376.57815960003063,None,377.5398828999605,None,377.5398828999605,378.04011099995114,,,,,,,,,,,,,,,,009,2022-05-10_11h08.19.420,FishGame,2022.1.1,59.91399944598588,
,17,넌 교활해,5,Green,B,2.333333333333333,2.133333333333333,ScrollUp,ScrollDown,Green.png,3,Negative,Congruent,0,0,0,0,,,,,,,,,,,,,,,,,,,,,0,16,16,16,,,,,,,,,,,,,,,,,,,,,,,,,,,,,,,,,,,,,,,,,,,,,,,,,,,,,,,,,,,,,,,,,,,,,,,,,,,,,1.5524691368142762,0.711131300078705,378.6622663999442,None,ScrollUp,정답입니다,378.6622663999442,None,378.6622663999442,None,378.6622663999442,None,378.6622663999442,None,379.2732467998285,None,379.2732467998285,379.77325830003247,,,,,,,,,,,,,,,,009,2022-05-10_11h08.19.420,FishGame,2022.1.1,59.91399944598588,
,18,나를 보내줘,6,Orange,A,0,0,ScrollUp,ScrollDown,Orange.png,3,NonTarget,NonTarget,0,0,0,0,,,,,,,,,,,,,,,,,,,,,0,17,17,17,,,,,,,,,,,,,,,,,,,,,,,,,,,,,,,,,,,,,,,,,,,,,,,,,,,,,,,,,,,,,,,,,,,,,,,,,,,,,1.9845678806304932,1.2770102999638766,380.39330809982494,None,ScrollUp,정답입니다,380.39330809982494,None,380.39330809982494,None,380.39330809982494,None,380.39330809982494,None,381.57309179985896,None,381.57309179985896,382.07311749993823,,,,,,,,,,,,,,,,009,2022-05-10_11h08.19.420,FishGame,2022.1.1,59.91399944598588,
,19,넌 불친절해,5,Green,B,2.208333333333333,2.033333333333333,ScrollUp,ScrollDown,Green.png,3,Negative,Congruent,0,0,0,0,,,,,,,,,,,,,,,,,,,,,0,18,18,18,,,,,,,,,,,,,,,,,,,,,,,,,,,,,,,,,,,,,,,,,,,,,,,,,,,,,,,,,,,,,,,,,,,,,,,,,,,,,1.6975308607021966,1.011505699949339,382.69673429988325,None,ScrollUp,정답입니다,382.69673429988325,None,382.69673429988325,None,382.69673429988325,None,382.69673429988325,None,383.6064621999394,None,383.6064621999394,384.108647899935,,,,,,,,,,,,,,,,009,2022-05-10_11h08.19.420,FishGame,2022.1.1,59.91399944598588,
,20,넌 지적이야,2,Green,B,5.75,4.366666666666666,ScrollUp,ScrollDown,Green.png,3,Positive,Incongruent,0,0,0,0,,,,,,,,,,,,,,,,,,,,,0,19,19,19,,,,,,,,,,,,,,,,,,,,,,,,,,,,,,,,,,,,,,,,,,,,,,,,,,,,,,,,,,,,,,,,,,,,,,,,,,,,,1.584876542290052,0.6120035999920219,384.7245259999763,None,ScrollUp,정답입니다,384.7245259999763,None,384.7245259999763,None,384.7245259999763,None,384.7245259999763,None,385.23976639984176,None,385.23976639984176,385.7418926998507,,,,,,,,,,,,,,,,009,2022-05-10_11h08.19.420,FishGame,2022.1.1,59.91399944598588,
,21,넌 우유부단해,4,Orange,A,2.666666666666667,3.166666666666667,ScrollDown,ScrollUp,Orange.png,3,Negative,Incongruent,0,0,0,0,,,,,,,,,,,,,,,,,,,,,0,20,20,20,,,,,,,,,,,,,,,,,,,,,,,,,,,,,,,,,,,,,,,,,,,,,,,,,,,,,,,,,,,,,,,,,,,,,,,,,,,,,1.0277777810891469,0.794165400089696,386.3658789000474,None,ScrollDown,정답입니다,386.3658789000474,None,386.3658789000474,None,386.3658789000474,None,386.3658789000474,None,387.0564625998959,None,387.0564625998959,387.5565835000016,,,,,,,,,,,,,,,,009,2022-05-10_11h08.19.420,FishGame,2022.1.1,59.91399944598588,
,22,나를 데려가줘,6,Green,B,0,0,ScrollDown,ScrollUp,Green.png,3,NonTarget,NonTarget,0,0,0,0,,,,,,,,,,,,,,,,,,,,,0,21,21,21,,,,,,,,,,,,,,,,,,,,,,,,,,,,,,,,,,,,,,,,,,,,,,,,,,,,,,,,,,,,,,,,,,,,,,,,,,,,,1.1543209999799728,0.9439115000423044,388.17571229999885,None,ScrollDown,정답입니다,388.17571229999885,None,388.17571229999885,None,388.17571229999885,None,388.17571229999885,None,389.0230071998667,None,389.0230071998667,389.5233584998641,,,,,,,,,,,,,,,,009,2022-05-10_11h08.19.420,FishGame,2022.1.1,59.91399944598588,
,23,넌 성실해,1,Green,B,6.041666666666666,5.7,ScrollUp,ScrollDown,Green.png,3,Positive,Incongruent,0,0,0,0,,,,,,,,,,,,,,,,,,,,,0,22,22,22,,,,,,,,,,,,,,,,,,,,,,,,,,,,,,,,,,,,,,,,,,,,,,,,,,,,,,,,,,,,,,,,,,,,,,,,,,,,,1.6604938258727393,1.0955511999782175,390.14126780000515,None,ScrollUp,정답입니다,390.14126780000515,None,390.14126780000515,None,390.14126780000515,None,390.14126780000515,None,391.1395636999514,None,391.1395636999514,391.63961349986494,,,,,,,,,,,,,,,,009,2022-05-10_11h08.19.420,FishGame,2022.1.1,59.91399944598588,
,24,넌 현실주의적이야,3,Orange,A,4.625,4.4,ScrollDown,ScrollUp,Orange.png,3,Neutral,Neutral,0,0,0,0,,,,,,,,,,,,,,,,,,,,,0,23,23,23,,,,,,,,,,,,,,,,,,,,,,,,,,,,,,,,,,,,,,,,,,,,,,,,,,,,,,,,,,,,,,,,,,,,,,,,,,,,,1.1358024577299755,0.7776924001518637,392.259650999913,None,ScrollDown,정답입니다,392.259650999913,None,392.259650999913,None,392.259650999913,None,392.259650999913,None,392.94172949995846,None,392.94172949995846,393.45632450003177,,,,,,,,,,,,,,,,009,2022-05-10_11h08.19.420,FishGame,2022.1.1,59.91399944598588,
,25,넌 진실돼,1,Orange,A,6.625,5.566666666666666,ScrollDown,ScrollUp,Orange.png,3,Positive,Congruent,0,0,0,0,,,,,,,,,,,,,,,,,,,,,0,24,24,24,,,,,,,,,,,,,,,,,,,,,,,,,,,,,,,,,,,,,,,,,,,,,,,,,,,,,,,,,,,,,,,,,,,,,,,,,,,,,1.095679019888242,0.941166500095278,394.0613654998597,None,ScrollDown,정답입니다,394.0613654998597,None,394.0613654998597,None,394.0613654998597,None,394.0613654998597,None,394.90156479994766,None,394.90156479994766,395.4060123998206,,,,,,,,,,,,,,,,009,2022-05-10_11h08.19.420,FishGame,2022.1.1,59.91399944598588,
,26,넌 천진난만해,3,Green,B,4.958333333333334,4.833333333333333,ScrollUp,ScrollDown,Green.png,3,Neutral,Neutral,0,0,0,0,,,,,,,,,,,,,,,,,,,,,0,25,25,25,,,,,,,,,,,,,,,,,,,,,,,,,,,,,,,,,,,,,,,,,,,,,,,,,,,,,,,,,,,,,,,,,,,,,,,,,,,,,1.8564814726511638,0.8301976001821458,396.03025579988025,None,ScrollUp,정답입니다,396.03025579988025,None,396.03025579988025,None,396.03025579988025,None,396.03025579988025,None,396.75587939983234,None,396.75587939983234,397.256014799932,,,,,,,,,,,,,,,,009,2022-05-10_11h08.19.420,FishGame,2022.1.1,59.91399944598588,
,27,넌 교양없어,5,Orange,A,2.416666666666667,2.2,ScrollDown,ScrollUp,Orange.png,3,Negative,Incongruent,0,0,0,0,,,,,,,,,,,,,,,,,,,,,0,26,26,26,,,,,,,,,,,,,,,,,,,,,,,,,,,,,,,,,,,,,,,,,,,,,,,,,,,,,,,,,,,,,,,,,,,,,,,,,,,,,1,0.8115004999563098,397.88829759997316,None,ScrollDown,정답입니다,397.88829759997316,None,397.88829759997316,None,397.88829759997316,None,397.88829759997316,None,398.5918539999984,None,398.5918539999984,399.1085858999286,,,,,,,,,,,,,,,,009,2022-05-10_11h08.19.420,FishGame,2022.1.1,59.91399944598588,
,28,나를 보내줘,6,Orange,A,0,0,ScrollUp,ScrollDown,Orange.png,3,NonTarget,NonTarget,0,0,0,0,,,,,,,,,,,,,,,,,,,,,0,27,27,27,,,,,,,,,,,,,,,,,,,,,,,,,,,,,,,,,,,,,,,,,,,,,,,,,,,,,,,,,,,,,,,,,,,,,,,,,,,,,1.7114197611808777,1.0443994000088423,399.71664509992115,None,ScrollUp,정답입니다,399.71664509992115,None,399.71664509992115,None,399.71664509992115,None,399.71664509992115,None,400.65611319988966,None,400.65611319988966,401.1561412999872,,,,,,,,,,,,,,,,009,2022-05-10_11h08.19.420,FishGame,2022.1.1,59.91399944598588,
,29,넌 엉뚱스러워,3,Orange,A,4.166666666666667,4.133333333333334,ScrollDown,ScrollUp,Orange.png,3,Neutral,Neutral,0,0,0,0,,,,,,,,,,,,,,,,,,,,,0,28,28,28,,,,,,,,,,,,,,,,,,,,,,,,,,,,,,,,,,,,,,,,,,,,,,,,,,,,,,,,,,,,,,,,,,,,,,,,,,,,,1.09413580596447,1.0928662000223994,401.796479600016,None,ScrollDown,정답입니다,401.796479600016,None,401.796479600016,None,401.796479600016,None,401.796479600016,None,402.77270289999433,None,402.77270289999433,403.27483519981615,,,,,,,,,,,,,,,,009,2022-05-10_11h08.19.420,FishGame,2022.1.1,59.91399944598588,
,30,넌 무지해,4,Green,B,2.541666666666667,3.066666666666667,ScrollUp,ScrollDown,Green.png,3,Negative,Congruent,0,0,0,0,,,,,,,,,,,,,,,,,,,,,0,29,29,29,,,,,,,,,,,,,,,,,,,,,,,,,,,,,,,,,,,,,,,,,,,,,,,,,,,,,,,,,,,,,,,,,,,,,,,,,,,,,1.8518518557151158,0.8116287000011653,403.8916704999283,None,ScrollUp,정답입니다,403.8916704999283,None,403.8916704999283,None,403.8916704999283,None,403.8916704999283,None,404.60600159992464,None,404.60600159992464,405.10825429996476,,,,,,,,,,,,,,,,009,2022-05-10_11h08.19.420,FishGame,2022.1.1,59.91399944598588,
,31,넌 음울해,5,Green,B,2.25,2.233333333333333,ScrollUp,ScrollDown,Green.png,3,Negative,Congruent,0,0,0,0,,,,,,,,,,,,,,,,,,,,,0,30,30,30,,,,,,,,,,,,,,,,,,,,,,,,,,,,,,,,,,,,,,,,,,,,,,,,,,,,,,,,,,,,,,,,,,,,,,,,,,,,,1.733024681607882,0.7253125000279397,405.7325511998497,None,ScrollUp,정답입니다,405.7325511998497,None,405.7325511998497,None,405.7325511998497,None,405.7325511998497,None,406.3557710000314,None,406.3557710000314,406.85576179996133,,,,,,,,,,,,,,,,009,2022-05-10_11h08.19.420,FishGame,2022.1.1,59.91399944598588,
,32,넌 냉소적이야,5,Orange,A,2.916666666666667,2.4,ScrollDown,ScrollUp,Orange.png,3,Negative,Incongruent,0,0,0,0,,,,,,,,,,,,,,,,,,,,,0,31,31,31,,,,,,,,,,,,,,,,,,,,,,,,,,,,,,,,,,,,,,,,,,,,,,,,,,,,,,,,,,,,,,,,,,,,,,,,,,,,,1,0.8128407998010516,407.48491989984177,None,ScrollDown,정답입니다,407.48491989984177,None,407.48491989984177,None,407.48491989984177,None,407.48491989984177,None,408.189014100004,None,408.189014100004,408.69166040001437,,,,,,,,,,,,,,,,009,2022-05-10_11h08.19.420,FishGame,2022.1.1,59.91399944598588,
,33,나를 데려가줘,6,Green,B,0,0,ScrollDown,ScrollUp,Green.png,3,NonTarget,NonTarget,0,0,0,0,,,,,,,,,,,,,,,,,,,,,0,32,32,32,,,,,,,,,,,,,,,,,,,,,,,,,,,,,,,,,,,,,,,,,,,,,,,,,,,,,,,,,,,,,,,,,,,,,,,,,,,,,1.0077160497506459,1.0093616999220103,409.31003709998913,None,ScrollDown,정답입니다,409.31003709998913,None,409.31003709998913,None,409.31003709998913,None,409.31003709998913,None,410.22479599993676,None,410.22479599993676,410.72488610004075,,,,,,,,,,,,,,,,009,2022-05-10_11h08.19.420,FishGame,2022.1.1,59.91399944598588,
,34,넌 쾌활해,1,Orange,A,5.541666666666666,5.733333333333333,ScrollDown,ScrollUp,Orange.png,3,Positive,Congruent,0,0,0,0,,,,,,,,,,,,,,,,,,,,,0,33,33,33,,,,,,,,,,,,,,,,,,,,,,,,,,,,,,,,,,,,,,,,,,,,,,,,,,,,,,,,,,,,,,,,,,,,,,,,,,,,,1,0.825759100029245,411.3501635999419,None,ScrollDown,정답입니다,411.3501635999419,None,411.3501635999419,None,411.3501635999419,None,411.3501635999419,None,412.0725063998252,None,412.0725063998252,412.5725366999395,,,,,,,,,,,,,,,,009,2022-05-10_11h08.19.420,FishGame,2022.1.1,59.91399944598588,
,35,나를 보내줘,6,Orange,A,0,0,ScrollUp,ScrollDown,Orange.png,3,NonTarget,NonTarget,0,0,0,0,,,,,,,,,,,,,,,,,,,,,0,34,34,34,,,,,,,,,,,,,,,,,,,,,,,,,,,,,,,,,,,,,,,,,,,,,,,,,,,,,,,,,,,,,,,,,,,,,,,,,,,,,1.9212963084379833,0.9088721999432892,413.1997787000146,None,ScrollUp,정답입니다,413.1997787000146,None,413.1997787000146,None,413.1997787000146,None,413.1997787000146,None,414.0057351998985,None,414.0057351998985,414.5058675999753,,,,,,,,,,,,,,,,009,2022-05-10_11h08.19.420,FishGame,2022.1.1,59.91399944598588,
,36,넌 명랑해,1,Green,B,5.739130434782609,5.666666666666667,ScrollUp,ScrollDown,Green.png,3,Positive,Incongruent,0,0,0,0,,,,,,,,,,,,,,,,,,,,,0,35,35,35,,,,,,,,,,,,,,,,,,,,,,,,,,,,,,,,,,,,,,,,,,,,,,,,,,,,,,,,,,,,,,,,,,,,,,,,,,,,,1.8873456766208012,1.2945416001603007,415.1351768998429,None,ScrollUp,정답입니다,415.1351768998429,None,415.1351768998429,None,415.1351768998429,None,415.1351768998429,None,416.3224199998658,None,416.3224199998658,416.8246942998376,,,,,,,,,,,,,,,,009,2022-05-10_11h08.19.420,FishGame,2022.1.1,59.91399944598588,
,37,넌 멍해,4,Orange,A,2.833333333333333,3.4,ScrollDown,ScrollUp,Orange.png,3,Negative,Incongruent,0,0,0,0,,,,,,,,,,,,,,,,,,,,,0,36,36,36,,,,,,,,,,,,,,,,,,,,,,,,,,,,,,,,,,,,,,,,,,,,,,,,,,,,,,,,,,,,,,,,,,,,,,,,,,,,,1,0.8273322000168264,417.45886179991066,None,ScrollDown,정답입니다,417.45886179991066,None,417.45886179991066,None,417.45886179991066,None,417.45886179991066,None,418.17237619985826,None,418.17237619985826,418.6723954998888,,,,,,,,,,,,,,,,009,2022-05-10_11h08.19.420,FishGame,2022.1.1,59.91399944598588,
,38,나를 데려가줘,6,Green,B,0,0,ScrollDown,ScrollUp,Green.png,3,NonTarget,NonTarget,0,0,0,0,,,,,,,,,,,,,,,,,,,,,0,37,37,37,,,,,,,,,,,,,,,,,,,,,,,,,,,,,,,,,,,,,,,,,,,,,,,,,,,,,,,,,,,,,,,,,,,,,,,,,,,,,1,0.9442214001901448,419.29595089983195,None,ScrollDown,정답입니다,419.29595089983195,None,419.29595089983195,None,419.29595089983195,None,419.29595089983195,None,420.1389817998279,None,420.1389817998279,420.6389998998493,,,,,,,,,,,,,,,,009,2022-05-10_11h08.19.420,FishGame,2022.1.1,59.91399944598588,
,39,넌 현명해,2,Orange,A,6.541666666666666,4.533333333333333,ScrollDown,ScrollUp,Orange.png,3,Positive,Congruent,0,0,0,0,,,,,,,,,,,,,,,,,,,,,0,38,38,38,,,,,,,,,,,,,,,,,,,,,,,,,,,,,,,,,,,,,,,,,,,,,,,,,,,,,,,,,,,,,,,,,,,,,,,,,,,,,1,0.8297940001357347,421.2662758999504,None,ScrollDown,정답입니다,421.2662758999504,None,421.2662758999504,None,421.2662758999504,None,421.2662758999504,None,421.988990599988,None,421.988990599988,422.4911489998922,,,,,,,,,,,,,,,,009,2022-05-10_11h08.19.420,FishGame,2022.1.1,59.91399944598588,
,40,넌 수줍어,3,Green,B,3.541666666666666,4.366666666666666,ScrollUp,ScrollDown,Green.png,3,Neutral,Neutral,0,0,0,0,,,,,,,,,,,,,,,,,,,,,0,39,39,39,,,,,,,,,,,,,,,,,,,,,,,,,,,,,,,,,,,,,,,,,,,,,,,,,,,,,,,,,,,,,,,,,,,,,,,,,,,,,2,0.908961100038141,423.11590430000797,None,ScrollUp,정답입니다,423.11590430000797,None,423.11590430000797,None,423.11590430000797,None,423.11590430000797,None,423.9223066000268,None,423.9223066000268,424.42223939998075,,,,,,,,,,,,,,,,009,2022-05-10_11h08.19.420,FishGame,2022.1.1,59.91399944598588,
,41,나를 데려가줘,6,Green,B,0,0,ScrollDown,ScrollUp,Green.png,3,NonTarget,NonTarget,0,0,0,0,,,,,,,,,,,,,,,,,,,,,0,40,40,40,,,,,,,,,,,,,,,,,,,,,,,,,,,,,,,,,,,,,,,,,,,,,,,,,,,,,,,,,,,,,,,,,,,,,,,,,,,,,1,1.0132359999697655,425.04811799991876,None,ScrollDown,정답입니다,425.04811799991876,None,425.04811799991876,None,425.04811799991876,None,425.04811799991876,None,425.9555923000444,None,425.9555923000444,426.46092620003037,,,,,,,,,,,,,,,,009,2022-05-10_11h08.19.420,FishGame,2022.1.1,59.91399944598588,
,42,넌 성숙해,2,Green,B,5.833333333333333,4.533333333333333,ScrollUp,ScrollDown,Green.png,3,Positive,Incongruent,0,0,0,0,,,,,,,,,,,,,,,,,,,,,0,41,41,41,,,,,,,,,,,,,,,,,,,,,,,,,,,,,,,,,,,,,,,,,,,,,,,,,,,,,,,,,,,,,,,,,,,,,,,,,,,,,2,0.812141900183633,427.07667029998265,None,ScrollUp,정답입니다,427.07667029998265,None,427.07667029998265,None,427.07667029998265,None,427.07667029998265,None,427.78878079983406,None,427.78878079983406,428.28867789986543,,,,,,,,,,,,,,,,009,2022-05-10_11h08.19.420,FishGame,2022.1.1,59.91399944598588,
,1,넌 매력적이야,2,Green,B,6.125,4.666666666666667,ScrollUp,ScrollDown,Green.png,4,Positive,Incongruent,0,0,0,0,,,,,,,,,,,,,,,,,,,,,,,,,0,0,0,0,,,,,,,,,,,,,,,,,,,,,,,,,,,,,,,,460.4269562000409,461.9382402000483,461.95724039990455,462.9107261998579,462.9607027999591,463.92388719995506,463.9048492999282,None,,,,,,,,,,,,,,,,,,,,,,,,,,,,,,,,,,1.435185182839632,1.1118422001600266,465.0121612998191,None,ScrollDown,오답입니다,465.0121612998191,None,465.0121612998191,None,465.0121612998191,None,465.0121612998191,None,466.0210998998955,None,466.0210998998955,466.52119580004364,428.791113199899,None,428.791113199899,None,0.15648147,-0.13425925,1,0,0,0.01631061010994017,None,458.80726709985174,None,,,009,2022-05-10_11h08.19.420,FishGame,2022.1.1,59.91399944598588,
,2,나를 보내줘,6,Orange,A,0,0,ScrollUp,ScrollDown,Orange.png,4,NonTarget,NonTarget,0,0,0,0,,,,,,,,,,,,,,,,,,,,,,,,,0,1,1,1,,,,,,,,,,,,,,,,,,,,,,,,,,,,,,,,,,,,,,,,,,,,,,,,,,,,,,,,,,,,,,,,,,,,,,,,,2,1.1615506999660283,467.14586669998243,None,ScrollUp,정답입니다,467.14586669998243,None,467.14586669998243,None,467.14586669998243,None,467.14586669998243,None,468.20478229993023,None,468.20478229993023,468.7070505998563,,,,,,,,,,,,,,,,009,2022-05-10_11h08.19.420,FishGame,2022.1.1,59.91399944598588,
,3,넌 조심스러워,3,Orange,A,4.791666666666666,4.666666666666667,ScrollDown,ScrollUp,Orange.png,4,Neutral,Neutral,0,0,0,0,,,,,,,,,,,,,,,,,,,,,,,,,0,2,2,2,,,,,,,,,,,,,,,,,,,,,,,,,,,,,,,,,,,,,,,,,,,,,,,,,,,,,,,,,,,,,,,,,,,,,,,,,1,0.8865775999147445,469.32761619985104,None,ScrollDown,정답입니다,469.32761619985104,None,469.32761619985104,None,469.32761619985104,None,469.32761619985104,None,470.1169840998482,None,470.1169840998482,470.6213692999445,,,,,,,,,,,,,,,,009,2022-05-10_11h08.19.420,FishGame,2022.1.1,59.91399944598588,
,4,넌 철학적이야,3,Green,B,4.5,4.266666666666667,ScrollUp,ScrollDown,Green.png,4,Neutral,Neutral,0,0,0,0,,,,,,,,,,,,,,,,,,,,,,,,,0,3,3,3,,,,,,,,,,,,,,,,,,,,,,,,,,,,,,,,,,,,,,,,,,,,,,,,,,,,,,,,,,,,,,,,,,,,,,,,,1.9182098805904388,0.7949055000208318,471.2503690000158,None,ScrollUp,정답입니다,471.2503690000158,None,471.2503690000158,None,471.2503690000158,None,471.2503690000158,None,471.94005710002966,None,471.94005710002966,472.4545322000049,,,,,,,,,,,,,,,,009,2022-05-10_11h08.19.420,FishGame,2022.1.1,59.91399944598588,
,5,넌 쩨쩨해,5,Orange,A,2.375,2.133333333333333,ScrollDown,ScrollUp,Orange.png,4,Negative,Incongruent,0,0,0,0,,,,,,,,,,,,,,,,,,,,,,,,,0,4,4,4,,,,,,,,,,,,,,,,,,,,,,,,,,,,,,,,,,,,,,,,,,,,,,,,,,,,,,,,,,,,,,,,,,,,,,,,,1.0586419602235158,0.8939656000584364,473.07870439998806,None,ScrollDown,정답입니다,473.07870439998806,None,473.07870439998806,None,473.07870439998806,None,473.07870439998806,None,473.8734313000459,None,473.8734313000459,474.38783239992335,,,,,,,,,,,,,,,,009,2022-05-10_11h08.19.420,FishGame,2022.1.1,59.91399944598588,
,6,나를 데려가줘,6,Green,B,0,0,ScrollDown,ScrollUp,Green.png,4,NonTarget,NonTarget,0,0,0,0,,,,,,,,,,,,,,,,,,,,,,,,,0,5,5,5,,,,,,,,,,,,,,,,,,,,,,,,,,,,,,,,,,,,,,,,,,,,,,,,,,,,,,,,,,,,,,,,,,,,,,,,,1,1.0260968999937177,474.9919767000247,None,ScrollDown,정답입니다,474.9919767000247,None,474.9919767000247,None,474.9919767000247,None,474.9919767000247,None,475.92111080000177,None,475.92111080000177,476.42119719996117,,,,,,,,,,,,,,,,009,2022-05-10_11h08.19.420,FishGame,2022.1.1,59.91399944598588,
,7,넌 고집불통이야,5,Green,B,2.875,2,ScrollUp,ScrollDown,Green.png,4,Negative,Congruent,0,0,0,0,,,,,,,,,,,,,,,,,,,,,,,,,0,6,6,6,,,,,,,,,,,,,,,,,,,,,,,,,,,,,,,,,,,,,,,,,,,,,,,,,,,,,,,,,,,,,,,,,,,,,,,,,1.9984568059444427,0.7761044001672417,477.0489576999098,None,ScrollUp,정답입니다,477.0489576999098,None,477.0489576999098,None,477.0489576999098,None,477.0489576999098,None,477.72118759993464,None,477.72118759993464,478.22337149991654,,,,,,,,,,,,,,,,009,2022-05-10_11h08.19.420,FishGame,2022.1.1,59.91399944598588,
,8,넌 무심해,4,Orange,A,2.875,3.2,ScrollDown,ScrollUp,Orange.png,4,Negative,Incongruent,0,0,0,0,,,,,,,,,,,,,,,,,,,,,,,,,0,7,7,7,,,,,,,,,,,,,,,,,,,,,,,,,,,,,,,,,,,,,,,,,,,,,,,,,,,,,,,,,,,,,,,,,,,,,,,,,1,0.8008879001718014,478.8398082999047,None,ScrollDown,정답입니다,478.8398082999047,None,478.8398082999047,None,478.8398082999047,None,478.8398082999047,None,479.53774049994536,None,479.53774049994536,480.0377477000002,,,,,,,,,,,,,,,,009,2022-05-10_11h08.19.420,FishGame,2022.1.1,59.91399944598588,
,9,넌 정겨워,1,Orange,A,5.791666666666667,5.666666666666667,ScrollDown,ScrollUp,Orange.png,4,Positive,Congruent,0,0,0,0,,,,,,,,,,,,,,,,,,,,,,,,,0,8,8,8,,,,,,,,,,,,,,,,,,,,,,,,,,,,,,,,,,,,,,,,,,,,,,,,,,,,,,,,,,,,,,,,,,,,,,,,,1.0462962985038757,0.6781446000095457,480.6642014000099,None,ScrollDown,정답입니다,480.6642014000099,None,480.6642014000099,None,480.6642014000099,None,480.6642014000099,None,481.23765679984353,None,481.23765679984353,481.7377499998547,,,,,,,,,,,,,,,,009,2022-05-10_11h08.19.420,FishGame,2022.1.1,59.91399944598588,
,10,나를 데려가줘,6,Green,B,0,0,ScrollDown,ScrollUp,Green.png,4,NonTarget,NonTarget,0,0,0,0,,,,,,,,,,,,,,,,,,,,,,,,,0,9,9,9,,,,,,,,,,,,,,,,,,,,,,,,,,,,,,,,,,,,,,,,,,,,,,,,,,,,,,,,,,,,,,,,,,,,,,,,,1.060185174147288,0.9779401998966932,482.36125630000606,None,ScrollDown,정답입니다,482.36125630000606,None,482.36125630000606,None,482.36125630000606,None,482.36125630000606,None,483.2376746998634,None,483.2376746998634,483.7399537998717,,,,,,,,,,,,,,,,009,2022-05-10_11h08.19.420,FishGame,2022.1.1,59.91399944598588,
,11,넌 체제순응적이야,4,Green,B,3,3.6,ScrollUp,ScrollDown,Green.png,4,Negative,Congruent,0,0,0,0,,,,,,,,,,,,,,,,,,,,,,,,,0,10,10,10,,,,,,,,,,,,,,,,,,,,,,,,,,,,,,,,,,,,,,,,,,,,,,,,,,,,,,,,,,,,,,,,,,,,,,,,,1.7314814925193787,0.7768324001226574,484.3701472999528,None,ScrollUp,정답입니다,484.3701472999528,None,484.3701472999528,None,484.3701472999528,None,484.3701472999528,None,485.037342999829,None,485.037342999829,485.53742349985987,,,,,,,,,,,,,,,,009,2022-05-10_11h08.19.420,FishGame,2022.1.1,59.91399944598588,
,12,나를 보내줘,6,Orange,A,0,0,ScrollUp,ScrollDown,Orange.png,4,NonTarget,NonTarget,0,0,0,0,,,,,,,,,,,,,,,,,,,,,,,,,0,11,11,11,,,,,,,,,,,,,,,,,,,,,,,,,,,,,,,,,,,,,,,,,,,,,,,,,,,,,,,,,,,,,,,,,,,,,,,,,1.765432099501292,0.9458023000042886,486.1546914000064,None,ScrollUp,정답입니다,486.1546914000064,None,486.1546914000064,None,486.1546914000064,None,486.1546914000064,None,487.00402019987814,None,487.00402019987814,487.50665070000105,,,,,,,,,,,,,,,,009,2022-05-10_11h08.19.420,FishGame,2022.1.1,59.91399944598588,
,13,넌 박식해,2,Orange,A,5.625,3.933333333333333,ScrollDown,ScrollUp,Orange.png,4,Positive,Congruent,0,0,0,0,,,,,,,,,,,,,,,,,,,,,,,,,0,12,12,12,,,,,,,,,,,,,,,,,,,,,,,,,,,,,,,,,,,,,,,,,,,,,,,,,,,,,,,,,,,,,,,,,,,,,,,,,1,0.7610625000670552,488.13351329998113,None,ScrollDown,정답입니다,488.13351329998113,None,488.13351329998113,None,488.13351329998113,None,488.13351329998113,None,488.78994769998826,None,488.78994769998826,489.2899143998511,,,,,,,,,,,,,,,,009,2022-05-10_11h08.19.420,FishGame,2022.1.1,59.91399944598588,
,14,나를 보내줘,6,Orange,A,0,0,ScrollUp,ScrollDown,Orange.png,4,NonTarget,NonTarget,0,0,0,0,,,,,,,,,,,,,,,,,,,,,,,,,0,13,13,13,,,,,,,,,,,,,,,,,,,,,,,,,,,,,,,,,,,,,,,,,,,,,,,,,,,,,,,,,,,,,,,,,,,,,,,,,1.817901223897934,0.8635090999305248,489.9231731998734,None,ScrollUp,정답입니다,489.9231731998734,None,489.9231731998734,None,489.9231731998734,None,489.9231731998734,None,490.68965739989653,None,490.68965739989653,491.2063886998221,,,,,,,,,,,,,,,,009,2022-05-10_11h08.19.420,FishGame,2022.1.1,59.91399944598588,
,15,넌 침착해,1,Green,B,5.458333333333333,5.566666666666666,ScrollUp,ScrollDown,Green.png,4,Positive,Incongruent,0,0,0,0,,,,,,,,,,,,,,,,,,,,,,,,,0,14,14,14,,,,,,,,,,,,,,,,,,,,,,,,,,,,,,,,,,,,,,,,,,,,,,,,,,,,,,,,,,,,,,,,,,,,,,,,,1.6882716019948325,0.8923692000098526,491.8177898998838,None,ScrollUp,정답입니다,491.8177898998838,None,491.8177898998838,None,491.8177898998838,None,491.8177898998838,None,492.60386159992777,None,492.60386159992777,493.1039491998963,,,,,,,,,,,,,,,,009,2022-05-10_11h08.19.420,FishGame,2022.1.1,59.91399944598588,
,16,나를 데려가줘,6,Green,B,0,0,ScrollDown,ScrollUp,Green.png,4,NonTarget,NonTarget,0,0,0,0,,,,,,,,,,,,,,,,,,,,,,,,,0,15,15,15,,,,,,,,,,,,,,,,,,,,,,,,,,,,,,,,,,,,,,,,,,,,,,,,,,,,,,,,,,,,,,,,,,,,,,,,,1,0.8970088998321444,493.7226129998453,None,ScrollDown,정답입니다,493.7226129998453,None,493.7226129998453,None,493.7226129998453,None,493.7226129998453,None,494.52055049990304,None,494.52055049990304,495.02107829996385,,,,,,,,,,,,,,,,009,2022-05-10_11h08.19.420,FishGame,2022.1.1,59.91399944598588,
,17,넌 행복해,1,Orange,A,6.416666666666666,6.166666666666667,ScrollDown,ScrollUp,Orange.png,4,Positive,Congruent,0,0,0,0,,,,,,,,,,,,,,,,,,,,,,,,,0,16,16,16,,,,,,,,,,,,,,,,,,,,,,,,,,,,,,,,,,,,,,,,,,,,,,,,,,,,,,,,,,,,,,,,,,,,,,,,,1,0.9135752997826785,495.64827200002037,None,ScrollDown,정답입니다,495.64827200002037,None,495.64827200002037,None,495.64827200002037,None,495.64827200002037,None,496.4564109998755,None,496.4564109998755,496.9708538998384,,,,,,,,,,,,,,,,009,2022-05-10_11h08.19.420,FishGame,2022.1.1,59.91399944598588,
,18,넌 겸손해,2,Green,B,5.791666666666667,4.766666666666667,ScrollUp,ScrollDown,Green.png,4,Positive,Incongruent,0,0,0,0,,,,,,,,,,,,,,,,,,,,,,,,,0,17,17,17,,,,,,,,,,,,,,,,,,,,,,,,,,,,,,,,,,,,,,,,,,,,,,,,,,,,,,,,,,,,,,,,,,,,,,,,,1.390432097017765,0.7109401999041438,497.5949646998197,None,ScrollDown,오답입니다,497.5949646998197,None,497.5949646998197,None,497.5949646998197,None,497.5949646998197,None,498.2040748000145,None,498.2040748000145,498.7061876000371,,,,,,,,,,,,,,,,009,2022-05-10_11h08.19.420,FishGame,2022.1.1,59.91399944598588,
,19,나를 보내줘,6,Orange,A,0,0,ScrollUp,ScrollDown,Orange.png,4,NonTarget,NonTarget,0,0,0,0,,,,,,,,,,,,,,,,,,,,,,,,,0,18,18,18,,,,,,,,,,,,,,,,,,,,,,,,,,,,,,,,,,,,,,,,,,,,,,,,,,,,,,,,,,,,,,,,,,,,,,,,,1.7160493781169257,0.9442257999908179,499.3343434999697,None,ScrollUp,정답입니다,499.3343434999697,None,499.3343434999697,None,499.3343434999697,None,499.3343434999697,None,500.17060079984367,None,500.17060079984367,500.6728534998838,,,,,,,,,,,,,,,,009,2022-05-10_11h08.19.420,FishGame,2022.1.1,59.91399944598588,
,20,넌 의심없어,3,Orange,A,4.166666666666667,4.6,ScrollDown,ScrollUp,Orange.png,4,Neutral,Neutral,0,0,0,0,,,,,,,,,,,,,,,,,,,,,,,,,0,19,19,19,,,,,,,,,,,,,,,,,,,,,,,,,,,,,,,,,,,,,,,,,,,,,,,,,,,,,,,,,,,,,,,,,,,,,,,,,1.7253086368242898,0.7280630001332611,501.2909540999681,None,ScrollUp,오답입니다,501.2909540999681,None,501.2909540999681,None,501.2909540999681,None,501.2909540999681,None,501.9206032999791,None,501.9206032999791,502.42068209988065,,,,,,,,,,,,,,,,009,2022-05-10_11h08.19.420,FishGame,2022.1.1,59.91399944598588,
,21,넌 시시해,4,Orange,A,2.666666666666667,2.966666666666667,ScrollDown,ScrollUp,Orange.png,4,Negative,Incongruent,0,0,0,0,,,,,,,,,,,,,,,,,,,,,,,,,0,20,20,20,,,,,,,,,,,,,,,,,,,,,,,,,,,,,,,,,,,,,,,,,,,,,,,,,,,,,,,,,,,,,,,,,,,,,,,,,1.0277777810891469,0.7605320001021028,503.0440209999215,None,ScrollDown,정답입니다,503.0440209999215,None,503.0440209999215,None,503.0440209999215,None,503.0440209999215,None,503.70407309988514,None,503.70407309988514,504.2039858000353,,,,,,,,,,,,,,,,009,2022-05-10_11h08.19.420,FishGame,2022.1.1,59.91399944598588,
,22,나를 데려가줘,6,Green,B,0,0,ScrollDown,ScrollUp,Green.png,4,NonTarget,NonTarget,0,0,0,0,,,,,,,,,,,,,,,,,,,,,,,,,0,21,21,21,,,,,,,,,,,,,,,,,,,,,,,,,,,,,,,,,,,,,,,,,,,,,,,,,,,,,,,,,,,,,,,,,,,,,,,,,1.192901223897934,0.9278520999941975,504.8879592998419,None,ScrollDown,정답입니다,504.8879592998419,None,504.8879592998419,None,504.8879592998419,None,504.8879592998419,None,505.6538592998404,None,505.6538592998404,506.15383980004117,,,,,,,,,,,,,,,,009,2022-05-10_11h08.19.420,FishGame,2022.1.1,59.91399944598588,
,23,넌 무정해,5,Orange,A,2.5,2.2,ScrollDown,ScrollUp,Orange.png,4,Negative,Incongruent,0,0,0,0,,,,,,,,,,,,,,,,,,,,,,,,,0,22,22,22,,,,,,,,,,,,,,,,,,,,,,,,,,,,,,,,,,,,,,,,,,,,,,,,,,,,,,,,,,,,,,,,,,,,,,,,,1.0740740497907002,0.7779883998446167,506.77809309982695,None,ScrollDown,정답입니다,506.77809309982695,None,506.77809309982695,None,506.77809309982695,None,506.77809309982695,None,507.45393099985085,None,507.45393099985085,507.95376159995794,,,,,,,,,,,,,,,,009,2022-05-10_11h08.19.420,FishGame,2022.1.1,59.91399944598588,
,24,넌 긍정적이야,1,Green,B,6.041666666666667,6.066666666666666,ScrollUp,ScrollDown,Green.png,4,Positive,Incongruent,0,0,0,0,,,,,,,,,,,,,,,,,,,,,,,,,0,23,23,23,,,,,,,,,,,,,,,,,,,,,,,,,,,,,,,,,,,,,,,,,,,,,,,,,,,,,,,,,,,,,,,,,,,,,,,,,1.8657407313585281,0.9129848999436945,508.575566599844,None,ScrollUp,정답입니다,508.575566599844,None,508.575566599844,None,508.575566599844,None,508.575566599844,None,509.38707459997386,None,509.38707459997386,509.8871855000034,,,,,,,,,,,,,,,,009,2022-05-10_11h08.19.420,FishGame,2022.1.1,59.91399944598588,
,25,나를 보내줘,6,Orange,A,0,0,ScrollUp,ScrollDown,Orange.png,4,NonTarget,NonTarget,0,0,0,0,,,,,,,,,,,,,,,,,,,,,,,,,0,24,24,24,,,,,,,,,,,,,,,,,,,,,,,,,,,,,,,,,,,,,,,,,,,,,,,,,,,,,,,,,,,,,,,,,,,,,,,,,1.6018518519898257,0.8425650000572205,510.51625199988484,None,ScrollUp,정답입니다,510.51625199988484,None,510.51625199988484,None,510.51625199988484,None,510.51625199988484,None,511.25375369982794,None,511.25375369982794,511.75376089988276,,,,,,,,,,,,,,,,009,2022-05-10_11h08.19.420,FishGame,2022.1.1,59.91399944598588,
,26,넌 시기심이 많아,5,Green,B,2.458333333333333,2.233333333333333,ScrollUp,ScrollDown,Green.png,4,Negative,Congruent,0,0,0,0,,,,,,,,,,,,,,,,,,,,,,,,,0,25,25,25,,,,,,,,,,,,,,,,,,,,,,,,,,,,,,,,,,,,,,,,,,,,,,,,,,,,,,,,,,,,,,,,,,,,,,,,,2,1.157666299957782,512.3784228998702,None,ScrollUp,정답입니다,512.3784228998702,None,512.3784228998702,None,512.3784228998702,None,512.3784228998702,None,513.4252620998304,None,513.4252620998304,513.9368236998562,,,,,,,,,,,,,,,,009,2022-05-10_11h08.19.420,FishGame,2022.1.1,59.91399944598588,
,27,넌 탁월해,2,Orange,A,5.708333333333334,4.5,ScrollDown,ScrollUp,Orange.png,4,Positive,Congruent,0,0,0,0,,,,,,,,,,,,,,,,,,,,,,,,,0,26,26,26,,,,,,,,,,,,,,,,,,,,,,,,,,,,,,,,,,,,,,,,,,,,,,,,,,,,,,,,,,,,,,,,,,,,,,,,,1.0015431940555573,0.8136624000035226,514.5628096000291,None,ScrollDown,정답입니다,514.5628096000291,None,514.5628096000291,None,514.5628096000291,None,514.5628096000291,None,515.2700968999416,None,515.2700968999416,515.770150499884,,,,,,,,,,,,,,,,009,2022-05-10_11h08.19.420,FishGame,2022.1.1,59.91399944598588,
,28,나를 데려가줘,6,Green,B,0,0,ScrollDown,ScrollUp,Green.png,4,NonTarget,NonTarget,0,0,0,0,,,,,,,,,,,,,,,,,,,,,,,,,0,27,27,27,,,,,,,,,,,,,,,,,,,,,,,,,,,,,,,,,,,,,,,,,,,,,,,,,,,,,,,,,,,,,,,,,,,,,,,,,1,1.077541399979964,516.3913831999525,None,ScrollDown,정답입니다,516.3913831999525,None,516.3913831999525,None,516.3913831999525,None,516.3913831999525,None,517.3726230999455,None,517.3726230999455,517.8725874000229,,,,,,,,,,,,,,,,009,2022-05-10_11h08.19.420,FishGame,2022.1.1,59.91399944598588,
,29,넌 조용해,3,Green,B,4.333333333333333,4.166666666666667,ScrollUp,ScrollDown,Green.png,4,Neutral,Neutral,0,0,0,0,,,,,,,,,,,,,,,,,,,,,,,,,0,28,28,28,,,,,,,,,,,,,,,,,,,,,,,,,,,,,,,,,,,,,,,,,,,,,,,,,,,,,,,,,,,,,,,,,,,,,,,,,2,0.8938668000046164,518.5103614998516,None,ScrollUp,정답입니다,518.5103614998516,None,518.5103614998516,None,518.5103614998516,None,518.5103614998516,None,519.2869343999773,None,519.2869343999773,519.7891010998283,,,,,,,,,,,,,,,,009,2022-05-10_11h08.19.420,FishGame,2022.1.1,59.91399944598588,
,30,넌 다정해,1,Orange,A,5.833333333333334,5.7,ScrollDown,ScrollUp,Orange.png,4,Positive,Congruent,0,0,0,0,,,,,,,,,,,,,,,,,,,,,,,,,0,29,29,29,,,,,,,,,,,,,,,,,,,,,,,,,,,,,,,,,,,,,,,,,,,,,,,,,,,,,,,,,,,,,,,,,,,,,,,,,1,0.8439307000953704,520.4141370998695,None,ScrollDown,정답입니다,520.4141370998695,None,520.4141370998695,None,520.4141370998695,None,520.4141370998695,None,521.1532739999238,None,521.1532739999238,521.6533726998605,,,,,,,,,,,,,,,,009,2022-05-10_11h08.19.420,FishGame,2022.1.1,59.91399944598588,
,31,넌 능력있어,2,Green,B,6.166666666666666,4.6,ScrollUp,ScrollDown,Green.png,4,Positive,Incongruent,0,0,0,0,,,,,,,,,,,,,,,,,,,,,,,,,0,30,30,30,,,,,,,,,,,,,,,,,,,,,,,,,,,,,,,,,,,,,,,,,,,,,,,,,,,,,,,,,,,,,,,,,,,,,,,,,1.8904321044683456,0.8948359999340028,522.2700916000176,None,ScrollUp,정답입니다,522.2700916000176,None,522.2700916000176,None,522.2700916000176,None,522.2700916000176,None,523.0699338000268,None,523.0699338000268,523.5724455998279,,,,,,,,,,,,,,,,009,2022-05-10_11h08.19.420,FishGame,2022.1.1,59.91399944598588,
,32,넌 불쾌해,5,Orange,A,2.125,1.933333333333333,ScrollDown,ScrollUp,Orange.png,4,Negative,Incongruent,0,0,0,0,,,,,,,,,,,,,,,,,,,,,,,,,0,31,31,31,,,,,,,,,,,,,,,,,,,,,,,,,,,,,,,,,,,,,,,,,,,,,,,,,,,,,,,,,,,,,,,,,,,,,,,,,1,0.7814858998171985,524.190288499929,None,ScrollDown,정답입니다,524.190288499929,None,524.190288499929,None,524.190288499929,None,524.190288499929,None,524.8723742999136,None,524.8723742999136,525.3728455998935,,,,,,,,,,,,,,,,009,2022-05-10_11h08.19.420,FishGame,2022.1.1,59.91399944598588,
,33,나를 데려가줘,6,Green,B,0,0,ScrollDown,ScrollUp,Green.png,4,NonTarget,NonTarget,0,0,0,0,,,,,,,,,,,,,,,,,,,,,,,,,0,32,32,32,,,,,,,,,,,,,,,,,,,,,,,,,,,,,,,,,,,,,,,,,,,,,,,,,,,,,,,,,,,,,,,,,,,,,,,,,1.121913582086563,0.7262299000285566,525.9878989998251,None,ScrollDown,정답입니다,525.9878989998251,None,525.9878989998251,None,525.9878989998251,None,525.9878989998251,None,526.6223075999878,None,526.6223075999878,527.1223293000367,,,,,,,,,,,,,,,,009,2022-05-10_11h08.19.420,FishGame,2022.1.1,59.91399944598588,
,34,넌 유순해,3,Orange,A,4.458333333333333,5,ScrollDown,ScrollUp,Orange.png,4,Neutral,Neutral,0,0,0,0,,,,,,,,,,,,,,,,,,,,,,,,,0,33,33,33,,,,,,,,,,,,,,,,,,,,,,,,,,,,,,,,,,,,,,,,,,,,,,,,,,,,,,,,,,,,,,,,,,,,,,,,,1.2499999900658925,0.7628299999050796,527.7444016998634,None,ScrollDown,정답입니다,527.7444016998634,None,527.7444016998634,None,527.7444016998634,None,527.7444016998634,None,528.403338199947,None,528.403338199947,528.9034455998335,,,,,,,,,,,,,,,,009,2022-05-10_11h08.19.420,FishGame,2022.1.1,59.91399944598588,
,35,넌 근심스러워,4,Green,B,2.708333333333333,3.133333333333333,ScrollUp,ScrollDown,Green.png,4,Negative,Congruent,0,0,0,0,,,,,,,,,,,,,,,,,,,,,,,,,0,34,34,34,,,,,,,,,,,,,,,,,,,,,,,,,,,,,,,,,,,,,,,,,,,,,,,,,,,,,,,,,,,,,,,,,,,,,,,,,2,0.8950595001224428,529.5377749998588,None,ScrollUp,정답입니다,529.5377749998588,None,529.5377749998588,None,529.5377749998588,None,529.5377749998588,None,530.322126199957,None,530.322126199957,530.8388620999176,,,,,,,,,,,,,,,,009,2022-05-10_11h08.19.420,FishGame,2022.1.1,59.91399944598588,
,36,넌 세련되었어,2,Orange,A,5.5,4.6,ScrollDown,ScrollUp,Orange.png,4,Positive,Congruent,0,0,0,0,,,,,,,,,,,,,,,,,,,,,,,,,0,35,35,35,,,,,,,,,,,,,,,,,,,,,,,,,,,,,,,,,,,,,,,,,,,,,,,,,,,,,,,,,,,,,,,,,,,,,,,,,1,0.8091070000082254,531.4533774999436,None,ScrollDown,정답입니다,531.4533774999436,None,531.4533774999436,None,531.4533774999436,None,531.4533774999436,None,532.1534000998363,None,532.1534000998363,532.6556687999982,,,,,,,,,,,,,,,,009,2022-05-10_11h08.19.420,FishGame,2022.1.1,59.91399944598588,
,37,나를 보내줘,6,Orange,A,0,0,ScrollUp,ScrollDown,Orange.png,4,NonTarget,NonTarget,0,0,0,0,,,,,,,,,,,,,,,,,,,,,,,,,0,36,36,36,,,,,,,,,,,,,,,,,,,,,,,,,,,,,,,,,,,,,,,,,,,,,,,,,,,,,,,,,,,,,,,,,,,,,,,,,2,0.9436270000878721,533.2789540998638,None,ScrollUp,정답입니다,533.2789540998638,None,533.2789540998638,None,533.2789540998638,None,533.2789540998638,None,534.1199580000248,None,534.1199580000248,534.6199900000356,,,,,,,,,,,,,,,,009,2022-05-10_11h08.19.420,FishGame,2022.1.1,59.91399944598588,
,38,넌 확고해,3,Green,B,4.708333333333334,4.566666666666666,ScrollUp,ScrollDown,Green.png,4,Neutral,Neutral,0,0,0,0,,,,,,,,,,,,,,,,,,,,,,,,,0,37,37,37,,,,,,,,,,,,,,,,,,,,,,,,,,,,,,,,,,,,,,,,,,,,,,,,,,,,,,,,,,,,,,,,,,,,,,,,,2,1.2795484000816941,535.239970299881,None,ScrollUp,정답입니다,535.239970299881,None,535.239970299881,None,535.239970299881,None,535.239970299881,None,536.4198566998821,None,536.4198566998821,536.9221347998828,,,,,,,,,,,,,,,,009,2022-05-10_11h08.19.420,FishGame,2022.1.1,59.91399944598588,
,39,넌 이해심이 많아,1,Green,B,6.041666666666668,5.533333333333333,ScrollUp,ScrollDown,Green.png,4,Positive,Incongruent,0,0,0,0,,,,,,,,,,,,,,,,,,,,,,,,,0,38,38,38,,,,,,,,,,,,,,,,,,,,,,,,,,,,,,,,,,,,,,,,,,,,,,,,,,,,,,,,,,,,,,,,,,,,,,,,,2,0.8104955998715013,537.5511225999799,None,ScrollUp,정답입니다,537.5511225999799,None,537.5511225999799,None,537.5511225999799,None,537.5511225999799,None,538.2531973998994,None,538.2531973998994,538.7555270998273,,,,,,,,,,,,,,,,009,2022-05-10_11h08.19.420,FishGame,2022.1.1,59.91399944598588,
,40,나를 보내줘,6,Orange,A,0,0,ScrollUp,ScrollDown,Orange.png,4,NonTarget,NonTarget,0,0,0,0,,,,,,,,,,,,,,,,,,,,,,,,,0,39,39,39,,,,,,,,,,,,,,,,,,,,,,,,,,,,,,,,,,,,,,,,,,,,,,,,,,,,,,,,,,,,,,,,,,,,,,,,,1.71913580596447,0.8274345998652279,539.3796073999256,None,ScrollUp,정답입니다,539.3796073999256,None,539.3796073999256,None,539.3796073999256,None,539.3796073999256,None,540.1031740000471,None,540.1031740000471,540.6032207999378,,,,,,,,,,,,,,,,009,2022-05-10_11h08.19.420,FishGame,2022.1.1,59.91399944598588,
,41,넌 거칠어,4,Orange,A,2.625,3.033333333333333,ScrollDown,ScrollUp,Orange.png,4,Negative,Incongruent,0,0,0,0,,,,,,,,,,,,,,,,,,,,,,,,,0,40,40,40,,,,,,,,,,,,,,,,,,,,,,,,,,,,,,,,,,,,,,,,,,,,,,,,,,,,,,,,,,,,,,,,,,,,,,,,,1,0.9115649999585003,541.224951799959,None,ScrollDown,정답입니다,541.224951799959,None,541.224951799959,None,541.224951799959,None,541.224951799959,None,542.0362650000025,None,542.0362650000025,542.5386739999522,,,,,,,,,,,,,,,,009,2022-05-10_11h08.19.420,FishGame,2022.1.1,59.91399944598588,
,42,넌 변덕맞아,5,Green,B,2.75,2.166666666666667,ScrollUp,ScrollDown,Green.png,4,Negative,Congruent,0,0,0,0,,,,,,,,,,,,,,,,,,,,,,,,,0,41,41,41,,,,,,,,,,,,,,,,,,,,,,,,,,,,,,,,,,,,,,,,,,,,,,,,,,,,,,,,,,,,,,,,,,,,,,,,,1.7762345721324284,0.743755399947986,543.1589615999255,None,ScrollUp,정답입니다,543.1589615999255,None,543.1589615999255,None,543.1589615999255,None,543.1589615999255,None,543.798424199922,None,543.798424199922,544.3028766999487,,,,,,,,,,,,,,,,009,2022-05-10_11h08.19.420,FishGame,2022.1.1,59.91399944598588,
,43,나를 데려가줘,6,Green,B,0,0,ScrollDown,ScrollUp,Green.png,4,NonTarget,NonTarget,0,0,0,0,,,,,,,,,,,,,,,,,,,,,,,,,0,42,42,42,,,,,,,,,,,,,,,,,,,,,,,,,,,,,,,,,,,,,,,,,,,,,,,,,,,,,,,,,,,,,,,,,,,,,,,,,1,0.8450945999938995,544.9194316000212,None,ScrollDown,정답입니다,544.9194316000212,None,544.9194316000212,None,544.9194316000212,None,544.9194316000212,None,545.6694542998448,None,545.6694542998448,546.1695393999107,,,,,,,,,,,,,,,,009,2022-05-10_11h08.19.420,FishGame,2022.1.1,59.91399944598588,
,44,넌 외로워,4,Green,B,2.833333333333333,3.3,ScrollUp,ScrollDown,Green.png,4,Negative,Congruent,0,0,0,0,,,,,,,,,,,,,,,,,,,,,,,,,0,43,43,43,,,,,,,,,,,,,,,,,,,,,,,,,,,,,,,,,,,,,,,,,,,,,,,,,,,,,,,,,,,,,,,,,,,,,,,,,1.9506172736485798,0.8620557000394911,546.7885240998585,None,ScrollUp,정답입니다,546.7885240998585,None,546.7885240998585,None,546.7885240998585,None,546.7885240998585,None,547.5552073998842,None,547.5552073998842,548.0554424000438,,,,,,,,,,,,,,,,009,2022-05-10_11h08.19.420,FishGame,2022.1.1,59.91399944598588,
,1,넌 불평스러워,5,Orange,A,2.25,2.066666666666667,ScrollDown,ScrollUp,Orange.png,5,Negative,Incongruent,0,0,0,0,,,,,,,,,,,,,,,,,,,,,,,,,,,,,0,0,0,0,,,,,,,,,,,,,,,,,,,,,,,,,,,,580.8856096998788,582.3880507999565,582.4189979999792,583.3712738000322,583.4188989999238,584.3713463000022,584.3713463000022,None,,,,,,,,,,,,,,,,,,,,,,,,,,,,,,,,,,1.1574074029922485,0.945203399984166,585.4850812000223,None,ScrollDown,정답입니다,585.4850812000223,None,585.4850812000223,None,585.4850812000223,None,585.4850812000223,None,586.3354549999349,None,586.3354549999349,586.8355665998533,548.5530625998508,None,548.5530625998508,None,0.09537037,-0.08888889,1,0,0,0.016321509843692183,None,578.557763800025,None,,,009,2022-05-10_11h08.19.420,FishGame,2022.1.1,59.91399944598588,
,2,나를 보내줘,6,Orange,A,0,0,ScrollUp,ScrollDown,Orange.png,5,NonTarget,NonTarget,0,0,0,0,,,,,,,,,,,,,,,,,,,,,,,,,,,,,0,1,1,1,,,,,,,,,,,,,,,,,,,,,,,,,,,,,,,,,,,,,,,,,,,,,,,,,,,,,,,,,,,,,,,,,,,,,1.9290123283863068,1.0293600999284536,587.4536073999479,None,ScrollUp,정답입니다,587.4536073999479,None,587.4536073999479,None,587.4536073999479,None,587.4536073999479,None,588.3854328999296,None,588.3854328999296,588.885547199985,,,,,,,,,,,,,,,,009,2022-05-10_11h08.19.420,FishGame,2022.1.1,59.91399944598588,
,3,넌 다재다능해,2,Green,B,6.208333333333333,4.5,ScrollUp,ScrollDown,Green.png,5,Positive,Incongruent,0,0,0,0,,,,,,,,,,,,,,,,,,,,,,,,,,,,,0,2,2,2,,,,,,,,,,,,,,,,,,,,,,,,,,,,,,,,,,,,,,,,,,,,,,,,,,,,,,,,,,,,,,,,,,,,,1.6898148159186044,0.792310600169003,589.514376899926,None,ScrollUp,정답입니다,589.514376899926,None,589.514376899926,None,589.514376899926,None,589.514376899926,None,590.2020874998998,None,590.2020874998998,590.7043552999385,,,,,,,,,,,,,,,,009,2022-05-10_11h08.19.420,FishGame,2022.1.1,59.91399944598588,
,4,넌 과감해,3,Orange,A,4.833333333333334,4.6,ScrollDown,ScrollUp,Orange.png,5,Neutral,Neutral,0,0,0,0,,,,,,,,,,,,,,,,,,,,,,,,,,,,,0,3,3,3,,,,,,,,,,,,,,,,,,,,,,,,,,,,,,,,,,,,,,,,,,,,,,,,,,,,,,,,,,,,,,,,,,,,,1.0694444576899211,0.7599992000032216,591.3261347999796,None,ScrollDown,정답입니다,591.3261347999796,None,591.3261347999796,None,591.3261347999796,None,591.3261347999796,None,591.9853525999933,None,591.9853525999933,592.4853956999723,,,,,,,,,,,,,,,,009,2022-05-10_11h08.19.420,FishGame,2022.1.1,59.91399944598588,
,5,넌 고분고분해,3,Green,B,3.75,4.033333333333333,ScrollUp,ScrollDown,Green.png,5,Neutral,Neutral,0,0,0,0,,,,,,,,,,,,,,,,,,,,,,,,,,,,,0,4,4,4,,,,,,,,,,,,,,,,,,,,,,,,,,,,,,,,,,,,,,,,,,,,,,,,,,,,,,,,,,,,,,,,,,,,,1.71296297510465,0.7777951001189649,593.1077523999847,None,ScrollUp,정답입니다,593.1077523999847,None,593.1077523999847,None,593.1077523999847,None,593.1077523999847,None,593.7853451999836,None,593.7853451999836,594.2853867998347,,,,,,,,,,,,,,,,009,2022-05-10_11h08.19.420,FishGame,2022.1.1,59.91399944598588,
,6,나를 보내줘,6,Orange,A,0,0,ScrollUp,ScrollDown,Orange.png,5,NonTarget,NonTarget,0,0,0,0,,,,,,,,,,,,,,,,,,,,,,,,,,,,,0,5,5,5,,,,,,,,,,,,,,,,,,,,,,,,,,,,,,,,,,,,,,,,,,,,,,,,,,,,,,,,,,,,,,,,,,,,,1.8487654278675716,0.8941103001125157,594.907195399981,None,ScrollUp,정답입니다,594.907195399981,None,594.907195399981,None,594.907195399981,None,594.907195399981,None,595.7019241999369,None,595.7019241999369,596.2020078999922,,,,,,,,,,,,,,,,009,2022-05-10_11h08.19.420,FishGame,2022.1.1,59.91399944598588,
,7,넌 잘 잊어,4,Orange,A,3,3.7,ScrollDown,ScrollUp,Orange.png,5,Negative,Incongruent,0,0,0,0,,,,,,,,,,,,,,,,,,,,,,,,,,,,,0,6,6,6,,,,,,,,,,,,,,,,,,,,,,,,,,,,,,,,,,,,,,,,,,,,,,,,,,,,,,,,,,,,,,,,,,,,,1,0.8091368000023067,596.8364342998248,None,ScrollDown,정답입니다,596.8364342998248,None,596.8364342998248,None,596.8364342998248,None,596.8364342998248,None,597.5352793999482,None,597.5352793999482,598.0374725998845,,,,,,,,,,,,,,,,009,2022-05-10_11h08.19.420,FishGame,2022.1.1,59.91399944598588,
,8,넌 탐구심이없어,4,Green,B,2.833333333333333,3.066666666666667,ScrollUp,ScrollDown,Green.png,5,Negative,Congruent,0,0,0,0,,,,,,,,,,,,,,,,,,,,,,,,,,,,,0,7,7,7,,,,,,,,,,,,,,,,,,,,,,,,,,,,,,,,,,,,,,,,,,,,,,,,,,,,,,,,,,,,,,,,,,,,,1.8302469104528427,0.692922699963674,598.6556098000146,None,ScrollUp,정답입니다,598.6556098000146,None,598.6556098000146,None,598.6556098000146,None,598.6556098000146,None,599.2519018999301,None,599.2519018999301,599.7519612000324,,,,,,,,,,,,,,,,009,2022-05-10_11h08.19.420,FishGame,2022.1.1,59.91399944598588,
,9,나를 데려가줘,6,Green,B,0,0,ScrollDown,ScrollUp,Green.png,5,NonTarget,NonTarget,0,0,0,0,,,,,,,,,,,,,,,,,,,,,,,,,,,,,0,8,8,8,,,,,,,,,,,,,,,,,,,,,,,,,,,,,,,,,,,,,,,,,,,,,,,,,,,,,,,,,,,,,,,,,,,,,1,1.0110286998096853,600.3795131999068,None,ScrollDown,정답입니다,600.3795131999068,None,600.3795131999068,None,600.3795131999068,None,600.3795131999068,None,601.2851386999246,None,601.2851386999246,601.7853204999119,,,,,,,,,,,,,,,,009,2022-05-10_11h08.19.420,FishGame,2022.1.1,59.91399944598588,
,10,넌 참되어,2,Orange,A,6.041666666666664,4.733333333333333,ScrollDown,ScrollUp,Orange.png,5,Positive,Congruent,0,0,0,0,,,,,,,,,,,,,,,,,,,,,,,,,,,,,0,9,9,9,,,,,,,,,,,,,,,,,,,,,,,,,,,,,,,,,,,,,,,,,,,,,,,,,,,,,,,,,,,,,,,,,,,,,1,0.8115893001668155,602.4149949999992,None,ScrollDown,정답입니다,602.4149949999992,None,602.4149949999992,None,602.4149949999992,None,602.4149949999992,None,603.120771399932,None,603.120771399932,603.6207530000247,,,,,,,,,,,,,,,,009,2022-05-10_11h08.19.420,FishGame,2022.1.1,59.91399944598588,
,11,넌 생기있어,1,Green,B,5.875,5.633333333333334,ScrollUp,ScrollDown,Green.png,5,Positive,Incongruent,0,0,0,0,,,,,,,,,,,,,,,,,,,,,,,,,,,,,0,10,10,10,,,,,,,,,,,,,,,,,,,,,,,,,,,,,,,,,,,,,,,,,,,,,,,,,,,,,,,,,,,,,,,,,,,,,2,0.8630687000695616,604.2589944999199,None,ScrollUp,정답입니다,604.2589944999199,None,604.2589944999199,None,604.2589944999199,None,604.2589944999199,None,605.0184390000068,None,605.0184390000068,605.5185435998719,,,,,,,,,,,,,,,,009,2022-05-10_11h08.19.420,FishGame,2022.1.1,59.91399944598588,
,12,넌 비사교적이야,4,Green,B,2.875,2.9,ScrollUp,ScrollDown,Green.png,5,Negative,Congruent,0,0,0,0,,,,,,,,,,,,,,,,,,,,,,,,,,,,,0,11,11,11,,,,,,,,,,,,,,,,,,,,,,,,,,,,,,,,,,,,,,,,,,,,,,,,,,,,,,,,,,,,,,,,,,,,,2,0.7928498999681324,606.1369017998222,None,ScrollUp,정답입니다,606.1369017998222,None,606.1369017998222,None,606.1369017998222,None,606.1369017998222,None,606.8373738999944,None,606.8373738999944,607.3351237999741,,,,,,,,,,,,,,,,009,2022-05-10_11h08.19.420,FishGame,2022.1.1,59.91399944598588,
,13,나를 데려가줘,6,Green,B,0,0,ScrollDown,ScrollUp,Green.png,5,NonTarget,NonTarget,0,0,0,0,,,,,,,,,,,,,,,,,,,,,,,,,,,,,0,12,12,12,,,,,,,,,,,,,,,,,,,,,,,,,,,,,,,,,,,,,,,,,,,,,,,,,,,,,,,,,,,,,,,,,,,,,1.1851851791143417,0.9095815001055598,607.9595800999086,None,ScrollDown,정답입니다,607.9595800999086,None,607.9595800999086,None,607.9595800999086,None,607.9595800999086,None,608.7681338998955,None,608.7681338998955,609.2681330998894,,,,,,,,,,,,,,,,009,2022-05-10_11h08.19.420,FishGame,2022.1.1,59.91399944598588,
,14,넌 고독해,4,Orange,A,2.916666666666667,3.233333333333333,ScrollDown,ScrollUp,Orange.png,5,Negative,Incongruent,0,0,0,0,,,,,,,,,,,,,,,,,,,,,,,,,,,,,0,13,13,13,,,,,,,,,,,,,,,,,,,,,,,,,,,,,,,,,,,,,,,,,,,,,,,,,,,,,,,,,,,,,,,,,,,,,1,0.7114009000360966,609.8876830998342,None,ScrollDown,정답입니다,609.8876830998342,None,609.8876830998342,None,609.8876830998342,None,609.8876830998342,None,610.5014351999853,None,610.5014351999853,611.0041247999761,,,,,,,,,,,,,,,,009,2022-05-10_11h08.19.420,FishGame,2022.1.1,59.91399944598588,
,15,넌 신경질적이야,5,Green,B,2.375,2.233333333333333,ScrollUp,ScrollDown,Green.png,5,Negative,Congruent,0,0,0,0,,,,,,,,,,,,,,,,,,,,,,,,,,,,,0,14,14,14,,,,,,,,,,,,,,,,,,,,,,,,,,,,,,,,,,,,,,,,,,,,,,,,,,,,,,,,,,,,,,,,,,,,,1.8641975422700245,0.7431828000117093,611.6429931998719,None,ScrollUp,정답입니다,611.6429931998719,None,611.6429931998719,None,611.6429931998719,None,611.6429931998719,None,612.2706422000192,None,612.2706422000192,612.7706559000071,,,,,,,,,,,,,,,,009,2022-05-10_11h08.19.420,FishGame,2022.1.1,59.91399944598588,
,16,넌 똑똑해,2,Green,B,5.666666666666667,3.966666666666667,ScrollUp,ScrollDown,Green.png,5,Positive,Incongruent,0,0,0,0,,,,,,,,,,,,,,,,,,,,,,,,,,,,,0,15,15,15,,,,,,,,,,,,,,,,,,,,,,,,,,,,,,,,,,,,,,,,,,,,,,,,,,,,,,,,,,,,,,,,,,,,,2,0.8273182001430541,613.3885992998257,None,ScrollUp,정답입니다,613.3885992998257,None,613.3885992998257,None,613.3885992998257,None,613.3885992998257,None,614.1183068999089,None,614.1183068999089,614.6204347000457,,,,,,,,,,,,,,,,009,2022-05-10_11h08.19.420,FishGame,2022.1.1,59.91399944598588,
,17,나를 보내줘,6,Orange,A,0,0,ScrollUp,ScrollDown,Orange.png,5,NonTarget,NonTarget,0,0,0,0,,,,,,,,,,,,,,,,,,,,,,,,,,,,,0,16,16,16,,,,,,,,,,,,,,,,,,,,,,,,,,,,,,,,,,,,,,,,,,,,,,,,,,,,,,,,,,,,,,,,,,,,,1.8302469104528427,0.9925370998680592,615.2429735998157,None,ScrollUp,정답입니다,615.2429735998157,None,615.2429735998157,None,615.2429735998157,None,615.2429735998157,None,616.1348969000392,None,616.1348969000392,616.6371693999972,,,,,,,,,,,,,,,,009,2022-05-10_11h08.19.420,FishGame,2022.1.1,59.91399944598588,
,18,넌 협조적이야,1,Orange,A,5.625,5.666666666666667,ScrollDown,ScrollUp,Orange.png,5,Positive,Congruent,0,0,0,0,,,,,,,,,,,,,,,,,,,,,,,,,,,,,0,17,17,17,,,,,,,,,,,,,,,,,,,,,,,,,,,,,,,,,,,,,,,,,,,,,,,,,,,,,,,,,,,,,,,,,,,,,1.0015431940555573,0.777609899872914,617.2614920998458,None,ScrollDown,정답입니다,617.2614920998458,None,617.2614920998458,None,617.2614920998458,None,617.2614920998458,None,617.9345326998737,None,617.9345326998737,618.4346474998165,,,,,,,,,,,,,,,,009,2022-05-10_11h08.19.420,FishGame,2022.1.1,59.91399944598588,
,19,나를 데려가줘,6,Green,B,0,0,ScrollDown,ScrollUp,Green.png,5,NonTarget,NonTarget,0,0,0,0,,,,,,,,,,,,,,,,,,,,,,,,,,,,,0,18,18,18,,,,,,,,,,,,,,,,,,,,,,,,,,,,,,,,,,,,,,,,,,,,,,,,,,,,,,,,,,,,,,,,,,,,,1,0.9613987000193447,619.0509128000122,None,ScrollDown,정답입니다,619.0509128000122,None,619.0509128000122,None,619.0509128000122,None,619.0509128000122,None,619.9178597000428,None,619.9178597000428,620.4179542998318,,,,,,,,,,,,,,,,009,2022-05-10_11h08.19.420,FishGame,2022.1.1,59.91399944598588,
,20,넌 몰인정해,5,Green,B,2.541666666666667,2.066666666666667,ScrollUp,ScrollDown,Green.png,5,Negative,Congruent,0,0,0,0,,,,,,,,,,,,,,,,,,,,,,,,,,,,,0,19,19,19,,,,,,,,,,,,,,,,,,,,,,,,,,,,,,,,,,,,,,,,,,,,,,,,,,,,,,,,,,,,,,,,,,,,,1.7206790198882422,0.8789302001241595,621.0384303999599,None,ScrollUp,정답입니다,621.0384303999599,None,621.0384303999599,None,621.0384303999599,None,621.0384303999599,None,621.8181850998662,None,621.8181850998662,622.3203950000461,,,,,,,,,,,,,,,,009,2022-05-10_11h08.19.420,FishGame,2022.1.1,59.91399944598588,
,21,나를 데려가줘,6,Green,B,0,0,ScrollDown,ScrollUp,Green.png,5,NonTarget,NonTarget,0,0,0,0,,,,,,,,,,,,,,,,,,,,,,,,,,,,,0,20,20,20,,,,,,,,,,,,,,,,,,,,,,,,,,,,,,,,,,,,,,,,,,,,,,,,,,,,,,,,,,,,,,,,,,,,,1.0370370149612427,0.8758276998996735,622.9389609999489,None,ScrollDown,정답입니다,622.9389609999489,None,622.9389609999489,None,622.9389609999489,None,622.9389609999489,None,623.7236333999317,None,623.7236333999317,624.2347285998985,,,,,,,,,,,,,,,,009,2022-05-10_11h08.19.420,FishGame,2022.1.1,59.91399944598588,
,22,넌 순진해,3,Green,B,4.125,4.166666666666667,ScrollUp,ScrollDown,Green.png,5,Neutral,Neutral,0,0,0,0,,,,,,,,,,,,,,,,,,,,,,,,,,,,,0,21,21,21,,,,,,,,,,,,,,,,,,,,,,,,,,,,,,,,,,,,,,,,,,,,,,,,,,,,,,,,,,,,,,,,,,,,,2,0.9761191001161933,624.8567051000427,None,ScrollUp,정답입니다,624.8567051000427,None,624.8567051000427,None,624.8567051000427,None,624.8567051000427,None,625.7368652999867,None,625.7368652999867,626.2513978998177,,,,,,,,,,,,,,,,009,2022-05-10_11h08.19.420,FishGame,2022.1.1,59.91399944598588,
