name,TrialNum,Word,WordCategory,FishType,WordList,WordValence,WordReputation,CorrectResp,IncorrectResp,FishTypeFile,Round,WordType,Condition,LoopforOrange.thisRepN,LoopforOrange.thisTrialN,LoopforOrange.thisN,LoopforOrange.thisIndex,LoopForGreen.thisRepN,LoopForGreen.thisTrialN,LoopForGreen.thisN,LoopForGreen.thisIndex,GreenInstLoop.thisRepN,GreenInstLoop.thisTrialN,GreenInstLoop.thisN,GreenInstLoop.thisIndex,GreenPrac.thisRepN,GreenPrac.thisTrialN,GreenPrac.thisN,GreenPrac.thisIndex,trials_2.thisRepN,trials_2.thisTrialN,trials_2.thisN,trials_2.thisIndex,GreenRound1.thisRepN,GreenRound1.thisTrialN,GreenRound1.thisN,GreenRound1.thisIndex,GreenRound2.thisRepN,GreenRound2.thisTrialN,GreenRound2.thisN,GreenRound2.thisIndex,GreenRound3.thisRepN,GreenRound3.thisTrialN,GreenRound3.thisN,GreenRound3.thisIndex,GreenRound4.thisRepN,GreenRound4.thisTrialN,GreenRound4.thisN,GreenRound4.thisIndex,GreenRound5.thisRepN,GreenRound5.thisTrialN,GreenRound5.thisN,GreenRound5.thisIndex,text_2.started,text_2.stopped,text_3.started,text_3.stopped,key_resp.keys,key_resp.rt,key_resp.started,key_resp.stopped,PassI.started,PassI.stopped,PassInst.keys,PassInst.rt,PassInst.started,PassInst.stopped,mouse_2.x,mouse_2.y,mouse_2.leftButton,mouse_2.midButton,mouse_2.rightButton,mouse_2.started,mouse_2.stopped,image.started,image.stopped,text_5.started,text_5.stopped,text_6.started,text_6.stopped,text_7.started,text_7.stopped,text_8.started,text_8.stopped,slider_3.response,slider_3.rt,slider_3.started,slider_3.stopped,Response_3,Feedback_3,BackGround_3.started,BackGround_3.stopped,Fish_3.started,Fish_3.stopped,WordBox_3.started,WordBox_3.stopped,Words_3.started,Words_3.stopped,BackGround_Feedback_3.started,BackGround_Feedback_3.stopped,Feedbacks_3.started,Feedbacks_3.stopped,Continue_or_not_2.keys,Continue_or_not_2.rt,Continue_or_not_2.started,Continue_or_not_2.stopped,image_4.started,image_4.stopped,mouse_3.x,mouse_3.y,mouse_3.leftButton,mouse_3.midButton,mouse_3.rightButton,mouse_3.started,mouse_3.stopped,startmain.started,startmain.stopped,slider_4.response,slider_4.rt,slider_4.started,slider_4.stopped,Response_4,Feedback_4,BackGround_4.started,BackGround_4.stopped,Fish_4.started,Fish_4.stopped,WordBox_4.started,WordBox_4.stopped,Words_4.started,Words_4.stopped,BackGround_Feedback_4.started,BackGround_Feedback_4.stopped,Feedbacks_4.started,Feedbacks_4.stopped,text.started,text.stopped,break_interval.started,break_interval.stopped,mouse.x,mouse.y,mouse.leftButton,mouse.midButton,mouse.rightButton,mouse.started,mouse.stopped,stratnextround.started,stratnextround.stopped,endgame.started,endgame.stopped,participant,date,expName,psychopyVersion,frameRate,
,,,,,,,,,,,,,,,,,,,,,,,,,,,,,,,,,,,,,,,,,,,,,,,,,,,,,,21.08788889995776,None,21.08788889995776,None,space,3.128840600140393,21.58685590000823,None,,,,,,,,,,,,,,,,,,,,,,,,,,,,,,,,,,,,,,,,,,,,,,,,,,,,,,,,,,,,,,,,,,,,,,,,,,,,,,,,,,,,,,,,,,010,2022-05-10_19h58.46.887,FishGame,2022.1.1,59.28697923870682,
물고기과제_instruction(참가자용)GreenVersion.mp4,,,,,,,,,,,,,,,,,,0,0,0,0,0,0,0,0,,,,,,,,,,,,,,,,,,,,,,,,,,,,,,,,,,,,,102.30458779982291,None,n,4.197987400228158,102.30458779982291,None,,,,,,,,,,,,,,,,,,,,,,,,,,,,,,,,,,,,,,,,,,,,,,,,,,,,,,,,,,,,,,,,,,,,,,,,,,,,,,,,,,,,010,2022-05-10_19h58.46.887,FishGame,2022.1.1,59.28697923870682,
,1,넌 교활해,5,Orange,B,2.333333333333333,2.133333333333333,ScrollUp,ScrollDown,Orange.png,practice,,,,,,,0,0,0,0,,,,,0,0,0,0,0,0,0,0,,,,,,,,,,,,,,,,,,,,,,,,,,,,,,,,,,,0.50277776,-0.1537037,1,0,0,0.5135359598789364,None,106.52903690002859,None,108.66263469983824,110.16839359980077,110.18462409987114,111.14581459993497,111.1982211000286,112.14811880001798,112.14811880001798,None,2,2.022555099800229,113.43350099981762,None,ScrollUp,정답입니다,113.43350099981762,None,113.43350099981762,None,113.43350099981762,None,113.43350099981762,None,115.16247099987231,None,115.16247099987231,115.66774319997057,,,,,,,,,,,,,,,,,,,,,,,,,,,,,,,,,,,,,,,,,,,,,,,,,010,2022-05-10_19h58.46.887,FishGame,2022.1.1,59.28697923870682,
,2,넌 슬기로워,2,Green,A,6.166666666666667,4.1,ScrollDown,ScrollUp,Green.png,practice,,,,,,,0,0,0,0,,,,,0,0,0,0,0,1,1,1,,,,,,,,,,,,,,,,,,,,,,,,,,,,,,,,,,,,,,,,,,,,,,,,,,,,1.0416666567325592,1.025785299949348,116.28404830000363,None,ScrollDown,정답입니다,116.28404830000363,None,116.28404830000363,None,116.28404830000363,None,116.28404830000363,None,117.21229329984635,None,117.21229329984635,117.7123399998527,,,,,,,,,,,,,,,,,,,,,,,,,,,,,,,,,,,,,,,,,,,,,,,,,010,2022-05-10_19h58.46.887,FishGame,2022.1.1,59.28697923870682,
,3,나를 보내줘,6,Green,A,0,0,ScrollUp,ScrollDown,Green.png,practice,,,,,,,0,0,0,0,,,,,0,0,0,0,0,2,2,2,,,,,,,,,,,,,,,,,,,,,,,,,,,,,,,,,,,,,,,,,,,,,,,,,,,,1,0.9108176999725401,118.3315033998806,None,ScrollDown,오답입니다,118.3315033998806,None,118.3315033998806,None,118.3315033998806,None,118.3315033998806,None,119.14563679997809,None,119.14563679997809,119.64781019999646,,,,,,,,,,,,,,,,,,,,,,,,,,,,,,,,,,,,,,,,,,,,,,,,,010,2022-05-10_19h58.46.887,FishGame,2022.1.1,59.28697923870682,
,4,나를 데려가줘,6,Orange,B,0,0,ScrollDown,ScrollUp,Orange.png,practice,,,,,,,0,0,0,0,,,,,0,0,0,0,0,3,3,3,,,,,,,,,,,,,,,,,,,,,,,,,,,,,,,,,,,,,,,,,,,,,,,,,,,,1.1296296268701553,1.5094916000962257,120.265678799944,None,ScrollDown,정답입니다,120.265678799944,None,120.265678799944,None,120.265678799944,None,120.265678799944,None,121.67886539991014,None,121.67886539991014,122.17895599990152,,,,,,,,,,,,,,,,,,,,,,,,,,,,,,,,,,,,,,,,,,,,,,,,,010,2022-05-10_19h58.46.887,FishGame,2022.1.1,59.28697923870682,
,1,넌 교활해,5,Orange,B,2.333333333333333,2.133333333333333,ScrollUp,ScrollDown,Orange.png,practice,,,,,,,0,0,0,0,,,,,0,0,0,0,,,,,,,,,,,,,,,,,,,,,,,,,,,,,,,,,,,,,,,,,,,,,,,,,,,,,,,,,,,,,,,,,,,,,,,,,,n,3.387315300060436,122.67888679984026,None,122.67888679984026,None,,,,,,,,,,,,,,,,,,,,,,,,,,,,,,,,,,,,,,,,,,,010,2022-05-10_19h58.46.887,FishGame,2022.1.1,59.28697923870682,
,1,넌 따뜻해,1,Orange,B,6.083333333333333,5.6,ScrollUp,ScrollDown,Orange.png,1,Positive,Incongruent,,,,,0,0,0,0,,,,,,,,,,,,,0,0,0,0,,,,,,,,,,,,,,,,,,,,,,,,,,,,,,,,,,,,,,,,130.5620647999458,132.0644759000279,132.1007921998389,133.062060700031,133.09772309986874,134.0476940998342,134.0476940998342,None,,,,,,,,,,,,,,,,,,,,,,,,,0.23148148,-0.11203704,1,0,0,0.31381136015988886,None,126.09549409989268,None,1.8827160596847534,1.682018900057301,135.3467731999699,None,ScrollUp,정답입니다,135.3467731999699,None,135.3467731999699,None,135.3467731999699,None,135.3467731999699,None,136.72876670002006,None,136.72876670002006,137.2308495999314,,,,,,,,,,,,,,,,010,2022-05-10_19h58.46.887,FishGame,2022.1.1,59.28697923870682,
,2,넌 기품있어,2,Orange,B,5.791666666666668,4.5,ScrollUp,ScrollDown,Orange.png,1,Positive,Incongruent,,,,,0,0,0,0,,,,,,,,,,,,,0,1,1,1,,,,,,,,,,,,,,,,,,,,,,,,,,,,,,,,,,,,,,,,,,,,,,,,,,,,,,,,,,,,,,,,,,,,,,,,,,,,,,,,,1.8302469104528427,0.9929526001214981,137.85510019981302,None,ScrollUp,정답입니다,137.85510019981302,None,137.85510019981302,None,137.85510019981302,None,137.85510019981302,None,138.7452332000248,None,138.7452332000248,139.24523989995942,,,,,,,,,,,,,,,,010,2022-05-10_19h58.46.887,FishGame,2022.1.1,59.28697923870682,
,3,나를 보내줘,6,Green,A,0,0,ScrollUp,ScrollDown,Green.png,1,NonTarget,NonTarget,,,,,0,0,0,0,,,,,,,,,,,,,0,2,2,2,,,,,,,,,,,,,,,,,,,,,,,,,,,,,,,,,,,,,,,,,,,,,,,,,,,,,,,,,,,,,,,,,,,,,,,,,,,,,,,,,1.71913580596447,1.3090272000990808,139.8730440000072,None,ScrollUp,정답입니다,139.8730440000072,None,139.8730440000072,None,139.8730440000072,None,139.8730440000072,None,141.0806797000114,None,141.0806797000114,141.5807497999631,,,,,,,,,,,,,,,,010,2022-05-10_19h58.46.887,FishGame,2022.1.1,59.28697923870682,
,4,넌 수동적이야,4,Green,A,2.833333333333333,2.933333333333333,ScrollDown,ScrollUp,Green.png,1,Negative,Incongruent,,,,,0,0,0,0,,,,,,,,,,,,,0,3,3,3,,,,,,,,,,,,,,,,,,,,,,,,,,,,,,,,,,,,,,,,,,,,,,,,,,,,,,,,,,,,,,,,,,,,,,,,,,,,,,,,,1,1.3946795999072492,142.23015189985745,None,ScrollDown,정답입니다,142.23015189985745,None,142.23015189985745,None,142.23015189985745,None,142.23015189985745,None,143.51173639995977,None,143.51173639995977,144.01410119980574,,,,,,,,,,,,,,,,010,2022-05-10_19h58.46.887,FishGame,2022.1.1,59.28697923870682,
,5,넌 사심이 없어,3,Orange,B,4.916666666666666,4.333333333333333,ScrollUp,ScrollDown,Orange.png,1,Neutral,Neutral,,,,,0,0,0,0,,,,,,,,,,,,,0,4,4,4,,,,,,,,,,,,,,,,,,,,,,,,,,,,,,,,,,,,,,,,,,,,,,,,,,,,,,,,,,,,,,,,,,,,,,,,,,,,,,,,,1.5663580248753228,1.775974899996072,144.64127109991387,None,ScrollUp,정답입니다,144.64127109991387,None,144.64127109991387,None,144.64127109991387,None,144.64127109991387,None,146.3138776998967,None,146.3138776998967,146.81399369984865,,,,,,,,,,,,,,,,010,2022-05-10_19h58.46.887,FishGame,2022.1.1,59.28697923870682,
,6,넌 헤퍼,5,Green,A,2.458333333333334,2.233333333333333,ScrollDown,ScrollUp,Green.png,1,Negative,Incongruent,,,,,0,0,0,0,,,,,,,,,,,,,0,5,5,5,,,,,,,,,,,,,,,,,,,,,,,,,,,,,,,,,,,,,,,,,,,,,,,,,,,,,,,,,,,,,,,,,,,,,,,,,,,,,,,,,1.016975333293279,1.076894500060007,147.43606029986404,None,ScrollDown,정답입니다,147.43606029986404,None,147.43606029986404,None,147.43606029986404,None,147.43606029986404,None,148.41139329993166,None,148.41139329993166,148.91147609986365,,,,,,,,,,,,,,,,010,2022-05-10_19h58.46.887,FishGame,2022.1.1,59.28697923870682,
,7,넌 말쑥해,3,Green,A,4.833333333333334,4.333333333333333,ScrollDown,ScrollUp,Green.png,1,Neutral,Neutral,,,,,0,0,0,0,,,,,,,,,,,,,0,6,6,6,,,,,,,,,,,,,,,,,,,,,,,,,,,,,,,,,,,,,,,,,,,,,,,,,,,,,,,,,,,,,,,,,,,,,,,,,,,,,,,,,1,0.945249600103125,149.5316395999398,None,ScrollDown,정답입니다,149.5316395999398,None,149.5316395999398,None,149.5316395999398,None,149.5316395999398,None,150.38065689988434,None,150.38065689988434,150.88062029983848,,,,,,,,,,,,,,,,010,2022-05-10_19h58.46.887,FishGame,2022.1.1,59.28697923870682,
,8,넌 투덜거려,5,Orange,B,2.541666666666667,2.266666666666667,ScrollUp,ScrollDown,Orange.png,1,Negative,Congruent,,,,,0,0,0,0,,,,,,,,,,,,,0,7,7,7,,,,,,,,,,,,,,,,,,,,,,,,,,,,,,,,,,,,,,,,,,,,,,,,,,,,,,,,,,,,,,,,,,,,,,,,,,,,,,,,,1.9938271641731262,0.9126075999811292,151.5027377998922,None,ScrollUp,정답입니다,151.5027377998922,None,151.5027377998922,None,151.5027377998922,None,151.5027377998922,None,152.31388659984805,None,152.31388659984805,152.8139247999061,,,,,,,,,,,,,,,,010,2022-05-10_19h58.46.887,FishGame,2022.1.1,59.28697923870682,
,9,넌 적극적이야,1,Green,A,5.708333333333333,5.533333333333333,ScrollDown,ScrollUp,Green.png,1,Positive,Congruent,,,,,0,0,0,0,,,,,,,,,,,,,0,8,8,8,,,,,,,,,,,,,,,,,,,,,,,,,,,,,,,,,,,,,,,,,,,,,,,,,,,,,,,,,,,,,,,,,,,,,,,,,,,,,,,,,1.0478395124276478,0.860712899826467,153.43173979991116,None,ScrollDown,정답입니다,153.43173979991116,None,153.43173979991116,None,153.43173979991116,None,153.43173979991116,None,154.1971372999251,None,154.1971372999251,154.69706939999014,,,,,,,,,,,,,,,,010,2022-05-10_19h58.46.887,FishGame,2022.1.1,59.28697923870682,
,10,넌 재미없어,4,Orange,B,2.625,2.966666666666667,ScrollUp,ScrollDown,Orange.png,1,Negative,Congruent,,,,,0,0,0,0,,,,,,,,,,,,,0,9,9,9,,,,,,,,,,,,,,,,,,,,,,,,,,,,,,,,,,,,,,,,,,,,,,,,,,,,,,,,,,,,,,,,,,,,,,,,,,,,,,,,,1.8703703731298447,1.026003799866885,155.32171209994704,None,ScrollUp,정답입니다,155.32171209994704,None,155.32171209994704,None,155.32171209994704,None,155.32171209994704,None,156.24488499993458,None,156.24488499993458,156.75018929992802,,,,,,,,,,,,,,,,010,2022-05-10_19h58.46.887,FishGame,2022.1.1,59.28697923870682,
,11,넌 명석해,2,Green,A,5.875,4.033333333333333,ScrollDown,ScrollUp,Green.png,1,Positive,Congruent,,,,,0,0,0,0,,,,,,,,,,,,,0,10,10,10,,,,,,,,,,,,,,,,,,,,,,,,,,,,,,,,,,,,,,,,,,,,,,,,,,,,,,,,,,,,,,,,,,,,,,,,,,,,,,,,,1.09413580596447,0.7449642999563366,157.36959939985536,None,ScrollDown,정답입니다,157.36959939985536,None,157.36959939985536,None,157.36959939985536,None,157.36959939985536,None,158.0114378000144,None,158.0114378000144,158.51358239981346,,,,,,,,,,,,,,,,010,2022-05-10_19h58.46.887,FishGame,2022.1.1,59.28697923870682,
,12,나를 데려가줘,6,Orange,B,0,0,ScrollDown,ScrollUp,Orange.png,1,NonTarget,NonTarget,,,,,0,0,0,0,,,,,,,,,,,,,0,11,11,11,,,,,,,,,,,,,,,,,,,,,,,,,,,,,,,,,,,,,,,,,,,,,,,,,,,,,,,,,,,,,,,,,,,,,,,,,,,,,,,,,1,1.2106115999631584,159.13519709999673,None,ScrollDown,정답입니다,159.13519709999673,None,159.13519709999673,None,159.13519709999673,None,159.13519709999673,None,160.24477909994312,None,160.24477909994312,160.74707569996826,,,,,,,,,,,,,,,,010,2022-05-10_19h58.46.887,FishGame,2022.1.1,59.28697923870682,
,13,넌 소심해,4,Green,A,3,3.1,ScrollDown,ScrollUp,Green.png,1,Negative,Incongruent,,,,,0,0,0,0,,,,,,,,,,,,,0,12,12,12,,,,,,,,,,,,,,,,,,,,,,,,,,,,,,,,,,,,,,,,,,,,,,,,,,,,,,,,,,,,,,,,,,,,,,,,,,,,,,,,,1.5262345684071383,0.8942545999307185,161.3704905998893,None,NoResponse,무응답입니다,161.3704905998893,None,161.3704905998893,None,161.3704905998893,None,161.3704905998893,None,162.16113949986175,None,162.16113949986175,162.66118499985896,,,,,,,,,,,,,,,,010,2022-05-10_19h58.46.887,FishGame,2022.1.1,59.28697923870682,
,14,넌 합리적이야,2,Green,A,5.583333333333333,4.733333333333333,ScrollDown,ScrollUp,Green.png,1,Positive,Congruent,,,,,0,0,0,0,,,,,,,,,,,,,0,13,13,13,,,,,,,,,,,,,,,,,,,,,,,,,,,,,,,,,,,,,,,,,,,,,,,,,,,,,,,,,,,,,,,,,,,,,,,,,,,,,,,,,1,1.0114814001135528,163.2816292999778,None,ScrollDown,정답입니다,163.2816292999778,None,163.2816292999778,None,163.2816292999778,None,163.2816292999778,None,164.19699139986187,None,164.19699139986187,164.69699830003083,,,,,,,,,,,,,,,,010,2022-05-10_19h58.46.887,FishGame,2022.1.1,59.28697923870682,
,15,넌 무자비해,5,Orange,B,2.333333333333333,2.1,ScrollUp,ScrollDown,Orange.png,1,Negative,Congruent,,,,,0,0,0,0,,,,,,,,,,,,,0,14,14,14,,,,,,,,,,,,,,,,,,,,,,,,,,,,,,,,,,,,,,,,,,,,,,,,,,,,,,,,,,,,,,,,,,,,,,,,,,,,,,,,,1.7145061641931534,0.793972399784252,165.3258905999828,None,ScrollUp,정답입니다,165.3258905999828,None,165.3258905999828,None,165.3258905999828,None,165.3258905999828,None,166.01369369984604,None,166.01369369984604,166.5301464998629,,,,,,,,,,,,,,,,010,2022-05-10_19h58.46.887,FishGame,2022.1.1,59.28697923870682,
,16,나를 보내줘,6,Green,A,0,0,ScrollUp,ScrollDown,Green.png,1,NonTarget,NonTarget,,,,,0,0,0,0,,,,,,,,,,,,,0,15,15,15,,,,,,,,,,,,,,,,,,,,,,,,,,,,,,,,,,,,,,,,,,,,,,,,,,,,,,,,,,,,,,,,,,,,,,,,,,,,,,,,,1,0.8429050999693573,167.13342939992435,None,ScrollDown,오답입니다,167.13342939992435,None,167.13342939992435,None,167.13342939992435,None,167.13342939992435,None,167.87795069999993,None,167.87795069999993,168.37794619984925,,,,,,,,,,,,,,,,010,2022-05-10_19h58.46.887,FishGame,2022.1.1,59.28697923870682,
,17,넌 현실적이야,3,Orange,B,4.608695652173913,4.766666666666667,ScrollUp,ScrollDown,Orange.png,1,Neutral,Neutral,,,,,0,0,0,0,,,,,,,,,,,,,0,16,16,16,,,,,,,,,,,,,,,,,,,,,,,,,,,,,,,,,,,,,,,,,,,,,,,,,,,,,,,,,,,,,,,,,,,,,,,,,,,,,,,,,1.7484567960103354,1.2597710001282394,169.00667439983226,None,ScrollUp,정답입니다,169.00667439983226,None,169.00667439983226,None,169.00667439983226,None,169.00667439983226,None,170.16096379980445,None,170.16096379980445,170.6610192998778,,,,,,,,,,,,,,,,010,2022-05-10_19h58.46.887,FishGame,2022.1.1,59.28697923870682,
,18,넌 의리있어,1,Orange,B,5.833333333333334,5.633333333333334,ScrollUp,ScrollDown,Orange.png,1,Positive,Incongruent,,,,,0,0,0,0,,,,,,,,,,,,,0,17,17,17,,,,,,,,,,,,,,,,,,,,,,,,,,,,,,,,,,,,,,,,,,,,,,,,,,,,,,,,,,,,,,,,,,,,,,,,,,,,,,,,,1.8966049353281658,1.0951847000978887,171.28290260001086,None,ScrollUp,정답입니다,171.28290260001086,None,171.28290260001086,None,171.28290260001086,None,171.28290260001086,None,172.28010959993117,None,172.28010959993117,172.78014989988878,,,,,,,,,,,,,,,,010,2022-05-10_19h58.46.887,FishGame,2022.1.1,59.28697923870682,
,19,넌 신경과민이야,5,Green,A,2.541666666666667,2.166666666666667,ScrollDown,ScrollUp,Green.png,1,Negative,Incongruent,,,,,0,0,0,0,,,,,,,,,,,,,0,18,18,18,,,,,,,,,,,,,,,,,,,,,,,,,,,,,,,,,,,,,,,,,,,,,,,,,,,,,,,,,,,,,,,,,,,,,,,,,,,,,,,,,1,0.9764189999550581,173.39984430000186,None,ScrollDown,정답입니다,173.39984430000186,None,173.39984430000186,None,173.39984430000186,None,173.39984430000186,None,174.2660132998135,None,174.2660132998135,174.77996720001101,,,,,,,,,,,,,,,,010,2022-05-10_19h58.46.887,FishGame,2022.1.1,59.28697923870682,
,20,넌 편안해,1,Green,A,5.916666666666666,5.866666666666666,ScrollDown,ScrollUp,Green.png,1,Positive,Congruent,,,,,0,0,0,0,,,,,,,,,,,,,0,19,19,19,,,,,,,,,,,,,,,,,,,,,,,,,,,,,,,,,,,,,,,,,,,,,,,,,,,,,,,,,,,,,,,,,,,,,,,,,,,,,,,,,1.0447530845801036,0.9263004998210818,175.4020264998544,None,ScrollDown,정답입니다,175.4020264998544,None,175.4020264998544,None,175.4020264998544,None,175.4020264998544,None,176.22776649985462,None,176.22776649985462,176.7278066999279,,,,,,,,,,,,,,,,010,2022-05-10_19h58.46.887,FishGame,2022.1.1,59.28697923870682,
,21,넌 품위있어,2,Orange,B,5.291666666666666,4.466666666666667,ScrollUp,ScrollDown,Orange.png,1,Positive,Incongruent,,,,,0,0,0,0,,,,,,,,,,,,,0,20,20,20,,,,,,,,,,,,,,,,,,,,,,,,,,,,,,,,,,,,,,,,,,,,,,,,,,,,,,,,,,,,,,,,,,,,,,,,,,,,,,,,,1.878086417913437,0.7776170000433922,177.3550966999028,None,ScrollUp,정답입니다,177.3550966999028,None,177.3550966999028,None,177.3550966999028,None,177.3550966999028,None,178.02775619993918,None,178.02775619993918,178.52773999981582,,,,,,,,,,,,,,,,010,2022-05-10_19h58.46.887,FishGame,2022.1.1,59.28697923870682,
,22,넌 빈틈없어,3,Green,A,4.833333333333333,3.966666666666667,ScrollDown,ScrollUp,Green.png,1,Neutral,Neutral,,,,,0,0,0,0,,,,,,,,,,,,,0,21,21,21,,,,,,,,,,,,,,,,,,,,,,,,,,,,,,,,,,,,,,,,,,,,,,,,,,,,,,,,,,,,,,,,,,,,,,,,,,,,,,,,,1,0.7779527998063713,179.1520383998286,None,ScrollDown,정답입니다,179.1520383998286,None,179.1520383998286,None,179.1520383998286,None,179.1520383998286,None,179.82771059987135,None,179.82771059987135,180.32998429983854,,,,,,,,,,,,,,,,010,2022-05-10_19h58.46.887,FishGame,2022.1.1,59.28697923870682,
,23,넌 상상력없어,4,Orange,B,2.833333333333333,3.133333333333333,ScrollUp,ScrollDown,Orange.png,1,Negative,Congruent,,,,,0,0,0,0,,,,,,,,,,,,,0,22,22,22,,,,,,,,,,,,,,,,,,,,,,,,,,,,,,,,,,,,,,,,,,,,,,,,,,,,,,,,,,,,,,,,,,,,,,,,,,,,,,,,,1.67746914178133,0.7761514000594616,180.95532109984197,None,ScrollUp,정답입니다,180.95532109984197,None,180.95532109984197,None,180.95532109984197,None,180.95532109984197,None,181.62983469991013,None,181.62983469991013,182.1276676999405,,,,,,,,,,,,,,,,010,2022-05-10_19h58.46.887,FishGame,2022.1.1,59.28697923870682,
,24,넌 지혜로워,2,Orange,B,6.333333333333334,4.633333333333334,ScrollUp,ScrollDown,Orange.png,1,Positive,Incongruent,,,,,0,0,0,0,,,,,,,,,,,,,0,23,23,23,,,,,,,,,,,,,,,,,,,,,,,,,,,,,,,,,,,,,,,,,,,,,,,,,,,,,,,,,,,,,,,,,,,,,,,,,,,,,,,,,1.7916666616996129,0.8427645000629127,182.76284380001016,None,ScrollUp,정답입니다,182.76284380001016,None,182.76284380001016,None,182.76284380001016,None,182.76284380001016,None,183.49420859990641,None,183.49420859990641,183.99642879981548,,,,,,,,,,,,,,,,010,2022-05-10_19h58.46.887,FishGame,2022.1.1,59.28697923870682,
,25,넌 시끄러워,4,Green,A,2.833333333333333,3.033333333333333,ScrollDown,ScrollUp,Green.png,1,Negative,Incongruent,,,,,0,0,0,0,,,,,,,,,,,,,0,24,24,24,,,,,,,,,,,,,,,,,,,,,,,,,,,,,,,,,,,,,,,,,,,,,,,,,,,,,,,,,,,,,,,,,,,,,,,,,,,,,,,,,1.09413580596447,0.7928610001690686,184.6181673000101,None,ScrollDown,정답입니다,184.6181673000101,None,184.6181673000101,None,184.6181673000101,None,184.6181673000101,None,185.3109638998285,None,185.3109638998285,185.81315830000676,,,,,,,,,,,,,,,,010,2022-05-10_19h58.46.887,FishGame,2022.1.1,59.28697923870682,
,26,넌 만사태평이야,3,Orange,B,4,4.333333333333333,ScrollUp,ScrollDown,Orange.png,1,Neutral,Neutral,,,,,0,0,0,0,,,,,,,,,,,,,0,25,25,25,,,,,,,,,,,,,,,,,,,,,,,,,,,,,,,,,,,,,,,,,,,,,,,,,,,,,,,,,,,,,,,,,,,,,,,,,,,,,,,,,1.703703703979651,0.6294333999976516,186.43519009999,None,ScrollUp,정답입니다,186.43519009999,None,186.43519009999,None,186.43519009999,None,186.43519009999,None,186.96090349997394,None,186.96090349997394,187.46085939998738,,,,,,,,,,,,,,,,010,2022-05-10_19h58.46.887,FishGame,2022.1.1,59.28697923870682,
,27,넌 붙임성있어,1,Green,A,5.708333333333333,5.633333333333334,ScrollDown,ScrollUp,Green.png,1,Positive,Congruent,,,,,0,0,0,0,,,,,,,,,,,,,0,26,26,26,,,,,,,,,,,,,,,,,,,,,,,,,,,,,,,,,,,,,,,,,,,,,,,,,,,,,,,,,,,,,,,,,,,,,,,,,,,,,,,,,1.1975308656692505,0.7614362000022084,188.08220710000023,None,ScrollDown,정답입니다,188.08220710000023,None,188.08220710000023,None,188.08220710000023,None,188.08220710000023,None,188.74412749987096,None,188.74412749987096,189.2464028999675,,,,,,,,,,,,,,,,010,2022-05-10_19h58.46.887,FishGame,2022.1.1,59.28697923870682,
,28,넌 영리해,2,Green,A,6,4.033333333333333,ScrollDown,ScrollUp,Green.png,1,Positive,Congruent,,,,,0,0,0,0,,,,,,,,,,,,,0,27,27,27,,,,,,,,,,,,,,,,,,,,,,,,,,,,,,,,,,,,,,,,,,,,,,,,,,,,,,,,,,,,,,,,,,,,,,,,,,,,,,,,,1.0046296219031017,0.9427491000387818,189.86544710001908,None,ScrollDown,정답입니다,189.86544710001908,None,189.86544710001908,None,189.86544710001908,None,189.86544710001908,None,190.71080579981208,None,190.71080579981208,191.2130090999417,,,,,,,,,,,,,,,,010,2022-05-10_19h58.46.887,FishGame,2022.1.1,59.28697923870682,
,29,넌 열심이야,1,Orange,B,6.041666666666667,5.833333333333333,ScrollUp,ScrollDown,Orange.png,1,Positive,Incongruent,,,,,0,0,0,0,,,,,,,,,,,,,0,28,28,28,,,,,,,,,,,,,,,,,,,,,,,,,,,,,,,,,,,,,,,,,,,,,,,,,,,,,,,,,,,,,,,,,,,,,,,,,,,,,,,,,1.7407407512267432,0.7929402999579906,191.84041159995832,None,ScrollUp,정답입니다,191.84041159995832,None,191.84041159995832,None,191.84041159995832,None,191.84041159995832,None,192.52736479998566,None,192.52736479998566,193.02744749980047,,,,,,,,,,,,,,,,010,2022-05-10_19h58.46.887,FishGame,2022.1.1,59.28697923870682,
,30,넌 인기없어,4,Orange,B,3,3.3,ScrollUp,ScrollDown,Orange.png,1,Negative,Congruent,,,,,0,0,0,0,,,,,,,,,,,,,0,29,29,29,,,,,,,,,,,,,,,,,,,,,,,,,,,,,,,,,,,,,,,,,,,,,,,,,,,,,,,,,,,,,,,,,,,,,,,,,,,,,,,,,1.5617283955216408,0.6786609999835491,193.64858419983648,None,ScrollUp,정답입니다,193.64858419983648,None,193.64858419983648,None,193.64858419983648,None,193.64858419983648,None,194.22737380000763,None,194.22737380000763,194.72954629990272,,,,,,,,,,,,,,,,010,2022-05-10_19h58.46.887,FishGame,2022.1.1,59.28697923870682,
,31,넌 익살스러워,3,Green,A,4.708333333333334,4.833333333333333,ScrollDown,ScrollUp,Green.png,1,Neutral,Neutral,,,,,0,0,0,0,,,,,,,,,,,,,0,30,30,30,,,,,,,,,,,,,,,,,,,,,,,,,,,,,,,,,,,,,,,,,,,,,,,,,,,,,,,,,,,,,,,,,,,,,,,,,,,,,,,,,1.2654321044683456,0.7281333999708295,195.35365780000575,None,ScrollDown,정답입니다,195.35365780000575,None,195.35365780000575,None,195.35365780000575,None,195.35365780000575,None,195.97741919988766,None,195.97741919988766,196.4796265999321,,,,,,,,,,,,,,,,010,2022-05-10_19h58.46.887,FishGame,2022.1.1,59.28697923870682,
,32,넌 이기적이야,5,Orange,B,2.291666666666667,2.333333333333333,ScrollUp,ScrollDown,Orange.png,1,Negative,Congruent,,,,,0,0,0,0,,,,,,,,,,,,,0,31,31,31,,,,,,,,,,,,,,,,,,,,,,,,,,,,,,,,,,,,,,,,,,,,,,,,,,,,,,,,,,,,,,,,,,,,,,,,,,,,,,,,,1.4182098793486755,0.5776893000584096,197.1026810000185,None,ScrollDown,오답입니다,197.1026810000185,None,197.1026810000185,None,197.1026810000185,None,197.1026810000185,None,197.5772765998263,None,197.5772765998263,198.07732889987528,,,,,,,,,,,,,,,,010,2022-05-10_19h58.46.887,FishGame,2022.1.1,59.28697923870682,
,33,나를 데려가줘,6,Orange,B,0,0,ScrollDown,ScrollUp,Orange.png,1,NonTarget,NonTarget,,,,,0,0,0,0,,,,,,,,,,,,,0,32,32,32,,,,,,,,,,,,,,,,,,,,,,,,,,,,,,,,,,,,,,,,,,,,,,,,,,,,,,,,,,,,,,,,,,,,,,,,,,,,,,,,,1.1697530895471573,1.1964359998237342,198.69805009989068,None,ScrollDown,정답입니다,198.69805009989068,None,198.69805009989068,None,198.69805009989068,None,198.69805009989068,None,199.79393399995752,None,199.79393399995752,200.2961424998939,,,,,,,,,,,,,,,,010,2022-05-10_19h58.46.887,FishGame,2022.1.1,59.28697923870682,
,34,넌 기회주의자야,5,Green,A,2.875,2.133333333333333,ScrollDown,ScrollUp,Green.png,1,Negative,Incongruent,,,,,0,0,0,0,,,,,,,,,,,,,0,33,33,33,,,,,,,,,,,,,,,,,,,,,,,,,,,,,,,,,,,,,,,,,,,,,,,,,,,,,,,,,,,,,,,,,,,,,,,,,,,,,,,,,1.0262345671653748,0.9425213998183608,200.91996939992532,None,ScrollDown,정답입니다,200.91996939992532,None,200.91996939992532,None,200.91996939992532,None,200.91996939992532,None,201.76058579981327,None,201.76058579981327,202.2659690999426,,,,,,,,,,,,,,,,010,2022-05-10_19h58.46.887,FishGame,2022.1.1,59.28697923870682,
,1,넌 미성숙해,4,Green,A,3,3.2,ScrollDown,ScrollUp,Green.png,2,Negative,Incongruent,,,,,0,0,0,0,,,,,,,,,,,,,,,,,0,0,0,0,,,,,,,,,,,,,,,,,,,,,,,,,,,,,,,,,,,,234.74329139990732,236.24551399983466,236.27886729990132,237.24890989996493,237.26534019992687,238.22881000000052,238.22881000000052,None,,,,,,,,,,,,,,,,,,,,,,,,,,,,,,,,,,1.0478395124276478,1.087757300119847,239.32527079991996,None,ScrollDown,정답입니다,239.32527079991996,None,239.32527079991996,None,239.32527079991996,None,239.32527079991996,None,240.30945469997823,None,240.30945469997823,240.80953749991022,202.76057779998519,None,202.76057779998519,None,0.021296296,-0.11574074,1,0,0,0.015805159928277135,None,232.75994589994662,None,,,010,2022-05-10_19h58.46.887,FishGame,2022.1.1,59.28697923870682,
,2,넌 반사회적이야,5,Orange,B,2.416666666666667,2.033333333333333,ScrollUp,ScrollDown,Orange.png,2,Negative,Congruent,,,,,0,0,0,0,,,,,,,,,,,,,,,,,0,1,1,1,,,,,,,,,,,,,,,,,,,,,,,,,,,,,,,,,,,,,,,,,,,,,,,,,,,,,,,,,,,,,,,,,,,,,,,,,,,,,2,1.1615991999860853,241.43228449998423,None,ScrollUp,정답입니다,241.43228449998423,None,241.43228449998423,None,241.43228449998423,None,241.43228449998423,None,242.4953185999766,None,242.4953185999766,242.995327899931,,,,,,,,,,,,,,,,010,2022-05-10_19h58.46.887,FishGame,2022.1.1,59.28697923870682,
,3,넌 유능해,2,Green,A,6.208333333333333,4.433333333333334,ScrollDown,ScrollUp,Green.png,2,Positive,Congruent,,,,,0,0,0,0,,,,,,,,,,,,,,,,,0,2,2,2,,,,,,,,,,,,,,,,,,,,,,,,,,,,,,,,,,,,,,,,,,,,,,,,,,,,,,,,,,,,,,,,,,,,,,,,,,,,,1.0123456915219624,0.8617305001243949,243.61366259981878,None,ScrollDown,정답입니다,243.61366259981878,None,243.61366259981878,None,243.61366259981878,None,243.61366259981878,None,244.37862430000678,None,244.37862430000678,244.87865570001304,,,,,,,,,,,,,,,,010,2022-05-10_19h58.46.887,FishGame,2022.1.1,59.28697923870682,
,4,넌 능숙해,2,Orange,B,5.666666666666667,4.733333333333333,ScrollUp,ScrollDown,Orange.png,2,Positive,Incongruent,,,,,0,0,0,0,,,,,,,,,,,,,,,,,0,3,3,3,,,,,,,,,,,,,,,,,,,,,,,,,,,,,,,,,,,,,,,,,,,,,,,,,,,,,,,,,,,,,,,,,,,,,,,,,,,,,1.8611111144224803,0.8292894999030977,245.50154419988394,None,ScrollUp,정답입니다,245.50154419988394,None,245.50154419988394,None,245.50154419988394,None,245.50154419988394,None,246.22600060002878,None,246.22600060002878,246.7260783999227,,,,,,,,,,,,,,,,010,2022-05-10_19h58.46.887,FishGame,2022.1.1,59.28697923870682,
,5,넌 진부해,4,Orange,B,2.458333333333333,3.166666666666667,ScrollUp,ScrollDown,Orange.png,2,Negative,Congruent,,,,,0,0,0,0,,,,,,,,,,,,,,,,,0,4,4,4,,,,,,,,,,,,,,,,,,,,,,,,,,,,,,,,,,,,,,,,,,,,,,,,,,,,,,,,,,,,,,,,,,,,,,,,,,,,,1.2175925970077515,0.7281593000516295,247.34653989993967,None,ScrollDown,오답입니다,247.34653989993967,None,247.34653989993967,None,247.34653989993967,None,247.34653989993967,None,247.9759926998522,None,247.9759926998522,248.47607710002922,,,,,,,,,,,,,,,,010,2022-05-10_19h58.46.887,FishGame,2022.1.1,59.28697923870682,
,6,나를 보내줘,6,Green,A,0,0,ScrollUp,ScrollDown,Green.png,2,NonTarget,NonTarget,,,,,0,0,0,0,,,,,,,,,,,,,,,,,0,5,5,5,,,,,,,,,,,,,,,,,,,,,,,,,,,,,,,,,,,,,,,,,,,,,,,,,,,,,,,,,,,,,,,,,,,,,,,,,,,,,1.652777781089147,1.4282637001015246,249.09904719982296,None,ScrollUp,정답입니다,249.09904719982296,None,249.09904719982296,None,249.09904719982296,None,249.09904719982296,None,250.42855199985206,None,250.42855199985206,250.9285182999447,,,,,,,,,,,,,,,,010,2022-05-10_19h58.46.887,FishGame,2022.1.1,59.28697923870682,
,7,넌 엄격해,3,Green,A,4.166666666666666,4.1,ScrollDown,ScrollUp,Green.png,2,Neutral,Neutral,,,,,0,0,0,0,,,,,,,,,,,,,,,,,0,6,6,6,,,,,,,,,,,,,,,,,,,,,,,,,,,,,,,,,,,,,,,,,,,,,,,,,,,,,,,,,,,,,,,,,,,,,,,,,,,,,1.0663580298423767,0.9292339000385255,251.54547979985364,None,ScrollDown,정답입니다,251.54547979985364,None,251.54547979985364,None,251.54547979985364,None,251.54547979985364,None,252.37619360000826,None,252.37619360000826,252.87830489990301,,,,,,,,,,,,,,,,010,2022-05-10_19h58.46.887,FishGame,2022.1.1,59.28697923870682,
,8,나를 보내줘,6,Green,A,0,0,ScrollUp,ScrollDown,Green.png,2,NonTarget,NonTarget,,,,,0,0,0,0,,,,,,,,,,,,,,,,,0,7,7,7,,,,,,,,,,,,,,,,,,,,,,,,,,,,,,,,,,,,,,,,,,,,,,,,,,,,,,,,,,,,,,,,,,,,,,,,,,,,,1.7268518507480621,1.1595334999728948,253.49497459991835,None,ScrollUp,정답입니다,253.49497459991835,None,253.49497459991835,None,253.49497459991835,None,253.49497459991835,None,254.56161979981698,None,254.56161979981698,255.07616109983064,,,,,,,,,,,,,,,,010,2022-05-10_19h58.46.887,FishGame,2022.1.1,59.28697923870682,
,9,넌 대담해,3,Orange,B,4.875,4.866666666666666,ScrollUp,ScrollDown,Orange.png,2,Neutral,Neutral,,,,,0,0,0,0,,,,,,,,,,,,,,,,,0,8,8,8,,,,,,,,,,,,,,,,,,,,,,,,,,,,,,,,,,,,,,,,,,,,,,,,,,,,,,,,,,,,,,,,,,,,,,,,,,,,,1.6512345671653748,0.925970199983567,255.68610950000584,None,ScrollUp,정답입니다,255.68610950000584,None,255.68610950000584,None,255.68610950000584,None,255.68610950000584,None,256.5094033998903,None,256.5094033998903,257.0094602999743,,,,,,,,,,,,,,,,010,2022-05-10_19h58.46.887,FishGame,2022.1.1,59.28697923870682,
,10,넌 꾸준해,1,Green,A,5.916666666666668,5.8,ScrollDown,ScrollUp,Green.png,2,Positive,Congruent,,,,,0,0,0,0,,,,,,,,,,,,,,,,,0,9,9,9,,,,,,,,,,,,,,,,,,,,,,,,,,,,,,,,,,,,,,,,,,,,,,,,,,,,,,,,,,,,,,,,,,,,,,,,,,,,,1.0092592636744182,1.1950890999287367,257.63187629985623,None,ScrollDown,정답입니다,257.63187629985623,None,257.63187629985623,None,257.63187629985623,None,257.63187629985623,None,258.72817989997566,None,258.72817989997566,259.2450520999264,,,,,,,,,,,,,,,,010,2022-05-10_19h58.46.887,FishGame,2022.1.1,59.28697923870682,
,11,나를 데려가줘,6,Orange,B,0,0,ScrollDown,ScrollUp,Orange.png,2,NonTarget,NonTarget,,,,,0,0,0,0,,,,,,,,,,,,,,,,,0,10,10,10,,,,,,,,,,,,,,,,,,,,,,,,,,,,,,,,,,,,,,,,,,,,,,,,,,,,,,,,,,,,,,,,,,,,,,,,,,,,,1,1.1928114998154342,259.8509711998049,None,ScrollDown,정답입니다,259.8509711998049,None,259.8509711998049,None,259.8509711998049,None,259.8509711998049,None,260.9426725998055,None,260.9426725998055,261.44269009982236,,,,,,,,,,,,,,,,010,2022-05-10_19h58.46.887,FishGame,2022.1.1,59.28697923870682,
,12,넌 독선적이야,5,Green,A,2.458333333333333,1.933333333333333,ScrollDown,ScrollUp,Green.png,2,Negative,Incongruent,,,,,0,0,0,0,,,,,,,,,,,,,,,,,0,11,11,11,,,,,,,,,,,,,,,,,,,,,,,,,,,,,,,,,,,,,,,,,,,,,,,,,,,,,,,,,,,,,,,,,,,,,,,,,,,,,1.115740751226743,1.1139148999936879,262.0626145999413,None,ScrollDown,정답입니다,262.0626145999413,None,262.0626145999413,None,262.0626145999413,None,262.0626145999413,None,263.0759440998081,None,263.0759440998081,263.57828239980154,,,,,,,,,,,,,,,,010,2022-05-10_19h58.46.887,FishGame,2022.1.1,59.28697923870682,
,13,나를 보내줘,6,Green,A,0,0,ScrollUp,ScrollDown,Green.png,2,NonTarget,NonTarget,,,,,0,0,0,0,,,,,,,,,,,,,,,,,0,12,12,12,,,,,,,,,,,,,,,,,,,,,,,,,,,,,,,,,,,,,,,,,,,,,,,,,,,,,,,,,,,,,,,,,,,,,,,,,,,,,1.6959876591960588,1.0758932998869568,264.198337999871,None,ScrollUp,정답입니다,264.198337999871,None,264.198337999871,None,264.198337999871,None,264.198337999871,None,265.17582509992644,None,265.17582509992644,265.67591719981283,,,,,,,,,,,,,,,,010,2022-05-10_19h58.46.887,FishGame,2022.1.1,59.28697923870682,
,14,넌 책임감있어,1,Orange,B,6.347826086956522,6,ScrollUp,ScrollDown,Orange.png,2,Positive,Incongruent,,,,,0,0,0,0,,,,,,,,,,,,,,,,,0,13,13,13,,,,,,,,,,,,,,,,,,,,,,,,,,,,,,,,,,,,,,,,,,,,,,,,,,,,,,,,,,,,,,,,,,,,,,,,,,,,,1.7206790198882422,1.029593300074339,266.302943599876,None,ScrollUp,정답입니다,266.302943599876,None,266.302943599876,None,266.302943599876,None,266.302943599876,None,267.2258941999171,None,267.2258941999171,267.72590389987454,,,,,,,,,,,,,,,,010,2022-05-10_19h58.46.887,FishGame,2022.1.1,59.28697923870682,
,15,넌 문학적이야,3,Green,A,4.708333333333334,4.333333333333333,ScrollDown,ScrollUp,Green.png,2,Neutral,Neutral,,,,,0,0,0,0,,,,,,,,,,,,,,,,,0,14,14,14,,,,,,,,,,,,,,,,,,,,,,,,,,,,,,,,,,,,,,,,,,,,,,,,,,,,,,,,,,,,,,,,,,,,,,,,,,,,,1.0524691541989644,0.865022299811244,268.3425522998441,None,ScrollDown,정답입니다,268.3425522998441,None,268.3425522998441,None,268.3425522998441,None,268.3425522998441,None,269.10916529991664,None,269.10916529991664,269.6091824998148,,,,,,,,,,,,,,,,010,2022-05-10_19h58.46.887,FishGame,2022.1.1,59.28697923870682,
,16,넌 재미있어,1,Orange,B,5.875,5.7,ScrollUp,ScrollDown,Orange.png,2,Positive,Incongruent,,,,,0,0,0,0,,,,,,,,,,,,,,,,,0,15,15,15,,,,,,,,,,,,,,,,,,,,,,,,,,,,,,,,,,,,,,,,,,,,,,,,,,,,,,,,,,,,,,,,,,,,,,,,,,,,,1.4259259241322677,0.7592082000337541,270.2321279000025,None,ScrollDown,오답입니다,270.2321279000025,None,270.2321279000025,None,270.2321279000025,None,270.2321279000025,None,270.8924059998244,None,270.8924059998244,271.392464999808,,,,,,,,,,,,,,,,010,2022-05-10_19h58.46.887,FishGame,2022.1.1,59.28697923870682,
,17,나를 데려가줘,6,Orange,B,0,0,ScrollDown,ScrollUp,Orange.png,2,NonTarget,NonTarget,,,,,0,0,0,0,,,,,,,,,,,,,,,,,0,16,16,16,,,,,,,,,,,,,,,,,,,,,,,,,,,,,,,,,,,,,,,,,,,,,,,,,,,,,,,,,,,,,,,,,,,,,,,,,,,,,1,1.0463602999225259,272.02177889994346,None,ScrollDown,정답입니다,272.02177889994346,None,272.02177889994346,None,272.02177889994346,None,272.02177889994346,None,272.9613311998546,None,272.9613311998546,273.46125299995765,,,,,,,,,,,,,,,,010,2022-05-10_19h58.46.887,FishGame,2022.1.1,59.28697923870682,
,18,넌 협력적이야,1,Green,A,5.625,5.633333333333334,ScrollDown,ScrollUp,Green.png,2,Positive,Congruent,,,,,0,0,0,0,,,,,,,,,,,,,,,,,0,17,17,17,,,,,,,,,,,,,,,,,,,,,,,,,,,,,,,,,,,,,,,,,,,,,,,,,,,,,,,,,,,,,,,,,,,,,,,,,,,,,1,0.9108524001203477,274.0856659999117,None,ScrollDown,정답입니다,274.0856659999117,None,274.0856659999117,None,274.0856659999117,None,274.0856659999117,None,274.89237479981966,None,274.89237479981966,275.3923808999825,,,,,,,,,,,,,,,,010,2022-05-10_19h58.46.887,FishGame,2022.1.1,59.28697923870682,
,19,넌 평범해,3,Orange,B,4.333333333333332,4.233333333333333,ScrollUp,ScrollDown,Orange.png,2,Neutral,Neutral,,,,,0,0,0,0,,,,,,,,,,,,,,,,,0,18,18,18,,,,,,,,,,,,,,,,,,,,,,,,,,,,,,,,,,,,,,,,,,,,,,,,,,,,,,,,,,,,,,,,,,,,,,,,,,,,,2,0.9286573999561369,276.0164145999588,None,ScrollUp,정답입니다,276.0164145999588,None,276.0164145999588,None,276.0164145999588,None,276.0164145999588,None,276.8423162999097,None,276.8423162999097,277.3445998998359,,,,,,,,,,,,,,,,010,2022-05-10_19h58.46.887,FishGame,2022.1.1,59.28697923870682,
,20,넌 오만해,5,Green,A,2.333333333333333,2,ScrollDown,ScrollUp,Green.png,2,Negative,Incongruent,,,,,0,0,0,0,,,,,,,,,,,,,,,,,0,19,19,19,,,,,,,,,,,,,,,,,,,,,,,,,,,,,,,,,,,,,,,,,,,,,,,,,,,,,,,,,,,,,,,,,,,,,,,,,,,,,1,0.8222080999985337,277.9639233998023,None,ScrollDown,정답입니다,277.9639233998023,None,277.9639233998023,None,277.9639233998023,None,277.9639233998023,None,278.687540799845,None,278.687540799845,279.1920666999649,,,,,,,,,,,,,,,,010,2022-05-10_19h58.46.887,FishGame,2022.1.1,59.28697923870682,
,21,넌 운이없어,4,Orange,B,3,3.466666666666667,ScrollUp,ScrollDown,Orange.png,2,Negative,Congruent,,,,,0,0,0,0,,,,,,,,,,,,,,,,,0,20,20,20,,,,,,,,,,,,,,,,,,,,,,,,,,,,,,,,,,,,,,,,,,,,,,,,,,,,,,,,,,,,,,,,,,,,,,,,,,,,,2,0.7782331998459995,279.8157492999453,None,ScrollUp,정답입니다,279.8157492999453,None,279.8157492999453,None,279.8157492999453,None,279.8157492999453,None,280.4920059000142,None,280.4920059000142,280.9921224999707,,,,,,,,,,,,,,,,010,2022-05-10_19h58.46.887,FishGame,2022.1.1,59.28697923870682,
,22,넌 창조적이야,2,Orange,B,6.125,4.633333333333334,ScrollUp,ScrollDown,Orange.png,2,Positive,Incongruent,,,,,0,0,0,0,,,,,,,,,,,,,,,,,0,21,21,21,,,,,,,,,,,,,,,,,,,,,,,,,,,,,,,,,,,,,,,,,,,,,,,,,,,,,,,,,,,,,,,,,,,,,,,,,,,,,2,0.8764234001282603,281.63195209996775,None,ScrollUp,정답입니다,281.63195209996775,None,281.63195209996775,None,281.63195209996775,None,281.63195209996775,None,282.3945559998974,None,282.3945559998974,282.8945280998014,,,,,,,,,,,,,,,,010,2022-05-10_19h58.46.887,FishGame,2022.1.1,59.28697923870682,
,23,나를 보내줘,6,Green,A,0,0,ScrollUp,ScrollDown,Green.png,2,NonTarget,NonTarget,,,,,0,0,0,0,,,,,,,,,,,,,,,,,0,22,22,22,,,,,,,,,,,,,,,,,,,,,,,,,,,,,,,,,,,,,,,,,,,,,,,,,,,,,,,,,,,,,,,,,,,,,,,,,,,,,2,1.3125019001308829,283.50929409987293,None,ScrollUp,정답입니다,283.50929409987293,None,283.50929409987293,None,283.50929409987293,None,283.50929409987293,None,284.72549230000004,None,284.72549230000004,285.22769069997594,,,,,,,,,,,,,,,,010,2022-05-10_19h58.46.887,FishGame,2022.1.1,59.28697923870682,
,24,넌 통찰력있어,2,Green,A,6.5,4.8,ScrollDown,ScrollUp,Green.png,2,Positive,Congruent,,,,,0,0,0,0,,,,,,,,,,,,,,,,,0,23,23,23,,,,,,,,,,,,,,,,,,,,,,,,,,,,,,,,,,,,,,,,,,,,,,,,,,,,,,,,,,,,,,,,,,,,,,,,,,,,,1,1.427499599987641,285.85205259989016,None,ScrollDown,정답입니다,285.85205259989016,None,285.85205259989016,None,285.85205259989016,None,285.85205259989016,None,287.1753654999193,None,287.1753654999193,287.6755001998972,,,,,,,,,,,,,,,,010,2022-05-10_19h58.46.887,FishGame,2022.1.1,59.28697923870682,
,25,넌 경솔해,5,Orange,B,2.458333333333333,2.266666666666667,ScrollUp,ScrollDown,Orange.png,2,Negative,Congruent,,,,,0,0,0,0,,,,,,,,,,,,,,,,,0,24,24,24,,,,,,,,,,,,,,,,,,,,,,,,,,,,,,,,,,,,,,,,,,,,,,,,,,,,,,,,,,,,,,,,,,,,,,,,,,,,,2,0.8603996001183987,288.29788999981247,None,ScrollUp,정답입니다,288.29788999981247,None,288.29788999981247,None,288.29788999981247,None,288.29788999981247,None,289.0587201998569,None,289.0587201998569,289.5608841998037,,,,,,,,,,,,,,,,010,2022-05-10_19h58.46.887,FishGame,2022.1.1,59.28697923870682,
,26,넌 초조해,4,Green,A,2.916666666666667,3.133333333333333,ScrollDown,ScrollUp,Green.png,2,Negative,Incongruent,,,,,0,0,0,0,,,,,,,,,,,,,,,,,0,25,25,25,,,,,,,,,,,,,,,,,,,,,,,,,,,,,,,,,,,,,,,,,,,,,,,,,,,,,,,,,,,,,,,,,,,,,,,,,,,,,1,0.8442553000058979,290.18261589994654,None,ScrollDown,정답입니다,290.18261589994654,None,290.18261589994654,None,290.18261589994654,None,290.18261589994654,None,290.9274467998184,None,290.9274467998184,291.4421031998936,,,,,,,,,,,,,,,,010,2022-05-10_19h58.46.887,FishGame,2022.1.1,59.28697923870682,
,27,넌 무관심해,4,Orange,B,2.833333333333333,2.9,ScrollUp,ScrollDown,Orange.png,2,Negative,Congruent,,,,,0,0,0,0,,,,,,,,,,,,,,,,,0,26,26,26,,,,,,,,,,,,,,,,,,,,,,,,,,,,,,,,,,,,,,,,,,,,,,,,,,,,,,,,,,,,,,,,,,,,,,,,,,,,,2,0.6943914999719709,292.06622749986127,None,ScrollUp,정답입니다,292.06622749986127,None,292.06622749986127,None,292.06622749986127,None,292.06622749986127,None,292.65858559985645,None,292.65858559985645,293.15867799986154,,,,,,,,,,,,,,,,010,2022-05-10_19h58.46.887,FishGame,2022.1.1,59.28697923870682,
,28,넌 감성적이야,3,Orange,B,4.125,4.166666666666667,ScrollUp,ScrollDown,Orange.png,2,Neutral,Neutral,,,,,0,0,0,0,,,,,,,,,,,,,,,,,0,27,27,27,,,,,,,,,,,,,,,,,,,,,,,,,,,,,,,,,,,,,,,,,,,,,,,,,,,,,,,,,,,,,,,,,,,,,,,,,,,,,2,0.9093035999685526,293.78187619987875,None,ScrollUp,정답입니다,293.78187619987875,None,293.78187619987875,None,293.78187619987875,None,293.78187619987875,None,294.5919486999046,None,294.5919486999046,295.0918699000031,,,,,,,,,,,,,,,,010,2022-05-10_19h58.46.887,FishGame,2022.1.1,59.28697923870682,
,29,넌 배려심있어,1,Green,A,6.083333333333333,5.5,ScrollDown,ScrollUp,Green.png,2,Positive,Congruent,,,,,0,0,0,0,,,,,,,,,,,,,,,,,0,28,28,28,,,,,,,,,,,,,,,,,,,,,,,,,,,,,,,,,,,,,,,,,,,,,,,,,,,,,,,,,,,,,,,,,,,,,,,,,,,,,1,0.8900635000318289,295.71647869981825,None,ScrollDown,정답입니다,295.71647869981825,None,295.71647869981825,None,295.71647869981825,None,295.71647869981825,None,296.50386879988946,None,296.50386879988946,297.00834349985234,,,,,,,,,,,,,,,,010,2022-05-10_19h58.46.887,FishGame,2022.1.1,59.28697923870682,
,30,넌 숨김없어,3,Green,A,4.5,4.933333333333334,ScrollDown,ScrollUp,Green.png,2,Neutral,Neutral,,,,,0,0,0,0,,,,,,,,,,,,,,,,,0,29,29,29,,,,,,,,,,,,,,,,,,,,,,,,,,,,,,,,,,,,,,,,,,,,,,,,,,,,,,,,,,,,,,,,,,,,,,,,,,,,,1,0.8625495999585837,297.6258765999228,None,ScrollDown,정답입니다,297.6258765999228,None,297.6258765999228,None,297.6258765999228,None,297.6258765999228,None,298.3916205998976,None,298.3916205998976,298.89169489988126,,,,,,,,,,,,,,,,010,2022-05-10_19h58.46.887,FishGame,2022.1.1,59.28697923870682,
,31,넌 훌륭해,2,Orange,B,5.916666666666667,4.033333333333333,ScrollUp,ScrollDown,Orange.png,2,Positive,Incongruent,,,,,0,0,0,0,,,,,,,,,,,,,,,,,0,30,30,30,,,,,,,,,,,,,,,,,,,,,,,,,,,,,,,,,,,,,,,,,,,,,,,,,,,,,,,,,,,,,,,,,,,,,,,,,,,,,2,0.8099783998914063,299.517864999827,None,ScrollUp,정답입니다,299.517864999827,None,299.517864999827,None,299.517864999827,None,299.517864999827,None,300.2274082999211,None,300.2274082999211,300.72757989983074,,,,,,,,,,,,,,,,010,2022-05-10_19h58.46.887,FishGame,2022.1.1,59.28697923870682,
,32,넌 슬기로워,2,Green,A,6.166666666666667,4.1,ScrollDown,ScrollUp,Green.png,2,Positive,Congruent,,,,,0,0,0,0,,,,,,,,,,,,,,,,,0,31,31,31,,,,,,,,,,,,,,,,,,,,,,,,,,,,,,,,,,,,,,,,,,,,,,,,,,,,,,,,,,,,,,,,,,,,,,,,,,,,,1,0.7582304000388831,301.35189919988625,None,ScrollDown,정답입니다,301.35189919988625,None,301.35189919988625,None,301.35189919988625,None,301.35189919988625,None,302.00816600001417,None,302.00816600001417,302.50824110000394,,,,,,,,,,,,,,,,010,2022-05-10_19h58.46.887,FishGame,2022.1.1,59.28697923870682,
,33,넌 냉혹해,5,Green,A,2.583333333333333,2.1,ScrollDown,ScrollUp,Green.png,2,Negative,Incongruent,,,,,0,0,0,0,,,,,,,,,,,,,,,,,0,32,32,32,,,,,,,,,,,,,,,,,,,,,,,,,,,,,,,,,,,,,,,,,,,,,,,,,,,,,,,,,,,,,,,,,,,,,,,,,,,,,1,0.8282724001910537,303.1312114999164,None,ScrollDown,정답입니다,303.1312114999164,None,303.1312114999164,None,303.1312114999164,None,303.1312114999164,None,303.85817279992625,None,303.85817279992625,304.35823619994335,,,,,,,,,,,,,,,,010,2022-05-10_19h58.46.887,FishGame,2022.1.1,59.28697923870682,
,34,나를 데려가줘,6,Orange,B,0,0,ScrollDown,ScrollUp,Orange.png,2,NonTarget,NonTarget,,,,,0,0,0,0,,,,,,,,,,,,,,,,,0,33,33,33,,,,,,,,,,,,,,,,,,,,,,,,,,,,,,,,,,,,,,,,,,,,,,,,,,,,,,,,,,,,,,,,,,,,,,,,,,,,,1,1.0469305999577045,304.9781730999239,None,ScrollDown,정답입니다,304.9781730999239,None,304.9781730999239,None,304.9781730999239,None,304.9781730999239,None,305.92728709988296,None,305.92728709988296,306.4272910000291,,,,,,,,,,,,,,,,010,2022-05-10_19h58.46.887,FishGame,2022.1.1,59.28697923870682,
,35,넌 편파적이야,5,Orange,B,2.125,2,ScrollUp,ScrollDown,Orange.png,2,Negative,Congruent,,,,,0,0,0,0,,,,,,,,,,,,,,,,,0,34,34,34,,,,,,,,,,,,,,,,,,,,,,,,,,,,,,,,,,,,,,,,,,,,,,,,,,,,,,,,,,,,,,,,,,,,,,,,,,,,,2,0.9951162000652403,307.0484986999072,None,ScrollUp,정답입니다,307.0484986999072,None,307.0484986999072,None,307.0484986999072,None,307.0484986999072,None,307.9416924000252,None,307.9416924000252,308.44167550001293,,,,,,,,,,,,,,,,010,2022-05-10_19h58.46.887,FishGame,2022.1.1,59.28697923870682,
,36,넌 슬퍼,4,Green,A,2.583333333333333,3.066666666666667,ScrollDown,ScrollUp,Green.png,2,Negative,Incongruent,,,,,0,0,0,0,,,,,,,,,,,,,,,,,0,35,35,35,,,,,,,,,,,,,,,,,,,,,,,,,,,,,,,,,,,,,,,,,,,,,,,,,,,,,,,,,,,,,,,,,,,,,,,,,,,,,1,0.7428610001225024,309.0625605999958,None,ScrollDown,정답입니다,309.0625605999958,None,309.0625605999958,None,309.0625605999958,None,309.0625605999958,None,309.7104232998099,None,309.7104232998099,310.21046079997905,,,,,,,,,,,,,,,,010,2022-05-10_19h58.46.887,FishGame,2022.1.1,59.28697923870682,
,37,나를 데려가줘,6,Orange,B,0,0,ScrollDown,ScrollUp,Orange.png,2,NonTarget,NonTarget,,,,,0,0,0,0,,,,,,,,,,,,,,,,,0,36,36,36,,,,,,,,,,,,,,,,,,,,,,,,,,,,,,,,,,,,,,,,,,,,,,,,,,,,,,,,,,,,,,,,,,,,,,,,,,,,,1,1.1152644001413137,310.8488097998779,None,ScrollDown,정답입니다,310.8488097998779,None,310.8488097998779,None,310.8488097998779,None,310.8488097998779,None,311.85821469989605,None,311.85821469989605,312.3582607000135,,,,,,,,,,,,,,,,010,2022-05-10_19h58.46.887,FishGame,2022.1.1,59.28697923870682,
,38,넌 친절해,1,Orange,B,6.041666666666667,5.533333333333333,ScrollUp,ScrollDown,Orange.png,2,Positive,Incongruent,,,,,0,0,0,0,,,,,,,,,,,,,,,,,0,37,37,37,,,,,,,,,,,,,,,,,,,,,,,,,,,,,,,,,,,,,,,,,,,,,,,,,,,,,,,,,,,,,,,,,,,,,,,,,,,,,2,0.9778136000968516,312.98535099998116,None,ScrollUp,정답입니다,312.98535099998116,None,312.98535099998116,None,312.98535099998116,None,312.98535099998116,None,313.8582178999204,None,313.8582178999204,314.36042499984615,,,,,,,,,,,,,,,,010,2022-05-10_19h58.46.887,FishGame,2022.1.1,59.28697923870682,
,1,넌 엉성해,4,Green,A,3,3.3,ScrollDown,ScrollUp,Green.png,3,Negative,Incongruent,,,,,0,0,0,0,,,,,,,,,,,,,,,,,,,,,0,0,0,0,,,,,,,,,,,,,,,,,,,,,,,,,,,,,,,,346.37417629989795,347.876533200033,347.9099274999462,348.8599268000107,348.9074793998152,349.8575134000275,349.8575134000275,None,,,,,,,,,,,,,,,,,,,,,,,,,,,,,,,,,,1,1.3424571000505239,350.9618911999278,None,ScrollDown,정답입니다,350.9618911999278,None,350.9618911999278,None,350.9618911999278,None,350.9618911999278,None,352.2131352999713,None,352.2131352999713,352.7240573000163,314.8579624998383,None,314.8579624998383,None,0.07037037,-0.117592596,1,0,0,0.015907459892332554,None,344.85755209997296,None,,,010,2022-05-10_19h58.46.887,FishGame,2022.1.1,59.28697923870682,
,2,나를 보내줘,6,Green,A,0,0,ScrollUp,ScrollDown,Green.png,3,NonTarget,NonTarget,,,,,0,0,0,0,,,,,,,,,,,,,,,,,,,,,0,1,1,1,,,,,,,,,,,,,,,,,,,,,,,,,,,,,,,,,,,,,,,,,,,,,,,,,,,,,,,,,,,,,,,,,,,,,,,,,2,1.1612499000038952,353.34461159980856,None,ScrollUp,정답입니다,353.34461159980856,None,353.34461159980856,None,353.34461159980856,None,353.34461159980856,None,354.4094676999375,None,354.4094676999375,354.9261799999513,,,,,,,,,,,,,,,,010,2022-05-10_19h58.46.887,FishGame,2022.1.1,59.28697923870682,
,3,넌 활발해,1,Orange,B,5.666666666666667,5.6,ScrollUp,ScrollDown,Orange.png,3,Positive,Incongruent,,,,,0,0,0,0,,,,,,,,,,,,,,,,,,,,,0,2,2,2,,,,,,,,,,,,,,,,,,,,,,,,,,,,,,,,,,,,,,,,,,,,,,,,,,,,,,,,,,,,,,,,,,,,,,,,,2,0.9942585001699626,355.53106700000353,None,ScrollUp,정답입니다,355.53106700000353,None,355.53106700000353,None,355.53106700000353,None,355.53106700000353,None,356.4261785999406,None,356.4261785999406,356.92399039980955,,,,,,,,,,,,,,,,010,2022-05-10_19h58.46.887,FishGame,2022.1.1,59.28697923870682,
,4,넌 논리적이야,2,Green,A,5.666666666666666,4.633333333333334,ScrollDown,ScrollUp,Green.png,3,Positive,Congruent,,,,,0,0,0,0,,,,,,,,,,,,,,,,,,,,,0,3,3,3,,,,,,,,,,,,,,,,,,,,,,,,,,,,,,,,,,,,,,,,,,,,,,,,,,,,,,,,,,,,,,,,,,,,,,,,,1,0.9091358999721706,357.55402399995364,None,ScrollDown,정답입니다,357.55402399995364,None,357.55402399995364,None,357.55402399995364,None,357.55402399995364,None,358.35726059996523,None,358.35726059996523,358.8597071999684,,,,,,,,,,,,,,,,010,2022-05-10_19h58.46.887,FishGame,2022.1.1,59.28697923870682,
,5,넌 과묵해,3,Green,A,3.875,4.4,ScrollDown,ScrollUp,Green.png,3,Neutral,Neutral,,,,,0,0,0,0,,,,,,,,,,,,,,,,,,,,,0,4,4,4,,,,,,,,,,,,,,,,,,,,,,,,,,,,,,,,,,,,,,,,,,,,,,,,,,,,,,,,,,,,,,,,,,,,,,,,,1,0.8427887998986989,359.4866066998802,None,ScrollDown,정답입니다,359.4866066998802,None,359.4866066998802,None,359.4866066998802,None,359.4866066998802,None,360.2239169999957,None,360.2239169999957,360.72386799985543,,,,,,,,,,,,,,,,010,2022-05-10_19h58.46.887,FishGame,2022.1.1,59.28697923870682,
,6,나를 데려가줘,6,Orange,B,0,0,ScrollDown,ScrollUp,Orange.png,3,NonTarget,NonTarget,,,,,0,0,0,0,,,,,,,,,,,,,,,,,,,,,0,5,5,5,,,,,,,,,,,,,,,,,,,,,,,,,,,,,,,,,,,,,,,,,,,,,,,,,,,,,,,,,,,,,,,,,,,,,,,,,1,0.9447477001231164,361.3440631998237,None,ScrollDown,정답입니다,361.3440631998237,None,361.3440631998237,None,361.3440631998237,None,361.3440631998237,None,362.19055169983767,None,362.19055169983767,362.6926412000321,,,,,,,,,,,,,,,,010,2022-05-10_19h58.46.887,FishGame,2022.1.1,59.28697923870682,
,7,넌 미숙해,4,Orange,B,3,3,ScrollUp,ScrollDown,Orange.png,3,Negative,Congruent,,,,,0,0,0,0,,,,,,,,,,,,,,,,,,,,,0,6,6,6,,,,,,,,,,,,,,,,,,,,,,,,,,,,,,,,,,,,,,,,,,,,,,,,,,,,,,,,,,,,,,,,,,,,,,,,,2,0.9444649000652134,363.31057669990696,None,ScrollUp,정답입니다,363.31057669990696,None,363.31057669990696,None,363.31057669990696,None,363.31057669990696,None,364.1571572998073,None,364.1571572998073,364.6571446999442,,,,,,,,,,,,,,,,010,2022-05-10_19h58.46.887,FishGame,2022.1.1,59.28697923870682,
,8,나를 보내줘,6,Green,A,0,0,ScrollUp,ScrollDown,Green.png,3,NonTarget,NonTarget,,,,,0,0,0,0,,,,,,,,,,,,,,,,,,,,,0,7,7,7,,,,,,,,,,,,,,,,,,,,,,,,,,,,,,,,,,,,,,,,,,,,,,,,,,,,,,,,,,,,,,,,,,,,,,,,,2,1.0108963001985103,365.27371829980984,None,ScrollUp,정답입니다,365.27371829980984,None,365.27371829980984,None,365.27371829980984,None,365.27371829980984,None,366.19263709988445,None,366.19263709988445,366.7071097998414,,,,,,,,,,,,,,,,010,2022-05-10_19h58.46.887,FishGame,2022.1.1,59.28697923870682,
,9,넌 자신만만해,3,Orange,B,4.833333333333334,4.333333333333333,ScrollUp,ScrollDown,Orange.png,3,Neutral,Neutral,,,,,0,0,0,0,,,,,,,,,,,,,,,,,,,,,0,8,8,8,,,,,,,,,,,,,,,,,,,,,,,,,,,,,,,,,,,,,,,,,,,,,,,,,,,,,,,,,,,,,,,,,,,,,,,,,2,1.1095906998962164,367.3129946999252,None,ScrollUp,정답입니다,367.3129946999252,None,367.3129946999252,None,367.3129946999252,None,367.3129946999252,None,368.3237130998168,None,368.3237130998168,368.8259464998264,,,,,,,,,,,,,,,,010,2022-05-10_19h58.46.887,FishGame,2022.1.1,59.28697923870682,
,10,넌 탐욕스러워,5,Green,A,2.25,2.1,ScrollDown,ScrollUp,Green.png,3,Negative,Incongruent,,,,,0,0,0,0,,,,,,,,,,,,,,,,,,,,,0,9,9,9,,,,,,,,,,,,,,,,,,,,,,,,,,,,,,,,,,,,,,,,,,,,,,,,,,,,,,,,,,,,,,,,,,,,,,,,,1.0385802288850148,0.942642199806869,369.44700960000046,None,ScrollDown,정답입니다,369.44700960000046,None,369.44700960000046,None,369.44700960000046,None,369.44700960000046,None,370.29029279993847,None,370.29029279993847,370.7903681998141,,,,,,,,,,,,,,,,010,2022-05-10_19h58.46.887,FishGame,2022.1.1,59.28697923870682,
,11,넌 인기있어,2,Green,A,5.458333333333333,4.5,ScrollDown,ScrollUp,Green.png,3,Positive,Congruent,,,,,0,0,0,0,,,,,,,,,,,,,,,,,,,,,0,10,10,10,,,,,,,,,,,,,,,,,,,,,,,,,,,,,,,,,,,,,,,,,,,,,,,,,,,,,,,,,,,,,,,,,,,,,,,,,1,0.8934265000279993,371.40807259990834,None,ScrollDown,정답입니다,371.40807259990834,None,371.40807259990834,None,371.40807259990834,None,371.40807259990834,None,372.2069478998892,None,372.2069478998892,372.7091250999365,,,,,,,,,,,,,,,,010,2022-05-10_19h58.46.887,FishGame,2022.1.1,59.28697923870682,
,12,나를 데려가줘,6,Orange,B,0,0,ScrollDown,ScrollUp,Orange.png,3,NonTarget,NonTarget,,,,,0,0,0,0,,,,,,,,,,,,,,,,,,,,,0,11,11,11,,,,,,,,,,,,,,,,,,,,,,,,,,,,,,,,,,,,,,,,,,,,,,,,,,,,,,,,,,,,,,,,,,,,,,,,,1,1.1113694999366999,373.33225540001877,None,ScrollDown,정답입니다,373.33225540001877,None,373.33225540001877,None,373.33225540001877,None,373.33225540001877,None,374.34243989991955,None,374.34243989991955,374.84249499998987,,,,,,,,,,,,,,,,010,2022-05-10_19h58.46.887,FishGame,2022.1.1,59.28697923870682,
,13,넌 뛰어나,2,Orange,B,6.166666666666667,4,ScrollUp,ScrollDown,Orange.png,3,Positive,Incongruent,,,,,0,0,0,0,,,,,,,,,,,,,,,,,,,,,0,12,12,12,,,,,,,,,,,,,,,,,,,,,,,,,,,,,,,,,,,,,,,,,,,,,,,,,,,,,,,,,,,,,,,,,,,,,,,,,2,0.9596560997888446,375.46301179984584,None,ScrollUp,정답입니다,375.46301179984584,None,375.46301179984584,None,375.46301179984584,None,375.46301179984584,None,376.3257094998844,None,376.3257094998844,376.82359559996985,,,,,,,,,,,,,,,,010,2022-05-10_19h58.46.887,FishGame,2022.1.1,59.28697923870682,
,14,넌 낙관적이야,1,Green,A,5.75,5.8,ScrollDown,ScrollUp,Green.png,3,Positive,Congruent,,,,,0,0,0,0,,,,,,,,,,,,,,,,,,,,,0,13,13,13,,,,,,,,,,,,,,,,,,,,,,,,,,,,,,,,,,,,,,,,,,,,,,,,,,,,,,,,,,,,,,,,,,,,,,,,,1.0185184975465138,0.8763868999667466,377.44924300001003,None,ScrollDown,정답입니다,377.44924300001003,None,377.44924300001003,None,377.44924300001003,None,377.44924300001003,None,378.223244599998,None,378.223244599998,378.7233055999968,,,,,,,,,,,,,,,,010,2022-05-10_19h58.46.887,FishGame,2022.1.1,59.28697923870682,
,15,넌 산만해,4,Orange,B,2.695652173913043,3.033333333333333,ScrollUp,ScrollDown,Orange.png,3,Negative,Congruent,,,,,0,0,0,0,,,,,,,,,,,,,,,,,,,,,0,14,14,14,,,,,,,,,,,,,,,,,,,,,,,,,,,,,,,,,,,,,,,,,,,,,,,,,,,,,,,,,,,,,,,,,,,,,,,,,2,0.7780141998082399,379.3436296998989,None,ScrollUp,정답입니다,379.3436296998989,None,379.3436296998989,None,379.3436296998989,None,379.3436296998989,None,380.0232314998284,None,380.0232314998284,380.5257683999371,,,,,,,,,,,,,,,,010,2022-05-10_19h58.46.887,FishGame,2022.1.1,59.28697923870682,
,16,나를 보내줘,6,Green,A,0,0,ScrollUp,ScrollDown,Green.png,3,NonTarget,NonTarget,,,,,0,0,0,0,,,,,,,,,,,,,,,,,,,,,0,15,15,15,,,,,,,,,,,,,,,,,,,,,,,,,,,,,,,,,,,,,,,,,,,,,,,,,,,,,,,,,,,,,,,,,,,,,,,,,1.9969135920206706,1.1294183998834342,381.1416253999341,None,ScrollUp,정답입니다,381.1416253999341,None,381.1416253999341,None,381.1416253999341,None,381.1416253999341,None,382.17570239980705,None,382.17570239980705,382.67571510002017,,,,,,,,,,,,,,,,010,2022-05-10_19h58.46.887,FishGame,2022.1.1,59.28697923870682,
,17,넌 교활해,5,Orange,B,2.333333333333333,2.133333333333333,ScrollUp,ScrollDown,Orange.png,3,Negative,Congruent,,,,,0,0,0,0,,,,,,,,,,,,,,,,,,,,,0,16,16,16,,,,,,,,,,,,,,,,,,,,,,,,,,,,,,,,,,,,,,,,,,,,,,,,,,,,,,,,,,,,,,,,,,,,,,,,,2,0.8626143999863416,383.29458919982426,None,ScrollUp,정답입니다,383.29458919982426,None,383.29458919982426,None,383.29458919982426,None,383.29458919982426,None,384.0567685000133,None,384.0567685000133,384.5590078998357,,,,,,,,,,,,,,,,010,2022-05-10_19h58.46.887,FishGame,2022.1.1,59.28697923870682,
,18,나를 보내줘,6,Green,A,0,0,ScrollUp,ScrollDown,Green.png,3,NonTarget,NonTarget,,,,,0,0,0,0,,,,,,,,,,,,,,,,,,,,,0,17,17,17,,,,,,,,,,,,,,,,,,,,,,,,,,,,,,,,,,,,,,,,,,,,,,,,,,,,,,,,,,,,,,,,,,,,,,,,,2,0.9778443998657167,385.1764815999195,None,ScrollUp,정답입니다,385.1764815999195,None,385.1764815999195,None,385.1764815999195,None,385.1764815999195,None,386.0567117999308,None,386.0567117999308,386.55881739989854,,,,,,,,,,,,,,,,010,2022-05-10_19h58.46.887,FishGame,2022.1.1,59.28697923870682,
,19,넌 불친절해,5,Orange,B,2.208333333333333,2.033333333333333,ScrollUp,ScrollDown,Orange.png,3,Negative,Congruent,,,,,0,0,0,0,,,,,,,,,,,,,,,,,,,,,0,18,18,18,,,,,,,,,,,,,,,,,,,,,,,,,,,,,,,,,,,,,,,,,,,,,,,,,,,,,,,,,,,,,,,,,,,,,,,,,2,0.9957541998010129,387.1873095999472,None,ScrollUp,정답입니다,387.1873095999472,None,387.1873095999472,None,387.1873095999472,None,387.1873095999472,None,388.07540509989485,None,388.07540509989485,388.5900100998115,,,,,,,,,,,,,,,,010,2022-05-10_19h58.46.887,FishGame,2022.1.1,59.28697923870682,
,20,넌 지적이야,2,Orange,B,5.75,4.366666666666666,ScrollUp,ScrollDown,Orange.png,3,Positive,Incongruent,,,,,0,0,0,0,,,,,,,,,,,,,,,,,,,,,0,19,19,19,,,,,,,,,,,,,,,,,,,,,,,,,,,,,,,,,,,,,,,,,,,,,,,,,,,,,,,,,,,,,,,,,,,,,,,,,2,0.8591342999134213,389.19668559986167,None,ScrollUp,정답입니다,389.19668559986167,None,389.19668559986167,None,389.19668559986167,None,389.19668559986167,None,389.95668209996074,None,389.95668209996074,390.45662559987977,,,,,,,,,,,,,,,,010,2022-05-10_19h58.46.887,FishGame,2022.1.1,59.28697923870682,
,21,넌 우유부단해,4,Green,A,2.666666666666667,3.166666666666667,ScrollDown,ScrollUp,Green.png,3,Negative,Incongruent,,,,,0,0,0,0,,,,,,,,,,,,,,,,,,,,,0,20,20,20,,,,,,,,,,,,,,,,,,,,,,,,,,,,,,,,,,,,,,,,,,,,,,,,,,,,,,,,,,,,,,,,,,,,,,,,,1,0.9772363000083715,391.07816389994696,None,ScrollDown,정답입니다,391.07816389994696,None,391.07816389994696,None,391.07816389994696,None,391.07816389994696,None,391.95660389983095,None,391.95660389983095,392.4565787999891,,,,,,,,,,,,,,,,010,2022-05-10_19h58.46.887,FishGame,2022.1.1,59.28697923870682,
,22,나를 데려가줘,6,Orange,B,0,0,ScrollDown,ScrollUp,Orange.png,3,NonTarget,NonTarget,,,,,0,0,0,0,,,,,,,,,,,,,,,,,,,,,0,21,21,21,,,,,,,,,,,,,,,,,,,,,,,,,,,,,,,,,,,,,,,,,,,,,,,,,,,,,,,,,,,,,,,,,,,,,,,,,1,1.059550799895078,393.08045989996754,None,ScrollDown,정답입니다,393.08045989996754,None,393.08045989996754,None,393.08045989996754,None,393.08045989996754,None,394.03984989994206,None,394.03984989994206,394.53989829984494,,,,,,,,,,,,,,,,010,2022-05-10_19h58.46.887,FishGame,2022.1.1,59.28697923870682,
,23,넌 성실해,1,Orange,B,6.041666666666666,5.7,ScrollUp,ScrollDown,Orange.png,3,Positive,Incongruent,,,,,0,0,0,0,,,,,,,,,,,,,,,,,,,,,0,22,22,22,,,,,,,,,,,,,,,,,,,,,,,,,,,,,,,,,,,,,,,,,,,,,,,,,,,,,,,,,,,,,,,,,,,,,,,,,2,0.908985799876973,395.1649734999519,None,ScrollUp,정답입니다,395.1649734999519,None,395.1649734999519,None,395.1649734999519,None,395.1649734999519,None,395.97283849981613,None,395.97283849981613,396.4729253000114,,,,,,,,,,,,,,,,010,2022-05-10_19h58.46.887,FishGame,2022.1.1,59.28697923870682,
,24,넌 현실주의적이야,3,Green,A,4.625,4.4,ScrollDown,ScrollUp,Green.png,3,Neutral,Neutral,,,,,0,0,0,0,,,,,,,,,,,,,,,,,,,,,0,23,23,23,,,,,,,,,,,,,,,,,,,,,,,,,,,,,,,,,,,,,,,,,,,,,,,,,,,,,,,,,,,,,,,,,,,,,,,,,1,0.8460313000250608,397.08694409998134,None,ScrollDown,정답입니다,397.08694409998134,None,397.08694409998134,None,397.08694409998134,None,397.08694409998134,None,397.839521399932,None,397.839521399932,398.3420694998931,,,,,,,,,,,,,,,,010,2022-05-10_19h58.46.887,FishGame,2022.1.1,59.28697923870682,
,25,넌 진실돼,1,Green,A,6.625,5.566666666666666,ScrollDown,ScrollUp,Green.png,3,Positive,Congruent,,,,,0,0,0,0,,,,,,,,,,,,,,,,,,,,,0,24,24,24,,,,,,,,,,,,,,,,,,,,,,,,,,,,,,,,,,,,,,,,,,,,,,,,,,,,,,,,,,,,,,,,,,,,,,,,,1,0.8112208000384271,398.9609321998432,None,ScrollDown,정답입니다,398.9609321998432,None,398.9609321998432,None,398.9609321998432,None,398.9609321998432,None,399.67542609991506,None,399.67542609991506,400.175421099877,,,,,,,,,,,,,,,,010,2022-05-10_19h58.46.887,FishGame,2022.1.1,59.28697923870682,
,26,넌 천진난만해,3,Orange,B,4.958333333333334,4.833333333333333,ScrollUp,ScrollDown,Orange.png,3,Neutral,Neutral,,,,,0,0,0,0,,,,,,,,,,,,,,,,,,,,,0,25,25,25,,,,,,,,,,,,,,,,,,,,,,,,,,,,,,,,,,,,,,,,,,,,,,,,,,,,,,,,,,,,,,,,,,,,,,,,,2,0.7258299998939037,400.79848230001517,None,ScrollUp,정답입니다,400.79848230001517,None,400.79848230001517,None,400.79848230001517,None,400.79848230001517,None,401.42303209984675,None,401.42303209984675,401.9230547999032,,,,,,,,,,,,,,,,010,2022-05-10_19h58.46.887,FishGame,2022.1.1,59.28697923870682,
,27,넌 교양없어,5,Green,A,2.416666666666667,2.2,ScrollDown,ScrollUp,Green.png,3,Negative,Incongruent,,,,,0,0,0,0,,,,,,,,,,,,,,,,,,,,,0,26,26,26,,,,,,,,,,,,,,,,,,,,,,,,,,,,,,,,,,,,,,,,,,,,,,,,,,,,,,,,,,,,,,,,,,,,,,,,,1.0123456915219624,0.8427367999684066,402.5470471000299,None,ScrollDown,정답입니다,402.5470471000299,None,402.5470471000299,None,402.5470471000299,None,402.5470471000299,None,403.28959169983864,None,403.28959169983864,403.7896585999988,,,,,,,,,,,,,,,,010,2022-05-10_19h58.46.887,FishGame,2022.1.1,59.28697923870682,
,28,나를 보내줘,6,Green,A,0,0,ScrollUp,ScrollDown,Green.png,3,NonTarget,NonTarget,,,,,0,0,0,0,,,,,,,,,,,,,,,,,,,,,0,27,27,27,,,,,,,,,,,,,,,,,,,,,,,,,,,,,,,,,,,,,,,,,,,,,,,,,,,,,,,,,,,,,,,,,,,,,,,,,2,1.0592769999057055,404.41285620001145,None,ScrollUp,정답입니다,404.41285620001145,None,404.41285620001145,None,404.41285620001145,None,404.41285620001145,None,405.3731068999041,None,405.3731068999041,405.8751339998562,,,,,,,,,,,,,,,,010,2022-05-10_19h58.46.887,FishGame,2022.1.1,59.28697923870682,
,29,넌 엉뚱스러워,3,Green,A,4.166666666666667,4.133333333333334,ScrollDown,ScrollUp,Green.png,3,Neutral,Neutral,,,,,0,0,0,0,,,,,,,,,,,,,,,,,,,,,0,28,28,28,,,,,,,,,,,,,,,,,,,,,,,,,,,,,,,,,,,,,,,,,,,,,,,,,,,,,,,,,,,,,,,,,,,,,,,,,1,0.759250600123778,406.4952918998897,None,ScrollDown,정답입니다,406.4952918998897,None,406.4952918998897,None,406.4952918998897,None,406.4952918998897,None,407.1562532999087,None,407.1562532999087,407.65849639987573,,,,,,,,,,,,,,,,010,2022-05-10_19h58.46.887,FishGame,2022.1.1,59.28697923870682,
,30,넌 무지해,4,Orange,B,2.541666666666667,3.066666666666667,ScrollUp,ScrollDown,Orange.png,3,Negative,Congruent,,,,,0,0,0,0,,,,,,,,,,,,,,,,,,,,,0,29,29,29,,,,,,,,,,,,,,,,,,,,,,,,,,,,,,,,,,,,,,,,,,,,,,,,,,,,,,,,,,,,,,,,,,,,,,,,,1.9691357910633087,0.7797212998848408,408.27691489993595,None,ScrollUp,정답입니다,408.27691489993595,None,408.27691489993595,None,408.27691489993595,None,408.27691489993595,None,408.9562021000311,None,408.9562021000311,409.45835560001433,,,,,,,,,,,,,,,,010,2022-05-10_19h58.46.887,FishGame,2022.1.1,59.28697923870682,
,31,넌 음울해,5,Orange,B,2.25,2.233333333333333,ScrollUp,ScrollDown,Orange.png,3,Negative,Congruent,,,,,0,0,0,0,,,,,,,,,,,,,,,,,,,,,0,30,30,30,,,,,,,,,,,,,,,,,,,,,,,,,,,,,,,,,,,,,,,,,,,,,,,,,,,,,,,,,,,,,,,,,,,,,,,,,1.9691357910633087,0.8111472001764923,410.08162099984474,None,ScrollUp,정답입니다,410.08162099984474,None,410.08162099984474,None,410.08162099984474,None,410.08162099984474,None,410.79165139980614,None,410.79165139980614,411.2917006998323,,,,,,,,,,,,,,,,010,2022-05-10_19h58.46.887,FishGame,2022.1.1,59.28697923870682,
,32,넌 냉소적이야,5,Green,A,2.916666666666667,2.4,ScrollDown,ScrollUp,Green.png,3,Negative,Incongruent,,,,,0,0,0,0,,,,,,,,,,,,,,,,,,,,,0,31,31,31,,,,,,,,,,,,,,,,,,,,,,,,,,,,,,,,,,,,,,,,,,,,,,,,,,,,,,,,,,,,,,,,,,,,,,,,,1,0.8092269001062959,411.9086162999738,None,ScrollDown,정답입니다,411.9086162999738,None,411.9086162999738,None,411.9086162999738,None,411.9086162999738,None,412.6227456999477,None,412.6227456999477,413.1249226999935,,,,,,,,,,,,,,,,010,2022-05-10_19h58.46.887,FishGame,2022.1.1,59.28697923870682,
,33,나를 데려가줘,6,Orange,B,0,0,ScrollDown,ScrollUp,Orange.png,3,NonTarget,NonTarget,,,,,0,0,0,0,,,,,,,,,,,,,,,,,,,,,0,32,32,32,,,,,,,,,,,,,,,,,,,,,,,,,,,,,,,,,,,,,,,,,,,,,,,,,,,,,,,,,,,,,,,,,,,,,,,,,2,0.7639222000725567,413.74132169992663,None,ScrollUp,오답입니다,413.74132169992663,None,413.74132169992663,None,413.74132169992663,None,413.74132169992663,None,414.40609019994736,None,414.40609019994736,414.9082404000219,,,,,,,,,,,,,,,,010,2022-05-10_19h58.46.887,FishGame,2022.1.1,59.28697923870682,
,34,넌 쾌활해,1,Green,A,5.541666666666666,5.733333333333333,ScrollDown,ScrollUp,Green.png,3,Positive,Congruent,,,,,0,0,0,0,,,,,,,,,,,,,,,,,,,,,0,33,33,33,,,,,,,,,,,,,,,,,,,,,,,,,,,,,,,,,,,,,,,,,,,,,,,,,,,,,,,,,,,,,,,,,,,,,,,,,1.0447530845801036,0.793369600083679,415.52671509981155,None,ScrollDown,정답입니다,415.52671509981155,None,415.52671509981155,None,415.52671509981155,None,415.52671509981155,None,416.2227653998416,None,416.2227653998416,416.7250418998301,,,,,,,,,,,,,,,,010,2022-05-10_19h58.46.887,FishGame,2022.1.1,59.28697923870682,
,35,나를 보내줘,6,Green,A,0,0,ScrollUp,ScrollDown,Green.png,3,NonTarget,NonTarget,,,,,0,0,0,0,,,,,,,,,,,,,,,,,,,,,0,34,34,34,,,,,,,,,,,,,,,,,,,,,,,,,,,,,,,,,,,,,,,,,,,,,,,,,,,,,,,,,,,,,,,,,,,,,,,,,2,0.9937626998871565,417.34771170001477,None,ScrollUp,정답입니다,417.34771170001477,None,417.34771170001477,None,417.34771170001477,None,417.34771170001477,None,418.24144200002775,None,418.24144200002775,418.75598569982685,,,,,,,,,,,,,,,,010,2022-05-10_19h58.46.887,FishGame,2022.1.1,59.28697923870682,
,36,넌 명랑해,1,Orange,B,5.739130434782609,5.666666666666667,ScrollUp,ScrollDown,Orange.png,3,Positive,Incongruent,,,,,0,0,0,0,,,,,,,,,,,,,,,,,,,,,0,35,35,35,,,,,,,,,,,,,,,,,,,,,,,,,,,,,,,,,,,,,,,,,,,,,,,,,,,,,,,,,,,,,,,,,,,,,,,,,1.9490740597248077,0.8113805998582393,419.37968489993364,None,ScrollUp,정답입니다,419.37968489993364,None,419.37968489993364,None,419.37968489993364,None,419.37968489993364,None,420.0892793999519,None,420.0892793999519,420.5915212999098,,,,,,,,,,,,,,,,010,2022-05-10_19h58.46.887,FishGame,2022.1.1,59.28697923870682,
,37,넌 멍해,4,Green,A,2.833333333333333,3.4,ScrollDown,ScrollUp,Green.png,3,Negative,Incongruent,,,,,0,0,0,0,,,,,,,,,,,,,,,,,,,,,0,36,36,36,,,,,,,,,,,,,,,,,,,,,,,,,,,,,,,,,,,,,,,,,,,,,,,,,,,,,,,,,,,,,,,,,,,,,,,,,1.0817901194095612,0.6948017999529839,421.2099635999184,None,ScrollDown,정답입니다,421.2099635999184,None,421.2099635999184,None,421.2099635999184,None,421.2099635999184,None,421.8081033998169,None,421.8081033998169,422.3113465998322,,,,,,,,,,,,,,,,010,2022-05-10_19h58.46.887,FishGame,2022.1.1,59.28697923870682,
,38,나를 데려가줘,6,Orange,B,0,0,ScrollDown,ScrollUp,Orange.png,3,NonTarget,NonTarget,,,,,0,0,0,0,,,,,,,,,,,,,,,,,,,,,0,37,37,37,,,,,,,,,,,,,,,,,,,,,,,,,,,,,,,,,,,,,,,,,,,,,,,,,,,,,,,,,,,,,,,,,,,,,,,,,1,0.8931160001084208,422.94663599994965,None,ScrollDown,정답입니다,422.94663599994965,None,422.94663599994965,None,422.94663599994965,None,422.94663599994965,None,423.7391755999997,None,423.7391755999997,424.2414410999045,,,,,,,,,,,,,,,,010,2022-05-10_19h58.46.887,FishGame,2022.1.1,59.28697923870682,
,39,넌 현명해,2,Green,A,6.541666666666666,4.533333333333333,ScrollDown,ScrollUp,Green.png,3,Positive,Congruent,,,,,0,0,0,0,,,,,,,,,,,,,,,,,,,,,0,38,38,38,,,,,,,,,,,,,,,,,,,,,,,,,,,,,,,,,,,,,,,,,,,,,,,,,,,,,,,,,,,,,,,,,,,,,,,,,1,1.1110332999378443,424.862099400023,None,ScrollDown,정답입니다,424.862099400023,None,424.862099400023,None,424.862099400023,None,424.862099400023,None,425.87464669998735,None,425.87464669998735,426.3725772998296,,,,,,,,,,,,,,,,010,2022-05-10_19h58.46.887,FishGame,2022.1.1,59.28697923870682,
,40,넌 수줍어,3,Orange,B,3.541666666666666,4.366666666666666,ScrollUp,ScrollDown,Orange.png,3,Neutral,Neutral,,,,,0,0,0,0,,,,,,,,,,,,,,,,,,,,,0,39,39,39,,,,,,,,,,,,,,,,,,,,,,,,,,,,,,,,,,,,,,,,,,,,,,,,,,,,,,,,,,,,,,,,,,,,,,,,,2,0.7926421999000013,426.99875869997777,None,ScrollUp,정답입니다,426.99875869997777,None,426.99875869997777,None,426.99875869997777,None,426.99875869997777,None,427.68909509992227,None,427.68909509992227,428.1891599998344,,,,,,,,,,,,,,,,010,2022-05-10_19h58.46.887,FishGame,2022.1.1,59.28697923870682,
,41,나를 데려가줘,6,Orange,B,0,0,ScrollDown,ScrollUp,Orange.png,3,NonTarget,NonTarget,,,,,0,0,0,0,,,,,,,,,,,,,,,,,,,,,0,40,40,40,,,,,,,,,,,,,,,,,,,,,,,,,,,,,,,,,,,,,,,,,,,,,,,,,,,,,,,,,,,,,,,,,,,,,,,,,1.0570987462997437,0.8947850000113249,428.81142719998024,None,ScrollDown,정답입니다,428.81142719998024,None,428.81142719998024,None,428.81142719998024,None,428.81142719998024,None,429.6058178998064,None,429.6058178998064,430.1057188999839,,,,,,,,,,,,,,,,010,2022-05-10_19h58.46.887,FishGame,2022.1.1,59.28697923870682,
,42,넌 성숙해,2,Orange,B,5.833333333333333,4.533333333333333,ScrollUp,ScrollDown,Orange.png,3,Positive,Incongruent,,,,,0,0,0,0,,,,,,,,,,,,,,,,,,,,,0,41,41,41,,,,,,,,,,,,,,,,,,,,,,,,,,,,,,,,,,,,,,,,,,,,,,,,,,,,,,,,,,,,,,,,,,,,,,,,,1.9737654328346252,0.8444298000540584,430.73126159980893,None,ScrollUp,정답입니다,430.73126159980893,None,430.73126159980893,None,430.73126159980893,None,430.73126159980893,None,431.47452879999764,None,431.47452879999764,431.99134469986893,,,,,,,,,,,,,,,,010,2022-05-10_19h58.46.887,FishGame,2022.1.1,59.28697923870682,
,1,넌 매력적이야,2,Orange,B,6.125,4.666666666666667,ScrollUp,ScrollDown,Orange.png,4,Positive,Incongruent,,,,,0,0,0,0,,,,,,,,,,,,,,,,,,,,,,,,,0,0,0,0,,,,,,,,,,,,,,,,,,,,,,,,,,,,463.92161839990877,465.42169289989397,465.4550630999729,466.407317499863,466.4406635998748,467.3938356998842,467.3938356998842,None,,,,,,,,,,,,,,,,,,,,,,,,,,,,,,,,,,2,1.4218180000316352,468.5246102998499,None,ScrollUp,정답입니다,468.5246102998499,None,468.5246102998499,None,468.5246102998499,None,468.5246102998499,None,469.84047149983235,None,469.84047149983235,470.3570587998256,432.4778400999494,None,432.4778400999494,None,0.31574073,-0.19444445,1,0,0,0.016264660051092505,None,462.48842810001224,None,,,010,2022-05-10_19h58.46.887,FishGame,2022.1.1,59.28697923870682,
,2,나를 보내줘,6,Green,A,0,0,ScrollUp,ScrollDown,Green.png,4,NonTarget,NonTarget,,,,,0,0,0,0,,,,,,,,,,,,,,,,,,,,,,,,,0,1,1,1,,,,,,,,,,,,,,,,,,,,,,,,,,,,,,,,,,,,,,,,,,,,,,,,,,,,,,,,,,,,,,,,,,,,,2,0.9924484000075608,470.95956839993596,None,ScrollUp,정답입니다,470.95956839993596,None,470.95956839993596,None,470.95956839993596,None,470.95956839993596,None,471.85485929995775,None,471.85485929995775,472.356999799842,,,,,,,,,,,,,,,,010,2022-05-10_19h58.46.887,FishGame,2022.1.1,59.28697923870682,
,3,넌 조심스러워,3,Green,A,4.791666666666666,4.666666666666667,ScrollDown,ScrollUp,Green.png,4,Neutral,Neutral,,,,,0,0,0,0,,,,,,,,,,,,,,,,,,,,,,,,,0,2,2,2,,,,,,,,,,,,,,,,,,,,,,,,,,,,,,,,,,,,,,,,,,,,,,,,,,,,,,,,,,,,,,,,,,,,,1,0.877906900132075,472.9737880998291,None,ScrollDown,정답입니다,472.9737880998291,None,472.9737880998291,None,472.9737880998291,None,472.9737880998291,None,473.75701389997266,None,473.75701389997266,474.257050300017,,,,,,,,,,,,,,,,010,2022-05-10_19h58.46.887,FishGame,2022.1.1,59.28697923870682,
,4,넌 철학적이야,3,Orange,B,4.5,4.266666666666667,ScrollUp,ScrollDown,Orange.png,4,Neutral,Neutral,,,,,0,0,0,0,,,,,,,,,,,,,,,,,,,,,,,,,0,3,3,3,,,,,,,,,,,,,,,,,,,,,,,,,,,,,,,,,,,,,,,,,,,,,,,,,,,,,,,,,,,,,,,,,,,,,2,0.7755209999158978,474.8850071998313,None,ScrollUp,정답입니다,474.8850071998313,None,474.8850071998313,None,474.8850071998313,None,474.8850071998313,None,475.5545093999244,None,475.5545093999244,476.05458979983814,,,,,,,,,,,,,,,,010,2022-05-10_19h58.46.887,FishGame,2022.1.1,59.28697923870682,
,5,넌 쩨쩨해,5,Green,A,2.375,2.133333333333333,ScrollDown,ScrollUp,Green.png,4,Negative,Incongruent,,,,,0,0,0,0,,,,,,,,,,,,,,,,,,,,,,,,,0,4,4,4,,,,,,,,,,,,,,,,,,,,,,,,,,,,,,,,,,,,,,,,,,,,,,,,,,,,,,,,,,,,,,,,,,,,,1,0.8448623998556286,476.6741102999076,None,ScrollDown,정답입니다,476.6741102999076,None,476.6741102999076,None,476.6741102999076,None,476.6741102999076,None,477.4211774999276,None,477.4211774999276,477.92378219985403,,,,,,,,,,,,,,,,010,2022-05-10_19h58.46.887,FishGame,2022.1.1,59.28697923870682,
,6,나를 데려가줘,6,Orange,B,0,0,ScrollDown,ScrollUp,Orange.png,4,NonTarget,NonTarget,,,,,0,0,0,0,,,,,,,,,,,,,,,,,,,,,,,,,0,5,5,5,,,,,,,,,,,,,,,,,,,,,,,,,,,,,,,,,,,,,,,,,,,,,,,,,,,,,,,,,,,,,,,,,,,,,1,0.9456782001070678,478.5425513999071,None,ScrollDown,정답입니다,478.5425513999071,None,478.5425513999071,None,478.5425513999071,None,478.5425513999071,None,479.3903345998842,None,479.3903345998842,479.89352879999205,,,,,,,,,,,,,,,,010,2022-05-10_19h58.46.887,FishGame,2022.1.1,59.28697923870682,
,7,넌 고집불통이야,5,Orange,B,2.875,2,ScrollUp,ScrollDown,Orange.png,4,Negative,Congruent,,,,,0,0,0,0,,,,,,,,,,,,,,,,,,,,,,,,,0,6,6,6,,,,,,,,,,,,,,,,,,,,,,,,,,,,,,,,,,,,,,,,,,,,,,,,,,,,,,,,,,,,,,,,,,,,,2,0.845986699918285,480.5127603998408,None,ScrollUp,정답입니다,480.5127603998408,None,480.5127603998408,None,480.5127603998408,None,480.5127603998408,None,481.2546764998697,None,481.2546764998697,481.7546852999367,,,,,,,,,,,,,,,,010,2022-05-10_19h58.46.887,FishGame,2022.1.1,59.28697923870682,
,8,넌 무심해,4,Green,A,2.875,3.2,ScrollDown,ScrollUp,Green.png,4,Negative,Incongruent,,,,,0,0,0,0,,,,,,,,,,,,,,,,,,,,,,,,,0,7,7,7,,,,,,,,,,,,,,,,,,,,,,,,,,,,,,,,,,,,,,,,,,,,,,,,,,,,,,,,,,,,,,,,,,,,,1,0.7945675998926163,482.3811649000272,None,ScrollDown,정답입니다,482.3811649000272,None,482.3811649000272,None,482.3811649000272,None,482.3811649000272,None,483.0712278999854,None,483.0712278999854,483.5734430998564,,,,,,,,,,,,,,,,010,2022-05-10_19h58.46.887,FishGame,2022.1.1,59.28697923870682,
,9,넌 정겨워,1,Green,A,5.791666666666667,5.666666666666667,ScrollDown,ScrollUp,Green.png,4,Positive,Congruent,,,,,0,0,0,0,,,,,,,,,,,,,,,,,,,,,,,,,0,8,8,8,,,,,,,,,,,,,,,,,,,,,,,,,,,,,,,,,,,,,,,,,,,,,,,,,,,,,,,,,,,,,,,,,,,,,1,0.778217599960044,484.200035299873,None,ScrollDown,정답입니다,484.200035299873,None,484.200035299873,None,484.200035299873,None,484.200035299873,None,484.8712673999835,None,484.8712673999835,485.37343349982984,,,,,,,,,,,,,,,,010,2022-05-10_19h58.46.887,FishGame,2022.1.1,59.28697923870682,
,10,나를 데려가줘,6,Orange,B,0,0,ScrollDown,ScrollUp,Orange.png,4,NonTarget,NonTarget,,,,,0,0,0,0,,,,,,,,,,,,,,,,,,,,,,,,,0,9,9,9,,,,,,,,,,,,,,,,,,,,,,,,,,,,,,,,,,,,,,,,,,,,,,,,,,,,,,,,,,,,,,,,,,,,,1,1.1593221998773515,485.99434689991176,None,ScrollDown,정답입니다,485.99434689991176,None,485.99434689991176,None,485.99434689991176,None,485.99434689991176,None,487.05456859990954,None,487.05456859990954,487.55993839981966,,,,,,,,,,,,,,,,010,2022-05-10_19h58.46.887,FishGame,2022.1.1,59.28697923870682,
,11,넌 체제순응적이야,4,Orange,B,3,3.6,ScrollUp,ScrollDown,Orange.png,4,Negative,Congruent,,,,,0,0,0,0,,,,,,,,,,,,,,,,,,,,,,,,,0,10,10,10,,,,,,,,,,,,,,,,,,,,,,,,,,,,,,,,,,,,,,,,,,,,,,,,,,,,,,,,,,,,,,,,,,,,,2,0.9778989998158067,488.1853286998812,None,ScrollUp,정답입니다,488.1853286998812,None,488.1853286998812,None,488.1853286998812,None,488.1853286998812,None,489.05445029982366,None,489.05445029982366,489.5545586999506,,,,,,,,,,,,,,,,010,2022-05-10_19h58.46.887,FishGame,2022.1.1,59.28697923870682,
,12,나를 보내줘,6,Green,A,0,0,ScrollUp,ScrollDown,Green.png,4,NonTarget,NonTarget,,,,,0,0,0,0,,,,,,,,,,,,,,,,,,,,,,,,,0,11,11,11,,,,,,,,,,,,,,,,,,,,,,,,,,,,,,,,,,,,,,,,,,,,,,,,,,,,,,,,,,,,,,,,,,,,,1.9490740597248077,1.011166299926117,490.174599400023,None,ScrollUp,정답입니다,490.174599400023,None,490.174599400023,None,490.174599400023,None,490.174599400023,None,491.0878890999593,None,491.0878890999593,491.58786099986173,,,,,,,,,,,,,,,,010,2022-05-10_19h58.46.887,FishGame,2022.1.1,59.28697923870682,
,13,넌 박식해,2,Green,A,5.625,3.933333333333333,ScrollDown,ScrollUp,Green.png,4,Positive,Congruent,,,,,0,0,0,0,,,,,,,,,,,,,,,,,,,,,,,,,0,12,12,12,,,,,,,,,,,,,,,,,,,,,,,,,,,,,,,,,,,,,,,,,,,,,,,,,,,,,,,,,,,,,,,,,,,,,1,0.9777249998878688,492.2079848998692,None,ScrollDown,정답입니다,492.2079848998692,None,492.2079848998692,None,492.2079848998692,None,492.2079848998692,None,493.08769099996425,None,493.08769099996425,493.58777659991756,,,,,,,,,,,,,,,,010,2022-05-10_19h58.46.887,FishGame,2022.1.1,59.28697923870682,
,14,나를 보내줘,6,Green,A,0,0,ScrollUp,ScrollDown,Green.png,4,NonTarget,NonTarget,,,,,0,0,0,0,,,,,,,,,,,,,,,,,,,,,,,,,0,13,13,13,,,,,,,,,,,,,,,,,,,,,,,,,,,,,,,,,,,,,,,,,,,,,,,,,,,,,,,,,,,,,,,,,,,,,2,0.9461862000171095,494.20734979980625,None,ScrollUp,정답입니다,494.20734979980625,None,494.20734979980625,None,494.20734979980625,None,494.20734979980625,None,495.05653179995716,None,495.05653179995716,495.5544251999818,,,,,,,,,,,,,,,,010,2022-05-10_19h58.46.887,FishGame,2022.1.1,59.28697923870682,
,15,넌 침착해,1,Orange,B,5.458333333333333,5.566666666666666,ScrollUp,ScrollDown,Orange.png,4,Positive,Incongruent,,,,,0,0,0,0,,,,,,,,,,,,,,,,,,,,,,,,,0,14,14,14,,,,,,,,,,,,,,,,,,,,,,,,,,,,,,,,,,,,,,,,,,,,,,,,,,,,,,,,,,,,,,,,,,,,,2,0.9110566000454128,496.1843518000096,None,ScrollUp,정답입니다,496.1843518000096,None,496.1843518000096,None,496.1843518000096,None,496.1843518000096,None,496.98993069981225,None,496.98993069981225,497.4876086998265,,,,,,,,,,,,,,,,010,2022-05-10_19h58.46.887,FishGame,2022.1.1,59.28697923870682,
,16,나를 데려가줘,6,Orange,B,0,0,ScrollDown,ScrollUp,Orange.png,4,NonTarget,NonTarget,,,,,0,0,0,0,,,,,,,,,,,,,,,,,,,,,,,,,0,15,15,15,,,,,,,,,,,,,,,,,,,,,,,,,,,,,,,,,,,,,,,,,,,,,,,,,,,,,,,,,,,,,,,,,,,,,1,1.0115625001490116,498.13000929984264,None,ScrollDown,정답입니다,498.13000929984264,None,498.13000929984264,None,498.13000929984264,None,498.13000929984264,None,499.03764709993266,None,499.03764709993266,499.53992929984815,,,,,,,,,,,,,,,,010,2022-05-10_19h58.46.887,FishGame,2022.1.1,59.28697923870682,
,17,넌 행복해,1,Green,A,6.416666666666666,6.166666666666667,ScrollDown,ScrollUp,Green.png,4,Positive,Congruent,,,,,0,0,0,0,,,,,,,,,,,,,,,,,,,,,,,,,0,16,16,16,,,,,,,,,,,,,,,,,,,,,,,,,,,,,,,,,,,,,,,,,,,,,,,,,,,,,,,,,,,,,,,,,,,,,1,0.961228100117296,500.16160719981417,None,ScrollDown,정답입니다,500.16160719981417,None,500.16160719981417,None,500.16160719981417,None,500.16160719981417,None,501.02093110000715,None,501.02093110000715,501.52318379981443,,,,,,,,,,,,,,,,010,2022-05-10_19h58.46.887,FishGame,2022.1.1,59.28697923870682,
,18,넌 겸손해,2,Orange,B,5.791666666666667,4.766666666666667,ScrollUp,ScrollDown,Orange.png,4,Positive,Incongruent,,,,,0,0,0,0,,,,,,,,,,,,,,,,,,,,,,,,,0,17,17,17,,,,,,,,,,,,,,,,,,,,,,,,,,,,,,,,,,,,,,,,,,,,,,,,,,,,,,,,,,,,,,,,,,,,,2,0.759394499938935,502.1518794000149,None,ScrollUp,정답입니다,502.1518794000149,None,502.1518794000149,None,502.1518794000149,None,502.1518794000149,None,502.8042172999121,None,502.8042172999121,503.30423230002634,,,,,,,,,,,,,,,,010,2022-05-10_19h58.46.887,FishGame,2022.1.1,59.28697923870682,
,19,나를 보내줘,6,Green,A,0,0,ScrollUp,ScrollDown,Green.png,4,NonTarget,NonTarget,,,,,0,0,0,0,,,,,,,,,,,,,,,,,,,,,,,,,0,18,18,18,,,,,,,,,,,,,,,,,,,,,,,,,,,,,,,,,,,,,,,,,,,,,,,,,,,,,,,,,,,,,,,,,,,,,2,1.0610446000937372,503.9245323999785,None,ScrollUp,정답입니다,503.9245323999785,None,503.9245323999785,None,503.9245323999785,None,503.9245323999785,None,504.88746430003084,None,504.88746430003084,505.38753980002366,,,,,,,,,,,,,,,,010,2022-05-10_19h58.46.887,FishGame,2022.1.1,59.28697923870682,
,20,넌 의심없어,3,Green,A,4.166666666666667,4.6,ScrollDown,ScrollUp,Green.png,4,Neutral,Neutral,,,,,0,0,0,0,,,,,,,,,,,,,,,,,,,,,,,,,0,19,19,19,,,,,,,,,,,,,,,,,,,,,,,,,,,,,,,,,,,,,,,,,,,,,,,,,,,,,,,,,,,,,,,,,,,,,1,0.7962891000788659,506.00452139996924,None,ScrollDown,정답입니다,506.00452139996924,None,506.00452139996924,None,506.00452139996924,None,506.00452139996924,None,506.7062850999646,None,506.7062850999646,507.2208559999708,,,,,,,,,,,,,,,,010,2022-05-10_19h58.46.887,FishGame,2022.1.1,59.28697923870682,
,21,넌 시시해,4,Green,A,2.666666666666667,2.966666666666667,ScrollDown,ScrollUp,Green.png,4,Negative,Incongruent,,,,,0,0,0,0,,,,,,,,,,,,,,,,,,,,,,,,,0,20,20,20,,,,,,,,,,,,,,,,,,,,,,,,,,,,,,,,,,,,,,,,,,,,,,,,,,,,,,,,,,,,,,,,,,,,,1.0185184975465138,0.8591076999437064,507.8314079998527,None,ScrollDown,정답입니다,507.8314079998527,None,507.8314079998527,None,507.8314079998527,None,507.8314079998527,None,508.5873914998956,None,508.5873914998956,509.0895940999035,,,,,,,,,,,,,,,,010,2022-05-10_19h58.46.887,FishGame,2022.1.1,59.28697923870682,
,22,나를 데려가줘,6,Orange,B,0,0,ScrollDown,ScrollUp,Orange.png,4,NonTarget,NonTarget,,,,,0,0,0,0,,,,,,,,,,,,,,,,,,,,,,,,,0,21,21,21,,,,,,,,,,,,,,,,,,,,,,,,,,,,,,,,,,,,,,,,,,,,,,,,,,,,,,,,,,,,,,,,,,,,,1,1.0610841000452638,509.7079969998449,None,ScrollDown,정답입니다,509.7079969998449,None,509.7079969998449,None,509.7079969998449,None,509.7079969998449,None,510.6729282999877,None,510.6729282999877,511.1896420000121,,,,,,,,,,,,,,,,010,2022-05-10_19h58.46.887,FishGame,2022.1.1,59.28697923870682,
,23,넌 무정해,5,Green,A,2.5,2.2,ScrollDown,ScrollUp,Green.png,4,Negative,Incongruent,,,,,0,0,0,0,,,,,,,,,,,,,,,,,,,,,,,,,0,22,22,22,,,,,,,,,,,,,,,,,,,,,,,,,,,,,,,,,,,,,,,,,,,,,,,,,,,,,,,,,,,,,,,,,,,,,1,0.8604584001004696,511.78681299998425,None,ScrollDown,정답입니다,511.78681299998425,None,511.78681299998425,None,511.78681299998425,None,511.78681299998425,None,512.5539534999989,None,512.5539534999989,513.0540380999446,,,,,,,,,,,,,,,,010,2022-05-10_19h58.46.887,FishGame,2022.1.1,59.28697923870682,
,24,넌 긍정적이야,1,Orange,B,6.041666666666667,6.066666666666666,ScrollUp,ScrollDown,Orange.png,4,Positive,Incongruent,,,,,0,0,0,0,,,,,,,,,,,,,,,,,,,,,,,,,0,23,23,23,,,,,,,,,,,,,,,,,,,,,,,,,,,,,,,,,,,,,,,,,,,,,,,,,,,,,,,,,,,,,,,,,,,,,2,0.7942959999199957,513.6829087999649,None,ScrollUp,정답입니다,513.6829087999649,None,513.6829087999649,None,513.6829087999649,None,513.6829087999649,None,514.3706443998963,None,514.3706443998963,514.8706960999407,,,,,,,,,,,,,,,,010,2022-05-10_19h58.46.887,FishGame,2022.1.1,59.28697923870682,
,25,나를 보내줘,6,Green,A,0,0,ScrollUp,ScrollDown,Green.png,4,NonTarget,NonTarget,,,,,0,0,0,0,,,,,,,,,,,,,,,,,,,,,,,,,0,24,24,24,,,,,,,,,,,,,,,,,,,,,,,,,,,,,,,,,,,,,,,,,,,,,,,,,,,,,,,,,,,,,,,,,,,,,2,1.0591865999158472,515.4923498998396,None,ScrollUp,정답입니다,515.4923498998396,None,515.4923498998396,None,515.4923498998396,None,515.4923498998396,None,516.4538747000042,None,516.4538747000042,516.9539598999545,,,,,,,,,,,,,,,,010,2022-05-10_19h58.46.887,FishGame,2022.1.1,59.28697923870682,
,26,넌 시기심이 많아,5,Orange,B,2.458333333333333,2.233333333333333,ScrollUp,ScrollDown,Orange.png,4,Negative,Congruent,,,,,0,0,0,0,,,,,,,,,,,,,,,,,,,,,,,,,0,25,25,25,,,,,,,,,,,,,,,,,,,,,,,,,,,,,,,,,,,,,,,,,,,,,,,,,,,,,,,,,,,,,,,,,,,,,2,0.8632008000276983,517.5758167998865,None,ScrollUp,정답입니다,517.5758167998865,None,517.5758167998865,None,517.5758167998865,None,517.5758167998865,None,518.337221799884,None,518.337221799884,518.8394801998511,,,,,,,,,,,,,,,,010,2022-05-10_19h58.46.887,FishGame,2022.1.1,59.28697923870682,
,27,넌 탁월해,2,Green,A,5.708333333333334,4.5,ScrollDown,ScrollUp,Green.png,4,Positive,Congruent,,,,,0,0,0,0,,,,,,,,,,,,,,,,,,,,,,,,,0,26,26,26,,,,,,,,,,,,,,,,,,,,,,,,,,,,,,,,,,,,,,,,,,,,,,,,,,,,,,,,,,,,,,,,,,,,,1,0.9774642998818308,519.4578593999613,None,ScrollDown,정답입니다,519.4578593999613,None,519.4578593999613,None,519.4578593999613,None,519.4578593999613,None,520.3369469000027,None,520.3369469000027,520.8369632000104,,,,,,,,,,,,,,,,010,2022-05-10_19h58.46.887,FishGame,2022.1.1,59.28697923870682,
,28,나를 데려가줘,6,Orange,B,0,0,ScrollDown,ScrollUp,Orange.png,4,NonTarget,NonTarget,,,,,0,0,0,0,,,,,,,,,,,,,,,,,,,,,,,,,0,27,27,27,,,,,,,,,,,,,,,,,,,,,,,,,,,,,,,,,,,,,,,,,,,,,,,,,,,,,,,,,,,,,,,,,,,,,1,1.0139888999983668,521.4532629000023,None,ScrollDown,정답입니다,521.4532629000023,None,521.4532629000023,None,521.4532629000023,None,521.4532629000023,None,522.3727309999522,None,522.3727309999522,522.8728598000016,,,,,,,,,,,,,,,,010,2022-05-10_19h58.46.887,FishGame,2022.1.1,59.28697923870682,
,29,넌 조용해,3,Orange,B,4.333333333333333,4.166666666666667,ScrollUp,ScrollDown,Orange.png,4,Neutral,Neutral,,,,,0,0,0,0,,,,,,,,,,,,,,,,,,,,,,,,,0,28,28,28,,,,,,,,,,,,,,,,,,,,,,,,,,,,,,,,,,,,,,,,,,,,,,,,,,,,,,,,,,,,,,,,,,,,,2,1.1107184998691082,523.4952103998512,None,ScrollUp,정답입니다,523.4952103998512,None,523.4952103998512,None,523.4952103998512,None,523.4952103998512,None,524.5060954999644,None,524.5060954999644,525.0062366998754,,,,,,,,,,,,,,,,010,2022-05-10_19h58.46.887,FishGame,2022.1.1,59.28697923870682,
,30,넌 다정해,1,Green,A,5.833333333333334,5.7,ScrollDown,ScrollUp,Green.png,4,Positive,Congruent,,,,,0,0,0,0,,,,,,,,,,,,,,,,,,,,,,,,,0,29,29,29,,,,,,,,,,,,,,,,,,,,,,,,,,,,,,,,,,,,,,,,,,,,,,,,,,,,,,,,,,,,,,,,,,,,,1,0.8770845998078585,525.6394472999964,None,ScrollDown,정답입니다,525.6394472999964,None,525.6394472999964,None,525.6394472999964,None,525.6394472999964,None,526.4203702998348,None,526.4203702998348,526.9225706998259,,,,,,,,,,,,,,,,010,2022-05-10_19h58.46.887,FishGame,2022.1.1,59.28697923870682,
,31,넌 능력있어,2,Orange,B,6.166666666666666,4.6,ScrollUp,ScrollDown,Orange.png,4,Positive,Incongruent,,,,,0,0,0,0,,,,,,,,,,,,,,,,,,,,,,,,,0,30,30,30,,,,,,,,,,,,,,,,,,,,,,,,,,,,,,,,,,,,,,,,,,,,,,,,,,,,,,,,,,,,,,,,,,,,,1.9768518606821697,0.7087403999175876,527.5470080999658,None,ScrollUp,정답입니다,527.5470080999658,None,527.5470080999658,None,527.5470080999658,None,527.5470080999658,None,528.153409200022,None,528.153409200022,528.6534719998017,,,,,,,,,,,,,,,,010,2022-05-10_19h58.46.887,FishGame,2022.1.1,59.28697923870682,
,32,넌 불쾌해,5,Green,A,2.125,1.933333333333333,ScrollDown,ScrollUp,Green.png,4,Negative,Incongruent,,,,,0,0,0,0,,,,,,,,,,,,,,,,,,,,,,,,,0,31,31,31,,,,,,,,,,,,,,,,,,,,,,,,,,,,,,,,,,,,,,,,,,,,,,,,,,,,,,,,,,,,,,,,,,,,,1,0.7140252999961376,529.2669945999514,None,ScrollDown,정답입니다,529.2669945999514,None,529.2669945999514,None,529.2669945999514,None,529.2669945999514,None,529.8867478999309,None,529.8867478999309,530.3892611998599,,,,,,,,,,,,,,,,010,2022-05-10_19h58.46.887,FishGame,2022.1.1,59.28697923870682,
,33,나를 데려가줘,6,Orange,B,0,0,ScrollDown,ScrollUp,Orange.png,4,NonTarget,NonTarget,,,,,0,0,0,0,,,,,,,,,,,,,,,,,,,,,,,,,0,32,32,32,,,,,,,,,,,,,,,,,,,,,,,,,,,,,,,,,,,,,,,,,,,,,,,,,,,,,,,,,,,,,,,,,,,,,1,0.9093587999232113,531.0096660000272,None,ScrollDown,정답입니다,531.0096660000272,None,531.0096660000272,None,531.0096660000272,None,531.0096660000272,None,531.8226057998836,None,531.8226057998836,532.3225987998303,,,,,,,,,,,,,,,,010,2022-05-10_19h58.46.887,FishGame,2022.1.1,59.28697923870682,
,34,넌 유순해,3,Green,A,4.458333333333333,5,ScrollDown,ScrollUp,Green.png,4,Neutral,Neutral,,,,,0,0,0,0,,,,,,,,,,,,,,,,,,,,,,,,,0,33,33,33,,,,,,,,,,,,,,,,,,,,,,,,,,,,,,,,,,,,,,,,,,,,,,,,,,,,,,,,,,,,,,,,,,,,,1,0.9759824997745454,532.9396689999849,None,ScrollDown,정답입니다,532.9396689999849,None,532.9396689999849,None,532.9396689999849,None,532.9396689999849,None,533.8224014998414,None,533.8224014998414,534.3202778999694,,,,,,,,,,,,,,,,010,2022-05-10_19h58.46.887,FishGame,2022.1.1,59.28697923870682,
,35,넌 근심스러워,4,Orange,B,2.708333333333333,3.133333333333333,ScrollUp,ScrollDown,Orange.png,4,Negative,Congruent,,,,,0,0,0,0,,,,,,,,,,,,,,,,,,,,,,,,,0,34,34,34,,,,,,,,,,,,,,,,,,,,,,,,,,,,,,,,,,,,,,,,,,,,,,,,,,,,,,,,,,,,,,,,,,,,,1.89969136317571,0.9248945999424905,534.9475366999395,None,ScrollUp,정답입니다,534.9475366999395,None,534.9475366999395,None,534.9475366999395,None,534.9475366999395,None,535.7699113998096,None,535.7699113998096,536.2699775998481,,,,,,,,,,,,,,,,010,2022-05-10_19h58.46.887,FishGame,2022.1.1,59.28697923870682,
,36,넌 세련되었어,2,Green,A,5.5,4.6,ScrollDown,ScrollUp,Green.png,4,Positive,Congruent,,,,,0,0,0,0,,,,,,,,,,,,,,,,,,,,,,,,,0,35,35,35,,,,,,,,,,,,,,,,,,,,,,,,,,,,,,,,,,,,,,,,,,,,,,,,,,,,,,,,,,,,,,,,,,,,,1.1388888855775197,0.8129702000878751,536.8942162999883,None,ScrollDown,정답입니다,536.8942162999883,None,536.8942162999883,None,536.8942162999883,None,536.8942162999883,None,537.6032254998572,None,537.6032254998572,538.1033144998364,,,,,,,,,,,,,,,,010,2022-05-10_19h58.46.887,FishGame,2022.1.1,59.28697923870682,
,37,나를 보내줘,6,Green,A,0,0,ScrollUp,ScrollDown,Green.png,4,NonTarget,NonTarget,,,,,0,0,0,0,,,,,,,,,,,,,,,,,,,,,,,,,0,36,36,36,,,,,,,,,,,,,,,,,,,,,,,,,,,,,,,,,,,,,,,,,,,,,,,,,,,,,,,,,,,,,,,,,,,,,1.8225308656692505,1.1781269998755306,538.720024399925,None,ScrollUp,정답입니다,538.720024399925,None,538.720024399925,None,538.720024399925,None,538.720024399925,None,539.805717599811,None,539.805717599811,540.3057369999588,,,,,,,,,,,,,,,,010,2022-05-10_19h58.46.887,FishGame,2022.1.1,59.28697923870682,
,38,넌 확고해,3,Orange,B,4.708333333333334,4.566666666666666,ScrollUp,ScrollDown,Orange.png,4,Neutral,Neutral,,,,,0,0,0,0,,,,,,,,,,,,,,,,,,,,,,,,,0,37,37,37,,,,,,,,,,,,,,,,,,,,,,,,,,,,,,,,,,,,,,,,,,,,,,,,,,,,,,,,,,,,,,,,,,,,,1.7916666616996129,0.8622634999919683,540.9229891998693,None,ScrollUp,정답입니다,540.9229891998693,None,540.9229891998693,None,540.9229891998693,None,540.9229891998693,None,541.6889895999338,None,541.6889895999338,542.1867644998711,,,,,,,,,,,,,,,,010,2022-05-10_19h58.46.887,FishGame,2022.1.1,59.28697923870682,
,39,넌 이해심이 많아,1,Orange,B,6.041666666666668,5.533333333333333,ScrollUp,ScrollDown,Orange.png,4,Positive,Incongruent,,,,,0,0,0,0,,,,,,,,,,,,,,,,,,,,,,,,,0,38,38,38,,,,,,,,,,,,,,,,,,,,,,,,,,,,,,,,,,,,,,,,,,,,,,,,,,,,,,,,,,,,,,,,,,,,,1.8858024626970291,0.9594677998684347,542.8089182998519,None,ScrollUp,정답입니다,542.8089182998519,None,542.8089182998519,None,542.8089182998519,None,542.8089182998519,None,543.6700242999941,None,543.6700242999941,544.172266599955,,,,,,,,,,,,,,,,010,2022-05-10_19h58.46.887,FishGame,2022.1.1,59.28697923870682,
,40,나를 보내줘,6,Green,A,0,0,ScrollUp,ScrollDown,Green.png,4,NonTarget,NonTarget,,,,,0,0,0,0,,,,,,,,,,,,,,,,,,,,,,,,,0,39,39,39,,,,,,,,,,,,,,,,,,,,,,,,,,,,,,,,,,,,,,,,,,,,,,,,,,,,,,,,,,,,,,,,,,,,,1.8765432039896648,0.9924425999633968,544.7907161000185,None,ScrollUp,정답입니다,544.7907161000185,None,544.7907161000185,None,544.7907161000185,None,544.7907161000185,None,545.6865842998959,None,545.6865842998959,546.1866731999908,,,,,,,,,,,,,,,,010,2022-05-10_19h58.46.887,FishGame,2022.1.1,59.28697923870682,
,41,넌 거칠어,4,Green,A,2.625,3.033333333333333,ScrollDown,ScrollUp,Green.png,4,Negative,Incongruent,,,,,0,0,0,0,,,,,,,,,,,,,,,,,,,,,,,,,0,40,40,40,,,,,,,,,,,,,,,,,,,,,,,,,,,,,,,,,,,,,,,,,,,,,,,,,,,,,,,,,,,,,,,,,,,,,1.0679012437661488,0.8448296999558806,546.8056248999201,None,ScrollDown,정답입니다,546.8056248999201,None,546.8056248999201,None,546.8056248999201,None,546.8056248999201,None,547.5532730999403,None,547.5532730999403,548.0533310000319,,,,,,,,,,,,,,,,010,2022-05-10_19h58.46.887,FishGame,2022.1.1,59.28697923870682,
,42,넌 변덕맞아,5,Orange,B,2.75,2.166666666666667,ScrollUp,ScrollDown,Orange.png,4,Negative,Congruent,,,,,0,0,0,0,,,,,,,,,,,,,,,,,,,,,,,,,0,41,41,41,,,,,,,,,,,,,,,,,,,,,,,,,,,,,,,,,,,,,,,,,,,,,,,,,,,,,,,,,,,,,,,,,,,,,1.7808641890684764,0.759283300023526,548.6804633999709,None,ScrollUp,정답입니다,548.6804633999709,None,548.6804633999709,None,548.6804633999709,None,548.6804633999709,None,549.341909499839,None,549.341909499839,549.8532828998286,,,,,,,,,,,,,,,,010,2022-05-10_19h58.46.887,FishGame,2022.1.1,59.28697923870682,
,43,나를 데려가줘,6,Orange,B,0,0,ScrollDown,ScrollUp,Orange.png,4,NonTarget,NonTarget,,,,,0,0,0,0,,,,,,,,,,,,,,,,,,,,,,,,,0,42,42,42,,,,,,,,,,,,,,,,,,,,,,,,,,,,,,,,,,,,,,,,,,,,,,,,,,,,,,,,,,,,,,,,,,,,,1.0416666567325592,0.8616214001085609,550.4730719998479,None,ScrollDown,정답입니다,550.4730719998479,None,550.4730719998479,None,550.4730719998479,None,550.4730719998479,None,551.236484099878,None,551.236484099878,551.7386745000258,,,,,,,,,,,,,,,,010,2022-05-10_19h58.46.887,FishGame,2022.1.1,59.28697923870682,
,44,넌 외로워,4,Orange,B,2.833333333333333,3.3,ScrollUp,ScrollDown,Orange.png,4,Negative,Congruent,,,,,0,0,0,0,,,,,,,,,,,,,,,,,,,,,,,,,0,43,43,43,,,,,,,,,,,,,,,,,,,,,,,,,,,,,,,,,,,,,,,,,,,,,,,,,,,,,,,,,,,,,,,,,,,,,1.7962963034709294,0.7436834999825805,552.362277999986,None,ScrollUp,정답입니다,552.362277999986,None,552.362277999986,None,552.362277999986,None,552.362277999986,None,553.0031522999052,None,553.0031522999052,553.505388099933,,,,,,,,,,,,,,,,010,2022-05-10_19h58.46.887,FishGame,2022.1.1,59.28697923870682,
,1,넌 불평스러워,5,Green,A,2.25,2.066666666666667,ScrollDown,ScrollUp,Green.png,5,Negative,Incongruent,,,,,0,0,0,0,,,,,,,,,,,,,,,,,,,,,,,,,,,,,0,0,0,0,,,,,,,,,,,,,,,,,,,,,,,,585.4523905999959,586.9548871000297,586.9881992000155,587.938148799818,587.9881884998176,588.9381287998985,588.9381287998985,None,,,,,,,,,,,,,,,,,,,,,,,,,,,,,,,,,,1.040123442808787,1.3222342000808567,590.0431693999562,None,ScrollDown,정답입니다,590.0431693999562,None,590.0431693999562,None,590.0431693999562,None,590.0431693999562,None,591.2690277998336,None,591.2690277998336,591.7690512998961,554.0031635998748,None,554.0031635998748,None,0.037962962,-0.09166667,1,0,0,0.01622955990023911,None,584.0025433998089,None,,,010,2022-05-10_19h58.46.887,FishGame,2022.1.1,59.28697923870682,
,2,나를 보내줘,6,Green,A,0,0,ScrollUp,ScrollDown,Green.png,5,NonTarget,NonTarget,,,,,0,0,0,0,,,,,,,,,,,,,,,,,,,,,,,,,,,,,0,1,1,1,,,,,,,,,,,,,,,,,,,,,,,,,,,,,,,,,,,,,,,,,,,,,,,,,,,,,,,,,,,,,,,,,1.9645061492919922,0.9296895998995751,592.3890144999605,None,ScrollUp,정답입니다,592.3890144999605,None,592.3890144999605,None,592.3890144999605,None,592.3890144999605,None,593.2189325999934,None,593.2189325999934,593.7211356998887,,,,,,,,,,,,,,,,010,2022-05-10_19h58.46.887,FishGame,2022.1.1,59.28697923870682,
,3,넌 다재다능해,2,Orange,B,6.208333333333333,4.5,ScrollUp,ScrollDown,Orange.png,5,Positive,Incongruent,,,,,0,0,0,0,,,,,,,,,,,,,,,,,,,,,,,,,,,,,0,2,2,2,,,,,,,,,,,,,,,,,,,,,,,,,,,,,,,,,,,,,,,,,,,,,,,,,,,,,,,,,,,,,,,,,1.819444437821706,0.7426109001971781,594.340525199892,None,ScrollUp,정답입니다,594.340525199892,None,594.340525199892,None,594.340525199892,None,594.340525199892,None,594.9856090999674,None,594.9856090999674,595.4856481999159,,,,,,,,,,,,,,,,010,2022-05-10_19h58.46.887,FishGame,2022.1.1,59.28697923870682,
,4,넌 과감해,3,Green,A,4.833333333333334,4.6,ScrollDown,ScrollUp,Green.png,5,Neutral,Neutral,,,,,0,0,0,0,,,,,,,,,,,,,,,,,,,,,,,,,,,,,0,3,3,3,,,,,,,,,,,,,,,,,,,,,,,,,,,,,,,,,,,,,,,,,,,,,,,,,,,,,,,,,,,,,,,,,1.1111111094554265,0.9928172000218183,596.1056056998204,None,ScrollDown,정답입니다,596.1056056998204,None,596.1056056998204,None,596.1056056998204,None,596.1056056998204,None,597.0021752000321,None,597.0021752000321,597.5022259999532,,,,,,,,,,,,,,,,010,2022-05-10_19h58.46.887,FishGame,2022.1.1,59.28697923870682,
,5,넌 고분고분해,3,Orange,B,3.75,4.033333333333333,ScrollUp,ScrollDown,Orange.png,5,Neutral,Neutral,,,,,0,0,0,0,,,,,,,,,,,,,,,,,,,,,,,,,,,,,0,4,4,4,,,,,,,,,,,,,,,,,,,,,,,,,,,,,,,,,,,,,,,,,,,,,,,,,,,,,,,,,,,,,,,,,2,0.9620147000532597,598.1316140999552,None,ScrollUp,정답입니다,598.1316140999552,None,598.1316140999552,None,598.1316140999552,None,598.1316140999552,None,598.9876599998679,None,598.9876599998679,599.5043562999927,,,,,,,,,,,,,,,,010,2022-05-10_19h58.46.887,FishGame,2022.1.1,59.28697923870682,
,6,나를 보내줘,6,Green,A,0,0,ScrollUp,ScrollDown,Green.png,5,NonTarget,NonTarget,,,,,0,0,0,0,,,,,,,,,,,,,,,,,,,,,,,,,,,,,0,5,5,5,,,,,,,,,,,,,,,,,,,,,,,,,,,,,,,,,,,,,,,,,,,,,,,,,,,,,,,,,,,,,,,,,1.8317901243766148,0.8609849000349641,600.1055164998397,None,ScrollUp,정답입니다,600.1055164998397,None,600.1055164998397,None,600.1055164998397,None,600.1055164998397,None,600.8687547999434,None,600.8687547999434,601.3688344999682,,,,,,,,,,,,,,,,010,2022-05-10_19h58.46.887,FishGame,2022.1.1,59.28697923870682,
,7,넌 잘 잊어,4,Green,A,3,3.7,ScrollDown,ScrollUp,Green.png,5,Negative,Incongruent,,,,,0,0,0,0,,,,,,,,,,,,,,,,,,,,,,,,,,,,,0,6,6,6,,,,,,,,,,,,,,,,,,,,,,,,,,,,,,,,,,,,,,,,,,,,,,,,,,,,,,,,,,,,,,,,,1,0.9449597999919206,601.9899058998562,None,ScrollDown,정답입니다,601.9899058998562,None,601.9899058998562,None,601.9899058998562,None,601.9899058998562,None,602.8354274998419,None,602.8354274998419,603.3375798999332,,,,,,,,,,,,,,,,010,2022-05-10_19h58.46.887,FishGame,2022.1.1,59.28697923870682,
,8,넌 탐구심이없어,4,Orange,B,2.833333333333333,3.066666666666667,ScrollUp,ScrollDown,Orange.png,5,Negative,Congruent,,,,,0,0,0,0,,,,,,,,,,,,,,,,,,,,,,,,,,,,,0,7,7,7,,,,,,,,,,,,,,,,,,,,,,,,,,,,,,,,,,,,,,,,,,,,,,,,,,,,,,,,,,,,,,,,,2,0.7767775000538677,603.9590796998236,None,ScrollUp,정답입니다,603.9590796998236,None,603.9590796998236,None,603.9590796998236,None,603.9590796998236,None,604.6354048999492,None,604.6354048999492,605.1376334999222,,,,,,,,,,,,,,,,010,2022-05-10_19h58.46.887,FishGame,2022.1.1,59.28697923870682,
,9,나를 데려가줘,6,Orange,B,0,0,ScrollDown,ScrollUp,Orange.png,5,NonTarget,NonTarget,,,,,0,0,0,0,,,,,,,,,,,,,,,,,,,,,,,,,,,,,0,8,8,8,,,,,,,,,,,,,,,,,,,,,,,,,,,,,,,,,,,,,,,,,,,,,,,,,,,,,,,,,,,,,,,,,1.0231481393178303,1.0435090998653322,605.754887699848,None,ScrollDown,정답입니다,605.754887699848,None,605.754887699848,None,605.754887699848,None,605.754887699848,None,606.7019727998413,None,606.7019727998413,607.2020570999011,,,,,,,,,,,,,,,,010,2022-05-10_19h58.46.887,FishGame,2022.1.1,59.28697923870682,
,10,넌 참되어,2,Green,A,6.041666666666664,4.733333333333333,ScrollDown,ScrollUp,Green.png,5,Positive,Congruent,,,,,0,0,0,0,,,,,,,,,,,,,,,,,,,,,,,,,,,,,0,9,9,9,,,,,,,,,,,,,,,,,,,,,,,,,,,,,,,,,,,,,,,,,,,,,,,,,,,,,,,,,,,,,,,,,1,0.8450503998901695,607.8206030998845,None,ScrollDown,정답입니다,607.8206030998845,None,607.8206030998845,None,607.8206030998845,None,607.8206030998845,None,608.5708156998735,None,608.5708156998735,609.0708754998632,,,,,,,,,,,,,,,,010,2022-05-10_19h58.46.887,FishGame,2022.1.1,59.28697923870682,
,11,넌 생기있어,1,Orange,B,5.875,5.633333333333334,ScrollUp,ScrollDown,Orange.png,5,Positive,Incongruent,,,,,0,0,0,0,,,,,,,,,,,,,,,,,,,,,,,,,,,,,0,10,10,10,,,,,,,,,,,,,,,,,,,,,,,,,,,,,,,,,,,,,,,,,,,,,,,,,,,,,,,,,,,,,,,,,1.9305555423100789,0.946025799959898,609.690023199888,None,ScrollUp,정답입니다,609.690023199888,None,609.690023199888,None,609.690023199888,None,609.690023199888,None,610.5352270000149,None,610.5352270000149,611.0353045999072,,,,,,,,,,,,,,,,010,2022-05-10_19h58.46.887,FishGame,2022.1.1,59.28697923870682,
,12,넌 비사교적이야,4,Orange,B,2.875,2.9,ScrollUp,ScrollDown,Orange.png,5,Negative,Congruent,,,,,0,0,0,0,,,,,,,,,,,,,,,,,,,,,,,,,,,,,0,11,11,11,,,,,,,,,,,,,,,,,,,,,,,,,,,,,,,,,,,,,,,,,,,,,,,,,,,,,,,,,,,,,,,,,1.9938271641731262,0.7616176002193242,611.6614355999045,None,ScrollUp,정답입니다,611.6614355999045,None,611.6614355999045,None,611.6614355999045,None,611.6614355999045,None,612.3185609998181,None,612.3185609998181,612.820763199823,,,,,,,,,,,,,,,,010,2022-05-10_19h58.46.887,FishGame,2022.1.1,59.28697923870682,
,13,나를 데려가줘,6,Orange,B,0,0,ScrollDown,ScrollUp,Orange.png,5,NonTarget,NonTarget,,,,,0,0,0,0,,,,,,,,,,,,,,,,,,,,,,,,,,,,,0,12,12,12,,,,,,,,,,,,,,,,,,,,,,,,,,,,,,,,,,,,,,,,,,,,,,,,,,,,,,,,,,,,,,,,,1,0.9113563001155853,613.4369943998754,None,ScrollDown,정답입니다,613.4369943998754,None,613.4369943998754,None,613.4369943998754,None,613.4369943998754,None,614.2518682000227,None,614.2518682000227,614.7541157000232,,,,,,,,,,,,,,,,010,2022-05-10_19h58.46.887,FishGame,2022.1.1,59.28697923870682,
,14,넌 고독해,4,Green,A,2.916666666666667,3.233333333333333,ScrollDown,ScrollUp,Green.png,5,Negative,Incongruent,,,,,0,0,0,0,,,,,,,,,,,,,,,,,,,,,,,,,,,,,0,13,13,13,,,,,,,,,,,,,,,,,,,,,,,,,,,,,,,,,,,,,,,,,,,,,,,,,,,,,,,,,,,,,,,,,1,0.8442476000636816,615.3664255000185,None,ScrollDown,정답입니다,615.3664255000185,None,615.3664255000185,None,615.3664255000185,None,615.3664255000185,None,616.1184980999678,None,616.1184980999678,616.620640499983,,,,,,,,,,,,,,,,010,2022-05-10_19h58.46.887,FishGame,2022.1.1,59.28697923870682,
,15,넌 신경질적이야,5,Orange,B,2.375,2.233333333333333,ScrollUp,ScrollDown,Orange.png,5,Negative,Congruent,,,,,0,0,0,0,,,,,,,,,,,,,,,,,,,,,,,,,,,,,0,14,14,14,,,,,,,,,,,,,,,,,,,,,,,,,,,,,,,,,,,,,,,,,,,,,,,,,,,,,,,,,,,,,,,,,2,0.8633303998503834,617.2517291998956,None,ScrollUp,정답입니다,617.2517291998956,None,617.2517291998956,None,617.2517291998956,None,617.2517291998956,None,618.0039152998943,None,618.0039152998943,618.5039965999313,,,,,,,,,,,,,,,,010,2022-05-10_19h58.46.887,FishGame,2022.1.1,59.28697923870682,
,16,넌 똑똑해,2,Orange,B,5.666666666666667,3.966666666666667,ScrollUp,ScrollDown,Orange.png,5,Positive,Incongruent,,,,,0,0,0,0,,,,,,,,,,,,,,,,,,,,,,,,,,,,,0,15,15,15,,,,,,,,,,,,,,,,,,,,,,,,,,,,,,,,,,,,,,,,,,,,,,,,,,,,,,,,,,,,,,,,,2,0.8275697000790387,619.1320838998072,None,ScrollUp,정답입니다,619.1320838998072,None,619.1320838998072,None,619.1320838998072,None,619.1320838998072,None,619.8539992999285,None,619.8539992999285,620.353950599907,,,,,,,,,,,,,,,,010,2022-05-10_19h58.46.887,FishGame,2022.1.1,59.28697923870682,
,17,나를 보내줘,6,Green,A,0,0,ScrollUp,ScrollDown,Green.png,5,NonTarget,NonTarget,,,,,0,0,0,0,,,,,,,,,,,,,,,,,,,,,,,,,,,,,0,16,16,16,,,,,,,,,,,,,,,,,,,,,,,,,,,,,,,,,,,,,,,,,,,,,,,,,,,,,,,,,,,,,,,,,2,0.9779958999715745,620.9774103998207,None,ScrollUp,정답입니다,620.9774103998207,None,620.9774103998207,None,620.9774103998207,None,620.9774103998207,None,621.8515004999936,None,621.8515004999936,622.3514882999007,,,,,,,,,,,,,,,,010,2022-05-10_19h58.46.887,FishGame,2022.1.1,59.28697923870682,
,18,넌 협조적이야,1,Green,A,5.625,5.666666666666667,ScrollDown,ScrollUp,Green.png,5,Positive,Congruent,,,,,0,0,0,0,,,,,,,,,,,,,,,,,,,,,,,,,,,,,0,17,17,17,,,,,,,,,,,,,,,,,,,,,,,,,,,,,,,,,,,,,,,,,,,,,,,,,,,,,,,,,,,,,,,,,1,0.828601999906823,622.9747776000295,None,ScrollDown,정답입니다,622.9747776000295,None,622.9747776000295,None,622.9747776000295,None,622.9747776000295,None,623.7017460998613,None,623.7017460998613,624.2040275000036,,,,,,,,,,,,,,,,010,2022-05-10_19h58.46.887,FishGame,2022.1.1,59.28697923870682,
,19,나를 데려가줘,6,Orange,B,0,0,ScrollDown,ScrollUp,Orange.png,5,NonTarget,NonTarget,,,,,0,0,0,0,,,,,,,,,,,,,,,,,,,,,,,,,,,,,0,18,18,18,,,,,,,,,,,,,,,,,,,,,,,,,,,,,,,,,,,,,,,,,,,,,,,,,,,,,,,,,,,,,,,,,1.080246905485789,0.9465294999536127,624.8197552999482,None,ScrollDown,정답입니다,624.8197552999482,None,624.8197552999482,None,624.8197552999482,None,624.8197552999482,None,625.6684069999028,None,625.6684069999028,626.1706006999593,,,,,,,,,,,,,,,,010,2022-05-10_19h58.46.887,FishGame,2022.1.1,59.28697923870682,
,20,넌 몰인정해,5,Orange,B,2.541666666666667,2.066666666666667,ScrollUp,ScrollDown,Orange.png,5,Negative,Congruent,,,,,0,0,0,0,,,,,,,,,,,,,,,,,,,,,,,,,,,,,0,19,19,19,,,,,,,,,,,,,,,,,,,,,,,,,,,,,,,,,,,,,,,,,,,,,,,,,,,,,,,,,,,,,,,,,1.919753094514211,0.8615143999923021,626.7905852999538,None,ScrollUp,정답입니다,626.7905852999538,None,626.7905852999538,None,626.7905852999538,None,626.7905852999538,None,627.5538097999524,None,627.5538097999524,628.0516333000269,,,,,,,,,,,,,,,,010,2022-05-10_19h58.46.887,FishGame,2022.1.1,59.28697923870682,
,21,나를 데려가줘,6,Orange,B,0,0,ScrollDown,ScrollUp,Orange.png,5,NonTarget,NonTarget,,,,,0,0,0,0,,,,,,,,,,,,,,,,,,,,,,,,,,,,,0,20,20,20,,,,,,,,,,,,,,,,,,,,,,,,,,,,,,,,,,,,,,,,,,,,,,,,,,,,,,,,,,,,,,,,,1.0524691541989644,0.9762166999280453,628.6971944000106,None,ScrollDown,정답입니다,628.6971944000106,None,628.6971944000106,None,628.6971944000106,None,628.6971944000106,None,629.5681737998966,None,629.5681737998966,630.07034570002,,,,,,,,,,,,,,,,010,2022-05-10_19h58.46.887,FishGame,2022.1.1,59.28697923870682,
,22,넌 순진해,3,Orange,B,4.125,4.166666666666667,ScrollUp,ScrollDown,Orange.png,5,Neutral,Neutral,,,,,0,0,0,0,,,,,,,,,,,,,,,,,,,,,,,,,,,,,0,21,21,21,,,,,,,,,,,,,,,,,,,,,,,,,,,,,,,,,,,,,,,,,,,,,,,,,,,,,,,,,,,,,,,,,2,0.829406299861148,630.6897286998574,None,ScrollUp,정답입니다,630.6897286998574,None,630.6897286998574,None,630.6897286998574,None,630.6897286998574,None,631.4181888999883,None,631.4181888999883,631.9235192998312,,,,,,,,,,,,,,,,010,2022-05-10_19h58.46.887,FishGame,2022.1.1,59.28697923870682,
,23,넌 신뢰할만해,1,Green,A,6.625,5.533333333333333,ScrollDown,ScrollUp,Green.png,5,Positive,Congruent,,,,,0,0,0,0,,,,,,,,,,,,,,,,,,,,,,,,,,,,,0,22,22,22,,,,,,,,,,,,,,,,,,,,,,,,,,,,,,,,,,,,,,,,,,,,,,,,,,,,,,,,,,,,,,,,,1.0324074228604634,0.7950118000153452,632.5450494999532,None,ScrollDown,정답입니다,632.5450494999532,None,632.5450494999532,None,632.5450494999532,None,632.5450494999532,None,633.2347500999458,None,633.2347500999458,633.7347847998608,,,,,,,,,,,,,,,,010,2022-05-10_19h58.46.887,FishGame,2022.1.1,59.28697923870682,
,24,나를 보내줘,6,Green,A,0,0,ScrollUp,ScrollDown,Green.png,5,NonTarget,NonTarget,,,,,0,0,0,0,,,,,,,,,,,,,,,,,,,,,,,,,,,,,0,23,23,23,,,,,,,,,,,,,,,,,,,,,,,,,,,,,,,,,,,,,,,,,,,,,,,,,,,,,,,,,,,,,,,,,1.8472222139437993,0.9945033001713455,634.3550892998464,None,ScrollUp,정답입니다,634.3550892998464,None,634.3550892998464,None,634.3550892998464,None,634.3550892998464,None,635.2535655000247,None,635.2535655000247,635.7536100998987,,,,,,,,,,,,,,,,010,2022-05-10_19h58.46.887,FishGame,2022.1.1,59.28697923870682,
