name,TrialNum,Word,WordCategory,FishType,WordList,WordValence,WordReputation,CorrectResp,IncorrectResp,FishTypeFile,Round,WordType,Condition,LoopforOrange.thisRepN,LoopforOrange.thisTrialN,LoopforOrange.thisN,LoopforOrange.thisIndex,OrangeInstLoop.thisRepN,OrangeInstLoop.thisTrialN,OrangeInstLoop.thisN,OrangeInstLoop.thisIndex,OrangePrac.thisRepN,OrangePrac.thisTrialN,OrangePrac.thisN,OrangePrac.thisIndex,temp1.thisRepN,temp1.thisTrialN,temp1.thisN,temp1.thisIndex,OrangeRound1.thisRepN,OrangeRound1.thisTrialN,OrangeRound1.thisN,OrangeRound1.thisIndex,OrangeRound2.thisRepN,OrangeRound2.thisTrialN,OrangeRound2.thisN,OrangeRound2.thisIndex,OrangeRound3.thisRepN,OrangeRound3.thisTrialN,OrangeRound3.thisN,OrangeRound3.thisIndex,OrangeRound4.thisRepN,OrangeRound4.thisTrialN,OrangeRound4.thisN,OrangeRound4.thisIndex,OrangeRound5.thisRepN,OrangeRound5.thisTrialN,OrangeRound5.thisN,OrangeRound5.thisIndex,LoopForGreen.thisRepN,LoopForGreen.thisTrialN,LoopForGreen.thisN,LoopForGreen.thisIndex,text_2.started,text_2.stopped,text_3.started,text_3.stopped,key_resp.keys,key_resp.rt,key_resp.started,key_resp.stopped,PassI_2.started,PassI_2.stopped,PassInst_2.keys,PassInst_2.rt,PassInst_2.started,PassInst_2.stopped,mouse_2.x,mouse_2.y,mouse_2.leftButton,mouse_2.midButton,mouse_2.rightButton,mouse_2.started,mouse_2.stopped,image.started,image.stopped,text_5.started,text_5.stopped,text_6.started,text_6.stopped,text_7.started,text_7.stopped,text_8.started,text_8.stopped,slider_2.response,slider_2.rt,slider_2.started,slider_2.stopped,Response_2,Feedback_2,BackGround_2.started,BackGround_2.stopped,Fish_2.started,Fish_2.stopped,WordBox_2.started,WordBox_2.stopped,Words_2.started,Words_2.stopped,BackGround_Feedback_2.started,BackGround_Feedback_2.stopped,Feedbacks_2.started,Feedbacks_2.stopped,Continue_or_not.keys,Continue_or_not.rt,Continue_or_not.started,Continue_or_not.stopped,image_3.started,image_3.stopped,mouse_3.x,mouse_3.y,mouse_3.leftButton,mouse_3.midButton,mouse_3.rightButton,mouse_3.started,mouse_3.stopped,startmain.started,startmain.stopped,slider.response,slider.rt,slider.started,slider.stopped,Response,Feedback,BackGround.started,BackGround.stopped,Fish.started,Fish.stopped,WordBox.started,WordBox.stopped,Words.started,Words.stopped,BackGround_Feedback.started,BackGround_Feedback.stopped,Feedbacks.started,Feedbacks.stopped,text.started,text.stopped,break_interval.started,break_interval.stopped,mouse.x,mouse.y,mouse.leftButton,mouse.midButton,mouse.rightButton,mouse.started,mouse.stopped,stratnextround.started,stratnextround.stopped,endgame.started,endgame.stopped,participant,date,expName,psychopyVersion,frameRate,
,,,,,,,,,,,,,,,,,,,,,,,,,,,,,,,,,,,,,,,,,,,,,,,,,,,,,,21.320371200097725,None,21.320371200097725,None,space,5.2667272998951375,21.808812100207433,None,,,,,,,,,,,,,,,,,,,,,,,,,,,,,,,,,,,,,,,,,,,,,,,,,,,,,,,,,,,,,,,,,,,,,,,,,,,,,,,,,,,,,,,,,,011,2022-05-11_14h13.25.424,FishGame,2022.1.1,59.8117603591976,
물고기과제_instruction(참가자용)OrangeVersion.mp4,,,,,,,,,,,,,,0,0,0,0,0,0,0,0,,,,,,,,,,,,,,,,,,,,,,,,,,,,,,,,,,,,,,,,,107.17364460020326,None,n,2.262103999732062,107.17364460020326,None,,,,,,,,,,,,,,,,,,,,,,,,,,,,,,,,,,,,,,,,,,,,,,,,,,,,,,,,,,,,,,,,,,,,,,,,,,,,,,,,,,,,011,2022-05-11_14h13.25.424,FishGame,2022.1.1,59.8117603591976,
,1,넌 교활해,5,Green,B,2.333333333333333,2.133333333333333,ScrollUp,ScrollDown,Green.png,practice,,,0,0,0,0,,,,,0,0,0,0,0,0,0,0,,,,,,,,,,,,,,,,,,,,,,,,,,,,,,,,,,,,,,,0.6342593,-0.08981481,1,0,0,0.5088346798438579,None,109.4680274000857,None,112.6516256001778,114.15365660004318,114.18471270008013,115.13451050012372,115.1901116000954,116.15362260001712,116.13459420017898,None,1.7484567960103354,1.3483780000824481,117.43826680001803,None,ScrollUp,정답입니다,117.43826680001803,None,117.43826680001803,None,117.43826680001803,None,117.43826680001803,None,118.48500650003552,None,118.48500650003552,118.98453450016677,,,,,,,,,,,,,,,,,,,,,,,,,,,,,,,,,,,,,,,,,,,,,,,,,011,2022-05-11_14h13.25.424,FishGame,2022.1.1,59.8117603591976,
,2,넌 슬기로워,2,Orange,A,6.166666666666667,4.1,ScrollDown,ScrollUp,Orange.png,practice,,,0,0,0,0,,,,,0,0,0,0,0,1,1,1,,,,,,,,,,,,,,,,,,,,,,,,,,,,,,,,,,,,,,,,,,,,,,,,,,,,,,,,1.253086417913437,0.7105545001104474,119.616100900108,None,ScrollDown,정답입니다,119.616100900108,None,119.616100900108,None,119.616100900108,None,119.616100900108,None,120.21784130018204,None,120.21784130018204,120.72004760010168,,,,,,,,,,,,,,,,,,,,,,,,,,,,,,,,,,,,,,,,,,,,,,,,,011,2022-05-11_14h13.25.424,FishGame,2022.1.1,59.8117603591976,
,3,나를 보내줘,6,Orange,A,0,0,ScrollUp,ScrollDown,Orange.png,practice,,,0,0,0,0,,,,,0,0,0,0,0,2,2,2,,,,,,,,,,,,,,,,,,,,,,,,,,,,,,,,,,,,,,,,,,,,,,,,,,,,,,,,1.817901223897934,1.4431785000488162,121.34230420016684,None,ScrollUp,정답입니다,121.34230420016684,None,121.34230420016684,None,121.34230420016684,None,121.34230420016684,None,122.6844445001334,None,122.6844445001334,123.18447410012595,,,,,,,,,,,,,,,,,,,,,,,,,,,,,,,,,,,,,,,,,,,,,,,,,011,2022-05-11_14h13.25.424,FishGame,2022.1.1,59.8117603591976,
,4,나를 데려가줘,6,Green,B,0,0,ScrollDown,ScrollUp,Green.png,practice,,,0,0,0,0,,,,,0,0,0,0,0,3,3,3,,,,,,,,,,,,,,,,,,,,,,,,,,,,,,,,,,,,,,,,,,,,,,,,,,,,,,,,1.1064814925193787,0.9094269999768585,123.81322130002081,None,ScrollDown,정답입니다,123.81322130002081,None,123.81322130002081,None,123.81322130002081,None,123.81322130002081,None,124.61760990018956,None,124.61760990018956,125.12312080012634,,,,,,,,,,,,,,,,,,,,,,,,,,,,,,,,,,,,,,,,,,,,,,,,,011,2022-05-11_14h13.25.424,FishGame,2022.1.1,59.8117603591976,
,1,넌 교활해,5,Green,B,2.333333333333333,2.133333333333333,ScrollUp,ScrollDown,Green.png,practice,,,0,0,0,0,,,,,0,0,0,0,,,,,,,,,,,,,,,,,,,,,,,,,,,,,,,,,,,,,,,,,,,,,,,,,,,,,,,,,,,,,,,,,,,,,,,,,,,,,,n,3.4046740997582674,125.61984300008044,None,125.61984300008044,None,,,,,,,,,,,,,,,,,,,,,,,,,,,,,,,,,,,,,,,,,,,011,2022-05-11_14h13.25.424,FishGame,2022.1.1,59.8117603591976,
,1,넌 따뜻해,1,Green,B,6.083333333333333,5.6,ScrollUp,ScrollDown,Green.png,1,Positive,Incongruent,0,0,0,0,,,,,,,,,,,,,0,0,0,0,,,,,,,,,,,,,,,,,,,,,,,,,,,,,,,,,,,,,,,,,,,,130.61767980013974,132.1230244000908,132.1397275000345,133.10326530016027,133.15088760014623,134.10339680011384,134.10339680011384,None,,,,,,,,,,,,,,,,,,,,,,,,,0.74444443,-0.16203703,1,0,0,0.31140568014234304,None,129.05323299998417,None,1.8703703731298447,1.356134400004521,135.41126299998723,None,ScrollUp,정답입니다,135.41126299998723,None,135.41126299998723,None,135.41126299998723,None,135.41126299998723,None,136.4675221000798,None,136.4675221000798,136.96960050007328,,,,,,,,,,,,,,,,011,2022-05-11_14h13.25.424,FishGame,2022.1.1,59.8117603591976,
,2,넌 기품있어,2,Green,B,5.791666666666668,4.5,ScrollUp,ScrollDown,Green.png,1,Positive,Incongruent,0,0,0,0,,,,,,,,,,,,,0,1,1,1,,,,,,,,,,,,,,,,,,,,,,,,,,,,,,,,,,,,,,,,,,,,,,,,,,,,,,,,,,,,,,,,,,,,,,,,,,,,,,,,,,,,,1.785493830839793,0.875610199989751,137.5992317001801,None,ScrollUp,정답입니다,137.5992317001801,None,137.5992317001801,None,137.5992317001801,None,137.5992317001801,None,138.367392500164,None,138.367392500164,138.86747000017203,,,,,,,,,,,,,,,,011,2022-05-11_14h13.25.424,FishGame,2022.1.1,59.8117603591976,
,3,나를 보내줘,6,Orange,A,0,0,ScrollUp,ScrollDown,Orange.png,1,NonTarget,NonTarget,0,0,0,0,,,,,,,,,,,,,0,2,2,2,,,,,,,,,,,,,,,,,,,,,,,,,,,,,,,,,,,,,,,,,,,,,,,,,,,,,,,,,,,,,,,,,,,,,,,,,,,,,,,,,,,,,1,0.8141580000519753,139.49711020011455,None,ScrollDown,오답입니다,139.49711020011455,None,139.49711020011455,None,139.49711020011455,None,139.49711020011455,None,140.20075630000792,None,140.20075630000792,140.70295469998382,,,,,,,,,,,,,,,,011,2022-05-11_14h13.25.424,FishGame,2022.1.1,59.8117603591976,
,4,넌 수동적이야,4,Orange,A,2.833333333333333,2.933333333333333,ScrollDown,ScrollUp,Orange.png,1,Negative,Incongruent,0,0,0,0,,,,,,,,,,,,,0,3,3,3,,,,,,,,,,,,,,,,,,,,,,,,,,,,,,,,,,,,,,,,,,,,,,,,,,,,,,,,,,,,,,,,,,,,,,,,,,,,,,,,,,,,,1.0447530845801036,1.1106889999937266,141.33091660006903,None,ScrollDown,정답입니다,141.33091660006903,None,141.33091660006903,None,141.33091660006903,None,141.33091660006903,None,142.33613610011525,None,142.33613610011525,142.85069370013662,,,,,,,,,,,,,,,,011,2022-05-11_14h13.25.424,FishGame,2022.1.1,59.8117603591976,
,5,넌 사심이 없어,3,Green,B,4.916666666666666,4.333333333333333,ScrollUp,ScrollDown,Green.png,1,Neutral,Neutral,0,0,0,0,,,,,,,,,,,,,0,4,4,4,,,,,,,,,,,,,,,,,,,,,,,,,,,,,,,,,,,,,,,,,,,,,,,,,,,,,,,,,,,,,,,,,,,,,,,,,,,,,,,,,,,,,1.8024691343307495,2.1426104998681694,143.47142640012316,None,ScrollUp,정답입니다,143.47142640012316,None,143.47142640012316,None,143.47142640012316,None,143.47142640012316,None,145.50062340009026,None,145.50062340009026,146.00066380016506,,,,,,,,,,,,,,,,011,2022-05-11_14h13.25.424,FishGame,2022.1.1,59.8117603591976,
,6,넌 헤퍼,5,Orange,A,2.458333333333334,2.233333333333333,ScrollDown,ScrollUp,Orange.png,1,Negative,Incongruent,0,0,0,0,,,,,,,,,,,,,0,5,5,5,,,,,,,,,,,,,,,,,,,,,,,,,,,,,,,,,,,,,,,,,,,,,,,,,,,,,,,,,,,,,,,,,,,,,,,,,,,,,,,,,,,,,1.0632716019948323,1.7090543999802321,146.64219800010324,None,ScrollDown,정답입니다,146.64219800010324,None,146.64219800010324,None,146.64219800010324,None,146.64219800010324,None,148.23360770009458,None,148.23360770009458,148.73373920004815,,,,,,,,,,,,,,,,011,2022-05-11_14h13.25.424,FishGame,2022.1.1,59.8117603591976,
,7,넌 말쑥해,3,Orange,A,4.833333333333334,4.333333333333333,ScrollDown,ScrollUp,Orange.png,1,Neutral,Neutral,0,0,0,0,,,,,,,,,,,,,0,6,6,6,,,,,,,,,,,,,,,,,,,,,,,,,,,,,,,,,,,,,,,,,,,,,,,,,,,,,,,,,,,,,,,,,,,,,,,,,,,,,,,,,,,,,1.0586419602235158,1.2452616000082344,149.36120330006815,None,ScrollDown,정답입니다,149.36120330006815,None,149.36120330006815,None,149.36120330006815,None,149.36120330006815,None,150.50279940012842,None,150.50279940012842,151.00279360008426,,,,,,,,,,,,,,,,011,2022-05-11_14h13.25.424,FishGame,2022.1.1,59.8117603591976,
,8,넌 투덜거려,5,Green,B,2.541666666666667,2.266666666666667,ScrollUp,ScrollDown,Green.png,1,Negative,Congruent,0,0,0,0,,,,,,,,,,,,,0,7,7,7,,,,,,,,,,,,,,,,,,,,,,,,,,,,,,,,,,,,,,,,,,,,,,,,,,,,,,,,,,,,,,,,,,,,,,,,,,,,,,,,,,,,,1.7716049303611119,0.760641299886629,151.6283368000295,None,ScrollUp,정답입니다,151.6283368000295,None,151.6283368000295,None,151.6283368000295,None,151.6283368000295,None,152.2838034001179,None,152.2838034001179,152.78384110005572,,,,,,,,,,,,,,,,011,2022-05-11_14h13.25.424,FishGame,2022.1.1,59.8117603591976,
,9,넌 적극적이야,1,Orange,A,5.708333333333333,5.533333333333333,ScrollDown,ScrollUp,Orange.png,1,Positive,Congruent,0,0,0,0,,,,,,,,,,,,,0,8,8,8,,,,,,,,,,,,,,,,,,,,,,,,,,,,,,,,,,,,,,,,,,,,,,,,,,,,,,,,,,,,,,,,,,,,,,,,,,,,,,,,,,,,,1.2577160596847534,1.0760671999305487,153.41190050006844,None,ScrollDown,정답입니다,153.41190050006844,None,153.41190050006844,None,153.41190050006844,None,153.41190050006844,None,154.38597679999657,None,154.38597679999657,154.90621890011244,,,,,,,,,,,,,,,,011,2022-05-11_14h13.25.424,FishGame,2022.1.1,59.8117603591976,
,10,넌 재미없어,4,Green,B,2.625,2.966666666666667,ScrollUp,ScrollDown,Green.png,1,Negative,Congruent,0,0,0,0,,,,,,,,,,,,,0,9,9,9,,,,,,,,,,,,,,,,,,,,,,,,,,,,,,,,,,,,,,,,,,,,,,,,,,,,,,,,,,,,,,,,,,,,,,,,,,,,,,,,,,,,,1.733024681607882,0.9604001000989228,155.51033350010403,None,ScrollUp,정답입니다,155.51033350010403,None,155.51033350010403,None,155.51033350010403,None,155.51033350010403,None,156.3670177999884,None,156.3670177999884,156.86923400009982,,,,,,,,,,,,,,,,011,2022-05-11_14h13.25.424,FishGame,2022.1.1,59.8117603591976,
,11,넌 명석해,2,Orange,A,5.875,4.033333333333333,ScrollDown,ScrollUp,Orange.png,1,Positive,Congruent,0,0,0,0,,,,,,,,,,,,,0,10,10,10,,,,,,,,,,,,,,,,,,,,,,,,,,,,,,,,,,,,,,,,,,,,,,,,,,,,,,,,,,,,,,,,,,,,,,,,,,,,,,,,,,,,,1.2700617214043937,0.8984230000060052,157.4880502000451,None,ScrollDown,정답입니다,157.4880502000451,None,157.4880502000451,None,157.4880502000451,None,157.4880502000451,None,158.28367730020545,None,158.28367730020545,158.78372399997897,,,,,,,,,,,,,,,,011,2022-05-11_14h13.25.424,FishGame,2022.1.1,59.8117603591976,
,12,나를 데려가줘,6,Green,B,0,0,ScrollDown,ScrollUp,Green.png,1,NonTarget,NonTarget,0,0,0,0,,,,,,,,,,,,,0,11,11,11,,,,,,,,,,,,,,,,,,,,,,,,,,,,,,,,,,,,,,,,,,,,,,,,,,,,,,,,,,,,,,,,,,,,,,,,,,,,,,,,,,,,,1.3179012288649878,1.2922773999162018,159.4111864999868,None,ScrollDown,정답입니다,159.4111864999868,None,159.4111864999868,None,159.4111864999868,None,159.4111864999868,None,160.60024930001236,None,160.60024930001236,161.1005915000569,,,,,,,,,,,,,,,,011,2022-05-11_14h13.25.424,FishGame,2022.1.1,59.8117603591976,
,13,넌 소심해,4,Orange,A,3,3.1,ScrollDown,ScrollUp,Orange.png,1,Negative,Incongruent,0,0,0,0,,,,,,,,,,,,,0,12,12,12,,,,,,,,,,,,,,,,,,,,,,,,,,,,,,,,,,,,,,,,,,,,,,,,,,,,,,,,,,,,,,,,,,,,,,,,,,,,,,,,,,,,,1,1.1441790000535548,161.72787760011852,None,ScrollDown,정답입니다,161.72787760011852,None,161.72787760011852,None,161.72787760011852,None,161.72787760011852,None,162.7669290001504,None,162.7669290001504,163.26696830010042,,,,,,,,,,,,,,,,011,2022-05-11_14h13.25.424,FishGame,2022.1.1,59.8117603591976,
,14,넌 합리적이야,2,Orange,A,5.583333333333333,4.733333333333333,ScrollDown,ScrollUp,Orange.png,1,Positive,Congruent,0,0,0,0,,,,,,,,,,,,,0,13,13,13,,,,,,,,,,,,,,,,,,,,,,,,,,,,,,,,,,,,,,,,,,,,,,,,,,,,,,,,,,,,,,,,,,,,,,,,,,,,,,,,,,,,,1.2222222139437993,0.8436407998669893,163.905642000027,None,ScrollDown,정답입니다,163.905642000027,None,163.905642000027,None,163.905642000027,None,163.905642000027,None,164.63349020015448,None,164.63349020015448,165.1335683001671,,,,,,,,,,,,,,,,011,2022-05-11_14h13.25.424,FishGame,2022.1.1,59.8117603591976,
,15,넌 무자비해,5,Green,B,2.333333333333333,2.1,ScrollUp,ScrollDown,Green.png,1,Negative,Congruent,0,0,0,0,,,,,,,,,,,,,0,14,14,14,,,,,,,,,,,,,,,,,,,,,,,,,,,,,,,,,,,,,,,,,,,,,,,,,,,,,,,,,,,,,,,,,,,,,,,,,,,,,,,,,,,,,1.6959876591960588,1.02794299996458,165.75935570010915,None,ScrollUp,정답입니다,165.75935570010915,None,165.75935570010915,None,165.75935570010915,None,165.75935570010915,None,166.6834776001051,None,166.6834776001051,167.1856913000811,,,,,,,,,,,,,,,,011,2022-05-11_14h13.25.424,FishGame,2022.1.1,59.8117603591976,
,16,나를 보내줘,6,Orange,A,0,0,ScrollUp,ScrollDown,Orange.png,1,NonTarget,NonTarget,0,0,0,0,,,,,,,,,,,,,0,15,15,15,,,,,,,,,,,,,,,,,,,,,,,,,,,,,,,,,,,,,,,,,,,,,,,,,,,,,,,,,,,,,,,,,,,,,,,,,,,,,,,,,,,,,1.7160493781169257,0.9944294998422265,167.80985880014487,None,ScrollUp,정답입니다,167.80985880014487,None,167.80985880014487,None,167.80985880014487,None,167.80985880014487,None,168.70013530016877,None,168.70013530016877,169.20236940006725,,,,,,,,,,,,,,,,011,2022-05-11_14h13.25.424,FishGame,2022.1.1,59.8117603591976,
,17,넌 현실적이야,3,Green,B,4.608695652173913,4.766666666666667,ScrollUp,ScrollDown,Green.png,1,Neutral,Neutral,0,0,0,0,,,,,,,,,,,,,0,16,16,16,,,,,,,,,,,,,,,,,,,,,,,,,,,,,,,,,,,,,,,,,,,,,,,,,,,,,,,,,,,,,,,,,,,,,,,,,,,,,,,,,,,,,1.799382706483205,1.9295847001485527,169.8304052001331,None,ScrollUp,정답입니다,169.8304052001331,None,169.8304052001331,None,169.8304052001331,None,169.8304052001331,None,171.65002850000747,None,171.65002850000747,172.15224490012042,,,,,,,,,,,,,,,,011,2022-05-11_14h13.25.424,FishGame,2022.1.1,59.8117603591976,
,18,넌 의리있어,1,Green,B,5.833333333333334,5.633333333333334,ScrollUp,ScrollDown,Green.png,1,Positive,Incongruent,0,0,0,0,,,,,,,,,,,,,0,17,17,17,,,,,,,,,,,,,,,,,,,,,,,,,,,,,,,,,,,,,,,,,,,,,,,,,,,,,,,,,,,,,,,,,,,,,,,,,,,,,,,,,,,,,1.7206790198882422,0.8258974000345916,172.7759042000398,None,ScrollUp,정답입니다,172.7759042000398,None,172.7759042000398,None,172.7759042000398,None,172.7759042000398,None,173.500032100128,None,173.500032100128,174.002225600183,,,,,,,,,,,,,,,,011,2022-05-11_14h13.25.424,FishGame,2022.1.1,59.8117603591976,
,19,넌 신경과민이야,5,Orange,A,2.541666666666667,2.166666666666667,ScrollDown,ScrollUp,Orange.png,1,Negative,Incongruent,0,0,0,0,,,,,,,,,,,,,0,18,18,18,,,,,,,,,,,,,,,,,,,,,,,,,,,,,,,,,,,,,,,,,,,,,,,,,,,,,,,,,,,,,,,,,,,,,,,,,,,,,,,,,,,,,1.2854938358068466,0.9429203998297453,174.63572979997844,None,ScrollDown,정답입니다,174.63572979997844,None,174.63572979997844,None,174.63572979997844,None,174.63572979997844,None,175.46635070000775,None,175.46635070000775,175.9664267001208,,,,,,,,,,,,,,,,011,2022-05-11_14h13.25.424,FishGame,2022.1.1,59.8117603591976,
,20,넌 편안해,1,Orange,A,5.916666666666666,5.866666666666666,ScrollDown,ScrollUp,Orange.png,1,Positive,Congruent,0,0,0,0,,,,,,,,,,,,,0,19,19,19,,,,,,,,,,,,,,,,,,,,,,,,,,,,,,,,,,,,,,,,,,,,,,,,,,,,,,,,,,,,,,,,,,,,,,,,,,,,,,,,,,,,,1.300925925374031,0.8793087000958622,176.5886185001582,None,ScrollDown,정답입니다,176.5886185001582,None,176.5886185001582,None,176.5886185001582,None,176.5886185001582,None,177.36633870005608,None,177.36633870005608,177.866448600078,,,,,,,,,,,,,,,,011,2022-05-11_14h13.25.424,FishGame,2022.1.1,59.8117603591976,
,21,넌 품위있어,2,Green,B,5.291666666666666,4.466666666666667,ScrollUp,ScrollDown,Green.png,1,Positive,Incongruent,0,0,0,0,,,,,,,,,,,,,0,20,20,20,,,,,,,,,,,,,,,,,,,,,,,,,,,,,,,,,,,,,,,,,,,,,,,,,,,,,,,,,,,,,,,,,,,,,,,,,,,,,,,,,,,,,1.5432098750025034,0.8282794000115246,178.49626470007934,None,NoResponse,무응답입니다,178.49626470007934,None,178.49626470007934,None,178.49626470007934,None,178.49626470007934,None,179.21666790009476,None,179.21666790009476,179.71889190003276,,,,,,,,,,,,,,,,011,2022-05-11_14h13.25.424,FishGame,2022.1.1,59.8117603591976,
,22,넌 빈틈없어,3,Orange,A,4.833333333333333,3.966666666666667,ScrollDown,ScrollUp,Orange.png,1,Neutral,Neutral,0,0,0,0,,,,,,,,,,,,,0,21,21,21,,,,,,,,,,,,,,,,,,,,,,,,,,,,,,,,,,,,,,,,,,,,,,,,,,,,,,,,,,,,,,,,,,,,,,,,,,,,,,,,,,,,,1.1651234477758408,3.4615424999501556,180.34383040014654,None,ScrollDown,정답입니다,180.34383040014654,None,180.34383040014654,None,180.34383040014654,None,180.34383040014654,None,183.69982010009699,None,183.69982010009699,184.19981820019893,,,,,,,,,,,,,,,,011,2022-05-11_14h13.25.424,FishGame,2022.1.1,59.8117603591976,
,23,넌 상상력없어,4,Green,B,2.833333333333333,3.133333333333333,ScrollUp,ScrollDown,Green.png,1,Negative,Congruent,0,0,0,0,,,,,,,,,,,,,0,22,22,22,,,,,,,,,,,,,,,,,,,,,,,,,,,,,,,,,,,,,,,,,,,,,,,,,,,,,,,,,,,,,,,,,,,,,,,,,,,,,,,,,,,,,2,1.0428559998981655,184.8296986001078,None,ScrollUp,정답입니다,184.8296986001078,None,184.8296986001078,None,184.8296986001078,None,184.8296986001078,None,185.76639740006067,None,185.76639740006067,186.26649469998665,,,,,,,,,,,,,,,,011,2022-05-11_14h13.25.424,FishGame,2022.1.1,59.8117603591976,
,24,넌 지혜로워,2,Green,B,6.333333333333334,4.633333333333334,ScrollUp,ScrollDown,Green.png,1,Positive,Incongruent,0,0,0,0,,,,,,,,,,,,,0,23,23,23,,,,,,,,,,,,,,,,,,,,,,,,,,,,,,,,,,,,,,,,,,,,,,,,,,,,,,,,,,,,,,,,,,,,,,,,,,,,,,,,,,,,,1.9182098805904388,0.7782980999909341,186.90081610018387,None,ScrollUp,정답입니다,186.90081610018387,None,186.90081610018387,None,186.90081610018387,None,186.90081610018387,None,187.57171470019966,None,187.57171470019966,188.08305030013435,,,,,,,,,,,,,,,,011,2022-05-11_14h13.25.424,FishGame,2022.1.1,59.8117603591976,
,25,넌 시끄러워,4,Orange,A,2.833333333333333,3.033333333333333,ScrollDown,ScrollUp,Orange.png,1,Negative,Incongruent,0,0,0,0,,,,,,,,,,,,,0,24,24,24,,,,,,,,,,,,,,,,,,,,,,,,,,,,,,,,,,,,,,,,,,,,,,,,,,,,,,,,,,,,,,,,,,,,,,,,,,,,,,,,,,,,,1.0416666567325592,0.8267466998659074,188.71145390020683,None,ScrollDown,정답입니다,188.71145390020683,None,188.71145390020683,None,188.71145390020683,None,188.71145390020683,None,189.432950100163,None,189.432950100163,189.93299760017544,,,,,,,,,,,,,,,,011,2022-05-11_14h13.25.424,FishGame,2022.1.1,59.8117603591976,
,26,넌 만사태평이야,3,Green,B,4,4.333333333333333,ScrollUp,ScrollDown,Green.png,1,Neutral,Neutral,0,0,0,0,,,,,,,,,,,,,0,25,25,25,,,,,,,,,,,,,,,,,,,,,,,,,,,,,,,,,,,,,,,,,,,,,,,,,,,,,,,,,,,,,,,,,,,,,,,,,,,,,,,,,,,,,1.8858024626970291,0.8093564999289811,190.5643150000833,None,ScrollUp,정답입니다,190.5643150000833,None,190.5643150000833,None,190.5643150000833,None,190.5643150000833,None,191.26848020008765,None,191.26848020008765,191.78514340007678,,,,,,,,,,,,,,,,011,2022-05-11_14h13.25.424,FishGame,2022.1.1,59.8117603591976,
,27,넌 붙임성있어,1,Orange,A,5.708333333333333,5.633333333333334,ScrollDown,ScrollUp,Orange.png,1,Positive,Congruent,0,0,0,0,,,,,,,,,,,,,0,26,26,26,,,,,,,,,,,,,,,,,,,,,,,,,,,,,,,,,,,,,,,,,,,,,,,,,,,,,,,,,,,,,,,,,,,,,,,,,,,,,,,,,,,,,1.0771604776382446,1.0586480000056326,192.39789360016584,None,ScrollDown,정답입니다,192.39789360016584,None,192.39789360016584,None,192.39789360016584,None,192.39789360016584,None,193.3492899001576,None,193.3492899001576,193.8494059999939,,,,,,,,,,,,,,,,011,2022-05-11_14h13.25.424,FishGame,2022.1.1,59.8117603591976,
,28,넌 영리해,2,Orange,A,6,4.033333333333333,ScrollDown,ScrollUp,Orange.png,1,Positive,Congruent,0,0,0,0,,,,,,,,,,,,,0,27,27,27,,,,,,,,,,,,,,,,,,,,,,,,,,,,,,,,,,,,,,,,,,,,,,,,,,,,,,,,,,,,,,,,,,,,,,,,,,,,,,,,,,,,,1.140432099501292,0.9284025998786092,194.47725210012868,None,ScrollDown,정답입니다,194.47725210012868,None,194.47725210012868,None,194.47725210012868,None,194.47725210012868,None,195.30182100017555,None,195.30182100017555,195.8185382001102,,,,,,,,,,,,,,,,011,2022-05-11_14h13.25.424,FishGame,2022.1.1,59.8117603591976,
,29,넌 열심이야,1,Green,B,6.041666666666667,5.833333333333333,ScrollUp,ScrollDown,Green.png,1,Positive,Incongruent,0,0,0,0,,,,,,,,,,,,,0,28,28,28,,,,,,,,,,,,,,,,,,,,,,,,,,,,,,,,,,,,,,,,,,,,,,,,,,,,,,,,,,,,,,,,,,,,,,,,,,,,,,,,,,,,,1.7608024577299755,0.8424120999407023,196.4278935000766,None,ScrollUp,정답입니다,196.4278935000766,None,196.4278935000766,None,196.4278935000766,None,196.4278935000766,None,197.16843870002776,None,197.16843870002776,197.67169400001876,,,,,,,,,,,,,,,,011,2022-05-11_14h13.25.424,FishGame,2022.1.1,59.8117603591976,
,30,넌 인기없어,4,Green,B,3,3.3,ScrollUp,ScrollDown,Green.png,1,Negative,Congruent,0,0,0,0,,,,,,,,,,,,,0,29,29,29,,,,,,,,,,,,,,,,,,,,,,,,,,,,,,,,,,,,,,,,,,,,,,,,,,,,,,,,,,,,,,,,,,,,,,,,,,,,,,,,,,,,,1.7546296268701553,0.7432838000822812,198.30656010005623,None,ScrollUp,정답입니다,198.30656010005623,None,198.30656010005623,None,198.30656010005623,None,198.30656010005623,None,198.95172450016253,None,198.95172450016253,199.45162250008434,,,,,,,,,,,,,,,,011,2022-05-11_14h13.25.424,FishGame,2022.1.1,59.8117603591976,
,31,넌 익살스러워,3,Orange,A,4.708333333333334,4.833333333333333,ScrollDown,ScrollUp,Orange.png,1,Neutral,Neutral,0,0,0,0,,,,,,,,,,,,,0,30,30,30,,,,,,,,,,,,,,,,,,,,,,,,,,,,,,,,,,,,,,,,,,,,,,,,,,,,,,,,,,,,,,,,,,,,,,,,,,,,,,,,,,,,,1.1790123482545216,0.8587539999280125,200.08660650020465,None,ScrollDown,정답입니다,200.08660650020465,None,200.08660650020465,None,200.08660650020465,None,200.08660650020465,None,200.83246450009756,None,200.83246450009756,201.33252630010247,,,,,,,,,,,,,,,,011,2022-05-11_14h13.25.424,FishGame,2022.1.1,59.8117603591976,
,32,넌 이기적이야,5,Green,B,2.291666666666667,2.333333333333333,ScrollUp,ScrollDown,Green.png,1,Negative,Congruent,0,0,0,0,,,,,,,,,,,,,0,31,31,31,,,,,,,,,,,,,,,,,,,,,,,,,,,,,,,,,,,,,,,,,,,,,,,,,,,,,,,,,,,,,,,,,,,,,,,,,,,,,,,,,,,,,1.9675925771395366,0.9780743999872357,201.95538310008124,None,ScrollUp,정답입니다,201.95538310008124,None,201.95538310008124,None,201.95538310008124,None,201.95538310008124,None,202.83505510003306,None,202.83505510003306,203.33546319999732,,,,,,,,,,,,,,,,011,2022-05-11_14h13.25.424,FishGame,2022.1.1,59.8117603591976,
,33,나를 데려가줘,6,Green,B,0,0,ScrollDown,ScrollUp,Green.png,1,NonTarget,NonTarget,0,0,0,0,,,,,,,,,,,,,0,32,32,32,,,,,,,,,,,,,,,,,,,,,,,,,,,,,,,,,,,,,,,,,,,,,,,,,,,,,,,,,,,,,,,,,,,,,,,,,,,,,,,,,,,,,1.1666666616996129,1.3085427000187337,203.9571472001262,None,ScrollDown,정답입니다,203.9571472001262,None,203.9571472001262,None,203.9571472001262,None,203.9571472001262,None,205.16570660006255,None,205.16570660006255,205.66578030004166,,,,,,,,,,,,,,,,011,2022-05-11_14h13.25.424,FishGame,2022.1.1,59.8117603591976,
,34,넌 기회주의자야,5,Orange,A,2.875,2.133333333333333,ScrollDown,ScrollUp,Orange.png,1,Negative,Incongruent,0,0,0,0,,,,,,,,,,,,,0,33,33,33,,,,,,,,,,,,,,,,,,,,,,,,,,,,,,,,,,,,,,,,,,,,,,,,,,,,,,,,,,,,,,,,,,,,,,,,,,,,,,,,,,,,,1.126543199022611,1.278997000074014,206.28833040012978,None,ScrollDown,정답입니다,206.28833040012978,None,206.28833040012978,None,206.28833040012978,None,206.28833040012978,None,207.46568270004354,None,207.46568270004354,207.9657607001718,,,,,,,,,,,,,,,,011,2022-05-11_14h13.25.424,FishGame,2022.1.1,59.8117603591976,
,1,넌 미성숙해,4,Orange,A,3,3.2,ScrollDown,ScrollUp,Orange.png,2,Negative,Incongruent,0,0,0,0,,,,,,,,,,,,,,,,,0,0,0,0,,,,,,,,,,,,,,,,,,,,,,,,,,,,,,,,,,,,,,,,242.7037729001604,244.215417600004,244.2342452001758,245.18422130006365,245.2341754999943,246.18419070006348,246.18419070006348,None,,,,,,,,,,,,,,,,,,,,,,,,,,,,,,,,,,1,1.3077138001099229,247.2931288999971,None,ScrollDown,정답입니다,247.2931288999971,None,247.2931288999971,None,247.2931288999971,None,247.2931288999971,None,248.49841460003518,None,248.49841460003518,249.00377440010197,208.46578540001065,None,208.46578540001065,None,0.15092592,-0.107407406,1,0,0,0.016321779927238822,None,238.47036670008674,None,,,011,2022-05-11_14h13.25.424,FishGame,2022.1.1,59.8117603591976,
,2,넌 반사회적이야,5,Green,B,2.416666666666667,2.033333333333333,ScrollUp,ScrollDown,Green.png,2,Negative,Congruent,0,0,0,0,,,,,,,,,,,,,,,,,0,1,1,1,,,,,,,,,,,,,,,,,,,,,,,,,,,,,,,,,,,,,,,,,,,,,,,,,,,,,,,,,,,,,,,,,,,,,,,,,,,,,,,,,1.9737654328346252,1.1781450000125915,249.62294510006905,None,ScrollUp,정답입니다,249.62294510006905,None,249.62294510006905,None,249.62294510006905,None,249.62294510006905,None,250.6982882001903,None,250.6982882001903,251.20056060003117,,,,,,,,,,,,,,,,011,2022-05-11_14h13.25.424,FishGame,2022.1.1,59.8117603591976,
,3,넌 유능해,2,Orange,A,6.208333333333333,4.433333333333334,ScrollDown,ScrollUp,Orange.png,2,Positive,Congruent,0,0,0,0,,,,,,,,,,,,,,,,,0,2,2,2,,,,,,,,,,,,,,,,,,,,,,,,,,,,,,,,,,,,,,,,,,,,,,,,,,,,,,,,,,,,,,,,,,,,,,,,,,,,,,,,,1.1496913582086563,0.9090474999975413,251.82818900002167,None,ScrollDown,정답입니다,251.82818900002167,None,251.82818900002167,None,251.82818900002167,None,251.82818900002167,None,252.63165160012431,None,252.63165160012431,253.131725900108,,,,,,,,,,,,,,,,011,2022-05-11_14h13.25.424,FishGame,2022.1.1,59.8117603591976,
,4,넌 능숙해,2,Green,B,5.666666666666667,4.733333333333333,ScrollUp,ScrollDown,Green.png,2,Positive,Incongruent,0,0,0,0,,,,,,,,,,,,,,,,,0,3,3,3,,,,,,,,,,,,,,,,,,,,,,,,,,,,,,,,,,,,,,,,,,,,,,,,,,,,,,,,,,,,,,,,,,,,,,,,,,,,,,,,,1.652777781089147,0.7266696998849511,253.76006570016034,None,ScrollUp,정답입니다,253.76006570016034,None,253.76006570016034,None,253.76006570016034,None,253.76006570016034,None,254.38158889999613,None,254.38158889999613,254.88375880010426,,,,,,,,,,,,,,,,011,2022-05-11_14h13.25.424,FishGame,2022.1.1,59.8117603591976,
,5,넌 진부해,4,Green,B,2.458333333333333,3.166666666666667,ScrollUp,ScrollDown,Green.png,2,Negative,Congruent,0,0,0,0,,,,,,,,,,,,,,,,,0,4,4,4,,,,,,,,,,,,,,,,,,,,,,,,,,,,,,,,,,,,,,,,,,,,,,,,,,,,,,,,,,,,,,,,,,,,,,,,,,,,,,,,,1.6944444452722869,0.7610295000486076,255.50401040003635,None,ScrollUp,정답입니다,255.50401040003635,None,255.50401040003635,None,255.50401040003635,None,255.50401040003635,None,256.1649323999882,None,256.1649323999882,256.6670874999836,,,,,,,,,,,,,,,,011,2022-05-11_14h13.25.424,FishGame,2022.1.1,59.8117603591976,
,6,나를 보내줘,6,Orange,A,0,0,ScrollUp,ScrollDown,Orange.png,2,NonTarget,NonTarget,0,0,0,0,,,,,,,,,,,,,,,,,0,5,5,5,,,,,,,,,,,,,,,,,,,,,,,,,,,,,,,,,,,,,,,,,,,,,,,,,,,,,,,,,,,,,,,,,,,,,,,,,,,,,,,,,1.71913580596447,1.2603759001940489,257.28558230004273,None,ScrollUp,정답입니다,257.28558230004273,None,257.28558230004273,None,257.28558230004273,None,257.28558230004273,None,258.4481981000863,None,258.4481981000863,258.9504255000502,,,,,,,,,,,,,,,,011,2022-05-11_14h13.25.424,FishGame,2022.1.1,59.8117603591976,
,7,넌 엄격해,3,Orange,A,4.166666666666666,4.1,ScrollDown,ScrollUp,Orange.png,2,Neutral,Neutral,0,0,0,0,,,,,,,,,,,,,,,,,0,6,6,6,,,,,,,,,,,,,,,,,,,,,,,,,,,,,,,,,,,,,,,,,,,,,,,,,,,,,,,,,,,,,,,,,,,,,,,,,,,,,,,,,1.1126543233791988,0.9426614998374134,259.57930760015734,None,ScrollDown,정답입니다,259.57930760015734,None,259.57930760015734,None,259.57930760015734,None,259.57930760015734,None,260.4147619002033,None,260.4147619002033,260.91484240000136,,,,,,,,,,,,,,,,011,2022-05-11_14h13.25.424,FishGame,2022.1.1,59.8117603591976,
,8,나를 보내줘,6,Orange,A,0,0,ScrollUp,ScrollDown,Orange.png,2,NonTarget,NonTarget,0,0,0,0,,,,,,,,,,,,,,,,,0,7,7,7,,,,,,,,,,,,,,,,,,,,,,,,,,,,,,,,,,,,,,,,,,,,,,,,,,,,,,,,,,,,,,,,,,,,,,,,,,,,,,,,,1.614197532335917,0.9258782002143562,261.54165300005116,None,ScrollUp,정답입니다,261.54165300005116,None,261.54165300005116,None,261.54165300005116,None,261.54165300005116,None,262.3647628000472,None,262.3647628000472,262.86701510008425,,,,,,,,,,,,,,,,011,2022-05-11_14h13.25.424,FishGame,2022.1.1,59.8117603591976,
,9,넌 대담해,3,Green,B,4.875,4.866666666666666,ScrollUp,ScrollDown,Green.png,2,Neutral,Neutral,0,0,0,0,,,,,,,,,,,,,,,,,0,8,8,8,,,,,,,,,,,,,,,,,,,,,,,,,,,,,,,,,,,,,,,,,,,,,,,,,,,,,,,,,,,,,,,,,,,,,,,,,,,,,,,,,1.5138888896132507,0.9092162000015378,263.49246420012787,None,NoResponse,무응답입니다,263.49246420012787,None,263.49246420012787,None,263.49246420012787,None,263.49246420012787,None,264.29810820007697,None,264.29810820007697,264.8002499002032,,,,,,,,,,,,,,,,011,2022-05-11_14h13.25.424,FishGame,2022.1.1,59.8117603591976,
,10,넌 꾸준해,1,Orange,A,5.916666666666668,5.8,ScrollDown,ScrollUp,Orange.png,2,Positive,Congruent,0,0,0,0,,,,,,,,,,,,,,,,,0,9,9,9,,,,,,,,,,,,,,,,,,,,,,,,,,,,,,,,,,,,,,,,,,,,,,,,,,,,,,,,,,,,,,,,,,,,,,,,,,,,,,,,,1.0895061641931534,1.1443958999589086,265.42675570002757,None,ScrollDown,정답입니다,265.42675570002757,None,265.42675570002757,None,265.42675570002757,None,265.42675570002757,None,266.46463130018674,None,266.46463130018674,266.9669835001696,,,,,,,,,,,,,,,,011,2022-05-11_14h13.25.424,FishGame,2022.1.1,59.8117603591976,
,11,나를 데려가줘,6,Green,B,0,0,ScrollDown,ScrollUp,Green.png,2,NonTarget,NonTarget,0,0,0,0,,,,,,,,,,,,,,,,,0,10,10,10,,,,,,,,,,,,,,,,,,,,,,,,,,,,,,,,,,,,,,,,,,,,,,,,,,,,,,,,,,,,,,,,,,,,,,,,,,,,,,,,,1,1.5255335001274943,267.58760310010985,None,ScrollDown,정답입니다,267.58760310010985,None,267.58760310010985,None,267.58760310010985,None,267.58760310010985,None,269.0146553001832,None,269.0146553001832,269.51696200016886,,,,,,,,,,,,,,,,011,2022-05-11_14h13.25.424,FishGame,2022.1.1,59.8117603591976,
,12,넌 독선적이야,5,Orange,A,2.458333333333333,1.933333333333333,ScrollDown,ScrollUp,Orange.png,2,Negative,Incongruent,0,0,0,0,,,,,,,,,,,,,,,,,0,11,11,11,,,,,,,,,,,,,,,,,,,,,,,,,,,,,,,,,,,,,,,,,,,,,,,,,,,,,,,,,,,,,,,,,,,,,,,,,,,,,,,,,1.0354938507080078,0.9927521999925375,270.14265609998256,None,ScrollDown,정답입니다,270.14265609998256,None,270.14265609998256,None,270.14265609998256,None,270.14265609998256,None,271.031229400076,None,271.031229400076,271.5333930000197,,,,,,,,,,,,,,,,011,2022-05-11_14h13.25.424,FishGame,2022.1.1,59.8117603591976,
,13,나를 보내줘,6,Orange,A,0,0,ScrollUp,ScrollDown,Orange.png,2,NonTarget,NonTarget,0,0,0,0,,,,,,,,,,,,,,,,,0,12,12,12,,,,,,,,,,,,,,,,,,,,,,,,,,,,,,,,,,,,,,,,,,,,,,,,,,,,,,,,,,,,,,,,,,,,,,,,,,,,,,,,,1.8317901243766148,1.294787600170821,272.15320600010455,None,ScrollUp,정답입니다,272.15320600010455,None,272.15320600010455,None,272.15320600010455,None,272.15320600010455,None,273.3478547001723,None,273.3478547001723,273.84996690019034,,,,,,,,,,,,,,,,011,2022-05-11_14h13.25.424,FishGame,2022.1.1,59.8117603591976,
,14,넌 책임감있어,1,Green,B,6.347826086956522,6,ScrollUp,ScrollDown,Green.png,2,Positive,Incongruent,0,0,0,0,,,,,,,,,,,,,,,,,0,13,13,13,,,,,,,,,,,,,,,,,,,,,,,,,,,,,,,,,,,,,,,,,,,,,,,,,,,,,,,,,,,,,,,,,,,,,,,,,,,,,,,,,1.6975308607021966,1.209339499939233,274.48138320003636,None,ScrollUp,정답입니다,274.48138320003636,None,274.48138320003636,None,274.48138320003636,None,274.48138320003636,None,275.58329860004596,None,275.58329860004596,276.09785150014795,,,,,,,,,,,,,,,,011,2022-05-11_14h13.25.424,FishGame,2022.1.1,59.8117603591976,
,15,넌 문학적이야,3,Orange,A,4.708333333333334,4.333333333333333,ScrollDown,ScrollUp,Orange.png,2,Neutral,Neutral,0,0,0,0,,,,,,,,,,,,,,,,,0,14,14,14,,,,,,,,,,,,,,,,,,,,,,,,,,,,,,,,,,,,,,,,,,,,,,,,,,,,,,,,,,,,,,,,,,,,,,,,,,,,,,,,,1.1558641890684764,1.5090687999036163,276.71332960017025,None,ScrollDown,정답입니다,276.71332960017025,None,276.71332960017025,None,276.71332960017025,None,276.71332960017025,None,278.11436730017886,None,278.11436730017886,278.61444440018386,,,,,,,,,,,,,,,,011,2022-05-11_14h13.25.424,FishGame,2022.1.1,59.8117603591976,
,16,넌 재미있어,1,Green,B,5.875,5.7,ScrollUp,ScrollDown,Green.png,2,Positive,Incongruent,0,0,0,0,,,,,,,,,,,,,,,,,0,15,15,15,,,,,,,,,,,,,,,,,,,,,,,,,,,,,,,,,,,,,,,,,,,,,,,,,,,,,,,,,,,,,,,,,,,,,,,,,,,,,,,,,1.8287036965290706,1.1591890000272542,279.2439433999825,None,ScrollUp,정답입니다,279.2439433999825,None,279.2439433999825,None,279.2439433999825,None,279.2439433999825,None,280.2977097001858,None,280.2977097001858,280.79772120015696,,,,,,,,,,,,,,,,011,2022-05-11_14h13.25.424,FishGame,2022.1.1,59.8117603591976,
,17,나를 데려가줘,6,Green,B,0,0,ScrollDown,ScrollUp,Green.png,2,NonTarget,NonTarget,0,0,0,0,,,,,,,,,,,,,,,,,0,16,16,16,,,,,,,,,,,,,,,,,,,,,,,,,,,,,,,,,,,,,,,,,,,,,,,,,,,,,,,,,,,,,,,,,,,,,,,,,,,,,,,,,1.1234567960103352,1.1779183999169618,281.419466300169,None,ScrollDown,정답입니다,281.419466300169,None,281.419466300169,None,281.419466300169,None,281.419466300169,None,282.4975974999834,None,282.4975974999834,282.9998955000192,,,,,,,,,,,,,,,,011,2022-05-11_14h13.25.424,FishGame,2022.1.1,59.8117603591976,
,18,넌 협력적이야,1,Orange,A,5.625,5.633333333333334,ScrollDown,ScrollUp,Orange.png,2,Positive,Congruent,0,0,0,0,,,,,,,,,,,,,,,,,0,17,17,17,,,,,,,,,,,,,,,,,,,,,,,,,,,,,,,,,,,,,,,,,,,,,,,,,,,,,,,,,,,,,,,,,,,,,,,,,,,,,,,,,1,1.495052699930966,283.6352539001964,None,ScrollDown,정답입니다,283.6352539001964,None,283.6352539001964,None,283.6352539001964,None,283.6352539001964,None,285.0143206000794,None,285.0143206000794,285.5143195001874,,,,,,,,,,,,,,,,011,2022-05-11_14h13.25.424,FishGame,2022.1.1,59.8117603591976,
,19,넌 평범해,3,Green,B,4.333333333333332,4.233333333333333,ScrollUp,ScrollDown,Green.png,2,Neutral,Neutral,0,0,0,0,,,,,,,,,,,,,,,,,0,18,18,18,,,,,,,,,,,,,,,,,,,,,,,,,,,,,,,,,,,,,,,,,,,,,,,,,,,,,,,,,,,,,,,,,,,,,,,,,,,,,,,,,2,0.9926425002049655,286.1415332001634,None,ScrollUp,정답입니다,286.1415332001634,None,286.1415332001634,None,286.1415332001634,None,286.1415332001634,None,287.0330885001458,None,287.0330885001458,287.54763170005754,,,,,,,,,,,,,,,,011,2022-05-11_14h13.25.424,FishGame,2022.1.1,59.8117603591976,
,20,넌 오만해,5,Orange,A,2.333333333333333,2,ScrollDown,ScrollUp,Orange.png,2,Negative,Incongruent,0,0,0,0,,,,,,,,,,,,,,,,,0,19,19,19,,,,,,,,,,,,,,,,,,,,,,,,,,,,,,,,,,,,,,,,,,,,,,,,,,,,,,,,,,,,,,,,,,,,,,,,,,,,,,,,,1.0524691541989644,1.242720700101927,288.155792000005,None,ScrollDown,정답입니다,288.155792000005,None,288.155792000005,None,288.155792000005,None,288.155792000005,None,289.29746150015853,None,289.29746150015853,289.7996742001269,,,,,,,,,,,,,,,,011,2022-05-11_14h13.25.424,FishGame,2022.1.1,59.8117603591976,
,21,넌 운이없어,4,Green,B,3,3.466666666666667,ScrollUp,ScrollDown,Green.png,2,Negative,Congruent,0,0,0,0,,,,,,,,,,,,,,,,,0,20,20,20,,,,,,,,,,,,,,,,,,,,,,,,,,,,,,,,,,,,,,,,,,,,,,,,,,,,,,,,,,,,,,,,,,,,,,,,,,,,,,,,,1.8209876517454784,0.9926932000089437,290.438550000079,None,ScrollUp,정답입니다,290.438550000079,None,290.438550000079,None,290.438550000079,None,290.438550000079,None,291.3141246000305,None,291.3141246000305,291.8163263001479,,,,,,,,,,,,,,,,011,2022-05-11_14h13.25.424,FishGame,2022.1.1,59.8117603591976,
,22,넌 창조적이야,2,Green,B,6.125,4.633333333333334,ScrollUp,ScrollDown,Green.png,2,Positive,Incongruent,0,0,0,0,,,,,,,,,,,,,,,,,0,21,21,21,,,,,,,,,,,,,,,,,,,,,,,,,,,,,,,,,,,,,,,,,,,,,,,,,,,,,,,,,,,,,,,,,,,,,,,,,,,,,,,,,1.90586419403553,0.8920543000567704,292.4510129999835,None,ScrollUp,정답입니다,292.4510129999835,None,292.4510129999835,None,292.4510129999835,None,292.4510129999835,None,293.23295390000567,None,293.23295390000567,293.7474319001194,,,,,,,,,,,,,,,,011,2022-05-11_14h13.25.424,FishGame,2022.1.1,59.8117603591976,
,23,나를 보내줘,6,Orange,A,0,0,ScrollUp,ScrollDown,Orange.png,2,NonTarget,NonTarget,0,0,0,0,,,,,,,,,,,,,,,,,0,22,22,22,,,,,,,,,,,,,,,,,,,,,,,,,,,,,,,,,,,,,,,,,,,,,,,,,,,,,,,,,,,,,,,,,,,,,,,,,,,,,,,,,1.7067901194095612,1.2945779000874609,294.35150500014424,None,ScrollUp,정답입니다,294.35150500014424,None,294.35150500014424,None,294.35150500014424,None,294.35150500014424,None,295.54951180005446,None,295.54951180005446,296.0640422999859,,,,,,,,,,,,,,,,011,2022-05-11_14h13.25.424,FishGame,2022.1.1,59.8117603591976,
,24,넌 통찰력있어,2,Orange,A,6.5,4.8,ScrollDown,ScrollUp,Orange.png,2,Positive,Congruent,0,0,0,0,,,,,,,,,,,,,,,,,0,23,23,23,,,,,,,,,,,,,,,,,,,,,,,,,,,,,,,,,,,,,,,,,,,,,,,,,,,,,,,,,,,,,,,,,,,,,,,,,,,,,,,,,1.0478395124276478,1.1590976999141276,296.6764180001337,None,ScrollDown,정답입니다,296.6764180001337,None,296.6764180001337,None,296.6764180001337,None,296.6764180001337,None,297.7329246001318,None,297.7329246001318,298.2476578000933,,,,,,,,,,,,,,,,011,2022-05-11_14h13.25.424,FishGame,2022.1.1,59.8117603591976,
,25,넌 경솔해,5,Green,B,2.458333333333333,2.266666666666667,ScrollUp,ScrollDown,Green.png,2,Negative,Congruent,0,0,0,0,,,,,,,,,,,,,,,,,0,24,24,24,,,,,,,,,,,,,,,,,,,,,,,,,,,,,,,,,,,,,,,,,,,,,,,,,,,,,,,,,,,,,,,,,,,,,,,,,,,,,,,,,1.9861110945542653,0.8430614999961108,298.87496960000135,None,ScrollUp,정답입니다,298.87496960000135,None,298.87496960000135,None,298.87496960000135,None,298.87496960000135,None,299.6139496001415,None,299.6139496001415,300.1139740999788,,,,,,,,,,,,,,,,011,2022-05-11_14h13.25.424,FishGame,2022.1.1,59.8117603591976,
,26,넌 초조해,4,Orange,A,2.916666666666667,3.133333333333333,ScrollDown,ScrollUp,Orange.png,2,Negative,Incongruent,0,0,0,0,,,,,,,,,,,,,,,,,0,25,25,25,,,,,,,,,,,,,,,,,,,,,,,,,,,,,,,,,,,,,,,,,,,,,,,,,,,,,,,,,,,,,,,,,,,,,,,,,,,,,,,,,1,0.8092763999011368,300.74193980009295,None,ScrollDown,정답입니다,300.74193980009295,None,300.74193980009295,None,300.74193980009295,None,300.74193980009295,None,301.44949210016057,None,301.44949210016057,301.9472920000553,,,,,,,,,,,,,,,,011,2022-05-11_14h13.25.424,FishGame,2022.1.1,59.8117603591976,
,27,넌 무관심해,4,Green,B,2.833333333333333,2.9,ScrollUp,ScrollDown,Green.png,2,Negative,Congruent,0,0,0,0,,,,,,,,,,,,,,,,,0,26,26,26,,,,,,,,,,,,,,,,,,,,,,,,,,,,,,,,,,,,,,,,,,,,,,,,,,,,,,,,,,,,,,,,,,,,,,,,,,,,,,,,,1.7592592686414719,0.9101533000357449,302.5876904001925,None,ScrollUp,정답입니다,302.5876904001925,None,302.5876904001925,None,302.5876904001925,None,302.5876904001925,None,303.3971512999851,None,303.3971512999851,303.89940480003133,,,,,,,,,,,,,,,,011,2022-05-11_14h13.25.424,FishGame,2022.1.1,59.8117603591976,
,28,넌 감성적이야,3,Green,B,4.125,4.166666666666667,ScrollUp,ScrollDown,Green.png,2,Neutral,Neutral,0,0,0,0,,,,,,,,,,,,,,,,,0,27,27,27,,,,,,,,,,,,,,,,,,,,,,,,,,,,,,,,,,,,,,,,,,,,,,,,,,,,,,,,,,,,,,,,,,,,,,,,,,,,,,,,,1.785493830839793,0.7094439999200404,304.51949700014666,None,ScrollUp,정답입니다,304.51949700014666,None,304.51949700014666,None,304.51949700014666,None,304.51949700014666,None,305.13278550002724,None,305.13278550002724,305.6494109001942,,,,,,,,,,,,,,,,011,2022-05-11_14h13.25.424,FishGame,2022.1.1,59.8117603591976,
,29,넌 배려심있어,1,Orange,A,6.083333333333333,5.5,ScrollDown,ScrollUp,Orange.png,2,Positive,Congruent,0,0,0,0,,,,,,,,,,,,,,,,,0,28,28,28,,,,,,,,,,,,,,,,,,,,,,,,,,,,,,,,,,,,,,,,,,,,,,,,,,,,,,,,,,,,,,,,,,,,,,,,,,,,,,,,,1,0.8414237999822944,306.26141800009646,None,ScrollDown,정답입니다,306.26141800009646,None,306.26141800009646,None,306.26141800009646,None,306.26141800009646,None,306.99707270017825,None,306.99707270017825,307.49712519999593,,,,,,,,,,,,,,,,011,2022-05-11_14h13.25.424,FishGame,2022.1.1,59.8117603591976,
,30,넌 숨김없어,3,Orange,A,4.5,4.933333333333334,ScrollDown,ScrollUp,Orange.png,2,Neutral,Neutral,0,0,0,0,,,,,,,,,,,,,,,,,0,29,29,29,,,,,,,,,,,,,,,,,,,,,,,,,,,,,,,,,,,,,,,,,,,,,,,,,,,,,,,,,,,,,,,,,,,,,,,,,,,,,,,,,1.1033950646718342,0.7756735000293702,308.1248060001526,None,ScrollDown,정답입니다,308.1248060001526,None,308.1248060001526,None,308.1248060001526,None,308.1248060001526,None,308.79924740013666,None,308.79924740013666,309.29714990011416,,,,,,,,,,,,,,,,011,2022-05-11_14h13.25.424,FishGame,2022.1.1,59.8117603591976,
,31,넌 훌륭해,2,Green,B,5.916666666666667,4.033333333333333,ScrollUp,ScrollDown,Green.png,2,Positive,Incongruent,0,0,0,0,,,,,,,,,,,,,,,,,0,30,30,30,,,,,,,,,,,,,,,,,,,,,,,,,,,,,,,,,,,,,,,,,,,,,,,,,,,,,,,,,,,,,,,,,,,,,,,,,,,,,,,,,1.7700617164373398,0.9591288999654353,309.9225371000357,None,ScrollUp,정답입니다,309.9225371000357,None,309.9225371000357,None,309.9225371000357,None,309.9225371000357,None,310.7825392000377,None,310.7825392000377,311.2970646000467,,,,,,,,,,,,,,,,011,2022-05-11_14h13.25.424,FishGame,2022.1.1,59.8117603591976,
,32,넌 슬기로워,2,Orange,A,6.166666666666667,4.1,ScrollDown,ScrollUp,Orange.png,2,Positive,Congruent,0,0,0,0,,,,,,,,,,,,,,,,,0,31,31,31,,,,,,,,,,,,,,,,,,,,,,,,,,,,,,,,,,,,,,,,,,,,,,,,,,,,,,,,,,,,,,,,,,,,,,,,,,,,,,,,,1,0.8943734997883439,311.92553120013326,None,ScrollDown,정답입니다,311.92553120013326,None,311.92553120013326,None,311.92553120013326,None,311.92553120013326,None,312.69700970011763,None,312.69700970011763,313.1991477000993,,,,,,,,,,,,,,,,011,2022-05-11_14h13.25.424,FishGame,2022.1.1,59.8117603591976,
,33,넌 냉혹해,5,Orange,A,2.583333333333333,2.1,ScrollDown,ScrollUp,Orange.png,2,Negative,Incongruent,0,0,0,0,,,,,,,,,,,,,,,,,0,32,32,32,,,,,,,,,,,,,,,,,,,,,,,,,,,,,,,,,,,,,,,,,,,,,,,,,,,,,,,,,,,,,,,,,,,,,,,,,,,,,,,,,1.0354938507080078,0.9255295000039041,313.8227443001233,None,ScrollDown,정답입니다,313.8227443001233,None,313.8227443001233,None,313.8227443001233,None,313.8227443001233,None,314.6469243001193,None,314.6469243001193,315.1490911000874,,,,,,,,,,,,,,,,011,2022-05-11_14h13.25.424,FishGame,2022.1.1,59.8117603591976,
,34,나를 데려가줘,6,Green,B,0,0,ScrollDown,ScrollUp,Green.png,2,NonTarget,NonTarget,0,0,0,0,,,,,,,,,,,,,,,,,0,33,33,33,,,,,,,,,,,,,,,,,,,,,,,,,,,,,,,,,,,,,,,,,,,,,,,,,,,,,,,,,,,,,,,,,,,,,,,,,,,,,,,,,1.1867283930381138,1.1422358001582325,315.7677771002054,None,ScrollDown,정답입니다,315.7677771002054,None,315.7677771002054,None,315.7677771002054,None,315.7677771002054,None,316.8135644001886,None,316.8135644001886,317.315772900125,,,,,,,,,,,,,,,,011,2022-05-11_14h13.25.424,FishGame,2022.1.1,59.8117603591976,
,35,넌 편파적이야,5,Green,B,2.125,2,ScrollUp,ScrollDown,Green.png,2,Negative,Congruent,0,0,0,0,,,,,,,,,,,,,,,,,0,34,34,34,,,,,,,,,,,,,,,,,,,,,,,,,,,,,,,,,,,,,,,,,,,,,,,,,,,,,,,,,,,,,,,,,,,,,,,,,,,,,,,,,1.5740740758677325,1.1893599999602884,317.93946550018154,None,ScrollUp,정답입니다,317.93946550018154,None,317.93946550018154,None,317.93946550018154,None,317.93946550018154,None,319.02553210011683,None,319.02553210011683,319.53002070006914,,,,,,,,,,,,,,,,011,2022-05-11_14h13.25.424,FishGame,2022.1.1,59.8117603591976,
,36,넌 슬퍼,4,Orange,A,2.583333333333333,3.066666666666667,ScrollDown,ScrollUp,Orange.png,2,Negative,Incongruent,0,0,0,0,,,,,,,,,,,,,,,,,0,35,35,35,,,,,,,,,,,,,,,,,,,,,,,,,,,,,,,,,,,,,,,,,,,,,,,,,,,,,,,,,,,,,,,,,,,,,,,,,,,,,,,,,1,0.7783701999578625,320.14712540013716,None,ScrollDown,정답입니다,320.14712540013716,None,320.14712540013716,None,320.14712540013716,None,320.14712540013716,None,320.8298782000784,None,320.8298782000784,321.3299641001504,,,,,,,,,,,,,,,,011,2022-05-11_14h13.25.424,FishGame,2022.1.1,59.8117603591976,
,37,나를 데려가줘,6,Green,B,0,0,ScrollDown,ScrollUp,Green.png,2,NonTarget,NonTarget,0,0,0,0,,,,,,,,,,,,,,,,,0,36,36,36,,,,,,,,,,,,,,,,,,,,,,,,,,,,,,,,,,,,,,,,,,,,,,,,,,,,,,,,,,,,,,,,,,,,,,,,,,,,,,,,,1.0694444576899211,1.328646400012076,321.9552518001292,None,ScrollDown,정답입니다,321.9552518001292,None,321.9552518001292,None,321.9552518001292,None,321.9552518001292,None,323.1824919001665,None,323.1824919001665,323.6823935001157,,,,,,,,,,,,,,,,011,2022-05-11_14h13.25.424,FishGame,2022.1.1,59.8117603591976,
,38,넌 친절해,1,Green,B,6.041666666666667,5.533333333333333,ScrollUp,ScrollDown,Green.png,2,Positive,Incongruent,0,0,0,0,,,,,,,,,,,,,,,,,0,37,37,37,,,,,,,,,,,,,,,,,,,,,,,,,,,,,,,,,,,,,,,,,,,,,,,,,,,,,,,,,,,,,,,,,,,,,,,,,,,,,,,,,1.799382706483205,1.1292544999159873,324.3003220001701,None,ScrollUp,정답입니다,324.3003220001701,None,324.3003220001701,None,324.3003220001701,None,324.3003220001701,None,325.3323405000847,None,325.3323405000847,325.83012390020303,,,,,,,,,,,,,,,,011,2022-05-11_14h13.25.424,FishGame,2022.1.1,59.8117603591976,
,1,넌 엉성해,4,Orange,A,3,3.3,ScrollDown,ScrollUp,Orange.png,3,Negative,Incongruent,0,0,0,0,,,,,,,,,,,,,,,,,,,,,0,0,0,0,,,,,,,,,,,,,,,,,,,,,,,,,,,,,,,,,,,,357.8126449000556,359.3181658000685,359.3348025002051,360.29832900012843,360.33166240016,361.3015001001768,361.3015001001768,None,,,,,,,,,,,,,,,,,,,,,,,,,,,,,,,,,,1,1.1034216999541968,362.40904589998536,None,ScrollDown,정답입니다,362.40904589998536,None,362.40904589998536,None,362.40904589998536,None,362.40904589998536,None,363.41257290006615,None,363.41257290006615,363.9148226000834,326.3303949001711,None,326.3303949001711,None,0.07037037,-0.11203704,1,0,0,0.01621278002858162,None,356.3294204000849,None,,,011,2022-05-11_14h13.25.424,FishGame,2022.1.1,59.8117603591976,
,2,나를 보내줘,6,Orange,A,0,0,ScrollUp,ScrollDown,Orange.png,3,NonTarget,NonTarget,0,0,0,0,,,,,,,,,,,,,,,,,,,,,0,1,1,1,,,,,,,,,,,,,,,,,,,,,,,,,,,,,,,,,,,,,,,,,,,,,,,,,,,,,,,,,,,,,,,,,,,,,,,,,,,,,1.858024686574936,1.0614783999044448,364.54313530004583,None,ScrollUp,정답입니다,364.54313530004583,None,364.54313530004583,None,364.54313530004583,None,364.54313530004583,None,365.4979760001879,None,365.4979760001879,365.9980202000588,,,,,,,,,,,,,,,,011,2022-05-11_14h13.25.424,FishGame,2022.1.1,59.8117603591976,
,3,넌 활발해,1,Green,B,5.666666666666667,5.6,ScrollUp,ScrollDown,Green.png,3,Positive,Incongruent,0,0,0,0,,,,,,,,,,,,,,,,,,,,,0,2,2,2,,,,,,,,,,,,,,,,,,,,,,,,,,,,,,,,,,,,,,,,,,,,,,,,,,,,,,,,,,,,,,,,,,,,,,,,,,,,,2,1.2089986000210047,366.6192291001789,None,ScrollUp,정답입니다,366.6192291001789,None,366.6192291001789,None,366.6192291001789,None,366.6192291001789,None,367.7313612001017,None,367.7313612001017,368.23135690018535,,,,,,,,,,,,,,,,011,2022-05-11_14h13.25.424,FishGame,2022.1.1,59.8117603591976,
,4,넌 논리적이야,2,Orange,A,5.666666666666666,4.633333333333334,ScrollDown,ScrollUp,Orange.png,3,Positive,Congruent,0,0,0,0,,,,,,,,,,,,,,,,,,,,,0,3,3,3,,,,,,,,,,,,,,,,,,,,,,,,,,,,,,,,,,,,,,,,,,,,,,,,,,,,,,,,,,,,,,,,,,,,,,,,,,,,,1.0262345671653748,0.8924070000648499,368.8592798002064,None,ScrollDown,정답입니다,368.8592798002064,None,368.8592798002064,None,368.8592798002064,None,368.8592798002064,None,369.6454806001857,None,369.6454806001857,370.145537200151,,,,,,,,,,,,,,,,011,2022-05-11_14h13.25.424,FishGame,2022.1.1,59.8117603591976,
,5,넌 과묵해,3,Orange,A,3.875,4.4,ScrollDown,ScrollUp,Orange.png,3,Neutral,Neutral,0,0,0,0,,,,,,,,,,,,,,,,,,,,,0,4,4,4,,,,,,,,,,,,,,,,,,,,,,,,,,,,,,,,,,,,,,,,,,,,,,,,,,,,,,,,,,,,,,,,,,,,,,,,,,,,,1.0663580298423767,0.8947115999180824,370.77008300018497,None,ScrollDown,정답입니다,370.77008300018497,None,370.77008300018497,None,370.77008300018497,None,370.77008300018497,None,371.5621518001426,None,371.5621518001426,372.0646764000412,,,,,,,,,,,,,,,,011,2022-05-11_14h13.25.424,FishGame,2022.1.1,59.8117603591976,
,6,나를 데려가줘,6,Green,B,0,0,ScrollDown,ScrollUp,Green.png,3,NonTarget,NonTarget,0,0,0,0,,,,,,,,,,,,,,,,,,,,,0,5,5,5,,,,,,,,,,,,,,,,,,,,,,,,,,,,,,,,,,,,,,,,,,,,,,,,,,,,,,,,,,,,,,,,,,,,,,,,,,,,,1.1172839403152466,1.0781457000412047,372.6873218000401,None,ScrollDown,정답입니다,372.6873218000401,None,372.6873218000401,None,372.6873218000401,None,372.6873218000401,None,373.6646410000976,None,373.6646410000976,374.17898490000516,,,,,,,,,,,,,,,,011,2022-05-11_14h13.25.424,FishGame,2022.1.1,59.8117603591976,
,7,넌 미숙해,4,Green,B,3,3,ScrollUp,ScrollDown,Green.png,3,Negative,Congruent,0,0,0,0,,,,,,,,,,,,,,,,,,,,,0,6,6,6,,,,,,,,,,,,,,,,,,,,,,,,,,,,,,,,,,,,,,,,,,,,,,,,,,,,,,,,,,,,,,,,,,,,,,,,,,,,,1.8688271592060726,0.9757862999103963,374.7859982000664,None,ScrollUp,정답입니다,374.7859982000664,None,374.7859982000664,None,374.7859982000664,None,374.7859982000664,None,375.662282000063,None,375.662282000063,376.16462639998645,,,,,,,,,,,,,,,,011,2022-05-11_14h13.25.424,FishGame,2022.1.1,59.8117603591976,
,8,나를 보내줘,6,Orange,A,0,0,ScrollUp,ScrollDown,Orange.png,3,NonTarget,NonTarget,0,0,0,0,,,,,,,,,,,,,,,,,,,,,0,7,7,7,,,,,,,,,,,,,,,,,,,,,,,,,,,,,,,,,,,,,,,,,,,,,,,,,,,,,,,,,,,,,,,,,,,,,,,,,,,,,1.959876557191213,1.1707331000361592,376.7802933000494,None,ScrollUp,정답입니다,376.7802933000494,None,376.7802933000494,None,376.7802933000494,None,376.7802933000494,None,377.8524466000963,None,377.8524466000963,378.36246770014986,,,,,,,,,,,,,,,,011,2022-05-11_14h13.25.424,FishGame,2022.1.1,59.8117603591976,
,9,넌 자신만만해,3,Green,B,4.833333333333334,4.333333333333333,ScrollUp,ScrollDown,Green.png,3,Neutral,Neutral,0,0,0,0,,,,,,,,,,,,,,,,,,,,,0,8,8,8,,,,,,,,,,,,,,,,,,,,,,,,,,,,,,,,,,,,,,,,,,,,,,,,,,,,,,,,,,,,,,,,,,,,,,,,,,,,,1.7283950646718345,0.8951534000225365,378.9854519001674,None,ScrollUp,정답입니다,378.9854519001674,None,378.9854519001674,None,378.9854519001674,None,378.9854519001674,None,379.77882850007154,None,379.77882850007154,380.2810045001097,,,,,,,,,,,,,,,,011,2022-05-11_14h13.25.424,FishGame,2022.1.1,59.8117603591976,
,10,넌 탐욕스러워,5,Orange,A,2.25,2.1,ScrollDown,ScrollUp,Orange.png,3,Negative,Incongruent,0,0,0,0,,,,,,,,,,,,,,,,,,,,,0,9,9,9,,,,,,,,,,,,,,,,,,,,,,,,,,,,,,,,,,,,,,,,,,,,,,,,,,,,,,,,,,,,,,,,,,,,,,,,,,,,,1.141975313425064,0.8937314001377672,380.90555290016346,None,ScrollDown,정답입니다,380.90555290016346,None,380.90555290016346,None,380.90555290016346,None,380.90555290016346,None,381.6955234000925,None,381.6955234000925,382.1957338000648,,,,,,,,,,,,,,,,011,2022-05-11_14h13.25.424,FishGame,2022.1.1,59.8117603591976,
,11,넌 인기있어,2,Orange,A,5.458333333333333,4.5,ScrollDown,ScrollUp,Orange.png,3,Positive,Congruent,0,0,0,0,,,,,,,,,,,,,,,,,,,,,0,10,10,10,,,,,,,,,,,,,,,,,,,,,,,,,,,,,,,,,,,,,,,,,,,,,,,,,,,,,,,,,,,,,,,,,,,,,,,,,,,,,1.212962955236435,0.9777565998956561,382.82002860005014,None,ScrollDown,정답입니다,382.82002860005014,None,382.82002860005014,None,382.82002860005014,None,382.82002860005014,None,383.6955227002036,None,383.6955227002036,384.19538070005365,,,,,,,,,,,,,,,,011,2022-05-11_14h13.25.424,FishGame,2022.1.1,59.8117603591976,
,12,나를 데려가줘,6,Green,B,0,0,ScrollDown,ScrollUp,Green.png,3,NonTarget,NonTarget,0,0,0,0,,,,,,,,,,,,,,,,,,,,,0,11,11,11,,,,,,,,,,,,,,,,,,,,,,,,,,,,,,,,,,,,,,,,,,,,,,,,,,,,,,,,,,,,,,,,,,,,,,,,,,,,,1.0154321193695068,1.2617934998124838,384.8152924000751,None,ScrollDown,정답입니다,384.8152924000751,None,384.8152924000751,None,384.8152924000751,None,384.8152924000751,None,385.9787510000169,None,385.9787510000169,386.4810292001348,,,,,,,,,,,,,,,,011,2022-05-11_14h13.25.424,FishGame,2022.1.1,59.8117603591976,
,13,넌 뛰어나,2,Green,B,6.166666666666667,4,ScrollUp,ScrollDown,Green.png,3,Positive,Incongruent,0,0,0,0,,,,,,,,,,,,,,,,,,,,,0,12,12,12,,,,,,,,,,,,,,,,,,,,,,,,,,,,,,,,,,,,,,,,,,,,,,,,,,,,,,,,,,,,,,,,,,,,,,,,,,,,,1.8981481492519379,1.029023899929598,387.10855710017495,None,ScrollUp,정답입니다,387.10855710017495,None,387.10855710017495,None,387.10855710017495,None,387.10855710017495,None,388.02839980018325,None,388.02839980018325,388.5285782001447,,,,,,,,,,,,,,,,011,2022-05-11_14h13.25.424,FishGame,2022.1.1,59.8117603591976,
,14,넌 낙관적이야,1,Orange,A,5.75,5.8,ScrollDown,ScrollUp,Orange.png,3,Positive,Congruent,0,0,0,0,,,,,,,,,,,,,,,,,,,,,0,13,13,13,,,,,,,,,,,,,,,,,,,,,,,,,,,,,,,,,,,,,,,,,,,,,,,,,,,,,,,,,,,,,,,,,,,,,,,,,,,,,1.1049382785956066,1.1951401999685913,389.151089400053,None,ScrollDown,정답입니다,389.151089400053,None,389.151089400053,None,389.151089400053,None,389.151089400053,None,390.24767599999905,None,390.24767599999905,390.74760850006714,,,,,,,,,,,,,,,,011,2022-05-11_14h13.25.424,FishGame,2022.1.1,59.8117603591976,
,15,넌 산만해,4,Green,B,2.695652173913043,3.033333333333333,ScrollUp,ScrollDown,Green.png,3,Negative,Congruent,0,0,0,0,,,,,,,,,,,,,,,,,,,,,0,14,14,14,,,,,,,,,,,,,,,,,,,,,,,,,,,,,,,,,,,,,,,,,,,,,,,,,,,,,,,,,,,,,,,,,,,,,,,,,,,,,1.584876542290052,0.8920892998576164,391.36468470003456,None,ScrollUp,정답입니다,391.36468470003456,None,391.36468470003456,None,391.36468470003456,None,391.36468470003456,None,392.1453113001771,None,392.1453113001771,392.6453346000053,,,,,,,,,,,,,,,,011,2022-05-11_14h13.25.424,FishGame,2022.1.1,59.8117603591976,
,16,나를 보내줘,6,Orange,A,0,0,ScrollUp,ScrollDown,Orange.png,3,NonTarget,NonTarget,0,0,0,0,,,,,,,,,,,,,,,,,,,,,0,15,15,15,,,,,,,,,,,,,,,,,,,,,,,,,,,,,,,,,,,,,,,,,,,,,,,,,,,,,,,,,,,,,,,,,,,,,,,,,,,,,1.8503086417913437,1.7092097999993712,393.2709125999827,None,ScrollUp,정답입니다,393.2709125999827,None,393.2709125999827,None,393.2709125999827,None,393.2709125999827,None,394.87857730011456,None,394.87857730011456,395.3786279000342,,,,,,,,,,,,,,,,011,2022-05-11_14h13.25.424,FishGame,2022.1.1,59.8117603591976,
,17,넌 교활해,5,Green,B,2.333333333333333,2.133333333333333,ScrollUp,ScrollDown,Green.png,3,Negative,Congruent,0,0,0,0,,,,,,,,,,,,,,,,,,,,,0,16,16,16,,,,,,,,,,,,,,,,,,,,,,,,,,,,,,,,,,,,,,,,,,,,,,,,,,,,,,,,,,,,,,,,,,,,,,,,,,,,,1.7546296268701553,1.059978200122714,395.99973909999244,None,ScrollUp,정답입니다,395.99973909999244,None,395.99973909999244,None,395.99973909999244,None,395.99973909999244,None,396.9618573000189,None,396.9618573000189,397.4620062999893,,,,,,,,,,,,,,,,011,2022-05-11_14h13.25.424,FishGame,2022.1.1,59.8117603591976,
,18,나를 보내줘,6,Orange,A,0,0,ScrollUp,ScrollDown,Orange.png,3,NonTarget,NonTarget,0,0,0,0,,,,,,,,,,,,,,,,,,,,,0,17,17,17,,,,,,,,,,,,,,,,,,,,,,,,,,,,,,,,,,,,,,,,,,,,,,,,,,,,,,,,,,,,,,,,,,,,,,,,,,,,,1.6759259278575578,1.122820699820295,398.0912239002064,None,ScrollUp,정답입니다,398.0912239002064,None,398.0912239002064,None,398.0912239002064,None,398.0912239002064,None,399.11182710016146,None,399.11182710016146,399.61395440017805,,,,,,,,,,,,,,,,011,2022-05-11_14h13.25.424,FishGame,2022.1.1,59.8117603591976,
,19,넌 불친절해,5,Green,B,2.208333333333333,2.033333333333333,ScrollUp,ScrollDown,Green.png,3,Negative,Congruent,0,0,0,0,,,,,,,,,,,,,,,,,,,,,0,18,18,18,,,,,,,,,,,,,,,,,,,,,,,,,,,,,,,,,,,,,,,,,,,,,,,,,,,,,,,,,,,,,,,,,,,,,,,,,,,,,1.8919753183921177,0.8781868999358267,400.23244530009106,None,ScrollUp,정답입니다,400.23244530009106,None,400.23244530009106,None,400.23244530009106,None,400.23244530009106,None,401.01179760019295,None,401.01179760019295,401.5139943000395,,,,,,,,,,,,,,,,011,2022-05-11_14h13.25.424,FishGame,2022.1.1,59.8117603591976,
,20,넌 지적이야,2,Green,B,5.75,4.366666666666666,ScrollUp,ScrollDown,Green.png,3,Positive,Incongruent,0,0,0,0,,,,,,,,,,,,,,,,,,,,,0,19,19,19,,,,,,,,,,,,,,,,,,,,,,,,,,,,,,,,,,,,,,,,,,,,,,,,,,,,,,,,,,,,,,,,,,,,,,,,,,,,,1.9444444676240284,0.8763852999545634,402.13230450008996,None,ScrollUp,정답입니다,402.13230450008996,None,402.13230450008996,None,402.13230450008996,None,402.13230450008996,None,402.9116750000976,None,402.9116750000976,403.4138899000827,,,,,,,,,,,,,,,,011,2022-05-11_14h13.25.424,FishGame,2022.1.1,59.8117603591976,
,21,넌 우유부단해,4,Orange,A,2.666666666666667,3.166666666666667,ScrollDown,ScrollUp,Orange.png,3,Negative,Incongruent,0,0,0,0,,,,,,,,,,,,,,,,,,,,,0,20,20,20,,,,,,,,,,,,,,,,,,,,,,,,,,,,,,,,,,,,,,,,,,,,,,,,,,,,,,,,,,,,,,,,,,,,,,,,,,,,,1.2407407313585281,1.0281636998988688,404.03708290006034,None,ScrollDown,정답입니다,404.03708290006034,None,404.03708290006034,None,404.03708290006034,None,404.03708290006034,None,404.9616794001777,None,404.9616794001777,405.4640012001619,,,,,,,,,,,,,,,,011,2022-05-11_14h13.25.424,FishGame,2022.1.1,59.8117603591976,
,22,나를 데려가줘,6,Green,B,0,0,ScrollDown,ScrollUp,Green.png,3,NonTarget,NonTarget,0,0,0,0,,,,,,,,,,,,,,,,,,,,,0,21,21,21,,,,,,,,,,,,,,,,,,,,,,,,,,,,,,,,,,,,,,,,,,,,,,,,,,,,,,,,,,,,,,,,,,,,,,,,,,,,,1.2391975422700245,1.0591126000508666,406.0856941000093,None,ScrollDown,정답입니다,406.0856941000093,None,406.0856941000093,None,406.0856941000093,None,406.0856941000093,None,407.0470404000953,None,407.0470404000953,407.54496890003793,,,,,,,,,,,,,,,,011,2022-05-11_14h13.25.424,FishGame,2022.1.1,59.8117603591976,
,23,넌 성실해,1,Green,B,6.041666666666666,5.7,ScrollUp,ScrollDown,Green.png,3,Positive,Incongruent,0,0,0,0,,,,,,,,,,,,,,,,,,,,,0,22,22,22,,,,,,,,,,,,,,,,,,,,,,,,,,,,,,,,,,,,,,,,,,,,,,,,,,,,,,,,,,,,,,,,,,,,,,,,,,,,,1.7623456716537476,0.8427601999137551,408.1659914001357,None,ScrollUp,정답입니다,408.1659914001357,None,408.1659914001357,None,408.1659914001357,None,408.1659914001357,None,408.91159520018846,None,408.91159520018846,409.41165080014616,,,,,,,,,,,,,,,,011,2022-05-11_14h13.25.424,FishGame,2022.1.1,59.8117603591976,
,24,넌 현실주의적이야,3,Orange,A,4.625,4.4,ScrollDown,ScrollUp,Orange.png,3,Neutral,Neutral,0,0,0,0,,,,,,,,,,,,,,,,,,,,,0,23,23,23,,,,,,,,,,,,,,,,,,,,,,,,,,,,,,,,,,,,,,,,,,,,,,,,,,,,,,,,,,,,,,,,,,,,,,,,,,,,,1,1.7277679999824613,410.03432430000976,None,ScrollDown,정답입니다,410.03432430000976,None,410.03432430000976,None,410.03432430000976,None,410.03432430000976,None,411.6615552001167,None,411.6615552001167,412.1638221000321,,,,,,,,,,,,,,,,011,2022-05-11_14h13.25.424,FishGame,2022.1.1,59.8117603591976,
,25,넌 진실돼,1,Orange,A,6.625,5.566666666666666,ScrollDown,ScrollUp,Orange.png,3,Positive,Congruent,0,0,0,0,,,,,,,,,,,,,,,,,,,,,0,24,24,24,,,,,,,,,,,,,,,,,,,,,,,,,,,,,,,,,,,,,,,,,,,,,,,,,,,,,,,,,,,,,,,,,,,,,,,,,,,,,1,1.0115554998628795,412.78728210018016,None,ScrollDown,정답입니다,412.78728210018016,None,412.78728210018016,None,412.78728210018016,None,412.78728210018016,None,413.69700270006433,None,413.69700270006433,414.1948026001919,,,,,,,,,,,,,,,,011,2022-05-11_14h13.25.424,FishGame,2022.1.1,59.8117603591976,
,26,넌 천진난만해,3,Green,B,4.958333333333334,4.833333333333333,ScrollUp,ScrollDown,Green.png,3,Neutral,Neutral,0,0,0,0,,,,,,,,,,,,,,,,,,,,,0,25,25,25,,,,,,,,,,,,,,,,,,,,,,,,,,,,,,,,,,,,,,,,,,,,,,,,,,,,,,,,,,,,,,,,,,,,,,,,,,,,,1.8657407313585281,0.9108120000455528,414.82001919997856,None,ScrollUp,정답입니다,414.82001919997856,None,414.82001919997856,None,414.82001919997856,None,414.82001919997856,None,415.62805800000206,None,415.62805800000206,416.1304283000063,,,,,,,,,,,,,,,,011,2022-05-11_14h13.25.424,FishGame,2022.1.1,59.8117603591976,
,27,넌 교양없어,5,Orange,A,2.416666666666667,2.2,ScrollDown,ScrollUp,Orange.png,3,Negative,Incongruent,0,0,0,0,,,,,,,,,,,,,,,,,,,,,0,26,26,26,,,,,,,,,,,,,,,,,,,,,,,,,,,,,,,,,,,,,,,,,,,,,,,,,,,,,,,,,,,,,,,,,,,,,,,,,,,,,1.0416666567325592,1.494436299894005,416.7614441001788,None,ScrollDown,정답입니다,416.7614441001788,None,416.7614441001788,None,416.7614441001788,None,416.7614441001788,None,418.1468542001676,None,418.1468542001676,418.6468790001236,,,,,,,,,,,,,,,,011,2022-05-11_14h13.25.424,FishGame,2022.1.1,59.8117603591976,
,28,나를 보내줘,6,Orange,A,0,0,ScrollUp,ScrollDown,Orange.png,3,NonTarget,NonTarget,0,0,0,0,,,,,,,,,,,,,,,,,,,,,0,27,27,27,,,,,,,,,,,,,,,,,,,,,,,,,,,,,,,,,,,,,,,,,,,,,,,,,,,,,,,,,,,,,,,,,,,,,,,,,,,,,1.663580241302649,1.192337900167331,419.2677798999939,None,ScrollUp,정답입니다,419.2677798999939,None,419.2677798999939,None,419.2677798999939,None,419.2677798999939,None,420.36355310003273,None,420.36355310003273,420.8614819000941,,,,,,,,,,,,,,,,011,2022-05-11_14h13.25.424,FishGame,2022.1.1,59.8117603591976,
,29,넌 엉뚱스러워,3,Orange,A,4.166666666666667,4.133333333333334,ScrollDown,ScrollUp,Orange.png,3,Neutral,Neutral,0,0,0,0,,,,,,,,,,,,,,,,,,,,,0,28,28,28,,,,,,,,,,,,,,,,,,,,,,,,,,,,,,,,,,,,,,,,,,,,,,,,,,,,,,,,,,,,,,,,,,,,,,,,,,,,,1.1342592686414719,0.8598613999783993,421.4877736000344,None,ScrollDown,정답입니다,421.4877736000344,None,421.4877736000344,None,421.4877736000344,None,421.4877736000344,None,422.24471980007365,None,422.24471980007365,422.744626800064,,,,,,,,,,,,,,,,011,2022-05-11_14h13.25.424,FishGame,2022.1.1,59.8117603591976,
,30,넌 무지해,4,Green,B,2.541666666666667,3.066666666666667,ScrollUp,ScrollDown,Green.png,3,Negative,Congruent,0,0,0,0,,,,,,,,,,,,,,,,,,,,,0,29,29,29,,,,,,,,,,,,,,,,,,,,,,,,,,,,,,,,,,,,,,,,,,,,,,,,,,,,,,,,,,,,,,,,,,,,,,,,,,,,,1.609567902982235,0.8271973000373691,423.3628071001731,None,ScrollUp,정답입니다,423.3628071001731,None,423.3628071001731,None,423.3628071001731,None,423.3628071001731,None,424.0967701000627,None,424.0967701000627,424.5945068001747,,,,,,,,,,,,,,,,011,2022-05-11_14h13.25.424,FishGame,2022.1.1,59.8117603591976,
,31,넌 음울해,5,Green,B,2.25,2.233333333333333,ScrollUp,ScrollDown,Green.png,3,Negative,Congruent,0,0,0,0,,,,,,,,,,,,,,,,,,,,,0,30,30,30,,,,,,,,,,,,,,,,,,,,,,,,,,,,,,,,,,,,,,,,,,,,,,,,,,,,,,,,,,,,,,,,,,,,,,,,,,,,,1.7824074029922485,1.8588948000688106,425.2391405000817,None,ScrollUp,정답입니다,425.2391405000817,None,425.2391405000817,None,425.2391405000817,None,425.2391405000817,None,426.97757140011527,None,426.97757140011527,427.47770130005665,,,,,,,,,,,,,,,,011,2022-05-11_14h13.25.424,FishGame,2022.1.1,59.8117603591976,
,32,넌 냉소적이야,5,Orange,A,2.916666666666667,2.4,ScrollDown,ScrollUp,Orange.png,3,Negative,Incongruent,0,0,0,0,,,,,,,,,,,,,,,,,,,,,0,31,31,31,,,,,,,,,,,,,,,,,,,,,,,,,,,,,,,,,,,,,,,,,,,,,,,,,,,,,,,,,,,,,,,,,,,,,,,,,,,,,1.0385802288850148,0.9950635000132024,428.1028864001855,None,ScrollDown,정답입니다,428.1028864001855,None,428.1028864001855,None,428.1028864001855,None,428.1028864001855,None,428.9967778001446,None,428.9967778001446,429.51372300018556,,,,,,,,,,,,,,,,011,2022-05-11_14h13.25.424,FishGame,2022.1.1,59.8117603591976,
,33,나를 데려가줘,6,Green,B,0,0,ScrollDown,ScrollUp,Green.png,3,NonTarget,NonTarget,0,0,0,0,,,,,,,,,,,,,,,,,,,,,0,32,32,32,,,,,,,,,,,,,,,,,,,,,,,,,,,,,,,,,,,,,,,,,,,,,,,,,,,,,,,,,,,,,,,,,,,,,,,,,,,,,2,0.9273528000339866,430.1170967000071,None,ScrollUp,오답입니다,430.1170967000071,None,430.1170967000071,None,430.1170967000071,None,430.1170967000071,None,430.9444593000226,None,430.9444593000226,431.44685230008326,,,,,,,,,,,,,,,,011,2022-05-11_14h13.25.424,FishGame,2022.1.1,59.8117603591976,
,34,넌 쾌활해,1,Orange,A,5.541666666666666,5.733333333333333,ScrollDown,ScrollUp,Orange.png,3,Positive,Congruent,0,0,0,0,,,,,,,,,,,,,,,,,,,,,0,33,33,33,,,,,,,,,,,,,,,,,,,,,,,,,,,,,,,,,,,,,,,,,,,,,,,,,,,,,,,,,,,,,,,,,,,,,,,,,,,,,1,0.8285498998593539,432.0679035000503,None,ScrollDown,정답입니다,432.0679035000503,None,432.0679035000503,None,432.0679035000503,None,432.0679035000503,None,432.7944361001719,None,432.7944361001719,433.29655560012907,,,,,,,,,,,,,,,,011,2022-05-11_14h13.25.424,FishGame,2022.1.1,59.8117603591976,
,35,나를 보내줘,6,Orange,A,0,0,ScrollUp,ScrollDown,Orange.png,3,NonTarget,NonTarget,0,0,0,0,,,,,,,,,,,,,,,,,,,,,0,34,34,34,,,,,,,,,,,,,,,,,,,,,,,,,,,,,,,,,,,,,,,,,,,,,,,,,,,,,,,,,,,,,,,,,,,,,,,,,,,,,1.674382713933786,0.8455759000498801,433.9227782001253,None,ScrollUp,정답입니다,433.9227782001253,None,433.9227782001253,None,433.9227782001253,None,433.9227782001253,None,434.6609827000648,None,434.6609827000648,435.1631834001746,,,,,,,,,,,,,,,,011,2022-05-11_14h13.25.424,FishGame,2022.1.1,59.8117603591976,
,36,넌 명랑해,1,Green,B,5.739130434782609,5.666666666666667,ScrollUp,ScrollDown,Green.png,3,Positive,Incongruent,0,0,0,0,,,,,,,,,,,,,,,,,,,,,0,35,35,35,,,,,,,,,,,,,,,,,,,,,,,,,,,,,,,,,,,,,,,,,,,,,,,,,,,,,,,,,,,,,,,,,,,,,,,,,,,,,1.6697530845801034,0.9113538998644799,435.7894987000618,None,ScrollUp,정답입니다,435.7894987000618,None,435.7894987000618,None,435.7894987000618,None,435.7894987000618,None,436.59434389998205,None,436.59434389998205,437.096656100126,,,,,,,,,,,,,,,,011,2022-05-11_14h13.25.424,FishGame,2022.1.1,59.8117603591976,
,37,넌 멍해,4,Orange,A,2.833333333333333,3.4,ScrollDown,ScrollUp,Orange.png,3,Negative,Incongruent,0,0,0,0,,,,,,,,,,,,,,,,,,,,,0,36,36,36,,,,,,,,,,,,,,,,,,,,,,,,,,,,,,,,,,,,,,,,,,,,,,,,,,,,,,,,,,,,,,,,,,,,,,,,,,,,,1,1.1418200000189245,437.7337766001001,None,ScrollDown,정답입니다,437.7337766001001,None,437.7337766001001,None,437.7337766001001,None,437.7337766001001,None,438.7606497001834,None,438.7606497001834,439.26076960004866,,,,,,,,,,,,,,,,011,2022-05-11_14h13.25.424,FishGame,2022.1.1,59.8117603591976,
,38,나를 데려가줘,6,Green,B,0,0,ScrollDown,ScrollUp,Green.png,3,NonTarget,NonTarget,0,0,0,0,,,,,,,,,,,,,,,,,,,,,0,37,37,37,,,,,,,,,,,,,,,,,,,,,,,,,,,,,,,,,,,,,,,,,,,,,,,,,,,,,,,,,,,,,,,,,,,,,,,,,,,,,1.1728395173947017,1.128679299959913,439.87756470008753,None,ScrollDown,정답입니다,439.87756470008753,None,439.87756470008753,None,439.87756470008753,None,439.87756470008753,None,440.9131798001472,None,440.9131798001472,441.4113495000638,,,,,,,,,,,,,,,,011,2022-05-11_14h13.25.424,FishGame,2022.1.1,59.8117603591976,
,39,넌 현명해,2,Orange,A,6.541666666666666,4.533333333333333,ScrollDown,ScrollUp,Orange.png,3,Positive,Congruent,0,0,0,0,,,,,,,,,,,,,,,,,,,,,0,38,38,38,,,,,,,,,,,,,,,,,,,,,,,,,,,,,,,,,,,,,,,,,,,,,,,,,,,,,,,,,,,,,,,,,,,,,,,,,,,,,1,1.0526522998698056,442.03461460000835,None,ScrollDown,정답입니다,442.03461460000835,None,442.03461460000835,None,442.03461460000835,None,442.03461460000835,None,442.9775035001803,None,442.9775035001803,443.47760380012915,,,,,,,,,,,,,,,,011,2022-05-11_14h13.25.424,FishGame,2022.1.1,59.8117603591976,
,40,넌 수줍어,3,Green,B,3.541666666666666,4.366666666666666,ScrollUp,ScrollDown,Green.png,3,Neutral,Neutral,0,0,0,0,,,,,,,,,,,,,,,,,,,,,0,39,39,39,,,,,,,,,,,,,,,,,,,,,,,,,,,,,,,,,,,,,,,,,,,,,,,,,,,,,,,,,,,,,,,,,,,,,,,,,,,,,1.663580241302649,1.1282879998907447,444.0981764001772,None,ScrollUp,정답입니다,444.0981764001772,None,444.0981764001772,None,444.0981764001772,None,444.0981764001772,None,445.1274861001875,None,445.1274861001875,445.62957650003955,,,,,,,,,,,,,,,,011,2022-05-11_14h13.25.424,FishGame,2022.1.1,59.8117603591976,
,41,나를 데려가줘,6,Green,B,0,0,ScrollDown,ScrollUp,Green.png,3,NonTarget,NonTarget,0,0,0,0,,,,,,,,,,,,,,,,,,,,,0,40,40,40,,,,,,,,,,,,,,,,,,,,,,,,,,,,,,,,,,,,,,,,,,,,,,,,,,,,,,,,,,,,,,,,,,,,,,,,,,,,,1.0432098706563313,1.075660000089556,446.2538995000068,None,ScrollDown,정답입니다,446.2538995000068,None,446.2538995000068,None,446.2538995000068,None,446.2538995000068,None,447.22954500000924,None,447.22954500000924,447.74427950009704,,,,,,,,,,,,,,,,011,2022-05-11_14h13.25.424,FishGame,2022.1.1,59.8117603591976,
,42,넌 성숙해,2,Green,B,5.833333333333333,4.533333333333333,ScrollUp,ScrollDown,Green.png,3,Positive,Incongruent,0,0,0,0,,,,,,,,,,,,,,,,,,,,,0,41,41,41,,,,,,,,,,,,,,,,,,,,,,,,,,,,,,,,,,,,,,,,,,,,,,,,,,,,,,,,,,,,,,,,,,,,,,,,,,,,,1.6203703756133714,1.339935899944976,448.3492769000586,None,ScrollUp,정답입니다,448.3492769000586,None,448.3492769000586,None,448.3492769000586,None,448.3492769000586,None,449.5893887002021,None,449.5893887002021,450.09386320016347,,,,,,,,,,,,,,,,011,2022-05-11_14h13.25.424,FishGame,2022.1.1,59.8117603591976,
,1,넌 매력적이야,2,Green,B,6.125,4.666666666666667,ScrollUp,ScrollDown,Green.png,4,Positive,Incongruent,0,0,0,0,,,,,,,,,,,,,,,,,,,,,,,,,0,0,0,0,,,,,,,,,,,,,,,,,,,,,,,,,,,,,,,,482.376632100204,483.8821186001878,483.89318810007535,484.8432683001738,484.9099801001139,485.8654305001255,485.848780100001,None,,,,,,,,,,,,,,,,,,,,,,,,,,,,,,,,,,2,0.9838745000306517,486.958447100129,None,ScrollUp,정답입니다,486.958447100129,None,486.958447100129,None,486.958447100129,None,486.958447100129,None,487.8432236001827,None,487.8432236001827,488.34326090011746,450.5938020001631,None,450.5938020001631,None,0.17870371,-0.11111111,1,0,0,0.016260579926893115,None,480.59551240014844,None,,,011,2022-05-11_14h13.25.424,FishGame,2022.1.1,59.8117603591976,
,2,나를 보내줘,6,Orange,A,0,0,ScrollUp,ScrollDown,Orange.png,4,NonTarget,NonTarget,0,0,0,0,,,,,,,,,,,,,,,,,,,,,,,,,0,1,1,1,,,,,,,,,,,,,,,,,,,,,,,,,,,,,,,,,,,,,,,,,,,,,,,,,,,,,,,,,,,,,,,,,,,,,,,,,2,1.3090458998922259,488.967814499978,None,ScrollUp,정답입니다,488.967814499978,None,488.967814499978,None,488.967814499978,None,488.967814499978,None,490.17648930009454,None,490.17648930009454,490.67870740010403,,,,,,,,,,,,,,,,011,2022-05-11_14h13.25.424,FishGame,2022.1.1,59.8117603591976,
,3,넌 조심스러워,3,Orange,A,4.791666666666666,4.666666666666667,ScrollDown,ScrollUp,Orange.png,4,Neutral,Neutral,0,0,0,0,,,,,,,,,,,,,,,,,,,,,,,,,0,2,2,2,,,,,,,,,,,,,,,,,,,,,,,,,,,,,,,,,,,,,,,,,,,,,,,,,,,,,,,,,,,,,,,,,,,,,,,,,1.160493830839793,1.493412199895829,491.3004918000661,None,ScrollDown,정답입니다,491.3004918000661,None,491.3004918000661,None,491.3004918000661,None,491.3004918000661,None,492.69528780016117,None,492.69528780016117,493.1952355001122,,,,,,,,,,,,,,,,011,2022-05-11_14h13.25.424,FishGame,2022.1.1,59.8117603591976,
,4,넌 철학적이야,3,Green,B,4.5,4.266666666666667,ScrollUp,ScrollDown,Green.png,4,Neutral,Neutral,0,0,0,0,,,,,,,,,,,,,,,,,,,,,,,,,0,3,3,3,,,,,,,,,,,,,,,,,,,,,,,,,,,,,,,,,,,,,,,,,,,,,,,,,,,,,,,,,,,,,,,,,,,,,,,,,1.6898148159186044,1.0590868000872433,493.82579610007815,None,ScrollUp,정답입니다,493.82579610007815,None,493.82579610007815,None,493.82579610007815,None,493.82579610007815,None,494.7784987001214,None,494.7784987001214,495.2931338001508,,,,,,,,,,,,,,,,011,2022-05-11_14h13.25.424,FishGame,2022.1.1,59.8117603591976,
,5,넌 쩨쩨해,5,Orange,A,2.375,2.133333333333333,ScrollDown,ScrollUp,Orange.png,4,Negative,Incongruent,0,0,0,0,,,,,,,,,,,,,,,,,,,,,,,,,0,4,4,4,,,,,,,,,,,,,,,,,,,,,,,,,,,,,,,,,,,,,,,,,,,,,,,,,,,,,,,,,,,,,,,,,,,,,,,,,1.1172839403152466,0.8592739999294281,495.9219868001528,None,ScrollDown,정답입니다,495.9219868001528,None,495.9219868001528,None,495.9219868001528,None,495.9219868001528,None,496.67634720006026,None,496.67634720006026,497.1763922001701,,,,,,,,,,,,,,,,011,2022-05-11_14h13.25.424,FishGame,2022.1.1,59.8117603591976,
,6,나를 데려가줘,6,Green,B,0,0,ScrollDown,ScrollUp,Green.png,4,NonTarget,NonTarget,0,0,0,0,,,,,,,,,,,,,,,,,,,,,,,,,0,5,5,5,,,,,,,,,,,,,,,,,,,,,,,,,,,,,,,,,,,,,,,,,,,,,,,,,,,,,,,,,,,,,,,,,,,,,,,,,1.1990740795930226,1.0456389000173658,497.8018317001406,None,ScrollDown,정답입니다,497.8018317001406,None,497.8018317001406,None,497.8018317001406,None,497.8018317001406,None,498.74293659999967,None,498.74293659999967,499.2431769000832,,,,,,,,,,,,,,,,011,2022-05-11_14h13.25.424,FishGame,2022.1.1,59.8117603591976,
,7,넌 고집불통이야,5,Green,B,2.875,2,ScrollUp,ScrollDown,Green.png,4,Negative,Congruent,0,0,0,0,,,,,,,,,,,,,,,,,,,,,,,,,0,6,6,6,,,,,,,,,,,,,,,,,,,,,,,,,,,,,,,,,,,,,,,,,,,,,,,,,,,,,,,,,,,,,,,,,,,,,,,,,1.6311728358268738,0.9281214999500662,499.86713999998756,None,ScrollUp,정답입니다,499.86713999998756,None,499.86713999998756,None,499.86713999998756,None,499.86713999998756,None,500.6929641000461,None,500.6929641000461,501.1952570001595,,,,,,,,,,,,,,,,011,2022-05-11_14h13.25.424,FishGame,2022.1.1,59.8117603591976,
,8,넌 무심해,4,Orange,A,2.875,3.2,ScrollDown,ScrollUp,Orange.png,4,Negative,Incongruent,0,0,0,0,,,,,,,,,,,,,,,,,,,,,,,,,0,7,7,7,,,,,,,,,,,,,,,,,,,,,,,,,,,,,,,,,,,,,,,,,,,,,,,,,,,,,,,,,,,,,,,,,,,,,,,,,1,0.7925267000682652,501.81700460007414,None,ScrollDown,정답입니다,501.81700460007414,None,501.81700460007414,None,501.81700460007414,None,501.81700460007414,None,502.5095791001804,None,502.5095791001804,503.0096079001669,,,,,,,,,,,,,,,,011,2022-05-11_14h13.25.424,FishGame,2022.1.1,59.8117603591976,
,9,넌 정겨워,1,Orange,A,5.791666666666667,5.666666666666667,ScrollDown,ScrollUp,Orange.png,4,Positive,Congruent,0,0,0,0,,,,,,,,,,,,,,,,,,,,,,,,,0,8,8,8,,,,,,,,,,,,,,,,,,,,,,,,,,,,,,,,,,,,,,,,,,,,,,,,,,,,,,,,,,,,,,,,,,,,,,,,,1.0586419602235158,0.9117390001192689,503.63911320012994,None,ScrollDown,정답입니다,503.63911320012994,None,503.63911320012994,None,503.63911320012994,None,503.63911320012994,None,504.44280460011214,None,504.44280460011214,504.9428877001628,,,,,,,,,,,,,,,,011,2022-05-11_14h13.25.424,FishGame,2022.1.1,59.8117603591976,
,10,나를 데려가줘,6,Green,B,0,0,ScrollDown,ScrollUp,Green.png,4,NonTarget,NonTarget,0,0,0,0,,,,,,,,,,,,,,,,,,,,,,,,,0,9,9,9,,,,,,,,,,,,,,,,,,,,,,,,,,,,,,,,,,,,,,,,,,,,,,,,,,,,,,,,,,,,,,,,,,,,,,,,,1,1.1948065999895334,505.57094780006446,None,ScrollDown,정답입니다,505.57094780006446,None,505.57094780006446,None,505.57094780006446,None,505.57094780006446,None,506.6595044999849,None,506.6595044999849,507.15951870009303,,,,,,,,,,,,,,,,011,2022-05-11_14h13.25.424,FishGame,2022.1.1,59.8117603591976,
,11,넌 체제순응적이야,4,Green,B,3,3.6,ScrollUp,ScrollDown,Green.png,4,Negative,Congruent,0,0,0,0,,,,,,,,,,,,,,,,,,,,,,,,,0,10,10,10,,,,,,,,,,,,,,,,,,,,,,,,,,,,,,,,,,,,,,,,,,,,,,,,,,,,,,,,,,,,,,,,,,,,,,,,,1.9027777661879857,1.3922055000439286,507.79522710014135,None,ScrollUp,정답입니다,507.79522710014135,None,507.79522710014135,None,507.79522710014135,None,507.79522710014135,None,509.07602900010534,None,509.07602900010534,509.5761709001381,,,,,,,,,,,,,,,,011,2022-05-11_14h13.25.424,FishGame,2022.1.1,59.8117603591976,
,12,나를 보내줘,6,Orange,A,0,0,ScrollUp,ScrollDown,Orange.png,4,NonTarget,NonTarget,0,0,0,0,,,,,,,,,,,,,,,,,,,,,,,,,0,11,11,11,,,,,,,,,,,,,,,,,,,,,,,,,,,,,,,,,,,,,,,,,,,,,,,,,,,,,,,,,,,,,,,,,,,,,,,,,1.9320987562338512,1.00905070011504,510.19963779998943,None,ScrollUp,정답입니다,510.19963779998943,None,510.19963779998943,None,510.19963779998943,None,510.19963779998943,None,511.10938080004416,None,511.10938080004416,511.6094126000535,,,,,,,,,,,,,,,,011,2022-05-11_14h13.25.424,FishGame,2022.1.1,59.8117603591976,
,13,넌 박식해,2,Orange,A,5.625,3.933333333333333,ScrollDown,ScrollUp,Orange.png,4,Positive,Congruent,0,0,0,0,,,,,,,,,,,,,,,,,,,,,,,,,0,12,12,12,,,,,,,,,,,,,,,,,,,,,,,,,,,,,,,,,,,,,,,,,,,,,,,,,,,,,,,,,,,,,,,,,,,,,,,,,1,1.158922600094229,512.2378758999985,None,ScrollDown,정답입니다,512.2378758999985,None,512.2378758999985,None,512.2378758999985,None,512.2378758999985,None,513.2926082999911,None,513.2926082999911,513.7950181001797,,,,,,,,,,,,,,,,011,2022-05-11_14h13.25.424,FishGame,2022.1.1,59.8117603591976,
,14,나를 보내줘,6,Orange,A,0,0,ScrollUp,ScrollDown,Orange.png,4,NonTarget,NonTarget,0,0,0,0,,,,,,,,,,,,,,,,,,,,,,,,,0,13,13,13,,,,,,,,,,,,,,,,,,,,,,,,,,,,,,,,,,,,,,,,,,,,,,,,,,,,,,,,,,,,,,,,,,,,,,,,,1.8919753183921177,1.2779522999189794,514.4148113001138,None,ScrollUp,정답입니다,514.4148113001138,None,514.4148113001138,None,514.4148113001138,None,514.4148113001138,None,515.5925896000117,None,515.5925896000117,516.0927459001541,,,,,,,,,,,,,,,,011,2022-05-11_14h13.25.424,FishGame,2022.1.1,59.8117603591976,
,15,넌 침착해,1,Green,B,5.458333333333333,5.566666666666666,ScrollUp,ScrollDown,Green.png,4,Positive,Incongruent,0,0,0,0,,,,,,,,,,,,,,,,,,,,,,,,,0,14,14,14,,,,,,,,,,,,,,,,,,,,,,,,,,,,,,,,,,,,,,,,,,,,,,,,,,,,,,,,,,,,,,,,,,,,,,,,,1.549382715175549,0.8114459998905659,516.7195094001945,None,NoResponse,무응답입니다,516.7195094001945,None,516.7195094001945,None,516.7195094001945,None,516.7195094001945,None,517.4280960001051,None,517.4280960001051,517.9448011000641,,,,,,,,,,,,,,,,011,2022-05-11_14h13.25.424,FishGame,2022.1.1,59.8117603591976,
,16,나를 데려가줘,6,Green,B,0,0,ScrollDown,ScrollUp,Green.png,4,NonTarget,NonTarget,0,0,0,0,,,,,,,,,,,,,,,,,,,,,,,,,0,15,15,15,,,,,,,,,,,,,,,,,,,,,,,,,,,,,,,,,,,,,,,,,,,,,,,,,,,,,,,,,,,,,,,,,,,,,,,,,1.0432098706563313,1.093863100046292,518.5641520000063,None,ScrollDown,정답입니다,518.5641520000063,None,518.5641520000063,None,518.5641520000063,None,518.5641520000063,None,519.5591422000434,None,519.5591422000434,520.0591449001804,,,,,,,,,,,,,,,,011,2022-05-11_14h13.25.424,FishGame,2022.1.1,59.8117603591976,
,17,넌 행복해,1,Orange,A,6.416666666666666,6.166666666666667,ScrollDown,ScrollUp,Orange.png,4,Positive,Congruent,0,0,0,0,,,,,,,,,,,,,,,,,,,,,,,,,0,16,16,16,,,,,,,,,,,,,,,,,,,,,,,,,,,,,,,,,,,,,,,,,,,,,,,,,,,,,,,,,,,,,,,,,,,,,,,,,1.1635802586873372,0.777696100063622,520.6857209000736,None,ScrollDown,정답입니다,520.6857209000736,None,520.6857209000736,None,520.6857209000736,None,520.6857209000736,None,521.3591591001023,None,521.3591591001023,521.8592124001589,,,,,,,,,,,,,,,,011,2022-05-11_14h13.25.424,FishGame,2022.1.1,59.8117603591976,
,18,넌 겸손해,2,Green,B,5.791666666666667,4.766666666666667,ScrollUp,ScrollDown,Green.png,4,Positive,Incongruent,0,0,0,0,,,,,,,,,,,,,,,,,,,,,,,,,0,17,17,17,,,,,,,,,,,,,,,,,,,,,,,,,,,,,,,,,,,,,,,,,,,,,,,,,,,,,,,,,,,,,,,,,,,,,,,,,1.6435185223817825,0.8441373999230564,522.4871035001706,None,ScrollUp,정답입니다,522.4871035001706,None,522.4871035001706,None,522.4871035001706,None,522.4871035001706,None,523.2257235001307,None,523.2257235001307,523.7257876000367,,,,,,,,,,,,,,,,011,2022-05-11_14h13.25.424,FishGame,2022.1.1,59.8117603591976,
,19,나를 보내줘,6,Orange,A,0,0,ScrollUp,ScrollDown,Orange.png,4,NonTarget,NonTarget,0,0,0,0,,,,,,,,,,,,,,,,,,,,,,,,,0,18,18,18,,,,,,,,,,,,,,,,,,,,,,,,,,,,,,,,,,,,,,,,,,,,,,,,,,,,,,,,,,,,,,,,,,,,,,,,,1.7731481442848842,0.9112396999262273,524.3517897999845,None,ScrollUp,정답입니다,524.3517897999845,None,524.3517897999845,None,524.3517897999845,None,524.3517897999845,None,525.1590555000585,None,525.1590555000585,525.6589331000578,,,,,,,,,,,,,,,,011,2022-05-11_14h13.25.424,FishGame,2022.1.1,59.8117603591976,
,20,넌 의심없어,3,Orange,A,4.166666666666667,4.6,ScrollDown,ScrollUp,Orange.png,4,Neutral,Neutral,0,0,0,0,,,,,,,,,,,,,,,,,,,,,,,,,0,19,19,19,,,,,,,,,,,,,,,,,,,,,,,,,,,,,,,,,,,,,,,,,,,,,,,,,,,,,,,,,,,,,,,,,,,,,,,,,1,0.8792876000516117,526.2803762000985,None,ScrollDown,정답입니다,526.2803762000985,None,526.2803762000985,None,526.2803762000985,None,526.2803762000985,None,527.0590425999835,None,527.0590425999835,527.5591105001513,,,,,,,,,,,,,,,,011,2022-05-11_14h13.25.424,FishGame,2022.1.1,59.8117603591976,
,21,넌 시시해,4,Orange,A,2.666666666666667,2.966666666666667,ScrollDown,ScrollUp,Orange.png,4,Negative,Incongruent,0,0,0,0,,,,,,,,,,,,,,,,,,,,,,,,,0,20,20,20,,,,,,,,,,,,,,,,,,,,,,,,,,,,,,,,,,,,,,,,,,,,,,,,,,,,,,,,,,,,,,,,,,,,,,,,,1,0.877012100070715,528.1819005000871,None,ScrollDown,정답입니다,528.1819005000871,None,528.1819005000871,None,528.1819005000871,None,528.1819005000871,None,528.9589393001515,None,528.9589393001515,529.4590610000305,,,,,,,,,,,,,,,,011,2022-05-11_14h13.25.424,FishGame,2022.1.1,59.8117603591976,
,22,나를 데려가줘,6,Green,B,0,0,ScrollDown,ScrollUp,Green.png,4,NonTarget,NonTarget,0,0,0,0,,,,,,,,,,,,,,,,,,,,,,,,,0,21,21,21,,,,,,,,,,,,,,,,,,,,,,,,,,,,,,,,,,,,,,,,,,,,,,,,,,,,,,,,,,,,,,,,,,,,,,,,,1,1.8592570000328124,530.0834045000374,None,ScrollDown,정답입니다,530.0834045000374,None,530.0834045000374,None,530.0834045000374,None,530.0834045000374,None,531.8422558000311,None,531.8422558000311,532.3422426001634,,,,,,,,,,,,,,,,011,2022-05-11_14h13.25.424,FishGame,2022.1.1,59.8117603591976,
,23,넌 무정해,5,Orange,A,2.5,2.2,ScrollDown,ScrollUp,Orange.png,4,Negative,Incongruent,0,0,0,0,,,,,,,,,,,,,,,,,,,,,,,,,0,22,22,22,,,,,,,,,,,,,,,,,,,,,,,,,,,,,,,,,,,,,,,,,,,,,,,,,,,,,,,,,,,,,,,,,,,,,,,,,1.1635802586873372,0.7593334999401122,532.9677648001816,None,ScrollDown,정답입니다,532.9677648001816,None,532.9677648001816,None,532.9677648001816,None,532.9677648001816,None,533.6277670001145,None,533.6277670001145,534.147930999985,,,,,,,,,,,,,,,,011,2022-05-11_14h13.25.424,FishGame,2022.1.1,59.8117603591976,
,24,넌 긍정적이야,1,Green,B,6.041666666666667,6.066666666666666,ScrollUp,ScrollDown,Green.png,4,Positive,Incongruent,0,0,0,0,,,,,,,,,,,,,,,,,,,,,,,,,0,23,23,23,,,,,,,,,,,,,,,,,,,,,,,,,,,,,,,,,,,,,,,,,,,,,,,,,,,,,,,,,,,,,,,,,,,,,,,,,1.7530864129463832,1.0593956001102924,534.7661684001796,None,ScrollUp,정답입니다,534.7661684001796,None,534.7661684001796,None,534.7661684001796,None,534.7661684001796,None,535.7277060002089,None,535.7277060002089,536.2422560001723,,,,,,,,,,,,,,,,011,2022-05-11_14h13.25.424,FishGame,2022.1.1,59.8117603591976,
,25,나를 보내줘,6,Orange,A,0,0,ScrollUp,ScrollDown,Orange.png,4,NonTarget,NonTarget,0,0,0,0,,,,,,,,,,,,,,,,,,,,,,,,,0,24,24,24,,,,,,,,,,,,,,,,,,,,,,,,,,,,,,,,,,,,,,,,,,,,,,,,,,,,,,,,,,,,,,,,,,,,,,,,,1.9351851840813954,1.0758408000692725,536.8517791000195,None,ScrollUp,정답입니다,536.8517791000195,None,536.8517791000195,None,536.8517791000195,None,536.8517791000195,None,537.8254875000566,None,537.8254875000566,538.3255150001496,,,,,,,,,,,,,,,,011,2022-05-11_14h13.25.424,FishGame,2022.1.1,59.8117603591976,
,26,넌 시기심이 많아,5,Green,B,2.458333333333333,2.233333333333333,ScrollUp,ScrollDown,Green.png,4,Negative,Congruent,0,0,0,0,,,,,,,,,,,,,,,,,,,,,,,,,0,25,25,25,,,,,,,,,,,,,,,,,,,,,,,,,,,,,,,,,,,,,,,,,,,,,,,,,,,,,,,,,,,,,,,,,,,,,,,,,1.8858024626970291,1.1425458998419344,538.9542010000441,None,ScrollUp,정답입니다,538.9542010000441,None,538.9542010000441,None,538.9542010000441,None,538.9542010000441,None,539.9942036999855,None,539.9942036999855,540.5087902001105,,,,,,,,,,,,,,,,011,2022-05-11_14h13.25.424,FishGame,2022.1.1,59.8117603591976,
,27,넌 탁월해,2,Orange,A,5.708333333333334,4.5,ScrollDown,ScrollUp,Orange.png,4,Positive,Congruent,0,0,0,0,,,,,,,,,,,,,,,,,,,,,,,,,0,26,26,26,,,,,,,,,,,,,,,,,,,,,,,,,,,,,,,,,,,,,,,,,,,,,,,,,,,,,,,,,,,,,,,,,,,,,,,,,1.0833333333333333,1.7756124997977167,541.1172899000812,None,ScrollDown,정답입니다,541.1172899000812,None,541.1172899000812,None,541.1172899000812,None,541.1172899000812,None,542.7941904000472,None,542.7941904000472,543.2943564001471,,,,,,,,,,,,,,,,011,2022-05-11_14h13.25.424,FishGame,2022.1.1,59.8117603591976,
,28,나를 데려가줘,6,Green,B,0,0,ScrollDown,ScrollUp,Green.png,4,NonTarget,NonTarget,0,0,0,0,,,,,,,,,,,,,,,,,,,,,,,,,0,27,27,27,,,,,,,,,,,,,,,,,,,,,,,,,,,,,,,,,,,,,,,,,,,,,,,,,,,,,,,,,,,,,,,,,,,,,,,,,1.0833333333333333,1.7437097998335958,543.9154829001054,None,ScrollDown,정답입니다,543.9154829001054,None,543.9154829001054,None,543.9154829001054,None,543.9154829001054,None,545.558583300095,None,545.558583300095,546.0608557001688,,,,,,,,,,,,,,,,011,2022-05-11_14h13.25.424,FishGame,2022.1.1,59.8117603591976,
,29,넌 조용해,3,Green,B,4.333333333333333,4.166666666666667,ScrollUp,ScrollDown,Green.png,4,Neutral,Neutral,0,0,0,0,,,,,,,,,,,,,,,,,,,,,,,,,0,28,28,28,,,,,,,,,,,,,,,,,,,,,,,,,,,,,,,,,,,,,,,,,,,,,,,,,,,,,,,,,,,,,,,,,,,,,,,,,1.839506169160207,0.8933638001326472,546.6821725000627,None,ScrollUp,정답입니다,546.6821725000627,None,546.6821725000627,None,546.6821725000627,None,546.6821725000627,None,547.4752799000125,None,547.4752799000125,547.9752955001313,,,,,,,,,,,,,,,,011,2022-05-11_14h13.25.424,FishGame,2022.1.1,59.8117603591976,
,30,넌 다정해,1,Orange,A,5.833333333333334,5.7,ScrollDown,ScrollUp,Orange.png,4,Positive,Congruent,0,0,0,0,,,,,,,,,,,,,,,,,,,,,,,,,0,29,29,29,,,,,,,,,,,,,,,,,,,,,,,,,,,,,,,,,,,,,,,,,,,,,,,,,,,,,,,,,,,,,,,,,,,,,,,,,1,0.9602252999320626,548.6010150001384,None,ScrollDown,정답입니다,548.6010150001384,None,548.6010150001384,None,548.6010150001384,None,548.6010150001384,None,549.458486800082,None,549.458486800082,549.9607169001829,,,,,,,,,,,,,,,,011,2022-05-11_14h13.25.424,FishGame,2022.1.1,59.8117603591976,
,31,넌 능력있어,2,Green,B,6.166666666666666,4.6,ScrollUp,ScrollDown,Green.png,4,Positive,Incongruent,0,0,0,0,,,,,,,,,,,,,,,,,,,,,,,,,0,30,30,30,,,,,,,,,,,,,,,,,,,,,,,,,,,,,,,,,,,,,,,,,,,,,,,,,,,,,,,,,,,,,,,,,,,,,,,,,1.7839506169160206,0.9278001999482512,550.5789775000885,None,ScrollUp,정답입니다,550.5789775000885,None,550.5789775000885,None,550.5789775000885,None,550.5789775000885,None,551.410667499993,None,551.410667499993,551.9255508000497,,,,,,,,,,,,,,,,011,2022-05-11_14h13.25.424,FishGame,2022.1.1,59.8117603591976,
,32,넌 불쾌해,5,Orange,A,2.125,1.933333333333333,ScrollDown,ScrollUp,Orange.png,4,Negative,Incongruent,0,0,0,0,,,,,,,,,,,,,,,,,,,,,,,,,0,31,31,31,,,,,,,,,,,,,,,,,,,,,,,,,,,,,,,,,,,,,,,,,,,,,,,,,,,,,,,,,,,,,,,,,,,,,,,,,1.1064814925193787,0.9430806001182646,552.5356195000932,None,ScrollDown,정답입니다,552.5356195000932,None,552.5356195000932,None,552.5356195000932,None,552.5356195000932,None,553.374848500127,None,553.374848500127,553.8749704000074,,,,,,,,,,,,,,,,011,2022-05-11_14h13.25.424,FishGame,2022.1.1,59.8117603591976,
,33,나를 데려가줘,6,Green,B,0,0,ScrollDown,ScrollUp,Green.png,4,NonTarget,NonTarget,0,0,0,0,,,,,,,,,,,,,,,,,,,,,,,,,0,32,32,32,,,,,,,,,,,,,,,,,,,,,,,,,,,,,,,,,,,,,,,,,,,,,,,,,,,,,,,,,,,,,,,,,,,,,,,,,1.0385802288850148,1.3953882998321205,554.4959703001659,None,ScrollDown,정답입니다,554.4959703001659,None,554.4959703001659,None,554.4959703001659,None,554.4959703001659,None,555.7940792001318,None,555.7940792001318,556.2944163000211,,,,,,,,,,,,,,,,011,2022-05-11_14h13.25.424,FishGame,2022.1.1,59.8117603591976,
,34,넌 유순해,3,Orange,A,4.458333333333333,5,ScrollDown,ScrollUp,Orange.png,4,Neutral,Neutral,0,0,0,0,,,,,,,,,,,,,,,,,,,,,,,,,0,33,33,33,,,,,,,,,,,,,,,,,,,,,,,,,,,,,,,,,,,,,,,,,,,,,,,,,,,,,,,,,,,,,,,,,,,,,,,,,1,1.0815451999660581,556.9121146001853,None,ScrollDown,정답입니다,556.9121146001853,None,556.9121146001853,None,556.9121146001853,None,556.9121146001853,None,557.8917072000913,None,557.8917072000913,558.3920431002043,,,,,,,,,,,,,,,,011,2022-05-11_14h13.25.424,FishGame,2022.1.1,59.8117603591976,
,35,넌 근심스러워,4,Green,B,2.708333333333333,3.133333333333333,ScrollUp,ScrollDown,Green.png,4,Negative,Congruent,0,0,0,0,,,,,,,,,,,,,,,,,,,,,,,,,0,34,34,34,,,,,,,,,,,,,,,,,,,,,,,,,,,,,,,,,,,,,,,,,,,,,,,,,,,,,,,,,,,,,,,,,,,,,,,,,1.7160493781169257,0.8591535000596195,559.0182153000496,None,ScrollUp,정답입니다,559.0182153000496,None,559.0182153000496,None,559.0182153000496,None,559.0182153000496,None,559.7750140000135,None,559.7750140000135,560.2751437001862,,,,,,,,,,,,,,,,011,2022-05-11_14h13.25.424,FishGame,2022.1.1,59.8117603591976,
,36,넌 세련되었어,2,Orange,A,5.5,4.6,ScrollDown,ScrollUp,Orange.png,4,Positive,Congruent,0,0,0,0,,,,,,,,,,,,,,,,,,,,,,,,,0,35,35,35,,,,,,,,,,,,,,,,,,,,,,,,,,,,,,,,,,,,,,,,,,,,,,,,,,,,,,,,,,,,,,,,,,,,,,,,,1,0.9760590000078082,560.905674100155,None,ScrollDown,정답입니다,560.905674100155,None,560.905674100155,None,560.905674100155,None,560.905674100155,None,561.7747755001765,None,561.7747755001765,562.2772652001586,,,,,,,,,,,,,,,,011,2022-05-11_14h13.25.424,FishGame,2022.1.1,59.8117603591976,
,37,나를 보내줘,6,Orange,A,0,0,ScrollUp,ScrollDown,Orange.png,4,NonTarget,NonTarget,0,0,0,0,,,,,,,,,,,,,,,,,,,,,,,,,0,36,36,36,,,,,,,,,,,,,,,,,,,,,,,,,,,,,,,,,,,,,,,,,,,,,,,,,,,,,,,,,,,,,,,,,,,,,,,,,1.6604938258727393,1.2282885001040995,562.8956735001411,None,ScrollUp,정답입니다,562.8956735001411,None,562.8956735001411,None,562.8956735001411,None,562.8956735001411,None,564.0249384001363,None,564.0249384001363,564.5249946999829,,,,,,,,,,,,,,,,011,2022-05-11_14h13.25.424,FishGame,2022.1.1,59.8117603591976,
,38,넌 확고해,3,Green,B,4.708333333333334,4.566666666666666,ScrollUp,ScrollDown,Green.png,4,Neutral,Neutral,0,0,0,0,,,,,,,,,,,,,,,,,,,,,,,,,0,37,37,37,,,,,,,,,,,,,,,,,,,,,,,,,,,,,,,,,,,,,,,,,,,,,,,,,,,,,,,,,,,,,,,,,,,,,,,,,1.6280864203969636,1.0814875999931246,565.1404295000248,None,ScrollUp,정답입니다,565.1404295000248,None,565.1404295000248,None,565.1404295000248,None,565.1404295000248,None,566.1248090001754,None,566.1248090001754,566.6251780001912,,,,,,,,,,,,,,,,011,2022-05-11_14h13.25.424,FishGame,2022.1.1,59.8117603591976,
,39,넌 이해심이 많아,1,Green,B,6.041666666666668,5.533333333333333,ScrollUp,ScrollDown,Green.png,4,Positive,Incongruent,0,0,0,0,,,,,,,,,,,,,,,,,,,,,,,,,0,38,38,38,,,,,,,,,,,,,,,,,,,,,,,,,,,,,,,,,,,,,,,,,,,,,,,,,,,,,,,,,,,,,,,,,,,,,,,,,1.3950617263714473,1.0940417000092566,567.2441240001936,None,ScrollDown,오답입니다,567.2441240001936,None,567.2441240001936,None,567.2441240001936,None,567.2441240001936,None,568.243631800171,None,568.243631800171,568.7581966000143,,,,,,,,,,,,,,,,011,2022-05-11_14h13.25.424,FishGame,2022.1.1,59.8117603591976,
,40,나를 보내줘,6,Orange,A,0,0,ScrollUp,ScrollDown,Orange.png,4,NonTarget,NonTarget,0,0,0,0,,,,,,,,,,,,,,,,,,,,,,,,,0,39,39,39,,,,,,,,,,,,,,,,,,,,,,,,,,,,,,,,,,,,,,,,,,,,,,,,,,,,,,,,,,,,,,,,,,,,,,,,,1.743827154239019,2.061549299862236,569.3626829001587,None,ScrollUp,정답입니다,569.3626829001587,None,569.3626829001587,None,569.3626829001587,None,569.3626829001587,None,571.3247677001636,None,571.3247677001636,571.8247697001789,,,,,,,,,,,,,,,,011,2022-05-11_14h13.25.424,FishGame,2022.1.1,59.8117603591976,
,41,넌 거칠어,4,Orange,A,2.625,3.033333333333333,ScrollDown,ScrollUp,Orange.png,4,Negative,Incongruent,0,0,0,0,,,,,,,,,,,,,,,,,,,,,,,,,0,40,40,40,,,,,,,,,,,,,,,,,,,,,,,,,,,,,,,,,,,,,,,,,,,,,,,,,,,,,,,,,,,,,,,,,,,,,,,,,1.0725308855374653,1.9426339999772608,572.4504015999846,None,ScrollDown,정답입니다,572.4504015999846,None,572.4504015999846,None,572.4504015999846,None,572.4504015999846,None,574.291487700073,None,574.291487700073,574.7937315001618,,,,,,,,,,,,,,,,011,2022-05-11_14h13.25.424,FishGame,2022.1.1,59.8117603591976,
,42,넌 변덕맞아,5,Green,B,2.75,2.166666666666667,ScrollUp,ScrollDown,Green.png,4,Negative,Congruent,0,0,0,0,,,,,,,,,,,,,,,,,,,,,,,,,0,41,41,41,,,,,,,,,,,,,,,,,,,,,,,,,,,,,,,,,,,,,,,,,,,,,,,,,,,,,,,,,,,,,,,,,,,,,,,,,1.5262345684071383,0.825868499930948,575.4333313000388,None,NoResponse,무응답입니다,575.4333313000388,None,575.4333313000388,None,575.4333313000388,None,575.4333313000388,None,576.1410169000737,None,576.1410169000737,576.6410948000848,,,,,,,,,,,,,,,,011,2022-05-11_14h13.25.424,FishGame,2022.1.1,59.8117603591976,
,43,나를 데려가줘,6,Green,B,0,0,ScrollDown,ScrollUp,Green.png,4,NonTarget,NonTarget,0,0,0,0,,,,,,,,,,,,,,,,,,,,,,,,,0,42,42,42,,,,,,,,,,,,,,,,,,,,,,,,,,,,,,,,,,,,,,,,,,,,,,,,,,,,,,,,,,,,,,,,,,,,,,,,,1.120370368162791,1.111509800190106,577.2596750999801,None,ScrollDown,정답입니다,577.2596750999801,None,577.2596750999801,None,577.2596750999801,None,577.2596750999801,None,578.2743530001026,None,578.2743530001026,578.7750250000972,,,,,,,,,,,,,,,,011,2022-05-11_14h13.25.424,FishGame,2022.1.1,59.8117603591976,
,44,넌 외로워,4,Green,B,2.833333333333333,3.3,ScrollUp,ScrollDown,Green.png,4,Negative,Congruent,0,0,0,0,,,,,,,,,,,,,,,,,,,,,,,,,0,43,43,43,,,,,,,,,,,,,,,,,,,,,,,,,,,,,,,,,,,,,,,,,,,,,,,,,,,,,,,,,,,,,,,,,,,,,,,,,2,1.160264799837023,579.3962568000425,None,ScrollUp,정답입니다,579.3962568000425,None,579.3962568000425,None,579.3962568000425,None,579.3962568000425,None,580.4601479000412,None,580.4601479000412,580.976661400171,,,,,,,,,,,,,,,,011,2022-05-11_14h13.25.424,FishGame,2022.1.1,59.8117603591976,
,1,넌 불평스러워,5,Orange,A,2.25,2.066666666666667,ScrollDown,ScrollUp,Orange.png,5,Negative,Incongruent,0,0,0,0,,,,,,,,,,,,,,,,,,,,,,,,,,,,,0,0,0,0,,,,,,,,,,,,,,,,,,,,,,,,,,,,612.7572277002037,614.2572407000698,614.2930038000923,615.2595073999837,615.2904929001816,616.2428423000965,616.2428423000965,None,,,,,,,,,,,,,,,,,,,,,,,,,,,,,,,,,,1,1.7438721999060363,617.3465522001497,None,ScrollDown,정답입니다,617.3465522001497,None,617.3465522001497,None,617.3465522001497,None,617.3465522001497,None,618.9925913000479,None,618.9925913000479,619.492573000025,581.4600290001836,None,581.4600290001836,None,0.18796296,-0.10185185,1,0,0,0.015948879765346646,None,611.4572172001936,None,,,011,2022-05-11_14h13.25.424,FishGame,2022.1.1,59.8117603591976,
,2,나를 보내줘,6,Orange,A,0,0,ScrollUp,ScrollDown,Orange.png,5,NonTarget,NonTarget,0,0,0,0,,,,,,,,,,,,,,,,,,,,,,,,,,,,,0,1,1,1,,,,,,,,,,,,,,,,,,,,,,,,,,,,,,,,,,,,,,,,,,,,,,,,,,,,,,,,,,,,,,,,,,,,,1.9382716119289398,1.609049699967727,620.1162143000402,None,ScrollUp,정답입니다,620.1162143000402,None,620.1162143000402,None,620.1162143000402,None,620.1162143000402,None,621.6235978000332,None,621.6235978000332,622.1258237999864,,,,,,,,,,,,,,,,011,2022-05-11_14h13.25.424,FishGame,2022.1.1,59.8117603591976,
,3,넌 다재다능해,2,Green,B,6.208333333333333,4.5,ScrollUp,ScrollDown,Green.png,5,Positive,Incongruent,0,0,0,0,,,,,,,,,,,,,,,,,,,,,,,,,,,,,0,2,2,2,,,,,,,,,,,,,,,,,,,,,,,,,,,,,,,,,,,,,,,,,,,,,,,,,,,,,,,,,,,,,,,,,,,,,1.9151234527428944,0.7771052999887615,622.7427458001766,None,ScrollUp,정답입니다,622.7427458001766,None,622.7427458001766,None,622.7427458001766,None,622.7427458001766,None,623.4236209001392,None,623.4236209001392,623.9235352000687,,,,,,,,,,,,,,,,011,2022-05-11_14h13.25.424,FishGame,2022.1.1,59.8117603591976,
,4,넌 과감해,3,Orange,A,4.833333333333334,4.6,ScrollDown,ScrollUp,Orange.png,5,Neutral,Neutral,0,0,0,0,,,,,,,,,,,,,,,,,,,,,,,,,,,,,0,3,3,3,,,,,,,,,,,,,,,,,,,,,,,,,,,,,,,,,,,,,,,,,,,,,,,,,,,,,,,,,,,,,,,,,,,,,1,0.8099285999778658,624.5493943002075,None,ScrollDown,정답입니다,624.5493943002075,None,624.5493943002075,None,624.5493943002075,None,624.5493943002075,None,625.2566248001531,None,625.2566248001531,625.7567255999893,,,,,,,,,,,,,,,,011,2022-05-11_14h13.25.424,FishGame,2022.1.1,59.8117603591976,
,5,넌 고분고분해,3,Green,B,3.75,4.033333333333333,ScrollUp,ScrollDown,Green.png,5,Neutral,Neutral,0,0,0,0,,,,,,,,,,,,,,,,,,,,,,,,,,,,,0,4,4,4,,,,,,,,,,,,,,,,,,,,,,,,,,,,,,,,,,,,,,,,,,,,,,,,,,,,,,,,,,,,,,,,,,,,,1.8472222139437993,0.8293446998577565,626.3756482000463,None,ScrollUp,정답입니다,626.3756482000463,None,626.3756482000463,None,626.3756482000463,None,626.3756482000463,None,627.106664000079,None,627.106664000079,627.6066966000944,,,,,,,,,,,,,,,,011,2022-05-11_14h13.25.424,FishGame,2022.1.1,59.8117603591976,
,6,나를 보내줘,6,Orange,A,0,0,ScrollUp,ScrollDown,Orange.png,5,NonTarget,NonTarget,0,0,0,0,,,,,,,,,,,,,,,,,,,,,,,,,,,,,0,5,5,5,,,,,,,,,,,,,,,,,,,,,,,,,,,,,,,,,,,,,,,,,,,,,,,,,,,,,,,,,,,,,,,,,,,,,2,1.0422347001731396,628.2318909000605,None,ScrollUp,정답입니다,628.2318909000605,None,628.2318909000605,None,628.2318909000605,None,628.2318909000605,None,629.1758126001805,None,629.1758126001805,629.6761586000212,,,,,,,,,,,,,,,,011,2022-05-11_14h13.25.424,FishGame,2022.1.1,59.8117603591976,
,7,넌 잘 잊어,4,Orange,A,3,3.7,ScrollDown,ScrollUp,Orange.png,5,Negative,Incongruent,0,0,0,0,,,,,,,,,,,,,,,,,,,,,,,,,,,,,0,6,6,6,,,,,,,,,,,,,,,,,,,,,,,,,,,,,,,,,,,,,,,,,,,,,,,,,,,,,,,,,,,,,,,,,,,,,1.2268518557151158,0.8511296000797302,630.3125939001329,None,ScrollDown,정답입니다,630.3125939001329,None,630.3125939001329,None,630.3125939001329,None,630.3125939001329,None,631.0521082000341,None,631.0521082000341,631.5589403000195,,,,,,,,,,,,,,,,011,2022-05-11_14h13.25.424,FishGame,2022.1.1,59.8117603591976,
,8,넌 탐구심이없어,4,Green,B,2.833333333333333,3.066666666666667,ScrollUp,ScrollDown,Green.png,5,Negative,Congruent,0,0,0,0,,,,,,,,,,,,,,,,,,,,,,,,,,,,,0,7,7,7,,,,,,,,,,,,,,,,,,,,,,,,,,,,,,,,,,,,,,,,,,,,,,,,,,,,,,,,,,,,,,,,,,,,,1.674382713933786,0.7594513001386076,632.1787378001027,None,ScrollUp,정답입니다,632.1787378001027,None,632.1787378001027,None,632.1787378001027,None,632.1787378001027,None,632.8400618000887,None,632.8400618000887,633.3401422000024,,,,,,,,,,,,,,,,011,2022-05-11_14h13.25.424,FishGame,2022.1.1,59.8117603591976,
,9,나를 데려가줘,6,Green,B,0,0,ScrollDown,ScrollUp,Green.png,5,NonTarget,NonTarget,0,0,0,0,,,,,,,,,,,,,,,,,,,,,,,,,,,,,0,8,8,8,,,,,,,,,,,,,,,,,,,,,,,,,,,,,,,,,,,,,,,,,,,,,,,,,,,,,,,,,,,,,,,,,,,,,1.214506169160207,1.1260711001232266,633.9716219999827,None,ScrollDown,정답입니다,633.9716219999827,None,633.9716219999827,None,633.9716219999827,None,633.9716219999827,None,634.9900718000717,None,634.9900718000717,635.4900066000409,,,,,,,,,,,,,,,,011,2022-05-11_14h13.25.424,FishGame,2022.1.1,59.8117603591976,
,10,넌 참되어,2,Orange,A,6.041666666666664,4.733333333333333,ScrollDown,ScrollUp,Orange.png,5,Positive,Congruent,0,0,0,0,,,,,,,,,,,,,,,,,,,,,,,,,,,,,0,9,9,9,,,,,,,,,,,,,,,,,,,,,,,,,,,,,,,,,,,,,,,,,,,,,,,,,,,,,,,,,,,,,,,,,,,,,1.1141975373029709,0.8781278000678867,636.11564250011,None,ScrollDown,정답입니다,636.11564250011,None,636.11564250011,None,636.11564250011,None,636.11564250011,None,636.8899379000068,None,636.8899379000068,637.3900107000954,,,,,,,,,,,,,,,,011,2022-05-11_14h13.25.424,FishGame,2022.1.1,59.8117603591976,
,11,넌 생기있어,1,Green,B,5.875,5.633333333333334,ScrollUp,ScrollDown,Green.png,5,Positive,Incongruent,0,0,0,0,,,,,,,,,,,,,,,,,,,,,,,,,,,,,0,10,10,10,,,,,,,,,,,,,,,,,,,,,,,,,,,,,,,,,,,,,,,,,,,,,,,,,,,,,,,,,,,,,,,,,,,,,1.6404320945342383,0.7923687999136746,638.0129331001081,None,ScrollUp,정답입니다,638.0129331001081,None,638.0129331001081,None,638.0129331001081,None,638.0129331001081,None,638.7066275000107,None,638.7066275000107,639.2088216000702,,,,,,,,,,,,,,,,011,2022-05-11_14h13.25.424,FishGame,2022.1.1,59.8117603591976,
,12,넌 비사교적이야,4,Green,B,2.875,2.9,ScrollUp,ScrollDown,Green.png,5,Negative,Congruent,0,0,0,0,,,,,,,,,,,,,,,,,,,,,,,,,,,,,0,11,11,11,,,,,,,,,,,,,,,,,,,,,,,,,,,,,,,,,,,,,,,,,,,,,,,,,,,,,,,,,,,,,,,,,,,,,1.6188271616895995,0.9593644000124186,639.8275898001157,None,ScrollUp,정답입니다,639.8275898001157,None,639.8275898001157,None,639.8275898001157,None,639.8275898001157,None,640.6898609001655,None,640.6898609001655,641.1920581001323,,,,,,,,,,,,,,,,011,2022-05-11_14h13.25.424,FishGame,2022.1.1,59.8117603591976,
,13,나를 데려가줘,6,Green,B,0,0,ScrollDown,ScrollUp,Green.png,5,NonTarget,NonTarget,0,0,0,0,,,,,,,,,,,,,,,,,,,,,,,,,,,,,0,12,12,12,,,,,,,,,,,,,,,,,,,,,,,,,,,,,,,,,,,,,,,,,,,,,,,,,,,,,,,,,,,,,,,,,,,,,1.1111111094554265,1.010510299820453,641.8096666000783,None,ScrollDown,정답입니다,641.8096666000783,None,641.8096666000783,None,641.8096666000783,None,641.8096666000783,None,642.7232171001378,None,642.7232171001378,643.2254065000452,,,,,,,,,,,,,,,,011,2022-05-11_14h13.25.424,FishGame,2022.1.1,59.8117603591976,
,14,넌 고독해,4,Orange,A,2.916666666666667,3.233333333333333,ScrollDown,ScrollUp,Orange.png,5,Negative,Incongruent,0,0,0,0,,,,,,,,,,,,,,,,,,,,,,,,,,,,,0,13,13,13,,,,,,,,,,,,,,,,,,,,,,,,,,,,,,,,,,,,,,,,,,,,,,,,,,,,,,,,,,,,,,,,,,,,,1.1018518507480621,0.8761742000933737,643.8467072001658,None,ScrollDown,정답입니다,643.8467072001658,None,643.8467072001658,None,643.8467072001658,None,643.8467072001658,None,644.6231098000426,None,644.6231098000426,645.1231770000886,,,,,,,,,,,,,,,,011,2022-05-11_14h13.25.424,FishGame,2022.1.1,59.8117603591976,
,15,넌 신경질적이야,5,Green,B,2.375,2.233333333333333,ScrollUp,ScrollDown,Green.png,5,Negative,Congruent,0,0,0,0,,,,,,,,,,,,,,,,,,,,,,,,,,,,,0,14,14,14,,,,,,,,,,,,,,,,,,,,,,,,,,,,,,,,,,,,,,,,,,,,,,,,,,,,,,,,,,,,,,,,,,,,,1.939814825852712,0.8944906999822706,645.7602838000748,None,ScrollUp,정답입니다,645.7602838000748,None,645.7602838000748,None,645.7602838000748,None,645.7602838000748,None,646.5397876000497,None,646.5397876000497,647.0397702001501,,,,,,,,,,,,,,,,011,2022-05-11_14h13.25.424,FishGame,2022.1.1,59.8117603591976,
,16,넌 똑똑해,2,Green,B,5.666666666666667,3.966666666666667,ScrollUp,ScrollDown,Green.png,5,Positive,Incongruent,0,0,0,0,,,,,,,,,,,,,,,,,,,,,,,,,,,,,0,15,15,15,,,,,,,,,,,,,,,,,,,,,,,,,,,,,,,,,,,,,,,,,,,,,,,,,,,,,,,,,,,,,,,,,,,,,1.9382716119289398,0.8952476000413299,647.6604734000284,None,ScrollUp,정답입니다,647.6604734000284,None,647.6604734000284,None,647.6604734000284,None,647.6604734000284,None,648.4564458001405,None,648.4564458001405,648.9585481001996,,,,,,,,,,,,,,,,011,2022-05-11_14h13.25.424,FishGame,2022.1.1,59.8117603591976,
,17,나를 보내줘,6,Orange,A,0,0,ScrollUp,ScrollDown,Orange.png,5,NonTarget,NonTarget,0,0,0,0,,,,,,,,,,,,,,,,,,,,,,,,,,,,,0,16,16,16,,,,,,,,,,,,,,,,,,,,,,,,,,,,,,,,,,,,,,,,,,,,,,,,,,,,,,,,,,,,,,,,,,,,,1.8472222139437993,0.9594643998425454,649.5781157000456,None,ScrollUp,정답입니다,649.5781157000456,None,649.5781157000456,None,649.5781157000456,None,649.5781157000456,None,650.4396414000075,None,650.4396414000075,650.9418475001585,,,,,,,,,,,,,,,,011,2022-05-11_14h13.25.424,FishGame,2022.1.1,59.8117603591976,
,18,넌 협조적이야,1,Orange,A,5.625,5.666666666666667,ScrollDown,ScrollUp,Orange.png,5,Positive,Congruent,0,0,0,0,,,,,,,,,,,,,,,,,,,,,,,,,,,,,0,17,17,17,,,,,,,,,,,,,,,,,,,,,,,,,,,,,,,,,,,,,,,,,,,,,,,,,,,,,,,,,,,,,,,,,,,,,1.1882716069618862,0.7776015000417829,651.5619584000669,None,ScrollDown,정답입니다,651.5619584000669,None,651.5619584000669,None,651.5619584000669,None,651.5619584000669,None,652.2418886001687,None,652.2418886001687,652.7585019001272,,,,,,,,,,,,,,,,011,2022-05-11_14h13.25.424,FishGame,2022.1.1,59.8117603591976,
,19,나를 데려가줘,6,Green,B,0,0,ScrollDown,ScrollUp,Green.png,5,NonTarget,NonTarget,0,0,0,0,,,,,,,,,,,,,,,,,,,,,,,,,,,,,0,18,18,18,,,,,,,,,,,,,,,,,,,,,,,,,,,,,,,,,,,,,,,,,,,,,,,,,,,,,,,,,,,,,,,,,,,,,1.1496913582086563,1.1449315000791103,653.3674151001032,None,ScrollDown,정답입니다,653.3674151001032,None,653.3674151001032,None,653.3674151001032,None,653.3674151001032,None,654.4060110000428,None,654.4060110000428,654.9060716000386,,,,,,,,,,,,,,,,011,2022-05-11_14h13.25.424,FishGame,2022.1.1,59.8117603591976,
,20,넌 몰인정해,5,Green,B,2.541666666666667,2.066666666666667,ScrollUp,ScrollDown,Green.png,5,Negative,Congruent,0,0,0,0,,,,,,,,,,,,,,,,,,,,,,,,,,,,,0,19,19,19,,,,,,,,,,,,,,,,,,,,,,,,,,,,,,,,,,,,,,,,,,,,,,,,,,,,,,,,,,,,,,,,,,,,,1.7391975373029709,0.87863830011338,655.5317245000042,None,ScrollUp,정답입니다,655.5317245000042,None,655.5317245000042,None,655.5317245000042,None,655.5317245000042,None,656.3085464001633,None,656.3085464001633,656.8086428001989,,,,,,,,,,,,,,,,011,2022-05-11_14h13.25.424,FishGame,2022.1.1,59.8117603591976,
,21,나를 데려가줘,6,Green,B,0,0,ScrollDown,ScrollUp,Green.png,5,NonTarget,NonTarget,0,0,0,0,,,,,,,,,,,,,,,,,,,,,,,,,,,,,0,20,20,20,,,,,,,,,,,,,,,,,,,,,,,,,,,,,,,,,,,,,,,,,,,,,,,,,,,,,,,,,,,,,,,,,,,,,1.1496913582086563,0.9316949998028576,657.4234379001427,None,ScrollDown,정답입니다,657.4234379001427,None,657.4234379001427,None,657.4234379001427,None,657.4234379001427,None,658.2621026001871,None,658.2621026001871,658.7750107001048,,,,,,,,,,,,,,,,011,2022-05-11_14h13.25.424,FishGame,2022.1.1,59.8117603591976,
,22,넌 순진해,3,Green,B,4.125,4.166666666666667,ScrollUp,ScrollDown,Green.png,5,Neutral,Neutral,0,0,0,0,,,,,,,,,,,,,,,,,,,,,,,,,,,,,0,21,21,21,,,,,,,,,,,,,,,,,,,,,,,,,,,,,,,,,,,,,,,,,,,,,,,,,,,,,,,,,,,,,,,,,,,,,1.7546296268701553,0.9115303000435233,659.395904700039,None,ScrollUp,정답입니다,659.395904700039,None,659.395904700039,None,659.395904700039,None,659.395904700039,None,660.206128400052,None,660.206128400052,660.7083726001438,,,,,,,,,,,,,,,,011,2022-05-11_14h13.25.424,FishGame,2022.1.1,59.8117603591976,
