name,TrialNum,Word,WordCategory,FishType,WordList,WordValence,WordReputation,CorrectResp,IncorrectResp,FishTypeFile,Round,WordType,Condition,LoopforOrange.thisRepN,LoopforOrange.thisTrialN,LoopforOrange.thisN,LoopforOrange.thisIndex,LoopForGreen.thisRepN,LoopForGreen.thisTrialN,LoopForGreen.thisN,LoopForGreen.thisIndex,GreenInstLoop.thisRepN,GreenInstLoop.thisTrialN,GreenInstLoop.thisN,GreenInstLoop.thisIndex,GreenPrac.thisRepN,GreenPrac.thisTrialN,GreenPrac.thisN,GreenPrac.thisIndex,trials_2.thisRepN,trials_2.thisTrialN,trials_2.thisN,trials_2.thisIndex,GreenRound1.thisRepN,GreenRound1.thisTrialN,GreenRound1.thisN,GreenRound1.thisIndex,GreenRound2.thisRepN,GreenRound2.thisTrialN,GreenRound2.thisN,GreenRound2.thisIndex,GreenRound3.thisRepN,GreenRound3.thisTrialN,GreenRound3.thisN,GreenRound3.thisIndex,GreenRound4.thisRepN,GreenRound4.thisTrialN,GreenRound4.thisN,GreenRound4.thisIndex,GreenRound5.thisRepN,GreenRound5.thisTrialN,GreenRound5.thisN,GreenRound5.thisIndex,text_2.started,text_2.stopped,text_3.started,text_3.stopped,key_resp.keys,key_resp.rt,key_resp.started,key_resp.stopped,PassI.started,PassI.stopped,PassInst.keys,PassInst.rt,PassInst.started,PassInst.stopped,mouse_2.x,mouse_2.y,mouse_2.leftButton,mouse_2.midButton,mouse_2.rightButton,mouse_2.started,mouse_2.stopped,image.started,image.stopped,text_5.started,text_5.stopped,text_6.started,text_6.stopped,text_7.started,text_7.stopped,text_8.started,text_8.stopped,slider_3.response,slider_3.rt,slider_3.started,slider_3.stopped,Response_3,Feedback_3,BackGround_3.started,BackGround_3.stopped,Fish_3.started,Fish_3.stopped,WordBox_3.started,WordBox_3.stopped,Words_3.started,Words_3.stopped,BackGround_Feedback_3.started,BackGround_Feedback_3.stopped,Feedbacks_3.started,Feedbacks_3.stopped,Continue_or_not_2.keys,Continue_or_not_2.rt,Continue_or_not_2.started,Continue_or_not_2.stopped,image_4.started,image_4.stopped,mouse_3.x,mouse_3.y,mouse_3.leftButton,mouse_3.midButton,mouse_3.rightButton,mouse_3.started,mouse_3.stopped,startmain.started,startmain.stopped,slider_4.response,slider_4.rt,slider_4.started,slider_4.stopped,Response_4,Feedback_4,BackGround_4.started,BackGround_4.stopped,Fish_4.started,Fish_4.stopped,WordBox_4.started,WordBox_4.stopped,Words_4.started,Words_4.stopped,BackGround_Feedback_4.started,BackGround_Feedback_4.stopped,Feedbacks_4.started,Feedbacks_4.stopped,text.started,text.stopped,break_interval.started,break_interval.stopped,mouse.x,mouse.y,mouse.leftButton,mouse.midButton,mouse.rightButton,mouse.started,mouse.stopped,stratnextround.started,stratnextround.stopped,endgame.started,endgame.stopped,participant,date,expName,psychopyVersion,frameRate,
,,,,,,,,,,,,,,,,,,,,,,,,,,,,,,,,,,,,,,,,,,,,,,,,,,,,,,18.08131829998456,None,18.08131829998456,None,space,2.6237488999031484,18.562485600123182,None,,,,,,,,,,,,,,,,,,,,,,,,,,,,,,,,,,,,,,,,,,,,,,,,,,,,,,,,,,,,,,,,,,,,,,,,,,,,,,,,,,,,,,,,,,012,2022-05-11_16h06.24.709,FishGame,2022.1.1,61.18078927847548,
물고기과제_instruction(참가자용)GreenVersion.mp4,,,,,,,,,,,,,,,,,,0,0,0,0,0,0,0,0,,,,,,,,,,,,,,,,,,,,,,,,,,,,,,,,,,,,,95.85775060020387,None,n,2.424614100018516,95.85775060020387,None,,,,,,,,,,,,,,,,,,,,,,,,,,,,,,,,,,,,,,,,,,,,,,,,,,,,,,,,,,,,,,,,,,,,,,,,,,,,,,,,,,,,012,2022-05-11_16h06.24.709,FishGame,2022.1.1,61.18078927847548,
,1,넌 교활해,5,Orange,B,2.333333333333333,2.133333333333333,ScrollUp,ScrollDown,Orange.png,practice,,,,,,,0,0,0,0,,,,,0,0,0,0,0,0,0,0,,,,,,,,,,,,,,,,,,,,,,,,,,,,,,,,,,,0.022222223,-0.24074075,1,0,0,0.5128109601791948,None,98.30509830010124,None,102.57194970012642,104.0741572000552,104.10521850013174,105.06060550012626,105.09410160011612,106.05750720016658,106.05750720016658,None,1.4182098793486755,1.482477200217545,107.3649102000054,None,ScrollDown,오답입니다,107.3649102000054,None,107.3649102000054,None,107.3649102000054,None,107.3649102000054,None,108.53807940008119,None,108.53807940008119,109.03814190020785,,,,,,,,,,,,,,,,,,,,,,,,,,,,,,,,,,,,,,,,,,,,,,,,,012,2022-05-11_16h06.24.709,FishGame,2022.1.1,61.18078927847548,
,2,넌 슬기로워,2,Green,A,6.166666666666667,4.1,ScrollDown,ScrollUp,Green.png,practice,,,,,,,0,0,0,0,,,,,0,0,0,0,0,1,1,1,,,,,,,,,,,,,,,,,,,,,,,,,,,,,,,,,,,,,,,,,,,,,,,,,,,,1.2021604826052983,1.3279969999566674,109.66589730000123,None,ScrollDown,정답입니다,109.66589730000123,None,109.66589730000123,None,109.66589730000123,None,109.66589730000123,None,110.888392199995,None,110.888392199995,111.39066909998655,,,,,,,,,,,,,,,,,,,,,,,,,,,,,,,,,,,,,,,,,,,,,,,,,012,2022-05-11_16h06.24.709,FishGame,2022.1.1,61.18078927847548,
,3,나를 보내줘,6,Green,A,0,0,ScrollUp,ScrollDown,Green.png,practice,,,,,,,0,0,0,0,,,,,0,0,0,0,0,2,2,2,,,,,,,,,,,,,,,,,,,,,,,,,,,,,,,,,,,,,,,,,,,,,,,,,,,,1.6913580298423767,1.3794347001239657,112.01201030006632,None,ScrollUp,정답입니다,112.01201030006632,None,112.01201030006632,None,112.01201030006632,None,112.01201030006632,None,113.28823390020989,None,113.28823390020989,113.79054370010272,,,,,,,,,,,,,,,,,,,,,,,,,,,,,,,,,,,,,,,,,,,,,,,,,012,2022-05-11_16h06.24.709,FishGame,2022.1.1,61.18078927847548,
,4,나를 데려가줘,6,Orange,B,0,0,ScrollDown,ScrollUp,Orange.png,practice,,,,,,,0,0,0,0,,,,,0,0,0,0,0,3,3,3,,,,,,,,,,,,,,,,,,,,,,,,,,,,,,,,,,,,,,,,,,,,,,,,,,,,1.1481481442848842,1.610424199840054,114.41538630006835,None,ScrollDown,정답입니다,114.41538630006835,None,114.41538630006835,None,114.41538630006835,None,114.41538630006835,None,115.9214820000343,None,115.9214820000343,116.42158440011553,,,,,,,,,,,,,,,,,,,,,,,,,,,,,,,,,,,,,,,,,,,,,,,,,012,2022-05-11_16h06.24.709,FishGame,2022.1.1,61.18078927847548,
,1,넌 교활해,5,Orange,B,2.333333333333333,2.133333333333333,ScrollUp,ScrollDown,Orange.png,practice,,,,,,,0,0,0,0,,,,,0,0,0,0,,,,,,,,,,,,,,,,,,,,,,,,,,,,,,,,,,,,,,,,,,,,,,,,,,,,,,,,,,,,,,,,,,,,,,,,,,n,15.431926199933514,116.92164529999718,None,116.92164529999718,None,,,,,,,,,,,,,,,,,,,,,,,,,,,,,,,,,,,,,,,,,,,012,2022-05-11_16h06.24.709,FishGame,2022.1.1,61.18078927847548,
,1,넌 따뜻해,1,Orange,B,6.083333333333333,5.6,ScrollUp,ScrollDown,Orange.png,1,Positive,Incongruent,,,,,0,0,0,0,,,,,,,,,,,,,0,0,0,0,,,,,,,,,,,,,,,,,,,,,,,,,,,,,,,,,,,,,,,,137.17387550021522,138.67118830000982,138.70444960007444,139.65436670021154,139.70438590017147,140.654401200125,140.654401200125,None,,,,,,,,,,,,,,,,,,,,,,,,,0.0055555557,-0.12037037,1,0,0,0.2991856597363949,None,132.37351090018637,None,1.68364197264115,1.4539146998431534,141.9661178002134,None,ScrollUp,정답입니다,141.9661178002134,None,141.9661178002134,None,141.9661178002134,None,141.9661178002134,None,143.1039921999909,None,143.1039921999909,143.60404330003075,,,,,,,,,,,,,,,,012,2022-05-11_16h06.24.709,FishGame,2022.1.1,61.18078927847548,
,2,넌 기품있어,2,Orange,B,5.791666666666668,4.5,ScrollUp,ScrollDown,Orange.png,1,Positive,Incongruent,,,,,0,0,0,0,,,,,,,,,,,,,0,1,1,1,,,,,,,,,,,,,,,,,,,,,,,,,,,,,,,,,,,,,,,,,,,,,,,,,,,,,,,,,,,,,,,,,,,,,,,,,,,,,,,,,1.819444437821706,1.0779956001788378,144.23699320014566,None,ScrollUp,정답입니다,144.23699320014566,None,144.23699320014566,None,144.23699320014566,None,144.23699320014566,None,145.20658300002106,None,145.20658300002106,145.70667770016007,,,,,,,,,,,,,,,,012,2022-05-11_16h06.24.709,FishGame,2022.1.1,61.18078927847548,
,3,나를 보내줘,6,Green,A,0,0,ScrollUp,ScrollDown,Green.png,1,NonTarget,NonTarget,,,,,0,0,0,0,,,,,,,,,,,,,0,2,2,2,,,,,,,,,,,,,,,,,,,,,,,,,,,,,,,,,,,,,,,,,,,,,,,,,,,,,,,,,,,,,,,,,,,,,,,,,,,,,,,,,1.8456790000200272,1.1260413001291454,146.33718600007705,None,ScrollUp,정답입니다,146.33718600007705,None,146.33718600007705,None,146.33718600007705,None,146.33718600007705,None,147.35638600005768,None,147.35638600005768,147.87088510021567,,,,,,,,,,,,,,,,012,2022-05-11_16h06.24.709,FishGame,2022.1.1,61.18078927847548,
,4,넌 수동적이야,4,Green,A,2.833333333333333,2.933333333333333,ScrollDown,ScrollUp,Green.png,1,Negative,Incongruent,,,,,0,0,0,0,,,,,,,,,,,,,0,3,3,3,,,,,,,,,,,,,,,,,,,,,,,,,,,,,,,,,,,,,,,,,,,,,,,,,,,,,,,,,,,,,,,,,,,,,,,,,,,,,,,,,1.0231481393178303,1.2593994999770075,148.50825450010598,None,ScrollDown,정답입니다,148.50825450010598,None,148.50825450010598,None,148.50825450010598,None,148.50825450010598,None,149.65416670008563,None,149.65416670008563,150.15989950019866,,,,,,,,,,,,,,,,012,2022-05-11_16h06.24.709,FishGame,2022.1.1,61.18078927847548,
,5,넌 사심이 없어,3,Orange,B,4.916666666666666,4.333333333333333,ScrollUp,ScrollDown,Orange.png,1,Neutral,Neutral,,,,,0,0,0,0,,,,,,,,,,,,,0,4,4,4,,,,,,,,,,,,,,,,,,,,,,,,,,,,,,,,,,,,,,,,,,,,,,,,,,,,,,,,,,,,,,,,,,,,,,,,,,,,,,,,,1.8287036965290706,1.4760039001703262,150.7901365000289,None,ScrollUp,정답입니다,150.7901365000289,None,150.7901365000289,None,150.7901365000289,None,150.7901365000289,None,152.15413430007175,None,152.15413430007175,152.65428950008936,,,,,,,,,,,,,,,,012,2022-05-11_16h06.24.709,FishGame,2022.1.1,61.18078927847548,
,6,넌 헤퍼,5,Green,A,2.458333333333334,2.233333333333333,ScrollDown,ScrollUp,Green.png,1,Negative,Incongruent,,,,,0,0,0,0,,,,,,,,,,,,,0,5,5,5,,,,,,,,,,,,,,,,,,,,,,,,,,,,,,,,,,,,,,,,,,,,,,,,,,,,,,,,,,,,,,,,,,,,,,,,,,,,,,,,,1.0648148159186046,1.4274924998171628,153.28315880009905,None,ScrollDown,정답입니다,153.28315880009905,None,153.28315880009905,None,153.28315880009905,None,153.28315880009905,None,154.60404210002162,None,154.60404210002162,155.10412020003423,,,,,,,,,,,,,,,,012,2022-05-11_16h06.24.709,FishGame,2022.1.1,61.18078927847548,
,7,넌 말쑥해,3,Green,A,4.833333333333334,4.333333333333333,ScrollDown,ScrollUp,Green.png,1,Neutral,Neutral,,,,,0,0,0,0,,,,,,,,,,,,,0,6,6,6,,,,,,,,,,,,,,,,,,,,,,,,,,,,,,,,,,,,,,,,,,,,,,,,,,,,,,,,,,,,,,,,,,,,,,,,,,,,,,,,,1.09413580596447,1.125696400180459,155.74173200014047,None,ScrollDown,정답입니다,155.74173200014047,None,155.74173200014047,None,155.74173200014047,None,155.74173200014047,None,156.75394720002078,None,156.75394720002078,157.25397610012442,,,,,,,,,,,,,,,,012,2022-05-11_16h06.24.709,FishGame,2022.1.1,61.18078927847548,
,8,넌 투덜거려,5,Orange,B,2.541666666666667,2.266666666666667,ScrollUp,ScrollDown,Orange.png,1,Negative,Congruent,,,,,0,0,0,0,,,,,,,,,,,,,0,7,7,7,,,,,,,,,,,,,,,,,,,,,,,,,,,,,,,,,,,,,,,,,,,,,,,,,,,,,,,,,,,,,,,,,,,,,,,,,,,,,,,,,1.8024691343307495,1.2780646001920104,157.89341400004923,None,ScrollUp,정답입니다,157.89341400004923,None,157.89341400004923,None,157.89341400004923,None,157.89341400004923,None,159.0560914000962,None,159.0560914000962,159.55611920007505,,,,,,,,,,,,,,,,012,2022-05-11_16h06.24.709,FishGame,2022.1.1,61.18078927847548,
,9,넌 적극적이야,1,Green,A,5.708333333333333,5.533333333333333,ScrollDown,ScrollUp,Green.png,1,Positive,Congruent,,,,,0,0,0,0,,,,,,,,,,,,,0,8,8,8,,,,,,,,,,,,,,,,,,,,,,,,,,,,,,,,,,,,,,,,,,,,,,,,,,,,,,,,,,,,,,,,,,,,,,,,,,,,,,,,,1,1.1602884999010712,160.18032460007817,None,ScrollDown,정답입니다,160.18032460007817,None,160.18032460007817,None,160.18032460007817,None,160.18032460007817,None,161.23692290019244,None,161.23692290019244,161.73697870015167,,,,,,,,,,,,,,,,012,2022-05-11_16h06.24.709,FishGame,2022.1.1,61.18078927847548,
,10,넌 재미없어,4,Orange,B,2.625,2.966666666666667,ScrollUp,ScrollDown,Orange.png,1,Negative,Congruent,,,,,0,0,0,0,,,,,,,,,,,,,0,9,9,9,,,,,,,,,,,,,,,,,,,,,,,,,,,,,,,,,,,,,,,,,,,,,,,,,,,,,,,,,,,,,,,,,,,,,,,,,,,,,,,,,1.7608024577299755,0.9943602001294494,162.3694176999852,None,ScrollUp,정답입니다,162.3694176999852,None,162.3694176999852,None,162.3694176999852,None,162.3694176999852,None,163.25631420011632,None,163.25631420011632,163.75620410009287,,,,,,,,,,,,,,,,012,2022-05-11_16h06.24.709,FishGame,2022.1.1,61.18078927847548,
,11,넌 명석해,2,Green,A,5.875,4.033333333333333,ScrollDown,ScrollUp,Green.png,1,Positive,Congruent,,,,,0,0,0,0,,,,,,,,,,,,,0,10,10,10,,,,,,,,,,,,,,,,,,,,,,,,,,,,,,,,,,,,,,,,,,,,,,,,,,,,,,,,,,,,,,,,,,,,,,,,,,,,,,,,,1.115740751226743,1.0941163999959826,164.3816796001047,None,ScrollDown,정답입니다,164.3816796001047,None,164.3816796001047,None,164.3816796001047,None,164.3816796001047,None,165.37044710014015,None,165.37044710014015,165.8726415000856,,,,,,,,,,,,,,,,012,2022-05-11_16h06.24.709,FishGame,2022.1.1,61.18078927847548,
,12,나를 데려가줘,6,Orange,B,0,0,ScrollDown,ScrollUp,Orange.png,1,NonTarget,NonTarget,,,,,0,0,0,0,,,,,,,,,,,,,0,11,11,11,,,,,,,,,,,,,,,,,,,,,,,,,,,,,,,,,,,,,,,,,,,,,,,,,,,,,,,,,,,,,,,,,,,,,,,,,,,,,,,,,1.1033950646718342,1.3173136999830604,166.51446600002237,None,ScrollDown,정답입니다,166.51446600002237,None,166.51446600002237,None,166.51446600002237,None,166.51446600002237,None,167.70594290015288,None,167.70594290015288,168.20596850011498,,,,,,,,,,,,,,,,012,2022-05-11_16h06.24.709,FishGame,2022.1.1,61.18078927847548,
,13,넌 소심해,4,Green,A,3,3.1,ScrollDown,ScrollUp,Green.png,1,Negative,Incongruent,,,,,0,0,0,0,,,,,,,,,,,,,0,12,12,12,,,,,,,,,,,,,,,,,,,,,,,,,,,,,,,,,,,,,,,,,,,,,,,,,,,,,,,,,,,,,,,,,,,,,,,,,,,,,,,,,1.8626543283462524,1.0269814000930637,168.85299350018613,None,ScrollUp,오답입니다,168.85299350018613,None,168.85299350018613,None,168.85299350018613,None,168.85299350018613,None,169.77031729998998,None,169.77031729998998,170.27047009998932,,,,,,,,,,,,,,,,012,2022-05-11_16h06.24.709,FishGame,2022.1.1,61.18078927847548,
,14,넌 합리적이야,2,Green,A,5.583333333333333,4.733333333333333,ScrollDown,ScrollUp,Green.png,1,Positive,Congruent,,,,,0,0,0,0,,,,,,,,,,,,,0,13,13,13,,,,,,,,,,,,,,,,,,,,,,,,,,,,,,,,,,,,,,,,,,,,,,,,,,,,,,,,,,,,,,,,,,,,,,,,,,,,,,,,,1.0447530845801036,1.0422090999782085,170.90167890000157,None,ScrollDown,정답입니다,170.90167890000157,None,170.90167890000157,None,170.90167890000157,None,170.90167890000157,None,171.8369965001475,None,171.8369965001475,172.33712020004168,,,,,,,,,,,,,,,,012,2022-05-11_16h06.24.709,FishGame,2022.1.1,61.18078927847548,
,15,넌 무자비해,5,Orange,B,2.333333333333333,2.1,ScrollUp,ScrollDown,Orange.png,1,Negative,Congruent,,,,,0,0,0,0,,,,,,,,,,,,,0,14,14,14,,,,,,,,,,,,,,,,,,,,,,,,,,,,,,,,,,,,,,,,,,,,,,,,,,,,,,,,,,,,,,,,,,,,,,,,,,,,,,,,,1.8827160596847534,1.1091032000258565,172.97454670001753,None,ScrollUp,정답입니다,172.97454670001753,None,172.97454670001753,None,172.97454670001753,None,172.97454670001753,None,173.97022540005855,None,173.97022540005855,174.4702806000132,,,,,,,,,,,,,,,,012,2022-05-11_16h06.24.709,FishGame,2022.1.1,61.18078927847548,
,16,나를 보내줘,6,Green,A,0,0,ScrollUp,ScrollDown,Green.png,1,NonTarget,NonTarget,,,,,0,0,0,0,,,,,,,,,,,,,0,15,15,15,,,,,,,,,,,,,,,,,,,,,,,,,,,,,,,,,,,,,,,,,,,,,,,,,,,,,,,,,,,,,,,,,,,,,,,,,,,,,,,,,1.7530864129463832,1.2613440998829901,175.0969849000685,None,ScrollUp,정답입니다,175.0969849000685,None,175.0969849000685,None,175.0969849000685,None,175.0969849000685,None,176.2535446002148,None,176.2535446002148,176.75356169999577,,,,,,,,,,,,,,,,012,2022-05-11_16h06.24.709,FishGame,2022.1.1,61.18078927847548,
,17,넌 현실적이야,3,Orange,B,4.608695652173913,4.766666666666667,ScrollUp,ScrollDown,Orange.png,1,Neutral,Neutral,,,,,0,0,0,0,,,,,,,,,,,,,0,16,16,16,,,,,,,,,,,,,,,,,,,,,,,,,,,,,,,,,,,,,,,,,,,,,,,,,,,,,,,,,,,,,,,,,,,,,,,,,,,,,,,,,1.6944444452722869,1.5612083000596613,177.3851821999997,None,ScrollUp,정답입니다,177.3851821999997,None,177.3851821999997,None,177.3851821999997,None,177.3851821999997,None,178.83685920014977,None,178.83685920014977,179.33914820011705,,,,,,,,,,,,,,,,012,2022-05-11_16h06.24.709,FishGame,2022.1.1,61.18078927847548,
,18,넌 의리있어,1,Orange,B,5.833333333333334,5.633333333333334,ScrollUp,ScrollDown,Orange.png,1,Positive,Incongruent,,,,,0,0,0,0,,,,,,,,,,,,,0,17,17,17,,,,,,,,,,,,,,,,,,,,,,,,,,,,,,,,,,,,,,,,,,,,,,,,,,,,,,,,,,,,,,,,,,,,,,,,,,,,,,,,,1.7160493781169257,1.0932138999924064,179.9718038002029,None,ScrollUp,정답입니다,179.9718038002029,None,179.9718038002029,None,179.9718038002029,None,179.9718038002029,None,180.95348040014505,None,180.95348040014505,181.45392050012015,,,,,,,,,,,,,,,,012,2022-05-11_16h06.24.709,FishGame,2022.1.1,61.18078927847548,
,19,넌 신경과민이야,5,Green,A,2.541666666666667,2.166666666666667,ScrollDown,ScrollUp,Green.png,1,Negative,Incongruent,,,,,0,0,0,0,,,,,,,,,,,,,0,18,18,18,,,,,,,,,,,,,,,,,,,,,,,,,,,,,,,,,,,,,,,,,,,,,,,,,,,,,,,,,,,,,,,,,,,,,,,,,,,,,,,,,1.1574074029922485,1.0444980999454856,182.083636400057,None,ScrollDown,정답입니다,182.083636400057,None,182.083636400057,None,182.083636400057,None,182.083636400057,None,183.02007600013167,None,183.02007600013167,183.52224260009825,,,,,,,,,,,,,,,,012,2022-05-11_16h06.24.709,FishGame,2022.1.1,61.18078927847548,
,20,넌 편안해,1,Green,A,5.916666666666666,5.866666666666666,ScrollDown,ScrollUp,Green.png,1,Positive,Congruent,,,,,0,0,0,0,,,,,,,,,,,,,0,19,19,19,,,,,,,,,,,,,,,,,,,,,,,,,,,,,,,,,,,,,,,,,,,,,,,,,,,,,,,,,,,,,,,,,,,,,,,,,,,,,,,,,1.0138889054457347,1.0273059997707605,184.1490732000675,None,ScrollDown,정답입니다,184.1490732000675,None,184.1490732000675,None,184.1490732000675,None,184.1490732000675,None,185.06996970018372,None,185.06996970018372,185.56997680012137,,,,,,,,,,,,,,,,012,2022-05-11_16h06.24.709,FishGame,2022.1.1,61.18078927847548,
,21,넌 품위있어,2,Orange,B,5.291666666666666,4.466666666666667,ScrollUp,ScrollDown,Orange.png,1,Positive,Incongruent,,,,,0,0,0,0,,,,,,,,,,,,,0,20,20,20,,,,,,,,,,,,,,,,,,,,,,,,,,,,,,,,,,,,,,,,,,,,,,,,,,,,,,,,,,,,,,,,,,,,,,,,,,,,,,,,,1.6898148159186044,1.0754909000825137,186.20270710019395,None,ScrollUp,정답입니다,186.20270710019395,None,186.20270710019395,None,186.20270710019395,None,186.20270710019395,None,187.17004410014488,None,187.17004410014488,187.67210620013066,,,,,,,,,,,,,,,,012,2022-05-11_16h06.24.709,FishGame,2022.1.1,61.18078927847548,
,22,넌 빈틈없어,3,Green,A,4.833333333333333,3.966666666666667,ScrollDown,ScrollUp,Green.png,1,Neutral,Neutral,,,,,0,0,0,0,,,,,,,,,,,,,0,21,21,21,,,,,,,,,,,,,,,,,,,,,,,,,,,,,,,,,,,,,,,,,,,,,,,,,,,,,,,,,,,,,,,,,,,,,,,,,,,,,,,,,1.0030864079793294,1.3591627001296729,188.3015219999943,None,ScrollDown,정답입니다,188.3015219999943,None,188.3015219999943,None,188.3015219999943,None,188.3015219999943,None,189.5532131001819,None,189.5532131001819,190.05333150015213,,,,,,,,,,,,,,,,012,2022-05-11_16h06.24.709,FishGame,2022.1.1,61.18078927847548,
,23,넌 상상력없어,4,Orange,B,2.833333333333333,3.133333333333333,ScrollUp,ScrollDown,Orange.png,1,Negative,Congruent,,,,,0,0,0,0,,,,,,,,,,,,,0,22,22,22,,,,,,,,,,,,,,,,,,,,,,,,,,,,,,,,,,,,,,,,,,,,,,,,,,,,,,,,,,,,,,,,,,,,,,,,,,,,,,,,,1.9135802388191223,1.1089693999383599,190.68851470015943,None,ScrollUp,정답입니다,190.68851470015943,None,190.68851470015943,None,190.68851470015943,None,190.68851470015943,None,191.6865627001971,None,191.6865627001971,192.18889330001548,,,,,,,,,,,,,,,,012,2022-05-11_16h06.24.709,FishGame,2022.1.1,61.18078927847548,
,24,넌 지혜로워,2,Orange,B,6.333333333333334,4.633333333333334,ScrollUp,ScrollDown,Orange.png,1,Positive,Incongruent,,,,,0,0,0,0,,,,,,,,,,,,,0,23,23,23,,,,,,,,,,,,,,,,,,,,,,,,,,,,,,,,,,,,,,,,,,,,,,,,,,,,,,,,,,,,,,,,,,,,,,,,,,,,,,,,,1.7901234477758408,0.9591442998498678,192.82218220015056,None,ScrollUp,정답입니다,192.82218220015056,None,192.82218220015056,None,192.82218220015056,None,192.82218220015056,None,193.66970350011252,None,193.66970350011252,194.17210650001653,,,,,,,,,,,,,,,,012,2022-05-11_16h06.24.709,FishGame,2022.1.1,61.18078927847548,
,25,넌 시끄러워,4,Green,A,2.833333333333333,3.033333333333333,ScrollDown,ScrollUp,Green.png,1,Negative,Incongruent,,,,,0,0,0,0,,,,,,,,,,,,,0,24,24,24,,,,,,,,,,,,,,,,,,,,,,,,,,,,,,,,,,,,,,,,,,,,,,,,,,,,,,,,,,,,,,,,,,,,,,,,,,,,,,,,,1.016975333293279,1.094510299852118,194.81055430020206,None,ScrollDown,정답입니다,194.81055430020206,None,194.81055430020206,None,194.81055430020206,None,194.81055430020206,None,195.78641410009004,None,195.78641410009004,196.28651920007542,,,,,,,,,,,,,,,,012,2022-05-11_16h06.24.709,FishGame,2022.1.1,61.18078927847548,
,26,넌 만사태평이야,3,Orange,B,4,4.333333333333333,ScrollUp,ScrollDown,Orange.png,1,Neutral,Neutral,,,,,0,0,0,0,,,,,,,,,,,,,0,25,25,25,,,,,,,,,,,,,,,,,,,,,,,,,,,,,,,,,,,,,,,,,,,,,,,,,,,,,,,,,,,,,,,,,,,,,,,,,,,,,,,,,1.7762345721324284,0.9608169000130147,196.9276359002106,None,ScrollUp,정답입니다,196.9276359002106,None,196.9276359002106,None,196.9276359002106,None,196.9276359002106,None,197.769767699996,None,197.769767699996,198.27198720001616,,,,,,,,,,,,,,,,012,2022-05-11_16h06.24.709,FishGame,2022.1.1,61.18078927847548,
,27,넌 붙임성있어,1,Green,A,5.708333333333333,5.633333333333334,ScrollDown,ScrollUp,Green.png,1,Positive,Congruent,,,,,0,0,0,0,,,,,,,,,,,,,0,26,26,26,,,,,,,,,,,,,,,,,,,,,,,,,,,,,,,,,,,,,,,,,,,,,,,,,,,,,,,,,,,,,,,,,,,,,,,,,,,,,,,,,1.1836419651905696,1.2115244001615793,198.8981537001673,None,ScrollDown,정답입니다,198.8981537001673,None,198.8981537001673,None,198.8981537001673,None,198.8981537001673,None,200.00298360013403,None,200.00298360013403,200.50304510002024,,,,,,,,,,,,,,,,012,2022-05-11_16h06.24.709,FishGame,2022.1.1,61.18078927847548,
,28,넌 영리해,2,Green,A,6,4.033333333333333,ScrollDown,ScrollUp,Green.png,1,Positive,Congruent,,,,,0,0,0,0,,,,,,,,,,,,,0,27,27,27,,,,,,,,,,,,,,,,,,,,,,,,,,,,,,,,,,,,,,,,,,,,,,,,,,,,,,,,,,,,,,,,,,,,,,,,,,,,,,,,,1.212962955236435,1.0270148001145571,201.12981690000743,None,ScrollDown,정답입니다,201.12981690000743,None,201.12981690000743,None,201.12981690000743,None,201.12981690000743,None,202.05300360010006,None,202.05300360010006,202.5552583001554,,,,,,,,,,,,,,,,012,2022-05-11_16h06.24.709,FishGame,2022.1.1,61.18078927847548,
,29,넌 열심이야,1,Orange,B,6.041666666666667,5.833333333333333,ScrollUp,ScrollDown,Orange.png,1,Positive,Incongruent,,,,,0,0,0,0,,,,,,,,,,,,,0,28,28,28,,,,,,,,,,,,,,,,,,,,,,,,,,,,,,,,,,,,,,,,,,,,,,,,,,,,,,,,,,,,,,,,,,,,,,,,,,,,,,,,,1.6728395000100136,0.9592043000739068,203.18988180020824,None,ScrollUp,정답입니다,203.18988180020824,None,203.18988180020824,None,203.18988180020824,None,203.18988180020824,None,204.03622740018182,None,204.03622740018182,204.53631890006363,,,,,,,,,,,,,,,,012,2022-05-11_16h06.24.709,FishGame,2022.1.1,61.18078927847548,
,30,넌 인기없어,4,Orange,B,3,3.3,ScrollUp,ScrollDown,Orange.png,1,Negative,Congruent,,,,,0,0,0,0,,,,,,,,,,,,,0,29,29,29,,,,,,,,,,,,,,,,,,,,,,,,,,,,,,,,,,,,,,,,,,,,,,,,,,,,,,,,,,,,,,,,,,,,,,,,,,,,,,,,,1.5030864196984717,0.8281764001585543,205.17179940012284,None,NoResponse,무응답입니다,205.17179940012284,None,205.17179940012284,None,205.17179940012284,None,205.17179940012284,None,205.88623170019127,None,205.88623170019127,206.3863380001858,,,,,,,,,,,,,,,,012,2022-05-11_16h06.24.709,FishGame,2022.1.1,61.18078927847548,
,31,넌 익살스러워,3,Green,A,4.708333333333334,4.833333333333333,ScrollDown,ScrollUp,Green.png,1,Neutral,Neutral,,,,,0,0,0,0,,,,,,,,,,,,,0,30,30,30,,,,,,,,,,,,,,,,,,,,,,,,,,,,,,,,,,,,,,,,,,,,,,,,,,,,,,,,,,,,,,,,,,,,,,,,,,,,,,,,,1.040123442808787,1.1087738999631256,207.0272504000459,None,ScrollDown,정답입니다,207.0272504000459,None,207.0272504000459,None,207.0272504000459,None,207.0272504000459,None,208.01955000008456,None,208.01955000008456,208.51959180017002,,,,,,,,,,,,,,,,012,2022-05-11_16h06.24.709,FishGame,2022.1.1,61.18078927847548,
,32,넌 이기적이야,5,Orange,B,2.291666666666667,2.333333333333333,ScrollUp,ScrollDown,Orange.png,1,Negative,Congruent,,,,,0,0,0,0,,,,,,,,,,,,,0,31,31,31,,,,,,,,,,,,,,,,,,,,,,,,,,,,,,,,,,,,,,,,,,,,,,,,,,,,,,,,,,,,,,,,,,,,,,,,,,,,,,,,,1.819444437821706,1.2420853998046368,209.14967340021394,None,ScrollUp,정답입니다,209.14967340021394,None,209.14967340021394,None,209.14967340021394,None,209.14967340021394,None,210.28610420017503,None,210.28610420017503,210.78638820000924,,,,,,,,,,,,,,,,012,2022-05-11_16h06.24.709,FishGame,2022.1.1,61.18078927847548,
,33,나를 데려가줘,6,Orange,B,0,0,ScrollDown,ScrollUp,Orange.png,1,NonTarget,NonTarget,,,,,0,0,0,0,,,,,,,,,,,,,0,32,32,32,,,,,,,,,,,,,,,,,,,,,,,,,,,,,,,,,,,,,,,,,,,,,,,,,,,,,,,,,,,,,,,,,,,,,,,,,,,,,,,,,1.9845678806304932,1.0592972999438643,211.41494270018302,None,ScrollUp,오답입니다,211.41494270018302,None,211.41494270018302,None,211.41494270018302,None,211.41494270018302,None,212.36945770005696,None,212.36945770005696,212.8694692000281,,,,,,,,,,,,,,,,012,2022-05-11_16h06.24.709,FishGame,2022.1.1,61.18078927847548,
,34,넌 기회주의자야,5,Green,A,2.875,2.133333333333333,ScrollDown,ScrollUp,Green.png,1,Negative,Incongruent,,,,,0,0,0,0,,,,,,,,,,,,,0,33,33,33,,,,,,,,,,,,,,,,,,,,,,,,,,,,,,,,,,,,,,,,,,,,,,,,,,,,,,,,,,,,,,,,,,,,,,,,,,,,,,,,,1.0972222338120143,1.1941376999020576,213.5136160000693,None,ScrollDown,정답입니다,213.5136160000693,None,213.5136160000693,None,213.5136160000693,None,213.5136160000693,None,214.58602849999443,None,214.58602849999443,215.0861305000726,,,,,,,,,,,,,,,,012,2022-05-11_16h06.24.709,FishGame,2022.1.1,61.18078927847548,
,1,넌 미성숙해,4,Green,A,3,3.2,ScrollDown,ScrollUp,Green.png,2,Negative,Incongruent,,,,,0,0,0,0,,,,,,,,,,,,,,,,,0,0,0,0,,,,,,,,,,,,,,,,,,,,,,,,,,,,,,,,,,,,248.01865840004757,249.52419940009713,249.54078939999454,250.50202760007232,250.5543452000711,251.50787630002014,251.4907783002127,None,,,,,,,,,,,,,,,,,,,,,,,,,,,,,,,,,,1.0895061641931534,1.2318756999447942,252.60984350019135,None,ScrollDown,정답입니다,252.60984350019135,None,252.60984350019135,None,252.60984350019135,None,252.60984350019135,None,253.73524010018446,None,253.73524010018446,254.2352839000523,215.58829590003006,None,215.58829590003006,None,0.033333335,-0.11481482,1,0,0,0.01615856005810201,None,245.6021286000032,None,,,012,2022-05-11_16h06.24.709,FishGame,2022.1.1,61.18078927847548,
,2,넌 반사회적이야,5,Orange,B,2.416666666666667,2.033333333333333,ScrollUp,ScrollDown,Orange.png,2,Negative,Congruent,,,,,0,0,0,0,,,,,,,,,,,,,,,,,0,1,1,1,,,,,,,,,,,,,,,,,,,,,,,,,,,,,,,,,,,,,,,,,,,,,,,,,,,,,,,,,,,,,,,,,,,,,,,,,,,,,1.4845679011195898,0.9115098998881876,254.86289039999247,None,NoResponse,무응답입니다,254.86289039999247,None,254.86289039999247,None,254.86289039999247,None,254.86289039999247,None,255.66855990001932,None,255.66855990001932,256.16854560002685,,,,,,,,,,,,,,,,012,2022-05-11_16h06.24.709,FishGame,2022.1.1,61.18078927847548,
,3,넌 유능해,2,Green,A,6.208333333333333,4.433333333333334,ScrollDown,ScrollUp,Green.png,2,Positive,Congruent,,,,,0,0,0,0,,,,,,,,,,,,,,,,,0,2,2,2,,,,,,,,,,,,,,,,,,,,,,,,,,,,,,,,,,,,,,,,,,,,,,,,,,,,,,,,,,,,,,,,,,,,,,,,,,,,,1.0540123681227367,1.078315099934116,256.7960616000928,None,ScrollDown,정답입니다,256.7960616000928,None,256.7960616000928,None,256.7960616000928,None,256.7960616000928,None,257.76847070013173,None,257.76847070013173,258.26876480015926,,,,,,,,,,,,,,,,012,2022-05-11_16h06.24.709,FishGame,2022.1.1,61.18078927847548,
,4,넌 능숙해,2,Orange,B,5.666666666666667,4.733333333333333,ScrollUp,ScrollDown,Orange.png,2,Positive,Incongruent,,,,,0,0,0,0,,,,,,,,,,,,,,,,,0,3,3,3,,,,,,,,,,,,,,,,,,,,,,,,,,,,,,,,,,,,,,,,,,,,,,,,,,,,,,,,,,,,,,,,,,,,,,,,,,,,,1.7608024577299755,1.044232799904421,258.89437670004554,None,ScrollUp,정답입니다,258.89437670004554,None,258.89437670004554,None,258.89437670004554,None,258.89437670004554,None,259.83507410017774,None,259.83507410017774,260.3350821000058,,,,,,,,,,,,,,,,012,2022-05-11_16h06.24.709,FishGame,2022.1.1,61.18078927847548,
,5,넌 진부해,4,Orange,B,2.458333333333333,3.166666666666667,ScrollUp,ScrollDown,Orange.png,2,Negative,Congruent,,,,,0,0,0,0,,,,,,,,,,,,,,,,,0,4,4,4,,,,,,,,,,,,,,,,,,,,,,,,,,,,,,,,,,,,,,,,,,,,,,,,,,,,,,,,,,,,,,,,,,,,,,,,,,,,,1.8148148208856583,1.0259328000247478,260.97163680009544,None,ScrollUp,정답입니다,260.97163680009544,None,260.97163680009544,None,260.97163680009544,None,260.97163680009544,None,261.8850402000826,None,261.8850402000826,262.38519160007127,,,,,,,,,,,,,,,,012,2022-05-11_16h06.24.709,FishGame,2022.1.1,61.18078927847548,
,6,나를 보내줘,6,Green,A,0,0,ScrollUp,ScrollDown,Green.png,2,NonTarget,NonTarget,,,,,0,0,0,0,,,,,,,,,,,,,,,,,0,5,5,5,,,,,,,,,,,,,,,,,,,,,,,,,,,,,,,,,,,,,,,,,,,,,,,,,,,,,,,,,,,,,,,,,,,,,,,,,,,,,1.6882716019948325,0.9610943000297993,263.01158620021306,None,ScrollUp,정답입니다,263.01158620021306,None,263.01158620021306,None,263.01158620021306,None,263.01158620021306,None,263.8683935001027,None,263.8683935001027,264.3683851000387,,,,,,,,,,,,,,,,012,2022-05-11_16h06.24.709,FishGame,2022.1.1,61.18078927847548,
,7,넌 엄격해,3,Green,A,4.166666666666666,4.1,ScrollDown,ScrollUp,Green.png,2,Neutral,Neutral,,,,,0,0,0,0,,,,,,,,,,,,,,,,,0,6,6,6,,,,,,,,,,,,,,,,,,,,,,,,,,,,,,,,,,,,,,,,,,,,,,,,,,,,,,,,,,,,,,,,,,,,,,,,,,,,,1.162037044763565,1.0090156998485327,264.9981126000639,None,ScrollDown,정답입니다,264.9981126000639,None,264.9981126000639,None,264.9981126000639,None,264.9981126000639,None,265.90383030008525,None,265.90383030008525,266.41848640004173,,,,,,,,,,,,,,,,012,2022-05-11_16h06.24.709,FishGame,2022.1.1,61.18078927847548,
,8,나를 보내줘,6,Green,A,0,0,ScrollUp,ScrollDown,Green.png,2,NonTarget,NonTarget,,,,,0,0,0,0,,,,,,,,,,,,,,,,,0,7,7,7,,,,,,,,,,,,,,,,,,,,,,,,,,,,,,,,,,,,,,,,,,,,,,,,,,,,,,,,,,,,,,,,,,,,,,,,,,,,,1.6728395000100136,1.078349000075832,267.04561340017244,None,ScrollUp,정답입니다,267.04561340017244,None,267.04561340017244,None,267.04561340017244,None,267.04561340017244,None,268.0182552000042,None,268.0182552000042,268.5204995002132,,,,,,,,,,,,,,,,012,2022-05-11_16h06.24.709,FishGame,2022.1.1,61.18078927847548,
,9,넌 대담해,3,Orange,B,4.875,4.866666666666666,ScrollUp,ScrollDown,Orange.png,2,Neutral,Neutral,,,,,0,0,0,0,,,,,,,,,,,,,,,,,0,8,8,8,,,,,,,,,,,,,,,,,,,,,,,,,,,,,,,,,,,,,,,,,,,,,,,,,,,,,,,,,,,,,,,,,,,,,,,,,,,,,1.6373456791043282,1.0461490999441594,269.1628426001407,None,ScrollUp,정답입니다,269.1628426001407,None,269.1628426001407,None,269.1628426001407,None,269.1628426001407,None,270.0848058001138,None,270.0848058001138,270.58497600001283,,,,,,,,,,,,,,,,012,2022-05-11_16h06.24.709,FishGame,2022.1.1,61.18078927847548,
,10,넌 꾸준해,1,Green,A,5.916666666666668,5.8,ScrollDown,ScrollUp,Green.png,2,Positive,Congruent,,,,,0,0,0,0,,,,,,,,,,,,,,,,,0,9,9,9,,,,,,,,,,,,,,,,,,,,,,,,,,,,,,,,,,,,,,,,,,,,,,,,,,,,,,,,,,,,,,,,,,,,,,,,,,,,,1.1589506169160206,0.9291970001067966,271.2082279000897,None,ScrollDown,정답입니다,271.2082279000897,None,271.2082279000897,None,271.2082279000897,None,271.2082279000897,None,272.0348174001556,None,272.0348174001556,272.5369963000994,,,,,,,,,,,,,,,,012,2022-05-11_16h06.24.709,FishGame,2022.1.1,61.18078927847548,
,11,나를 데려가줘,6,Orange,B,0,0,ScrollDown,ScrollUp,Orange.png,2,NonTarget,NonTarget,,,,,0,0,0,0,,,,,,,,,,,,,,,,,0,10,10,10,,,,,,,,,,,,,,,,,,,,,,,,,,,,,,,,,,,,,,,,,,,,,,,,,,,,,,,,,,,,,,,,,,,,,,,,,,,,,1.0833333333333333,1.2623801999725401,273.15930780000053,None,ScrollDown,정답입니다,273.15930780000053,None,273.15930780000053,None,273.15930780000053,None,273.15930780000053,None,274.32030640006997,None,274.32030640006997,274.8180260001682,,,,,,,,,,,,,,,,012,2022-05-11_16h06.24.709,FishGame,2022.1.1,61.18078927847548,
,12,넌 독선적이야,5,Green,A,2.458333333333333,1.933333333333333,ScrollDown,ScrollUp,Green.png,2,Negative,Incongruent,,,,,0,0,0,0,,,,,,,,,,,,,,,,,0,11,11,11,,,,,,,,,,,,,,,,,,,,,,,,,,,,,,,,,,,,,,,,,,,,,,,,,,,,,,,,,,,,,,,,,,,,,,,,,,,,,1.141975313425064,1.3947032000869513,275.46495330007747,None,ScrollDown,정답입니다,275.46495330007747,None,275.46495330007747,None,275.46495330007747,None,275.46495330007747,None,276.75143970013596,None,276.75143970013596,277.2514756000601,,,,,,,,,,,,,,,,012,2022-05-11_16h06.24.709,FishGame,2022.1.1,61.18078927847548,
,13,나를 보내줘,6,Green,A,0,0,ScrollUp,ScrollDown,Green.png,2,NonTarget,NonTarget,,,,,0,0,0,0,,,,,,,,,,,,,,,,,0,12,12,12,,,,,,,,,,,,,,,,,,,,,,,,,,,,,,,,,,,,,,,,,,,,,,,,,,,,,,,,,,,,,,,,,,,,,,,,,,,,,1.7052469179034233,1.0946924998424947,277.8781020999886,None,ScrollUp,정답입니다,277.8781020999886,None,277.8781020999886,None,277.8781020999886,None,277.8781020999886,None,278.86800550017506,None,278.86800550017506,279.3703354001045,,,,,,,,,,,,,,,,012,2022-05-11_16h06.24.709,FishGame,2022.1.1,61.18078927847548,
,14,넌 책임감있어,1,Orange,B,6.347826086956522,6,ScrollUp,ScrollDown,Orange.png,2,Positive,Incongruent,,,,,0,0,0,0,,,,,,,,,,,,,,,,,0,13,13,13,,,,,,,,,,,,,,,,,,,,,,,,,,,,,,,,,,,,,,,,,,,,,,,,,,,,,,,,,,,,,,,,,,,,,,,,,,,,,1.6975308607021966,0.9590253001078963,280.0010523002129,None,ScrollUp,정답입니다,280.0010523002129,None,280.0010523002129,None,280.0010523002129,None,280.0010523002129,None,280.85129360016435,None,280.85129360016435,281.3513558001723,,,,,,,,,,,,,,,,012,2022-05-11_16h06.24.709,FishGame,2022.1.1,61.18078927847548,
,15,넌 문학적이야,3,Green,A,4.708333333333334,4.333333333333333,ScrollDown,ScrollUp,Green.png,2,Neutral,Neutral,,,,,0,0,0,0,,,,,,,,,,,,,,,,,0,14,14,14,,,,,,,,,,,,,,,,,,,,,,,,,,,,,,,,,,,,,,,,,,,,,,,,,,,,,,,,,,,,,,,,,,,,,,,,,,,,,1.0509259402751923,1.009822300169617,281.9811614002101,None,ScrollDown,정답입니다,281.9811614002101,None,281.9811614002101,None,281.9811614002101,None,281.9811614002101,None,282.8845809001941,None,282.8845809001941,283.38715249998495,,,,,,,,,,,,,,,,012,2022-05-11_16h06.24.709,FishGame,2022.1.1,61.18078927847548,
,16,넌 재미있어,1,Orange,B,5.875,5.7,ScrollUp,ScrollDown,Orange.png,2,Positive,Incongruent,,,,,0,0,0,0,,,,,,,,,,,,,,,,,0,15,15,15,,,,,,,,,,,,,,,,,,,,,,,,,,,,,,,,,,,,,,,,,,,,,,,,,,,,,,,,,,,,,,,,,,,,,,,,,,,,,1.7206790198882422,1.0925465999171138,284.0133179000113,None,ScrollUp,정답입니다,284.0133179000113,None,284.0133179000113,None,284.0133179000113,None,284.0133179000113,None,285.00124080013484,None,285.00124080013484,285.5011796001345,,,,,,,,,,,,,,,,012,2022-05-11_16h06.24.709,FishGame,2022.1.1,61.18078927847548,
,17,나를 데려가줘,6,Orange,B,0,0,ScrollDown,ScrollUp,Orange.png,2,NonTarget,NonTarget,,,,,0,0,0,0,,,,,,,,,,,,,,,,,0,16,16,16,,,,,,,,,,,,,,,,,,,,,,,,,,,,,,,,,,,,,,,,,,,,,,,,,,,,,,,,,,,,,,,,,,,,,,,,,,,,,1.200617293516795,1.0613269000314176,286.12784279999323,None,ScrollDown,정답입니다,286.12784279999323,None,286.12784279999323,None,286.12784279999323,None,286.12784279999323,None,287.0845469001215,None,287.0845469001215,287.5845365000423,,,,,,,,,,,,,,,,012,2022-05-11_16h06.24.709,FishGame,2022.1.1,61.18078927847548,
,18,넌 협력적이야,1,Green,A,5.625,5.633333333333334,ScrollDown,ScrollUp,Green.png,2,Positive,Congruent,,,,,0,0,0,0,,,,,,,,,,,,,,,,,0,17,17,17,,,,,,,,,,,,,,,,,,,,,,,,,,,,,,,,,,,,,,,,,,,,,,,,,,,,,,,,,,,,,,,,,,,,,,,,,,,,,1.174382706483205,1.0611711000092328,288.2139479999896,None,ScrollDown,정답입니다,288.2139479999896,None,288.2139479999896,None,288.2139479999896,None,288.2139479999896,None,289.16786230006255,None,289.16786230006255,289.66997330007143,,,,,,,,,,,,,,,,012,2022-05-11_16h06.24.709,FishGame,2022.1.1,61.18078927847548,
,19,넌 평범해,3,Orange,B,4.333333333333332,4.233333333333333,ScrollUp,ScrollDown,Orange.png,2,Neutral,Neutral,,,,,0,0,0,0,,,,,,,,,,,,,,,,,0,18,18,18,,,,,,,,,,,,,,,,,,,,,,,,,,,,,,,,,,,,,,,,,,,,,,,,,,,,,,,,,,,,,,,,,,,,,,,,,,,,,1.6805555572112403,0.9589319000951946,290.300895600114,None,ScrollUp,정답입니다,290.300895600114,None,290.300895600114,None,290.300895600114,None,290.300895600114,None,291.15078380005434,None,291.15078380005434,291.65100220008753,,,,,,,,,,,,,,,,012,2022-05-11_16h06.24.709,FishGame,2022.1.1,61.18078927847548,
,20,넌 오만해,5,Green,A,2.333333333333333,2,ScrollDown,ScrollUp,Green.png,2,Negative,Incongruent,,,,,0,0,0,0,,,,,,,,,,,,,,,,,0,19,19,19,,,,,,,,,,,,,,,,,,,,,,,,,,,,,,,,,,,,,,,,,,,,,,,,,,,,,,,,,,,,,,,,,,,,,,,,,,,,,1.1975308656692505,1.0278842998668551,292.2756321001798,None,ScrollDown,정답입니다,292.2756321001798,None,292.2756321001798,None,292.2756321001798,None,292.2756321001798,None,293.2007950001862,None,293.2007950001862,293.7033799001947,,,,,,,,,,,,,,,,012,2022-05-11_16h06.24.709,FishGame,2022.1.1,61.18078927847548,
,21,넌 운이없어,4,Orange,B,3,3.466666666666667,ScrollUp,ScrollDown,Orange.png,2,Negative,Congruent,,,,,0,0,0,0,,,,,,,,,,,,,,,,,0,20,20,20,,,,,,,,,,,,,,,,,,,,,,,,,,,,,,,,,,,,,,,,,,,,,,,,,,,,,,,,,,,,,,,,,,,,,,,,,,,,,1.7006172885497413,0.9665027998853475,294.33651360007934,None,ScrollUp,정답입니다,294.33651360007934,None,294.33651360007934,None,294.33651360007934,None,294.33651360007934,None,295.19165940000676,None,295.19165940000676,295.7010236000642,,,,,,,,,,,,,,,,012,2022-05-11_16h06.24.709,FishGame,2022.1.1,61.18078927847548,
,22,넌 창조적이야,2,Orange,B,6.125,4.633333333333334,ScrollUp,ScrollDown,Orange.png,2,Positive,Incongruent,,,,,0,0,0,0,,,,,,,,,,,,,,,,,0,21,21,21,,,,,,,,,,,,,,,,,,,,,,,,,,,,,,,,,,,,,,,,,,,,,,,,,,,,,,,,,,,,,,,,,,,,,,,,,,,,,1.7175925920406976,0.9429003000259399,296.33984570018947,None,ScrollUp,정답입니다,296.33984570018947,None,296.33984570018947,None,296.33984570018947,None,296.33984570018947,None,297.16979700000957,None,297.16979700000957,297.6844307000283,,,,,,,,,,,,,,,,012,2022-05-11_16h06.24.709,FishGame,2022.1.1,61.18078927847548,
,23,나를 보내줘,6,Green,A,0,0,ScrollUp,ScrollDown,Green.png,2,NonTarget,NonTarget,,,,,0,0,0,0,,,,,,,,,,,,,,,,,0,22,22,22,,,,,,,,,,,,,,,,,,,,,,,,,,,,,,,,,,,,,,,,,,,,,,,,,,,,,,,,,,,,,,,,,,,,,,,,,,,,,1.6358024651805558,1.1599634001031518,298.3043072000146,None,ScrollUp,정답입니다,298.3043072000146,None,298.3043072000146,None,298.3043072000146,None,298.3043072000146,None,299.35090010007843,None,299.35090010007843,299.8530513001606,,,,,,,,,,,,,,,,012,2022-05-11_16h06.24.709,FishGame,2022.1.1,61.18078927847548,
,24,넌 통찰력있어,2,Green,A,6.5,4.8,ScrollDown,ScrollUp,Green.png,2,Positive,Congruent,,,,,0,0,0,0,,,,,,,,,,,,,,,,,0,23,23,23,,,,,,,,,,,,,,,,,,,,,,,,,,,,,,,,,,,,,,,,,,,,,,,,,,,,,,,,,,,,,,,,,,,,,,,,,,,,,1.120370368162791,1.077932900050655,300.4827592000365,None,ScrollDown,정답입니다,300.4827592000365,None,300.4827592000365,None,300.4827592000365,None,300.4827592000365,None,301.4508468999993,None,301.4508468999993,301.95302350004204,,,,,,,,,,,,,,,,012,2022-05-11_16h06.24.709,FishGame,2022.1.1,61.18078927847548,
,25,넌 경솔해,5,Orange,B,2.458333333333333,2.266666666666667,ScrollUp,ScrollDown,Orange.png,2,Negative,Congruent,,,,,0,0,0,0,,,,,,,,,,,,,,,,,0,24,24,24,,,,,,,,,,,,,,,,,,,,,,,,,,,,,,,,,,,,,,,,,,,,,,,,,,,,,,,,,,,,,,,,,,,,,,,,,,,,,1.6172839477658272,0.9777196999639273,302.58417390007526,None,ScrollUp,정답입니다,302.58417390007526,None,302.58417390007526,None,302.58417390007526,None,302.58417390007526,None,303.4565228000283,None,303.4565228000283,303.96753290016204,,,,,,,,,,,,,,,,012,2022-05-11_16h06.24.709,FishGame,2022.1.1,61.18078927847548,
,26,넌 초조해,4,Green,A,2.916666666666667,3.133333333333333,ScrollDown,ScrollUp,Green.png,2,Negative,Incongruent,,,,,0,0,0,0,,,,,,,,,,,,,,,,,0,25,25,25,,,,,,,,,,,,,,,,,,,,,,,,,,,,,,,,,,,,,,,,,,,,,,,,,,,,,,,,,,,,,,,,,,,,,,,,,,,,,1.194444437821706,0.9115801998414099,304.5948022000957,None,ScrollDown,정답입니다,304.5948022000957,None,304.5948022000957,None,304.5948022000957,None,304.5948022000957,None,305.4007656001486,None,305.4007656001486,305.90090650017373,,,,,,,,,,,,,,,,012,2022-05-11_16h06.24.709,FishGame,2022.1.1,61.18078927847548,
,27,넌 무관심해,4,Orange,B,2.833333333333333,2.9,ScrollUp,ScrollDown,Orange.png,2,Negative,Congruent,,,,,0,0,0,0,,,,,,,,,,,,,,,,,0,26,26,26,,,,,,,,,,,,,,,,,,,,,,,,,,,,,,,,,,,,,,,,,,,,,,,,,,,,,,,,,,,,,,,,,,,,,,,,,,,,,1.6604938258727393,0.9259371999651194,306.532089299988,None,ScrollUp,정답입니다,306.532089299988,None,306.532089299988,None,306.532089299988,None,306.532089299988,None,307.35300140012987,None,307.35300140012987,307.8674686001614,,,,,,,,,,,,,,,,012,2022-05-11_16h06.24.709,FishGame,2022.1.1,61.18078927847548,
,28,넌 감성적이야,3,Orange,B,4.125,4.166666666666667,ScrollUp,ScrollDown,Orange.png,2,Neutral,Neutral,,,,,0,0,0,0,,,,,,,,,,,,,,,,,0,27,27,27,,,,,,,,,,,,,,,,,,,,,,,,,,,,,,,,,,,,,,,,,,,,,,,,,,,,,,,,,,,,,,,,,,,,,,,,,,,,,1.6358024651805558,1.1253151001874357,308.48406310006976,None,ScrollUp,정답입니다,308.48406310006976,None,308.48406310006976,None,308.48406310006976,None,308.48406310006976,None,309.5004057001788,None,309.5004057001788,310.0006181001663,,,,,,,,,,,,,,,,012,2022-05-11_16h06.24.709,FishGame,2022.1.1,61.18078927847548,
,29,넌 배려심있어,1,Green,A,6.083333333333333,5.5,ScrollDown,ScrollUp,Green.png,2,Positive,Congruent,,,,,0,0,0,0,,,,,,,,,,,,,,,,,0,28,28,28,,,,,,,,,,,,,,,,,,,,,,,,,,,,,,,,,,,,,,,,,,,,,,,,,,,,,,,,,,,,,,,,,,,,,,,,,,,,,1.2469135870536168,1.0613941000774503,310.6273616000544,None,ScrollDown,정답입니다,310.6273616000544,None,310.6273616000544,None,310.6273616000544,None,310.6273616000544,None,311.58631000015885,None,311.58631000015885,312.08622380020097,,,,,,,,,,,,,,,,012,2022-05-11_16h06.24.709,FishGame,2022.1.1,61.18078927847548,
,30,넌 숨김없어,3,Green,A,4.5,4.933333333333334,ScrollDown,ScrollUp,Green.png,2,Neutral,Neutral,,,,,0,0,0,0,,,,,,,,,,,,,,,,,0,29,29,29,,,,,,,,,,,,,,,,,,,,,,,,,,,,,,,,,,,,,,,,,,,,,,,,,,,,,,,,,,,,,,,,,,,,,,,,,,,,,1.2654321044683456,1.65889299986884,312.71430580015294,None,ScrollDown,정답입니다,312.71430580015294,None,312.71430580015294,None,312.71430580015294,None,312.71430580015294,None,314.26731750019826,None,314.26731750019826,314.7672793001402,,,,,,,,,,,,,,,,012,2022-05-11_16h06.24.709,FishGame,2022.1.1,61.18078927847548,
,31,넌 훌륭해,2,Orange,B,5.916666666666667,4.033333333333333,ScrollUp,ScrollDown,Orange.png,2,Positive,Incongruent,,,,,0,0,0,0,,,,,,,,,,,,,,,,,0,30,30,30,,,,,,,,,,,,,,,,,,,,,,,,,,,,,,,,,,,,,,,,,,,,,,,,,,,,,,,,,,,,,,,,,,,,,,,,,,,,,1.7268518507480621,1.0257484999019653,315.3998991001863,None,ScrollUp,정답입니다,315.3998991001863,None,315.3998991001863,None,315.3998991001863,None,315.3998991001863,None,316.3172461001668,None,316.3172461001668,316.81725790002383,,,,,,,,,,,,,,,,012,2022-05-11_16h06.24.709,FishGame,2022.1.1,61.18078927847548,
,32,넌 슬기로워,2,Green,A,6.166666666666667,4.1,ScrollDown,ScrollUp,Green.png,2,Positive,Congruent,,,,,0,0,0,0,,,,,,,,,,,,,,,,,0,31,31,31,,,,,,,,,,,,,,,,,,,,,,,,,,,,,,,,,,,,,,,,,,,,,,,,,,,,,,,,,,,,,,,,,,,,,,,,,,,,,1.233024686574936,0.9591991999186575,317.45584130007774,None,ScrollDown,정답입니다,317.45584130007774,None,317.45584130007774,None,317.45584130007774,None,317.45584130007774,None,318.30049760011025,None,318.30049760011025,318.8006283000577,,,,,,,,,,,,,,,,012,2022-05-11_16h06.24.709,FishGame,2022.1.1,61.18078927847548,
,33,넌 냉혹해,5,Green,A,2.583333333333333,2.1,ScrollDown,ScrollUp,Green.png,2,Negative,Incongruent,,,,,0,0,0,0,,,,,,,,,,,,,,,,,0,32,32,32,,,,,,,,,,,,,,,,,,,,,,,,,,,,,,,,,,,,,,,,,,,,,,,,,,,,,,,,,,,,,,,,,,,,,,,,,,,,,1.3117283980051675,0.9590745000168681,319.4321403000504,None,ScrollDown,정답입니다,319.4321403000504,None,319.4321403000504,None,319.4321403000504,None,319.4321403000504,None,320.283718300052,None,320.283718300052,320.78383720014244,,,,,,,,,,,,,,,,012,2022-05-11_16h06.24.709,FishGame,2022.1.1,61.18078927847548,
,34,나를 데려가줘,6,Orange,B,0,0,ScrollDown,ScrollUp,Orange.png,2,NonTarget,NonTarget,,,,,0,0,0,0,,,,,,,,,,,,,,,,,0,33,33,33,,,,,,,,,,,,,,,,,,,,,,,,,,,,,,,,,,,,,,,,,,,,,,,,,,,,,,,,,,,,,,,,,,,,,,,,,,,,,1.1990740795930226,0.994595899945125,321.4099896000698,None,ScrollDown,정답입니다,321.4099896000698,None,321.4099896000698,None,321.4099896000698,None,321.4099896000698,None,322.3003752999939,None,322.3003752999939,322.80038040014915,,,,,,,,,,,,,,,,012,2022-05-11_16h06.24.709,FishGame,2022.1.1,61.18078927847548,
,35,넌 편파적이야,5,Orange,B,2.125,2,ScrollUp,ScrollDown,Orange.png,2,Negative,Congruent,,,,,0,0,0,0,,,,,,,,,,,,,,,,,0,34,34,34,,,,,,,,,,,,,,,,,,,,,,,,,,,,,,,,,,,,,,,,,,,,,,,,,,,,,,,,,,,,,,,,,,,,,,,,,,,,,1.6234567910432816,1.1611470999196172,323.43225910002366,None,ScrollUp,정답입니다,323.43225910002366,None,323.43225910002366,None,323.43225910002366,None,323.43225910002366,None,324.48585980013013,None,324.48585980013013,325.00268750009127,,,,,,,,,,,,,,,,012,2022-05-11_16h06.24.709,FishGame,2022.1.1,61.18078927847548,
,36,넌 슬퍼,4,Green,A,2.583333333333333,3.066666666666667,ScrollDown,ScrollUp,Green.png,2,Negative,Incongruent,,,,,0,0,0,0,,,,,,,,,,,,,,,,,0,35,35,35,,,,,,,,,,,,,,,,,,,,,,,,,,,,,,,,,,,,,,,,,,,,,,,,,,,,,,,,,,,,,,,,,,,,,,,,,,,,,1.214506169160207,0.9256220001261681,325.630467900075,None,ScrollDown,정답입니다,325.630467900075,None,325.630467900075,None,325.630467900075,None,325.630467900075,None,326.45002270000987,None,326.45002270000987,326.9501086000819,,,,,,,,,,,,,,,,012,2022-05-11_16h06.24.709,FishGame,2022.1.1,61.18078927847548,
,37,나를 데려가줘,6,Orange,B,0,0,ScrollDown,ScrollUp,Orange.png,2,NonTarget,NonTarget,,,,,0,0,0,0,,,,,,,,,,,,,,,,,0,36,36,36,,,,,,,,,,,,,,,,,,,,,,,,,,,,,,,,,,,,,,,,,,,,,,,,,,,,,,,,,,,,,,,,,,,,,,,,,,,,,1.192901223897934,1.1280598000157624,327.57443420006894,None,ScrollDown,정답입니다,327.57443420006894,None,327.57443420006894,None,327.57443420006894,None,327.57443420006894,None,328.6000350001268,None,328.6000350001268,329.1025392001029,,,,,,,,,,,,,,,,012,2022-05-11_16h06.24.709,FishGame,2022.1.1,61.18078927847548,
,38,넌 친절해,1,Orange,B,6.041666666666667,5.533333333333333,ScrollUp,ScrollDown,Orange.png,2,Positive,Incongruent,,,,,0,0,0,0,,,,,,,,,,,,,,,,,0,37,37,37,,,,,,,,,,,,,,,,,,,,,,,,,,,,,,,,,,,,,,,,,,,,,,,,,,,,,,,,,,,,,,,,,,,,,,,,,,,,,1.4891975312493742,1.0276913999114186,329.73720820015296,None,NoResponse,무응답입니다,329.73720820015296,None,329.73720820015296,None,329.73720820015296,None,329.73720820015296,None,330.6503316999879,None,330.6503316999879,331.1502404999919,,,,,,,,,,,,,,,,012,2022-05-11_16h06.24.709,FishGame,2022.1.1,61.18078927847548,
,1,넌 엉성해,4,Green,A,3,3.3,ScrollDown,ScrollUp,Green.png,3,Negative,Incongruent,,,,,0,0,0,0,,,,,,,,,,,,,,,,,,,,,0,0,0,0,,,,,,,,,,,,,,,,,,,,,,,,,,,,,,,,363.28285890002735,364.7828510000836,364.8162316000089,365.77163870004006,365.8216344001703,366.78276420012116,366.7684025000781,None,,,,,,,,,,,,,,,,,,,,,,,,,,,,,,,,,,1.194444437821706,1.2919139999430627,367.8940175001044,None,ScrollDown,정답입니다,367.8940175001044,None,367.8940175001044,None,367.8940175001044,None,367.8940175001044,None,369.08270999998786,None,369.08270999998786,369.58269380009733,331.65254050004296,None,331.65254050004296,None,0.014814815,-0.10092592,1,0,0,0.015935860108584166,None,361.64959250018,None,,,012,2022-05-11_16h06.24.709,FishGame,2022.1.1,61.18078927847548,
,2,나를 보내줘,6,Green,A,0,0,ScrollUp,ScrollDown,Green.png,3,NonTarget,NonTarget,,,,,0,0,0,0,,,,,,,,,,,,,,,,,,,,,0,1,1,1,,,,,,,,,,,,,,,,,,,,,,,,,,,,,,,,,,,,,,,,,,,,,,,,,,,,,,,,,,,,,,,,,,,,,,,,,1.6157407462596893,1.0743095998186618,370.20561509998515,None,ScrollUp,정답입니다,370.20561509998515,None,370.20561509998515,None,370.20561509998515,None,370.20561509998515,None,371.1780880000442,None,371.1780880000442,371.6824761000462,,,,,,,,,,,,,,,,012,2022-05-11_16h06.24.709,FishGame,2022.1.1,61.18078927847548,
,3,넌 활발해,1,Orange,B,5.666666666666667,5.6,ScrollUp,ScrollDown,Orange.png,3,Positive,Incongruent,,,,,0,0,0,0,,,,,,,,,,,,,,,,,,,,,0,2,2,2,,,,,,,,,,,,,,,,,,,,,,,,,,,,,,,,,,,,,,,,,,,,,,,,,,,,,,,,,,,,,,,,,,,,,,,,,1.8024691343307495,0.8618546000216156,372.30653780000284,None,ScrollUp,정답입니다,372.30653780000284,None,372.30653780000284,None,372.30653780000284,None,372.30653780000284,None,373.0657372002024,None,373.0657372002024,373.56582480017096,,,,,,,,,,,,,,,,012,2022-05-11_16h06.24.709,FishGame,2022.1.1,61.18078927847548,
,4,넌 논리적이야,2,Green,A,5.666666666666666,4.633333333333334,ScrollDown,ScrollUp,Green.png,3,Positive,Congruent,,,,,0,0,0,0,,,,,,,,,,,,,,,,,,,,,0,3,3,3,,,,,,,,,,,,,,,,,,,,,,,,,,,,,,,,,,,,,,,,,,,,,,,,,,,,,,,,,,,,,,,,,,,,,,,,,1.297839509944121,0.910828499821946,374.1960957001429,None,ScrollDown,정답입니다,374.1960957001429,None,374.1960957001429,None,374.1960957001429,None,374.1960957001429,None,375.00162880006246,None,375.00162880006246,375.5181843000464,,,,,,,,,,,,,,,,012,2022-05-11_16h06.24.709,FishGame,2022.1.1,61.18078927847548,
,5,넌 과묵해,3,Green,A,3.875,4.4,ScrollDown,ScrollUp,Green.png,3,Neutral,Neutral,,,,,0,0,0,0,,,,,,,,,,,,,,,,,,,,,0,4,4,4,,,,,,,,,,,,,,,,,,,,,,,,,,,,,,,,,,,,,,,,,,,,,,,,,,,,,,,,,,,,,,,,,,,,,,,,,1.3564814776182175,0.9760942000430077,376.1452321000397,None,ScrollDown,정답입니다,376.1452321000397,None,376.1452321000397,None,376.1452321000397,None,376.1452321000397,None,377.01588600012474,None,377.01588600012474,377.51831100019626,,,,,,,,,,,,,,,,012,2022-05-11_16h06.24.709,FishGame,2022.1.1,61.18078927847548,
,6,나를 데려가줘,6,Orange,B,0,0,ScrollDown,ScrollUp,Orange.png,3,NonTarget,NonTarget,,,,,0,0,0,0,,,,,,,,,,,,,,,,,,,,,0,5,5,5,,,,,,,,,,,,,,,,,,,,,,,,,,,,,,,,,,,,,,,,,,,,,,,,,,,,,,,,,,,,,,,,,,,,,,,,,1.1898148208856583,1.0430512998718768,378.141497900011,None,ScrollDown,정답입니다,378.141497900011,None,378.141497900011,None,378.141497900011,None,378.141497900011,None,379.08253930020146,None,379.08253930020146,379.5825267001055,,,,,,,,,,,,,,,,012,2022-05-11_16h06.24.709,FishGame,2022.1.1,61.18078927847548,
,7,넌 미숙해,4,Orange,B,3,3,ScrollUp,ScrollDown,Orange.png,3,Negative,Congruent,,,,,0,0,0,0,,,,,,,,,,,,,,,,,,,,,0,6,6,6,,,,,,,,,,,,,,,,,,,,,,,,,,,,,,,,,,,,,,,,,,,,,,,,,,,,,,,,,,,,,,,,,,,,,,,,,1.609567902982235,0.9279983001761138,380.2070381999947,None,ScrollUp,정답입니다,380.2070381999947,None,380.2070381999947,None,380.2070381999947,None,380.2070381999947,None,381.03246960020624,None,381.03246960020624,381.53469970007427,,,,,,,,,,,,,,,,012,2022-05-11_16h06.24.709,FishGame,2022.1.1,61.18078927847548,
,8,나를 보내줘,6,Green,A,0,0,ScrollUp,ScrollDown,Green.png,3,NonTarget,NonTarget,,,,,0,0,0,0,,,,,,,,,,,,,,,,,,,,,0,7,7,7,,,,,,,,,,,,,,,,,,,,,,,,,,,,,,,,,,,,,,,,,,,,,,,,,,,,,,,,,,,,,,,,,,,,,,,,,1.6944444452722869,0.9588351000566036,382.1592127000913,None,ScrollUp,정답입니다,382.1592127000913,None,382.1592127000913,None,382.1592127000913,None,382.1592127000913,None,383.0157042001374,None,383.0157042001374,383.5157862000633,,,,,,,,,,,,,,,,012,2022-05-11_16h06.24.709,FishGame,2022.1.1,61.18078927847548,
,9,넌 자신만만해,3,Orange,B,4.833333333333334,4.333333333333333,ScrollUp,ScrollDown,Orange.png,3,Neutral,Neutral,,,,,0,0,0,0,,,,,,,,,,,,,,,,,,,,,0,8,8,8,,,,,,,,,,,,,,,,,,,,,,,,,,,,,,,,,,,,,,,,,,,,,,,,,,,,,,,,,,,,,,,,,,,,,,,,,1.6651234552264214,1.2931389000732452,384.14289180003107,None,ScrollUp,정답입니다,384.14289180003107,None,384.14289180003107,None,384.14289180003107,None,384.14289180003107,None,385.33235150016844,None,385.33235150016844,385.8323510000482,,,,,,,,,,,,,,,,012,2022-05-11_16h06.24.709,FishGame,2022.1.1,61.18078927847548,
,10,넌 탐욕스러워,5,Green,A,2.25,2.1,ScrollDown,ScrollUp,Green.png,3,Negative,Incongruent,,,,,0,0,0,0,,,,,,,,,,,,,,,,,,,,,0,9,9,9,,,,,,,,,,,,,,,,,,,,,,,,,,,,,,,,,,,,,,,,,,,,,,,,,,,,,,,,,,,,,,,,,,,,,,,,,1.2499999900658925,1.1278089999686927,386.4629062002059,None,ScrollDown,정답입니다,386.4629062002059,None,386.4629062002059,None,386.4629062002059,None,386.4629062002059,None,387.4824079000391,None,387.4824079000391,387.9823839000892,,,,,,,,,,,,,,,,012,2022-05-11_16h06.24.709,FishGame,2022.1.1,61.18078927847548,
,11,넌 인기있어,2,Green,A,5.458333333333333,4.5,ScrollDown,ScrollUp,Green.png,3,Positive,Congruent,,,,,0,0,0,0,,,,,,,,,,,,,,,,,,,,,0,10,10,10,,,,,,,,,,,,,,,,,,,,,,,,,,,,,,,,,,,,,,,,,,,,,,,,,,,,,,,,,,,,,,,,,,,,,,,,,1.3117283980051675,1.0264967000111938,388.60483150021173,None,ScrollDown,정답입니다,388.60483150021173,None,388.60483150021173,None,388.60483150021173,None,388.60483150021173,None,389.53224960016087,None,389.53224960016087,390.0322558002081,,,,,,,,,,,,,,,,012,2022-05-11_16h06.24.709,FishGame,2022.1.1,61.18078927847548,
,12,나를 데려가줘,6,Orange,B,0,0,ScrollDown,ScrollUp,Orange.png,3,NonTarget,NonTarget,,,,,0,0,0,0,,,,,,,,,,,,,,,,,,,,,0,11,11,11,,,,,,,,,,,,,,,,,,,,,,,,,,,,,,,,,,,,,,,,,,,,,,,,,,,,,,,,,,,,,,,,,,,,,,,,,1.410493828356266,1.0758305001072586,390.66897670016624,None,ScrollDown,정답입니다,390.66897670016624,None,390.66897670016624,None,390.66897670016624,None,390.66897670016624,None,391.6322689000517,None,391.6322689000517,392.1380345001817,,,,,,,,,,,,,,,,012,2022-05-11_16h06.24.709,FishGame,2022.1.1,61.18078927847548,
,13,넌 뛰어나,2,Orange,B,6.166666666666667,4,ScrollUp,ScrollDown,Orange.png,3,Positive,Incongruent,,,,,0,0,0,0,,,,,,,,,,,,,,,,,,,,,0,12,12,12,,,,,,,,,,,,,,,,,,,,,,,,,,,,,,,,,,,,,,,,,,,,,,,,,,,,,,,,,,,,,,,,,,,,,,,,,1.537037037933866,0.9778863000683486,392.76406170008704,None,NoResponse,무응답입니다,392.76406170008704,None,392.76406170008704,None,392.76406170008704,None,392.76406170008704,None,393.63214540015906,None,393.63214540015906,394.1324113002047,,,,,,,,,,,,,,,,012,2022-05-11_16h06.24.709,FishGame,2022.1.1,61.18078927847548,
,14,넌 낙관적이야,1,Green,A,5.75,5.8,ScrollDown,ScrollUp,Green.png,3,Positive,Congruent,,,,,0,0,0,0,,,,,,,,,,,,,,,,,,,,,0,13,13,13,,,,,,,,,,,,,,,,,,,,,,,,,,,,,,,,,,,,,,,,,,,,,,,,,,,,,,,,,,,,,,,,,,,,,,,,,1.1959876517454784,1.011322199832648,394.77062349999323,None,ScrollDown,정답입니다,394.77062349999323,None,394.77062349999323,None,394.77062349999323,None,394.77062349999323,None,395.6654941001907,None,395.6654941001907,396.1655882000923,,,,,,,,,,,,,,,,012,2022-05-11_16h06.24.709,FishGame,2022.1.1,61.18078927847548,
,15,넌 산만해,4,Orange,B,2.695652173913043,3.033333333333333,ScrollUp,ScrollDown,Orange.png,3,Negative,Congruent,,,,,0,0,0,0,,,,,,,,,,,,,,,,,,,,,0,14,14,14,,,,,,,,,,,,,,,,,,,,,,,,,,,,,,,,,,,,,,,,,,,,,,,,,,,,,,,,,,,,,,,,,,,,,,,,,1.6435185223817825,0.9753236998803914,396.7969645000994,None,ScrollUp,정답입니다,396.7969645000994,None,396.7969645000994,None,396.7969645000994,None,396.7969645000994,None,397.6653945001308,None,397.6653945001308,398.1654302000534,,,,,,,,,,,,,,,,012,2022-05-11_16h06.24.709,FishGame,2022.1.1,61.18078927847548,
,16,나를 보내줘,6,Green,A,0,0,ScrollUp,ScrollDown,Green.png,3,NonTarget,NonTarget,,,,,0,0,0,0,,,,,,,,,,,,,,,,,,,,,0,15,15,15,,,,,,,,,,,,,,,,,,,,,,,,,,,,,,,,,,,,,,,,,,,,,,,,,,,,,,,,,,,,,,,,,,,,,,,,,1.6666666691501937,1.0777213000692427,398.79985509999096,None,ScrollUp,정답입니다,398.79985509999096,None,398.79985509999096,None,398.79985509999096,None,398.79985509999096,None,399.7653655000031,None,399.7653655000031,400.26540030003525,,,,,,,,,,,,,,,,012,2022-05-11_16h06.24.709,FishGame,2022.1.1,61.18078927847548,
,17,넌 교활해,5,Orange,B,2.333333333333333,2.133333333333333,ScrollUp,ScrollDown,Orange.png,3,Negative,Congruent,,,,,0,0,0,0,,,,,,,,,,,,,,,,,,,,,0,16,16,16,,,,,,,,,,,,,,,,,,,,,,,,,,,,,,,,,,,,,,,,,,,,,,,,,,,,,,,,,,,,,,,,,,,,,,,,,1.6975308607021966,1.0778487001080066,400.89555020001717,None,ScrollUp,정답입니다,400.89555020001717,None,400.89555020001717,None,400.89555020001717,None,400.89555020001717,None,401.8653499002103,None,401.8653499002103,402.36551270005293,,,,,,,,,,,,,,,,012,2022-05-11_16h06.24.709,FishGame,2022.1.1,61.18078927847548,
,18,나를 보내줘,6,Green,A,0,0,ScrollUp,ScrollDown,Green.png,3,NonTarget,NonTarget,,,,,0,0,0,0,,,,,,,,,,,,,,,,,,,,,0,17,17,17,,,,,,,,,,,,,,,,,,,,,,,,,,,,,,,,,,,,,,,,,,,,,,,,,,,,,,,,,,,,,,,,,,,,,,,,,1.7731481442848842,1.1422957999166101,402.99229370011017,None,ScrollUp,정답입니다,402.99229370011017,None,402.99229370011017,None,402.99229370011017,None,402.99229370011017,None,404.0319168001879,None,404.0319168001879,404.53202909999527,,,,,,,,,,,,,,,,012,2022-05-11_16h06.24.709,FishGame,2022.1.1,61.18078927847548,
,19,넌 불친절해,5,Orange,B,2.208333333333333,2.033333333333333,ScrollUp,ScrollDown,Orange.png,3,Negative,Congruent,,,,,0,0,0,0,,,,,,,,,,,,,,,,,,,,,0,18,18,18,,,,,,,,,,,,,,,,,,,,,,,,,,,,,,,,,,,,,,,,,,,,,,,,,,,,,,,,,,,,,,,,,,,,,,,,,1.6033950597047806,0.9945032999385148,405.16112970001996,None,ScrollUp,정답입니다,405.16112970001996,None,405.16112970001996,None,405.16112970001996,None,405.16112970001996,None,406.04859780007973,None,406.04859780007973,406.55087710008956,,,,,,,,,,,,,,,,012,2022-05-11_16h06.24.709,FishGame,2022.1.1,61.18078927847548,
,20,넌 지적이야,2,Orange,B,5.75,4.366666666666666,ScrollUp,ScrollDown,Orange.png,3,Positive,Incongruent,,,,,0,0,0,0,,,,,,,,,,,,,,,,,,,,,0,19,19,19,,,,,,,,,,,,,,,,,,,,,,,,,,,,,,,,,,,,,,,,,,,,,,,,,,,,,,,,,,,,,,,,,,,,,,,,,1.6435185223817825,0.9257606000173837,407.1790560001973,None,ScrollUp,정답입니다,407.1790560001973,None,407.1790560001973,None,407.1790560001973,None,407.1790560001973,None,407.9985173000023,None,407.9985173000023,408.4987659000326,,,,,,,,,,,,,,,,012,2022-05-11_16h06.24.709,FishGame,2022.1.1,61.18078927847548,
,21,넌 우유부단해,4,Green,A,2.666666666666667,3.166666666666667,ScrollDown,ScrollUp,Green.png,3,Negative,Incongruent,,,,,0,0,0,0,,,,,,,,,,,,,,,,,,,,,0,20,20,20,,,,,,,,,,,,,,,,,,,,,,,,,,,,,,,,,,,,,,,,,,,,,,,,,,,,,,,,,,,,,,,,,,,,,,,,,1.2268518557151158,1.0113214999437332,409.1287043001503,None,ScrollDown,정답입니다,409.1287043001503,None,409.1287043001503,None,409.1287043001503,None,409.1287043001503,None,410.03181030019186,None,410.03181030019186,410.53188010002486,,,,,,,,,,,,,,,,012,2022-05-11_16h06.24.709,FishGame,2022.1.1,61.18078927847548,
,22,나를 데려가줘,6,Orange,B,0,0,ScrollDown,ScrollUp,Orange.png,3,NonTarget,NonTarget,,,,,0,0,0,0,,,,,,,,,,,,,,,,,,,,,0,21,21,21,,,,,,,,,,,,,,,,,,,,,,,,,,,,,,,,,,,,,,,,,,,,,,,,,,,,,,,,,,,,,,,,,,,,,,,,,1.1959876517454784,1.2611241999547929,411.15723880007863,None,ScrollDown,정답입니다,411.15723880007863,None,411.15723880007863,None,411.15723880007863,None,411.15723880007863,None,412.3151934000198,None,412.3151934000198,412.817445400171,,,,,,,,,,,,,,,,012,2022-05-11_16h06.24.709,FishGame,2022.1.1,61.18078927847548,
,23,넌 성실해,1,Orange,B,6.041666666666666,5.7,ScrollUp,ScrollDown,Orange.png,3,Positive,Incongruent,,,,,0,0,0,0,,,,,,,,,,,,,,,,,,,,,0,22,22,22,,,,,,,,,,,,,,,,,,,,,,,,,,,,,,,,,,,,,,,,,,,,,,,,,,,,,,,,,,,,,,,,,,,,,,,,,1.7222222338120141,1.1593257000204176,413.44257920002565,None,ScrollUp,정답입니다,413.44257920002565,None,413.44257920002565,None,413.44257920002565,None,413.44257920002565,None,414.4984500000719,None,414.4984500000719,414.99847880005836,,,,,,,,,,,,,,,,012,2022-05-11_16h06.24.709,FishGame,2022.1.1,61.18078927847548,
,24,넌 현실주의적이야,3,Green,A,4.625,4.4,ScrollDown,ScrollUp,Green.png,3,Neutral,Neutral,,,,,0,0,0,0,,,,,,,,,,,,,,,,,,,,,0,23,23,23,,,,,,,,,,,,,,,,,,,,,,,,,,,,,,,,,,,,,,,,,,,,,,,,,,,,,,,,,,,,,,,,,,,,,,,,,1.212962955236435,1.0780672000255436,415.62382990005426,None,ScrollDown,정답입니다,415.62382990005426,None,415.62382990005426,None,415.62382990005426,None,415.62382990005426,None,416.59836920001544,None,416.59836920001544,417.1005828001071,,,,,,,,,,,,,,,,012,2022-05-11_16h06.24.709,FishGame,2022.1.1,61.18078927847548,
,25,넌 진실돼,1,Green,A,6.625,5.566666666666666,ScrollDown,ScrollUp,Green.png,3,Positive,Congruent,,,,,0,0,0,0,,,,,,,,,,,,,,,,,,,,,0,24,24,24,,,,,,,,,,,,,,,,,,,,,,,,,,,,,,,,,,,,,,,,,,,,,,,,,,,,,,,,,,,,,,,,,,,,,,,,,1.2283950696388881,0.873027800116688,417.73376000020653,None,ScrollDown,정답입니다,417.73376000020653,None,417.73376000020653,None,417.73376000020653,None,417.73376000020653,None,418.49802709999494,None,418.49802709999494,418.99813790014014,,,,,,,,,,,,,,,,012,2022-05-11_16h06.24.709,FishGame,2022.1.1,61.18078927847548,
,26,넌 천진난만해,3,Orange,B,4.958333333333334,4.833333333333333,ScrollUp,ScrollDown,Orange.png,3,Neutral,Neutral,,,,,0,0,0,0,,,,,,,,,,,,,,,,,,,,,0,25,25,25,,,,,,,,,,,,,,,,,,,,,,,,,,,,,,,,,,,,,,,,,,,,,,,,,,,,,,,,,,,,,,,,,,,,,,,,,1.8487654278675716,0.9958657000679523,419.625949600013,None,ScrollUp,정답입니다,419.625949600013,None,419.625949600013,None,419.625949600013,None,419.625949600013,None,420.5172620001249,None,420.5172620001249,421.0150626001414,,,,,,,,,,,,,,,,012,2022-05-11_16h06.24.709,FishGame,2022.1.1,61.18078927847548,
,27,넌 교양없어,5,Green,A,2.416666666666667,2.2,ScrollDown,ScrollUp,Green.png,3,Negative,Incongruent,,,,,0,0,0,0,,,,,,,,,,,,,,,,,,,,,0,26,26,26,,,,,,,,,,,,,,,,,,,,,,,,,,,,,,,,,,,,,,,,,,,,,,,,,,,,,,,,,,,,,,,,,,,,,,,,,1.1651234477758408,1.0259390999563038,421.6419495001901,None,ScrollDown,정답입니다,421.6419495001901,None,421.6419495001901,None,421.6419495001901,None,421.6419495001901,None,422.5672520000953,None,422.5672520000953,423.08159850002266,,,,,,,,,,,,,,,,012,2022-05-11_16h06.24.709,FishGame,2022.1.1,61.18078927847548,
,28,나를 보내줘,6,Green,A,0,0,ScrollUp,ScrollDown,Green.png,3,NonTarget,NonTarget,,,,,0,0,0,0,,,,,,,,,,,,,,,,,,,,,0,27,27,27,,,,,,,,,,,,,,,,,,,,,,,,,,,,,,,,,,,,,,,,,,,,,,,,,,,,,,,,,,,,,,,,,,,,,,,,,1.6388888930281005,1.0450658001936972,423.7063596001826,None,ScrollUp,정답입니다,423.7063596001826,None,423.7063596001826,None,423.7063596001826,None,423.7063596001826,None,424.64818820008077,None,424.64818820008077,425.14834580011666,,,,,,,,,,,,,,,,012,2022-05-11_16h06.24.709,FishGame,2022.1.1,61.18078927847548,
,29,넌 엉뚱스러워,3,Green,A,4.166666666666667,4.133333333333334,ScrollDown,ScrollUp,Green.png,3,Neutral,Neutral,,,,,0,0,0,0,,,,,,,,,,,,,,,,,,,,,0,28,28,28,,,,,,,,,,,,,,,,,,,,,,,,,,,,,,,,,,,,,,,,,,,,,,,,,,,,,,,,,,,,,,,,,,,,,,,,,1.1697530895471573,0.9943563998676836,425.7767262000125,None,ScrollDown,정답입니다,425.7767262000125,None,425.7767262000125,None,425.7767262000125,None,425.7767262000125,None,426.66486660018563,None,426.66486660018563,427.16703230002895,,,,,,,,,,,,,,,,012,2022-05-11_16h06.24.709,FishGame,2022.1.1,61.18078927847548,
,30,넌 무지해,4,Orange,B,2.541666666666667,3.066666666666667,ScrollUp,ScrollDown,Orange.png,3,Negative,Congruent,,,,,0,0,0,0,,,,,,,,,,,,,,,,,,,,,0,29,29,29,,,,,,,,,,,,,,,,,,,,,,,,,,,,,,,,,,,,,,,,,,,,,,,,,,,,,,,,,,,,,,,,,,,,,,,,,1.743827154239019,0.8424829000141472,427.7903492001351,None,ScrollUp,정답입니다,427.7903492001351,None,427.7903492001351,None,427.7903492001351,None,427.7903492001351,None,428.5314430000726,None,428.5314430000726,429.0315039001871,,,,,,,,,,,,,,,,012,2022-05-11_16h06.24.709,FishGame,2022.1.1,61.18078927847548,
,31,넌 음울해,5,Orange,B,2.25,2.233333333333333,ScrollUp,ScrollDown,Orange.png,3,Negative,Congruent,,,,,0,0,0,0,,,,,,,,,,,,,,,,,,,,,0,30,30,30,,,,,,,,,,,,,,,,,,,,,,,,,,,,,,,,,,,,,,,,,,,,,,,,,,,,,,,,,,,,,,,,,,,,,,,,,1.6666666691501937,0.9224404999986291,429.6656734000426,None,ScrollUp,정답입니다,429.6656734000426,None,429.6656734000426,None,429.6656734000426,None,429.6656734000426,None,430.47665650001727,None,430.47665650001727,430.98126840009354,,,,,,,,,,,,,,,,012,2022-05-11_16h06.24.709,FishGame,2022.1.1,61.18078927847548,
,32,넌 냉소적이야,5,Green,A,2.916666666666667,2.4,ScrollDown,ScrollUp,Green.png,3,Negative,Incongruent,,,,,0,0,0,0,,,,,,,,,,,,,,,,,,,,,0,31,31,31,,,,,,,,,,,,,,,,,,,,,,,,,,,,,,,,,,,,,,,,,,,,,,,,,,,,,,,,,,,,,,,,,,,,,,,,,1.2623456766208014,0.9783226998988539,431.60549420001917,None,ScrollDown,정답입니다,431.60549420001917,None,431.60549420001917,None,431.60549420001917,None,431.60549420001917,None,432.48112450004555,None,432.48112450004555,432.9811888001859,,,,,,,,,,,,,,,,012,2022-05-11_16h06.24.709,FishGame,2022.1.1,61.18078927847548,
,33,나를 데려가줘,6,Orange,B,0,0,ScrollDown,ScrollUp,Orange.png,3,NonTarget,NonTarget,,,,,0,0,0,0,,,,,,,,,,,,,,,,,,,,,0,32,32,32,,,,,,,,,,,,,,,,,,,,,,,,,,,,,,,,,,,,,,,,,,,,,,,,,,,,,,,,,,,,,,,,,,,,,,,,,1.2268518557151158,1.2427962000947446,433.6103103000205,None,ScrollDown,정답입니다,433.6103103000205,None,433.6103103000205,None,433.6103103000205,None,433.6103103000205,None,434.7480809001718,None,434.7480809001718,435.25031790020876,,,,,,,,,,,,,,,,012,2022-05-11_16h06.24.709,FishGame,2022.1.1,61.18078927847548,
,34,넌 쾌활해,1,Green,A,5.541666666666666,5.733333333333333,ScrollDown,ScrollUp,Green.png,3,Positive,Congruent,,,,,0,0,0,0,,,,,,,,,,,,,,,,,,,,,0,33,33,33,,,,,,,,,,,,,,,,,,,,,,,,,,,,,,,,,,,,,,,,,,,,,,,,,,,,,,,,,,,,,,,,,,,,,,,,,1.0138889054457347,1.47906310018152,435.87067140010186,None,ScrollDown,정답입니다,435.87067140010186,None,435.87067140010186,None,435.87067140010186,None,435.87067140010186,None,437.2479134001769,None,437.2479134001769,437.7479823001195,,,,,,,,,,,,,,,,012,2022-05-11_16h06.24.709,FishGame,2022.1.1,61.18078927847548,
,35,나를 보내줘,6,Green,A,0,0,ScrollUp,ScrollDown,Green.png,3,NonTarget,NonTarget,,,,,0,0,0,0,,,,,,,,,,,,,,,,,,,,,0,34,34,34,,,,,,,,,,,,,,,,,,,,,,,,,,,,,,,,,,,,,,,,,,,,,,,,,,,,,,,,,,,,,,,,,,,,,,,,,1.787037044763565,1.1104641000274569,438.37946500000544,None,ScrollUp,정답입니다,438.37946500000544,None,438.37946500000544,None,438.37946500000544,None,438.37946500000544,None,439.38124270015396,None,439.38124270015396,439.88126650010236,,,,,,,,,,,,,,,,012,2022-05-11_16h06.24.709,FishGame,2022.1.1,61.18078927847548,
,36,넌 명랑해,1,Orange,B,5.739130434782609,5.666666666666667,ScrollUp,ScrollDown,Orange.png,3,Positive,Incongruent,,,,,0,0,0,0,,,,,,,,,,,,,,,,,,,,,0,35,35,35,,,,,,,,,,,,,,,,,,,,,,,,,,,,,,,,,,,,,,,,,,,,,,,,,,,,,,,,,,,,,,,,,,,,,,,,,1.6882716019948325,0.9112792999949306,440.5103339999914,None,ScrollUp,정답입니다,440.5103339999914,None,440.5103339999914,None,440.5103339999914,None,440.5103339999914,None,441.3144990000874,None,441.3144990000874,441.8144909001421,,,,,,,,,,,,,,,,012,2022-05-11_16h06.24.709,FishGame,2022.1.1,61.18078927847548,
,37,넌 멍해,4,Green,A,2.833333333333333,3.4,ScrollDown,ScrollUp,Green.png,3,Negative,Incongruent,,,,,0,0,0,0,,,,,,,,,,,,,,,,,,,,,0,36,36,36,,,,,,,,,,,,,,,,,,,,,,,,,,,,,,,,,,,,,,,,,,,,,,,,,,,,,,,,,,,,,,,,,,,,,,,,,1.2685185074806213,0.8938898001797497,442.4416053001769,None,ScrollDown,정답입니다,442.4416053001769,None,442.4416053001769,None,442.4416053001769,None,442.4416053001769,None,443.2310725999996,None,443.2310725999996,443.731170500163,,,,,,,,,,,,,,,,012,2022-05-11_16h06.24.709,FishGame,2022.1.1,61.18078927847548,
,38,나를 데려가줘,6,Orange,B,0,0,ScrollDown,ScrollUp,Orange.png,3,NonTarget,NonTarget,,,,,0,0,0,0,,,,,,,,,,,,,,,,,,,,,0,37,37,37,,,,,,,,,,,,,,,,,,,,,,,,,,,,,,,,,,,,,,,,,,,,,,,,,,,,,,,,,,,,,,,,,,,,,,,,,1.2716049353281655,1.0610118999611586,444.3599448001478,None,ScrollDown,정답입니다,444.3599448001478,None,444.3599448001478,None,444.3599448001478,None,444.3599448001478,None,445.3143941001035,None,445.3143941001035,445.8146891000215,,,,,,,,,,,,,,,,012,2022-05-11_16h06.24.709,FishGame,2022.1.1,61.18078927847548,
,39,넌 현명해,2,Green,A,6.541666666666666,4.533333333333333,ScrollDown,ScrollUp,Green.png,3,Positive,Congruent,,,,,0,0,0,0,,,,,,,,,,,,,,,,,,,,,0,38,38,38,,,,,,,,,,,,,,,,,,,,,,,,,,,,,,,,,,,,,,,,,,,,,,,,,,,,,,,,,,,,,,,,,,,,,,,,,1.1882716069618862,1.427606799872592,446.4367383001372,None,ScrollDown,정답입니다,446.4367383001372,None,446.4367383001372,None,446.4367383001372,None,446.4367383001372,None,447.76443320000544,None,447.76443320000544,448.2644162001088,,,,,,,,,,,,,,,,012,2022-05-11_16h06.24.709,FishGame,2022.1.1,61.18078927847548,
,40,넌 수줍어,3,Orange,B,3.541666666666666,4.366666666666666,ScrollUp,ScrollDown,Orange.png,3,Neutral,Neutral,,,,,0,0,0,0,,,,,,,,,,,,,,,,,,,,,0,39,39,39,,,,,,,,,,,,,,,,,,,,,,,,,,,,,,,,,,,,,,,,,,,,,,,,,,,,,,,,,,,,,,,,,,,,,,,,,1.7592592686414719,1.0943465998861939,448.8917378000915,None,ScrollUp,정답입니다,448.8917378000915,None,448.8917378000915,None,448.8917378000915,None,448.8917378000915,None,449.88092450005934,None,449.88092450005934,450.38312780018896,,,,,,,,,,,,,,,,012,2022-05-11_16h06.24.709,FishGame,2022.1.1,61.18078927847548,
,41,나를 데려가줘,6,Orange,B,0,0,ScrollDown,ScrollUp,Orange.png,3,NonTarget,NonTarget,,,,,0,0,0,0,,,,,,,,,,,,,,,,,,,,,0,40,40,40,,,,,,,,,,,,,,,,,,,,,,,,,,,,,,,,,,,,,,,,,,,,,,,,,,,,,,,,,,,,,,,,,,,,,,,,,1.3194444427887597,0.9943520999513566,451.01001010020263,None,ScrollDown,정답입니다,451.01001010020263,None,451.01001010020263,None,451.01001010020263,None,451.01001010020263,None,451.8976145000197,None,451.8976145000197,452.39985550008714,,,,,,,,,,,,,,,,012,2022-05-11_16h06.24.709,FishGame,2022.1.1,61.18078927847548,
,42,넌 성숙해,2,Orange,B,5.833333333333333,4.533333333333333,ScrollUp,ScrollDown,Orange.png,3,Positive,Incongruent,,,,,0,0,0,0,,,,,,,,,,,,,,,,,,,,,0,41,41,41,,,,,,,,,,,,,,,,,,,,,,,,,,,,,,,,,,,,,,,,,,,,,,,,,,,,,,,,,,,,,,,,,,,,,,,,,1.4706790130585432,0.9766770999412984,453.0229882001877,None,NoResponse,무응답입니다,453.0229882001877,None,453.0229882001877,None,453.0229882001877,None,453.0229882001877,None,453.8974957000464,None,453.8974957000464,454.3976892000064,,,,,,,,,,,,,,,,012,2022-05-11_16h06.24.709,FishGame,2022.1.1,61.18078927847548,
,1,넌 매력적이야,2,Orange,B,6.125,4.666666666666667,ScrollUp,ScrollDown,Orange.png,4,Positive,Incongruent,,,,,0,0,0,0,,,,,,,,,,,,,,,,,,,,,,,,,0,0,0,0,,,,,,,,,,,,,,,,,,,,,,,,,,,,486.2802711999975,487.7825802001171,487.8135781001765,488.76584920007735,488.8158746000845,489.7634393000044,489.7634393000044,None,,,,,,,,,,,,,,,,,,,,,,,,,,,,,,,,,,1.8549382835626602,1.4912030000705272,490.8765899001155,None,ScrollUp,정답입니다,490.8765899001155,None,490.8765899001155,None,490.8765899001155,None,490.8765899001155,None,492.2634276000317,None,492.2634276000317,492.76571030006744,454.8975439001806,None,454.8975439001806,None,0.014814815,-0.10277778,1,0,0,0.016001360025256872,None,484.8968873000704,None,,,012,2022-05-11_16h06.24.709,FishGame,2022.1.1,61.18078927847548,
,2,나를 보내줘,6,Green,A,0,0,ScrollUp,ScrollDown,Green.png,4,NonTarget,NonTarget,,,,,0,0,0,0,,,,,,,,,,,,,,,,,,,,,,,,,0,1,1,1,,,,,,,,,,,,,,,,,,,,,,,,,,,,,,,,,,,,,,,,,,,,,,,,,,,,,,,,,,,,,,,,,,,,,1.6712962985038757,1.0110647999681532,493.38473270018585,None,ScrollUp,정답입니다,493.38473270018585,None,493.38473270018585,None,493.38473270018585,None,493.38473270018585,None,494.29670280008577,None,494.29670280008577,494.79666170012206,,,,,,,,,,,,,,,,012,2022-05-11_16h06.24.709,FishGame,2022.1.1,61.18078927847548,
,3,넌 조심스러워,3,Green,A,4.791666666666666,4.666666666666667,ScrollDown,ScrollUp,Green.png,4,Neutral,Neutral,,,,,0,0,0,0,,,,,,,,,,,,,,,,,,,,,,,,,0,2,2,2,,,,,,,,,,,,,,,,,,,,,,,,,,,,,,,,,,,,,,,,,,,,,,,,,,,,,,,,,,,,,,,,,,,,,1.1975308656692505,0.9759252001531422,495.42551980004646,None,ScrollDown,정답입니다,495.42551980004646,None,495.42551980004646,None,495.42551980004646,None,495.42551980004646,None,496.29669300001115,None,496.29669300001115,496.79905600007623,,,,,,,,,,,,,,,,012,2022-05-11_16h06.24.709,FishGame,2022.1.1,61.18078927847548,
,4,넌 철학적이야,3,Orange,B,4.5,4.266666666666667,ScrollUp,ScrollDown,Orange.png,4,Neutral,Neutral,,,,,0,0,0,0,,,,,,,,,,,,,,,,,,,,,,,,,0,3,3,3,,,,,,,,,,,,,,,,,,,,,,,,,,,,,,,,,,,,,,,,,,,,,,,,,,,,,,,,,,,,,,,,,,,,,1.7623456716537476,0.9599903000053018,497.42399980011396,None,ScrollUp,정답입니다,497.42399980011396,None,497.42399980011396,None,497.42399980011396,None,497.42399980011396,None,498.2798718002159,None,498.2798718002159,498.78217280004174,,,,,,,,,,,,,,,,012,2022-05-11_16h06.24.709,FishGame,2022.1.1,61.18078927847548,
,5,넌 쩨쩨해,5,Green,A,2.375,2.133333333333333,ScrollDown,ScrollUp,Green.png,4,Negative,Incongruent,,,,,0,0,0,0,,,,,,,,,,,,,,,,,,,,,,,,,0,4,4,4,,,,,,,,,,,,,,,,,,,,,,,,,,,,,,,,,,,,,,,,,,,,,,,,,,,,,,,,,,,,,,,,,,,,,1.1682098756233852,0.9294966999441385,499.40381350019015,None,ScrollDown,정답입니다,499.40381350019015,None,499.40381350019015,None,499.40381350019015,None,499.40381350019015,None,500.22986760013737,None,500.22986760013737,500.7299337000586,,,,,,,,,,,,,,,,012,2022-05-11_16h06.24.709,FishGame,2022.1.1,61.18078927847548,
,6,나를 데려가줘,6,Orange,B,0,0,ScrollDown,ScrollUp,Orange.png,4,NonTarget,NonTarget,,,,,0,0,0,0,,,,,,,,,,,,,,,,,,,,,,,,,0,5,5,5,,,,,,,,,,,,,,,,,,,,,,,,,,,,,,,,,,,,,,,,,,,,,,,,,,,,,,,,,,,,,,,,,,,,,1.2314814726511638,1.0944617001805454,501.35463760001585,None,ScrollDown,정답입니다,501.35463760001585,None,501.35463760001585,None,501.35463760001585,None,501.35463760001585,None,502.34681510017253,None,502.34681510017253,502.84664610004984,,,,,,,,,,,,,,,,012,2022-05-11_16h06.24.709,FishGame,2022.1.1,61.18078927847548,
,7,넌 고집불통이야,5,Orange,B,2.875,2,ScrollUp,ScrollDown,Orange.png,4,Negative,Congruent,,,,,0,0,0,0,,,,,,,,,,,,,,,,,,,,,,,,,0,6,6,6,,,,,,,,,,,,,,,,,,,,,,,,,,,,,,,,,,,,,,,,,,,,,,,,,,,,,,,,,,,,,,,,,,,,,1.6466049378116927,0.9585680000018328,503.48308999999426,None,ScrollUp,정답입니다,503.48308999999426,None,503.48308999999426,None,503.48308999999426,None,503.48308999999426,None,504.32950980006717,None,504.32950980006717,504.82959159999155,,,,,,,,,,,,,,,,012,2022-05-11_16h06.24.709,FishGame,2022.1.1,61.18078927847548,
,8,넌 무심해,4,Green,A,2.875,3.2,ScrollDown,ScrollUp,Green.png,4,Negative,Incongruent,,,,,0,0,0,0,,,,,,,,,,,,,,,,,,,,,,,,,0,7,7,7,,,,,,,,,,,,,,,,,,,,,,,,,,,,,,,,,,,,,,,,,,,,,,,,,,,,,,,,,,,,,,,,,,,,,1.1712963034709294,0.9284502000082284,505.45272670011036,None,ScrollDown,정답입니다,505.45272670011036,None,505.45272670011036,None,505.45272670011036,None,505.45272670011036,None,506.27986390003935,None,506.27986390003935,506.7821361999959,,,,,,,,,,,,,,,,012,2022-05-11_16h06.24.709,FishGame,2022.1.1,61.18078927847548,
,9,넌 정겨워,1,Green,A,5.791666666666667,5.666666666666667,ScrollDown,ScrollUp,Green.png,4,Positive,Congruent,,,,,0,0,0,0,,,,,,,,,,,,,,,,,,,,,,,,,0,8,8,8,,,,,,,,,,,,,,,,,,,,,,,,,,,,,,,,,,,,,,,,,,,,,,,,,,,,,,,,,,,,,,,,,,,,,1.2592592487732568,0.975671400083229,507.4082722000312,None,ScrollDown,정답입니다,507.4082722000312,None,507.4082722000312,None,507.4082722000312,None,507.4082722000312,None,508.2820426002145,None,508.2820426002145,508.7850244999863,,,,,,,,,,,,,,,,012,2022-05-11_16h06.24.709,FishGame,2022.1.1,61.18078927847548,
,10,나를 데려가줘,6,Orange,B,0,0,ScrollDown,ScrollUp,Orange.png,4,NonTarget,NonTarget,,,,,0,0,0,0,,,,,,,,,,,,,,,,,,,,,,,,,0,9,9,9,,,,,,,,,,,,,,,,,,,,,,,,,,,,,,,,,,,,,,,,,,,,,,,,,,,,,,,,,,,,,,,,,,,,,1.1234567960103352,1.1089804000221193,509.4131283001043,None,ScrollDown,정답입니다,509.4131283001043,None,509.4131283001043,None,509.4131283001043,None,509.4131283001043,None,510.4129899002146,None,510.4129899002146,510.91305540013127,,,,,,,,,,,,,,,,012,2022-05-11_16h06.24.709,FishGame,2022.1.1,61.18078927847548,
,11,넌 체제순응적이야,4,Orange,B,3,3.6,ScrollUp,ScrollDown,Orange.png,4,Negative,Congruent,,,,,0,0,0,0,,,,,,,,,,,,,,,,,,,,,,,,,0,10,10,10,,,,,,,,,,,,,,,,,,,,,,,,,,,,,,,,,,,,,,,,,,,,,,,,,,,,,,,,,,,,,,,,,,,,,1.7283950646718345,1.0607088999822736,511.5448943001684,None,ScrollUp,정답입니다,511.5448943001684,None,511.5448943001684,None,511.5448943001684,None,511.5448943001684,None,512.496236700099,None,512.496236700099,512.9964238000102,,,,,,,,,,,,,,,,012,2022-05-11_16h06.24.709,FishGame,2022.1.1,61.18078927847548,
,12,나를 보내줘,6,Green,A,0,0,ScrollUp,ScrollDown,Green.png,4,NonTarget,NonTarget,,,,,0,0,0,0,,,,,,,,,,,,,,,,,,,,,,,,,0,11,11,11,,,,,,,,,,,,,,,,,,,,,,,,,,,,,,,,,,,,,,,,,,,,,,,,,,,,,,,,,,,,,,,,,,,,,1.5864197500050068,1.2444589000660926,513.6228579001036,None,ScrollUp,정답입니다,513.6228579001036,None,513.6228579001036,None,513.6228579001036,None,513.6228579001036,None,514.7629176999908,None,514.7629176999908,515.2629594001919,,,,,,,,,,,,,,,,012,2022-05-11_16h06.24.709,FishGame,2022.1.1,61.18078927847548,
,13,넌 박식해,2,Green,A,5.625,3.933333333333333,ScrollDown,ScrollUp,Green.png,4,Positive,Congruent,,,,,0,0,0,0,,,,,,,,,,,,,,,,,,,,,,,,,0,12,12,12,,,,,,,,,,,,,,,,,,,,,,,,,,,,,,,,,,,,,,,,,,,,,,,,,,,,,,,,,,,,,,,,,,,,,1.3379629602034888,0.9768644999712706,515.889384200098,None,ScrollDown,정답입니다,515.889384200098,None,515.889384200098,None,515.889384200098,None,515.889384200098,None,516.7627974001225,None,516.7627974001225,517.2628381000832,,,,,,,,,,,,,,,,012,2022-05-11_16h06.24.709,FishGame,2022.1.1,61.18078927847548,
,14,나를 보내줘,6,Green,A,0,0,ScrollUp,ScrollDown,Green.png,4,NonTarget,NonTarget,,,,,0,0,0,0,,,,,,,,,,,,,,,,,,,,,,,,,0,13,13,13,,,,,,,,,,,,,,,,,,,,,,,,,,,,,,,,,,,,,,,,,,,,,,,,,,,,,,,,,,,,,,,,,,,,,1.7006172885497413,1.0445105999242514,517.8886340002064,None,ScrollUp,정답입니다,517.8886340002064,None,517.8886340002064,None,517.8886340002064,None,517.8886340002064,None,518.8317512001377,None,518.8317512001377,519.3484342000447,,,,,,,,,,,,,,,,012,2022-05-11_16h06.24.709,FishGame,2022.1.1,61.18078927847548,
,15,넌 침착해,1,Orange,B,5.458333333333333,5.566666666666666,ScrollUp,ScrollDown,Orange.png,4,Positive,Incongruent,,,,,0,0,0,0,,,,,,,,,,,,,,,,,,,,,,,,,0,14,14,14,,,,,,,,,,,,,,,,,,,,,,,,,,,,,,,,,,,,,,,,,,,,,,,,,,,,,,,,,,,,,,,,,,,,,1.6234567910432816,1.0315604999195784,519.9786088000983,None,ScrollUp,정답입니다,519.9786088000983,None,519.9786088000983,None,519.9786088000983,None,519.9786088000983,None,520.8961255000904,None,520.8961255000904,521.3962328000925,,,,,,,,,,,,,,,,012,2022-05-11_16h06.24.709,FishGame,2022.1.1,61.18078927847548,
,16,나를 데려가줘,6,Orange,B,0,0,ScrollDown,ScrollUp,Orange.png,4,NonTarget,NonTarget,,,,,0,0,0,0,,,,,,,,,,,,,,,,,,,,,,,,,0,15,15,15,,,,,,,,,,,,,,,,,,,,,,,,,,,,,,,,,,,,,,,,,,,,,,,,,,,,,,,,,,,,,,,,,,,,,1.2361111144224803,1.092772200005129,522.0235415000934,None,ScrollDown,정답입니다,522.0235415000934,None,522.0235415000934,None,522.0235415000934,None,522.0235415000934,None,523.0126730001066,None,523.0126730001066,523.5127120001707,,,,,,,,,,,,,,,,012,2022-05-11_16h06.24.709,FishGame,2022.1.1,61.18078927847548,
,17,넌 행복해,1,Green,A,6.416666666666666,6.166666666666667,ScrollDown,ScrollUp,Green.png,4,Positive,Congruent,,,,,0,0,0,0,,,,,,,,,,,,,,,,,,,,,,,,,0,16,16,16,,,,,,,,,,,,,,,,,,,,,,,,,,,,,,,,,,,,,,,,,,,,,,,,,,,,,,,,,,,,,,,,,,,,,1.2067901243766148,0.9939166000112891,524.1431484001223,None,ScrollDown,정답입니다,524.1431484001223,None,524.1431484001223,None,524.1431484001223,None,524.1431484001223,None,525.0293600000441,None,525.0293600000441,525.5294368001632,,,,,,,,,,,,,,,,012,2022-05-11_16h06.24.709,FishGame,2022.1.1,61.18078927847548,
,18,넌 겸손해,2,Orange,B,5.791666666666667,4.766666666666667,ScrollUp,ScrollDown,Orange.png,4,Positive,Incongruent,,,,,0,0,0,0,,,,,,,,,,,,,,,,,,,,,,,,,0,17,17,17,,,,,,,,,,,,,,,,,,,,,,,,,,,,,,,,,,,,,,,,,,,,,,,,,,,,,,,,,,,,,,,,,,,,,1.6033950597047806,0.9753817000892013,526.1680048999842,None,ScrollUp,정답입니다,526.1680048999842,None,526.1680048999842,None,526.1680048999842,None,526.1680048999842,None,527.0292590002064,None,527.0292590002064,527.529319500085,,,,,,,,,,,,,,,,012,2022-05-11_16h06.24.709,FishGame,2022.1.1,61.18078927847548,
,19,나를 보내줘,6,Green,A,0,0,ScrollUp,ScrollDown,Green.png,4,NonTarget,NonTarget,,,,,0,0,0,0,,,,,,,,,,,,,,,,,,,,,,,,,0,18,18,18,,,,,,,,,,,,,,,,,,,,,,,,,,,,,,,,,,,,,,,,,,,,,,,,,,,,,,,,,,,,,,,,,,,,,1.540123456468185,0.9920044001191854,528.1549255000427,None,NoResponse,무응답입니다,528.1549255000427,None,528.1549255000427,None,528.1549255000427,None,528.1549255000427,None,529.0459978000727,None,529.0459978000727,529.5484201000072,,,,,,,,,,,,,,,,012,2022-05-11_16h06.24.709,FishGame,2022.1.1,61.18078927847548,
,20,넌 의심없어,3,Green,A,4.166666666666667,4.6,ScrollDown,ScrollUp,Green.png,4,Neutral,Neutral,,,,,0,0,0,0,,,,,,,,,,,,,,,,,,,,,,,,,0,19,19,19,,,,,,,,,,,,,,,,,,,,,,,,,,,,,,,,,,,,,,,,,,,,,,,,,,,,,,,,,,,,,,,,,,,,,1.2391975422700245,1.1420849999412894,530.1722668001894,None,ScrollDown,정답입니다,530.1722668001894,None,530.1722668001894,None,530.1722668001894,None,530.1722668001894,None,531.2125767001417,None,531.2125767001417,531.712576400023,,,,,,,,,,,,,,,,012,2022-05-11_16h06.24.709,FishGame,2022.1.1,61.18078927847548,
,21,넌 시시해,4,Green,A,2.666666666666667,2.966666666666667,ScrollDown,ScrollUp,Green.png,4,Negative,Incongruent,,,,,0,0,0,0,,,,,,,,,,,,,,,,,,,,,,,,,0,20,20,20,,,,,,,,,,,,,,,,,,,,,,,,,,,,,,,,,,,,,,,,,,,,,,,,,,,,,,,,,,,,,,,,,,,,,1.2654321044683456,0.9919864998664707,532.3366757000331,None,ScrollDown,정답입니다,532.3366757000331,None,532.3366757000331,None,532.3366757000331,None,532.3366757000331,None,533.2291118002031,None,533.2291118002031,533.7291997000575,,,,,,,,,,,,,,,,012,2022-05-11_16h06.24.709,FishGame,2022.1.1,61.18078927847548,
,22,나를 데려가줘,6,Orange,B,0,0,ScrollDown,ScrollUp,Orange.png,4,NonTarget,NonTarget,,,,,0,0,0,0,,,,,,,,,,,,,,,,,,,,,,,,,0,21,21,21,,,,,,,,,,,,,,,,,,,,,,,,,,,,,,,,,,,,,,,,,,,,,,,,,,,,,,,,,,,,,,,,,,,,,1.2947530820965767,1.127993700094521,534.3542970002163,None,ScrollDown,정답입니다,534.3542970002163,None,534.3542970002163,None,534.3542970002163,None,534.3542970002163,None,535.3813035001513,None,535.3813035001513,535.8979877000675,,,,,,,,,,,,,,,,012,2022-05-11_16h06.24.709,FishGame,2022.1.1,61.18078927847548,
,23,넌 무정해,5,Green,A,2.5,2.2,ScrollDown,ScrollUp,Green.png,4,Negative,Incongruent,,,,,0,0,0,0,,,,,,,,,,,,,,,,,,,,,,,,,0,22,22,22,,,,,,,,,,,,,,,,,,,,,,,,,,,,,,,,,,,,,,,,,,,,,,,,,,,,,,,,,,,,,,,,,,,,,1.2098765522241592,1.0088849999010563,536.5142650001217,None,ScrollDown,정답입니다,536.5142650001217,None,536.5142650001217,None,536.5142650001217,None,536.5142650001217,None,537.4124600000214,None,537.4124600000214,537.912475900026,,,,,,,,,,,,,,,,012,2022-05-11_16h06.24.709,FishGame,2022.1.1,61.18078927847548,
,24,넌 긍정적이야,1,Orange,B,6.041666666666667,6.066666666666666,ScrollUp,ScrollDown,Orange.png,4,Positive,Incongruent,,,,,0,0,0,0,,,,,,,,,,,,,,,,,,,,,,,,,0,23,23,23,,,,,,,,,,,,,,,,,,,,,,,,,,,,,,,,,,,,,,,,,,,,,,,,,,,,,,,,,,,,,,,,,,,,,1.71296297510465,0.8965501000639051,538.539491500007,None,ScrollUp,정답입니다,538.539491500007,None,538.539491500007,None,538.539491500007,None,538.539491500007,None,539.3290809001774,None,539.3290809001774,539.8312027000356,,,,,,,,,,,,,,,,012,2022-05-11_16h06.24.709,FishGame,2022.1.1,61.18078927847548,
,25,나를 보내줘,6,Green,A,0,0,ScrollUp,ScrollDown,Green.png,4,NonTarget,NonTarget,,,,,0,0,0,0,,,,,,,,,,,,,,,,,,,,,,,,,0,24,24,24,,,,,,,,,,,,,,,,,,,,,,,,,,,,,,,,,,,,,,,,,,,,,,,,,,,,,,,,,,,,,,,,,,,,,1.7006172885497413,1.0252628999296576,540.4538394000847,None,ScrollUp,정답입니다,540.4538394000847,None,540.4538394000847,None,540.4538394000847,None,540.4538394000847,None,541.3790256001521,None,541.3790256001521,541.8789576001,,,,,,,,,,,,,,,,012,2022-05-11_16h06.24.709,FishGame,2022.1.1,61.18078927847548,
,26,넌 시기심이 많아,5,Orange,B,2.458333333333333,2.233333333333333,ScrollUp,ScrollDown,Orange.png,4,Negative,Congruent,,,,,0,0,0,0,,,,,,,,,,,,,,,,,,,,,,,,,0,25,25,25,,,,,,,,,,,,,,,,,,,,,,,,,,,,,,,,,,,,,,,,,,,,,,,,,,,,,,,,,,,,,,,,,,,,,1.6959876591960588,0.9973948998376727,542.5035986001603,None,ScrollUp,정답입니다,542.5035986001603,None,542.5035986001603,None,542.5035986001603,None,542.5035986001603,None,543.395603600191,None,543.395603600191,543.8977682001423,,,,,,,,,,,,,,,,012,2022-05-11_16h06.24.709,FishGame,2022.1.1,61.18078927847548,
,27,넌 탁월해,2,Green,A,5.708333333333334,4.5,ScrollDown,ScrollUp,Green.png,4,Positive,Congruent,,,,,0,0,0,0,,,,,,,,,,,,,,,,,,,,,,,,,0,26,26,26,,,,,,,,,,,,,,,,,,,,,,,,,,,,,,,,,,,,,,,,,,,,,,,,,,,,,,,,,,,,,,,,,,,,,1.1373456716537476,0.9262538999319077,544.5226854002103,None,ScrollDown,정답입니다,544.5226854002103,None,544.5226854002103,None,544.5226854002103,None,544.5226854002103,None,545.345580200199,None,545.345580200199,545.8456439999864,,,,,,,,,,,,,,,,012,2022-05-11_16h06.24.709,FishGame,2022.1.1,61.18078927847548,
,28,나를 데려가줘,6,Orange,B,0,0,ScrollDown,ScrollUp,Orange.png,4,NonTarget,NonTarget,,,,,0,0,0,0,,,,,,,,,,,,,,,,,,,,,,,,,0,27,27,27,,,,,,,,,,,,,,,,,,,,,,,,,,,,,,,,,,,,,,,,,,,,,,,,,,,,,,,,,,,,,,,,,,,,,1.1234567960103352,1.14213200006634,546.4708105002064,None,ScrollDown,정답입니다,546.4708105002064,None,546.4708105002064,None,546.4708105002064,None,546.4708105002064,None,547.5121961000841,None,547.5121961000841,548.0123185000848,,,,,,,,,,,,,,,,012,2022-05-11_16h06.24.709,FishGame,2022.1.1,61.18078927847548,
,29,넌 조용해,3,Orange,B,4.333333333333333,4.166666666666667,ScrollUp,ScrollDown,Orange.png,4,Neutral,Neutral,,,,,0,0,0,0,,,,,,,,,,,,,,,,,,,,,,,,,0,28,28,28,,,,,,,,,,,,,,,,,,,,,,,,,,,,,,,,,,,,,,,,,,,,,,,,,,,,,,,,,,,,,,,,,,,,,1.7206790198882422,0.8777798998635262,548.6423667001072,None,ScrollUp,정답입니다,548.6423667001072,None,548.6423667001072,None,548.6423667001072,None,548.6423667001072,None,549.4121528000105,None,549.4121528000105,549.9143264000304,,,,,,,,,,,,,,,,012,2022-05-11_16h06.24.709,FishGame,2022.1.1,61.18078927847548,
,30,넌 다정해,1,Green,A,5.833333333333334,5.7,ScrollDown,ScrollUp,Green.png,4,Positive,Congruent,,,,,0,0,0,0,,,,,,,,,,,,,,,,,,,,,,,,,0,29,29,29,,,,,,,,,,,,,,,,,,,,,,,,,,,,,,,,,,,,,,,,,,,,,,,,,,,,,,,,,,,,,,,,,,,,,1.2175925970077515,0.9278506999835372,550.5362750000786,None,ScrollDown,정답입니다,550.5362750000786,None,550.5362750000786,None,550.5362750000786,None,550.5362750000786,None,551.3621476001572,None,551.3621476001572,551.8622374001425,,,,,,,,,,,,,,,,012,2022-05-11_16h06.24.709,FishGame,2022.1.1,61.18078927847548,
,31,넌 능력있어,2,Orange,B,6.166666666666666,4.6,ScrollUp,ScrollDown,Orange.png,4,Positive,Incongruent,,,,,0,0,0,0,,,,,,,,,,,,,,,,,,,,,,,,,0,30,30,30,,,,,,,,,,,,,,,,,,,,,,,,,,,,,,,,,,,,,,,,,,,,,,,,,,,,,,,,,,,,,,,,,,,,,1.652777781089147,1.0107716999482363,552.5539216999896,None,ScrollUp,정답입니다,552.5539216999896,None,552.5539216999896,None,552.5539216999896,None,552.5539216999896,None,553.39535050001,None,553.39535050001,553.8954016000498,,,,,,,,,,,,,,,,012,2022-05-11_16h06.24.709,FishGame,2022.1.1,61.18078927847548,
,32,넌 불쾌해,5,Green,A,2.125,1.933333333333333,ScrollDown,ScrollUp,Green.png,4,Negative,Incongruent,,,,,0,0,0,0,,,,,,,,,,,,,,,,,,,,,,,,,0,31,31,31,,,,,,,,,,,,,,,,,,,,,,,,,,,,,,,,,,,,,,,,,,,,,,,,,,,,,,,,,,,,,,,,,,,,,1.1558641890684764,1.044843099778518,554.5201709000394,None,ScrollDown,정답입니다,554.5201709000394,None,554.5201709000394,None,554.5201709000394,None,554.5201709000394,None,555.4620296000503,None,555.4620296000503,555.9643568000756,,,,,,,,,,,,,,,,012,2022-05-11_16h06.24.709,FishGame,2022.1.1,61.18078927847548,
,33,나를 데려가줘,6,Orange,B,0,0,ScrollDown,ScrollUp,Orange.png,4,NonTarget,NonTarget,,,,,0,0,0,0,,,,,,,,,,,,,,,,,,,,,,,,,0,32,32,32,,,,,,,,,,,,,,,,,,,,,,,,,,,,,,,,,,,,,,,,,,,,,,,,,,,,,,,,,,,,,,,,,,,,,1.2299382835626602,1.2089082999154925,556.5980095001869,None,ScrollDown,정답입니다,556.5980095001869,None,556.5980095001869,None,556.5980095001869,None,556.5980095001869,None,557.6950603001751,None,557.6950603001751,558.1950959002133,,,,,,,,,,,,,,,,012,2022-05-11_16h06.24.709,FishGame,2022.1.1,61.18078927847548,
,34,넌 유순해,3,Green,A,4.458333333333333,5,ScrollDown,ScrollUp,Green.png,4,Neutral,Neutral,,,,,0,0,0,0,,,,,,,,,,,,,,,,,,,,,,,,,0,33,33,33,,,,,,,,,,,,,,,,,,,,,,,,,,,,,,,,,,,,,,,,,,,,,,,,,,,,,,,,,,,,,,,,,,,,,1.1496913582086563,0.9128843999933451,558.8213665999938,None,ScrollDown,정답입니다,558.8213665999938,None,558.8213665999938,None,558.8213665999938,None,558.8213665999938,None,559.6310571001377,None,559.6310571001377,560.1309757002164,,,,,,,,,,,,,,,,012,2022-05-11_16h06.24.709,FishGame,2022.1.1,61.18078927847548,
,35,넌 근심스러워,4,Orange,B,2.708333333333333,3.133333333333333,ScrollUp,ScrollDown,Orange.png,4,Negative,Congruent,,,,,0,0,0,0,,,,,,,,,,,,,,,,,,,,,,,,,0,34,34,34,,,,,,,,,,,,,,,,,,,,,,,,,,,,,,,,,,,,,,,,,,,,,,,,,,,,,,,,,,,,,,,,,,,,,1.564814817160368,0.9570295999292284,560.7656702001113,None,ScrollUp,정답입니다,560.7656702001113,None,560.7656702001113,None,560.7656702001113,None,560.7656702001113,None,561.6074002000969,None,561.6074002000969,562.1140648000874,,,,,,,,,,,,,,,,012,2022-05-11_16h06.24.709,FishGame,2022.1.1,61.18078927847548,
,36,넌 세련되었어,2,Green,A,5.5,4.6,ScrollDown,ScrollUp,Green.png,4,Positive,Congruent,,,,,0,0,0,0,,,,,,,,,,,,,,,,,,,,,,,,,0,35,35,35,,,,,,,,,,,,,,,,,,,,,,,,,,,,,,,,,,,,,,,,,,,,,,,,,,,,,,,,,,,,,,,,,,,,,1.2685185074806213,0.942970999982208,562.7478011001367,None,ScrollDown,정답입니다,562.7478011001367,None,562.7478011001367,None,562.7478011001367,None,562.7478011001367,None,563.5785300000571,None,563.5785300000571,564.078532300191,,,,,,,,,,,,,,,,012,2022-05-11_16h06.24.709,FishGame,2022.1.1,61.18078927847548,
,37,나를 보내줘,6,Green,A,0,0,ScrollUp,ScrollDown,Green.png,4,NonTarget,NonTarget,,,,,0,0,0,0,,,,,,,,,,,,,,,,,,,,,,,,,0,36,36,36,,,,,,,,,,,,,,,,,,,,,,,,,,,,,,,,,,,,,,,,,,,,,,,,,,,,,,,,,,,,,,,,,,,,,1.6913580298423767,1.0419552999082953,564.7102444001939,None,ScrollUp,정답입니다,564.7102444001939,None,564.7102444001939,None,564.7102444001939,None,564.7102444001939,None,565.6452198000625,None,565.6452198000625,566.1451176002156,,,,,,,,,,,,,,,,012,2022-05-11_16h06.24.709,FishGame,2022.1.1,61.18078927847548,
,38,넌 확고해,3,Orange,B,4.708333333333334,4.566666666666666,ScrollUp,ScrollDown,Orange.png,4,Neutral,Neutral,,,,,0,0,0,0,,,,,,,,,,,,,,,,,,,,,,,,,0,37,37,37,,,,,,,,,,,,,,,,,,,,,,,,,,,,,,,,,,,,,,,,,,,,,,,,,,,,,,,,,,,,,,,,,,,,,1.6435185223817825,0.8464403999969363,566.7733456001151,None,ScrollUp,정답입니다,566.7733456001151,None,566.7733456001151,None,566.7733456001151,None,566.7733456001151,None,567.5118073001504,None,567.5118073001504,568.0121251000091,,,,,,,,,,,,,,,,012,2022-05-11_16h06.24.709,FishGame,2022.1.1,61.18078927847548,
,39,넌 이해심이 많아,1,Orange,B,6.041666666666668,5.533333333333333,ScrollUp,ScrollDown,Orange.png,4,Positive,Incongruent,,,,,0,0,0,0,,,,,,,,,,,,,,,,,,,,,,,,,0,38,38,38,,,,,,,,,,,,,,,,,,,,,,,,,,,,,,,,,,,,,,,,,,,,,,,,,,,,,,,,,,,,,,,,,,,,,1.658950611948967,0.7957351000513881,568.6360303000547,None,ScrollUp,정답입니다,568.6360303000547,None,568.6360303000547,None,568.6360303000547,None,568.6360303000547,None,569.3283389001153,None,569.3283389001153,569.8285273001529,,,,,,,,,,,,,,,,012,2022-05-11_16h06.24.709,FishGame,2022.1.1,61.18078927847548,
,40,나를 보내줘,6,Green,A,0,0,ScrollUp,ScrollDown,Green.png,4,NonTarget,NonTarget,,,,,0,0,0,0,,,,,,,,,,,,,,,,,,,,,,,,,0,39,39,39,,,,,,,,,,,,,,,,,,,,,,,,,,,,,,,,,,,,,,,,,,,,,,,,,,,,,,,,,,,,,,,,,,,,,1.6450617238879204,0.9941664999350905,570.4515595000703,None,ScrollUp,정답입니다,570.4515595000703,None,570.4515595000703,None,570.4515595000703,None,570.4515595000703,None,571.3450238001533,None,571.3450238001533,571.845470600063,,,,,,,,,,,,,,,,012,2022-05-11_16h06.24.709,FishGame,2022.1.1,61.18078927847548,
,41,넌 거칠어,4,Green,A,2.625,3.033333333333333,ScrollDown,ScrollUp,Green.png,4,Negative,Incongruent,,,,,0,0,0,0,,,,,,,,,,,,,,,,,,,,,,,,,0,40,40,40,,,,,,,,,,,,,,,,,,,,,,,,,,,,,,,,,,,,,,,,,,,,,,,,,,,,,,,,,,,,,,,,,,,,,1.1388888855775197,1.1776507999747992,572.4754564000759,None,ScrollDown,정답입니다,572.4754564000759,None,572.4754564000759,None,572.4754564000759,None,572.4754564000759,None,573.5449095000513,None,573.5449095000513,574.0471471000928,,,,,,,,,,,,,,,,012,2022-05-11_16h06.24.709,FishGame,2022.1.1,61.18078927847548,
,42,넌 변덕맞아,5,Orange,B,2.75,2.166666666666667,ScrollUp,ScrollDown,Orange.png,4,Negative,Congruent,,,,,0,0,0,0,,,,,,,,,,,,,,,,,,,,,,,,,0,41,41,41,,,,,,,,,,,,,,,,,,,,,,,,,,,,,,,,,,,,,,,,,,,,,,,,,,,,,,,,,,,,,,,,,,,,,1.699074074625969,0.9428163999691606,574.6742948000319,None,ScrollUp,정답입니다,574.6742948000319,None,574.6742948000319,None,574.6742948000319,None,574.6742948000319,None,575.5115633001551,None,575.5115633001551,576.0117948001716,,,,,,,,,,,,,,,,012,2022-05-11_16h06.24.709,FishGame,2022.1.1,61.18078927847548,
,43,나를 데려가줘,6,Orange,B,0,0,ScrollDown,ScrollUp,Orange.png,4,NonTarget,NonTarget,,,,,0,0,0,0,,,,,,,,,,,,,,,,,,,,,,,,,0,42,42,42,,,,,,,,,,,,,,,,,,,,,,,,,,,,,,,,,,,,,,,,,,,,,,,,,,,,,,,,,,,,,,,,,,,,,1.162037044763565,1.2108694000635296,576.6359924999997,None,ScrollDown,정답입니다,576.6359924999997,None,576.6359924999997,None,576.6359924999997,None,576.6359924999997,None,577.7448828001507,None,577.7448828001507,578.2471044000704,,,,,,,,,,,,,,,,012,2022-05-11_16h06.24.709,FishGame,2022.1.1,61.18078927847548,
,44,넌 외로워,4,Orange,B,2.833333333333333,3.3,ScrollUp,ScrollDown,Orange.png,4,Negative,Congruent,,,,,0,0,0,0,,,,,,,,,,,,,,,,,,,,,,,,,0,43,43,43,,,,,,,,,,,,,,,,,,,,,,,,,,,,,,,,,,,,,,,,,,,,,,,,,,,,,,,,,,,,,,,,,,,,,1.6450617238879204,1.0446897000074387,578.8779590001795,None,ScrollUp,정답입니다,578.8779590001795,None,578.8779590001795,None,578.8779590001795,None,578.8779590001795,None,579.8115031002089,None,579.8115031002089,580.3115660001058,,,,,,,,,,,,,,,,012,2022-05-11_16h06.24.709,FishGame,2022.1.1,61.18078927847548,
,1,넌 불평스러워,5,Green,A,2.25,2.066666666666667,ScrollDown,ScrollUp,Green.png,5,Negative,Incongruent,,,,,0,0,0,0,,,,,,,,,,,,,,,,,,,,,,,,,,,,,0,0,0,0,,,,,,,,,,,,,,,,,,,,,,,,612.4778832001612,613.9829129001591,613.9996154000983,614.9607946001925,615.0131694001611,615.9662168000359,615.9499696001876,None,,,,,,,,,,,,,,,,,,,,,,,,,,,,,,,,,,1.1574074029922485,1.3902587001211941,617.0729098999873,None,ScrollDown,정답입니다,617.0729098999873,None,617.0729098999873,None,617.0729098999873,None,617.0729098999873,None,618.3607203001156,None,618.3607203001156,618.8608534000814,580.8137704001274,None,580.8137704001274,None,0.030555556,-0.1037037,1,0,0,0.016406560083851218,None,610.8275202000514,None,,,012,2022-05-11_16h06.24.709,FishGame,2022.1.1,61.18078927847548,
,2,나를 보내줘,6,Green,A,0,0,ScrollUp,ScrollDown,Green.png,5,NonTarget,NonTarget,,,,,0,0,0,0,,,,,,,,,,,,,,,,,,,,,,,,,,,,,0,1,1,1,,,,,,,,,,,,,,,,,,,,,,,,,,,,,,,,,,,,,,,,,,,,,,,,,,,,,,,,,,,,,,,,,1.71913580596447,1.0584582998417318,619.4858581000008,None,ScrollUp,정답입니다,619.4858581000008,None,619.4858581000008,None,619.4858581000008,None,619.4858581000008,None,620.4439350999892,None,620.4439350999892,620.9461414001416,,,,,,,,,,,,,,,,012,2022-05-11_16h06.24.709,FishGame,2022.1.1,61.18078927847548,
,3,넌 다재다능해,2,Orange,B,6.208333333333333,4.5,ScrollUp,ScrollDown,Orange.png,5,Positive,Incongruent,,,,,0,0,0,0,,,,,,,,,,,,,,,,,,,,,,,,,,,,,0,2,2,2,,,,,,,,,,,,,,,,,,,,,,,,,,,,,,,,,,,,,,,,,,,,,,,,,,,,,,,,,,,,,,,,,1.6512345671653748,0.7762495998758823,621.5734865001868,None,ScrollUp,정답입니다,621.5734865001868,None,621.5734865001868,None,621.5734865001868,None,621.5734865001868,None,622.243973800214,None,622.243973800214,622.7442697000224,,,,,,,,,,,,,,,,012,2022-05-11_16h06.24.709,FishGame,2022.1.1,61.18078927847548,
,4,넌 과감해,3,Green,A,4.833333333333334,4.6,ScrollDown,ScrollUp,Green.png,5,Neutral,Neutral,,,,,0,0,0,0,,,,,,,,,,,,,,,,,,,,,,,,,,,,,0,3,3,3,,,,,,,,,,,,,,,,,,,,,,,,,,,,,,,,,,,,,,,,,,,,,,,,,,,,,,,,,,,,,,,,,1.182098776102066,0.9091258998960257,623.372253500158,None,ScrollDown,정답입니다,623.372253500158,None,623.372253500158,None,623.372253500158,None,623.372253500158,None,624.1769112001639,None,624.1769112001639,624.6769952999894,,,,,,,,,,,,,,,,012,2022-05-11_16h06.24.709,FishGame,2022.1.1,61.18078927847548,
,5,넌 고분고분해,3,Orange,B,3.75,4.033333333333333,ScrollUp,ScrollDown,Orange.png,5,Neutral,Neutral,,,,,0,0,0,0,,,,,,,,,,,,,,,,,,,,,,,,,,,,,0,4,4,4,,,,,,,,,,,,,,,,,,,,,,,,,,,,,,,,,,,,,,,,,,,,,,,,,,,,,,,,,,,,,,,,,1.7083333333333335,0.8945758000481874,625.3099256001879,None,ScrollUp,정답입니다,625.3099256001879,None,625.3099256001879,None,625.3099256001879,None,625.3099256001879,None,626.0935997001361,None,626.0935997001361,626.5960858000908,,,,,,,,,,,,,,,,012,2022-05-11_16h06.24.709,FishGame,2022.1.1,61.18078927847548,
,6,나를 보내줘,6,Green,A,0,0,ScrollUp,ScrollDown,Green.png,5,NonTarget,NonTarget,,,,,0,0,0,0,,,,,,,,,,,,,,,,,,,,,,,,,,,,,0,5,5,5,,,,,,,,,,,,,,,,,,,,,,,,,,,,,,,,,,,,,,,,,,,,,,,,,,,,,,,,,,,,,,,,,1.8333333383003871,1.0614413998555392,627.2165669000242,None,ScrollUp,정답입니다,627.2165669000242,None,627.2165669000242,None,627.2165669000242,None,627.2165669000242,None,628.1772241999861,None,628.1772241999861,628.6826627000701,,,,,,,,,,,,,,,,012,2022-05-11_16h06.24.709,FishGame,2022.1.1,61.18078927847548,
,7,넌 잘 잊어,4,Green,A,3,3.7,ScrollDown,ScrollUp,Green.png,5,Negative,Incongruent,,,,,0,0,0,0,,,,,,,,,,,,,,,,,,,,,,,,,,,,,0,6,6,6,,,,,,,,,,,,,,,,,,,,,,,,,,,,,,,,,,,,,,,,,,,,,,,,,,,,,,,,,,,,,,,,,1.174382706483205,1.0110489001963288,629.3085270000156,None,ScrollDown,정답입니다,629.3085270000156,None,629.3085270000156,None,629.3085270000156,None,629.3085270000156,None,630.212697400013,None,630.212697400013,630.7294077000115,,,,,,,,,,,,,,,,012,2022-05-11_16h06.24.709,FishGame,2022.1.1,61.18078927847548,
,8,넌 탐구심이없어,4,Orange,B,2.833333333333333,3.066666666666667,ScrollUp,ScrollDown,Orange.png,5,Negative,Congruent,,,,,0,0,0,0,,,,,,,,,,,,,,,,,,,,,,,,,,,,,0,7,7,7,,,,,,,,,,,,,,,,,,,,,,,,,,,,,,,,,,,,,,,,,,,,,,,,,,,,,,,,,,,,,,,,,1.703703703979651,0.9089106000028551,631.3491201000288,None,ScrollUp,정답입니다,631.3491201000288,None,631.3491201000288,None,631.3491201000288,None,631.3491201000288,None,632.1434667001013,None,632.1434667001013,632.6435101001989,,,,,,,,,,,,,,,,012,2022-05-11_16h06.24.709,FishGame,2022.1.1,61.18078927847548,
,9,나를 데려가줘,6,Orange,B,0,0,ScrollDown,ScrollUp,Orange.png,5,NonTarget,NonTarget,,,,,0,0,0,0,,,,,,,,,,,,,,,,,,,,,,,,,,,,,0,8,8,8,,,,,,,,,,,,,,,,,,,,,,,,,,,,,,,,,,,,,,,,,,,,,,,,,,,,,,,,,,,,,,,,,1.1867283930381138,1.0445904000662267,633.2677826001309,None,ScrollDown,정답입니다,633.2677826001309,None,633.2677826001309,None,633.2677826001309,None,633.2677826001309,None,634.2100764000788,None,634.2100764000788,634.710463500116,,,,,,,,,,,,,,,,012,2022-05-11_16h06.24.709,FishGame,2022.1.1,61.18078927847548,
,10,넌 참되어,2,Green,A,6.041666666666664,4.733333333333333,ScrollDown,ScrollUp,Green.png,5,Positive,Congruent,,,,,0,0,0,0,,,,,,,,,,,,,,,,,,,,,,,,,,,,,0,9,9,9,,,,,,,,,,,,,,,,,,,,,,,,,,,,,,,,,,,,,,,,,,,,,,,,,,,,,,,,,,,,,,,,,1.2453703731298447,1.0616242999676615,635.3338611000217,None,ScrollDown,정답입니다,635.3338611000217,None,635.3338611000217,None,635.3338611000217,None,635.3338611000217,None,636.2936945001129,None,636.2936945001129,636.793665900128,,,,,,,,,,,,,,,,012,2022-05-11_16h06.24.709,FishGame,2022.1.1,61.18078927847548,
,11,넌 생기있어,1,Orange,B,5.875,5.633333333333334,ScrollUp,ScrollDown,Orange.png,5,Positive,Incongruent,,,,,0,0,0,0,,,,,,,,,,,,,,,,,,,,,,,,,,,,,0,10,10,10,,,,,,,,,,,,,,,,,,,,,,,,,,,,,,,,,,,,,,,,,,,,,,,,,,,,,,,,,,,,,,,,,1.560185187806686,0.8452121000736952,637.4249288002029,None,ScrollUp,정답입니다,637.4249288002029,None,637.4249288002029,None,637.4249288002029,None,637.4249288002029,None,638.160227100132,None,638.160227100132,638.6602386999875,,,,,,,,,,,,,,,,012,2022-05-11_16h06.24.709,FishGame,2022.1.1,61.18078927847548,
,12,넌 비사교적이야,4,Orange,B,2.875,2.9,ScrollUp,ScrollDown,Orange.png,5,Negative,Congruent,,,,,0,0,0,0,,,,,,,,,,,,,,,,,,,,,,,,,,,,,0,11,11,11,,,,,,,,,,,,,,,,,,,,,,,,,,,,,,,,,,,,,,,,,,,,,,,,,,,,,,,,,,,,,,,,,1.5540123445292315,0.8480799999088049,639.2881711001974,None,ScrollUp,정답입니다,639.2881711001974,None,639.2881711001974,None,639.2881711001974,None,639.2881711001974,None,640.034051100025,None,640.034051100025,640.5433559000958,,,,,,,,,,,,,,,,012,2022-05-11_16h06.24.709,FishGame,2022.1.1,61.18078927847548,
,13,나를 데려가줘,6,Orange,B,0,0,ScrollDown,ScrollUp,Orange.png,5,NonTarget,NonTarget,,,,,0,0,0,0,,,,,,,,,,,,,,,,,,,,,,,,,,,,,0,12,12,12,,,,,,,,,,,,,,,,,,,,,,,,,,,,,,,,,,,,,,,,,,,,,,,,,,,,,,,,,,,,,,,,,1.266975318392118,0.9619730000849813,641.1637979000807,None,ScrollDown,정답입니다,641.1637979000807,None,641.1637979000807,None,641.1637979000807,None,641.1637979000807,None,642.0265824000817,None,642.0265824000817,642.526638600044,,,,,,,,,,,,,,,,012,2022-05-11_16h06.24.709,FishGame,2022.1.1,61.18078927847548,
,14,넌 고독해,4,Green,A,2.916666666666667,3.233333333333333,ScrollDown,ScrollUp,Green.png,5,Negative,Incongruent,,,,,0,0,0,0,,,,,,,,,,,,,,,,,,,,,,,,,,,,,0,13,13,13,,,,,,,,,,,,,,,,,,,,,,,,,,,,,,,,,,,,,,,,,,,,,,,,,,,,,,,,,,,,,,,,,1.3719135796030364,0.8429380999878049,643.154508800013,None,ScrollDown,정답입니다,643.154508800013,None,643.154508800013,None,643.154508800013,None,643.154508800013,None,643.8935497000348,None,643.8935497000348,644.3958277001511,,,,,,,,,,,,,,,,012,2022-05-11_16h06.24.709,FishGame,2022.1.1,61.18078927847548,
,15,넌 신경질적이야,5,Orange,B,2.375,2.233333333333333,ScrollUp,ScrollDown,Orange.png,5,Negative,Congruent,,,,,0,0,0,0,,,,,,,,,,,,,,,,,,,,,,,,,,,,,0,14,14,14,,,,,,,,,,,,,,,,,,,,,,,,,,,,,,,,,,,,,,,,,,,,,,,,,,,,,,,,,,,,,,,,,1.6018518519898257,0.8415373000316322,645.0427378001623,None,ScrollUp,정답입니다,645.0427378001623,None,645.0427378001623,None,645.0427378001623,None,645.0427378001623,None,645.7597870000172,None,645.7597870000172,646.2598600001074,,,,,,,,,,,,,,,,012,2022-05-11_16h06.24.709,FishGame,2022.1.1,61.18078927847548,
,16,넌 똑똑해,2,Orange,B,5.666666666666667,3.966666666666667,ScrollUp,ScrollDown,Orange.png,5,Positive,Incongruent,,,,,0,0,0,0,,,,,,,,,,,,,,,,,,,,,,,,,,,,,0,15,15,15,,,,,,,,,,,,,,,,,,,,,,,,,,,,,,,,,,,,,,,,,,,,,,,,,,,,,,,,,,,,,,,,,1.614197532335917,0.8457760999444872,646.8878170000389,None,ScrollUp,정답입니다,646.8878170000389,None,646.8878170000389,None,646.8878170000389,None,646.8878170000389,None,647.6264494000934,None,647.6264494000934,648.1267941000406,,,,,,,,,,,,,,,,012,2022-05-11_16h06.24.709,FishGame,2022.1.1,61.18078927847548,
,17,나를 보내줘,6,Green,A,0,0,ScrollUp,ScrollDown,Green.png,5,NonTarget,NonTarget,,,,,0,0,0,0,,,,,,,,,,,,,,,,,,,,,,,,,,,,,0,16,16,16,,,,,,,,,,,,,,,,,,,,,,,,,,,,,,,,,,,,,,,,,,,,,,,,,,,,,,,,,,,,,,,,,1.7006172885497413,0.9258862999267876,648.7577033999842,None,ScrollUp,정답입니다,648.7577033999842,None,648.7577033999842,None,648.7577033999842,None,648.7577033999842,None,649.5790680001955,None,649.5790680001955,650.0956439999864,,,,,,,,,,,,,,,,012,2022-05-11_16h06.24.709,FishGame,2022.1.1,61.18078927847548,
,18,넌 협조적이야,1,Green,A,5.625,5.666666666666667,ScrollDown,ScrollUp,Green.png,5,Positive,Congruent,,,,,0,0,0,0,,,,,,,,,,,,,,,,,,,,,,,,,,,,,0,17,17,17,,,,,,,,,,,,,,,,,,,,,,,,,,,,,,,,,,,,,,,,,,,,,,,,,,,,,,,,,,,,,,,,,1.2932098805904388,0.8093721000477672,650.6995057000313,None,ScrollDown,정답입니다,650.6995057000313,None,650.6995057000313,None,650.6995057000313,None,650.6995057000313,None,651.4100227002054,None,651.4100227002054,651.9099979000166,,,,,,,,,,,,,,,,012,2022-05-11_16h06.24.709,FishGame,2022.1.1,61.18078927847548,
,19,나를 데려가줘,6,Orange,B,0,0,ScrollDown,ScrollUp,Orange.png,5,NonTarget,NonTarget,,,,,0,0,0,0,,,,,,,,,,,,,,,,,,,,,,,,,,,,,0,18,18,18,,,,,,,,,,,,,,,,,,,,,,,,,,,,,,,,,,,,,,,,,,,,,,,,,,,,,,,,,,,,,,,,,1.194444437821706,1.1278307000175118,652.5416529001668,None,ScrollDown,정답입니다,652.5416529001668,None,652.5416529001668,None,652.5416529001668,None,652.5416529001668,None,653.5599338000175,None,653.5599338000175,654.0598644001875,,,,,,,,,,,,,,,,012,2022-05-11_16h06.24.709,FishGame,2022.1.1,61.18078927847548,
,20,넌 몰인정해,5,Orange,B,2.541666666666667,2.066666666666667,ScrollUp,ScrollDown,Orange.png,5,Negative,Congruent,,,,,0,0,0,0,,,,,,,,,,,,,,,,,,,,,,,,,,,,,0,19,19,19,,,,,,,,,,,,,,,,,,,,,,,,,,,,,,,,,,,,,,,,,,,,,,,,,,,,,,,,,,,,,,,,,1.8348765522241592,0.895471700001508,654.6845238001551,None,ScrollUp,정답입니다,654.6845238001551,None,654.6845238001551,None,654.6845238001551,None,654.6845238001551,None,655.4764629001729,None,655.4764629001729,655.9765323000029,,,,,,,,,,,,,,,,012,2022-05-11_16h06.24.709,FishGame,2022.1.1,61.18078927847548,
,21,나를 데려가줘,6,Orange,B,0,0,ScrollDown,ScrollUp,Orange.png,5,NonTarget,NonTarget,,,,,0,0,0,0,,,,,,,,,,,,,,,,,,,,,,,,,,,,,0,20,20,20,,,,,,,,,,,,,,,,,,,,,,,,,,,,,,,,,,,,,,,,,,,,,,,,,,,,,,,,,,,,,,,,,1.2114197413126628,1.1112263000104576,656.6007879001554,None,ScrollDown,정답입니다,656.6007879001554,None,656.6007879001554,None,656.6007879001554,None,656.6007879001554,None,657.6098150000907,None,657.6098150000907,658.1098452000879,,,,,,,,,,,,,,,,012,2022-05-11_16h06.24.709,FishGame,2022.1.1,61.18078927847548,
