name,TrialNum,Word,WordCategory,FishType,WordList,WordValence,WordReputation,CorrectResp,IncorrectResp,FishTypeFile,Round,WordType,Condition,LoopforOrange.thisRepN,LoopforOrange.thisTrialN,LoopforOrange.thisN,LoopforOrange.thisIndex,OrangeInstLoop.thisRepN,OrangeInstLoop.thisTrialN,OrangeInstLoop.thisN,OrangeInstLoop.thisIndex,OrangePrac.thisRepN,OrangePrac.thisTrialN,OrangePrac.thisN,OrangePrac.thisIndex,temp1.thisRepN,temp1.thisTrialN,temp1.thisN,temp1.thisIndex,OrangeRound1.thisRepN,OrangeRound1.thisTrialN,OrangeRound1.thisN,OrangeRound1.thisIndex,OrangeRound2.thisRepN,OrangeRound2.thisTrialN,OrangeRound2.thisN,OrangeRound2.thisIndex,OrangeRound3.thisRepN,OrangeRound3.thisTrialN,OrangeRound3.thisN,OrangeRound3.thisIndex,OrangeRound4.thisRepN,OrangeRound4.thisTrialN,OrangeRound4.thisN,OrangeRound4.thisIndex,OrangeRound5.thisRepN,OrangeRound5.thisTrialN,OrangeRound5.thisN,OrangeRound5.thisIndex,LoopForGreen.thisRepN,LoopForGreen.thisTrialN,LoopForGreen.thisN,LoopForGreen.thisIndex,text_2.started,text_2.stopped,text_3.started,text_3.stopped,key_resp.keys,key_resp.rt,key_resp.started,key_resp.stopped,PassI_2.started,PassI_2.stopped,PassInst_2.keys,PassInst_2.rt,PassInst_2.started,PassInst_2.stopped,mouse_2.x,mouse_2.y,mouse_2.leftButton,mouse_2.midButton,mouse_2.rightButton,mouse_2.started,mouse_2.stopped,image.started,image.stopped,text_5.started,text_5.stopped,text_6.started,text_6.stopped,text_7.started,text_7.stopped,text_8.started,text_8.stopped,slider_2.response,slider_2.rt,slider_2.started,slider_2.stopped,Response_2,Feedback_2,BackGround_2.started,BackGround_2.stopped,Fish_2.started,Fish_2.stopped,WordBox_2.started,WordBox_2.stopped,Words_2.started,Words_2.stopped,BackGround_Feedback_2.started,BackGround_Feedback_2.stopped,Feedbacks_2.started,Feedbacks_2.stopped,Continue_or_not.keys,Continue_or_not.rt,Continue_or_not.started,Continue_or_not.stopped,image_3.started,image_3.stopped,mouse_3.x,mouse_3.y,mouse_3.leftButton,mouse_3.midButton,mouse_3.rightButton,mouse_3.started,mouse_3.stopped,startmain.started,startmain.stopped,slider.response,slider.rt,slider.started,slider.stopped,Response,Feedback,BackGround.started,BackGround.stopped,Fish.started,Fish.stopped,WordBox.started,WordBox.stopped,Words.started,Words.stopped,BackGround_Feedback.started,BackGround_Feedback.stopped,Feedbacks.started,Feedbacks.stopped,text.started,text.stopped,break_interval.started,break_interval.stopped,mouse.x,mouse.y,mouse.leftButton,mouse.midButton,mouse.rightButton,mouse.started,mouse.stopped,stratnextround.started,stratnextround.stopped,endgame.started,endgame.stopped,participant,date,expName,psychopyVersion,frameRate,
,,,,,,,,,,,,,,,,,,,,,,,,,,,,,,,,,,,,,,,,,,,,,,,,,,,,,,18.184893999947235,None,18.184893999947235,None,space,2.3653406999073923,18.669943299843,None,,,,,,,,,,,,,,,,,,,,,,,,,,,,,,,,,,,,,,,,,,,,,,,,,,,,,,,,,,,,,,,,,,,,,,,,,,,,,,,,,,,,,,,,,,013,2022-05-11_18h00.10.030,FishGame,2022.1.1,59.98767850684779,
물고기과제_instruction(참가자용)OrangeVersion.mp4,,,,,,,,,,,,,,0,0,0,0,0,0,0,0,,,,,,,,,,,,,,,,,,,,,,,,,,,,,,,,,,,,,,,,,91.83510429994203,None,n,5.9276504998560995,91.83510429994203,None,,,,,,,,,,,,,,,,,,,,,,,,,,,,,,,,,,,,,,,,,,,,,,,,,,,,,,,,,,,,,,,,,,,,,,,,,,,,,,,,,,,,013,2022-05-11_18h00.10.030,FishGame,2022.1.1,59.98767850684779,
,1,넌 교활해,5,Green,B,2.333333333333333,2.133333333333333,ScrollUp,ScrollDown,Green.png,practice,,,0,0,0,0,,,,,0,0,0,0,0,0,0,0,,,,,,,,,,,,,,,,,,,,,,,,,,,,,,,,,,,,,,,0.073148146,-0.23703703,1,0,0,0.5125862597487867,None,97.7819240000099,None,102.42944410000928,103.93518069991842,103.96858290000819,104.92938509979285,104.9627474998124,105.91815999988467,105.91815999988467,None,2,1.6833977999631315,107.21062139980495,None,ScrollUp,정답입니다,107.21062139980495,None,107.21062139980495,None,107.21062139980495,None,107.21062139980495,None,108.59596579987556,None,108.59596579987556,109.09824540000409,,,,,,,,,,,,,,,,,,,,,,,,,,,,,,,,,,,,,,,,,,,,,,,,,013,2022-05-11_18h00.10.030,FishGame,2022.1.1,59.98767850684779,
,2,넌 슬기로워,2,Orange,A,6.166666666666667,4.1,ScrollDown,ScrollUp,Orange.png,practice,,,0,0,0,0,,,,,0,0,0,0,0,1,1,1,,,,,,,,,,,,,,,,,,,,,,,,,,,,,,,,,,,,,,,,,,,,,,,,,,,,,,,,1,1.0089797000400722,109.72821639990434,None,ScrollDown,정답입니다,109.72821639990434,None,109.72821639990434,None,109.72821639990434,None,109.72821639990434,None,110.62917639990337,None,110.62917639990337,111.13139069988392,,,,,,,,,,,,,,,,,,,,,,,,,,,,,,,,,,,,,,,,,,,,,,,,,013,2022-05-11_18h00.10.030,FishGame,2022.1.1,59.98767850684779,
,3,나를 보내줘,6,Orange,A,0,0,ScrollUp,ScrollDown,Orange.png,practice,,,0,0,0,0,,,,,0,0,0,0,0,2,2,2,,,,,,,,,,,,,,,,,,,,,,,,,,,,,,,,,,,,,,,,,,,,,,,,,,,,,,,,1,0.894602500135079,111.75846699997783,None,ScrollDown,오답입니다,111.75846699997783,None,111.75846699997783,None,111.75846699997783,None,111.75846699997783,None,112.54584299982525,None,112.54584299982525,113.0480464999564,,,,,,,,,,,,,,,,,,,,,,,,,,,,,,,,,,,,,,,,,,,,,,,,,013,2022-05-11_18h00.10.030,FishGame,2022.1.1,59.98767850684779,
,4,나를 데려가줘,6,Green,B,0,0,ScrollDown,ScrollUp,Green.png,practice,,,0,0,0,0,,,,,0,0,0,0,0,3,3,3,,,,,,,,,,,,,,,,,,,,,,,,,,,,,,,,,,,,,,,,,,,,,,,,,,,,,,,,1.7052469179034233,1.1941337001044303,113.67369169997983,None,ScrollUp,오답입니다,113.67369169997983,None,113.67369169997983,None,113.67369169997983,None,113.67369169997983,None,114.76252499991097,None,114.76252499991097,115.26251049991697,,,,,,,,,,,,,,,,,,,,,,,,,,,,,,,,,,,,,,,,,,,,,,,,,013,2022-05-11_18h00.10.030,FishGame,2022.1.1,59.98767850684779,
,1,넌 교활해,5,Green,B,2.333333333333333,2.133333333333333,ScrollUp,ScrollDown,Green.png,practice,,,0,0,0,0,,,,,0,0,0,0,,,,,,,,,,,,,,,,,,,,,,,,,,,,,,,,,,,,,,,,,,,,,,,,,,,,,,,,,,,,,,,,,,,,,,,,,,,,,,y,4.553699500160292,115.76249989983626,None,115.76249989983626,None,,,,,,,,,,,,,,,,,,,,,,,,,,,,,,,,,,,,,,,,,,,013,2022-05-11_18h00.10.030,FishGame,2022.1.1,59.98767850684779,
,1,넌 교활해,5,Green,B,2.333333333333333,2.133333333333333,ScrollUp,ScrollDown,Green.png,practice,,,0,0,0,0,,,,,0,1,1,1,0,0,0,0,,,,,,,,,,,,,,,,,,,,,,,,,,,,,,,,,,,,,,,,,,,,,,,,,,,,,,,,1.9382716119289398,1.6047427000012249,120.47601619991474,None,ScrollUp,정답입니다,120.47601619991474,None,120.47601619991474,None,120.47601619991474,None,120.47601619991474,None,121.97879199986346,None,121.97879199986346,122.4790521999821,,,,,,,,,,,,,,,,,,,,,,,,,,,,,,,,,,,,,,,,,,,,,,,,,013,2022-05-11_18h00.10.030,FishGame,2022.1.1,59.98767850684779,
,2,넌 슬기로워,2,Orange,A,6.166666666666667,4.1,ScrollDown,ScrollUp,Orange.png,practice,,,0,0,0,0,,,,,0,1,1,1,0,1,1,1,,,,,,,,,,,,,,,,,,,,,,,,,,,,,,,,,,,,,,,,,,,,,,,,,,,,,,,,1.0308642089366913,1.0962300999090075,123.1061131998431,None,ScrollDown,정답입니다,123.1061131998431,None,123.1061131998431,None,123.1061131998431,None,123.1061131998431,None,124.09560090000741,None,124.09560090000741,124.59793379995972,,,,,,,,,,,,,,,,,,,,,,,,,,,,,,,,,,,,,,,,,,,,,,,,,013,2022-05-11_18h00.10.030,FishGame,2022.1.1,59.98767850684779,
,3,나를 보내줘,6,Orange,A,0,0,ScrollUp,ScrollDown,Orange.png,practice,,,0,0,0,0,,,,,0,1,1,1,0,2,2,2,,,,,,,,,,,,,,,,,,,,,,,,,,,,,,,,,,,,,,,,,,,,,,,,,,,,,,,,1.8533950696388881,1.1253138999454677,125.22789689991623,None,ScrollUp,정답입니다,125.22789689991623,None,125.22789689991623,None,125.22789689991623,None,125.22789689991623,None,126.24527569999918,None,126.24527569999918,126.74534919997677,,,,,,,,,,,,,,,,,,,,,,,,,,,,,,,,,,,,,,,,,,,,,,,,,013,2022-05-11_18h00.10.030,FishGame,2022.1.1,59.98767850684779,
,4,나를 데려가줘,6,Green,B,0,0,ScrollDown,ScrollUp,Green.png,practice,,,0,0,0,0,,,,,0,1,1,1,0,3,3,3,,,,,,,,,,,,,,,,,,,,,,,,,,,,,,,,,,,,,,,,,,,,,,,,,,,,,,,,1,0.9322476000525057,127.36828519986011,None,ScrollDown,정답입니다,127.36828519986011,None,127.36828519986011,None,127.36828519986011,None,127.36828519986011,None,128.19780419999734,None,128.19780419999734,128.69788559991866,,,,,,,,,,,,,,,,,,,,,,,,,,,,,,,,,,,,,,,,,,,,,,,,,013,2022-05-11_18h00.10.030,FishGame,2022.1.1,59.98767850684779,
,2,넌 슬기로워,2,Orange,A,6.166666666666667,4.1,ScrollDown,ScrollUp,Orange.png,practice,,,0,0,0,0,,,,,0,1,1,1,,,,,,,,,,,,,,,,,,,,,,,,,,,,,,,,,,,,,,,,,,,,,,,,,,,,,,,,,,,,,,,,,,,,,,,,,,,,,,n,4.0123976999893785,129.1979335998185,None,129.1979335998185,None,,,,,,,,,,,,,,,,,,,,,,,,,,,,,,,,,,,,,,,,,,,013,2022-05-11_18h00.10.030,FishGame,2022.1.1,59.98767850684779,
,1,넌 따뜻해,1,Green,B,6.083333333333333,5.6,ScrollUp,ScrollDown,Green.png,1,Positive,Incongruent,0,0,0,0,,,,,,,,,,,,,0,0,0,0,,,,,,,,,,,,,,,,,,,,,,,,,,,,,,,,,,,,,,,,,,,,134.41213969979435,135.91441189986654,135.9454451999627,136.89771789987572,136.94771129987203,137.89536959980614,137.89536959980614,None,,,,,,,,,,,,,,,,,,,,,,,,,-0.062037036,-0.18333334,1,0,0,0.31435856013558805,None,133.2287186998874,None,1.9151234527428944,1.4838868998922408,139.18651009979658,None,ScrollUp,정답입니다,139.18651009979658,None,139.18651009979658,None,139.18651009979658,None,139.18651009979658,None,140.36194779979996,None,140.36194779979996,140.86426679999568,,,,,,,,,,,,,,,,013,2022-05-11_18h00.10.030,FishGame,2022.1.1,59.98767850684779,
,2,넌 기품있어,2,Green,B,5.791666666666668,4.5,ScrollUp,ScrollDown,Green.png,1,Positive,Incongruent,0,0,0,0,,,,,,,,,,,,,0,1,1,1,,,,,,,,,,,,,,,,,,,,,,,,,,,,,,,,,,,,,,,,,,,,,,,,,,,,,,,,,,,,,,,,,,,,,,,,,,,,,,,,,,,,,1.8626543283462524,1.0664977999404073,141.48743039998226,None,ScrollUp,정답입니다,141.48743039998226,None,141.48743039998226,None,141.48743039998226,None,141.48743039998226,None,142.4451778999064,None,142.4451778999064,142.94524849997833,,,,,,,,,,,,,,,,013,2022-05-11_18h00.10.030,FishGame,2022.1.1,59.98767850684779,
,3,나를 보내줘,6,Orange,A,0,0,ScrollUp,ScrollDown,Orange.png,1,NonTarget,NonTarget,0,0,0,0,,,,,,,,,,,,,0,2,2,2,,,,,,,,,,,,,,,,,,,,,,,,,,,,,,,,,,,,,,,,,,,,,,,,,,,,,,,,,,,,,,,,,,,,,,,,,,,,,,,,,,,,,1.9104938358068466,1.1437409999780357,143.5814663998317,None,ScrollUp,정답입니다,143.5814663998317,None,143.5814663998317,None,143.5814663998317,None,143.5814663998317,None,144.61401089979336,None,144.61401089979336,145.11418839986436,,,,,,,,,,,,,,,,013,2022-05-11_18h00.10.030,FishGame,2022.1.1,59.98767850684779,
,4,넌 수동적이야,4,Orange,A,2.833333333333333,2.933333333333333,ScrollDown,ScrollUp,Orange.png,1,Negative,Incongruent,0,0,0,0,,,,,,,,,,,,,0,3,3,3,,,,,,,,,,,,,,,,,,,,,,,,,,,,,,,,,,,,,,,,,,,,,,,,,,,,,,,,,,,,,,,,,,,,,,,,,,,,,,,,,,,,,1.0879629751046498,1.2796259000897408,145.74455979978666,None,ScrollDown,정답입니다,145.74455979978666,None,145.74455979978666,None,145.74455979978666,None,145.74455979978666,None,146.91173319984227,None,146.91173319984227,147.41180939995684,,,,,,,,,,,,,,,,013,2022-05-11_18h00.10.030,FishGame,2022.1.1,59.98767850684779,
,5,넌 사심이 없어,3,Green,B,4.916666666666666,4.333333333333333,ScrollUp,ScrollDown,Green.png,1,Neutral,Neutral,0,0,0,0,,,,,,,,,,,,,0,4,4,4,,,,,,,,,,,,,,,,,,,,,,,,,,,,,,,,,,,,,,,,,,,,,,,,,,,,,,,,,,,,,,,,,,,,,,,,,,,,,,,,,,,,,1.9151234527428944,1.0963314000982791,148.04290599981323,None,ScrollUp,정답입니다,148.04290599981323,None,148.04290599981323,None,148.04290599981323,None,148.04290599981323,None,149.02840539999306,None,149.02840539999306,149.53070729994215,,,,,,,,,,,,,,,,013,2022-05-11_18h00.10.030,FishGame,2022.1.1,59.98767850684779,
,6,넌 헤퍼,5,Orange,A,2.458333333333334,2.233333333333333,ScrollDown,ScrollUp,Orange.png,1,Negative,Incongruent,0,0,0,0,,,,,,,,,,,,,0,5,5,5,,,,,,,,,,,,,,,,,,,,,,,,,,,,,,,,,,,,,,,,,,,,,,,,,,,,,,,,,,,,,,,,,,,,,,,,,,,,,,,,,,,,,1.1141975373029709,1.248376099858433,150.1602564000059,None,ScrollDown,정답입니다,150.1602564000059,None,150.1602564000059,None,150.1602564000059,None,150.1602564000059,None,151.30032029980794,None,151.30032029980794,151.81173249986023,,,,,,,,,,,,,,,,013,2022-05-11_18h00.10.030,FishGame,2022.1.1,59.98767850684779,
,7,넌 말쑥해,3,Orange,A,4.833333333333334,4.333333333333333,ScrollDown,ScrollUp,Orange.png,1,Neutral,Neutral,0,0,0,0,,,,,,,,,,,,,0,6,6,6,,,,,,,,,,,,,,,,,,,,,,,,,,,,,,,,,,,,,,,,,,,,,,,,,,,,,,,,,,,,,,,,,,,,,,,,,,,,,,,,,,,,,1.0648148159186046,1.2299977999646217,152.4407934998162,None,ScrollDown,정답입니다,152.4407934998162,None,152.4407934998162,None,152.4407934998162,None,152.4407934998162,None,153.56377769983374,None,153.56377769983374,154.06382839987054,,,,,,,,,,,,,,,,013,2022-05-11_18h00.10.030,FishGame,2022.1.1,59.98767850684779,
,8,넌 투덜거려,5,Green,B,2.541666666666667,2.266666666666667,ScrollUp,ScrollDown,Green.png,1,Negative,Congruent,0,0,0,0,,,,,,,,,,,,,0,7,7,7,,,,,,,,,,,,,,,,,,,,,,,,,,,,,,,,,,,,,,,,,,,,,,,,,,,,,,,,,,,,,,,,,,,,,,,,,,,,,,,,,,,,,1.8765432039896648,0.9458810000214726,154.70731549989432,None,ScrollUp,정답입니다,154.70731549989432,None,154.70731549989432,None,154.70731549989432,None,154.70731549989432,None,155.54493899992667,None,155.54493899992667,156.04714879998937,,,,,,,,,,,,,,,,013,2022-05-11_18h00.10.030,FishGame,2022.1.1,59.98767850684779,
,9,넌 적극적이야,1,Orange,A,5.708333333333333,5.533333333333333,ScrollDown,ScrollUp,Orange.png,1,Positive,Congruent,0,0,0,0,,,,,,,,,,,,,0,8,8,8,,,,,,,,,,,,,,,,,,,,,,,,,,,,,,,,,,,,,,,,,,,,,,,,,,,,,,,,,,,,,,,,,,,,,,,,,,,,,,,,,,,,,1.1250000099341075,0.9456700999289751,156.6734412999358,None,ScrollDown,정답입니다,156.6734412999358,None,156.6734412999358,None,156.6734412999358,None,156.6734412999358,None,157.5115080999676,None,157.5115080999676,158.0116086998023,,,,,,,,,,,,,,,,013,2022-05-11_18h00.10.030,FishGame,2022.1.1,59.98767850684779,
,10,넌 재미없어,4,Green,B,2.625,2.966666666666667,ScrollUp,ScrollDown,Green.png,1,Negative,Congruent,0,0,0,0,,,,,,,,,,,,,0,9,9,9,,,,,,,,,,,,,,,,,,,,,,,,,,,,,,,,,,,,,,,,,,,,,,,,,,,,,,,,,,,,,,,,,,,,,,,,,,,,,,,,,,,,,1.8024691343307495,1.0128864001017064,158.63804210000671,None,ScrollUp,정답입니다,158.63804210000671,None,158.63804210000671,None,158.63804210000671,None,158.63804210000671,None,159.54482159996405,None,159.54482159996405,160.0449277998414,,,,,,,,,,,,,,,,013,2022-05-11_18h00.10.030,FishGame,2022.1.1,59.98767850684779,
,11,넌 명석해,2,Orange,A,5.875,4.033333333333333,ScrollDown,ScrollUp,Orange.png,1,Positive,Congruent,0,0,0,0,,,,,,,,,,,,,0,10,10,10,,,,,,,,,,,,,,,,,,,,,,,,,,,,,,,,,,,,,,,,,,,,,,,,,,,,,,,,,,,,,,,,,,,,,,,,,,,,,,,,,,,,,1.1774691343307495,0.8589978001546115,160.67634179978631,None,ScrollDown,정답입니다,160.67634179978631,None,160.67634179978631,None,160.67634179978631,None,160.67634179978631,None,161.4281730998773,None,161.4281730998773,161.930442399811,,,,,,,,,,,,,,,,013,2022-05-11_18h00.10.030,FishGame,2022.1.1,59.98767850684779,
,12,나를 데려가줘,6,Green,B,0,0,ScrollDown,ScrollUp,Green.png,1,NonTarget,NonTarget,0,0,0,0,,,,,,,,,,,,,0,11,11,11,,,,,,,,,,,,,,,,,,,,,,,,,,,,,,,,,,,,,,,,,,,,,,,,,,,,,,,,,,,,,,,,,,,,,,,,,,,,,,,,,,,,,1.2793209801117578,1.8102359001059085,162.56761249992996,None,ScrollDown,정답입니다,162.56761249992996,None,162.56761249992996,None,162.56761249992996,None,162.56761249992996,None,164.26113409991376,None,164.26113409991376,164.76128829992376,,,,,,,,,,,,,,,,013,2022-05-11_18h00.10.030,FishGame,2022.1.1,59.98767850684779,
,13,넌 소심해,4,Orange,A,3,3.1,ScrollDown,ScrollUp,Orange.png,1,Negative,Incongruent,0,0,0,0,,,,,,,,,,,,,0,12,12,12,,,,,,,,,,,,,,,,,,,,,,,,,,,,,,,,,,,,,,,,,,,,,,,,,,,,,,,,,,,,,,,,,,,,,,,,,,,,,,,,,,,,,1.1543209999799728,1.1832786002196372,165.3879224997945,None,ScrollDown,정답입니다,165.3879224997945,None,165.3879224997945,None,165.3879224997945,None,165.3879224997945,None,166.46374079980887,None,166.46374079980887,166.9637523998972,,,,,,,,,,,,,,,,013,2022-05-11_18h00.10.030,FishGame,2022.1.1,59.98767850684779,
,14,넌 합리적이야,2,Orange,A,5.583333333333333,4.733333333333333,ScrollDown,ScrollUp,Orange.png,1,Positive,Congruent,0,0,0,0,,,,,,,,,,,,,0,13,13,13,,,,,,,,,,,,,,,,,,,,,,,,,,,,,,,,,,,,,,,,,,,,,,,,,,,,,,,,,,,,,,,,,,,,,,,,,,,,,,,,,,,,,1.0432098706563313,1.1441670001950115,167.59217570000328,None,ScrollDown,정답입니다,167.59217570000328,None,167.59217570000328,None,167.59217570000328,None,167.59217570000328,None,168.62801389978267,None,168.62801389978267,169.12806389993057,,,,,,,,,,,,,,,,013,2022-05-11_18h00.10.030,FishGame,2022.1.1,59.98767850684779,
,15,넌 무자비해,5,Green,B,2.333333333333333,2.1,ScrollUp,ScrollDown,Green.png,1,Negative,Congruent,0,0,0,0,,,,,,,,,,,,,0,14,14,14,,,,,,,,,,,,,,,,,,,,,,,,,,,,,,,,,,,,,,,,,,,,,,,,,,,,,,,,,,,,,,,,,,,,,,,,,,,,,,,,,,,,,1.9845678806304932,1.0608602000866085,169.76289339992218,None,ScrollUp,정답입니다,169.76289339992218,None,169.76289339992218,None,169.76289339992218,None,169.76289339992218,None,170.7113433999475,None,170.7113433999475,171.21131879999302,,,,,,,,,,,,,,,,013,2022-05-11_18h00.10.030,FishGame,2022.1.1,59.98767850684779,
,16,나를 보내줘,6,Orange,A,0,0,ScrollUp,ScrollDown,Orange.png,1,NonTarget,NonTarget,0,0,0,0,,,,,,,,,,,,,0,15,15,15,,,,,,,,,,,,,,,,,,,,,,,,,,,,,,,,,,,,,,,,,,,,,,,,,,,,,,,,,,,,,,,,,,,,,,,,,,,,,,,,,,,,,1.8935185074806213,1.21204479993321,171.83502579992637,None,ScrollUp,정답입니다,171.83502579992637,None,171.83502579992637,None,171.83502579992637,None,171.83502579992637,None,172.94458099990152,None,172.94458099990152,173.44676589989103,,,,,,,,,,,,,,,,013,2022-05-11_18h00.10.030,FishGame,2022.1.1,59.98767850684779,
,17,넌 현실적이야,3,Green,B,4.608695652173913,4.766666666666667,ScrollUp,ScrollDown,Green.png,1,Neutral,Neutral,0,0,0,0,,,,,,,,,,,,,0,16,16,16,,,,,,,,,,,,,,,,,,,,,,,,,,,,,,,,,,,,,,,,,,,,,,,,,,,,,,,,,,,,,,,,,,,,,,,,,,,,,,,,,,,,,1.7206790198882422,1.045155999949202,174.07225659978576,None,ScrollUp,정답입니다,174.07225659978576,None,174.07225659978576,None,174.07225659978576,None,174.07225659978576,None,175.0112067000009,None,175.0112067000009,175.51345979981124,,,,,,,,,,,,,,,,013,2022-05-11_18h00.10.030,FishGame,2022.1.1,59.98767850684779,
,18,넌 의리있어,1,Green,B,5.833333333333334,5.633333333333334,ScrollUp,ScrollDown,Green.png,1,Positive,Incongruent,0,0,0,0,,,,,,,,,,,,,0,17,17,17,,,,,,,,,,,,,,,,,,,,,,,,,,,,,,,,,,,,,,,,,,,,,,,,,,,,,,,,,,,,,,,,,,,,,,,,,,,,,,,,,,,,,2,1.444056099979207,176.13852739986032,None,ScrollUp,정답입니다,176.13852739986032,None,176.13852739986032,None,176.13852739986032,None,176.13852739986032,None,177.4778099998366,None,177.4778099998366,177.9800624998752,,,,,,,,,,,,,,,,013,2022-05-11_18h00.10.030,FishGame,2022.1.1,59.98767850684779,
,19,넌 신경과민이야,5,Orange,A,2.541666666666667,2.166666666666667,ScrollDown,ScrollUp,Orange.png,1,Negative,Incongruent,0,0,0,0,,,,,,,,,,,,,0,18,18,18,,,,,,,,,,,,,,,,,,,,,,,,,,,,,,,,,,,,,,,,,,,,,,,,,,,,,,,,,,,,,,,,,,,,,,,,,,,,,,,,,,,,,1.0185184975465138,0.9966486000921577,178.61644519981928,None,ScrollDown,정답입니다,178.61644519981928,None,178.61644519981928,None,178.61644519981928,None,178.61644519981928,None,179.49447629996575,None,179.49447629996575,179.9965834999457,,,,,,,,,,,,,,,,013,2022-05-11_18h00.10.030,FishGame,2022.1.1,59.98767850684779,
,20,넌 편안해,1,Orange,A,5.916666666666666,5.866666666666666,ScrollDown,ScrollUp,Orange.png,1,Positive,Congruent,0,0,0,0,,,,,,,,,,,,,0,19,19,19,,,,,,,,,,,,,,,,,,,,,,,,,,,,,,,,,,,,,,,,,,,,,,,,,,,,,,,,,,,,,,,,,,,,,,,,,,,,,,,,,,,,,1.10030863682429,0.9941298998892307,180.63135779998265,None,ScrollDown,정답입니다,180.63135779998265,None,180.63135779998265,None,180.63135779998265,None,180.63135779998265,None,181.51103529985994,None,181.51103529985994,182.01317549985833,,,,,,,,,,,,,,,,013,2022-05-11_18h00.10.030,FishGame,2022.1.1,59.98767850684779,
,21,넌 품위있어,2,Green,B,5.291666666666666,4.466666666666667,ScrollUp,ScrollDown,Green.png,1,Positive,Incongruent,0,0,0,0,,,,,,,,,,,,,0,20,20,20,,,,,,,,,,,,,,,,,,,,,,,,,,,,,,,,,,,,,,,,,,,,,,,,,,,,,,,,,,,,,,,,,,,,,,,,,,,,,,,,,,,,,1.8811728457609813,1.1636820998974144,182.63571799988858,None,ScrollUp,정답입니다,182.63571799988858,None,182.63571799988858,None,182.63571799988858,None,182.63571799988858,None,183.69436199986376,None,183.69436199986376,184.1965318999719,,,,,,,,,,,,,,,,013,2022-05-11_18h00.10.030,FishGame,2022.1.1,59.98767850684779,
,22,넌 빈틈없어,3,Orange,A,4.833333333333333,3.966666666666667,ScrollDown,ScrollUp,Orange.png,1,Neutral,Neutral,0,0,0,0,,,,,,,,,,,,,0,21,21,21,,,,,,,,,,,,,,,,,,,,,,,,,,,,,,,,,,,,,,,,,,,,,,,,,,,,,,,,,,,,,,,,,,,,,,,,,,,,,,,,,,,,,1.1311728407939274,0.8942851999308914,184.82715729996562,None,ScrollDown,정답입니다,184.82715729996562,None,184.82715729996562,None,184.82715729996562,None,184.82715729996562,None,185.61092819995247,None,185.61092819995247,186.1131266998127,,,,,,,,,,,,,,,,013,2022-05-11_18h00.10.030,FishGame,2022.1.1,59.98767850684779,
,23,넌 상상력없어,4,Green,B,2.833333333333333,3.133333333333333,ScrollUp,ScrollDown,Green.png,1,Negative,Congruent,0,0,0,0,,,,,,,,,,,,,0,22,22,22,,,,,,,,,,,,,,,,,,,,,,,,,,,,,,,,,,,,,,,,,,,,,,,,,,,,,,,,,,,,,,,,,,,,,,,,,,,,,,,,,,,,,1.9320987562338512,1.0610502001363784,186.74797429982573,None,ScrollUp,정답입니다,186.74797429982573,None,186.74797429982573,None,186.74797429982573,None,186.74797429982573,None,187.69421839993447,None,187.69421839993447,188.19432419980876,,,,,,,,,,,,,,,,013,2022-05-11_18h00.10.030,FishGame,2022.1.1,59.98767850684779,
,24,넌 지혜로워,2,Green,B,6.333333333333334,4.633333333333334,ScrollUp,ScrollDown,Green.png,1,Positive,Incongruent,0,0,0,0,,,,,,,,,,,,,0,23,23,23,,,,,,,,,,,,,,,,,,,,,,,,,,,,,,,,,,,,,,,,,,,,,,,,,,,,,,,,,,,,,,,,,,,,,,,,,,,,,,,,,,,,,1.733024681607882,1.161189200123772,188.82690929993987,None,ScrollUp,정답입니다,188.82690929993987,None,188.82690929993987,None,188.82690929993987,None,188.82690929993987,None,189.87760959984735,None,189.87760959984735,190.37980589992367,,,,,,,,,,,,,,,,013,2022-05-11_18h00.10.030,FishGame,2022.1.1,59.98767850684779,
,25,넌 시끄러워,4,Orange,A,2.833333333333333,3.033333333333333,ScrollDown,ScrollUp,Orange.png,1,Negative,Incongruent,0,0,0,0,,,,,,,,,,,,,0,24,24,24,,,,,,,,,,,,,,,,,,,,,,,,,,,,,,,,,,,,,,,,,,,,,,,,,,,,,,,,,,,,,,,,,,,,,,,,,,,,,,,,,,,,,1.1373456716537476,0.9274780000559986,191.01891459990293,None,ScrollDown,정답입니다,191.01891459990293,None,191.01891459990293,None,191.01891459990293,None,191.01891459990293,None,191.82751429989003,None,191.82751429989003,192.32963419985026,,,,,,,,,,,,,,,,013,2022-05-11_18h00.10.030,FishGame,2022.1.1,59.98767850684779,
,26,넌 만사태평이야,3,Green,B,4,4.333333333333333,ScrollUp,ScrollDown,Green.png,1,Neutral,Neutral,0,0,0,0,,,,,,,,,,,,,0,25,25,25,,,,,,,,,,,,,,,,,,,,,,,,,,,,,,,,,,,,,,,,,,,,,,,,,,,,,,,,,,,,,,,,,,,,,,,,,,,,,,,,,,,,,1.7067901194095612,0.8946258998475969,192.95629469980486,None,ScrollUp,정답입니다,192.95629469980486,None,192.95629469980486,None,192.95629469980486,None,192.95629469980486,None,193.74413969996385,None,193.74413969996385,194.24637609999627,,,,,,,,,,,,,,,,013,2022-05-11_18h00.10.030,FishGame,2022.1.1,59.98767850684779,
,27,넌 붙임성있어,1,Orange,A,5.708333333333333,5.633333333333334,ScrollDown,ScrollUp,Orange.png,1,Positive,Congruent,0,0,0,0,,,,,,,,,,,,,0,26,26,26,,,,,,,,,,,,,,,,,,,,,,,,,,,,,,,,,,,,,,,,,,,,,,,,,,,,,,,,,,,,,,,,,,,,,,,,,,,,,,,,,,,,,1.32253085821867,0.8090892001055181,194.87751079979353,None,ScrollDown,정답입니다,194.87751079979353,None,194.87751079979353,None,194.87751079979353,None,194.87751079979353,None,195.57746059983037,None,195.57746059983037,196.08285979996435,,,,,,,,,,,,,,,,013,2022-05-11_18h00.10.030,FishGame,2022.1.1,59.98767850684779,
,28,넌 영리해,2,Orange,A,6,4.033333333333333,ScrollDown,ScrollUp,Orange.png,1,Positive,Congruent,0,0,0,0,,,,,,,,,,,,,0,27,27,27,,,,,,,,,,,,,,,,,,,,,,,,,,,,,,,,,,,,,,,,,,,,,,,,,,,,,,,,,,,,,,,,,,,,,,,,,,,,,,,,,,,,,1.28703702489535,1.5801995999645442,196.70546569977887,None,ScrollDown,정답입니다,196.70546569977887,None,196.70546569977887,None,196.70546569977887,None,196.70546569977887,None,198.17736159986816,None,198.17736159986816,198.67956399987452,,,,,,,,,,,,,,,,013,2022-05-11_18h00.10.030,FishGame,2022.1.1,59.98767850684779,
,29,넌 열심이야,1,Green,B,6.041666666666667,5.833333333333333,ScrollUp,ScrollDown,Green.png,1,Positive,Incongruent,0,0,0,0,,,,,,,,,,,,,0,28,28,28,,,,,,,,,,,,,,,,,,,,,,,,,,,,,,,,,,,,,,,,,,,,,,,,,,,,,,,,,,,,,,,,,,,,,,,,,,,,,,,,,,,,,1.6111111169060073,0.9942012000828981,199.3099258998409,None,ScrollUp,정답입니다,199.3099258998409,None,199.3099258998409,None,199.3099258998409,None,199.3099258998409,None,200.1939952999819,None,200.1939952999819,200.69627089984715,,,,,,,,,,,,,,,,013,2022-05-11_18h00.10.030,FishGame,2022.1.1,59.98767850684779,
,30,넌 인기없어,4,Green,B,3,3.3,ScrollUp,ScrollDown,Green.png,1,Negative,Congruent,0,0,0,0,,,,,,,,,,,,,0,29,29,29,,,,,,,,,,,,,,,,,,,,,,,,,,,,,,,,,,,,,,,,,,,,,,,,,,,,,,,,,,,,,,,,,,,,,,,,,,,,,,,,,,,,,1.6728395000100136,0.9106403000187129,201.32968829991296,None,ScrollUp,정답입니다,201.32968829991296,None,201.32968829991296,None,201.32968829991296,None,201.32968829991296,None,202.12736559985206,None,202.12736559985206,202.6273522998672,,,,,,,,,,,,,,,,013,2022-05-11_18h00.10.030,FishGame,2022.1.1,59.98767850684779,
,31,넌 익살스러워,3,Orange,A,4.708333333333334,4.833333333333333,ScrollDown,ScrollUp,Orange.png,1,Neutral,Neutral,0,0,0,0,,,,,,,,,,,,,0,30,30,30,,,,,,,,,,,,,,,,,,,,,,,,,,,,,,,,,,,,,,,,,,,,,,,,,,,,,,,,,,,,,,,,,,,,,,,,,,,,,,,,,,,,,1.3518518482645354,0.8296498998533934,203.27015999983996,None,ScrollDown,정답입니다,203.27015999983996,None,203.27015999983996,None,203.27015999983996,None,203.27015999983996,None,203.97725589992478,None,203.97725589992478,204.47946709999815,,,,,,,,,,,,,,,,013,2022-05-11_18h00.10.030,FishGame,2022.1.1,59.98767850684779,
,32,넌 이기적이야,5,Green,B,2.291666666666667,2.333333333333333,ScrollUp,ScrollDown,Green.png,1,Negative,Congruent,0,0,0,0,,,,,,,,,,,,,0,31,31,31,,,,,,,,,,,,,,,,,,,,,,,,,,,,,,,,,,,,,,,,,,,,,,,,,,,,,,,,,,,,,,,,,,,,,,,,,,,,,,,,,,,,,1.654320982595285,0.9294944000430405,205.10171729978174,None,ScrollUp,정답입니다,205.10171729978174,None,205.10171729978174,None,205.10171729978174,None,205.10171729978174,None,205.92933909990825,None,205.92933909990825,206.42946479981765,,,,,,,,,,,,,,,,013,2022-05-11_18h00.10.030,FishGame,2022.1.1,59.98767850684779,
,33,나를 데려가줘,6,Green,B,0,0,ScrollDown,ScrollUp,Green.png,1,NonTarget,NonTarget,0,0,0,0,,,,,,,,,,,,,0,32,32,32,,,,,,,,,,,,,,,,,,,,,,,,,,,,,,,,,,,,,,,,,,,,,,,,,,,,,,,,,,,,,,,,,,,,,,,,,,,,,,,,,,,,,1.266975318392118,1.0608734998386353,207.05222329986282,None,ScrollDown,정답입니다,207.05222329986282,None,207.05222329986282,None,207.05222329986282,None,207.05222329986282,None,208.01042039995082,None,208.01042039995082,208.5105983999092,,,,,,,,,,,,,,,,013,2022-05-11_18h00.10.030,FishGame,2022.1.1,59.98767850684779,
,34,넌 기회주의자야,5,Orange,A,2.875,2.133333333333333,ScrollDown,ScrollUp,Orange.png,1,Negative,Incongruent,0,0,0,0,,,,,,,,,,,,,0,33,33,33,,,,,,,,,,,,,,,,,,,,,,,,,,,,,,,,,,,,,,,,,,,,,,,,,,,,,,,,,,,,,,,,,,,,,,,,,,,,,,,,,,,,,1.2746913631757102,0.7965502999722958,209.14140959992073,None,ScrollDown,정답입니다,209.14140959992073,None,209.14140959992073,None,209.14140959992073,None,209.14140959992073,None,209.8271323000081,None,209.8271323000081,210.32931499998085,,,,,,,,,,,,,,,,013,2022-05-11_18h00.10.030,FishGame,2022.1.1,59.98767850684779,
,1,넌 미성숙해,4,Orange,A,3,3.2,ScrollDown,ScrollUp,Orange.png,2,Negative,Incongruent,0,0,0,0,,,,,,,,,,,,,,,,,0,0,0,0,,,,,,,,,,,,,,,,,,,,,,,,,,,,,,,,,,,,,,,,242.14311869977973,243.6430999999866,243.67873809998855,244.62878929986618,244.67877989984117,245.64541349979118,245.62872889987193,None,,,,,,,,,,,,,,,,,,,,,,,,,,,,,,,,,,1.2901234527428946,1.0816624001599848,246.72029749979265,None,ScrollDown,정답입니다,246.72029749979265,None,246.72029749979265,None,246.72029749979265,None,246.72029749979265,None,247.69299839995801,None,247.69299839995801,248.1952053999994,210.82941149990074,None,210.82941149990074,None,-0.049074072,-0.14351852,1,0,0,0.016058959998190403,None,240.84546209988184,None,,,013,2022-05-11_18h00.10.030,FishGame,2022.1.1,59.98767850684779,
,2,넌 반사회적이야,5,Green,B,2.416666666666667,2.033333333333333,ScrollUp,ScrollDown,Green.png,2,Negative,Congruent,0,0,0,0,,,,,,,,,,,,,,,,,0,1,1,1,,,,,,,,,,,,,,,,,,,,,,,,,,,,,,,,,,,,,,,,,,,,,,,,,,,,,,,,,,,,,,,,,,,,,,,,,,,,,,,,,1.5293209869414568,0.8586691999807954,248.82484569982626,None,NoResponse,무응답입니다,248.82484569982626,None,248.82484569982626,None,248.82484569982626,None,248.82484569982626,None,249.57633179984987,None,249.57633179984987,250.07638139999472,,,,,,,,,,,,,,,,013,2022-05-11_18h00.10.030,FishGame,2022.1.1,59.98767850684779,
,3,넌 유능해,2,Orange,A,6.208333333333333,4.433333333333334,ScrollDown,ScrollUp,Orange.png,2,Positive,Congruent,0,0,0,0,,,,,,,,,,,,,,,,,0,2,2,2,,,,,,,,,,,,,,,,,,,,,,,,,,,,,,,,,,,,,,,,,,,,,,,,,,,,,,,,,,,,,,,,,,,,,,,,,,,,,,,,,1.32253085821867,0.8448160998523235,250.7059579999186,None,ScrollDown,정답입니다,250.7059579999186,None,250.7059579999186,None,250.7059579999186,None,250.7059579999186,None,251.4429091999773,None,251.4429091999773,251.942975099897,,,,,,,,,,,,,,,,013,2022-05-11_18h00.10.030,FishGame,2022.1.1,59.98767850684779,
,4,넌 능숙해,2,Green,B,5.666666666666667,4.733333333333333,ScrollUp,ScrollDown,Green.png,2,Positive,Incongruent,0,0,0,0,,,,,,,,,,,,,,,,,0,3,3,3,,,,,,,,,,,,,,,,,,,,,,,,,,,,,,,,,,,,,,,,,,,,,,,,,,,,,,,,,,,,,,,,,,,,,,,,,,,,,,,,,1.5154320988804102,0.8756472000386566,252.5720466999337,None,NoResponse,무응답입니다,252.5720466999337,None,252.5720466999337,None,252.5720466999337,None,252.5720466999337,None,253.34290149994195,None,253.34290149994195,253.84519139979966,,,,,,,,,,,,,,,,013,2022-05-11_18h00.10.030,FishGame,2022.1.1,59.98767850684779,
,5,넌 진부해,4,Green,B,2.458333333333333,3.166666666666667,ScrollUp,ScrollDown,Green.png,2,Negative,Congruent,0,0,0,0,,,,,,,,,,,,,,,,,0,4,4,4,,,,,,,,,,,,,,,,,,,,,,,,,,,,,,,,,,,,,,,,,,,,,,,,,,,,,,,,,,,,,,,,,,,,,,,,,,,,,,,,,2,1.1441319999285042,254.47093999991193,None,ScrollUp,정답입니다,254.47093999991193,None,254.47093999991193,None,254.47093999991193,None,254.47093999991193,None,255.50948519981466,None,255.50948519981466,256.0095521998592,,,,,,,,,,,,,,,,013,2022-05-11_18h00.10.030,FishGame,2022.1.1,59.98767850684779,
,6,나를 보내줘,6,Orange,A,0,0,ScrollUp,ScrollDown,Orange.png,2,NonTarget,NonTarget,0,0,0,0,,,,,,,,,,,,,,,,,0,5,5,5,,,,,,,,,,,,,,,,,,,,,,,,,,,,,,,,,,,,,,,,,,,,,,,,,,,,,,,,,,,,,,,,,,,,,,,,,,,,,,,,,2,1.5131302999798208,256.6382172999438,None,ScrollUp,정답입니다,256.6382172999438,None,256.6382172999438,None,256.6382172999438,None,256.6382172999438,None,258.0428002998233,None,258.0428002998233,258.5449957998935,,,,,,,,,,,,,,,,013,2022-05-11_18h00.10.030,FishGame,2022.1.1,59.98767850684779,
,7,넌 엄격해,3,Orange,A,4.166666666666666,4.1,ScrollDown,ScrollUp,Orange.png,2,Neutral,Neutral,0,0,0,0,,,,,,,,,,,,,,,,,0,6,6,6,,,,,,,,,,,,,,,,,,,,,,,,,,,,,,,,,,,,,,,,,,,,,,,,,,,,,,,,,,,,,,,,,,,,,,,,,,,,,,,,,1.0864197611808777,1.0418763000052422,259.18352059996687,None,ScrollDown,정답입니다,259.18352059996687,None,259.18352059996687,None,259.18352059996687,None,259.18352059996687,None,260.1091431998648,None,260.1091431998648,260.60920129995793,,,,,,,,,,,,,,,,013,2022-05-11_18h00.10.030,FishGame,2022.1.1,59.98767850684779,
,8,나를 보내줘,6,Orange,A,0,0,ScrollUp,ScrollDown,Orange.png,2,NonTarget,NonTarget,0,0,0,0,,,,,,,,,,,,,,,,,0,7,7,7,,,,,,,,,,,,,,,,,,,,,,,,,,,,,,,,,,,,,,,,,,,,,,,,,,,,,,,,,,,,,,,,,,,,,,,,,,,,,,,,,2,1.3158420000690967,261.23410279979,None,ScrollUp,정답입니다,261.23410279979,None,261.23410279979,None,261.23410279979,None,261.23410279979,None,262.4449688999448,None,262.4449688999448,262.9450329998508,,,,,,,,,,,,,,,,013,2022-05-11_18h00.10.030,FishGame,2022.1.1,59.98767850684779,
,9,넌 대담해,3,Green,B,4.875,4.866666666666666,ScrollUp,ScrollDown,Green.png,2,Neutral,Neutral,0,0,0,0,,,,,,,,,,,,,,,,,0,8,8,8,,,,,,,,,,,,,,,,,,,,,,,,,,,,,,,,,,,,,,,,,,,,,,,,,,,,,,,,,,,,,,,,,,,,,,,,,,,,,,,,,2,1.0417607999406755,263.5735855998937,None,ScrollUp,정답입니다,263.5735855998937,None,263.5735855998937,None,263.5735855998937,None,263.5735855998937,None,264.50931549980305,None,264.50931549980305,265.01149919978343,,,,,,,,,,,,,,,,013,2022-05-11_18h00.10.030,FishGame,2022.1.1,59.98767850684779,
,10,넌 꾸준해,1,Orange,A,5.916666666666668,5.8,ScrollDown,ScrollUp,Orange.png,2,Positive,Congruent,0,0,0,0,,,,,,,,,,,,,,,,,0,9,9,9,,,,,,,,,,,,,,,,,,,,,,,,,,,,,,,,,,,,,,,,,,,,,,,,,,,,,,,,,,,,,,,,,,,,,,,,,,,,,,,,,1.1774691343307495,0.829726800089702,265.64165819995105,None,ScrollDown,정답입니다,265.64165819995105,None,265.64165819995105,None,265.64165819995105,None,265.64165819995105,None,266.3592851997819,None,266.3592851997819,266.8615851998329,,,,,,,,,,,,,,,,013,2022-05-11_18h00.10.030,FishGame,2022.1.1,59.98767850684779,
,11,나를 데려가줘,6,Green,B,0,0,ScrollDown,ScrollUp,Green.png,2,NonTarget,NonTarget,0,0,0,0,,,,,,,,,,,,,,,,,0,10,10,10,,,,,,,,,,,,,,,,,,,,,,,,,,,,,,,,,,,,,,,,,,,,,,,,,,,,,,,,,,,,,,,,,,,,,,,,,,,,,,,,,1.2577160596847534,1.2942039999179542,267.49064769991674,None,ScrollDown,정답입니다,267.49064769991674,None,267.49064769991674,None,267.49064769991674,None,267.49064769991674,None,268.6758375999052,None,268.6758375999052,269.1759324998129,,,,,,,,,,,,,,,,013,2022-05-11_18h00.10.030,FishGame,2022.1.1,59.98767850684779,
,12,넌 독선적이야,5,Orange,A,2.458333333333333,1.933333333333333,ScrollDown,ScrollUp,Orange.png,2,Negative,Incongruent,0,0,0,0,,,,,,,,,,,,,,,,,0,11,11,11,,,,,,,,,,,,,,,,,,,,,,,,,,,,,,,,,,,,,,,,,,,,,,,,,,,,,,,,,,,,,,,,,,,,,,,,,,,,,,,,,1.212962955236435,1.1954073999077082,269.8052601998206,None,ScrollDown,정답입니다,269.8052601998206,None,269.8052601998206,None,269.8052601998206,None,269.8052601998206,None,270.8925373000093,None,270.8925373000093,271.39476239983924,,,,,,,,,,,,,,,,013,2022-05-11_18h00.10.030,FishGame,2022.1.1,59.98767850684779,
,13,나를 보내줘,6,Orange,A,0,0,ScrollUp,ScrollDown,Orange.png,2,NonTarget,NonTarget,0,0,0,0,,,,,,,,,,,,,,,,,0,12,12,12,,,,,,,,,,,,,,,,,,,,,,,,,,,,,,,,,,,,,,,,,,,,,,,,,,,,,,,,,,,,,,,,,,,,,,,,,,,,,,,,,2,1.0443833998870105,272.0192292998545,None,ScrollUp,정답입니다,272.0192292998545,None,272.0192292998545,None,272.0192292998545,None,272.0192292998545,None,272.95906909997575,None,272.95906909997575,273.4591723999474,,,,,,,,,,,,,,,,013,2022-05-11_18h00.10.030,FishGame,2022.1.1,59.98767850684779,
,14,넌 책임감있어,1,Green,B,6.347826086956522,6,ScrollUp,ScrollDown,Green.png,2,Positive,Incongruent,0,0,0,0,,,,,,,,,,,,,,,,,0,13,13,13,,,,,,,,,,,,,,,,,,,,,,,,,,,,,,,,,,,,,,,,,,,,,,,,,,,,,,,,,,,,,,,,,,,,,,,,,,,,,,,,,1.8040123482545216,1.4297221000306308,274.08762159990147,None,ScrollUp,정답입니다,274.08762159990147,None,274.08762159990147,None,274.08762159990147,None,274.08762159990147,None,275.40914309979416,None,275.40914309979416,275.90902389981784,,,,,,,,,,,,,,,,013,2022-05-11_18h00.10.030,FishGame,2022.1.1,59.98767850684779,
,15,넌 문학적이야,3,Orange,A,4.708333333333334,4.333333333333333,ScrollDown,ScrollUp,Orange.png,2,Neutral,Neutral,0,0,0,0,,,,,,,,,,,,,,,,,0,14,14,14,,,,,,,,,,,,,,,,,,,,,,,,,,,,,,,,,,,,,,,,,,,,,,,,,,,,,,,,,,,,,,,,,,,,,,,,,,,,,,,,,1.3040123408039412,0.8954355998430401,276.5388883999549,None,ScrollDown,정답입니다,276.5388883999549,None,276.5388883999549,None,276.5388883999549,None,276.5388883999549,None,277.32575949979946,None,277.32575949979946,277.8257300998084,,,,,,,,,,,,,,,,013,2022-05-11_18h00.10.030,FishGame,2022.1.1,59.98767850684779,
,16,넌 재미있어,1,Green,B,5.875,5.7,ScrollUp,ScrollDown,Green.png,2,Positive,Incongruent,0,0,0,0,,,,,,,,,,,,,,,,,0,15,15,15,,,,,,,,,,,,,,,,,,,,,,,,,,,,,,,,,,,,,,,,,,,,,,,,,,,,,,,,,,,,,,,,,,,,,,,,,,,,,,,,,1.9675925771395366,0.9778064000420272,278.4498895998113,None,ScrollUp,정답입니다,278.4498895998113,None,278.4498895998113,None,278.4498895998113,None,278.4498895998113,None,279.3257422999013,None,279.3257422999013,279.8257301999256,,,,,,,,,,,,,,,,013,2022-05-11_18h00.10.030,FishGame,2022.1.1,59.98767850684779,
,17,나를 데려가줘,6,Green,B,0,0,ScrollDown,ScrollUp,Green.png,2,NonTarget,NonTarget,0,0,0,0,,,,,,,,,,,,,,,,,0,16,16,16,,,,,,,,,,,,,,,,,,,,,,,,,,,,,,,,,,,,,,,,,,,,,,,,,,,,,,,,,,,,,,,,,,,,,,,,,,,,,,,,,1.2114197413126628,1.260398300131783,280.44919559988193,None,ScrollDown,정답입니다,280.44919559988193,None,280.44919559988193,None,280.44919559988193,None,280.44919559988193,None,281.6089700998273,None,281.6089700998273,282.1112357999664,,,,,,,,,,,,,,,,013,2022-05-11_18h00.10.030,FishGame,2022.1.1,59.98767850684779,
,18,넌 협력적이야,1,Orange,A,5.625,5.633333333333334,ScrollDown,ScrollUp,Orange.png,2,Positive,Congruent,0,0,0,0,,,,,,,,,,,,,,,,,0,17,17,17,,,,,,,,,,,,,,,,,,,,,,,,,,,,,,,,,,,,,,,,,,,,,,,,,,,,,,,,,,,,,,,,,,,,,,,,,,,,,,,,,1.115740751226743,1.0922752998303622,282.7438525999896,None,ScrollDown,정답입니다,282.7438525999896,None,282.7438525999896,None,282.7438525999896,None,282.7438525999896,None,283.72555229999125,None,283.72555229999125,284.2277456999291,,,,,,,,,,,,,,,,013,2022-05-11_18h00.10.030,FishGame,2022.1.1,59.98767850684779,
,19,넌 평범해,3,Green,B,4.333333333333332,4.233333333333333,ScrollUp,ScrollDown,Green.png,2,Neutral,Neutral,0,0,0,0,,,,,,,,,,,,,,,,,0,18,18,18,,,,,,,,,,,,,,,,,,,,,,,,,,,,,,,,,,,,,,,,,,,,,,,,,,,,,,,,,,,,,,,,,,,,,,,,,,,,,,,,,1.858024686574936,1.1613363998476416,284.85468309978023,None,ScrollUp,정답입니다,284.85468309978023,None,284.85468309978023,None,284.85468309978023,None,284.85468309978023,None,285.9110459999647,None,285.9110459999647,286.41114439978264,,,,,,,,,,,,,,,,013,2022-05-11_18h00.10.030,FishGame,2022.1.1,59.98767850684779,
,20,넌 오만해,5,Orange,A,2.333333333333333,2,ScrollDown,ScrollUp,Orange.png,2,Negative,Incongruent,0,0,0,0,,,,,,,,,,,,,,,,,0,19,19,19,,,,,,,,,,,,,,,,,,,,,,,,,,,,,,,,,,,,,,,,,,,,,,,,,,,,,,,,,,,,,,,,,,,,,,,,,,,,,,,,,1.1033950646718342,1.0756306999828666,287.03787969984114,None,ScrollDown,정답입니다,287.03787969984114,None,287.03787969984114,None,287.03787969984114,None,287.03787969984114,None,288.0085609999951,None,288.0085609999951,288.5086206998676,,,,,,,,,,,,,,,,013,2022-05-11_18h00.10.030,FishGame,2022.1.1,59.98767850684779,
,21,넌 운이없어,4,Green,B,3,3.466666666666667,ScrollUp,ScrollDown,Green.png,2,Negative,Congruent,0,0,0,0,,,,,,,,,,,,,,,,,0,20,20,20,,,,,,,,,,,,,,,,,,,,,,,,,,,,,,,,,,,,,,,,,,,,,,,,,,,,,,,,,,,,,,,,,,,,,,,,,,,,,,,,,1.8209876517454784,0.9464233000762761,289.1319720998872,None,ScrollUp,정답입니다,289.1319720998872,None,289.1319720998872,None,289.1319720998872,None,289.1319720998872,None,289.97525469982065,None,289.97525469982065,290.4778710999526,,,,,,,,,,,,,,,,013,2022-05-11_18h00.10.030,FishGame,2022.1.1,59.98767850684779,
,22,넌 창조적이야,2,Green,B,6.125,4.633333333333334,ScrollUp,ScrollDown,Green.png,2,Positive,Incongruent,0,0,0,0,,,,,,,,,,,,,,,,,0,21,21,21,,,,,,,,,,,,,,,,,,,,,,,,,,,,,,,,,,,,,,,,,,,,,,,,,,,,,,,,,,,,,,,,,,,,,,,,,,,,,,,,,1.9953703780968983,1.0147878001444042,291.1031518999953,None,ScrollUp,정답입니다,291.1031518999953,None,291.1031518999953,None,291.1031518999953,None,291.1031518999953,None,292.011041799793,None,292.011041799793,292.5142288999632,,,,,,,,,,,,,,,,013,2022-05-11_18h00.10.030,FishGame,2022.1.1,59.98767850684779,
,23,나를 보내줘,6,Orange,A,0,0,ScrollUp,ScrollDown,Orange.png,2,NonTarget,NonTarget,0,0,0,0,,,,,,,,,,,,,,,,,0,22,22,22,,,,,,,,,,,,,,,,,,,,,,,,,,,,,,,,,,,,,,,,,,,,,,,,,,,,,,,,,,,,,,,,,,,,,,,,,,,,,,,,,1.7947530895471573,1.125688600121066,293.136629199842,None,ScrollUp,정답입니다,293.136629199842,None,293.136629199842,None,293.136629199842,None,293.136629199842,None,294.15870209992863,None,294.15870209992863,294.6609455998987,,,,,,,,,,,,,,,,013,2022-05-11_18h00.10.030,FishGame,2022.1.1,59.98767850684779,
,24,넌 통찰력있어,2,Orange,A,6.5,4.8,ScrollDown,ScrollUp,Orange.png,2,Positive,Congruent,0,0,0,0,,,,,,,,,,,,,,,,,0,23,23,23,,,,,,,,,,,,,,,,,,,,,,,,,,,,,,,,,,,,,,,,,,,,,,,,,,,,,,,,,,,,,,,,,,,,,,,,,,,,,,,,,1.1697530895471573,1.0794633000623435,295.29443949996494,None,ScrollDown,정답입니다,295.29443949996494,None,295.29443949996494,None,295.29443949996494,None,295.29443949996494,None,296.25864699995145,None,296.25864699995145,296.7608361998573,,,,,,,,,,,,,,,,013,2022-05-11_18h00.10.030,FishGame,2022.1.1,59.98767850684779,
,25,넌 경솔해,5,Green,B,2.458333333333333,2.266666666666667,ScrollUp,ScrollDown,Green.png,2,Negative,Congruent,0,0,0,0,,,,,,,,,,,,,,,,,0,24,24,24,,,,,,,,,,,,,,,,,,,,,,,,,,,,,,,,,,,,,,,,,,,,,,,,,,,,,,,,,,,,,,,,,,,,,,,,,,,,,,,,,1.9429012537002563,0.9614128998946398,297.3849636998493,None,ScrollUp,정답입니다,297.3849636998493,None,297.3849636998493,None,297.3849636998493,None,297.3849636998493,None,298.2419475999195,None,298.2419475999195,298.74192549986765,,,,,,,,,,,,,,,,013,2022-05-11_18h00.10.030,FishGame,2022.1.1,59.98767850684779,
,26,넌 초조해,4,Orange,A,2.916666666666667,3.133333333333333,ScrollDown,ScrollUp,Orange.png,2,Negative,Incongruent,0,0,0,0,,,,,,,,,,,,,,,,,0,25,25,25,,,,,,,,,,,,,,,,,,,,,,,,,,,,,,,,,,,,,,,,,,,,,,,,,,,,,,,,,,,,,,,,,,,,,,,,,,,,,,,,,1.0030864079793294,1.5778628999833018,299.3689776000101,None,ScrollDown,정답입니다,299.3689776000101,None,299.3689776000101,None,299.3689776000101,None,299.3689776000101,None,300.8418524998706,None,300.8418524998706,301.3440393998753,,,,,,,,,,,,,,,,013,2022-05-11_18h00.10.030,FishGame,2022.1.1,59.98767850684779,
,27,넌 무관심해,4,Green,B,2.833333333333333,2.9,ScrollUp,ScrollDown,Green.png,2,Negative,Congruent,0,0,0,0,,,,,,,,,,,,,,,,,0,26,26,26,,,,,,,,,,,,,,,,,,,,,,,,,,,,,,,,,,,,,,,,,,,,,,,,,,,,,,,,,,,,,,,,,,,,,,,,,,,,,,,,,1.7376543233791986,0.9278417001478374,301.9702295998577,None,ScrollUp,정답입니다,301.9702295998577,None,301.9702295998577,None,301.9702295998577,None,301.9702295998577,None,302.7918473999016,None,302.7918473999016,303.29192379978485,,,,,,,,,,,,,,,,013,2022-05-11_18h00.10.030,FishGame,2022.1.1,59.98767850684779,
,28,넌 감성적이야,3,Green,B,4.125,4.166666666666667,ScrollUp,ScrollDown,Green.png,2,Neutral,Neutral,0,0,0,0,,,,,,,,,,,,,,,,,0,27,27,27,,,,,,,,,,,,,,,,,,,,,,,,,,,,,,,,,,,,,,,,,,,,,,,,,,,,,,,,,,,,,,,,,,,,,,,,,,,,,,,,,1.7361111094554267,0.8443328000139445,303.91888469993137,None,ScrollUp,정답입니다,303.91888469993137,None,303.91888469993137,None,303.91888469993137,None,303.91888469993137,None,304.6606648999732,None,304.6606648999732,305.1585153997876,,,,,,,,,,,,,,,,013,2022-05-11_18h00.10.030,FishGame,2022.1.1,59.98767850684779,
,29,넌 배려심있어,1,Orange,A,6.083333333333333,5.5,ScrollDown,ScrollUp,Orange.png,2,Positive,Congruent,0,0,0,0,,,,,,,,,,,,,,,,,0,28,28,28,,,,,,,,,,,,,,,,,,,,,,,,,,,,,,,,,,,,,,,,,,,,,,,,,,,,,,,,,,,,,,,,,,,,,,,,,,,,,,,,,1.115740751226743,1.0455674999393523,305.80308659980074,None,ScrollDown,정답입니다,305.80308659980074,None,305.80308659980074,None,305.80308659980074,None,305.80308659980074,None,306.74170809984207,None,306.74170809984207,307.2418247999158,,,,,,,,,,,,,,,,013,2022-05-11_18h00.10.030,FishGame,2022.1.1,59.98767850684779,
,30,넌 숨김없어,3,Orange,A,4.5,4.933333333333334,ScrollDown,ScrollUp,Orange.png,2,Neutral,Neutral,0,0,0,0,,,,,,,,,,,,,,,,,0,29,29,29,,,,,,,,,,,,,,,,,,,,,,,,,,,,,,,,,,,,,,,,,,,,,,,,,,,,,,,,,,,,,,,,,,,,,,,,,,,,,,,,,1.1882716069618862,0.9591520999092609,307.87455249996856,None,ScrollDown,정답입니다,307.87455249996856,None,307.87455249996856,None,307.87455249996856,None,307.87455249996856,None,308.72506659990177,None,308.72506659990177,309.22726839990355,,,,,,,,,,,,,,,,013,2022-05-11_18h00.10.030,FishGame,2022.1.1,59.98767850684779,
,31,넌 훌륭해,2,Green,B,5.916666666666667,4.033333333333333,ScrollUp,ScrollDown,Green.png,2,Positive,Incongruent,0,0,0,0,,,,,,,,,,,,,,,,,0,30,30,30,,,,,,,,,,,,,,,,,,,,,,,,,,,,,,,,,,,,,,,,,,,,,,,,,,,,,,,,,,,,,,,,,,,,,,,,,,,,,,,,,1.9783950746059418,0.9621362001635134,309.8516653999686,None,ScrollUp,정답입니다,309.8516653999686,None,309.8516653999686,None,309.8516653999686,None,309.8516653999686,None,310.70828599995,None,310.70828599995,311.21052829991095,,,,,,,,,,,,,,,,013,2022-05-11_18h00.10.030,FishGame,2022.1.1,59.98767850684779,
,32,넌 슬기로워,2,Orange,A,6.166666666666667,4.1,ScrollDown,ScrollUp,Orange.png,2,Positive,Congruent,0,0,0,0,,,,,,,,,,,,,,,,,0,31,31,31,,,,,,,,,,,,,,,,,,,,,,,,,,,,,,,,,,,,,,,,,,,,,,,,,,,,,,,,,,,,,,,,,,,,,,,,,,,,,,,,,1.3271604999899864,0.8113679001107812,311.8399658999406,None,ScrollDown,정답입니다,311.8399658999406,None,311.8399658999406,None,311.8399658999406,None,311.8399658999406,None,312.54162529995665,None,312.54162529995665,313.04386019986123,,,,,,,,,,,,,,,,013,2022-05-11_18h00.10.030,FishGame,2022.1.1,59.98767850684779,
,33,넌 냉혹해,5,Orange,A,2.583333333333333,2.1,ScrollDown,ScrollUp,Orange.png,2,Negative,Incongruent,0,0,0,0,,,,,,,,,,,,,,,,,0,32,32,32,,,,,,,,,,,,,,,,,,,,,,,,,,,,,,,,,,,,,,,,,,,,,,,,,,,,,,,,,,,,,,,,,,,,,,,,,,,,,,,,,1.162037044763565,1.0110238001216203,313.6744071999565,None,ScrollDown,정답입니다,313.6744071999565,None,313.6744071999565,None,313.6744071999565,None,313.6744071999565,None,314.5749232999515,None,314.5749232999515,315.0772640998475,,,,,,,,,,,,,,,,013,2022-05-11_18h00.10.030,FishGame,2022.1.1,59.98767850684779,
,34,나를 데려가줘,6,Green,B,0,0,ScrollDown,ScrollUp,Green.png,2,NonTarget,NonTarget,0,0,0,0,,,,,,,,,,,,,,,,,0,33,33,33,,,,,,,,,,,,,,,,,,,,,,,,,,,,,,,,,,,,,,,,,,,,,,,,,,,,,,,,,,,,,,,,,,,,,,,,,,,,,,,,,1.1512345721324284,1.2288486999459565,315.6987242999021,None,ScrollDown,정답입니다,315.6987242999021,None,315.6987242999021,None,315.6987242999021,None,315.6987242999021,None,316.8248155999463,None,316.8248155999463,317.3249166999012,,,,,,,,,,,,,,,,013,2022-05-11_18h00.10.030,FishGame,2022.1.1,59.98767850684779,
,35,넌 편파적이야,5,Green,B,2.125,2,ScrollUp,ScrollDown,Green.png,2,Negative,Congruent,0,0,0,0,,,,,,,,,,,,,,,,,0,34,34,34,,,,,,,,,,,,,,,,,,,,,,,,,,,,,,,,,,,,,,,,,,,,,,,,,,,,,,,,,,,,,,,,,,,,,,,,,,,,,,,,,1.7638888855775197,0.8951859998051077,317.9518854999915,None,ScrollUp,정답입니다,317.9518854999915,None,317.9518854999915,None,317.9518854999915,None,317.9518854999915,None,318.74149919999763,None,318.74149919999763,319.2438745999243,,,,,,,,,,,,,,,,013,2022-05-11_18h00.10.030,FishGame,2022.1.1,59.98767850684779,
,36,넌 슬퍼,4,Orange,A,2.583333333333333,3.066666666666667,ScrollDown,ScrollUp,Orange.png,2,Negative,Incongruent,0,0,0,0,,,,,,,,,,,,,,,,,0,35,35,35,,,,,,,,,,,,,,,,,,,,,,,,,,,,,,,,,,,,,,,,,,,,,,,,,,,,,,,,,,,,,,,,,,,,,,,,,,,,,,,,,1.1759259204069774,0.9108535000123084,319.8695257999934,None,ScrollDown,정답입니다,319.8695257999934,None,319.8695257999934,None,319.8695257999934,None,319.8695257999934,None,320.674842099892,None,320.674842099892,321.17483799997717,,,,,,,,,,,,,,,,013,2022-05-11_18h00.10.030,FishGame,2022.1.1,59.98767850684779,
,37,나를 데려가줘,6,Green,B,0,0,ScrollDown,ScrollUp,Green.png,2,NonTarget,NonTarget,0,0,0,0,,,,,,,,,,,,,,,,,0,36,36,36,,,,,,,,,,,,,,,,,,,,,,,,,,,,,,,,,,,,,,,,,,,,,,,,,,,,,,,,,,,,,,,,,,,,,,,,,,,,,,,,,1.1188271542390187,1.1131460000760853,321.79931409982964,None,ScrollDown,정답입니다,321.79931409982964,None,321.79931409982964,None,321.79931409982964,None,321.79931409982964,None,322.81033059977926,None,322.81033059977926,323.32698019989766,,,,,,,,,,,,,,,,013,2022-05-11_18h00.10.030,FishGame,2022.1.1,59.98767850684779,
,38,넌 친절해,1,Green,B,6.041666666666667,5.533333333333333,ScrollUp,ScrollDown,Green.png,2,Positive,Incongruent,0,0,0,0,,,,,,,,,,,,,,,,,0,37,37,37,,,,,,,,,,,,,,,,,,,,,,,,,,,,,,,,,,,,,,,,,,,,,,,,,,,,,,,,,,,,,,,,,,,,,,,,,,,,,,,,,1.723765422900518,0.8781124001834542,323.93583619990386,None,ScrollUp,정답입니다,323.93583619990386,None,323.93583619990386,None,323.93583619990386,None,323.93583619990386,None,324.7080461999867,None,324.7080461999867,325.21028869994916,,,,,,,,,,,,,,,,013,2022-05-11_18h00.10.030,FishGame,2022.1.1,59.98767850684779,
,1,넌 엉성해,4,Orange,A,3,3.3,ScrollDown,ScrollUp,Orange.png,3,Negative,Incongruent,0,0,0,0,,,,,,,,,,,,,,,,,,,,,0,0,0,0,,,,,,,,,,,,,,,,,,,,,,,,,,,,,,,,,,,,356.6095708999783,358.1097277998924,358.1431229999289,359.09304939978756,359.14312259992585,360.10965659981593,360.09309679991566,None,,,,,,,,,,,,,,,,,,,,,,,,,,,,,,,,,,1,1.2869207998737693,361.20019399980083,None,ScrollDown,정답입니다,361.20019399980083,None,361.20019399980083,None,361.20019399980083,None,361.20019399980083,None,362.36924759997055,None,362.36924759997055,362.873714099871,325.70806679991074,None,325.70806679991074,None,0.16944444,-0.10555556,1,0,0,0.01597366016358137,None,355.70944829983637,None,,,013,2022-05-11_18h00.10.030,FishGame,2022.1.1,59.98767850684779,
,2,나를 보내줘,6,Orange,A,0,0,ScrollUp,ScrollDown,Orange.png,3,NonTarget,NonTarget,0,0,0,0,,,,,,,,,,,,,,,,,,,,,0,1,1,1,,,,,,,,,,,,,,,,,,,,,,,,,,,,,,,,,,,,,,,,,,,,,,,,,,,,,,,,,,,,,,,,,,,,,,,,,,,,,2,1.212036400102079,363.49934419989586,None,ScrollUp,정답입니다,363.49934419989586,None,363.49934419989586,None,363.49934419989586,None,363.49934419989586,None,364.6069912998937,None,364.6069912998937,365.109611999942,,,,,,,,,,,,,,,,013,2022-05-11_18h00.10.030,FishGame,2022.1.1,59.98767850684779,
,3,넌 활발해,1,Green,B,5.666666666666667,5.6,ScrollUp,ScrollDown,Green.png,3,Positive,Incongruent,0,0,0,0,,,,,,,,,,,,,,,,,,,,,0,2,2,2,,,,,,,,,,,,,,,,,,,,,,,,,,,,,,,,,,,,,,,,,,,,,,,,,,,,,,,,,,,,,,,,,,,,,,,,,,,,,1.9274691144625347,1.0422312000300735,365.73833029996604,None,ScrollUp,정답입니다,365.73833029996604,None,365.73833029996604,None,365.73833029996604,None,365.73833029996604,None,366.6761270998977,None,366.6761270998977,367.1761568998918,,,,,,,,,,,,,,,,013,2022-05-11_18h00.10.030,FishGame,2022.1.1,59.98767850684779,
,4,넌 논리적이야,2,Orange,A,5.666666666666666,4.633333333333334,ScrollDown,ScrollUp,Orange.png,3,Positive,Congruent,0,0,0,0,,,,,,,,,,,,,,,,,,,,,0,3,3,3,,,,,,,,,,,,,,,,,,,,,,,,,,,,,,,,,,,,,,,,,,,,,,,,,,,,,,,,,,,,,,,,,,,,,,,,,,,,,1,1.0280182999558747,367.80328919994645,None,ScrollDown,정답입니다,367.80328919994645,None,367.80328919994645,None,367.80328919994645,None,367.80328919994645,None,368.7260398999788,None,368.7260398999788,369.22603969997726,,,,,,,,,,,,,,,,013,2022-05-11_18h00.10.030,FishGame,2022.1.1,59.98767850684779,
,5,넌 과묵해,3,Orange,A,3.875,4.4,ScrollDown,ScrollUp,Orange.png,3,Neutral,Neutral,0,0,0,0,,,,,,,,,,,,,,,,,,,,,0,4,4,4,,,,,,,,,,,,,,,,,,,,,,,,,,,,,,,,,,,,,,,,,,,,,,,,,,,,,,,,,,,,,,,,,,,,,,,,,,,,,1.1126543233791988,1.1262632000725716,369.8522663998883,None,ScrollDown,정답입니다,369.8522663998883,None,369.8522663998883,None,369.8522663998883,None,369.8522663998883,None,370.8737104998436,None,370.8737104998436,371.3759036997799,,,,,,,,,,,,,,,,013,2022-05-11_18h00.10.030,FishGame,2022.1.1,59.98767850684779,
,6,나를 데려가줘,6,Green,B,0,0,ScrollDown,ScrollUp,Green.png,3,NonTarget,NonTarget,0,0,0,0,,,,,,,,,,,,,,,,,,,,,0,5,5,5,,,,,,,,,,,,,,,,,,,,,,,,,,,,,,,,,,,,,,,,,,,,,,,,,,,,,,,,,,,,,,,,,,,,,,,,,,,,,1.115740751226743,1.2798353999387473,372.0030619997997,None,ScrollDown,정답입니다,372.0030619997997,None,372.0030619997997,None,372.0030619997997,None,372.0030619997997,None,373.17370019992813,None,373.17370019992813,373.6758745999541,,,,,,,,,,,,,,,,013,2022-05-11_18h00.10.030,FishGame,2022.1.1,59.98767850684779,
,7,넌 미숙해,4,Green,B,3,3,ScrollUp,ScrollDown,Green.png,3,Negative,Congruent,0,0,0,0,,,,,,,,,,,,,,,,,,,,,0,6,6,6,,,,,,,,,,,,,,,,,,,,,,,,,,,,,,,,,,,,,,,,,,,,,,,,,,,,,,,,,,,,,,,,,,,,,,,,,,,,,1.7484567960103354,0.9441714999265969,374.29974439996295,None,ScrollUp,정답입니다,374.29974439996295,None,374.29974439996295,None,374.29974439996295,None,374.29974439996295,None,375.14027629978955,None,375.14027629978955,375.6403855998069,,,,,,,,,,,,,,,,013,2022-05-11_18h00.10.030,FishGame,2022.1.1,59.98767850684779,
,8,나를 보내줘,6,Orange,A,0,0,ScrollUp,ScrollDown,Orange.png,3,NonTarget,NonTarget,0,0,0,0,,,,,,,,,,,,,,,,,,,,,0,7,7,7,,,,,,,,,,,,,,,,,,,,,,,,,,,,,,,,,,,,,,,,,,,,,,,,,,,,,,,,,,,,,,,,,,,,,,,,,,,,,1.6697530845801034,1.0280354998540133,376.2686015998479,None,ScrollUp,정답입니다,376.2686015998479,None,376.2686015998479,None,376.2686015998479,None,376.2686015998479,None,377.1904121998232,None,377.1904121998232,377.69250339991413,,,,,,,,,,,,,,,,013,2022-05-11_18h00.10.030,FishGame,2022.1.1,59.98767850684779,
,9,넌 자신만만해,3,Green,B,4.833333333333334,4.333333333333333,ScrollUp,ScrollDown,Green.png,3,Neutral,Neutral,0,0,0,0,,,,,,,,,,,,,,,,,,,,,0,8,8,8,,,,,,,,,,,,,,,,,,,,,,,,,,,,,,,,,,,,,,,,,,,,,,,,,,,,,,,,,,,,,,,,,,,,,,,,,,,,,1.7546296268701553,1.1061051997821778,378.318149499828,None,ScrollUp,정답입니다,378.318149499828,None,378.318149499828,None,378.318149499828,None,378.318149499828,None,379.31889449991286,None,379.31889449991286,379.8233739999123,,,,,,,,,,,,,,,,013,2022-05-11_18h00.10.030,FishGame,2022.1.1,59.98767850684779,
,10,넌 탐욕스러워,5,Orange,A,2.25,2.1,ScrollDown,ScrollUp,Orange.png,3,Negative,Incongruent,0,0,0,0,,,,,,,,,,,,,,,,,,,,,0,9,9,9,,,,,,,,,,,,,,,,,,,,,,,,,,,,,,,,,,,,,,,,,,,,,,,,,,,,,,,,,,,,,,,,,,,,,,,,,,,,,1.0277777810891469,1.4634962000418454,380.45391059992835,None,ScrollDown,정답입니다,380.45391059992835,None,380.45391059992835,None,380.45391059992835,None,380.45391059992835,None,381.8066442999989,None,381.8066442999989,382.30932089989074,,,,,,,,,,,,,,,,013,2022-05-11_18h00.10.030,FishGame,2022.1.1,59.98767850684779,
,11,넌 인기있어,2,Orange,A,5.458333333333333,4.5,ScrollDown,ScrollUp,Orange.png,3,Positive,Congruent,0,0,0,0,,,,,,,,,,,,,,,,,,,,,0,10,10,10,,,,,,,,,,,,,,,,,,,,,,,,,,,,,,,,,,,,,,,,,,,,,,,,,,,,,,,,,,,,,,,,,,,,,,,,,,,,,1.060185174147288,1.0315560998860747,382.9310802000109,None,ScrollDown,정답입니다,382.9310802000109,None,382.9310802000109,None,382.9310802000109,None,382.9310802000109,None,383.8590774999466,None,383.8590774999466,384.3592054999899,,,,,,,,,,,,,,,,013,2022-05-11_18h00.10.030,FishGame,2022.1.1,59.98767850684779,
,12,나를 데려가줘,6,Green,B,0,0,ScrollDown,ScrollUp,Green.png,3,NonTarget,NonTarget,0,0,0,0,,,,,,,,,,,,,,,,,,,,,0,11,11,11,,,,,,,,,,,,,,,,,,,,,,,,,,,,,,,,,,,,,,,,,,,,,,,,,,,,,,,,,,,,,,,,,,,,,,,,,,,,,1.0632716019948323,1.0924889999441803,384.9819429998752,None,ScrollDown,정답입니다,384.9819429998752,None,384.9819429998752,None,384.9819429998752,None,384.9819429998752,None,385.9734361998271,None,385.9734361998271,386.4756614000071,,,,,,,,,,,,,,,,013,2022-05-11_18h00.10.030,FishGame,2022.1.1,59.98767850684779,
,13,넌 뛰어나,2,Green,B,6.166666666666667,4,ScrollUp,ScrollDown,Green.png,3,Positive,Incongruent,0,0,0,0,,,,,,,,,,,,,,,,,,,,,0,12,12,12,,,,,,,,,,,,,,,,,,,,,,,,,,,,,,,,,,,,,,,,,,,,,,,,,,,,,,,,,,,,,,,,,,,,,,,,,,,,,1.9104938358068466,1.075979699846357,387.10571199981496,None,ScrollUp,정답입니다,387.10571199981496,None,387.10571199981496,None,387.10571199981496,None,387.10571199981496,None,388.0734096998349,None,388.0734096998349,388.5734784998931,,,,,,,,,,,,,,,,013,2022-05-11_18h00.10.030,FishGame,2022.1.1,59.98767850684779,
,14,넌 낙관적이야,1,Orange,A,5.75,5.8,ScrollDown,ScrollUp,Orange.png,3,Positive,Congruent,0,0,0,0,,,,,,,,,,,,,,,,,,,,,0,13,13,13,,,,,,,,,,,,,,,,,,,,,,,,,,,,,,,,,,,,,,,,,,,,,,,,,,,,,,,,,,,,,,,,,,,,,,,,,,,,,1.1836419651905696,1.0131103999447078,389.2012678999454,None,ScrollDown,정답입니다,389.2012678999454,None,389.2012678999454,None,389.2012678999454,None,389.2012678999454,None,390.10666619986296,None,390.10666619986296,390.6089478000067,,,,,,,,,,,,,,,,013,2022-05-11_18h00.10.030,FishGame,2022.1.1,59.98767850684779,
,15,넌 산만해,4,Green,B,2.695652173913043,3.033333333333333,ScrollUp,ScrollDown,Green.png,3,Negative,Congruent,0,0,0,0,,,,,,,,,,,,,,,,,,,,,0,14,14,14,,,,,,,,,,,,,,,,,,,,,,,,,,,,,,,,,,,,,,,,,,,,,,,,,,,,,,,,,,,,,,,,,,,,,,,,,,,,,1.7453703681627908,0.9134474000893533,391.23752429988235,None,ScrollUp,정답입니다,391.23752429988235,None,391.23752429988235,None,391.23752429988235,None,391.23752429988235,None,392.04000489995815,None,392.04000489995815,392.53997639985755,,,,,,,,,,,,,,,,013,2022-05-11_18h00.10.030,FishGame,2022.1.1,59.98767850684779,
,16,나를 보내줘,6,Orange,A,0,0,ScrollUp,ScrollDown,Orange.png,3,NonTarget,NonTarget,0,0,0,0,,,,,,,,,,,,,,,,,,,,,0,15,15,15,,,,,,,,,,,,,,,,,,,,,,,,,,,,,,,,,,,,,,,,,,,,,,,,,,,,,,,,,,,,,,,,,,,,,,,,,,,,,1.8425925970077515,1.1799063999205828,393.16852639988065,None,ScrollUp,정답입니다,393.16852639988065,None,393.16852639988065,None,393.16852639988065,None,393.16852639988065,None,394.23992329998873,None,394.23992329998873,394.73999669984914,,,,,,,,,,,,,,,,013,2022-05-11_18h00.10.030,FishGame,2022.1.1,59.98767850684779,
,17,넌 교활해,5,Green,B,2.333333333333333,2.133333333333333,ScrollUp,ScrollDown,Green.png,3,Negative,Congruent,0,0,0,0,,,,,,,,,,,,,,,,,,,,,0,16,16,16,,,,,,,,,,,,,,,,,,,,,,,,,,,,,,,,,,,,,,,,,,,,,,,,,,,,,,,,,,,,,,,,,,,,,,,,,,,,,1.8348765522241592,1.0121600001584738,395.3655334999785,None,ScrollUp,정답입니다,395.3655334999785,None,395.3655334999785,None,395.3655334999785,None,395.3655334999785,None,396.2731915998738,None,396.2731915998738,396.7732735997997,,,,,,,,,,,,,,,,013,2022-05-11_18h00.10.030,FishGame,2022.1.1,59.98767850684779,
,18,나를 보내줘,6,Orange,A,0,0,ScrollUp,ScrollDown,Orange.png,3,NonTarget,NonTarget,0,0,0,0,,,,,,,,,,,,,,,,,,,,,0,17,17,17,,,,,,,,,,,,,,,,,,,,,,,,,,,,,,,,,,,,,,,,,,,,,,,,,,,,,,,,,,,,,,,,,,,,,,,,,,,,,1.7484567960103354,0.9775596999097615,397.4078817998525,None,ScrollUp,정답입니다,397.4078817998525,None,397.4078817998525,None,397.4078817998525,None,397.4078817998525,None,398.2752740997821,None,398.2752740997821,398.773216499947,,,,,,,,,,,,,,,,013,2022-05-11_18h00.10.030,FishGame,2022.1.1,59.98767850684779,
,19,넌 불친절해,5,Green,B,2.208333333333333,2.033333333333333,ScrollUp,ScrollDown,Green.png,3,Negative,Congruent,0,0,0,0,,,,,,,,,,,,,,,,,,,,,0,18,18,18,,,,,,,,,,,,,,,,,,,,,,,,,,,,,,,,,,,,,,,,,,,,,,,,,,,,,,,,,,,,,,,,,,,,,,,,,,,,,1.7932098756233852,0.9957485999912024,399.41599289979786,None,ScrollUp,정답입니다,399.41599289979786,None,399.41599289979786,None,399.41599289979786,None,399.41599289979786,None,400.30645909998566,None,400.30645909998566,400.808710699901,,,,,,,,,,,,,,,,013,2022-05-11_18h00.10.030,FishGame,2022.1.1,59.98767850684779,
,20,넌 지적이야,2,Green,B,5.75,4.366666666666666,ScrollUp,ScrollDown,Green.png,3,Positive,Incongruent,0,0,0,0,,,,,,,,,,,,,,,,,,,,,0,19,19,19,,,,,,,,,,,,,,,,,,,,,,,,,,,,,,,,,,,,,,,,,,,,,,,,,,,,,,,,,,,,,,,,,,,,,,,,,,,,,1.702160490055879,1.0942384998779744,401.43946519983,None,ScrollUp,정답입니다,401.43946519983,None,401.43946519983,None,401.43946519983,None,401.43946519983,None,402.4230342998635,None,402.4230342998635,402.9252557998989,,,,,,,,,,,,,,,,013,2022-05-11_18h00.10.030,FishGame,2022.1.1,59.98767850684779,
,21,넌 우유부단해,4,Orange,A,2.666666666666667,3.166666666666667,ScrollDown,ScrollUp,Orange.png,3,Negative,Incongruent,0,0,0,0,,,,,,,,,,,,,,,,,,,,,0,20,20,20,,,,,,,,,,,,,,,,,,,,,,,,,,,,,,,,,,,,,,,,,,,,,,,,,,,,,,,,,,,,,,,,,,,,,,,,,,,,,1.2885802388191223,0.8777139999438077,403.5559478998184,None,ScrollDown,정답입니다,403.5559478998184,None,403.5559478998184,None,403.5559478998184,None,403.5559478998184,None,404.32304319995455,None,404.32304319995455,404.82525889994577,,,,,,,,,,,,,,,,013,2022-05-11_18h00.10.030,FishGame,2022.1.1,59.98767850684779,
,22,나를 데려가줘,6,Green,B,0,0,ScrollDown,ScrollUp,Green.png,3,NonTarget,NonTarget,0,0,0,0,,,,,,,,,,,,,,,,,,,,,0,21,21,21,,,,,,,,,,,,,,,,,,,,,,,,,,,,,,,,,,,,,,,,,,,,,,,,,,,,,,,,,,,,,,,,,,,,,,,,,,,,,1.1697530895471573,0.9940758999437094,405.45238229981624,None,ScrollDown,정답입니다,405.45238229981624,None,405.45238229981624,None,405.45238229981624,None,405.45238229981624,None,406.33959909994155,None,406.33959909994155,406.841946200002,,,,,,,,,,,,,,,,013,2022-05-11_18h00.10.030,FishGame,2022.1.1,59.98767850684779,
,23,넌 성실해,1,Green,B,6.041666666666666,5.7,ScrollUp,ScrollDown,Green.png,3,Positive,Incongruent,0,0,0,0,,,,,,,,,,,,,,,,,,,,,0,22,22,22,,,,,,,,,,,,,,,,,,,,,,,,,,,,,,,,,,,,,,,,,,,,,,,,,,,,,,,,,,,,,,,,,,,,,,,,,,,,,1.7530864129463832,0.8442567000165582,407.46550539997406,None,ScrollUp,정답입니다,407.46550539997406,None,407.46550539997406,None,407.46550539997406,None,407.46550539997406,None,408.2063015999738,None,408.2063015999738,408.70635789982043,,,,,,,,,,,,,,,,013,2022-05-11_18h00.10.030,FishGame,2022.1.1,59.98767850684779,
,24,넌 현실주의적이야,3,Orange,A,4.625,4.4,ScrollDown,ScrollUp,Orange.png,3,Neutral,Neutral,0,0,0,0,,,,,,,,,,,,,,,,,,,,,0,23,23,23,,,,,,,,,,,,,,,,,,,,,,,,,,,,,,,,,,,,,,,,,,,,,,,,,,,,,,,,,,,,,,,,,,,,,,,,,,,,,1.266975318392118,0.8946206998080015,409.34281059983186,None,ScrollDown,정답입니다,409.34281059983186,None,409.34281059983186,None,409.34281059983186,None,409.34281059983186,None,410.1229348999914,None,410.1229348999914,410.6251339998562,,,,,,,,,,,,,,,,013,2022-05-11_18h00.10.030,FishGame,2022.1.1,59.98767850684779,
,25,넌 진실돼,1,Orange,A,6.625,5.566666666666666,ScrollDown,ScrollUp,Orange.png,3,Positive,Congruent,0,0,0,0,,,,,,,,,,,,,,,,,,,,,0,24,24,24,,,,,,,,,,,,,,,,,,,,,,,,,,,,,,,,,,,,,,,,,,,,,,,,,,,,,,,,,,,,,,,,,,,,,,,,,,,,,1.180555562178294,0.8426798000000417,411.252836599946,None,ScrollDown,정답입니다,411.252836599946,None,411.252836599946,None,411.252836599946,None,411.252836599946,None,411.98957449989393,None,411.98957449989393,412.4917005999014,,,,,,,,,,,,,,,,013,2022-05-11_18h00.10.030,FishGame,2022.1.1,59.98767850684779,
,26,넌 천진난만해,3,Green,B,4.958333333333334,4.833333333333333,ScrollUp,ScrollDown,Green.png,3,Neutral,Neutral,0,0,0,0,,,,,,,,,,,,,,,,,,,,,0,25,25,25,,,,,,,,,,,,,,,,,,,,,,,,,,,,,,,,,,,,,,,,,,,,,,,,,,,,,,,,,,,,,,,,,,,,,,,,,,,,,1.7777777860562007,0.8611969000194222,413.1206944999285,None,ScrollUp,정답입니다,413.1206944999285,None,413.1206944999285,None,413.1206944999285,None,413.1206944999285,None,413.87290469999425,None,413.87290469999425,414.3729202998802,,,,,,,,,,,,,,,,013,2022-05-11_18h00.10.030,FishGame,2022.1.1,59.98767850684779,
,27,넌 교양없어,5,Orange,A,2.416666666666667,2.2,ScrollDown,ScrollUp,Orange.png,3,Negative,Incongruent,0,0,0,0,,,,,,,,,,,,,,,,,,,,,0,26,26,26,,,,,,,,,,,,,,,,,,,,,,,,,,,,,,,,,,,,,,,,,,,,,,,,,,,,,,,,,,,,,,,,,,,,,,,,,,,,,1.3040123408039412,0.7631050001364201,415.00831199996173,None,ScrollDown,정답입니다,415.00831199996173,None,415.00831199996173,None,415.00831199996173,None,415.00831199996173,None,415.65615519997664,None,415.65615519997664,416.1584381998982,,,,,,,,,,,,,,,,013,2022-05-11_18h00.10.030,FishGame,2022.1.1,59.98767850684779,
,28,나를 보내줘,6,Orange,A,0,0,ScrollUp,ScrollDown,Orange.png,3,NonTarget,NonTarget,0,0,0,0,,,,,,,,,,,,,,,,,,,,,0,27,27,27,,,,,,,,,,,,,,,,,,,,,,,,,,,,,,,,,,,,,,,,,,,,,,,,,,,,,,,,,,,,,,,,,,,,,,,,,,,,,1.7731481442848842,1.042259099893272,416.7912432998419,None,ScrollUp,정답입니다,416.7912432998419,None,416.7912432998419,None,416.7912432998419,None,416.7912432998419,None,417.7228005998768,None,417.7228005998768,418.2228029000107,,,,,,,,,,,,,,,,013,2022-05-11_18h00.10.030,FishGame,2022.1.1,59.98767850684779,
,29,넌 엉뚱스러워,3,Orange,A,4.166666666666667,4.133333333333334,ScrollDown,ScrollUp,Orange.png,3,Neutral,Neutral,0,0,0,0,,,,,,,,,,,,,,,,,,,,,0,28,28,28,,,,,,,,,,,,,,,,,,,,,,,,,,,,,,,,,,,,,,,,,,,,,,,,,,,,,,,,,,,,,,,,,,,,,,,,,,,,,1.3055555547277131,0.8448024000972509,418.8534516999498,None,ScrollDown,정답입니다,418.8534516999498,None,418.8534516999498,None,418.8534516999498,None,418.8534516999498,None,419.589425599901,None,419.589425599901,420.0894718999043,,,,,,,,,,,,,,,,013,2022-05-11_18h00.10.030,FishGame,2022.1.1,59.98767850684779,
,30,넌 무지해,4,Green,B,2.541666666666667,3.066666666666667,ScrollUp,ScrollDown,Green.png,3,Negative,Congruent,0,0,0,0,,,,,,,,,,,,,,,,,,,,,0,29,29,29,,,,,,,,,,,,,,,,,,,,,,,,,,,,,,,,,,,,,,,,,,,,,,,,,,,,,,,,,,,,,,,,,,,,,,,,,,,,,1.766975313425064,0.8451442001387477,420.7130012998823,None,ScrollUp,정답입니다,420.7130012998823,None,420.7130012998823,None,420.7130012998823,None,420.7130012998823,None,421.45601119985804,None,421.45601119985804,421.9560555999633,,,,,,,,,,,,,,,,013,2022-05-11_18h00.10.030,FishGame,2022.1.1,59.98767850684779,
,31,넌 음울해,5,Green,B,2.25,2.233333333333333,ScrollUp,ScrollDown,Green.png,3,Negative,Congruent,0,0,0,0,,,,,,,,,,,,,,,,,,,,,0,30,30,30,,,,,,,,,,,,,,,,,,,,,,,,,,,,,,,,,,,,,,,,,,,,,,,,,,,,,,,,,,,,,,,,,,,,,,,,,,,,,1.751543199022611,0.7486779000610113,422.5851684999652,None,ScrollUp,정답입니다,422.5851684999652,None,422.5851684999652,None,422.5851684999652,None,422.5851684999652,None,423.2226214997936,None,423.2226214997936,423.72271449980326,,,,,,,,,,,,,,,,013,2022-05-11_18h00.10.030,FishGame,2022.1.1,59.98767850684779,
,32,넌 냉소적이야,5,Orange,A,2.916666666666667,2.4,ScrollDown,ScrollUp,Orange.png,3,Negative,Incongruent,0,0,0,0,,,,,,,,,,,,,,,,,,,,,0,31,31,31,,,,,,,,,,,,,,,,,,,,,,,,,,,,,,,,,,,,,,,,,,,,,,,,,,,,,,,,,,,,,,,,,,,,,,,,,,,,,1.2746913631757102,0.7943693001288921,424.35419949982315,None,ScrollDown,정답입니다,424.35419949982315,None,424.35419949982315,None,424.35419949982315,None,424.35419949982315,None,425.03929079999216,None,425.03929079999216,425.5415016999468,,,,,,,,,,,,,,,,013,2022-05-11_18h00.10.030,FishGame,2022.1.1,59.98767850684779,
,33,나를 데려가줘,6,Green,B,0,0,ScrollDown,ScrollUp,Green.png,3,NonTarget,NonTarget,0,0,0,0,,,,,,,,,,,,,,,,,,,,,0,32,32,32,,,,,,,,,,,,,,,,,,,,,,,,,,,,,,,,,,,,,,,,,,,,,,,,,,,,,,,,,,,,,,,,,,,,,,,,,,,,,1.2623456766208014,1.0107427001930773,426.16842359979637,None,ScrollDown,정답입니다,426.16842359979637,None,426.16842359979637,None,426.16842359979637,None,426.16842359979637,None,427.07255579996854,None,427.07255579996854,427.5726000999566,,,,,,,,,,,,,,,,013,2022-05-11_18h00.10.030,FishGame,2022.1.1,59.98767850684779,
,34,넌 쾌활해,1,Orange,A,5.541666666666666,5.733333333333333,ScrollDown,ScrollUp,Orange.png,3,Positive,Congruent,0,0,0,0,,,,,,,,,,,,,,,,,,,,,0,33,33,33,,,,,,,,,,,,,,,,,,,,,,,,,,,,,,,,,,,,,,,,,,,,,,,,,,,,,,,,,,,,,,,,,,,,,,,,,,,,,1.2746913631757102,0.878256100229919,428.2075990999583,None,ScrollDown,정답입니다,428.2075990999583,None,428.2075990999583,None,428.2075990999583,None,428.2075990999583,None,428.97252489998937,None,428.97252489998937,429.4747766999062,,,,,,,,,,,,,,,,013,2022-05-11_18h00.10.030,FishGame,2022.1.1,59.98767850684779,
,35,나를 보내줘,6,Orange,A,0,0,ScrollUp,ScrollDown,Orange.png,3,NonTarget,NonTarget,0,0,0,0,,,,,,,,,,,,,,,,,,,,,0,34,34,34,,,,,,,,,,,,,,,,,,,,,,,,,,,,,,,,,,,,,,,,,,,,,,,,,,,,,,,,,,,,,,,,,,,,,,,,,,,,,1.6265432064731917,1.009340099990368,430.10183919989504,None,ScrollUp,정답입니다,430.10183919989504,None,430.10183919989504,None,430.10183919989504,None,430.10183919989504,None,431.0058546999935,None,431.0058546999935,431.50585579988547,,,,,,,,,,,,,,,,013,2022-05-11_18h00.10.030,FishGame,2022.1.1,59.98767850684779,
,36,넌 명랑해,1,Green,B,5.739130434782609,5.666666666666667,ScrollUp,ScrollDown,Green.png,3,Positive,Incongruent,0,0,0,0,,,,,,,,,,,,,,,,,,,,,0,35,35,35,,,,,,,,,,,,,,,,,,,,,,,,,,,,,,,,,,,,,,,,,,,,,,,,,,,,,,,,,,,,,,,,,,,,,,,,,,,,,1.652777781089147,0.8806131000164896,432.1347916999366,None,ScrollUp,정답입니다,432.1347916999366,None,432.1347916999366,None,432.1347916999366,None,432.1347916999366,None,432.9057136999909,None,432.9057136999909,433.4058439999353,,,,,,,,,,,,,,,,013,2022-05-11_18h00.10.030,FishGame,2022.1.1,59.98767850684779,
,37,넌 멍해,4,Orange,A,2.833333333333333,3.4,ScrollDown,ScrollUp,Orange.png,3,Negative,Incongruent,0,0,0,0,,,,,,,,,,,,,,,,,,,,,0,36,36,36,,,,,,,,,,,,,,,,,,,,,,,,,,,,,,,,,,,,,,,,,,,,,,,,,,,,,,,,,,,,,,,,,,,,,,,,,,,,,1.0108024775981903,1.4777068998664618,434.03506269981153,None,ScrollDown,정답입니다,434.03506269981153,None,434.03506269981153,None,434.03506269981153,None,434.03506269981153,None,435.40574989980087,None,435.40574989980087,435.9079580998514,,,,,,,,,,,,,,,,013,2022-05-11_18h00.10.030,FishGame,2022.1.1,59.98767850684779,
,38,나를 데려가줘,6,Green,B,0,0,ScrollDown,ScrollUp,Green.png,3,NonTarget,NonTarget,0,0,0,0,,,,,,,,,,,,,,,,,,,,,0,37,37,37,,,,,,,,,,,,,,,,,,,,,,,,,,,,,,,,,,,,,,,,,,,,,,,,,,,,,,,,,,,,,,,,,,,,,,,,,,,,,1.584876542290052,0.8591781000141054,436.5391123997979,None,ScrollUp,오답입니다,436.5391123997979,None,436.5391123997979,None,436.5391123997979,None,436.5391123997979,None,437.28897639992647,None,437.28897639992647,437.7890528999269,,,,,,,,,,,,,,,,013,2022-05-11_18h00.10.030,FishGame,2022.1.1,59.98767850684779,
,39,넌 현명해,2,Orange,A,6.541666666666666,4.533333333333333,ScrollDown,ScrollUp,Orange.png,3,Positive,Congruent,0,0,0,0,,,,,,,,,,,,,,,,,,,,,0,38,38,38,,,,,,,,,,,,,,,,,,,,,,,,,,,,,,,,,,,,,,,,,,,,,,,,,,,,,,,,,,,,,,,,,,,,,,,,,,,,,1.3101851840813956,0.8945434000343084,438.41850389982574,None,ScrollDown,정답입니다,438.41850389982574,None,438.41850389982574,None,438.41850389982574,None,438.41850389982574,None,439.2056572998408,None,439.2056572998408,439.7078155998606,,,,,,,,,,,,,,,,013,2022-05-11_18h00.10.030,FishGame,2022.1.1,59.98767850684779,
,40,넌 수줍어,3,Green,B,3.541666666666666,4.366666666666666,ScrollUp,ScrollDown,Green.png,3,Neutral,Neutral,0,0,0,0,,,,,,,,,,,,,,,,,,,,,0,39,39,39,,,,,,,,,,,,,,,,,,,,,,,,,,,,,,,,,,,,,,,,,,,,,,,,,,,,,,,,,,,,,,,,,,,,,,,,,,,,,1.5833333345750966,1.2110080001875758,440.3336016999092,None,ScrollUp,정답입니다,440.3336016999092,None,440.3336016999092,None,440.3336016999092,None,440.3336016999092,None,441.4389578998089,None,441.4389578998089,441.9442617997993,,,,,,,,,,,,,,,,013,2022-05-11_18h00.10.030,FishGame,2022.1.1,59.98767850684779,
,41,나를 데려가줘,6,Green,B,0,0,ScrollDown,ScrollUp,Green.png,3,NonTarget,NonTarget,0,0,0,0,,,,,,,,,,,,,,,,,,,,,0,40,40,40,,,,,,,,,,,,,,,,,,,,,,,,,,,,,,,,,,,,,,,,,,,,,,,,,,,,,,,,,,,,,,,,,,,,,,,,,,,,,1.2052469104528427,1.127804100047797,442.56881119986065,None,ScrollDown,정답입니다,442.56881119986065,None,442.56881119986065,None,442.56881119986065,None,442.56881119986065,None,443.58884929982014,None,443.58884929982014,444.09118839981966,,,,,,,,,,,,,,,,013,2022-05-11_18h00.10.030,FishGame,2022.1.1,59.98767850684779,
,42,넌 성숙해,2,Green,B,5.833333333333333,4.533333333333333,ScrollUp,ScrollDown,Green.png,3,Positive,Incongruent,0,0,0,0,,,,,,,,,,,,,,,,,,,,,0,41,41,41,,,,,,,,,,,,,,,,,,,,,,,,,,,,,,,,,,,,,,,,,,,,,,,,,,,,,,,,,,,,,,,,,,,,,,,,,,,,,1.5570987661679587,0.9283593001309782,444.7122499998659,None,ScrollUp,정답입니다,444.7122499998659,None,444.7122499998659,None,444.7122499998659,None,444.7122499998659,None,445.5388839999214,None,445.5388839999214,446.04111629980616,,,,,,,,,,,,,,,,013,2022-05-11_18h00.10.030,FishGame,2022.1.1,59.98767850684779,
,1,넌 매력적이야,2,Green,B,6.125,4.666666666666667,ScrollUp,ScrollDown,Green.png,4,Positive,Incongruent,0,0,0,0,,,,,,,,,,,,,,,,,,,,,,,,,0,0,0,0,,,,,,,,,,,,,,,,,,,,,,,,,,,,,,,,477.38798199989833,478.8907063999213,478.92398399999365,479.8739895999897,479.9239491999615,480.871525199851,480.871525199851,None,,,,,,,,,,,,,,,,,,,,,,,,,,,,,,,,,,1.766975313425064,1.3474153999704868,481.9639234999195,None,ScrollUp,정답입니다,481.9639234999195,None,481.9639234999195,None,481.9639234999195,None,481.9639234999195,None,483.20474249986,None,483.20474249986,483.70687869982794,446.53886989993043,None,446.53886989993043,None,0.15092592,-0.10092592,1,0,0,0.015973859932273626,None,476.5380080000032,None,,,013,2022-05-11_18h00.10.030,FishGame,2022.1.1,59.98767850684779,
,2,나를 보내줘,6,Orange,A,0,0,ScrollUp,ScrollDown,Orange.png,4,NonTarget,NonTarget,0,0,0,0,,,,,,,,,,,,,,,,,,,,,,,,,0,1,1,1,,,,,,,,,,,,,,,,,,,,,,,,,,,,,,,,,,,,,,,,,,,,,,,,,,,,,,,,,,,,,,,,,,,,,,,,,1.787037044763565,1.2432979000732303,484.3300222000107,None,ScrollUp,정답입니다,484.3300222000107,None,484.3300222000107,None,484.3300222000107,None,484.3300222000107,None,485.4713601998519,None,485.4713601998519,485.97359419986606,,,,,,,,,,,,,,,,013,2022-05-11_18h00.10.030,FishGame,2022.1.1,59.98767850684779,
,3,넌 조심스러워,3,Orange,A,4.791666666666666,4.666666666666667,ScrollDown,ScrollUp,Orange.png,4,Neutral,Neutral,0,0,0,0,,,,,,,,,,,,,,,,,,,,,,,,,0,2,2,2,,,,,,,,,,,,,,,,,,,,,,,,,,,,,,,,,,,,,,,,,,,,,,,,,,,,,,,,,,,,,,,,,,,,,,,,,1.2793209801117578,0.8943880000151694,486.6028099998366,None,ScrollDown,정답입니다,486.6028099998366,None,486.6028099998366,None,486.6028099998366,None,486.6028099998366,None,487.38795889983885,None,487.38795889983885,487.8879928998649,,,,,,,,,,,,,,,,013,2022-05-11_18h00.10.030,FishGame,2022.1.1,59.98767850684779,
,4,넌 철학적이야,3,Green,B,4.5,4.266666666666667,ScrollUp,ScrollDown,Green.png,4,Neutral,Neutral,0,0,0,0,,,,,,,,,,,,,,,,,,,,,,,,,0,3,3,3,,,,,,,,,,,,,,,,,,,,,,,,,,,,,,,,,,,,,,,,,,,,,,,,,,,,,,,,,,,,,,,,,,,,,,,,,1.4645061728854973,0.8463516999036074,488.5208204998635,None,NoResponse,무응답입니다,488.5208204998635,None,488.5208204998635,None,488.5208204998635,None,488.5208204998635,None,489.25462659983896,None,489.25462659983896,489.7568026999943,,,,,,,,,,,,,,,,013,2022-05-11_18h00.10.030,FishGame,2022.1.1,59.98767850684779,
,5,넌 쩨쩨해,5,Orange,A,2.375,2.133333333333333,ScrollDown,ScrollUp,Orange.png,4,Negative,Incongruent,0,0,0,0,,,,,,,,,,,,,,,,,,,,,,,,,0,4,4,4,,,,,,,,,,,,,,,,,,,,,,,,,,,,,,,,,,,,,,,,,,,,,,,,,,,,,,,,,,,,,,,,,,,,,,,,,1,1.0129674999043345,490.38570309989154,None,ScrollDown,정답입니다,490.38570309989154,None,490.38570309989154,None,490.38570309989154,None,490.38570309989154,None,491.29005219996907,None,491.29005219996907,491.7902037999593,,,,,,,,,,,,,,,,013,2022-05-11_18h00.10.030,FishGame,2022.1.1,59.98767850684779,
,6,나를 데려가줘,6,Green,B,0,0,ScrollDown,ScrollUp,Green.png,4,NonTarget,NonTarget,0,0,0,0,,,,,,,,,,,,,,,,,,,,,,,,,0,5,5,5,,,,,,,,,,,,,,,,,,,,,,,,,,,,,,,,,,,,,,,,,,,,,,,,,,,,,,,,,,,,,,,,,,,,,,,,,1.2037036965290706,1.0110951999668032,492.4180087998975,None,ScrollDown,정답입니다,492.4180087998975,None,492.4180087998975,None,492.4180087998975,None,492.4180087998975,None,493.32110819988884,None,493.32110819988884,493.821202499792,,,,,,,,,,,,,,,,013,2022-05-11_18h00.10.030,FishGame,2022.1.1,59.98767850684779,
,7,넌 고집불통이야,5,Green,B,2.875,2,ScrollUp,ScrollDown,Green.png,4,Negative,Congruent,0,0,0,0,,,,,,,,,,,,,,,,,,,,,,,,,0,6,6,6,,,,,,,,,,,,,,,,,,,,,,,,,,,,,,,,,,,,,,,,,,,,,,,,,,,,,,,,,,,,,,,,,,,,,,,,,1.9182098805904388,0.9610838000662625,494.457264599856,None,ScrollUp,정답입니다,494.457264599856,None,494.457264599856,None,494.457264599856,None,494.457264599856,None,495.3066314999014,None,495.3066314999014,495.80674569983967,,,,,,,,,,,,,,,,013,2022-05-11_18h00.10.030,FishGame,2022.1.1,59.98767850684779,
,8,넌 무심해,4,Orange,A,2.875,3.2,ScrollDown,ScrollUp,Orange.png,4,Negative,Incongruent,0,0,0,0,,,,,,,,,,,,,,,,,,,,,,,,,0,7,7,7,,,,,,,,,,,,,,,,,,,,,,,,,,,,,,,,,,,,,,,,,,,,,,,,,,,,,,,,,,,,,,,,,,,,,,,,,1.2731481492519379,0.9441281999461353,496.43315399996936,None,ScrollDown,정답입니다,496.43315399996936,None,496.43315399996936,None,496.43315399996936,None,496.43315399996936,None,497.2710949999746,None,497.2710949999746,497.77110199979506,,,,,,,,,,,,,,,,013,2022-05-11_18h00.10.030,FishGame,2022.1.1,59.98767850684779,
,9,넌 정겨워,1,Orange,A,5.791666666666667,5.666666666666667,ScrollDown,ScrollUp,Orange.png,4,Positive,Congruent,0,0,0,0,,,,,,,,,,,,,,,,,,,,,,,,,0,8,8,8,,,,,,,,,,,,,,,,,,,,,,,,,,,,,,,,,,,,,,,,,,,,,,,,,,,,,,,,,,,,,,,,,,,,,,,,,1.2422839452823002,0.9775835000909865,498.4016303999815,None,ScrollDown,정답입니다,498.4016303999815,None,498.4016303999815,None,498.4016303999815,None,498.4016303999815,None,499.27110439981334,None,499.27110439981334,499.77111430000514,,,,,,,,,,,,,,,,013,2022-05-11_18h00.10.030,FishGame,2022.1.1,59.98767850684779,
,10,나를 데려가줘,6,Green,B,0,0,ScrollDown,ScrollUp,Green.png,4,NonTarget,NonTarget,0,0,0,0,,,,,,,,,,,,,,,,,,,,,,,,,0,9,9,9,,,,,,,,,,,,,,,,,,,,,,,,,,,,,,,,,,,,,,,,,,,,,,,,,,,,,,,,,,,,,,,,,,,,,,,,,1.1851851791143417,0.9609542000107467,500.39362009987235,None,ScrollDown,정답입니다,500.39362009987235,None,500.39362009987235,None,500.39362009987235,None,500.39362009987235,None,501.25435679988004,None,501.25435679988004,501.7565837998409,,,,,,,,,,,,,,,,013,2022-05-11_18h00.10.030,FishGame,2022.1.1,59.98767850684779,
,11,넌 체제순응적이야,4,Green,B,3,3.6,ScrollUp,ScrollDown,Green.png,4,Negative,Congruent,0,0,0,0,,,,,,,,,,,,,,,,,,,,,,,,,0,10,10,10,,,,,,,,,,,,,,,,,,,,,,,,,,,,,,,,,,,,,,,,,,,,,,,,,,,,,,,,,,,,,,,,,,,,,,,,,1.6882716019948325,0.9590747999027371,502.3900078998413,None,ScrollUp,정답입니다,502.3900078998413,None,502.3900078998413,None,502.3900078998413,None,502.3900078998413,None,503.23760679992847,None,503.23760679992847,503.73765969998203,,,,,,,,,,,,,,,,013,2022-05-11_18h00.10.030,FishGame,2022.1.1,59.98767850684779,
,12,나를 보내줘,6,Orange,A,0,0,ScrollUp,ScrollDown,Orange.png,4,NonTarget,NonTarget,0,0,0,0,,,,,,,,,,,,,,,,,,,,,,,,,0,11,11,11,,,,,,,,,,,,,,,,,,,,,,,,,,,,,,,,,,,,,,,,,,,,,,,,,,,,,,,,,,,,,,,,,,,,,,,,,1.6820987711350122,1.2297274998854846,504.36501039983705,None,ScrollUp,정답입니다,504.36501039983705,None,504.36501039983705,None,504.36501039983705,None,504.36501039983705,None,505.48973229993135,None,505.48973229993135,506.0064486998599,,,,,,,,,,,,,,,,013,2022-05-11_18h00.10.030,FishGame,2022.1.1,59.98767850684779,
,13,넌 박식해,2,Orange,A,5.625,3.933333333333333,ScrollDown,ScrollUp,Orange.png,4,Positive,Congruent,0,0,0,0,,,,,,,,,,,,,,,,,,,,,,,,,0,12,12,12,,,,,,,,,,,,,,,,,,,,,,,,,,,,,,,,,,,,,,,,,,,,,,,,,,,,,,,,,,,,,,,,,,,,,,,,,1.3132715995113053,0.9275362000335008,506.6247549999971,None,ScrollDown,정답입니다,506.6247549999971,None,506.6247549999971,None,506.6247549999971,None,506.6247549999971,None,507.4374818999786,None,507.4374818999786,507.93758419994265,,,,,,,,,,,,,,,,013,2022-05-11_18h00.10.030,FishGame,2022.1.1,59.98767850684779,
,14,나를 보내줘,6,Orange,A,0,0,ScrollUp,ScrollDown,Orange.png,4,NonTarget,NonTarget,0,0,0,0,,,,,,,,,,,,,,,,,,,,,,,,,0,13,13,13,,,,,,,,,,,,,,,,,,,,,,,,,,,,,,,,,,,,,,,,,,,,,,,,,,,,,,,,,,,,,,,,,,,,,,,,,1.699074074625969,0.9797219000756741,508.5700065998826,None,ScrollUp,정답입니다,508.5700065998826,None,508.5700065998826,None,508.5700065998826,None,508.5700065998826,None,509.439667099854,None,509.439667099854,509.9564056999516,,,,,,,,,,,,,,,,013,2022-05-11_18h00.10.030,FishGame,2022.1.1,59.98767850684779,
,15,넌 침착해,1,Green,B,5.458333333333333,5.566666666666666,ScrollUp,ScrollDown,Green.png,4,Positive,Incongruent,0,0,0,0,,,,,,,,,,,,,,,,,,,,,,,,,0,14,14,14,,,,,,,,,,,,,,,,,,,,,,,,,,,,,,,,,,,,,,,,,,,,,,,,,,,,,,,,,,,,,,,,,,,,,,,,,1.632716049750646,1.0432494000997394,510.5821592998691,None,ScrollUp,정답입니다,510.5821592998691,None,510.5821592998691,None,510.5821592998691,None,510.5821592998691,None,511.5208159999456,None,511.5208159999456,512.022993999999,,,,,,,,,,,,,,,,013,2022-05-11_18h00.10.030,FishGame,2022.1.1,59.98767850684779,
,16,나를 데려가줘,6,Green,B,0,0,ScrollDown,ScrollUp,Green.png,4,NonTarget,NonTarget,0,0,0,0,,,,,,,,,,,,,,,,,,,,,,,,,0,15,15,15,,,,,,,,,,,,,,,,,,,,,,,,,,,,,,,,,,,,,,,,,,,,,,,,,,,,,,,,,,,,,,,,,,,,,,,,,1.1651234477758408,1.5442371000535786,512.6519452999346,None,ScrollDown,정답입니다,512.6519452999346,None,512.6519452999346,None,512.6519452999346,None,512.6519452999346,None,514.0896004999522,None,514.0896004999522,514.589606900001,,,,,,,,,,,,,,,,013,2022-05-11_18h00.10.030,FishGame,2022.1.1,59.98767850684779,
,17,넌 행복해,1,Orange,A,6.416666666666666,6.166666666666667,ScrollDown,ScrollUp,Orange.png,4,Positive,Congruent,0,0,0,0,,,,,,,,,,,,,,,,,,,,,,,,,0,16,16,16,,,,,,,,,,,,,,,,,,,,,,,,,,,,,,,,,,,,,,,,,,,,,,,,,,,,,,,,,,,,,,,,,,,,,,,,,1.1327160547176998,1.492306999862194,515.223746899981,None,ScrollDown,정답입니다,515.223746899981,None,515.223746899981,None,515.223746899981,None,515.223746899981,None,516.604033799842,None,516.604033799842,517.1040621998254,,,,,,,,,,,,,,,,013,2022-05-11_18h00.10.030,FishGame,2022.1.1,59.98767850684779,
,18,넌 겸손해,2,Green,B,5.791666666666667,4.766666666666667,ScrollUp,ScrollDown,Green.png,4,Positive,Incongruent,0,0,0,0,,,,,,,,,,,,,,,,,,,,,,,,,0,17,17,17,,,,,,,,,,,,,,,,,,,,,,,,,,,,,,,,,,,,,,,,,,,,,,,,,,,,,,,,,,,,,,,,,,,,,,,,,1.7685185273488362,1.1943075999151915,517.7329369999934,None,ScrollUp,정답입니다,517.7329369999934,None,517.7329369999934,None,517.7329369999934,None,517.7329369999934,None,518.820647199871,None,518.820647199871,519.3228672000114,,,,,,,,,,,,,,,,013,2022-05-11_18h00.10.030,FishGame,2022.1.1,59.98767850684779,
,19,나를 보내줘,6,Orange,A,0,0,ScrollUp,ScrollDown,Orange.png,4,NonTarget,NonTarget,0,0,0,0,,,,,,,,,,,,,,,,,,,,,,,,,0,18,18,18,,,,,,,,,,,,,,,,,,,,,,,,,,,,,,,,,,,,,,,,,,,,,,,,,,,,,,,,,,,,,,,,,,,,,,,,,1.7916666616996129,1.1775814001448452,519.9502456998453,None,ScrollUp,정답입니다,519.9502456998453,None,519.9502456998453,None,519.9502456998453,None,519.9502456998453,None,521.0228830999695,None,521.0228830999695,521.537291099783,,,,,,,,,,,,,,,,013,2022-05-11_18h00.10.030,FishGame,2022.1.1,59.98767850684779,
,20,넌 의심없어,3,Orange,A,4.166666666666667,4.6,ScrollDown,ScrollUp,Orange.png,4,Neutral,Neutral,0,0,0,0,,,,,,,,,,,,,,,,,,,,,,,,,0,19,19,19,,,,,,,,,,,,,,,,,,,,,,,,,,,,,,,,,,,,,,,,,,,,,,,,,,,,,,,,,,,,,,,,,,,,,,,,,1.140432099501292,1.0603640000335872,522.1460514999926,None,ScrollDown,정답입니다,522.1460514999926,None,522.1460514999926,None,522.1460514999926,None,522.1460514999926,None,523.1038897999097,None,523.1038897999097,523.6061011999846,,,,,,,,,,,,,,,,013,2022-05-11_18h00.10.030,FishGame,2022.1.1,59.98767850684779,
,21,넌 시시해,4,Orange,A,2.666666666666667,2.966666666666667,ScrollDown,ScrollUp,Orange.png,4,Negative,Incongruent,0,0,0,0,,,,,,,,,,,,,,,,,,,,,,,,,0,20,20,20,,,,,,,,,,,,,,,,,,,,,,,,,,,,,,,,,,,,,,,,,,,,,,,,,,,,,,,,,,,,,,,,,,,,,,,,,1.0632716019948323,0.9299335000105202,524.2284229998477,None,ScrollDown,정답입니다,524.2284229998477,None,524.2284229998477,None,524.2284229998477,None,524.2284229998477,None,525.0561081999913,None,525.0561081999913,525.5705499998294,,,,,,,,,,,,,,,,013,2022-05-11_18h00.10.030,FishGame,2022.1.1,59.98767850684779,
,22,나를 데려가줘,6,Green,B,0,0,ScrollDown,ScrollUp,Green.png,4,NonTarget,NonTarget,0,0,0,0,,,,,,,,,,,,,,,,,,,,,,,,,0,21,21,21,,,,,,,,,,,,,,,,,,,,,,,,,,,,,,,,,,,,,,,,,,,,,,,,,,,,,,,,,,,,,,,,,,,,,,,,,1.0154321193695068,1.0634791001211852,526.1920831999741,None,ScrollDown,정답입니다,526.1920831999741,None,526.1920831999741,None,526.1920831999741,None,526.1920831999741,None,527.1537879998796,None,527.1537879998796,527.6538627999835,,,,,,,,,,,,,,,,013,2022-05-11_18h00.10.030,FishGame,2022.1.1,59.98767850684779,
,23,넌 무정해,5,Orange,A,2.5,2.2,ScrollDown,ScrollUp,Orange.png,4,Negative,Incongruent,0,0,0,0,,,,,,,,,,,,,,,,,,,,,,,,,0,22,22,22,,,,,,,,,,,,,,,,,,,,,,,,,,,,,,,,,,,,,,,,,,,,,,,,,,,,,,,,,,,,,,,,,,,,,,,,,1.2037036965290706,1.182101899990812,528.2786973998882,None,ScrollDown,정답입니다,528.2786973998882,None,528.2786973998882,None,528.2786973998882,None,528.2786973998882,None,529.3537911998574,None,529.3537911998574,529.8559682997875,,,,,,,,,,,,,,,,013,2022-05-11_18h00.10.030,FishGame,2022.1.1,59.98767850684779,
,24,넌 긍정적이야,1,Green,B,6.041666666666667,6.066666666666666,ScrollUp,ScrollDown,Green.png,4,Positive,Incongruent,0,0,0,0,,,,,,,,,,,,,,,,,,,,,,,,,0,23,23,23,,,,,,,,,,,,,,,,,,,,,,,,,,,,,,,,,,,,,,,,,,,,,,,,,,,,,,,,,,,,,,,,,,,,,,,,,1.6358024651805558,0.9109631001483649,530.4856762997806,None,ScrollUp,정답입니다,530.4856762997806,None,530.4856762997806,None,530.4856762997806,None,530.4856762997806,None,531.2869986000005,None,531.2869986000005,531.7870791999158,,,,,,,,,,,,,,,,013,2022-05-11_18h00.10.030,FishGame,2022.1.1,59.98767850684779,
,25,나를 보내줘,6,Orange,A,0,0,ScrollUp,ScrollDown,Orange.png,4,NonTarget,NonTarget,0,0,0,0,,,,,,,,,,,,,,,,,,,,,,,,,0,24,24,24,,,,,,,,,,,,,,,,,,,,,,,,,,,,,,,,,,,,,,,,,,,,,,,,,,,,,,,,,,,,,,,,,,,,,,,,,1.589506171643734,0.9798315998632461,532.4144163997844,None,ScrollUp,정답입니다,532.4144163997844,None,532.4144163997844,None,532.4144163997844,None,532.4144163997844,None,533.2870121998712,None,533.2870121998712,533.7891964998562,,,,,,,,,,,,,,,,013,2022-05-11_18h00.10.030,FishGame,2022.1.1,59.98767850684779,
,26,넌 시기심이 많아,5,Green,B,2.458333333333333,2.233333333333333,ScrollUp,ScrollDown,Green.png,4,Negative,Congruent,0,0,0,0,,,,,,,,,,,,,,,,,,,,,,,,,0,25,25,25,,,,,,,,,,,,,,,,,,,,,,,,,,,,,,,,,,,,,,,,,,,,,,,,,,,,,,,,,,,,,,,,,,,,,,,,,1.5632716032365956,1.0924949999898672,534.4159462999087,None,ScrollUp,정답입니다,534.4159462999087,None,534.4159462999087,None,534.4159462999087,None,534.4159462999087,None,535.4035918998998,None,535.4035918998998,535.9036667000037,,,,,,,,,,,,,,,,013,2022-05-11_18h00.10.030,FishGame,2022.1.1,59.98767850684779,
,27,넌 탁월해,2,Orange,A,5.708333333333334,4.5,ScrollDown,ScrollUp,Orange.png,4,Positive,Congruent,0,0,0,0,,,,,,,,,,,,,,,,,,,,,,,,,0,26,26,26,,,,,,,,,,,,,,,,,,,,,,,,,,,,,,,,,,,,,,,,,,,,,,,,,,,,,,,,,,,,,,,,,,,,,,,,,1.266975318392118,0.9114910999778658,536.5329111998435,None,ScrollDown,정답입니다,536.5329111998435,None,536.5329111998435,None,536.5329111998435,None,536.5329111998435,None,537.3368669999763,None,537.3368669999763,537.8391648000106,,,,,,,,,,,,,,,,013,2022-05-11_18h00.10.030,FishGame,2022.1.1,59.98767850684779,
,28,나를 데려가줘,6,Green,B,0,0,ScrollDown,ScrollUp,Green.png,4,NonTarget,NonTarget,0,0,0,0,,,,,,,,,,,,,,,,,,,,,,,,,0,27,27,27,,,,,,,,,,,,,,,,,,,,,,,,,,,,,,,,,,,,,,,,,,,,,,,,,,,,,,,,,,,,,,,,,,,,,,,,,1.1496913582086563,1.0776637999806553,538.4620295998175,None,ScrollDown,정답입니다,538.4620295998175,None,538.4620295998175,None,538.4620295998175,None,538.4620295998175,None,539.4368782998063,None,539.4368782998063,539.939165199874,,,,,,,,,,,,,,,,013,2022-05-11_18h00.10.030,FishGame,2022.1.1,59.98767850684779,
,29,넌 조용해,3,Green,B,4.333333333333333,4.166666666666667,ScrollUp,ScrollDown,Green.png,4,Neutral,Neutral,0,0,0,0,,,,,,,,,,,,,,,,,,,,,,,,,0,28,28,28,,,,,,,,,,,,,,,,,,,,,,,,,,,,,,,,,,,,,,,,,,,,,,,,,,,,,,,,,,,,,,,,,,,,,,,,,1.609567902982235,1.1256762000266463,540.5647744999733,None,ScrollUp,정답입니다,540.5647744999733,None,540.5647744999733,None,540.5647744999733,None,540.5647744999733,None,541.5867598999757,None,541.5867598999757,542.0868618998211,,,,,,,,,,,,,,,,013,2022-05-11_18h00.10.030,FishGame,2022.1.1,59.98767850684779,
,30,넌 다정해,1,Orange,A,5.833333333333334,5.7,ScrollDown,ScrollUp,Orange.png,4,Positive,Congruent,0,0,0,0,,,,,,,,,,,,,,,,,,,,,,,,,0,29,29,29,,,,,,,,,,,,,,,,,,,,,,,,,,,,,,,,,,,,,,,,,,,,,,,,,,,,,,,,,,,,,,,,,,,,,,,,,1.2885802388191223,0.9112383001483977,542.7188376998529,None,ScrollDown,정답입니다,542.7188376998529,None,542.7188376998529,None,542.7188376998529,None,542.7188376998529,None,543.5201282999478,None,543.5201282999478,544.0223234998994,,,,,,,,,,,,,,,,013,2022-05-11_18h00.10.030,FishGame,2022.1.1,59.98767850684779,
,31,넌 능력있어,2,Green,B,6.166666666666666,4.6,ScrollUp,ScrollDown,Green.png,4,Positive,Incongruent,0,0,0,0,,,,,,,,,,,,,,,,,,,,,,,,,0,30,30,30,,,,,,,,,,,,,,,,,,,,,,,,,,,,,,,,,,,,,,,,,,,,,,,,,,,,,,,,,,,,,,,,,,,,,,,,,1.6404320945342383,0.8961483999155462,544.6434521998744,None,ScrollUp,정답입니다,544.6434521998744,None,544.6434521998744,None,544.6434521998744,None,544.6434521998744,None,545.4369543998037,None,545.4369543998037,545.9367756999563,,,,,,,,,,,,,,,,013,2022-05-11_18h00.10.030,FishGame,2022.1.1,59.98767850684779,
,32,넌 불쾌해,5,Orange,A,2.125,1.933333333333333,ScrollDown,ScrollUp,Orange.png,4,Negative,Incongruent,0,0,0,0,,,,,,,,,,,,,,,,,,,,,,,,,0,31,31,31,,,,,,,,,,,,,,,,,,,,,,,,,,,,,,,,,,,,,,,,,,,,,,,,,,,,,,,,,,,,,,,,,,,,,,,,,1.1496913582086563,1.3964122999459505,546.5667055998929,None,ScrollDown,정답입니다,546.5667055998929,None,546.5667055998929,None,546.5667055998929,None,546.5667055998929,None,547.8533957998734,None,547.8533957998734,548.3534417999908,,,,,,,,,,,,,,,,013,2022-05-11_18h00.10.030,FishGame,2022.1.1,59.98767850684779,
,33,나를 데려가줘,6,Green,B,0,0,ScrollDown,ScrollUp,Green.png,4,NonTarget,NonTarget,0,0,0,0,,,,,,,,,,,,,,,,,,,,,,,,,0,32,32,32,,,,,,,,,,,,,,,,,,,,,,,,,,,,,,,,,,,,,,,,,,,,,,,,,,,,,,,,,,,,,,,,,,,,,,,,,1.2191358109315236,1.059309700038284,548.9780744998716,None,ScrollDown,정답입니다,548.9780744998716,None,548.9780744998716,None,548.9780744998716,None,548.9780744998716,None,549.9366583998781,None,549.9366583998781,550.4389957999811,,,,,,,,,,,,,,,,013,2022-05-11_18h00.10.030,FishGame,2022.1.1,59.98767850684779,
,34,넌 유순해,3,Orange,A,4.458333333333333,5,ScrollDown,ScrollUp,Orange.png,4,Neutral,Neutral,0,0,0,0,,,,,,,,,,,,,,,,,,,,,,,,,0,33,33,33,,,,,,,,,,,,,,,,,,,,,,,,,,,,,,,,,,,,,,,,,,,,,,,,,,,,,,,,,,,,,,,,,,,,,,,,,1.253086417913437,0.9104243000037968,551.0639027999714,None,ScrollDown,정답입니다,551.0639027999714,None,551.0639027999714,None,551.0639027999714,None,551.0639027999714,None,551.8698696999345,None,551.8698696999345,552.3699699998833,,,,,,,,,,,,,,,,013,2022-05-11_18h00.10.030,FishGame,2022.1.1,59.98767850684779,
,35,넌 근심스러워,4,Green,B,2.708333333333333,3.133333333333333,ScrollUp,ScrollDown,Green.png,4,Negative,Congruent,0,0,0,0,,,,,,,,,,,,,,,,,,,,,,,,,0,34,34,34,,,,,,,,,,,,,,,,,,,,,,,,,,,,,,,,,,,,,,,,,,,,,,,,,,,,,,,,,,,,,,,,,,,,,,,,,1.6126543184121451,0.8960359999909997,552.9975335998461,None,ScrollUp,정답입니다,552.9975335998461,None,552.9975335998461,None,552.9975335998461,None,552.9975335998461,None,553.7865703999996,None,553.7865703999996,554.2865984998643,,,,,,,,,,,,,,,,013,2022-05-11_18h00.10.030,FishGame,2022.1.1,59.98767850684779,
,36,넌 세련되었어,2,Orange,A,5.5,4.6,ScrollDown,ScrollUp,Orange.png,4,Positive,Congruent,0,0,0,0,,,,,,,,,,,,,,,,,,,,,,,,,0,35,35,35,,,,,,,,,,,,,,,,,,,,,,,,,,,,,,,,,,,,,,,,,,,,,,,,,,,,,,,,,,,,,,,,,,,,,,,,,1.0972222338120143,0.7608521999791265,554.9233522999566,None,ScrollDown,정답입니다,554.9233522999566,None,554.9233522999566,None,554.9233522999566,None,554.9233522999566,None,555.5697892999742,None,555.5697892999742,556.0720257000066,,,,,,,,,,,,,,,,013,2022-05-11_18h00.10.030,FishGame,2022.1.1,59.98767850684779,
,37,나를 보내줘,6,Orange,A,0,0,ScrollUp,ScrollDown,Orange.png,4,NonTarget,NonTarget,0,0,0,0,,,,,,,,,,,,,,,,,,,,,,,,,0,36,36,36,,,,,,,,,,,,,,,,,,,,,,,,,,,,,,,,,,,,,,,,,,,,,,,,,,,,,,,,,,,,,,,,,,,,,,,,,1.68364197264115,0.8926949999295175,556.6997869999614,None,ScrollUp,정답입니다,556.6997869999614,None,556.6997869999614,None,556.6997869999614,None,556.6997869999614,None,557.4864692999981,None,557.4864692999981,557.988668799866,,,,,,,,,,,,,,,,013,2022-05-11_18h00.10.030,FishGame,2022.1.1,59.98767850684779,
,38,넌 확고해,3,Green,B,4.708333333333334,4.566666666666666,ScrollUp,ScrollDown,Green.png,4,Neutral,Neutral,0,0,0,0,,,,,,,,,,,,,,,,,,,,,,,,,0,37,37,37,,,,,,,,,,,,,,,,,,,,,,,,,,,,,,,,,,,,,,,,,,,,,,,,,,,,,,,,,,,,,,,,,,,,,,,,,1.702160490055879,0.8941526000853628,558.6133371999022,None,ScrollUp,정답입니다,558.6133371999022,None,558.6133371999022,None,558.6133371999022,None,558.6133371999022,None,559.403140499955,None,559.403140499955,559.9054713998921,,,,,,,,,,,,,,,,013,2022-05-11_18h00.10.030,FishGame,2022.1.1,59.98767850684779,
,39,넌 이해심이 많아,1,Green,B,6.041666666666668,5.533333333333333,ScrollUp,ScrollDown,Green.png,4,Positive,Incongruent,0,0,0,0,,,,,,,,,,,,,,,,,,,,,,,,,0,38,38,38,,,,,,,,,,,,,,,,,,,,,,,,,,,,,,,,,,,,,,,,,,,,,,,,,,,,,,,,,,,,,,,,,,,,,,,,,1.604938273628553,0.9277951000258327,560.5284070998896,None,ScrollUp,정답입니다,560.5284070998896,None,560.5284070998896,None,560.5284070998896,None,560.5284070998896,None,561.3530747999903,None,561.3530747999903,561.8531195998657,,,,,,,,,,,,,,,,013,2022-05-11_18h00.10.030,FishGame,2022.1.1,59.98767850684779,
,40,나를 보내줘,6,Orange,A,0,0,ScrollUp,ScrollDown,Orange.png,4,NonTarget,NonTarget,0,0,0,0,,,,,,,,,,,,,,,,,,,,,,,,,0,39,39,39,,,,,,,,,,,,,,,,,,,,,,,,,,,,,,,,,,,,,,,,,,,,,,,,,,,,,,,,,,,,,,,,,,,,,,,,,1.5802469129363694,0.9762148999143392,562.4784786999226,None,ScrollUp,정답입니다,562.4784786999226,None,562.4784786999226,None,562.4784786999226,None,562.4784786999226,None,563.3530540999491,None,563.3530540999491,563.8553453998175,,,,,,,,,,,,,,,,013,2022-05-11_18h00.10.030,FishGame,2022.1.1,59.98767850684779,
,41,넌 거칠어,4,Orange,A,2.625,3.033333333333333,ScrollDown,ScrollUp,Orange.png,4,Negative,Incongruent,0,0,0,0,,,,,,,,,,,,,,,,,,,,,,,,,0,40,40,40,,,,,,,,,,,,,,,,,,,,,,,,,,,,,,,,,,,,,,,,,,,,,,,,,,,,,,,,,,,,,,,,,,,,,,,,,1.28703702489535,0.8439730000682175,564.4873800999485,None,ScrollDown,정답입니다,564.4873800999485,None,564.4873800999485,None,564.4873800999485,None,564.4873800999485,None,565.2196924998425,None,565.2196924998425,565.72182779992,,,,,,,,,,,,,,,,013,2022-05-11_18h00.10.030,FishGame,2022.1.1,59.98767850684779,
,42,넌 변덕맞아,5,Green,B,2.75,2.166666666666667,ScrollUp,ScrollDown,Green.png,4,Negative,Congruent,0,0,0,0,,,,,,,,,,,,,,,,,,,,,,,,,0,41,41,41,,,,,,,,,,,,,,,,,,,,,,,,,,,,,,,,,,,,,,,,,,,,,,,,,,,,,,,,,,,,,,,,,,,,,,,,,1.5478395074605942,1.1631786001380533,566.3562456998043,None,NoResponse,무응답입니다,566.3562456998043,None,566.3562456998043,None,566.3562456998043,None,566.3562456998043,None,567.4028898999095,None,567.4028898999095,567.9030260997824,,,,,,,,,,,,,,,,013,2022-05-11_18h00.10.030,FishGame,2022.1.1,59.98767850684779,
,43,나를 데려가줘,6,Green,B,0,0,ScrollDown,ScrollUp,Green.png,4,NonTarget,NonTarget,0,0,0,0,,,,,,,,,,,,,,,,,,,,,,,,,0,42,42,42,,,,,,,,,,,,,,,,,,,,,,,,,,,,,,,,,,,,,,,,,,,,,,,,,,,,,,,,,,,,,,,,,,,,,,,,,1.0447530845801036,1.061067400034517,568.5307202998083,None,ScrollDown,정답입니다,568.5307202998083,None,568.5307202998083,None,568.5307202998083,None,568.5307202998083,None,569.4884469998069,None,569.4884469998069,569.9884805998299,,,,,,,,,,,,,,,,013,2022-05-11_18h00.10.030,FishGame,2022.1.1,59.98767850684779,
,44,넌 외로워,4,Green,B,2.833333333333333,3.3,ScrollUp,ScrollDown,Green.png,4,Negative,Congruent,0,0,0,0,,,,,,,,,,,,,,,,,,,,,,,,,0,43,43,43,,,,,,,,,,,,,,,,,,,,,,,,,,,,,,,,,,,,,,,,,,,,,,,,,,,,,,,,,,,,,,,,,,,,,,,,,1.8549382835626602,0.9291922999545932,570.611846699845,None,ScrollUp,정답입니다,570.611846699845,None,570.611846699845,None,570.611846699845,None,570.611846699845,None,571.4361423999071,None,571.4361423999071,571.9383564000018,,,,,,,,,,,,,,,,013,2022-05-11_18h00.10.030,FishGame,2022.1.1,59.98767850684779,
,1,넌 불평스러워,5,Orange,A,2.25,2.066666666666667,ScrollDown,ScrollUp,Orange.png,5,Negative,Incongruent,0,0,0,0,,,,,,,,,,,,,,,,,,,,,,,,,,,,,0,0,0,0,,,,,,,,,,,,,,,,,,,,,,,,,,,,604.1357267999556,605.6379724999424,605.6688631998841,606.6212168999482,606.668881499907,607.6211745999753,607.6211745999753,None,,,,,,,,,,,,,,,,,,,,,,,,,,,,,,,,,,1.1666666616996129,1.2118590001482517,608.713504999876,None,ScrollDown,정답입니다,608.713504999876,None,608.713504999876,None,608.713504999876,None,608.713504999876,None,609.8186961999163,None,609.8186961999163,610.3187500999775,572.436238899827,None,572.436238899827,None,0.08611111,-0.13981481,1,0,0,0.016081959940493107,None,602.4379500998184,None,,,013,2022-05-11_18h00.10.030,FishGame,2022.1.1,59.98767850684779,
,2,나를 보내줘,6,Orange,A,0,0,ScrollUp,ScrollDown,Orange.png,5,NonTarget,NonTarget,0,0,0,0,,,,,,,,,,,,,,,,,,,,,,,,,,,,,0,1,1,1,,,,,,,,,,,,,,,,,,,,,,,,,,,,,,,,,,,,,,,,,,,,,,,,,,,,,,,,,,,,,,,,,,,,,1.7839506169160206,1.110068399924785,610.9442347998265,None,ScrollUp,정답입니다,610.9442347998265,None,610.9442347998265,None,610.9442347998265,None,610.9442347998265,None,611.9519999998156,None,611.9519999998156,612.4520941998344,,,,,,,,,,,,,,,,013,2022-05-11_18h00.10.030,FishGame,2022.1.1,59.98767850684779,
,3,넌 다재다능해,2,Green,B,6.208333333333333,4.5,ScrollUp,ScrollDown,Green.png,5,Positive,Incongruent,0,0,0,0,,,,,,,,,,,,,,,,,,,,,,,,,,,,,0,2,2,2,,,,,,,,,,,,,,,,,,,,,,,,,,,,,,,,,,,,,,,,,,,,,,,,,,,,,,,,,,,,,,,,,,,,,1.6944444452722869,0.8630506999325007,613.0747030999046,None,ScrollUp,정답입니다,613.0747030999046,None,613.0747030999046,None,613.0747030999046,None,613.0747030999046,None,613.835330999922,None,613.835330999922,614.3376732999459,,,,,,,,,,,,,,,,013,2022-05-11_18h00.10.030,FishGame,2022.1.1,59.98767850684779,
,4,넌 과감해,3,Orange,A,4.833333333333334,4.6,ScrollDown,ScrollUp,Orange.png,5,Neutral,Neutral,0,0,0,0,,,,,,,,,,,,,,,,,,,,,,,,,,,,,0,3,3,3,,,,,,,,,,,,,,,,,,,,,,,,,,,,,,,,,,,,,,,,,,,,,,,,,,,,,,,,,,,,,,,,,,,,,1.1466049303611119,0.8274674999993294,614.9684448998887,None,ScrollDown,정답입니다,614.9684448998887,None,614.9684448998887,None,614.9684448998887,None,614.9684448998887,None,615.6853737998754,None,615.6853737998754,616.1875531999394,,,,,,,,,,,,,,,,013,2022-05-11_18h00.10.030,FishGame,2022.1.1,59.98767850684779,
,5,넌 고분고분해,3,Green,B,3.75,4.033333333333333,ScrollUp,ScrollDown,Green.png,5,Neutral,Neutral,0,0,0,0,,,,,,,,,,,,,,,,,,,,,,,,,,,,,0,4,4,4,,,,,,,,,,,,,,,,,,,,,,,,,,,,,,,,,,,,,,,,,,,,,,,,,,,,,,,,,,,,,,,,,,,,,1.7700617164373398,0.876899299910292,616.8119095999282,None,ScrollUp,정답입니다,616.8119095999282,None,616.8119095999282,None,616.8119095999282,None,616.8119095999282,None,617.585207299795,None,617.585207299795,618.0874074997846,,,,,,,,,,,,,,,,013,2022-05-11_18h00.10.030,FishGame,2022.1.1,59.98767850684779,
,6,나를 보내줘,6,Orange,A,0,0,ScrollUp,ScrollDown,Orange.png,5,NonTarget,NonTarget,0,0,0,0,,,,,,,,,,,,,,,,,,,,,,,,,,,,,0,5,5,5,,,,,,,,,,,,,,,,,,,,,,,,,,,,,,,,,,,,,,,,,,,,,,,,,,,,,,,,,,,,,,,,,,,,,1.765432099501292,0.9424536998849362,618.7159202999901,None,ScrollUp,정답입니다,618.7159202999901,None,618.7159202999901,None,618.7159202999901,None,618.7159202999901,None,619.5518436999992,None,619.5518436999992,620.0519404998049,,,,,,,,,,,,,,,,013,2022-05-11_18h00.10.030,FishGame,2022.1.1,59.98767850684779,
,7,넌 잘 잊어,4,Orange,A,3,3.7,ScrollDown,ScrollUp,Orange.png,5,Negative,Incongruent,0,0,0,0,,,,,,,,,,,,,,,,,,,,,,,,,,,,,0,6,6,6,,,,,,,,,,,,,,,,,,,,,,,,,,,,,,,,,,,,,,,,,,,,,,,,,,,,,,,,,,,,,,,,,,,,,1.1959876517454784,0.8964881000574678,620.6820590998977,None,ScrollDown,정답입니다,620.6820590998977,None,620.6820590998977,None,620.6820590998977,None,620.6820590998977,None,621.4685068000108,None,621.4685068000108,621.9707145998254,,,,,,,,,,,,,,,,013,2022-05-11_18h00.10.030,FishGame,2022.1.1,59.98767850684779,
,8,넌 탐구심이없어,4,Green,B,2.833333333333333,3.066666666666667,ScrollUp,ScrollDown,Green.png,5,Negative,Congruent,0,0,0,0,,,,,,,,,,,,,,,,,,,,,,,,,,,,,0,7,7,7,,,,,,,,,,,,,,,,,,,,,,,,,,,,,,,,,,,,,,,,,,,,,,,,,,,,,,,,,,,,,,,,,,,,,1.663580241302649,0.827561300015077,622.6049255998805,None,ScrollUp,정답입니다,622.6049255998805,None,622.6049255998805,None,622.6049255998805,None,622.6049255998805,None,623.3185115999077,None,623.3185115999077,623.8184936000034,,,,,,,,,,,,,,,,013,2022-05-11_18h00.10.030,FishGame,2022.1.1,59.98767850684779,
,9,나를 데려가줘,6,Green,B,0,0,ScrollDown,ScrollUp,Green.png,5,NonTarget,NonTarget,0,0,0,0,,,,,,,,,,,,,,,,,,,,,,,,,,,,,0,8,8,8,,,,,,,,,,,,,,,,,,,,,,,,,,,,,,,,,,,,,,,,,,,,,,,,,,,,,,,,,,,,,,,,,,,,,1.1141975373029709,0.977899800054729,624.4429014998022,None,ScrollDown,정답입니다,624.4429014998022,None,624.4429014998022,None,624.4429014998022,None,624.4429014998022,None,625.318404499907,None,625.318404499907,625.8206283999607,,,,,,,,,,,,,,,,013,2022-05-11_18h00.10.030,FishGame,2022.1.1,59.98767850684779,
,10,넌 참되어,2,Orange,A,6.041666666666664,4.733333333333333,ScrollDown,ScrollUp,Orange.png,5,Positive,Congruent,0,0,0,0,,,,,,,,,,,,,,,,,,,,,,,,,,,,,0,9,9,9,,,,,,,,,,,,,,,,,,,,,,,,,,,,,,,,,,,,,,,,,,,,,,,,,,,,,,,,,,,,,,,,,,,,,1.1836419651905696,0.8425914000254124,626.4515930998605,None,ScrollDown,정답입니다,626.4515930998605,None,626.4515930998605,None,626.4515930998605,None,626.4515930998605,None,627.184978999896,None,627.184978999896,627.6850304999389,,,,,,,,,,,,,,,,013,2022-05-11_18h00.10.030,FishGame,2022.1.1,59.98767850684779,
,11,넌 생기있어,1,Green,B,5.875,5.633333333333334,ScrollUp,ScrollDown,Green.png,5,Positive,Incongruent,0,0,0,0,,,,,,,,,,,,,,,,,,,,,,,,,,,,,0,10,10,10,,,,,,,,,,,,,,,,,,,,,,,,,,,,,,,,,,,,,,,,,,,,,,,,,,,,,,,,,,,,,,,,,,,,,1.7407407512267432,0.8109118998982012,628.3130208998919,None,ScrollUp,정답입니다,628.3130208998919,None,628.3130208998919,None,628.3130208998919,None,628.3130208998919,None,629.0204797999468,None,629.0204797999468,629.5205655999016,,,,,,,,,,,,,,,,013,2022-05-11_18h00.10.030,FishGame,2022.1.1,59.98767850684779,
,12,넌 비사교적이야,4,Green,B,2.875,2.9,ScrollUp,ScrollDown,Green.png,5,Negative,Congruent,0,0,0,0,,,,,,,,,,,,,,,,,,,,,,,,,,,,,0,11,11,11,,,,,,,,,,,,,,,,,,,,,,,,,,,,,,,,,,,,,,,,,,,,,,,,,,,,,,,,,,,,,,,,,,,,,1.5524691368142762,0.7927872000727803,630.1430071999785,None,ScrollUp,정답입니다,630.1430071999785,None,630.1430071999785,None,630.1430071999785,None,630.1430071999785,None,630.8350725998171,None,630.8350725998171,631.3371093999594,,,,,,,,,,,,,,,,013,2022-05-11_18h00.10.030,FishGame,2022.1.1,59.98767850684779,
,13,나를 데려가줘,6,Green,B,0,0,ScrollDown,ScrollUp,Green.png,5,NonTarget,NonTarget,0,0,0,0,,,,,,,,,,,,,,,,,,,,,,,,,,,,,0,12,12,12,,,,,,,,,,,,,,,,,,,,,,,,,,,,,,,,,,,,,,,,,,,,,,,,,,,,,,,,,,,,,,,,,,,,,1.2175925970077515,0.9778985001612455,631.957510799868,None,ScrollDown,정답입니다,631.957510799868,None,631.957510799868,None,631.957510799868,None,631.957510799868,None,632.8348689998966,None,632.8348689998966,633.3349831998348,,,,,,,,,,,,,,,,013,2022-05-11_18h00.10.030,FishGame,2022.1.1,59.98767850684779,
,14,넌 고독해,4,Orange,A,2.916666666666667,3.233333333333333,ScrollDown,ScrollUp,Orange.png,5,Negative,Incongruent,0,0,0,0,,,,,,,,,,,,,,,,,,,,,,,,,,,,,0,13,13,13,,,,,,,,,,,,,,,,,,,,,,,,,,,,,,,,,,,,,,,,,,,,,,,,,,,,,,,,,,,,,,,,,,,,,1.194444437821706,0.8606887001078576,633.9649532998446,None,ScrollDown,정답입니다,633.9649532998446,None,633.9649532998446,None,633.9649532998446,None,633.9649532998446,None,634.7182672999334,None,634.7182672999334,635.2204956999049,,,,,,,,,,,,,,,,013,2022-05-11_18h00.10.030,FishGame,2022.1.1,59.98767850684779,
,15,넌 신경질적이야,5,Green,B,2.375,2.233333333333333,ScrollUp,ScrollDown,Green.png,5,Negative,Congruent,0,0,0,0,,,,,,,,,,,,,,,,,,,,,,,,,,,,,0,14,14,14,,,,,,,,,,,,,,,,,,,,,,,,,,,,,,,,,,,,,,,,,,,,,,,,,,,,,,,,,,,,,,,,,,,,,1.6466049378116927,1.0111089998390526,635.8596522998996,None,ScrollUp,정답입니다,635.8596522998996,None,635.8596522998996,None,635.8596522998996,None,635.8596522998996,None,636.7512819999829,None,636.7512819999829,637.251370599959,,,,,,,,,,,,,,,,013,2022-05-11_18h00.10.030,FishGame,2022.1.1,59.98767850684779,
,16,넌 똑똑해,2,Green,B,5.666666666666667,3.966666666666667,ScrollUp,ScrollDown,Green.png,5,Positive,Incongruent,0,0,0,0,,,,,,,,,,,,,,,,,,,,,,,,,,,,,0,15,15,15,,,,,,,,,,,,,,,,,,,,,,,,,,,,,,,,,,,,,,,,,,,,,,,,,,,,,,,,,,,,,,,,,,,,,1.5663580248753228,0.8783126000780612,637.8802456997801,None,ScrollUp,정답입니다,637.8802456997801,None,637.8802456997801,None,637.8802456997801,None,637.8802456997801,None,638.6516026000027,None,638.6516026000027,639.1539071998559,,,,,,,,,,,,,,,,013,2022-05-11_18h00.10.030,FishGame,2022.1.1,59.98767850684779,
,17,나를 보내줘,6,Orange,A,0,0,ScrollUp,ScrollDown,Orange.png,5,NonTarget,NonTarget,0,0,0,0,,,,,,,,,,,,,,,,,,,,,,,,,,,,,0,16,16,16,,,,,,,,,,,,,,,,,,,,,,,,,,,,,,,,,,,,,,,,,,,,,,,,,,,,,,,,,,,,,,,,,,,,,1.6620370397965112,1.0317441001534462,639.7771451999433,None,ScrollUp,정답입니다,639.7771451999433,None,639.7771451999433,None,639.7771451999433,None,639.7771451999433,None,640.7037711997982,None,640.7037711997982,641.2068681998644,,,,,,,,,,,,,,,,013,2022-05-11_18h00.10.030,FishGame,2022.1.1,59.98767850684779,
