name,TrialNum,Word,WordCategory,FishType,WordList,WordValence,WordReputation,CorrectResp,IncorrectResp,FishTypeFile,Round,WordType,Condition,LoopforOrange.thisRepN,LoopforOrange.thisTrialN,LoopforOrange.thisN,LoopforOrange.thisIndex,LoopForGreen.thisRepN,LoopForGreen.thisTrialN,LoopForGreen.thisN,LoopForGreen.thisIndex,GreenInstLoop.thisRepN,GreenInstLoop.thisTrialN,GreenInstLoop.thisN,GreenInstLoop.thisIndex,GreenPrac.thisRepN,GreenPrac.thisTrialN,GreenPrac.thisN,GreenPrac.thisIndex,trials_2.thisRepN,trials_2.thisTrialN,trials_2.thisN,trials_2.thisIndex,GreenRound1.thisRepN,GreenRound1.thisTrialN,GreenRound1.thisN,GreenRound1.thisIndex,GreenRound2.thisRepN,GreenRound2.thisTrialN,GreenRound2.thisN,GreenRound2.thisIndex,GreenRound3.thisRepN,GreenRound3.thisTrialN,GreenRound3.thisN,GreenRound3.thisIndex,GreenRound4.thisRepN,GreenRound4.thisTrialN,GreenRound4.thisN,GreenRound4.thisIndex,GreenRound5.thisRepN,GreenRound5.thisTrialN,GreenRound5.thisN,GreenRound5.thisIndex,text_2.started,text_2.stopped,text_3.started,text_3.stopped,key_resp.keys,key_resp.rt,key_resp.started,key_resp.stopped,PassI.started,PassI.stopped,PassInst.keys,PassInst.rt,PassInst.started,PassInst.stopped,mouse_2.x,mouse_2.y,mouse_2.leftButton,mouse_2.midButton,mouse_2.rightButton,mouse_2.started,mouse_2.stopped,image.started,image.stopped,text_5.started,text_5.stopped,text_6.started,text_6.stopped,text_7.started,text_7.stopped,text_8.started,text_8.stopped,slider_3.response,slider_3.rt,slider_3.started,slider_3.stopped,Response_3,Feedback_3,BackGround_3.started,BackGround_3.stopped,Fish_3.started,Fish_3.stopped,WordBox_3.started,WordBox_3.stopped,Words_3.started,Words_3.stopped,BackGround_Feedback_3.started,BackGround_Feedback_3.stopped,Feedbacks_3.started,Feedbacks_3.stopped,Continue_or_not_2.keys,Continue_or_not_2.rt,Continue_or_not_2.started,Continue_or_not_2.stopped,image_4.started,image_4.stopped,mouse_3.x,mouse_3.y,mouse_3.leftButton,mouse_3.midButton,mouse_3.rightButton,mouse_3.started,mouse_3.stopped,startmain.started,startmain.stopped,slider_4.response,slider_4.rt,slider_4.started,slider_4.stopped,Response_4,Feedback_4,BackGround_4.started,BackGround_4.stopped,Fish_4.started,Fish_4.stopped,WordBox_4.started,WordBox_4.stopped,Words_4.started,Words_4.stopped,BackGround_Feedback_4.started,BackGround_Feedback_4.stopped,Feedbacks_4.started,Feedbacks_4.stopped,text.started,text.stopped,break_interval.started,break_interval.stopped,mouse.x,mouse.y,mouse.leftButton,mouse.midButton,mouse.rightButton,mouse.started,mouse.stopped,stratnextround.started,stratnextround.stopped,endgame.started,endgame.stopped,participant,date,expName,psychopyVersion,frameRate,
,,,,,,,,,,,,,,,,,,,,,,,,,,,,,,,,,,,,,,,,,,,,,,,,,,,,,,17.919136699987575,None,17.919136699987575,None,space,5.612768300110474,18.403271100018173,None,,,,,,,,,,,,,,,,,,,,,,,,,,,,,,,,,,,,,,,,,,,,,,,,,,,,,,,,,,,,,,,,,,,,,,,,,,,,,,,,,,,,,,,,,,014,2022-05-11_19h55.10.698,FishGame,2022.1.1,58.95673698773692,
물고기과제_instruction(참가자용)GreenVersion.mp4,,,,,,,,,,,,,,,,,,0,0,0,0,0,0,0,0,,,,,,,,,,,,,,,,,,,,,,,,,,,,,,,,,,,,,102.91820090007968,None,n,1.769589199917391,102.91820090007968,None,,,,,,,,,,,,,,,,,,,,,,,,,,,,,,,,,,,,,,,,,,,,,,,,,,,,,,,,,,,,,,,,,,,,,,,,,,,,,,,,,,,,014,2022-05-11_19h55.10.698,FishGame,2022.1.1,58.95673698773692,
,1,넌 교활해,5,Orange,B,2.333333333333333,2.133333333333333,ScrollUp,ScrollDown,Orange.png,practice,,,,,,,0,0,0,0,,,,,0,0,0,0,0,0,0,0,,,,,,,,,,,,,,,,,,,,,,,,,,,,,,,,,,,-0.05,-0.23148148,1,0,0,0.5129980898927897,None,104.71243469999172,None,107.29617909993976,108.79591800016351,108.82927630003542,109.77928360016085,109.83156940015033,110.7846665000543,110.7846665000543,None,1.9367283980051677,1.8364148000255227,112.07492840010673,None,ScrollUp,정답입니다,112.07492840010673,None,112.07492840010673,None,112.07492840010673,None,112.07492840010673,None,113.6124971001409,None,113.6124971001409,114.11253500008024,,,,,,,,,,,,,,,,,,,,,,,,,,,,,,,,,,,,,,,,,,,,,,,,,014,2022-05-11_19h55.10.698,FishGame,2022.1.1,58.95673698773692,
,2,넌 슬기로워,2,Green,A,6.166666666666667,4.1,ScrollDown,ScrollUp,Green.png,practice,,,,,,,0,0,0,0,,,,,0,0,0,0,0,1,1,1,,,,,,,,,,,,,,,,,,,,,,,,,,,,,,,,,,,,,,,,,,,,,,,,,,,,1.0216049253940582,1.2293609001208097,114.74725270015188,None,ScrollDown,정답입니다,114.74725270015188,None,114.74725270015188,None,114.74725270015188,None,114.74725270015188,None,115.86235460010357,None,115.86235460010357,116.36246390012093,,,,,,,,,,,,,,,,,,,,,,,,,,,,,,,,,,,,,,,,,,,,,,,,,014,2022-05-11_19h55.10.698,FishGame,2022.1.1,58.95673698773692,
,3,나를 보내줘,6,Green,A,0,0,ScrollUp,ScrollDown,Green.png,practice,,,,,,,0,0,0,0,,,,,0,0,0,0,0,2,2,2,,,,,,,,,,,,,,,,,,,,,,,,,,,,,,,,,,,,,,,,,,,,,,,,,,,,1.6404320945342383,1.2260956999380141,116.99478500010446,None,ScrollUp,정답입니다,116.99478500010446,None,116.99478500010446,None,116.99478500010446,None,116.99478500010446,None,118.11238229996525,None,118.11238229996525,118.6146154999733,,,,,,,,,,,,,,,,,,,,,,,,,,,,,,,,,,,,,,,,,,,,,,,,,014,2022-05-11_19h55.10.698,FishGame,2022.1.1,58.95673698773692,
,4,나를 데려가줘,6,Orange,B,0,0,ScrollDown,ScrollUp,Orange.png,practice,,,,,,,0,0,0,0,,,,,0,0,0,0,0,3,3,3,,,,,,,,,,,,,,,,,,,,,,,,,,,,,,,,,,,,,,,,,,,,,,,,,,,,1.0354938507080078,1.52576919994317,119.24355080001988,None,ScrollDown,정답입니다,119.24355080001988,None,119.24355080001988,None,119.24355080001988,None,119.24355080001988,None,120.66236259997822,None,120.66236259997822,121.16232830006629,,,,,,,,,,,,,,,,,,,,,,,,,,,,,,,,,,,,,,,,,,,,,,,,,014,2022-05-11_19h55.10.698,FishGame,2022.1.1,58.95673698773692,
,1,넌 교활해,5,Orange,B,2.333333333333333,2.133333333333333,ScrollUp,ScrollDown,Orange.png,practice,,,,,,,0,0,0,0,,,,,0,0,0,0,,,,,,,,,,,,,,,,,,,,,,,,,,,,,,,,,,,,,,,,,,,,,,,,,,,,,,,,,,,,,,,,,,,,,,,,,,n,6.5928584998473525,121.66234389995225,None,121.66234389995225,None,,,,,,,,,,,,,,,,,,,,,,,,,,,,,,,,,,,,,,,,,,,014,2022-05-11_19h55.10.698,FishGame,2022.1.1,58.95673698773692,
,1,넌 따뜻해,1,Orange,B,6.083333333333333,5.6,ScrollUp,ScrollDown,Orange.png,1,Positive,Incongruent,,,,,0,0,0,0,,,,,,,,,,,,,0,0,0,0,,,,,,,,,,,,,,,,,,,,,,,,,,,,,,,,,,,,,,,,130.71202059998177,132.21800560015254,132.2512829999905,133.21212050016038,133.24773619999178,134.20075760013424,134.20075760013424,None,,,,,,,,,,,,,,,,,,,,,,,,,-0.047222223,-0.13703704,1,0,0,0.31361819012090564,None,128.28110560006462,None,1.6450617238879204,1.8409361001104116,135.50923430011608,None,ScrollUp,정답입니다,135.50923430011608,None,135.50923430011608,None,135.50923430011608,None,135.50923430011608,None,137.04532380006276,None,137.04532380006276,137.54762409999967,,,,,,,,,,,,,,,,014,2022-05-11_19h55.10.698,FishGame,2022.1.1,58.95673698773692,
,2,넌 기품있어,2,Orange,B,5.791666666666668,4.5,ScrollUp,ScrollDown,Orange.png,1,Positive,Incongruent,,,,,0,0,0,0,,,,,,,,,,,,,0,1,1,1,,,,,,,,,,,,,,,,,,,,,,,,,,,,,,,,,,,,,,,,,,,,,,,,,,,,,,,,,,,,,,,,,,,,,,,,,,,,,,,,,1.9104938358068466,1.0723497001454234,138.18740370008163,None,ScrollUp,정답입니다,138.18740370008163,None,138.18740370008163,None,138.18740370008163,None,138.18740370008163,None,139.14497609995306,None,139.14497609995306,139.64500640006736,,,,,,,,,,,,,,,,014,2022-05-11_19h55.10.698,FishGame,2022.1.1,58.95673698773692,
,3,나를 보내줘,6,Green,A,0,0,ScrollUp,ScrollDown,Green.png,1,NonTarget,NonTarget,,,,,0,0,0,0,,,,,,,,,,,,,0,2,2,2,,,,,,,,,,,,,,,,,,,,,,,,,,,,,,,,,,,,,,,,,,,,,,,,,,,,,,,,,,,,,,,,,,,,,,,,,,,,,,,,,1.8811728457609813,1.1283811999019235,140.28213499998674,None,ScrollUp,정답입니다,140.28213499998674,None,140.28213499998674,None,140.28213499998674,None,140.28213499998674,None,141.2953139001038,None,141.2953139001038,141.7976353999693,,,,,,,,,,,,,,,,014,2022-05-11_19h55.10.698,FishGame,2022.1.1,58.95673698773692,
,4,넌 수동적이야,4,Green,A,2.833333333333333,2.933333333333333,ScrollDown,ScrollUp,Green.png,1,Negative,Incongruent,,,,,0,0,0,0,,,,,,,,,,,,,0,3,3,3,,,,,,,,,,,,,,,,,,,,,,,,,,,,,,,,,,,,,,,,,,,,,,,,,,,,,,,,,,,,,,,,,,,,,,,,,,,,,,,,,1.1172839403152466,1.4459872001316398,142.42460270016454,None,ScrollDown,정답입니다,142.42460270016454,None,142.42460270016454,None,142.42460270016454,None,142.42460270016454,None,143.76407250016928,None,143.76407250016928,144.2785412000958,,,,,,,,,,,,,,,,014,2022-05-11_19h55.10.698,FishGame,2022.1.1,58.95673698773692,
,5,넌 사심이 없어,3,Orange,B,4.916666666666666,4.333333333333333,ScrollUp,ScrollDown,Orange.png,1,Neutral,Neutral,,,,,0,0,0,0,,,,,,,,,,,,,0,4,4,4,,,,,,,,,,,,,,,,,,,,,,,,,,,,,,,,,,,,,,,,,,,,,,,,,,,,,,,,,,,,,,,,,,,,,,,,,,,,,,,,,1.787037044763565,1.4425033000297844,144.89838559995405,None,ScrollUp,정답입니다,144.89838559995405,None,144.89838559995405,None,144.89838559995405,None,144.89838559995405,None,146.22845049994066,None,146.22845049994066,146.7307315999642,,,,,,,,,,,,,,,,014,2022-05-11_19h55.10.698,FishGame,2022.1.1,58.95673698773692,
,6,넌 헤퍼,5,Green,A,2.458333333333334,2.233333333333333,ScrollDown,ScrollUp,Green.png,1,Negative,Incongruent,,,,,0,0,0,0,,,,,,,,,,,,,0,5,5,5,,,,,,,,,,,,,,,,,,,,,,,,,,,,,,,,,,,,,,,,,,,,,,,,,,,,,,,,,,,,,,,,,,,,,,,,,,,,,,,,,1.0293209950129192,1.3424477998632938,147.36329949996434,None,ScrollDown,정답입니다,147.36329949996434,None,147.36329949996434,None,147.36329949996434,None,147.36329949996434,None,148.59502020012587,None,148.59502020012587,149.09506630012766,,,,,,,,,,,,,,,,014,2022-05-11_19h55.10.698,FishGame,2022.1.1,58.95673698773692,
,7,넌 말쑥해,3,Green,A,4.833333333333334,4.333333333333333,ScrollDown,ScrollUp,Green.png,1,Neutral,Neutral,,,,,0,0,0,0,,,,,,,,,,,,,0,6,6,6,,,,,,,,,,,,,,,,,,,,,,,,,,,,,,,,,,,,,,,,,,,,,,,,,,,,,,,,,,,,,,,,,,,,,,,,,,,,,,,,,1.0740740497907002,1.009032600093633,149.7264298000373,None,ScrollDown,정답입니다,149.7264298000373,None,149.7264298000373,None,149.7264298000373,None,149.7264298000373,None,150.62835460016504,None,150.62835460016504,151.12824090011418,,,,,,,,,,,,,,,,014,2022-05-11_19h55.10.698,FishGame,2022.1.1,58.95673698773692,
,8,넌 투덜거려,5,Orange,B,2.541666666666667,2.266666666666667,ScrollUp,ScrollDown,Orange.png,1,Negative,Congruent,,,,,0,0,0,0,,,,,,,,,,,,,0,7,7,7,,,,,,,,,,,,,,,,,,,,,,,,,,,,,,,,,,,,,,,,,,,,,,,,,,,,,,,,,,,,,,,,,,,,,,,,,,,,,,,,,2,1.0448742001317441,151.7713228999637,None,ScrollUp,정답입니다,151.7713228999637,None,151.7713228999637,None,151.7713228999637,None,151.7713228999637,None,152.69492239993997,None,152.69492239993997,153.1949982000515,,,,,,,,,,,,,,,,014,2022-05-11_19h55.10.698,FishGame,2022.1.1,58.95673698773692,
,9,넌 적극적이야,1,Green,A,5.708333333333333,5.533333333333333,ScrollDown,ScrollUp,Green.png,1,Positive,Congruent,,,,,0,0,0,0,,,,,,,,,,,,,0,8,8,8,,,,,,,,,,,,,,,,,,,,,,,,,,,,,,,,,,,,,,,,,,,,,,,,,,,,,,,,,,,,,,,,,,,,,,,,,,,,,,,,,1,1.2533684999216348,153.82379850000143,None,ScrollDown,정답입니다,153.82379850000143,None,153.82379850000143,None,153.82379850000143,None,153.82379850000143,None,154.96373439999297,None,154.96373439999297,155.46382940001786,,,,,,,,,,,,,,,,014,2022-05-11_19h55.10.698,FishGame,2022.1.1,58.95673698773692,
,10,넌 재미없어,4,Orange,B,2.625,2.966666666666667,ScrollUp,ScrollDown,Orange.png,1,Negative,Congruent,,,,,0,0,0,0,,,,,,,,,,,,,0,9,9,9,,,,,,,,,,,,,,,,,,,,,,,,,,,,,,,,,,,,,,,,,,,,,,,,,,,,,,,,,,,,,,,,,,,,,,,,,,,,,,,,,1.6712962985038757,1.3759512000251561,156.09358490002342,None,ScrollUp,정답입니다,156.09358490002342,None,156.09358490002342,None,156.09358490002342,None,156.09358490002342,None,157.36148950015195,None,157.36148950015195,157.8616162999533,,,,,,,,,,,,,,,,014,2022-05-11_19h55.10.698,FishGame,2022.1.1,58.95673698773692,
,11,넌 명석해,2,Green,A,5.875,4.033333333333333,ScrollDown,ScrollUp,Green.png,1,Positive,Congruent,,,,,0,0,0,0,,,,,,,,,,,,,0,10,10,10,,,,,,,,,,,,,,,,,,,,,,,,,,,,,,,,,,,,,,,,,,,,,,,,,,,,,,,,,,,,,,,,,,,,,,,,,,,,,,,,,1,1.0950233000330627,158.48900249996223,None,ScrollDown,정답입니다,158.48900249996223,None,158.48900249996223,None,158.48900249996223,None,158.48900249996223,None,159.47815040010028,None,159.47815040010028,159.98033299995586,,,,,,,,,,,,,,,,014,2022-05-11_19h55.10.698,FishGame,2022.1.1,58.95673698773692,
,12,나를 데려가줘,6,Orange,B,0,0,ScrollDown,ScrollUp,Orange.png,1,NonTarget,NonTarget,,,,,0,0,0,0,,,,,,,,,,,,,0,11,11,11,,,,,,,,,,,,,,,,,,,,,,,,,,,,,,,,,,,,,,,,,,,,,,,,,,,,,,,,,,,,,,,,,,,,,,,,,,,,,,,,,1.0555555323759716,1.5112159999553114,160.6065915999934,None,ScrollDown,정답입니다,160.6065915999934,None,160.6065915999934,None,160.6065915999934,None,160.6065915999934,None,162.01144669996575,None,162.01144669996575,162.51369710010476,,,,,,,,,,,,,,,,014,2022-05-11_19h55.10.698,FishGame,2022.1.1,58.95673698773692,
,13,넌 소심해,4,Green,A,3,3.1,ScrollDown,ScrollUp,Green.png,1,Negative,Incongruent,,,,,0,0,0,0,,,,,,,,,,,,,0,12,12,12,,,,,,,,,,,,,,,,,,,,,,,,,,,,,,,,,,,,,,,,,,,,,,,,,,,,,,,,,,,,,,,,,,,,,,,,,,,,,,,,,1,1.1114373998716474,163.13743779994547,None,ScrollDown,정답입니다,163.13743779994547,None,163.13743779994547,None,163.13743779994547,None,163.13743779994547,None,164.14468090003356,None,164.14468090003356,164.64480440015905,,,,,,,,,,,,,,,,014,2022-05-11_19h55.10.698,FishGame,2022.1.1,58.95673698773692,
,14,넌 합리적이야,2,Green,A,5.583333333333333,4.733333333333333,ScrollDown,ScrollUp,Green.png,1,Positive,Congruent,,,,,0,0,0,0,,,,,,,,,,,,,0,13,13,13,,,,,,,,,,,,,,,,,,,,,,,,,,,,,,,,,,,,,,,,,,,,,,,,,,,,,,,,,,,,,,,,,,,,,,,,,,,,,,,,,1,1.1772618999239057,165.2800714999903,None,ScrollDown,정답입니다,165.2800714999903,None,165.2800714999903,None,165.2800714999903,None,165.2800714999903,None,166.3447120001074,None,166.3447120001074,166.84694469999522,,,,,,,,,,,,,,,,014,2022-05-11_19h55.10.698,FishGame,2022.1.1,58.95673698773692,
,15,넌 무자비해,5,Orange,B,2.333333333333333,2.1,ScrollUp,ScrollDown,Orange.png,1,Negative,Congruent,,,,,0,0,0,0,,,,,,,,,,,,,0,14,14,14,,,,,,,,,,,,,,,,,,,,,,,,,,,,,,,,,,,,,,,,,,,,,,,,,,,,,,,,,,,,,,,,,,,,,,,,,,,,,,,,,1.9675925771395366,1.109025500016287,167.48275530012324,None,ScrollUp,정답입니다,167.48275530012324,None,167.48275530012324,None,167.48275530012324,None,167.48275530012324,None,168.47792760003358,None,168.47792760003358,168.9801209999714,,,,,,,,,,,,,,,,014,2022-05-11_19h55.10.698,FishGame,2022.1.1,58.95673698773692,
,16,나를 보내줘,6,Green,A,0,0,ScrollUp,ScrollDown,Green.png,1,NonTarget,NonTarget,,,,,0,0,0,0,,,,,,,,,,,,,0,15,15,15,,,,,,,,,,,,,,,,,,,,,,,,,,,,,,,,,,,,,,,,,,,,,,,,,,,,,,,,,,,,,,,,,,,,,,,,,,,,,,,,,1.8719135870536168,1.3278296999633312,169.6010427000001,None,ScrollUp,정답입니다,169.6010427000001,None,169.6010427000001,None,169.6010427000001,None,169.6010427000001,None,170.82798309996724,None,170.82798309996724,171.32798049994744,,,,,,,,,,,,,,,,014,2022-05-11_19h55.10.698,FishGame,2022.1.1,58.95673698773692,
,17,넌 현실적이야,3,Orange,B,4.608695652173913,4.766666666666667,ScrollUp,ScrollDown,Orange.png,1,Neutral,Neutral,,,,,0,0,0,0,,,,,,,,,,,,,0,16,16,16,,,,,,,,,,,,,,,,,,,,,,,,,,,,,,,,,,,,,,,,,,,,,,,,,,,,,,,,,,,,,,,,,,,,,,,,,,,,,,,,,1.9243827362855275,1.4419780001044273,171.96085750008933,None,ScrollUp,정답입니다,171.96085750008933,None,171.96085750008933,None,171.96085750008933,None,171.96085750008933,None,173.29426040011458,None,173.29426040011458,173.79433390009217,,,,,,,,,,,,,,,,014,2022-05-11_19h55.10.698,FishGame,2022.1.1,58.95673698773692,
,18,넌 의리있어,1,Orange,B,5.833333333333334,5.633333333333334,ScrollUp,ScrollDown,Orange.png,1,Positive,Incongruent,,,,,0,0,0,0,,,,,,,,,,,,,0,17,17,17,,,,,,,,,,,,,,,,,,,,,,,,,,,,,,,,,,,,,,,,,,,,,,,,,,,,,,,,,,,,,,,,,,,,,,,,,,,,,,,,,1.9722222189108531,1.1453998999204487,174.42001720005646,None,ScrollUp,정답입니다,174.42001720005646,None,174.42001720005646,None,174.42001720005646,None,174.42001720005646,None,175.46093820012175,None,175.46093820012175,175.96366659994237,,,,,,,,,,,,,,,,014,2022-05-11_19h55.10.698,FishGame,2022.1.1,58.95673698773692,
,19,넌 신경과민이야,5,Green,A,2.541666666666667,2.166666666666667,ScrollDown,ScrollUp,Green.png,1,Negative,Incongruent,,,,,0,0,0,0,,,,,,,,,,,,,0,18,18,18,,,,,,,,,,,,,,,,,,,,,,,,,,,,,,,,,,,,,,,,,,,,,,,,,,,,,,,,,,,,,,,,,,,,,,,,,,,,,,,,,1.0262345671653748,1.0438945000059903,176.59674930013716,None,ScrollDown,정답입니다,176.59674930013716,None,176.59674930013716,None,176.59674930013716,None,176.59674930013716,None,177.5300851999782,None,177.5300851999782,178.04448710009456,,,,,,,,,,,,,,,,014,2022-05-11_19h55.10.698,FishGame,2022.1.1,58.95673698773692,
,20,넌 편안해,1,Green,A,5.916666666666666,5.866666666666666,ScrollDown,ScrollUp,Green.png,1,Positive,Congruent,,,,,0,0,0,0,,,,,,,,,,,,,0,19,19,19,,,,,,,,,,,,,,,,,,,,,,,,,,,,,,,,,,,,,,,,,,,,,,,,,,,,,,,,,,,,,,,,,,,,,,,,,,,,,,,,,1,0.9946926000993699,178.67452450003475,None,ScrollDown,정답입니다,178.67452450003475,None,178.67452450003475,None,178.67452450003475,None,178.67452450003475,None,179.56106700003147,None,179.56106700003147,180.0633700999897,,,,,,,,,,,,,,,,014,2022-05-11_19h55.10.698,FishGame,2022.1.1,58.95673698773692,
,21,넌 품위있어,2,Orange,B,5.291666666666666,4.466666666666667,ScrollUp,ScrollDown,Orange.png,1,Positive,Incongruent,,,,,0,0,0,0,,,,,,,,,,,,,0,20,20,20,,,,,,,,,,,,,,,,,,,,,,,,,,,,,,,,,,,,,,,,,,,,,,,,,,,,,,,,,,,,,,,,,,,,,,,,,,,,,,,,,1.8688271592060726,1.375731399981305,180.69120230013505,None,ScrollUp,정답입니다,180.69120230013505,None,180.69120230013505,None,180.69120230013505,None,180.69120230013505,None,181.9609730001539,None,181.9609730001539,182.4610397000797,,,,,,,,,,,,,,,,014,2022-05-11_19h55.10.698,FishGame,2022.1.1,58.95673698773692,
,22,넌 빈틈없어,3,Green,A,4.833333333333333,3.966666666666667,ScrollDown,ScrollUp,Green.png,1,Neutral,Neutral,,,,,0,0,0,0,,,,,,,,,,,,,0,21,21,21,,,,,,,,,,,,,,,,,,,,,,,,,,,,,,,,,,,,,,,,,,,,,,,,,,,,,,,,,,,,,,,,,,,,,,,,,,,,,,,,,1,0.9945414999965578,183.08877900009975,None,ScrollDown,정답입니다,183.08877900009975,None,183.08877900009975,None,183.08877900009975,None,183.08877900009975,None,183.97764739999548,None,183.97764739999548,184.47981539997272,,,,,,,,,,,,,,,,014,2022-05-11_19h55.10.698,FishGame,2022.1.1,58.95673698773692,
,23,넌 상상력없어,4,Orange,B,2.833333333333333,3.133333333333333,ScrollUp,ScrollDown,Orange.png,1,Negative,Congruent,,,,,0,0,0,0,,,,,,,,,,,,,0,22,22,22,,,,,,,,,,,,,,,,,,,,,,,,,,,,,,,,,,,,,,,,,,,,,,,,,,,,,,,,,,,,,,,,,,,,,,,,,,,,,,,,,1.9490740597248077,1.1092581001576036,185.112691400107,None,ScrollUp,정답입니다,185.112691400107,None,185.112691400107,None,185.112691400107,None,185.112691400107,None,186.11098470003344,None,186.11098470003344,186.6131571000442,,,,,,,,,,,,,,,,014,2022-05-11_19h55.10.698,FishGame,2022.1.1,58.95673698773692,
,24,넌 지혜로워,2,Orange,B,6.333333333333334,4.633333333333334,ScrollUp,ScrollDown,Orange.png,1,Positive,Incongruent,,,,,0,0,0,0,,,,,,,,,,,,,0,23,23,23,,,,,,,,,,,,,,,,,,,,,,,,,,,,,,,,,,,,,,,,,,,,,,,,,,,,,,,,,,,,,,,,,,,,,,,,,,,,,,,,,1.884259248773257,1.2443774999119341,187.25085359998047,None,ScrollUp,정답입니다,187.25085359998047,None,187.25085359998047,None,187.25085359998047,None,187.25085359998047,None,188.37753199995495,None,188.37753199995495,188.87757749995217,,,,,,,,,,,,,,,,014,2022-05-11_19h55.10.698,FishGame,2022.1.1,58.95673698773692,
,25,넌 시끄러워,4,Green,A,2.833333333333333,3.033333333333333,ScrollDown,ScrollUp,Green.png,1,Negative,Incongruent,,,,,0,0,0,0,,,,,,,,,,,,,0,24,24,24,,,,,,,,,,,,,,,,,,,,,,,,,,,,,,,,,,,,,,,,,,,,,,,,,,,,,,,,,,,,,,,,,,,,,,,,,,,,,,,,,1,1.1448222000617534,189.50751120015047,None,ScrollDown,정답입니다,189.50751120015047,None,189.50751120015047,None,189.50751120015047,None,189.50751120015047,None,190.54424359998666,None,190.54424359998666,191.0463485000655,,,,,,,,,,,,,,,,014,2022-05-11_19h55.10.698,FishGame,2022.1.1,58.95673698773692,
,26,넌 만사태평이야,3,Orange,B,4,4.333333333333333,ScrollUp,ScrollDown,Orange.png,1,Neutral,Neutral,,,,,0,0,0,0,,,,,,,,,,,,,0,25,25,25,,,,,,,,,,,,,,,,,,,,,,,,,,,,,,,,,,,,,,,,,,,,,,,,,,,,,,,,,,,,,,,,,,,,,,,,,,,,,,,,,2,1.0433643001597375,191.67599090002477,None,ScrollUp,정답입니다,191.67599090002477,None,191.67599090002477,None,191.67599090002477,None,191.67599090002477,None,192.61074899998493,None,192.61074899998493,193.11081610014662,,,,,,,,,,,,,,,,014,2022-05-11_19h55.10.698,FishGame,2022.1.1,58.95673698773692,
,27,넌 붙임성있어,1,Green,A,5.708333333333333,5.633333333333334,ScrollDown,ScrollUp,Green.png,1,Positive,Congruent,,,,,0,0,0,0,,,,,,,,,,,,,0,26,26,26,,,,,,,,,,,,,,,,,,,,,,,,,,,,,,,,,,,,,,,,,,,,,,,,,,,,,,,,,,,,,,,,,,,,,,,,,,,,,,,,,1,1.0451001999899745,193.74619249999523,None,ScrollDown,정답입니다,193.74619249999523,None,193.74619249999523,None,193.74619249999523,None,193.74619249999523,None,194.67748460010625,None,194.67748460010625,195.179697799962,,,,,,,,,,,,,,,,014,2022-05-11_19h55.10.698,FishGame,2022.1.1,58.95673698773692,
,28,넌 영리해,2,Green,A,6,4.033333333333333,ScrollDown,ScrollUp,Green.png,1,Positive,Congruent,,,,,0,0,0,0,,,,,,,,,,,,,0,27,27,27,,,,,,,,,,,,,,,,,,,,,,,,,,,,,,,,,,,,,,,,,,,,,,,,,,,,,,,,,,,,,,,,,,,,,,,,,,,,,,,,,1,0.9281194999348372,195.80442990013398,None,ScrollDown,정답입니다,195.80442990013398,None,195.80442990013398,None,195.80442990013398,None,195.80442990013398,None,196.62958499998786,None,196.62958499998786,197.1327464999631,,,,,,,,,,,,,,,,014,2022-05-11_19h55.10.698,FishGame,2022.1.1,58.95673698773692,
,29,넌 열심이야,1,Orange,B,6.041666666666667,5.833333333333333,ScrollUp,ScrollDown,Orange.png,1,Positive,Incongruent,,,,,0,0,0,0,,,,,,,,,,,,,0,28,28,28,,,,,,,,,,,,,,,,,,,,,,,,,,,,,,,,,,,,,,,,,,,,,,,,,,,,,,,,,,,,,,,,,,,,,,,,,,,,,,,,,1.9151234527428944,0.9447030001319945,197.77555280015804,None,ScrollUp,정답입니다,197.77555280015804,None,197.77555280015804,None,197.77555280015804,None,197.77555280015804,None,198.61062499997206,None,198.61062499997206,199.11069789994508,,,,,,,,,,,,,,,,014,2022-05-11_19h55.10.698,FishGame,2022.1.1,58.95673698773692,
,30,넌 인기없어,4,Orange,B,3,3.3,ScrollUp,ScrollDown,Orange.png,1,Negative,Congruent,,,,,0,0,0,0,,,,,,,,,,,,,0,29,29,29,,,,,,,,,,,,,,,,,,,,,,,,,,,,,,,,,,,,,,,,,,,,,,,,,,,,,,,,,,,,,,,,,,,,,,,,,,,,,,,,,1.9027777661879857,1.1757916999049485,199.7430096999742,None,ScrollUp,정답입니다,199.7430096999742,None,199.7430096999742,None,199.7430096999742,None,199.7430096999742,None,200.81065680016764,None,200.81065680016764,201.31290800007991,,,,,,,,,,,,,,,,014,2022-05-11_19h55.10.698,FishGame,2022.1.1,58.95673698773692,
,31,넌 익살스러워,3,Green,A,4.708333333333334,4.833333333333333,ScrollDown,ScrollUp,Green.png,1,Neutral,Neutral,,,,,0,0,0,0,,,,,,,,,,,,,0,30,30,30,,,,,,,,,,,,,,,,,,,,,,,,,,,,,,,,,,,,,,,,,,,,,,,,,,,,,,,,,,,,,,,,,,,,,,,,,,,,,,,,,1,1.042513000080362,201.9429047999438,None,ScrollDown,정답입니다,201.9429047999438,None,201.9429047999438,None,201.9429047999438,None,201.9429047999438,None,202.87721180007793,None,202.87721180007793,203.37726920004934,,,,,,,,,,,,,,,,014,2022-05-11_19h55.10.698,FishGame,2022.1.1,58.95673698773692,
,32,넌 이기적이야,5,Orange,B,2.291666666666667,2.333333333333333,ScrollUp,ScrollDown,Orange.png,1,Negative,Congruent,,,,,0,0,0,0,,,,,,,,,,,,,0,31,31,31,,,,,,,,,,,,,,,,,,,,,,,,,,,,,,,,,,,,,,,,,,,,,,,,,,,,,,,,,,,,,,,,,,,,,,,,,,,,,,,,,1.9969135920206706,1.027989000082016,204.01231499994174,None,ScrollUp,정답입니다,204.01231499994174,None,204.01231499994174,None,204.01231499994174,None,204.01231499994174,None,204.92722330009565,None,204.92722330009565,205.4272723000031,,,,,,,,,,,,,,,,014,2022-05-11_19h55.10.698,FishGame,2022.1.1,58.95673698773692,
,33,나를 데려가줘,6,Orange,B,0,0,ScrollDown,ScrollUp,Orange.png,1,NonTarget,NonTarget,,,,,0,0,0,0,,,,,,,,,,,,,0,32,32,32,,,,,,,,,,,,,,,,,,,,,,,,,,,,,,,,,,,,,,,,,,,,,,,,,,,,,,,,,,,,,,,,,,,,,,,,,,,,,,,,,1,1.5762994000688195,206.05435000010766,None,ScrollDown,정답입니다,206.05435000010766,None,206.05435000010766,None,206.05435000010766,None,206.05435000010766,None,207.52718059998006,None,207.52718059998006,208.0293129000347,,,,,,,,,,,,,,,,014,2022-05-11_19h55.10.698,FishGame,2022.1.1,58.95673698773692,
,34,넌 기회주의자야,5,Green,A,2.875,2.133333333333333,ScrollDown,ScrollUp,Green.png,1,Negative,Incongruent,,,,,0,0,0,0,,,,,,,,,,,,,0,33,33,33,,,,,,,,,,,,,,,,,,,,,,,,,,,,,,,,,,,,,,,,,,,,,,,,,,,,,,,,,,,,,,,,,,,,,,,,,,,,,,,,,1,1.709211700130254,208.660497300094,None,ScrollDown,정답입니다,208.660497300094,None,208.660497300094,None,208.660497300094,None,208.660497300094,None,210.26265060016885,None,210.26265060016885,210.76268610008992,,,,,,,,,,,,,,,,014,2022-05-11_19h55.10.698,FishGame,2022.1.1,58.95673698773692,
,1,넌 미성숙해,4,Green,A,3,3.2,ScrollDown,ScrollUp,Green.png,2,Negative,Incongruent,,,,,0,0,0,0,,,,,,,,,,,,,,,,,0,0,0,0,,,,,,,,,,,,,,,,,,,,,,,,,,,,,,,,,,,,242.69336899998598,244.19311390002258,244.22646709997207,245.17873580008745,245.22635830007493,246.1763903000392,246.1763903000392,None,,,,,,,,,,,,,,,,,,,,,,,,,,,,,,,,,,1,1.310089800041169,247.27023150003515,None,ScrollDown,정답입니다,247.27023150003515,None,247.27023150003515,None,247.27023150003515,None,247.27023150003515,None,248.47633610013872,None,248.47633610013872,248.97864860016853,211.2627203001175,None,211.2627203001175,None,-0.2,-0.10185185,1,0,0,0.016062390059232712,None,241.27650459995493,None,,,014,2022-05-11_19h55.10.698,FishGame,2022.1.1,58.95673698773692,
,2,넌 반사회적이야,5,Orange,B,2.416666666666667,2.033333333333333,ScrollUp,ScrollDown,Orange.png,2,Negative,Congruent,,,,,0,0,0,0,,,,,,,,,,,,,,,,,0,1,1,1,,,,,,,,,,,,,,,,,,,,,,,,,,,,,,,,,,,,,,,,,,,,,,,,,,,,,,,,,,,,,,,,,,,,,,,,,,,,,1.8271604826052983,1.0756506000179797,249.60846110014245,None,ScrollUp,정답입니다,249.60846110014245,None,249.60846110014245,None,249.60846110014245,None,249.60846110014245,None,250.57597070001066,None,250.57597070001066,251.07603070000187,,,,,,,,,,,,,,,,014,2022-05-11_19h55.10.698,FishGame,2022.1.1,58.95673698773692,
,3,넌 유능해,2,Green,A,6.208333333333333,4.433333333333334,ScrollDown,ScrollUp,Green.png,2,Positive,Congruent,,,,,0,0,0,0,,,,,,,,,,,,,,,,,0,2,2,2,,,,,,,,,,,,,,,,,,,,,,,,,,,,,,,,,,,,,,,,,,,,,,,,,,,,,,,,,,,,,,,,,,,,,,,,,,,,,1,1.0118633001111448,251.70470799994655,None,ScrollDown,정답입니다,251.70470799994655,None,251.70470799994655,None,251.70470799994655,None,251.70470799994655,None,252.6096475000959,None,252.6096475000959,253.11183740012348,,,,,,,,,,,,,,,,014,2022-05-11_19h55.10.698,FishGame,2022.1.1,58.95673698773692,
,4,넌 능숙해,2,Orange,B,5.666666666666667,4.733333333333333,ScrollUp,ScrollDown,Orange.png,2,Positive,Incongruent,,,,,0,0,0,0,,,,,,,,,,,,,,,,,0,3,3,3,,,,,,,,,,,,,,,,,,,,,,,,,,,,,,,,,,,,,,,,,,,,,,,,,,,,,,,,,,,,,,,,,,,,,,,,,,,,,1.9722222189108531,0.962462899973616,253.73168119997717,None,ScrollUp,정답입니다,253.73168119997717,None,253.73168119997717,None,253.73168119997717,None,253.73168119997717,None,254.5951702001039,None,254.5951702001039,255.10956540005282,,,,,,,,,,,,,,,,014,2022-05-11_19h55.10.698,FishGame,2022.1.1,58.95673698773692,
,5,넌 진부해,4,Orange,B,2.458333333333333,3.166666666666667,ScrollUp,ScrollDown,Orange.png,2,Negative,Congruent,,,,,0,0,0,0,,,,,,,,,,,,,,,,,0,4,4,4,,,,,,,,,,,,,,,,,,,,,,,,,,,,,,,,,,,,,,,,,,,,,,,,,,,,,,,,,,,,,,,,,,,,,,,,,,,,,1.7793209999799728,0.9276603001635522,255.7351093001198,None,ScrollUp,정답입니다,255.7351093001198,None,255.7351093001198,None,255.7351093001198,None,255.7351093001198,None,256.55946120014414,None,256.55946120014414,257.0616864999756,,,,,,,,,,,,,,,,014,2022-05-11_19h55.10.698,FishGame,2022.1.1,58.95673698773692,
,6,나를 보내줘,6,Green,A,0,0,ScrollUp,ScrollDown,Green.png,2,NonTarget,NonTarget,,,,,0,0,0,0,,,,,,,,,,,,,,,,,0,5,5,5,,,,,,,,,,,,,,,,,,,,,,,,,,,,,,,,,,,,,,,,,,,,,,,,,,,,,,,,,,,,,,,,,,,,,,,,,,,,,2,1.1268995001446456,257.68697719997726,None,ScrollUp,정답입니다,257.68697719997726,None,257.68697719997726,None,257.68697719997726,None,257.68697719997726,None,258.70937910000794,None,258.70937910000794,259.20937469997443,,,,,,,,,,,,,,,,014,2022-05-11_19h55.10.698,FishGame,2022.1.1,58.95673698773692,
,7,넌 엄격해,3,Green,A,4.166666666666666,4.1,ScrollDown,ScrollUp,Green.png,2,Neutral,Neutral,,,,,0,0,0,0,,,,,,,,,,,,,,,,,0,6,6,6,,,,,,,,,,,,,,,,,,,,,,,,,,,,,,,,,,,,,,,,,,,,,,,,,,,,,,,,,,,,,,,,,,,,,,,,,,,,,1,1.0113218000624329,259.83723850012757,None,ScrollDown,정답입니다,259.83723850012757,None,259.83723850012757,None,259.83723850012757,None,259.83723850012757,None,260.74277699994855,None,260.74277699994855,261.24488770007156,,,,,,,,,,,,,,,,014,2022-05-11_19h55.10.698,FishGame,2022.1.1,58.95673698773692,
,8,나를 보내줘,6,Green,A,0,0,ScrollUp,ScrollDown,Green.png,2,NonTarget,NonTarget,,,,,0,0,0,0,,,,,,,,,,,,,,,,,0,7,7,7,,,,,,,,,,,,,,,,,,,,,,,,,,,,,,,,,,,,,,,,,,,,,,,,,,,,,,,,,,,,,,,,,,,,,,,,,,,,,1.8410493830839794,1.0761143998242915,261.86455149995163,None,ScrollUp,정답입니다,261.86455149995163,None,261.86455149995163,None,261.86455149995163,None,261.86455149995163,None,262.8426086001564,None,262.8426086001564,263.34270559996367,,,,,,,,,,,,,,,,014,2022-05-11_19h55.10.698,FishGame,2022.1.1,58.95673698773692,
,9,넌 대담해,3,Orange,B,4.875,4.866666666666666,ScrollUp,ScrollDown,Orange.png,2,Neutral,Neutral,,,,,0,0,0,0,,,,,,,,,,,,,,,,,0,8,8,8,,,,,,,,,,,,,,,,,,,,,,,,,,,,,,,,,,,,,,,,,,,,,,,,,,,,,,,,,,,,,,,,,,,,,,,,,,,,,1.9012345770994823,1.276845799991861,263.97050429997034,None,ScrollUp,정답입니다,263.97050429997034,None,263.97050429997034,None,263.97050429997034,None,263.97050429997034,None,265.14262540009804,None,265.14262540009804,265.64481159998104,,,,,,,,,,,,,,,,014,2022-05-11_19h55.10.698,FishGame,2022.1.1,58.95673698773692,
,10,넌 꾸준해,1,Green,A,5.916666666666668,5.8,ScrollDown,ScrollUp,Green.png,2,Positive,Congruent,,,,,0,0,0,0,,,,,,,,,,,,,,,,,0,9,9,9,,,,,,,,,,,,,,,,,,,,,,,,,,,,,,,,,,,,,,,,,,,,,,,,,,,,,,,,,,,,,,,,,,,,,,,,,,,,,1,1.0553792000282556,266.2777813000139,None,ScrollDown,정답입니다,266.2777813000139,None,266.2777813000139,None,266.2777813000139,None,266.2777813000139,None,267.2212950999383,None,267.2212950999383,267.7256922000088,,,,,,,,,,,,,,,,014,2022-05-11_19h55.10.698,FishGame,2022.1.1,58.95673698773692,
,11,나를 데려가줘,6,Orange,B,0,0,ScrollDown,ScrollUp,Orange.png,2,NonTarget,NonTarget,,,,,0,0,0,0,,,,,,,,,,,,,,,,,0,10,10,10,,,,,,,,,,,,,,,,,,,,,,,,,,,,,,,,,,,,,,,,,,,,,,,,,,,,,,,,,,,,,,,,,,,,,,,,,,,,,1,1.3955431000795215,268.3445272000972,None,ScrollDown,정답입니다,268.3445272000972,None,268.3445272000972,None,268.3445272000972,None,268.3445272000972,None,269.64227890013717,None,269.64227890013717,270.1449237000197,,,,,,,,,,,,,,,,014,2022-05-11_19h55.10.698,FishGame,2022.1.1,58.95673698773692,
,12,넌 독선적이야,5,Green,A,2.458333333333333,1.933333333333333,ScrollDown,ScrollUp,Green.png,2,Negative,Incongruent,,,,,0,0,0,0,,,,,,,,,,,,,,,,,0,11,11,11,,,,,,,,,,,,,,,,,,,,,,,,,,,,,,,,,,,,,,,,,,,,,,,,,,,,,,,,,,,,,,,,,,,,,,,,,,,,,1,1.0605585998855531,270.77087340014987,None,ScrollDown,정답입니다,270.77087340014987,None,270.77087340014987,None,270.77087340014987,None,270.77087340014987,None,271.7281474999618,None,271.7281474999618,272.23126340005547,,,,,,,,,,,,,,,,014,2022-05-11_19h55.10.698,FishGame,2022.1.1,58.95673698773692,
,13,나를 보내줘,6,Green,A,0,0,ScrollUp,ScrollDown,Green.png,2,NonTarget,NonTarget,,,,,0,0,0,0,,,,,,,,,,,,,,,,,0,12,12,12,,,,,,,,,,,,,,,,,,,,,,,,,,,,,,,,,,,,,,,,,,,,,,,,,,,,,,,,,,,,,,,,,,,,,,,,,,,,,1.9876543084780376,1.0776260001584888,272.8459300000686,None,ScrollUp,정답입니다,272.8459300000686,None,272.8459300000686,None,272.8459300000686,None,272.8459300000686,None,273.82575320010073,None,273.82575320010073,274.32583390013315,,,,,,,,,,,,,,,,014,2022-05-11_19h55.10.698,FishGame,2022.1.1,58.95673698773692,
,14,넌 책임감있어,1,Orange,B,6.347826086956522,6,ScrollUp,ScrollDown,Orange.png,2,Positive,Incongruent,,,,,0,0,0,0,,,,,,,,,,,,,,,,,0,13,13,13,,,,,,,,,,,,,,,,,,,,,,,,,,,,,,,,,,,,,,,,,,,,,,,,,,,,,,,,,,,,,,,,,,,,,,,,,,,,,1.8950617214043934,1.211201900150627,274.9505779000465,None,ScrollUp,정답입니다,274.9505779000465,None,274.9505779000465,None,274.9505779000465,None,274.9505779000465,None,276.05900530004874,None,276.05900530004874,276.55907560000196,,,,,,,,,,,,,,,,014,2022-05-11_19h55.10.698,FishGame,2022.1.1,58.95673698773692,
,15,넌 문학적이야,3,Green,A,4.708333333333334,4.333333333333333,ScrollDown,ScrollUp,Green.png,2,Neutral,Neutral,,,,,0,0,0,0,,,,,,,,,,,,,,,,,0,14,14,14,,,,,,,,,,,,,,,,,,,,,,,,,,,,,,,,,,,,,,,,,,,,,,,,,,,,,,,,,,,,,,,,,,,,,,,,,,,,,1.0262345671653748,1.0446289000101388,277.18093669996597,None,ScrollDown,정답입니다,277.18093669996597,None,277.18093669996597,None,277.18093669996597,None,277.18093669996597,None,278.12566510005854,None,278.12566510005854,278.6257309000939,,,,,,,,,,,,,,,,014,2022-05-11_19h55.10.698,FishGame,2022.1.1,58.95673698773692,
,16,넌 재미있어,1,Orange,B,5.875,5.7,ScrollUp,ScrollDown,Orange.png,2,Positive,Incongruent,,,,,0,0,0,0,,,,,,,,,,,,,,,,,0,15,15,15,,,,,,,,,,,,,,,,,,,,,,,,,,,,,,,,,,,,,,,,,,,,,,,,,,,,,,,,,,,,,,,,,,,,,,,,,,,,,1.9675925771395366,1.0255354999098927,279.250360700069,None,ScrollUp,정답입니다,279.250360700069,None,279.250360700069,None,279.250360700069,None,279.250360700069,None,280.1756683001295,None,280.1756683001295,280.675649400102,,,,,,,,,,,,,,,,014,2022-05-11_19h55.10.698,FishGame,2022.1.1,58.95673698773692,
,17,나를 데려가줘,6,Orange,B,0,0,ScrollDown,ScrollUp,Orange.png,2,NonTarget,NonTarget,,,,,0,0,0,0,,,,,,,,,,,,,,,,,0,16,16,16,,,,,,,,,,,,,,,,,,,,,,,,,,,,,,,,,,,,,,,,,,,,,,,,,,,,,,,,,,,,,,,,,,,,,,,,,,,,,1,1.194603699957952,281.3012292999774,None,ScrollDown,정답입니다,281.3012292999774,None,281.3012292999774,None,281.3012292999774,None,281.3012292999774,None,282.3922351000365,None,282.3922351000365,282.8943690001033,,,,,,,,,,,,,,,,014,2022-05-11_19h55.10.698,FishGame,2022.1.1,58.95673698773692,
,18,넌 협력적이야,1,Green,A,5.625,5.633333333333334,ScrollDown,ScrollUp,Green.png,2,Positive,Congruent,,,,,0,0,0,0,,,,,,,,,,,,,,,,,0,17,17,17,,,,,,,,,,,,,,,,,,,,,,,,,,,,,,,,,,,,,,,,,,,,,,,,,,,,,,,,,,,,,,,,,,,,,,,,,,,,,1.0339506367842357,1.1425129999406636,283.52143900003284,None,ScrollDown,정답입니다,283.52143900003284,None,283.52143900003284,None,283.52143900003284,None,283.52143900003284,None,284.55888730008155,None,284.55888730008155,285.0611104001291,,,,,,,,,,,,,,,,014,2022-05-11_19h55.10.698,FishGame,2022.1.1,58.95673698773692,
,19,넌 평범해,3,Orange,B,4.333333333333332,4.233333333333333,ScrollUp,ScrollDown,Orange.png,2,Neutral,Neutral,,,,,0,0,0,0,,,,,,,,,,,,,,,,,0,18,18,18,,,,,,,,,,,,,,,,,,,,,,,,,,,,,,,,,,,,,,,,,,,,,,,,,,,,,,,,,,,,,,,,,,,,,,,,,,,,,1.8209876517454784,1.0754956000018865,285.6889708000235,None,ScrollUp,정답입니다,285.6889708000235,None,285.6889708000235,None,285.6889708000235,None,285.6889708000235,None,286.65853650006466,None,286.65853650006466,287.158608000027,,,,,,,,,,,,,,,,014,2022-05-11_19h55.10.698,FishGame,2022.1.1,58.95673698773692,
,20,넌 오만해,5,Green,A,2.333333333333333,2,ScrollDown,ScrollUp,Green.png,2,Negative,Incongruent,,,,,0,0,0,0,,,,,,,,,,,,,,,,,0,19,19,19,,,,,,,,,,,,,,,,,,,,,,,,,,,,,,,,,,,,,,,,,,,,,,,,,,,,,,,,,,,,,,,,,,,,,,,,,,,,,1,1.4114291998557746,287.7832810000982,None,ScrollDown,정답입니다,287.7832810000982,None,287.7832810000982,None,287.7832810000982,None,287.7832810000982,None,289.0944912000559,None,289.0944912000559,289.594395800028,,,,,,,,,,,,,,,,014,2022-05-11_19h55.10.698,FishGame,2022.1.1,58.95673698773692,
,21,넌 운이없어,4,Orange,B,3,3.466666666666667,ScrollUp,ScrollDown,Orange.png,2,Negative,Congruent,,,,,0,0,0,0,,,,,,,,,,,,,,,,,0,20,20,20,,,,,,,,,,,,,,,,,,,,,,,,,,,,,,,,,,,,,,,,,,,,,,,,,,,,,,,,,,,,,,,,,,,,,,,,,,,,,1.7808641890684764,1.0102318001445383,290.2171394000761,None,ScrollUp,정답입니다,290.2171394000761,None,290.2171394000761,None,290.2171394000761,None,290.2171394000761,None,291.12541930004954,None,291.12541930004954,291.6254438001197,,,,,,,,,,,,,,,,014,2022-05-11_19h55.10.698,FishGame,2022.1.1,58.95673698773692,
,22,넌 창조적이야,2,Orange,B,6.125,4.633333333333334,ScrollUp,ScrollDown,Orange.png,2,Positive,Incongruent,,,,,0,0,0,0,,,,,,,,,,,,,,,,,0,21,21,21,,,,,,,,,,,,,,,,,,,,,,,,,,,,,,,,,,,,,,,,,,,,,,,,,,,,,,,,,,,,,,,,,,,,,,,,,,,,,1.8317901243766148,1.308938100002706,292.2548877999652,None,ScrollUp,정답입니다,292.2548877999652,None,292.2548877999652,None,292.2548877999652,None,292.2548877999652,None,293.45862230006605,None,293.45862230006605,293.9608279000968,,,,,,,,,,,,,,,,014,2022-05-11_19h55.10.698,FishGame,2022.1.1,58.95673698773692,
,23,나를 보내줘,6,Green,A,0,0,ScrollUp,ScrollDown,Green.png,2,NonTarget,NonTarget,,,,,0,0,0,0,,,,,,,,,,,,,,,,,0,22,22,22,,,,,,,,,,,,,,,,,,,,,,,,,,,,,,,,,,,,,,,,,,,,,,,,,,,,,,,,,,,,,,,,,,,,,,,,,,,,,1.8271604826052983,1.3101091000717133,294.57945220009424,None,ScrollUp,정답입니다,294.57945220009424,None,294.57945220009424,None,294.57945220009424,None,294.57945220009424,None,295.79197510005906,None,295.79197510005906,296.2920379000716,,,,,,,,,,,,,,,,014,2022-05-11_19h55.10.698,FishGame,2022.1.1,58.95673698773692,
,24,넌 통찰력있어,2,Green,A,6.5,4.8,ScrollDown,ScrollUp,Green.png,2,Positive,Congruent,,,,,0,0,0,0,,,,,,,,,,,,,,,,,0,23,23,23,,,,,,,,,,,,,,,,,,,,,,,,,,,,,,,,,,,,,,,,,,,,,,,,,,,,,,,,,,,,,,,,,,,,,,,,,,,,,1,0.8923810999840498,296.92116459994577,None,ScrollDown,정답입니다,296.92116459994577,None,296.92116459994577,None,296.92116459994577,None,296.92116459994577,None,297.7085474000778,None,297.7085474000778,298.2107453001663,,,,,,,,,,,,,,,,014,2022-05-11_19h55.10.698,FishGame,2022.1.1,58.95673698773692,
,25,넌 경솔해,5,Orange,B,2.458333333333333,2.266666666666667,ScrollUp,ScrollDown,Orange.png,2,Negative,Congruent,,,,,0,0,0,0,,,,,,,,,,,,,,,,,0,24,24,24,,,,,,,,,,,,,,,,,,,,,,,,,,,,,,,,,,,,,,,,,,,,,,,,,,,,,,,,,,,,,,,,,,,,,,,,,,,,,1.7885802586873372,0.9443385999184102,298.8355930999387,None,ScrollUp,정답입니다,298.8355930999387,None,298.8355930999387,None,298.8355930999387,None,298.8355930999387,None,299.6752842999995,None,299.6752842999995,300.1774059999734,,,,,,,,,,,,,,,,014,2022-05-11_19h55.10.698,FishGame,2022.1.1,58.95673698773692,
,26,넌 초조해,4,Green,A,2.916666666666667,3.133333333333333,ScrollDown,ScrollUp,Green.png,2,Negative,Incongruent,,,,,0,0,0,0,,,,,,,,,,,,,,,,,0,25,25,25,,,,,,,,,,,,,,,,,,,,,,,,,,,,,,,,,,,,,,,,,,,,,,,,,,,,,,,,,,,,,,,,,,,,,,,,,,,,,1.0092592636744182,1.10903779999353,300.8028412000276,None,ScrollDown,정답입니다,300.8028412000276,None,300.8028412000276,None,300.8028412000276,None,300.8028412000276,None,301.80836320016533,None,301.80836320016533,302.30855350010097,,,,,,,,,,,,,,,,014,2022-05-11_19h55.10.698,FishGame,2022.1.1,58.95673698773692,
,27,넌 무관심해,4,Orange,B,2.833333333333333,2.9,ScrollUp,ScrollDown,Orange.png,2,Negative,Congruent,,,,,0,0,0,0,,,,,,,,,,,,,,,,,0,26,26,26,,,,,,,,,,,,,,,,,,,,,,,,,,,,,,,,,,,,,,,,,,,,,,,,,,,,,,,,,,,,,,,,,,,,,,,,,,,,,1.7638888855775197,0.9111518000718206,302.9416046999395,None,ScrollUp,정답입니다,302.9416046999395,None,302.9416046999395,None,302.9416046999395,None,302.9416046999395,None,303.7417904001195,None,303.7417904001195,304.24398040003143,,,,,,,,,,,,,,,,014,2022-05-11_19h55.10.698,FishGame,2022.1.1,58.95673698773692,
,28,넌 감성적이야,3,Orange,B,4.125,4.166666666666667,ScrollUp,ScrollDown,Orange.png,2,Neutral,Neutral,,,,,0,0,0,0,,,,,,,,,,,,,,,,,0,27,27,27,,,,,,,,,,,,,,,,,,,,,,,,,,,,,,,,,,,,,,,,,,,,,,,,,,,,,,,,,,,,,,,,,,,,,,,,,,,,,1.904320980111758,1.092246700078249,304.86749550001696,None,ScrollUp,정답입니다,304.86749550001696,None,304.86749550001696,None,304.86749550001696,None,304.86749550001696,None,305.8584366000723,None,305.8584366000723,306.3584726001136,,,,,,,,,,,,,,,,014,2022-05-11_19h55.10.698,FishGame,2022.1.1,58.95673698773692,
,29,넌 배려심있어,1,Green,A,6.083333333333333,5.5,ScrollDown,ScrollUp,Green.png,2,Positive,Congruent,,,,,0,0,0,0,,,,,,,,,,,,,,,,,0,28,28,28,,,,,,,,,,,,,,,,,,,,,,,,,,,,,,,,,,,,,,,,,,,,,,,,,,,,,,,,,,,,,,,,,,,,,,,,,,,,,1,1.0083092998247594,306.9831127000507,None,ScrollDown,정답입니다,306.9831127000507,None,306.9831127000507,None,306.9831127000507,None,306.9831127000507,None,307.8916656000074,None,307.8916656000074,308.39150499994867,,,,,,,,,,,,,,,,014,2022-05-11_19h55.10.698,FishGame,2022.1.1,58.95673698773692,
,30,넌 숨김없어,3,Green,A,4.5,4.933333333333334,ScrollDown,ScrollUp,Green.png,2,Neutral,Neutral,,,,,0,0,0,0,,,,,,,,,,,,,,,,,0,29,29,29,,,,,,,,,,,,,,,,,,,,,,,,,,,,,,,,,,,,,,,,,,,,,,,,,,,,,,,,,,,,,,,,,,,,,,,,,,,,,1,1.1946932000573725,309.01745490008034,None,ScrollDown,정답입니다,309.01745490008034,None,309.01745490008034,None,309.01745490008034,None,309.01745490008034,None,310.1080903999973,None,310.1080903999973,310.60826470004395,,,,,,,,,,,,,,,,014,2022-05-11_19h55.10.698,FishGame,2022.1.1,58.95673698773692,
,31,넌 훌륭해,2,Orange,B,5.916666666666667,4.033333333333333,ScrollUp,ScrollDown,Orange.png,2,Positive,Incongruent,,,,,0,0,0,0,,,,,,,,,,,,,,,,,0,30,30,30,,,,,,,,,,,,,,,,,,,,,,,,,,,,,,,,,,,,,,,,,,,,,,,,,,,,,,,,,,,,,,,,,,,,,,,,,,,,,1.8935185074806213,1.3099391998257488,311.24045179993846,None,ScrollUp,정답입니다,311.24045179993846,None,311.24045179993846,None,311.24045179993846,None,311.24045179993846,None,312.44402469997294,None,312.44402469997294,312.9440313000232,,,,,,,,,,,,,,,,014,2022-05-11_19h55.10.698,FishGame,2022.1.1,58.95673698773692,
,32,넌 슬기로워,2,Green,A,6.166666666666667,4.1,ScrollDown,ScrollUp,Green.png,2,Positive,Congruent,,,,,0,0,0,0,,,,,,,,,,,,,,,,,0,31,31,31,,,,,,,,,,,,,,,,,,,,,,,,,,,,,,,,,,,,,,,,,,,,,,,,,,,,,,,,,,,,,,,,,,,,,,,,,,,,,1,1.079446999821812,313.5611762001645,None,ScrollDown,정답입니다,313.5611762001645,None,313.5611762001645,None,313.5611762001645,None,313.5611762001645,None,314.541580399964,None,314.541580399964,315.0416376001667,,,,,,,,,,,,,,,,014,2022-05-11_19h55.10.698,FishGame,2022.1.1,58.95673698773692,
,33,넌 냉혹해,5,Green,A,2.583333333333333,2.1,ScrollDown,ScrollUp,Green.png,2,Negative,Incongruent,,,,,0,0,0,0,,,,,,,,,,,,,,,,,0,32,32,32,,,,,,,,,,,,,,,,,,,,,,,,,,,,,,,,,,,,,,,,,,,,,,,,,,,,,,,,,,,,,,,,,,,,,,,,,,,,,1,1.0094525997992605,315.6692632001359,None,ScrollDown,정답입니다,315.6692632001359,None,315.6692632001359,None,315.6692632001359,None,315.6692632001359,None,316.57486749999225,None,316.57486749999225,317.07494070008397,,,,,,,,,,,,,,,,014,2022-05-11_19h55.10.698,FishGame,2022.1.1,58.95673698773692,
,34,나를 데려가줘,6,Orange,B,0,0,ScrollDown,ScrollUp,Orange.png,2,NonTarget,NonTarget,,,,,0,0,0,0,,,,,,,,,,,,,,,,,0,33,33,33,,,,,,,,,,,,,,,,,,,,,,,,,,,,,,,,,,,,,,,,,,,,,,,,,,,,,,,,,,,,,,,,,,,,,,,,,,,,,1.040123442808787,2.2104070000350475,317.69842460006475,None,ScrollDown,정답입니다,317.69842460006475,None,317.69842460006475,None,317.69842460006475,None,317.69842460006475,None,319.80808550002985,None,319.80808550002985,320.3081904000137,,,,,,,,,,,,,,,,014,2022-05-11_19h55.10.698,FishGame,2022.1.1,58.95673698773692,
,35,넌 편파적이야,5,Orange,B,2.125,2,ScrollUp,ScrollDown,Orange.png,2,Negative,Congruent,,,,,0,0,0,0,,,,,,,,,,,,,,,,,0,34,34,34,,,,,,,,,,,,,,,,,,,,,,,,,,,,,,,,,,,,,,,,,,,,,,,,,,,,,,,,,,,,,,,,,,,,,,,,,,,,,1.939814825852712,1.5446913000196218,320.9348538001068,None,ScrollUp,정답입니다,320.9348538001068,None,320.9348538001068,None,320.9348538001068,None,320.9348538001068,None,322.37694390001707,None,322.37694390001707,322.87712610000744,,,,,,,,,,,,,,,,014,2022-05-11_19h55.10.698,FishGame,2022.1.1,58.95673698773692,
,36,넌 슬퍼,4,Green,A,2.583333333333333,3.066666666666667,ScrollDown,ScrollUp,Green.png,2,Negative,Incongruent,,,,,0,0,0,0,,,,,,,,,,,,,,,,,0,35,35,35,,,,,,,,,,,,,,,,,,,,,,,,,,,,,,,,,,,,,,,,,,,,,,,,,,,,,,,,,,,,,,,,,,,,,,,,,,,,,1,0.9593603000976145,323.50185160012916,None,ScrollDown,정답입니다,323.50185160012916,None,323.50185160012916,None,323.50185160012916,None,323.50185160012916,None,324.35804920014925,None,324.35804920014925,324.8580857999623,,,,,,,,,,,,,,,,014,2022-05-11_19h55.10.698,FishGame,2022.1.1,58.95673698773692,
,37,나를 데려가줘,6,Orange,B,0,0,ScrollDown,ScrollUp,Orange.png,2,NonTarget,NonTarget,,,,,0,0,0,0,,,,,,,,,,,,,,,,,0,36,36,36,,,,,,,,,,,,,,,,,,,,,,,,,,,,,,,,,,,,,,,,,,,,,,,,,,,,,,,,,,,,,,,,,,,,,,,,,,,,,1,1.4944209998939186,325.48545200005174,None,ScrollDown,정답입니다,325.48545200005174,None,325.48545200005174,None,325.48545200005174,None,325.48545200005174,None,326.87460410012864,None,326.87460410012864,327.37473989999853,,,,,,,,,,,,,,,,014,2022-05-11_19h55.10.698,FishGame,2022.1.1,58.95673698773692,
,38,넌 친절해,1,Orange,B,6.041666666666667,5.533333333333333,ScrollUp,ScrollDown,Orange.png,2,Positive,Incongruent,,,,,0,0,0,0,,,,,,,,,,,,,,,,,0,37,37,37,,,,,,,,,,,,,,,,,,,,,,,,,,,,,,,,,,,,,,,,,,,,,,,,,,,,,,,,,,,,,,,,,,,,,,,,,,,,,1.8518518557151158,1.811364599969238,328.0098115999717,None,ScrollUp,정답입니다,328.0098115999717,None,328.0098115999717,None,328.0098115999717,None,328.0098115999717,None,329.71017960016616,None,329.71017960016616,330.20794130000286,,,,,,,,,,,,,,,,014,2022-05-11_19h55.10.698,FishGame,2022.1.1,58.95673698773692,
,1,넌 엉성해,4,Green,A,3,3.3,ScrollDown,ScrollUp,Green.png,3,Negative,Incongruent,,,,,0,0,0,0,,,,,,,,,,,,,,,,,,,,,0,0,0,0,,,,,,,,,,,,,,,,,,,,,,,,,,,,,,,,362.2462995001115,363.75993910012767,363.77386280009523,364.726315200096,364.77622999995947,365.7238743000198,365.7238743000198,None,,,,,,,,,,,,,,,,,,,,,,,,,,,,,,,,,,1.0339506367842357,1.59314229991287,366.81777449999936,None,ScrollDown,정답입니다,366.81777449999936,None,366.81777449999936,None,366.81777449999936,None,366.81777449999936,None,368.307135600131,None,368.307135600131,368.8092682999559,330.7079362999648,None,330.7079362999648,None,-0.13333334,-0.13518518,1,0,0,0.015944790095090866,None,360.70956430002116,None,,,014,2022-05-11_19h55.10.698,FishGame,2022.1.1,58.95673698773692,
,2,나를 보내줘,6,Green,A,0,0,ScrollUp,ScrollDown,Green.png,3,NonTarget,NonTarget,,,,,0,0,0,0,,,,,,,,,,,,,,,,,,,,,0,1,1,1,,,,,,,,,,,,,,,,,,,,,,,,,,,,,,,,,,,,,,,,,,,,,,,,,,,,,,,,,,,,,,,,,,,,,,,,,1.7500000099341075,1.3113073999993503,369.4318886999972,None,ScrollUp,정답입니다,369.4318886999972,None,369.4318886999972,None,369.4318886999972,None,369.4318886999972,None,370.6403700001538,None,370.6403700001538,371.14042700012214,,,,,,,,,,,,,,,,014,2022-05-11_19h55.10.698,FishGame,2022.1.1,58.95673698773692,
,3,넌 활발해,1,Orange,B,5.666666666666667,5.6,ScrollUp,ScrollDown,Orange.png,3,Positive,Incongruent,,,,,0,0,0,0,,,,,,,,,,,,,,,,,,,,,0,2,2,2,,,,,,,,,,,,,,,,,,,,,,,,,,,,,,,,,,,,,,,,,,,,,,,,,,,,,,,,,,,,,,,,,,,,,,,,,1.6358024651805558,0.9612018000334501,371.7701698001474,None,ScrollUp,정답입니다,371.7701698001474,None,371.7701698001474,None,371.7701698001474,None,371.7701698001474,None,372.62370830005966,None,372.62370830005966,373.1259886000771,,,,,,,,,,,,,,,,014,2022-05-11_19h55.10.698,FishGame,2022.1.1,58.95673698773692,
,4,넌 논리적이야,2,Green,A,5.666666666666666,4.633333333333334,ScrollDown,ScrollUp,Green.png,3,Positive,Congruent,,,,,0,0,0,0,,,,,,,,,,,,,,,,,,,,,0,3,3,3,,,,,,,,,,,,,,,,,,,,,,,,,,,,,,,,,,,,,,,,,,,,,,,,,,,,,,,,,,,,,,,,,,,,,,,,,1.162037044763565,0.8755870000459254,373.7523456001654,None,ScrollDown,정답입니다,373.7523456001654,None,373.7523456001654,None,373.7523456001654,None,373.7523456001654,None,374.5236081001349,None,374.5236081001349,375.0236709001474,,,,,,,,,,,,,,,,014,2022-05-11_19h55.10.698,FishGame,2022.1.1,58.95673698773692,
,5,넌 과묵해,3,Green,A,3.875,4.4,ScrollDown,ScrollUp,Green.png,3,Neutral,Neutral,,,,,0,0,0,0,,,,,,,,,,,,,,,,,,,,,0,4,4,4,,,,,,,,,,,,,,,,,,,,,,,,,,,,,,,,,,,,,,,,,,,,,,,,,,,,,,,,,,,,,,,,,,,,,,,,,1.0864197611808777,0.9282510001212358,375.64828320010565,None,ScrollDown,정답입니다,375.64828320010565,None,375.64828320010565,None,375.64828320010565,None,375.64828320010565,None,376.47369959997013,None,376.47369959997013,376.9758039000444,,,,,,,,,,,,,,,,014,2022-05-11_19h55.10.698,FishGame,2022.1.1,58.95673698773692,
,6,나를 데려가줘,6,Orange,B,0,0,ScrollDown,ScrollUp,Orange.png,3,NonTarget,NonTarget,,,,,0,0,0,0,,,,,,,,,,,,,,,,,,,,,0,5,5,5,,,,,,,,,,,,,,,,,,,,,,,,,,,,,,,,,,,,,,,,,,,,,,,,,,,,,,,,,,,,,,,,,,,,,,,,,1.0617283880710602,1.3943663001991808,377.6031665999908,None,ScrollDown,정답입니다,377.6031665999908,None,377.6031665999908,None,377.6031665999908,None,377.6031665999908,None,378.89245930011384,None,378.89245930011384,379.4092600001022,,,,,,,,,,,,,,,,014,2022-05-11_19h55.10.698,FishGame,2022.1.1,58.95673698773692,
,7,넌 미숙해,4,Orange,B,3,3,ScrollUp,ScrollDown,Orange.png,3,Negative,Congruent,,,,,0,0,0,0,,,,,,,,,,,,,,,,,,,,,0,6,6,6,,,,,,,,,,,,,,,,,,,,,,,,,,,,,,,,,,,,,,,,,,,,,,,,,,,,,,,,,,,,,,,,,,,,,,,,,1.8086419651905696,0.8760420000180602,380.01329859998077,None,ScrollUp,정답입니다,380.01329859998077,None,380.01329859998077,None,380.01329859998077,None,380.01329859998077,None,380.79025369999,None,380.79025369999,381.29022950003855,,,,,,,,,,,,,,,,014,2022-05-11_19h55.10.698,FishGame,2022.1.1,58.95673698773692,
,8,나를 보내줘,6,Green,A,0,0,ScrollUp,ScrollDown,Green.png,3,NonTarget,NonTarget,,,,,0,0,0,0,,,,,,,,,,,,,,,,,,,,,0,7,7,7,,,,,,,,,,,,,,,,,,,,,,,,,,,,,,,,,,,,,,,,,,,,,,,,,,,,,,,,,,,,,,,,,,,,,,,,,1.7700617164373398,1.3108747999649495,381.91519640013576,None,ScrollUp,정답입니다,381.91519640013576,None,381.91519640013576,None,381.91519640013576,None,381.91519640013576,None,383.1235664000269,None,383.1235664000269,383.6257342000026,,,,,,,,,,,,,,,,014,2022-05-11_19h55.10.698,FishGame,2022.1.1,58.95673698773692,
,9,넌 자신만만해,3,Orange,B,4.833333333333334,4.333333333333333,ScrollUp,ScrollDown,Orange.png,3,Neutral,Neutral,,,,,0,0,0,0,,,,,,,,,,,,,,,,,,,,,0,8,8,8,,,,,,,,,,,,,,,,,,,,,,,,,,,,,,,,,,,,,,,,,,,,,,,,,,,,,,,,,,,,,,,,,,,,,,,,,1.837962955236435,1.213181999977678,384.24514949996956,None,ScrollUp,정답입니다,384.24514949996956,None,384.24514949996956,None,384.24514949996956,None,384.24514949996956,None,385.35672010015696,None,385.35672010015696,385.8589334001299,,,,,,,,,,,,,,,,014,2022-05-11_19h55.10.698,FishGame,2022.1.1,58.95673698773692,
,10,넌 탐욕스러워,5,Green,A,2.25,2.1,ScrollDown,ScrollUp,Green.png,3,Negative,Incongruent,,,,,0,0,0,0,,,,,,,,,,,,,,,,,,,,,0,9,9,9,,,,,,,,,,,,,,,,,,,,,,,,,,,,,,,,,,,,,,,,,,,,,,,,,,,,,,,,,,,,,,,,,,,,,,,,,1.0077160497506459,0.928180200047791,386.48182700015604,None,ScrollDown,정답입니다,386.48182700015604,None,386.48182700015604,None,386.48182700015604,None,386.48182700015604,None,387.3067292999476,None,387.3067292999476,387.80676389997825,,,,,,,,,,,,,,,,014,2022-05-11_19h55.10.698,FishGame,2022.1.1,58.95673698773692,
,11,넌 인기있어,2,Green,A,5.458333333333333,4.5,ScrollDown,ScrollUp,Green.png,3,Positive,Congruent,,,,,0,0,0,0,,,,,,,,,,,,,,,,,,,,,0,10,10,10,,,,,,,,,,,,,,,,,,,,,,,,,,,,,,,,,,,,,,,,,,,,,,,,,,,,,,,,,,,,,,,,,,,,,,,,,1.1851851791143417,0.8422815999947488,388.43138700001873,None,ScrollDown,정답입니다,388.43138700001873,None,388.43138700001873,None,388.43138700001873,None,388.43138700001873,None,389.17329890001565,None,389.17329890001565,389.67329970002174,,,,,,,,,,,,,,,,014,2022-05-11_19h55.10.698,FishGame,2022.1.1,58.95673698773692,
,12,나를 데려가줘,6,Orange,B,0,0,ScrollDown,ScrollUp,Orange.png,3,NonTarget,NonTarget,,,,,0,0,0,0,,,,,,,,,,,,,,,,,,,,,0,11,11,11,,,,,,,,,,,,,,,,,,,,,,,,,,,,,,,,,,,,,,,,,,,,,,,,,,,,,,,,,,,,,,,,,,,,,,,,,1.0756172637144725,1.227901600068435,390.300053199986,None,ScrollDown,정답입니다,390.300053199986,None,390.300053199986,None,390.300053199986,None,390.300053199986,None,391.4232751999516,None,391.4232751999516,391.9233359999489,,,,,,,,,,,,,,,,014,2022-05-11_19h55.10.698,FishGame,2022.1.1,58.95673698773692,
,13,넌 뛰어나,2,Orange,B,6.166666666666667,4,ScrollUp,ScrollDown,Orange.png,3,Positive,Incongruent,,,,,0,0,0,0,,,,,,,,,,,,,,,,,,,,,0,12,12,12,,,,,,,,,,,,,,,,,,,,,,,,,,,,,,,,,,,,,,,,,,,,,,,,,,,,,,,,,,,,,,,,,,,,,,,,,1.7160493781169257,1.2762148000765592,392.5491065001115,None,ScrollUp,정답입니다,392.5491065001115,None,392.5491065001115,None,392.5491065001115,None,392.5491065001115,None,393.7254683000501,None,393.7254683000501,394.242351999972,,,,,,,,,,,,,,,,014,2022-05-11_19h55.10.698,FishGame,2022.1.1,58.95673698773692,
,14,넌 낙관적이야,1,Green,A,5.75,5.8,ScrollDown,ScrollUp,Green.png,3,Positive,Congruent,,,,,0,0,0,0,,,,,,,,,,,,,,,,,,,,,0,13,13,13,,,,,,,,,,,,,,,,,,,,,,,,,,,,,,,,,,,,,,,,,,,,,,,,,,,,,,,,,,,,,,,,,,,,,,,,,1.0385802288850148,1.2098314000759274,394.85379069997,None,ScrollDown,정답입니다,394.85379069997,None,394.85379069997,None,394.85379069997,None,394.85379069997,None,395.9562514000572,None,395.9562514000572,396.4563146000728,,,,,,,,,,,,,,,,014,2022-05-11_19h55.10.698,FishGame,2022.1.1,58.95673698773692,
,15,넌 산만해,4,Orange,B,2.695652173913043,3.033333333333333,ScrollUp,ScrollDown,Orange.png,3,Negative,Congruent,,,,,0,0,0,0,,,,,,,,,,,,,,,,,,,,,0,14,14,14,,,,,,,,,,,,,,,,,,,,,,,,,,,,,,,,,,,,,,,,,,,,,,,,,,,,,,,,,,,,,,,,,,,,,,,,,1.7546296268701553,1.1784246999304742,397.08540210011415,None,ScrollUp,정답입니다,397.08540210011415,None,397.08540210011415,None,397.08540210011415,None,397.08540210011415,None,398.15883690002374,None,398.15883690002374,398.6588867001701,,,,,,,,,,,,,,,,014,2022-05-11_19h55.10.698,FishGame,2022.1.1,58.95673698773692,
,16,나를 보내줘,6,Green,A,0,0,ScrollUp,ScrollDown,Green.png,3,NonTarget,NonTarget,,,,,0,0,0,0,,,,,,,,,,,,,,,,,,,,,0,15,15,15,,,,,,,,,,,,,,,,,,,,,,,,,,,,,,,,,,,,,,,,,,,,,,,,,,,,,,,,,,,,,,,,,,,,,,,,,1.7746913582086563,1.162591600092128,399.2739336001687,None,ScrollUp,정답입니다,399.2739336001687,None,399.2739336001687,None,399.2739336001687,None,399.2739336001687,None,400.33974510012195,None,400.33974510012195,400.83981329994276,,,,,,,,,,,,,,,,014,2022-05-11_19h55.10.698,FishGame,2022.1.1,58.95673698773692,
,17,넌 교활해,5,Orange,B,2.333333333333333,2.133333333333333,ScrollUp,ScrollDown,Orange.png,3,Negative,Congruent,,,,,0,0,0,0,,,,,,,,,,,,,,,,,,,,,0,16,16,16,,,,,,,,,,,,,,,,,,,,,,,,,,,,,,,,,,,,,,,,,,,,,,,,,,,,,,,,,,,,,,,,,,,,,,,,,1.7407407512267432,1.1092008999548852,401.4667778001167,None,ScrollUp,정답입니다,401.4667778001167,None,401.4667778001167,None,401.4667778001167,None,401.4667778001167,None,402.4730690999422,None,402.4730690999422,402.9753066999838,,,,,,,,,,,,,,,,014,2022-05-11_19h55.10.698,FishGame,2022.1.1,58.95673698773692,
,18,나를 보내줘,6,Green,A,0,0,ScrollUp,ScrollDown,Green.png,3,NonTarget,NonTarget,,,,,0,0,0,0,,,,,,,,,,,,,,,,,,,,,0,17,17,17,,,,,,,,,,,,,,,,,,,,,,,,,,,,,,,,,,,,,,,,,,,,,,,,,,,,,,,,,,,,,,,,,,,,,,,,,1.6203703756133714,1.1151936000678688,403.59654520009644,None,ScrollUp,정답입니다,403.59654520009644,None,403.59654520009644,None,403.59654520009644,None,403.59654520009644,None,404.6028336000163,None,404.6028336000163,405.1061376000289,,,,,,,,,,,,,,,,014,2022-05-11_19h55.10.698,FishGame,2022.1.1,58.95673698773692,
,19,넌 불친절해,5,Orange,B,2.208333333333333,2.033333333333333,ScrollUp,ScrollDown,Orange.png,3,Negative,Congruent,,,,,0,0,0,0,,,,,,,,,,,,,,,,,,,,,0,18,18,18,,,,,,,,,,,,,,,,,,,,,,,,,,,,,,,,,,,,,,,,,,,,,,,,,,,,,,,,,,,,,,,,,,,,,,,,,1.6234567910432816,1.0117627000436187,405.7302282000892,None,ScrollUp,정답입니다,405.7302282000892,None,405.7302282000892,None,405.7302282000892,None,405.7302282000892,None,406.6394173000008,None,406.6394173000008,407.1394891999662,,,,,,,,,,,,,,,,014,2022-05-11_19h55.10.698,FishGame,2022.1.1,58.95673698773692,
,20,넌 지적이야,2,Orange,B,5.75,4.366666666666666,ScrollUp,ScrollDown,Orange.png,3,Positive,Incongruent,,,,,0,0,0,0,,,,,,,,,,,,,,,,,,,,,0,19,19,19,,,,,,,,,,,,,,,,,,,,,,,,,,,,,,,,,,,,,,,,,,,,,,,,,,,,,,,,,,,,,,,,,,,,,,,,,1.652777781089147,0.8921673002187163,407.7678896000143,None,ScrollUp,정답입니다,407.7678896000143,None,407.7678896000143,None,407.7678896000143,None,407.7678896000143,None,408.5585924000479,None,408.5585924000479,409.0586980001535,,,,,,,,,,,,,,,,014,2022-05-11_19h55.10.698,FishGame,2022.1.1,58.95673698773692,
,21,넌 우유부단해,4,Green,A,2.666666666666667,3.166666666666667,ScrollDown,ScrollUp,Green.png,3,Negative,Incongruent,,,,,0,0,0,0,,,,,,,,,,,,,,,,,,,,,0,20,20,20,,,,,,,,,,,,,,,,,,,,,,,,,,,,,,,,,,,,,,,,,,,,,,,,,,,,,,,,,,,,,,,,,,,,,,,,,1.0709876716136932,1.0125225000083447,409.6839835999999,None,ScrollDown,정답입니다,409.6839835999999,None,409.6839835999999,None,409.6839835999999,None,409.6839835999999,None,410.5892761000432,None,410.5892761000432,411.089345500106,,,,,,,,,,,,,,,,014,2022-05-11_19h55.10.698,FishGame,2022.1.1,58.95673698773692,
,22,나를 데려가줘,6,Orange,B,0,0,ScrollDown,ScrollUp,Orange.png,3,NonTarget,NonTarget,,,,,0,0,0,0,,,,,,,,,,,,,,,,,,,,,0,21,21,21,,,,,,,,,,,,,,,,,,,,,,,,,,,,,,,,,,,,,,,,,,,,,,,,,,,,,,,,,,,,,,,,,,,,,,,,,1.28703702489535,2.1121215999592096,411.7115285000764,None,ScrollDown,정답입니다,411.7115285000764,None,411.7115285000764,None,411.7115285000764,None,411.7115285000764,None,413.72512590000406,None,413.72512590000406,414.2252024000045,,,,,,,,,,,,,,,,014,2022-05-11_19h55.10.698,FishGame,2022.1.1,58.95673698773692,
,23,넌 성실해,1,Orange,B,6.041666666666666,5.7,ScrollUp,ScrollDown,Orange.png,3,Positive,Incongruent,,,,,0,0,0,0,,,,,,,,,,,,,,,,,,,,,0,22,22,22,,,,,,,,,,,,,,,,,,,,,,,,,,,,,,,,,,,,,,,,,,,,,,,,,,,,,,,,,,,,,,,,,,,,,,,,,1.7206790198882422,1.1291813999414444,414.84294580016285,None,ScrollUp,정답입니다,414.84294580016285,None,414.84294580016285,None,414.84294580016285,None,414.84294580016285,None,415.8728438001126,None,415.8728438001126,416.3749860001262,,,,,,,,,,,,,,,,014,2022-05-11_19h55.10.698,FishGame,2022.1.1,58.95673698773692,
,24,넌 현실주의적이야,3,Green,A,4.625,4.4,ScrollDown,ScrollUp,Green.png,3,Neutral,Neutral,,,,,0,0,0,0,,,,,,,,,,,,,,,,,,,,,0,23,23,23,,,,,,,,,,,,,,,,,,,,,,,,,,,,,,,,,,,,,,,,,,,,,,,,,,,,,,,,,,,,,,,,,,,,,,,,,1.1574074029922485,1.1262202998623252,416.9937516001519,None,ScrollDown,정답입니다,416.9937516001519,None,416.9937516001519,None,416.9937516001519,None,416.9937516001519,None,418.02277659997344,None,418.02277659997344,418.52487329998985,,,,,,,,,,,,,,,,014,2022-05-11_19h55.10.698,FishGame,2022.1.1,58.95673698773692,
,25,넌 진실돼,1,Green,A,6.625,5.566666666666666,ScrollDown,ScrollUp,Green.png,3,Positive,Congruent,,,,,0,0,0,0,,,,,,,,,,,,,,,,,,,,,0,24,24,24,,,,,,,,,,,,,,,,,,,,,,,,,,,,,,,,,,,,,,,,,,,,,,,,,,,,,,,,,,,,,,,,,,,,,,,,,1.2885802388191223,0.9114863001741469,419.15006270003505,None,ScrollDown,정답입니다,419.15006270003505,None,419.15006270003505,None,419.15006270003505,None,419.15006270003505,None,419.9560229999479,None,419.9560229999479,420.45820630015805,,,,,,,,,,,,,,,,014,2022-05-11_19h55.10.698,FishGame,2022.1.1,58.95673698773692,
,26,넌 천진난만해,3,Orange,B,4.958333333333334,4.833333333333333,ScrollUp,ScrollDown,Orange.png,3,Neutral,Neutral,,,,,0,0,0,0,,,,,,,,,,,,,,,,,,,,,0,25,25,25,,,,,,,,,,,,,,,,,,,,,,,,,,,,,,,,,,,,,,,,,,,,,,,,,,,,,,,,,,,,,,,,,,,,,,,,,1.7484567960103354,0.9109987001866102,421.0825169000309,None,ScrollUp,정답입니다,421.0825169000309,None,421.0825169000309,None,421.0825169000309,None,421.0825169000309,None,421.88933999999426,None,421.88933999999426,422.38934180000797,,,,,,,,,,,,,,,,014,2022-05-11_19h55.10.698,FishGame,2022.1.1,58.95673698773692,
,27,넌 교양없어,5,Green,A,2.416666666666667,2.2,ScrollDown,ScrollUp,Green.png,3,Negative,Incongruent,,,,,0,0,0,0,,,,,,,,,,,,,,,,,,,,,0,26,26,26,,,,,,,,,,,,,,,,,,,,,,,,,,,,,,,,,,,,,,,,,,,,,,,,,,,,,,,,,,,,,,,,,,,,,,,,,1.10030863682429,1.2614681001286954,423.0116161000915,None,ScrollDown,정답입니다,423.0116161000915,None,423.0116161000915,None,423.0116161000915,None,423.0116161000915,None,424.1726514000911,None,424.1726514000911,424.6725174000021,,,,,,,,,,,,,,,,014,2022-05-11_19h55.10.698,FishGame,2022.1.1,58.95673698773692,
,28,나를 보내줘,6,Green,A,0,0,ScrollUp,ScrollDown,Green.png,3,NonTarget,NonTarget,,,,,0,0,0,0,,,,,,,,,,,,,,,,,,,,,0,27,27,27,,,,,,,,,,,,,,,,,,,,,,,,,,,,,,,,,,,,,,,,,,,,,,,,,,,,,,,,,,,,,,,,,,,,,,,,,1.5632716032365956,1.0280571999028325,425.29699490009807,None,ScrollUp,정답입니다,425.29699490009807,None,425.29699490009807,None,425.29699490009807,None,425.29699490009807,None,426.2225587000139,None,426.2225587000139,426.72269110009074,,,,,,,,,,,,,,,,014,2022-05-11_19h55.10.698,FishGame,2022.1.1,58.95673698773692,
,29,넌 엉뚱스러워,3,Green,A,4.166666666666667,4.133333333333334,ScrollDown,ScrollUp,Green.png,3,Neutral,Neutral,,,,,0,0,0,0,,,,,,,,,,,,,,,,,,,,,0,28,28,28,,,,,,,,,,,,,,,,,,,,,,,,,,,,,,,,,,,,,,,,,,,,,,,,,,,,,,,,,,,,,,,,,,,,,,,,,1.1018518507480621,1.4595987999346107,427.35132000013255,None,ScrollDown,정답입니다,427.35132000013255,None,427.35132000013255,None,427.35132000013255,None,427.35132000013255,None,428.70586020010523,None,428.70586020010523,429.20587279996835,,,,,,,,,,,,,,,,014,2022-05-11_19h55.10.698,FishGame,2022.1.1,58.95673698773692,
,30,넌 무지해,4,Orange,B,2.541666666666667,3.066666666666667,ScrollUp,ScrollDown,Orange.png,3,Negative,Congruent,,,,,0,0,0,0,,,,,,,,,,,,,,,,,,,,,0,29,29,29,,,,,,,,,,,,,,,,,,,,,,,,,,,,,,,,,,,,,,,,,,,,,,,,,,,,,,,,,,,,,,,,,,,,,,,,,1.7422839403152466,0.9259812999516726,429.830910500139,None,ScrollUp,정답입니다,429.830910500139,None,429.830910500139,None,429.830910500139,None,429.830910500139,None,430.65583540010266,None,430.65583540010266,431.1580128001515,,,,,,,,,,,,,,,,014,2022-05-11_19h55.10.698,FishGame,2022.1.1,58.95673698773692,
,31,넌 음울해,5,Orange,B,2.25,2.233333333333333,ScrollUp,ScrollDown,Orange.png,3,Negative,Congruent,,,,,0,0,0,0,,,,,,,,,,,,,,,,,,,,,0,30,30,30,,,,,,,,,,,,,,,,,,,,,,,,,,,,,,,,,,,,,,,,,,,,,,,,,,,,,,,,,,,,,,,,,,,,,,,,,1.6404320945342383,0.9926956999115646,431.7885215000715,None,ScrollUp,정답입니다,431.7885215000715,None,431.7885215000715,None,431.7885215000715,None,431.7885215000715,None,432.67238530004397,None,432.67238530004397,433.17467269999906,,,,,,,,,,,,,,,,014,2022-05-11_19h55.10.698,FishGame,2022.1.1,58.95673698773692,
,32,넌 냉소적이야,5,Green,A,2.916666666666667,2.4,ScrollDown,ScrollUp,Green.png,3,Negative,Incongruent,,,,,0,0,0,0,,,,,,,,,,,,,,,,,,,,,0,31,31,31,,,,,,,,,,,,,,,,,,,,,,,,,,,,,,,,,,,,,,,,,,,,,,,,,,,,,,,,,,,,,,,,,,,,,,,,,1.1250000099341075,1.0760328001342714,433.79445870011114,None,ScrollDown,정답입니다,433.79445870011114,None,433.79445870011114,None,433.79445870011114,None,433.79445870011114,None,434.7746600001119,None,434.7746600001119,435.2746699999552,,,,,,,,,,,,,,,,014,2022-05-11_19h55.10.698,FishGame,2022.1.1,58.95673698773692,
,33,나를 데려가줘,6,Orange,B,0,0,ScrollDown,ScrollUp,Orange.png,3,NonTarget,NonTarget,,,,,0,0,0,0,,,,,,,,,,,,,,,,,,,,,0,32,32,32,,,,,,,,,,,,,,,,,,,,,,,,,,,,,,,,,,,,,,,,,,,,,,,,,,,,,,,,,,,,,,,,,,,,,,,,,1.1327160547176998,1.1151176001876593,435.89687080006115,None,ScrollDown,정답입니다,435.89687080006115,None,435.89687080006115,None,435.89687080006115,None,435.89687080006115,None,436.9113392001018,None,436.9113392001018,437.42449220013805,,,,,,,,,,,,,,,,014,2022-05-11_19h55.10.698,FishGame,2022.1.1,58.95673698773692,
,34,넌 쾌활해,1,Green,A,5.541666666666666,5.733333333333333,ScrollDown,ScrollUp,Green.png,3,Positive,Congruent,,,,,0,0,0,0,,,,,,,,,,,,,,,,,,,,,0,33,33,33,,,,,,,,,,,,,,,,,,,,,,,,,,,,,,,,,,,,,,,,,,,,,,,,,,,,,,,,,,,,,,,,,,,,,,,,,1.2253086417913437,1.1763226999901235,438.04864690010436,None,ScrollDown,정답입니다,438.04864690010436,None,438.04864690010436,None,438.04864690010436,None,438.04864690010436,None,439.1222692001611,None,439.1222692001611,439.6245165001601,,,,,,,,,,,,,,,,014,2022-05-11_19h55.10.698,FishGame,2022.1.1,58.95673698773692,
,35,나를 보내줘,6,Green,A,0,0,ScrollUp,ScrollDown,Green.png,3,NonTarget,NonTarget,,,,,0,0,0,0,,,,,,,,,,,,,,,,,,,,,0,34,34,34,,,,,,,,,,,,,,,,,,,,,,,,,,,,,,,,,,,,,,,,,,,,,,,,,,,,,,,,,,,,,,,,,,,,,,,,,1.7746913582086563,1.659589600050822,440.2419410001021,None,ScrollUp,정답입니다,440.2419410001021,None,440.2419410001021,None,440.2419410001021,None,440.2419410001021,None,441.8056091000326,None,441.8056091000326,442.30792900011875,,,,,,,,,,,,,,,,014,2022-05-11_19h55.10.698,FishGame,2022.1.1,58.95673698773692,
,36,넌 명랑해,1,Orange,B,5.739130434782609,5.666666666666667,ScrollUp,ScrollDown,Orange.png,3,Positive,Incongruent,,,,,0,0,0,0,,,,,,,,,,,,,,,,,,,,,0,35,35,35,,,,,,,,,,,,,,,,,,,,,,,,,,,,,,,,,,,,,,,,,,,,,,,,,,,,,,,,,,,,,,,,,,,,,,,,,1.5987654303510985,1.3094432998914272,442.9316205000505,None,ScrollUp,정답입니다,442.9316205000505,None,442.9316205000505,None,442.9316205000505,None,442.9316205000505,None,444.13882019999437,None,444.13882019999437,444.6411168000195,,,,,,,,,,,,,,,,014,2022-05-11_19h55.10.698,FishGame,2022.1.1,58.95673698773692,
,37,넌 멍해,4,Green,A,2.833333333333333,3.4,ScrollDown,ScrollUp,Green.png,3,Negative,Incongruent,,,,,0,0,0,0,,,,,,,,,,,,,,,,,,,,,0,36,36,36,,,,,,,,,,,,,,,,,,,,,,,,,,,,,,,,,,,,,,,,,,,,,,,,,,,,,,,,,,,,,,,,,,,,,,,,,1.2700617214043937,0.8594663999974728,445.26482230005786,None,ScrollDown,정답입니다,445.26482230005786,None,445.26482230005786,None,445.26482230005786,None,445.26482230005786,None,446.0221913999412,None,446.0221913999412,446.52223920007236,,,,,,,,,,,,,,,,014,2022-05-11_19h55.10.698,FishGame,2022.1.1,58.95673698773692,
,38,나를 데려가줘,6,Orange,B,0,0,ScrollDown,ScrollUp,Orange.png,3,NonTarget,NonTarget,,,,,0,0,0,0,,,,,,,,,,,,,,,,,,,,,0,37,37,37,,,,,,,,,,,,,,,,,,,,,,,,,,,,,,,,,,,,,,,,,,,,,,,,,,,,,,,,,,,,,,,,,,,,,,,,,1.2222222139437993,1.0596101998817176,447.1434218001086,None,ScrollDown,정답입니다,447.1434218001086,None,447.1434218001086,None,447.1434218001086,None,447.1434218001086,None,448.10537370014936,None,448.10537370014936,448.60760180000216,,,,,,,,,,,,,,,,014,2022-05-11_19h55.10.698,FishGame,2022.1.1,58.95673698773692,
,39,넌 현명해,2,Green,A,6.541666666666666,4.533333333333333,ScrollDown,ScrollUp,Green.png,3,Positive,Congruent,,,,,0,0,0,0,,,,,,,,,,,,,,,,,,,,,0,38,38,38,,,,,,,,,,,,,,,,,,,,,,,,,,,,,,,,,,,,,,,,,,,,,,,,,,,,,,,,,,,,,,,,,,,,,,,,,1.0370370149612427,1.3763488000258803,449.22756589995697,None,ScrollDown,정답입니다,449.22756589995697,None,449.22756589995697,None,449.22756589995697,None,449.22756589995697,None,450.50532160000876,None,450.50532160000876,451.00773499999195,,,,,,,,,,,,,,,,014,2022-05-11_19h55.10.698,FishGame,2022.1.1,58.95673698773692,
,40,넌 수줍어,3,Orange,B,3.541666666666666,4.366666666666666,ScrollUp,ScrollDown,Orange.png,3,Neutral,Neutral,,,,,0,0,0,0,,,,,,,,,,,,,,,,,,,,,0,39,39,39,,,,,,,,,,,,,,,,,,,,,,,,,,,,,,,,,,,,,,,,,,,,,,,,,,,,,,,,,,,,,,,,,,,,,,,,,1.703703703979651,1.009186299983412,451.6326115000993,None,ScrollUp,정답입니다,451.6326115000993,None,451.6326115000993,None,451.6326115000993,None,451.6326115000993,None,452.5387490000576,None,452.5387490000576,453.04084090003744,,,,,,,,,,,,,,,,014,2022-05-11_19h55.10.698,FishGame,2022.1.1,58.95673698773692,
,41,나를 데려가줘,6,Orange,B,0,0,ScrollDown,ScrollUp,Orange.png,3,NonTarget,NonTarget,,,,,0,0,0,0,,,,,,,,,,,,,,,,,,,,,0,40,40,40,,,,,,,,,,,,,,,,,,,,,,,,,,,,,,,,,,,,,,,,,,,,,,,,,,,,,,,,,,,,,,,,,,,,,,,,,1.0787036915620167,1.42812140006572,453.66980280005373,None,ScrollDown,정답입니다,453.66980280005373,None,453.66980280005373,None,453.66980280005373,None,453.66980280005373,None,454.98864390002564,None,454.98864390002564,455.4908350999467,,,,,,,,,,,,,,,,014,2022-05-11_19h55.10.698,FishGame,2022.1.1,58.95673698773692,
,42,넌 성숙해,2,Orange,B,5.833333333333333,4.533333333333333,ScrollUp,ScrollDown,Orange.png,3,Positive,Incongruent,,,,,0,0,0,0,,,,,,,,,,,,,,,,,,,,,0,41,41,41,,,,,,,,,,,,,,,,,,,,,,,,,,,,,,,,,,,,,,,,,,,,,,,,,,,,,,,,,,,,,,,,,,,,,,,,,1.6188271616895995,1.1086464999243617,456.11198100005277,None,ScrollUp,정답입니다,456.11198100005277,None,456.11198100005277,None,456.11198100005277,None,456.11198100005277,None,457.1216436000541,None,457.1216436000541,457.6216989001259,,,,,,,,,,,,,,,,014,2022-05-11_19h55.10.698,FishGame,2022.1.1,58.95673698773692,
,1,넌 매력적이야,2,Orange,B,6.125,4.666666666666667,ScrollUp,ScrollDown,Orange.png,4,Positive,Incongruent,,,,,0,0,0,0,,,,,,,,,,,,,,,,,,,,,,,,,0,0,0,0,,,,,,,,,,,,,,,,,,,,,,,,,,,,489.53770720004104,491.0404113000259,491.0737240000162,492.02701810002327,492.07672160002403,493.0379169001244,493.02125940006226,None,,,,,,,,,,,,,,,,,,,,,,,,,,,,,,,,,,1.5524691368142762,1.1272774999961257,494.11658710008487,None,ScrollUp,정답입니다,494.11658710008487,None,494.11658710008487,None,494.11658710008487,None,494.11658710008487,None,495.1378326001577,None,495.1378326001577,495.63787099998444,458.1216963001061,None,458.1216963001061,None,-0.17037037,-0.14444445,1,0,0,0.015963090118020773,None,488.1210304000415,None,,,014,2022-05-11_19h55.10.698,FishGame,2022.1.1,58.95673698773692,
,2,나를 보내줘,6,Green,A,0,0,ScrollUp,ScrollDown,Green.png,4,NonTarget,NonTarget,,,,,0,0,0,0,,,,,,,,,,,,,,,,,,,,,,,,,0,1,1,1,,,,,,,,,,,,,,,,,,,,,,,,,,,,,,,,,,,,,,,,,,,,,,,,,,,,,,,,,,,,,,,,,,,,,1.6929012313485146,1.2281857000198215,496.26204279996455,None,ScrollUp,정답입니다,496.26204279996455,None,496.26204279996455,None,496.26204279996455,None,496.26204279996455,None,497.38771910010837,None,497.38771910010837,497.8898905001115,,,,,,,,,,,,,,,,014,2022-05-11_19h55.10.698,FishGame,2022.1.1,58.95673698773692,
,3,넌 조심스러워,3,Green,A,4.791666666666666,4.666666666666667,ScrollDown,ScrollUp,Green.png,4,Neutral,Neutral,,,,,0,0,0,0,,,,,,,,,,,,,,,,,,,,,,,,,0,2,2,2,,,,,,,,,,,,,,,,,,,,,,,,,,,,,,,,,,,,,,,,,,,,,,,,,,,,,,,,,,,,,,,,,,,,,1.1774691343307495,0.9948386000469327,498.51272980007343,None,ScrollDown,정답입니다,498.51272980007343,None,498.51272980007343,None,498.51272980007343,None,498.51272980007343,None,499.4043829999864,None,499.4043829999864,499.9044529001694,,,,,,,,,,,,,,,,014,2022-05-11_19h55.10.698,FishGame,2022.1.1,58.95673698773692,
,4,넌 철학적이야,3,Orange,B,4.5,4.266666666666667,ScrollUp,ScrollDown,Orange.png,4,Neutral,Neutral,,,,,0,0,0,0,,,,,,,,,,,,,,,,,,,,,,,,,0,3,3,3,,,,,,,,,,,,,,,,,,,,,,,,,,,,,,,,,,,,,,,,,,,,,,,,,,,,,,,,,,,,,,,,,,,,,1.6450617238879204,0.9587675998918712,500.53760290006176,None,ScrollUp,정답입니다,500.53760290006176,None,500.53760290006176,None,500.53760290006176,None,500.53760290006176,None,501.3873773999512,None,501.3873773999512,501.88744490011595,,,,,,,,,,,,,,,,014,2022-05-11_19h55.10.698,FishGame,2022.1.1,58.95673698773692,
,5,넌 쩨쩨해,5,Green,A,2.375,2.133333333333333,ScrollDown,ScrollUp,Green.png,4,Negative,Incongruent,,,,,0,0,0,0,,,,,,,,,,,,,,,,,,,,,,,,,0,4,4,4,,,,,,,,,,,,,,,,,,,,,,,,,,,,,,,,,,,,,,,,,,,,,,,,,,,,,,,,,,,,,,,,,,,,,1.1296296268701553,1.277696599951014,502.5073651999701,None,ScrollDown,정답입니다,502.5073651999701,None,502.5073651999701,None,502.5073651999701,None,502.5073651999701,None,503.6900339999702,None,503.6900339999702,504.1899131999817,,,,,,,,,,,,,,,,014,2022-05-11_19h55.10.698,FishGame,2022.1.1,58.95673698773692,
,6,나를 데려가줘,6,Orange,B,0,0,ScrollDown,ScrollUp,Orange.png,4,NonTarget,NonTarget,,,,,0,0,0,0,,,,,,,,,,,,,,,,,,,,,,,,,0,5,5,5,,,,,,,,,,,,,,,,,,,,,,,,,,,,,,,,,,,,,,,,,,,,,,,,,,,,,,,,,,,,,,,,,,,,,1.2839506218830743,1.1559817001689225,504.81953730015084,None,ScrollDown,정답입니다,504.81953730015084,None,504.81953730015084,None,504.81953730015084,None,504.81953730015084,None,505.86620369995944,None,505.86620369995944,506.37307370011695,,,,,,,,,,,,,,,,014,2022-05-11_19h55.10.698,FishGame,2022.1.1,58.95673698773692,
,7,넌 고집불통이야,5,Orange,B,2.875,2,ScrollUp,ScrollDown,Orange.png,4,Negative,Congruent,,,,,0,0,0,0,,,,,,,,,,,,,,,,,,,,,,,,,0,6,6,6,,,,,,,,,,,,,,,,,,,,,,,,,,,,,,,,,,,,,,,,,,,,,,,,,,,,,,,,,,,,,,,,,,,,,1.5509259259949126,0.9446618999354541,506.99829360004514,None,ScrollUp,정답입니다,506.99829360004514,None,506.99829360004514,None,506.99829360004514,None,506.99829360004514,None,507.8375262999907,None,507.8375262999907,508.3397061000578,,,,,,,,,,,,,,,,014,2022-05-11_19h55.10.698,FishGame,2022.1.1,58.95673698773692,
,8,넌 무심해,4,Green,A,2.875,3.2,ScrollDown,ScrollUp,Green.png,4,Negative,Incongruent,,,,,0,0,0,0,,,,,,,,,,,,,,,,,,,,,,,,,0,7,7,7,,,,,,,,,,,,,,,,,,,,,,,,,,,,,,,,,,,,,,,,,,,,,,,,,,,,,,,,,,,,,,,,,,,,,1.0617283880710602,0.859762700041756,508.9645150001161,None,ScrollDown,정답입니다,508.9645150001161,None,508.9645150001161,None,508.9645150001161,None,508.9645150001161,None,509.72085899999365,None,509.72085899999365,510.22294020000845,,,,,,,,,,,,,,,,014,2022-05-11_19h55.10.698,FishGame,2022.1.1,58.95673698773692,
,9,넌 정겨워,1,Green,A,5.791666666666667,5.666666666666667,ScrollDown,ScrollUp,Green.png,4,Positive,Congruent,,,,,0,0,0,0,,,,,,,,,,,,,,,,,,,,,,,,,0,8,8,8,,,,,,,,,,,,,,,,,,,,,,,,,,,,,,,,,,,,,,,,,,,,,,,,,,,,,,,,,,,,,,,,,,,,,1.1172839403152466,1.0781519000884145,510.85522000002675,None,ScrollDown,정답입니다,510.85522000002675,None,510.85522000002675,None,510.85522000002675,None,510.85522000002675,None,511.8208117999602,None,511.8208117999602,512.3229471000377,,,,,,,,,,,,,,,,014,2022-05-11_19h55.10.698,FishGame,2022.1.1,58.95673698773692,
,10,나를 데려가줘,6,Orange,B,0,0,ScrollDown,ScrollUp,Orange.png,4,NonTarget,NonTarget,,,,,0,0,0,0,,,,,,,,,,,,,,,,,,,,,,,,,0,9,9,9,,,,,,,,,,,,,,,,,,,,,,,,,,,,,,,,,,,,,,,,,,,,,,,,,,,,,,,,,,,,,,,,,,,,,1.1234567960103352,1.1611230000853539,512.9443471999839,None,ScrollDown,정답입니다,512.9443471999839,None,512.9443471999839,None,512.9443471999839,None,512.9443471999839,None,514.0040796000976,None,514.0040796000976,514.5063843999524,,,,,,,,,,,,,,,,014,2022-05-11_19h55.10.698,FishGame,2022.1.1,58.95673698773692,
,11,넌 체제순응적이야,4,Orange,B,3,3.6,ScrollUp,ScrollDown,Orange.png,4,Negative,Congruent,,,,,0,0,0,0,,,,,,,,,,,,,,,,,,,,,,,,,0,10,10,10,,,,,,,,,,,,,,,,,,,,,,,,,,,,,,,,,,,,,,,,,,,,,,,,,,,,,,,,,,,,,,,,,,,,,1.5540123445292315,0.8771791998296976,515.1335214001592,None,ScrollUp,정답입니다,515.1335214001592,None,515.1335214001592,None,515.1335214001592,None,515.1335214001592,None,515.9040288000833,None,515.9040288000833,516.4040475001093,,,,,,,,,,,,,,,,014,2022-05-11_19h55.10.698,FishGame,2022.1.1,58.95673698773692,
,12,나를 보내줘,6,Green,A,0,0,ScrollUp,ScrollDown,Green.png,4,NonTarget,NonTarget,,,,,0,0,0,0,,,,,,,,,,,,,,,,,,,,,,,,,0,11,11,11,,,,,,,,,,,,,,,,,,,,,,,,,,,,,,,,,,,,,,,,,,,,,,,,,,,,,,,,,,,,,,,,,,,,,1.5771604912976422,1.2593335998244584,517.0260962999891,None,ScrollUp,정답입니다,517.0260962999891,None,517.0260962999891,None,517.0260962999891,None,517.0260962999891,None,518.1873620999977,None,518.1873620999977,518.689530899981,,,,,,,,,,,,,,,,014,2022-05-11_19h55.10.698,FishGame,2022.1.1,58.95673698773692,
,13,넌 박식해,2,Green,A,5.625,3.933333333333333,ScrollDown,ScrollUp,Green.png,4,Positive,Congruent,,,,,0,0,0,0,,,,,,,,,,,,,,,,,,,,,,,,,0,12,12,12,,,,,,,,,,,,,,,,,,,,,,,,,,,,,,,,,,,,,,,,,,,,,,,,,,,,,,,,,,,,,,,,,,,,,1.121913582086563,0.9926583000924438,519.3106385001447,None,ScrollDown,정답입니다,519.3106385001447,None,519.3106385001447,None,519.3106385001447,None,519.3106385001447,None,520.2039809001144,None,520.2039809001144,520.7062449001241,,,,,,,,,,,,,,,,014,2022-05-11_19h55.10.698,FishGame,2022.1.1,58.95673698773692,
,14,나를 보내줘,6,Green,A,0,0,ScrollUp,ScrollDown,Green.png,4,NonTarget,NonTarget,,,,,0,0,0,0,,,,,,,,,,,,,,,,,,,,,,,,,0,13,13,13,,,,,,,,,,,,,,,,,,,,,,,,,,,,,,,,,,,,,,,,,,,,,,,,,,,,,,,,,,,,,,,,,,,,,1.765432099501292,1.3280801998917013,521.3331993001048,None,ScrollUp,정답입니다,521.3331993001048,None,521.3331993001048,None,521.3331993001048,None,521.3331993001048,None,522.5539371001069,None,522.5539371001069,523.053900100058,,,,,,,,,,,,,,,,014,2022-05-11_19h55.10.698,FishGame,2022.1.1,58.95673698773692,
,15,넌 침착해,1,Orange,B,5.458333333333333,5.566666666666666,ScrollUp,ScrollDown,Orange.png,4,Positive,Incongruent,,,,,0,0,0,0,,,,,,,,,,,,,,,,,,,,,,,,,0,14,14,14,,,,,,,,,,,,,,,,,,,,,,,,,,,,,,,,,,,,,,,,,,,,,,,,,,,,,,,,,,,,,,,,,,,,,1.8024691343307495,1.4772636000998318,523.685328300111,None,ScrollUp,정답입니다,523.685328300111,None,523.685328300111,None,523.685328300111,None,523.685328300111,None,525.0538832000457,None,525.0538832000457,525.5560884000733,,,,,,,,,,,,,,,,014,2022-05-11_19h55.10.698,FishGame,2022.1.1,58.95673698773692,
,16,나를 데려가줘,6,Orange,B,0,0,ScrollDown,ScrollUp,Orange.png,4,NonTarget,NonTarget,,,,,0,0,0,0,,,,,,,,,,,,,,,,,,,,,,,,,0,15,15,15,,,,,,,,,,,,,,,,,,,,,,,,,,,,,,,,,,,,,,,,,,,,,,,,,,,,,,,,,,,,,,,,,,,,,1.0200617114702861,1.4423619001172483,526.1838328000158,None,ScrollDown,정답입니다,526.1838328000158,None,526.1838328000158,None,526.1838328000158,None,526.1838328000158,None,527.5201640001033,None,527.5201640001033,528.020233400166,,,,,,,,,,,,,,,,014,2022-05-11_19h55.10.698,FishGame,2022.1.1,58.95673698773692,
,17,넌 행복해,1,Green,A,6.416666666666666,6.166666666666667,ScrollDown,ScrollUp,Green.png,4,Positive,Congruent,,,,,0,0,0,0,,,,,,,,,,,,,,,,,,,,,,,,,0,16,16,16,,,,,,,,,,,,,,,,,,,,,,,,,,,,,,,,,,,,,,,,,,,,,,,,,,,,,,,,,,,,,,,,,,,,,1.10030863682429,1.1784781999886036,528.6430771001615,None,ScrollDown,정답입니다,528.6430771001615,None,528.6430771001615,None,528.6430771001615,None,528.6430771001615,None,529.7226226001512,None,529.7226226001512,530.22279540007,,,,,,,,,,,,,,,,014,2022-05-11_19h55.10.698,FishGame,2022.1.1,58.95673698773692,
,18,넌 겸손해,2,Orange,B,5.791666666666667,4.766666666666667,ScrollUp,ScrollDown,Orange.png,4,Positive,Incongruent,,,,,0,0,0,0,,,,,,,,,,,,,,,,,,,,,,,,,0,17,17,17,,,,,,,,,,,,,,,,,,,,,,,,,,,,,,,,,,,,,,,,,,,,,,,,,,,,,,,,,,,,,,,,,,,,,1.6682098706563315,1.160503399791196,530.8485352999996,None,ScrollUp,정답입니다,530.8485352999996,None,530.8485352999996,None,530.8485352999996,None,530.8485352999996,None,531.903727900004,None,531.903727900004,532.4037431001198,,,,,,,,,,,,,,,,014,2022-05-11_19h55.10.698,FishGame,2022.1.1,58.95673698773692,
,19,나를 보내줘,6,Green,A,0,0,ScrollUp,ScrollDown,Green.png,4,NonTarget,NonTarget,,,,,0,0,0,0,,,,,,,,,,,,,,,,,,,,,,,,,0,18,18,18,,,,,,,,,,,,,,,,,,,,,,,,,,,,,,,,,,,,,,,,,,,,,,,,,,,,,,,,,,,,,,,,,,,,,1.6882716019948325,1.3282103000674397,533.0277513000183,None,ScrollUp,정답입니다,533.0277513000183,None,533.0277513000183,None,533.0277513000183,None,533.0277513000183,None,534.2560109000187,None,534.2560109000187,534.75592590007,,,,,,,,,,,,,,,,014,2022-05-11_19h55.10.698,FishGame,2022.1.1,58.95673698773692,
,20,넌 의심없어,3,Green,A,4.166666666666667,4.6,ScrollDown,ScrollUp,Green.png,4,Neutral,Neutral,,,,,0,0,0,0,,,,,,,,,,,,,,,,,,,,,,,,,0,19,19,19,,,,,,,,,,,,,,,,,,,,,,,,,,,,,,,,,,,,,,,,,,,,,,,,,,,,,,,,,,,,,,,,,,,,,1.1342592686414719,1.2096110000275075,535.374670300167,None,ScrollDown,정답입니다,535.374670300167,None,535.374670300167,None,535.374670300167,None,535.374670300167,None,536.4868386001326,None,536.4868386001326,536.9869709000923,,,,,,,,,,,,,,,,014,2022-05-11_19h55.10.698,FishGame,2022.1.1,58.95673698773692,
,21,넌 시시해,4,Green,A,2.666666666666667,2.966666666666667,ScrollDown,ScrollUp,Green.png,4,Negative,Incongruent,,,,,0,0,0,0,,,,,,,,,,,,,,,,,,,,,,,,,0,20,20,20,,,,,,,,,,,,,,,,,,,,,,,,,,,,,,,,,,,,,,,,,,,,,,,,,,,,,,,,,,,,,,,,,,,,,1.1759259204069774,1.1112585999071598,537.607065499993,None,ScrollDown,정답입니다,537.607065499993,None,537.607065499993,None,537.607065499993,None,537.607065499993,None,538.6202029001433,None,538.6202029001433,539.1202873000875,,,,,,,,,,,,,,,,014,2022-05-11_19h55.10.698,FishGame,2022.1.1,58.95673698773692,
,22,나를 데려가줘,6,Orange,B,0,0,ScrollDown,ScrollUp,Orange.png,4,NonTarget,NonTarget,,,,,0,0,0,0,,,,,,,,,,,,,,,,,,,,,,,,,0,21,21,21,,,,,,,,,,,,,,,,,,,,,,,,,,,,,,,,,,,,,,,,,,,,,,,,,,,,,,,,,,,,,,,,,,,,,1.2175925970077515,1.5269029999617487,539.743324500043,None,ScrollDown,정답입니다,539.743324500043,None,539.743324500043,None,539.743324500043,None,539.743324500043,None,541.1700967999641,None,541.1700967999641,541.6723032000009,,,,,,,,,,,,,,,,014,2022-05-11_19h55.10.698,FishGame,2022.1.1,58.95673698773692,
,23,넌 무정해,5,Green,A,2.5,2.2,ScrollDown,ScrollUp,Green.png,4,Negative,Incongruent,,,,,0,0,0,0,,,,,,,,,,,,,,,,,,,,,,,,,0,22,22,22,,,,,,,,,,,,,,,,,,,,,,,,,,,,,,,,,,,,,,,,,,,,,,,,,,,,,,,,,,,,,,,,,,,,,1.0740740497907002,1.112304599955678,542.2865353000816,None,ScrollDown,정답입니다,542.2865353000816,None,542.2865353000816,None,542.2865353000816,None,542.2865353000816,None,543.3056202000007,None,543.3056202000007,543.803486400051,,,,,,,,,,,,,,,,014,2022-05-11_19h55.10.698,FishGame,2022.1.1,58.95673698773692,
,24,넌 긍정적이야,1,Orange,B,6.041666666666667,6.066666666666666,ScrollUp,ScrollDown,Orange.png,4,Positive,Incongruent,,,,,0,0,0,0,,,,,,,,,,,,,,,,,,,,,,,,,0,23,23,23,,,,,,,,,,,,,,,,,,,,,,,,,,,,,,,,,,,,,,,,,,,,,,,,,,,,,,,,,,,,,,,,,,,,,1.7314814925193787,1.3093330999836326,544.4390643001534,None,ScrollUp,정답입니다,544.4390643001534,None,544.4390643001534,None,544.4390643001534,None,544.4390643001534,None,545.6367944001686,None,545.6367944001686,546.1389596001245,,,,,,,,,,,,,,,,014,2022-05-11_19h55.10.698,FishGame,2022.1.1,58.95673698773692,
,25,나를 보내줘,6,Green,A,0,0,ScrollUp,ScrollDown,Green.png,4,NonTarget,NonTarget,,,,,0,0,0,0,,,,,,,,,,,,,,,,,,,,,,,,,0,24,24,24,,,,,,,,,,,,,,,,,,,,,,,,,,,,,,,,,,,,,,,,,,,,,,,,,,,,,,,,,,,,,,,,,,,,,1.8101851791143417,1.5282558999024332,546.7689215000719,None,ScrollUp,정답입니다,546.7689215000719,None,546.7689215000719,None,546.7689215000719,None,546.7689215000719,None,548.186756500043,None,548.186756500043,548.6867339001037,,,,,,,,,,,,,,,,014,2022-05-11_19h55.10.698,FishGame,2022.1.1,58.95673698773692,
,26,넌 시기심이 많아,5,Orange,B,2.458333333333333,2.233333333333333,ScrollUp,ScrollDown,Orange.png,4,Negative,Congruent,,,,,0,0,0,0,,,,,,,,,,,,,,,,,,,,,,,,,0,25,25,25,,,,,,,,,,,,,,,,,,,,,,,,,,,,,,,,,,,,,,,,,,,,,,,,,,,,,,,,,,,,,,,,,,,,,1.6203703756133714,1.3426584999542683,549.3213230001274,None,ScrollUp,정답입니다,549.3213230001274,None,549.3213230001274,None,549.3213230001274,None,549.3213230001274,None,550.5531476000324,None,550.5531476000324,551.0556087000296,,,,,,,,,,,,,,,,014,2022-05-11_19h55.10.698,FishGame,2022.1.1,58.95673698773692,
,27,넌 탁월해,2,Green,A,5.708333333333334,4.5,ScrollDown,ScrollUp,Green.png,4,Positive,Congruent,,,,,0,0,0,0,,,,,,,,,,,,,,,,,,,,,,,,,0,26,26,26,,,,,,,,,,,,,,,,,,,,,,,,,,,,,,,,,,,,,,,,,,,,,,,,,,,,,,,,,,,,,,,,,,,,,1.10030863682429,1.0782125999685377,551.6850318999495,None,ScrollDown,정답입니다,551.6850318999495,None,551.6850318999495,None,551.6850318999495,None,551.6850318999495,None,552.6531841999386,None,552.6531841999386,553.1532618999481,,,,,,,,,,,,,,,,014,2022-05-11_19h55.10.698,FishGame,2022.1.1,58.95673698773692,
,28,나를 데려가줘,6,Orange,B,0,0,ScrollDown,ScrollUp,Orange.png,4,NonTarget,NonTarget,,,,,0,0,0,0,,,,,,,,,,,,,,,,,,,,,,,,,0,27,27,27,,,,,,,,,,,,,,,,,,,,,,,,,,,,,,,,,,,,,,,,,,,,,,,,,,,,,,,,,,,,,,,,,,,,,1.2685185074806213,2.244838699931279,553.7782440001611,None,ScrollDown,정답입니다,553.7782440001611,None,553.7782440001611,None,553.7782440001611,None,553.7782440001611,None,555.9220615001395,None,555.9220615001395,556.4220376999583,,,,,,,,,,,,,,,,014,2022-05-11_19h55.10.698,FishGame,2022.1.1,58.95673698773692,
,29,넌 조용해,3,Orange,B,4.333333333333333,4.166666666666667,ScrollUp,ScrollDown,Orange.png,4,Neutral,Neutral,,,,,0,0,0,0,,,,,,,,,,,,,,,,,,,,,,,,,0,28,28,28,,,,,,,,,,,,,,,,,,,,,,,,,,,,,,,,,,,,,,,,,,,,,,,,,,,,,,,,,,,,,,,,,,,,,1.5756172835826874,1.376389100216329,557.0503623001277,None,ScrollUp,정답입니다,557.0503623001277,None,557.0503623001277,None,557.0503623001277,None,557.0503623001277,None,558.3197529001627,None,558.3197529001627,558.8198190999683,,,,,,,,,,,,,,,,014,2022-05-11_19h55.10.698,FishGame,2022.1.1,58.95673698773692,
,30,넌 다정해,1,Green,A,5.833333333333334,5.7,ScrollDown,ScrollUp,Green.png,4,Positive,Congruent,,,,,0,0,0,0,,,,,,,,,,,,,,,,,,,,,,,,,0,29,29,29,,,,,,,,,,,,,,,,,,,,,,,,,,,,,,,,,,,,,,,,,,,,,,,,,,,,,,,,,,,,,,,,,,,,,1.0679012437661488,0.9779686001129448,559.4455560001079,None,ScrollDown,정답입니다,559.4455560001079,None,559.4455560001079,None,559.4455560001079,None,559.4455560001079,None,560.3197558999527,None,560.3197558999527,560.8219451999757,,,,,,,,,,,,,,,,014,2022-05-11_19h55.10.698,FishGame,2022.1.1,58.95673698773692,
,31,넌 능력있어,2,Orange,B,6.166666666666666,4.6,ScrollUp,ScrollDown,Orange.png,4,Positive,Incongruent,,,,,0,0,0,0,,,,,,,,,,,,,,,,,,,,,,,,,0,30,30,30,,,,,,,,,,,,,,,,,,,,,,,,,,,,,,,,,,,,,,,,,,,,,,,,,,,,,,,,,,,,,,,,,,,,,1.5524691368142762,1.2761234999634326,561.4454214000143,None,ScrollUp,정답입니다,561.4454214000143,None,561.4454214000143,None,561.4454214000143,None,561.4454214000143,None,562.6197079000995,None,562.6197079000995,563.1197277000174,,,,,,,,,,,,,,,,014,2022-05-11_19h55.10.698,FishGame,2022.1.1,58.95673698773692,
,32,넌 불쾌해,5,Green,A,2.125,1.933333333333333,ScrollDown,ScrollUp,Green.png,4,Negative,Incongruent,,,,,0,0,0,0,,,,,,,,,,,,,,,,,,,,,,,,,0,31,31,31,,,,,,,,,,,,,,,,,,,,,,,,,,,,,,,,,,,,,,,,,,,,,,,,,,,,,,,,,,,,,,,,,,,,,1.140432099501292,1.1771876001730561,563.7451872001402,None,ScrollDown,정답입니다,563.7451872001402,None,563.7451872001402,None,563.7451872001402,None,563.7451872001402,None,564.8196167000569,None,564.8196167000569,565.3218138001394,,,,,,,,,,,,,,,,014,2022-05-11_19h55.10.698,FishGame,2022.1.1,58.95673698773692,
,33,나를 데려가줘,6,Orange,B,0,0,ScrollDown,ScrollUp,Orange.png,4,NonTarget,NonTarget,,,,,0,0,0,0,,,,,,,,,,,,,,,,,,,,,,,,,0,32,32,32,,,,,,,,,,,,,,,,,,,,,,,,,,,,,,,,,,,,,,,,,,,,,,,,,,,,,,,,,,,,,,,,,,,,,1.1867283930381138,1.7449906999245286,565.9414892001078,None,ScrollDown,정답입니다,565.9414892001078,None,565.9414892001078,None,565.9414892001078,None,565.9414892001078,None,567.5863028999884,None,567.5863028999884,568.0863420001697,,,,,,,,,,,,,,,,014,2022-05-11_19h55.10.698,FishGame,2022.1.1,58.95673698773692,
,34,넌 유순해,3,Green,A,4.458333333333333,5,ScrollDown,ScrollUp,Green.png,4,Neutral,Neutral,,,,,0,0,0,0,,,,,,,,,,,,,,,,,,,,,,,,,0,33,33,33,,,,,,,,,,,,,,,,,,,,,,,,,,,,,,,,,,,,,,,,,,,,,,,,,,,,,,,,,,,,,,,,,,,,,1,1.176004400011152,568.7124012999702,None,ScrollDown,정답입니다,568.7124012999702,None,568.7124012999702,None,568.7124012999702,None,568.7124012999702,None,569.7859476001468,None,569.7859476001468,570.2860071000177,,,,,,,,,,,,,,,,014,2022-05-11_19h55.10.698,FishGame,2022.1.1,58.95673698773692,
,35,넌 근심스러워,4,Orange,B,2.708333333333333,3.133333333333333,ScrollUp,ScrollDown,Orange.png,4,Negative,Congruent,,,,,0,0,0,0,,,,,,,,,,,,,,,,,,,,,,,,,0,34,34,34,,,,,,,,,,,,,,,,,,,,,,,,,,,,,,,,,,,,,,,,,,,,,,,,,,,,,,,,,,,,,,,,,,,,,1.5462962966412306,1.311575299827382,570.9131718999706,None,NoResponse,무응답입니다,570.9131718999706,None,570.9131718999706,None,570.9131718999706,None,570.9131718999706,None,572.1198746999726,None,572.1198746999726,572.621932100039,,,,,,,,,,,,,,,,014,2022-05-11_19h55.10.698,FishGame,2022.1.1,58.95673698773692,
,36,넌 세련되었어,2,Green,A,5.5,4.6,ScrollDown,ScrollUp,Green.png,4,Positive,Congruent,,,,,0,0,0,0,,,,,,,,,,,,,,,,,,,,,,,,,0,35,35,35,,,,,,,,,,,,,,,,,,,,,,,,,,,,,,,,,,,,,,,,,,,,,,,,,,,,,,,,,,,,,,,,,,,,,1.0725308855374653,2.027229400118813,573.2495448000263,None,ScrollDown,정답입니다,573.2495448000263,None,573.2495448000263,None,573.2495448000263,None,573.2495448000263,None,575.1695077000186,None,575.1695077000186,575.6695034999866,,,,,,,,,,,,,,,,014,2022-05-11_19h55.10.698,FishGame,2022.1.1,58.95673698773692,
,37,나를 보내줘,6,Green,A,0,0,ScrollUp,ScrollDown,Green.png,4,NonTarget,NonTarget,,,,,0,0,0,0,,,,,,,,,,,,,,,,,,,,,,,,,0,36,36,36,,,,,,,,,,,,,,,,,,,,,,,,,,,,,,,,,,,,,,,,,,,,,,,,,,,,,,,,,,,,,,,,,,,,,1.7546296268701553,1.3448840999044478,576.2905389000662,None,ScrollUp,정답입니다,576.2905389000662,None,576.2905389000662,None,576.2905389000662,None,576.2905389000662,None,577.5360697000287,None,577.5360697000287,578.0360652999952,,,,,,,,,,,,,,,,014,2022-05-11_19h55.10.698,FishGame,2022.1.1,58.95673698773692,
,38,넌 확고해,3,Orange,B,4.708333333333334,4.566666666666666,ScrollUp,ScrollDown,Orange.png,4,Neutral,Neutral,,,,,0,0,0,0,,,,,,,,,,,,,,,,,,,,,,,,,0,37,37,37,,,,,,,,,,,,,,,,,,,,,,,,,,,,,,,,,,,,,,,,,,,,,,,,,,,,,,,,,,,,,,,,,,,,,1.7114197611808777,1.057281499961391,578.6639197999611,None,ScrollUp,정답입니다,578.6639197999611,None,578.6639197999611,None,578.6639197999611,None,578.6639197999611,None,579.6146289999597,None,579.6146289999597,580.1191412000917,,,,,,,,,,,,,,,,014,2022-05-11_19h55.10.698,FishGame,2022.1.1,58.95673698773692,
,39,넌 이해심이 많아,1,Orange,B,6.041666666666668,5.533333333333333,ScrollUp,ScrollDown,Orange.png,4,Positive,Incongruent,,,,,0,0,0,0,,,,,,,,,,,,,,,,,,,,,,,,,0,38,38,38,,,,,,,,,,,,,,,,,,,,,,,,,,,,,,,,,,,,,,,,,,,,,,,,,,,,,,,,,,,,,,,,,,,,,1.7824074029922485,1.1284636000636965,580.7418293999508,None,ScrollUp,정답입니다,580.7418293999508,None,580.7418293999508,None,580.7418293999508,None,580.7418293999508,None,581.7691083000973,None,581.7691083000973,582.2691494999453,,,,,,,,,,,,,,,,014,2022-05-11_19h55.10.698,FishGame,2022.1.1,58.95673698773692,
,40,나를 보내줘,6,Green,A,0,0,ScrollUp,ScrollDown,Green.png,4,NonTarget,NonTarget,,,,,0,0,0,0,,,,,,,,,,,,,,,,,,,,,,,,,0,39,39,39,,,,,,,,,,,,,,,,,,,,,,,,,,,,,,,,,,,,,,,,,,,,,,,,,,,,,,,,,,,,,,,,,,,,,1.0864197611808777,1.259297400014475,582.8923673999961,None,ScrollDown,오답입니다,582.8923673999961,None,582.8923673999961,None,582.8923673999961,None,582.8923673999961,None,584.0527198000345,None,584.0527198000345,584.5580043999944,,,,,,,,,,,,,,,,014,2022-05-11_19h55.10.698,FishGame,2022.1.1,58.95673698773692,
,41,넌 거칠어,4,Green,A,2.625,3.033333333333333,ScrollDown,ScrollUp,Green.png,4,Negative,Incongruent,,,,,0,0,0,0,,,,,,,,,,,,,,,,,,,,,,,,,0,40,40,40,,,,,,,,,,,,,,,,,,,,,,,,,,,,,,,,,,,,,,,,,,,,,,,,,,,,,,,,,,,,,,,,,,,,,1.141975313425064,1.1794475999195129,585.1742404999677,None,ScrollDown,정답입니다,585.1742404999677,None,585.1742404999677,None,585.1742404999677,None,585.1742404999677,None,586.2548183000181,None,586.2548183000181,586.7548367001582,,,,,,,,,,,,,,,,014,2022-05-11_19h55.10.698,FishGame,2022.1.1,58.95673698773692,
,42,넌 변덕맞아,5,Orange,B,2.75,2.166666666666667,ScrollUp,ScrollDown,Orange.png,4,Negative,Congruent,,,,,0,0,0,0,,,,,,,,,,,,,,,,,,,,,,,,,0,41,41,41,,,,,,,,,,,,,,,,,,,,,,,,,,,,,,,,,,,,,,,,,,,,,,,,,,,,,,,,,,,,,,,,,,,,,1.7685185273488362,1.0921741002239287,587.3842146000825,None,ScrollUp,정답입니다,587.3842146000825,None,587.3842146000825,None,587.3842146000825,None,587.3842146000825,None,588.3691953001544,None,588.3691953001544,588.8691909001209,,,,,,,,,,,,,,,,014,2022-05-11_19h55.10.698,FishGame,2022.1.1,58.95673698773692,
,43,나를 데려가줘,6,Orange,B,0,0,ScrollDown,ScrollUp,Orange.png,4,NonTarget,NonTarget,,,,,0,0,0,0,,,,,,,,,,,,,,,,,,,,,,,,,0,42,42,42,,,,,,,,,,,,,,,,,,,,,,,,,,,,,,,,,,,,,,,,,,,,,,,,,,,,,,,,,,,,,,,,,,,,,1.0277777810891469,1.1282516000792384,589.4934935001656,None,ScrollDown,정답입니다,589.4934935001656,None,589.4934935001656,None,589.4934935001656,None,589.4934935001656,None,590.5191123001277,None,590.5191123001277,591.0213027000427,,,,,,,,,,,,,,,,014,2022-05-11_19h55.10.698,FishGame,2022.1.1,58.95673698773692,
,44,넌 외로워,4,Orange,B,2.833333333333333,3.3,ScrollUp,ScrollDown,Orange.png,4,Negative,Congruent,,,,,0,0,0,0,,,,,,,,,,,,,,,,,,,,,,,,,0,43,43,43,,,,,,,,,,,,,,,,,,,,,,,,,,,,,,,,,,,,,,,,,,,,,,,,,,,,,,,,,,,,,,,,,,,,,1.5679012325902781,0.9783232000190765,591.6432223999873,None,ScrollUp,정답입니다,591.6432223999873,None,591.6432223999873,None,591.6432223999873,None,591.6432223999873,None,592.5192110000644,None,592.5192110000644,593.0191049000714,,,,,,,,,,,,,,,,014,2022-05-11_19h55.10.698,FishGame,2022.1.1,58.95673698773692,
,1,넌 불평스러워,5,Green,A,2.25,2.066666666666667,ScrollDown,ScrollUp,Green.png,5,Negative,Incongruent,,,,,0,0,0,0,,,,,,,,,,,,,,,,,,,,,,,,,,,,,0,0,0,0,,,,,,,,,,,,,,,,,,,,,,,,625.5183848000597,627.0182624999434,627.0540726000909,628.0184138000477,628.0516693000682,629.0071439000312,629.0071439000312,None,,,,,,,,,,,,,,,,,,,,,,,,,,,,,,,,,,1,1.439987099962309,630.1161436000839,None,ScrollDown,정답입니다,630.1161436000839,None,630.1161436000839,None,630.1161436000839,None,630.1161436000839,None,631.451686500106,None,631.451686500106,631.9539614999667,593.5192400000524,None,593.5192400000524,None,-0.17777778,-0.13148148,1,0,0,0.01598169025965035,None,623.5206945999525,None,,,014,2022-05-11_19h55.10.698,FishGame,2022.1.1,58.95673698773692,
,2,나를 보내줘,6,Green,A,0,0,ScrollUp,ScrollDown,Green.png,5,NonTarget,NonTarget,,,,,0,0,0,0,,,,,,,,,,,,,,,,,,,,,,,,,,,,,0,1,1,1,,,,,,,,,,,,,,,,,,,,,,,,,,,,,,,,,,,,,,,,,,,,,,,,,,,,,,,,,,,,,,,,,1.6682098706563315,1.6088443000335246,632.5788720999844,None,ScrollUp,정답입니다,632.5788720999844,None,632.5788720999844,None,632.5788720999844,None,632.5788720999844,None,634.0849359000567,None,634.0849359000567,634.5849405999761,,,,,,,,,,,,,,,,014,2022-05-11_19h55.10.698,FishGame,2022.1.1,58.95673698773692,
,3,넌 다재다능해,2,Orange,B,6.208333333333333,4.5,ScrollUp,ScrollDown,Orange.png,5,Positive,Incongruent,,,,,0,0,0,0,,,,,,,,,,,,,,,,,,,,,,,,,,,,,0,2,2,2,,,,,,,,,,,,,,,,,,,,,,,,,,,,,,,,,,,,,,,,,,,,,,,,,,,,,,,,,,,,,,,,,1.6358024651805558,1.3947373998817056,635.2146817001048,None,ScrollUp,정답입니다,635.2146817001048,None,635.2146817001048,None,635.2146817001048,None,635.2146817001048,None,636.5015610000119,None,636.5015610000119,637.0036432000343,,,,,,,,,,,,,,,,014,2022-05-11_19h55.10.698,FishGame,2022.1.1,58.95673698773692,
,4,넌 과감해,3,Green,A,4.833333333333334,4.6,ScrollDown,ScrollUp,Green.png,5,Neutral,Neutral,,,,,0,0,0,0,,,,,,,,,,,,,,,,,,,,,,,,,,,,,0,3,3,3,,,,,,,,,,,,,,,,,,,,,,,,,,,,,,,,,,,,,,,,,,,,,,,,,,,,,,,,,,,,,,,,,1.0509259402751923,1.2444245000369847,637.6268674000166,None,ScrollDown,정답입니다,637.6268674000166,None,637.6268674000166,None,637.6268674000166,None,637.6268674000166,None,638.7681222001556,None,638.7681222001556,639.2703605999704,,,,,,,,,,,,,,,,014,2022-05-11_19h55.10.698,FishGame,2022.1.1,58.95673698773692,
,5,넌 고분고분해,3,Orange,B,3.75,4.033333333333333,ScrollUp,ScrollDown,Orange.png,5,Neutral,Neutral,,,,,0,0,0,0,,,,,,,,,,,,,,,,,,,,,,,,,,,,,0,4,4,4,,,,,,,,,,,,,,,,,,,,,,,,,,,,,,,,,,,,,,,,,,,,,,,,,,,,,,,,,,,,,,,,,1.549382715175549,1.2091890000738204,639.89782990003,None,NoResponse,무응답입니다,639.89782990003,None,639.89782990003,None,639.89782990003,None,639.89782990003,None,641.0013345000334,None,641.0013345000334,641.5014124000445,,,,,,,,,,,,,,,,014,2022-05-11_19h55.10.698,FishGame,2022.1.1,58.95673698773692,
,6,나를 보내줘,6,Green,A,0,0,ScrollUp,ScrollDown,Green.png,5,NonTarget,NonTarget,,,,,0,0,0,0,,,,,,,,,,,,,,,,,,,,,,,,,,,,,0,5,5,5,,,,,,,,,,,,,,,,,,,,,,,,,,,,,,,,,,,,,,,,,,,,,,,,,,,,,,,,,,,,,,,,,1.1466049303611119,0.9593827999196947,642.1251608999446,None,ScrollDown,오답입니다,642.1251608999446,None,642.1251608999446,None,642.1251608999446,None,642.1251608999446,None,642.9846808000002,None,642.9846808000002,643.4869713000953,,,,,,,,,,,,,,,,014,2022-05-11_19h55.10.698,FishGame,2022.1.1,58.95673698773692,
,7,넌 잘 잊어,4,Green,A,3,3.7,ScrollDown,ScrollUp,Green.png,5,Negative,Incongruent,,,,,0,0,0,0,,,,,,,,,,,,,,,,,,,,,,,,,,,,,0,6,6,6,,,,,,,,,,,,,,,,,,,,,,,,,,,,,,,,,,,,,,,,,,,,,,,,,,,,,,,,,,,,,,,,,1.1682098756233852,1.0091649000532925,644.1114491000772,None,ScrollDown,정답입니다,644.1114491000772,None,644.1114491000772,None,644.1114491000772,None,644.1114491000772,None,645.0176969999447,None,645.0176969999447,645.5177609999664,,,,,,,,,,,,,,,,014,2022-05-11_19h55.10.698,FishGame,2022.1.1,58.95673698773692,
,8,넌 탐구심이없어,4,Orange,B,2.833333333333333,3.066666666666667,ScrollUp,ScrollDown,Orange.png,5,Negative,Congruent,,,,,0,0,0,0,,,,,,,,,,,,,,,,,,,,,,,,,,,,,0,7,7,7,,,,,,,,,,,,,,,,,,,,,,,,,,,,,,,,,,,,,,,,,,,,,,,,,,,,,,,,,,,,,,,,,1.6496913532416024,1.6785663000773638,646.144859699998,None,ScrollUp,정답입니다,646.144859699998,None,646.144859699998,None,646.144859699998,None,646.144859699998,None,647.720336999977,None,647.720336999977,648.2203452000394,,,,,,,,,,,,,,,,014,2022-05-11_19h55.10.698,FishGame,2022.1.1,58.95673698773692,
,9,나를 데려가줘,6,Orange,B,0,0,ScrollDown,ScrollUp,Orange.png,5,NonTarget,NonTarget,,,,,0,0,0,0,,,,,,,,,,,,,,,,,,,,,,,,,,,,,0,8,8,8,,,,,,,,,,,,,,,,,,,,,,,,,,,,,,,,,,,,,,,,,,,,,,,,,,,,,,,,,,,,,,,,,1.2499999900658925,1.129503200063482,648.8435991001315,None,ScrollDown,정답입니다,648.8435991001315,None,648.8435991001315,None,648.8435991001315,None,648.8435991001315,None,649.8702914000023,None,649.8702914000023,650.3703996001277,,,,,,,,,,,,,,,,014,2022-05-11_19h55.10.698,FishGame,2022.1.1,58.95673698773692,
,10,넌 참되어,2,Green,A,6.041666666666664,4.733333333333333,ScrollDown,ScrollUp,Green.png,5,Positive,Congruent,,,,,0,0,0,0,,,,,,,,,,,,,,,,,,,,,,,,,,,,,0,9,9,9,,,,,,,,,,,,,,,,,,,,,,,,,,,,,,,,,,,,,,,,,,,,,,,,,,,,,,,,,,,,,,,,,1,1.0094021998811513,650.9926320000086,None,ScrollDown,정답입니다,650.9926320000086,None,650.9926320000086,None,650.9926320000086,None,650.9926320000086,None,651.9011693000793,None,651.9011693000793,652.4012297000736,,,,,,,,,,,,,,,,014,2022-05-11_19h55.10.698,FishGame,2022.1.1,58.95673698773692,
,11,넌 생기있어,1,Orange,B,5.875,5.633333333333334,ScrollUp,ScrollDown,Orange.png,5,Positive,Incongruent,,,,,0,0,0,0,,,,,,,,,,,,,,,,,,,,,,,,,,,,,0,10,10,10,,,,,,,,,,,,,,,,,,,,,,,,,,,,,,,,,,,,,,,,,,,,,,,,,,,,,,,,,,,,,,,,,1.9290123283863068,1.127636200049892,653.0237392000854,None,ScrollUp,정답입니다,653.0237392000854,None,653.0237392000854,None,653.0237392000854,None,653.0237392000854,None,654.0510824001394,None,654.0510824001394,654.5533474001568,,,,,,,,,,,,,,,,014,2022-05-11_19h55.10.698,FishGame,2022.1.1,58.95673698773692,
,12,넌 비사교적이야,4,Orange,B,2.875,2.9,ScrollUp,ScrollDown,Orange.png,5,Negative,Congruent,,,,,0,0,0,0,,,,,,,,,,,,,,,,,,,,,,,,,,,,,0,11,11,11,,,,,,,,,,,,,,,,,,,,,,,,,,,,,,,,,,,,,,,,,,,,,,,,,,,,,,,,,,,,,,,,,1.8935185074806213,1.0283247998449951,655.1767788999714,None,ScrollUp,정답입니다,655.1767788999714,None,655.1767788999714,None,655.1767788999714,None,655.1767788999714,None,656.1034137001261,None,656.1034137001261,656.6178022001404,,,,,,,,,,,,,,,,014,2022-05-11_19h55.10.698,FishGame,2022.1.1,58.95673698773692,
,13,나를 데려가줘,6,Orange,B,0,0,ScrollDown,ScrollUp,Orange.png,5,NonTarget,NonTarget,,,,,0,0,0,0,,,,,,,,,,,,,,,,,,,,,,,,,,,,,0,12,12,12,,,,,,,,,,,,,,,,,,,,,,,,,,,,,,,,,,,,,,,,,,,,,,,,,,,,,,,,,,,,,,,,,1.0462962985038757,1.0446135001257062,657.2232174000237,None,ScrollDown,정답입니다,657.2232174000237,None,657.2232174000237,None,657.2232174000237,None,657.2232174000237,None,658.1676624000538,None,658.1676624000538,658.6698682999704,,,,,,,,,,,,,,,,014,2022-05-11_19h55.10.698,FishGame,2022.1.1,58.95673698773692,
,14,넌 고독해,4,Green,A,2.916666666666667,3.233333333333333,ScrollDown,ScrollUp,Green.png,5,Negative,Incongruent,,,,,0,0,0,0,,,,,,,,,,,,,,,,,,,,,,,,,,,,,0,13,13,13,,,,,,,,,,,,,,,,,,,,,,,,,,,,,,,,,,,,,,,,,,,,,,,,,,,,,,,,,,,,,,,,,1.1373456716537476,1.2765190000645816,659.2874117000028,None,ScrollDown,정답입니다,659.2874117000028,None,659.2874117000028,None,659.2874117000028,None,659.2874117000028,None,660.4676447999664,None,660.4676447999664,660.9698441999499,,,,,,,,,,,,,,,,014,2022-05-11_19h55.10.698,FishGame,2022.1.1,58.95673698773692,
,15,넌 신경질적이야,5,Orange,B,2.375,2.233333333333333,ScrollUp,ScrollDown,Orange.png,5,Negative,Congruent,,,,,0,0,0,0,,,,,,,,,,,,,,,,,,,,,,,,,,,,,0,14,14,14,,,,,,,,,,,,,,,,,,,,,,,,,,,,,,,,,,,,,,,,,,,,,,,,,,,,,,,,,,,,,,,,,1.7592592686414719,1.14255590015091,661.60433500004,None,ScrollUp,정답입니다,661.60433500004,None,661.60433500004,None,661.60433500004,None,661.60433500004,None,662.6343008000404,None,662.6343008000404,663.1366183001082,,,,,,,,,,,,,,,,014,2022-05-11_19h55.10.698,FishGame,2022.1.1,58.95673698773692,
,16,넌 똑똑해,2,Orange,B,5.666666666666667,3.966666666666667,ScrollUp,ScrollDown,Orange.png,5,Positive,Incongruent,,,,,0,0,0,0,,,,,,,,,,,,,,,,,,,,,,,,,,,,,0,15,15,15,,,,,,,,,,,,,,,,,,,,,,,,,,,,,,,,,,,,,,,,,,,,,,,,,,,,,,,,,,,,,,,,,1.5771604912976422,1.1924389998894185,663.774416100001,None,ScrollUp,정답입니다,663.774416100001,None,663.774416100001,None,663.774416100001,None,663.774416100001,None,664.8508262000978,None,664.8508262000978,665.3530399000738,,,,,,,,,,,,,,,,014,2022-05-11_19h55.10.698,FishGame,2022.1.1,58.95673698773692,
,17,나를 보내줘,6,Green,A,0,0,ScrollUp,ScrollDown,Green.png,5,NonTarget,NonTarget,,,,,0,0,0,0,,,,,,,,,,,,,,,,,,,,,,,,,,,,,0,16,16,16,,,,,,,,,,,,,,,,,,,,,,,,,,,,,,,,,,,,,,,,,,,,,,,,,,,,,,,,,,,,,,,,,1.5771604912976422,1.1093726998660713,665.9749400999863,None,ScrollUp,정답입니다,665.9749400999863,None,665.9749400999863,None,665.9749400999863,None,665.9749400999863,None,666.9841676000506,None,666.9841676000506,667.4842773999553,,,,,,,,,,,,,,,,014,2022-05-11_19h55.10.698,FishGame,2022.1.1,58.95673698773692,
,18,넌 협조적이야,1,Green,A,5.625,5.666666666666667,ScrollDown,ScrollUp,Green.png,5,Positive,Congruent,,,,,0,0,0,0,,,,,,,,,,,,,,,,,,,,,,,,,,,,,0,17,17,17,,,,,,,,,,,,,,,,,,,,,,,,,,,,,,,,,,,,,,,,,,,,,,,,,,,,,,,,,,,,,,,,,1.0632716019948323,0.9756867999676615,668.1079311000649,None,ScrollDown,정답입니다,668.1079311000649,None,668.1079311000649,None,668.1079311000649,None,668.1079311000649,None,668.9893422999885,None,668.9893422999885,669.5008723000064,,,,,,,,,,,,,,,,014,2022-05-11_19h55.10.698,FishGame,2022.1.1,58.95673698773692,
,19,나를 데려가줘,6,Orange,B,0,0,ScrollDown,ScrollUp,Orange.png,5,NonTarget,NonTarget,,,,,0,0,0,0,,,,,,,,,,,,,,,,,,,,,,,,,,,,,0,18,18,18,,,,,,,,,,,,,,,,,,,,,,,,,,,,,,,,,,,,,,,,,,,,,,,,,,,,,,,,,,,,,,,,,1.1851851791143417,1.144809199962765,670.1227033000905,None,ScrollDown,정답입니다,670.1227033000905,None,670.1227033000905,None,670.1227033000905,None,670.1227033000905,None,671.1674063000828,None,671.1674063000828,671.667475100141,,,,,,,,,,,,,,,,014,2022-05-11_19h55.10.698,FishGame,2022.1.1,58.95673698773692,
,20,넌 몰인정해,5,Orange,B,2.541666666666667,2.066666666666667,ScrollUp,ScrollDown,Orange.png,5,Negative,Congruent,,,,,0,0,0,0,,,,,,,,,,,,,,,,,,,,,,,,,,,,,0,19,19,19,,,,,,,,,,,,,,,,,,,,,,,,,,,,,,,,,,,,,,,,,,,,,,,,,,,,,,,,,,,,,,,,,1.5833333345750966,0.9424451000522822,672.2960916000884,None,ScrollUp,정답입니다,672.2960916000884,None,672.2960916000884,None,672.2960916000884,None,672.2960916000884,None,673.134095299989,None,673.134095299989,673.6341440000106,,,,,,,,,,,,,,,,014,2022-05-11_19h55.10.698,FishGame,2022.1.1,58.95673698773692,
,21,나를 데려가줘,6,Orange,B,0,0,ScrollDown,ScrollUp,Orange.png,5,NonTarget,NonTarget,,,,,0,0,0,0,,,,,,,,,,,,,,,,,,,,,,,,,,,,,0,20,20,20,,,,,,,,,,,,,,,,,,,,,,,,,,,,,,,,,,,,,,,,,,,,,,,,,,,,,,,,,,,,,,,,,1.1759259204069774,1.2423024999443442,674.2692096000537,None,ScrollDown,정답입니다,674.2692096000537,None,674.2692096000537,None,674.2692096000537,None,674.2692096000537,None,675.4006350999698,None,675.4006350999698,675.90069889999,,,,,,,,,,,,,,,,014,2022-05-11_19h55.10.698,FishGame,2022.1.1,58.95673698773692,
,22,넌 순진해,3,Orange,B,4.125,4.166666666666667,ScrollUp,ScrollDown,Orange.png,5,Neutral,Neutral,,,,,0,0,0,0,,,,,,,,,,,,,,,,,,,,,,,,,,,,,0,21,21,21,,,,,,,,,,,,,,,,,,,,,,,,,,,,,,,,,,,,,,,,,,,,,,,,,,,,,,,,,,,,,,,,,1.723765422900518,1.8763075999449939,676.5251835000236,None,ScrollUp,정답입니다,676.5251835000236,None,676.5251835000236,None,676.5251835000236,None,676.5251835000236,None,678.3006931999698,None,678.3006931999698,678.8029818001669,,,,,,,,,,,,,,,,014,2022-05-11_19h55.10.698,FishGame,2022.1.1,58.95673698773692,
