name,TrialNum,Word,WordCategory,FishType,WordList,WordValence,WordReputation,CorrectResp,IncorrectResp,FishTypeFile,Round,WordType,Condition,LoopforOrange.thisRepN,LoopforOrange.thisTrialN,LoopforOrange.thisN,LoopforOrange.thisIndex,OrangeInstLoop.thisRepN,OrangeInstLoop.thisTrialN,OrangeInstLoop.thisN,OrangeInstLoop.thisIndex,OrangePrac.thisRepN,OrangePrac.thisTrialN,OrangePrac.thisN,OrangePrac.thisIndex,temp1.thisRepN,temp1.thisTrialN,temp1.thisN,temp1.thisIndex,OrangeRound1.thisRepN,OrangeRound1.thisTrialN,OrangeRound1.thisN,OrangeRound1.thisIndex,OrangeRound2.thisRepN,OrangeRound2.thisTrialN,OrangeRound2.thisN,OrangeRound2.thisIndex,OrangeRound3.thisRepN,OrangeRound3.thisTrialN,OrangeRound3.thisN,OrangeRound3.thisIndex,OrangeRound4.thisRepN,OrangeRound4.thisTrialN,OrangeRound4.thisN,OrangeRound4.thisIndex,OrangeRound5.thisRepN,OrangeRound5.thisTrialN,OrangeRound5.thisN,OrangeRound5.thisIndex,LoopForGreen.thisRepN,LoopForGreen.thisTrialN,LoopForGreen.thisN,LoopForGreen.thisIndex,text_2.started,text_2.stopped,text_3.started,text_3.stopped,key_resp.keys,key_resp.rt,key_resp.started,key_resp.stopped,PassI_2.started,PassI_2.stopped,PassInst_2.keys,PassInst_2.rt,PassInst_2.started,PassInst_2.stopped,mouse_2.x,mouse_2.y,mouse_2.leftButton,mouse_2.midButton,mouse_2.rightButton,mouse_2.started,mouse_2.stopped,image.started,image.stopped,text_5.started,text_5.stopped,text_6.started,text_6.stopped,text_7.started,text_7.stopped,text_8.started,text_8.stopped,slider_2.response,slider_2.rt,slider_2.started,slider_2.stopped,Response_2,Feedback_2,BackGround_2.started,BackGround_2.stopped,Fish_2.started,Fish_2.stopped,WordBox_2.started,WordBox_2.stopped,Words_2.started,Words_2.stopped,BackGround_Feedback_2.started,BackGround_Feedback_2.stopped,Feedbacks_2.started,Feedbacks_2.stopped,Continue_or_not.keys,Continue_or_not.rt,Continue_or_not.started,Continue_or_not.stopped,image_3.started,image_3.stopped,mouse_3.x,mouse_3.y,mouse_3.leftButton,mouse_3.midButton,mouse_3.rightButton,mouse_3.started,mouse_3.stopped,startmain.started,startmain.stopped,slider.response,slider.rt,slider.started,slider.stopped,Response,Feedback,BackGround.started,BackGround.stopped,Fish.started,Fish.stopped,WordBox.started,WordBox.stopped,Words.started,Words.stopped,BackGround_Feedback.started,BackGround_Feedback.stopped,Feedbacks.started,Feedbacks.stopped,text.started,text.stopped,break_interval.started,break_interval.stopped,mouse.x,mouse.y,mouse.leftButton,mouse.midButton,mouse.rightButton,mouse.started,mouse.stopped,stratnextround.started,stratnextround.stopped,endgame.started,endgame.stopped,participant,date,expName,psychopyVersion,frameRate,
,,,,,,,,,,,,,,,,,,,,,,,,,,,,,,,,,,,,,,,,,,,,,,,,,,,,,,17.89970529999846,None,17.89970529999846,None,space,1.1316611000002013,18.385152100003324,None,,,,,,,,,,,,,,,,,,,,,,,,,,,,,,,,,,,,,,,,,,,,,,,,,,,,,,,,,,,,,,,,,,,,,,,,,,,,,,,,,,,,,,,,,,015,2022-05-12_11h01.43.280,FishGame,2022.1.1,60.00852121115023,
물고기과제_instruction(참가자용)OrangeVersion.mp4,,,,,,,,,,,,,,0,0,0,0,0,0,0,0,,,,,,,,,,,,,,,,,,,,,,,,,,,,,,,,,,,,,,,,,92.42825730000186,None,n,5.735842099995352,92.42825730000186,None,,,,,,,,,,,,,,,,,,,,,,,,,,,,,,,,,,,,,,,,,,,,,,,,,,,,,,,,,,,,,,,,,,,,,,,,,,,,,,,,,,,,015,2022-05-12_11h01.43.280,FishGame,2022.1.1,60.00852121115023,
,1,넌 교활해,5,Green,B,2.333333333333333,2.133333333333333,ScrollUp,ScrollDown,Green.png,practice,,,0,0,0,0,,,,,0,0,0,0,0,0,0,0,,,,,,,,,,,,,,,,,,,,,,,,,,,,,,,,,,,,,,,0.48333332,-0.23518519,1,0,0,0.5139931000012439,None,98.19480279999698,None,103.2003113000028,104.71368359999906,104.73041760000342,105.68038399999932,105.73036229999707,106.68039670000144,106.68039670000144,None,1.8302469104528427,1.9885065999988,107.98347150000336,None,ScrollUp,정답입니다,107.98347150000336,None,107.98347150000336,None,107.98347150000336,None,107.98347150000336,None,109.67783159999817,None,109.67783159999817,110.1779056000014,,,,,,,,,,,,,,,,,,,,,,,,,,,,,,,,,,,,,,,,,,,,,,,,,015,2022-05-12_11h01.43.280,FishGame,2022.1.1,60.00852121115023,
,2,넌 슬기로워,2,Orange,A,6.166666666666667,4.1,ScrollDown,ScrollUp,Orange.png,practice,,,0,0,0,0,,,,,0,0,0,0,0,1,1,1,,,,,,,,,,,,,,,,,,,,,,,,,,,,,,,,,,,,,,,,,,,,,,,,,,,,,,,,1.115740751226743,1.062146299998858,110.80356490000122,None,ScrollDown,정답입니다,110.80356490000122,None,110.80356490000122,None,110.80356490000122,None,110.80356490000122,None,111.76116110000294,None,111.76116110000294,112.26122459999897,,,,,,,,,,,,,,,,,,,,,,,,,,,,,,,,,,,,,,,,,,,,,,,,,015,2022-05-12_11h01.43.280,FishGame,2022.1.1,60.00852121115023,
,3,나를 보내줘,6,Orange,A,0,0,ScrollUp,ScrollDown,Orange.png,practice,,,0,0,0,0,,,,,0,0,0,0,0,2,2,2,,,,,,,,,,,,,,,,,,,,,,,,,,,,,,,,,,,,,,,,,,,,,,,,,,,,,,,,1.9969135920206706,1.544630899996264,112.88351600000169,None,ScrollUp,정답입니다,112.88351600000169,None,112.88351600000169,None,112.88351600000169,None,112.88351600000169,None,114.32782520000183,None,114.32782520000183,114.82999589999963,,,,,,,,,,,,,,,,,,,,,,,,,,,,,,,,,,,,,,,,,,,,,,,,,015,2022-05-12_11h01.43.280,FishGame,2022.1.1,60.00852121115023,
,4,나를 데려가줘,6,Green,B,0,0,ScrollDown,ScrollUp,Green.png,practice,,,0,0,0,0,,,,,0,0,0,0,0,3,3,3,,,,,,,,,,,,,,,,,,,,,,,,,,,,,,,,,,,,,,,,,,,,,,,,,,,,,,,,1,1.4092282999990857,115.45077090000268,None,ScrollDown,정답입니다,115.45077090000268,None,115.45077090000268,None,115.45077090000268,None,115.45077090000268,None,116.76076610000018,None,116.76076610000018,117.2608640000035,,,,,,,,,,,,,,,,,,,,,,,,,,,,,,,,,,,,,,,,,,,,,,,,,015,2022-05-12_11h01.43.280,FishGame,2022.1.1,60.00852121115023,
,1,넌 교활해,5,Green,B,2.333333333333333,2.133333333333333,ScrollUp,ScrollDown,Green.png,practice,,,0,0,0,0,,,,,0,0,0,0,,,,,,,,,,,,,,,,,,,,,,,,,,,,,,,,,,,,,,,,,,,,,,,,,,,,,,,,,,,,,,,,,,,,,,,,,,,,,,n,8.611391999998887,117.7609048000013,None,117.7609048000013,None,,,,,,,,,,,,,,,,,,,,,,,,,,,,,,,,,,,,,,,,,,,015,2022-05-12_11h01.43.280,FishGame,2022.1.1,60.00852121115023,
,1,넌 따뜻해,1,Green,B,6.083333333333333,5.6,ScrollUp,ScrollDown,Green.png,1,Positive,Incongruent,0,0,0,0,,,,,,,,,,,,,0,0,0,0,,,,,,,,,,,,,,,,,,,,,,,,,,,,,,,,,,,,,,,,,,,,128.14412560000346,129.6465848000007,129.6799209000019,130.62987050000083,130.67980330000137,131.6298175999982,131.6298175999982,None,,,,,,,,,,,,,,,,,,,,,,,,,0.44074073,-0.06759259,1,0,0,0.3136501000044518,None,126.396390599999,None,1.9629629850387573,1.8259259999977075,132.93437119999726,None,ScrollUp,정답입니다,132.93437119999726,None,132.93437119999726,None,132.93437119999726,None,132.93437119999726,None,134.46077610000066,None,134.46077610000066,134.9664574999988,,,,,,,,,,,,,,,,015,2022-05-12_11h01.43.280,FishGame,2022.1.1,60.00852121115023,
,2,넌 기품있어,2,Green,B,5.791666666666668,4.5,ScrollUp,ScrollDown,Green.png,1,Positive,Incongruent,0,0,0,0,,,,,,,,,,,,,0,1,1,1,,,,,,,,,,,,,,,,,,,,,,,,,,,,,,,,,,,,,,,,,,,,,,,,,,,,,,,,,,,,,,,,,,,,,,,,,,,,,,,,,,,,,2,1.0926877000019886,135.58872330000304,None,ScrollUp,정답입니다,135.58872330000304,None,135.58872330000304,None,135.58872330000304,None,135.58872330000304,None,136.57728460000362,None,136.57728460000362,137.07952659999864,,,,,,,,,,,,,,,,015,2022-05-12_11h01.43.280,FishGame,2022.1.1,60.00852121115023,
,3,나를 보내줘,6,Orange,A,0,0,ScrollUp,ScrollDown,Orange.png,1,NonTarget,NonTarget,0,0,0,0,,,,,,,,,,,,,0,2,2,2,,,,,,,,,,,,,,,,,,,,,,,,,,,,,,,,,,,,,,,,,,,,,,,,,,,,,,,,,,,,,,,,,,,,,,,,,,,,,,,,,,,,,1.71913580596447,1.2591920999984723,137.7084571000014,None,ScrollUp,정답입니다,137.7084571000014,None,137.7084571000014,None,137.7084571000014,None,137.7084571000014,None,138.86063399999694,None,138.86063399999694,139.36286729999847,,,,,,,,,,,,,,,,015,2022-05-12_11h01.43.280,FishGame,2022.1.1,60.00852121115023,
,4,넌 수동적이야,4,Orange,A,2.833333333333333,2.933333333333333,ScrollDown,ScrollUp,Orange.png,1,Negative,Incongruent,0,0,0,0,,,,,,,,,,,,,0,3,3,3,,,,,,,,,,,,,,,,,,,,,,,,,,,,,,,,,,,,,,,,,,,,,,,,,,,,,,,,,,,,,,,,,,,,,,,,,,,,,,,,,,,,,1.140432099501292,1.325587399995129,139.9911585000009,None,ScrollDown,정답입니다,139.9911585000009,None,139.9911585000009,None,139.9911585000009,None,139.9911585000009,None,141.21058990000165,None,141.21058990000165,141.71061899999768,,,,,,,,,,,,,,,,015,2022-05-12_11h01.43.280,FishGame,2022.1.1,60.00852121115023,
,5,넌 사심이 없어,3,Green,B,4.916666666666666,4.333333333333333,ScrollUp,ScrollDown,Green.png,1,Neutral,Neutral,0,0,0,0,,,,,,,,,,,,,0,4,4,4,,,,,,,,,,,,,,,,,,,,,,,,,,,,,,,,,,,,,,,,,,,,,,,,,,,,,,,,,,,,,,,,,,,,,,,,,,,,,,,,,,,,,1.7006172885497413,1.1112439000062295,142.33688930000062,None,ScrollUp,정답입니다,142.33688930000062,None,142.33688930000062,None,142.33688930000062,None,142.33688930000062,None,143.34387630000128,None,143.34387630000128,143.84394130000146,,,,,,,,,,,,,,,,015,2022-05-12_11h01.43.280,FishGame,2022.1.1,60.00852121115023,
,6,넌 헤퍼,5,Orange,A,2.458333333333334,2.233333333333333,ScrollDown,ScrollUp,Orange.png,1,Negative,Incongruent,0,0,0,0,,,,,,,,,,,,,0,5,5,5,,,,,,,,,,,,,,,,,,,,,,,,,,,,,,,,,,,,,,,,,,,,,,,,,,,,,,,,,,,,,,,,,,,,,,,,,,,,,,,,,,,,,1.1450617164373398,1.0755101999966428,144.47112090000155,None,ScrollDown,정답입니다,144.47112090000155,None,144.47112090000155,None,144.47112090000155,None,144.47112090000155,None,145.44376629999897,None,145.44376629999897,145.9460631999973,,,,,,,,,,,,,,,,015,2022-05-12_11h01.43.280,FishGame,2022.1.1,60.00852121115023,
,7,넌 말쑥해,3,Orange,A,4.833333333333334,4.333333333333333,ScrollDown,ScrollUp,Orange.png,1,Neutral,Neutral,0,0,0,0,,,,,,,,,,,,,0,6,6,6,,,,,,,,,,,,,,,,,,,,,,,,,,,,,,,,,,,,,,,,,,,,,,,,,,,,,,,,,,,,,,,,,,,,,,,,,,,,,,,,,,,,,1.1589506169160206,1.0447027999980492,146.57590609999897,None,ScrollDown,정답입니다,146.57590609999897,None,146.57590609999897,None,146.57590609999897,None,146.57590609999897,None,147.5104474999971,None,147.5104474999971,148.01276360000338,,,,,,,,,,,,,,,,015,2022-05-12_11h01.43.280,FishGame,2022.1.1,60.00852121115023,
,8,넌 투덜거려,5,Green,B,2.541666666666667,2.266666666666667,ScrollUp,ScrollDown,Green.png,1,Negative,Congruent,0,0,0,0,,,,,,,,,,,,,0,7,7,7,,,,,,,,,,,,,,,,,,,,,,,,,,,,,,,,,,,,,,,,,,,,,,,,,,,,,,,,,,,,,,,,,,,,,,,,,,,,,,,,,,,,,2,1.1422516999955405,148.63863129999663,None,ScrollUp,정답입니다,148.63863129999663,None,148.63863129999663,None,148.63863129999663,None,148.63863129999663,None,149.67712279999978,None,149.67712279999978,150.1792620999986,,,,,,,,,,,,,,,,015,2022-05-12_11h01.43.280,FishGame,2022.1.1,60.00852121115023,
,9,넌 적극적이야,1,Orange,A,5.708333333333333,5.533333333333333,ScrollDown,ScrollUp,Orange.png,1,Positive,Congruent,0,0,0,0,,,,,,,,,,,,,0,8,8,8,,,,,,,,,,,,,,,,,,,,,,,,,,,,,,,,,,,,,,,,,,,,,,,,,,,,,,,,,,,,,,,,,,,,,,,,,,,,,,,,,,,,,1.1543209999799728,1.2755233999996562,150.80541580000136,None,ScrollDown,정답입니다,150.80541580000136,None,150.80541580000136,None,150.80541580000136,None,150.80541580000136,None,151.97703100000217,None,151.97703100000217,152.47708289999719,,,,,,,,,,,,,,,,015,2022-05-12_11h01.43.280,FishGame,2022.1.1,60.00852121115023,
,10,넌 재미없어,4,Green,B,2.625,2.966666666666667,ScrollUp,ScrollDown,Green.png,1,Negative,Congruent,0,0,0,0,,,,,,,,,,,,,0,9,9,9,,,,,,,,,,,,,,,,,,,,,,,,,,,,,,,,,,,,,,,,,,,,,,,,,,,,,,,,,,,,,,,,,,,,,,,,,,,,,,,,,,,,,1.7422839403152466,1.1106160999988788,153.09788449999905,None,ScrollUp,정답입니다,153.09788449999905,None,153.09788449999905,None,153.09788449999905,None,153.09788449999905,None,154.11033389999648,None,154.11033389999648,154.612549700003,,,,,,,,,,,,,,,,015,2022-05-12_11h01.43.280,FishGame,2022.1.1,60.00852121115023,
,11,넌 명석해,2,Orange,A,5.875,4.033333333333333,ScrollDown,ScrollUp,Orange.png,1,Positive,Congruent,0,0,0,0,,,,,,,,,,,,,0,10,10,10,,,,,,,,,,,,,,,,,,,,,,,,,,,,,,,,,,,,,,,,,,,,,,,,,,,,,,,,,,,,,,,,,,,,,,,,,,,,,,,,,,,,,1.1095678955316544,0.9595513999956893,155.2384527000031,None,ScrollDown,정답입니다,155.2384527000031,None,155.2384527000031,None,155.2384527000031,None,155.2384527000031,None,156.09335229999851,None,156.09335229999851,156.59340720000182,,,,,,,,,,,,,,,,015,2022-05-12_11h01.43.280,FishGame,2022.1.1,60.00852121115023,
,12,나를 데려가줘,6,Green,B,0,0,ScrollDown,ScrollUp,Green.png,1,NonTarget,NonTarget,0,0,0,0,,,,,,,,,,,,,0,11,11,11,,,,,,,,,,,,,,,,,,,,,,,,,,,,,,,,,,,,,,,,,,,,,,,,,,,,,,,,,,,,,,,,,,,,,,,,,,,,,,,,,,,,,1,1.3617671999963932,157.21515699999873,None,ScrollDown,정답입니다,157.21515699999873,None,157.21515699999873,None,157.21515699999873,None,157.21515699999873,None,158.47699730000022,None,158.47699730000022,158.97924120000243,,,,,,,,,,,,,,,,015,2022-05-12_11h01.43.280,FishGame,2022.1.1,60.00852121115023,
,13,넌 소심해,4,Orange,A,3,3.1,ScrollDown,ScrollUp,Orange.png,1,Negative,Incongruent,0,0,0,0,,,,,,,,,,,,,0,12,12,12,,,,,,,,,,,,,,,,,,,,,,,,,,,,,,,,,,,,,,,,,,,,,,,,,,,,,,,,,,,,,,,,,,,,,,,,,,,,,,,,,,,,,1.212962955236435,1.1591936999975587,159.60359479999897,None,ScrollDown,정답입니다,159.60359479999897,None,159.60359479999897,None,159.60359479999897,None,159.60359479999897,None,160.6623225000003,None,160.6623225000003,161.17909849999705,,,,,,,,,,,,,,,,015,2022-05-12_11h01.43.280,FishGame,2022.1.1,60.00852121115023,
,14,넌 합리적이야,2,Orange,A,5.583333333333333,4.733333333333333,ScrollDown,ScrollUp,Orange.png,1,Positive,Congruent,0,0,0,0,,,,,,,,,,,,,0,13,13,13,,,,,,,,,,,,,,,,,,,,,,,,,,,,,,,,,,,,,,,,,,,,,,,,,,,,,,,,,,,,,,,,,,,,,,,,,,,,,,,,,,,,,1.180555562178294,1.0266448999973363,161.78476789999695,None,ScrollDown,정답입니다,161.78476789999695,None,161.78476789999695,None,161.78476789999695,None,161.78476789999695,None,162.71015479999915,None,162.71015479999915,163.21240810000018,,,,,,,,,,,,,,,,015,2022-05-12_11h01.43.280,FishGame,2022.1.1,60.00852121115023,
,15,넌 무자비해,5,Green,B,2.333333333333333,2.1,ScrollUp,ScrollDown,Green.png,1,Negative,Congruent,0,0,0,0,,,,,,,,,,,,,0,14,14,14,,,,,,,,,,,,,,,,,,,,,,,,,,,,,,,,,,,,,,,,,,,,,,,,,,,,,,,,,,,,,,,,,,,,,,,,,,,,,,,,,,,,,1.8117283930381138,0.9648232000035932,163.84539180000138,None,ScrollUp,정답입니다,163.84539180000138,None,163.84539180000138,None,163.84539180000138,None,163.84539180000138,None,164.69343839999783,None,164.69343839999783,165.19568150000123,,,,,,,,,,,,,,,,015,2022-05-12_11h01.43.280,FishGame,2022.1.1,60.00852121115023,
,16,나를 보내줘,6,Orange,A,0,0,ScrollUp,ScrollDown,Orange.png,1,NonTarget,NonTarget,0,0,0,0,,,,,,,,,,,,,0,15,15,15,,,,,,,,,,,,,,,,,,,,,,,,,,,,,,,,,,,,,,,,,,,,,,,,,,,,,,,,,,,,,,,,,,,,,,,,,,,,,,,,,,,,,1.9490740597248077,1.311506099998951,165.8133491999979,None,ScrollUp,정답입니다,165.8133491999979,None,165.8133491999979,None,165.8133491999979,None,165.8133491999979,None,167.02674149999802,None,167.02674149999802,167.52898249999998,,,,,,,,,,,,,,,,015,2022-05-12_11h01.43.280,FishGame,2022.1.1,60.00852121115023,
,17,넌 현실적이야,3,Green,B,4.608695652173913,4.766666666666667,ScrollUp,ScrollDown,Green.png,1,Neutral,Neutral,0,0,0,0,,,,,,,,,,,,,0,16,16,16,,,,,,,,,,,,,,,,,,,,,,,,,,,,,,,,,,,,,,,,,,,,,,,,,,,,,,,,,,,,,,,,,,,,,,,,,,,,,,,,,,,,,1.6512345671653748,1.4256569999997737,168.15701930000068,None,ScrollUp,정답입니다,168.15701930000068,None,168.15701930000068,None,168.15701930000068,None,168.15701930000068,None,169.4764215000032,None,169.4764215000032,169.97648440000194,,,,,,,,,,,,,,,,015,2022-05-12_11h01.43.280,FishGame,2022.1.1,60.00852121115023,
,18,넌 의리있어,1,Green,B,5.833333333333334,5.633333333333334,ScrollUp,ScrollDown,Green.png,1,Positive,Incongruent,0,0,0,0,,,,,,,,,,,,,0,17,17,17,,,,,,,,,,,,,,,,,,,,,,,,,,,,,,,,,,,,,,,,,,,,,,,,,,,,,,,,,,,,,,,,,,,,,,,,,,,,,,,,,,,,,1.7731481442848842,1.1284279999963474,170.59750740000163,None,ScrollUp,정답입니다,170.59750740000163,None,170.59750740000163,None,170.59750740000163,None,170.59750740000163,None,171.62901720000082,None,171.62901720000082,172.12896080000064,,,,,,,,,,,,,,,,015,2022-05-12_11h01.43.280,FishGame,2022.1.1,60.00852121115023,
,19,넌 신경과민이야,5,Orange,A,2.541666666666667,2.166666666666667,ScrollDown,ScrollUp,Orange.png,1,Negative,Incongruent,0,0,0,0,,,,,,,,,,,,,0,18,18,18,,,,,,,,,,,,,,,,,,,,,,,,,,,,,,,,,,,,,,,,,,,,,,,,,,,,,,,,,,,,,,,,,,,,,,,,,,,,,,,,,,,,,1.1373456716537476,0.9293794000041089,172.75114839999878,None,ScrollDown,정답입니다,172.75114839999878,None,172.75114839999878,None,172.75114839999878,None,172.75114839999878,None,173.57670630000212,None,173.57670630000212,174.08210410000174,,,,,,,,,,,,,,,,015,2022-05-12_11h01.43.280,FishGame,2022.1.1,60.00852121115023,
,20,넌 편안해,1,Orange,A,5.916666666666666,5.866666666666666,ScrollDown,ScrollUp,Orange.png,1,Positive,Congruent,0,0,0,0,,,,,,,,,,,,,0,19,19,19,,,,,,,,,,,,,,,,,,,,,,,,,,,,,,,,,,,,,,,,,,,,,,,,,,,,,,,,,,,,,,,,,,,,,,,,,,,,,,,,,,,,,1.09413580596447,0.9270324000026449,174.69961909999984,None,ScrollDown,정답입니다,174.69961909999984,None,174.69961909999984,None,174.69961909999984,None,174.69961909999984,None,175.5265503999981,None,175.5265503999981,176.02881909999996,,,,,,,,,,,,,,,,015,2022-05-12_11h01.43.280,FishGame,2022.1.1,60.00852121115023,
,21,넌 품위있어,2,Green,B,5.291666666666666,4.466666666666667,ScrollUp,ScrollDown,Green.png,1,Positive,Incongruent,0,0,0,0,,,,,,,,,,,,,0,20,20,20,,,,,,,,,,,,,,,,,,,,,,,,,,,,,,,,,,,,,,,,,,,,,,,,,,,,,,,,,,,,,,,,,,,,,,,,,,,,,,,,,,,,,1.8811728457609813,0.9592537999997148,176.66741809999803,None,ScrollUp,정답입니다,176.66741809999803,None,176.66741809999803,None,176.66741809999803,None,176.66741809999803,None,177.50986849999754,None,177.50986849999754,178.00999130000127,,,,,,,,,,,,,,,,015,2022-05-12_11h01.43.280,FishGame,2022.1.1,60.00852121115023,
,22,넌 빈틈없어,3,Orange,A,4.833333333333333,3.966666666666667,ScrollDown,ScrollUp,Orange.png,1,Neutral,Neutral,0,0,0,0,,,,,,,,,,,,,0,21,21,21,,,,,,,,,,,,,,,,,,,,,,,,,,,,,,,,,,,,,,,,,,,,,,,,,,,,,,,,,,,,,,,,,,,,,,,,,,,,,,,,,,,,,1.1975308656692505,1.1093552000020281,178.63879499999894,None,ScrollDown,정답입니다,178.63879499999894,None,178.63879499999894,None,178.63879499999894,None,178.63879499999894,None,179.64293899999757,None,179.64293899999757,180.14294769999833,,,,,,,,,,,,,,,,015,2022-05-12_11h01.43.280,FishGame,2022.1.1,60.00852121115023,
,23,넌 상상력없어,4,Green,B,2.833333333333333,3.133333333333333,ScrollUp,ScrollDown,Green.png,1,Negative,Congruent,0,0,0,0,,,,,,,,,,,,,0,22,22,22,,,,,,,,,,,,,,,,,,,,,,,,,,,,,,,,,,,,,,,,,,,,,,,,,,,,,,,,,,,,,,,,,,,,,,,,,,,,,,,,,,,,,1.9074074079593022,1.228397999999288,180.7666251999981,None,ScrollUp,정답입니다,180.7666251999981,None,180.7666251999981,None,180.7666251999981,None,180.7666251999981,None,181.8955352999983,None,181.8955352999983,182.3954550999988,,,,,,,,,,,,,,,,015,2022-05-12_11h01.43.280,FishGame,2022.1.1,60.00852121115023,
,24,넌 지혜로워,2,Green,B,6.333333333333334,4.633333333333334,ScrollUp,ScrollDown,Green.png,1,Positive,Incongruent,0,0,0,0,,,,,,,,,,,,,0,23,23,23,,,,,,,,,,,,,,,,,,,,,,,,,,,,,,,,,,,,,,,,,,,,,,,,,,,,,,,,,,,,,,,,,,,,,,,,,,,,,,,,,,,,,1.839506169160207,0.9454998000001069,183.03261819999898,None,ScrollUp,정답입니다,183.03261819999898,None,183.03261819999898,None,183.03261819999898,None,183.03261819999898,None,183.85946330000297,None,183.85946330000297,184.35953220000374,,,,,,,,,,,,,,,,015,2022-05-12_11h01.43.280,FishGame,2022.1.1,60.00852121115023,
,25,넌 시끄러워,4,Orange,A,2.833333333333333,3.033333333333333,ScrollDown,ScrollUp,Orange.png,1,Negative,Incongruent,0,0,0,0,,,,,,,,,,,,,0,24,24,24,,,,,,,,,,,,,,,,,,,,,,,,,,,,,,,,,,,,,,,,,,,,,,,,,,,,,,,,,,,,,,,,,,,,,,,,,,,,,,,,,,,,,1.182098776102066,0.8270717000050354,184.9891779000027,None,ScrollDown,정답입니다,184.9891779000027,None,184.9891779000027,None,184.9891779000027,None,184.9891779000027,None,185.7120070000019,None,185.7120070000019,186.21196439999767,,,,,,,,,,,,,,,,015,2022-05-12_11h01.43.280,FishGame,2022.1.1,60.00852121115023,
,26,넌 만사태평이야,3,Green,B,4,4.333333333333333,ScrollUp,ScrollDown,Green.png,1,Neutral,Neutral,0,0,0,0,,,,,,,,,,,,,0,25,25,25,,,,,,,,,,,,,,,,,,,,,,,,,,,,,,,,,,,,,,,,,,,,,,,,,,,,,,,,,,,,,,,,,,,,,,,,,,,,,,,,,,,,,1.859567900498708,0.9762381000036839,186.83348909999768,None,ScrollUp,정답입니다,186.83348909999768,None,186.83348909999768,None,186.83348909999768,None,186.83348909999768,None,187.71202739999717,None,187.71202739999717,188.21193759999733,,,,,,,,,,,,,,,,015,2022-05-12_11h01.43.280,FishGame,2022.1.1,60.00852121115023,
,27,넌 붙임성있어,1,Orange,A,5.708333333333333,5.633333333333334,ScrollDown,ScrollUp,Orange.png,1,Positive,Congruent,0,0,0,0,,,,,,,,,,,,,0,26,26,26,,,,,,,,,,,,,,,,,,,,,,,,,,,,,,,,,,,,,,,,,,,,,,,,,,,,,,,,,,,,,,,,,,,,,,,,,,,,,,,,,,,,,1.115740751226743,0.9152837000001455,188.84618619999674,None,ScrollDown,정답입니다,188.84618619999674,None,188.84618619999674,None,188.84618619999674,None,188.84618619999674,None,189.65960880000057,None,189.65960880000057,190.15969239999686,,,,,,,,,,,,,,,,015,2022-05-12_11h01.43.280,FishGame,2022.1.1,60.00852121115023,
,28,넌 영리해,2,Orange,A,6,4.033333333333333,ScrollDown,ScrollUp,Orange.png,1,Positive,Congruent,0,0,0,0,,,,,,,,,,,,,0,27,27,27,,,,,,,,,,,,,,,,,,,,,,,,,,,,,,,,,,,,,,,,,,,,,,,,,,,,,,,,,,,,,,,,,,,,,,,,,,,,,,,,,,,,,1.0108024775981903,1.3147601999953622,190.7827879999968,None,ScrollDown,정답입니다,190.7827879999968,None,190.7827879999968,None,190.7827879999968,None,190.7827879999968,None,191.99290189999738,None,191.99290189999738,192.49297659999866,,,,,,,,,,,,,,,,015,2022-05-12_11h01.43.280,FishGame,2022.1.1,60.00852121115023,
,29,넌 열심이야,1,Green,B,6.041666666666667,5.833333333333333,ScrollUp,ScrollDown,Green.png,1,Positive,Incongruent,0,0,0,0,,,,,,,,,,,,,0,28,28,28,,,,,,,,,,,,,,,,,,,,,,,,,,,,,,,,,,,,,,,,,,,,,,,,,,,,,,,,,,,,,,,,,,,,,,,,,,,,,,,,,,,,,2,0.8258356000005733,193.11483800000133,None,ScrollUp,정답입니다,193.11483800000133,None,193.11483800000133,None,193.11483800000133,None,193.11483800000133,None,193.842899700001,None,193.842899700001,194.3428860999993,,,,,,,,,,,,,,,,015,2022-05-12_11h01.43.280,FishGame,2022.1.1,60.00852121115023,
,30,넌 인기없어,4,Green,B,3,3.3,ScrollUp,ScrollDown,Green.png,1,Negative,Congruent,0,0,0,0,,,,,,,,,,,,,0,29,29,29,,,,,,,,,,,,,,,,,,,,,,,,,,,,,,,,,,,,,,,,,,,,,,,,,,,,,,,,,,,,,,,,,,,,,,,,,,,,,,,,,,,,,1.9351851840813954,0.8790470000021742,194.9664894000016,None,ScrollUp,정답입니다,194.9664894000016,None,194.9664894000016,None,194.9664894000016,None,194.9664894000016,None,195.74287999999797,None,195.74287999999797,196.2429026000027,,,,,,,,,,,,,,,,015,2022-05-12_11h01.43.280,FishGame,2022.1.1,60.00852121115023,
,31,넌 익살스러워,3,Orange,A,4.708333333333334,4.833333333333333,ScrollDown,ScrollUp,Orange.png,1,Neutral,Neutral,0,0,0,0,,,,,,,,,,,,,0,30,30,30,,,,,,,,,,,,,,,,,,,,,,,,,,,,,,,,,,,,,,,,,,,,,,,,,,,,,,,,,,,,,,,,,,,,,,,,,,,,,,,,,,,,,1.1018518507480621,1.061396600001899,196.89126530000067,None,ScrollDown,정답입니다,196.89126530000067,None,196.89126530000067,None,196.89126530000067,None,196.89126530000067,None,197.82612130000052,None,197.82612130000052,198.3283444999979,,,,,,,,,,,,,,,,015,2022-05-12_11h01.43.280,FishGame,2022.1.1,60.00852121115023,
,32,넌 이기적이야,5,Green,B,2.291666666666667,2.333333333333333,ScrollUp,ScrollDown,Green.png,1,Negative,Congruent,0,0,0,0,,,,,,,,,,,,,0,31,31,31,,,,,,,,,,,,,,,,,,,,,,,,,,,,,,,,,,,,,,,,,,,,,,,,,,,,,,,,,,,,,,,,,,,,,,,,,,,,,,,,,,,,,1.8271604826052983,0.8257180999935372,198.94634950000182,None,ScrollUp,정답입니다,198.94634950000182,None,198.94634950000182,None,198.94634950000182,None,198.94634950000182,None,199.6760101999971,None,199.6760101999971,200.1782830000011,,,,,,,,,,,,,,,,015,2022-05-12_11h01.43.280,FishGame,2022.1.1,60.00852121115023,
,33,나를 데려가줘,6,Green,B,0,0,ScrollDown,ScrollUp,Green.png,1,NonTarget,NonTarget,0,0,0,0,,,,,,,,,,,,,0,32,32,32,,,,,,,,,,,,,,,,,,,,,,,,,,,,,,,,,,,,,,,,,,,,,,,,,,,,,,,,,,,,,,,,,,,,,,,,,,,,,,,,,,,,,1.0570987462997437,1.8969542999984697,200.79248299999745,None,ScrollDown,정답입니다,200.79248299999745,None,200.79248299999745,None,200.79248299999745,None,200.79248299999745,None,202.59269399999903,None,202.59269399999903,203.0949252999999,,,,,,,,,,,,,,,,015,2022-05-12_11h01.43.280,FishGame,2022.1.1,60.00852121115023,
,34,넌 기회주의자야,5,Orange,A,2.875,2.133333333333333,ScrollDown,ScrollUp,Orange.png,1,Negative,Incongruent,0,0,0,0,,,,,,,,,,,,,0,33,33,33,,,,,,,,,,,,,,,,,,,,,,,,,,,,,,,,,,,,,,,,,,,,,,,,,,,,,,,,,,,,,,,,,,,,,,,,,,,,,,,,,,,,,1.3395061741272607,1.1094067000012728,203.72014969999873,None,ScrollDown,정답입니다,203.72014969999873,None,203.72014969999873,None,203.72014969999873,None,203.72014969999873,None,204.72810800000298,None,204.72810800000298,205.22823939999944,,,,,,,,,,,,,,,,015,2022-05-12_11h01.43.280,FishGame,2022.1.1,60.00852121115023,
,1,넌 미성숙해,4,Orange,A,3,3.2,ScrollDown,ScrollUp,Orange.png,2,Negative,Incongruent,0,0,0,0,,,,,,,,,,,,,,,,,0,0,0,0,,,,,,,,,,,,,,,,,,,,,,,,,,,,,,,,,,,,,,,,237.17537959999754,238.67535949999728,238.71107350000239,239.66108440000244,239.7110950999995,240.67770459999883,240.66102500000125,None,,,,,,,,,,,,,,,,,,,,,,,,,,,,,,,,,,1.0679012437661488,1.280172600003425,241.76142809999874,None,ScrollDown,정답입니다,241.76142809999874,None,241.76142809999874,None,241.76142809999874,None,241.76142809999874,None,242.94191039999714,None,242.94191039999714,243.44192900000053,205.74272249999922,None,205.74272249999922,None,0.44074073,-0.02037037,1,0,0,0.01617199999600416,None,235.7421353000027,None,,,015,2022-05-12_11h01.43.280,FishGame,2022.1.1,60.00852121115023,
,2,넌 반사회적이야,5,Green,B,2.416666666666667,2.033333333333333,ScrollUp,ScrollDown,Green.png,2,Negative,Congruent,0,0,0,0,,,,,,,,,,,,,,,,,0,1,1,1,,,,,,,,,,,,,,,,,,,,,,,,,,,,,,,,,,,,,,,,,,,,,,,,,,,,,,,,,,,,,,,,,,,,,,,,,,,,,,,,,1.9475308458010356,0.9089759999988019,244.07240710000042,None,ScrollUp,정답입니다,244.07240710000042,None,244.07240710000042,None,244.07240710000042,None,244.07240710000042,None,244.87520070000028,None,244.87520070000028,245.3751837000018,,,,,,,,,,,,,,,,015,2022-05-12_11h01.43.280,FishGame,2022.1.1,60.00852121115023,
,3,넌 유능해,2,Orange,A,6.208333333333333,4.433333333333334,ScrollDown,ScrollUp,Orange.png,2,Positive,Congruent,0,0,0,0,,,,,,,,,,,,,,,,,0,2,2,2,,,,,,,,,,,,,,,,,,,,,,,,,,,,,,,,,,,,,,,,,,,,,,,,,,,,,,,,,,,,,,,,,,,,,,,,,,,,,,,,,1,0.8760299999994459,246.00575820000086,None,ScrollDown,정답입니다,246.00575820000086,None,246.00575820000086,None,246.00575820000086,None,246.00575820000086,None,246.77515210000274,None,246.77515210000274,247.27733389999776,,,,,,,,,,,,,,,,015,2022-05-12_11h01.43.280,FishGame,2022.1.1,60.00852121115023,
,4,넌 능숙해,2,Green,B,5.666666666666667,4.733333333333333,ScrollUp,ScrollDown,Green.png,2,Positive,Incongruent,0,0,0,0,,,,,,,,,,,,,,,,,0,3,3,3,,,,,,,,,,,,,,,,,,,,,,,,,,,,,,,,,,,,,,,,,,,,,,,,,,,,,,,,,,,,,,,,,,,,,,,,,,,,,,,,,1.7762345721324284,0.8593070000060834,247.89789980000205,None,ScrollUp,정답입니다,247.89789980000205,None,247.89789980000205,None,247.89789980000205,None,247.89789980000205,None,248.65843519999908,None,248.65843519999908,249.1605935999978,,,,,,,,,,,,,,,,015,2022-05-12_11h01.43.280,FishGame,2022.1.1,60.00852121115023,
,5,넌 진부해,4,Green,B,2.458333333333333,3.166666666666667,ScrollUp,ScrollDown,Green.png,2,Negative,Congruent,0,0,0,0,,,,,,,,,,,,,,,,,0,4,4,4,,,,,,,,,,,,,,,,,,,,,,,,,,,,,,,,,,,,,,,,,,,,,,,,,,,,,,,,,,,,,,,,,,,,,,,,,,,,,,,,,1.9552469154198964,1.0630058000024292,249.7882460000037,None,ScrollUp,정답입니다,249.7882460000037,None,249.7882460000037,None,249.7882460000037,None,249.7882460000037,None,250.74178930000198,None,250.74178930000198,251.2416213999968,,,,,,,,,,,,,,,,015,2022-05-12_11h01.43.280,FishGame,2022.1.1,60.00852121115023,
,6,나를 보내줘,6,Orange,A,0,0,ScrollUp,ScrollDown,Orange.png,2,NonTarget,NonTarget,0,0,0,0,,,,,,,,,,,,,,,,,0,5,5,5,,,,,,,,,,,,,,,,,,,,,,,,,,,,,,,,,,,,,,,,,,,,,,,,,,,,,,,,,,,,,,,,,,,,,,,,,,,,,,,,,1.873456800977389,1.1255470999967656,251.8709541999997,None,ScrollUp,정답입니다,251.8709541999997,None,251.8709541999997,None,251.8709541999997,None,251.8709541999997,None,252.8914248000001,None,252.8914248000001,253.3914545000007,,,,,,,,,,,,,,,,015,2022-05-12_11h01.43.280,FishGame,2022.1.1,60.00852121115023,
,7,넌 엄격해,3,Orange,A,4.166666666666666,4.1,ScrollDown,ScrollUp,Orange.png,2,Neutral,Neutral,0,0,0,0,,,,,,,,,,,,,,,,,0,6,6,6,,,,,,,,,,,,,,,,,,,,,,,,,,,,,,,,,,,,,,,,,,,,,,,,,,,,,,,,,,,,,,,,,,,,,,,,,,,,,,,,,1.0293209950129192,0.911331399998744,254.01559209999687,None,ScrollDown,정답입니다,254.01559209999687,None,254.01559209999687,None,254.01559209999687,None,254.01559209999687,None,254.82732840000244,None,254.82732840000244,255.32725149999897,,,,,,,,,,,,,,,,015,2022-05-12_11h01.43.280,FishGame,2022.1.1,60.00852121115023,
,8,나를 보내줘,6,Orange,A,0,0,ScrollUp,ScrollDown,Orange.png,2,NonTarget,NonTarget,0,0,0,0,,,,,,,,,,,,,,,,,0,7,7,7,,,,,,,,,,,,,,,,,,,,,,,,,,,,,,,,,,,,,,,,,,,,,,,,,,,,,,,,,,,,,,,,,,,,,,,,,,,,,,,,,1.8749999900658925,1.060733500002243,255.94704269999784,None,ScrollUp,정답입니다,255.94704269999784,None,255.94704269999784,None,255.94704269999784,None,255.94704269999784,None,256.9138298999969,None,256.9138298999969,257.4250280999986,,,,,,,,,,,,,,,,015,2022-05-12_11h01.43.280,FishGame,2022.1.1,60.00852121115023,
,9,넌 대담해,3,Green,B,4.875,4.866666666666666,ScrollUp,ScrollDown,Green.png,2,Neutral,Neutral,0,0,0,0,,,,,,,,,,,,,,,,,0,8,8,8,,,,,,,,,,,,,,,,,,,,,,,,,,,,,,,,,,,,,,,,,,,,,,,,,,,,,,,,,,,,,,,,,,,,,,,,,,,,,,,,,1.614197532335917,1.292784400000528,258.04936330000055,None,ScrollUp,정답입니다,258.04936330000055,None,258.04936330000055,None,258.04936330000055,None,258.04936330000055,None,259.2415877000021,None,259.2415877000021,259.7469834000003,,,,,,,,,,,,,,,,015,2022-05-12_11h01.43.280,FishGame,2022.1.1,60.00852121115023,
,10,넌 꾸준해,1,Orange,A,5.916666666666668,5.8,ScrollDown,ScrollUp,Orange.png,2,Positive,Congruent,0,0,0,0,,,,,,,,,,,,,,,,,0,9,9,9,,,,,,,,,,,,,,,,,,,,,,,,,,,,,,,,,,,,,,,,,,,,,,,,,,,,,,,,,,,,,,,,,,,,,,,,,,,,,,,,,1.1080246816078823,0.8767299000028288,260.3647864000013,None,ScrollDown,정답입니다,260.3647864000013,None,260.3647864000013,None,260.3647864000013,None,260.3647864000013,None,261.14150150000205,None,261.14150150000205,261.6436810000014,,,,,,,,,,,,,,,,015,2022-05-12_11h01.43.280,FishGame,2022.1.1,60.00852121115023,
,11,나를 데려가줘,6,Green,B,0,0,ScrollDown,ScrollUp,Green.png,2,NonTarget,NonTarget,0,0,0,0,,,,,,,,,,,,,,,,,0,10,10,10,,,,,,,,,,,,,,,,,,,,,,,,,,,,,,,,,,,,,,,,,,,,,,,,,,,,,,,,,,,,,,,,,,,,,,,,,,,,,,,,,1.1172839403152466,1.228176299999177,262.26019180000003,None,ScrollDown,정답입니다,262.26019180000003,None,262.26019180000003,None,262.26019180000003,None,262.26019180000003,None,263.3914642000018,None,263.3914642000018,263.8937994000007,,,,,,,,,,,,,,,,015,2022-05-12_11h01.43.280,FishGame,2022.1.1,60.00852121115023,
,12,넌 독선적이야,5,Orange,A,2.458333333333333,1.933333333333333,ScrollDown,ScrollUp,Orange.png,2,Negative,Incongruent,0,0,0,0,,,,,,,,,,,,,,,,,0,11,11,11,,,,,,,,,,,,,,,,,,,,,,,,,,,,,,,,,,,,,,,,,,,,,,,,,,,,,,,,,,,,,,,,,,,,,,,,,,,,,,,,,1.1527777860562007,1.0426808999982313,264.5179033000022,None,ScrollDown,정답입니다,264.5179033000022,None,264.5179033000022,None,264.5179033000022,None,264.5179033000022,None,265.45805459999974,None,265.45805459999974,265.96023440000135,,,,,,,,,,,,,,,,015,2022-05-12_11h01.43.280,FishGame,2022.1.1,60.00852121115023,
,13,나를 보내줘,6,Orange,A,0,0,ScrollUp,ScrollDown,Orange.png,2,NonTarget,NonTarget,0,0,0,0,,,,,,,,,,,,,,,,,0,12,12,12,,,,,,,,,,,,,,,,,,,,,,,,,,,,,,,,,,,,,,,,,,,,,,,,,,,,,,,,,,,,,,,,,,,,,,,,,,,,,,,,,1.8209876517454784,1.1615689000027487,266.58009550000133,None,ScrollUp,정답입니다,266.58009550000133,None,266.58009550000133,None,266.58009550000133,None,266.58009550000133,None,267.6414866999985,None,267.6414866999985,268.1436946000031,,,,,,,,,,,,,,,,015,2022-05-12_11h01.43.280,FishGame,2022.1.1,60.00852121115023,
,14,넌 책임감있어,1,Green,B,6.347826086956522,6,ScrollUp,ScrollDown,Green.png,2,Positive,Incongruent,0,0,0,0,,,,,,,,,,,,,,,,,0,13,13,13,,,,,,,,,,,,,,,,,,,,,,,,,,,,,,,,,,,,,,,,,,,,,,,,,,,,,,,,,,,,,,,,,,,,,,,,,,,,,,,,,1.817901223897934,1.1105386999988696,268.7628095999971,None,ScrollUp,정답입니다,268.7628095999971,None,268.7628095999971,None,268.7628095999971,None,268.7628095999971,None,269.774659900002,None,269.774659900002,270.27472500000295,,,,,,,,,,,,,,,,015,2022-05-12_11h01.43.280,FishGame,2022.1.1,60.00852121115023,
,15,넌 문학적이야,3,Orange,A,4.708333333333334,4.333333333333333,ScrollDown,ScrollUp,Orange.png,2,Neutral,Neutral,0,0,0,0,,,,,,,,,,,,,,,,,0,14,14,14,,,,,,,,,,,,,,,,,,,,,,,,,,,,,,,,,,,,,,,,,,,,,,,,,,,,,,,,,,,,,,,,,,,,,,,,,,,,,,,,,1.0925925920406978,1.1115693999963696,270.90173330000107,None,ScrollDown,정답입니다,270.90173330000107,None,270.90173330000107,None,270.90173330000107,None,270.90173330000107,None,271.90800989999843,None,271.90800989999843,272.4102501000016,,,,,,,,,,,,,,,,015,2022-05-12_11h01.43.280,FishGame,2022.1.1,60.00852121115023,
,16,넌 재미있어,1,Green,B,5.875,5.7,ScrollUp,ScrollDown,Green.png,2,Positive,Incongruent,0,0,0,0,,,,,,,,,,,,,,,,,0,15,15,15,,,,,,,,,,,,,,,,,,,,,,,,,,,,,,,,,,,,,,,,,,,,,,,,,,,,,,,,,,,,,,,,,,,,,,,,,,,,,,,,,1.9722222189108531,1.47549699999945,273.03326090000337,None,ScrollUp,정답입니다,273.03326090000337,None,273.03326090000337,None,273.03326090000337,None,273.03326090000337,None,274.4076324999987,None,274.4076324999987,274.9077311000001,,,,,,,,,,,,,,,,015,2022-05-12_11h01.43.280,FishGame,2022.1.1,60.00852121115023,
,17,나를 데려가줘,6,Green,B,0,0,ScrollDown,ScrollUp,Green.png,2,NonTarget,NonTarget,0,0,0,0,,,,,,,,,,,,,,,,,0,16,16,16,,,,,,,,,,,,,,,,,,,,,,,,,,,,,,,,,,,,,,,,,,,,,,,,,,,,,,,,,,,,,,,,,,,,,,,,,,,,,,,,,1,1.2288222000061069,275.52413220000017,None,ScrollDown,정답입니다,275.52413220000017,None,275.52413220000017,None,275.52413220000017,None,275.52413220000017,None,276.6602505999981,None,276.6602505999981,277.16020489999937,,,,,,,,,,,,,,,,015,2022-05-12_11h01.43.280,FishGame,2022.1.1,60.00852121115023,
,18,넌 협력적이야,1,Orange,A,5.625,5.633333333333334,ScrollDown,ScrollUp,Orange.png,2,Positive,Congruent,0,0,0,0,,,,,,,,,,,,,,,,,0,17,17,17,,,,,,,,,,,,,,,,,,,,,,,,,,,,,,,,,,,,,,,,,,,,,,,,,,,,,,,,,,,,,,,,,,,,,,,,,,,,,,,,,1.1975308656692505,1.1795131000035326,277.77871089999826,None,ScrollDown,정답입니다,277.77871089999826,None,277.77871089999826,None,277.77871089999826,None,277.77871089999826,None,278.85791790000076,None,278.85791790000076,279.3600770999983,,,,,,,,,,,,,,,,015,2022-05-12_11h01.43.280,FishGame,2022.1.1,60.00852121115023,
,19,넌 평범해,3,Green,B,4.333333333333332,4.233333333333333,ScrollUp,ScrollDown,Green.png,2,Neutral,Neutral,0,0,0,0,,,,,,,,,,,,,,,,,0,18,18,18,,,,,,,,,,,,,,,,,,,,,,,,,,,,,,,,,,,,,,,,,,,,,,,,,,,,,,,,,,,,,,,,,,,,,,,,,,,,,,,,,1.8456790000200272,1.0098452999955043,279.9794116999983,None,ScrollUp,정답입니다,279.9794116999983,None,279.9794116999983,None,279.9794116999983,None,279.9794116999983,None,280.89110580000124,None,280.89110580000124,281.3911376000033,,,,,,,,,,,,,,,,015,2022-05-12_11h01.43.280,FishGame,2022.1.1,60.00852121115023,
,20,넌 오만해,5,Orange,A,2.333333333333333,2,ScrollDown,ScrollUp,Orange.png,2,Negative,Incongruent,0,0,0,0,,,,,,,,,,,,,,,,,0,19,19,19,,,,,,,,,,,,,,,,,,,,,,,,,,,,,,,,,,,,,,,,,,,,,,,,,,,,,,,,,,,,,,,,,,,,,,,,,,,,,,,,,1.1697530895471573,0.8948555000024498,282.0165386000008,None,ScrollDown,정답입니다,282.0165386000008,None,282.0165386000008,None,282.0165386000008,None,282.0165386000008,None,282.8077839999969,None,282.8077839999969,283.3100876000026,,,,,,,,,,,,,,,,015,2022-05-12_11h01.43.280,FishGame,2022.1.1,60.00852121115023,
,21,넌 운이없어,4,Green,B,3,3.466666666666667,ScrollUp,ScrollDown,Green.png,2,Negative,Congruent,0,0,0,0,,,,,,,,,,,,,,,,,0,20,20,20,,,,,,,,,,,,,,,,,,,,,,,,,,,,,,,,,,,,,,,,,,,,,,,,,,,,,,,,,,,,,,,,,,,,,,,,,,,,,,,,,1.7268518507480621,0.977730500002508,283.9472412000032,None,ScrollUp,정답입니다,283.9472412000032,None,283.9472412000032,None,283.9472412000032,None,283.9472412000032,None,284.80777359999774,None,284.80777359999774,285.30775829999766,,,,,,,,,,,,,,,,015,2022-05-12_11h01.43.280,FishGame,2022.1.1,60.00852121115023,
,22,넌 창조적이야,2,Green,B,6.125,4.633333333333334,ScrollUp,ScrollDown,Green.png,2,Positive,Incongruent,0,0,0,0,,,,,,,,,,,,,,,,,0,21,21,21,,,,,,,,,,,,,,,,,,,,,,,,,,,,,,,,,,,,,,,,,,,,,,,,,,,,,,,,,,,,,,,,,,,,,,,,,,,,,,,,,1.7746913582086563,0.9595102000021143,285.9330136999997,None,ScrollUp,정답입니다,285.9330136999997,None,285.9330136999997,None,285.9330136999997,None,285.9330136999997,None,286.7910211999988,None,286.7910211999988,287.291086199999,,,,,,,,,,,,,,,,015,2022-05-12_11h01.43.280,FishGame,2022.1.1,60.00852121115023,
,23,나를 보내줘,6,Orange,A,0,0,ScrollUp,ScrollDown,Orange.png,2,NonTarget,NonTarget,0,0,0,0,,,,,,,,,,,,,,,,,0,22,22,22,,,,,,,,,,,,,,,,,,,,,,,,,,,,,,,,,,,,,,,,,,,,,,,,,,,,,,,,,,,,,,,,,,,,,,,,,,,,,,,,,1.6682098706563315,1.1096260999984224,287.9129813000036,None,ScrollUp,정답입니다,287.9129813000036,None,287.9129813000036,None,287.9129813000036,None,287.9129813000036,None,288.92439629999717,None,288.92439629999717,289.42651650000334,,,,,,,,,,,,,,,,015,2022-05-12_11h01.43.280,FishGame,2022.1.1,60.00852121115023,
,24,넌 통찰력있어,2,Orange,A,6.5,4.8,ScrollDown,ScrollUp,Orange.png,2,Positive,Congruent,0,0,0,0,,,,,,,,,,,,,,,,,0,23,23,23,,,,,,,,,,,,,,,,,,,,,,,,,,,,,,,,,,,,,,,,,,,,,,,,,,,,,,,,,,,,,,,,,,,,,,,,,,,,,,,,,1.3040123408039412,0.8927014000000781,290.05323260000296,None,ScrollDown,정답입니다,290.05323260000296,None,290.05323260000296,None,290.05323260000296,None,290.05323260000296,None,290.84098670000094,None,290.84098670000094,291.3431098000001,,,,,,,,,,,,,,,,015,2022-05-12_11h01.43.280,FishGame,2022.1.1,60.00852121115023,
,25,넌 경솔해,5,Green,B,2.458333333333333,2.266666666666667,ScrollUp,ScrollDown,Green.png,2,Negative,Congruent,0,0,0,0,,,,,,,,,,,,,,,,,0,24,24,24,,,,,,,,,,,,,,,,,,,,,,,,,,,,,,,,,,,,,,,,,,,,,,,,,,,,,,,,,,,,,,,,,,,,,,,,,,,,,,,,,1.817901223897934,1.4114953999960562,291.9617811999997,None,ScrollUp,정답입니다,291.9617811999997,None,291.9617811999997,None,291.9617811999997,None,291.9617811999997,None,293.27425519999815,None,293.27425519999815,293.7765096000003,,,,,,,,,,,,,,,,015,2022-05-12_11h01.43.280,FishGame,2022.1.1,60.00852121115023,
,26,넌 초조해,4,Orange,A,2.916666666666667,3.133333333333333,ScrollDown,ScrollUp,Orange.png,2,Negative,Incongruent,0,0,0,0,,,,,,,,,,,,,,,,,0,25,25,25,,,,,,,,,,,,,,,,,,,,,,,,,,,,,,,,,,,,,,,,,,,,,,,,,,,,,,,,,,,,,,,,,,,,,,,,,,,,,,,,,1.253086417913437,0.8758033000049181,294.40593880000233,None,ScrollDown,정답입니다,294.40593880000233,None,294.40593880000233,None,294.40593880000233,None,294.40593880000233,None,295.17391540000244,None,295.17391540000244,295.6739828999998,,,,,,,,,,,,,,,,015,2022-05-12_11h01.43.280,FishGame,2022.1.1,60.00852121115023,
,27,넌 무관심해,4,Green,B,2.833333333333333,2.9,ScrollUp,ScrollDown,Green.png,2,Negative,Congruent,0,0,0,0,,,,,,,,,,,,,,,,,0,26,26,26,,,,,,,,,,,,,,,,,,,,,,,,,,,,,,,,,,,,,,,,,,,,,,,,,,,,,,,,,,,,,,,,,,,,,,,,,,,,,,,,,1.6172839477658272,0.7116218999944977,296.2941579000035,None,ScrollUp,정답입니다,296.2941579000035,None,296.2941579000035,None,296.2941579000035,None,296.2941579000035,None,296.9072698000018,None,296.9072698000018,297.40974200000346,,,,,,,,,,,,,,,,015,2022-05-12_11h01.43.280,FishGame,2022.1.1,60.00852121115023,
,28,넌 감성적이야,3,Green,B,4.125,4.166666666666667,ScrollUp,ScrollDown,Green.png,2,Neutral,Neutral,0,0,0,0,,,,,,,,,,,,,,,,,0,27,27,27,,,,,,,,,,,,,,,,,,,,,,,,,,,,,,,,,,,,,,,,,,,,,,,,,,,,,,,,,,,,,,,,,,,,,,,,,,,,,,,,,1.5817901206513247,0.745051699996111,298.0245406000031,None,ScrollUp,정답입니다,298.0245406000031,None,298.0245406000031,None,298.0245406000031,None,298.0245406000031,None,298.67646709999826,None,298.67646709999826,299.17635699999664,,,,,,,,,,,,,,,,015,2022-05-12_11h01.43.280,FishGame,2022.1.1,60.00852121115023,
,29,넌 배려심있어,1,Orange,A,6.083333333333333,5.5,ScrollDown,ScrollUp,Orange.png,2,Positive,Congruent,0,0,0,0,,,,,,,,,,,,,,,,,0,28,28,28,,,,,,,,,,,,,,,,,,,,,,,,,,,,,,,,,,,,,,,,,,,,,,,,,,,,,,,,,,,,,,,,,,,,,,,,,,,,,,,,,1.390432097017765,0.7948319000061019,299.81263690000196,None,ScrollDown,정답입니다,299.81263690000196,None,299.81263690000196,None,299.81263690000196,None,299.81263690000196,None,300.5074117999975,None,300.5074117999975,301.00959819999844,,,,,,,,,,,,,,,,015,2022-05-12_11h01.43.280,FishGame,2022.1.1,60.00852121115023,
,30,넌 숨김없어,3,Orange,A,4.5,4.933333333333334,ScrollDown,ScrollUp,Orange.png,2,Neutral,Neutral,0,0,0,0,,,,,,,,,,,,,,,,,0,29,29,29,,,,,,,,,,,,,,,,,,,,,,,,,,,,,,,,,,,,,,,,,,,,,,,,,,,,,,,,,,,,,,,,,,,,,,,,,,,,,,,,,1.345679017404715,0.9109256000010646,301.63010210000357,None,ScrollDown,정답입니다,301.63010210000357,None,301.63010210000357,None,301.63010210000357,None,301.63010210000357,None,302.44075870000233,None,302.44075870000233,302.9429311999993,,,,,,,,,,,,,,,,015,2022-05-12_11h01.43.280,FishGame,2022.1.1,60.00852121115023,
,31,넌 훌륭해,2,Green,B,5.916666666666667,4.033333333333333,ScrollUp,ScrollDown,Green.png,2,Positive,Incongruent,0,0,0,0,,,,,,,,,,,,,,,,,0,30,30,30,,,,,,,,,,,,,,,,,,,,,,,,,,,,,,,,,,,,,,,,,,,,,,,,,,,,,,,,,,,,,,,,,,,,,,,,,,,,,,,,,1.5416666672875485,0.7939282000006642,303.5725609000001,None,NoResponse,무응답입니다,303.5725609000001,None,303.5725609000001,None,303.5725609000001,None,303.5725609000001,None,304.25735220000206,None,304.25735220000206,304.7595603000009,,,,,,,,,,,,,,,,015,2022-05-12_11h01.43.280,FishGame,2022.1.1,60.00852121115023,
,32,넌 슬기로워,2,Orange,A,6.166666666666667,4.1,ScrollDown,ScrollUp,Orange.png,2,Positive,Congruent,0,0,0,0,,,,,,,,,,,,,,,,,0,31,31,31,,,,,,,,,,,,,,,,,,,,,,,,,,,,,,,,,,,,,,,,,,,,,,,,,,,,,,,,,,,,,,,,,,,,,,,,,,,,,,,,,1.248456800977389,1.3769616999998107,305.3792040999979,None,ScrollDown,정답입니다,305.3792040999979,None,305.3792040999979,None,305.3792040999979,None,305.3792040999979,None,306.6573642000003,None,306.6573642000003,307.1572942999992,,,,,,,,,,,,,,,,015,2022-05-12_11h01.43.280,FishGame,2022.1.1,60.00852121115023,
,33,넌 냉혹해,5,Orange,A,2.583333333333333,2.1,ScrollDown,ScrollUp,Orange.png,2,Negative,Incongruent,0,0,0,0,,,,,,,,,,,,,,,,,0,32,32,32,,,,,,,,,,,,,,,,,,,,,,,,,,,,,,,,,,,,,,,,,,,,,,,,,,,,,,,,,,,,,,,,,,,,,,,,,,,,,,,,,1.0910493781169255,0.9774058000039076,307.77948350000224,None,ScrollDown,정답입니다,307.77948350000224,None,307.77948350000224,None,307.77948350000224,None,307.77948350000224,None,308.6572726000013,None,308.6572726000013,309.15734070000326,,,,,,,,,,,,,,,,015,2022-05-12_11h01.43.280,FishGame,2022.1.1,60.00852121115023,
,34,나를 데려가줘,6,Green,B,0,0,ScrollDown,ScrollUp,Green.png,2,NonTarget,NonTarget,0,0,0,0,,,,,,,,,,,,,,,,,0,33,33,33,,,,,,,,,,,,,,,,,,,,,,,,,,,,,,,,,,,,,,,,,,,,,,,,,,,,,,,,,,,,,,,,,,,,,,,,,,,,,,,,,1.1481481442848842,1.092731000004278,309.7789077999987,None,ScrollDown,정답입니다,309.7789077999987,None,309.7789077999987,None,309.7789077999987,None,309.7789077999987,None,310.7738815999983,None,310.7738815999983,311.2762244999976,,,,,,,,,,,,,,,,015,2022-05-12_11h01.43.280,FishGame,2022.1.1,60.00852121115023,
,35,넌 편파적이야,5,Green,B,2.125,2,ScrollUp,ScrollDown,Green.png,2,Negative,Congruent,0,0,0,0,,,,,,,,,,,,,,,,,0,34,34,34,,,,,,,,,,,,,,,,,,,,,,,,,,,,,,,,,,,,,,,,,,,,,,,,,,,,,,,,,,,,,,,,,,,,,,,,,,,,,,,,,1.5679012325902781,0.8261457999979029,311.8977500000037,None,ScrollUp,정답입니다,311.8977500000037,None,311.8977500000037,None,311.8977500000037,None,311.8977500000037,None,312.6238527000023,None,312.6238527000023,313.12388369999826,,,,,,,,,,,,,,,,015,2022-05-12_11h01.43.280,FishGame,2022.1.1,60.00852121115023,
,36,넌 슬퍼,4,Orange,A,2.583333333333333,3.066666666666667,ScrollDown,ScrollUp,Orange.png,2,Negative,Incongruent,0,0,0,0,,,,,,,,,,,,,,,,,0,35,35,35,,,,,,,,,,,,,,,,,,,,,,,,,,,,,,,,,,,,,,,,,,,,,,,,,,,,,,,,,,,,,,,,,,,,,,,,,,,,,,,,,1.3194444427887597,0.9613750999997137,313.7478320000009,None,ScrollDown,정답입니다,313.7478320000009,None,313.7478320000009,None,313.7478320000009,None,313.7478320000009,None,314.6071099000037,None,314.6071099000037,315.10930720000033,,,,,,,,,,,,,,,,015,2022-05-12_11h01.43.280,FishGame,2022.1.1,60.00852121115023,
,37,나를 데려가줘,6,Green,B,0,0,ScrollDown,ScrollUp,Green.png,2,NonTarget,NonTarget,0,0,0,0,,,,,,,,,,,,,,,,,0,36,36,36,,,,,,,,,,,,,,,,,,,,,,,,,,,,,,,,,,,,,,,,,,,,,,,,,,,,,,,,,,,,,,,,,,,,,,,,,,,,,,,,,1.2901234527428946,0.9937770000033197,315.7248197000008,None,ScrollDown,정답입니다,315.7248197000008,None,315.7248197000008,None,315.7248197000008,None,315.7248197000008,None,316.62377600000036,None,316.62377600000036,317.12601449999784,,,,,,,,,,,,,,,,015,2022-05-12_11h01.43.280,FishGame,2022.1.1,60.00852121115023,
,38,넌 친절해,1,Green,B,6.041666666666667,5.533333333333333,ScrollUp,ScrollDown,Green.png,2,Positive,Incongruent,0,0,0,0,,,,,,,,,,,,,,,,,0,37,37,37,,,,,,,,,,,,,,,,,,,,,,,,,,,,,,,,,,,,,,,,,,,,,,,,,,,,,,,,,,,,,,,,,,,,,,,,,,,,,,,,,1.632716049750646,1.2115673000007519,317.74670440000045,None,ScrollUp,정답입니다,317.74670440000045,None,317.74670440000045,None,317.74670440000045,None,317.74670440000045,None,318.8569892000014,None,318.8569892000014,319.35917869999685,,,,,,,,,,,,,,,,015,2022-05-12_11h01.43.280,FishGame,2022.1.1,60.00852121115023,
,1,넌 엉성해,4,Orange,A,3,3.3,ScrollDown,ScrollUp,Orange.png,3,Negative,Incongruent,0,0,0,0,,,,,,,,,,,,,,,,,,,,,0,0,0,0,,,,,,,,,,,,,,,,,,,,,,,,,,,,,,,,,,,,351.4232505999971,352.92544440000347,352.9588111999983,353.9087103999991,353.9587393999973,354.9254535,354.90881400000217,None,,,,,,,,,,,,,,,,,,,,,,,,,,,,,,,,,,1.3040123408039412,1.008924500005378,356.0183795999983,None,ScrollDown,정답입니다,356.0183795999983,None,356.0183795999983,None,356.0183795999983,None,356.0183795999983,None,356.9229675000024,None,356.9229675000024,357.4229822999987,319.8571159999992,None,319.8571159999992,None,0.45555556,-0.010185185,1,0,0,0.015957899995555636,None,349.85645929999737,None,,,015,2022-05-12_11h01.43.280,FishGame,2022.1.1,60.00852121115023,
,2,나를 보내줘,6,Orange,A,0,0,ScrollUp,ScrollDown,Orange.png,3,NonTarget,NonTarget,0,0,0,0,,,,,,,,,,,,,,,,,,,,,0,1,1,1,,,,,,,,,,,,,,,,,,,,,,,,,,,,,,,,,,,,,,,,,,,,,,,,,,,,,,,,,,,,,,,,,,,,,,,,,,,,,1.6728395000100136,1.1942781999969156,358.04224480000266,None,ScrollUp,정답입니다,358.04224480000266,None,358.04224480000266,None,358.04224480000266,None,358.04224480000266,None,359.1395709999997,None,359.1395709999997,359.6417089000024,,,,,,,,,,,,,,,,015,2022-05-12_11h01.43.280,FishGame,2022.1.1,60.00852121115023,
,3,넌 활발해,1,Green,B,5.666666666666667,5.6,ScrollUp,ScrollDown,Green.png,3,Positive,Incongruent,0,0,0,0,,,,,,,,,,,,,,,,,,,,,0,2,2,2,,,,,,,,,,,,,,,,,,,,,,,,,,,,,,,,,,,,,,,,,,,,,,,,,,,,,,,,,,,,,,,,,,,,,,,,,,,,,1.6450617238879204,0.9761090999963926,360.2615369999985,None,ScrollUp,정답입니다,360.2615369999985,None,360.2615369999985,None,360.2615369999985,None,360.2615369999985,None,361.1395335999987,None,361.1395335999987,361.6417548000027,,,,,,,,,,,,,,,,015,2022-05-12_11h01.43.280,FishGame,2022.1.1,60.00852121115023,
,4,넌 논리적이야,2,Orange,A,5.666666666666666,4.633333333333334,ScrollDown,ScrollUp,Orange.png,3,Positive,Congruent,0,0,0,0,,,,,,,,,,,,,,,,,,,,,0,3,3,3,,,,,,,,,,,,,,,,,,,,,,,,,,,,,,,,,,,,,,,,,,,,,,,,,,,,,,,,,,,,,,,,,,,,,,,,,,,,,1.3641975348194442,0.8090093999999226,362.2674036000026,None,ScrollDown,정답입니다,362.2674036000026,None,362.2674036000026,None,362.2674036000026,None,362.2674036000026,None,362.9725486000025,None,362.9725486000025,363.4726378999985,,,,,,,,,,,,,,,,015,2022-05-12_11h01.43.280,FishGame,2022.1.1,60.00852121115023,
,5,넌 과묵해,3,Orange,A,3.875,4.4,ScrollDown,ScrollUp,Orange.png,3,Neutral,Neutral,0,0,0,0,,,,,,,,,,,,,,,,,,,,,0,4,4,4,,,,,,,,,,,,,,,,,,,,,,,,,,,,,,,,,,,,,,,,,,,,,,,,,,,,,,,,,,,,,,,,,,,,,,,,,,,,,1.3626543208956718,0.8452925000019604,364.0952757999985,None,ScrollDown,정답입니다,364.0952757999985,None,364.0952757999985,None,364.0952757999985,None,364.0952757999985,None,364.8392304000008,None,364.8392304000008,365.3418523,,,,,,,,,,,,,,,,015,2022-05-12_11h01.43.280,FishGame,2022.1.1,60.00852121115023,
,6,나를 데려가줘,6,Green,B,0,0,ScrollDown,ScrollUp,Green.png,3,NonTarget,NonTarget,0,0,0,0,,,,,,,,,,,,,,,,,,,,,0,5,5,5,,,,,,,,,,,,,,,,,,,,,,,,,,,,,,,,,,,,,,,,,,,,,,,,,,,,,,,,,,,,,,,,,,,,,,,,,,,,,1.2237654278675716,1.095038100000238,365.9580750000023,None,ScrollDown,정답입니다,365.9580750000023,None,365.9580750000023,None,365.9580750000023,None,365.9580750000023,None,366.9584362000023,None,366.9584362000023,367.4585261000029,,,,,,,,,,,,,,,,015,2022-05-12_11h01.43.280,FishGame,2022.1.1,60.00852121115023,
,7,넌 미숙해,4,Green,B,3,3,ScrollUp,ScrollDown,Green.png,3,Negative,Congruent,0,0,0,0,,,,,,,,,,,,,,,,,,,,,0,6,6,6,,,,,,,,,,,,,,,,,,,,,,,,,,,,,,,,,,,,,,,,,,,,,,,,,,,,,,,,,,,,,,,,,,,,,,,,,,,,,1.743827154239019,1.4270627000005334,368.0735041000007,None,ScrollUp,정답입니다,368.0735041000007,None,368.0735041000007,None,368.0735041000007,None,368.0735041000007,None,369.4060391000021,None,369.4060391000021,369.90829340000346,,,,,,,,,,,,,,,,015,2022-05-12_11h01.43.280,FishGame,2022.1.1,60.00852121115023,
,8,나를 보내줘,6,Orange,A,0,0,ScrollUp,ScrollDown,Orange.png,3,NonTarget,NonTarget,0,0,0,0,,,,,,,,,,,,,,,,,,,,,0,7,7,7,,,,,,,,,,,,,,,,,,,,,,,,,,,,,,,,,,,,,,,,,,,,,,,,,,,,,,,,,,,,,,,,,,,,,,,,,,,,,1.8364197413126628,1.02617850000388,370.52992839999933,None,ScrollUp,정답입니다,370.52992839999933,None,370.52992839999933,None,370.52992839999933,None,370.52992839999933,None,371.45810699999856,None,371.45810699999856,371.97269889999734,,,,,,,,,,,,,,,,015,2022-05-12_11h01.43.280,FishGame,2022.1.1,60.00852121115023,
,9,넌 자신만만해,3,Green,B,4.833333333333334,4.333333333333333,ScrollUp,ScrollDown,Green.png,3,Neutral,Neutral,0,0,0,0,,,,,,,,,,,,,,,,,,,,,0,8,8,8,,,,,,,,,,,,,,,,,,,,,,,,,,,,,,,,,,,,,,,,,,,,,,,,,,,,,,,,,,,,,,,,,,,,,,,,,,,,,1.5524691368142762,1.1780959000025177,372.5890642000013,None,ScrollUp,정답입니다,372.5890642000013,None,372.5890642000013,None,372.5890642000013,None,372.5890642000013,None,373.6747783000028,None,373.6747783000028,374.19149409999955,,,,,,,,,,,,,,,,015,2022-05-12_11h01.43.280,FishGame,2022.1.1,60.00852121115023,
,10,넌 탐욕스러워,5,Orange,A,2.25,2.1,ScrollDown,ScrollUp,Orange.png,3,Negative,Incongruent,0,0,0,0,,,,,,,,,,,,,,,,,,,,,0,9,9,9,,,,,,,,,,,,,,,,,,,,,,,,,,,,,,,,,,,,,,,,,,,,,,,,,,,,,,,,,,,,,,,,,,,,,,,,,,,,,1.233024686574936,1.5092048000005889,374.79820669999754,None,ScrollDown,정답입니다,374.79820669999754,None,374.79820669999754,None,374.79820669999754,None,374.79820669999754,None,376.20587499999965,None,376.20587499999965,376.7080496999988,,,,,,,,,,,,,,,,015,2022-05-12_11h01.43.280,FishGame,2022.1.1,60.00852121115023,
,11,넌 인기있어,2,Orange,A,5.458333333333333,4.5,ScrollDown,ScrollUp,Orange.png,3,Positive,Congruent,0,0,0,0,,,,,,,,,,,,,,,,,,,,,0,10,10,10,,,,,,,,,,,,,,,,,,,,,,,,,,,,,,,,,,,,,,,,,,,,,,,,,,,,,,,,,,,,,,,,,,,,,,,,,,,,,1.162037044763565,0.9759007000029669,377.32763539999723,None,ScrollDown,정답입니다,377.32763539999723,None,377.32763539999723,None,377.32763539999723,None,377.32763539999723,None,378.2058651999978,None,378.2058651999978,378.7081681999989,,,,,,,,,,,,,,,,015,2022-05-12_11h01.43.280,FishGame,2022.1.1,60.00852121115023,
,12,나를 데려가줘,6,Green,B,0,0,ScrollDown,ScrollUp,Green.png,3,NonTarget,NonTarget,0,0,0,0,,,,,,,,,,,,,,,,,,,,,0,11,11,11,,,,,,,,,,,,,,,,,,,,,,,,,,,,,,,,,,,,,,,,,,,,,,,,,,,,,,,,,,,,,,,,,,,,,,,,,,,,,1.0231481393178303,1.293386899997131,379.3240779999978,None,ScrollDown,정답입니다,379.3240779999978,None,379.3240779999978,None,379.3240779999978,None,379.3240779999978,None,380.52245330000005,None,380.52245330000005,381.022521400002,,,,,,,,,,,,,,,,015,2022-05-12_11h01.43.280,FishGame,2022.1.1,60.00852121115023,
,13,넌 뛰어나,2,Green,B,6.166666666666667,4,ScrollUp,ScrollDown,Green.png,3,Positive,Incongruent,0,0,0,0,,,,,,,,,,,,,,,,,,,,,0,12,12,12,,,,,,,,,,,,,,,,,,,,,,,,,,,,,,,,,,,,,,,,,,,,,,,,,,,,,,,,,,,,,,,,,,,,,,,,,,,,,1.7901234477758408,0.9281247999970219,381.6455227999977,None,ScrollUp,정답입니다,381.6455227999977,None,381.6455227999977,None,381.6455227999977,None,381.6455227999977,None,382.4724455999967,None,382.4724455999967,382.97465699999884,,,,,,,,,,,,,,,,015,2022-05-12_11h01.43.280,FishGame,2022.1.1,60.00852121115023,
,14,넌 낙관적이야,1,Orange,A,5.75,5.8,ScrollDown,ScrollUp,Orange.png,3,Positive,Congruent,0,0,0,0,,,,,,,,,,,,,,,,,,,,,0,13,13,13,,,,,,,,,,,,,,,,,,,,,,,,,,,,,,,,,,,,,,,,,,,,,,,,,,,,,,,,,,,,,,,,,,,,,,,,,,,,,1.1790123482545216,0.9258460999990348,383.603480400001,None,ScrollDown,정답입니다,383.603480400001,None,383.603480400001,None,383.603480400001,None,383.603480400001,None,384.42213929999707,None,384.42213929999707,384.9222013000035,,,,,,,,,,,,,,,,015,2022-05-12_11h01.43.280,FishGame,2022.1.1,60.00852121115023,
,15,넌 산만해,4,Green,B,2.695652173913043,3.033333333333333,ScrollUp,ScrollDown,Green.png,3,Negative,Congruent,0,0,0,0,,,,,,,,,,,,,,,,,,,,,0,14,14,14,,,,,,,,,,,,,,,,,,,,,,,,,,,,,,,,,,,,,,,,,,,,,,,,,,,,,,,,,,,,,,,,,,,,,,,,,,,,,1.9135802388191223,1.130488200004038,385.5430867000032,None,ScrollUp,정답입니다,385.5430867000032,None,385.5430867000032,None,385.5430867000032,None,385.5430867000032,None,386.5746528000018,None,386.5746528000018,387.07476719999977,,,,,,,,,,,,,,,,015,2022-05-12_11h01.43.280,FishGame,2022.1.1,60.00852121115023,
,16,나를 보내줘,6,Orange,A,0,0,ScrollUp,ScrollDown,Orange.png,3,NonTarget,NonTarget,0,0,0,0,,,,,,,,,,,,,,,,,,,,,0,15,15,15,,,,,,,,,,,,,,,,,,,,,,,,,,,,,,,,,,,,,,,,,,,,,,,,,,,,,,,,,,,,,,,,,,,,,,,,,,,,,1.589506171643734,1.3254032000040752,387.695112399997,None,ScrollUp,정답입니다,387.695112399997,None,387.695112399997,None,387.695112399997,None,387.695112399997,None,388.91767660000187,None,388.91767660000187,389.4223809000032,,,,,,,,,,,,,,,,015,2022-05-12_11h01.43.280,FishGame,2022.1.1,60.00852121115023,
,17,넌 교활해,5,Green,B,2.333333333333333,2.133333333333333,ScrollUp,ScrollDown,Green.png,3,Negative,Congruent,0,0,0,0,,,,,,,,,,,,,,,,,,,,,0,16,16,16,,,,,,,,,,,,,,,,,,,,,,,,,,,,,,,,,,,,,,,,,,,,,,,,,,,,,,,,,,,,,,,,,,,,,,,,,,,,,1.7407407512267432,1.2617867000008118,390.0446035999994,None,ScrollUp,정답입니다,390.0446035999994,None,390.0446035999994,None,390.0446035999994,None,390.0446035999994,None,391.2056262999977,None,391.2056262999977,391.70789910000167,,,,,,,,,,,,,,,,015,2022-05-12_11h01.43.280,FishGame,2022.1.1,60.00852121115023,
,18,나를 보내줘,6,Orange,A,0,0,ScrollUp,ScrollDown,Orange.png,3,NonTarget,NonTarget,0,0,0,0,,,,,,,,,,,,,,,,,,,,,0,17,17,17,,,,,,,,,,,,,,,,,,,,,,,,,,,,,,,,,,,,,,,,,,,,,,,,,,,,,,,,,,,,,,,,,,,,,,,,,,,,,1.658950611948967,1.1257792999967933,392.34378229999857,None,ScrollUp,정답입니다,392.34378229999857,None,392.34378229999857,None,392.34378229999857,None,392.34378229999857,None,393.3555004000009,None,393.3555004000009,393.8556238000019,,,,,,,,,,,,,,,,015,2022-05-12_11h01.43.280,FishGame,2022.1.1,60.00852121115023,
,19,넌 불친절해,5,Green,B,2.208333333333333,2.033333333333333,ScrollUp,ScrollDown,Green.png,3,Negative,Congruent,0,0,0,0,,,,,,,,,,,,,,,,,,,,,0,18,18,18,,,,,,,,,,,,,,,,,,,,,,,,,,,,,,,,,,,,,,,,,,,,,,,,,,,,,,,,,,,,,,,,,,,,,,,,,,,,,1.629629634320736,0.794760500000848,394.4750220999995,None,ScrollUp,정답입니다,394.4750220999995,None,394.4750220999995,None,394.4750220999995,None,394.4750220999995,None,395.172190199999,None,395.172190199999,395.67439970000123,,,,,,,,,,,,,,,,015,2022-05-12_11h01.43.280,FishGame,2022.1.1,60.00852121115023,
,20,넌 지적이야,2,Green,B,5.75,4.366666666666666,ScrollUp,ScrollDown,Green.png,3,Positive,Incongruent,0,0,0,0,,,,,,,,,,,,,,,,,,,,,0,19,19,19,,,,,,,,,,,,,,,,,,,,,,,,,,,,,,,,,,,,,,,,,,,,,,,,,,,,,,,,,,,,,,,,,,,,,,,,,,,,,1.5308641977608204,0.7771042000022135,396.2975185999967,None,NoResponse,무응답입니다,396.2975185999967,None,396.2975185999967,None,396.2975185999967,None,396.2975185999967,None,396.97220299999753,None,396.97220299999753,397.4721974999993,,,,,,,,,,,,,,,,015,2022-05-12_11h01.43.280,FishGame,2022.1.1,60.00852121115023,
,21,넌 우유부단해,4,Orange,A,2.666666666666667,3.166666666666667,ScrollDown,ScrollUp,Orange.png,3,Negative,Incongruent,0,0,0,0,,,,,,,,,,,,,,,,,,,,,0,20,20,20,,,,,,,,,,,,,,,,,,,,,,,,,,,,,,,,,,,,,,,,,,,,,,,,,,,,,,,,,,,,,,,,,,,,,,,,,,,,,1.1990740795930226,1.2448820999998134,398.0962778999965,None,ScrollDown,정답입니다,398.0962778999965,None,398.0962778999965,None,398.0962778999965,None,398.0962778999965,None,399.2387455999997,None,399.2387455999997,399.74100010000257,,,,,,,,,,,,,,,,015,2022-05-12_11h01.43.280,FishGame,2022.1.1,60.00852121115023,
,22,나를 데려가줘,6,Green,B,0,0,ScrollDown,ScrollUp,Green.png,3,NonTarget,NonTarget,0,0,0,0,,,,,,,,,,,,,,,,,,,,,0,21,21,21,,,,,,,,,,,,,,,,,,,,,,,,,,,,,,,,,,,,,,,,,,,,,,,,,,,,,,,,,,,,,,,,,,,,,,,,,,,,,1.1373456716537476,1.3283926000003703,400.3548568999977,None,ScrollDown,정답입니다,400.3548568999977,None,400.3548568999977,None,400.3548568999977,None,400.3548568999977,None,401.5887667999996,None,401.5887667999996,402.0909705000013,,,,,,,,,,,,,,,,015,2022-05-12_11h01.43.280,FishGame,2022.1.1,60.00852121115023,
,23,넌 성실해,1,Green,B,6.041666666666666,5.7,ScrollUp,ScrollDown,Green.png,3,Positive,Incongruent,0,0,0,0,,,,,,,,,,,,,,,,,,,,,0,22,22,22,,,,,,,,,,,,,,,,,,,,,,,,,,,,,,,,,,,,,,,,,,,,,,,,,,,,,,,,,,,,,,,,,,,,,,,,,,,,,1.5246913575877747,0.8905687000005855,402.7133337999985,None,NoResponse,무응답입니다,402.7133337999985,None,402.7133337999985,None,402.7133337999985,None,402.7133337999985,None,403.5050870999985,None,403.5050870999985,404.00515879999875,,,,,,,,,,,,,,,,015,2022-05-12_11h01.43.280,FishGame,2022.1.1,60.00852121115023,
,24,넌 현실주의적이야,3,Orange,A,4.625,4.4,ScrollDown,ScrollUp,Orange.png,3,Neutral,Neutral,0,0,0,0,,,,,,,,,,,,,,,,,,,,,0,23,23,23,,,,,,,,,,,,,,,,,,,,,,,,,,,,,,,,,,,,,,,,,,,,,,,,,,,,,,,,,,,,,,,,,,,,,,,,,,,,,1.2037036965290706,2.078292699996382,404.6287166999973,None,ScrollDown,정답입니다,404.6287166999973,None,404.6287166999973,None,404.6287166999973,None,404.6287166999973,None,406.60770919999777,None,406.60770919999777,407.1076077999969,,,,,,,,,,,,,,,,015,2022-05-12_11h01.43.280,FishGame,2022.1.1,60.00852121115023,
,25,넌 진실돼,1,Orange,A,6.625,5.566666666666666,ScrollDown,ScrollUp,Orange.png,3,Positive,Congruent,0,0,0,0,,,,,,,,,,,,,,,,,,,,,0,24,24,24,,,,,,,,,,,,,,,,,,,,,,,,,,,,,,,,,,,,,,,,,,,,,,,,,,,,,,,,,,,,,,,,,,,,,,,,,,,,,1.160493830839793,1.0103832000022521,407.73068890000286,None,ScrollDown,정답입니다,407.73068890000286,None,407.73068890000286,None,407.73068890000286,None,407.73068890000286,None,408.63859899999807,None,408.63859899999807,409.1386328000008,,,,,,,,,,,,,,,,015,2022-05-12_11h01.43.280,FishGame,2022.1.1,60.00852121115023,
,26,넌 천진난만해,3,Green,B,4.958333333333334,4.833333333333333,ScrollUp,ScrollDown,Green.png,3,Neutral,Neutral,0,0,0,0,,,,,,,,,,,,,,,,,,,,,0,25,25,25,,,,,,,,,,,,,,,,,,,,,,,,,,,,,,,,,,,,,,,,,,,,,,,,,,,,,,,,,,,,,,,,,,,,,,,,,,,,,2,0.8927488999979687,409.76728719999664,None,ScrollUp,정답입니다,409.76728719999664,None,409.76728719999664,None,409.76728719999664,None,409.76728719999664,None,410.55523740000353,None,410.55523740000353,411.0553151999993,,,,,,,,,,,,,,,,015,2022-05-12_11h01.43.280,FishGame,2022.1.1,60.00852121115023,
,27,넌 교양없어,5,Orange,A,2.416666666666667,2.2,ScrollDown,ScrollUp,Orange.png,3,Negative,Incongruent,0,0,0,0,,,,,,,,,,,,,,,,,,,,,0,26,26,26,,,,,,,,,,,,,,,,,,,,,,,,,,,,,,,,,,,,,,,,,,,,,,,,,,,,,,,,,,,,,,,,,,,,,,,,,,,,,1,1.0591479999930016,411.68430320000334,None,ScrollDown,정답입니다,411.68430320000334,None,411.68430320000334,None,411.68430320000334,None,411.68430320000334,None,412.6384993000029,None,412.6384993000029,413.1385687000002,,,,,,,,,,,,,,,,015,2022-05-12_11h01.43.280,FishGame,2022.1.1,60.00852121115023,
,28,나를 보내줘,6,Orange,A,0,0,ScrollUp,ScrollDown,Orange.png,3,NonTarget,NonTarget,0,0,0,0,,,,,,,,,,,,,,,,,,,,,0,27,27,27,,,,,,,,,,,,,,,,,,,,,,,,,,,,,,,,,,,,,,,,,,,,,,,,,,,,,,,,,,,,,,,,,,,,,,,,,,,,,1.8163580348094304,1.2425652000019909,413.7619190999976,None,ScrollUp,정답입니다,413.7619190999976,None,413.7619190999976,None,413.7619190999976,None,413.7619190999976,None,414.9051821999965,None,414.9051821999965,415.4105664000017,,,,,,,,,,,,,,,,015,2022-05-12_11h01.43.280,FishGame,2022.1.1,60.00852121115023,
,29,넌 엉뚱스러워,3,Orange,A,4.166666666666667,4.133333333333334,ScrollDown,ScrollUp,Orange.png,3,Neutral,Neutral,0,0,0,0,,,,,,,,,,,,,,,,,,,,,0,28,28,28,,,,,,,,,,,,,,,,,,,,,,,,,,,,,,,,,,,,,,,,,,,,,,,,,,,,,,,,,,,,,,,,,,,,,,,,,,,,,1.71296297510465,0.9260408999980427,416.04423769999994,None,ScrollUp,오답입니다,416.04423769999994,None,416.04423769999994,None,416.04423769999994,None,416.04423769999994,None,416.85514220000186,None,416.85514220000186,417.35725719999755,,,,,,,,,,,,,,,,015,2022-05-12_11h01.43.280,FishGame,2022.1.1,60.00852121115023,
,30,넌 무지해,4,Green,B,2.541666666666667,3.066666666666667,ScrollUp,ScrollDown,Green.png,3,Negative,Congruent,0,0,0,0,,,,,,,,,,,,,,,,,,,,,0,29,29,29,,,,,,,,,,,,,,,,,,,,,,,,,,,,,,,,,,,,,,,,,,,,,,,,,,,,,,,,,,,,,,,,,,,,,,,,,,,,,1.904320980111758,1.027977900004771,417.97814050000306,None,ScrollUp,정답입니다,417.97814050000306,None,417.97814050000306,None,417.97814050000306,None,417.97814050000306,None,418.90508630000113,None,418.90508630000113,419.40512930000114,,,,,,,,,,,,,,,,015,2022-05-12_11h01.43.280,FishGame,2022.1.1,60.00852121115023,
,31,넌 음울해,5,Green,B,2.25,2.233333333333333,ScrollUp,ScrollDown,Green.png,3,Negative,Congruent,0,0,0,0,,,,,,,,,,,,,,,,,,,,,0,30,30,30,,,,,,,,,,,,,,,,,,,,,,,,,,,,,,,,,,,,,,,,,,,,,,,,,,,,,,,,,,,,,,,,,,,,,,,,,,,,,1.6234567910432816,1.0779532000015024,420.0298584999982,None,ScrollUp,정답입니다,420.0298584999982,None,420.0298584999982,None,420.0298584999982,None,420.0298584999982,None,421.0049711000029,None,421.0049711000029,421.5071601000018,,,,,,,,,,,,,,,,015,2022-05-12_11h01.43.280,FishGame,2022.1.1,60.00852121115023,
,32,넌 냉소적이야,5,Orange,A,2.916666666666667,2.4,ScrollDown,ScrollUp,Orange.png,3,Negative,Incongruent,0,0,0,0,,,,,,,,,,,,,,,,,,,,,0,31,31,31,,,,,,,,,,,,,,,,,,,,,,,,,,,,,,,,,,,,,,,,,,,,,,,,,,,,,,,,,,,,,,,,,,,,,,,,,,,,,1.1373456716537476,1.0449394000024768,422.1295240000036,None,ScrollDown,정답입니다,422.1295240000036,None,422.1295240000036,None,422.1295240000036,None,422.1295240000036,None,423.0716603999972,None,423.0716603999972,423.57386360000237,,,,,,,,,,,,,,,,015,2022-05-12_11h01.43.280,FishGame,2022.1.1,60.00852121115023,
,33,나를 데려가줘,6,Green,B,0,0,ScrollDown,ScrollUp,Green.png,3,NonTarget,NonTarget,0,0,0,0,,,,,,,,,,,,,,,,,,,,,0,32,32,32,,,,,,,,,,,,,,,,,,,,,,,,,,,,,,,,,,,,,,,,,,,,,,,,,,,,,,,,,,,,,,,,,,,,,,,,,,,,,1,1.4281236000024364,424.192727200003,None,ScrollDown,정답입니다,424.192727200003,None,424.192727200003,None,424.192727200003,None,424.192727200003,None,425.5213291999971,None,425.5213291999971,426.021390599999,,,,,,,,,,,,,,,,015,2022-05-12_11h01.43.280,FishGame,2022.1.1,60.00852121115023,
,34,넌 쾌활해,1,Orange,A,5.541666666666666,5.733333333333333,ScrollDown,ScrollUp,Orange.png,3,Positive,Congruent,0,0,0,0,,,,,,,,,,,,,,,,,,,,,0,33,33,33,,,,,,,,,,,,,,,,,,,,,,,,,,,,,,,,,,,,,,,,,,,,,,,,,,,,,,,,,,,,,,,,,,,,,,,,,,,,,1.0879629751046498,1.0114832000035676,426.644415499999,None,ScrollDown,정답입니다,426.644415499999,None,426.644415499999,None,426.644415499999,None,426.644415499999,None,427.5546611000027,None,427.5546611000027,428.0572116999974,,,,,,,,,,,,,,,,015,2022-05-12_11h01.43.280,FishGame,2022.1.1,60.00852121115023,
,35,나를 보내줘,6,Orange,A,0,0,ScrollUp,ScrollDown,Orange.png,3,NonTarget,NonTarget,0,0,0,0,,,,,,,,,,,,,,,,,,,,,0,34,34,34,,,,,,,,,,,,,,,,,,,,,,,,,,,,,,,,,,,,,,,,,,,,,,,,,,,,,,,,,,,,,,,,,,,,,,,,,,,,,1.8827160596847534,1.1594695999956457,428.67529079999804,None,ScrollUp,정답입니다,428.67529079999804,None,428.67529079999804,None,428.67529079999804,None,428.67529079999804,None,429.7406178000019,None,429.7406178000019,430.25486490000185,,,,,,,,,,,,,,,,015,2022-05-12_11h01.43.280,FishGame,2022.1.1,60.00852121115023,
,36,넌 명랑해,1,Green,B,5.739130434782609,5.666666666666667,ScrollUp,ScrollDown,Green.png,3,Positive,Incongruent,0,0,0,0,,,,,,,,,,,,,,,,,,,,,0,35,35,35,,,,,,,,,,,,,,,,,,,,,,,,,,,,,,,,,,,,,,,,,,,,,,,,,,,,,,,,,,,,,,,,,,,,,,,,,,,,,1.89969136317571,1.0924547000031453,430.8619875000004,None,ScrollUp,정답입니다,430.8619875000004,None,430.8619875000004,None,430.8619875000004,None,430.8619875000004,None,431.8547963000019,None,431.8547963000019,432.3548916,,,,,,,,,,,,,,,,015,2022-05-12_11h01.43.280,FishGame,2022.1.1,60.00852121115023,
,37,넌 멍해,4,Orange,A,2.833333333333333,3.4,ScrollDown,ScrollUp,Orange.png,3,Negative,Incongruent,0,0,0,0,,,,,,,,,,,,,,,,,,,,,0,36,36,36,,,,,,,,,,,,,,,,,,,,,,,,,,,,,,,,,,,,,,,,,,,,,,,,,,,,,,,,,,,,,,,,,,,,,,,,,,,,,1.0108024775981903,1.0629488000049605,432.9891377000022,None,ScrollDown,정답입니다,432.9891377000022,None,432.9891377000022,None,432.9891377000022,None,432.9891377000022,None,433.93803650000336,None,433.93803650000336,434.4380966000026,,,,,,,,,,,,,,,,015,2022-05-12_11h01.43.280,FishGame,2022.1.1,60.00852121115023,
,38,나를 데려가줘,6,Green,B,0,0,ScrollDown,ScrollUp,Green.png,3,NonTarget,NonTarget,0,0,0,0,,,,,,,,,,,,,,,,,,,,,0,37,37,37,,,,,,,,,,,,,,,,,,,,,,,,,,,,,,,,,,,,,,,,,,,,,,,,,,,,,,,,,,,,,,,,,,,,,,,,,,,,,1,1.242782499997702,435.0601603000032,None,ScrollDown,정답입니다,435.0601603000032,None,435.0601603000032,None,435.0601603000032,None,435.0601603000032,None,436.20473559999664,None,436.20473559999664,436.7069177000012,,,,,,,,,,,,,,,,015,2022-05-12_11h01.43.280,FishGame,2022.1.1,60.00852121115023,
,39,넌 현명해,2,Orange,A,6.541666666666666,4.533333333333333,ScrollDown,ScrollUp,Orange.png,3,Positive,Congruent,0,0,0,0,,,,,,,,,,,,,,,,,,,,,0,38,38,38,,,,,,,,,,,,,,,,,,,,,,,,,,,,,,,,,,,,,,,,,,,,,,,,,,,,,,,,,,,,,,,,,,,,,,,,,,,,,1,1.1259563999992679,437.32741469999746,None,ScrollDown,정답입니다,437.32741469999746,None,437.32741469999746,None,437.32741469999746,None,437.32741469999746,None,438.3546064999973,None,438.3546064999973,438.8546955999991,,,,,,,,,,,,,,,,015,2022-05-12_11h01.43.280,FishGame,2022.1.1,60.00852121115023,
,40,넌 수줍어,3,Green,B,3.541666666666666,4.366666666666666,ScrollUp,ScrollDown,Green.png,3,Neutral,Neutral,0,0,0,0,,,,,,,,,,,,,,,,,,,,,0,39,39,39,,,,,,,,,,,,,,,,,,,,,,,,,,,,,,,,,,,,,,,,,,,,,,,,,,,,,,,,,,,,,,,,,,,,,,,,,,,,,1.8240740795930226,1.0445373999973526,439.481171200001,None,ScrollUp,정답입니다,439.481171200001,None,439.481171200001,None,439.481171200001,None,439.481171200001,None,440.42128850000154,None,440.42128850000154,440.92360850000114,,,,,,,,,,,,,,,,015,2022-05-12_11h01.43.280,FishGame,2022.1.1,60.00852121115023,
,41,나를 데려가줘,6,Green,B,0,0,ScrollDown,ScrollUp,Green.png,3,NonTarget,NonTarget,0,0,0,0,,,,,,,,,,,,,,,,,,,,,0,40,40,40,,,,,,,,,,,,,,,,,,,,,,,,,,,,,,,,,,,,,,,,,,,,,,,,,,,,,,,,,,,,,,,,,,,,,,,,,,,,,1,1.3925792000009096,441.54233139999997,None,ScrollDown,정답입니다,441.54233139999997,None,441.54233139999997,None,441.54233139999997,None,441.54233139999997,None,442.83788549999736,None,442.83788549999736,443.3400767999992,,,,,,,,,,,,,,,,015,2022-05-12_11h01.43.280,FishGame,2022.1.1,60.00852121115023,
,42,넌 성숙해,2,Green,B,5.833333333333333,4.533333333333333,ScrollUp,ScrollDown,Green.png,3,Positive,Incongruent,0,0,0,0,,,,,,,,,,,,,,,,,,,,,0,41,41,41,,,,,,,,,,,,,,,,,,,,,,,,,,,,,,,,,,,,,,,,,,,,,,,,,,,,,,,,,,,,,,,,,,,,,,,,,,,,,1.743827154239019,1.592557099997066,443.9568909000009,None,ScrollUp,정답입니다,443.9568909000009,None,443.9568909000009,None,443.9568909000009,None,443.9568909000009,None,445.454559400001,None,445.454559400001,445.9545719000016,,,,,,,,,,,,,,,,015,2022-05-12_11h01.43.280,FishGame,2022.1.1,60.00852121115023,
,1,넌 매력적이야,2,Green,B,6.125,4.666666666666667,ScrollUp,ScrollDown,Green.png,4,Positive,Incongruent,0,0,0,0,,,,,,,,,,,,,,,,,,,,,,,,,0,0,0,0,,,,,,,,,,,,,,,,,,,,,,,,,,,,,,,,477.70411810000223,479.2062842000014,479.23720460000186,480.1925979000007,480.2371568000017,481.1896265000032,481.1896265000032,None,,,,,,,,,,,,,,,,,,,,,,,,,,,,,,,,,,1.7716049303611119,1.0566956999973627,482.2994949999993,None,ScrollUp,정답입니다,482.2994949999993,None,482.2994949999993,None,482.2994949999993,None,482.2994949999993,None,483.2559945999965,None,483.2559945999965,483.75600349999877,446.45679389999714,None,446.45679389999714,None,0.33888888,-0.14907408,1,0,0,0.015977299997757655,None,476.45622130000265,None,,,015,2022-05-12_11h01.43.280,FishGame,2022.1.1,60.00852121115023,
,2,나를 보내줘,6,Orange,A,0,0,ScrollUp,ScrollDown,Orange.png,4,NonTarget,NonTarget,0,0,0,0,,,,,,,,,,,,,,,,,,,,,,,,,0,1,1,1,,,,,,,,,,,,,,,,,,,,,,,,,,,,,,,,,,,,,,,,,,,,,,,,,,,,,,,,,,,,,,,,,,,,,,,,,1.6604938258727393,1.2279061000008369,484.37296040000365,None,ScrollUp,정답입니다,484.37296040000365,None,484.37296040000365,None,484.37296040000365,None,484.37296040000365,None,485.5037053999986,None,485.5037053999986,486.00373959999706,,,,,,,,,,,,,,,,015,2022-05-12_11h01.43.280,FishGame,2022.1.1,60.00852121115023,
,3,넌 조심스러워,3,Orange,A,4.791666666666666,4.666666666666667,ScrollDown,ScrollUp,Orange.png,4,Neutral,Neutral,0,0,0,0,,,,,,,,,,,,,,,,,,,,,,,,,0,2,2,2,,,,,,,,,,,,,,,,,,,,,,,,,,,,,,,,,,,,,,,,,,,,,,,,,,,,,,,,,,,,,,,,,,,,,,,,,1.2268518557151158,0.8613588000007439,486.62401079999836,None,ScrollDown,정답입니다,486.62401079999836,None,486.62401079999836,None,486.62401079999836,None,486.62401079999836,None,487.3870975000027,None,487.3870975000027,487.88920930000313,,,,,,,,,,,,,,,,015,2022-05-12_11h01.43.280,FishGame,2022.1.1,60.00852121115023,
,4,넌 철학적이야,3,Green,B,4.5,4.266666666666667,ScrollUp,ScrollDown,Green.png,4,Neutral,Neutral,0,0,0,0,,,,,,,,,,,,,,,,,,,,,,,,,0,3,3,3,,,,,,,,,,,,,,,,,,,,,,,,,,,,,,,,,,,,,,,,,,,,,,,,,,,,,,,,,,,,,,,,,,,,,,,,,1.679012343287468,0.8756056999991415,488.5099872999999,None,ScrollUp,정답입니다,488.5099872999999,None,488.5099872999999,None,488.5099872999999,None,488.5099872999999,None,489.28703490000044,None,489.28703490000044,489.78702100000373,,,,,,,,,,,,,,,,015,2022-05-12_11h01.43.280,FishGame,2022.1.1,60.00852121115023,
,5,넌 쩨쩨해,5,Orange,A,2.375,2.133333333333333,ScrollDown,ScrollUp,Orange.png,4,Negative,Incongruent,0,0,0,0,,,,,,,,,,,,,,,,,,,,,,,,,0,4,4,4,,,,,,,,,,,,,,,,,,,,,,,,,,,,,,,,,,,,,,,,,,,,,,,,,,,,,,,,,,,,,,,,,,,,,,,,,1.2299382835626602,1.144965499996033,490.4125907999987,None,ScrollDown,정답입니다,490.4125907999987,None,490.4125907999987,None,490.4125907999987,None,490.4125907999987,None,491.4536106000014,None,491.4536106000014,491.95582950000244,,,,,,,,,,,,,,,,015,2022-05-12_11h01.43.280,FishGame,2022.1.1,60.00852121115023,
,6,나를 데려가줘,6,Green,B,0,0,ScrollDown,ScrollUp,Green.png,4,NonTarget,NonTarget,0,0,0,0,,,,,,,,,,,,,,,,,,,,,,,,,0,5,5,5,,,,,,,,,,,,,,,,,,,,,,,,,,,,,,,,,,,,,,,,,,,,,,,,,,,,,,,,,,,,,,,,,,,,,,,,,1.2299382835626602,0.9928457999994862,492.5727810000026,None,ScrollDown,정답입니다,492.5727810000026,None,492.5727810000026,None,492.5727810000026,None,492.5727810000026,None,493.4702715000021,None,493.4702715000021,493.9724930000011,,,,,,,,,,,,,,,,015,2022-05-12_11h01.43.280,FishGame,2022.1.1,60.00852121115023,
,7,넌 고집불통이야,5,Green,B,2.875,2,ScrollUp,ScrollDown,Green.png,4,Negative,Congruent,0,0,0,0,,,,,,,,,,,,,,,,,,,,,,,,,0,6,6,6,,,,,,,,,,,,,,,,,,,,,,,,,,,,,,,,,,,,,,,,,,,,,,,,,,,,,,,,,,,,,,,,,,,,,,,,,1.807098776102066,1.0760307000018656,494.60428669999965,None,ScrollUp,정답입니다,494.60428669999965,None,494.60428669999965,None,494.60428669999965,None,494.60428669999965,None,495.57015580000007,None,495.57015580000007,496.0723399999988,,,,,,,,,,,,,,,,015,2022-05-12_11h01.43.280,FishGame,2022.1.1,60.00852121115023,
,8,넌 무심해,4,Orange,A,2.875,3.2,ScrollDown,ScrollUp,Orange.png,4,Negative,Incongruent,0,0,0,0,,,,,,,,,,,,,,,,,,,,,,,,,0,7,7,7,,,,,,,,,,,,,,,,,,,,,,,,,,,,,,,,,,,,,,,,,,,,,,,,,,,,,,,,,,,,,,,,,,,,,,,,,1.1759259204069774,1.0759808000002522,496.69863690000057,None,ScrollDown,정답입니다,496.69863690000057,None,496.69863690000057,None,496.69863690000057,None,496.69863690000057,None,497.67015540000284,None,497.67015540000284,498.17236720000074,,,,,,,,,,,,,,,,015,2022-05-12_11h01.43.280,FishGame,2022.1.1,60.00852121115023,
,9,넌 정겨워,1,Orange,A,5.791666666666667,5.666666666666667,ScrollDown,ScrollUp,Orange.png,4,Positive,Congruent,0,0,0,0,,,,,,,,,,,,,,,,,,,,,,,,,0,8,8,8,,,,,,,,,,,,,,,,,,,,,,,,,,,,,,,,,,,,,,,,,,,,,,,,,,,,,,,,,,,,,,,,,,,,,,,,,1.2993827114502587,0.9423735999953351,498.8032258000021,None,ScrollDown,정답입니다,498.8032258000021,None,498.8032258000021,None,498.8032258000021,None,498.8032258000021,None,499.6364700999984,None,499.6364700999984,500.13657879999664,,,,,,,,,,,,,,,,015,2022-05-12_11h01.43.280,FishGame,2022.1.1,60.00852121115023,
,10,나를 데려가줘,6,Green,B,0,0,ScrollDown,ScrollUp,Green.png,4,NonTarget,NonTarget,0,0,0,0,,,,,,,,,,,,,,,,,,,,,,,,,0,9,9,9,,,,,,,,,,,,,,,,,,,,,,,,,,,,,,,,,,,,,,,,,,,,,,,,,,,,,,,,,,,,,,,,,,,,,,,,,1.1790123482545216,1.0783628999997745,500.7547484000024,None,ScrollDown,정답입니다,500.7547484000024,None,500.7547484000024,None,500.7547484000024,None,500.7547484000024,None,501.7391082000031,None,501.7391082000031,502.2390621000013,,,,,,,,,,,,,,,,015,2022-05-12_11h01.43.280,FishGame,2022.1.1,60.00852121115023,
,11,넌 체제순응적이야,4,Green,B,3,3.6,ScrollUp,ScrollDown,Green.png,4,Negative,Congruent,0,0,0,0,,,,,,,,,,,,,,,,,,,,,,,,,0,10,10,10,,,,,,,,,,,,,,,,,,,,,,,,,,,,,,,,,,,,,,,,,,,,,,,,,,,,,,,,,,,,,,,,,,,,,,,,,1.8503086417913437,1.0463488999957917,502.8591133000009,None,ScrollUp,정답입니다,502.8591133000009,None,502.8591133000009,None,502.8591133000009,None,502.8591133000009,None,503.8057581999965,None,503.8057581999965,504.3221724000032,,,,,,,,,,,,,,,,015,2022-05-12_11h01.43.280,FishGame,2022.1.1,60.00852121115023,
,12,나를 보내줘,6,Orange,A,0,0,ScrollUp,ScrollDown,Orange.png,4,NonTarget,NonTarget,0,0,0,0,,,,,,,,,,,,,,,,,,,,,,,,,0,11,11,11,,,,,,,,,,,,,,,,,,,,,,,,,,,,,,,,,,,,,,,,,,,,,,,,,,,,,,,,,,,,,,,,,,,,,,,,,1.6712962985038757,1.2614379999940866,504.9217321000033,None,ScrollUp,정답입니다,504.9217321000033,None,504.9217321000033,None,504.9217321000033,None,504.9217321000033,None,506.0866670000032,None,506.0866670000032,506.5890825000024,,,,,,,,,,,,,,,,015,2022-05-12_11h01.43.280,FishGame,2022.1.1,60.00852121115023,
,13,넌 박식해,2,Orange,A,5.625,3.933333333333333,ScrollDown,ScrollUp,Orange.png,4,Positive,Congruent,0,0,0,0,,,,,,,,,,,,,,,,,,,,,,,,,0,12,12,12,,,,,,,,,,,,,,,,,,,,,,,,,,,,,,,,,,,,,,,,,,,,,,,,,,,,,,,,,,,,,,,,,,,,,,,,,1.1327160547176998,1.011517900005856,507.2134892000031,None,ScrollDown,정답입니다,507.2134892000031,None,507.2134892000031,None,507.2134892000031,None,507.2134892000031,None,508.1199121000027,None,508.1199121000027,508.61997829999746,,,,,,,,,,,,,,,,015,2022-05-12_11h01.43.280,FishGame,2022.1.1,60.00852121115023,
,14,나를 보내줘,6,Orange,A,0,0,ScrollUp,ScrollDown,Orange.png,4,NonTarget,NonTarget,0,0,0,0,,,,,,,,,,,,,,,,,,,,,,,,,0,13,13,13,,,,,,,,,,,,,,,,,,,,,,,,,,,,,,,,,,,,,,,,,,,,,,,,,,,,,,,,,,,,,,,,,,,,,,,,,1.7314814925193787,1.0427551999964635,509.2398721999998,None,ScrollUp,정답입니다,509.2398721999998,None,509.2398721999998,None,509.2398721999998,None,509.2398721999998,None,510.1887435000026,None,510.1887435000026,510.686512100001,,,,,,,,,,,,,,,,015,2022-05-12_11h01.43.280,FishGame,2022.1.1,60.00852121115023,
,15,넌 침착해,1,Green,B,5.458333333333333,5.566666666666666,ScrollUp,ScrollDown,Green.png,4,Positive,Incongruent,0,0,0,0,,,,,,,,,,,,,,,,,,,,,,,,,0,14,14,14,,,,,,,,,,,,,,,,,,,,,,,,,,,,,,,,,,,,,,,,,,,,,,,,,,,,,,,,,,,,,,,,,,,,,,,,,1.674382713933786,0.925659699998505,511.31208329999936,None,ScrollUp,정답입니다,511.31208329999936,None,511.31208329999936,None,511.31208329999936,None,511.31208329999936,None,512.136262,None,512.136262,512.6363344999991,,,,,,,,,,,,,,,,015,2022-05-12_11h01.43.280,FishGame,2022.1.1,60.00852121115023,
,16,나를 데려가줘,6,Green,B,0,0,ScrollDown,ScrollUp,Green.png,4,NonTarget,NonTarget,0,0,0,0,,,,,,,,,,,,,,,,,,,,,,,,,0,15,15,15,,,,,,,,,,,,,,,,,,,,,,,,,,,,,,,,,,,,,,,,,,,,,,,,,,,,,,,,,,,,,,,,,,,,,,,,,1.1990740795930226,1.0620406000016374,513.2522849000015,None,ScrollDown,정답입니다,513.2522849000015,None,513.2522849000015,None,513.2522849000015,None,513.2522849000015,None,514.2199007000017,None,514.2199007000017,514.7222073000012,,,,,,,,,,,,,,,,015,2022-05-12_11h01.43.280,FishGame,2022.1.1,60.00852121115023,
,17,넌 행복해,1,Orange,A,6.416666666666666,6.166666666666667,ScrollDown,ScrollUp,Orange.png,4,Positive,Congruent,0,0,0,0,,,,,,,,,,,,,,,,,,,,,,,,,0,16,16,16,,,,,,,,,,,,,,,,,,,,,,,,,,,,,,,,,,,,,,,,,,,,,,,,,,,,,,,,,,,,,,,,,,,,,,,,,1.2268518557151158,0.9132731999998214,515.3485597000035,None,ScrollDown,정답입니다,515.3485597000035,None,515.3485597000035,None,515.3485597000035,None,515.3485597000035,None,516.155445999997,None,516.155445999997,516.6584804000013,,,,,,,,,,,,,,,,015,2022-05-12_11h01.43.280,FishGame,2022.1.1,60.00852121115023,
,18,넌 겸손해,2,Green,B,5.791666666666667,4.766666666666667,ScrollUp,ScrollDown,Green.png,4,Positive,Incongruent,0,0,0,0,,,,,,,,,,,,,,,,,,,,,,,,,0,17,17,17,,,,,,,,,,,,,,,,,,,,,,,,,,,,,,,,,,,,,,,,,,,,,,,,,,,,,,,,,,,,,,,,,,,,,,,,,1.5972222226361432,0.9927590000006603,517.2769191999978,None,ScrollUp,정답입니다,517.2769191999978,None,517.2769191999978,None,517.2769191999978,None,517.2769191999978,None,518.1697846000025,None,518.1697846000025,518.6719926000005,,,,,,,,,,,,,,,,015,2022-05-12_11h01.43.280,FishGame,2022.1.1,60.00852121115023,
,19,나를 보내줘,6,Orange,A,0,0,ScrollUp,ScrollDown,Orange.png,4,NonTarget,NonTarget,0,0,0,0,,,,,,,,,,,,,,,,,,,,,,,,,0,18,18,18,,,,,,,,,,,,,,,,,,,,,,,,,,,,,,,,,,,,,,,,,,,,,,,,,,,,,,,,,,,,,,,,,,,,,,,,,1.609567902982235,0.9612271000005421,519.2924757000001,None,ScrollUp,정답입니다,519.2924757000001,None,519.2924757000001,None,519.2924757000001,None,519.2924757000001,None,520.1527639999986,None,520.1527639999986,520.6528381000026,,,,,,,,,,,,,,,,015,2022-05-12_11h01.43.280,FishGame,2022.1.1,60.00852121115023,
,20,넌 의심없어,3,Orange,A,4.166666666666667,4.6,ScrollDown,ScrollUp,Orange.png,4,Neutral,Neutral,0,0,0,0,,,,,,,,,,,,,,,,,,,,,,,,,0,19,19,19,,,,,,,,,,,,,,,,,,,,,,,,,,,,,,,,,,,,,,,,,,,,,,,,,,,,,,,,,,,,,,,,,,,,,,,,,1.1651234477758408,0.9793820000049891,521.2681707000011,None,ScrollDown,정답입니다,521.2681707000011,None,521.2681707000011,None,521.2681707000011,None,521.2681707000011,None,522.1552860000011,None,522.1552860000011,522.6554001999975,,,,,,,,,,,,,,,,015,2022-05-12_11h01.43.280,FishGame,2022.1.1,60.00852121115023,
,21,넌 시시해,4,Orange,A,2.666666666666667,2.966666666666667,ScrollDown,ScrollUp,Orange.png,4,Negative,Incongruent,0,0,0,0,,,,,,,,,,,,,,,,,,,,,,,,,0,20,20,20,,,,,,,,,,,,,,,,,,,,,,,,,,,,,,,,,,,,,,,,,,,,,,,,,,,,,,,,,,,,,,,,,,,,,,,,,1.3626543208956718,0.7793302999998559,523.2701289000033,None,ScrollDown,정답입니다,523.2701289000033,None,523.2701289000033,None,523.2701289000033,None,523.2701289000033,None,523.9553048000016,None,523.9553048000016,524.4583973999979,,,,,,,,,,,,,,,,015,2022-05-12_11h01.43.280,FishGame,2022.1.1,60.00852121115023,
,22,나를 데려가줘,6,Green,B,0,0,ScrollDown,ScrollUp,Green.png,4,NonTarget,NonTarget,0,0,0,0,,,,,,,,,,,,,,,,,,,,,,,,,0,21,21,21,,,,,,,,,,,,,,,,,,,,,,,,,,,,,,,,,,,,,,,,,,,,,,,,,,,,,,,,,,,,,,,,,,,,,,,,,1.0879629751046498,1.3449410000030184,525.0889475000004,None,ScrollDown,정답입니다,525.0889475000004,None,525.0889475000004,None,525.0889475000004,None,525.0889475000004,None,526.3362273000021,None,526.3362273000021,526.8362743999969,,,,,,,,,,,,,,,,015,2022-05-12_11h01.43.280,FishGame,2022.1.1,60.00852121115023,
,23,넌 무정해,5,Orange,A,2.5,2.2,ScrollDown,ScrollUp,Orange.png,4,Negative,Incongruent,0,0,0,0,,,,,,,,,,,,,,,,,,,,,,,,,0,22,22,22,,,,,,,,,,,,,,,,,,,,,,,,,,,,,,,,,,,,,,,,,,,,,,,,,,,,,,,,,,,,,,,,,,,,,,,,,1.1712963034709294,0.9089381000012509,527.4634095000001,None,ScrollDown,정답입니다,527.4634095000001,None,527.4634095000001,None,527.4634095000001,None,527.4634095000001,None,528.2695171000014,None,528.2695171000014,528.7695785000033,,,,,,,,,,,,,,,,015,2022-05-12_11h01.43.280,FishGame,2022.1.1,60.00852121115023,
,24,넌 긍정적이야,1,Green,B,6.041666666666667,6.066666666666666,ScrollUp,ScrollDown,Green.png,4,Positive,Incongruent,0,0,0,0,,,,,,,,,,,,,,,,,,,,,,,,,0,23,23,23,,,,,,,,,,,,,,,,,,,,,,,,,,,,,,,,,,,,,,,,,,,,,,,,,,,,,,,,,,,,,,,,,,,,,,,,,1.296296296020349,0.827917399998114,529.3945887000009,None,ScrollDown,오답입니다,529.3945887000009,None,529.3945887000009,None,529.3945887000009,None,529.3945887000009,None,530.1195192000014,None,530.1195192000014,530.6218069000024,,,,,,,,,,,,,,,,015,2022-05-12_11h01.43.280,FishGame,2022.1.1,60.00852121115023,
,25,나를 보내줘,6,Orange,A,0,0,ScrollUp,ScrollDown,Orange.png,4,NonTarget,NonTarget,0,0,0,0,,,,,,,,,,,,,,,,,,,,,,,,,0,24,24,24,,,,,,,,,,,,,,,,,,,,,,,,,,,,,,,,,,,,,,,,,,,,,,,,,,,,,,,,,,,,,,,,,,,,,,,,,1.7561728407939274,1.4588998000035645,531.2417868999983,None,ScrollUp,정답입니다,531.2417868999983,None,531.2417868999983,None,531.2417868999983,None,531.2417868999983,None,532.6025318000029,None,532.6025318000029,533.1025952999989,,,,,,,,,,,,,,,,015,2022-05-12_11h01.43.280,FishGame,2022.1.1,60.00852121115023,
,26,넌 시기심이 많아,5,Green,B,2.458333333333333,2.233333333333333,ScrollUp,ScrollDown,Green.png,4,Negative,Congruent,0,0,0,0,,,,,,,,,,,,,,,,,,,,,,,,,0,25,25,25,,,,,,,,,,,,,,,,,,,,,,,,,,,,,,,,,,,,,,,,,,,,,,,,,,,,,,,,,,,,,,,,,,,,,,,,,1.6419753084580102,1.045321600002353,533.7209086000003,None,ScrollUp,정답입니다,533.7209086000003,None,533.7209086000003,None,533.7209086000003,None,533.7209086000003,None,534.6692020999981,None,534.6692020999981,535.1717290000015,,,,,,,,,,,,,,,,015,2022-05-12_11h01.43.280,FishGame,2022.1.1,60.00852121115023,
,27,넌 탁월해,2,Orange,A,5.708333333333334,4.5,ScrollDown,ScrollUp,Orange.png,4,Positive,Congruent,0,0,0,0,,,,,,,,,,,,,,,,,,,,,,,,,0,26,26,26,,,,,,,,,,,,,,,,,,,,,,,,,,,,,,,,,,,,,,,,,,,,,,,,,,,,,,,,,,,,,,,,,,,,,,,,,1.3641975348194442,1.0626568000006955,535.7957842999967,None,ScrollDown,정답입니다,535.7957842999967,None,535.7957842999967,None,535.7957842999967,None,535.7957842999967,None,536.7551724000004,None,536.7551724000004,537.258170000001,,,,,,,,,,,,,,,,015,2022-05-12_11h01.43.280,FishGame,2022.1.1,60.00852121115023,
,28,나를 데려가줘,6,Green,B,0,0,ScrollDown,ScrollUp,Green.png,4,NonTarget,NonTarget,0,0,0,0,,,,,,,,,,,,,,,,,,,,,,,,,0,27,27,27,,,,,,,,,,,,,,,,,,,,,,,,,,,,,,,,,,,,,,,,,,,,,,,,,,,,,,,,,,,,,,,,,,,,,,,,,1.3055555547277131,1.0630499999970198,537.8851059000008,None,ScrollDown,정답입니다,537.8851059000008,None,537.8851059000008,None,537.8851059000008,None,537.8851059000008,None,538.8526930000007,None,538.8526930000007,539.3548993000004,,,,,,,,,,,,,,,,015,2022-05-12_11h01.43.280,FishGame,2022.1.1,60.00852121115023,
,29,넌 조용해,3,Green,B,4.333333333333333,4.166666666666667,ScrollUp,ScrollDown,Green.png,4,Neutral,Neutral,0,0,0,0,,,,,,,,,,,,,,,,,,,,,,,,,0,28,28,28,,,,,,,,,,,,,,,,,,,,,,,,,,,,,,,,,,,,,,,,,,,,,,,,,,,,,,,,,,,,,,,,,,,,,,,,,1.5617283955216408,1.0930331999988994,539.975291900002,None,ScrollUp,정답입니다,539.975291900002,None,539.975291900002,None,539.975291900002,None,539.975291900002,None,540.9693041999999,None,540.9693041999999,541.4716389000023,,,,,,,,,,,,,,,,015,2022-05-12_11h01.43.280,FishGame,2022.1.1,60.00852121115023,
,30,넌 다정해,1,Orange,A,5.833333333333334,5.7,ScrollDown,ScrollUp,Orange.png,4,Positive,Congruent,0,0,0,0,,,,,,,,,,,,,,,,,,,,,,,,,0,29,29,29,,,,,,,,,,,,,,,,,,,,,,,,,,,,,,,,,,,,,,,,,,,,,,,,,,,,,,,,,,,,,,,,,,,,,,,,,1.388888883093993,0.8295364000005065,542.0870211000001,None,ScrollDown,정답입니다,542.0870211000001,None,542.0870211000001,None,542.0870211000001,None,542.0870211000001,None,542.8192285999976,None,542.8192285999976,543.3192655000021,,,,,,,,,,,,,,,,015,2022-05-12_11h01.43.280,FishGame,2022.1.1,60.00852121115023,
,31,넌 능력있어,2,Green,B,6.166666666666666,4.6,ScrollUp,ScrollDown,Green.png,4,Positive,Incongruent,0,0,0,0,,,,,,,,,,,,,,,,,,,,,,,,,0,30,30,30,,,,,,,,,,,,,,,,,,,,,,,,,,,,,,,,,,,,,,,,,,,,,,,,,,,,,,,,,,,,,,,,,,,,,,,,,1.4845679011195898,1.1259479000000283,543.9419968000002,None,NoResponse,무응답입니다,543.9419968000002,None,543.9419968000002,None,543.9419968000002,None,543.9419968000002,None,544.9693062000006,None,544.9693062000006,545.4715471000018,,,,,,,,,,,,,,,,015,2022-05-12_11h01.43.280,FishGame,2022.1.1,60.00852121115023,
,32,넌 불쾌해,5,Orange,A,2.125,1.933333333333333,ScrollDown,ScrollUp,Orange.png,4,Negative,Incongruent,0,0,0,0,,,,,,,,,,,,,,,,,,,,,,,,,0,31,31,31,,,,,,,,,,,,,,,,,,,,,,,,,,,,,,,,,,,,,,,,,,,,,,,,,,,,,,,,,,,,,,,,,,,,,,,,,1.0231481393178303,1.4087317000012263,546.0964752,None,ScrollDown,정답입니다,546.0964752,None,546.0964752,None,546.0964752,None,546.0964752,None,547.4022325999977,None,547.4022325999977,547.9022932000007,,,,,,,,,,,,,,,,015,2022-05-12_11h01.43.280,FishGame,2022.1.1,60.00852121115023,
,33,나를 데려가줘,6,Green,B,0,0,ScrollDown,ScrollUp,Green.png,4,NonTarget,NonTarget,0,0,0,0,,,,,,,,,,,,,,,,,,,,,,,,,0,32,32,32,,,,,,,,,,,,,,,,,,,,,,,,,,,,,,,,,,,,,,,,,,,,,,,,,,,,,,,,,,,,,,,,,,,,,,,,,1.2021604826052983,1.1453591999961645,548.5206162999966,None,ScrollDown,정답입니다,548.5206162999966,None,548.5206162999966,None,548.5206162999966,None,548.5206162999966,None,549.5713441999978,None,549.5713441999978,550.0714055999997,,,,,,,,,,,,,,,,015,2022-05-12_11h01.43.280,FishGame,2022.1.1,60.00852121115023,
,34,넌 유순해,3,Orange,A,4.458333333333333,5,ScrollDown,ScrollUp,Orange.png,4,Neutral,Neutral,0,0,0,0,,,,,,,,,,,,,,,,,,,,,,,,,0,33,33,33,,,,,,,,,,,,,,,,,,,,,,,,,,,,,,,,,,,,,,,,,,,,,,,,,,,,,,,,,,,,,,,,,,,,,,,,,1.2577160596847534,0.9623314999989816,550.6900748999979,None,ScrollDown,정답입니다,550.6900748999979,None,550.6900748999979,None,550.6900748999979,None,550.6900748999979,None,551.5546918999971,None,551.5546918999971,552.0547484999988,,,,,,,,,,,,,,,,015,2022-05-12_11h01.43.280,FishGame,2022.1.1,60.00852121115023,
,35,넌 근심스러워,4,Green,B,2.708333333333333,3.133333333333333,ScrollUp,ScrollDown,Green.png,4,Negative,Congruent,0,0,0,0,,,,,,,,,,,,,,,,,,,,,,,,,0,34,34,34,,,,,,,,,,,,,,,,,,,,,,,,,,,,,,,,,,,,,,,,,,,,,,,,,,,,,,,,,,,,,,,,,,,,,,,,,1.6234567910432816,0.8095370000010007,552.6926368999993,None,ScrollUp,정답입니다,552.6926368999993,None,552.6926368999993,None,552.6926368999993,None,552.6926368999993,None,553.4023859000008,None,553.4023859000008,553.9045914000017,,,,,,,,,,,,,,,,015,2022-05-12_11h01.43.280,FishGame,2022.1.1,60.00852121115023,
,36,넌 세련되었어,2,Orange,A,5.5,4.6,ScrollDown,ScrollUp,Orange.png,4,Positive,Congruent,0,0,0,0,,,,,,,,,,,,,,,,,,,,,,,,,0,35,35,35,,,,,,,,,,,,,,,,,,,,,,,,,,,,,,,,,,,,,,,,,,,,,,,,,,,,,,,,,,,,,,,,,,,,,,,,,1.3240740721424422,0.8760459999975865,554.5319572000008,None,ScrollDown,정답입니다,554.5319572000008,None,554.5319572000008,None,554.5319572000008,None,554.5319572000008,None,555.3022738,None,555.3022738,555.8023694000003,,,,,,,,,,,,,,,,015,2022-05-12_11h01.43.280,FishGame,2022.1.1,60.00852121115023,
,37,나를 보내줘,6,Orange,A,0,0,ScrollUp,ScrollDown,Orange.png,4,NonTarget,NonTarget,0,0,0,0,,,,,,,,,,,,,,,,,,,,,,,,,0,36,36,36,,,,,,,,,,,,,,,,,,,,,,,,,,,,,,,,,,,,,,,,,,,,,,,,,,,,,,,,,,,,,,,,,,,,,,,,,1.5817901206513247,1.0781559999959427,556.4244372999965,None,ScrollUp,정답입니다,556.4244372999965,None,556.4244372999965,None,556.4244372999965,None,556.4244372999965,None,557.4022889999978,None,557.4022889999978,557.9023405999978,,,,,,,,,,,,,,,,015,2022-05-12_11h01.43.280,FishGame,2022.1.1,60.00852121115023,
,38,넌 확고해,3,Green,B,4.708333333333334,4.566666666666666,ScrollUp,ScrollDown,Green.png,4,Neutral,Neutral,0,0,0,0,,,,,,,,,,,,,,,,,,,,,,,,,0,37,37,37,,,,,,,,,,,,,,,,,,,,,,,,,,,,,,,,,,,,,,,,,,,,,,,,,,,,,,,,,,,,,,,,,,,,,,,,,1.6234567910432816,0.9758846999975503,558.5235131000009,None,ScrollUp,정답입니다,558.5235131000009,None,558.5235131000009,None,558.5235131000009,None,558.5235131000009,None,559.4022643999997,None,559.4022643999997,559.9046262999982,,,,,,,,,,,,,,,,015,2022-05-12_11h01.43.280,FishGame,2022.1.1,60.00852121115023,
,39,넌 이해심이 많아,1,Green,B,6.041666666666668,5.533333333333333,ScrollUp,ScrollDown,Green.png,4,Positive,Incongruent,0,0,0,0,,,,,,,,,,,,,,,,,,,,,,,,,0,38,38,38,,,,,,,,,,,,,,,,,,,,,,,,,,,,,,,,,,,,,,,,,,,,,,,,,,,,,,,,,,,,,,,,,,,,,,,,,1.632716049750646,0.8594555000017863,560.5270750999989,None,ScrollUp,정답입니다,560.5270750999989,None,560.5270750999989,None,560.5270750999989,None,560.5270750999989,None,561.2852536999999,None,561.2852536999999,561.7853531000001,,,,,,,,,,,,,,,,015,2022-05-12_11h01.43.280,FishGame,2022.1.1,60.00852121115023,
,40,나를 보내줘,6,Orange,A,0,0,ScrollUp,ScrollDown,Orange.png,4,NonTarget,NonTarget,0,0,0,0,,,,,,,,,,,,,,,,,,,,,,,,,0,39,39,39,,,,,,,,,,,,,,,,,,,,,,,,,,,,,,,,,,,,,,,,,,,,,,,,,,,,,,,,,,,,,,,,,,,,,,,,,1.67746914178133,1.094939800001157,562.4068727999984,None,ScrollUp,정답입니다,562.4068727999984,None,562.4068727999984,None,562.4068727999984,None,562.4068727999984,None,563.4019379000019,None,563.4019379000019,563.9045725000033,,,,,,,,,,,,,,,,015,2022-05-12_11h01.43.280,FishGame,2022.1.1,60.00852121115023,
,41,넌 거칠어,4,Orange,A,2.625,3.033333333333333,ScrollDown,ScrollUp,Orange.png,4,Negative,Incongruent,0,0,0,0,,,,,,,,,,,,,,,,,,,,,,,,,0,40,40,40,,,,,,,,,,,,,,,,,,,,,,,,,,,,,,,,,,,,,,,,,,,,,,,,,,,,,,,,,,,,,,,,,,,,,,,,,1.1435185273488362,1.257863400001952,564.5264314000015,None,ScrollDown,정답입니다,564.5264314000015,None,564.5264314000015,None,564.5264314000015,None,564.5264314000015,None,565.6807900999993,None,565.6807900999993,566.1852603000007,,,,,,,,,,,,,,,,015,2022-05-12_11h01.43.280,FishGame,2022.1.1,60.00852121115023,
,42,넌 변덕맞아,5,Green,B,2.75,2.166666666666667,ScrollUp,ScrollDown,Green.png,4,Negative,Congruent,0,0,0,0,,,,,,,,,,,,,,,,,,,,,,,,,0,41,41,41,,,,,,,,,,,,,,,,,,,,,,,,,,,,,,,,,,,,,,,,,,,,,,,,,,,,,,,,,,,,,,,,,,,,,,,,,1.6574074104428291,0.8452899999974761,566.8037489999988,None,ScrollUp,정답입니다,566.8037489999988,None,566.8037489999988,None,566.8037489999988,None,566.8037489999988,None,567.5518720999971,None,567.5518720999971,568.0519455999965,,,,,,,,,,,,,,,,015,2022-05-12_11h01.43.280,FishGame,2022.1.1,60.00852121115023,
,43,나를 데려가줘,6,Green,B,0,0,ScrollDown,ScrollUp,Green.png,4,NonTarget,NonTarget,0,0,0,0,,,,,,,,,,,,,,,,,,,,,,,,,0,42,42,42,,,,,,,,,,,,,,,,,,,,,,,,,,,,,,,,,,,,,,,,,,,,,,,,,,,,,,,,,,,,,,,,,,,,,,,,,1,1.3775855999992928,568.669627299998,None,ScrollDown,정답입니다,568.669627299998,None,568.669627299998,None,568.669627299998,None,568.669627299998,None,569.9544252999985,None,569.9544252999985,570.4543133999978,,,,,,,,,,,,,,,,015,2022-05-12_11h01.43.280,FishGame,2022.1.1,60.00852121115023,
,44,넌 외로워,4,Green,B,2.833333333333333,3.3,ScrollUp,ScrollDown,Green.png,4,Negative,Congruent,0,0,0,0,,,,,,,,,,,,,,,,,,,,,,,,,0,43,43,43,,,,,,,,,,,,,,,,,,,,,,,,,,,,,,,,,,,,,,,,,,,,,,,,,,,,,,,,,,,,,,,,,,,,,,,,,1.674382713933786,1.2437426000033156,571.093123300001,None,ScrollUp,정답입니다,571.093123300001,None,571.093123300001,None,571.093123300001,None,571.093123300001,None,572.218675600001,None,572.218675600001,572.7187340000019,,,,,,,,,,,,,,,,015,2022-05-12_11h01.43.280,FishGame,2022.1.1,60.00852121115023,
,1,넌 불평스러워,5,Orange,A,2.25,2.066666666666667,ScrollDown,ScrollUp,Orange.png,5,Negative,Incongruent,0,0,0,0,,,,,,,,,,,,,,,,,,,,,,,,,,,,,0,0,0,0,,,,,,,,,,,,,,,,,,,,,,,,,,,,604.5180844999995,606.0204024999985,606.053650599999,607.0037926000005,607.0537027000028,608.0203459999975,608.0037274999995,None,,,,,,,,,,,,,,,,,,,,,,,,,,,,,,,,,,1.2685185074806213,1.1106658000062453,609.1230091999969,None,ScrollDown,정답입니다,609.1230091999969,None,609.1230091999969,None,609.1230091999969,None,609.1230091999969,None,610.1367706000019,None,610.1367706000019,610.6368109000032,573.2187313000031,None,573.2187313000031,None,0.33703703,0.018518519,1,0,0,0.016205499996431172,None,603.2204987000005,None,,,015,2022-05-12_11h01.43.280,FishGame,2022.1.1,60.00852121115023,
,2,나를 보내줘,6,Orange,A,0,0,ScrollUp,ScrollDown,Orange.png,5,NonTarget,NonTarget,0,0,0,0,,,,,,,,,,,,,,,,,,,,,,,,,,,,,0,1,1,1,,,,,,,,,,,,,,,,,,,,,,,,,,,,,,,,,,,,,,,,,,,,,,,,,,,,,,,,,,,,,,,,,,,,,1.6466049378116927,1.007561500002339,611.2618704999986,None,ScrollUp,정답입니다,611.2618704999986,None,611.2618704999986,None,611.2618704999986,None,611.2618704999986,None,612.1675895000008,None,612.1675895000008,612.6676229000004,,,,,,,,,,,,,,,,015,2022-05-12_11h01.43.280,FishGame,2022.1.1,60.00852121115023,
,3,넌 다재다능해,2,Green,B,6.208333333333333,4.5,ScrollUp,ScrollDown,Green.png,5,Positive,Incongruent,0,0,0,0,,,,,,,,,,,,,,,,,,,,,,,,,,,,,0,2,2,2,,,,,,,,,,,,,,,,,,,,,,,,,,,,,,,,,,,,,,,,,,,,,,,,,,,,,,,,,,,,,,,,,,,,,1.6898148159186044,0.9616604999973788,613.284896600002,None,ScrollUp,정답입니다,613.284896600002,None,613.284896600002,None,613.284896600002,None,613.284896600002,None,614.1509612000009,None,614.1509612000009,614.6534266000017,,,,,,,,,,,,,,,,015,2022-05-12_11h01.43.280,FishGame,2022.1.1,60.00852121115023,
,4,넌 과감해,3,Orange,A,4.833333333333334,4.6,ScrollDown,ScrollUp,Orange.png,5,Neutral,Neutral,0,0,0,0,,,,,,,,,,,,,,,,,,,,,,,,,,,,,0,3,3,3,,,,,,,,,,,,,,,,,,,,,,,,,,,,,,,,,,,,,,,,,,,,,,,,,,,,,,,,,,,,,,,,,,,,,1.2438271592060726,0.792772499997227,615.271436199997,None,ScrollDown,정답입니다,615.271436199997,None,615.271436199997,None,615.271436199997,None,615.271436199997,None,615.970041200002,None,615.970041200002,616.4732395000028,,,,,,,,,,,,,,,,015,2022-05-12_11h01.43.280,FishGame,2022.1.1,60.00852121115023,
,5,넌 고분고분해,3,Green,B,3.75,4.033333333333333,ScrollUp,ScrollDown,Green.png,5,Neutral,Neutral,0,0,0,0,,,,,,,,,,,,,,,,,,,,,,,,,,,,,0,4,4,4,,,,,,,,,,,,,,,,,,,,,,,,,,,,,,,,,,,,,,,,,,,,,,,,,,,,,,,,,,,,,,,,,,,,,1.507716049440205,0.8258787000013399,617.0906016000008,None,NoResponse,무응답입니다,617.0906016000008,None,617.0906016000008,None,617.0906016000008,None,617.0906016000008,None,617.8177633000014,None,617.8177633000014,618.3200183000008,,,,,,,,,,,,,,,,015,2022-05-12_11h01.43.280,FishGame,2022.1.1,60.00852121115023,
,6,나를 보내줘,6,Orange,A,0,0,ScrollUp,ScrollDown,Orange.png,5,NonTarget,NonTarget,0,0,0,0,,,,,,,,,,,,,,,,,,,,,,,,,,,,,0,5,5,5,,,,,,,,,,,,,,,,,,,,,,,,,,,,,,,,,,,,,,,,,,,,,,,,,,,,,,,,,,,,,,,,,,,,,1.6604938258727393,1.0442617000007886,618.9377015999999,None,ScrollUp,정답입니다,618.9377015999999,None,618.9377015999999,None,618.9377015999999,None,618.9377015999999,None,619.8843512000021,None,619.8843512000021,620.3865474999984,,,,,,,,,,,,,,,,015,2022-05-12_11h01.43.280,FishGame,2022.1.1,60.00852121115023,
,7,넌 잘 잊어,4,Orange,A,3,3.7,ScrollDown,ScrollUp,Orange.png,5,Negative,Incongruent,0,0,0,0,,,,,,,,,,,,,,,,,,,,,,,,,,,,,0,6,6,6,,,,,,,,,,,,,,,,,,,,,,,,,,,,,,,,,,,,,,,,,,,,,,,,,,,,,,,,,,,,,,,,,,,,,1.080246905485789,1.0760057000006782,621.0081977000009,None,ScrollDown,정답입니다,621.0081977000009,None,621.0081977000009,None,621.0081977000009,None,621.0081977000009,None,621.9843634999997,None,621.9843634999997,622.4866506000035,,,,,,,,,,,,,,,,015,2022-05-12_11h01.43.280,FishGame,2022.1.1,60.00852121115023,
,8,넌 탐구심이없어,4,Green,B,2.833333333333333,3.066666666666667,ScrollUp,ScrollDown,Green.png,5,Negative,Congruent,0,0,0,0,,,,,,,,,,,,,,,,,,,,,,,,,,,,,0,7,7,7,,,,,,,,,,,,,,,,,,,,,,,,,,,,,,,,,,,,,,,,,,,,,,,,,,,,,,,,,,,,,,,,,,,,,1.939814825852712,0.9756285999974352,623.1072239999994,None,ScrollUp,정답입니다,623.1072239999994,None,623.1072239999994,None,623.1072239999994,None,623.1072239999994,None,623.9842751000033,None,623.9842751000033,624.484317399998,,,,,,,,,,,,,,,,015,2022-05-12_11h01.43.280,FishGame,2022.1.1,60.00852121115023,
,9,나를 데려가줘,6,Green,B,0,0,ScrollDown,ScrollUp,Green.png,5,NonTarget,NonTarget,0,0,0,0,,,,,,,,,,,,,,,,,,,,,,,,,,,,,0,8,8,8,,,,,,,,,,,,,,,,,,,,,,,,,,,,,,,,,,,,,,,,,,,,,,,,,,,,,,,,,,,,,,,,,,,,,1.0432098706563313,1.4783023999989382,625.1007947000035,None,ScrollDown,정답입니다,625.1007947000035,None,625.1007947000035,None,625.1007947000035,None,625.1007947000035,None,626.4842694000035,None,626.4842694000035,626.9865002000006,,,,,,,,,,,,,,,,015,2022-05-12_11h01.43.280,FishGame,2022.1.1,60.00852121115023,
,10,넌 참되어,2,Orange,A,6.041666666666664,4.733333333333333,ScrollDown,ScrollUp,Orange.png,5,Positive,Congruent,0,0,0,0,,,,,,,,,,,,,,,,,,,,,,,,,,,,,0,9,9,9,,,,,,,,,,,,,,,,,,,,,,,,,,,,,,,,,,,,,,,,,,,,,,,,,,,,,,,,,,,,,,,,,,,,,1.345679017404715,1.6092649999991409,627.6079964000019,None,ScrollDown,정답입니다,627.6079964000019,None,627.6079964000019,None,627.6079964000019,None,627.6079964000019,None,629.1174981000004,None,629.1174981000004,629.6175506,,,,,,,,,,,,,,,,015,2022-05-12_11h01.43.280,FishGame,2022.1.1,60.00852121115023,
,11,넌 생기있어,1,Green,B,5.875,5.633333333333334,ScrollUp,ScrollDown,Green.png,5,Positive,Incongruent,0,0,0,0,,,,,,,,,,,,,,,,,,,,,,,,,,,,,0,10,10,10,,,,,,,,,,,,,,,,,,,,,,,,,,,,,,,,,,,,,,,,,,,,,,,,,,,,,,,,,,,,,,,,,,,,,1.7299382785956063,1.0094422999973176,630.2419052999976,None,ScrollUp,정답입니다,630.2419052999976,None,630.2419052999976,None,630.2419052999976,None,630.2419052999976,None,631.1508545000033,None,631.1508545000033,631.6531157999998,,,,,,,,,,,,,,,,015,2022-05-12_11h01.43.280,FishGame,2022.1.1,60.00852121115023,
,12,넌 비사교적이야,4,Green,B,2.875,2.9,ScrollUp,ScrollDown,Green.png,5,Negative,Congruent,0,0,0,0,,,,,,,,,,,,,,,,,,,,,,,,,,,,,0,11,11,11,,,,,,,,,,,,,,,,,,,,,,,,,,,,,,,,,,,,,,,,,,,,,,,,,,,,,,,,,,,,,,,,,,,,,1.751543199022611,0.9098136999964481,632.2696961999973,None,ScrollUp,정답입니다,632.2696961999973,None,632.2696961999973,None,632.2696961999973,None,632.2696961999973,None,633.0840857000003,None,633.0840857000003,633.5841456999988,,,,,,,,,,,,,,,,015,2022-05-12_11h01.43.280,FishGame,2022.1.1,60.00852121115023,
,13,나를 데려가줘,6,Green,B,0,0,ScrollDown,ScrollUp,Green.png,5,NonTarget,NonTarget,0,0,0,0,,,,,,,,,,,,,,,,,,,,,,,,,,,,,0,12,12,12,,,,,,,,,,,,,,,,,,,,,,,,,,,,,,,,,,,,,,,,,,,,,,,,,,,,,,,,,,,,,,,,,,,,,1.060185174147288,1.0445752000014181,634.2035277000032,None,ScrollDown,정답입니다,634.2035277000032,None,634.2035277000032,None,634.2035277000032,None,634.2035277000032,None,635.150770100001,None,635.150770100001,635.6508918000036,,,,,,,,,,,,,,,,015,2022-05-12_11h01.43.280,FishGame,2022.1.1,60.00852121115023,
,14,넌 고독해,4,Orange,A,2.916666666666667,3.233333333333333,ScrollDown,ScrollUp,Orange.png,5,Negative,Incongruent,0,0,0,0,,,,,,,,,,,,,,,,,,,,,,,,,,,,,0,13,13,13,,,,,,,,,,,,,,,,,,,,,,,,,,,,,,,,,,,,,,,,,,,,,,,,,,,,,,,,,,,,,,,,,,,,,1.0030864079793294,0.9927243999991333,636.2725289000009,None,ScrollDown,정답입니다,636.2725289000009,None,636.2725289000009,None,636.2725289000009,None,636.2725289000009,None,637.1673404999965,None,637.1673404999965,637.6695043,,,,,,,,,,,,,,,,015,2022-05-12_11h01.43.280,FishGame,2022.1.1,60.00852121115023,
,15,넌 신경질적이야,5,Green,B,2.375,2.233333333333333,ScrollUp,ScrollDown,Green.png,5,Negative,Congruent,0,0,0,0,,,,,,,,,,,,,,,,,,,,,,,,,,,,,0,14,14,14,,,,,,,,,,,,,,,,,,,,,,,,,,,,,,,,,,,,,,,,,,,,,,,,,,,,,,,,,,,,,,,,,,,,,2,1.1955652999968152,638.2966135000024,None,ScrollUp,정답입니다,638.2966135000024,None,638.2966135000024,None,638.2966135000024,None,638.2966135000024,None,639.3840089000005,None,639.3840089000005,639.8862541999988,,,,,,,,,,,,,,,,015,2022-05-12_11h01.43.280,FishGame,2022.1.1,60.00852121115023,
,16,넌 똑똑해,2,Green,B,5.666666666666667,3.966666666666667,ScrollUp,ScrollDown,Green.png,5,Positive,Incongruent,0,0,0,0,,,,,,,,,,,,,,,,,,,,,,,,,,,,,0,15,15,15,,,,,,,,,,,,,,,,,,,,,,,,,,,,,,,,,,,,,,,,,,,,,,,,,,,,,,,,,,,,,,,,,,,,,1.7932098756233852,0.8779969999959576,640.5048928000033,None,ScrollUp,정답입니다,640.5048928000033,None,640.5048928000033,None,640.5048928000033,None,640.5048928000033,None,641.283929899997,None,641.283929899997,641.7840397999971,,,,,,,,,,,,,,,,015,2022-05-12_11h01.43.280,FishGame,2022.1.1,60.00852121115023,
,17,나를 보내줘,6,Orange,A,0,0,ScrollUp,ScrollDown,Orange.png,5,NonTarget,NonTarget,0,0,0,0,,,,,,,,,,,,,,,,,,,,,,,,,,,,,0,16,16,16,,,,,,,,,,,,,,,,,,,,,,,,,,,,,,,,,,,,,,,,,,,,,,,,,,,,,,,,,,,,,,,,,,,,,1.8364197413126628,0.9595057999977143,642.4071188000016,None,ScrollUp,정답입니다,642.4071188000016,None,642.4071188000016,None,642.4071188000016,None,642.4071188000016,None,643.2672338999982,None,643.2672338999982,643.7673217999982,,,,,,,,,,,,,,,,015,2022-05-12_11h01.43.280,FishGame,2022.1.1,60.00852121115023,
,18,넌 협조적이야,1,Orange,A,5.625,5.666666666666667,ScrollDown,ScrollUp,Orange.png,5,Positive,Congruent,0,0,0,0,,,,,,,,,,,,,,,,,,,,,,,,,,,,,0,17,17,17,,,,,,,,,,,,,,,,,,,,,,,,,,,,,,,,,,,,,,,,,,,,,,,,,,,,,,,,,,,,,,,,,,,,,1.0771604776382446,0.9092027000006055,644.388492500002,None,ScrollDown,정답입니다,644.388492500002,None,644.388492500002,None,644.388492500002,None,644.388492500002,None,645.2006153999973,None,645.2006153999973,645.7006124999971,,,,,,,,,,,,,,,,015,2022-05-12_11h01.43.280,FishGame,2022.1.1,60.00852121115023,
,19,나를 데려가줘,6,Green,B,0,0,ScrollDown,ScrollUp,Green.png,5,NonTarget,NonTarget,0,0,0,0,,,,,,,,,,,,,,,,,,,,,,,,,,,,,0,18,18,18,,,,,,,,,,,,,,,,,,,,,,,,,,,,,,,,,,,,,,,,,,,,,,,,,,,,,,,,,,,,,,,,,,,,,1.120370368162791,1.0591107000000193,646.3196768999987,None,ScrollDown,정답입니다,646.3196768999987,None,646.3196768999987,None,646.3196768999987,None,646.3196768999987,None,647.2838980000015,None,647.2838980000015,647.7838711000004,,,,,,,,,,,,,,,,015,2022-05-12_11h01.43.280,FishGame,2022.1.1,60.00852121115023,
,20,넌 몰인정해,5,Green,B,2.541666666666667,2.066666666666667,ScrollUp,ScrollDown,Green.png,5,Negative,Congruent,0,0,0,0,,,,,,,,,,,,,,,,,,,,,,,,,,,,,0,19,19,19,,,,,,,,,,,,,,,,,,,,,,,,,,,,,,,,,,,,,,,,,,,,,,,,,,,,,,,,,,,,,,,,,,,,,1.6574074104428291,1.009611000001314,648.4073797000019,None,ScrollUp,정답입니다,648.4073797000019,None,648.4073797000019,None,648.4073797000019,None,648.4073797000019,None,649.3171470000016,None,649.3171470000016,649.8194096000007,,,,,,,,,,,,,,,,015,2022-05-12_11h01.43.280,FishGame,2022.1.1,60.00852121115023,
,21,나를 데려가줘,6,Green,B,0,0,ScrollDown,ScrollUp,Green.png,5,NonTarget,NonTarget,0,0,0,0,,,,,,,,,,,,,,,,,,,,,,,,,,,,,0,20,20,20,,,,,,,,,,,,,,,,,,,,,,,,,,,,,,,,,,,,,,,,,,,,,,,,,,,,,,,,,,,,,,,,,,,,,1.2716049353281655,1.24361840000347,650.4350515999977,None,ScrollDown,정답입니다,650.4350515999977,None,650.4350515999977,None,650.4350515999977,None,650.4350515999977,None,651.5837663999991,None,651.5837663999991,652.0837801000016,,,,,,,,,,,,,,,,015,2022-05-12_11h01.43.280,FishGame,2022.1.1,60.00852121115023,
,22,넌 순진해,3,Green,B,4.125,4.166666666666667,ScrollUp,ScrollDown,Green.png,5,Neutral,Neutral,0,0,0,0,,,,,,,,,,,,,,,,,,,,,,,,,,,,,0,21,21,21,,,,,,,,,,,,,,,,,,,,,,,,,,,,,,,,,,,,,,,,,,,,,,,,,,,,,,,,,,,,,,,,,,,,,1.8086419651905696,1.0285943999988376,652.6991979000013,None,ScrollUp,정답입니다,652.6991979000013,None,652.6991979000013,None,652.6991979000013,None,652.6991979000013,None,653.6338019999966,None,653.6338019999966,654.1358869999967,,,,,,,,,,,,,,,,015,2022-05-12_11h01.43.280,FishGame,2022.1.1,60.00852121115023,
