name,TrialNum,Word,WordCategory,FishType,WordList,WordValence,WordReputation,CorrectResp,IncorrectResp,FishTypeFile,Round,WordType,Condition,LoopforOrange.thisRepN,LoopforOrange.thisTrialN,LoopforOrange.thisN,LoopforOrange.thisIndex,LoopForGreen.thisRepN,LoopForGreen.thisTrialN,LoopForGreen.thisN,LoopForGreen.thisIndex,GreenInstLoop.thisRepN,GreenInstLoop.thisTrialN,GreenInstLoop.thisN,GreenInstLoop.thisIndex,GreenPrac.thisRepN,GreenPrac.thisTrialN,GreenPrac.thisN,GreenPrac.thisIndex,trials_2.thisRepN,trials_2.thisTrialN,trials_2.thisN,trials_2.thisIndex,GreenRound1.thisRepN,GreenRound1.thisTrialN,GreenRound1.thisN,GreenRound1.thisIndex,GreenRound2.thisRepN,GreenRound2.thisTrialN,GreenRound2.thisN,GreenRound2.thisIndex,GreenRound3.thisRepN,GreenRound3.thisTrialN,GreenRound3.thisN,GreenRound3.thisIndex,GreenRound4.thisRepN,GreenRound4.thisTrialN,GreenRound4.thisN,GreenRound4.thisIndex,GreenRound5.thisRepN,GreenRound5.thisTrialN,GreenRound5.thisN,GreenRound5.thisIndex,text_2.started,text_2.stopped,text_3.started,text_3.stopped,key_resp.keys,key_resp.rt,key_resp.started,key_resp.stopped,PassI.started,PassI.stopped,PassInst.keys,PassInst.rt,PassInst.started,PassInst.stopped,mouse_2.x,mouse_2.y,mouse_2.leftButton,mouse_2.midButton,mouse_2.rightButton,mouse_2.started,mouse_2.stopped,image.started,image.stopped,text_5.started,text_5.stopped,text_6.started,text_6.stopped,text_7.started,text_7.stopped,text_8.started,text_8.stopped,slider_3.response,slider_3.rt,slider_3.started,slider_3.stopped,Response_3,Feedback_3,BackGround_3.started,BackGround_3.stopped,Fish_3.started,Fish_3.stopped,WordBox_3.started,WordBox_3.stopped,Words_3.started,Words_3.stopped,BackGround_Feedback_3.started,BackGround_Feedback_3.stopped,Feedbacks_3.started,Feedbacks_3.stopped,Continue_or_not_2.keys,Continue_or_not_2.rt,Continue_or_not_2.started,Continue_or_not_2.stopped,image_4.started,image_4.stopped,mouse_3.x,mouse_3.y,mouse_3.leftButton,mouse_3.midButton,mouse_3.rightButton,mouse_3.started,mouse_3.stopped,startmain.started,startmain.stopped,slider_4.response,slider_4.rt,slider_4.started,slider_4.stopped,Response_4,Feedback_4,BackGround_4.started,BackGround_4.stopped,Fish_4.started,Fish_4.stopped,WordBox_4.started,WordBox_4.stopped,Words_4.started,Words_4.stopped,BackGround_Feedback_4.started,BackGround_Feedback_4.stopped,Feedbacks_4.started,Feedbacks_4.stopped,text.started,text.stopped,break_interval.started,break_interval.stopped,mouse.x,mouse.y,mouse.leftButton,mouse.midButton,mouse.rightButton,mouse.started,mouse.stopped,stratnextround.started,stratnextround.stopped,endgame.started,endgame.stopped,participant,date,expName,psychopyVersion,frameRate,
,,,,,,,,,,,,,,,,,,,,,,,,,,,,,,,,,,,,,,,,,,,,,,,,,,,,,,17.29398989999754,None,17.29398989999754,None,space,1.8914530999973067,17.791038000003027,None,,,,,,,,,,,,,,,,,,,,,,,,,,,,,,,,,,,,,,,,,,,,,,,,,,,,,,,,,,,,,,,,,,,,,,,,,,,,,,,,,,,,,,,,,,016,2022-05-12_13h50.57.137,FishGame,2022.1.1,60.00592858548096,
물고기과제_instruction(참가자용)GreenVersion.mp4,,,,,,,,,,,,,,,,,,0,0,0,0,0,0,0,0,,,,,,,,,,,,,,,,,,,,,,,,,,,,,,,,,,,,,97.0531078999993,None,n,1.4860093999959645,97.0531078999993,None,,,,,,,,,,,,,,,,,,,,,,,,,,,,,,,,,,,,,,,,,,,,,,,,,,,,,,,,,,,,,,,,,,,,,,,,,,,,,,,,,,,,016,2022-05-12_13h50.57.137,FishGame,2022.1.1,60.00592858548096,
,1,넌 교활해,5,Orange,B,2.333333333333333,2.133333333333333,ScrollUp,ScrollDown,Orange.png,practice,,,,,,,0,0,0,0,,,,,0,0,0,0,0,0,0,0,,,,,,,,,,,,,,,,,,,,,,,,,,,,,,,,,,,0.13796297,-0.2361111,1,0,0,0.5128606799989939,None,98.56702600000426,None,102.96733259999746,104.46961159999773,104.50293930000043,105.4561876000007,105.50610120000056,106.46741509999993,106.45083570000133,None,1.7006172885497413,2.1148976999975275,107.75351600000431,None,ScrollUp,정답입니다,107.75351600000431,None,107.75351600000431,None,107.75351600000431,None,107.75351600000431,None,109.5667609000011,None,109.5667609000011,110.06686720000289,,,,,,,,,,,,,,,,,,,,,,,,,,,,,,,,,,,,,,,,,,,,,,,,,016,2022-05-12_13h50.57.137,FishGame,2022.1.1,60.00592858548096,
,2,넌 슬기로워,2,Green,A,6.166666666666667,4.1,ScrollDown,ScrollUp,Green.png,practice,,,,,,,0,0,0,0,,,,,0,0,0,0,0,1,1,1,,,,,,,,,,,,,,,,,,,,,,,,,,,,,,,,,,,,,,,,,,,,,,,,,,,,1.126543199022611,1.3335184000025038,110.69063669999741,None,ScrollDown,정답입니다,110.69063669999741,None,110.69063669999741,None,110.69063669999741,None,110.69063669999741,None,111.91935599999852,None,111.91935599999852,112.41928750000079,,,,,,,,,,,,,,,,,,,,,,,,,,,,,,,,,,,,,,,,,,,,,,,,,016,2022-05-12_13h50.57.137,FishGame,2022.1.1,60.00592858548096,
,3,나를 보내줘,6,Green,A,0,0,ScrollUp,ScrollDown,Green.png,practice,,,,,,,0,0,0,0,,,,,0,0,0,0,0,2,2,2,,,,,,,,,,,,,,,,,,,,,,,,,,,,,,,,,,,,,,,,,,,,,,,,,,,,1.6481481517354646,1.2110969999994268,113.04406580000068,None,ScrollUp,정답입니다,113.04406580000068,None,113.04406580000068,None,113.04406580000068,None,113.04406580000068,None,114.15028560000064,None,114.15028560000064,114.65250150000065,,,,,,,,,,,,,,,,,,,,,,,,,,,,,,,,,,,,,,,,,,,,,,,,,016,2022-05-12_13h50.57.137,FishGame,2022.1.1,60.00592858548096,
,4,나를 데려가줘,6,Orange,B,0,0,ScrollDown,ScrollUp,Orange.png,practice,,,,,,,0,0,0,0,,,,,0,0,0,0,0,3,3,3,,,,,,,,,,,,,,,,,,,,,,,,,,,,,,,,,,,,,,,,,,,,,,,,,,,,1.0077160497506459,1.3946052999963285,115.27410660000169,None,ScrollDown,정답입니다,115.27410660000169,None,115.27410660000169,None,115.27410660000169,None,115.27410660000169,None,116.56690600000002,None,116.56690600000002,117.06904609999765,,,,,,,,,,,,,,,,,,,,,,,,,,,,,,,,,,,,,,,,,,,,,,,,,016,2022-05-12_13h50.57.137,FishGame,2022.1.1,60.00592858548096,
,1,넌 교활해,5,Orange,B,2.333333333333333,2.133333333333333,ScrollUp,ScrollDown,Orange.png,practice,,,,,,,0,0,0,0,,,,,0,0,0,0,,,,,,,,,,,,,,,,,,,,,,,,,,,,,,,,,,,,,,,,,,,,,,,,,,,,,,,,,,,,,,,,,,,,,,,,,,n,6.852221199995256,117.56689919999917,None,117.56689919999917,None,,,,,,,,,,,,,,,,,,,,,,,,,,,,,,,,,,,,,,,,,,,016,2022-05-12_13h50.57.137,FishGame,2022.1.1,60.00592858548096,
,1,넌 따뜻해,1,Orange,B,6.083333333333333,5.6,ScrollUp,ScrollDown,Orange.png,1,Positive,Incongruent,,,,,0,0,0,0,,,,,,,,,,,,,0,0,0,0,,,,,,,,,,,,,,,,,,,,,,,,,,,,,,,,,,,,,,,,125.76676150000276,127.26909980000346,127.30041360000178,128.25025230000028,128.30034709999745,129.2502633999975,129.2502633999975,None,,,,,,,,,,,,,,,,,,,,,,,,,0.014814815,-0.15185185,1,0,0,0.3133787799961283,None,124.43565710000257,None,1.5632716032365956,1.6397097000008216,130.5472735000003,None,ScrollUp,정답입니다,130.5472735000003,None,130.5472735000003,None,130.5472735000003,None,130.5472735000003,None,131.88331150000158,None,131.88331150000158,132.3832923000009,,,,,,,,,,,,,,,,016,2022-05-12_13h50.57.137,FishGame,2022.1.1,60.00592858548096,
,2,넌 기품있어,2,Orange,B,5.791666666666668,4.5,ScrollUp,ScrollDown,Orange.png,1,Positive,Incongruent,,,,,0,0,0,0,,,,,,,,,,,,,0,1,1,1,,,,,,,,,,,,,,,,,,,,,,,,,,,,,,,,,,,,,,,,,,,,,,,,,,,,,,,,,,,,,,,,,,,,,,,,,,,,,,,,,1.584876542290052,1.4425113999968744,133.0186182000034,None,ScrollUp,정답입니다,133.0186182000034,None,133.0186182000034,None,133.0186182000034,None,133.0186182000034,None,134.34982409999793,None,134.34982409999793,134.84984619999886,,,,,,,,,,,,,,,,016,2022-05-12_13h50.57.137,FishGame,2022.1.1,60.00592858548096,
,3,나를 보내줘,6,Green,A,0,0,ScrollUp,ScrollDown,Green.png,1,NonTarget,NonTarget,,,,,0,0,0,0,,,,,,,,,,,,,0,2,2,2,,,,,,,,,,,,,,,,,,,,,,,,,,,,,,,,,,,,,,,,,,,,,,,,,,,,,,,,,,,,,,,,,,,,,,,,,,,,,,,,,1.6064814875523248,1.727426600002218,135.47897080000257,None,ScrollUp,정답입니다,135.47897080000257,None,135.47897080000257,None,135.47897080000257,None,135.47897080000257,None,137.09989720000158,None,137.09989720000158,137.59987600000022,,,,,,,,,,,,,,,,016,2022-05-12_13h50.57.137,FishGame,2022.1.1,60.00592858548096,
,4,넌 수동적이야,4,Green,A,2.833333333333333,2.933333333333333,ScrollDown,ScrollUp,Green.png,1,Negative,Incongruent,,,,,0,0,0,0,,,,,,,,,,,,,0,3,3,3,,,,,,,,,,,,,,,,,,,,,,,,,,,,,,,,,,,,,,,,,,,,,,,,,,,,,,,,,,,,,,,,,,,,,,,,,,,,,,,,,1.0046296219031017,1.3928976000024704,138.231689500004,None,ScrollDown,정답입니다,138.231689500004,None,138.231689500004,None,138.231689500004,None,138.231689500004,None,139.5161425000042,None,139.5161425000042,140.01622589999897,,,,,,,,,,,,,,,,016,2022-05-12_13h50.57.137,FishGame,2022.1.1,60.00592858548096,
,5,넌 사심이 없어,3,Orange,B,4.916666666666666,4.333333333333333,ScrollUp,ScrollDown,Orange.png,1,Neutral,Neutral,,,,,0,0,0,0,,,,,,,,,,,,,0,4,4,4,,,,,,,,,,,,,,,,,,,,,,,,,,,,,,,,,,,,,,,,,,,,,,,,,,,,,,,,,,,,,,,,,,,,,,,,,,,,,,,,,1.6898148159186044,1.3138541000007535,140.64182650000294,None,ScrollUp,정답입니다,140.64182650000294,None,140.64182650000294,None,140.64182650000294,None,140.64182650000294,None,141.85204389999853,None,141.85204389999853,142.35213259999728,,,,,,,,,,,,,,,,016,2022-05-12_13h50.57.137,FishGame,2022.1.1,60.00592858548096,
,6,넌 헤퍼,5,Green,A,2.458333333333334,2.233333333333333,ScrollDown,ScrollUp,Green.png,1,Negative,Incongruent,,,,,0,0,0,0,,,,,,,,,,,,,0,5,5,5,,,,,,,,,,,,,,,,,,,,,,,,,,,,,,,,,,,,,,,,,,,,,,,,,,,,,,,,,,,,,,,,,,,,,,,,,,,,,,,,,1.0216049253940582,1.4119902000020375,142.97362150000117,None,ScrollDown,정답입니다,142.97362150000117,None,142.97362150000117,None,142.97362150000117,None,142.97362150000117,None,144.28306680000242,None,144.28306680000242,144.78305859999818,,,,,,,,,,,,,,,,016,2022-05-12_13h50.57.137,FishGame,2022.1.1,60.00592858548096,
,7,넌 말쑥해,3,Green,A,4.833333333333334,4.333333333333333,ScrollDown,ScrollUp,Green.png,1,Neutral,Neutral,,,,,0,0,0,0,,,,,,,,,,,,,0,6,6,6,,,,,,,,,,,,,,,,,,,,,,,,,,,,,,,,,,,,,,,,,,,,,,,,,,,,,,,,,,,,,,,,,,,,,,,,,,,,,,,,,1,1.3955207999970298,145.4115665999998,None,ScrollDown,정답입니다,145.4115665999998,None,145.4115665999998,None,145.4115665999998,None,145.4115665999998,None,146.69933820000006,None,146.69933820000006,147.19940250000218,,,,,,,,,,,,,,,,016,2022-05-12_13h50.57.137,FishGame,2022.1.1,60.00592858548096,
,8,넌 투덜거려,5,Orange,B,2.541666666666667,2.266666666666667,ScrollUp,ScrollDown,Orange.png,1,Negative,Congruent,,,,,0,0,0,0,,,,,,,,,,,,,0,7,7,7,,,,,,,,,,,,,,,,,,,,,,,,,,,,,,,,,,,,,,,,,,,,,,,,,,,,,,,,,,,,,,,,,,,,,,,,,,,,,,,,,1.7376543233791986,1.2281431000010343,147.82457270000305,None,ScrollUp,정답입니다,147.82457270000305,None,147.82457270000305,None,147.82457270000305,None,147.82457270000305,None,148.9518304000012,None,148.9518304000012,149.45202530000097,,,,,,,,,,,,,,,,016,2022-05-12_13h50.57.137,FishGame,2022.1.1,60.00592858548096,
,9,넌 적극적이야,1,Green,A,5.708333333333333,5.533333333333333,ScrollDown,ScrollUp,Green.png,1,Positive,Congruent,,,,,0,0,0,0,,,,,,,,,,,,,0,8,8,8,,,,,,,,,,,,,,,,,,,,,,,,,,,,,,,,,,,,,,,,,,,,,,,,,,,,,,,,,,,,,,,,,,,,,,,,,,,,,,,,,1.0570987462997437,1.3143100999950548,150.08685440000409,None,ScrollDown,정답입니다,150.08685440000409,None,150.08685440000409,None,150.08685440000409,None,150.08685440000409,None,151.29951299999811,None,151.29951299999811,151.801650100002,,,,,,,,,,,,,,,,016,2022-05-12_13h50.57.137,FishGame,2022.1.1,60.00592858548096,
,10,넌 재미없어,4,Orange,B,2.625,2.966666666666667,ScrollUp,ScrollDown,Orange.png,1,Negative,Congruent,,,,,0,0,0,0,,,,,,,,,,,,,0,9,9,9,,,,,,,,,,,,,,,,,,,,,,,,,,,,,,,,,,,,,,,,,,,,,,,,,,,,,,,,,,,,,,,,,,,,,,,,,,,,,,,,,1.71296297510465,1.2781841999967583,152.42600160000438,None,ScrollUp,정답입니다,152.42600160000438,None,152.42600160000438,None,152.42600160000438,None,152.42600160000438,None,153.59950219999882,None,153.59950219999882,154.10176530000172,,,,,,,,,,,,,,,,016,2022-05-12_13h50.57.137,FishGame,2022.1.1,60.00592858548096,
,11,넌 명석해,2,Green,A,5.875,4.033333333333333,ScrollDown,ScrollUp,Green.png,1,Positive,Congruent,,,,,0,0,0,0,,,,,,,,,,,,,0,10,10,10,,,,,,,,,,,,,,,,,,,,,,,,,,,,,,,,,,,,,,,,,,,,,,,,,,,,,,,,,,,,,,,,,,,,,,,,,,,,,,,,,1,1.2103918999928283,154.72853100000066,None,ScrollDown,정답입니다,154.72853100000066,None,154.72853100000066,None,154.72853100000066,None,154.72853100000066,None,155.8325182999979,None,155.8325182999979,156.33254899999883,,,,,,,,,,,,,,,,016,2022-05-12_13h50.57.137,FishGame,2022.1.1,60.00592858548096,
,12,나를 데려가줘,6,Orange,B,0,0,ScrollDown,ScrollUp,Orange.png,1,NonTarget,NonTarget,,,,,0,0,0,0,,,,,,,,,,,,,0,11,11,11,,,,,,,,,,,,,,,,,,,,,,,,,,,,,,,,,,,,,,,,,,,,,,,,,,,,,,,,,,,,,,,,,,,,,,,,,,,,,,,,,1,1.4296590999947512,156.95869449999736,None,ScrollDown,정답입니다,156.95869449999736,None,156.95869449999736,None,156.95869449999736,None,156.95869449999736,None,158.28506100000232,None,158.28506100000232,158.78507940000418,,,,,,,,,,,,,,,,016,2022-05-12_13h50.57.137,FishGame,2022.1.1,60.00592858548096,
,13,넌 소심해,4,Green,A,3,3.1,ScrollDown,ScrollUp,Green.png,1,Negative,Incongruent,,,,,0,0,0,0,,,,,,,,,,,,,0,12,12,12,,,,,,,,,,,,,,,,,,,,,,,,,,,,,,,,,,,,,,,,,,,,,,,,,,,,,,,,,,,,,,,,,,,,,,,,,,,,,,,,,1,1.295403999996779,159.40811979999853,None,ScrollDown,정답입니다,159.40811979999853,None,159.40811979999853,None,159.40811979999853,None,159.40811979999853,None,160.59906000000046,None,160.59906000000046,161.09909360000165,,,,,,,,,,,,,,,,016,2022-05-12_13h50.57.137,FishGame,2022.1.1,60.00592858548096,
,14,넌 합리적이야,2,Green,A,5.583333333333333,4.733333333333333,ScrollDown,ScrollUp,Green.png,1,Positive,Congruent,,,,,0,0,0,0,,,,,,,,,,,,,0,13,13,13,,,,,,,,,,,,,,,,,,,,,,,,,,,,,,,,,,,,,,,,,,,,,,,,,,,,,,,,,,,,,,,,,,,,,,,,,,,,,,,,,1.0092592636744182,1.2114747000014177,161.72428699999728,None,ScrollDown,정답입니다,161.72428699999728,None,161.72428699999728,None,161.72428699999728,None,161.72428699999728,None,162.83494829999836,None,162.83494829999836,163.3349350999997,,,,,,,,,,,,,,,,016,2022-05-12_13h50.57.137,FishGame,2022.1.1,60.00592858548096,
,15,넌 무자비해,5,Orange,B,2.333333333333333,2.1,ScrollUp,ScrollDown,Orange.png,1,Negative,Congruent,,,,,0,0,0,0,,,,,,,,,,,,,0,14,14,14,,,,,,,,,,,,,,,,,,,,,,,,,,,,,,,,,,,,,,,,,,,,,,,,,,,,,,,,,,,,,,,,,,,,,,,,,,,,,,,,,1.766975313425064,1.1763394000008702,163.9610748999985,None,ScrollUp,정답입니다,163.9610748999985,None,163.9610748999985,None,163.9610748999985,None,163.9610748999985,None,165.02793580000434,None,165.02793580000434,165.532841500004,,,,,,,,,,,,,,,,016,2022-05-12_13h50.57.137,FishGame,2022.1.1,60.00592858548096,
,16,나를 보내줘,6,Green,A,0,0,ScrollUp,ScrollDown,Green.png,1,NonTarget,NonTarget,,,,,0,0,0,0,,,,,,,,,,,,,0,15,15,15,,,,,,,,,,,,,,,,,,,,,,,,,,,,,,,,,,,,,,,,,,,,,,,,,,,,,,,,,,,,,,,,,,,,,,,,,,,,,,,,,1.6805555572112403,1.6283041999995476,166.15056590000313,None,ScrollUp,정답입니다,166.15056590000313,None,166.15056590000313,None,166.15056590000313,None,166.15056590000313,None,167.6848450000034,None,167.6848450000034,168.18485520000104,,,,,,,,,,,,,,,,016,2022-05-12_13h50.57.137,FishGame,2022.1.1,60.00592858548096,
,17,넌 현실적이야,3,Orange,B,4.608695652173913,4.766666666666667,ScrollUp,ScrollDown,Orange.png,1,Neutral,Neutral,,,,,0,0,0,0,,,,,,,,,,,,,0,16,16,16,,,,,,,,,,,,,,,,,,,,,,,,,,,,,,,,,,,,,,,,,,,,,,,,,,,,,,,,,,,,,,,,,,,,,,,,,,,,,,,,,1.6604938258727393,1.2439326000021538,168.81002699999954,None,ScrollUp,정답입니다,168.81002699999954,None,168.81002699999954,None,168.81002699999954,None,168.81002699999954,None,169.94913819999783,None,169.94913819999783,170.44916509999894,,,,,,,,,,,,,,,,016,2022-05-12_13h50.57.137,FishGame,2022.1.1,60.00592858548096,
,18,넌 의리있어,1,Orange,B,5.833333333333334,5.633333333333334,ScrollUp,ScrollDown,Orange.png,1,Positive,Incongruent,,,,,0,0,0,0,,,,,,,,,,,,,0,17,17,17,,,,,,,,,,,,,,,,,,,,,,,,,,,,,,,,,,,,,,,,,,,,,,,,,,,,,,,,,,,,,,,,,,,,,,,,,,,,,,,,,1.6929012313485146,1.3797744999974384,171.07282490000216,None,ScrollUp,정답입니다,171.07282490000216,None,171.07282490000216,None,171.07282490000216,None,171.07282490000216,None,172.34912990000157,None,172.34912990000157,172.851316100001,,,,,,,,,,,,,,,,016,2022-05-12_13h50.57.137,FishGame,2022.1.1,60.00592858548096,
,19,넌 신경과민이야,5,Green,A,2.541666666666667,2.166666666666667,ScrollDown,ScrollUp,Green.png,1,Negative,Incongruent,,,,,0,0,0,0,,,,,,,,,,,,,0,18,18,18,,,,,,,,,,,,,,,,,,,,,,,,,,,,,,,,,,,,,,,,,,,,,,,,,,,,,,,,,,,,,,,,,,,,,,,,,,,,,,,,,1.0416666567325592,1.261149199999636,173.48125389999768,None,ScrollDown,정답입니다,173.48125389999768,None,173.48125389999768,None,173.48125389999768,None,173.48125389999768,None,174.6323909999992,None,174.6323909999992,175.13462710000022,,,,,,,,,,,,,,,,016,2022-05-12_13h50.57.137,FishGame,2022.1.1,60.00592858548096,
,20,넌 편안해,1,Green,A,5.916666666666666,5.866666666666666,ScrollDown,ScrollUp,Green.png,1,Positive,Congruent,,,,,0,0,0,0,,,,,,,,,,,,,0,19,19,19,,,,,,,,,,,,,,,,,,,,,,,,,,,,,,,,,,,,,,,,,,,,,,,,,,,,,,,,,,,,,,,,,,,,,,,,,,,,,,,,,1,1.2928866000002017,175.76060940000025,None,ScrollDown,정답입니다,175.76060940000025,None,175.76060940000025,None,175.76060940000025,None,175.76060940000025,None,176.94895949999773,None,176.94895949999773,177.44903150000027,,,,,,,,,,,,,,,,016,2022-05-12_13h50.57.137,FishGame,2022.1.1,60.00592858548096,
,21,넌 품위있어,2,Orange,B,5.291666666666666,4.466666666666667,ScrollUp,ScrollDown,Orange.png,1,Positive,Incongruent,,,,,0,0,0,0,,,,,,,,,,,,,0,20,20,20,,,,,,,,,,,,,,,,,,,,,,,,,,,,,,,,,,,,,,,,,,,,,,,,,,,,,,,,,,,,,,,,,,,,,,,,,,,,,,,,,1.7376543233791986,1.27759619999415,178.07531179999933,None,ScrollUp,정답입니다,178.07531179999933,None,178.07531179999933,None,178.07531179999933,None,178.07531179999933,None,179.24902250000014,None,179.24902250000014,179.75119119999727,,,,,,,,,,,,,,,,016,2022-05-12_13h50.57.137,FishGame,2022.1.1,60.00592858548096,
,22,넌 빈틈없어,3,Green,A,4.833333333333333,3.966666666666667,ScrollDown,ScrollUp,Green.png,1,Neutral,Neutral,,,,,0,0,0,0,,,,,,,,,,,,,0,21,21,21,,,,,,,,,,,,,,,,,,,,,,,,,,,,,,,,,,,,,,,,,,,,,,,,,,,,,,,,,,,,,,,,,,,,,,,,,,,,,,,,,1.2391975422700245,1.1262592999992194,180.372709700001,None,ScrollDown,정답입니다,180.372709700001,None,180.372709700001,None,180.372709700001,None,180.372709700001,None,181.3988504000008,None,181.3988504000008,181.90106930000184,,,,,,,,,,,,,,,,016,2022-05-12_13h50.57.137,FishGame,2022.1.1,60.00592858548096,
,23,넌 상상력없어,4,Orange,B,2.833333333333333,3.133333333333333,ScrollUp,ScrollDown,Orange.png,1,Negative,Congruent,,,,,0,0,0,0,,,,,,,,,,,,,0,22,22,22,,,,,,,,,,,,,,,,,,,,,,,,,,,,,,,,,,,,,,,,,,,,,,,,,,,,,,,,,,,,,,,,,,,,,,,,,,,,,,,,,1.703703703979651,1.1778264999957173,182.52859349999926,None,ScrollUp,정답입니다,182.52859349999926,None,182.52859349999926,None,182.52859349999926,None,182.52859349999926,None,183.60098450000078,None,183.60098450000078,184.1156701,,,,,,,,,,,,,,,,016,2022-05-12_13h50.57.137,FishGame,2022.1.1,60.00592858548096,
,24,넌 지혜로워,2,Orange,B,6.333333333333334,4.633333333333334,ScrollUp,ScrollDown,Orange.png,1,Positive,Incongruent,,,,,0,0,0,0,,,,,,,,,,,,,0,23,23,23,,,,,,,,,,,,,,,,,,,,,,,,,,,,,,,,,,,,,,,,,,,,,,,,,,,,,,,,,,,,,,,,,,,,,,,,,,,,,,,,,1.723765422900518,1.0922595000010915,184.72728479999932,None,ScrollUp,정답입니다,184.72728479999932,None,184.72728479999932,None,184.72728479999932,None,184.72728479999932,None,185.71551680000266,None,185.71551680000266,186.2155172999992,,,,,,,,,,,,,,,,016,2022-05-12_13h50.57.137,FishGame,2022.1.1,60.00592858548096,
,25,넌 시끄러워,4,Green,A,2.833333333333333,3.033333333333333,ScrollDown,ScrollUp,Green.png,1,Negative,Incongruent,,,,,0,0,0,0,,,,,,,,,,,,,0,24,24,24,,,,,,,,,,,,,,,,,,,,,,,,,,,,,,,,,,,,,,,,,,,,,,,,,,,,,,,,,,,,,,,,,,,,,,,,,,,,,,,,,1.1250000099341075,1.209588599995186,186.84530539999832,None,ScrollDown,정답입니다,186.84530539999832,None,186.84530539999832,None,186.84530539999832,None,186.84530539999832,None,187.9485038999992,None,187.9485038999992,188.44855429999734,,,,,,,,,,,,,,,,016,2022-05-12_13h50.57.137,FishGame,2022.1.1,60.00592858548096,
,26,넌 만사태평이야,3,Orange,B,4,4.333333333333333,ScrollUp,ScrollDown,Orange.png,1,Neutral,Neutral,,,,,0,0,0,0,,,,,,,,,,,,,0,25,25,25,,,,,,,,,,,,,,,,,,,,,,,,,,,,,,,,,,,,,,,,,,,,,,,,,,,,,,,,,,,,,,,,,,,,,,,,,,,,,,,,,1.7777777860562007,1.1634938999995939,189.0769530000034,None,ScrollUp,정답입니다,189.0769530000034,None,189.0769530000034,None,189.0769530000034,None,189.0769530000034,None,190.13435829999798,None,190.13435829999798,190.6344667000012,,,,,,,,,,,,,,,,016,2022-05-12_13h50.57.137,FishGame,2022.1.1,60.00592858548096,
,27,넌 붙임성있어,1,Green,A,5.708333333333333,5.633333333333334,ScrollDown,ScrollUp,Green.png,1,Positive,Congruent,,,,,0,0,0,0,,,,,,,,,,,,,0,26,26,26,,,,,,,,,,,,,,,,,,,,,,,,,,,,,,,,,,,,,,,,,,,,,,,,,,,,,,,,,,,,,,,,,,,,,,,,,,,,,,,,,1,1.1790181000033044,191.25893940000242,None,ScrollDown,정답입니다,191.25893940000242,None,191.25893940000242,None,191.25893940000242,None,191.25893940000242,None,192.33199740000418,None,192.33199740000418,192.83230300000287,,,,,,,,,,,,,,,,016,2022-05-12_13h50.57.137,FishGame,2022.1.1,60.00592858548096,
,28,넌 영리해,2,Green,A,6,4.033333333333333,ScrollDown,ScrollUp,Green.png,1,Positive,Congruent,,,,,0,0,0,0,,,,,,,,,,,,,0,27,27,27,,,,,,,,,,,,,,,,,,,,,,,,,,,,,,,,,,,,,,,,,,,,,,,,,,,,,,,,,,,,,,,,,,,,,,,,,,,,,,,,,1,1.1947736000001896,193.4647210999974,None,ScrollDown,정답입니다,193.4647210999974,None,193.4647210999974,None,193.4647210999974,None,193.4647210999974,None,194.5486677000008,None,194.5486677000008,195.0509372000015,,,,,,,,,,,,,,,,016,2022-05-12_13h50.57.137,FishGame,2022.1.1,60.00592858548096,
,29,넌 열심이야,1,Orange,B,6.041666666666667,5.833333333333333,ScrollUp,ScrollDown,Orange.png,1,Positive,Incongruent,,,,,0,0,0,0,,,,,,,,,,,,,0,28,28,28,,,,,,,,,,,,,,,,,,,,,,,,,,,,,,,,,,,,,,,,,,,,,,,,,,,,,,,,,,,,,,,,,,,,,,,,,,,,,,,,,1.8317901243766148,1.156543999997666,195.67447060000268,None,ScrollUp,정답입니다,195.67447060000268,None,195.67447060000268,None,195.67447060000268,None,195.67447060000268,None,196.717994300001,None,196.717994300001,197.2153357999996,,,,,,,,,,,,,,,,016,2022-05-12_13h50.57.137,FishGame,2022.1.1,60.00592858548096,
,30,넌 인기없어,4,Orange,B,3,3.3,ScrollUp,ScrollDown,Orange.png,1,Negative,Congruent,,,,,0,0,0,0,,,,,,,,,,,,,0,29,29,29,,,,,,,,,,,,,,,,,,,,,,,,,,,,,,,,,,,,,,,,,,,,,,,,,,,,,,,,,,,,,,,,,,,,,,,,,,,,,,,,,1.8611111144224803,1.3613729999997304,197.8584805999999,None,ScrollUp,정답입니다,197.8584805999999,None,197.8584805999999,None,197.8584805999999,None,197.8584805999999,None,199.117347899999,None,199.117347899999,199.63406899999973,,,,,,,,,,,,,,,,016,2022-05-12_13h50.57.137,FishGame,2022.1.1,60.00592858548096,
,31,넌 익살스러워,3,Green,A,4.708333333333334,4.833333333333333,ScrollDown,ScrollUp,Green.png,1,Neutral,Neutral,,,,,0,0,0,0,,,,,,,,,,,,,0,30,30,30,,,,,,,,,,,,,,,,,,,,,,,,,,,,,,,,,,,,,,,,,,,,,,,,,,,,,,,,,,,,,,,,,,,,,,,,,,,,,,,,,1.0231481393178303,1.161370399997395,200.25867519999883,None,ScrollDown,정답입니다,200.25867519999883,None,200.25867519999883,None,200.25867519999883,None,200.25867519999883,None,201.31737380000413,None,201.31737380000413,201.8174702000033,,,,,,,,,,,,,,,,016,2022-05-12_13h50.57.137,FishGame,2022.1.1,60.00592858548096,
,32,넌 이기적이야,5,Orange,B,2.291666666666667,2.333333333333333,ScrollUp,ScrollDown,Orange.png,1,Negative,Congruent,,,,,0,0,0,0,,,,,,,,,,,,,0,31,31,31,,,,,,,,,,,,,,,,,,,,,,,,,,,,,,,,,,,,,,,,,,,,,,,,,,,,,,,,,,,,,,,,,,,,,,,,,,,,,,,,,1.7314814925193787,1.1598990999991656,202.44290249999904,None,ScrollUp,정답입니다,202.44290249999904,None,202.44290249999904,None,202.44290249999904,None,202.44290249999904,None,203.50061390000337,None,203.50061390000337,204.000649900001,,,,,,,,,,,,,,,,016,2022-05-12_13h50.57.137,FishGame,2022.1.1,60.00592858548096,
,33,나를 데려가줘,6,Orange,B,0,0,ScrollDown,ScrollUp,Orange.png,1,NonTarget,NonTarget,,,,,0,0,0,0,,,,,,,,,,,,,0,32,32,32,,,,,,,,,,,,,,,,,,,,,,,,,,,,,,,,,,,,,,,,,,,,,,,,,,,,,,,,,,,,,,,,,,,,,,,,,,,,,,,,,1.0324074228604634,1.5113864999948419,204.64437290000205,None,ScrollDown,정답입니다,204.64437290000205,None,204.64437290000205,None,204.64437290000205,None,204.64437290000205,None,206.04840390000027,None,206.04840390000027,206.54844199999934,,,,,,,,,,,,,,,,016,2022-05-12_13h50.57.137,FishGame,2022.1.1,60.00592858548096,
,34,넌 기회주의자야,5,Green,A,2.875,2.133333333333333,ScrollDown,ScrollUp,Green.png,1,Negative,Incongruent,,,,,0,0,0,0,,,,,,,,,,,,,0,33,33,33,,,,,,,,,,,,,,,,,,,,,,,,,,,,,,,,,,,,,,,,,,,,,,,,,,,,,,,,,,,,,,,,,,,,,,,,,,,,,,,,,1,1.6089312000040081,207.18271890000324,None,ScrollDown,정답입니다,207.18271890000324,None,207.18271890000324,None,207.18271890000324,None,207.18271890000324,None,208.68142620000435,None,208.68142620000435,209.1814985000019,,,,,,,,,,,,,,,,016,2022-05-12_13h50.57.137,FishGame,2022.1.1,60.00592858548096,
,1,넌 미성숙해,4,Green,A,3,3.2,ScrollDown,ScrollUp,Green.png,2,Negative,Incongruent,,,,,0,0,0,0,,,,,,,,,,,,,,,,,0,0,0,0,,,,,,,,,,,,,,,,,,,,,,,,,,,,,,,,,,,,240.91463089999888,242.41671810000116,242.44798889999947,243.39772410000296,243.4501347999976,244.39802439999767,244.39802439999767,None,,,,,,,,,,,,,,,,,,,,,,,,,,,,,,,,,,1,1.1841424000012921,245.50143689999823,None,ScrollDown,정답입니다,245.50143689999823,None,245.50143689999823,None,245.50143689999823,None,245.50143689999823,None,246.5809092999989,None,246.5809092999989,247.08102510000026,209.68148870000005,None,209.68148870000005,None,0.30555555,-0.11388889,1,0,0,0.015922480008157436,None,239.6811419000005,None,,,016,2022-05-12_13h50.57.137,FishGame,2022.1.1,60.00592858548096,
,2,넌 반사회적이야,5,Orange,B,2.416666666666667,2.033333333333333,ScrollUp,ScrollDown,Orange.png,2,Negative,Congruent,,,,,0,0,0,0,,,,,,,,,,,,,,,,,0,1,1,1,,,,,,,,,,,,,,,,,,,,,,,,,,,,,,,,,,,,,,,,,,,,,,,,,,,,,,,,,,,,,,,,,,,,,,,,,,,,,1.7500000099341075,1.2276123999981792,247.71395109999867,None,ScrollUp,정답입니다,247.71395109999867,None,247.71395109999867,None,247.71395109999867,None,247.71395109999867,None,248.83305819999805,None,248.83305819999805,249.33314590000373,,,,,,,,,,,,,,,,016,2022-05-12_13h50.57.137,FishGame,2022.1.1,60.00592858548096,
,3,넌 유능해,2,Green,A,6.208333333333333,4.433333333333334,ScrollDown,ScrollUp,Green.png,2,Positive,Congruent,,,,,0,0,0,0,,,,,,,,,,,,,,,,,0,2,2,2,,,,,,,,,,,,,,,,,,,,,,,,,,,,,,,,,,,,,,,,,,,,,,,,,,,,,,,,,,,,,,,,,,,,,,,,,,,,,1.040123442808787,1.1256312000041362,249.95804800000042,None,ScrollDown,정답입니다,249.95804800000042,None,249.95804800000042,None,249.95804800000042,None,249.95804800000042,None,250.98055040000327,None,250.98055040000327,251.48061980000057,,,,,,,,,,,,,,,,016,2022-05-12_13h50.57.137,FishGame,2022.1.1,60.00592858548096,
,4,넌 능숙해,2,Orange,B,5.666666666666667,4.733333333333333,ScrollUp,ScrollDown,Orange.png,2,Positive,Incongruent,,,,,0,0,0,0,,,,,,,,,,,,,,,,,0,3,3,3,,,,,,,,,,,,,,,,,,,,,,,,,,,,,,,,,,,,,,,,,,,,,,,,,,,,,,,,,,,,,,,,,,,,,,,,,,,,,1.7947530895471573,1.1140137999973376,252.1016402000023,None,ScrollUp,정답입니다,252.1016402000023,None,252.1016402000023,None,252.1016402000023,None,252.1016402000023,None,253.11637340000016,None,253.11637340000016,253.6335823000045,,,,,,,,,,,,,,,,016,2022-05-12_13h50.57.137,FishGame,2022.1.1,60.00592858548096,
,5,넌 진부해,4,Orange,B,2.458333333333333,3.166666666666667,ScrollUp,ScrollDown,Orange.png,2,Negative,Congruent,,,,,0,0,0,0,,,,,,,,,,,,,,,,,0,4,4,4,,,,,,,,,,,,,,,,,,,,,,,,,,,,,,,,,,,,,,,,,,,,,,,,,,,,,,,,,,,,,,,,,,,,,,,,,,,,,1.9012345770994823,1.008961100000306,254.24277150000125,None,ScrollUp,정답입니다,254.24277150000125,None,254.24277150000125,None,254.24277150000125,None,254.24277150000125,None,255.1420591999995,None,255.1420591999995,255.64720559999841,,,,,,,,,,,,,,,,016,2022-05-12_13h50.57.137,FishGame,2022.1.1,60.00592858548096,
,6,나를 보내줘,6,Green,A,0,0,ScrollUp,ScrollDown,Green.png,2,NonTarget,NonTarget,,,,,0,0,0,0,,,,,,,,,,,,,,,,,0,5,5,5,,,,,,,,,,,,,,,,,,,,,,,,,,,,,,,,,,,,,,,,,,,,,,,,,,,,,,,,,,,,,,,,,,,,,,,,,,,,,1.7685185273488362,1.3635168999971938,256.2646326000031,None,ScrollUp,정답입니다,256.2646326000031,None,256.2646326000031,None,256.2646326000031,None,256.2646326000031,None,257.53048200000194,None,257.53048200000194,258.03106529999786,,,,,,,,,,,,,,,,016,2022-05-12_13h50.57.137,FishGame,2022.1.1,60.00592858548096,
,7,넌 엄격해,3,Green,A,4.166666666666666,4.1,ScrollDown,ScrollUp,Green.png,2,Neutral,Neutral,,,,,0,0,0,0,,,,,,,,,,,,,,,,,0,6,6,6,,,,,,,,,,,,,,,,,,,,,,,,,,,,,,,,,,,,,,,,,,,,,,,,,,,,,,,,,,,,,,,,,,,,,,,,,,,,,1,1.2439421999952174,258.6552071000042,None,ScrollDown,정답입니다,258.6552071000042,None,258.6552071000042,None,258.6552071000042,None,258.6552071000042,None,259.7996503000031,None,259.7996503000031,260.2997002999982,,,,,,,,,,,,,,,,016,2022-05-12_13h50.57.137,FishGame,2022.1.1,60.00592858548096,
,8,나를 보내줘,6,Green,A,0,0,ScrollUp,ScrollDown,Green.png,2,NonTarget,NonTarget,,,,,0,0,0,0,,,,,,,,,,,,,,,,,0,7,7,7,,,,,,,,,,,,,,,,,,,,,,,,,,,,,,,,,,,,,,,,,,,,,,,,,,,,,,,,,,,,,,,,,,,,,,,,,,,,,1.7746913582086563,1.194079300003068,260.9176998999974,None,ScrollUp,정답입니다,260.9176998999974,None,260.9176998999974,None,260.9176998999974,None,260.9176998999974,None,262.0160803000035,None,262.0160803000035,262.51614520000294,,,,,,,,,,,,,,,,016,2022-05-12_13h50.57.137,FishGame,2022.1.1,60.00592858548096,
,9,넌 대담해,3,Orange,B,4.875,4.866666666666666,ScrollUp,ScrollDown,Orange.png,2,Neutral,Neutral,,,,,0,0,0,0,,,,,,,,,,,,,,,,,0,8,8,8,,,,,,,,,,,,,,,,,,,,,,,,,,,,,,,,,,,,,,,,,,,,,,,,,,,,,,,,,,,,,,,,,,,,,,,,,,,,,1.8827160596847534,1.308906800004479,263.14292710000154,None,ScrollUp,정답입니다,263.14292710000154,None,263.14292710000154,None,263.14292710000154,None,263.14292710000154,None,264.34718129999965,None,264.34718129999965,264.8472385999994,,,,,,,,,,,,,,,,016,2022-05-12_13h50.57.137,FishGame,2022.1.1,60.00592858548096,
,10,넌 꾸준해,1,Green,A,5.916666666666668,5.8,ScrollDown,ScrollUp,Green.png,2,Positive,Congruent,,,,,0,0,0,0,,,,,,,,,,,,,,,,,0,9,9,9,,,,,,,,,,,,,,,,,,,,,,,,,,,,,,,,,,,,,,,,,,,,,,,,,,,,,,,,,,,,,,,,,,,,,,,,,,,,,1,1.3129119999939576,265.46880709999823,None,ScrollDown,정답입니다,265.46880709999823,None,265.46880709999823,None,265.46880709999823,None,265.46880709999823,None,266.6803413000016,None,266.6803413000016,267.18272389999765,,,,,,,,,,,,,,,,016,2022-05-12_13h50.57.137,FishGame,2022.1.1,60.00592858548096,
,11,나를 데려가줘,6,Orange,B,0,0,ScrollDown,ScrollUp,Orange.png,2,NonTarget,NonTarget,,,,,0,0,0,0,,,,,,,,,,,,,,,,,0,10,10,10,,,,,,,,,,,,,,,,,,,,,,,,,,,,,,,,,,,,,,,,,,,,,,,,,,,,,,,,,,,,,,,,,,,,,,,,,,,,,1,1.1589047000015853,267.80441150000115,None,ScrollDown,정답입니다,267.80441150000115,None,267.80441150000115,None,267.80441150000115,None,267.80441150000115,None,268.8635246999984,None,268.8635246999984,269.3638318000012,,,,,,,,,,,,,,,,016,2022-05-12_13h50.57.137,FishGame,2022.1.1,60.00592858548096,
,12,넌 독선적이야,5,Green,A,2.458333333333333,1.933333333333333,ScrollDown,ScrollUp,Green.png,2,Negative,Incongruent,,,,,0,0,0,0,,,,,,,,,,,,,,,,,0,11,11,11,,,,,,,,,,,,,,,,,,,,,,,,,,,,,,,,,,,,,,,,,,,,,,,,,,,,,,,,,,,,,,,,,,,,,,,,,,,,,1.0771604776382446,1.1633991999988211,269.98843569999735,None,ScrollDown,정답입니다,269.98843569999735,None,269.98843569999735,None,269.98843569999735,None,269.98843569999735,None,271.0494813999976,None,271.0494813999976,271.54948680000234,,,,,,,,,,,,,,,,016,2022-05-12_13h50.57.137,FishGame,2022.1.1,60.00592858548096,
,13,나를 보내줘,6,Green,A,0,0,ScrollUp,ScrollDown,Green.png,2,NonTarget,NonTarget,,,,,0,0,0,0,,,,,,,,,,,,,,,,,0,12,12,12,,,,,,,,,,,,,,,,,,,,,,,,,,,,,,,,,,,,,,,,,,,,,,,,,,,,,,,,,,,,,,,,,,,,,,,,,,,,,1.7793209999799728,1.2255098000023281,272.16844370000035,None,ScrollUp,정답입니다,272.16844370000035,None,272.16844370000035,None,272.16844370000035,None,272.16844370000035,None,273.2994592000032,None,273.2994592000032,273.8025731000016,,,,,,,,,,,,,,,,016,2022-05-12_13h50.57.137,FishGame,2022.1.1,60.00592858548096,
,14,넌 책임감있어,1,Orange,B,6.347826086956522,6,ScrollUp,ScrollDown,Orange.png,2,Positive,Incongruent,,,,,0,0,0,0,,,,,,,,,,,,,,,,,0,13,13,13,,,,,,,,,,,,,,,,,,,,,,,,,,,,,,,,,,,,,,,,,,,,,,,,,,,,,,,,,,,,,,,,,,,,,,,,,,,,,1.699074074625969,1.2107428000017535,274.4245751999988,None,ScrollUp,정답입니다,274.4245751999988,None,274.4245751999988,None,274.4245751999988,None,274.4245751999988,None,275.53035069999896,None,275.53035069999896,276.0325522999992,,,,,,,,,,,,,,,,016,2022-05-12_13h50.57.137,FishGame,2022.1.1,60.00592858548096,
,15,넌 문학적이야,3,Green,A,4.708333333333334,4.333333333333333,ScrollDown,ScrollUp,Green.png,2,Neutral,Neutral,,,,,0,0,0,0,,,,,,,,,,,,,,,,,0,14,14,14,,,,,,,,,,,,,,,,,,,,,,,,,,,,,,,,,,,,,,,,,,,,,,,,,,,,,,,,,,,,,,,,,,,,,,,,,,,,,1.1435185273488362,1.7423894000021392,276.6613320000033,None,ScrollDown,정답입니다,276.6613320000033,None,276.6613320000033,None,276.6613320000033,None,276.6613320000033,None,278.29694919999747,None,278.29694919999747,278.7992393000022,,,,,,,,,,,,,,,,016,2022-05-12_13h50.57.137,FishGame,2022.1.1,60.00592858548096,
,16,넌 재미있어,1,Orange,B,5.875,5.7,ScrollUp,ScrollDown,Orange.png,2,Positive,Incongruent,,,,,0,0,0,0,,,,,,,,,,,,,,,,,0,15,15,15,,,,,,,,,,,,,,,,,,,,,,,,,,,,,,,,,,,,,,,,,,,,,,,,,,,,,,,,,,,,,,,,,,,,,,,,,,,,,1.7345678955316544,1.244031599999289,279.4233833000035,None,ScrollUp,정답입니다,279.4233833000035,None,279.4233833000035,None,279.4233833000035,None,279.4233833000035,None,280.563519299998,None,280.563519299998,281.0635983000029,,,,,,,,,,,,,,,,016,2022-05-12_13h50.57.137,FishGame,2022.1.1,60.00592858548096,
,17,나를 데려가줘,6,Orange,B,0,0,ScrollDown,ScrollUp,Orange.png,2,NonTarget,NonTarget,,,,,0,0,0,0,,,,,,,,,,,,,,,,,0,16,16,16,,,,,,,,,,,,,,,,,,,,,,,,,,,,,,,,,,,,,,,,,,,,,,,,,,,,,,,,,,,,,,,,,,,,,,,,,,,,,1.0740740497907002,1.177700400003232,281.69068400000106,None,ScrollDown,정답입니다,281.69068400000106,None,281.69068400000106,None,281.69068400000106,None,281.69068400000106,None,282.76352580000093,None,282.76352580000093,283.26577859999816,,,,,,,,,,,,,,,,016,2022-05-12_13h50.57.137,FishGame,2022.1.1,60.00592858548096,
,18,넌 협력적이야,1,Green,A,5.625,5.633333333333334,ScrollDown,ScrollUp,Green.png,2,Positive,Congruent,,,,,0,0,0,0,,,,,,,,,,,,,,,,,0,17,17,17,,,,,,,,,,,,,,,,,,,,,,,,,,,,,,,,,,,,,,,,,,,,,,,,,,,,,,,,,,,,,,,,,,,,,,,,,,,,,1.016975333293279,1.256277600004978,283.8864670000039,None,ScrollDown,정답입니다,283.8864670000039,None,283.8864670000039,None,283.8864670000039,None,283.8864670000039,None,285.0419780000011,None,285.0419780000011,285.54659790000005,,,,,,,,,,,,,,,,016,2022-05-12_13h50.57.137,FishGame,2022.1.1,60.00592858548096,
,19,넌 평범해,3,Orange,B,4.333333333333332,4.233333333333333,ScrollUp,ScrollDown,Orange.png,2,Neutral,Neutral,,,,,0,0,0,0,,,,,,,,,,,,,,,,,0,18,18,18,,,,,,,,,,,,,,,,,,,,,,,,,,,,,,,,,,,,,,,,,,,,,,,,,,,,,,,,,,,,,,,,,,,,,,,,,,,,,1.5833333345750966,1.1452924999975949,286.16769190000196,None,ScrollUp,정답입니다,286.16769190000196,None,286.16769190000196,None,286.16769190000196,None,286.16769190000196,None,287.2132045000035,None,287.2132045000035,287.7157317000019,,,,,,,,,,,,,,,,016,2022-05-12_13h50.57.137,FishGame,2022.1.1,60.00592858548096,
,20,넌 오만해,5,Green,A,2.333333333333333,2,ScrollDown,ScrollUp,Green.png,2,Negative,Incongruent,,,,,0,0,0,0,,,,,,,,,,,,,,,,,0,19,19,19,,,,,,,,,,,,,,,,,,,,,,,,,,,,,,,,,,,,,,,,,,,,,,,,,,,,,,,,,,,,,,,,,,,,,,,,,,,,,1.1435185273488362,1.2123419000054128,288.33695750000334,None,ScrollDown,정답입니다,288.33695750000334,None,288.33695750000334,None,288.33695750000334,None,288.33695750000334,None,289.44903519999934,None,289.44903519999934,289.94904099999985,,,,,,,,,,,,,,,,016,2022-05-12_13h50.57.137,FishGame,2022.1.1,60.00592858548096,
,21,넌 운이없어,4,Orange,B,3,3.466666666666667,ScrollUp,ScrollDown,Orange.png,2,Negative,Congruent,,,,,0,0,0,0,,,,,,,,,,,,,,,,,0,20,20,20,,,,,,,,,,,,,,,,,,,,,,,,,,,,,,,,,,,,,,,,,,,,,,,,,,,,,,,,,,,,,,,,,,,,,,,,,,,,,1.5802469129363694,1.2093630000017583,290.59028650000255,None,ScrollUp,정답입니다,290.59028650000255,None,290.59028650000255,None,290.59028650000255,None,290.59028650000255,None,291.69667219999974,None,291.69667219999974,292.19892770000297,,,,,,,,,,,,,,,,016,2022-05-12_13h50.57.137,FishGame,2022.1.1,60.00592858548096,
,22,넌 창조적이야,2,Orange,B,6.125,4.633333333333334,ScrollUp,ScrollDown,Orange.png,2,Positive,Incongruent,,,,,0,0,0,0,,,,,,,,,,,,,,,,,0,21,21,21,,,,,,,,,,,,,,,,,,,,,,,,,,,,,,,,,,,,,,,,,,,,,,,,,,,,,,,,,,,,,,,,,,,,,,,,,,,,,1.6250000049670539,1.010873499995796,292.82418080000207,None,ScrollUp,정답입니다,292.82418080000207,None,292.82418080000207,None,292.82418080000207,None,292.82418080000207,None,293.73208180000074,None,293.73208180000074,294.24878739999986,,,,,,,,,,,,,,,,016,2022-05-12_13h50.57.137,FishGame,2022.1.1,60.00592858548096,
,23,나를 보내줘,6,Green,A,0,0,ScrollUp,ScrollDown,Green.png,2,NonTarget,NonTarget,,,,,0,0,0,0,,,,,,,,,,,,,,,,,0,22,22,22,,,,,,,,,,,,,,,,,,,,,,,,,,,,,,,,,,,,,,,,,,,,,,,,,,,,,,,,,,,,,,,,,,,,,,,,,,,,,1.7160493781169257,1.1116751000008662,294.8496634000039,None,ScrollUp,정답입니다,294.8496634000039,None,294.8496634000039,None,294.8496634000039,None,294.8496634000039,None,295.8632527000009,None,295.8632527000009,296.36331130000326,,,,,,,,,,,,,,,,016,2022-05-12_13h50.57.137,FishGame,2022.1.1,60.00592858548096,
,24,넌 통찰력있어,2,Green,A,6.5,4.8,ScrollDown,ScrollUp,Green.png,2,Positive,Congruent,,,,,0,0,0,0,,,,,,,,,,,,,,,,,0,23,23,23,,,,,,,,,,,,,,,,,,,,,,,,,,,,,,,,,,,,,,,,,,,,,,,,,,,,,,,,,,,,,,,,,,,,,,,,,,,,,1.0478395124276478,1.2089686999970581,296.99185679999937,None,ScrollDown,정답입니다,296.99185679999937,None,296.99185679999937,None,296.99185679999937,None,296.99185679999937,None,298.0965245999978,None,298.0965245999978,298.5965911000021,,,,,,,,,,,,,,,,016,2022-05-12_13h50.57.137,FishGame,2022.1.1,60.00592858548096,
,25,넌 경솔해,5,Orange,B,2.458333333333333,2.266666666666667,ScrollUp,ScrollDown,Orange.png,2,Negative,Congruent,,,,,0,0,0,0,,,,,,,,,,,,,,,,,0,24,24,24,,,,,,,,,,,,,,,,,,,,,,,,,,,,,,,,,,,,,,,,,,,,,,,,,,,,,,,,,,,,,,,,,,,,,,,,,,,,,1.6203703756133714,1.0781385000009323,299.2242172999977,None,ScrollUp,정답입니다,299.2242172999977,None,299.2242172999977,None,299.2242172999977,None,299.2242172999977,None,300.1964904999986,None,300.1964904999986,300.6965627000027,,,,,,,,,,,,,,,,016,2022-05-12_13h50.57.137,FishGame,2022.1.1,60.00592858548096,
,26,넌 초조해,4,Green,A,2.916666666666667,3.133333333333333,ScrollDown,ScrollUp,Green.png,2,Negative,Incongruent,,,,,0,0,0,0,,,,,,,,,,,,,,,,,0,25,25,25,,,,,,,,,,,,,,,,,,,,,,,,,,,,,,,,,,,,,,,,,,,,,,,,,,,,,,,,,,,,,,,,,,,,,,,,,,,,,1.1990740795930226,1.0955761999939568,301.31730970000353,None,ScrollDown,정답입니다,301.31730970000353,None,301.31730970000353,None,301.31730970000353,None,301.31730970000353,None,302.31312369999796,None,302.31312369999796,302.8154171999995,,,,,,,,,,,,,,,,016,2022-05-12_13h50.57.137,FishGame,2022.1.1,60.00592858548096,
,27,넌 무관심해,4,Orange,B,2.833333333333333,2.9,ScrollUp,ScrollDown,Orange.png,2,Negative,Congruent,,,,,0,0,0,0,,,,,,,,,,,,,,,,,0,26,26,26,,,,,,,,,,,,,,,,,,,,,,,,,,,,,,,,,,,,,,,,,,,,,,,,,,,,,,,,,,,,,,,,,,,,,,,,,,,,,1.5972222226361432,0.9761393000007956,303.4431696000029,None,ScrollUp,정답입니다,303.4431696000029,None,303.4431696000029,None,303.4431696000029,None,303.4431696000029,None,304.3130422000031,None,304.3130422000031,304.8152427000023,,,,,,,,,,,,,,,,016,2022-05-12_13h50.57.137,FishGame,2022.1.1,60.00592858548096,
,28,넌 감성적이야,3,Orange,B,4.125,4.166666666666667,ScrollUp,ScrollDown,Orange.png,2,Neutral,Neutral,,,,,0,0,0,0,,,,,,,,,,,,,,,,,0,27,27,27,,,,,,,,,,,,,,,,,,,,,,,,,,,,,,,,,,,,,,,,,,,,,,,,,,,,,,,,,,,,,,,,,,,,,,,,,,,,,1.4984567901507642,1.1611453000004985,305.43628239999816,None,NoResponse,무응답입니다,305.43628239999816,None,305.43628239999816,None,305.43628239999816,None,305.43628239999816,None,306.4963788000023,None,306.4963788000023,306.99644350000017,,,,,,,,,,,,,,,,016,2022-05-12_13h50.57.137,FishGame,2022.1.1,60.00592858548096,
,29,넌 배려심있어,1,Green,A,6.083333333333333,5.5,ScrollDown,ScrollUp,Green.png,2,Positive,Congruent,,,,,0,0,0,0,,,,,,,,,,,,,,,,,0,28,28,28,,,,,,,,,,,,,,,,,,,,,,,,,,,,,,,,,,,,,,,,,,,,,,,,,,,,,,,,,,,,,,,,,,,,,,,,,,,,,1.1728395173947017,1.3440636999948765,307.6156287999984,None,ScrollDown,정답입니다,307.6156287999984,None,307.6156287999984,None,307.6156287999984,None,307.6156287999984,None,308.86299580000195,None,308.86299580000195,309.365146600001,,,,,,,,,,,,,,,,016,2022-05-12_13h50.57.137,FishGame,2022.1.1,60.00592858548096,
,30,넌 숨김없어,3,Green,A,4.5,4.933333333333334,ScrollDown,ScrollUp,Green.png,2,Neutral,Neutral,,,,,0,0,0,0,,,,,,,,,,,,,,,,,0,29,29,29,,,,,,,,,,,,,,,,,,,,,,,,,,,,,,,,,,,,,,,,,,,,,,,,,,,,,,,,,,,,,,,,,,,,,,,,,,,,,1.1234567960103352,1.127664099993126,309.9930402000027,None,ScrollDown,정답입니다,309.9930402000027,None,309.9930402000027,None,309.9930402000027,None,309.9930402000027,None,311.0151110000006,None,311.0151110000006,311.5318713000015,,,,,,,,,,,,,,,,016,2022-05-12_13h50.57.137,FishGame,2022.1.1,60.00592858548096,
,31,넌 훌륭해,2,Orange,B,5.916666666666667,4.033333333333333,ScrollUp,ScrollDown,Orange.png,2,Positive,Incongruent,,,,,0,0,0,0,,,,,,,,,,,,,,,,,0,30,30,30,,,,,,,,,,,,,,,,,,,,,,,,,,,,,,,,,,,,,,,,,,,,,,,,,,,,,,,,,,,,,,,,,,,,,,,,,,,,,1.632716049750646,1.011677000002237,312.1389672000005,None,ScrollUp,정답입니다,312.1389672000005,None,312.1389672000005,None,312.1389672000005,None,312.1389672000005,None,313.0484090000027,None,313.0484090000027,313.5652945000038,,,,,,,,,,,,,,,,016,2022-05-12_13h50.57.137,FishGame,2022.1.1,60.00592858548096,
,32,넌 슬기로워,2,Green,A,6.166666666666667,4.1,ScrollDown,ScrollUp,Green.png,2,Positive,Congruent,,,,,0,0,0,0,,,,,,,,,,,,,,,,,0,31,31,31,,,,,,,,,,,,,,,,,,,,,,,,,,,,,,,,,,,,,,,,,,,,,,,,,,,,,,,,,,,,,,,,,,,,,,,,,,,,,1.1543209999799728,1.1441125000055763,314.1771970000045,None,ScrollDown,정답입니다,314.1771970000045,None,314.1771970000045,None,314.1771970000045,None,314.1771970000045,None,315.21509560000413,None,315.21509560000413,315.71292990000074,,,,,,,,,,,,,,,,016,2022-05-12_13h50.57.137,FishGame,2022.1.1,60.00592858548096,
,33,넌 냉혹해,5,Green,A,2.583333333333333,2.1,ScrollDown,ScrollUp,Green.png,2,Negative,Incongruent,,,,,0,0,0,0,,,,,,,,,,,,,,,,,0,32,32,32,,,,,,,,,,,,,,,,,,,,,,,,,,,,,,,,,,,,,,,,,,,,,,,,,,,,,,,,,,,,,,,,,,,,,,,,,,,,,1.1666666616996129,1.3214716000002227,316.33408130000316,None,ScrollDown,정답입니다,316.33408130000316,None,316.33408130000316,None,316.33408130000316,None,316.33408130000316,None,317.5459059999994,None,317.5459059999994,318.0459894000014,,,,,,,,,,,,,,,,016,2022-05-12_13h50.57.137,FishGame,2022.1.1,60.00592858548096,
,34,나를 데려가줘,6,Orange,B,0,0,ScrollDown,ScrollUp,Orange.png,2,NonTarget,NonTarget,,,,,0,0,0,0,,,,,,,,,,,,,,,,,0,33,33,33,,,,,,,,,,,,,,,,,,,,,,,,,,,,,,,,,,,,,,,,,,,,,,,,,,,,,,,,,,,,,,,,,,,,,,,,,,,,,1.182098776102066,1.0113975999993272,318.6670578999983,None,ScrollDown,정답입니다,318.6670578999983,None,318.6670578999983,None,318.6670578999983,None,318.6670578999983,None,319.5796579000016,None,319.5796579000016,320.07928070000344,,,,,,,,,,,,,,,,016,2022-05-12_13h50.57.137,FishGame,2022.1.1,60.00592858548096,
,35,넌 편파적이야,5,Orange,B,2.125,2,ScrollUp,ScrollDown,Orange.png,2,Negative,Congruent,,,,,0,0,0,0,,,,,,,,,,,,,,,,,0,34,34,34,,,,,,,,,,,,,,,,,,,,,,,,,,,,,,,,,,,,,,,,,,,,,,,,,,,,,,,,,,,,,,,,,,,,,,,,,,,,,1.5540123445292315,1.4951169000050868,320.70819940000365,None,ScrollUp,정답입니다,320.70819940000365,None,320.70819940000365,None,320.70819940000365,None,320.70819940000365,None,322.09644649999973,None,322.09644649999973,322.5984041999982,,,,,,,,,,,,,,,,016,2022-05-12_13h50.57.137,FishGame,2022.1.1,60.00592858548096,
,36,넌 슬퍼,4,Green,A,2.583333333333333,3.066666666666667,ScrollDown,ScrollUp,Green.png,2,Negative,Incongruent,,,,,0,0,0,0,,,,,,,,,,,,,,,,,0,35,35,35,,,,,,,,,,,,,,,,,,,,,,,,,,,,,,,,,,,,,,,,,,,,,,,,,,,,,,,,,,,,,,,,,,,,,,,,,,,,,1.1975308656692505,1.110597399994731,323.2126247999986,None,ScrollDown,정답입니다,323.2126247999986,None,323.2126247999986,None,323.2126247999986,None,323.2126247999986,None,324.22941150000406,None,324.22941150000406,324.73164940000424,,,,,,,,,,,,,,,,016,2022-05-12_13h50.57.137,FishGame,2022.1.1,60.00592858548096,
,37,나를 데려가줘,6,Orange,B,0,0,ScrollDown,ScrollUp,Orange.png,2,NonTarget,NonTarget,,,,,0,0,0,0,,,,,,,,,,,,,,,,,0,36,36,36,,,,,,,,,,,,,,,,,,,,,,,,,,,,,,,,,,,,,,,,,,,,,,,,,,,,,,,,,,,,,,,,,,,,,,,,,,,,,1.2422839452823002,1.3280959999974584,325.3560967000012,None,ScrollDown,정답입니다,325.3560967000012,None,325.3560967000012,None,325.3560967000012,None,325.3560967000012,None,326.5793768000003,None,326.5793768000003,327.07933349999803,,,,,,,,,,,,,,,,016,2022-05-12_13h50.57.137,FishGame,2022.1.1,60.00592858548096,
,38,넌 친절해,1,Orange,B,6.041666666666667,5.533333333333333,ScrollUp,ScrollDown,Orange.png,2,Positive,Incongruent,,,,,0,0,0,0,,,,,,,,,,,,,,,,,0,37,37,37,,,,,,,,,,,,,,,,,,,,,,,,,,,,,,,,,,,,,,,,,,,,,,,,,,,,,,,,,,,,,,,,,,,,,,,,,,,,,1.481481481033067,1.0928581999978633,327.7109372999985,None,NoResponse,무응답입니다,327.7109372999985,None,327.7109372999985,None,327.7109372999985,None,327.7109372999985,None,328.69595809999737,None,328.69595809999737,329.1962224000017,,,,,,,,,,,,,,,,016,2022-05-12_13h50.57.137,FishGame,2022.1.1,60.00592858548096,
,1,넌 엉성해,4,Green,A,3,3.3,ScrollDown,ScrollUp,Green.png,3,Negative,Incongruent,,,,,0,0,0,0,,,,,,,,,,,,,,,,,,,,,0,0,0,0,,,,,,,,,,,,,,,,,,,,,,,,,,,,,,,,361.0620004000011,362.56430730000284,362.59533250000095,363.54768570000306,363.595212500004,364.5454771000004,364.5454771000004,None,,,,,,,,,,,,,,,,,,,,,,,,,,,,,,,,,,1.1790123482545216,1.098547800000233,365.6487253000014,None,ScrollDown,정답입니다,365.6487253000014,None,365.6487253000014,None,365.6487253000014,None,365.6487253000014,None,366.6451673999982,None,366.6451673999982,367.1474980999992,329.6959408000039,None,329.6959408000039,None,0.2537037,-0.125,1,0,0,0.016075479994469788,None,359.69537819999823,None,,,016,2022-05-12_13h50.57.137,FishGame,2022.1.1,60.00592858548096,
,2,나를 보내줘,6,Green,A,0,0,ScrollUp,ScrollDown,Green.png,3,NonTarget,NonTarget,,,,,0,0,0,0,,,,,,,,,,,,,,,,,,,,,0,1,1,1,,,,,,,,,,,,,,,,,,,,,,,,,,,,,,,,,,,,,,,,,,,,,,,,,,,,,,,,,,,,,,,,,,,,,,,,,1.5864197500050068,0.9962868000002345,367.7659858000043,None,ScrollUp,정답입니다,367.7659858000043,None,367.7659858000043,None,367.7659858000043,None,367.7659858000043,None,368.6618247000006,None,368.6618247000006,369.1617974000037,,,,,,,,,,,,,,,,016,2022-05-12_13h50.57.137,FishGame,2022.1.1,60.00592858548096,
,3,넌 활발해,1,Orange,B,5.666666666666667,5.6,ScrollUp,ScrollDown,Orange.png,3,Positive,Incongruent,,,,,0,0,0,0,,,,,,,,,,,,,,,,,,,,,0,2,2,2,,,,,,,,,,,,,,,,,,,,,,,,,,,,,,,,,,,,,,,,,,,,,,,,,,,,,,,,,,,,,,,,,,,,,,,,,1.6234567910432816,1.1796912000063458,369.7951685000007,None,ScrollUp,정답입니다,369.7951685000007,None,369.7951685000007,None,369.7951685000007,None,369.7951685000007,None,370.86173370000324,None,370.86173370000324,371.3640324000007,,,,,,,,,,,,,,,,016,2022-05-12_13h50.57.137,FishGame,2022.1.1,60.00592858548096,
,4,넌 논리적이야,2,Green,A,5.666666666666666,4.633333333333334,ScrollDown,ScrollUp,Green.png,3,Positive,Congruent,,,,,0,0,0,0,,,,,,,,,,,,,,,,,,,,,0,3,3,3,,,,,,,,,,,,,,,,,,,,,,,,,,,,,,,,,,,,,,,,,,,,,,,,,,,,,,,,,,,,,,,,,,,,,,,,,1.2623456766208014,0.9610417999938363,371.9816892000017,None,ScrollDown,정답입니다,371.9816892000017,None,371.9816892000017,None,371.9816892000017,None,371.9816892000017,None,372.84495980000065,None,372.84495980000065,373.3450035999995,,,,,,,,,,,,,,,,016,2022-05-12_13h50.57.137,FishGame,2022.1.1,60.00592858548096,
,5,넌 과묵해,3,Green,A,3.875,4.4,ScrollDown,ScrollUp,Green.png,3,Neutral,Neutral,,,,,0,0,0,0,,,,,,,,,,,,,,,,,,,,,0,4,4,4,,,,,,,,,,,,,,,,,,,,,,,,,,,,,,,,,,,,,,,,,,,,,,,,,,,,,,,,,,,,,,,,,,,,,,,,,1.194444437821706,1.1110886999958893,373.9715365000011,None,ScrollDown,정답입니다,373.9715365000011,None,373.9715365000011,None,373.9715365000011,None,373.9715365000011,None,374.9783213999981,None,374.9783213999981,375.4807310000033,,,,,,,,,,,,,,,,016,2022-05-12_13h50.57.137,FishGame,2022.1.1,60.00592858548096,
,6,나를 데려가줘,6,Orange,B,0,0,ScrollDown,ScrollUp,Orange.png,3,NonTarget,NonTarget,,,,,0,0,0,0,,,,,,,,,,,,,,,,,,,,,0,5,5,5,,,,,,,,,,,,,,,,,,,,,,,,,,,,,,,,,,,,,,,,,,,,,,,,,,,,,,,,,,,,,,,,,,,,,,,,,1.214506169160207,1.3269683000035002,376.10358129999804,None,ScrollDown,정답입니다,376.10358129999804,None,376.10358129999804,None,376.10358129999804,None,376.10358129999804,None,377.32797389999905,None,377.32797389999905,377.8280771999998,,,,,,,,,,,,,,,,016,2022-05-12_13h50.57.137,FishGame,2022.1.1,60.00592858548096,
,7,넌 미숙해,4,Orange,B,3,3,ScrollUp,ScrollDown,Orange.png,3,Negative,Congruent,,,,,0,0,0,0,,,,,,,,,,,,,,,,,,,,,0,6,6,6,,,,,,,,,,,,,,,,,,,,,,,,,,,,,,,,,,,,,,,,,,,,,,,,,,,,,,,,,,,,,,,,,,,,,,,,,1.5756172835826874,0.9789935999942827,378.4520887000035,None,ScrollUp,정답입니다,378.4520887000035,None,378.4520887000035,None,378.4520887000035,None,378.4520887000035,None,379.32799720000185,None,379.32799720000185,379.82809239999915,,,,,,,,,,,,,,,,016,2022-05-12_13h50.57.137,FishGame,2022.1.1,60.00592858548096,
,8,나를 보내줘,6,Green,A,0,0,ScrollUp,ScrollDown,Green.png,3,NonTarget,NonTarget,,,,,0,0,0,0,,,,,,,,,,,,,,,,,,,,,0,7,7,7,,,,,,,,,,,,,,,,,,,,,,,,,,,,,,,,,,,,,,,,,,,,,,,,,,,,,,,,,,,,,,,,,,,,,,,,,1.609567902982235,1.1138663000019733,380.44603939999797,None,ScrollUp,정답입니다,380.44603939999797,None,380.44603939999797,None,380.44603939999797,None,380.44603939999797,None,381.463797299999,None,381.463797299999,381.963811900001,,,,,,,,,,,,,,,,016,2022-05-12_13h50.57.137,FishGame,2022.1.1,60.00592858548096,
,9,넌 자신만만해,3,Orange,B,4.833333333333334,4.333333333333333,ScrollUp,ScrollDown,Orange.png,3,Neutral,Neutral,,,,,0,0,0,0,,,,,,,,,,,,,,,,,,,,,0,8,8,8,,,,,,,,,,,,,,,,,,,,,,,,,,,,,,,,,,,,,,,,,,,,,,,,,,,,,,,,,,,,,,,,,,,,,,,,,1.5416666672875485,1.1425507000021753,382.60145220000413,None,NoResponse,무응답입니다,382.60145220000413,None,382.60145220000413,None,382.60145220000413,None,382.60145220000413,None,383.6448020000025,None,383.6448020000025,384.1470188000021,,,,,,,,,,,,,,,,016,2022-05-12_13h50.57.137,FishGame,2022.1.1,60.00592858548096,
,10,넌 탐욕스러워,5,Green,A,2.25,2.1,ScrollDown,ScrollUp,Green.png,3,Negative,Incongruent,,,,,0,0,0,0,,,,,,,,,,,,,,,,,,,,,0,9,9,9,,,,,,,,,,,,,,,,,,,,,,,,,,,,,,,,,,,,,,,,,,,,,,,,,,,,,,,,,,,,,,,,,,,,,,,,,1.1882716069618862,1.1773508000042057,384.77258450000227,None,ScrollDown,정답입니다,384.77258450000227,None,384.77258450000227,None,384.77258450000227,None,384.77258450000227,None,385.8447476000001,None,385.8447476000001,386.3450023999976,,,,,,,,,,,,,,,,016,2022-05-12_13h50.57.137,FishGame,2022.1.1,60.00592858548096,
,11,넌 인기있어,2,Green,A,5.458333333333333,4.5,ScrollDown,ScrollUp,Green.png,3,Positive,Congruent,,,,,0,0,0,0,,,,,,,,,,,,,,,,,,,,,0,10,10,10,,,,,,,,,,,,,,,,,,,,,,,,,,,,,,,,,,,,,,,,,,,,,,,,,,,,,,,,,,,,,,,,,,,,,,,,,1.0154321193695068,1.0598021000041626,386.9625567000039,None,ScrollDown,정답입니다,386.9625567000039,None,386.9625567000039,None,386.9625567000039,None,386.9625567000039,None,387.9280532999983,None,387.9280532999983,388.43022010000277,,,,,,,,,,,,,,,,016,2022-05-12_13h50.57.137,FishGame,2022.1.1,60.00592858548096,
,12,나를 데려가줘,6,Orange,B,0,0,ScrollDown,ScrollUp,Orange.png,3,NonTarget,NonTarget,,,,,0,0,0,0,,,,,,,,,,,,,,,,,,,,,0,11,11,11,,,,,,,,,,,,,,,,,,,,,,,,,,,,,,,,,,,,,,,,,,,,,,,,,,,,,,,,,,,,,,,,,,,,,,,,,1.1481481442848842,1.2112302000023192,389.05071979999775,None,ScrollDown,정답입니다,389.05071979999775,None,389.05071979999775,None,389.05071979999775,None,389.05071979999775,None,390.1613763999994,None,390.1613763999994,390.66368460000376,,,,,,,,,,,,,,,,016,2022-05-12_13h50.57.137,FishGame,2022.1.1,60.00592858548096,
,13,넌 뛰어나,2,Orange,B,6.166666666666667,4,ScrollUp,ScrollDown,Orange.png,3,Positive,Incongruent,,,,,0,0,0,0,,,,,,,,,,,,,,,,,,,,,0,12,12,12,,,,,,,,,,,,,,,,,,,,,,,,,,,,,,,,,,,,,,,,,,,,,,,,,,,,,,,,,,,,,,,,,,,,,,,,,1.8101851791143417,1.231095600000117,391.2811718000012,None,ScrollUp,정답입니다,391.2811718000012,None,391.2811718000012,None,391.2811718000012,None,391.2811718000012,None,392.4112481999982,None,392.4112481999982,392.91131640000094,,,,,,,,,,,,,,,,016,2022-05-12_13h50.57.137,FishGame,2022.1.1,60.00592858548096,
,14,넌 낙관적이야,1,Green,A,5.75,5.8,ScrollDown,ScrollUp,Green.png,3,Positive,Congruent,,,,,0,0,0,0,,,,,,,,,,,,,,,,,,,,,0,13,13,13,,,,,,,,,,,,,,,,,,,,,,,,,,,,,,,,,,,,,,,,,,,,,,,,,,,,,,,,,,,,,,,,,,,,,,,,,1.095679019888242,1.109087400000135,393.5346267999994,None,ScrollDown,정답입니다,393.5346267999994,None,393.5346267999994,None,393.5346267999994,None,393.5346267999994,None,394.5467073000036,None,394.5467073000036,395.0467923000033,,,,,,,,,,,,,,,,016,2022-05-12_13h50.57.137,FishGame,2022.1.1,60.00592858548096,
,15,넌 산만해,4,Orange,B,2.695652173913043,3.033333333333333,ScrollUp,ScrollDown,Orange.png,3,Negative,Congruent,,,,,0,0,0,0,,,,,,,,,,,,,,,,,,,,,0,14,14,14,,,,,,,,,,,,,,,,,,,,,,,,,,,,,,,,,,,,,,,,,,,,,,,,,,,,,,,,,,,,,,,,,,,,,,,,,1.7561728407939274,1.042809299993678,395.6666237000027,None,ScrollUp,정답입니다,395.6666237000027,None,395.6666237000027,None,395.6666237000027,None,395.6666237000027,None,396.6111849000008,None,396.6111849000008,397.1113775999984,,,,,,,,,,,,,,,,016,2022-05-12_13h50.57.137,FishGame,2022.1.1,60.00592858548096,
,16,나를 보내줘,6,Green,A,0,0,ScrollUp,ScrollDown,Green.png,3,NonTarget,NonTarget,,,,,0,0,0,0,,,,,,,,,,,,,,,,,,,,,0,15,15,15,,,,,,,,,,,,,,,,,,,,,,,,,,,,,,,,,,,,,,,,,,,,,,,,,,,,,,,,,,,,,,,,,,,,,,,,,1.7160493781169257,1.327064999997674,397.7321032000036,None,ScrollUp,정답입니다,397.7321032000036,None,397.7321032000036,None,397.7321032000036,None,397.7321032000036,None,398.96123349999834,None,398.96123349999834,399.463502700004,,,,,,,,,,,,,,,,016,2022-05-12_13h50.57.137,FishGame,2022.1.1,60.00592858548096,
,17,넌 교활해,5,Orange,B,2.333333333333333,2.133333333333333,ScrollUp,ScrollDown,Orange.png,3,Negative,Congruent,,,,,0,0,0,0,,,,,,,,,,,,,,,,,,,,,0,16,16,16,,,,,,,,,,,,,,,,,,,,,,,,,,,,,,,,,,,,,,,,,,,,,,,,,,,,,,,,,,,,,,,,,,,,,,,,,1.6944444452722869,1.1777615000028163,400.087692699999,None,ScrollUp,정답입니다,400.087692699999,None,400.087692699999,None,400.087692699999,None,400.087692699999,None,401.1611886000028,None,401.1611886000028,401.6634492000012,,,,,,,,,,,,,,,,016,2022-05-12_13h50.57.137,FishGame,2022.1.1,60.00592858548096,
,18,나를 보내줘,6,Green,A,0,0,ScrollUp,ScrollDown,Green.png,3,NonTarget,NonTarget,,,,,0,0,0,0,,,,,,,,,,,,,,,,,,,,,0,17,17,17,,,,,,,,,,,,,,,,,,,,,,,,,,,,,,,,,,,,,,,,,,,,,,,,,,,,,,,,,,,,,,,,,,,,,,,,,1.766975313425064,1.279061699999147,402.280453899999,None,ScrollUp,정답입니다,402.280453899999,None,402.280453899999,None,402.280453899999,None,402.280453899999,None,403.463227799999,None,403.463227799999,403.9778080000033,,,,,,,,,,,,,,,,016,2022-05-12_13h50.57.137,FishGame,2022.1.1,60.00592858548096,
,19,넌 불친절해,5,Orange,B,2.208333333333333,2.033333333333333,ScrollUp,ScrollDown,Orange.png,3,Negative,Congruent,,,,,0,0,0,0,,,,,,,,,,,,,,,,,,,,,0,18,18,18,,,,,,,,,,,,,,,,,,,,,,,,,,,,,,,,,,,,,,,,,,,,,,,,,,,,,,,,,,,,,,,,,,,,,,,,,1.7067901194095612,1.0435616999966442,404.6085491999984,None,ScrollUp,정답입니다,404.6085491999984,None,404.6085491999984,None,404.6085491999984,None,404.6085491999984,None,405.5466035999998,None,405.5466035999998,406.0610852000027,,,,,,,,,,,,,,,,016,2022-05-12_13h50.57.137,FishGame,2022.1.1,60.00592858548096,
,20,넌 지적이야,2,Orange,B,5.75,4.366666666666666,ScrollUp,ScrollDown,Orange.png,3,Positive,Incongruent,,,,,0,0,0,0,,,,,,,,,,,,,,,,,,,,,0,19,19,19,,,,,,,,,,,,,,,,,,,,,,,,,,,,,,,,,,,,,,,,,,,,,,,,,,,,,,,,,,,,,,,,,,,,,,,,,1.7083333333333335,1.0964644000050612,406.68570570000156,None,ScrollUp,정답입니다,406.68570570000156,None,406.68570570000156,None,406.68570570000156,None,406.68570570000156,None,407.6797570999988,None,407.6797570999988,408.1776996999979,,,,,,,,,,,,,,,,016,2022-05-12_13h50.57.137,FishGame,2022.1.1,60.00592858548096,
,21,넌 우유부단해,4,Green,A,2.666666666666667,3.166666666666667,ScrollDown,ScrollUp,Green.png,3,Negative,Incongruent,,,,,0,0,0,0,,,,,,,,,,,,,,,,,,,,,0,20,20,20,,,,,,,,,,,,,,,,,,,,,,,,,,,,,,,,,,,,,,,,,,,,,,,,,,,,,,,,,,,,,,,,,,,,,,,,,1.1651234477758408,1.7132572999980766,408.81800649999786,None,ScrollDown,정답입니다,408.81800649999786,None,408.81800649999786,None,408.81800649999786,None,408.81800649999786,None,410.42974790000153,None,410.42974790000153,410.9298199000041,,,,,,,,,,,,,,,,016,2022-05-12_13h50.57.137,FishGame,2022.1.1,60.00592858548096,
,22,나를 데려가줘,6,Orange,B,0,0,ScrollDown,ScrollUp,Orange.png,3,NonTarget,NonTarget,,,,,0,0,0,0,,,,,,,,,,,,,,,,,,,,,0,21,21,21,,,,,,,,,,,,,,,,,,,,,,,,,,,,,,,,,,,,,,,,,,,,,,,,,,,,,,,,,,,,,,,,,,,,,,,,,1.1064814925193787,1.3106270000062068,411.5553135000009,None,ScrollDown,정답입니다,411.5553135000009,None,411.5553135000009,None,411.5553135000009,None,411.5553135000009,None,412.7608173999979,None,412.7608173999979,413.263025500004,,,,,,,,,,,,,,,,016,2022-05-12_13h50.57.137,FishGame,2022.1.1,60.00592858548096,
,23,넌 성실해,1,Orange,B,6.041666666666666,5.7,ScrollUp,ScrollDown,Orange.png,3,Positive,Incongruent,,,,,0,0,0,0,,,,,,,,,,,,,,,,,,,,,0,22,22,22,,,,,,,,,,,,,,,,,,,,,,,,,,,,,,,,,,,,,,,,,,,,,,,,,,,,,,,,,,,,,,,,,,,,,,,,,1.6219135771195092,1.1591384999992442,413.8862911000033,None,ScrollUp,정답입니다,413.8862911000033,None,413.8862911000033,None,413.8862911000033,None,413.8862911000033,None,414.9463367999997,None,414.9463367999997,415.44416920000367,,,,,,,,,,,,,,,,016,2022-05-12_13h50.57.137,FishGame,2022.1.1,60.00592858548096,
,24,넌 현실주의적이야,3,Green,A,4.625,4.4,ScrollDown,ScrollUp,Green.png,3,Neutral,Neutral,,,,,0,0,0,0,,,,,,,,,,,,,,,,,,,,,0,23,23,23,,,,,,,,,,,,,,,,,,,,,,,,,,,,,,,,,,,,,,,,,,,,,,,,,,,,,,,,,,,,,,,,,,,,,,,,,1.2206790000200272,1.3268349999998463,416.0888057999982,None,ScrollDown,정답입니다,416.0888057999982,None,416.0888057999982,None,416.0888057999982,None,416.0888057999982,None,417.3061480000033,None,417.3061480000033,417.8106254000013,,,,,,,,,,,,,,,,016,2022-05-12_13h50.57.137,FishGame,2022.1.1,60.00592858548096,
,25,넌 진실돼,1,Green,A,6.625,5.566666666666666,ScrollDown,ScrollUp,Green.png,3,Positive,Congruent,,,,,0,0,0,0,,,,,,,,,,,,,,,,,,,,,0,24,24,24,,,,,,,,,,,,,,,,,,,,,,,,,,,,,,,,,,,,,,,,,,,,,,,,,,,,,,,,,,,,,,,,,,,,,,,,,1.1250000099341075,1.0946935000029043,418.4324312000026,None,ScrollDown,정답입니다,418.4324312000026,None,418.4324312000026,None,418.4324312000026,None,418.4324312000026,None,419.42718030000106,None,419.42718030000106,419.9272817000019,,,,,,,,,,,,,,,,016,2022-05-12_13h50.57.137,FishGame,2022.1.1,60.00592858548096,
,26,넌 천진난만해,3,Orange,B,4.958333333333334,4.833333333333333,ScrollUp,ScrollDown,Orange.png,3,Neutral,Neutral,,,,,0,0,0,0,,,,,,,,,,,,,,,,,,,,,0,25,25,25,,,,,,,,,,,,,,,,,,,,,,,,,,,,,,,,,,,,,,,,,,,,,,,,,,,,,,,,,,,,,,,,,,,,,,,,,1.6404320945342383,1.2290801999988616,420.5547125000012,None,ScrollUp,정답입니다,420.5547125000012,None,420.5547125000012,None,420.5547125000012,None,420.5547125000012,None,421.6796656000006,None,421.6796656000006,422.1828699000034,,,,,,,,,,,,,,,,016,2022-05-12_13h50.57.137,FishGame,2022.1.1,60.00592858548096,
,27,넌 교양없어,5,Green,A,2.416666666666667,2.2,ScrollDown,ScrollUp,Green.png,3,Negative,Incongruent,,,,,0,0,0,0,,,,,,,,,,,,,,,,,,,,,0,26,26,26,,,,,,,,,,,,,,,,,,,,,,,,,,,,,,,,,,,,,,,,,,,,,,,,,,,,,,,,,,,,,,,,,,,,,,,,,1.2515432039896646,1.092177400001674,422.8012377999985,None,ScrollDown,정답입니다,422.8012377999985,None,422.8012377999985,None,422.8012377999985,None,422.8012377999985,None,423.79615300000296,None,423.79615300000296,424.31072629999835,,,,,,,,,,,,,,,,016,2022-05-12_13h50.57.137,FishGame,2022.1.1,60.00592858548096,
,28,나를 보내줘,6,Green,A,0,0,ScrollUp,ScrollDown,Green.png,3,NonTarget,NonTarget,,,,,0,0,0,0,,,,,,,,,,,,,,,,,,,,,0,27,27,27,,,,,,,,,,,,,,,,,,,,,,,,,,,,,,,,,,,,,,,,,,,,,,,,,,,,,,,,,,,,,,,,,,,,,,,,,1.5956790149211884,0.9304963999966276,424.9280335000003,None,ScrollUp,정답입니다,424.9280335000003,None,424.9280335000003,None,424.9280335000003,None,424.9280335000003,None,425.76068040000246,None,425.76068040000246,426.2628382999974,,,,,,,,,,,,,,,,016,2022-05-12_13h50.57.137,FishGame,2022.1.1,60.00592858548096,
,29,넌 엉뚱스러워,3,Green,A,4.166666666666667,4.133333333333334,ScrollDown,ScrollUp,Green.png,3,Neutral,Neutral,,,,,0,0,0,0,,,,,,,,,,,,,,,,,,,,,0,28,28,28,,,,,,,,,,,,,,,,,,,,,,,,,,,,,,,,,,,,,,,,,,,,,,,,,,,,,,,,,,,,,,,,,,,,,,,,,1.234567900498708,1.1278624999977183,426.89016229999834,None,ScrollDown,정답입니다,426.89016229999834,None,426.89016229999834,None,426.89016229999834,None,426.89016229999834,None,427.91056960000424,None,427.91056960000424,428.41088930000114,,,,,,,,,,,,,,,,016,2022-05-12_13h50.57.137,FishGame,2022.1.1,60.00592858548096,
,30,넌 무지해,4,Orange,B,2.541666666666667,3.066666666666667,ScrollUp,ScrollDown,Orange.png,3,Negative,Congruent,,,,,0,0,0,0,,,,,,,,,,,,,,,,,,,,,0,29,29,29,,,,,,,,,,,,,,,,,,,,,,,,,,,,,,,,,,,,,,,,,,,,,,,,,,,,,,,,,,,,,,,,,,,,,,,,,1.6682098706563315,1.0759069999985513,429.03733400000056,None,ScrollUp,정답입니다,429.03733400000056,None,429.03733400000056,None,429.03733400000056,None,429.03733400000056,None,430.0105651999984,None,430.0105651999984,430.51622569999745,,,,,,,,,,,,,,,,016,2022-05-12_13h50.57.137,FishGame,2022.1.1,60.00592858548096,
,31,넌 음울해,5,Orange,B,2.25,2.233333333333333,ScrollUp,ScrollDown,Orange.png,3,Negative,Congruent,,,,,0,0,0,0,,,,,,,,,,,,,,,,,,,,,0,30,30,30,,,,,,,,,,,,,,,,,,,,,,,,,,,,,,,,,,,,,,,,,,,,,,,,,,,,,,,,,,,,,,,,,,,,,,,,,1.7283950646718345,1.0460041999976966,431.14526209999894,None,ScrollUp,정답입니다,431.14526209999894,None,431.14526209999894,None,431.14526209999894,None,431.14526209999894,None,432.0771109999987,None,432.0771109999987,432.57724099999905,,,,,,,,,,,,,,,,016,2022-05-12_13h50.57.137,FishGame,2022.1.1,60.00592858548096,
,32,넌 냉소적이야,5,Green,A,2.916666666666667,2.4,ScrollDown,ScrollUp,Green.png,3,Negative,Incongruent,,,,,0,0,0,0,,,,,,,,,,,,,,,,,,,,,0,31,31,31,,,,,,,,,,,,,,,,,,,,,,,,,,,,,,,,,,,,,,,,,,,,,,,,,,,,,,,,,,,,,,,,,,,,,,,,,1.2222222139437993,1.047491600002104,433.1954429000034,None,ScrollDown,정답입니다,433.1954429000034,None,433.1954429000034,None,433.1954429000034,None,433.1954429000034,None,434.1440306000004,None,434.1440306000004,434.64385459999903,,,,,,,,,,,,,,,,016,2022-05-12_13h50.57.137,FishGame,2022.1.1,60.00592858548096,
,33,나를 데려가줘,6,Orange,B,0,0,ScrollDown,ScrollUp,Orange.png,3,NonTarget,NonTarget,,,,,0,0,0,0,,,,,,,,,,,,,,,,,,,,,0,32,32,32,,,,,,,,,,,,,,,,,,,,,,,,,,,,,,,,,,,,,,,,,,,,,,,,,,,,,,,,,,,,,,,,,,,,,,,,,1.2237654278675716,1.194545600003039,435.26690139999846,None,ScrollDown,정답입니다,435.26690139999846,None,435.26690139999846,None,435.26690139999846,None,435.26690139999846,None,436.3624806000007,None,436.3624806000007,436.8770941000039,,,,,,,,,,,,,,,,016,2022-05-12_13h50.57.137,FishGame,2022.1.1,60.00592858548096,
,34,넌 쾌활해,1,Green,A,5.541666666666666,5.733333333333333,ScrollDown,ScrollUp,Green.png,3,Positive,Congruent,,,,,0,0,0,0,,,,,,,,,,,,,,,,,,,,,0,33,33,33,,,,,,,,,,,,,,,,,,,,,,,,,,,,,,,,,,,,,,,,,,,,,,,,,,,,,,,,,,,,,,,,,,,,,,,,,1.2222222139437993,1.3609116999941762,437.4898616999999,None,ScrollDown,정답입니다,437.4898616999999,None,437.4898616999999,None,437.4898616999999,None,437.4898616999999,None,438.7437207999974,None,438.7437207999974,439.2459053999992,,,,,,,,,,,,,,,,016,2022-05-12_13h50.57.137,FishGame,2022.1.1,60.00592858548096,
,35,나를 보내줘,6,Green,A,0,0,ScrollUp,ScrollDown,Green.png,3,NonTarget,NonTarget,,,,,0,0,0,0,,,,,,,,,,,,,,,,,,,,,0,34,34,34,,,,,,,,,,,,,,,,,,,,,,,,,,,,,,,,,,,,,,,,,,,,,,,,,,,,,,,,,,,,,,,,,,,,,,,,,1.6003086442748704,1.1790791000021272,439.864802600001,None,ScrollUp,정답입니다,439.864802600001,None,439.864802600001,None,439.864802600001,None,439.864802600001,None,440.94334789999994,None,440.94334789999994,441.44344880000426,,,,,,,,,,,,,,,,016,2022-05-12_13h50.57.137,FishGame,2022.1.1,60.00592858548096,
,36,넌 명랑해,1,Orange,B,5.739130434782609,5.666666666666667,ScrollUp,ScrollDown,Orange.png,3,Positive,Incongruent,,,,,0,0,0,0,,,,,,,,,,,,,,,,,,,,,0,35,35,35,,,,,,,,,,,,,,,,,,,,,,,,,,,,,,,,,,,,,,,,,,,,,,,,,,,,,,,,,,,,,,,,,,,,,,,,,1.6280864203969636,1.3303461999967112,442.06932159999997,None,ScrollUp,정답입니다,442.06932159999997,None,442.06932159999997,None,442.06932159999997,None,442.06932159999997,None,443.2960557000042,None,443.2960557000042,443.79627269999764,,,,,,,,,,,,,,,,016,2022-05-12_13h50.57.137,FishGame,2022.1.1,60.00592858548096,
,37,넌 멍해,4,Green,A,2.833333333333333,3.4,ScrollDown,ScrollUp,Green.png,3,Negative,Incongruent,,,,,0,0,0,0,,,,,,,,,,,,,,,,,,,,,0,36,36,36,,,,,,,,,,,,,,,,,,,,,,,,,,,,,,,,,,,,,,,,,,,,,,,,,,,,,,,,,,,,,,,,,,,,,,,,,1.256172845760981,1.1474668000009842,444.4141266000006,None,ScrollDown,정답입니다,444.4141266000006,None,444.4141266000006,None,444.4141266000006,None,444.4141266000006,None,445.46019479999813,None,445.46019479999813,445.96241480000026,,,,,,,,,,,,,,,,016,2022-05-12_13h50.57.137,FishGame,2022.1.1,60.00592858548096,
,38,나를 데려가줘,6,Orange,B,0,0,ScrollDown,ScrollUp,Orange.png,3,NonTarget,NonTarget,,,,,0,0,0,0,,,,,,,,,,,,,,,,,,,,,0,37,37,37,,,,,,,,,,,,,,,,,,,,,,,,,,,,,,,,,,,,,,,,,,,,,,,,,,,,,,,,,,,,,,,,,,,,,,,,,1.2206790000200272,1.2130644000062603,446.5851341000016,None,ScrollDown,정답입니다,446.5851341000016,None,446.5851341000016,None,446.5851341000016,None,446.5851341000016,None,447.6935039000018,None,447.6935039000018,448.19357149999996,,,,,,,,,,,,,,,,016,2022-05-12_13h50.57.137,FishGame,2022.1.1,60.00592858548096,
,39,넌 현명해,2,Green,A,6.541666666666666,4.533333333333333,ScrollDown,ScrollUp,Green.png,3,Positive,Congruent,,,,,0,0,0,0,,,,,,,,,,,,,,,,,,,,,0,38,38,38,,,,,,,,,,,,,,,,,,,,,,,,,,,,,,,,,,,,,,,,,,,,,,,,,,,,,,,,,,,,,,,,,,,,,,,,,1.2361111144224803,1.1274317999996128,448.8191436999987,None,ScrollDown,정답입니다,448.8191436999987,None,448.8191436999987,None,448.8191436999987,None,448.8191436999987,None,449.84318450000137,None,449.84318450000137,450.3432518000045,,,,,,,,,,,,,,,,016,2022-05-12_13h50.57.137,FishGame,2022.1.1,60.00592858548096,
,40,넌 수줍어,3,Orange,B,3.541666666666666,4.366666666666666,ScrollUp,ScrollDown,Orange.png,3,Neutral,Neutral,,,,,0,0,0,0,,,,,,,,,,,,,,,,,,,,,0,39,39,39,,,,,,,,,,,,,,,,,,,,,,,,,,,,,,,,,,,,,,,,,,,,,,,,,,,,,,,,,,,,,,,,,,,,,,,,,1.5864197500050068,1.0967269999964628,450.96686469999986,None,ScrollUp,정답입니다,450.96686469999986,None,450.96686469999986,None,450.96686469999986,None,450.96686469999986,None,451.9623428999985,None,451.9623428999985,452.46240009999747,,,,,,,,,,,,,,,,016,2022-05-12_13h50.57.137,FishGame,2022.1.1,60.00592858548096,
,41,나를 데려가줘,6,Orange,B,0,0,ScrollDown,ScrollUp,Orange.png,3,NonTarget,NonTarget,,,,,0,0,0,0,,,,,,,,,,,,,,,,,,,,,0,40,40,40,,,,,,,,,,,,,,,,,,,,,,,,,,,,,,,,,,,,,,,,,,,,,,,,,,,,,,,,,,,,,,,,,,,,,,,,,1.2253086417913437,1.0126865000056569,453.0835461000024,None,ScrollDown,정답입니다,453.0835461000024,None,453.0835461000024,None,453.0835461000024,None,453.0835461000024,None,453.9955353000041,None,453.9955353000041,454.5100433999978,,,,,,,,,,,,,,,,016,2022-05-12_13h50.57.137,FishGame,2022.1.1,60.00592858548096,
,42,넌 성숙해,2,Orange,B,5.833333333333333,4.533333333333333,ScrollUp,ScrollDown,Orange.png,3,Positive,Incongruent,,,,,0,0,0,0,,,,,,,,,,,,,,,,,,,,,0,41,41,41,,,,,,,,,,,,,,,,,,,,,,,,,,,,,,,,,,,,,,,,,,,,,,,,,,,,,,,,,,,,,,,,,,,,,,,,,1.6157407462596893,1.208908300002804,455.1213601999989,None,ScrollUp,정답입니다,455.1213601999989,None,455.1213601999989,None,455.1213601999989,None,455.1213601999989,None,456.22925730000134,None,456.22925730000134,456.74343149999913,,,,,,,,,,,,,,,,016,2022-05-12_13h50.57.137,FishGame,2022.1.1,60.00592858548096,
,1,넌 매력적이야,2,Orange,B,6.125,4.666666666666667,ScrollUp,ScrollDown,Orange.png,4,Positive,Incongruent,,,,,0,0,0,0,,,,,,,,,,,,,,,,,,,,,,,,,0,0,0,0,,,,,,,,,,,,,,,,,,,,,,,,,,,,488.95936829999846,490.4617672000022,490.49301430000196,491.44299820000015,491.49519090000103,492.4593397999997,492.4428783999974,None,,,,,,,,,,,,,,,,,,,,,,,,,,,,,,,,,,1.5925925932824612,1.2686979999998584,493.552663800001,None,ScrollUp,정답입니다,493.552663800001,None,493.552663800001,None,493.552663800001,None,493.552663800001,None,494.7093146999978,None,494.7093146999978,495.2093070999981,457.2325678999987,None,457.2325678999987,None,0.050925925,-0.15092592,1,0,0,0.016440480001620017,None,487.2448616000038,None,,,016,2022-05-12_13h50.57.137,FishGame,2022.1.1,60.00592858548096,
,2,나를 보내줘,6,Green,A,0,0,ScrollUp,ScrollDown,Green.png,4,NonTarget,NonTarget,,,,,0,0,0,0,,,,,,,,,,,,,,,,,,,,,,,,,0,1,1,1,,,,,,,,,,,,,,,,,,,,,,,,,,,,,,,,,,,,,,,,,,,,,,,,,,,,,,,,,,,,,,,,,,,,,1.5972222226361432,0.9607020000039483,495.83102350000263,None,ScrollUp,정답입니다,495.83102350000263,None,495.83102350000263,None,495.83102350000263,None,495.83102350000263,None,496.69246759999805,None,496.69246759999805,497.19261070000357,,,,,,,,,,,,,,,,016,2022-05-12_13h50.57.137,FishGame,2022.1.1,60.00592858548096,
,3,넌 조심스러워,3,Green,A,4.791666666666666,4.666666666666667,ScrollDown,ScrollUp,Green.png,4,Neutral,Neutral,,,,,0,0,0,0,,,,,,,,,,,,,,,,,,,,,,,,,0,2,2,2,,,,,,,,,,,,,,,,,,,,,,,,,,,,,,,,,,,,,,,,,,,,,,,,,,,,,,,,,,,,,,,,,,,,,1.3302469154198966,0.875685799997882,497.8125602,None,ScrollDown,정답입니다,497.8125602,None,497.8125602,None,497.8125602,None,497.8125602,None,498.59471009999834,None,498.59471009999834,499.0947602000015,,,,,,,,,,,,,,,,016,2022-05-12_13h50.57.137,FishGame,2022.1.1,60.00592858548096,
,4,넌 철학적이야,3,Orange,B,4.5,4.266666666666667,ScrollUp,ScrollDown,Orange.png,4,Neutral,Neutral,,,,,0,0,0,0,,,,,,,,,,,,,,,,,,,,,,,,,0,3,3,3,,,,,,,,,,,,,,,,,,,,,,,,,,,,,,,,,,,,,,,,,,,,,,,,,,,,,,,,,,,,,,,,,,,,,1.5030864196984717,0.8753238999997848,499.7252662000028,None,NoResponse,무응답입니다,499.7252662000028,None,499.7252662000028,None,499.7252662000028,None,499.7252662000028,None,500.492382299999,None,500.492382299999,500.99251950000325,,,,,,,,,,,,,,,,016,2022-05-12_13h50.57.137,FishGame,2022.1.1,60.00592858548096,
,5,넌 쩨쩨해,5,Green,A,2.375,2.133333333333333,ScrollDown,ScrollUp,Green.png,4,Negative,Incongruent,,,,,0,0,0,0,,,,,,,,,,,,,,,,,,,,,,,,,0,4,4,4,,,,,,,,,,,,,,,,,,,,,,,,,,,,,,,,,,,,,,,,,,,,,,,,,,,,,,,,,,,,,,,,,,,,,1.2098765522241592,0.9461927000011201,501.6131458000018,None,ScrollDown,정답입니다,501.6131458000018,None,501.6131458000018,None,501.6131458000018,None,501.6131458000018,None,502.459113900004,None,502.459113900004,502.95908330000384,,,,,,,,,,,,,,,,016,2022-05-12_13h50.57.137,FishGame,2022.1.1,60.00592858548096,
,6,나를 데려가줘,6,Orange,B,0,0,ScrollDown,ScrollUp,Orange.png,4,NonTarget,NonTarget,,,,,0,0,0,0,,,,,,,,,,,,,,,,,,,,,,,,,0,5,5,5,,,,,,,,,,,,,,,,,,,,,,,,,,,,,,,,,,,,,,,,,,,,,,,,,,,,,,,,,,,,,,,,,,,,,1.140432099501292,1.1443809999982477,503.5855443000037,None,ScrollDown,정답입니다,503.5855443000037,None,503.5855443000037,None,503.5855443000037,None,503.5855443000037,None,504.6256171999994,None,504.6256171999994,505.1280226000017,,,,,,,,,,,,,,,,016,2022-05-12_13h50.57.137,FishGame,2022.1.1,60.00592858548096,
,7,넌 고집불통이야,5,Orange,B,2.875,2,ScrollUp,ScrollDown,Orange.png,4,Negative,Congruent,,,,,0,0,0,0,,,,,,,,,,,,,,,,,,,,,,,,,0,6,6,6,,,,,,,,,,,,,,,,,,,,,,,,,,,,,,,,,,,,,,,,,,,,,,,,,,,,,,,,,,,,,,,,,,,,,1.8873456766208012,1.1796318999986397,505.75796860000264,None,ScrollUp,정답입니다,505.75796860000264,None,505.75796860000264,None,505.75796860000264,None,505.75796860000264,None,506.82560370000283,None,506.82560370000283,507.3257386000041,,,,,,,,,,,,,,,,016,2022-05-12_13h50.57.137,FishGame,2022.1.1,60.00592858548096,
,8,넌 무심해,4,Green,A,2.875,3.2,ScrollDown,ScrollUp,Green.png,4,Negative,Incongruent,,,,,0,0,0,0,,,,,,,,,,,,,,,,,,,,,,,,,0,7,7,7,,,,,,,,,,,,,,,,,,,,,,,,,,,,,,,,,,,,,,,,,,,,,,,,,,,,,,,,,,,,,,,,,,,,,1.0864197611808777,0.9777394000047934,507.9469274000003,None,ScrollDown,정답입니다,507.9469274000003,None,507.9469274000003,None,507.9469274000003,None,507.9469274000003,None,508.8256066000031,None,508.8256066000031,509.3278430999999,,,,,,,,,,,,,,,,016,2022-05-12_13h50.57.137,FishGame,2022.1.1,60.00592858548096,
,9,넌 정겨워,1,Green,A,5.791666666666667,5.666666666666667,ScrollDown,ScrollUp,Green.png,4,Positive,Congruent,,,,,0,0,0,0,,,,,,,,,,,,,,,,,,,,,,,,,0,8,8,8,,,,,,,,,,,,,,,,,,,,,,,,,,,,,,,,,,,,,,,,,,,,,,,,,,,,,,,,,,,,,,,,,,,,,1.140432099501292,1.0441023000021232,509.951269600002,None,ScrollDown,정답입니다,509.951269600002,None,509.951269600002,None,509.951269600002,None,509.951269600002,None,510.89221050000197,None,510.89221050000197,511.3922406999991,,,,,,,,,,,,,,,,016,2022-05-12_13h50.57.137,FishGame,2022.1.1,60.00592858548096,
,10,나를 데려가줘,6,Orange,B,0,0,ScrollDown,ScrollUp,Orange.png,4,NonTarget,NonTarget,,,,,0,0,0,0,,,,,,,,,,,,,,,,,,,,,,,,,0,9,9,9,,,,,,,,,,,,,,,,,,,,,,,,,,,,,,,,,,,,,,,,,,,,,,,,,,,,,,,,,,,,,,,,,,,,,1.1836419651905696,0.9422701000003144,512.0182982000042,None,ScrollDown,정답입니다,512.0182982000042,None,512.0182982000042,None,512.0182982000042,None,512.0182982000042,None,512.8611029000022,None,512.8611029000022,513.3610162000041,,,,,,,,,,,,,,,,016,2022-05-12_13h50.57.137,FishGame,2022.1.1,60.00592858548096,
,11,넌 체제순응적이야,4,Orange,B,3,3.6,ScrollUp,ScrollDown,Orange.png,4,Negative,Congruent,,,,,0,0,0,0,,,,,,,,,,,,,,,,,,,,,,,,,0,10,10,10,,,,,,,,,,,,,,,,,,,,,,,,,,,,,,,,,,,,,,,,,,,,,,,,,,,,,,,,,,,,,,,,,,,,,1.7592592686414719,1.2009987999990699,513.9889354999978,None,ScrollUp,정답입니다,513.9889354999978,None,513.9889354999978,None,513.9889354999978,None,513.9889354999978,None,515.0871729999999,None,515.0871729999999,515.5919498000003,,,,,,,,,,,,,,,,016,2022-05-12_13h50.57.137,FishGame,2022.1.1,60.00592858548096,
,12,나를 보내줘,6,Green,A,0,0,ScrollUp,ScrollDown,Green.png,4,NonTarget,NonTarget,,,,,0,0,0,0,,,,,,,,,,,,,,,,,,,,,,,,,0,11,11,11,,,,,,,,,,,,,,,,,,,,,,,,,,,,,,,,,,,,,,,,,,,,,,,,,,,,,,,,,,,,,,,,,,,,,1.7530864129463832,1.1801217000029283,516.2095059999992,None,ScrollUp,정답입니다,516.2095059999992,None,516.2095059999992,None,516.2095059999992,None,516.2095059999992,None,517.2918752000041,None,517.2918752000041,517.7919235000008,,,,,,,,,,,,,,,,016,2022-05-12_13h50.57.137,FishGame,2022.1.1,60.00592858548096,
,13,넌 박식해,2,Green,A,5.625,3.933333333333333,ScrollDown,ScrollUp,Green.png,4,Positive,Congruent,,,,,0,0,0,0,,,,,,,,,,,,,,,,,,,,,,,,,0,12,12,12,,,,,,,,,,,,,,,,,,,,,,,,,,,,,,,,,,,,,,,,,,,,,,,,,,,,,,,,,,,,,,,,,,,,,1.1543209999799728,1.1652958000049694,518.413925599998,None,ScrollDown,정답입니다,518.413925599998,None,518.413925599998,None,518.413925599998,None,518.413925599998,None,519.4776826000016,None,519.4776826000016,519.9778282999978,,,,,,,,,,,,,,,,016,2022-05-12_13h50.57.137,FishGame,2022.1.1,60.00592858548096,
,14,나를 보내줘,6,Green,A,0,0,ScrollUp,ScrollDown,Green.png,4,NonTarget,NonTarget,,,,,0,0,0,0,,,,,,,,,,,,,,,,,,,,,,,,,0,13,13,13,,,,,,,,,,,,,,,,,,,,,,,,,,,,,,,,,,,,,,,,,,,,,,,,,,,,,,,,,,,,,,,,,,,,,1.6126543184121451,1.042075899997144,520.5943095000039,None,ScrollUp,정답입니다,520.5943095000039,None,520.5943095000039,None,520.5943095000039,None,520.5943095000039,None,521.5442191000038,None,521.5442191000038,522.060848699999,,,,,,,,,,,,,,,,016,2022-05-12_13h50.57.137,FishGame,2022.1.1,60.00592858548096,
,15,넌 침착해,1,Orange,B,5.458333333333333,5.566666666666666,ScrollUp,ScrollDown,Orange.png,4,Positive,Incongruent,,,,,0,0,0,0,,,,,,,,,,,,,,,,,,,,,,,,,0,14,14,14,,,,,,,,,,,,,,,,,,,,,,,,,,,,,,,,,,,,,,,,,,,,,,,,,,,,,,,,,,,,,,,,,,,,,1.799382706483205,1.341899300001387,522.6817628999997,None,ScrollUp,정답입니다,522.6817628999997,None,522.6817628999997,None,522.6817628999997,None,522.6817628999997,None,523.9083448000019,None,523.9083448000019,524.408413600002,,,,,,,,,,,,,,,,016,2022-05-12_13h50.57.137,FishGame,2022.1.1,60.00592858548096,
,16,나를 데려가줘,6,Orange,B,0,0,ScrollDown,ScrollUp,Orange.png,4,NonTarget,NonTarget,,,,,0,0,0,0,,,,,,,,,,,,,,,,,,,,,,,,,0,15,15,15,,,,,,,,,,,,,,,,,,,,,,,,,,,,,,,,,,,,,,,,,,,,,,,,,,,,,,,,,,,,,,,,,,,,,1.1774691343307495,0.9949045999965165,525.0388731999992,None,ScrollDown,정답입니다,525.0388731999992,None,525.0388731999992,None,525.0388731999992,None,525.0388731999992,None,525.9276267000023,None,525.9276267000023,526.4275830000042,,,,,,,,,,,,,,,,016,2022-05-12_13h50.57.137,FishGame,2022.1.1,60.00592858548096,
,17,넌 행복해,1,Green,A,6.416666666666666,6.166666666666667,ScrollDown,ScrollUp,Green.png,4,Positive,Congruent,,,,,0,0,0,0,,,,,,,,,,,,,,,,,,,,,,,,,0,16,16,16,,,,,,,,,,,,,,,,,,,,,,,,,,,,,,,,,,,,,,,,,,,,,,,,,,,,,,,,,,,,,,,,,,,,,1.2824074079593024,0.9937576000011177,527.0472788000043,None,ScrollDown,정답입니다,527.0472788000043,None,527.0472788000043,None,527.0472788000043,None,527.0472788000043,None,527.944127499999,None,527.944127499999,528.4441890000016,,,,,,,,,,,,,,,,016,2022-05-12_13h50.57.137,FishGame,2022.1.1,60.00592858548096,
,18,넌 겸손해,2,Orange,B,5.791666666666667,4.766666666666667,ScrollUp,ScrollDown,Orange.png,4,Positive,Incongruent,,,,,0,0,0,0,,,,,,,,,,,,,,,,,,,,,,,,,0,17,17,17,,,,,,,,,,,,,,,,,,,,,,,,,,,,,,,,,,,,,,,,,,,,,,,,,,,,,,,,,,,,,,,,,,,,,1.6651234552264214,1.1961011000021244,529.0669221999997,None,ScrollUp,정답입니다,529.0669221999997,None,529.0669221999997,None,529.0669221999997,None,529.0669221999997,None,530.1606373000031,None,530.1606373000031,530.660721100001,,,,,,,,,,,,,,,,016,2022-05-12_13h50.57.137,FishGame,2022.1.1,60.00592858548096,
,19,나를 보내줘,6,Green,A,0,0,ScrollUp,ScrollDown,Green.png,4,NonTarget,NonTarget,,,,,0,0,0,0,,,,,,,,,,,,,,,,,,,,,,,,,0,18,18,18,,,,,,,,,,,,,,,,,,,,,,,,,,,,,,,,,,,,,,,,,,,,,,,,,,,,,,,,,,,,,,,,,,,,,1.825617293516795,1.1425002000032691,531.2780199000044,None,ScrollUp,정답입니다,531.2780199000044,None,531.2780199000044,None,531.2780199000044,None,531.2780199000044,None,532.3250747999991,None,532.3250747999991,532.8272840999998,,,,,,,,,,,,,,,,016,2022-05-12_13h50.57.137,FishGame,2022.1.1,60.00592858548096,
,20,넌 의심없어,3,Green,A,4.166666666666667,4.6,ScrollDown,ScrollUp,Green.png,4,Neutral,Neutral,,,,,0,0,0,0,,,,,,,,,,,,,,,,,,,,,,,,,0,19,19,19,,,,,,,,,,,,,,,,,,,,,,,,,,,,,,,,,,,,,,,,,,,,,,,,,,,,,,,,,,,,,,,,,,,,,1.2314814726511638,1.0756681999991997,533.4465971000027,None,ScrollDown,정답입니다,533.4465971000027,None,533.4465971000027,None,533.4465971000027,None,533.4465971000027,None,534.4250826999996,None,534.4250826999996,534.9272581999976,,,,,,,,,,,,,,,,016,2022-05-12_13h50.57.137,FishGame,2022.1.1,60.00592858548096,
,21,넌 시시해,4,Green,A,2.666666666666667,2.966666666666667,ScrollDown,ScrollUp,Green.png,4,Negative,Incongruent,,,,,0,0,0,0,,,,,,,,,,,,,,,,,,,,,,,,,0,20,20,20,,,,,,,,,,,,,,,,,,,,,,,,,,,,,,,,,,,,,,,,,,,,,,,,,,,,,,,,,,,,,,,,,,,,,1.300925925374031,0.9922571999995853,535.5480973000012,None,ScrollDown,정답입니다,535.5480973000012,None,535.5480973000012,None,535.5480973000012,None,535.5480973000012,None,536.4417468000029,None,536.4417468000029,536.9417238000024,,,,,,,,,,,,,,,,016,2022-05-12_13h50.57.137,FishGame,2022.1.1,60.00592858548096,
,22,나를 데려가줘,6,Orange,B,0,0,ScrollDown,ScrollUp,Orange.png,4,NonTarget,NonTarget,,,,,0,0,0,0,,,,,,,,,,,,,,,,,,,,,,,,,0,21,21,21,,,,,,,,,,,,,,,,,,,,,,,,,,,,,,,,,,,,,,,,,,,,,,,,,,,,,,,,,,,,,,,,,,,,,1.2901234527428946,1.0624074000006658,537.5624653999985,None,ScrollDown,정답입니다,537.5624653999985,None,537.5624653999985,None,537.5624653999985,None,537.5624653999985,None,538.5249298999988,None,538.5249298999988,539.0250493999993,,,,,,,,,,,,,,,,016,2022-05-12_13h50.57.137,FishGame,2022.1.1,60.00592858548096,
,23,넌 무정해,5,Green,A,2.5,2.2,ScrollDown,ScrollUp,Green.png,4,Negative,Incongruent,,,,,0,0,0,0,,,,,,,,,,,,,,,,,,,,,,,,,0,22,22,22,,,,,,,,,,,,,,,,,,,,,,,,,,,,,,,,,,,,,,,,,,,,,,,,,,,,,,,,,,,,,,,,,,,,,1.2037036965290706,1.2107287000035285,539.6450096999979,None,ScrollDown,정답입니다,539.6450096999979,None,539.6450096999979,None,539.6450096999979,None,539.6450096999979,None,540.7582696000027,None,540.7582696000027,541.2586096000014,,,,,,,,,,,,,,,,016,2022-05-12_13h50.57.137,FishGame,2022.1.1,60.00592858548096,
,24,넌 긍정적이야,1,Orange,B,6.041666666666667,6.066666666666666,ScrollUp,ScrollDown,Orange.png,4,Positive,Incongruent,,,,,0,0,0,0,,,,,,,,,,,,,,,,,,,,,,,,,0,23,23,23,,,,,,,,,,,,,,,,,,,,,,,,,,,,,,,,,,,,,,,,,,,,,,,,,,,,,,,,,,,,,,,,,,,,,1.6157407462596893,1.0946489999987534,541.891229300003,None,ScrollUp,정답입니다,541.891229300003,None,541.891229300003,None,541.891229300003,None,541.891229300003,None,542.877032000004,None,542.877032000004,543.3916192000033,,,,,,,,,,,,,,,,016,2022-05-12_13h50.57.137,FishGame,2022.1.1,60.00592858548096,
,25,나를 보내줘,6,Green,A,0,0,ScrollUp,ScrollDown,Green.png,4,NonTarget,NonTarget,,,,,0,0,0,0,,,,,,,,,,,,,,,,,,,,,,,,,0,24,24,24,,,,,,,,,,,,,,,,,,,,,,,,,,,,,,,,,,,,,,,,,,,,,,,,,,,,,,,,,,,,,,,,,,,,,1.7592592686414719,1.0773164999991423,543.9943992000044,None,ScrollUp,정답입니다,543.9943992000044,None,543.9943992000044,None,543.9943992000044,None,543.9943992000044,None,544.9748637000012,None,544.9748637000012,545.4771727999978,,,,,,,,,,,,,,,,016,2022-05-12_13h50.57.137,FishGame,2022.1.1,60.00592858548096,
,26,넌 시기심이 많아,5,Orange,B,2.458333333333333,2.233333333333333,ScrollUp,ScrollDown,Orange.png,4,Negative,Congruent,,,,,0,0,0,0,,,,,,,,,,,,,,,,,,,,,,,,,0,25,25,25,,,,,,,,,,,,,,,,,,,,,,,,,,,,,,,,,,,,,,,,,,,,,,,,,,,,,,,,,,,,,,,,,,,,,1.7391975373029709,1.0772687999997288,546.1062445999996,None,ScrollUp,정답입니다,546.1062445999996,None,546.1062445999996,None,546.1062445999996,None,546.1062445999996,None,547.0769285999995,None,547.0769285999995,547.5770744000038,,,,,,,,,,,,,,,,016,2022-05-12_13h50.57.137,FishGame,2022.1.1,60.00592858548096,
,27,넌 탁월해,2,Green,A,5.708333333333334,4.5,ScrollDown,ScrollUp,Green.png,4,Positive,Congruent,,,,,0,0,0,0,,,,,,,,,,,,,,,,,,,,,,,,,0,26,26,26,,,,,,,,,,,,,,,,,,,,,,,,,,,,,,,,,,,,,,,,,,,,,,,,,,,,,,,,,,,,,,,,,,,,,1.212962955236435,1.0443971999993664,548.2152483000027,None,ScrollDown,정답입니다,548.2152483000027,None,548.2152483000027,None,548.2152483000027,None,548.2152483000027,None,549.1581157000037,None,549.1581157000037,549.6581625000035,,,,,,,,,,,,,,,,016,2022-05-12_13h50.57.137,FishGame,2022.1.1,60.00592858548096,
,28,나를 데려가줘,6,Orange,B,0,0,ScrollDown,ScrollUp,Orange.png,4,NonTarget,NonTarget,,,,,0,0,0,0,,,,,,,,,,,,,,,,,,,,,,,,,0,27,27,27,,,,,,,,,,,,,,,,,,,,,,,,,,,,,,,,,,,,,,,,,,,,,,,,,,,,,,,,,,,,,,,,,,,,,1.2422839452823002,1.0560504000022775,550.2807152000023,None,ScrollDown,정답입니다,550.2807152000023,None,550.2807152000023,None,550.2807152000023,None,550.2807152000023,None,551.236782,None,551.236782,551.7411906999987,,,,,,,,,,,,,,,,016,2022-05-12_13h50.57.137,FishGame,2022.1.1,60.00592858548096,
,29,넌 조용해,3,Orange,B,4.333333333333333,4.166666666666667,ScrollUp,ScrollDown,Orange.png,4,Neutral,Neutral,,,,,0,0,0,0,,,,,,,,,,,,,,,,,,,,,,,,,0,28,28,28,,,,,,,,,,,,,,,,,,,,,,,,,,,,,,,,,,,,,,,,,,,,,,,,,,,,,,,,,,,,,,,,,,,,,1.6867284004886947,1.311542900002678,552.3690322000039,None,ScrollUp,정답입니다,552.3690322000039,None,552.3690322000039,None,552.3690322000039,None,552.3690322000039,None,553.5744704000026,None,553.5744704000026,554.0770774999983,,,,,,,,,,,,,,,,016,2022-05-12_13h50.57.137,FishGame,2022.1.1,60.00592858548096,
,30,넌 다정해,1,Green,A,5.833333333333334,5.7,ScrollDown,ScrollUp,Green.png,4,Positive,Congruent,,,,,0,0,0,0,,,,,,,,,,,,,,,,,,,,,,,,,0,29,29,29,,,,,,,,,,,,,,,,,,,,,,,,,,,,,,,,,,,,,,,,,,,,,,,,,,,,,,,,,,,,,,,,,,,,,1.3395061741272607,0.9477749999932712,554.6934688000038,None,ScrollDown,정답입니다,554.6934688000038,None,554.6934688000038,None,554.6934688000038,None,554.6934688000038,None,555.5436046000032,None,555.5436046000032,556.043626300001,,,,,,,,,,,,,,,,016,2022-05-12_13h50.57.137,FishGame,2022.1.1,60.00592858548096,
,31,넌 능력있어,2,Orange,B,6.166666666666666,4.6,ScrollUp,ScrollDown,Orange.png,4,Positive,Incongruent,,,,,0,0,0,0,,,,,,,,,,,,,,,,,,,,,,,,,0,30,30,30,,,,,,,,,,,,,,,,,,,,,,,,,,,,,,,,,,,,,,,,,,,,,,,,,,,,,,,,,,,,,,,,,,,,,1.6512345671653748,1.1278533000004245,556.6659101000041,None,ScrollUp,정답입니다,556.6659101000041,None,556.6659101000041,None,556.6659101000041,None,556.6659101000041,None,557.6912550999987,None,557.6912550999987,558.1914238000027,,,,,,,,,,,,,,,,016,2022-05-12_13h50.57.137,FishGame,2022.1.1,60.00592858548096,
,32,넌 불쾌해,5,Green,A,2.125,1.933333333333333,ScrollDown,ScrollUp,Green.png,4,Negative,Incongruent,,,,,0,0,0,0,,,,,,,,,,,,,,,,,,,,,,,,,0,31,31,31,,,,,,,,,,,,,,,,,,,,,,,,,,,,,,,,,,,,,,,,,,,,,,,,,,,,,,,,,,,,,,,,,,,,,1.233024686574936,0.9945239000007859,558.8166060000003,None,ScrollDown,정답입니다,558.8166060000003,None,558.8166060000003,None,558.8166060000003,None,558.8166060000003,None,559.7079213000034,None,559.7079213000034,560.2100805000009,,,,,,,,,,,,,,,,016,2022-05-12_13h50.57.137,FishGame,2022.1.1,60.00592858548096,
,33,나를 데려가줘,6,Orange,B,0,0,ScrollDown,ScrollUp,Orange.png,4,NonTarget,NonTarget,,,,,0,0,0,0,,,,,,,,,,,,,,,,,,,,,,,,,0,32,32,32,,,,,,,,,,,,,,,,,,,,,,,,,,,,,,,,,,,,,,,,,,,,,,,,,,,,,,,,,,,,,,,,,,,,,1.2854938358068466,1.1630158000043593,560.8275278000001,None,ScrollDown,정답입니다,560.8275278000001,None,560.8275278000001,None,560.8275278000001,None,560.8275278000001,None,561.8933558999997,None,561.8933558999997,562.4082190000045,,,,,,,,,,,,,,,,016,2022-05-12_13h50.57.137,FishGame,2022.1.1,60.00592858548096,
,34,넌 유순해,3,Green,A,4.458333333333333,5,ScrollDown,ScrollUp,Green.png,4,Neutral,Neutral,,,,,0,0,0,0,,,,,,,,,,,,,,,,,,,,,,,,,0,33,33,33,,,,,,,,,,,,,,,,,,,,,,,,,,,,,,,,,,,,,,,,,,,,,,,,,,,,,,,,,,,,,,,,,,,,,1.253086417913437,1.0417192000022624,563.012671000004,None,ScrollDown,정답입니다,563.012671000004,None,563.012671000004,None,563.012671000004,None,563.012671000004,None,563.9575392000042,None,563.9575392000042,564.4575976999986,,,,,,,,,,,,,,,,016,2022-05-12_13h50.57.137,FishGame,2022.1.1,60.00592858548096,
,35,넌 근심스러워,4,Orange,B,2.708333333333333,3.133333333333333,ScrollUp,ScrollDown,Orange.png,4,Negative,Congruent,,,,,0,0,0,0,,,,,,,,,,,,,,,,,,,,,,,,,0,34,34,34,,,,,,,,,,,,,,,,,,,,,,,,,,,,,,,,,,,,,,,,,,,,,,,,,,,,,,,,,,,,,,,,,,,,,1.8132716069618862,0.9459225999962655,565.0774786999973,None,ScrollUp,정답입니다,565.0774786999973,None,565.0774786999973,None,565.0774786999973,None,565.0774786999973,None,565.9242114000008,None,565.9242114000008,566.4242808999988,,,,,,,,,,,,,,,,016,2022-05-12_13h50.57.137,FishGame,2022.1.1,60.00592858548096,
,36,넌 세련되었어,2,Green,A,5.5,4.6,ScrollDown,ScrollUp,Green.png,4,Positive,Congruent,,,,,0,0,0,0,,,,,,,,,,,,,,,,,,,,,,,,,0,35,35,35,,,,,,,,,,,,,,,,,,,,,,,,,,,,,,,,,,,,,,,,,,,,,,,,,,,,,,,,,,,,,,,,,,,,,1.2777777661879859,0.996526900002209,567.0525696999975,None,ScrollDown,정답입니다,567.0525696999975,None,567.0525696999975,None,567.0525696999975,None,567.0525696999975,None,567.9433610999986,None,567.9433610999986,568.4410513999974,,,,,,,,,,,,,,,,016,2022-05-12_13h50.57.137,FishGame,2022.1.1,60.00592858548096,
,37,나를 보내줘,6,Green,A,0,0,ScrollUp,ScrollDown,Green.png,4,NonTarget,NonTarget,,,,,0,0,0,0,,,,,,,,,,,,,,,,,,,,,,,,,0,36,36,36,,,,,,,,,,,,,,,,,,,,,,,,,,,,,,,,,,,,,,,,,,,,,,,,,,,,,,,,,,,,,,,,,,,,,1.6666666691501937,0.9965780999991694,569.0751260000034,None,ScrollUp,정답입니다,569.0751260000034,None,569.0751260000034,None,569.0751260000034,None,569.0751260000034,None,569.9743452000039,None,569.9743452000039,570.476577100002,,,,,,,,,,,,,,,,016,2022-05-12_13h50.57.137,FishGame,2022.1.1,60.00592858548096,
,38,넌 확고해,3,Orange,B,4.708333333333334,4.566666666666666,ScrollUp,ScrollDown,Orange.png,4,Neutral,Neutral,,,,,0,0,0,0,,,,,,,,,,,,,,,,,,,,,,,,,0,37,37,37,,,,,,,,,,,,,,,,,,,,,,,,,,,,,,,,,,,,,,,,,,,,,,,,,,,,,,,,,,,,,,,,,,,,,1.904320980111758,1.0253691999969305,571.1070362000028,None,ScrollUp,정답입니다,571.1070362000028,None,571.1070362000028,None,571.1070362000028,None,571.1070362000028,None,572.0242884000036,None,572.0242884000036,572.526512000004,,,,,,,,,,,,,,,,016,2022-05-12_13h50.57.137,FishGame,2022.1.1,60.00592858548096,
,39,넌 이해심이 많아,1,Orange,B,6.041666666666668,5.533333333333333,ScrollUp,ScrollDown,Orange.png,4,Positive,Incongruent,,,,,0,0,0,0,,,,,,,,,,,,,,,,,,,,,,,,,0,38,38,38,,,,,,,,,,,,,,,,,,,,,,,,,,,,,,,,,,,,,,,,,,,,,,,,,,,,,,,,,,,,,,,,,,,,,1.6820987711350122,1.0777244999990216,573.1442330999998,None,ScrollUp,정답입니다,573.1442330999998,None,573.1442330999998,None,573.1442330999998,None,573.1442330999998,None,574.1264416999984,None,574.1264416999984,574.6265273000026,,,,,,,,,,,,,,,,016,2022-05-12_13h50.57.137,FishGame,2022.1.1,60.00592858548096,
,40,나를 보내줘,6,Green,A,0,0,ScrollUp,ScrollDown,Green.png,4,NonTarget,NonTarget,,,,,0,0,0,0,,,,,,,,,,,,,,,,,,,,,,,,,0,39,39,39,,,,,,,,,,,,,,,,,,,,,,,,,,,,,,,,,,,,,,,,,,,,,,,,,,,,,,,,,,,,,,,,,,,,,1.663580241302649,1.0762286999961361,575.2438709999988,None,ScrollUp,정답입니다,575.2438709999988,None,575.2438709999988,None,575.2438709999988,None,575.2438709999988,None,576.2263340999998,None,576.2263340999998,576.7242468999975,,,,,,,,,,,,,,,,016,2022-05-12_13h50.57.137,FishGame,2022.1.1,60.00592858548096,
,41,넌 거칠어,4,Green,A,2.625,3.033333333333333,ScrollDown,ScrollUp,Green.png,4,Negative,Incongruent,,,,,0,0,0,0,,,,,,,,,,,,,,,,,,,,,,,,,0,40,40,40,,,,,,,,,,,,,,,,,,,,,,,,,,,,,,,,,,,,,,,,,,,,,,,,,,,,,,,,,,,,,,,,,,,,,1.2592592487732568,1.1604949999964447,577.3595121000035,None,ScrollDown,정답입니다,577.3595121000035,None,577.3595121000035,None,577.3595121000035,None,577.3595121000035,None,578.4264459000042,None,578.4264459000042,578.9430804000003,,,,,,,,,,,,,,,,016,2022-05-12_13h50.57.137,FishGame,2022.1.1,60.00592858548096,
,42,넌 변덕맞아,5,Orange,B,2.75,2.166666666666667,ScrollUp,ScrollDown,Orange.png,4,Negative,Congruent,,,,,0,0,0,0,,,,,,,,,,,,,,,,,,,,,,,,,0,41,41,41,,,,,,,,,,,,,,,,,,,,,,,,,,,,,,,,,,,,,,,,,,,,,,,,,,,,,,,,,,,,,,,,,,,,,1.6805555572112403,1.2425079000022379,579.5674169999984,None,ScrollUp,정답입니다,579.5674169999984,None,579.5674169999984,None,579.5674169999984,None,579.5674169999984,None,580.7097009999998,None,580.7097009999998,581.2097790000043,,,,,,,,,,,,,,,,016,2022-05-12_13h50.57.137,FishGame,2022.1.1,60.00592858548096,
,43,나를 데려가줘,6,Orange,B,0,0,ScrollDown,ScrollUp,Orange.png,4,NonTarget,NonTarget,,,,,0,0,0,0,,,,,,,,,,,,,,,,,,,,,,,,,0,42,42,42,,,,,,,,,,,,,,,,,,,,,,,,,,,,,,,,,,,,,,,,,,,,,,,,,,,,,,,,,,,,,,,,,,,,,1.0617283880710602,1.4776094000044395,581.835852199998,None,ScrollDown,정답입니다,581.835852199998,None,581.835852199998,None,581.835852199998,None,581.835852199998,None,583.2074611999997,None,583.2074611999997,583.709631800004,,,,,,,,,,,,,,,,016,2022-05-12_13h50.57.137,FishGame,2022.1.1,60.00592858548096,
,44,넌 외로워,4,Orange,B,2.833333333333333,3.3,ScrollUp,ScrollDown,Orange.png,4,Negative,Congruent,,,,,0,0,0,0,,,,,,,,,,,,,,,,,,,,,,,,,0,43,43,43,,,,,,,,,,,,,,,,,,,,,,,,,,,,,,,,,,,,,,,,,,,,,,,,,,,,,,,,,,,,,,,,,,,,,1.6311728358268738,1.160773599993263,584.3317416999998,None,ScrollUp,정답입니다,584.3317416999998,None,584.3317416999998,None,584.3317416999998,None,584.3317416999998,None,585.3906086999996,None,585.3906086999996,585.8907269999982,,,,,,,,,,,,,,,,016,2022-05-12_13h50.57.137,FishGame,2022.1.1,60.00592858548096,
,1,넌 불평스러워,5,Green,A,2.25,2.066666666666667,ScrollDown,ScrollUp,Green.png,5,Negative,Incongruent,,,,,0,0,0,0,,,,,,,,,,,,,,,,,,,,,,,,,,,,,0,0,0,0,,,,,,,,,,,,,,,,,,,,,,,,617.5567983000001,619.0566638000018,619.0900403999985,620.0406701000029,620.0924787999975,621.0569794000039,621.0402495000017,None,,,,,,,,,,,,,,,,,,,,,,,,,,,,,,,,,,1.1280864129463832,1.0632920999996713,622.1413796999987,None,ScrollDown,정답입니다,622.1413796999987,None,622.1413796999987,None,622.1413796999987,None,622.1413796999987,None,623.1066120000032,None,623.1066120000032,623.6088887000005,586.3907590000017,None,586.3907590000017,None,0.13611111,-0.15925926,1,0,0,0.01626877999660792,None,616.3905365000028,None,,,016,2022-05-12_13h50.57.137,FishGame,2022.1.1,60.00592858548096,
,2,나를 보내줘,6,Green,A,0,0,ScrollUp,ScrollDown,Green.png,5,NonTarget,NonTarget,,,,,0,0,0,0,,,,,,,,,,,,,,,,,,,,,,,,,,,,,0,1,1,1,,,,,,,,,,,,,,,,,,,,,,,,,,,,,,,,,,,,,,,,,,,,,,,,,,,,,,,,,,,,,,,,,1.6219135771195092,0.9946842999997898,624.2259941000011,None,ScrollUp,정답입니다,624.2259941000011,None,624.2259941000011,None,624.2259941000011,None,624.2259941000011,None,625.1253378000038,None,625.1253378000038,625.6420681000018,,,,,,,,,,,,,,,,016,2022-05-12_13h50.57.137,FishGame,2022.1.1,60.00592858548096,
,3,넌 다재다능해,2,Orange,B,6.208333333333333,4.5,ScrollUp,ScrollDown,Orange.png,5,Positive,Incongruent,,,,,0,0,0,0,,,,,,,,,,,,,,,,,,,,,,,,,,,,,0,2,2,2,,,,,,,,,,,,,,,,,,,,,,,,,,,,,,,,,,,,,,,,,,,,,,,,,,,,,,,,,,,,,,,,,1.6388888930281005,0.8717830000023241,626.243166100001,None,ScrollUp,정답입니다,626.243166100001,None,626.243166100001,None,626.243166100001,None,626.243166100001,None,627.0065428000016,None,627.0065428000016,627.5086974000005,,,,,,,,,,,,,,,,016,2022-05-12_13h50.57.137,FishGame,2022.1.1,60.00592858548096,
,4,넌 과감해,3,Green,A,4.833333333333334,4.6,ScrollDown,ScrollUp,Green.png,5,Neutral,Neutral,,,,,0,0,0,0,,,,,,,,,,,,,,,,,,,,,,,,,,,,,0,3,3,3,,,,,,,,,,,,,,,,,,,,,,,,,,,,,,,,,,,,,,,,,,,,,,,,,,,,,,,,,,,,,,,,,1.2407407313585281,1.0275727999978699,628.1272000000026,None,ScrollDown,정답입니다,628.1272000000026,None,628.1272000000026,None,628.1272000000026,None,628.1272000000026,None,629.0565153999996,None,629.0565153999996,629.5566050999987,,,,,,,,,,,,,,,,016,2022-05-12_13h50.57.137,FishGame,2022.1.1,60.00592858548096,
,5,넌 고분고분해,3,Orange,B,3.75,4.033333333333333,ScrollUp,ScrollDown,Orange.png,5,Neutral,Neutral,,,,,0,0,0,0,,,,,,,,,,,,,,,,,,,,,,,,,,,,,0,4,4,4,,,,,,,,,,,,,,,,,,,,,,,,,,,,,,,,,,,,,,,,,,,,,,,,,,,,,,,,,,,,,,,,,1.6712962985038757,1.0302522999991197,630.1858097000004,None,ScrollUp,정답입니다,630.1858097000004,None,630.1858097000004,None,630.1858097000004,None,630.1858097000004,None,631.1086786000014,None,631.1086786000014,631.6253582999998,,,,,,,,,,,,,,,,016,2022-05-12_13h50.57.137,FishGame,2022.1.1,60.00592858548096,
,6,나를 보내줘,6,Green,A,0,0,ScrollUp,ScrollDown,Green.png,5,NonTarget,NonTarget,,,,,0,0,0,0,,,,,,,,,,,,,,,,,,,,,,,,,,,,,0,5,5,5,,,,,,,,,,,,,,,,,,,,,,,,,,,,,,,,,,,,,,,,,,,,,,,,,,,,,,,,,,,,,,,,,1.6419753084580102,1.14399979999871,632.2488757000028,None,ScrollUp,정답입니다,632.2488757000028,None,632.2488757000028,None,632.2488757000028,None,632.2488757000028,None,633.2894684999992,None,633.2894684999992,633.7895212000003,,,,,,,,,,,,,,,,016,2022-05-12_13h50.57.137,FishGame,2022.1.1,60.00592858548096,
,7,넌 잘 잊어,4,Green,A,3,3.7,ScrollDown,ScrollUp,Green.png,5,Negative,Incongruent,,,,,0,0,0,0,,,,,,,,,,,,,,,,,,,,,,,,,,,,,0,6,6,6,,,,,,,,,,,,,,,,,,,,,,,,,,,,,,,,,,,,,,,,,,,,,,,,,,,,,,,,,,,,,,,,,1.248456800977389,1.0449379999990924,634.4139066999996,None,ScrollDown,정답입니다,634.4139066999996,None,634.4139066999996,None,634.4139066999996,None,634.4139066999996,None,635.3586719000014,None,635.3586719000014,635.858727400002,,,,,,,,,,,,,,,,016,2022-05-12_13h50.57.137,FishGame,2022.1.1,60.00592858548096,
,8,넌 탐구심이없어,4,Orange,B,2.833333333333333,3.066666666666667,ScrollUp,ScrollDown,Orange.png,5,Negative,Congruent,,,,,0,0,0,0,,,,,,,,,,,,,,,,,,,,,,,,,,,,,0,7,7,7,,,,,,,,,,,,,,,,,,,,,,,,,,,,,,,,,,,,,,,,,,,,,,,,,,,,,,,,,,,,,,,,,1.6558641965190568,1.06393310000567,636.4780963000012,None,ScrollUp,정답입니다,636.4780963000012,None,636.4780963000012,None,636.4780963000012,None,636.4780963000012,None,637.4418422000017,None,637.4418422000017,637.9585933999988,,,,,,,,,,,,,,,,016,2022-05-12_13h50.57.137,FishGame,2022.1.1,60.00592858548096,
,9,나를 데려가줘,6,Orange,B,0,0,ScrollDown,ScrollUp,Orange.png,5,NonTarget,NonTarget,,,,,0,0,0,0,,,,,,,,,,,,,,,,,,,,,,,,,,,,,0,8,8,8,,,,,,,,,,,,,,,,,,,,,,,,,,,,,,,,,,,,,,,,,,,,,,,,,,,,,,,,,,,,,,,,,1.2052469104528427,1.1947236999985762,638.5597173999995,None,ScrollDown,정답입니다,638.5597173999995,None,638.5597173999995,None,638.5597173999995,None,638.5597173999995,None,639.6563003999981,None,639.6563003999981,640.1621092999994,,,,,,,,,,,,,,,,016,2022-05-12_13h50.57.137,FishGame,2022.1.1,60.00592858548096,
,10,넌 참되어,2,Green,A,6.041666666666664,4.733333333333333,ScrollDown,ScrollUp,Green.png,5,Positive,Congruent,,,,,0,0,0,0,,,,,,,,,,,,,,,,,,,,,,,,,,,,,0,9,9,9,,,,,,,,,,,,,,,,,,,,,,,,,,,,,,,,,,,,,,,,,,,,,,,,,,,,,,,,,,,,,,,,,1.1959876517454784,1.0297176000021864,640.7860228999998,None,ScrollDown,정답입니다,640.7860228999998,None,640.7860228999998,None,640.7860228999998,None,640.7860228999998,None,641.7083144999997,None,641.7083144999997,642.2229579999985,,,,,,,,,,,,,,,,016,2022-05-12_13h50.57.137,FishGame,2022.1.1,60.00592858548096,
,11,넌 생기있어,1,Orange,B,5.875,5.633333333333334,ScrollUp,ScrollDown,Orange.png,5,Positive,Incongruent,,,,,0,0,0,0,,,,,,,,,,,,,,,,,,,,,,,,,,,,,0,10,10,10,,,,,,,,,,,,,,,,,,,,,,,,,,,,,,,,,,,,,,,,,,,,,,,,,,,,,,,,,,,,,,,,,1.6712962985038757,1.0772540000034496,642.8332813000015,None,ScrollUp,정답입니다,642.8332813000015,None,642.8332813000015,None,642.8332813000015,None,642.8332813000015,None,643.8083404999998,None,643.8083404999998,644.3083602999977,,,,,,,,,,,,,,,,016,2022-05-12_13h50.57.137,FishGame,2022.1.1,60.00592858548096,
,12,넌 비사교적이야,4,Orange,B,2.875,2.9,ScrollUp,ScrollDown,Orange.png,5,Negative,Congruent,,,,,0,0,0,0,,,,,,,,,,,,,,,,,,,,,,,,,,,,,0,11,11,11,,,,,,,,,,,,,,,,,,,,,,,,,,,,,,,,,,,,,,,,,,,,,,,,,,,,,,,,,,,,,,,,,1.5138888896132507,1.0113866999963648,644.9344817000019,None,NoResponse,무응답입니다,644.9344817000019,None,644.9344817000019,None,644.9344817000019,None,644.9344817000019,None,645.8392319999984,None,645.8392319999984,646.3392834000042,,,,,,,,,,,,,,,,016,2022-05-12_13h50.57.137,FishGame,2022.1.1,60.00592858548096,
,13,나를 데려가줘,6,Orange,B,0,0,ScrollDown,ScrollUp,Orange.png,5,NonTarget,NonTarget,,,,,0,0,0,0,,,,,,,,,,,,,,,,,,,,,,,,,,,,,0,12,12,12,,,,,,,,,,,,,,,,,,,,,,,,,,,,,,,,,,,,,,,,,,,,,,,,,,,,,,,,,,,,,,,,,1.214506169160207,1.4324780000024475,646.9597801999989,None,ScrollDown,정답입니다,646.9597801999989,None,646.9597801999989,None,646.9597801999989,None,646.9597801999989,None,648.2918325999999,None,648.2918325999999,648.7917329999982,,,,,,,,,,,,,,,,016,2022-05-12_13h50.57.137,FishGame,2022.1.1,60.00592858548096,
,14,넌 고독해,4,Green,A,2.916666666666667,3.233333333333333,ScrollDown,ScrollUp,Green.png,5,Negative,Incongruent,,,,,0,0,0,0,,,,,,,,,,,,,,,,,,,,,,,,,,,,,0,13,13,13,,,,,,,,,,,,,,,,,,,,,,,,,,,,,,,,,,,,,,,,,,,,,,,,,,,,,,,,,,,,,,,,,1.300925925374031,1.2923152000003029,649.4105531000023,None,ScrollDown,정답입니다,649.4105531000023,None,649.4105531000023,None,649.4105531000023,None,649.4105531000023,None,650.6064436000015,None,650.6064436000015,651.1061198000025,,,,,,,,,,,,,,,,016,2022-05-12_13h50.57.137,FishGame,2022.1.1,60.00592858548096,
,15,넌 신경질적이야,5,Orange,B,2.375,2.233333333333333,ScrollUp,ScrollDown,Orange.png,5,Negative,Congruent,,,,,0,0,0,0,,,,,,,,,,,,,,,,,,,,,,,,,,,,,0,14,14,14,,,,,,,,,,,,,,,,,,,,,,,,,,,,,,,,,,,,,,,,,,,,,,,,,,,,,,,,,,,,,,,,,1.5740740758677325,0.9607557999988785,651.7319170999981,None,ScrollUp,정답입니다,651.7319170999981,None,651.7319170999981,None,651.7319170999981,None,651.7319170999981,None,652.5915059000035,None,652.5915059000035,653.089430699998,,,,,,,,,,,,,,,,016,2022-05-12_13h50.57.137,FishGame,2022.1.1,60.00592858548096,
,16,넌 똑똑해,2,Orange,B,5.666666666666667,3.966666666666667,ScrollUp,ScrollDown,Orange.png,5,Positive,Incongruent,,,,,0,0,0,0,,,,,,,,,,,,,,,,,,,,,,,,,,,,,0,15,15,15,,,,,,,,,,,,,,,,,,,,,,,,,,,,,,,,,,,,,,,,,,,,,,,,,,,,,,,,,,,,,,,,,1.5972222226361432,1.260576000000583,653.7138965999984,None,ScrollUp,정답입니다,653.7138965999984,None,653.7138965999984,None,653.7138965999984,None,653.7138965999984,None,654.8725800000029,None,654.8725800000029,655.3726505000013,,,,,,,,,,,,,,,,016,2022-05-12_13h50.57.137,FishGame,2022.1.1,60.00592858548096,
,17,나를 보내줘,6,Green,A,0,0,ScrollUp,ScrollDown,Green.png,5,NonTarget,NonTarget,,,,,0,0,0,0,,,,,,,,,,,,,,,,,,,,,,,,,,,,,0,16,16,16,,,,,,,,,,,,,,,,,,,,,,,,,,,,,,,,,,,,,,,,,,,,,,,,,,,,,,,,,,,,,,,,,1.6975308607021966,1.2463053000028594,655.9905264000045,None,ScrollUp,정답입니다,655.9905264000045,None,655.9905264000045,None,655.9905264000045,None,655.9905264000045,None,657.1392553999976,None,657.1392553999976,657.6414680000016,,,,,,,,,,,,,,,,016,2022-05-12_13h50.57.137,FishGame,2022.1.1,60.00592858548096,
,18,넌 협조적이야,1,Green,A,5.625,5.666666666666667,ScrollDown,ScrollUp,Green.png,5,Positive,Congruent,,,,,0,0,0,0,,,,,,,,,,,,,,,,,,,,,,,,,,,,,0,17,17,17,,,,,,,,,,,,,,,,,,,,,,,,,,,,,,,,,,,,,,,,,,,,,,,,,,,,,,,,,,,,,,,,,1.2746913631757102,1.026629400003003,658.2622117999999,None,ScrollDown,정답입니다,658.2622117999999,None,658.2622117999999,None,658.2622117999999,None,658.2622117999999,None,659.1892431000015,None,659.1892431000015,659.6892186000041,,,,,,,,,,,,,,,,016,2022-05-12_13h50.57.137,FishGame,2022.1.1,60.00592858548096,
,19,나를 데려가줘,6,Orange,B,0,0,ScrollDown,ScrollUp,Orange.png,5,NonTarget,NonTarget,,,,,0,0,0,0,,,,,,,,,,,,,,,,,,,,,,,,,,,,,0,18,18,18,,,,,,,,,,,,,,,,,,,,,,,,,,,,,,,,,,,,,,,,,,,,,,,,,,,,,,,,,,,,,,,,,1.200617293516795,1.2593351999967126,660.3107722999994,None,ScrollDown,정답입니다,660.3107722999994,None,660.3107722999994,None,660.3107722999994,None,660.3107722999994,None,661.4725366999992,None,661.4725366999992,661.9747272000022,,,,,,,,,,,,,,,,016,2022-05-12_13h50.57.137,FishGame,2022.1.1,60.00592858548096,
,20,넌 몰인정해,5,Orange,B,2.541666666666667,2.066666666666667,ScrollUp,ScrollDown,Orange.png,5,Negative,Congruent,,,,,0,0,0,0,,,,,,,,,,,,,,,,,,,,,,,,,,,,,0,19,19,19,,,,,,,,,,,,,,,,,,,,,,,,,,,,,,,,,,,,,,,,,,,,,,,,,,,,,,,,,,,,,,,,,1.6250000049670539,1.112902099994244,662.5934724000035,None,ScrollUp,정답입니다,662.5934724000035,None,662.5934724000035,None,662.5934724000035,None,662.5934724000035,None,663.6080044999981,None,663.6080044999981,664.1224524999998,,,,,,,,,,,,,,,,016,2022-05-12_13h50.57.137,FishGame,2022.1.1,60.00592858548096,
,21,나를 데려가줘,6,Orange,B,0,0,ScrollDown,ScrollUp,Orange.png,5,NonTarget,NonTarget,,,,,0,0,0,0,,,,,,,,,,,,,,,,,,,,,,,,,,,,,0,20,20,20,,,,,,,,,,,,,,,,,,,,,,,,,,,,,,,,,,,,,,,,,,,,,,,,,,,,,,,,,,,,,,,,,1.3086419701576233,0.9590623000040068,664.7475732000021,None,ScrollDown,정답입니다,664.7475732000021,None,664.7475732000021,None,664.7475732000021,None,664.7475732000021,None,665.6057586000024,None,665.6057586000024,666.1079371000014,,,,,,,,,,,,,,,,016,2022-05-12_13h50.57.137,FishGame,2022.1.1,60.00592858548096,
