name,TrialNum,Word,WordCategory,FishType,WordList,WordValence,WordReputation,CorrectResp,IncorrectResp,FishTypeFile,Round,WordType,Condition,LoopforOrange.thisRepN,LoopforOrange.thisTrialN,LoopforOrange.thisN,LoopforOrange.thisIndex,OrangeInstLoop.thisRepN,OrangeInstLoop.thisTrialN,OrangeInstLoop.thisN,OrangeInstLoop.thisIndex,OrangePrac.thisRepN,OrangePrac.thisTrialN,OrangePrac.thisN,OrangePrac.thisIndex,temp1.thisRepN,temp1.thisTrialN,temp1.thisN,temp1.thisIndex,OrangeRound1.thisRepN,OrangeRound1.thisTrialN,OrangeRound1.thisN,OrangeRound1.thisIndex,OrangeRound2.thisRepN,OrangeRound2.thisTrialN,OrangeRound2.thisN,OrangeRound2.thisIndex,OrangeRound3.thisRepN,OrangeRound3.thisTrialN,OrangeRound3.thisN,OrangeRound3.thisIndex,OrangeRound4.thisRepN,OrangeRound4.thisTrialN,OrangeRound4.thisN,OrangeRound4.thisIndex,OrangeRound5.thisRepN,OrangeRound5.thisTrialN,OrangeRound5.thisN,OrangeRound5.thisIndex,LoopForGreen.thisRepN,LoopForGreen.thisTrialN,LoopForGreen.thisN,LoopForGreen.thisIndex,text_2.started,text_2.stopped,text_3.started,text_3.stopped,key_resp.keys,key_resp.rt,key_resp.started,key_resp.stopped,PassI_2.started,PassI_2.stopped,PassInst_2.keys,PassInst_2.rt,PassInst_2.started,PassInst_2.stopped,mouse_2.x,mouse_2.y,mouse_2.leftButton,mouse_2.midButton,mouse_2.rightButton,mouse_2.started,mouse_2.stopped,image.started,image.stopped,text_5.started,text_5.stopped,text_6.started,text_6.stopped,text_7.started,text_7.stopped,text_8.started,text_8.stopped,slider_2.response,slider_2.rt,slider_2.started,slider_2.stopped,Response_2,Feedback_2,BackGround_2.started,BackGround_2.stopped,Fish_2.started,Fish_2.stopped,WordBox_2.started,WordBox_2.stopped,Words_2.started,Words_2.stopped,BackGround_Feedback_2.started,BackGround_Feedback_2.stopped,Feedbacks_2.started,Feedbacks_2.stopped,Continue_or_not.keys,Continue_or_not.rt,Continue_or_not.started,Continue_or_not.stopped,image_3.started,image_3.stopped,mouse_3.x,mouse_3.y,mouse_3.leftButton,mouse_3.midButton,mouse_3.rightButton,mouse_3.started,mouse_3.stopped,startmain.started,startmain.stopped,slider.response,slider.rt,slider.started,slider.stopped,Response,Feedback,BackGround.started,BackGround.stopped,Fish.started,Fish.stopped,WordBox.started,WordBox.stopped,Words.started,Words.stopped,BackGround_Feedback.started,BackGround_Feedback.stopped,Feedbacks.started,Feedbacks.stopped,text.started,text.stopped,break_interval.started,break_interval.stopped,mouse.x,mouse.y,mouse.leftButton,mouse.midButton,mouse.rightButton,mouse.started,mouse.stopped,stratnextround.started,stratnextround.stopped,endgame.started,endgame.stopped,participant,date,expName,psychopyVersion,frameRate,
,,,,,,,,,,,,,,,,,,,,,,,,,,,,,,,,,,,,,,,,,,,,,,,,,,,,,,17.574909700007993,None,17.574909700007993,None,space,0.8503186000016285,18.060177300008945,None,,,,,,,,,,,,,,,,,,,,,,,,,,,,,,,,,,,,,,,,,,,,,,,,,,,,,,,,,,,,,,,,,,,,,,,,,,,,,,,,,,,,,,,,,,017,2022-05-12_18h19.13.347,FishGame,2022.1.1,61.14304476303544,
물고기과제_instruction(참가자용)OrangeVersion.mp4,,,,,,,,,,,,,,0,0,0,0,0,0,0,0,,,,,,,,,,,,,,,,,,,,,,,,,,,,,,,,,,,,,,,,,89.89446300000418,None,n,1.6247597000037786,89.89446300000418,None,,,,,,,,,,,,,,,,,,,,,,,,,,,,,,,,,,,,,,,,,,,,,,,,,,,,,,,,,,,,,,,,,,,,,,,,,,,,,,,,,,,,017,2022-05-12_18h19.13.347,FishGame,2022.1.1,61.14304476303544,
,1,넌 교활해,5,Green,B,2.333333333333333,2.133333333333333,ScrollUp,ScrollDown,Green.png,practice,,,0,0,0,0,,,,,0,0,0,0,0,0,0,0,,,,,,,,,,,,,,,,,,,,,,,,,,,,,,,,,,,,,,,0.125,-0.25,1,0,0,0.5128821800171863,None,91.54187800000363,None,96.16382230000454,97.67767180000374,97.69203109999944,98.6443869000068,98.69438539999828,99.64194950000092,99.64194950000092,None,1.8641975422700245,1.9600977999944007,100.93001470000308,None,ScrollUp,정답입니다,100.93001470000308,None,100.93001470000308,None,100.93001470000308,None,100.93001470000308,None,102.59191210000427,None,102.59191210000427,103.0940888000041,,,,,,,,,,,,,,,,,,,,,,,,,,,,,,,,,,,,,,,,,,,,,,,,,017,2022-05-12_18h19.13.347,FishGame,2022.1.1,61.14304476303544,
,2,넌 슬기로워,2,Orange,A,6.166666666666667,4.1,ScrollDown,ScrollUp,Orange.png,practice,,,0,0,0,0,,,,,0,0,0,0,0,1,1,1,,,,,,,,,,,,,,,,,,,,,,,,,,,,,,,,,,,,,,,,,,,,,,,,,,,,,,,,1,1.410693400001037,103.71676910000679,None,ScrollDown,정답입니다,103.71676910000679,None,103.71676910000679,None,103.71676910000679,None,103.71676910000679,None,105.02516210000613,None,105.02516210000613,105.52735770000436,,,,,,,,,,,,,,,,,,,,,,,,,,,,,,,,,,,,,,,,,,,,,,,,,017,2022-05-12_18h19.13.347,FishGame,2022.1.1,61.14304476303544,
,3,나를 보내줘,6,Orange,A,0,0,ScrollUp,ScrollDown,Orange.png,practice,,,0,0,0,0,,,,,0,0,0,0,0,2,2,2,,,,,,,,,,,,,,,,,,,,,,,,,,,,,,,,,,,,,,,,,,,,,,,,,,,,,,,,1.8935185074806213,1.1771095000003697,106.15750910001225,None,ScrollUp,정답입니다,106.15750910001225,None,106.15750910001225,None,106.15750910001225,None,106.15750910001225,None,107.22480720000749,None,107.22480720000749,107.72487620000902,,,,,,,,,,,,,,,,,,,,,,,,,,,,,,,,,,,,,,,,,,,,,,,,,017,2022-05-12_18h19.13.347,FishGame,2022.1.1,61.14304476303544,
,4,나를 데려가줘,6,Green,B,0,0,ScrollDown,ScrollUp,Green.png,practice,,,0,0,0,0,,,,,0,0,0,0,0,3,3,3,,,,,,,,,,,,,,,,,,,,,,,,,,,,,,,,,,,,,,,,,,,,,,,,,,,,,,,,1.0756172637144725,1.3466787999932421,108.34578600000532,None,ScrollDown,정답입니다,108.34578600000532,None,108.34578600000532,None,108.34578600000532,None,108.34578600000532,None,109.59403810001095,None,109.59403810001095,110.0940602000046,,,,,,,,,,,,,,,,,,,,,,,,,,,,,,,,,,,,,,,,,,,,,,,,,017,2022-05-12_18h19.13.347,FishGame,2022.1.1,61.14304476303544,
,1,넌 교활해,5,Green,B,2.333333333333333,2.133333333333333,ScrollUp,ScrollDown,Green.png,practice,,,0,0,0,0,,,,,0,0,0,0,,,,,,,,,,,,,,,,,,,,,,,,,,,,,,,,,,,,,,,,,,,,,,,,,,,,,,,,,,,,,,,,,,,,,,,,,,,,,,n,5.964175000000978,110.59403380000731,None,110.59403380000731,None,,,,,,,,,,,,,,,,,,,,,,,,,,,,,,,,,,,,,,,,,,,017,2022-05-12_18h19.13.347,FishGame,2022.1.1,61.14304476303544,
,1,넌 따뜻해,1,Green,B,6.083333333333333,5.6,ScrollUp,ScrollDown,Green.png,1,Positive,Incongruent,0,0,0,0,,,,,,,,,,,,,0,0,0,0,,,,,,,,,,,,,,,,,,,,,,,,,,,,,,,,,,,,,,,,,,,,118.22712370000954,119.72730730001058,119.76055890000134,120.71052370000689,120.7605334000109,121.72510000001057,121.70814690001134,None,,,,,,,,,,,,,,,,,,,,,,,,,-0.027777778,-0.14074074,1,0,0,0.3136720799957402,None,116.57492500000808,None,1.560185187806686,1.6580401999963215,122.99950830001035,None,ScrollUp,정답입니다,122.99950830001035,None,122.99950830001035,None,122.99950830001035,None,122.99950830001035,None,124.35810870000569,None,124.35810870000569,124.85808720000205,,,,,,,,,,,,,,,,017,2022-05-12_18h19.13.347,FishGame,2022.1.1,61.14304476303544,
,2,넌 기품있어,2,Green,B,5.791666666666668,4.5,ScrollUp,ScrollDown,Green.png,1,Positive,Incongruent,0,0,0,0,,,,,,,,,,,,,0,1,1,1,,,,,,,,,,,,,,,,,,,,,,,,,,,,,,,,,,,,,,,,,,,,,,,,,,,,,,,,,,,,,,,,,,,,,,,,,,,,,,,,,,,,,1.7175925920406976,1.2626242999976967,125.48992900000303,None,ScrollUp,정답입니다,125.48992900000303,None,125.48992900000303,None,125.48992900000303,None,125.48992900000303,None,126.64135600000736,None,126.64135600000736,127.1414744000067,,,,,,,,,,,,,,,,017,2022-05-12_18h19.13.347,FishGame,2022.1.1,61.14304476303544,
,3,나를 보내줘,6,Orange,A,0,0,ScrollUp,ScrollDown,Orange.png,1,NonTarget,NonTarget,0,0,0,0,,,,,,,,,,,,,0,2,2,2,,,,,,,,,,,,,,,,,,,,,,,,,,,,,,,,,,,,,,,,,,,,,,,,,,,,,,,,,,,,,,,,,,,,,,,,,,,,,,,,,,,,,1.7746913582086563,1.0939026000123704,127.76983720000135,None,ScrollUp,정답입니다,127.76983720000135,None,127.76983720000135,None,127.76983720000135,None,127.76983720000135,None,128.76027050000266,None,128.76027050000266,129.27468400000362,,,,,,,,,,,,,,,,017,2022-05-12_18h19.13.347,FishGame,2022.1.1,61.14304476303544,
,4,넌 수동적이야,4,Orange,A,2.833333333333333,2.933333333333333,ScrollDown,ScrollUp,Orange.png,1,Negative,Incongruent,0,0,0,0,,,,,,,,,,,,,0,3,3,3,,,,,,,,,,,,,,,,,,,,,,,,,,,,,,,,,,,,,,,,,,,,,,,,,,,,,,,,,,,,,,,,,,,,,,,,,,,,,,,,,,,,,1.2206790000200272,1.1615408000070602,129.8866987000074,None,ScrollDown,정답입니다,129.8866987000074,None,129.8866987000074,None,129.8866987000074,None,129.8866987000074,None,130.94136310000613,None,130.94136310000613,131.44342140000663,,,,,,,,,,,,,,,,017,2022-05-12_18h19.13.347,FishGame,2022.1.1,61.14304476303544,
,5,넌 사심이 없어,3,Green,B,4.916666666666666,4.333333333333333,ScrollUp,ScrollDown,Green.png,1,Neutral,Neutral,0,0,0,0,,,,,,,,,,,,,0,4,4,4,,,,,,,,,,,,,,,,,,,,,,,,,,,,,,,,,,,,,,,,,,,,,,,,,,,,,,,,,,,,,,,,,,,,,,,,,,,,,,,,,,,,,1.8425925970077515,1.2796694999997271,132.06657170000835,None,ScrollUp,정답입니다,132.06657170000835,None,132.06657170000835,None,132.06657170000835,None,132.06657170000835,None,133.24122540000826,None,133.24122540000826,133.74350940001023,,,,,,,,,,,,,,,,017,2022-05-12_18h19.13.347,FishGame,2022.1.1,61.14304476303544,
,6,넌 헤퍼,5,Orange,A,2.458333333333334,2.233333333333333,ScrollDown,ScrollUp,Orange.png,1,Negative,Incongruent,0,0,0,0,,,,,,,,,,,,,0,5,5,5,,,,,,,,,,,,,,,,,,,,,,,,,,,,,,,,,,,,,,,,,,,,,,,,,,,,,,,,,,,,,,,,,,,,,,,,,,,,,,,,,,,,,1.0787036915620167,1.1255682000046363,134.3663957000099,None,ScrollDown,정답입니다,134.3663957000099,None,134.3663957000099,None,134.3663957000099,None,134.3663957000099,None,135.39113230000657,None,135.39113230000657,135.89341270001023,,,,,,,,,,,,,,,,017,2022-05-12_18h19.13.347,FishGame,2022.1.1,61.14304476303544,
,7,넌 말쑥해,3,Orange,A,4.833333333333334,4.333333333333333,ScrollDown,ScrollUp,Orange.png,1,Neutral,Neutral,0,0,0,0,,,,,,,,,,,,,0,6,6,6,,,,,,,,,,,,,,,,,,,,,,,,,,,,,,,,,,,,,,,,,,,,,,,,,,,,,,,,,,,,,,,,,,,,,,,,,,,,,,,,,,,,,1.0339506367842357,1.0806034999986878,136.52285580000898,None,ScrollDown,정답입니다,136.52285580000898,None,136.52285580000898,None,136.52285580000898,None,136.52285580000898,None,137.49335150000115,None,137.49335150000115,137.99340830001165,,,,,,,,,,,,,,,,017,2022-05-12_18h19.13.347,FishGame,2022.1.1,61.14304476303544,
,8,넌 투덜거려,5,Green,B,2.541666666666667,2.266666666666667,ScrollUp,ScrollDown,Green.png,1,Negative,Congruent,0,0,0,0,,,,,,,,,,,,,0,7,7,7,,,,,,,,,,,,,,,,,,,,,,,,,,,,,,,,,,,,,,,,,,,,,,,,,,,,,,,,,,,,,,,,,,,,,,,,,,,,,,,,,,,,,1,1.2422361000062665,138.61431670001184,None,ScrollDown,오답입니다,138.61431670001184,None,138.61431670001184,None,138.61431670001184,None,138.61431670001184,None,139.75316269999894,None,139.75316269999894,140.25756199999887,,,,,,,,,,,,,,,,017,2022-05-12_18h19.13.347,FishGame,2022.1.1,61.14304476303544,
,9,넌 적극적이야,1,Orange,A,5.708333333333333,5.533333333333333,ScrollDown,ScrollUp,Orange.png,1,Positive,Congruent,0,0,0,0,,,,,,,,,,,,,0,8,8,8,,,,,,,,,,,,,,,,,,,,,,,,,,,,,,,,,,,,,,,,,,,,,,,,,,,,,,,,,,,,,,,,,,,,,,,,,,,,,,,,,,,,,1.180555562178294,1.0942785999941407,140.88243030000012,None,ScrollDown,정답입니다,140.88243030000012,None,140.88243030000012,None,140.88243030000012,None,140.88243030000012,None,141.87416340000345,None,141.87416340000345,142.37422910000896,,,,,,,,,,,,,,,,017,2022-05-12_18h19.13.347,FishGame,2022.1.1,61.14304476303544,
,10,넌 재미없어,4,Green,B,2.625,2.966666666666667,ScrollUp,ScrollDown,Green.png,1,Negative,Congruent,0,0,0,0,,,,,,,,,,,,,0,9,9,9,,,,,,,,,,,,,,,,,,,,,,,,,,,,,,,,,,,,,,,,,,,,,,,,,,,,,,,,,,,,,,,,,,,,,,,,,,,,,,,,,,,,,1.7685185273488362,1.027717200006009,143.00033460000122,None,ScrollUp,정답입니다,143.00033460000122,None,143.00033460000122,None,143.00033460000122,None,143.00033460000122,None,143.92665160000615,None,143.92665160000615,144.426667000007,,,,,,,,,,,,,,,,017,2022-05-12_18h19.13.347,FishGame,2022.1.1,61.14304476303544,
,11,넌 명석해,2,Orange,A,5.875,4.033333333333333,ScrollDown,ScrollUp,Orange.png,1,Positive,Congruent,0,0,0,0,,,,,,,,,,,,,0,10,10,10,,,,,,,,,,,,,,,,,,,,,,,,,,,,,,,,,,,,,,,,,,,,,,,,,,,,,,,,,,,,,,,,,,,,,,,,,,,,,,,,,,,,,1.1373456716537476,0.9977032999886433,145.04528520000167,None,ScrollDown,정답입니다,145.04528520000167,None,145.04528520000167,None,145.04528520000167,None,145.04528520000167,None,145.94098020000092,None,145.94098020000092,146.4412699000095,,,,,,,,,,,,,,,,017,2022-05-12_18h19.13.347,FishGame,2022.1.1,61.14304476303544,
,12,나를 데려가줘,6,Green,B,0,0,ScrollDown,ScrollUp,Green.png,1,NonTarget,NonTarget,0,0,0,0,,,,,,,,,,,,,0,11,11,11,,,,,,,,,,,,,,,,,,,,,,,,,,,,,,,,,,,,,,,,,,,,,,,,,,,,,,,,,,,,,,,,,,,,,,,,,,,,,,,,,,,,,1.0756172637144725,1.1609238000091864,147.0655279000057,None,ScrollDown,정답입니다,147.0655279000057,None,147.0655279000057,None,147.0655279000057,None,147.0655279000057,None,148.12431650000508,None,148.12431650000508,148.6249123000016,,,,,,,,,,,,,,,,017,2022-05-12_18h19.13.347,FishGame,2022.1.1,61.14304476303544,
,13,넌 소심해,4,Orange,A,3,3.1,ScrollDown,ScrollUp,Orange.png,1,Negative,Incongruent,0,0,0,0,,,,,,,,,,,,,0,12,12,12,,,,,,,,,,,,,,,,,,,,,,,,,,,,,,,,,,,,,,,,,,,,,,,,,,,,,,,,,,,,,,,,,,,,,,,,,,,,,,,,,,,,,1.1697530895471573,1.1114937999955146,149.24586100000306,None,ScrollDown,정답입니다,149.24586100000306,None,149.24586100000306,None,149.24586100000306,None,149.24586100000306,None,150.25987190000887,None,150.25987190000887,150.7598652000015,,,,,,,,,,,,,,,,017,2022-05-12_18h19.13.347,FishGame,2022.1.1,61.14304476303544,
,14,넌 합리적이야,2,Orange,A,5.583333333333333,4.733333333333333,ScrollDown,ScrollUp,Orange.png,1,Positive,Congruent,0,0,0,0,,,,,,,,,,,,,0,13,13,13,,,,,,,,,,,,,,,,,,,,,,,,,,,,,,,,,,,,,,,,,,,,,,,,,,,,,,,,,,,,,,,,,,,,,,,,,,,,,,,,,,,,,1.1759259204069774,1.1436492999928305,151.38475710000785,None,ScrollDown,정답입니다,151.38475710000785,None,151.38475710000785,None,151.38475710000785,None,151.38475710000785,None,152.4241871000122,None,152.4241871000122,152.92422070000612,,,,,,,,,,,,,,,,017,2022-05-12_18h19.13.347,FishGame,2022.1.1,61.14304476303544,
,15,넌 무자비해,5,Green,B,2.333333333333333,2.1,ScrollUp,ScrollDown,Green.png,1,Negative,Congruent,0,0,0,0,,,,,,,,,,,,,0,14,14,14,,,,,,,,,,,,,,,,,,,,,,,,,,,,,,,,,,,,,,,,,,,,,,,,,,,,,,,,,,,,,,,,,,,,,,,,,,,,,,,,,,,,,1.7098765472571054,1.2895558000018355,153.54902050000965,None,ScrollUp,정답입니다,153.54902050000965,None,153.54902050000965,None,153.54902050000965,None,153.54902050000965,None,154.736175500002,None,154.736175500002,155.24295320000965,,,,,,,,,,,,,,,,017,2022-05-12_18h19.13.347,FishGame,2022.1.1,61.14304476303544,
,16,나를 보내줘,6,Orange,A,0,0,ScrollUp,ScrollDown,Orange.png,1,NonTarget,NonTarget,0,0,0,0,,,,,,,,,,,,,0,15,15,15,,,,,,,,,,,,,,,,,,,,,,,,,,,,,,,,,,,,,,,,,,,,,,,,,,,,,,,,,,,,,,,,,,,,,,,,,,,,,,,,,,,,,1.825617293516795,1.1942089999938617,155.86050730000716,None,ScrollUp,정답입니다,155.86050730000716,None,155.86050730000716,None,155.86050730000716,None,155.86050730000716,None,156.95957190000627,None,156.95957190000627,157.45958439999959,,,,,,,,,,,,,,,,017,2022-05-12_18h19.13.347,FishGame,2022.1.1,61.14304476303544,
,17,넌 현실적이야,3,Green,B,4.608695652173913,4.766666666666667,ScrollUp,ScrollDown,Green.png,1,Neutral,Neutral,0,0,0,0,,,,,,,,,,,,,0,16,16,16,,,,,,,,,,,,,,,,,,,,,,,,,,,,,,,,,,,,,,,,,,,,,,,,,,,,,,,,,,,,,,,,,,,,,,,,,,,,,,,,,,,,,1.7978395173947017,1.263298499994562,158.0949443999998,None,ScrollUp,정답입니다,158.0949443999998,None,158.0949443999998,None,158.0949443999998,None,158.0949443999998,None,159.25737350000418,None,159.25737350000418,159.75972739999997,,,,,,,,,,,,,,,,017,2022-05-12_18h19.13.347,FishGame,2022.1.1,61.14304476303544,
,18,넌 의리있어,1,Green,B,5.833333333333334,5.633333333333334,ScrollUp,ScrollDown,Green.png,1,Positive,Incongruent,0,0,0,0,,,,,,,,,,,,,0,17,17,17,,,,,,,,,,,,,,,,,,,,,,,,,,,,,,,,,,,,,,,,,,,,,,,,,,,,,,,,,,,,,,,,,,,,,,,,,,,,,,,,,,,,,1.5308641977608204,1.1434442000027047,160.38641520000238,None,NoResponse,무응답입니다,160.38641520000238,None,160.38641520000238,None,160.38641520000238,None,160.38641520000238,None,161.4237201000069,None,161.4237201000069,161.92376879999938,,,,,,,,,,,,,,,,017,2022-05-12_18h19.13.347,FishGame,2022.1.1,61.14304476303544,
,19,넌 신경과민이야,5,Orange,A,2.541666666666667,2.166666666666667,ScrollDown,ScrollUp,Orange.png,1,Negative,Incongruent,0,0,0,0,,,,,,,,,,,,,0,18,18,18,,,,,,,,,,,,,,,,,,,,,,,,,,,,,,,,,,,,,,,,,,,,,,,,,,,,,,,,,,,,,,,,,,,,,,,,,,,,,,,,,,,,,1.0972222338120143,1.165423099999316,162.55156920000445,None,ScrollDown,정답입니다,162.55156920000445,None,162.55156920000445,None,162.55156920000445,None,162.55156920000445,None,163.6096183000045,None,163.6096183000045,164.10959459999867,,,,,,,,,,,,,,,,017,2022-05-12_18h19.13.347,FishGame,2022.1.1,61.14304476303544,
,20,넌 편안해,1,Orange,A,5.916666666666666,5.866666666666666,ScrollDown,ScrollUp,Orange.png,1,Positive,Congruent,0,0,0,0,,,,,,,,,,,,,0,19,19,19,,,,,,,,,,,,,,,,,,,,,,,,,,,,,,,,,,,,,,,,,,,,,,,,,,,,,,,,,,,,,,,,,,,,,,,,,,,,,,,,,,,,,1,1.1622014000022318,164.72852460001013,None,ScrollDown,정답입니다,164.72852460001013,None,164.72852460001013,None,164.72852460001013,None,164.72852460001013,None,165.7902916000021,None,165.7902916000021,166.29039600001124,,,,,,,,,,,,,,,,017,2022-05-12_18h19.13.347,FishGame,2022.1.1,61.14304476303544,
,21,넌 품위있어,2,Green,B,5.291666666666666,4.466666666666667,ScrollUp,ScrollDown,Green.png,1,Positive,Incongruent,0,0,0,0,,,,,,,,,,,,,0,20,20,20,,,,,,,,,,,,,,,,,,,,,,,,,,,,,,,,,,,,,,,,,,,,,,,,,,,,,,,,,,,,,,,,,,,,,,,,,,,,,,,,,,,,,1.8225308656692505,1.0796208000101615,166.91002320000553,None,ScrollUp,정답입니다,166.91002320000553,None,166.91002320000553,None,166.91002320000553,None,166.91002320000553,None,167.89279420000094,None,167.89279420000094,168.39288440000382,,,,,,,,,,,,,,,,017,2022-05-12_18h19.13.347,FishGame,2022.1.1,61.14304476303544,
,22,넌 빈틈없어,3,Orange,A,4.833333333333333,3.966666666666667,ScrollDown,ScrollUp,Orange.png,1,Neutral,Neutral,0,0,0,0,,,,,,,,,,,,,0,21,21,21,,,,,,,,,,,,,,,,,,,,,,,,,,,,,,,,,,,,,,,,,,,,,,,,,,,,,,,,,,,,,,,,,,,,,,,,,,,,,,,,,,,,,1,1.0213478000077885,169.03331009999965,None,ScrollDown,정답입니다,169.03331009999965,None,169.03331009999965,None,169.03331009999965,None,169.03331009999965,None,169.93582480000623,None,169.93582480000623,170.44050470000366,,,,,,,,,,,,,,,,017,2022-05-12_18h19.13.347,FishGame,2022.1.1,61.14304476303544,
,23,넌 상상력없어,4,Green,B,2.833333333333333,3.133333333333333,ScrollUp,ScrollDown,Green.png,1,Negative,Congruent,0,0,0,0,,,,,,,,,,,,,0,22,22,22,,,,,,,,,,,,,,,,,,,,,,,,,,,,,,,,,,,,,,,,,,,,,,,,,,,,,,,,,,,,,,,,,,,,,,,,,,,,,,,,,,,,,2,1.1648698999924818,171.06442629999947,None,ScrollUp,정답입니다,171.06442629999947,None,171.06442629999947,None,171.06442629999947,None,171.06442629999947,None,172.12379399999918,None,172.12379399999918,172.6260156000062,,,,,,,,,,,,,,,,017,2022-05-12_18h19.13.347,FishGame,2022.1.1,61.14304476303544,
,24,넌 지혜로워,2,Green,B,6.333333333333334,4.633333333333334,ScrollUp,ScrollDown,Green.png,1,Positive,Incongruent,0,0,0,0,,,,,,,,,,,,,0,23,23,23,,,,,,,,,,,,,,,,,,,,,,,,,,,,,,,,,,,,,,,,,,,,,,,,,,,,,,,,,,,,,,,,,,,,,,,,,,,,,,,,,,,,,2,1.0765131000080146,173.2474499000091,None,ScrollUp,정답입니다,173.2474499000091,None,173.2474499000091,None,173.2474499000091,None,173.2474499000091,None,174.2260643000045,None,174.2260643000045,174.74041730001045,,,,,,,,,,,,,,,,017,2022-05-12_18h19.13.347,FishGame,2022.1.1,61.14304476303544,
,25,넌 시끄러워,4,Orange,A,2.833333333333333,3.033333333333333,ScrollDown,ScrollUp,Orange.png,1,Negative,Incongruent,0,0,0,0,,,,,,,,,,,,,0,24,24,24,,,,,,,,,,,,,,,,,,,,,,,,,,,,,,,,,,,,,,,,,,,,,,,,,,,,,,,,,,,,,,,,,,,,,,,,,,,,,,,,,,,,,1,1.0970517999958247,175.36308150000696,None,ScrollDown,정답입니다,175.36308150000696,None,175.36308150000696,None,175.36308150000696,None,175.36308150000696,None,176.35698660000344,None,176.35698660000344,176.85925850000058,,,,,,,,,,,,,,,,017,2022-05-12_18h19.13.347,FishGame,2022.1.1,61.14304476303544,
,26,넌 만사태평이야,3,Green,B,4,4.333333333333333,ScrollUp,ScrollDown,Green.png,1,Neutral,Neutral,0,0,0,0,,,,,,,,,,,,,0,25,25,25,,,,,,,,,,,,,,,,,,,,,,,,,,,,,,,,,,,,,,,,,,,,,,,,,,,,,,,,,,,,,,,,,,,,,,,,,,,,,,,,,,,,,2,1.079356899994309,177.48492540000007,None,ScrollUp,정답입니다,177.48492540000007,None,177.48492540000007,None,177.48492540000007,None,177.48492540000007,None,178.45698660000926,None,178.45698660000926,178.95699390000664,,,,,,,,,,,,,,,,017,2022-05-12_18h19.13.347,FishGame,2022.1.1,61.14304476303544,
,27,넌 붙임성있어,1,Orange,A,5.708333333333333,5.633333333333334,ScrollDown,ScrollUp,Orange.png,1,Positive,Congruent,0,0,0,0,,,,,,,,,,,,,0,26,26,26,,,,,,,,,,,,,,,,,,,,,,,,,,,,,,,,,,,,,,,,,,,,,,,,,,,,,,,,,,,,,,,,,,,,,,,,,,,,,,,,,,,,,1.0200617114702861,0.9775258000008762,179.58523779999814,None,ScrollDown,정답입니다,179.58523779999814,None,179.58523779999814,None,179.58523779999814,None,179.58523779999814,None,180.4569016000023,None,180.4569016000023,180.95909840000968,,,,,,,,,,,,,,,,017,2022-05-12_18h19.13.347,FishGame,2022.1.1,61.14304476303544,
,28,넌 영리해,2,Orange,A,6,4.033333333333333,ScrollDown,ScrollUp,Orange.png,1,Positive,Congruent,0,0,0,0,,,,,,,,,,,,,0,27,27,27,,,,,,,,,,,,,,,,,,,,,,,,,,,,,,,,,,,,,,,,,,,,,,,,,,,,,,,,,,,,,,,,,,,,,,,,,,,,,,,,,,,,,1,0.9296736999967834,181.58144040001207,None,ScrollDown,정답입니다,181.58144040001207,None,181.58144040001207,None,181.58144040001207,None,181.58144040001207,None,182.40690800000448,None,182.40690800000448,182.90696330000355,,,,,,,,,,,,,,,,017,2022-05-12_18h19.13.347,FishGame,2022.1.1,61.14304476303544,
,29,넌 열심이야,1,Green,B,6.041666666666667,5.833333333333333,ScrollUp,ScrollDown,Green.png,1,Positive,Incongruent,0,0,0,0,,,,,,,,,,,,,0,28,28,28,,,,,,,,,,,,,,,,,,,,,,,,,,,,,,,,,,,,,,,,,,,,,,,,,,,,,,,,,,,,,,,,,,,,,,,,,,,,,,,,,,,,,1.9891975224018097,1.0108318999991752,183.53093030001037,None,ScrollUp,정답입니다,183.53093030001037,None,183.53093030001037,None,183.53093030001037,None,183.53093030001037,None,184.44020270000328,None,184.44020270000328,184.94020650000311,,,,,,,,,,,,,,,,017,2022-05-12_18h19.13.347,FishGame,2022.1.1,61.14304476303544,
,30,넌 인기없어,4,Green,B,3,3.3,ScrollUp,ScrollDown,Green.png,1,Negative,Congruent,0,0,0,0,,,,,,,,,,,,,0,29,29,29,,,,,,,,,,,,,,,,,,,,,,,,,,,,,,,,,,,,,,,,,,,,,,,,,,,,,,,,,,,,,,,,,,,,,,,,,,,,,,,,,,,,,1.9922839502493541,0.8948798000055831,185.5595631000033,None,ScrollUp,정답입니다,185.5595631000033,None,185.5595631000033,None,185.5595631000033,None,185.5595631000033,None,186.35682400000223,None,186.35682400000223,186.85909100000572,,,,,,,,,,,,,,,,017,2022-05-12_18h19.13.347,FishGame,2022.1.1,61.14304476303544,
,31,넌 익살스러워,3,Orange,A,4.708333333333334,4.833333333333333,ScrollDown,ScrollUp,Orange.png,1,Neutral,Neutral,0,0,0,0,,,,,,,,,,,,,0,30,30,30,,,,,,,,,,,,,,,,,,,,,,,,,,,,,,,,,,,,,,,,,,,,,,,,,,,,,,,,,,,,,,,,,,,,,,,,,,,,,,,,,,,,,1.0864197611808777,0.9922442999959458,187.48290909999923,None,ScrollDown,정답입니다,187.48290909999923,None,187.48290909999923,None,187.48290909999923,None,187.48290909999923,None,188.3734676000022,None,188.3734676000022,188.8734991000092,,,,,,,,,,,,,,,,017,2022-05-12_18h19.13.347,FishGame,2022.1.1,61.14304476303544,
,32,넌 이기적이야,5,Green,B,2.291666666666667,2.333333333333333,ScrollUp,ScrollDown,Green.png,1,Negative,Congruent,0,0,0,0,,,,,,,,,,,,,0,31,31,31,,,,,,,,,,,,,,,,,,,,,,,,,,,,,,,,,,,,,,,,,,,,,,,,,,,,,,,,,,,,,,,,,,,,,,,,,,,,,,,,,,,,,1.9753086467583973,0.8276361000025645,189.49490679999872,None,ScrollUp,정답입니다,189.49490679999872,None,189.49490679999872,None,189.49490679999872,None,189.49490679999872,None,190.2234419000015,None,190.2234419000015,190.72343759999785,,,,,,,,,,,,,,,,017,2022-05-12_18h19.13.347,FishGame,2022.1.1,61.14304476303544,
,33,나를 데려가줘,6,Green,B,0,0,ScrollDown,ScrollUp,Green.png,1,NonTarget,NonTarget,0,0,0,0,,,,,,,,,,,,,0,32,32,32,,,,,,,,,,,,,,,,,,,,,,,,,,,,,,,,,,,,,,,,,,,,,,,,,,,,,,,,,,,,,,,,,,,,,,,,,,,,,,,,,,,,,1.0385802288850148,1.0130695000116248,191.34336470000562,None,ScrollDown,정답입니다,191.34336470000562,None,191.34336470000562,None,191.34336470000562,None,191.34336470000562,None,192.25887240000884,None,192.25887240000884,192.75890990000335,,,,,,,,,,,,,,,,017,2022-05-12_18h19.13.347,FishGame,2022.1.1,61.14304476303544,
,34,넌 기회주의자야,5,Orange,A,2.875,2.133333333333333,ScrollDown,ScrollUp,Orange.png,1,Negative,Incongruent,0,0,0,0,,,,,,,,,,,,,0,33,33,33,,,,,,,,,,,,,,,,,,,,,,,,,,,,,,,,,,,,,,,,,,,,,,,,,,,,,,,,,,,,,,,,,,,,,,,,,,,,,,,,,,,,,1.0324074228604634,0.9463263000070583,193.37963670000318,None,ScrollDown,정답입니다,193.37963670000318,None,193.37963670000318,None,193.37963670000318,None,193.37963670000318,None,194.22326420000172,None,194.22326420000172,194.72334409999894,,,,,,,,,,,,,,,,017,2022-05-12_18h19.13.347,FishGame,2022.1.1,61.14304476303544,
,1,넌 미성숙해,4,Orange,A,3,3.2,ScrollDown,ScrollUp,Orange.png,2,Negative,Incongruent,0,0,0,0,,,,,,,,,,,,,,,,,0,0,0,0,,,,,,,,,,,,,,,,,,,,,,,,,,,,,,,,,,,,,,,,226.57267100000172,228.0726718000078,228.10599780001212,229.05839640001068,229.1083104999998,230.05835040000966,230.05835040000966,None,,,,,,,,,,,,,,,,,,,,,,,,,,,,,,,,,,1.1342592686414719,1.13880890001019,231.18240810000862,None,ScrollDown,정답입니다,231.18240810000862,None,231.18240810000862,None,231.18240810000862,None,231.18240810000862,None,232.20587380000507,None,232.20587380000507,232.70808120000584,195.22333849999995,None,195.22333849999995,None,-0.11388889,-0.08981481,1,0,0,0.016102580004371703,None,225.22477140001138,None,,,017,2022-05-12_18h19.13.347,FishGame,2022.1.1,61.14304476303544,
,2,넌 반사회적이야,5,Green,B,2.416666666666667,2.033333333333333,ScrollUp,ScrollDown,Green.png,2,Negative,Congruent,0,0,0,0,,,,,,,,,,,,,,,,,0,1,1,1,,,,,,,,,,,,,,,,,,,,,,,,,,,,,,,,,,,,,,,,,,,,,,,,,,,,,,,,,,,,,,,,,,,,,,,,,,,,,,,,,1.8009259204069774,1.0434284000075422,233.33121080001,None,ScrollUp,정답입니다,233.33121080001,None,233.33121080001,None,233.33121080001,None,233.33121080001,None,234.2724534000008,None,234.2724534000008,234.77252320000844,,,,,,,,,,,,,,,,017,2022-05-12_18h19.13.347,FishGame,2022.1.1,61.14304476303544,
,3,넌 유능해,2,Orange,A,6.208333333333333,4.433333333333334,ScrollDown,ScrollUp,Orange.png,2,Positive,Congruent,0,0,0,0,,,,,,,,,,,,,,,,,0,2,2,2,,,,,,,,,,,,,,,,,,,,,,,,,,,,,,,,,,,,,,,,,,,,,,,,,,,,,,,,,,,,,,,,,,,,,,,,,,,,,,,,,1.1373456716537476,0.8775248000019928,235.40139640000416,None,ScrollDown,정답입니다,235.40139640000416,None,235.40139640000416,None,235.40139640000416,None,235.40139640000416,None,236.1746589000104,None,236.1746589000104,236.67475120000017,,,,,,,,,,,,,,,,017,2022-05-12_18h19.13.347,FishGame,2022.1.1,61.14304476303544,
,4,넌 능숙해,2,Green,B,5.666666666666667,4.733333333333333,ScrollUp,ScrollDown,Green.png,2,Positive,Incongruent,0,0,0,0,,,,,,,,,,,,,,,,,0,3,3,3,,,,,,,,,,,,,,,,,,,,,,,,,,,,,,,,,,,,,,,,,,,,,,,,,,,,,,,,,,,,,,,,,,,,,,,,,,,,,,,,,1.9938271641731262,0.9423419999948237,237.29375110000547,None,ScrollUp,정답입니다,237.29375110000547,None,237.29375110000547,None,237.29375110000547,None,237.29375110000547,None,238.13879969999834,None,238.13879969999834,238.63888560001215,,,,,,,,,,,,,,,,017,2022-05-12_18h19.13.347,FishGame,2022.1.1,61.14304476303544,
,5,넌 진부해,4,Green,B,2.458333333333333,3.166666666666667,ScrollUp,ScrollDown,Green.png,2,Negative,Congruent,0,0,0,0,,,,,,,,,,,,,,,,,0,4,4,4,,,,,,,,,,,,,,,,,,,,,,,,,,,,,,,,,,,,,,,,,,,,,,,,,,,,,,,,,,,,,,,,,,,,,,,,,,,,,,,,,2,0.963147399990703,239.25691300000472,None,ScrollUp,정답입니다,239.25691300000472,None,239.25691300000472,None,239.25691300000472,None,239.25691300000472,None,240.1221593000082,None,240.1221593000082,240.62233320000814,,,,,,,,,,,,,,,,017,2022-05-12_18h19.13.347,FishGame,2022.1.1,61.14304476303544,
,6,나를 보내줘,6,Orange,A,0,0,ScrollUp,ScrollDown,Orange.png,2,NonTarget,NonTarget,0,0,0,0,,,,,,,,,,,,,,,,,0,5,5,5,,,,,,,,,,,,,,,,,,,,,,,,,,,,,,,,,,,,,,,,,,,,,,,,,,,,,,,,,,,,,,,,,,,,,,,,,,,,,,,,,1.9228395223617554,1.1090306999976747,241.2488044000056,None,ScrollUp,정답입니다,241.2488044000056,None,241.2488044000056,None,241.2488044000056,None,241.2488044000056,None,242.2580151000002,None,242.2580151000002,242.77498170000035,,,,,,,,,,,,,,,,017,2022-05-12_18h19.13.347,FishGame,2022.1.1,61.14304476303544,
,7,넌 엄격해,3,Orange,A,4.166666666666666,4.1,ScrollDown,ScrollUp,Orange.png,2,Neutral,Neutral,0,0,0,0,,,,,,,,,,,,,,,,,0,6,6,6,,,,,,,,,,,,,,,,,,,,,,,,,,,,,,,,,,,,,,,,,,,,,,,,,,,,,,,,,,,,,,,,,,,,,,,,,,,,,,,,,1,1.144104699997115,243.38107129999844,None,ScrollDown,정답입니다,243.38107129999844,None,243.38107129999844,None,243.38107129999844,None,243.38107129999844,None,244.4223204000009,None,244.4223204000009,244.92459910000616,,,,,,,,,,,,,,,,017,2022-05-12_18h19.13.347,FishGame,2022.1.1,61.14304476303544,
,8,나를 보내줘,6,Orange,A,0,0,ScrollUp,ScrollDown,Orange.png,2,NonTarget,NonTarget,0,0,0,0,,,,,,,,,,,,,,,,,0,7,7,7,,,,,,,,,,,,,,,,,,,,,,,,,,,,,,,,,,,,,,,,,,,,,,,,,,,,,,,,,,,,,,,,,,,,,,,,,,,,,,,,,1.983024666706721,1.1111093999934383,245.54219510000257,None,ScrollUp,정답입니다,245.54219510000257,None,245.54219510000257,None,245.54219510000257,None,245.54219510000257,None,246.55565390000993,None,246.55565390000993,247.05774240000756,,,,,,,,,,,,,,,,017,2022-05-12_18h19.13.347,FishGame,2022.1.1,61.14304476303544,
,9,넌 대담해,3,Green,B,4.875,4.866666666666666,ScrollUp,ScrollDown,Green.png,2,Neutral,Neutral,0,0,0,0,,,,,,,,,,,,,,,,,0,8,8,8,,,,,,,,,,,,,,,,,,,,,,,,,,,,,,,,,,,,,,,,,,,,,,,,,,,,,,,,,,,,,,,,,,,,,,,,,,,,,,,,,1.7947530895471573,1.2291895000089426,247.67594500000996,None,ScrollUp,정답입니다,247.67594500000996,None,247.67594500000996,None,247.67594500000996,None,247.67594500000996,None,248.8077484000096,None,248.8077484000096,249.30784130000393,,,,,,,,,,,,,,,,017,2022-05-12_18h19.13.347,FishGame,2022.1.1,61.14304476303544,
,10,넌 꾸준해,1,Orange,A,5.916666666666668,5.8,ScrollDown,ScrollUp,Orange.png,2,Positive,Congruent,0,0,0,0,,,,,,,,,,,,,,,,,0,9,9,9,,,,,,,,,,,,,,,,,,,,,,,,,,,,,,,,,,,,,,,,,,,,,,,,,,,,,,,,,,,,,,,,,,,,,,,,,,,,,,,,,1.0077160497506459,0.8769348000059836,249.9286182000069,None,ScrollDown,정답입니다,249.9286182000069,None,249.9286182000069,None,249.9286182000069,None,249.9286182000069,None,250.7054671000078,None,250.7054671000078,251.20547369999986,,,,,,,,,,,,,,,,017,2022-05-12_18h19.13.347,FishGame,2022.1.1,61.14304476303544,
,11,나를 데려가줘,6,Green,B,0,0,ScrollDown,ScrollUp,Green.png,2,NonTarget,NonTarget,0,0,0,0,,,,,,,,,,,,,,,,,0,10,10,10,,,,,,,,,,,,,,,,,,,,,,,,,,,,,,,,,,,,,,,,,,,,,,,,,,,,,,,,,,,,,,,,,,,,,,,,,,,,,,,,,1,1.1611394999927143,251.82498260001012,None,ScrollDown,정답입니다,251.82498260001012,None,251.82498260001012,None,251.82498260001012,None,251.82498260001012,None,252.88881709999987,None,252.88881709999987,253.38903130000108,,,,,,,,,,,,,,,,017,2022-05-12_18h19.13.347,FishGame,2022.1.1,61.14304476303544,
,12,넌 독선적이야,5,Orange,A,2.458333333333333,1.933333333333333,ScrollDown,ScrollUp,Orange.png,2,Negative,Incongruent,0,0,0,0,,,,,,,,,,,,,,,,,0,11,11,11,,,,,,,,,,,,,,,,,,,,,,,,,,,,,,,,,,,,,,,,,,,,,,,,,,,,,,,,,,,,,,,,,,,,,,,,,,,,,,,,,1,1.9430258000065805,254.0256495000067,None,ScrollDown,정답입니다,254.0256495000067,None,254.0256495000067,None,254.0256495000067,None,254.0256495000067,None,255.85538750000705,None,255.85538750000705,256.3575425000017,,,,,,,,,,,,,,,,017,2022-05-12_18h19.13.347,FishGame,2022.1.1,61.14304476303544,
,13,나를 보내줘,6,Orange,A,0,0,ScrollUp,ScrollDown,Orange.png,2,NonTarget,NonTarget,0,0,0,0,,,,,,,,,,,,,,,,,0,12,12,12,,,,,,,,,,,,,,,,,,,,,,,,,,,,,,,,,,,,,,,,,,,,,,,,,,,,,,,,,,,,,,,,,,,,,,,,,,,,,,,,,1.9305555423100789,1.1303896000026725,256.98137639999914,None,ScrollUp,정답입니다,256.98137639999914,None,256.98137639999914,None,256.98137639999914,None,256.98137639999914,None,258.00536860000284,None,258.00536860000284,258.5054103000002,,,,,,,,,,,,,,,,017,2022-05-12_18h19.13.347,FishGame,2022.1.1,61.14304476303544,
,14,넌 책임감있어,1,Green,B,6.347826086956522,6,ScrollUp,ScrollDown,Green.png,2,Positive,Incongruent,0,0,0,0,,,,,,,,,,,,,,,,,0,13,13,13,,,,,,,,,,,,,,,,,,,,,,,,,,,,,,,,,,,,,,,,,,,,,,,,,,,,,,,,,,,,,,,,,,,,,,,,,,,,,,,,,1.5262345684071383,1.4110665999905905,259.1427587000071,None,NoResponse,무응답입니다,259.1427587000071,None,259.1427587000071,None,259.1427587000071,None,259.1427587000071,None,260.4408381000103,None,260.4408381000103,260.95755190000637,,,,,,,,,,,,,,,,017,2022-05-12_18h19.13.347,FishGame,2022.1.1,61.14304476303544,
,15,넌 문학적이야,3,Orange,A,4.708333333333334,4.333333333333333,ScrollDown,ScrollUp,Orange.png,2,Neutral,Neutral,0,0,0,0,,,,,,,,,,,,,,,,,0,14,14,14,,,,,,,,,,,,,,,,,,,,,,,,,,,,,,,,,,,,,,,,,,,,,,,,,,,,,,,,,,,,,,,,,,,,,,,,,,,,,,,,,1.1527777860562007,0.9929957999993348,261.5628921000025,None,ScrollDown,정답입니다,261.5628921000025,None,261.5628921000025,None,261.5628921000025,None,261.5628921000025,None,262.45746980000695,None,262.45746980000695,262.97209550000844,,,,,,,,,,,,,,,,017,2022-05-12_18h19.13.347,FishGame,2022.1.1,61.14304476303544,
,16,넌 재미있어,1,Green,B,5.875,5.7,ScrollUp,ScrollDown,Green.png,2,Positive,Incongruent,0,0,0,0,,,,,,,,,,,,,,,,,0,15,15,15,,,,,,,,,,,,,,,,,,,,,,,,,,,,,,,,,,,,,,,,,,,,,,,,,,,,,,,,,,,,,,,,,,,,,,,,,,,,,,,,,1.9984568059444427,1.1122648999880766,263.5732074999978,None,ScrollUp,정답입니다,263.5732074999978,None,263.5732074999978,None,263.5732074999978,None,263.5732074999978,None,264.59078340000997,None,264.59078340000997,265.0908817000018,,,,,,,,,,,,,,,,017,2022-05-12_18h19.13.347,FishGame,2022.1.1,61.14304476303544,
,17,나를 데려가줘,6,Green,B,0,0,ScrollDown,ScrollUp,Green.png,2,NonTarget,NonTarget,0,0,0,0,,,,,,,,,,,,,,,,,0,16,16,16,,,,,,,,,,,,,,,,,,,,,,,,,,,,,,,,,,,,,,,,,,,,,,,,,,,,,,,,,,,,,,,,,,,,,,,,,,,,,,,,,1.1358024577299755,0.9943629999906989,265.713451100004,None,ScrollDown,정답입니다,265.713451100004,None,265.713451100004,None,265.713451100004,None,265.713451100004,None,266.6049098000076,None,266.6049098000076,267.1049980000098,,,,,,,,,,,,,,,,017,2022-05-12_18h19.13.347,FishGame,2022.1.1,61.14304476303544,
,18,넌 협력적이야,1,Orange,A,5.625,5.633333333333334,ScrollDown,ScrollUp,Orange.png,2,Positive,Congruent,0,0,0,0,,,,,,,,,,,,,,,,,0,17,17,17,,,,,,,,,,,,,,,,,,,,,,,,,,,,,,,,,,,,,,,,,,,,,,,,,,,,,,,,,,,,,,,,,,,,,,,,,,,,,,,,,1,0.9955735000112327,267.7287595000089,None,ScrollDown,정답입니다,267.7287595000089,None,267.7287595000089,None,267.7287595000089,None,267.7287595000089,None,268.6241762999998,None,268.6241762999998,269.1241160000063,,,,,,,,,,,,,,,,017,2022-05-12_18h19.13.347,FishGame,2022.1.1,61.14304476303544,
,19,넌 평범해,3,Green,B,4.333333333333332,4.233333333333333,ScrollUp,ScrollDown,Green.png,2,Neutral,Neutral,0,0,0,0,,,,,,,,,,,,,,,,,0,18,18,18,,,,,,,,,,,,,,,,,,,,,,,,,,,,,,,,,,,,,,,,,,,,,,,,,,,,,,,,,,,,,,,,,,,,,,,,,,,,,,,,,1.904320980111758,1.1463440000079572,269.7472882000002,None,ScrollUp,정답입니다,269.7472882000002,None,269.7472882000002,None,269.7472882000002,None,269.7472882000002,None,270.7907222000067,None,270.7907222000067,271.29060970000864,,,,,,,,,,,,,,,,017,2022-05-12_18h19.13.347,FishGame,2022.1.1,61.14304476303544,
,20,넌 오만해,5,Orange,A,2.333333333333333,2,ScrollDown,ScrollUp,Orange.png,2,Negative,Incongruent,0,0,0,0,,,,,,,,,,,,,,,,,0,19,19,19,,,,,,,,,,,,,,,,,,,,,,,,,,,,,,,,,,,,,,,,,,,,,,,,,,,,,,,,,,,,,,,,,,,,,,,,,,,,,,,,,1,0.892289700001129,271.91344870001194,None,ScrollDown,정답입니다,271.91344870001194,None,271.91344870001194,None,271.91344870001194,None,271.91344870001194,None,272.7050794000097,None,272.7050794000097,273.2108680000092,,,,,,,,,,,,,,,,017,2022-05-12_18h19.13.347,FishGame,2022.1.1,61.14304476303544,
,21,넌 운이없어,4,Green,B,3,3.466666666666667,ScrollUp,ScrollDown,Green.png,2,Negative,Congruent,0,0,0,0,,,,,,,,,,,,,,,,,0,20,20,20,,,,,,,,,,,,,,,,,,,,,,,,,,,,,,,,,,,,,,,,,,,,,,,,,,,,,,,,,,,,,,,,,,,,,,,,,,,,,,,,,1.9675925771395366,1.2968969000066863,273.84196280001197,None,ScrollUp,정답입니다,273.84196280001197,None,273.84196280001197,None,273.84196280001197,None,273.84196280001197,None,275.02163940000173,None,275.02163940000173,275.52172640000936,,,,,,,,,,,,,,,,017,2022-05-12_18h19.13.347,FishGame,2022.1.1,61.14304476303544,
,22,넌 창조적이야,2,Green,B,6.125,4.633333333333334,ScrollUp,ScrollDown,Green.png,2,Positive,Incongruent,0,0,0,0,,,,,,,,,,,,,,,,,0,21,21,21,,,,,,,,,,,,,,,,,,,,,,,,,,,,,,,,,,,,,,,,,,,,,,,,,,,,,,,,,,,,,,,,,,,,,,,,,,,,,,,,,2,1.0942676999984542,276.1450780000014,None,ScrollUp,정답입니다,276.1450780000014,None,276.1450780000014,None,276.1450780000014,None,276.1450780000014,None,277.14057480001065,None,277.14057480001065,277.65724950000003,,,,,,,,,,,,,,,,017,2022-05-12_18h19.13.347,FishGame,2022.1.1,61.14304476303544,
,23,나를 보내줘,6,Orange,A,0,0,ScrollUp,ScrollDown,Orange.png,2,NonTarget,NonTarget,0,0,0,0,,,,,,,,,,,,,,,,,0,22,22,22,,,,,,,,,,,,,,,,,,,,,,,,,,,,,,,,,,,,,,,,,,,,,,,,,,,,,,,,,,,,,,,,,,,,,,,,,,,,,,,,,1.9259259502092998,0.97817610000493,278.2661575000093,None,ScrollUp,정답입니다,278.2661575000093,None,278.2661575000093,None,278.2661575000093,None,278.2661575000093,None,279.1382902000041,None,279.1382902000041,279.63831920000666,,,,,,,,,,,,,,,,017,2022-05-12_18h19.13.347,FishGame,2022.1.1,61.14304476303544,
,24,넌 통찰력있어,2,Orange,A,6.5,4.8,ScrollDown,ScrollUp,Orange.png,2,Positive,Congruent,0,0,0,0,,,,,,,,,,,,,,,,,0,23,23,23,,,,,,,,,,,,,,,,,,,,,,,,,,,,,,,,,,,,,,,,,,,,,,,,,,,,,,,,,,,,,,,,,,,,,,,,,,,,,,,,,1.0339506367842357,1.0447514999978011,280.2678021000029,None,ScrollDown,정답입니다,280.2678021000029,None,280.2678021000029,None,280.2678021000029,None,280.2678021000029,None,281.2049918999983,None,281.2049918999983,281.70494970001164,,,,,,,,,,,,,,,,017,2022-05-12_18h19.13.347,FishGame,2022.1.1,61.14304476303544,
,25,넌 경솔해,5,Green,B,2.458333333333333,2.266666666666667,ScrollUp,ScrollDown,Green.png,2,Negative,Congruent,0,0,0,0,,,,,,,,,,,,,,,,,0,24,24,24,,,,,,,,,,,,,,,,,,,,,,,,,,,,,,,,,,,,,,,,,,,,,,,,,,,,,,,,,,,,,,,,,,,,,,,,,,,,,,,,,1.9459876318772633,0.9619281999912346,282.3249034000037,None,ScrollUp,정답입니다,282.3249034000037,None,282.3249034000037,None,282.3249034000037,None,282.3249034000037,None,283.18822190001083,None,283.18822190001083,283.6881696000055,,,,,,,,,,,,,,,,017,2022-05-12_18h19.13.347,FishGame,2022.1.1,61.14304476303544,
,26,넌 초조해,4,Orange,A,2.916666666666667,3.133333333333333,ScrollDown,ScrollUp,Orange.png,2,Negative,Incongruent,0,0,0,0,,,,,,,,,,,,,,,,,0,25,25,25,,,,,,,,,,,,,,,,,,,,,,,,,,,,,,,,,,,,,,,,,,,,,,,,,,,,,,,,,,,,,,,,,,,,,,,,,,,,,,,,,1.0108024775981903,0.9612559999950463,284.3141162000102,None,ScrollDown,정답입니다,284.3141162000102,None,284.3141162000102,None,284.3141162000102,None,284.3141162000102,None,285.17154850000225,None,285.17154850000225,285.67153590000817,,,,,,,,,,,,,,,,017,2022-05-12_18h19.13.347,FishGame,2022.1.1,61.14304476303544,
,27,넌 무관심해,4,Green,B,2.833333333333333,2.9,ScrollUp,ScrollDown,Green.png,2,Negative,Congruent,0,0,0,0,,,,,,,,,,,,,,,,,0,26,26,26,,,,,,,,,,,,,,,,,,,,,,,,,,,,,,,,,,,,,,,,,,,,,,,,,,,,,,,,,,,,,,,,,,,,,,,,,,,,,,,,,1.8549382835626602,1.0756872999918414,286.29911469999934,None,ScrollUp,정답입니다,286.29911469999934,None,286.29911469999934,None,286.29911469999934,None,286.29911469999934,None,287.2715145000111,None,287.2715145000111,287.7737263000017,,,,,,,,,,,,,,,,017,2022-05-12_18h19.13.347,FishGame,2022.1.1,61.14304476303544,
,28,넌 감성적이야,3,Green,B,4.125,4.166666666666667,ScrollUp,ScrollDown,Green.png,2,Neutral,Neutral,0,0,0,0,,,,,,,,,,,,,,,,,0,27,27,27,,,,,,,,,,,,,,,,,,,,,,,,,,,,,,,,,,,,,,,,,,,,,,,,,,,,,,,,,,,,,,,,,,,,,,,,,,,,,,,,,1.9228395223617554,0.8256254000007175,288.3938416000019,None,ScrollUp,정답입니다,288.3938416000019,None,288.3938416000019,None,288.3938416000019,None,288.3938416000019,None,289.1214023000066,None,289.1214023000066,289.62145990000863,,,,,,,,,,,,,,,,017,2022-05-12_18h19.13.347,FishGame,2022.1.1,61.14304476303544,
,29,넌 배려심있어,1,Orange,A,6.083333333333333,5.5,ScrollDown,ScrollUp,Orange.png,2,Positive,Congruent,0,0,0,0,,,,,,,,,,,,,,,,,0,28,28,28,,,,,,,,,,,,,,,,,,,,,,,,,,,,,,,,,,,,,,,,,,,,,,,,,,,,,,,,,,,,,,,,,,,,,,,,,,,,,,,,,1.1496913582086563,0.9609885999961989,290.2463776000077,None,ScrollDown,정답입니다,290.2463776000077,None,290.2463776000077,None,290.2463776000077,None,290.2463776000077,None,291.1068282000051,None,291.1068282000051,291.6235403000028,,,,,,,,,,,,,,,,017,2022-05-12_18h19.13.347,FishGame,2022.1.1,61.14304476303544,
,30,넌 숨김없어,3,Orange,A,4.5,4.933333333333334,ScrollDown,ScrollUp,Orange.png,2,Neutral,Neutral,0,0,0,0,,,,,,,,,,,,,,,,,0,29,29,29,,,,,,,,,,,,,,,,,,,,,,,,,,,,,,,,,,,,,,,,,,,,,,,,,,,,,,,,,,,,,,,,,,,,,,,,,,,,,,,,,1.1095678955316544,0.9936225999990711,292.2290326000075,None,ScrollDown,정답입니다,292.2290326000075,None,292.2290326000075,None,292.2290326000075,None,292.2290326000075,None,293.12353000001167,None,293.12353000001167,293.62355980000575,,,,,,,,,,,,,,,,017,2022-05-12_18h19.13.347,FishGame,2022.1.1,61.14304476303544,
,31,넌 훌륭해,2,Green,B,5.916666666666667,4.033333333333333,ScrollUp,ScrollDown,Green.png,2,Positive,Incongruent,0,0,0,0,,,,,,,,,,,,,,,,,0,30,30,30,,,,,,,,,,,,,,,,,,,,,,,,,,,,,,,,,,,,,,,,,,,,,,,,,,,,,,,,,,,,,,,,,,,,,,,,,,,,,,,,,2,0.9427693000034196,294.24318700000003,None,ScrollUp,정답입니다,294.24318700000003,None,294.24318700000003,None,294.24318700000003,None,294.24318700000003,None,295.08789730000717,None,295.08789730000717,295.5879682000086,,,,,,,,,,,,,,,,017,2022-05-12_18h19.13.347,FishGame,2022.1.1,61.14304476303544,
,32,넌 슬기로워,2,Orange,A,6.166666666666667,4.1,ScrollDown,ScrollUp,Orange.png,2,Positive,Congruent,0,0,0,0,,,,,,,,,,,,,,,,,0,31,31,31,,,,,,,,,,,,,,,,,,,,,,,,,,,,,,,,,,,,,,,,,,,,,,,,,,,,,,,,,,,,,,,,,,,,,,,,,,,,,,,,,1.0864197611808777,1.0939786999952048,296.2198842000071,None,ScrollDown,정답입니다,296.2198842000071,None,296.2198842000071,None,296.2198842000071,None,296.2198842000071,None,297.2045627000043,None,297.2045627000043,297.7067825000122,,,,,,,,,,,,,,,,017,2022-05-12_18h19.13.347,FishGame,2022.1.1,61.14304476303544,
,33,넌 냉혹해,5,Orange,A,2.583333333333333,2.1,ScrollDown,ScrollUp,Orange.png,2,Negative,Incongruent,0,0,0,0,,,,,,,,,,,,,,,,,0,32,32,32,,,,,,,,,,,,,,,,,,,,,,,,,,,,,,,,,,,,,,,,,,,,,,,,,,,,,,,,,,,,,,,,,,,,,,,,,,,,,,,,,1.0679012437661488,0.9275864000082947,298.33245149999857,None,ScrollDown,정답입니다,298.33245149999857,None,298.33245149999857,None,298.33245149999857,None,298.33245149999857,None,299.15452950001054,None,299.15452950001054,299.65456560000894,,,,,,,,,,,,,,,,017,2022-05-12_18h19.13.347,FishGame,2022.1.1,61.14304476303544,
,34,나를 데려가줘,6,Green,B,0,0,ScrollDown,ScrollUp,Green.png,2,NonTarget,NonTarget,0,0,0,0,,,,,,,,,,,,,,,,,0,33,33,33,,,,,,,,,,,,,,,,,,,,,,,,,,,,,,,,,,,,,,,,,,,,,,,,,,,,,,,,,,,,,,,,,,,,,,,,,,,,,,,,,1.016975333293279,1.2630245999898762,300.27657349999936,None,ScrollDown,정답입니다,300.27657349999936,None,300.27657349999936,None,300.27657349999936,None,300.27657349999936,None,301.4400089999981,None,301.4400089999981,301.9379772000102,,,,,,,,,,,,,,,,017,2022-05-12_18h19.13.347,FishGame,2022.1.1,61.14304476303544,
,35,넌 편파적이야,5,Green,B,2.125,2,ScrollUp,ScrollDown,Green.png,2,Negative,Congruent,0,0,0,0,,,,,,,,,,,,,,,,,0,34,34,34,,,,,,,,,,,,,,,,,,,,,,,,,,,,,,,,,,,,,,,,,,,,,,,,,,,,,,,,,,,,,,,,,,,,,,,,,,,,,,,,,2,0.9761660000076517,302.5588484000036,None,ScrollUp,정답입니다,302.5588484000036,None,302.5588484000036,None,302.5588484000036,None,302.5588484000036,None,303.43772630000603,None,303.43772630000603,303.94002460000047,,,,,,,,,,,,,,,,017,2022-05-12_18h19.13.347,FishGame,2022.1.1,61.14304476303544,
,36,넌 슬퍼,4,Orange,A,2.583333333333333,3.066666666666667,ScrollDown,ScrollUp,Orange.png,2,Negative,Incongruent,0,0,0,0,,,,,,,,,,,,,,,,,0,35,35,35,,,,,,,,,,,,,,,,,,,,,,,,,,,,,,,,,,,,,,,,,,,,,,,,,,,,,,,,,,,,,,,,,,,,,,,,,,,,,,,,,1.0277777810891469,1.0439888999972027,304.5626936000044,None,ScrollDown,정답입니다,304.5626936000044,None,304.5626936000044,None,304.5626936000044,None,304.5626936000044,None,305.5044038000051,None,305.5044038000051,306.00656850000087,,,,,,,,,,,,,,,,017,2022-05-12_18h19.13.347,FishGame,2022.1.1,61.14304476303544,
,37,나를 데려가줘,6,Green,B,0,0,ScrollDown,ScrollUp,Green.png,2,NonTarget,NonTarget,0,0,0,0,,,,,,,,,,,,,,,,,0,36,36,36,,,,,,,,,,,,,,,,,,,,,,,,,,,,,,,,,,,,,,,,,,,,,,,,,,,,,,,,,,,,,,,,,,,,,,,,,,,,,,,,,1.1280864129463832,1.0439501000073506,306.6221007999993,None,ScrollDown,정답입니다,306.6221007999993,None,306.6221007999993,None,306.6221007999993,None,306.6221007999993,None,307.57104520000576,None,307.57104520000576,308.07325400000263,,,,,,,,,,,,,,,,017,2022-05-12_18h19.13.347,FishGame,2022.1.1,61.14304476303544,
,38,넌 친절해,1,Green,B,6.041666666666667,5.533333333333333,ScrollUp,ScrollDown,Green.png,2,Positive,Incongruent,0,0,0,0,,,,,,,,,,,,,,,,,0,37,37,37,,,,,,,,,,,,,,,,,,,,,,,,,,,,,,,,,,,,,,,,,,,,,,,,,,,,,,,,,,,,,,,,,,,,,,,,,,,,,,,,,2,1.02747939999972,308.7038870000106,None,ScrollUp,정답입니다,308.7038870000106,None,308.7038870000106,None,308.7038870000106,None,308.7038870000106,None,309.6209281000047,None,309.6209281000047,310.1209918000095,,,,,,,,,,,,,,,,017,2022-05-12_18h19.13.347,FishGame,2022.1.1,61.14304476303544,
,1,넌 엉성해,4,Orange,A,3,3.3,ScrollDown,ScrollUp,Orange.png,3,Negative,Incongruent,0,0,0,0,,,,,,,,,,,,,,,,,,,,,0,0,0,0,,,,,,,,,,,,,,,,,,,,,,,,,,,,,,,,,,,,342.1875002000015,343.692852600012,343.7257816000056,344.6870980000094,344.7228383000038,345.6757901000092,345.6757901000092,None,,,,,,,,,,,,,,,,,,,,,,,,,,,,,,,,,,1.0493827263514202,1.1073722000000998,346.7802933000057,None,ScrollDown,정답입니다,346.7802933000057,None,346.7802933000057,None,346.7802933000057,None,346.7802933000057,None,347.7868712000054,None,347.7868712000054,348.2891732999997,310.62111880000157,None,310.62111880000157,None,0.0,-0.15833333,1,0,0,0.0160405799979344,None,340.62053990000277,None,,,017,2022-05-12_18h19.13.347,FishGame,2022.1.1,61.14304476303544,
,2,나를 보내줘,6,Orange,A,0,0,ScrollUp,ScrollDown,Orange.png,3,NonTarget,NonTarget,0,0,0,0,,,,,,,,,,,,,,,,,,,,,0,1,1,1,,,,,,,,,,,,,,,,,,,,,,,,,,,,,,,,,,,,,,,,,,,,,,,,,,,,,,,,,,,,,,,,,,,,,,,,,,,,,1.7145061641931534,0.9421608999982709,348.90832310001133,None,ScrollUp,정답입니다,348.90832310001133,None,348.90832310001133,None,348.90832310001133,None,348.90832310001133,None,349.753481000007,None,349.753481000007,350.2556545000116,,,,,,,,,,,,,,,,017,2022-05-12_18h19.13.347,FishGame,2022.1.1,61.14304476303544,
,3,넌 활발해,1,Green,B,5.666666666666667,5.6,ScrollUp,ScrollDown,Green.png,3,Positive,Incongruent,0,0,0,0,,,,,,,,,,,,,,,,,,,,,0,2,2,2,,,,,,,,,,,,,,,,,,,,,,,,,,,,,,,,,,,,,,,,,,,,,,,,,,,,,,,,,,,,,,,,,,,,,,,,,,,,,1.9645061492919922,1.0943771000020206,350.87594730001,None,ScrollUp,정답입니다,350.87594730001,None,350.87594730001,None,350.87594730001,None,350.87594730001,None,351.8759621000063,None,351.8759621000063,352.3865664000041,,,,,,,,,,,,,,,,017,2022-05-12_18h19.13.347,FishGame,2022.1.1,61.14304476303544,
,4,넌 논리적이야,2,Orange,A,5.666666666666666,4.633333333333334,ScrollDown,ScrollUp,Orange.png,3,Positive,Congruent,0,0,0,0,,,,,,,,,,,,,,,,,,,,,0,3,3,3,,,,,,,,,,,,,,,,,,,,,,,,,,,,,,,,,,,,,,,,,,,,,,,,,,,,,,,,,,,,,,,,,,,,,,,,,,,,,1.0694444576899211,0.9131607000017539,353.0117156000051,None,ScrollDown,정답입니다,353.0117156000051,None,353.0117156000051,None,353.0117156000051,None,353.0117156000051,None,353.8197916000063,None,353.8197916000063,354.31993050000165,,,,,,,,,,,,,,,,017,2022-05-12_18h19.13.347,FishGame,2022.1.1,61.14304476303544,
,5,넌 과묵해,3,Orange,A,3.875,4.4,ScrollDown,ScrollUp,Orange.png,3,Neutral,Neutral,0,0,0,0,,,,,,,,,,,,,,,,,,,,,0,4,4,4,,,,,,,,,,,,,,,,,,,,,,,,,,,,,,,,,,,,,,,,,,,,,,,,,,,,,,,,,,,,,,,,,,,,,,,,,,,,,1.0216049253940582,0.9980813000001945,354.9425354999985,None,ScrollDown,정답입니다,354.9425354999985,None,354.9425354999985,None,354.9425354999985,None,354.9425354999985,None,355.8390148000035,None,355.8390148000035,356.3390274000121,,,,,,,,,,,,,,,,017,2022-05-12_18h19.13.347,FishGame,2022.1.1,61.14304476303544,
,6,나를 데려가줘,6,Green,B,0,0,ScrollDown,ScrollUp,Green.png,3,NonTarget,NonTarget,0,0,0,0,,,,,,,,,,,,,,,,,,,,,0,5,5,5,,,,,,,,,,,,,,,,,,,,,,,,,,,,,,,,,,,,,,,,,,,,,,,,,,,,,,,,,,,,,,,,,,,,,,,,,,,,,1.0432098706563313,1.066340699995635,356.95907360001,None,ScrollDown,정답입니다,356.95907360001,None,356.95907360001,None,356.95907360001,None,356.95907360001,None,357.9222088000097,None,357.9222088000097,358.42007350000495,,,,,,,,,,,,,,,,017,2022-05-12_18h19.13.347,FishGame,2022.1.1,61.14304476303544,
,7,넌 미숙해,4,Green,B,3,3,ScrollUp,ScrollDown,Green.png,3,Negative,Congruent,0,0,0,0,,,,,,,,,,,,,,,,,,,,,0,6,6,6,,,,,,,,,,,,,,,,,,,,,,,,,,,,,,,,,,,,,,,,,,,,,,,,,,,,,,,,,,,,,,,,,,,,,,,,,,,,,1.859567900498708,0.9238072000007378,359.0484703000111,None,ScrollUp,정답입니다,359.0484703000111,None,359.0484703000111,None,359.0484703000111,None,359.0484703000111,None,359.86965430001146,None,359.86965430001146,360.3697542000009,,,,,,,,,,,,,,,,017,2022-05-12_18h19.13.347,FishGame,2022.1.1,61.14304476303544,
,8,나를 보내줘,6,Orange,A,0,0,ScrollUp,ScrollDown,Orange.png,3,NonTarget,NonTarget,0,0,0,0,,,,,,,,,,,,,,,,,,,,,0,7,7,7,,,,,,,,,,,,,,,,,,,,,,,,,,,,,,,,,,,,,,,,,,,,,,,,,,,,,,,,,,,,,,,,,,,,,,,,,,,,,1.6898148159186044,1.028091800006223,360.9907652000111,None,ScrollUp,정답입니다,360.9907652000111,None,360.9907652000111,None,360.9907652000111,None,360.9907652000111,None,361.92226610000944,None,361.92226610000944,362.4221863999992,,,,,,,,,,,,,,,,017,2022-05-12_18h19.13.347,FishGame,2022.1.1,61.14304476303544,
,9,넌 자신만만해,3,Green,B,4.833333333333334,4.333333333333333,ScrollUp,ScrollDown,Green.png,3,Neutral,Neutral,0,0,0,0,,,,,,,,,,,,,,,,,,,,,0,8,8,8,,,,,,,,,,,,,,,,,,,,,,,,,,,,,,,,,,,,,,,,,,,,,,,,,,,,,,,,,,,,,,,,,,,,,,,,,,,,,1.8533950696388881,1.0649084000033326,363.0381863000075,None,ScrollUp,정답입니다,363.0381863000075,None,363.0381863000075,None,363.0381863000075,None,363.0381863000075,None,364.0054416000057,None,364.0054416000057,364.52203990001,,,,,,,,,,,,,,,,017,2022-05-12_18h19.13.347,FishGame,2022.1.1,61.14304476303544,
,10,넌 탐욕스러워,5,Orange,A,2.25,2.1,ScrollDown,ScrollUp,Orange.png,3,Negative,Incongruent,0,0,0,0,,,,,,,,,,,,,,,,,,,,,0,9,9,9,,,,,,,,,,,,,,,,,,,,,,,,,,,,,,,,,,,,,,,,,,,,,,,,,,,,,,,,,,,,,,,,,,,,,,,,,,,,,1.0277777810891469,0.9782826000009663,365.1283284000092,None,ScrollDown,정답입니다,365.1283284000092,None,365.1283284000092,None,365.1283284000092,None,365.1283284000092,None,366.0031467000081,None,366.0031467000081,366.5032177000103,,,,,,,,,,,,,,,,017,2022-05-12_18h19.13.347,FishGame,2022.1.1,61.14304476303544,
,11,넌 인기있어,2,Orange,A,5.458333333333333,4.5,ScrollDown,ScrollUp,Orange.png,3,Positive,Congruent,0,0,0,0,,,,,,,,,,,,,,,,,,,,,0,10,10,10,,,,,,,,,,,,,,,,,,,,,,,,,,,,,,,,,,,,,,,,,,,,,,,,,,,,,,,,,,,,,,,,,,,,,,,,,,,,,1.2577160596847534,1.0420719000103418,367.1270510000031,None,ScrollDown,정답입니다,367.1270510000031,None,367.1270510000031,None,367.1270510000031,None,367.1270510000031,None,368.0697475000052,None,368.0697475000052,368.5719661000039,,,,,,,,,,,,,,,,017,2022-05-12_18h19.13.347,FishGame,2022.1.1,61.14304476303544,
,12,나를 데려가줘,6,Green,B,0,0,ScrollDown,ScrollUp,Green.png,3,NonTarget,NonTarget,0,0,0,0,,,,,,,,,,,,,,,,,,,,,0,11,11,11,,,,,,,,,,,,,,,,,,,,,,,,,,,,,,,,,,,,,,,,,,,,,,,,,,,,,,,,,,,,,,,,,,,,,,,,,,,,,1.0740740497907002,0.9796552000043448,369.1896431000059,None,ScrollDown,정답입니다,369.1896431000059,None,369.1896431000059,None,369.1896431000059,None,369.1896431000059,None,370.0697188000049,None,370.0697188000049,370.5719824000116,,,,,,,,,,,,,,,,017,2022-05-12_18h19.13.347,FishGame,2022.1.1,61.14304476303544,
,13,넌 뛰어나,2,Green,B,6.166666666666667,4,ScrollUp,ScrollDown,Green.png,3,Positive,Incongruent,0,0,0,0,,,,,,,,,,,,,,,,,,,,,0,12,12,12,,,,,,,,,,,,,,,,,,,,,,,,,,,,,,,,,,,,,,,,,,,,,,,,,,,,,,,,,,,,,,,,,,,,,,,,,,,,,1.8950617214043934,0.9941651000117417,371.1941821000073,None,ScrollUp,정답입니다,371.1941821000073,None,371.1941821000073,None,371.1941821000073,None,371.1941821000073,None,372.08852760000445,None,372.08852760000445,372.6053404999984,,,,,,,,,,,,,,,,017,2022-05-12_18h19.13.347,FishGame,2022.1.1,61.14304476303544,
,14,넌 낙관적이야,1,Orange,A,5.75,5.8,ScrollDown,ScrollUp,Orange.png,3,Positive,Congruent,0,0,0,0,,,,,,,,,,,,,,,,,,,,,0,13,13,13,,,,,,,,,,,,,,,,,,,,,,,,,,,,,,,,,,,,,,,,,,,,,,,,,,,,,,,,,,,,,,,,,,,,,,,,,,,,,1.1172839403152466,1.1260420999897178,373.22674300000654,None,ScrollDown,정답입니다,373.22674300000654,None,373.22674300000654,None,373.22674300000654,None,373.22674300000654,None,374.25272410000616,None,374.25272410000616,374.7527858000103,,,,,,,,,,,,,,,,017,2022-05-12_18h19.13.347,FishGame,2022.1.1,61.14304476303544,
,15,넌 산만해,4,Green,B,2.695652173913043,3.033333333333333,ScrollUp,ScrollDown,Green.png,3,Negative,Congruent,0,0,0,0,,,,,,,,,,,,,,,,,,,,,0,14,14,14,,,,,,,,,,,,,,,,,,,,,,,,,,,,,,,,,,,,,,,,,,,,,,,,,,,,,,,,,,,,,,,,,,,,,,,,,,,,,2,1.0324328999995487,375.3760570000013,None,ScrollUp,정답입니다,375.3760570000013,None,375.3760570000013,None,375.3760570000013,None,375.3760570000013,None,376.30528110000887,None,376.30528110000887,376.8053426999977,,,,,,,,,,,,,,,,017,2022-05-12_18h19.13.347,FishGame,2022.1.1,61.14304476303544,
,16,나를 보내줘,6,Orange,A,0,0,ScrollUp,ScrollDown,Orange.png,3,NonTarget,NonTarget,0,0,0,0,,,,,,,,,,,,,,,,,,,,,0,15,15,15,,,,,,,,,,,,,,,,,,,,,,,,,,,,,,,,,,,,,,,,,,,,,,,,,,,,,,,,,,,,,,,,,,,,,,,,,,,,,2,1.0644192999898223,377.4214778000023,None,ScrollUp,정답입니다,377.4214778000023,None,377.4214778000023,None,377.4214778000023,None,377.4214778000023,None,378.3885423000029,None,378.3885423000029,378.90297049999936,,,,,,,,,,,,,,,,017,2022-05-12_18h19.13.347,FishGame,2022.1.1,61.14304476303544,
,17,넌 교활해,5,Green,B,2.333333333333333,2.133333333333333,ScrollUp,ScrollDown,Green.png,3,Negative,Congruent,0,0,0,0,,,,,,,,,,,,,,,,,,,,,0,16,16,16,,,,,,,,,,,,,,,,,,,,,,,,,,,,,,,,,,,,,,,,,,,,,,,,,,,,,,,,,,,,,,,,,,,,,,,,,,,,,2,1.0962695000052918,379.50760250000167,None,ScrollUp,정답입니다,379.50760250000167,None,379.50760250000167,None,379.50760250000167,None,379.50760250000167,None,380.5050085000112,None,380.5050085000112,381.00295720000577,,,,,,,,,,,,,,,,017,2022-05-12_18h19.13.347,FishGame,2022.1.1,61.14304476303544,
,18,나를 보내줘,6,Orange,A,0,0,ScrollUp,ScrollDown,Orange.png,3,NonTarget,NonTarget,0,0,0,0,,,,,,,,,,,,,,,,,,,,,0,17,17,17,,,,,,,,,,,,,,,,,,,,,,,,,,,,,,,,,,,,,,,,,,,,,,,,,,,,,,,,,,,,,,,,,,,,,,,,,,,,,1.9660493632157643,0.9424274999910267,381.62448589999985,None,ScrollUp,정답입니다,381.62448589999985,None,381.62448589999985,None,381.62448589999985,None,381.62448589999985,None,382.4694512999995,None,382.4694512999995,382.9695206000033,,,,,,,,,,,,,,,,017,2022-05-12_18h19.13.347,FishGame,2022.1.1,61.14304476303544,
,19,넌 불친절해,5,Green,B,2.208333333333333,2.033333333333333,ScrollUp,ScrollDown,Green.png,3,Negative,Congruent,0,0,0,0,,,,,,,,,,,,,,,,,,,,,0,18,18,18,,,,,,,,,,,,,,,,,,,,,,,,,,,,,,,,,,,,,,,,,,,,,,,,,,,,,,,,,,,,,,,,,,,,,,,,,,,,,1.825617293516795,0.9443868999951519,383.5947695000068,None,ScrollUp,정답입니다,383.5947695000068,None,383.5947695000068,None,383.5947695000068,None,383.5947695000068,None,384.4361390999984,None,384.4361390999984,384.9383278000023,,,,,,,,,,,,,,,,017,2022-05-12_18h19.13.347,FishGame,2022.1.1,61.14304476303544,
,20,넌 지적이야,2,Green,B,5.75,4.366666666666666,ScrollUp,ScrollDown,Green.png,3,Positive,Incongruent,0,0,0,0,,,,,,,,,,,,,,,,,,,,,0,19,19,19,,,,,,,,,,,,,,,,,,,,,,,,,,,,,,,,,,,,,,,,,,,,,,,,,,,,,,,,,,,,,,,,,,,,,,,,,,,,,1.9228395223617554,0.860494300010032,385.5643099000008,None,ScrollUp,정답입니다,385.5643099000008,None,385.5643099000008,None,385.5643099000008,None,385.5643099000008,None,386.3217016999988,None,386.3217016999988,386.8361112999992,,,,,,,,,,,,,,,,017,2022-05-12_18h19.13.347,FishGame,2022.1.1,61.14304476303544,
,21,넌 우유부단해,4,Orange,A,2.666666666666667,3.166666666666667,ScrollDown,ScrollUp,Orange.png,3,Negative,Incongruent,0,0,0,0,,,,,,,,,,,,,,,,,,,,,0,20,20,20,,,,,,,,,,,,,,,,,,,,,,,,,,,,,,,,,,,,,,,,,,,,,,,,,,,,,,,,,,,,,,,,,,,,,,,,,,,,,1.0663580298423767,1.0799142999894684,387.465134500002,None,ScrollDown,정답입니다,387.465134500002,None,387.465134500002,None,387.465134500002,None,387.465134500002,None,388.4360580000066,None,388.4360580000066,388.93613830000686,,,,,,,,,,,,,,,,017,2022-05-12_18h19.13.347,FishGame,2022.1.1,61.14304476303544,
,22,나를 데려가줘,6,Green,B,0,0,ScrollDown,ScrollUp,Green.png,3,NonTarget,NonTarget,0,0,0,0,,,,,,,,,,,,,,,,,,,,,0,21,21,21,,,,,,,,,,,,,,,,,,,,,,,,,,,,,,,,,,,,,,,,,,,,,,,,,,,,,,,,,,,,,,,,,,,,,,,,,,,,,1.1450617164373398,1.0129141000070376,389.5548342000111,None,ScrollDown,정답입니다,389.5548342000111,None,389.5548342000111,None,389.5548342000111,None,389.5548342000111,None,390.46934039999906,None,390.46934039999906,390.9716380000027,,,,,,,,,,,,,,,,017,2022-05-12_18h19.13.347,FishGame,2022.1.1,61.14304476303544,
,23,넌 성실해,1,Green,B,6.041666666666666,5.7,ScrollUp,ScrollDown,Green.png,3,Positive,Incongruent,0,0,0,0,,,,,,,,,,,,,,,,,,,,,0,22,22,22,,,,,,,,,,,,,,,,,,,,,,,,,,,,,,,,,,,,,,,,,,,,,,,,,,,,,,,,,,,,,,,,,,,,,,,,,,,,,1.7978395173947017,0.9089634999982081,391.59658680000575,None,ScrollUp,정답입니다,391.59658680000575,None,391.59658680000575,None,391.59658680000575,None,391.59658680000575,None,392.40233910000825,None,392.40233910000825,392.9024239999999,,,,,,,,,,,,,,,,017,2022-05-12_18h19.13.347,FishGame,2022.1.1,61.14304476303544,
,24,넌 현실주의적이야,3,Orange,A,4.625,4.4,ScrollDown,ScrollUp,Orange.png,3,Neutral,Neutral,0,0,0,0,,,,,,,,,,,,,,,,,,,,,0,23,23,23,,,,,,,,,,,,,,,,,,,,,,,,,,,,,,,,,,,,,,,,,,,,,,,,,,,,,,,,,,,,,,,,,,,,,,,,,,,,,1.1682098756233852,0.9779409000038868,393.5267797999986,None,ScrollDown,정답입니다,393.5267797999986,None,393.5267797999986,None,393.5267797999986,None,393.5267797999986,None,394.4023831000086,None,394.4023831000086,394.9048902000068,,,,,,,,,,,,,,,,017,2022-05-12_18h19.13.347,FishGame,2022.1.1,61.14304476303544,
,25,넌 진실돼,1,Orange,A,6.625,5.566666666666666,ScrollDown,ScrollUp,Orange.png,3,Positive,Congruent,0,0,0,0,,,,,,,,,,,,,,,,,,,,,0,24,24,24,,,,,,,,,,,,,,,,,,,,,,,,,,,,,,,,,,,,,,,,,,,,,,,,,,,,,,,,,,,,,,,,,,,,,,,,,,,,,1.2777777661879859,0.8316718999994919,395.52149160001136,None,ScrollDown,정답입니다,395.52149160001136,None,395.52149160001136,None,395.52149160001136,None,395.52149160001136,None,396.2549529000098,None,396.2549529000098,396.75496630001,,,,,,,,,,,,,,,,017,2022-05-12_18h19.13.347,FishGame,2022.1.1,61.14304476303544,
,26,넌 천진난만해,3,Green,B,4.958333333333334,4.833333333333333,ScrollUp,ScrollDown,Green.png,3,Neutral,Neutral,0,0,0,0,,,,,,,,,,,,,,,,,,,,,0,25,25,25,,,,,,,,,,,,,,,,,,,,,,,,,,,,,,,,,,,,,,,,,,,,,,,,,,,,,,,,,,,,,,,,,,,,,,,,,,,,,2,1.127380500009167,397.3748350000096,None,ScrollUp,정답입니다,397.3748350000096,None,397.3748350000096,None,397.3748350000096,None,397.3748350000096,None,398.40251120000903,None,398.40251120000903,398.90254940000887,,,,,,,,,,,,,,,,017,2022-05-12_18h19.13.347,FishGame,2022.1.1,61.14304476303544,
,27,넌 교양없어,5,Orange,A,2.416666666666667,2.2,ScrollDown,ScrollUp,Orange.png,3,Negative,Incongruent,0,0,0,0,,,,,,,,,,,,,,,,,,,,,0,26,26,26,,,,,,,,,,,,,,,,,,,,,,,,,,,,,,,,,,,,,,,,,,,,,,,,,,,,,,,,,,,,,,,,,,,,,,,,,,,,,1.0524691541989644,1.044104899992817,399.5316749000049,None,ScrollDown,정답입니다,399.5316749000049,None,399.5316749000049,None,399.5316749000049,None,399.5316749000049,None,400.469182300003,None,400.469182300003,400.9691942000063,,,,,,,,,,,,,,,,017,2022-05-12_18h19.13.347,FishGame,2022.1.1,61.14304476303544,
,28,나를 보내줘,6,Orange,A,0,0,ScrollUp,ScrollDown,Orange.png,3,NonTarget,NonTarget,0,0,0,0,,,,,,,,,,,,,,,,,,,,,0,27,27,27,,,,,,,,,,,,,,,,,,,,,,,,,,,,,,,,,,,,,,,,,,,,,,,,,,,,,,,,,,,,,,,,,,,,,,,,,,,,,2,0.9456111999897985,401.5868782000034,None,ScrollUp,정답입니다,401.5868782000034,None,401.5868782000034,None,401.5868782000034,None,401.5868782000034,None,402.4357524000079,None,402.4357524000079,402.9358049000002,,,,,,,,,,,,,,,,017,2022-05-12_18h19.13.347,FishGame,2022.1.1,61.14304476303544,
,29,넌 엉뚱스러워,3,Orange,A,4.166666666666667,4.133333333333334,ScrollDown,ScrollUp,Orange.png,3,Neutral,Neutral,0,0,0,0,,,,,,,,,,,,,,,,,,,,,0,28,28,28,,,,,,,,,,,,,,,,,,,,,,,,,,,,,,,,,,,,,,,,,,,,,,,,,,,,,,,,,,,,,,,,,,,,,,,,,,,,,1.1141975373029709,0.9458712000050582,403.5560218000028,None,ScrollDown,정답입니다,403.5560218000028,None,403.5560218000028,None,403.5560218000028,None,403.5560218000028,None,404.40241270000115,None,404.40241270000115,404.90468990000954,,,,,,,,,,,,,,,,017,2022-05-12_18h19.13.347,FishGame,2022.1.1,61.14304476303544,
,30,넌 무지해,4,Green,B,2.541666666666667,3.066666666666667,ScrollUp,ScrollDown,Green.png,3,Negative,Congruent,0,0,0,0,,,,,,,,,,,,,,,,,,,,,0,29,29,29,,,,,,,,,,,,,,,,,,,,,,,,,,,,,,,,,,,,,,,,,,,,,,,,,,,,,,,,,,,,,,,,,,,,,,,,,,,,,2,0.9275104999978794,405.5218798999995,None,ScrollUp,정답입니다,405.5218798999995,None,405.5218798999995,None,405.5218798999995,None,405.5218798999995,None,406.3523076999991,None,406.3523076999991,406.85236489999807,,,,,,,,,,,,,,,,017,2022-05-12_18h19.13.347,FishGame,2022.1.1,61.14304476303544,
,31,넌 음울해,5,Green,B,2.25,2.233333333333333,ScrollUp,ScrollDown,Green.png,3,Negative,Congruent,0,0,0,0,,,,,,,,,,,,,,,,,,,,,0,30,30,30,,,,,,,,,,,,,,,,,,,,,,,,,,,,,,,,,,,,,,,,,,,,,,,,,,,,,,,,,,,,,,,,,,,,,,,,,,,,,2,1.0776988999859896,407.4755038000003,None,ScrollUp,정답입니다,407.4755038000003,None,407.4755038000003,None,407.4755038000003,None,407.4755038000003,None,408.45239279999805,None,408.45239279999805,408.9544756000105,,,,,,,,,,,,,,,,017,2022-05-12_18h19.13.347,FishGame,2022.1.1,61.14304476303544,
,32,넌 냉소적이야,5,Orange,A,2.916666666666667,2.4,ScrollDown,ScrollUp,Orange.png,3,Negative,Incongruent,0,0,0,0,,,,,,,,,,,,,,,,,,,,,0,31,31,31,,,,,,,,,,,,,,,,,,,,,,,,,,,,,,,,,,,,,,,,,,,,,,,,,,,,,,,,,,,,,,,,,,,,,,,,,,,,,1.0756172637144725,1.1488845999992918,409.57696679999935,None,ScrollDown,정답입니다,409.57696679999935,None,409.57696679999935,None,409.57696679999935,None,409.57696679999935,None,410.6189357000112,None,410.6189357000112,411.12133860000176,,,,,,,,,,,,,,,,017,2022-05-12_18h19.13.347,FishGame,2022.1.1,61.14304476303544,
,33,나를 데려가줘,6,Green,B,0,0,ScrollDown,ScrollUp,Green.png,3,NonTarget,NonTarget,0,0,0,0,,,,,,,,,,,,,,,,,,,,,0,32,32,32,,,,,,,,,,,,,,,,,,,,,,,,,,,,,,,,,,,,,,,,,,,,,,,,,,,,,,,,,,,,,,,,,,,,,,,,,,,,,1.0077160497506459,1.291946299999836,411.7406303000025,None,ScrollDown,정답입니다,411.7406303000025,None,411.7406303000025,None,411.7406303000025,None,411.7406303000025,None,412.93527440000616,None,412.93527440000616,413.43533630001184,,,,,,,,,,,,,,,,017,2022-05-12_18h19.13.347,FishGame,2022.1.1,61.14304476303544,
,34,넌 쾌활해,1,Orange,A,5.541666666666666,5.733333333333333,ScrollDown,ScrollUp,Orange.png,3,Positive,Congruent,0,0,0,0,,,,,,,,,,,,,,,,,,,,,0,33,33,33,,,,,,,,,,,,,,,,,,,,,,,,,,,,,,,,,,,,,,,,,,,,,,,,,,,,,,,,,,,,,,,,,,,,,,,,,,,,,1.160493830839793,0.9457597000000533,414.0556108000019,None,ScrollDown,정답입니다,414.0556108000019,None,414.0556108000019,None,414.0556108000019,None,414.0556108000019,None,414.904514400012,None,414.904514400012,415.40450090001104,,,,,,,,,,,,,,,,017,2022-05-12_18h19.13.347,FishGame,2022.1.1,61.14304476303544,
,35,나를 보내줘,6,Orange,A,0,0,ScrollUp,ScrollDown,Orange.png,3,NonTarget,NonTarget,0,0,0,0,,,,,,,,,,,,,,,,,,,,,0,34,34,34,,,,,,,,,,,,,,,,,,,,,,,,,,,,,,,,,,,,,,,,,,,,,,,,,,,,,,,,,,,,,,,,,,,,,,,,,,,,,1.7716049303611119,0.9032427999918582,416.01631750000524,None,ScrollUp,정답입니다,416.01631750000524,None,416.01631750000524,None,416.01631750000524,None,416.01631750000524,None,416.8341250000085,None,416.8341250000085,417.335459599999,,,,,,,,,,,,,,,,017,2022-05-12_18h19.13.347,FishGame,2022.1.1,61.14304476303544,
,36,넌 명랑해,1,Green,B,5.739130434782609,5.666666666666667,ScrollUp,ScrollDown,Green.png,3,Positive,Incongruent,0,0,0,0,,,,,,,,,,,,,,,,,,,,,0,35,35,35,,,,,,,,,,,,,,,,,,,,,,,,,,,,,,,,,,,,,,,,,,,,,,,,,,,,,,,,,,,,,,,,,,,,,,,,,,,,,2,0.9961829999956535,417.9521464999998,None,ScrollUp,정답입니다,417.9521464999998,None,417.9521464999998,None,417.9521464999998,None,417.9521464999998,None,418.85210570000345,None,418.85210570000345,419.35441430000355,,,,,,,,,,,,,,,,017,2022-05-12_18h19.13.347,FishGame,2022.1.1,61.14304476303544,
,37,넌 멍해,4,Orange,A,2.833333333333333,3.4,ScrollDown,ScrollUp,Orange.png,3,Negative,Incongruent,0,0,0,0,,,,,,,,,,,,,,,,,,,,,0,36,36,36,,,,,,,,,,,,,,,,,,,,,,,,,,,,,,,,,,,,,,,,,,,,,,,,,,,,,,,,,,,,,,,,,,,,,,,,,,,,,1,1.262224399994011,419.9832007000077,None,ScrollDown,정답입니다,419.9832007000077,None,419.9832007000077,None,419.9832007000077,None,419.9832007000077,None,421.1353538000112,None,421.1353538000112,421.63539820000005,,,,,,,,,,,,,,,,017,2022-05-12_18h19.13.347,FishGame,2022.1.1,61.14304476303544,
,38,나를 데려가줘,6,Green,B,0,0,ScrollDown,ScrollUp,Green.png,3,NonTarget,NonTarget,0,0,0,0,,,,,,,,,,,,,,,,,,,,,0,37,37,37,,,,,,,,,,,,,,,,,,,,,,,,,,,,,,,,,,,,,,,,,,,,,,,,,,,,,,,,,,,,,,,,,,,,,,,,,,,,,1.0586419602235158,1.096323299992946,422.2578899000073,None,ScrollDown,정답입니다,422.2578899000073,None,422.2578899000073,None,422.2578899000073,None,422.2578899000073,None,423.25419079999847,None,423.25419079999847,423.75428079999983,,,,,,,,,,,,,,,,017,2022-05-12_18h19.13.347,FishGame,2022.1.1,61.14304476303544,
,39,넌 현명해,2,Orange,A,6.541666666666666,4.533333333333333,ScrollDown,ScrollUp,Orange.png,3,Positive,Congruent,0,0,0,0,,,,,,,,,,,,,,,,,,,,,0,38,38,38,,,,,,,,,,,,,,,,,,,,,,,,,,,,,,,,,,,,,,,,,,,,,,,,,,,,,,,,,,,,,,,,,,,,,,,,,,,,,1,1.0267163999960758,424.38704770000186,None,ScrollDown,정답입니다,424.38704770000186,None,424.38704770000186,None,424.38704770000186,None,424.38704770000186,None,425.31861709999794,None,425.31861709999794,425.8209377000021,,,,,,,,,,,,,,,,017,2022-05-12_18h19.13.347,FishGame,2022.1.1,61.14304476303544,
,40,넌 수줍어,3,Green,B,3.541666666666666,4.366666666666666,ScrollUp,ScrollDown,Green.png,3,Neutral,Neutral,0,0,0,0,,,,,,,,,,,,,,,,,,,,,0,39,39,39,,,,,,,,,,,,,,,,,,,,,,,,,,,,,,,,,,,,,,,,,,,,,,,,,,,,,,,,,,,,,,,,,,,,,,,,,,,,,2,1.459136799996486,426.44483330000367,None,ScrollUp,정답입니다,426.44483330000367,None,426.44483330000367,None,426.44483330000367,None,426.44483330000367,None,427.80193240000517,None,427.80193240000517,428.3019357000012,,,,,,,,,,,,,,,,017,2022-05-12_18h19.13.347,FishGame,2022.1.1,61.14304476303544,
,41,나를 데려가줘,6,Green,B,0,0,ScrollDown,ScrollUp,Green.png,3,NonTarget,NonTarget,0,0,0,0,,,,,,,,,,,,,,,,,,,,,0,40,40,40,,,,,,,,,,,,,,,,,,,,,,,,,,,,,,,,,,,,,,,,,,,,,,,,,,,,,,,,,,,,,,,,,,,,,,,,,,,,,1.0432098706563313,1.012954499994521,428.918170200006,None,ScrollDown,정답입니다,428.918170200006,None,428.918170200006,None,428.918170200006,None,428.918170200006,None,429.8351604000054,None,429.8351604000054,430.3352862000029,,,,,,,,,,,,,,,,017,2022-05-12_18h19.13.347,FishGame,2022.1.1,61.14304476303544,
,42,넌 성숙해,2,Green,B,5.833333333333333,4.533333333333333,ScrollUp,ScrollDown,Green.png,3,Positive,Incongruent,0,0,0,0,,,,,,,,,,,,,,,,,,,,,0,41,41,41,,,,,,,,,,,,,,,,,,,,,,,,,,,,,,,,,,,,,,,,,,,,,,,,,,,,,,,,,,,,,,,,,,,,,,,,,,,,,2,1.0128125000046566,430.9542967000016,None,ScrollUp,정답입니다,430.9542967000016,None,430.9542967000016,None,430.9542967000016,None,430.9542967000016,None,431.8706356000039,None,431.8706356000039,432.3706683000055,,,,,,,,,,,,,,,,017,2022-05-12_18h19.13.347,FishGame,2022.1.1,61.14304476303544,
,1,넌 매력적이야,2,Green,B,6.125,4.666666666666667,ScrollUp,ScrollDown,Green.png,4,Positive,Incongruent,0,0,0,0,,,,,,,,,,,,,,,,,,,,,,,,,0,0,0,0,,,,,,,,,,,,,,,,,,,,,,,,,,,,,,,,464.1734736000071,465.68455980000726,465.701152300011,466.65351290001126,466.7034816000087,467.65349720000813,467.65349720000813,None,,,,,,,,,,,,,,,,,,,,,,,,,,,,,,,,,,1.9212963084379833,1.1549334000010276,468.75025370001094,None,ScrollUp,정답입니다,468.75025370001094,None,468.75025370001094,None,468.75025370001094,None,468.75025370001094,None,469.80325900000753,None,469.80325900000753,470.30111800000304,432.8707859999995,None,432.8707859999995,None,-0.019444445,-0.108333334,1,0,0,0.016403279980295338,None,462.8845669000002,None,,,017,2022-05-12_18h19.13.347,FishGame,2022.1.1,61.14304476303544,
,2,나를 보내줘,6,Orange,A,0,0,ScrollUp,ScrollDown,Orange.png,4,NonTarget,NonTarget,0,0,0,0,,,,,,,,,,,,,,,,,,,,,,,,,0,1,1,1,,,,,,,,,,,,,,,,,,,,,,,,,,,,,,,,,,,,,,,,,,,,,,,,,,,,,,,,,,,,,,,,,,,,,,,,,1.799382706483205,1.0625624999956926,470.9164946000092,None,ScrollUp,정답입니다,470.9164946000092,None,470.9164946000092,None,470.9164946000092,None,470.9164946000092,None,471.88429840000754,None,471.88429840000754,472.38651070000196,,,,,,,,,,,,,,,,017,2022-05-12_18h19.13.347,FishGame,2022.1.1,61.14304476303544,
,3,넌 조심스러워,3,Orange,A,4.791666666666666,4.666666666666667,ScrollDown,ScrollUp,Orange.png,4,Neutral,Neutral,0,0,0,0,,,,,,,,,,,,,,,,,,,,,,,,,0,2,2,2,,,,,,,,,,,,,,,,,,,,,,,,,,,,,,,,,,,,,,,,,,,,,,,,,,,,,,,,,,,,,,,,,,,,,,,,,1,0.9286543999915011,473.002859900007,None,ScrollDown,정답입니다,473.002859900007,None,473.002859900007,None,473.002859900007,None,473.002859900007,None,473.83432280000125,None,473.83432280000125,474.3343506000092,,,,,,,,,,,,,,,,017,2022-05-12_18h19.13.347,FishGame,2022.1.1,61.14304476303544,
,4,넌 철학적이야,3,Green,B,4.5,4.266666666666667,ScrollUp,ScrollDown,Green.png,4,Neutral,Neutral,0,0,0,0,,,,,,,,,,,,,,,,,,,,,,,,,0,3,3,3,,,,,,,,,,,,,,,,,,,,,,,,,,,,,,,,,,,,,,,,,,,,,,,,,,,,,,,,,,,,,,,,,,,,,,,,,1.9413580397764842,1.1602895999967586,474.959723500011,None,ScrollUp,정답입니다,474.959723500011,None,474.959723500011,None,474.959723500011,None,474.959723500011,None,476.01776490001066,None,476.01776490001066,476.5199380000122,,,,,,,,,,,,,,,,017,2022-05-12_18h19.13.347,FishGame,2022.1.1,61.14304476303544,
,5,넌 쩨쩨해,5,Orange,A,2.375,2.133333333333333,ScrollDown,ScrollUp,Orange.png,4,Negative,Incongruent,0,0,0,0,,,,,,,,,,,,,,,,,,,,,,,,,0,4,4,4,,,,,,,,,,,,,,,,,,,,,,,,,,,,,,,,,,,,,,,,,,,,,,,,,,,,,,,,,,,,,,,,,,,,,,,,,1.0972222338120143,0.8758292999991681,477.1405075000075,None,ScrollDown,정답입니다,477.1405075000075,None,477.1405075000075,None,477.1405075000075,None,477.1405075000075,None,477.9176053000119,None,477.9176053000119,478.42337230000703,,,,,,,,,,,,,,,,017,2022-05-12_18h19.13.347,FishGame,2022.1.1,61.14304476303544,
,6,나를 데려가줘,6,Green,B,0,0,ScrollDown,ScrollUp,Green.png,4,NonTarget,NonTarget,0,0,0,0,,,,,,,,,,,,,,,,,,,,,,,,,0,5,5,5,,,,,,,,,,,,,,,,,,,,,,,,,,,,,,,,,,,,,,,,,,,,,,,,,,,,,,,,,,,,,,,,,,,,,,,,,1,1.0442673999932595,479.04008299999987,None,ScrollDown,정답입니다,479.04008299999987,None,479.04008299999987,None,479.04008299999987,None,479.04008299999987,None,479.98422830000345,None,479.98422830000345,480.4842432000005,,,,,,,,,,,,,,,,017,2022-05-12_18h19.13.347,FishGame,2022.1.1,61.14304476303544,
,7,넌 고집불통이야,5,Green,B,2.875,2,ScrollUp,ScrollDown,Green.png,4,Negative,Congruent,0,0,0,0,,,,,,,,,,,,,,,,,,,,,,,,,0,6,6,6,,,,,,,,,,,,,,,,,,,,,,,,,,,,,,,,,,,,,,,,,,,,,,,,,,,,,,,,,,,,,,,,,,,,,,,,,2,0.9765494000021135,481.1070480000053,None,ScrollUp,정답입니다,481.1070480000053,None,481.1070480000053,None,481.1070480000053,None,481.1070480000053,None,481.9842123999988,None,481.9842123999988,482.48637170001166,,,,,,,,,,,,,,,,017,2022-05-12_18h19.13.347,FishGame,2022.1.1,61.14304476303544,
,8,넌 무심해,4,Orange,A,2.875,3.2,ScrollDown,ScrollUp,Orange.png,4,Negative,Incongruent,0,0,0,0,,,,,,,,,,,,,,,,,,,,,,,,,0,7,7,7,,,,,,,,,,,,,,,,,,,,,,,,,,,,,,,,,,,,,,,,,,,,,,,,,,,,,,,,,,,,,,,,,,,,,,,,,1.0385802288850148,0.9275034000020241,483.1058567,None,ScrollDown,정답입니다,483.1058567,None,483.1058567,None,483.1058567,None,483.1058567,None,483.9340480000101,None,483.9340480000101,484.434130300011,,,,,,,,,,,,,,,,017,2022-05-12_18h19.13.347,FishGame,2022.1.1,61.14304476303544,
,9,넌 정겨워,1,Orange,A,5.791666666666667,5.666666666666667,ScrollDown,ScrollUp,Orange.png,4,Positive,Congruent,0,0,0,0,,,,,,,,,,,,,,,,,,,,,,,,,0,8,8,8,,,,,,,,,,,,,,,,,,,,,,,,,,,,,,,,,,,,,,,,,,,,,,,,,,,,,,,,,,,,,,,,,,,,,,,,,1.0848765472571056,1.0774407999997493,485.06733720000193,None,ScrollDown,정답입니다,485.06733720000193,None,485.06733720000193,None,485.06733720000193,None,485.06733720000193,None,486.03402380000625,None,486.03402380000625,486.53624539999873,,,,,,,,,,,,,,,,017,2022-05-12_18h19.13.347,FishGame,2022.1.1,61.14304476303544,
,10,나를 데려가줘,6,Green,B,0,0,ScrollDown,ScrollUp,Green.png,4,NonTarget,NonTarget,0,0,0,0,,,,,,,,,,,,,,,,,,,,,,,,,0,9,9,9,,,,,,,,,,,,,,,,,,,,,,,,,,,,,,,,,,,,,,,,,,,,,,,,,,,,,,,,,,,,,,,,,,,,,,,,,1.0370370149612427,0.8769717999966815,487.1543193000107,None,ScrollDown,정답입니다,487.1543193000107,None,487.1543193000107,None,487.1543193000107,None,487.1543193000107,None,487.9363139000052,None,487.9363139000052,488.4507753000071,,,,,,,,,,,,,,,,017,2022-05-12_18h19.13.347,FishGame,2022.1.1,61.14304476303544,
,11,넌 체제순응적이야,4,Green,B,3,3.6,ScrollUp,ScrollDown,Green.png,4,Negative,Congruent,0,0,0,0,,,,,,,,,,,,,,,,,,,,,,,,,0,10,10,10,,,,,,,,,,,,,,,,,,,,,,,,,,,,,,,,,,,,,,,,,,,,,,,,,,,,,,,,,,,,,,,,,,,,,,,,,1.8009259204069774,1.1299798999971244,489.0772275000054,None,ScrollUp,정답입니다,489.0772275000054,None,489.0772275000054,None,489.0772275000054,None,489.0772275000054,None,490.10063260000607,None,490.10063260000607,490.60063340001216,,,,,,,,,,,,,,,,017,2022-05-12_18h19.13.347,FishGame,2022.1.1,61.14304476303544,
,12,나를 보내줘,6,Orange,A,0,0,ScrollUp,ScrollDown,Orange.png,4,NonTarget,NonTarget,0,0,0,0,,,,,,,,,,,,,,,,,,,,,,,,,0,11,11,11,,,,,,,,,,,,,,,,,,,,,,,,,,,,,,,,,,,,,,,,,,,,,,,,,,,,,,,,,,,,,,,,,,,,,,,,,1.9166666666666667,1.0109061999974074,491.2280923000071,None,ScrollUp,정답입니다,491.2280923000071,None,491.2280923000071,None,491.2280923000071,None,491.2280923000071,None,492.1362148000044,None,492.1362148000044,492.65285620000213,,,,,,,,,,,,,,,,017,2022-05-12_18h19.13.347,FishGame,2022.1.1,61.14304476303544,
,13,넌 박식해,2,Orange,A,5.625,3.933333333333333,ScrollDown,ScrollUp,Orange.png,4,Positive,Congruent,0,0,0,0,,,,,,,,,,,,,,,,,,,,,,,,,0,12,12,12,,,,,,,,,,,,,,,,,,,,,,,,,,,,,,,,,,,,,,,,,,,,,,,,,,,,,,,,,,,,,,,,,,,,,,,,,1.095679019888242,1.1118694999895524,493.27344879999873,None,ScrollDown,정답입니다,493.27344879999873,None,493.27344879999873,None,493.27344879999873,None,493.27344879999873,None,494.2839348999987,None,494.2839348999987,494.78605160000734,,,,,,,,,,,,,,,,017,2022-05-12_18h19.13.347,FishGame,2022.1.1,61.14304476303544,
,14,나를 보내줘,6,Orange,A,0,0,ScrollUp,ScrollDown,Orange.png,4,NonTarget,NonTarget,0,0,0,0,,,,,,,,,,,,,,,,,,,,,,,,,0,13,13,13,,,,,,,,,,,,,,,,,,,,,,,,,,,,,,,,,,,,,,,,,,,,,,,,,,,,,,,,,,,,,,,,,,,,,,,,,2,1.0442075999890221,495.40625790000195,None,ScrollUp,정답입니다,495.40625790000195,None,495.40625790000195,None,495.40625790000195,None,495.40625790000195,None,496.35056940000504,None,496.35056940000504,496.85278330001165,,,,,,,,,,,,,,,,017,2022-05-12_18h19.13.347,FishGame,2022.1.1,61.14304476303544,
,15,넌 침착해,1,Green,B,5.458333333333333,5.566666666666666,ScrollUp,ScrollDown,Green.png,4,Positive,Incongruent,0,0,0,0,,,,,,,,,,,,,,,,,,,,,,,,,0,14,14,14,,,,,,,,,,,,,,,,,,,,,,,,,,,,,,,,,,,,,,,,,,,,,,,,,,,,,,,,,,,,,,,,,,,,,,,,,1.9845678806304932,1.1271249999990687,497.4706210000004,None,ScrollUp,정답입니다,497.4706210000004,None,497.4706210000004,None,497.4706210000004,None,497.4706210000004,None,498.5004351000098,None,498.5004351000098,499.0026163000002,,,,,,,,,,,,,,,,017,2022-05-12_18h19.13.347,FishGame,2022.1.1,61.14304476303544,
,16,나를 데려가줘,6,Green,B,0,0,ScrollDown,ScrollUp,Green.png,4,NonTarget,NonTarget,0,0,0,0,,,,,,,,,,,,,,,,,,,,,,,,,0,15,15,15,,,,,,,,,,,,,,,,,,,,,,,,,,,,,,,,,,,,,,,,,,,,,,,,,,,,,,,,,,,,,,,,,,,,,,,,,1.0925925920406978,0.9627928000118118,499.618839200004,None,ScrollDown,정답입니다,499.618839200004,None,499.618839200004,None,499.618839200004,None,499.618839200004,None,500.48375120000856,None,500.48375120000856,500.9838055,,,,,,,,,,,,,,,,017,2022-05-12_18h19.13.347,FishGame,2022.1.1,61.14304476303544,
,17,넌 행복해,1,Orange,A,6.416666666666666,6.166666666666667,ScrollDown,ScrollUp,Orange.png,4,Positive,Congruent,0,0,0,0,,,,,,,,,,,,,,,,,,,,,,,,,0,16,16,16,,,,,,,,,,,,,,,,,,,,,,,,,,,,,,,,,,,,,,,,,,,,,,,,,,,,,,,,,,,,,,,,,,,,,,,,,1.1790123482545216,0.843267599993851,501.60839160000614,None,ScrollDown,정답입니다,501.60839160000614,None,501.60839160000614,None,501.60839160000614,None,501.60839160000614,None,502.3504180000018,None,502.3504180000018,502.8504719000048,,,,,,,,,,,,,,,,017,2022-05-12_18h19.13.347,FishGame,2022.1.1,61.14304476303544,
,18,넌 겸손해,2,Green,B,5.791666666666667,4.766666666666667,ScrollUp,ScrollDown,Green.png,4,Positive,Incongruent,0,0,0,0,,,,,,,,,,,,,,,,,,,,,,,,,0,17,17,17,,,,,,,,,,,,,,,,,,,,,,,,,,,,,,,,,,,,,,,,,,,,,,,,,,,,,,,,,,,,,,,,,,,,,,,,,1.9675925771395366,1.0293080999981612,503.4726081999979,None,ScrollUp,정답입니다,503.4726081999979,None,503.4726081999979,None,503.4726081999979,None,503.4726081999979,None,504.4003223000036,None,504.4003223000036,504.9003425000119,,,,,,,,,,,,,,,,017,2022-05-12_18h19.13.347,FishGame,2022.1.1,61.14304476303544,
,19,나를 보내줘,6,Orange,A,0,0,ScrollUp,ScrollDown,Orange.png,4,NonTarget,NonTarget,0,0,0,0,,,,,,,,,,,,,,,,,,,,,,,,,0,18,18,18,,,,,,,,,,,,,,,,,,,,,,,,,,,,,,,,,,,,,,,,,,,,,,,,,,,,,,,,,,,,,,,,,,,,,,,,,1.8518518557151158,1.0591382999991765,505.5226354000042,None,ScrollUp,정답입니다,505.5226354000042,None,505.5226354000042,None,505.5226354000042,None,505.5226354000042,None,506.4836561999982,None,506.4836561999982,506.985831900005,,,,,,,,,,,,,,,,017,2022-05-12_18h19.13.347,FishGame,2022.1.1,61.14304476303544,
,20,넌 의심없어,3,Orange,A,4.166666666666667,4.6,ScrollDown,ScrollUp,Orange.png,4,Neutral,Neutral,0,0,0,0,,,,,,,,,,,,,,,,,,,,,,,,,0,19,19,19,,,,,,,,,,,,,,,,,,,,,,,,,,,,,,,,,,,,,,,,,,,,,,,,,,,,,,,,,,,,,,,,,,,,,,,,,1.1466049303611119,1.0408746000030078,507.6099527000042,None,ScrollDown,정답입니다,507.6099527000042,None,507.6099527000042,None,507.6099527000042,None,507.6099527000042,None,508.5455989000038,None,508.5455989000038,509.0500630000024,,,,,,,,,,,,,,,,017,2022-05-12_18h19.13.347,FishGame,2022.1.1,61.14304476303544,
,21,넌 시시해,4,Orange,A,2.666666666666667,2.966666666666667,ScrollDown,ScrollUp,Orange.png,4,Negative,Incongruent,0,0,0,0,,,,,,,,,,,,,,,,,,,,,,,,,0,20,20,20,,,,,,,,,,,,,,,,,,,,,,,,,,,,,,,,,,,,,,,,,,,,,,,,,,,,,,,,,,,,,,,,,,,,,,,,,1.0740740497907002,0.9963242999947397,509.66690370001015,None,ScrollDown,정답입니다,509.66690370001015,None,509.66690370001015,None,509.66690370001015,None,509.66690370001015,None,510.5667250999977,None,510.5667250999977,511.06674960000964,,,,,,,,,,,,,,,,017,2022-05-12_18h19.13.347,FishGame,2022.1.1,61.14304476303544,
,22,나를 데려가줘,6,Green,B,0,0,ScrollDown,ScrollUp,Green.png,4,NonTarget,NonTarget,0,0,0,0,,,,,,,,,,,,,,,,,,,,,,,,,0,21,21,21,,,,,,,,,,,,,,,,,,,,,,,,,,,,,,,,,,,,,,,,,,,,,,,,,,,,,,,,,,,,,,,,,,,,,,,,,1.1466049303611119,1.027825799988932,511.68487000001187,None,ScrollDown,정답입니다,511.68487000001187,None,511.68487000001187,None,511.68487000001187,None,511.68487000001187,None,512.6191411000036,None,512.6191411000036,513.1191727000114,,,,,,,,,,,,,,,,017,2022-05-12_18h19.13.347,FishGame,2022.1.1,61.14304476303544,
,23,넌 무정해,5,Orange,A,2.5,2.2,ScrollDown,ScrollUp,Orange.png,4,Negative,Incongruent,0,0,0,0,,,,,,,,,,,,,,,,,,,,,,,,,0,22,22,22,,,,,,,,,,,,,,,,,,,,,,,,,,,,,,,,,,,,,,,,,,,,,,,,,,,,,,,,,,,,,,,,,,,,,,,,,1.1481481442848842,1.4622824999969453,513.7395238000026,None,ScrollDown,정답입니다,513.7395238000026,None,513.7395238000026,None,513.7395238000026,None,513.7395238000026,None,515.0998671999987,None,515.0998671999987,515.5999247,,,,,,,,,,,,,,,,017,2022-05-12_18h19.13.347,FishGame,2022.1.1,61.14304476303544,
,24,넌 긍정적이야,1,Green,B,6.041666666666667,6.066666666666666,ScrollUp,ScrollDown,Green.png,4,Positive,Incongruent,0,0,0,0,,,,,,,,,,,,,,,,,,,,,,,,,0,23,23,23,,,,,,,,,,,,,,,,,,,,,,,,,,,,,,,,,,,,,,,,,,,,,,,,,,,,,,,,,,,,,,,,,,,,,,,,,1.879629631837209,0.9783766000036849,516.2168944000005,None,ScrollUp,정답입니다,516.2168944000005,None,516.2168944000005,None,516.2168944000005,None,516.2168944000005,None,517.1024758999993,None,517.1024758999993,517.6024199000094,,,,,,,,,,,,,,,,017,2022-05-12_18h19.13.347,FishGame,2022.1.1,61.14304476303544,
,25,나를 보내줘,6,Orange,A,0,0,ScrollUp,ScrollDown,Orange.png,4,NonTarget,NonTarget,0,0,0,0,,,,,,,,,,,,,,,,,,,,,,,,,0,24,24,24,,,,,,,,,,,,,,,,,,,,,,,,,,,,,,,,,,,,,,,,,,,,,,,,,,,,,,,,,,,,,,,,,,,,,,,,,1.7901234477758408,0.9591166000027442,518.2243503000063,None,ScrollUp,정답입니다,518.2243503000063,None,518.2243503000063,None,518.2243503000063,None,518.2243503000063,None,519.0887981999986,None,519.0887981999986,519.6022377000045,,,,,,,,,,,,,,,,017,2022-05-12_18h19.13.347,FishGame,2022.1.1,61.14304476303544,
,26,넌 시기심이 많아,5,Green,B,2.458333333333333,2.233333333333333,ScrollUp,ScrollDown,Green.png,4,Negative,Congruent,0,0,0,0,,,,,,,,,,,,,,,,,,,,,,,,,0,25,25,25,,,,,,,,,,,,,,,,,,,,,,,,,,,,,,,,,,,,,,,,,,,,,,,,,,,,,,,,,,,,,,,,,,,,,,,,,1.663580241302649,0.9615966999990633,520.221818200007,None,ScrollUp,정답입니다,520.221818200007,None,520.221818200007,None,520.221818200007,None,520.221818200007,None,521.0833523000038,None,521.0833523000038,521.5834112000011,,,,,,,,,,,,,,,,017,2022-05-12_18h19.13.347,FishGame,2022.1.1,61.14304476303544,
,27,넌 탁월해,2,Orange,A,5.708333333333334,4.5,ScrollDown,ScrollUp,Orange.png,4,Positive,Congruent,0,0,0,0,,,,,,,,,,,,,,,,,,,,,,,,,0,26,26,26,,,,,,,,,,,,,,,,,,,,,,,,,,,,,,,,,,,,,,,,,,,,,,,,,,,,,,,,,,,,,,,,,,,,,,,,,1.2777777661879859,0.7781679999898188,522.2155215000093,None,ScrollDown,정답입니다,522.2155215000093,None,522.2155215000093,None,522.2155215000093,None,522.2155215000093,None,522.8855182000116,None,522.8855182000116,523.402139400001,,,,,,,,,,,,,,,,017,2022-05-12_18h19.13.347,FishGame,2022.1.1,61.14304476303544,
,28,나를 데려가줘,6,Green,B,0,0,ScrollDown,ScrollUp,Green.png,4,NonTarget,NonTarget,0,0,0,0,,,,,,,,,,,,,,,,,,,,,,,,,0,27,27,27,,,,,,,,,,,,,,,,,,,,,,,,,,,,,,,,,,,,,,,,,,,,,,,,,,,,,,,,,,,,,,,,,,,,,,,,,1.160493830839793,0.995586800010642,524.0216598000115,None,ScrollDown,정답입니다,524.0216598000115,None,524.0216598000115,None,524.0216598000115,None,524.0216598000115,None,524.9165638000122,None,524.9165638000122,525.4187843000109,,,,,,,,,,,,,,,,017,2022-05-12_18h19.13.347,FishGame,2022.1.1,61.14304476303544,
,29,넌 조용해,3,Green,B,4.333333333333333,4.166666666666667,ScrollUp,ScrollDown,Green.png,4,Neutral,Neutral,0,0,0,0,,,,,,,,,,,,,,,,,,,,,,,,,0,28,28,28,,,,,,,,,,,,,,,,,,,,,,,,,,,,,,,,,,,,,,,,,,,,,,,,,,,,,,,,,,,,,,,,,,,,,,,,,1.8765432039896648,1.1256757999944966,526.036580800006,None,ScrollUp,정답입니다,526.036580800006,None,526.036580800006,None,526.036580800006,None,526.036580800006,None,527.0666010999994,None,527.0666010999994,527.5689928000065,,,,,,,,,,,,,,,,017,2022-05-12_18h19.13.347,FishGame,2022.1.1,61.14304476303544,
,30,넌 다정해,1,Orange,A,5.833333333333334,5.7,ScrollDown,ScrollUp,Orange.png,4,Positive,Congruent,0,0,0,0,,,,,,,,,,,,,,,,,,,,,,,,,0,29,29,29,,,,,,,,,,,,,,,,,,,,,,,,,,,,,,,,,,,,,,,,,,,,,,,,,,,,,,,,,,,,,,,,,,,,,,,,,1.32253085821867,0.7589974000002258,528.1869908000081,None,ScrollDown,정답입니다,528.1869908000081,None,528.1869908000081,None,528.1869908000081,None,528.1869908000081,None,528.8498260000051,None,528.8498260000051,529.3498751000006,,,,,,,,,,,,,,,,017,2022-05-12_18h19.13.347,FishGame,2022.1.1,61.14304476303544,
,31,넌 능력있어,2,Green,B,6.166666666666666,4.6,ScrollUp,ScrollDown,Green.png,4,Positive,Incongruent,0,0,0,0,,,,,,,,,,,,,,,,,,,,,,,,,0,30,30,30,,,,,,,,,,,,,,,,,,,,,,,,,,,,,,,,,,,,,,,,,,,,,,,,,,,,,,,,,,,,,,,,,,,,,,,,,1.9814815024534862,1.0611782999912975,529.9678972000111,None,ScrollUp,정답입니다,529.9678972000111,None,529.9678972000111,None,529.9678972000111,None,529.9678972000111,None,530.9331406999991,None,530.9331406999991,531.4332018999994,,,,,,,,,,,,,,,,017,2022-05-12_18h19.13.347,FishGame,2022.1.1,61.14304476303544,
,32,넌 불쾌해,5,Orange,A,2.125,1.933333333333333,ScrollDown,ScrollUp,Orange.png,4,Negative,Incongruent,0,0,0,0,,,,,,,,,,,,,,,,,,,,,,,,,0,31,31,31,,,,,,,,,,,,,,,,,,,,,,,,,,,,,,,,,,,,,,,,,,,,,,,,,,,,,,,,,,,,,,,,,,,,,,,,,1.0370370149612427,0.9441320000041742,532.0527333000064,None,ScrollDown,정답입니다,532.0527333000064,None,532.0527333000064,None,532.0527333000064,None,532.0527333000064,None,532.9019620000036,None,532.9019620000036,533.3998208000121,,,,,,,,,,,,,,,,017,2022-05-12_18h19.13.347,FishGame,2022.1.1,61.14304476303544,
,33,나를 데려가줘,6,Green,B,0,0,ScrollDown,ScrollUp,Green.png,4,NonTarget,NonTarget,0,0,0,0,,,,,,,,,,,,,,,,,,,,,,,,,0,32,32,32,,,,,,,,,,,,,,,,,,,,,,,,,,,,,,,,,,,,,,,,,,,,,,,,,,,,,,,,,,,,,,,,,,,,,,,,,1.1512345721324284,0.944360699999379,534.0235216000001,None,ScrollDown,정답입니다,534.0235216000001,None,534.0235216000001,None,534.0235216000001,None,534.0235216000001,None,534.8664337000082,None,534.8664337000082,535.3664703000104,,,,,,,,,,,,,,,,017,2022-05-12_18h19.13.347,FishGame,2022.1.1,61.14304476303544,
,34,넌 유순해,3,Orange,A,4.458333333333333,5,ScrollDown,ScrollUp,Orange.png,4,Neutral,Neutral,0,0,0,0,,,,,,,,,,,,,,,,,,,,,,,,,0,33,33,33,,,,,,,,,,,,,,,,,,,,,,,,,,,,,,,,,,,,,,,,,,,,,,,,,,,,,,,,,,,,,,,,,,,,,,,,,1.212962955236435,0.9791600999888033,535.9867606000043,None,ScrollDown,정답입니다,535.9867606000043,None,535.9867606000043,None,535.9867606000043,None,535.9867606000043,None,536.866403100008,None,536.866403100008,537.368587600009,,,,,,,,,,,,,,,,017,2022-05-12_18h19.13.347,FishGame,2022.1.1,61.14304476303544,
,35,넌 근심스러워,4,Green,B,2.708333333333333,3.133333333333333,ScrollUp,ScrollDown,Green.png,4,Negative,Congruent,0,0,0,0,,,,,,,,,,,,,,,,,,,,,,,,,0,34,34,34,,,,,,,,,,,,,,,,,,,,,,,,,,,,,,,,,,,,,,,,,,,,,,,,,,,,,,,,,,,,,,,,,,,,,,,,,2,0.9635447000036947,537.9841478000017,None,ScrollUp,정답입니다,537.9841478000017,None,537.9841478000017,None,537.9841478000017,None,537.9841478000017,None,538.8496924000065,None,538.8496924000065,539.3496640000085,,,,,,,,,,,,,,,,017,2022-05-12_18h19.13.347,FishGame,2022.1.1,61.14304476303544,
,36,넌 세련되었어,2,Orange,A,5.5,4.6,ScrollDown,ScrollUp,Orange.png,4,Positive,Congruent,0,0,0,0,,,,,,,,,,,,,,,,,,,,,,,,,0,35,35,35,,,,,,,,,,,,,,,,,,,,,,,,,,,,,,,,,,,,,,,,,,,,,,,,,,,,,,,,,,,,,,,,,,,,,,,,,1.1466049303611119,0.8629687000066042,539.9853807000036,None,ScrollDown,정답입니다,539.9853807000036,None,539.9853807000036,None,539.9853807000036,None,539.9853807000036,None,540.7328832000057,None,540.7328832000057,541.2350998000038,,,,,,,,,,,,,,,,017,2022-05-12_18h19.13.347,FishGame,2022.1.1,61.14304476303544,
,37,나를 보내줘,6,Orange,A,0,0,ScrollUp,ScrollDown,Orange.png,4,NonTarget,NonTarget,0,0,0,0,,,,,,,,,,,,,,,,,,,,,,,,,0,36,36,36,,,,,,,,,,,,,,,,,,,,,,,,,,,,,,,,,,,,,,,,,,,,,,,,,,,,,,,,,,,,,,,,,,,,,,,,,1.7901234477758408,0.8776947000005748,541.8484393000108,None,ScrollUp,정답입니다,541.8484393000108,None,541.8484393000108,None,541.8484393000108,None,541.8484393000108,None,542.6329223000066,None,542.6329223000066,543.1350538999977,,,,,,,,,,,,,,,,017,2022-05-12_18h19.13.347,FishGame,2022.1.1,61.14304476303544,
,38,넌 확고해,3,Green,B,4.708333333333334,4.566666666666666,ScrollUp,ScrollDown,Green.png,4,Neutral,Neutral,0,0,0,0,,,,,,,,,,,,,,,,,,,,,,,,,0,37,37,37,,,,,,,,,,,,,,,,,,,,,,,,,,,,,,,,,,,,,,,,,,,,,,,,,,,,,,,,,,,,,,,,,,,,,,,,,1.0663580298423767,1.0806996000028448,543.7606708000094,None,ScrollDown,오답입니다,543.7606708000094,None,543.7606708000094,None,543.7606708000094,None,543.7606708000094,None,544.7386020000122,None,544.7386020000122,545.2495756999997,,,,,,,,,,,,,,,,017,2022-05-12_18h19.13.347,FishGame,2022.1.1,61.14304476303544,
,39,넌 이해심이 많아,1,Green,B,6.041666666666668,5.533333333333333,ScrollUp,ScrollDown,Green.png,4,Positive,Incongruent,0,0,0,0,,,,,,,,,,,,,,,,,,,,,,,,,0,38,38,38,,,,,,,,,,,,,,,,,,,,,,,,,,,,,,,,,,,,,,,,,,,,,,,,,,,,,,,,,,,,,,,,,,,,,,,,,1.8117283930381138,0.9111338999937288,545.8708774000115,None,ScrollUp,정답입니다,545.8708774000115,None,545.8708774000115,None,545.8708774000115,None,545.8708774000115,None,546.6826426000043,None,546.6826426000043,547.1828683000058,,,,,,,,,,,,,,,,017,2022-05-12_18h19.13.347,FishGame,2022.1.1,61.14304476303544,
,40,나를 보내줘,6,Orange,A,0,0,ScrollUp,ScrollDown,Orange.png,4,NonTarget,NonTarget,0,0,0,0,,,,,,,,,,,,,,,,,,,,,,,,,0,39,39,39,,,,,,,,,,,,,,,,,,,,,,,,,,,,,,,,,,,,,,,,,,,,,,,,,,,,,,,,,,,,,,,,,,,,,,,,,1.7098765472571054,0.9460694000008516,547.8061487000086,None,ScrollUp,정답입니다,547.8061487000086,None,547.8061487000086,None,547.8061487000086,None,547.8061487000086,None,548.6494519999978,None,548.6494519999978,549.1516978,,,,,,,,,,,,,,,,017,2022-05-12_18h19.13.347,FishGame,2022.1.1,61.14304476303544,
,41,넌 거칠어,4,Orange,A,2.625,3.033333333333333,ScrollDown,ScrollUp,Orange.png,4,Negative,Incongruent,0,0,0,0,,,,,,,,,,,,,,,,,,,,,,,,,0,40,40,40,,,,,,,,,,,,,,,,,,,,,,,,,,,,,,,,,,,,,,,,,,,,,,,,,,,,,,,,,,,,,,,,,,,,,,,,,1.0108024775981903,1.060674199994537,549.7721078000031,None,ScrollDown,정답입니다,549.7721078000031,None,549.7721078000031,None,549.7721078000031,None,549.7721078000031,None,550.7326978000056,None,550.7326978000056,551.2327415000036,,,,,,,,,,,,,,,,017,2022-05-12_18h19.13.347,FishGame,2022.1.1,61.14304476303544,
,42,넌 변덕맞아,5,Green,B,2.75,2.166666666666667,ScrollUp,ScrollDown,Green.png,4,Negative,Congruent,0,0,0,0,,,,,,,,,,,,,,,,,,,,,,,,,0,41,41,41,,,,,,,,,,,,,,,,,,,,,,,,,,,,,,,,,,,,,,,,,,,,,,,,,,,,,,,,,,,,,,,,,,,,,,,,,1.751543199022611,1.0128671999991639,551.8570325000037,None,ScrollUp,정답입니다,551.8570325000037,None,551.8570325000037,None,551.8570325000037,None,551.8570325000037,None,552.7660612000036,None,552.7660612000036,553.2661043000116,,,,,,,,,,,,,,,,017,2022-05-12_18h19.13.347,FishGame,2022.1.1,61.14304476303544,
,43,나를 데려가줘,6,Green,B,0,0,ScrollDown,ScrollUp,Green.png,4,NonTarget,NonTarget,0,0,0,0,,,,,,,,,,,,,,,,,,,,,,,,,0,42,42,42,,,,,,,,,,,,,,,,,,,,,,,,,,,,,,,,,,,,,,,,,,,,,,,,,,,,,,,,,,,,,,,,,,,,,,,,,1.1188271542390187,0.9141869000013685,553.8783340000082,None,ScrollDown,정답입니다,553.8783340000082,None,553.8783340000082,None,553.8783340000082,None,553.8783340000082,None,554.7015626000066,None,554.7015626000066,555.2159825999988,,,,,,,,,,,,,,,,017,2022-05-12_18h19.13.347,FishGame,2022.1.1,61.14304476303544,
,44,넌 외로워,4,Green,B,2.833333333333333,3.3,ScrollUp,ScrollDown,Green.png,4,Negative,Congruent,0,0,0,0,,,,,,,,,,,,,,,,,,,,,,,,,0,43,43,43,,,,,,,,,,,,,,,,,,,,,,,,,,,,,,,,,,,,,,,,,,,,,,,,,,,,,,,,,,,,,,,,,,,,,,,,,2,1.1636265000124695,555.8334189000016,None,ScrollUp,정답입니다,555.8334189000016,None,555.8334189000016,None,555.8334189000016,None,555.8334189000016,None,556.8993288000056,None,556.8993288000056,557.3993130000017,,,,,,,,,,,,,,,,017,2022-05-12_18h19.13.347,FishGame,2022.1.1,61.14304476303544,
,1,넌 불평스러워,5,Orange,A,2.25,2.066666666666667,ScrollDown,ScrollUp,Orange.png,5,Negative,Incongruent,0,0,0,0,,,,,,,,,,,,,,,,,,,,,,,,,,,,,0,0,0,0,,,,,,,,,,,,,,,,,,,,,,,,,,,,588.682131900001,590.1822794000036,590.2157021000021,591.1654381999979,591.2153325000108,592.1661247000011,592.1661247000011,None,,,,,,,,,,,,,,,,,,,,,,,,,,,,,,,,,,1.2021604826052983,0.9762030999991111,593.2511357000039,None,ScrollDown,정답입니다,593.2511357000039,None,593.2511357000039,None,593.2511357000039,None,593.2511357000039,None,594.1341072000068,None,594.1341072000068,594.6376809000067,557.89936760001,None,557.89936760001,None,0.20277777,-0.27592593,1,0,0,0.016093780010123737,None,587.9007355000067,None,,,017,2022-05-12_18h19.13.347,FishGame,2022.1.1,61.14304476303544,
,2,나를 보내줘,6,Orange,A,0,0,ScrollUp,ScrollDown,Orange.png,5,NonTarget,NonTarget,0,0,0,0,,,,,,,,,,,,,,,,,,,,,,,,,,,,,0,1,1,1,,,,,,,,,,,,,,,,,,,,,,,,,,,,,,,,,,,,,,,,,,,,,,,,,,,,,,,,,,,,,,,,,,,,,1.8364197413126628,1.0450190999981714,595.2659268999996,None,ScrollUp,정답입니다,595.2659268999996,None,595.2659268999996,None,595.2659268999996,None,595.2659268999996,None,596.215099100009,None,596.215099100009,596.7173218000098,,,,,,,,,,,,,,,,017,2022-05-12_18h19.13.347,FishGame,2022.1.1,61.14304476303544,
,3,넌 다재다능해,2,Green,B,6.208333333333333,4.5,ScrollUp,ScrollDown,Green.png,5,Positive,Incongruent,0,0,0,0,,,,,,,,,,,,,,,,,,,,,,,,,,,,,0,2,2,2,,,,,,,,,,,,,,,,,,,,,,,,,,,,,,,,,,,,,,,,,,,,,,,,,,,,,,,,,,,,,,,,,,,,,2,1.065401700005168,597.3341278000007,None,ScrollUp,정답입니다,597.3341278000007,None,597.3341278000007,None,597.3341278000007,None,597.3341278000007,None,598.2984593000001,None,598.2984593000001,598.8006597000058,,,,,,,,,,,,,,,,017,2022-05-12_18h19.13.347,FishGame,2022.1.1,61.14304476303544,
,4,넌 과감해,3,Orange,A,4.833333333333334,4.6,ScrollDown,ScrollUp,Orange.png,5,Neutral,Neutral,0,0,0,0,,,,,,,,,,,,,,,,,,,,,,,,,,,,,0,3,3,3,,,,,,,,,,,,,,,,,,,,,,,,,,,,,,,,,,,,,,,,,,,,,,,,,,,,,,,,,,,,,,,,,,,,,1.0910493781169255,0.9104592000076082,599.4182188999985,None,ScrollDown,정답입니다,599.4182188999985,None,599.4182188999985,None,599.4182188999985,None,599.4182188999985,None,600.2314694000088,None,600.2314694000088,600.7315429000009,,,,,,,,,,,,,,,,017,2022-05-12_18h19.13.347,FishGame,2022.1.1,61.14304476303544,
,5,넌 고분고분해,3,Green,B,3.75,4.033333333333333,ScrollUp,ScrollDown,Green.png,5,Neutral,Neutral,0,0,0,0,,,,,,,,,,,,,,,,,,,,,,,,,,,,,0,4,4,4,,,,,,,,,,,,,,,,,,,,,,,,,,,,,,,,,,,,,,,,,,,,,,,,,,,,,,,,,,,,,,,,,,,,,1.9228395223617554,0.9298089999938384,601.3501306000107,None,ScrollUp,정답입니다,601.3501306000107,None,601.3501306000107,None,601.3501306000107,None,601.3501306000107,None,602.1814779999986,None,602.1814779999986,602.6840425000119,,,,,,,,,,,,,,,,017,2022-05-12_18h19.13.347,FishGame,2022.1.1,61.14304476303544,
,6,나를 보내줘,6,Orange,A,0,0,ScrollUp,ScrollDown,Orange.png,5,NonTarget,NonTarget,0,0,0,0,,,,,,,,,,,,,,,,,,,,,,,,,,,,,0,5,5,5,,,,,,,,,,,,,,,,,,,,,,,,,,,,,,,,,,,,,,,,,,,,,,,,,,,,,,,,,,,,,,,,,,,,,1.9351851840813954,0.8957955000078073,603.3025827000092,None,ScrollUp,정답입니다,603.3025827000092,None,603.3025827000092,None,603.3025827000092,None,603.3025827000092,None,604.1006224000012,None,604.1006224000012,604.6150324000046,,,,,,,,,,,,,,,,017,2022-05-12_18h19.13.347,FishGame,2022.1.1,61.14304476303544,
,7,넌 잘 잊어,4,Orange,A,3,3.7,ScrollDown,ScrollUp,Orange.png,5,Negative,Incongruent,0,0,0,0,,,,,,,,,,,,,,,,,,,,,,,,,,,,,0,6,6,6,,,,,,,,,,,,,,,,,,,,,,,,,,,,,,,,,,,,,,,,,,,,,,,,,,,,,,,,,,,,,,,,,,,,,1.0555555323759716,0.927672599995276,605.2233629000111,None,ScrollDown,정답입니다,605.2233629000111,None,605.2233629000111,None,605.2233629000111,None,605.2233629000111,None,606.0504815000022,None,606.0504815000022,606.5505373000051,,,,,,,,,,,,,,,,017,2022-05-12_18h19.13.347,FishGame,2022.1.1,61.14304476303544,
,8,넌 탐구심이없어,4,Green,B,2.833333333333333,3.066666666666667,ScrollUp,ScrollDown,Green.png,5,Negative,Congruent,0,0,0,0,,,,,,,,,,,,,,,,,,,,,,,,,,,,,0,7,7,7,,,,,,,,,,,,,,,,,,,,,,,,,,,,,,,,,,,,,,,,,,,,,,,,,,,,,,,,,,,,,,,,,,,,,1.8132716069618862,1.025397100005648,607.1735989000008,None,ScrollUp,정답입니다,607.1735989000008,None,607.1735989000008,None,607.1735989000008,None,607.1735989000008,None,608.0979749000107,None,608.0979749000107,608.5980377000087,,,,,,,,,,,,,,,,017,2022-05-12_18h19.13.347,FishGame,2022.1.1,61.14304476303544,
,9,나를 데려가줘,6,Green,B,0,0,ScrollDown,ScrollUp,Green.png,5,NonTarget,NonTarget,0,0,0,0,,,,,,,,,,,,,,,,,,,,,,,,,,,,,0,8,8,8,,,,,,,,,,,,,,,,,,,,,,,,,,,,,,,,,,,,,,,,,,,,,,,,,,,,,,,,,,,,,,,,,,,,,1.3117283980051675,0.9304602999909548,609.2182385000051,None,ScrollDown,정답입니다,609.2182385000051,None,609.2182385000051,None,609.2182385000051,None,609.2182385000051,None,610.0504864000104,None,610.0504864000104,610.5504822000075,,,,,,,,,,,,,,,,017,2022-05-12_18h19.13.347,FishGame,2022.1.1,61.14304476303544,
,10,넌 참되어,2,Orange,A,6.041666666666664,4.733333333333333,ScrollDown,ScrollUp,Orange.png,5,Positive,Congruent,0,0,0,0,,,,,,,,,,,,,,,,,,,,,,,,,,,,,0,9,9,9,,,,,,,,,,,,,,,,,,,,,,,,,,,,,,,,,,,,,,,,,,,,,,,,,,,,,,,,,,,,,,,,,,,,,1.1558641890684764,0.9461051000107545,611.1662087000004,None,ScrollDown,정답입니다,611.1662087000004,None,611.1662087000004,None,611.1662087000004,None,611.1662087000004,None,612.0171346999996,None,612.0171346999996,612.5148841000046,,,,,,,,,,,,,,,,017,2022-05-12_18h19.13.347,FishGame,2022.1.1,61.14304476303544,
,11,넌 생기있어,1,Green,B,5.875,5.633333333333334,ScrollUp,ScrollDown,Green.png,5,Positive,Incongruent,0,0,0,0,,,,,,,,,,,,,,,,,,,,,,,,,,,,,0,10,10,10,,,,,,,,,,,,,,,,,,,,,,,,,,,,,,,,,,,,,,,,,,,,,,,,,,,,,,,,,,,,,,,,,,,,,1.983024666706721,0.9957826000027126,613.133650600008,None,ScrollUp,정답입니다,613.133650600008,None,613.133650600008,None,613.133650600008,None,613.133650600008,None,614.0314509000018,None,614.0314509000018,614.5337178000045,,,,,,,,,,,,,,,,017,2022-05-12_18h19.13.347,FishGame,2022.1.1,61.14304476303544,
,12,넌 비사교적이야,4,Green,B,2.875,2.9,ScrollUp,ScrollDown,Green.png,5,Negative,Congruent,0,0,0,0,,,,,,,,,,,,,,,,,,,,,,,,,,,,,0,11,11,11,,,,,,,,,,,,,,,,,,,,,,,,,,,,,,,,,,,,,,,,,,,,,,,,,,,,,,,,,,,,,,,,,,,,,2,0.9588657000131207,615.1558546000015,None,ScrollUp,정답입니다,615.1558546000015,None,615.1558546000015,None,615.1558546000015,None,615.1558546000015,None,616.016938300003,None,616.016938300003,616.51479500001,,,,,,,,,,,,,,,,017,2022-05-12_18h19.13.347,FishGame,2022.1.1,61.14304476303544,
,13,나를 데려가줘,6,Green,B,0,0,ScrollDown,ScrollUp,Green.png,5,NonTarget,NonTarget,0,0,0,0,,,,,,,,,,,,,,,,,,,,,,,,,,,,,0,12,12,12,,,,,,,,,,,,,,,,,,,,,,,,,,,,,,,,,,,,,,,,,,,,,,,,,,,,,,,,,,,,,,,,,,,,,1.040123442808787,0.944458099998883,617.1324763000011,None,ScrollDown,정답입니다,617.1324763000011,None,617.1324763000011,None,617.1324763000011,None,617.1324763000011,None,617.9813247999991,None,617.9813247999991,618.4835466000077,,,,,,,,,,,,,,,,017,2022-05-12_18h19.13.347,FishGame,2022.1.1,61.14304476303544,
,14,넌 고독해,4,Orange,A,2.916666666666667,3.233333333333333,ScrollDown,ScrollUp,Orange.png,5,Negative,Incongruent,0,0,0,0,,,,,,,,,,,,,,,,,,,,,,,,,,,,,0,13,13,13,,,,,,,,,,,,,,,,,,,,,,,,,,,,,,,,,,,,,,,,,,,,,,,,,,,,,,,,,,,,,,,,,,,,,1,0.9256633000040893,619.1018637000088,None,ScrollDown,정답입니다,619.1018637000088,None,619.1018637000088,None,619.1018637000088,None,619.1018637000088,None,619.9313323000097,None,619.9313323000097,620.433571600006,,,,,,,,,,,,,,,,017,2022-05-12_18h19.13.347,FishGame,2022.1.1,61.14304476303544,
,15,넌 신경질적이야,5,Green,B,2.375,2.233333333333333,ScrollUp,ScrollDown,Green.png,5,Negative,Congruent,0,0,0,0,,,,,,,,,,,,,,,,,,,,,,,,,,,,,0,14,14,14,,,,,,,,,,,,,,,,,,,,,,,,,,,,,,,,,,,,,,,,,,,,,,,,,,,,,,,,,,,,,,,,,,,,,1.8935185074806213,0.9609731000091415,621.0565687000053,None,ScrollUp,정답입니다,621.0565687000053,None,621.0565687000053,None,621.0565687000053,None,621.0565687000053,None,621.9144757000031,None,621.9144757000031,622.4168390999985,,,,,,,,,,,,,,,,017,2022-05-12_18h19.13.347,FishGame,2022.1.1,61.14304476303544,
,16,넌 똑똑해,2,Green,B,5.666666666666667,3.966666666666667,ScrollUp,ScrollDown,Green.png,5,Positive,Incongruent,0,0,0,0,,,,,,,,,,,,,,,,,,,,,,,,,,,,,0,15,15,15,,,,,,,,,,,,,,,,,,,,,,,,,,,,,,,,,,,,,,,,,,,,,,,,,,,,,,,,,,,,,,,,,,,,,1.9675925771395366,0.8269704999984242,623.0317512000038,None,ScrollUp,정답입니다,623.0317512000038,None,623.0317512000038,None,623.0317512000038,None,623.0317512000038,None,623.7643300000054,None,623.7643300000054,624.2643870000029,,,,,,,,,,,,,,,,017,2022-05-12_18h19.13.347,FishGame,2022.1.1,61.14304476303544,
,17,나를 보내줘,6,Orange,A,0,0,ScrollUp,ScrollDown,Orange.png,5,NonTarget,NonTarget,0,0,0,0,,,,,,,,,,,,,,,,,,,,,,,,,,,,,0,16,16,16,,,,,,,,,,,,,,,,,,,,,,,,,,,,,,,,,,,,,,,,,,,,,,,,,,,,,,,,,,,,,,,,,,,,,1.8518518557151158,1.0114787999918917,624.8893804000109,None,ScrollUp,정답입니다,624.8893804000109,None,624.8893804000109,None,624.8893804000109,None,624.8893804000109,None,625.7976716999983,None,625.7976716999983,626.300281200005,,,,,,,,,,,,,,,,017,2022-05-12_18h19.13.347,FishGame,2022.1.1,61.14304476303544,
,18,넌 협조적이야,1,Orange,A,5.625,5.666666666666667,ScrollDown,ScrollUp,Orange.png,5,Positive,Congruent,0,0,0,0,,,,,,,,,,,,,,,,,,,,,,,,,,,,,0,17,17,17,,,,,,,,,,,,,,,,,,,,,,,,,,,,,,,,,,,,,,,,,,,,,,,,,,,,,,,,,,,,,,,,,,,,,1.1666666616996129,0.8293000999983633,626.9163744000107,None,ScrollDown,정답입니다,626.9163744000107,None,626.9163744000107,None,626.9163744000107,None,626.9163744000107,None,627.6479715000023,None,627.6479715000023,628.153361500008,,,,,,,,,,,,,,,,017,2022-05-12_18h19.13.347,FishGame,2022.1.1,61.14304476303544,
,19,나를 데려가줘,6,Green,B,0,0,ScrollDown,ScrollUp,Green.png,5,NonTarget,NonTarget,0,0,0,0,,,,,,,,,,,,,,,,,,,,,,,,,,,,,0,18,18,18,,,,,,,,,,,,,,,,,,,,,,,,,,,,,,,,,,,,,,,,,,,,,,,,,,,,,,,,,,,,,,,,,,,,,1.2021604826052983,0.9108890000061365,628.7707468000008,None,ScrollDown,정답입니다,628.7707468000008,None,628.7707468000008,None,628.7707468000008,None,628.7707468000008,None,629.5811591000092,None,629.5811591000092,630.0813216000097,,,,,,,,,,,,,,,,017,2022-05-12_18h19.13.347,FishGame,2022.1.1,61.14304476303544,
,20,넌 몰인정해,5,Green,B,2.541666666666667,2.066666666666667,ScrollUp,ScrollDown,Green.png,5,Negative,Congruent,0,0,0,0,,,,,,,,,,,,,,,,,,,,,,,,,,,,,0,19,19,19,,,,,,,,,,,,,,,,,,,,,,,,,,,,,,,,,,,,,,,,,,,,,,,,,,,,,,,,,,,,,,,,,,,,,1.6759259278575578,0.8472852999984752,630.7034495000116,None,ScrollUp,정답입니다,630.7034495000116,None,630.7034495000116,None,630.7034495000116,None,630.7034495000116,None,631.4477531000011,None,631.4477531000011,631.9478441000101,,,,,,,,,,,,,,,,017,2022-05-12_18h19.13.347,FishGame,2022.1.1,61.14304476303544,
,21,나를 데려가줘,6,Green,B,0,0,ScrollDown,ScrollUp,Green.png,5,NonTarget,NonTarget,0,0,0,0,,,,,,,,,,,,,,,,,,,,,,,,,,,,,0,20,20,20,,,,,,,,,,,,,,,,,,,,,,,,,,,,,,,,,,,,,,,,,,,,,,,,,,,,,,,,,,,,,,,,,,,,,1,1.1089299000013852,632.5669709000067,None,ScrollDown,정답입니다,632.5669709000067,None,632.5669709000067,None,632.5669709000067,None,632.5669709000067,None,633.5832311000122,None,633.5832311000122,634.0978080000059,,,,,,,,,,,,,,,,017,2022-05-12_18h19.13.347,FishGame,2022.1.1,61.14304476303544,
,22,넌 순진해,3,Green,B,4.125,4.166666666666667,ScrollUp,ScrollDown,Green.png,5,Neutral,Neutral,0,0,0,0,,,,,,,,,,,,,,,,,,,,,,,,,,,,,0,21,21,21,,,,,,,,,,,,,,,,,,,,,,,,,,,,,,,,,,,,,,,,,,,,,,,,,,,,,,,,,,,,,,,,,,,,,1.9907407363255818,0.892628200002946,634.7156324000098,None,ScrollUp,정답입니다,634.7156324000098,None,634.7156324000098,None,634.7156324000098,None,634.7156324000098,None,635.5143125000031,None,635.5143125000031,636.014367900003,,,,,,,,,,,,,,,,017,2022-05-12_18h19.13.347,FishGame,2022.1.1,61.14304476303544,
