name,TrialNum,Word,WordCategory,FishType,WordList,WordValence,WordReputation,CorrectResp,IncorrectResp,FishTypeFile,Round,WordType,Condition,LoopforOrange.thisRepN,LoopforOrange.thisTrialN,LoopforOrange.thisN,LoopforOrange.thisIndex,LoopForGreen.thisRepN,LoopForGreen.thisTrialN,LoopForGreen.thisN,LoopForGreen.thisIndex,GreenInstLoop.thisRepN,GreenInstLoop.thisTrialN,GreenInstLoop.thisN,GreenInstLoop.thisIndex,GreenPrac.thisRepN,GreenPrac.thisTrialN,GreenPrac.thisN,GreenPrac.thisIndex,trials_2.thisRepN,trials_2.thisTrialN,trials_2.thisN,trials_2.thisIndex,GreenRound1.thisRepN,GreenRound1.thisTrialN,GreenRound1.thisN,GreenRound1.thisIndex,GreenRound2.thisRepN,GreenRound2.thisTrialN,GreenRound2.thisN,GreenRound2.thisIndex,GreenRound3.thisRepN,GreenRound3.thisTrialN,GreenRound3.thisN,GreenRound3.thisIndex,GreenRound4.thisRepN,GreenRound4.thisTrialN,GreenRound4.thisN,GreenRound4.thisIndex,GreenRound5.thisRepN,GreenRound5.thisTrialN,GreenRound5.thisN,GreenRound5.thisIndex,text_2.started,text_2.stopped,text_3.started,text_3.stopped,key_resp.keys,key_resp.rt,key_resp.started,key_resp.stopped,PassI.started,PassI.stopped,PassInst.keys,PassInst.rt,PassInst.started,PassInst.stopped,mouse_2.x,mouse_2.y,mouse_2.leftButton,mouse_2.midButton,mouse_2.rightButton,mouse_2.started,mouse_2.stopped,image.started,image.stopped,text_5.started,text_5.stopped,text_6.started,text_6.stopped,text_7.started,text_7.stopped,text_8.started,text_8.stopped,slider_3.response,slider_3.rt,slider_3.started,slider_3.stopped,Response_3,Feedback_3,BackGround_3.started,BackGround_3.stopped,Fish_3.started,Fish_3.stopped,WordBox_3.started,WordBox_3.stopped,Words_3.started,Words_3.stopped,BackGround_Feedback_3.started,BackGround_Feedback_3.stopped,Feedbacks_3.started,Feedbacks_3.stopped,Continue_or_not_2.keys,Continue_or_not_2.rt,Continue_or_not_2.started,Continue_or_not_2.stopped,image_4.started,image_4.stopped,mouse_3.x,mouse_3.y,mouse_3.leftButton,mouse_3.midButton,mouse_3.rightButton,mouse_3.started,mouse_3.stopped,startmain.started,startmain.stopped,slider_4.response,slider_4.rt,slider_4.started,slider_4.stopped,Response_4,Feedback_4,BackGround_4.started,BackGround_4.stopped,Fish_4.started,Fish_4.stopped,WordBox_4.started,WordBox_4.stopped,Words_4.started,Words_4.stopped,BackGround_Feedback_4.started,BackGround_Feedback_4.stopped,Feedbacks_4.started,Feedbacks_4.stopped,text.started,text.stopped,break_interval.started,break_interval.stopped,mouse.x,mouse.y,mouse.leftButton,mouse.midButton,mouse.rightButton,mouse.started,mouse.stopped,stratnextround.started,stratnextround.stopped,endgame.started,endgame.stopped,participant,date,expName,psychopyVersion,frameRate,
,,,,,,,,,,,,,,,,,,,,,,,,,,,,,,,,,,,,,,,,,,,,,,,,,,,,,,18.876715599995805,None,18.876715599995805,None,space,0.9712469000078272,19.369899099998293,None,,,,,,,,,,,,,,,,,,,,,,,,,,,,,,,,,,,,,,,,,,,,,,,,,,,,,,,,,,,,,,,,,,,,,,,,,,,,,,,,,,,,,,,,,,018,2022-05-12_19h59.20.742,FishGame,2022.1.1,59.996676186768205,
물고기과제_instruction(참가자용)GreenVersion.mp4,,,,,,,,,,,,,,,,,,0,0,0,0,0,0,0,0,,,,,,,,,,,,,,,,,,,,,,,,,,,,,,,,,,,,,92.81862939998973,None,n,1.8740118999994593,92.81862939998973,None,,,,,,,,,,,,,,,,,,,,,,,,,,,,,,,,,,,,,,,,,,,,,,,,,,,,,,,,,,,,,,,,,,,,,,,,,,,,,,,,,,,,018,2022-05-12_19h59.20.742,FishGame,2022.1.1,59.996676186768205,
,1,넌 교활해,5,Orange,B,2.333333333333333,2.133333333333333,ScrollUp,ScrollDown,Orange.png,practice,,,,,,,0,0,0,0,,,,,0,0,0,0,0,0,0,0,,,,,,,,,,,,,,,,,,,,,,,,,,,,,,,,,,,0.018518519,-0.23888889,1,0,0,0.5126686100120423,None,94.71271489998617,None,98.12963319999108,99.63187549999566,99.66518709999218,100.61834289999388,100.66272929999104,101.61519959999714,101.61519959999714,None,1.7746913582086563,1.29794450000918,102.89832659999956,None,ScrollUp,정답입니다,102.89832659999956,None,102.89832659999956,None,102.89832659999956,None,102.89832659999956,None,103.8957792000001,None,103.8957792000001,104.39585379998607,,,,,,,,,,,,,,,,,,,,,,,,,,,,,,,,,,,,,,,,,,,,,,,,,018,2022-05-12_19h59.20.742,FishGame,2022.1.1,59.996676186768205,
,2,넌 슬기로워,2,Green,A,6.166666666666667,4.1,ScrollDown,ScrollUp,Green.png,practice,,,,,,,0,0,0,0,,,,,0,0,0,0,0,1,1,1,,,,,,,,,,,,,,,,,,,,,,,,,,,,,,,,,,,,,,,,,,,,,,,,,,,,1.1512345721324284,1.1981970999913756,105.01277370000025,None,ScrollDown,정답입니다,105.01277370000025,None,105.01277370000025,None,105.01277370000025,None,105.01277370000025,None,106.11491529998602,None,106.11491529998602,106.6150282999879,,,,,,,,,,,,,,,,,,,,,,,,,,,,,,,,,,,,,,,,,,,,,,,,,018,2022-05-12_19h59.20.742,FishGame,2022.1.1,59.996676186768205,
,3,나를 보내줘,6,Green,A,0,0,ScrollUp,ScrollDown,Green.png,practice,,,,,,,0,0,0,0,,,,,0,0,0,0,0,2,2,2,,,,,,,,,,,,,,,,,,,,,,,,,,,,,,,,,,,,,,,,,,,,,,,,,,,,1.604938273628553,1.1438899999920977,107.2333779999899,None,ScrollUp,정답입니다,107.2333779999899,None,107.2333779999899,None,107.2333779999899,None,107.2333779999899,None,108.27930789999664,None,108.27930789999664,108.78148109999893,,,,,,,,,,,,,,,,,,,,,,,,,,,,,,,,,,,,,,,,,,,,,,,,,018,2022-05-12_19h59.20.742,FishGame,2022.1.1,59.996676186768205,
,4,나를 데려가줘,6,Orange,B,0,0,ScrollDown,ScrollUp,Orange.png,practice,,,,,,,0,0,0,0,,,,,0,0,0,0,0,3,3,3,,,,,,,,,,,,,,,,,,,,,,,,,,,,,,,,,,,,,,,,,,,,,,,,,,,,1.2391975422700245,1.3608056999946712,109.40770329999214,None,ScrollDown,정답입니다,109.40770329999214,None,109.40770329999214,None,109.40770329999214,None,109.40770329999214,None,110.66478619999543,None,110.66478619999543,111.17923909999081,,,,,,,,,,,,,,,,,,,,,,,,,,,,,,,,,,,,,,,,,,,,,,,,,018,2022-05-12_19h59.20.742,FishGame,2022.1.1,59.996676186768205,
,1,넌 교활해,5,Orange,B,2.333333333333333,2.133333333333333,ScrollUp,ScrollDown,Orange.png,practice,,,,,,,0,0,0,0,,,,,0,0,0,0,,,,,,,,,,,,,,,,,,,,,,,,,,,,,,,,,,,,,,,,,,,,,,,,,,,,,,,,,,,,,,,,,,,,,,,,,,n,5.5640542000037385,111.68141039999318,None,111.68141039999318,None,,,,,,,,,,,,,,,,,,,,,,,,,,,,,,,,,,,,,,,,,,,018,2022-05-12_19h59.20.742,FishGame,2022.1.1,59.996676186768205,
,1,넌 따뜻해,1,Orange,B,6.083333333333333,5.6,ScrollUp,ScrollDown,Orange.png,1,Positive,Incongruent,,,,,0,0,0,0,,,,,,,,,,,,,0,0,0,0,,,,,,,,,,,,,,,,,,,,,,,,,,,,,,,,,,,,,,,,119.71256749999884,121.21239570000034,121.24807429999055,122.19812279999314,122.24804329998733,123.19802689999051,123.19802689999051,None,,,,,,,,,,,,,,,,,,,,,,,,,0.5740741,-0.13425925,1,0,0,0.31359391000296455,None,117.26456039999903,None,1.9274691144625347,1.3451197999966098,124.48496949998662,None,ScrollUp,정답입니다,124.48496949998662,None,124.48496949998662,None,124.48496949998662,None,124.48496949998662,None,125.53112279999186,None,125.53112279999186,126.0311684999906,,,,,,,,,,,,,,,,018,2022-05-12_19h59.20.742,FishGame,2022.1.1,59.996676186768205,
,2,넌 기품있어,2,Orange,B,5.791666666666668,4.5,ScrollUp,ScrollDown,Orange.png,1,Positive,Incongruent,,,,,0,0,0,0,,,,,,,,,,,,,0,1,1,1,,,,,,,,,,,,,,,,,,,,,,,,,,,,,,,,,,,,,,,,,,,,,,,,,,,,,,,,,,,,,,,,,,,,,,,,,,,,,,,,,1.7098765472571054,0.9445010000054026,126.67469129999517,None,ScrollUp,정답입니다,126.67469129999517,None,126.67469129999517,None,126.67469129999517,None,126.67469129999517,None,127.51231249999546,None,127.51231249999546,128.0122807999869,,,,,,,,,,,,,,,,018,2022-05-12_19h59.20.742,FishGame,2022.1.1,59.996676186768205,
,3,나를 보내줘,6,Green,A,0,0,ScrollUp,ScrollDown,Green.png,1,NonTarget,NonTarget,,,,,0,0,0,0,,,,,,,,,,,,,0,2,2,2,,,,,,,,,,,,,,,,,,,,,,,,,,,,,,,,,,,,,,,,,,,,,,,,,,,,,,,,,,,,,,,,,,,,,,,,,,,,,,,,,1.703703703979651,1.127324300003238,128.6417889000004,None,ScrollUp,정답입니다,128.6417889000004,None,128.6417889000004,None,128.6417889000004,None,128.6417889000004,None,129.662190499992,None,129.662190499992,130.16439329998684,,,,,,,,,,,,,,,,018,2022-05-12_19h59.20.742,FishGame,2022.1.1,59.996676186768205,
,4,넌 수동적이야,4,Green,A,2.833333333333333,2.933333333333333,ScrollDown,ScrollUp,Green.png,1,Negative,Incongruent,,,,,0,0,0,0,,,,,,,,,,,,,0,3,3,3,,,,,,,,,,,,,,,,,,,,,,,,,,,,,,,,,,,,,,,,,,,,,,,,,,,,,,,,,,,,,,,,,,,,,,,,,,,,,,,,,1.1280864129463832,0.8942639000015333,130.7893643999996,None,ScrollDown,정답입니다,130.7893643999996,None,130.7893643999996,None,130.7893643999996,None,130.7893643999996,None,131.5787588999956,None,131.5787588999956,132.07884669999476,,,,,,,,,,,,,,,,018,2022-05-12_19h59.20.742,FishGame,2022.1.1,59.996676186768205,
,5,넌 사심이 없어,3,Orange,B,4.916666666666666,4.333333333333333,ScrollUp,ScrollDown,Orange.png,1,Neutral,Neutral,,,,,0,0,0,0,,,,,,,,,,,,,0,4,4,4,,,,,,,,,,,,,,,,,,,,,,,,,,,,,,,,,,,,,,,,,,,,,,,,,,,,,,,,,,,,,,,,,,,,,,,,,,,,,,,,,1.6697530845801034,0.9274001000012504,132.70689539999876,None,ScrollUp,정답입니다,132.70689539999876,None,132.70689539999876,None,132.70689539999876,None,132.70689539999876,None,133.52882449999743,None,133.52882449999743,134.03099209998618,,,,,,,,,,,,,,,,018,2022-05-12_19h59.20.742,FishGame,2022.1.1,59.996676186768205,
,6,넌 헤퍼,5,Green,A,2.458333333333334,2.233333333333333,ScrollDown,ScrollUp,Green.png,1,Negative,Incongruent,,,,,0,0,0,0,,,,,,,,,,,,,0,5,5,5,,,,,,,,,,,,,,,,,,,,,,,,,,,,,,,,,,,,,,,,,,,,,,,,,,,,,,,,,,,,,,,,,,,,,,,,,,,,,,,,,1.2191358109315236,1.3602592999959597,134.65296469999885,None,ScrollDown,정답입니다,134.65296469999885,None,134.65296469999885,None,134.65296469999885,None,134.65296469999885,None,135.9120980999869,None,135.9120980999869,136.4143664999865,,,,,,,,,,,,,,,,018,2022-05-12_19h59.20.742,FishGame,2022.1.1,59.996676186768205,
,7,넌 말쑥해,3,Green,A,4.833333333333334,4.333333333333333,ScrollDown,ScrollUp,Green.png,1,Neutral,Neutral,,,,,0,0,0,0,,,,,,,,,,,,,0,6,6,6,,,,,,,,,,,,,,,,,,,,,,,,,,,,,,,,,,,,,,,,,,,,,,,,,,,,,,,,,,,,,,,,,,,,,,,,,,,,,,,,,1.2824074079593024,1.0930017000064254,137.03409199998714,None,ScrollDown,정답입니다,137.03409199998714,None,137.03409199998714,None,137.03409199998714,None,137.03409199998714,None,138.02871759999834,None,138.02871759999834,138.53089769999497,,,,,,,,,,,,,,,,018,2022-05-12_19h59.20.742,FishGame,2022.1.1,59.996676186768205,
,8,넌 투덜거려,5,Orange,B,2.541666666666667,2.266666666666667,ScrollUp,ScrollDown,Orange.png,1,Negative,Congruent,,,,,0,0,0,0,,,,,,,,,,,,,0,7,7,7,,,,,,,,,,,,,,,,,,,,,,,,,,,,,,,,,,,,,,,,,,,,,,,,,,,,,,,,,,,,,,,,,,,,,,,,,,,,,,,,,1.6913580298423767,0.9787401000066893,139.15586699999403,None,ScrollUp,정답입니다,139.15586699999403,None,139.15586699999403,None,139.15586699999403,None,139.15586699999403,None,140.02859799998987,None,140.02859799998987,140.53080479998607,,,,,,,,,,,,,,,,018,2022-05-12_19h59.20.742,FishGame,2022.1.1,59.996676186768205,
,9,넌 적극적이야,1,Green,A,5.708333333333333,5.533333333333333,ScrollDown,ScrollUp,Green.png,1,Positive,Congruent,,,,,0,0,0,0,,,,,,,,,,,,,0,8,8,8,,,,,,,,,,,,,,,,,,,,,,,,,,,,,,,,,,,,,,,,,,,,,,,,,,,,,,,,,,,,,,,,,,,,,,,,,,,,,,,,,1.3518518482645354,0.8775126000109594,141.1506645999907,None,ScrollDown,정답입니다,141.1506645999907,None,141.1506645999907,None,141.1506645999907,None,141.1506645999907,None,141.92861929998617,None,141.92861929998617,142.43085939998855,,,,,,,,,,,,,,,,018,2022-05-12_19h59.20.742,FishGame,2022.1.1,59.996676186768205,
,10,넌 재미없어,4,Orange,B,2.625,2.966666666666667,ScrollUp,ScrollDown,Orange.png,1,Negative,Congruent,,,,,0,0,0,0,,,,,,,,,,,,,0,9,9,9,,,,,,,,,,,,,,,,,,,,,,,,,,,,,,,,,,,,,,,,,,,,,,,,,,,,,,,,,,,,,,,,,,,,,,,,,,,,,,,,,1.5833333345750966,0.8440701000072295,143.058271899994,None,ScrollUp,정답입니다,143.058271899994,None,143.058271899994,None,143.058271899994,None,143.058271899994,None,143.79496979998657,None,143.79496979998657,144.2950392999919,,,,,,,,,,,,,,,,018,2022-05-12_19h59.20.742,FishGame,2022.1.1,59.996676186768205,
,11,넌 명석해,2,Green,A,5.875,4.033333333333333,ScrollDown,ScrollUp,Green.png,1,Positive,Congruent,,,,,0,0,0,0,,,,,,,,,,,,,0,10,10,10,,,,,,,,,,,,,,,,,,,,,,,,,,,,,,,,,,,,,,,,,,,,,,,,,,,,,,,,,,,,,,,,,,,,,,,,,,,,,,,,,1.2885802388191223,0.9111216999881435,144.91354109998792,None,ScrollDown,정답입니다,144.91354109998792,None,144.91354109998792,None,144.91354109998792,None,144.91354109998792,None,145.72829989998718,None,145.72829989998718,146.22838919999776,,,,,,,,,,,,,,,,018,2022-05-12_19h59.20.742,FishGame,2022.1.1,59.996676186768205,
,12,나를 데려가줘,6,Orange,B,0,0,ScrollDown,ScrollUp,Orange.png,1,NonTarget,NonTarget,,,,,0,0,0,0,,,,,,,,,,,,,0,11,11,11,,,,,,,,,,,,,,,,,,,,,,,,,,,,,,,,,,,,,,,,,,,,,,,,,,,,,,,,,,,,,,,,,,,,,,,,,,,,,,,,,1.3055555547277131,1.2966801000002306,146.8524064999947,None,ScrollDown,정답입니다,146.8524064999947,None,146.8524064999947,None,146.8524064999947,None,146.8524064999947,None,148.04748429999745,None,148.04748429999745,148.54750919999788,,,,,,,,,,,,,,,,018,2022-05-12_19h59.20.742,FishGame,2022.1.1,59.996676186768205,
,13,넌 소심해,4,Green,A,3,3.1,ScrollDown,ScrollUp,Green.png,1,Negative,Incongruent,,,,,0,0,0,0,,,,,,,,,,,,,0,12,12,12,,,,,,,,,,,,,,,,,,,,,,,,,,,,,,,,,,,,,,,,,,,,,,,,,,,,,,,,,,,,,,,,,,,,,,,,,,,,,,,,,1.141975313425064,1.2456400000082795,149.16868649999378,None,ScrollDown,정답입니다,149.16868649999378,None,149.16868649999378,None,149.16868649999378,None,149.16868649999378,None,150.3117620999983,None,150.3117620999983,150.81394689998706,,,,,,,,,,,,,,,,018,2022-05-12_19h59.20.742,FishGame,2022.1.1,59.996676186768205,
,14,넌 합리적이야,2,Green,A,5.583333333333333,4.733333333333333,ScrollDown,ScrollUp,Green.png,1,Positive,Congruent,,,,,0,0,0,0,,,,,,,,,,,,,0,13,13,13,,,,,,,,,,,,,,,,,,,,,,,,,,,,,,,,,,,,,,,,,,,,,,,,,,,,,,,,,,,,,,,,,,,,,,,,,,,,,,,,,1.1496913582086563,0.9590775000106078,151.43770239999867,None,ScrollDown,정답입니다,151.43770239999867,None,151.43770239999867,None,151.43770239999867,None,151.43770239999867,None,152.29494639999757,None,152.29494639999757,152.79732499999227,,,,,,,,,,,,,,,,018,2022-05-12_19h59.20.742,FishGame,2022.1.1,59.996676186768205,
,15,넌 무자비해,5,Orange,B,2.333333333333333,2.1,ScrollUp,ScrollDown,Orange.png,1,Negative,Congruent,,,,,0,0,0,0,,,,,,,,,,,,,0,14,14,14,,,,,,,,,,,,,,,,,,,,,,,,,,,,,,,,,,,,,,,,,,,,,,,,,,,,,,,,,,,,,,,,,,,,,,,,,,,,,,,,,1.5385802456488213,0.8631276000087382,153.42098489998898,None,NoResponse,무응답입니다,153.42098489998898,None,153.42098489998898,None,153.42098489998898,None,153.42098489998898,None,154.1804462,None,154.1804462,154.69506589999946,,,,,,,,,,,,,,,,018,2022-05-12_19h59.20.742,FishGame,2022.1.1,59.996676186768205,
,16,나를 보내줘,6,Green,A,0,0,ScrollUp,ScrollDown,Green.png,1,NonTarget,NonTarget,,,,,0,0,0,0,,,,,,,,,,,,,0,15,15,15,,,,,,,,,,,,,,,,,,,,,,,,,,,,,,,,,,,,,,,,,,,,,,,,,,,,,,,,,,,,,,,,,,,,,,,,,,,,,,,,,1.6481481517354646,1.4779235000023618,155.31807469998603,None,ScrollUp,정답입니다,155.31807469998603,None,155.31807469998603,None,155.31807469998603,None,155.31807469998603,None,156.69720479998796,None,156.69720479998796,157.1972253999993,,,,,,,,,,,,,,,,018,2022-05-12_19h59.20.742,FishGame,2022.1.1,59.996676186768205,
,17,넌 현실적이야,3,Orange,B,4.608695652173913,4.766666666666667,ScrollUp,ScrollDown,Orange.png,1,Neutral,Neutral,,,,,0,0,0,0,,,,,,,,,,,,,0,16,16,16,,,,,,,,,,,,,,,,,,,,,,,,,,,,,,,,,,,,,,,,,,,,,,,,,,,,,,,,,,,,,,,,,,,,,,,,,,,,,,,,,1.9521604875723522,1.159825599999749,157.82433559998753,None,ScrollUp,정답입니다,157.82433559998753,None,157.82433559998753,None,157.82433559998753,None,157.82433559998753,None,158.87826199999836,None,158.87826199999836,159.37829709998914,,,,,,,,,,,,,,,,018,2022-05-12_19h59.20.742,FishGame,2022.1.1,59.996676186768205,
,18,넌 의리있어,1,Orange,B,5.833333333333334,5.633333333333334,ScrollUp,ScrollDown,Orange.png,1,Positive,Incongruent,,,,,0,0,0,0,,,,,,,,,,,,,0,17,17,17,,,,,,,,,,,,,,,,,,,,,,,,,,,,,,,,,,,,,,,,,,,,,,,,,,,,,,,,,,,,,,,,,,,,,,,,,,,,,,,,,1.8209876517454784,1.0591159000032349,160.00441989999672,None,ScrollUp,정답입니다,160.00441989999672,None,160.00441989999672,None,160.00441989999672,None,160.00441989999672,None,160.96160039999813,None,160.96160039999813,161.46691559998726,,,,,,,,,,,,,,,,018,2022-05-12_19h59.20.742,FishGame,2022.1.1,59.996676186768205,
,19,넌 신경과민이야,5,Green,A,2.541666666666667,2.166666666666667,ScrollDown,ScrollUp,Green.png,1,Negative,Incongruent,,,,,0,0,0,0,,,,,,,,,,,,,0,18,18,18,,,,,,,,,,,,,,,,,,,,,,,,,,,,,,,,,,,,,,,,,,,,,,,,,,,,,,,,,,,,,,,,,,,,,,,,,,,,,,,,,1.1990740795930226,0.9778980999981286,162.08816429998842,None,ScrollDown,정답입니다,162.08816429998842,None,162.08816429998842,None,162.08816429998842,None,162.08816429998842,None,162.96147239999846,None,162.96147239999846,163.46156779999728,,,,,,,,,,,,,,,,018,2022-05-12_19h59.20.742,FishGame,2022.1.1,59.996676186768205,
,20,넌 편안해,1,Green,A,5.916666666666666,5.866666666666666,ScrollDown,ScrollUp,Green.png,1,Positive,Congruent,,,,,0,0,0,0,,,,,,,,,,,,,0,19,19,19,,,,,,,,,,,,,,,,,,,,,,,,,,,,,,,,,,,,,,,,,,,,,,,,,,,,,,,,,,,,,,,,,,,,,,,,,,,,,,,,,1.2546296318372092,0.7775123000028543,164.0847822999931,None,ScrollDown,정답입니다,164.0847822999931,None,164.0847822999931,None,164.0847822999931,None,164.0847822999931,None,164.7614837000001,None,164.7614837000001,165.26368269999512,,,,,,,,,,,,,,,,018,2022-05-12_19h59.20.742,FishGame,2022.1.1,59.996676186768205,
,21,넌 품위있어,2,Orange,B,5.291666666666666,4.466666666666667,ScrollUp,ScrollDown,Orange.png,1,Positive,Incongruent,,,,,0,0,0,0,,,,,,,,,,,,,0,20,20,20,,,,,,,,,,,,,,,,,,,,,,,,,,,,,,,,,,,,,,,,,,,,,,,,,,,,,,,,,,,,,,,,,,,,,,,,,,,,,,,,,1.7592592686414719,0.8424469000019599,165.88711209999747,None,ScrollUp,정답입니다,165.88711209999747,None,165.88711209999747,None,165.88711209999747,None,165.88711209999747,None,166.62805789998674,None,166.62805789998674,167.13032569999632,,,,,,,,,,,,,,,,018,2022-05-12_19h59.20.742,FishGame,2022.1.1,59.996676186768205,
,22,넌 빈틈없어,3,Green,A,4.833333333333333,3.966666666666667,ScrollDown,ScrollUp,Green.png,1,Neutral,Neutral,,,,,0,0,0,0,,,,,,,,,,,,,0,21,21,21,,,,,,,,,,,,,,,,,,,,,,,,,,,,,,,,,,,,,,,,,,,,,,,,,,,,,,,,,,,,,,,,,,,,,,,,,,,,,,,,,1.1697530895471573,0.7777636999962851,167.74928219999128,None,ScrollDown,정답입니다,167.74928219999128,None,167.74928219999128,None,167.74928219999128,None,167.74928219999128,None,168.42806539998855,None,168.42806539998855,168.9302134999889,,,,,,,,,,,,,,,,018,2022-05-12_19h59.20.742,FishGame,2022.1.1,59.996676186768205,
,23,넌 상상력없어,4,Orange,B,2.833333333333333,3.133333333333333,ScrollUp,ScrollDown,Orange.png,1,Negative,Congruent,,,,,0,0,0,0,,,,,,,,,,,,,0,22,22,22,,,,,,,,,,,,,,,,,,,,,,,,,,,,,,,,,,,,,,,,,,,,,,,,,,,,,,,,,,,,,,,,,,,,,,,,,,,,,,,,,1.7839506169160206,0.8129297999985283,169.55125509999925,None,ScrollUp,정답입니다,169.55125509999925,None,169.55125509999925,None,169.55125509999925,None,169.55125509999925,None,170.26352909998968,None,170.26352909998968,170.7802754000004,,,,,,,,,,,,,,,,018,2022-05-12_19h59.20.742,FishGame,2022.1.1,59.996676186768205,
,24,넌 지혜로워,2,Orange,B,6.333333333333334,4.633333333333334,ScrollUp,ScrollDown,Orange.png,1,Positive,Incongruent,,,,,0,0,0,0,,,,,,,,,,,,,0,23,23,23,,,,,,,,,,,,,,,,,,,,,,,,,,,,,,,,,,,,,,,,,,,,,,,,,,,,,,,,,,,,,,,,,,,,,,,,,,,,,,,,,1.8024691343307495,0.9586752000031993,171.39180159999523,None,ScrollUp,정답입니다,171.39180159999523,None,171.39180159999523,None,171.39180159999523,None,171.39180159999523,None,172.2443932999886,None,172.2443932999886,172.7444606999925,,,,,,,,,,,,,,,,018,2022-05-12_19h59.20.742,FishGame,2022.1.1,59.996676186768205,
,25,넌 시끄러워,4,Green,A,2.833333333333333,3.033333333333333,ScrollDown,ScrollUp,Green.png,1,Negative,Incongruent,,,,,0,0,0,0,,,,,,,,,,,,,0,24,24,24,,,,,,,,,,,,,,,,,,,,,,,,,,,,,,,,,,,,,,,,,,,,,,,,,,,,,,,,,,,,,,,,,,,,,,,,,,,,,,,,,1.1882716069618862,0.7781398000079207,173.36655769999197,None,ScrollDown,정답입니다,173.36655769999197,None,173.36655769999197,None,173.36655769999197,None,173.36655769999197,None,174.04443319998973,None,174.04443319998973,174.54697079998732,,,,,,,,,,,,,,,,018,2022-05-12_19h59.20.742,FishGame,2022.1.1,59.996676186768205,
,26,넌 만사태평이야,3,Orange,B,4,4.333333333333333,ScrollUp,ScrollDown,Orange.png,1,Neutral,Neutral,,,,,0,0,0,0,,,,,,,,,,,,,0,25,25,25,,,,,,,,,,,,,,,,,,,,,,,,,,,,,,,,,,,,,,,,,,,,,,,,,,,,,,,,,,,,,,,,,,,,,,,,,,,,,,,,,1.799382706483205,0.7774774999998044,175.17173299999558,None,ScrollUp,정답입니다,175.17173299999558,None,175.17173299999558,None,175.17173299999558,None,175.17173299999558,None,175.84690459999547,None,175.84690459999547,176.3469003999926,,,,,,,,,,,,,,,,018,2022-05-12_19h59.20.742,FishGame,2022.1.1,59.996676186768205,
,27,넌 붙임성있어,1,Green,A,5.708333333333333,5.633333333333334,ScrollDown,ScrollUp,Green.png,1,Positive,Congruent,,,,,0,0,0,0,,,,,,,,,,,,,0,26,26,26,,,,,,,,,,,,,,,,,,,,,,,,,,,,,,,,,,,,,,,,,,,,,,,,,,,,,,,,,,,,,,,,,,,,,,,,,,,,,,,,,1.3518518482645354,0.7958651999942958,176.96993319998728,None,ScrollDown,정답입니다,176.96993319998728,None,176.96993319998728,None,176.96993319998728,None,176.96993319998728,None,177.6612640999956,None,177.6612640999956,178.16348149999976,,,,,,,,,,,,,,,,018,2022-05-12_19h59.20.742,FishGame,2022.1.1,59.996676186768205,
,28,넌 영리해,2,Green,A,6,4.033333333333333,ScrollDown,ScrollUp,Green.png,1,Positive,Congruent,,,,,0,0,0,0,,,,,,,,,,,,,0,27,27,27,,,,,,,,,,,,,,,,,,,,,,,,,,,,,,,,,,,,,,,,,,,,,,,,,,,,,,,,,,,,,,,,,,,,,,,,,,,,,,,,,1.212962955236435,0.7775652999989688,178.78389619999507,None,ScrollDown,정답입니다,178.78389619999507,None,178.78389619999507,None,178.78389619999507,None,178.78389619999507,None,179.46115889999783,None,179.46115889999783,179.9633049999975,,,,,,,,,,,,,,,,018,2022-05-12_19h59.20.742,FishGame,2022.1.1,59.996676186768205,
,29,넌 열심이야,1,Orange,B,6.041666666666667,5.833333333333333,ScrollUp,ScrollDown,Orange.png,1,Positive,Incongruent,,,,,0,0,0,0,,,,,,,,,,,,,0,28,28,28,,,,,,,,,,,,,,,,,,,,,,,,,,,,,,,,,,,,,,,,,,,,,,,,,,,,,,,,,,,,,,,,,,,,,,,,,,,,,,,,,1.5570987661679587,0.7945652999915183,180.5924110999913,None,ScrollUp,정답입니다,180.5924110999913,None,180.5924110999913,None,180.5924110999913,None,180.5924110999913,None,181.27780849998817,None,181.27780849998817,181.78001419999055,,,,,,,,,,,,,,,,018,2022-05-12_19h59.20.742,FishGame,2022.1.1,59.996676186768205,
,30,넌 인기없어,4,Orange,B,3,3.3,ScrollUp,ScrollDown,Orange.png,1,Negative,Congruent,,,,,0,0,0,0,,,,,,,,,,,,,0,29,29,29,,,,,,,,,,,,,,,,,,,,,,,,,,,,,,,,,,,,,,,,,,,,,,,,,,,,,,,,,,,,,,,,,,,,,,,,,,,,,,,,,1.5462962966412306,0.7608858000021428,182.40267329999187,None,NoResponse,무응답입니다,182.40267329999187,None,182.40267329999187,None,182.40267329999187,None,182.40267329999187,None,183.06112459998985,None,183.06112459998985,183.5610161999939,,,,,,,,,,,,,,,,018,2022-05-12_19h59.20.742,FishGame,2022.1.1,59.996676186768205,
,31,넌 익살스러워,3,Green,A,4.708333333333334,4.833333333333333,ScrollDown,ScrollUp,Green.png,1,Neutral,Neutral,,,,,0,0,0,0,,,,,,,,,,,,,0,30,30,30,,,,,,,,,,,,,,,,,,,,,,,,,,,,,,,,,,,,,,,,,,,,,,,,,,,,,,,,,,,,,,,,,,,,,,,,,,,,,,,,,1.0987654229005177,0.9595375000062631,184.18958679999923,None,ScrollDown,정답입니다,184.18958679999923,None,184.18958679999923,None,184.18958679999923,None,184.18958679999923,None,185.0441326,None,185.0441326,185.54432339999767,,,,,,,,,,,,,,,,018,2022-05-12_19h59.20.742,FishGame,2022.1.1,59.996676186768205,
,32,넌 이기적이야,5,Orange,B,2.291666666666667,2.333333333333333,ScrollUp,ScrollDown,Orange.png,1,Negative,Congruent,,,,,0,0,0,0,,,,,,,,,,,,,0,31,31,31,,,,,,,,,,,,,,,,,,,,,,,,,,,,,,,,,,,,,,,,,,,,,,,,,,,,,,,,,,,,,,,,,,,,,,,,,,,,,,,,,1.8148148208856583,0.9134761000022991,186.1627434999973,None,ScrollUp,정답입니다,186.1627434999973,None,186.1627434999973,None,186.1627434999973,None,186.1627434999973,None,186.97999729998992,None,186.97999729998992,187.48004859998764,,,,,,,,,,,,,,,,018,2022-05-12_19h59.20.742,FishGame,2022.1.1,59.996676186768205,
,33,나를 데려가줘,6,Orange,B,0,0,ScrollDown,ScrollUp,Orange.png,1,NonTarget,NonTarget,,,,,0,0,0,0,,,,,,,,,,,,,0,32,32,32,,,,,,,,,,,,,,,,,,,,,,,,,,,,,,,,,,,,,,,,,,,,,,,,,,,,,,,,,,,,,,,,,,,,,,,,,,,,,,,,,1.7546296268701553,0.7147740999935195,188.09662349999417,None,ScrollUp,오답입니다,188.09662349999417,None,188.09662349999417,None,188.09662349999417,None,188.09662349999417,None,188.71324519999325,None,188.71324519999325,189.21092579999822,,,,,,,,,,,,,,,,018,2022-05-12_19h59.20.742,FishGame,2022.1.1,59.996676186768205,
,34,넌 기회주의자야,5,Green,A,2.875,2.133333333333333,ScrollDown,ScrollUp,Green.png,1,Negative,Incongruent,,,,,0,0,0,0,,,,,,,,,,,,,0,33,33,33,,,,,,,,,,,,,,,,,,,,,,,,,,,,,,,,,,,,,,,,,,,,,,,,,,,,,,,,,,,,,,,,,,,,,,,,,,,,,,,,,1.2021604826052983,1.0756764999969164,189.83744089999527,None,ScrollDown,정답입니다,189.83744089999527,None,189.83744089999527,None,189.83744089999527,None,189.83744089999527,None,190.81319499999518,None,190.81319499999518,191.31326830000035,,,,,,,,,,,,,,,,018,2022-05-12_19h59.20.742,FishGame,2022.1.1,59.996676186768205,
,1,넌 미성숙해,4,Green,A,3,3.2,ScrollDown,ScrollUp,Green.png,2,Negative,Incongruent,,,,,0,0,0,0,,,,,,,,,,,,,,,,,0,0,0,0,,,,,,,,,,,,,,,,,,,,,,,,,,,,,,,,,,,,223.1436595999985,224.643648199999,224.67697939999925,225.6293813999946,225.67928149999352,226.6292867999873,226.6292867999873,None,,,,,,,,,,,,,,,,,,,,,,,,,,,,,,,,,,1.1759259204069774,1.0953130000125384,227.72959619999165,None,ScrollDown,정답입니다,227.72959619999165,None,227.72959619999165,None,227.72959619999165,None,227.72959619999165,None,228.72689009999158,None,228.72689009999158,229.22907759998634,191.81319869999425,None,191.81319869999425,None,0.1388889,0.0037037036,1,0,0,0.015995710011338815,None,221.82912089998717,None,,,018,2022-05-12_19h59.20.742,FishGame,2022.1.1,59.996676186768205,
,2,넌 반사회적이야,5,Orange,B,2.416666666666667,2.033333333333333,ScrollUp,ScrollDown,Orange.png,2,Negative,Congruent,,,,,0,0,0,0,,,,,,,,,,,,,,,,,0,1,1,1,,,,,,,,,,,,,,,,,,,,,,,,,,,,,,,,,,,,,,,,,,,,,,,,,,,,,,,,,,,,,,,,,,,,,,,,,,,,,2,1.2957235999929253,229.85036479998962,None,ScrollUp,정답입니다,229.85036479998962,None,229.85036479998962,None,229.85036479998962,None,229.85036479998962,None,231.0434329999989,None,231.0434329999989,231.54567599999427,,,,,,,,,,,,,,,,018,2022-05-12_19h59.20.742,FishGame,2022.1.1,59.996676186768205,
,3,넌 유능해,2,Green,A,6.208333333333333,4.433333333333334,ScrollDown,ScrollUp,Green.png,2,Positive,Congruent,,,,,0,0,0,0,,,,,,,,,,,,,,,,,0,2,2,2,,,,,,,,,,,,,,,,,,,,,,,,,,,,,,,,,,,,,,,,,,,,,,,,,,,,,,,,,,,,,,,,,,,,,,,,,,,,,1,1.6092821000056574,232.16900929999247,None,ScrollDown,정답입니다,232.16900929999247,None,232.16900929999247,None,232.16900929999247,None,232.16900929999247,None,233.67898629998672,None,233.67898629998672,234.1790764999896,,,,,,,,,,,,,,,,018,2022-05-12_19h59.20.742,FishGame,2022.1.1,59.996676186768205,
,4,넌 능숙해,2,Orange,B,5.666666666666667,4.733333333333333,ScrollUp,ScrollDown,Orange.png,2,Positive,Incongruent,,,,,0,0,0,0,,,,,,,,,,,,,,,,,0,3,3,3,,,,,,,,,,,,,,,,,,,,,,,,,,,,,,,,,,,,,,,,,,,,,,,,,,,,,,,,,,,,,,,,,,,,,,,,,,,,,1.8935185074806213,0.9804617000045255,234.8115042999998,None,ScrollUp,정답입니다,234.8115042999998,None,234.8115042999998,None,234.8115042999998,None,234.8115042999998,None,235.6933311999892,None,235.6933311999892,236.19559579998895,,,,,,,,,,,,,,,,018,2022-05-12_19h59.20.742,FishGame,2022.1.1,59.996676186768205,
,5,넌 진부해,4,Orange,B,2.458333333333333,3.166666666666667,ScrollUp,ScrollDown,Orange.png,2,Negative,Congruent,,,,,0,0,0,0,,,,,,,,,,,,,,,,,0,4,4,4,,,,,,,,,,,,,,,,,,,,,,,,,,,,,,,,,,,,,,,,,,,,,,,,,,,,,,,,,,,,,,,,,,,,,,,,,,,,,1.884259248773257,0.8757666000019526,236.82021489999897,None,ScrollUp,정답입니다,236.82021489999897,None,236.82021489999897,None,236.82021489999897,None,236.82021489999897,None,237.595548399986,None,237.595548399986,238.09557819999463,,,,,,,,,,,,,,,,018,2022-05-12_19h59.20.742,FishGame,2022.1.1,59.996676186768205,
,6,나를 보내줘,6,Green,A,0,0,ScrollUp,ScrollDown,Green.png,2,NonTarget,NonTarget,,,,,0,0,0,0,,,,,,,,,,,,,,,,,0,5,5,5,,,,,,,,,,,,,,,,,,,,,,,,,,,,,,,,,,,,,,,,,,,,,,,,,,,,,,,,,,,,,,,,,,,,,,,,,,,,,1.8487654278675716,1.1608053000090877,238.71048429999792,None,ScrollUp,정답입니다,238.71048429999792,None,238.71048429999792,None,238.71048429999792,None,238.71048429999792,None,239.7763721999945,None,239.7763721999945,240.27645729998767,,,,,,,,,,,,,,,,018,2022-05-12_19h59.20.742,FishGame,2022.1.1,59.996676186768205,
,7,넌 엄격해,3,Green,A,4.166666666666666,4.1,ScrollDown,ScrollUp,Green.png,2,Neutral,Neutral,,,,,0,0,0,0,,,,,,,,,,,,,,,,,0,6,6,6,,,,,,,,,,,,,,,,,,,,,,,,,,,,,,,,,,,,,,,,,,,,,,,,,,,,,,,,,,,,,,,,,,,,,,,,,,,,,1.1913580348094304,1.4657157000037841,240.90075059999072,None,ScrollDown,정답입니다,240.90075059999072,None,240.90075059999072,None,240.90075059999072,None,240.90075059999072,None,242.26222099999723,None,242.26222099999723,242.76225179999892,,,,,,,,,,,,,,,,018,2022-05-12_19h59.20.742,FishGame,2022.1.1,59.996676186768205,
,8,나를 보내줘,6,Green,A,0,0,ScrollUp,ScrollDown,Green.png,2,NonTarget,NonTarget,,,,,0,0,0,0,,,,,,,,,,,,,,,,,0,7,7,7,,,,,,,,,,,,,,,,,,,,,,,,,,,,,,,,,,,,,,,,,,,,,,,,,,,,,,,,,,,,,,,,,,,,,,,,,,,,,1.6944444452722869,0.9796081000095,243.3755616999988,None,ScrollUp,정답입니다,243.3755616999988,None,243.3755616999988,None,243.3755616999988,None,243.3755616999988,None,244.26219719999062,None,244.26219719999062,244.76543139999558,,,,,,,,,,,,,,,,018,2022-05-12_19h59.20.742,FishGame,2022.1.1,59.996676186768205,
,9,넌 대담해,3,Orange,B,4.875,4.866666666666666,ScrollUp,ScrollDown,Orange.png,2,Neutral,Neutral,,,,,0,0,0,0,,,,,,,,,,,,,,,,,0,8,8,8,,,,,,,,,,,,,,,,,,,,,,,,,,,,,,,,,,,,,,,,,,,,,,,,,,,,,,,,,,,,,,,,,,,,,,,,,,,,,1.7685185273488362,0.9442162000050303,245.38628659999813,None,ScrollUp,정답입니다,245.38628659999813,None,245.38628659999813,None,245.38628659999813,None,245.38628659999813,None,246.22655079999822,None,246.22655079999822,246.73184779999428,,,,,,,,,,,,,,,,018,2022-05-12_19h59.20.742,FishGame,2022.1.1,59.996676186768205,
,10,넌 꾸준해,1,Green,A,5.916666666666668,5.8,ScrollDown,ScrollUp,Green.png,2,Positive,Congruent,,,,,0,0,0,0,,,,,,,,,,,,,,,,,0,9,9,9,,,,,,,,,,,,,,,,,,,,,,,,,,,,,,,,,,,,,,,,,,,,,,,,,,,,,,,,,,,,,,,,,,,,,,,,,,,,,1.1111111094554265,1.0795646000042325,247.3487097999896,None,ScrollDown,정답입니다,247.3487097999896,None,247.3487097999896,None,247.3487097999896,None,247.3487097999896,None,248.32857939999667,None,248.32857939999667,248.82870049998746,,,,,,,,,,,,,,,,018,2022-05-12_19h59.20.742,FishGame,2022.1.1,59.996676186768205,
,11,나를 데려가줘,6,Orange,B,0,0,ScrollDown,ScrollUp,Orange.png,2,NonTarget,NonTarget,,,,,0,0,0,0,,,,,,,,,,,,,,,,,0,10,10,10,,,,,,,,,,,,,,,,,,,,,,,,,,,,,,,,,,,,,,,,,,,,,,,,,,,,,,,,,,,,,,,,,,,,,,,,,,,,,1.1867283930381138,1.1255888000014238,249.44997799998964,None,ScrollDown,정답입니다,249.44997799998964,None,249.44997799998964,None,249.44997799998964,None,249.44997799998964,None,250.47643919999246,None,250.47643919999246,250.97865279999678,,,,,,,,,,,,,,,,018,2022-05-12_19h59.20.742,FishGame,2022.1.1,59.996676186768205,
,12,넌 독선적이야,5,Green,A,2.458333333333333,1.933333333333333,ScrollDown,ScrollUp,Green.png,2,Negative,Incongruent,,,,,0,0,0,0,,,,,,,,,,,,,,,,,0,11,11,11,,,,,,,,,,,,,,,,,,,,,,,,,,,,,,,,,,,,,,,,,,,,,,,,,,,,,,,,,,,,,,,,,,,,,,,,,,,,,1.0679012437661488,1.1450249000045005,251.6036008999945,None,ScrollDown,정답입니다,251.6036008999945,None,251.6036008999945,None,251.6036008999945,None,251.6036008999945,None,252.64299059999757,None,252.64299059999757,253.14307539998845,,,,,,,,,,,,,,,,018,2022-05-12_19h59.20.742,FishGame,2022.1.1,59.996676186768205,
,13,나를 보내줘,6,Green,A,0,0,ScrollUp,ScrollDown,Green.png,2,NonTarget,NonTarget,,,,,0,0,0,0,,,,,,,,,,,,,,,,,0,12,12,12,,,,,,,,,,,,,,,,,,,,,,,,,,,,,,,,,,,,,,,,,,,,,,,,,,,,,,,,,,,,,,,,,,,,,,,,,,,,,1.8472222139437993,1.0608188000041991,253.76516489998903,None,ScrollUp,정답입니다,253.76516489998903,None,253.76516489998903,None,253.76516489998903,None,253.76516489998903,None,254.7263299999904,None,254.7263299999904,255.2285383999988,,,,,,,,,,,,,,,,018,2022-05-12_19h59.20.742,FishGame,2022.1.1,59.996676186768205,
,14,넌 책임감있어,1,Orange,B,6.347826086956522,6,ScrollUp,ScrollDown,Orange.png,2,Positive,Incongruent,,,,,0,0,0,0,,,,,,,,,,,,,,,,,0,13,13,13,,,,,,,,,,,,,,,,,,,,,,,,,,,,,,,,,,,,,,,,,,,,,,,,,,,,,,,,,,,,,,,,,,,,,,,,,,,,,1.6574074104428291,1.0463428999937605,255.85480289999396,None,ScrollUp,정답입니다,255.85480289999396,None,255.85480289999396,None,255.85480289999396,None,255.85480289999396,None,256.79299009998795,None,256.79299009998795,257.2950630999985,,,,,,,,,,,,,,,,018,2022-05-12_19h59.20.742,FishGame,2022.1.1,59.996676186768205,
,15,넌 문학적이야,3,Green,A,4.708333333333334,4.333333333333333,ScrollDown,ScrollUp,Green.png,2,Neutral,Neutral,,,,,0,0,0,0,,,,,,,,,,,,,,,,,0,14,14,14,,,,,,,,,,,,,,,,,,,,,,,,,,,,,,,,,,,,,,,,,,,,,,,,,,,,,,,,,,,,,,,,,,,,,,,,,,,,,1.2901234527428946,0.8803184999997029,257.91457329998957,None,ScrollDown,정답입니다,257.91457329998957,None,257.91457329998957,None,257.91457329998957,None,257.91457329998957,None,258.69286479998846,None,258.69286479998846,259.19515339999634,,,,,,,,,,,,,,,,018,2022-05-12_19h59.20.742,FishGame,2022.1.1,59.996676186768205,
,16,넌 재미있어,1,Orange,B,5.875,5.7,ScrollUp,ScrollDown,Orange.png,2,Positive,Incongruent,,,,,0,0,0,0,,,,,,,,,,,,,,,,,0,15,15,15,,,,,,,,,,,,,,,,,,,,,,,,,,,,,,,,,,,,,,,,,,,,,,,,,,,,,,,,,,,,,,,,,,,,,,,,,,,,,1.8966049353281658,1.4272763999906601,259.81487069999275,None,ScrollUp,정답입니다,259.81487069999275,None,259.81487069999275,None,259.81487069999275,None,259.81487069999275,None,261.14504649999435,None,261.14504649999435,261.64509809999436,,,,,,,,,,,,,,,,018,2022-05-12_19h59.20.742,FishGame,2022.1.1,59.996676186768205,
,17,나를 데려가줘,6,Orange,B,0,0,ScrollDown,ScrollUp,Orange.png,2,NonTarget,NonTarget,,,,,0,0,0,0,,,,,,,,,,,,,,,,,0,16,16,16,,,,,,,,,,,,,,,,,,,,,,,,,,,,,,,,,,,,,,,,,,,,,,,,,,,,,,,,,,,,,,,,,,,,,,,,,,,,,1.2916666666666665,0.9771475000015926,262.2643312,None,ScrollDown,정답입니다,262.2643312,None,262.2643312,None,262.2643312,None,262.2643312,None,263.1428920999897,None,263.1428920999897,263.6428627999994,,,,,,,,,,,,,,,,018,2022-05-12_19h59.20.742,FishGame,2022.1.1,59.996676186768205,
,18,넌 협력적이야,1,Green,A,5.625,5.633333333333334,ScrollDown,ScrollUp,Green.png,2,Positive,Congruent,,,,,0,0,0,0,,,,,,,,,,,,,,,,,0,17,17,17,,,,,,,,,,,,,,,,,,,,,,,,,,,,,,,,,,,,,,,,,,,,,,,,,,,,,,,,,,,,,,,,,,,,,,,,,,,,,1.67746914178133,0.946518600001582,264.26593159999175,None,ScrollUp,오답입니다,264.26593159999175,None,264.26593159999175,None,264.26593159999175,None,264.26593159999175,None,265.1094740999979,None,265.1094740999979,265.6117302999919,,,,,,,,,,,,,,,,018,2022-05-12_19h59.20.742,FishGame,2022.1.1,59.996676186768205,
,19,넌 평범해,3,Orange,B,4.333333333333332,4.233333333333333,ScrollUp,ScrollDown,Orange.png,2,Neutral,Neutral,,,,,0,0,0,0,,,,,,,,,,,,,,,,,0,18,18,18,,,,,,,,,,,,,,,,,,,,,,,,,,,,,,,,,,,,,,,,,,,,,,,,,,,,,,,,,,,,,,,,,,,,,,,,,,,,,1.8749999900658925,1.2253831999987597,266.23554569999396,None,ScrollUp,정답입니다,266.23554569999396,None,266.23554569999396,None,266.23554569999396,None,266.23554569999396,None,267.3591522999923,None,267.3591522999923,267.8592146999872,,,,,,,,,,,,,,,,018,2022-05-12_19h59.20.742,FishGame,2022.1.1,59.996676186768205,
,20,넌 오만해,5,Green,A,2.333333333333333,2,ScrollDown,ScrollUp,Green.png,2,Negative,Incongruent,,,,,0,0,0,0,,,,,,,,,,,,,,,,,0,19,19,19,,,,,,,,,,,,,,,,,,,,,,,,,,,,,,,,,,,,,,,,,,,,,,,,,,,,,,,,,,,,,,,,,,,,,,,,,,,,,1.0354938507080078,1.7320574000041233,268.4794792999892,None,ScrollDown,정답입니다,268.4794792999892,None,268.4794792999892,None,268.4794792999892,None,268.4794792999892,None,270.11165799999435,None,270.11165799999435,270.6116525999969,,,,,,,,,,,,,,,,018,2022-05-12_19h59.20.742,FishGame,2022.1.1,59.996676186768205,
,21,넌 운이없어,4,Orange,B,3,3.466666666666667,ScrollUp,ScrollDown,Orange.png,2,Negative,Congruent,,,,,0,0,0,0,,,,,,,,,,,,,,,,,0,20,20,20,,,,,,,,,,,,,,,,,,,,,,,,,,,,,,,,,,,,,,,,,,,,,,,,,,,,,,,,,,,,,,,,,,,,,,,,,,,,,1.8348765522241592,1.1757360000046901,271.23397689999547,None,ScrollUp,정답입니다,271.23397689999547,None,271.23397689999547,None,271.23397689999547,None,271.23397689999547,None,272.3093313999998,None,272.3093313999998,272.81147309999506,,,,,,,,,,,,,,,,018,2022-05-12_19h59.20.742,FishGame,2022.1.1,59.996676186768205,
,22,넌 창조적이야,2,Orange,B,6.125,4.633333333333334,ScrollUp,ScrollDown,Orange.png,2,Positive,Incongruent,,,,,0,0,0,0,,,,,,,,,,,,,,,,,0,21,21,21,,,,,,,,,,,,,,,,,,,,,,,,,,,,,,,,,,,,,,,,,,,,,,,,,,,,,,,,,,,,,,,,,,,,,,,,,,,,,1.9753086467583973,1.227335999996285,273.4371350000001,None,ScrollUp,정답입니다,273.4371350000001,None,273.4371350000001,None,273.4371350000001,None,273.4371350000001,None,274.5614467999985,None,274.5614467999985,275.0780850999872,,,,,,,,,,,,,,,,018,2022-05-12_19h59.20.742,FishGame,2022.1.1,59.996676186768205,
,23,나를 보내줘,6,Green,A,0,0,ScrollUp,ScrollDown,Green.png,2,NonTarget,NonTarget,,,,,0,0,0,0,,,,,,,,,,,,,,,,,0,22,22,22,,,,,,,,,,,,,,,,,,,,,,,,,,,,,,,,,,,,,,,,,,,,,,,,,,,,,,,,,,,,,,,,,,,,,,,,,,,,,1.8132716069618862,1.142644299994572,275.69643109999015,None,ScrollUp,정답입니다,275.69643109999015,None,275.69643109999015,None,275.69643109999015,None,275.69643109999015,None,276.7426024999877,None,276.7426024999877,277.24257679999573,,,,,,,,,,,,,,,,018,2022-05-12_19h59.20.742,FishGame,2022.1.1,59.996676186768205,
,24,넌 통찰력있어,2,Green,A,6.5,4.8,ScrollDown,ScrollUp,Green.png,2,Positive,Congruent,,,,,0,0,0,0,,,,,,,,,,,,,,,,,0,23,23,23,,,,,,,,,,,,,,,,,,,,,,,,,,,,,,,,,,,,,,,,,,,,,,,,,,,,,,,,,,,,,,,,,,,,,,,,,,,,,1.0216049253940582,1.3269292000040878,277.86446069998783,None,ScrollDown,정답입니다,277.86446069998783,None,277.86446069998783,None,277.86446069998783,None,277.86446069998783,None,279.0922487999924,None,279.0922487999924,279.5923208999884,,,,,,,,,,,,,,,,018,2022-05-12_19h59.20.742,FishGame,2022.1.1,59.996676186768205,
,25,넌 경솔해,5,Orange,B,2.458333333333333,2.266666666666667,ScrollUp,ScrollDown,Orange.png,2,Negative,Congruent,,,,,0,0,0,0,,,,,,,,,,,,,,,,,0,24,24,24,,,,,,,,,,,,,,,,,,,,,,,,,,,,,,,,,,,,,,,,,,,,,,,,,,,,,,,,,,,,,,,,,,,,,,,,,,,,,2,1.2965508999914164,280.2224911999947,None,ScrollUp,정답입니다,280.2224911999947,None,280.2224911999947,None,280.2224911999947,None,280.2224911999947,None,281.41143549999106,None,281.41143549999106,281.9114675999881,,,,,,,,,,,,,,,,018,2022-05-12_19h59.20.742,FishGame,2022.1.1,59.996676186768205,
,26,넌 초조해,4,Green,A,2.916666666666667,3.133333333333333,ScrollDown,ScrollUp,Green.png,2,Negative,Incongruent,,,,,0,0,0,0,,,,,,,,,,,,,,,,,0,25,25,25,,,,,,,,,,,,,,,,,,,,,,,,,,,,,,,,,,,,,,,,,,,,,,,,,,,,,,,,,,,,,,,,,,,,,,,,,,,,,1.0061728358268738,1.0788799000001745,282.5324799999944,None,ScrollDown,정답입니다,282.5324799999944,None,282.5324799999944,None,282.5324799999944,None,282.5324799999944,None,283.50910949999525,None,283.50910949999525,284.01136349998706,,,,,,,,,,,,,,,,018,2022-05-12_19h59.20.742,FishGame,2022.1.1,59.996676186768205,
,27,넌 무관심해,4,Orange,B,2.833333333333333,2.9,ScrollUp,ScrollDown,Orange.png,2,Negative,Congruent,,,,,0,0,0,0,,,,,,,,,,,,,,,,,0,26,26,26,,,,,,,,,,,,,,,,,,,,,,,,,,,,,,,,,,,,,,,,,,,,,,,,,,,,,,,,,,,,,,,,,,,,,,,,,,,,,1.9969135920206706,0.9963212000002386,284.630840599988,None,ScrollUp,정답입니다,284.630840599988,None,284.630840599988,None,284.630840599988,None,284.630840599988,None,285.5257453999948,None,285.5257453999948,286.0279339999979,,,,,,,,,,,,,,,,018,2022-05-12_19h59.20.742,FishGame,2022.1.1,59.996676186768205,
,28,넌 감성적이야,3,Orange,B,4.125,4.166666666666667,ScrollUp,ScrollDown,Orange.png,2,Neutral,Neutral,,,,,0,0,0,0,,,,,,,,,,,,,,,,,0,27,27,27,,,,,,,,,,,,,,,,,,,,,,,,,,,,,,,,,,,,,,,,,,,,,,,,,,,,,,,,,,,,,,,,,,,,,,,,,,,,,2,1.0610382000013487,286.64887179998914,None,ScrollUp,정답입니다,286.64887179998914,None,286.64887179998914,None,286.64887179998914,None,286.64887179998914,None,287.6089845999959,None,287.6089845999959,288.11116219998803,,,,,,,,,,,,,,,,018,2022-05-12_19h59.20.742,FishGame,2022.1.1,59.996676186768205,
,29,넌 배려심있어,1,Green,A,6.083333333333333,5.5,ScrollDown,ScrollUp,Green.png,2,Positive,Congruent,,,,,0,0,0,0,,,,,,,,,,,,,,,,,0,28,28,28,,,,,,,,,,,,,,,,,,,,,,,,,,,,,,,,,,,,,,,,,,,,,,,,,,,,,,,,,,,,,,,,,,,,,,,,,,,,,1,1.0756550000078278,288.73585469998943,None,ScrollDown,정답입니다,288.73585469998943,None,288.73585469998943,None,288.73585469998943,None,288.73585469998943,None,289.71116969999275,None,289.71116969999275,290.2111892999965,,,,,,,,,,,,,,,,018,2022-05-12_19h59.20.742,FishGame,2022.1.1,59.996676186768205,
,30,넌 숨김없어,3,Green,A,4.5,4.933333333333334,ScrollDown,ScrollUp,Green.png,2,Neutral,Neutral,,,,,0,0,0,0,,,,,,,,,,,,,,,,,0,29,29,29,,,,,,,,,,,,,,,,,,,,,,,,,,,,,,,,,,,,,,,,,,,,,,,,,,,,,,,,,,,,,,,,,,,,,,,,,,,,,1.0493827263514202,0.9440100000065286,290.83434309999575,None,ScrollDown,정답입니다,290.83434309999575,None,290.83434309999575,None,290.83434309999575,None,290.83434309999575,None,291.67553829999815,None,291.67553829999815,292.17561879999994,,,,,,,,,,,,,,,,018,2022-05-12_19h59.20.742,FishGame,2022.1.1,59.996676186768205,
,31,넌 훌륭해,2,Orange,B,5.916666666666667,4.033333333333333,ScrollUp,ScrollDown,Orange.png,2,Positive,Incongruent,,,,,0,0,0,0,,,,,,,,,,,,,,,,,0,30,30,30,,,,,,,,,,,,,,,,,,,,,,,,,,,,,,,,,,,,,,,,,,,,,,,,,,,,,,,,,,,,,,,,,,,,,,,,,,,,,2,0.8778203000110807,292.800161399995,None,ScrollUp,정답입니다,292.800161399995,None,292.800161399995,None,292.800161399995,None,292.800161399995,None,293.5755646999896,None,293.5755646999896,294.07773169998836,,,,,,,,,,,,,,,,018,2022-05-12_19h59.20.742,FishGame,2022.1.1,59.996676186768205,
,32,넌 슬기로워,2,Green,A,6.166666666666667,4.1,ScrollDown,ScrollUp,Green.png,2,Positive,Congruent,,,,,0,0,0,0,,,,,,,,,,,,,,,,,0,31,31,31,,,,,,,,,,,,,,,,,,,,,,,,,,,,,,,,,,,,,,,,,,,,,,,,,,,,,,,,,,,,,,,,,,,,,,,,,,,,,1.0432098706563313,0.9440417000005255,294.7008271999948,None,ScrollDown,정답입니다,294.7008271999948,None,294.7008271999948,None,294.7008271999948,None,294.7008271999948,None,295.5444487999921,None,295.5444487999921,296.0589034999866,,,,,,,,,,,,,,,,018,2022-05-12_19h59.20.742,FishGame,2022.1.1,59.996676186768205,
,33,넌 냉혹해,5,Green,A,2.583333333333333,2.1,ScrollDown,ScrollUp,Green.png,2,Negative,Incongruent,,,,,0,0,0,0,,,,,,,,,,,,,,,,,0,32,32,32,,,,,,,,,,,,,,,,,,,,,,,,,,,,,,,,,,,,,,,,,,,,,,,,,,,,,,,,,,,,,,,,,,,,,,,,,,,,,1.0293209950129192,0.9443999000068288,296.6826429999928,None,ScrollDown,정답입니다,296.6826429999928,None,296.6826429999928,None,296.6826429999928,None,296.6826429999928,None,297.52542879999964,None,297.52542879999964,298.0276107999962,,,,,,,,,,,,,,,,018,2022-05-12_19h59.20.742,FishGame,2022.1.1,59.996676186768205,
,34,나를 데려가줘,6,Orange,B,0,0,ScrollDown,ScrollUp,Orange.png,2,NonTarget,NonTarget,,,,,0,0,0,0,,,,,,,,,,,,,,,,,0,33,33,33,,,,,,,,,,,,,,,,,,,,,,,,,,,,,,,,,,,,,,,,,,,,,,,,,,,,,,,,,,,,,,,,,,,,,,,,,,,,,1,1.2941139999893494,298.6489894999977,None,ScrollDown,정답입니다,298.6489894999977,None,298.6489894999977,None,298.6489894999977,None,298.6489894999977,None,299.8442761999904,None,299.8442761999904,300.3443471999926,,,,,,,,,,,,,,,,018,2022-05-12_19h59.20.742,FishGame,2022.1.1,59.996676186768205,
,35,넌 편파적이야,5,Orange,B,2.125,2,ScrollUp,ScrollDown,Orange.png,2,Negative,Congruent,,,,,0,0,0,0,,,,,,,,,,,,,,,,,0,34,34,34,,,,,,,,,,,,,,,,,,,,,,,,,,,,,,,,,,,,,,,,,,,,,,,,,,,,,,,,,,,,,,,,,,,,,,,,,,,,,2,0.9434443000063766,300.96808219999366,None,ScrollUp,정답입니다,300.96808219999366,None,300.96808219999366,None,300.96808219999366,None,300.96808219999366,None,301.80873579999025,None,301.80873579999025,302.31087209998805,,,,,,,,,,,,,,,,018,2022-05-12_19h59.20.742,FishGame,2022.1.1,59.996676186768205,
,36,넌 슬퍼,4,Green,A,2.583333333333333,3.066666666666667,ScrollDown,ScrollUp,Green.png,2,Negative,Incongruent,,,,,0,0,0,0,,,,,,,,,,,,,,,,,0,35,35,35,,,,,,,,,,,,,,,,,,,,,,,,,,,,,,,,,,,,,,,,,,,,,,,,,,,,,,,,,,,,,,,,,,,,,,,,,,,,,1,1.0319370000070194,302.9243981999898,None,ScrollDown,정답입니다,302.9243981999898,None,302.9243981999898,None,302.9243981999898,None,302.9243981999898,None,303.8586892999883,None,303.8586892999883,304.36088379999273,,,,,,,,,,,,,,,,018,2022-05-12_19h59.20.742,FishGame,2022.1.1,59.996676186768205,
,37,나를 데려가줘,6,Orange,B,0,0,ScrollDown,ScrollUp,Orange.png,2,NonTarget,NonTarget,,,,,0,0,0,0,,,,,,,,,,,,,,,,,0,36,36,36,,,,,,,,,,,,,,,,,,,,,,,,,,,,,,,,,,,,,,,,,,,,,,,,,,,,,,,,,,,,,,,,,,,,,,,,,,,,,1.0679012437661488,1.0330882999987807,304.9828667999973,None,ScrollDown,정답입니다,304.9828667999973,None,304.9828667999973,None,304.9828667999973,None,304.9828667999973,None,305.91871469999023,None,305.91871469999023,306.4251069999882,,,,,,,,,,,,,,,,018,2022-05-12_19h59.20.742,FishGame,2022.1.1,59.996676186768205,
,38,넌 친절해,1,Orange,B,6.041666666666667,5.533333333333333,ScrollUp,ScrollDown,Orange.png,2,Positive,Incongruent,,,,,0,0,0,0,,,,,,,,,,,,,,,,,0,37,37,37,,,,,,,,,,,,,,,,,,,,,,,,,,,,,,,,,,,,,,,,,,,,,,,,,,,,,,,,,,,,,,,,,,,,,,,,,,,,,1.67746914178133,0.9794333999889204,307.0510343999922,None,ScrollUp,정답입니다,307.0510343999922,None,307.0510343999922,None,307.0510343999922,None,307.0510343999922,None,307.9250372999959,None,307.9250372999959,308.42511709999235,,,,,,,,,,,,,,,,018,2022-05-12_19h59.20.742,FishGame,2022.1.1,59.996676186768205,
,1,넌 엉성해,4,Green,A,3,3.3,ScrollDown,ScrollUp,Green.png,3,Negative,Incongruent,,,,,0,0,0,0,,,,,,,,,,,,,,,,,,,,,0,0,0,0,,,,,,,,,,,,,,,,,,,,,,,,,,,,,,,,340.27465159998974,341.78006939998886,341.81341039999097,342.77691829999094,342.8102857999911,343.7579134999978,343.7579134999978,None,,,,,,,,,,,,,,,,,,,,,,,,,,,,,,,,,,1,1.1758056999969995,344.84747669998615,None,ScrollDown,정답입니다,344.84747669998615,None,344.84747669998615,None,344.84747669998615,None,344.84747669998615,None,345.9245271999971,None,345.9245271999971,346.4299352999951,308.92756989999907,None,308.92756989999907,None,0.25925925,-0.1037037,1,0,0,0.015997209993656725,None,338.92981839999266,None,,,018,2022-05-12_19h59.20.742,FishGame,2022.1.1,59.996676186768205,
,2,나를 보내줘,6,Green,A,0,0,ScrollUp,ScrollDown,Green.png,3,NonTarget,NonTarget,,,,,0,0,0,0,,,,,,,,,,,,,,,,,,,,,0,1,1,1,,,,,,,,,,,,,,,,,,,,,,,,,,,,,,,,,,,,,,,,,,,,,,,,,,,,,,,,,,,,,,,,,,,,,,,,,1.9521604875723522,1.175849000006565,347.0511076999974,None,ScrollUp,정답입니다,347.0511076999974,None,347.0511076999974,None,347.0511076999974,None,347.0511076999974,None,348.12661319998733,None,348.12661319998733,348.6266271999921,,,,,,,,,,,,,,,,018,2022-05-12_19h59.20.742,FishGame,2022.1.1,59.996676186768205,
,3,넌 활발해,1,Orange,B,5.666666666666667,5.6,ScrollUp,ScrollDown,Orange.png,3,Positive,Incongruent,,,,,0,0,0,0,,,,,,,,,,,,,,,,,,,,,0,2,2,2,,,,,,,,,,,,,,,,,,,,,,,,,,,,,,,,,,,,,,,,,,,,,,,,,,,,,,,,,,,,,,,,,,,,,,,,,2,0.8623077999945963,349.2640500999987,None,ScrollUp,정답입니다,349.2640500999987,None,349.2640500999987,None,349.2640500999987,None,349.2640500999987,None,350.02444389999437,None,350.02444389999437,350.5266549999942,,,,,,,,,,,,,,,,018,2022-05-12_19h59.20.742,FishGame,2022.1.1,59.996676186768205,
,4,넌 논리적이야,2,Green,A,5.666666666666666,4.633333333333334,ScrollDown,ScrollUp,Green.png,3,Positive,Congruent,,,,,0,0,0,0,,,,,,,,,,,,,,,,,,,,,0,3,3,3,,,,,,,,,,,,,,,,,,,,,,,,,,,,,,,,,,,,,,,,,,,,,,,,,,,,,,,,,,,,,,,,,,,,,,,,,1,0.9589591000112705,351.15171319998626,None,ScrollDown,정답입니다,351.15171319998626,None,351.15171319998626,None,351.15171319998626,None,351.15171319998626,None,352.00767449999694,None,352.00767449999694,352.5077430999954,,,,,,,,,,,,,,,,018,2022-05-12_19h59.20.742,FishGame,2022.1.1,59.996676186768205,
,5,넌 과묵해,3,Green,A,3.875,4.4,ScrollDown,ScrollUp,Green.png,3,Neutral,Neutral,,,,,0,0,0,0,,,,,,,,,,,,,,,,,,,,,0,4,4,4,,,,,,,,,,,,,,,,,,,,,,,,,,,,,,,,,,,,,,,,,,,,,,,,,,,,,,,,,,,,,,,,,,,,,,,,,1.1080246816078823,0.8945165999903111,353.1286972999951,None,ScrollDown,정답입니다,353.1286972999951,None,353.1286972999951,None,353.1286972999951,None,353.1286972999951,None,353.92435279999336,None,353.92435279999336,354.4243962999899,,,,,,,,,,,,,,,,018,2022-05-12_19h59.20.742,FishGame,2022.1.1,59.996676186768205,
,6,나를 데려가줘,6,Orange,B,0,0,ScrollDown,ScrollUp,Orange.png,3,NonTarget,NonTarget,,,,,0,0,0,0,,,,,,,,,,,,,,,,,,,,,0,5,5,5,,,,,,,,,,,,,,,,,,,,,,,,,,,,,,,,,,,,,,,,,,,,,,,,,,,,,,,,,,,,,,,,,,,,,,,,,1,0.9922378000046592,355.0484510999959,None,ScrollDown,정답입니다,355.0484510999959,None,355.0484510999959,None,355.0484510999959,None,355.0484510999959,None,355.94101349999255,None,355.94101349999255,356.44316169999365,,,,,,,,,,,,,,,,018,2022-05-12_19h59.20.742,FishGame,2022.1.1,59.996676186768205,
,7,넌 미숙해,4,Orange,B,3,3,ScrollUp,ScrollDown,Orange.png,3,Negative,Congruent,,,,,0,0,0,0,,,,,,,,,,,,,,,,,,,,,0,6,6,6,,,,,,,,,,,,,,,,,,,,,,,,,,,,,,,,,,,,,,,,,,,,,,,,,,,,,,,,,,,,,,,,,,,,,,,,,2,1.0294779999967432,357.06406569998944,None,ScrollUp,정답입니다,357.06406569998944,None,357.06406569998944,None,357.06406569998944,None,357.06406569998944,None,357.99088779999875,None,357.99088779999875,358.4931085999997,,,,,,,,,,,,,,,,018,2022-05-12_19h59.20.742,FishGame,2022.1.1,59.996676186768205,
,8,나를 보내줘,6,Green,A,0,0,ScrollUp,ScrollDown,Green.png,3,NonTarget,NonTarget,,,,,0,0,0,0,,,,,,,,,,,,,,,,,,,,,0,7,7,7,,,,,,,,,,,,,,,,,,,,,,,,,,,,,,,,,,,,,,,,,,,,,,,,,,,,,,,,,,,,,,,,,,,,,,,,,1.8657407313585281,0.9775468000007095,359.1112129999965,None,ScrollUp,정답입니다,359.1112129999965,None,359.1112129999965,None,359.1112129999965,None,359.1112129999965,None,359.9931106999866,None,359.9931106999866,360.4931313999987,,,,,,,,,,,,,,,,018,2022-05-12_19h59.20.742,FishGame,2022.1.1,59.996676186768205,
,9,넌 자신만만해,3,Orange,B,4.833333333333334,4.333333333333333,ScrollUp,ScrollDown,Orange.png,3,Neutral,Neutral,,,,,0,0,0,0,,,,,,,,,,,,,,,,,,,,,0,8,8,8,,,,,,,,,,,,,,,,,,,,,,,,,,,,,,,,,,,,,,,,,,,,,,,,,,,,,,,,,,,,,,,,,,,,,,,,,1.884259248773257,1.2613463000016054,361.11140549999254,None,ScrollUp,정답입니다,361.11140549999254,None,361.11140549999254,None,361.11140549999254,None,361.11140549999254,None,362.2741192999965,None,362.2741192999965,362.7742062999896,,,,,,,,,,,,,,,,018,2022-05-12_19h59.20.742,FishGame,2022.1.1,59.996676186768205,
,10,넌 탐욕스러워,5,Green,A,2.25,2.1,ScrollDown,ScrollUp,Green.png,3,Negative,Incongruent,,,,,0,0,0,0,,,,,,,,,,,,,,,,,,,,,0,9,9,9,,,,,,,,,,,,,,,,,,,,,,,,,,,,,,,,,,,,,,,,,,,,,,,,,,,,,,,,,,,,,,,,,,,,,,,,,1.0709876716136932,0.8757877000025474,363.4004527999932,None,ScrollDown,정답입니다,363.4004527999932,None,363.4004527999932,None,363.4004527999932,None,363.4004527999932,None,364.1741336999985,None,364.1741336999985,364.6763546000002,,,,,,,,,,,,,,,,018,2022-05-12_19h59.20.742,FishGame,2022.1.1,59.996676186768205,
,11,넌 인기있어,2,Green,A,5.458333333333333,4.5,ScrollDown,ScrollUp,Green.png,3,Positive,Congruent,,,,,0,0,0,0,,,,,,,,,,,,,,,,,,,,,0,10,10,10,,,,,,,,,,,,,,,,,,,,,,,,,,,,,,,,,,,,,,,,,,,,,,,,,,,,,,,,,,,,,,,,,,,,,,,,,1.0879629751046498,0.888788399999612,365.29376049998973,None,ScrollDown,정답입니다,365.29376049998973,None,365.29376049998973,None,365.29376049998973,None,365.29376049998973,None,366.08616609999444,None,366.08616609999444,366.59055549999175,,,,,,,,,,,,,,,,018,2022-05-12_19h59.20.742,FishGame,2022.1.1,59.996676186768205,
,12,나를 데려가줘,6,Orange,B,0,0,ScrollDown,ScrollUp,Orange.png,3,NonTarget,NonTarget,,,,,0,0,0,0,,,,,,,,,,,,,,,,,,,,,0,11,11,11,,,,,,,,,,,,,,,,,,,,,,,,,,,,,,,,,,,,,,,,,,,,,,,,,,,,,,,,,,,,,,,,,,,,,,,,,1.0709876716136932,1.011254099998041,367.2108959999896,None,ScrollDown,정답입니다,367.2108959999896,None,367.2108959999896,None,367.2108959999896,None,367.2108959999896,None,368.12384469999233,None,368.12384469999233,368.6239108999871,,,,,,,,,,,,,,,,018,2022-05-12_19h59.20.742,FishGame,2022.1.1,59.996676186768205,
,13,넌 뛰어나,2,Orange,B,6.166666666666667,4,ScrollUp,ScrollDown,Orange.png,3,Positive,Incongruent,,,,,0,0,0,0,,,,,,,,,,,,,,,,,,,,,0,12,12,12,,,,,,,,,,,,,,,,,,,,,,,,,,,,,,,,,,,,,,,,,,,,,,,,,,,,,,,,,,,,,,,,,,,,,,,,,1.9675925771395366,0.926114800007781,369.25458969999454,None,ScrollUp,정답입니다,369.25458969999454,None,369.25458969999454,None,369.25458969999454,None,369.25458969999454,None,370.0763558999897,None,370.0763558999897,370.5764291999949,,,,,,,,,,,,,,,,018,2022-05-12_19h59.20.742,FishGame,2022.1.1,59.996676186768205,
,14,넌 낙관적이야,1,Green,A,5.75,5.8,ScrollDown,ScrollUp,Green.png,3,Positive,Congruent,,,,,0,0,0,0,,,,,,,,,,,,,,,,,,,,,0,13,13,13,,,,,,,,,,,,,,,,,,,,,,,,,,,,,,,,,,,,,,,,,,,,,,,,,,,,,,,,,,,,,,,,,,,,,,,,,1,1.544576499989489,371.2009016999946,None,ScrollDown,정답입니다,371.2009016999946,None,371.2009016999946,None,371.2009016999946,None,371.2009016999946,None,372.64036699999997,None,372.64036699999997,373.14043479999236,,,,,,,,,,,,,,,,018,2022-05-12_19h59.20.742,FishGame,2022.1.1,59.996676186768205,
,15,넌 산만해,4,Orange,B,2.695652173913043,3.033333333333333,ScrollUp,ScrollDown,Orange.png,3,Negative,Congruent,,,,,0,0,0,0,,,,,,,,,,,,,,,,,,,,,0,14,14,14,,,,,,,,,,,,,,,,,,,,,,,,,,,,,,,,,,,,,,,,,,,,,,,,,,,,,,,,,,,,,,,,,,,,,,,,,2,0.9988156000035815,373.76696899998933,None,ScrollUp,정답입니다,373.76696899998933,None,373.76696899998933,None,373.76696899998933,None,373.76696899998933,None,374.65953449999506,None,374.65953449999506,375.15958619999583,,,,,,,,,,,,,,,,018,2022-05-12_19h59.20.742,FishGame,2022.1.1,59.996676186768205,
,16,나를 보내줘,6,Green,A,0,0,ScrollUp,ScrollDown,Green.png,3,NonTarget,NonTarget,,,,,0,0,0,0,,,,,,,,,,,,,,,,,,,,,0,15,15,15,,,,,,,,,,,,,,,,,,,,,,,,,,,,,,,,,,,,,,,,,,,,,,,,,,,,,,,,,,,,,,,,,,,,,,,,,1.9799382885297139,1.045320700010052,375.7758426999935,None,ScrollUp,정답입니다,375.7758426999935,None,375.7758426999935,None,375.7758426999935,None,375.7758426999935,None,376.7235978999961,None,376.7235978999961,377.22369829998934,,,,,,,,,,,,,,,,018,2022-05-12_19h59.20.742,FishGame,2022.1.1,59.996676186768205,
,17,넌 교활해,5,Orange,B,2.333333333333333,2.133333333333333,ScrollUp,ScrollDown,Orange.png,3,Negative,Congruent,,,,,0,0,0,0,,,,,,,,,,,,,,,,,,,,,0,16,16,16,,,,,,,,,,,,,,,,,,,,,,,,,,,,,,,,,,,,,,,,,,,,,,,,,,,,,,,,,,,,,,,,,,,,,,,,,1.8765432039896648,1.1796890999976313,377.845296399988,None,ScrollUp,정답입니다,377.845296399988,None,377.845296399988,None,377.845296399988,None,377.845296399988,None,378.9236247999943,None,378.9236247999943,379.4236960999988,,,,,,,,,,,,,,,,018,2022-05-12_19h59.20.742,FishGame,2022.1.1,59.996676186768205,
,18,나를 보내줘,6,Green,A,0,0,ScrollUp,ScrollDown,Green.png,3,NonTarget,NonTarget,,,,,0,0,0,0,,,,,,,,,,,,,,,,,,,,,0,17,17,17,,,,,,,,,,,,,,,,,,,,,,,,,,,,,,,,,,,,,,,,,,,,,,,,,,,,,,,,,,,,,,,,,,,,,,,,,1.939814825852712,0.9795410999940941,380.041779399995,None,ScrollUp,정답입니다,380.041779399995,None,380.041779399995,None,380.041779399995,None,380.041779399995,None,380.9261167999939,None,380.9261167999939,381.4261218999891,,,,,,,,,,,,,,,,018,2022-05-12_19h59.20.742,FishGame,2022.1.1,59.996676186768205,
,19,넌 불친절해,5,Orange,B,2.208333333333333,2.033333333333333,ScrollUp,ScrollDown,Orange.png,3,Negative,Congruent,,,,,0,0,0,0,,,,,,,,,,,,,,,,,,,,,0,18,18,18,,,,,,,,,,,,,,,,,,,,,,,,,,,,,,,,,,,,,,,,,,,,,,,,,,,,,,,,,,,,,,,,,,,,,,,,,1.9166666666666667,1.275510099992971,382.05064389998734,None,ScrollUp,정답입니다,382.05064389998734,None,382.05064389998734,None,382.05064389998734,None,382.05064389998734,None,383.22348259999126,None,383.22348259999126,383.7235509999882,,,,,,,,,,,,,,,,018,2022-05-12_19h59.20.742,FishGame,2022.1.1,59.996676186768205,
,20,넌 지적이야,2,Orange,B,5.75,4.366666666666666,ScrollUp,ScrollDown,Orange.png,3,Positive,Incongruent,,,,,0,0,0,0,,,,,,,,,,,,,,,,,,,,,0,19,19,19,,,,,,,,,,,,,,,,,,,,,,,,,,,,,,,,,,,,,,,,,,,,,,,,,,,,,,,,,,,,,,,,,,,,,,,,,2,0.9294978000107221,384.34247559998767,None,ScrollUp,정답입니다,384.34247559998767,None,384.34247559998767,None,384.34247559998767,None,384.34247559998767,None,385.1734807999892,None,385.1734807999892,385.67603619999136,,,,,,,,,,,,,,,,018,2022-05-12_19h59.20.742,FishGame,2022.1.1,59.996676186768205,
,21,넌 우유부단해,4,Green,A,2.666666666666667,3.166666666666667,ScrollDown,ScrollUp,Green.png,3,Negative,Incongruent,,,,,0,0,0,0,,,,,,,,,,,,,,,,,,,,,0,20,20,20,,,,,,,,,,,,,,,,,,,,,,,,,,,,,,,,,,,,,,,,,,,,,,,,,,,,,,,,,,,,,,,,,,,,,,,,,1.095679019888242,0.9419381999905454,386.29670229999465,None,ScrollDown,정답입니다,386.29670229999465,None,386.29670229999465,None,386.29670229999465,None,386.29670229999465,None,387.14264629999525,None,387.14264629999525,387.64584379999724,,,,,,,,,,,,,,,,018,2022-05-12_19h59.20.742,FishGame,2022.1.1,59.996676186768205,
,22,나를 데려가줘,6,Orange,B,0,0,ScrollDown,ScrollUp,Orange.png,3,NonTarget,NonTarget,,,,,0,0,0,0,,,,,,,,,,,,,,,,,,,,,0,21,21,21,,,,,,,,,,,,,,,,,,,,,,,,,,,,,,,,,,,,,,,,,,,,,,,,,,,,,,,,,,,,,,,,,,,,,,,,,1.1049382785956066,0.9923382999986643,388.261336999989,None,ScrollDown,정답입니다,388.261336999989,None,388.261336999989,None,388.261336999989,None,388.261336999989,None,389.1569868999941,None,389.1569868999941,389.65926119999494,,,,,,,,,,,,,,,,018,2022-05-12_19h59.20.742,FishGame,2022.1.1,59.996676186768205,
,23,넌 성실해,1,Orange,B,6.041666666666666,5.7,ScrollUp,ScrollDown,Orange.png,3,Positive,Incongruent,,,,,0,0,0,0,,,,,,,,,,,,,,,,,,,,,0,22,22,22,,,,,,,,,,,,,,,,,,,,,,,,,,,,,,,,,,,,,,,,,,,,,,,,,,,,,,,,,,,,,,,,,,,,,,,,,1.6419753084580102,0.8089170000021113,390.2815105999907,None,ScrollUp,정답입니다,390.2815105999907,None,390.2815105999907,None,390.2815105999907,None,390.2815105999907,None,390.9902315999934,None,390.9902315999934,391.4902923999907,,,,,,,,,,,,,,,,018,2022-05-12_19h59.20.742,FishGame,2022.1.1,59.996676186768205,
,24,넌 현실주의적이야,3,Green,A,4.625,4.4,ScrollDown,ScrollUp,Green.png,3,Neutral,Neutral,,,,,0,0,0,0,,,,,,,,,,,,,,,,,,,,,0,23,23,23,,,,,,,,,,,,,,,,,,,,,,,,,,,,,,,,,,,,,,,,,,,,,,,,,,,,,,,,,,,,,,,,,,,,,,,,,1.0354938507080078,0.892416200003936,392.11427829999593,None,ScrollDown,정답입니다,392.11427829999593,None,392.11427829999593,None,392.11427829999593,None,392.11427829999593,None,392.9068841999979,None,392.9068841999979,393.409101199999,,,,,,,,,,,,,,,,018,2022-05-12_19h59.20.742,FishGame,2022.1.1,59.996676186768205,
,25,넌 진실돼,1,Green,A,6.625,5.566666666666666,ScrollDown,ScrollUp,Green.png,3,Positive,Congruent,,,,,0,0,0,0,,,,,,,,,,,,,,,,,,,,,0,24,24,24,,,,,,,,,,,,,,,,,,,,,,,,,,,,,,,,,,,,,,,,,,,,,,,,,,,,,,,,,,,,,,,,,,,,,,,,,1.1435185273488362,0.8775757000112208,394.0296047999873,None,ScrollDown,정답입니다,394.0296047999873,None,394.0296047999873,None,394.0296047999873,None,394.0296047999873,None,394.8090413999889,None,394.8090413999889,395.3090911999898,,,,,,,,,,,,,,,,018,2022-05-12_19h59.20.742,FishGame,2022.1.1,59.996676186768205,
,26,넌 천진난만해,3,Orange,B,4.958333333333334,4.833333333333333,ScrollUp,ScrollDown,Orange.png,3,Neutral,Neutral,,,,,0,0,0,0,,,,,,,,,,,,,,,,,,,,,0,25,25,25,,,,,,,,,,,,,,,,,,,,,,,,,,,,,,,,,,,,,,,,,,,,,,,,,,,,,,,,,,,,,,,,,,,,,,,,,1.5617283955216408,0.7604348000022583,395.9314549999981,None,ScrollUp,정답입니다,395.9314549999981,None,395.9314549999981,None,395.9314549999981,None,395.9314549999981,None,396.59016149998934,None,396.59016149998934,397.09017999999924,,,,,,,,,,,,,,,,018,2022-05-12_19h59.20.742,FishGame,2022.1.1,59.996676186768205,
,27,넌 교양없어,5,Green,A,2.416666666666667,2.2,ScrollDown,ScrollUp,Green.png,3,Negative,Incongruent,,,,,0,0,0,0,,,,,,,,,,,,,,,,,,,,,0,26,26,26,,,,,,,,,,,,,,,,,,,,,,,,,,,,,,,,,,,,,,,,,,,,,,,,,,,,,,,,,,,,,,,,,,,,,,,,,1.160493830839793,0.94653030000336,397.7161927999987,None,ScrollDown,정답입니다,397.7161927999987,None,397.7161927999987,None,397.7161927999987,None,397.7161927999987,None,398.55680839999695,None,398.55680839999695,399.05894719999924,,,,,,,,,,,,,,,,018,2022-05-12_19h59.20.742,FishGame,2022.1.1,59.996676186768205,
,28,나를 보내줘,6,Green,A,0,0,ScrollUp,ScrollDown,Green.png,3,NonTarget,NonTarget,,,,,0,0,0,0,,,,,,,,,,,,,,,,,,,,,0,27,27,27,,,,,,,,,,,,,,,,,,,,,,,,,,,,,,,,,,,,,,,,,,,,,,,,,,,,,,,,,,,,,,,,,,,,,,,,,1.7901234477758408,0.9599738999968395,399.6742929999891,None,ScrollUp,정답입니다,399.6742929999891,None,399.6742929999891,None,399.6742929999891,None,399.6742929999891,None,400.54009640000004,None,400.54009640000004,401.0423296999943,,,,,,,,,,,,,,,,018,2022-05-12_19h59.20.742,FishGame,2022.1.1,59.996676186768205,
,29,넌 엉뚱스러워,3,Green,A,4.166666666666667,4.133333333333334,ScrollDown,ScrollUp,Green.png,3,Neutral,Neutral,,,,,0,0,0,0,,,,,,,,,,,,,,,,,,,,,0,28,28,28,,,,,,,,,,,,,,,,,,,,,,,,,,,,,,,,,,,,,,,,,,,,,,,,,,,,,,,,,,,,,,,,,,,,,,,,,1.2175925970077515,0.892082800011849,401.67068139999174,None,ScrollDown,정답입니다,401.67068139999174,None,401.67068139999174,None,401.67068139999174,None,401.67068139999174,None,402.4566591999901,None,402.4566591999901,402.9588463999971,,,,,,,,,,,,,,,,018,2022-05-12_19h59.20.742,FishGame,2022.1.1,59.996676186768205,
,30,넌 무지해,4,Orange,B,2.541666666666667,3.066666666666667,ScrollUp,ScrollDown,Orange.png,3,Negative,Congruent,,,,,0,0,0,0,,,,,,,,,,,,,,,,,,,,,0,29,29,29,,,,,,,,,,,,,,,,,,,,,,,,,,,,,,,,,,,,,,,,,,,,,,,,,,,,,,,,,,,,,,,,,,,,,,,,,1.5339506162951388,0.7604715000052238,403.5765750999999,None,NoResponse,무응답입니다,403.5765750999999,None,403.5765750999999,None,403.5765750999999,None,403.5765750999999,None,404.2399984999938,None,404.2399984999938,404.74220109998714,,,,,,,,,,,,,,,,018,2022-05-12_19h59.20.742,FishGame,2022.1.1,59.996676186768205,
,31,넌 음울해,5,Orange,B,2.25,2.233333333333333,ScrollUp,ScrollDown,Orange.png,3,Negative,Congruent,,,,,0,0,0,0,,,,,,,,,,,,,,,,,,,,,0,30,30,30,,,,,,,,,,,,,,,,,,,,,,,,,,,,,,,,,,,,,,,,,,,,,,,,,,,,,,,,,,,,,,,,,,,,,,,,,2,1.3444222000107402,405.36373909999384,None,ScrollUp,정답입니다,405.36373909999384,None,405.36373909999384,None,405.36373909999384,None,405.36373909999384,None,406.6088161999942,None,406.6088161999942,407.12331569999515,,,,,,,,,,,,,,,,018,2022-05-12_19h59.20.742,FishGame,2022.1.1,59.996676186768205,
,32,넌 냉소적이야,5,Green,A,2.916666666666667,2.4,ScrollDown,ScrollUp,Green.png,3,Negative,Incongruent,,,,,0,0,0,0,,,,,,,,,,,,,,,,,,,,,0,31,31,31,,,,,,,,,,,,,,,,,,,,,,,,,,,,,,,,,,,,,,,,,,,,,,,,,,,,,,,,,,,,,,,,,,,,,,,,,1.266975318392118,0.8613948999991408,407.7422581999999,None,ScrollDown,정답입니다,407.7422581999999,None,407.7422581999999,None,407.7422581999999,None,407.7422581999999,None,408.506547099998,None,408.506547099998,409.0066194999963,,,,,,,,,,,,,,,,018,2022-05-12_19h59.20.742,FishGame,2022.1.1,59.996676186768205,
,33,나를 데려가줘,6,Orange,B,0,0,ScrollDown,ScrollUp,Orange.png,3,NonTarget,NonTarget,,,,,0,0,0,0,,,,,,,,,,,,,,,,,,,,,0,32,32,32,,,,,,,,,,,,,,,,,,,,,,,,,,,,,,,,,,,,,,,,,,,,,,,,,,,,,,,,,,,,,,,,,,,,,,,,,1,1.2590051000006497,409.6318542999943,None,ScrollDown,정답입니다,409.6318542999943,None,409.6318542999943,None,409.6318542999943,None,409.6318542999943,None,410.78989059999003,None,410.78989059999003,411.2920935000002,,,,,,,,,,,,,,,,018,2022-05-12_19h59.20.742,FishGame,2022.1.1,59.996676186768205,
,34,넌 쾌활해,1,Green,A,5.541666666666666,5.733333333333333,ScrollDown,ScrollUp,Green.png,3,Positive,Congruent,,,,,0,0,0,0,,,,,,,,,,,,,,,,,,,,,0,33,33,33,,,,,,,,,,,,,,,,,,,,,,,,,,,,,,,,,,,,,,,,,,,,,,,,,,,,,,,,,,,,,,,,,,,,,,,,,1.0061728358268738,1.0109649999940302,411.9133628999989,None,ScrollDown,정답입니다,411.9133628999989,None,411.9133628999989,None,411.9133628999989,None,411.9133628999989,None,412.8231006999995,None,412.8231006999995,413.3231856999919,,,,,,,,,,,,,,,,018,2022-05-12_19h59.20.742,FishGame,2022.1.1,59.996676186768205,
,35,나를 보내줘,6,Green,A,0,0,ScrollUp,ScrollDown,Green.png,3,NonTarget,NonTarget,,,,,0,0,0,0,,,,,,,,,,,,,,,,,,,,,0,34,34,34,,,,,,,,,,,,,,,,,,,,,,,,,,,,,,,,,,,,,,,,,,,,,,,,,,,,,,,,,,,,,,,,,,,,,,,,,2,1.0959470999951009,413.93996449999395,None,ScrollUp,정답입니다,413.93996449999395,None,413.93996449999395,None,413.93996449999395,None,413.93996449999395,None,414.9419543999975,None,414.9419543999975,415.44201639998937,,,,,,,,,,,,,,,,018,2022-05-12_19h59.20.742,FishGame,2022.1.1,59.996676186768205,
,36,넌 명랑해,1,Orange,B,5.739130434782609,5.666666666666667,ScrollUp,ScrollDown,Orange.png,3,Positive,Incongruent,,,,,0,0,0,0,,,,,,,,,,,,,,,,,,,,,0,35,35,35,,,,,,,,,,,,,,,,,,,,,,,,,,,,,,,,,,,,,,,,,,,,,,,,,,,,,,,,,,,,,,,,,,,,,,,,,2,1.4107256999996025,416.0660537999938,None,ScrollUp,정답입니다,416.0660537999938,None,416.0660537999938,None,416.0660537999938,None,416.0660537999938,None,417.37280610000016,None,417.37280610000016,417.87288119998993,,,,,,,,,,,,,,,,018,2022-05-12_19h59.20.742,FishGame,2022.1.1,59.996676186768205,
,37,넌 멍해,4,Green,A,2.833333333333333,3.4,ScrollDown,ScrollUp,Green.png,3,Negative,Incongruent,,,,,0,0,0,0,,,,,,,,,,,,,,,,,,,,,0,36,36,36,,,,,,,,,,,,,,,,,,,,,,,,,,,,,,,,,,,,,,,,,,,,,,,,,,,,,,,,,,,,,,,,,,,,,,,,,1.0200617114702861,0.846490999989328,418.4906231999921,None,ScrollDown,정답입니다,418.4906231999921,None,418.4906231999921,None,418.4906231999921,None,418.4906231999921,None,419.23950749999494,None,419.23950749999494,419.7395483,,,,,,,,,,,,,,,,018,2022-05-12_19h59.20.742,FishGame,2022.1.1,59.996676186768205,
,38,나를 데려가줘,6,Orange,B,0,0,ScrollDown,ScrollUp,Orange.png,3,NonTarget,NonTarget,,,,,0,0,0,0,,,,,,,,,,,,,,,,,,,,,0,37,37,37,,,,,,,,,,,,,,,,,,,,,,,,,,,,,,,,,,,,,,,,,,,,,,,,,,,,,,,,,,,,,,,,,,,,,,,,,1.0864197611808777,1.443836900012684,420.36118569999235,None,ScrollDown,정답입니다,420.36118569999235,None,420.36118569999235,None,420.36118569999235,None,420.36118569999235,None,421.70871759999136,None,421.70871759999136,422.2121260999993,,,,,,,,,,,,,,,,018,2022-05-12_19h59.20.742,FishGame,2022.1.1,59.996676186768205,
,39,넌 현명해,2,Green,A,6.541666666666666,4.533333333333333,ScrollDown,ScrollUp,Green.png,3,Positive,Congruent,,,,,0,0,0,0,,,,,,,,,,,,,,,,,,,,,0,38,38,38,,,,,,,,,,,,,,,,,,,,,,,,,,,,,,,,,,,,,,,,,,,,,,,,,,,,,,,,,,,,,,,,,,,,,,,,,1.1589506169160206,1.3110068999958457,422.82821259999764,None,ScrollDown,정답입니다,422.82821259999764,None,422.82821259999764,None,422.82821259999764,None,422.82821259999764,None,424.0418212999939,None,424.0418212999939,424.54495929999393,,,,,,,,,,,,,,,,018,2022-05-12_19h59.20.742,FishGame,2022.1.1,59.996676186768205,
,40,넌 수줍어,3,Orange,B,3.541666666666666,4.366666666666666,ScrollUp,ScrollDown,Orange.png,3,Neutral,Neutral,,,,,0,0,0,0,,,,,,,,,,,,,,,,,,,,,0,39,39,39,,,,,,,,,,,,,,,,,,,,,,,,,,,,,,,,,,,,,,,,,,,,,,,,,,,,,,,,,,,,,,,,,,,,,,,,,2,0.9301583999913419,425.17617049999535,None,ScrollUp,정답입니다,425.17617049999535,None,425.17617049999535,None,425.17617049999535,None,425.17617049999535,None,426.0062287999899,None,426.0062287999899,426.50840099999914,,,,,,,,,,,,,,,,018,2022-05-12_19h59.20.742,FishGame,2022.1.1,59.996676186768205,
,41,나를 데려가줘,6,Orange,B,0,0,ScrollDown,ScrollUp,Orange.png,3,NonTarget,NonTarget,,,,,0,0,0,0,,,,,,,,,,,,,,,,,,,,,0,40,40,40,,,,,,,,,,,,,,,,,,,,,,,,,,,,,,,,,,,,,,,,,,,,,,,,,,,,,,,,,,,,,,,,,,,,,,,,,1,1.3766168000001926,427.12410609998915,None,ScrollDown,정답입니다,427.12410609998915,None,427.12410609998915,None,427.12410609998915,None,427.12410609998915,None,428.40836919999856,None,428.40836919999856,428.9084273999906,,,,,,,,,,,,,,,,018,2022-05-12_19h59.20.742,FishGame,2022.1.1,59.996676186768205,
,42,넌 성숙해,2,Orange,B,5.833333333333333,4.533333333333333,ScrollUp,ScrollDown,Orange.png,3,Positive,Incongruent,,,,,0,0,0,0,,,,,,,,,,,,,,,,,,,,,0,41,41,41,,,,,,,,,,,,,,,,,,,,,,,,,,,,,,,,,,,,,,,,,,,,,,,,,,,,,,,,,,,,,,,,,,,,,,,,,2,1.312332500005141,429.53025289998914,None,ScrollUp,정답입니다,429.53025289998914,None,429.53025289998914,None,429.53025289998914,None,429.53025289998914,None,430.7394248999917,None,430.7394248999917,431.24160569999367,,,,,,,,,,,,,,,,018,2022-05-12_19h59.20.742,FishGame,2022.1.1,59.996676186768205,
,1,넌 매력적이야,2,Orange,B,6.125,4.666666666666667,ScrollUp,ScrollDown,Orange.png,4,Positive,Incongruent,,,,,0,0,0,0,,,,,,,,,,,,,,,,,,,,,,,,,0,0,0,0,,,,,,,,,,,,,,,,,,,,,,,,,,,,462.93882359999407,464.4412339999981,464.47218789999897,465.4244888999965,465.47447859999374,466.42739859998983,466.42739859998983,None,,,,,,,,,,,,,,,,,,,,,,,,,,,,,,,,,,2,1.0310219999955734,467.5262956999941,None,ScrollUp,정답입니다,467.5262956999941,None,467.5262956999941,None,467.5262956999941,None,467.5262956999941,None,468.4554516999924,None,468.4554516999924,468.9607619999879,431.7394474999892,None,431.7394474999892,None,0.28611112,0.05925926,1,0,0,0.01590600999770686,None,461.7388835999882,None,,,018,2022-05-12_19h59.20.742,FishGame,2022.1.1,59.996676186768205,
,2,나를 보내줘,6,Green,A,0,0,ScrollUp,ScrollDown,Green.png,4,NonTarget,NonTarget,,,,,0,0,0,0,,,,,,,,,,,,,,,,,,,,,,,,,0,1,1,1,,,,,,,,,,,,,,,,,,,,,,,,,,,,,,,,,,,,,,,,,,,,,,,,,,,,,,,,,,,,,,,,,,,,,1.7407407512267432,1.1105687999952352,469.57373439999355,None,ScrollUp,정답입니다,469.57373439999355,None,469.57373439999355,None,469.57373439999355,None,469.57373439999355,None,470.5886693999928,None,470.5886693999928,471.0908644999872,,,,,,,,,,,,,,,,018,2022-05-12_19h59.20.742,FishGame,2022.1.1,59.996676186768205,
,3,넌 조심스러워,3,Green,A,4.791666666666666,4.666666666666667,ScrollDown,ScrollUp,Green.png,4,Neutral,Neutral,,,,,0,0,0,0,,,,,,,,,,,,,,,,,,,,,,,,,0,2,2,2,,,,,,,,,,,,,,,,,,,,,,,,,,,,,,,,,,,,,,,,,,,,,,,,,,,,,,,,,,,,,,,,,,,,,1,1.0129899000021396,471.7053234999912,None,ScrollDown,정답입니다,471.7053234999912,None,471.7053234999912,None,471.7053234999912,None,471.7053234999912,None,472.6241718999954,None,472.6241718999954,473.1241844999895,,,,,,,,,,,,,,,,018,2022-05-12_19h59.20.742,FishGame,2022.1.1,59.996676186768205,
,4,넌 철학적이야,3,Orange,B,4.5,4.266666666666667,ScrollUp,ScrollDown,Orange.png,4,Neutral,Neutral,,,,,0,0,0,0,,,,,,,,,,,,,,,,,,,,,,,,,0,3,3,3,,,,,,,,,,,,,,,,,,,,,,,,,,,,,,,,,,,,,,,,,,,,,,,,,,,,,,,,,,,,,,,,,,,,,1.9753086467583973,0.8776415000029374,473.7623498999892,None,ScrollUp,정답입니다,473.7623498999892,None,473.7623498999892,None,473.7623498999892,None,473.7623498999892,None,474.5240588999877,None,474.5240588999877,475.0241033999919,,,,,,,,,,,,,,,,018,2022-05-12_19h59.20.742,FishGame,2022.1.1,59.996676186768205,
,5,넌 쩨쩨해,5,Green,A,2.375,2.133333333333333,ScrollDown,ScrollUp,Green.png,4,Negative,Incongruent,,,,,0,0,0,0,,,,,,,,,,,,,,,,,,,,,,,,,0,4,4,4,,,,,,,,,,,,,,,,,,,,,,,,,,,,,,,,,,,,,,,,,,,,,,,,,,,,,,,,,,,,,,,,,,,,,1.060185174147288,0.8277336999890395,475.6428382999875,None,ScrollDown,정답입니다,475.6428382999875,None,475.6428382999875,None,475.6428382999875,None,475.6428382999875,None,476.37188929998956,None,476.37188929998956,476.87415459999465,,,,,,,,,,,,,,,,018,2022-05-12_19h59.20.742,FishGame,2022.1.1,59.996676186768205,
,6,나를 데려가줘,6,Orange,B,0,0,ScrollDown,ScrollUp,Orange.png,4,NonTarget,NonTarget,,,,,0,0,0,0,,,,,,,,,,,,,,,,,,,,,,,,,0,5,5,5,,,,,,,,,,,,,,,,,,,,,,,,,,,,,,,,,,,,,,,,,,,,,,,,,,,,,,,,,,,,,,,,,,,,,1.0092592636744182,1.0588928000070155,477.4983164000005,None,ScrollDown,정답입니다,477.4983164000005,None,477.4983164000005,None,477.4983164000005,None,477.4983164000005,None,478.455200299999,None,478.455200299999,478.95519549999153,,,,,,,,,,,,,,,,018,2022-05-12_19h59.20.742,FishGame,2022.1.1,59.996676186768205,
,7,넌 고집불통이야,5,Orange,B,2.875,2,ScrollUp,ScrollDown,Orange.png,4,Negative,Congruent,,,,,0,0,0,0,,,,,,,,,,,,,,,,,,,,,,,,,0,6,6,6,,,,,,,,,,,,,,,,,,,,,,,,,,,,,,,,,,,,,,,,,,,,,,,,,,,,,,,,,,,,,,,,,,,,,2,1.0946871000051033,479.5876559999888,None,ScrollUp,정답입니다,479.5876559999888,None,479.5876559999888,None,479.5876559999888,None,479.5876559999888,None,480.5739759999997,None,480.5739759999997,481.0740816999896,,,,,,,,,,,,,,,,018,2022-05-12_19h59.20.742,FishGame,2022.1.1,59.996676186768205,
,8,넌 무심해,4,Green,A,2.875,3.2,ScrollDown,ScrollUp,Green.png,4,Negative,Incongruent,,,,,0,0,0,0,,,,,,,,,,,,,,,,,,,,,,,,,0,7,7,7,,,,,,,,,,,,,,,,,,,,,,,,,,,,,,,,,,,,,,,,,,,,,,,,,,,,,,,,,,,,,,,,,,,,,1,0.9767914000112796,481.69146469999396,None,ScrollDown,정답입니다,481.69146469999396,None,481.69146469999396,None,481.69146469999396,None,481.69146469999396,None,482.5718063999957,None,482.5718063999957,483.0718087999994,,,,,,,,,,,,,,,,018,2022-05-12_19h59.20.742,FishGame,2022.1.1,59.996676186768205,
,9,넌 정겨워,1,Green,A,5.791666666666667,5.666666666666667,ScrollDown,ScrollUp,Green.png,4,Positive,Congruent,,,,,0,0,0,0,,,,,,,,,,,,,,,,,,,,,,,,,0,8,8,8,,,,,,,,,,,,,,,,,,,,,,,,,,,,,,,,,,,,,,,,,,,,,,,,,,,,,,,,,,,,,,,,,,,,,1.0293209950129192,0.9103644999995595,483.6898576999956,None,ScrollDown,정답입니다,483.6898576999956,None,483.6898576999956,None,483.6898576999956,None,483.6898576999956,None,484.50506419999874,None,484.50506419999874,485.00724329998775,,,,,,,,,,,,,,,,018,2022-05-12_19h59.20.742,FishGame,2022.1.1,59.996676186768205,
,10,나를 데려가줘,6,Orange,B,0,0,ScrollDown,ScrollUp,Orange.png,4,NonTarget,NonTarget,,,,,0,0,0,0,,,,,,,,,,,,,,,,,,,,,,,,,0,9,9,9,,,,,,,,,,,,,,,,,,,,,,,,,,,,,,,,,,,,,,,,,,,,,,,,,,,,,,,,,,,,,,,,,,,,,1.182098776102066,1.185113100000308,485.6260351999954,None,ScrollDown,정답입니다,485.6260351999954,None,485.6260351999954,None,485.6260351999954,None,485.6260351999954,None,486.7163984999934,None,486.7163984999934,487.22147119999863,,,,,,,,,,,,,,,,018,2022-05-12_19h59.20.742,FishGame,2022.1.1,59.996676186768205,
,11,넌 체제순응적이야,4,Orange,B,3,3.6,ScrollUp,ScrollDown,Orange.png,4,Negative,Congruent,,,,,0,0,0,0,,,,,,,,,,,,,,,,,,,,,,,,,0,10,10,10,,,,,,,,,,,,,,,,,,,,,,,,,,,,,,,,,,,,,,,,,,,,,,,,,,,,,,,,,,,,,,,,,,,,,2,1.0783465999993496,487.84716079999635,None,ScrollUp,정답입니다,487.84716079999635,None,487.84716079999635,None,487.84716079999635,None,487.84716079999635,None,488.8214159999916,None,488.8214159999916,489.32149659999413,,,,,,,,,,,,,,,,018,2022-05-12_19h59.20.742,FishGame,2022.1.1,59.996676186768205,
,12,나를 보내줘,6,Green,A,0,0,ScrollUp,ScrollDown,Green.png,4,NonTarget,NonTarget,,,,,0,0,0,0,,,,,,,,,,,,,,,,,,,,,,,,,0,11,11,11,,,,,,,,,,,,,,,,,,,,,,,,,,,,,,,,,,,,,,,,,,,,,,,,,,,,,,,,,,,,,,,,,,,,,1.9722222189108531,1.1944382000074256,489.94214159999683,None,ScrollUp,정답입니다,489.94214159999683,None,489.94214159999683,None,489.94214159999683,None,489.94214159999683,None,491.0405264000001,None,491.0405264000001,491.5405857000005,,,,,,,,,,,,,,,,018,2022-05-12_19h59.20.742,FishGame,2022.1.1,59.996676186768205,
,13,넌 박식해,2,Green,A,5.625,3.933333333333333,ScrollDown,ScrollUp,Green.png,4,Positive,Congruent,,,,,0,0,0,0,,,,,,,,,,,,,,,,,,,,,,,,,0,12,12,12,,,,,,,,,,,,,,,,,,,,,,,,,,,,,,,,,,,,,,,,,,,,,,,,,,,,,,,,,,,,,,,,,,,,,1.0154321193695068,0.926060999991023,492.16347249998944,None,ScrollDown,정답입니다,492.16347249998944,None,492.16347249998944,None,492.16347249998944,None,492.16347249998944,None,492.9882426999975,None,492.9882426999975,493.4904383999965,,,,,,,,,,,,,,,,018,2022-05-12_19h59.20.742,FishGame,2022.1.1,59.996676186768205,
,14,나를 보내줘,6,Green,A,0,0,ScrollUp,ScrollDown,Green.png,4,NonTarget,NonTarget,,,,,0,0,0,0,,,,,,,,,,,,,,,,,,,,,,,,,0,13,13,13,,,,,,,,,,,,,,,,,,,,,,,,,,,,,,,,,,,,,,,,,,,,,,,,,,,,,,,,,,,,,,,,,,,,,1.9351851840813954,1.0420398999995086,494.11535509998794,None,ScrollUp,정답입니다,494.11535509998794,None,494.11535509998794,None,494.11535509998794,None,494.11535509998794,None,495.05698359999224,None,495.05698359999224,495.55694549999316,,,,,,,,,,,,,,,,018,2022-05-12_19h59.20.742,FishGame,2022.1.1,59.996676186768205,
,15,넌 침착해,1,Orange,B,5.458333333333333,5.566666666666666,ScrollUp,ScrollDown,Orange.png,4,Positive,Incongruent,,,,,0,0,0,0,,,,,,,,,,,,,,,,,,,,,,,,,0,14,14,14,,,,,,,,,,,,,,,,,,,,,,,,,,,,,,,,,,,,,,,,,,,,,,,,,,,,,,,,,,,,,,,,,,,,,1,1.0259051999892108,496.1824520999944,None,ScrollDown,오답입니다,496.1824520999944,None,496.1824520999944,None,496.1824520999944,None,496.1824520999944,None,497.1048497999873,None,497.1048497999873,497.60486349998973,,,,,,,,,,,,,,,,018,2022-05-12_19h59.20.742,FishGame,2022.1.1,59.996676186768205,
,16,나를 데려가줘,6,Orange,B,0,0,ScrollDown,ScrollUp,Orange.png,4,NonTarget,NonTarget,,,,,0,0,0,0,,,,,,,,,,,,,,,,,,,,,,,,,0,15,15,15,,,,,,,,,,,,,,,,,,,,,,,,,,,,,,,,,,,,,,,,,,,,,,,,,,,,,,,,,,,,,,,,,,,,,1.1790123482545216,1.3943964000063716,498.2345309999946,None,ScrollDown,정답입니다,498.2345309999946,None,498.2345309999946,None,498.2345309999946,None,498.2345309999946,None,499.5211532999965,None,499.5211532999965,500.0212152999884,,,,,,,,,,,,,,,,018,2022-05-12_19h59.20.742,FishGame,2022.1.1,59.996676186768205,
,17,넌 행복해,1,Green,A,6.416666666666666,6.166666666666667,ScrollDown,ScrollUp,Green.png,4,Positive,Congruent,,,,,0,0,0,0,,,,,,,,,,,,,,,,,,,,,,,,,0,16,16,16,,,,,,,,,,,,,,,,,,,,,,,,,,,,,,,,,,,,,,,,,,,,,,,,,,,,,,,,,,,,,,,,,,,,,1.0895061641931534,1.1133522000018274,500.64239109998744,None,ScrollDown,정답입니다,500.64239109998744,None,500.64239109998744,None,500.64239109998744,None,500.64239109998744,None,501.65698209998664,None,501.65698209998664,502.1570062999963,,,,,,,,,,,,,,,,018,2022-05-12_19h59.20.742,FishGame,2022.1.1,59.996676186768205,
,18,넌 겸손해,2,Orange,B,5.791666666666667,4.766666666666667,ScrollUp,ScrollDown,Orange.png,4,Positive,Incongruent,,,,,0,0,0,0,,,,,,,,,,,,,,,,,,,,,,,,,0,17,17,17,,,,,,,,,,,,,,,,,,,,,,,,,,,,,,,,,,,,,,,,,,,,,,,,,,,,,,,,,,,,,,,,,,,,,1.7746913582086563,0.8275496999995084,502.7840705999988,None,ScrollUp,정답입니다,502.7840705999988,None,502.7840705999988,None,502.7840705999988,None,502.7840705999988,None,503.50683749999735,None,503.50683749999735,504.0069427999988,,,,,,,,,,,,,,,,018,2022-05-12_19h59.20.742,FishGame,2022.1.1,59.996676186768205,
,19,나를 보내줘,6,Green,A,0,0,ScrollUp,ScrollDown,Green.png,4,NonTarget,NonTarget,,,,,0,0,0,0,,,,,,,,,,,,,,,,,,,,,,,,,0,18,18,18,,,,,,,,,,,,,,,,,,,,,,,,,,,,,,,,,,,,,,,,,,,,,,,,,,,,,,,,,,,,,,,,,,,,,1.733024681607882,1.0109767999965698,504.6247759999969,None,ScrollUp,정답입니다,504.6247759999969,None,504.6247759999969,None,504.6247759999969,None,504.6247759999969,None,505.5402531,None,505.5402531,506.04334519999975,,,,,,,,,,,,,,,,018,2022-05-12_19h59.20.742,FishGame,2022.1.1,59.996676186768205,
,20,넌 의심없어,3,Green,A,4.166666666666667,4.6,ScrollDown,ScrollUp,Green.png,4,Neutral,Neutral,,,,,0,0,0,0,,,,,,,,,,,,,,,,,,,,,,,,,0,19,19,19,,,,,,,,,,,,,,,,,,,,,,,,,,,,,,,,,,,,,,,,,,,,,,,,,,,,,,,,,,,,,,,,,,,,,1,1.0959461000020383,506.6526159999921,None,ScrollDown,정답입니다,506.6526159999921,None,506.6526159999921,None,506.6526159999921,None,506.6526159999921,None,507.6545358999865,None,507.6545358999865,508.1567352999991,,,,,,,,,,,,,,,,018,2022-05-12_19h59.20.742,FishGame,2022.1.1,59.996676186768205,
,21,넌 시시해,4,Green,A,2.666666666666667,2.966666666666667,ScrollDown,ScrollUp,Green.png,4,Negative,Incongruent,,,,,0,0,0,0,,,,,,,,,,,,,,,,,,,,,,,,,0,20,20,20,,,,,,,,,,,,,,,,,,,,,,,,,,,,,,,,,,,,,,,,,,,,,,,,,,,,,,,,,,,,,,,,,,,,,1.1543209999799728,0.9109843000042019,508.77730459999293,None,ScrollDown,정답입니다,508.77730459999293,None,508.77730459999293,None,508.77730459999293,None,508.77730459999293,None,509.59005949999846,None,509.59005949999846,510.09008419999736,,,,,,,,,,,,,,,,018,2022-05-12_19h59.20.742,FishGame,2022.1.1,59.996676186768205,
,22,나를 데려가줘,6,Orange,B,0,0,ScrollDown,ScrollUp,Orange.png,4,NonTarget,NonTarget,,,,,0,0,0,0,,,,,,,,,,,,,,,,,,,,,,,,,0,21,21,21,,,,,,,,,,,,,,,,,,,,,,,,,,,,,,,,,,,,,,,,,,,,,,,,,,,,,,,,,,,,,,,,,,,,,1.1635802586873372,1.3291668000019854,510.70735479998984,None,ScrollDown,정답입니다,510.70735479998984,None,510.70735479998984,None,510.70735479998984,None,510.70735479998984,None,511.93754949999857,None,511.93754949999857,512.4376324999903,,,,,,,,,,,,,,,,018,2022-05-12_19h59.20.742,FishGame,2022.1.1,59.996676186768205,
,23,넌 무정해,5,Green,A,2.5,2.2,ScrollDown,ScrollUp,Green.png,4,Negative,Incongruent,,,,,0,0,0,0,,,,,,,,,,,,,,,,,,,,,,,,,0,22,22,22,,,,,,,,,,,,,,,,,,,,,,,,,,,,,,,,,,,,,,,,,,,,,,,,,,,,,,,,,,,,,,,,,,,,,1,1.0157190000027185,513.05486009999,None,ScrollDown,정답입니다,513.05486009999,None,513.05486009999,None,513.05486009999,None,513.05486009999,None,513.9734247999877,None,513.9734247999877,514.4734769999923,,,,,,,,,,,,,,,,018,2022-05-12_19h59.20.742,FishGame,2022.1.1,59.996676186768205,
,24,넌 긍정적이야,1,Orange,B,6.041666666666667,6.066666666666666,ScrollUp,ScrollDown,Orange.png,4,Positive,Incongruent,,,,,0,0,0,0,,,,,,,,,,,,,,,,,,,,,,,,,0,23,23,23,,,,,,,,,,,,,,,,,,,,,,,,,,,,,,,,,,,,,,,,,,,,,,,,,,,,,,,,,,,,,,,,,,,,,1.873456800977389,0.8955838999972912,515.0945901999949,None,ScrollUp,정답입니다,515.0945901999949,None,515.0945901999949,None,515.0945901999949,None,515.0945901999949,None,515.8899321999925,None,515.8899321999925,516.3899482999987,,,,,,,,,,,,,,,,018,2022-05-12_19h59.20.742,FishGame,2022.1.1,59.996676186768205,
,25,나를 보내줘,6,Green,A,0,0,ScrollUp,ScrollDown,Green.png,4,NonTarget,NonTarget,,,,,0,0,0,0,,,,,,,,,,,,,,,,,,,,,,,,,0,24,24,24,,,,,,,,,,,,,,,,,,,,,,,,,,,,,,,,,,,,,,,,,,,,,,,,,,,,,,,,,,,,,,,,,,,,,1.6759259278575578,1.0937071000080323,517.005198999992,None,ScrollUp,정답입니다,517.005198999992,None,517.005198999992,None,517.005198999992,None,517.005198999992,None,518.0041087999998,None,518.0041087999998,518.5041821999912,,,,,,,,,,,,,,,,018,2022-05-12_19h59.20.742,FishGame,2022.1.1,59.996676186768205,
,26,넌 시기심이 많아,5,Orange,B,2.458333333333333,2.233333333333333,ScrollUp,ScrollDown,Orange.png,4,Negative,Congruent,,,,,0,0,0,0,,,,,,,,,,,,,,,,,,,,,,,,,0,25,25,25,,,,,,,,,,,,,,,,,,,,,,,,,,,,,,,,,,,,,,,,,,,,,,,,,,,,,,,,,,,,,,,,,,,,,2,1.3281983999913791,519.130155699997,None,ScrollUp,정답입니다,519.130155699997,None,519.130155699997,None,519.130155699997,None,519.130155699997,None,520.3566360999976,None,520.3566360999976,520.8567324999894,,,,,,,,,,,,,,,,018,2022-05-12_19h59.20.742,FishGame,2022.1.1,59.996676186768205,
,27,넌 탁월해,2,Green,A,5.708333333333334,4.5,ScrollDown,ScrollUp,Green.png,4,Positive,Congruent,,,,,0,0,0,0,,,,,,,,,,,,,,,,,,,,,,,,,0,26,26,26,,,,,,,,,,,,,,,,,,,,,,,,,,,,,,,,,,,,,,,,,,,,,,,,,,,,,,,,,,,,,,,,,,,,,1.0138889054457347,0.8609203999949386,521.4827014999901,None,ScrollDown,정답입니다,521.4827014999901,None,521.4827014999901,None,521.4827014999901,None,521.4827014999901,None,522.239937899998,None,522.239937899998,522.739968599999,,,,,,,,,,,,,,,,018,2022-05-12_19h59.20.742,FishGame,2022.1.1,59.996676186768205,
,28,나를 데려가줘,6,Orange,B,0,0,ScrollDown,ScrollUp,Orange.png,4,NonTarget,NonTarget,,,,,0,0,0,0,,,,,,,,,,,,,,,,,,,,,,,,,0,27,27,27,,,,,,,,,,,,,,,,,,,,,,,,,,,,,,,,,,,,,,,,,,,,,,,,,,,,,,,,,,,,,,,,,,,,,1.2206790000200272,0.9281198999960907,523.3629561999987,None,ScrollDown,정답입니다,523.3629561999987,None,523.3629561999987,None,523.3629561999987,None,523.3629561999987,None,524.1897918999894,None,524.1897918999894,524.6897958999907,,,,,,,,,,,,,,,,018,2022-05-12_19h59.20.742,FishGame,2022.1.1,59.996676186768205,
,29,넌 조용해,3,Orange,B,4.333333333333333,4.166666666666667,ScrollUp,ScrollDown,Orange.png,4,Neutral,Neutral,,,,,0,0,0,0,,,,,,,,,,,,,,,,,,,,,,,,,0,28,28,28,,,,,,,,,,,,,,,,,,,,,,,,,,,,,,,,,,,,,,,,,,,,,,,,,,,,,,,,,,,,,,,,,,,,,1.7978395173947017,0.9437221999978647,525.3182942999993,None,ScrollUp,정답입니다,525.3182942999993,None,525.3182942999993,None,525.3182942999993,None,525.3182942999993,None,526.1539485999965,None,526.1539485999965,526.6540147999913,,,,,,,,,,,,,,,,018,2022-05-12_19h59.20.742,FishGame,2022.1.1,59.996676186768205,
,30,넌 다정해,1,Green,A,5.833333333333334,5.7,ScrollDown,ScrollUp,Green.png,4,Positive,Congruent,,,,,0,0,0,0,,,,,,,,,,,,,,,,,,,,,,,,,0,29,29,29,,,,,,,,,,,,,,,,,,,,,,,,,,,,,,,,,,,,,,,,,,,,,,,,,,,,,,,,,,,,,,,,,,,,,1.060185174147288,0.8613216999947326,527.2729895999946,None,ScrollDown,정답입니다,527.2729895999946,None,527.2729895999946,None,527.2729895999946,None,527.2729895999946,None,528.0372949999874,None,528.0372949999874,528.5398444999882,,,,,,,,,,,,,,,,018,2022-05-12_19h59.20.742,FishGame,2022.1.1,59.996676186768205,
,31,넌 능력있어,2,Orange,B,6.166666666666666,4.6,ScrollUp,ScrollDown,Orange.png,4,Positive,Incongruent,,,,,0,0,0,0,,,,,,,,,,,,,,,,,,,,,,,,,0,30,30,30,,,,,,,,,,,,,,,,,,,,,,,,,,,,,,,,,,,,,,,,,,,,,,,,,,,,,,,,,,,,,,,,,,,,,2,0.9611260999954538,529.1544981999905,None,ScrollUp,정답입니다,529.1544981999905,None,529.1544981999905,None,529.1544981999905,None,529.1544981999905,None,530.0231310999952,None,530.0231310999952,530.5262293999986,,,,,,,,,,,,,,,,018,2022-05-12_19h59.20.742,FishGame,2022.1.1,59.996676186768205,
,32,넌 불쾌해,5,Green,A,2.125,1.933333333333333,ScrollDown,ScrollUp,Green.png,4,Negative,Incongruent,,,,,0,0,0,0,,,,,,,,,,,,,,,,,,,,,,,,,0,31,31,31,,,,,,,,,,,,,,,,,,,,,,,,,,,,,,,,,,,,,,,,,,,,,,,,,,,,,,,,,,,,,,,,,,,,,1.1466049303611119,0.8923152000061236,531.1431760999985,None,ScrollDown,정답입니다,531.1431760999985,None,531.1431760999985,None,531.1431760999985,None,531.1431760999985,None,531.9374295999878,None,531.9374295999878,532.4396863999864,,,,,,,,,,,,,,,,018,2022-05-12_19h59.20.742,FishGame,2022.1.1,59.996676186768205,
,33,나를 데려가줘,6,Orange,B,0,0,ScrollDown,ScrollUp,Orange.png,4,NonTarget,NonTarget,,,,,0,0,0,0,,,,,,,,,,,,,,,,,,,,,,,,,0,32,32,32,,,,,,,,,,,,,,,,,,,,,,,,,,,,,,,,,,,,,,,,,,,,,,,,,,,,,,,,,,,,,,,,,,,,,1.2052469104528427,1.1115655999892624,533.0627017999941,None,ScrollDown,정답입니다,533.0627017999941,None,533.0627017999941,None,533.0627017999941,None,533.0627017999941,None,534.0704814999917,None,534.0704814999917,534.5705346999894,,,,,,,,,,,,,,,,018,2022-05-12_19h59.20.742,FishGame,2022.1.1,59.996676186768205,
,34,넌 유순해,3,Green,A,4.458333333333333,5,ScrollDown,ScrollUp,Green.png,4,Neutral,Neutral,,,,,0,0,0,0,,,,,,,,,,,,,,,,,,,,,,,,,0,33,33,33,,,,,,,,,,,,,,,,,,,,,,,,,,,,,,,,,,,,,,,,,,,,,,,,,,,,,,,,,,,,,,,,,,,,,1.1049382785956066,0.915542100003222,535.1920777999912,None,ScrollDown,정답입니다,535.1920777999912,None,535.1920777999912,None,535.1920777999912,None,535.1920777999912,None,536.0063189999928,None,536.0063189999928,536.5063226999919,,,,,,,,,,,,,,,,018,2022-05-12_19h59.20.742,FishGame,2022.1.1,59.996676186768205,
,35,넌 근심스러워,4,Orange,B,2.708333333333333,3.133333333333333,ScrollUp,ScrollDown,Orange.png,4,Negative,Congruent,,,,,0,0,0,0,,,,,,,,,,,,,,,,,,,,,,,,,0,34,34,34,,,,,,,,,,,,,,,,,,,,,,,,,,,,,,,,,,,,,,,,,,,,,,,,,,,,,,,,,,,,,,,,,,,,,1.8858024626970291,0.9442530000087572,537.1306130999874,None,ScrollUp,정답입니다,537.1306130999874,None,537.1306130999874,None,537.1306130999874,None,537.1306130999874,None,537.9730591999978,None,537.9730591999978,538.4729190999933,,,,,,,,,,,,,,,,018,2022-05-12_19h59.20.742,FishGame,2022.1.1,59.996676186768205,
,36,넌 세련되었어,2,Green,A,5.5,4.6,ScrollDown,ScrollUp,Green.png,4,Positive,Congruent,,,,,0,0,0,0,,,,,,,,,,,,,,,,,,,,,,,,,0,35,35,35,,,,,,,,,,,,,,,,,,,,,,,,,,,,,,,,,,,,,,,,,,,,,,,,,,,,,,,,,,,,,,,,,,,,,1.0648148159186046,1.0258278000110295,539.1001846999861,None,ScrollDown,정답입니다,539.1001846999861,None,539.1001846999861,None,539.1001846999861,None,539.1001846999861,None,540.0206425999932,None,540.0206425999932,540.5260137999867,,,,,,,,,,,,,,,,018,2022-05-12_19h59.20.742,FishGame,2022.1.1,59.996676186768205,
,37,나를 보내줘,6,Green,A,0,0,ScrollUp,ScrollDown,Green.png,4,NonTarget,NonTarget,,,,,0,0,0,0,,,,,,,,,,,,,,,,,,,,,,,,,0,36,36,36,,,,,,,,,,,,,,,,,,,,,,,,,,,,,,,,,,,,,,,,,,,,,,,,,,,,,,,,,,,,,,,,,,,,,1.7608024577299755,0.9090790000045672,541.1390859999956,None,ScrollUp,정답입니다,541.1390859999956,None,541.1390859999956,None,541.1390859999956,None,541.1390859999956,None,541.9538784999895,None,541.9538784999895,542.4561258999893,,,,,,,,,,,,,,,,018,2022-05-12_19h59.20.742,FishGame,2022.1.1,59.996676186768205,
,38,넌 확고해,3,Orange,B,4.708333333333334,4.566666666666666,ScrollUp,ScrollDown,Orange.png,4,Neutral,Neutral,,,,,0,0,0,0,,,,,,,,,,,,,,,,,,,,,,,,,0,37,37,37,,,,,,,,,,,,,,,,,,,,,,,,,,,,,,,,,,,,,,,,,,,,,,,,,,,,,,,,,,,,,,,,,,,,,2,0.8775950999988709,543.0767441999924,None,ScrollUp,정답입니다,543.0767441999924,None,543.0767441999924,None,543.0767441999924,None,543.0767441999924,None,543.8560889999935,None,543.8560889999935,544.3727923999977,,,,,,,,,,,,,,,,018,2022-05-12_19h59.20.742,FishGame,2022.1.1,59.996676186768205,
,39,넌 이해심이 많아,1,Orange,B,6.041666666666668,5.533333333333333,ScrollUp,ScrollDown,Orange.png,4,Positive,Incongruent,,,,,0,0,0,0,,,,,,,,,,,,,,,,,,,,,,,,,0,38,38,38,,,,,,,,,,,,,,,,,,,,,,,,,,,,,,,,,,,,,,,,,,,,,,,,,,,,,,,,,,,,,,,,,,,,,1.9583333432674408,0.8938785000063945,544.9924349999928,None,ScrollUp,정답입니다,544.9924349999928,None,544.9924349999928,None,544.9924349999928,None,544.9924349999928,None,545.7868667000002,None,545.7868667000002,546.2869658999989,,,,,,,,,,,,,,,,018,2022-05-12_19h59.20.742,FishGame,2022.1.1,59.996676186768205,
,40,나를 보내줘,6,Green,A,0,0,ScrollUp,ScrollDown,Green.png,4,NonTarget,NonTarget,,,,,0,0,0,0,,,,,,,,,,,,,,,,,,,,,,,,,0,39,39,39,,,,,,,,,,,,,,,,,,,,,,,,,,,,,,,,,,,,,,,,,,,,,,,,,,,,,,,,,,,,,,,,,,,,,1.9475308458010356,1.0447911999945063,546.9053531999962,None,ScrollUp,정답입니다,546.9053531999962,None,546.9053531999962,None,546.9053531999962,None,546.9053531999962,None,547.8535619999893,None,547.8535619999893,548.3561166,,,,,,,,,,,,,,,,018,2022-05-12_19h59.20.742,FishGame,2022.1.1,59.996676186768205,
,41,넌 거칠어,4,Green,A,2.625,3.033333333333333,ScrollDown,ScrollUp,Green.png,4,Negative,Incongruent,,,,,0,0,0,0,,,,,,,,,,,,,,,,,,,,,,,,,0,40,40,40,,,,,,,,,,,,,,,,,,,,,,,,,,,,,,,,,,,,,,,,,,,,,,,,,,,,,,,,,,,,,,,,,,,,,1.060185174147288,1.0334607000113465,548.9724987999944,None,ScrollDown,정답입니다,548.9724987999944,None,548.9724987999944,None,548.9724987999944,None,548.9724987999944,None,549.9060656999936,None,549.9060656999936,550.4093061999884,,,,,,,,,,,,,,,,018,2022-05-12_19h59.20.742,FishGame,2022.1.1,59.996676186768205,
,42,넌 변덕맞아,5,Orange,B,2.75,2.166666666666667,ScrollUp,ScrollDown,Orange.png,4,Negative,Congruent,,,,,0,0,0,0,,,,,,,,,,,,,,,,,,,,,,,,,0,41,41,41,,,,,,,,,,,,,,,,,,,,,,,,,,,,,,,,,,,,,,,,,,,,,,,,,,,,,,,,,,,,,,,,,,,,,1.71296297510465,0.9775091000046814,551.0286923999956,None,ScrollUp,정답입니다,551.0286923999956,None,551.0286923999956,None,551.0286923999956,None,551.0286923999956,None,551.9037000999961,None,551.9037000999961,552.4059532999963,,,,,,,,,,,,,,,,018,2022-05-12_19h59.20.742,FishGame,2022.1.1,59.996676186768205,
,43,나를 데려가줘,6,Orange,B,0,0,ScrollDown,ScrollUp,Orange.png,4,NonTarget,NonTarget,,,,,0,0,0,0,,,,,,,,,,,,,,,,,,,,,,,,,0,42,42,42,,,,,,,,,,,,,,,,,,,,,,,,,,,,,,,,,,,,,,,,,,,,,,,,,,,,,,,,,,,,,,,,,,,,,1.194444437821706,1.0112482999975327,553.0228583999997,None,ScrollDown,정답입니다,553.0228583999997,None,553.0228583999997,None,553.0228583999997,None,553.0228583999997,None,553.9369432999956,None,553.9369432999956,554.4370130999887,,,,,,,,,,,,,,,,018,2022-05-12_19h59.20.742,FishGame,2022.1.1,59.996676186768205,
,44,넌 외로워,4,Orange,B,2.833333333333333,3.3,ScrollUp,ScrollDown,Orange.png,4,Negative,Congruent,,,,,0,0,0,0,,,,,,,,,,,,,,,,,,,,,,,,,0,43,43,43,,,,,,,,,,,,,,,,,,,,,,,,,,,,,,,,,,,,,,,,,,,,,,,,,,,,,,,,,,,,,,,,,,,,,1.9243827362855275,1.0774570999928983,555.0618409999879,None,ScrollUp,정답입니다,555.0618409999879,None,555.0618409999879,None,555.0618409999879,None,555.0618409999879,None,556.0391291999986,None,556.0391291999986,556.5391764999949,,,,,,,,,,,,,,,,018,2022-05-12_19h59.20.742,FishGame,2022.1.1,59.996676186768205,
,1,넌 불평스러워,5,Green,A,2.25,2.066666666666667,ScrollDown,ScrollUp,Green.png,5,Negative,Incongruent,,,,,0,0,0,0,,,,,,,,,,,,,,,,,,,,,,,,,,,,,0,0,0,0,,,,,,,,,,,,,,,,,,,,,,,,589.1863789999916,590.6917297999898,590.7250432000001,591.6885896999884,591.7219311999943,592.691762699993,592.6749714999896,None,,,,,,,,,,,,,,,,,,,,,,,,,,,,,,,,,,1.0740740497907002,1.2097177000105148,593.7783769999951,None,ScrollDown,정답입니다,593.7783769999951,None,593.7783769999951,None,593.7783769999951,None,593.7783769999951,None,594.8861840999889,None,594.8861840999889,595.3862045999995,557.0369726999925,None,557.0369726999925,None,0.21481481,0.042592593,1,0,0,0.0160328099882463,None,587.0385332999867,None,,,018,2022-05-12_19h59.20.742,FishGame,2022.1.1,59.996676186768205,
,2,나를 보내줘,6,Green,A,0,0,ScrollUp,ScrollDown,Green.png,5,NonTarget,NonTarget,,,,,0,0,0,0,,,,,,,,,,,,,,,,,,,,,,,,,,,,,0,1,1,1,,,,,,,,,,,,,,,,,,,,,,,,,,,,,,,,,,,,,,,,,,,,,,,,,,,,,,,,,,,,,,,,,1.126543199022611,0.808725000009872,596.0061007999902,None,ScrollDown,오답입니다,596.0061007999902,None,596.0061007999902,None,596.0061007999902,None,596.0061007999902,None,596.7194329999911,None,596.7194329999911,597.2216172999906,,,,,,,,,,,,,,,,018,2022-05-12_19h59.20.742,FishGame,2022.1.1,59.996676186768205,
,3,넌 다재다능해,2,Orange,B,6.208333333333333,4.5,ScrollUp,ScrollDown,Orange.png,5,Positive,Incongruent,,,,,0,0,0,0,,,,,,,,,,,,,,,,,,,,,,,,,,,,,0,2,2,2,,,,,,,,,,,,,,,,,,,,,,,,,,,,,,,,,,,,,,,,,,,,,,,,,,,,,,,,,,,,,,,,,2,1.0942518999945605,597.8404464999912,None,ScrollUp,정답입니다,597.8404464999912,None,597.8404464999912,None,597.8404464999912,None,597.8404464999912,None,598.8383021999907,None,598.8383021999907,599.3383421999897,,,,,,,,,,,,,,,,018,2022-05-12_19h59.20.742,FishGame,2022.1.1,59.996676186768205,
,4,넌 과감해,3,Green,A,4.833333333333334,4.6,ScrollDown,ScrollUp,Green.png,5,Neutral,Neutral,,,,,0,0,0,0,,,,,,,,,,,,,,,,,,,,,,,,,,,,,0,3,3,3,,,,,,,,,,,,,,,,,,,,,,,,,,,,,,,,,,,,,,,,,,,,,,,,,,,,,,,,,,,,,,,,,1,0.944972900004359,599.9596756999963,None,ScrollDown,정답입니다,599.9596756999963,None,599.9596756999963,None,599.9596756999963,None,599.9596756999963,None,600.8048329999874,None,600.8048329999874,601.3194076999935,,,,,,,,,,,,,,,,018,2022-05-12_19h59.20.742,FishGame,2022.1.1,59.996676186768205,
,5,넌 고분고분해,3,Orange,B,3.75,4.033333333333333,ScrollUp,ScrollDown,Orange.png,5,Neutral,Neutral,,,,,0,0,0,0,,,,,,,,,,,,,,,,,,,,,,,,,,,,,0,4,4,4,,,,,,,,,,,,,,,,,,,,,,,,,,,,,,,,,,,,,,,,,,,,,,,,,,,,,,,,,,,,,,,,,1.6820987711350122,0.8278307000000495,601.9420104999881,None,ScrollUp,정답입니다,601.9420104999881,None,601.9420104999881,None,601.9420104999881,None,601.9420104999881,None,602.6693533999933,None,602.6693533999933,603.1715422999987,,,,,,,,,,,,,,,,018,2022-05-12_19h59.20.742,FishGame,2022.1.1,59.996676186768205,
,6,나를 보내줘,6,Green,A,0,0,ScrollUp,ScrollDown,Green.png,5,NonTarget,NonTarget,,,,,0,0,0,0,,,,,,,,,,,,,,,,,,,,,,,,,,,,,0,5,5,5,,,,,,,,,,,,,,,,,,,,,,,,,,,,,,,,,,,,,,,,,,,,,,,,,,,,,,,,,,,,,,,,,1.7746913582086563,0.94406429999799,603.7903993999935,None,ScrollUp,정답입니다,603.7903993999935,None,603.7903993999935,None,603.7903993999935,None,603.7903993999935,None,604.6381866999873,None,604.6381866999873,605.1382114999869,,,,,,,,,,,,,,,,018,2022-05-12_19h59.20.742,FishGame,2022.1.1,59.996676186768205,
,7,넌 잘 잊어,4,Green,A,3,3.7,ScrollDown,ScrollUp,Green.png,5,Negative,Incongruent,,,,,0,0,0,0,,,,,,,,,,,,,,,,,,,,,,,,,,,,,0,6,6,6,,,,,,,,,,,,,,,,,,,,,,,,,,,,,,,,,,,,,,,,,,,,,,,,,,,,,,,,,,,,,,,,,1,0.877881399996113,605.776082299999,None,ScrollDown,정답입니다,605.776082299999,None,605.776082299999,None,605.776082299999,None,605.776082299999,None,606.5525568999874,None,606.5525568999874,607.054719199994,,,,,,,,,,,,,,,,018,2022-05-12_19h59.20.742,FishGame,2022.1.1,59.996676186768205,
,8,넌 탐구심이없어,4,Orange,B,2.833333333333333,3.066666666666667,ScrollUp,ScrollDown,Orange.png,5,Negative,Congruent,,,,,0,0,0,0,,,,,,,,,,,,,,,,,,,,,,,,,,,,,0,7,7,7,,,,,,,,,,,,,,,,,,,,,,,,,,,,,,,,,,,,,,,,,,,,,,,,,,,,,,,,,,,,,,,,,1.8950617214043934,0.7443212999933166,607.6787667999888,None,ScrollUp,정답입니다,607.6787667999888,None,607.6787667999888,None,607.6787667999888,None,607.6787667999888,None,608.3192434999946,None,608.3192434999946,608.821514299998,,,,,,,,,,,,,,,,018,2022-05-12_19h59.20.742,FishGame,2022.1.1,59.996676186768205,
,9,나를 데려가줘,6,Orange,B,0,0,ScrollDown,ScrollUp,Orange.png,5,NonTarget,NonTarget,,,,,0,0,0,0,,,,,,,,,,,,,,,,,,,,,,,,,,,,,0,8,8,8,,,,,,,,,,,,,,,,,,,,,,,,,,,,,,,,,,,,,,,,,,,,,,,,,,,,,,,,,,,,,,,,,1,1.093554100007168,609.4434397999867,None,ScrollDown,정답입니다,609.4434397999867,None,609.4434397999867,None,609.4434397999867,None,609.4434397999867,None,610.4355800999911,None,610.4355800999911,610.9356601999898,,,,,,,,,,,,,,,,018,2022-05-12_19h59.20.742,FishGame,2022.1.1,59.996676186768205,
,10,넌 참되어,2,Green,A,6.041666666666664,4.733333333333333,ScrollDown,ScrollUp,Green.png,5,Positive,Congruent,,,,,0,0,0,0,,,,,,,,,,,,,,,,,,,,,,,,,,,,,0,9,9,9,,,,,,,,,,,,,,,,,,,,,,,,,,,,,,,,,,,,,,,,,,,,,,,,,,,,,,,,,,,,,,,,,1.0200617114702861,0.8450700999965193,611.5576799999981,None,ScrollDown,정답입니다,611.5576799999981,None,611.5576799999981,None,611.5576799999981,None,611.5576799999981,None,612.3022655999957,None,612.3022655999957,612.8023397999932,,,,,,,,,,,,,,,,018,2022-05-12_19h59.20.742,FishGame,2022.1.1,59.996676186768205,
,11,넌 생기있어,1,Orange,B,5.875,5.633333333333334,ScrollUp,ScrollDown,Orange.png,5,Positive,Incongruent,,,,,0,0,0,0,,,,,,,,,,,,,,,,,,,,,,,,,,,,,0,10,10,10,,,,,,,,,,,,,,,,,,,,,,,,,,,,,,,,,,,,,,,,,,,,,,,,,,,,,,,,,,,,,,,,,1.7808641890684764,0.8633749000000535,613.4268971999991,None,ScrollUp,정답입니다,613.4268971999991,None,613.4268971999991,None,613.4268971999991,None,613.4268971999991,None,614.1880498999963,None,614.1880498999963,614.6858947000001,,,,,,,,,,,,,,,,018,2022-05-12_19h59.20.742,FishGame,2022.1.1,59.996676186768205,
,12,넌 비사교적이야,4,Orange,B,2.875,2.9,ScrollUp,ScrollDown,Orange.png,5,Negative,Congruent,,,,,0,0,0,0,,,,,,,,,,,,,,,,,,,,,,,,,,,,,0,11,11,11,,,,,,,,,,,,,,,,,,,,,,,,,,,,,,,,,,,,,,,,,,,,,,,,,,,,,,,,,,,,,,,,,1.9583333432674408,0.8445528999873204,615.312499599997,None,ScrollUp,정답입니다,615.312499599997,None,615.312499599997,None,615.312499599997,None,615.312499599997,None,616.0545373999921,None,616.0545373999921,616.5545895999967,,,,,,,,,,,,,,,,018,2022-05-12_19h59.20.742,FishGame,2022.1.1,59.996676186768205,
,13,나를 데려가줘,6,Orange,B,0,0,ScrollDown,ScrollUp,Orange.png,5,NonTarget,NonTarget,,,,,0,0,0,0,,,,,,,,,,,,,,,,,,,,,,,,,,,,,0,12,12,12,,,,,,,,,,,,,,,,,,,,,,,,,,,,,,,,,,,,,,,,,,,,,,,,,,,,,,,,,,,,,,,,,1.0524691541989644,0.9944467000022996,617.1737704999978,None,ScrollDown,정답입니다,617.1737704999978,None,617.1737704999978,None,617.1737704999978,None,617.1737704999978,None,618.0712627999892,None,618.0712627999892,618.5857457999955,,,,,,,,,,,,,,,,018,2022-05-12_19h59.20.742,FishGame,2022.1.1,59.996676186768205,
,14,넌 고독해,4,Green,A,2.916666666666667,3.233333333333333,ScrollDown,ScrollUp,Green.png,5,Negative,Incongruent,,,,,0,0,0,0,,,,,,,,,,,,,,,,,,,,,,,,,,,,,0,13,13,13,,,,,,,,,,,,,,,,,,,,,,,,,,,,,,,,,,,,,,,,,,,,,,,,,,,,,,,,,,,,,,,,,1.0092592636744182,0.9106248000025516,619.1906277999951,None,ScrollDown,정답입니다,619.1906277999951,None,619.1906277999951,None,619.1906277999951,None,619.1906277999951,None,620.0023213999957,None,620.0023213999957,620.5045137999987,,,,,,,,,,,,,,,,018,2022-05-12_19h59.20.742,FishGame,2022.1.1,59.996676186768205,
,15,넌 신경질적이야,5,Orange,B,2.375,2.233333333333333,ScrollUp,ScrollDown,Orange.png,5,Negative,Congruent,,,,,0,0,0,0,,,,,,,,,,,,,,,,,,,,,,,,,,,,,0,14,14,14,,,,,,,,,,,,,,,,,,,,,,,,,,,,,,,,,,,,,,,,,,,,,,,,,,,,,,,,,,,,,,,,,1.8101851791143417,0.8291629000013927,621.1253892999957,None,ScrollUp,정답입니다,621.1253892999957,None,621.1253892999957,None,621.1253892999957,None,621.1253892999957,None,621.8523081999883,None,621.8523081999883,622.3545282999985,,,,,,,,,,,,,,,,018,2022-05-12_19h59.20.742,FishGame,2022.1.1,59.996676186768205,
,16,넌 똑똑해,2,Orange,B,5.666666666666667,3.966666666666667,ScrollUp,ScrollDown,Orange.png,5,Positive,Incongruent,,,,,0,0,0,0,,,,,,,,,,,,,,,,,,,,,,,,,,,,,0,15,15,15,,,,,,,,,,,,,,,,,,,,,,,,,,,,,,,,,,,,,,,,,,,,,,,,,,,,,,,,,,,,,,,,,1.7885802586873372,0.8274867000000086,622.9842581999983,None,ScrollUp,정답입니다,622.9842581999983,None,622.9842581999983,None,622.9842581999983,None,622.9842581999983,None,623.7022093999985,None,623.7022093999985,624.2022981999908,,,,,,,,,,,,,,,,018,2022-05-12_19h59.20.742,FishGame,2022.1.1,59.996676186768205,
,17,나를 보내줘,6,Green,A,0,0,ScrollUp,ScrollDown,Green.png,5,NonTarget,NonTarget,,,,,0,0,0,0,,,,,,,,,,,,,,,,,,,,,,,,,,,,,0,16,16,16,,,,,,,,,,,,,,,,,,,,,,,,,,,,,,,,,,,,,,,,,,,,,,,,,,,,,,,,,,,,,,,,,1.8024691343307495,0.9608695000060834,624.8207283999946,None,ScrollUp,정답입니다,624.8207283999946,None,624.8207283999946,None,624.8207283999946,None,624.8207283999946,None,625.6877349999995,None,625.6877349999995,626.1877777999907,,,,,,,,,,,,,,,,018,2022-05-12_19h59.20.742,FishGame,2022.1.1,59.996676186768205,
,18,넌 협조적이야,1,Green,A,5.625,5.666666666666667,ScrollDown,ScrollUp,Green.png,5,Positive,Congruent,,,,,0,0,0,0,,,,,,,,,,,,,,,,,,,,,,,,,,,,,0,17,17,17,,,,,,,,,,,,,,,,,,,,,,,,,,,,,,,,,,,,,,,,,,,,,,,,,,,,,,,,,,,,,,,,,1,0.9942889000085415,626.8081689999963,None,ScrollDown,정답입니다,626.8081689999963,None,626.8081689999963,None,626.8081689999963,None,626.8081689999963,None,627.7021300999913,None,627.7021300999913,628.2044402999891,,,,,,,,,,,,,,,,018,2022-05-12_19h59.20.742,FishGame,2022.1.1,59.996676186768205,
,19,나를 데려가줘,6,Orange,B,0,0,ScrollDown,ScrollUp,Orange.png,5,NonTarget,NonTarget,,,,,0,0,0,0,,,,,,,,,,,,,,,,,,,,,,,,,,,,,0,18,18,18,,,,,,,,,,,,,,,,,,,,,,,,,,,,,,,,,,,,,,,,,,,,,,,,,,,,,,,,,,,,,,,,,1,1.029718200006755,628.8288407999935,None,ScrollDown,정답입니다,628.8288407999935,None,628.8288407999935,None,628.8288407999935,None,628.8288407999935,None,629.752170199994,None,629.752170199994,630.254354299992,,,,,,,,,,,,,,,,018,2022-05-12_19h59.20.742,FishGame,2022.1.1,59.996676186768205,
,20,넌 몰인정해,5,Orange,B,2.541666666666667,2.066666666666667,ScrollUp,ScrollDown,Orange.png,5,Negative,Congruent,,,,,0,0,0,0,,,,,,,,,,,,,,,,,,,,,,,,,,,,,0,19,19,19,,,,,,,,,,,,,,,,,,,,,,,,,,,,,,,,,,,,,,,,,,,,,,,,,,,,,,,,,,,,,,,,,2,1.0266221999918343,630.874935099986,None,ScrollUp,정답입니다,630.874935099986,None,630.874935099986,None,630.874935099986,None,630.874935099986,None,631.8018309999898,None,631.8018309999898,632.3019100999954,,,,,,,,,,,,,,,,018,2022-05-12_19h59.20.742,FishGame,2022.1.1,59.996676186768205,
,21,나를 데려가줘,6,Orange,B,0,0,ScrollDown,ScrollUp,Orange.png,5,NonTarget,NonTarget,,,,,0,0,0,0,,,,,,,,,,,,,,,,,,,,,,,,,,,,,0,20,20,20,,,,,,,,,,,,,,,,,,,,,,,,,,,,,,,,,,,,,,,,,,,,,,,,,,,,,,,,,,,,,,,,,1,0.912608700004057,632.920355299997,None,ScrollDown,정답입니다,632.920355299997,None,632.920355299997,None,632.920355299997,None,632.920355299997,None,633.7351729999937,None,633.7351729999937,634.2377425999875,,,,,,,,,,,,,,,,018,2022-05-12_19h59.20.742,FishGame,2022.1.1,59.996676186768205,
,22,넌 순진해,3,Orange,B,4.125,4.166666666666667,ScrollUp,ScrollDown,Orange.png,5,Neutral,Neutral,,,,,0,0,0,0,,,,,,,,,,,,,,,,,,,,,,,,,,,,,0,21,21,21,,,,,,,,,,,,,,,,,,,,,,,,,,,,,,,,,,,,,,,,,,,,,,,,,,,,,,,,,,,,,,,,,1.7932098756233852,1.0962849000061397,634.8563122999913,None,ScrollUp,정답입니다,634.8563122999913,None,634.8563122999913,None,634.8563122999913,None,634.8563122999913,None,635.8543129999889,None,635.8543129999889,636.3575219999911,,,,,,,,,,,,,,,,018,2022-05-12_19h59.20.742,FishGame,2022.1.1,59.996676186768205,
