name,TrialNum,Word,WordCategory,FishType,WordList,WordValence,WordReputation,CorrectResp,IncorrectResp,FishTypeFile,Round,WordType,Condition,LoopforOrange.thisRepN,LoopforOrange.thisTrialN,LoopforOrange.thisN,LoopforOrange.thisIndex,OrangeInstLoop.thisRepN,OrangeInstLoop.thisTrialN,OrangeInstLoop.thisN,OrangeInstLoop.thisIndex,OrangePrac.thisRepN,OrangePrac.thisTrialN,OrangePrac.thisN,OrangePrac.thisIndex,temp1.thisRepN,temp1.thisTrialN,temp1.thisN,temp1.thisIndex,OrangeRound1.thisRepN,OrangeRound1.thisTrialN,OrangeRound1.thisN,OrangeRound1.thisIndex,OrangeRound2.thisRepN,OrangeRound2.thisTrialN,OrangeRound2.thisN,OrangeRound2.thisIndex,OrangeRound3.thisRepN,OrangeRound3.thisTrialN,OrangeRound3.thisN,OrangeRound3.thisIndex,OrangeRound4.thisRepN,OrangeRound4.thisTrialN,OrangeRound4.thisN,OrangeRound4.thisIndex,OrangeRound5.thisRepN,OrangeRound5.thisTrialN,OrangeRound5.thisN,OrangeRound5.thisIndex,LoopForGreen.thisRepN,LoopForGreen.thisTrialN,LoopForGreen.thisN,LoopForGreen.thisIndex,text_2.started,text_2.stopped,text_3.started,text_3.stopped,key_resp.keys,key_resp.rt,key_resp.started,key_resp.stopped,PassI_2.started,PassI_2.stopped,PassInst_2.keys,PassInst_2.rt,PassInst_2.started,PassInst_2.stopped,mouse_2.x,mouse_2.y,mouse_2.leftButton,mouse_2.midButton,mouse_2.rightButton,mouse_2.started,mouse_2.stopped,image.started,image.stopped,text_5.started,text_5.stopped,text_6.started,text_6.stopped,text_7.started,text_7.stopped,text_8.started,text_8.stopped,slider_2.response,slider_2.rt,slider_2.started,slider_2.stopped,Response_2,Feedback_2,BackGround_2.started,BackGround_2.stopped,Fish_2.started,Fish_2.stopped,WordBox_2.started,WordBox_2.stopped,Words_2.started,Words_2.stopped,BackGround_Feedback_2.started,BackGround_Feedback_2.stopped,Feedbacks_2.started,Feedbacks_2.stopped,Continue_or_not.keys,Continue_or_not.rt,Continue_or_not.started,Continue_or_not.stopped,image_3.started,image_3.stopped,mouse_3.x,mouse_3.y,mouse_3.leftButton,mouse_3.midButton,mouse_3.rightButton,mouse_3.started,mouse_3.stopped,startmain.started,startmain.stopped,slider.response,slider.rt,slider.started,slider.stopped,Response,Feedback,BackGround.started,BackGround.stopped,Fish.started,Fish.stopped,WordBox.started,WordBox.stopped,Words.started,Words.stopped,BackGround_Feedback.started,BackGround_Feedback.stopped,Feedbacks.started,Feedbacks.stopped,text.started,text.stopped,break_interval.started,break_interval.stopped,mouse.x,mouse.y,mouse.leftButton,mouse.midButton,mouse.rightButton,mouse.started,mouse.stopped,stratnextround.started,stratnextround.stopped,endgame.started,endgame.stopped,participant,date,expName,psychopyVersion,frameRate,
,,,,,,,,,,,,,,,,,,,,,,,,,,,,,,,,,,,,,,,,,,,,,,,,,,,,,,17.452163200010546,None,17.452163200010546,None,space,2.504889000003459,17.936074400000507,None,,,,,,,,,,,,,,,,,,,,,,,,,,,,,,,,,,,,,,,,,,,,,,,,,,,,,,,,,,,,,,,,,,,,,,,,,,,,,,,,,,,,,,,,,,019,2022-05-13_15h58.12.709,FishGame,2022.1.1,60.00078000210939,
물고기과제_instruction(참가자용)OrangeVersion.mp4,,,,,,,,,,,,,,0,0,0,0,0,0,0,0,,,,,,,,,,,,,,,,,,,,,,,,,,,,,,,,,,,,,,,,,91.39373109998996,None,n,2.3345310000004247,91.39373109998996,None,,,,,,,,,,,,,,,,,,,,,,,,,,,,,,,,,,,,,,,,,,,,,,,,,,,,,,,,,,,,,,,,,,,,,,,,,,,,,,,,,,,,019,2022-05-13_15h58.12.709,FishGame,2022.1.1,60.00078000210939,
,1,넌 교활해,5,Green,B,2.333333333333333,2.133333333333333,ScrollUp,ScrollDown,Green.png,practice,,,0,0,0,0,,,,,0,0,0,0,0,0,0,0,,,,,,,,,,,,,,,,,,,,,,,,,,,,,,,,,,,,,,,0.02962963,-0.23055555,1,0,0,0.5131353099714033,None,93.76331440001377,None,97.79642180001247,99.31037590000778,99.32997270001215,100.27703769999789,100.33007639998686,101.2936800000025,101.27705400000559,None,2,1.8835686999955215,102.57164400001056,None,ScrollUp,정답입니다,102.57164400001056,None,102.57164400001056,None,102.57164400001056,None,102.57164400001056,None,104.15998510000645,None,104.15998510000645,104.6600907999964,,,,,,,,,,,,,,,,,,,,,,,,,,,,,,,,,,,,,,,,,,,,,,,,,019,2022-05-13_15h58.12.709,FishGame,2022.1.1,60.00078000210939,
,2,넌 슬기로워,2,Orange,A,6.166666666666667,4.1,ScrollDown,ScrollUp,Orange.png,practice,,,0,0,0,0,,,,,0,0,0,0,0,1,1,1,,,,,,,,,,,,,,,,,,,,,,,,,,,,,,,,,,,,,,,,,,,,,,,,,,,,,,,,1,1.612579700013157,105.3027110999974,None,ScrollDown,정답입니다,105.3027110999974,None,105.3027110999974,None,105.3027110999974,None,105.3027110999974,None,106.79640270001255,None,106.79640270001255,107.29647949998616,,,,,,,,,,,,,,,,,,,,,,,,,,,,,,,,,,,,,,,,,,,,,,,,,019,2022-05-13_15h58.12.709,FishGame,2022.1.1,60.00078000210939,
,3,나를 보내줘,6,Orange,A,0,0,ScrollUp,ScrollDown,Orange.png,practice,,,0,0,0,0,,,,,0,0,0,0,0,2,2,2,,,,,,,,,,,,,,,,,,,,,,,,,,,,,,,,,,,,,,,,,,,,,,,,,,,,,,,,2,1.5763164999953005,107.91751490000752,None,ScrollUp,정답입니다,107.91751490000752,None,107.91751490000752,None,107.91751490000752,None,107.91751490000752,None,109.39352030001464,None,109.39352030001464,109.89350060001016,,,,,,,,,,,,,,,,,,,,,,,,,,,,,,,,,,,,,,,,,,,,,,,,,019,2022-05-13_15h58.12.709,FishGame,2022.1.1,60.00078000210939,
,4,나를 데려가줘,6,Green,B,0,0,ScrollDown,ScrollUp,Green.png,practice,,,0,0,0,0,,,,,0,0,0,0,0,3,3,3,,,,,,,,,,,,,,,,,,,,,,,,,,,,,,,,,,,,,,,,,,,,,,,,,,,,,,,,1,1.777436200005468,110.51084350000019,None,ScrollDown,정답입니다,110.51084350000019,None,110.51084350000019,None,110.51084350000019,None,110.51084350000019,None,112.19314290001057,None,112.19314290001057,112.69320849998621,,,,,,,,,,,,,,,,,,,,,,,,,,,,,,,,,,,,,,,,,,,,,,,,,019,2022-05-13_15h58.12.709,FishGame,2022.1.1,60.00078000210939,
,1,넌 교활해,5,Green,B,2.333333333333333,2.133333333333333,ScrollUp,ScrollDown,Green.png,practice,,,0,0,0,0,,,,,0,0,0,0,,,,,,,,,,,,,,,,,,,,,,,,,,,,,,,,,,,,,,,,,,,,,,,,,,,,,,,,,,,,,,,,,,,,,,,,,,,,,,n,4.975667800026713,113.1932558999979,None,113.1932558999979,None,,,,,,,,,,,,,,,,,,,,,,,,,,,,,,,,,,,,,,,,,,,019,2022-05-13_15h58.12.709,FishGame,2022.1.1,60.00078000210939,
,1,넌 따뜻해,1,Green,B,6.083333333333333,5.6,ScrollUp,ScrollDown,Green.png,1,Positive,Incongruent,0,0,0,0,,,,,,,,,,,,,0,0,0,0,,,,,,,,,,,,,,,,,,,,,,,,,,,,,,,,,,,,,,,,,,,,121.36286580000888,122.86739999998827,122.884086200007,123.84619509999175,123.89323539999896,124.84629879999557,124.84629879999557,None,,,,,,,,,,,,,,,,,,,,,,,,,0.024074074,-0.11666667,1,0,0,0.3138414100103546,None,118.19310070000938,None,2,1.7826769999810494,126.16017300001113,None,ScrollUp,정답입니다,126.16017300001113,None,126.16017300001113,None,126.16017300001113,None,126.16017300001113,None,127.64311350000207,None,127.64311350000207,128.14594009998837,,,,,,,,,,,,,,,,019,2022-05-13_15h58.12.709,FishGame,2022.1.1,60.00078000210939,
,2,넌 기품있어,2,Green,B,5.791666666666668,4.5,ScrollUp,ScrollDown,Green.png,1,Positive,Incongruent,0,0,0,0,,,,,,,,,,,,,0,1,1,1,,,,,,,,,,,,,,,,,,,,,,,,,,,,,,,,,,,,,,,,,,,,,,,,,,,,,,,,,,,,,,,,,,,,,,,,,,,,,,,,,,,,,2,1.4417503000004217,128.77854470000602,None,ScrollUp,정답입니다,128.77854470000602,None,128.77854470000602,None,128.77854470000602,None,128.77854470000602,None,130.10973779999767,None,130.10973779999767,130.60975209999015,,,,,,,,,,,,,,,,019,2022-05-13_15h58.12.709,FishGame,2022.1.1,60.00078000210939,
,3,나를 보내줘,6,Orange,A,0,0,ScrollUp,ScrollDown,Orange.png,1,NonTarget,NonTarget,0,0,0,0,,,,,,,,,,,,,0,2,2,2,,,,,,,,,,,,,,,,,,,,,,,,,,,,,,,,,,,,,,,,,,,,,,,,,,,,,,,,,,,,,,,,,,,,,,,,,,,,,,,,,,,,,2,1.5440012000035495,131.23683710000478,None,ScrollUp,정답입니다,131.23683710000478,None,131.23683710000478,None,131.23683710000478,None,131.23683710000478,None,132.67603209998924,None,132.67603209998924,133.17612970000482,,,,,,,,,,,,,,,,019,2022-05-13_15h58.12.709,FishGame,2022.1.1,60.00078000210939,
,4,넌 수동적이야,4,Orange,A,2.833333333333333,2.933333333333333,ScrollDown,ScrollUp,Orange.png,1,Negative,Incongruent,0,0,0,0,,,,,,,,,,,,,0,3,3,3,,,,,,,,,,,,,,,,,,,,,,,,,,,,,,,,,,,,,,,,,,,,,,,,,,,,,,,,,,,,,,,,,,,,,,,,,,,,,,,,,,,,,1,1.5779631999903359,133.8082044000039,None,ScrollDown,정답입니다,133.8082044000039,None,133.8082044000039,None,133.8082044000039,None,133.8082044000039,None,135.27914669999154,None,135.27914669999154,135.7959361000103,,,,,,,,,,,,,,,,019,2022-05-13_15h58.12.709,FishGame,2022.1.1,60.00078000210939,
,5,넌 사심이 없어,3,Green,B,4.916666666666666,4.333333333333333,ScrollUp,ScrollDown,Green.png,1,Neutral,Neutral,0,0,0,0,,,,,,,,,,,,,0,4,4,4,,,,,,,,,,,,,,,,,,,,,,,,,,,,,,,,,,,,,,,,,,,,,,,,,,,,,,,,,,,,,,,,,,,,,,,,,,,,,,,,,,,,,2,1.6262566999939736,136.40147189999698,None,ScrollUp,정답입니다,136.40147189999698,None,136.40147189999698,None,136.40147189999698,None,136.40147189999698,None,137.92618400001084,None,137.92618400001084,138.42602010001428,,,,,,,,,,,,,,,,019,2022-05-13_15h58.12.709,FishGame,2022.1.1,60.00078000210939,
,6,넌 헤퍼,5,Orange,A,2.458333333333334,2.233333333333333,ScrollDown,ScrollUp,Orange.png,1,Negative,Incongruent,0,0,0,0,,,,,,,,,,,,,0,5,5,5,,,,,,,,,,,,,,,,,,,,,,,,,,,,,,,,,,,,,,,,,,,,,,,,,,,,,,,,,,,,,,,,,,,,,,,,,,,,,,,,,,,,,1,1.47980109998025,139.05159529999946,None,ScrollDown,정답입니다,139.05159529999946,None,139.05159529999946,None,139.05159529999946,None,139.05159529999946,None,140.42600289999973,None,140.42600289999973,140.9262594000029,,,,,,,,,,,,,,,,019,2022-05-13_15h58.12.709,FishGame,2022.1.1,60.00078000210939,
,7,넌 말쑥해,3,Orange,A,4.833333333333334,4.333333333333333,ScrollDown,ScrollUp,Orange.png,1,Neutral,Neutral,0,0,0,0,,,,,,,,,,,,,0,6,6,6,,,,,,,,,,,,,,,,,,,,,,,,,,,,,,,,,,,,,,,,,,,,,,,,,,,,,,,,,,,,,,,,,,,,,,,,,,,,,,,,,,,,,1,1.3433395000174642,141.55062100000214,None,ScrollDown,정답입니다,141.55062100000214,None,141.55062100000214,None,141.55062100000214,None,141.55062100000214,None,142.7928178999864,None,142.7928178999864,143.29289030001382,,,,,,,,,,,,,,,,019,2022-05-13_15h58.12.709,FishGame,2022.1.1,60.00078000210939,
,8,넌 투덜거려,5,Green,B,2.541666666666667,2.266666666666667,ScrollUp,ScrollDown,Green.png,1,Negative,Congruent,0,0,0,0,,,,,,,,,,,,,0,7,7,7,,,,,,,,,,,,,,,,,,,,,,,,,,,,,,,,,,,,,,,,,,,,,,,,,,,,,,,,,,,,,,,,,,,,,,,,,,,,,,,,,,,,,2,1.5242316000221763,143.91983999998774,None,ScrollUp,정답입니다,143.91983999998774,None,143.91983999998774,None,143.91983999998774,None,143.91983999998774,None,145.34274570000707,None,145.34274570000707,145.84280260000378,,,,,,,,,,,,,,,,019,2022-05-13_15h58.12.709,FishGame,2022.1.1,60.00078000210939,
,9,넌 적극적이야,1,Orange,A,5.708333333333333,5.533333333333333,ScrollDown,ScrollUp,Orange.png,1,Positive,Congruent,0,0,0,0,,,,,,,,,,,,,0,8,8,8,,,,,,,,,,,,,,,,,,,,,,,,,,,,,,,,,,,,,,,,,,,,,,,,,,,,,,,,,,,,,,,,,,,,,,,,,,,,,,,,,,,,,1,1.4267915999807883,146.4745860999974,None,ScrollDown,정답입니다,146.4745860999974,None,146.4745860999974,None,146.4745860999974,None,146.4745860999974,None,147.79272769999807,None,147.79272769999807,148.29561880000983,,,,,,,,,,,,,,,,019,2022-05-13_15h58.12.709,FishGame,2022.1.1,60.00078000210939,
,10,넌 재미없어,4,Green,B,2.625,2.966666666666667,ScrollUp,ScrollDown,Green.png,1,Negative,Congruent,0,0,0,0,,,,,,,,,,,,,0,9,9,9,,,,,,,,,,,,,,,,,,,,,,,,,,,,,,,,,,,,,,,,,,,,,,,,,,,,,,,,,,,,,,,,,,,,,,,,,,,,,,,,,,,,,2,1.6603709999762941,148.92705019999994,None,ScrollUp,정답입니다,148.92705019999994,None,148.92705019999994,None,148.92705019999994,None,148.92705019999994,None,150.47569650001242,None,150.47569650001242,150.9758196999901,,,,,,,,,,,,,,,,019,2022-05-13_15h58.12.709,FishGame,2022.1.1,60.00078000210939,
,11,넌 명석해,2,Orange,A,5.875,4.033333333333333,ScrollDown,ScrollUp,Orange.png,1,Positive,Congruent,0,0,0,0,,,,,,,,,,,,,0,10,10,10,,,,,,,,,,,,,,,,,,,,,,,,,,,,,,,,,,,,,,,,,,,,,,,,,,,,,,,,,,,,,,,,,,,,,,,,,,,,,,,,,,,,,1,1.2615001999947708,151.6000355000142,None,ScrollDown,정답입니다,151.6000355000142,None,151.6000355000142,None,151.6000355000142,None,151.6000355000142,None,152.7621034999902,None,152.7621034999902,153.26218799999333,,,,,,,,,,,,,,,,019,2022-05-13_15h58.12.709,FishGame,2022.1.1,60.00078000210939,
,12,나를 데려가줘,6,Green,B,0,0,ScrollDown,ScrollUp,Green.png,1,NonTarget,NonTarget,0,0,0,0,,,,,,,,,,,,,0,11,11,11,,,,,,,,,,,,,,,,,,,,,,,,,,,,,,,,,,,,,,,,,,,,,,,,,,,,,,,,,,,,,,,,,,,,,,,,,,,,,,,,,,,,,1,1.7101129000075161,153.8878102999879,None,ScrollDown,정답입니다,153.8878102999879,None,153.8878102999879,None,153.8878102999879,None,153.8878102999879,None,155.49226090000593,None,155.49226090000593,155.9923318999936,,,,,,,,,,,,,,,,019,2022-05-13_15h58.12.709,FishGame,2022.1.1,60.00078000210939,
,13,넌 소심해,4,Orange,A,3,3.1,ScrollDown,ScrollUp,Orange.png,1,Negative,Incongruent,0,0,0,0,,,,,,,,,,,,,0,12,12,12,,,,,,,,,,,,,,,,,,,,,,,,,,,,,,,,,,,,,,,,,,,,,,,,,,,,,,,,,,,,,,,,,,,,,,,,,,,,,,,,,,,,,1,1.42804860000615,156.61704109999118,None,ScrollDown,정답입니다,156.61704109999118,None,156.61704109999118,None,156.61704109999118,None,156.61704109999118,None,157.94224000000395,None,157.94224000000395,158.44231909999507,,,,,,,,,,,,,,,,019,2022-05-13_15h58.12.709,FishGame,2022.1.1,60.00078000210939,
,14,넌 합리적이야,2,Orange,A,5.583333333333333,4.733333333333333,ScrollDown,ScrollUp,Orange.png,1,Positive,Congruent,0,0,0,0,,,,,,,,,,,,,0,13,13,13,,,,,,,,,,,,,,,,,,,,,,,,,,,,,,,,,,,,,,,,,,,,,,,,,,,,,,,,,,,,,,,,,,,,,,,,,,,,,,,,,,,,,1,1.2451406999898609,159.0696414000122,None,ScrollDown,정답입니다,159.0696414000122,None,159.0696414000122,None,159.0696414000122,None,159.0696414000122,None,160.21200900000986,None,160.21200900000986,160.72861759999068,,,,,,,,,,,,,,,,019,2022-05-13_15h58.12.709,FishGame,2022.1.1,60.00078000210939,
,15,넌 무자비해,5,Green,B,2.333333333333333,2.1,ScrollUp,ScrollDown,Green.png,1,Negative,Congruent,0,0,0,0,,,,,,,,,,,,,0,14,14,14,,,,,,,,,,,,,,,,,,,,,,,,,,,,,,,,,,,,,,,,,,,,,,,,,,,,,,,,,,,,,,,,,,,,,,,,,,,,,,,,,,,,,2,1.3431791000184603,161.34150430001318,None,ScrollUp,정답입니다,161.34150430001318,None,161.34150430001318,None,161.34150430001318,None,161.34150430001318,None,162.57576350000454,None,162.57576350000454,163.08324800000992,,,,,,,,,,,,,,,,019,2022-05-13_15h58.12.709,FishGame,2022.1.1,60.00078000210939,
,16,나를 보내줘,6,Orange,A,0,0,ScrollUp,ScrollDown,Orange.png,1,NonTarget,NonTarget,0,0,0,0,,,,,,,,,,,,,0,15,15,15,,,,,,,,,,,,,,,,,,,,,,,,,,,,,,,,,,,,,,,,,,,,,,,,,,,,,,,,,,,,,,,,,,,,,,,,,,,,,,,,,,,,,2,1.961285900004441,163.69664770000963,None,ScrollUp,정답입니다,163.69664770000963,None,163.69664770000963,None,163.69664770000963,None,163.69664770000963,None,165.55877730000066,None,165.55877730000066,166.06197119998978,,,,,,,,,,,,,,,,019,2022-05-13_15h58.12.709,FishGame,2022.1.1,60.00078000210939,
,17,넌 현실적이야,3,Green,B,4.608695652173913,4.766666666666667,ScrollUp,ScrollDown,Green.png,1,Neutral,Neutral,0,0,0,0,,,,,,,,,,,,,0,16,16,16,,,,,,,,,,,,,,,,,,,,,,,,,,,,,,,,,,,,,,,,,,,,,,,,,,,,,,,,,,,,,,,,,,,,,,,,,,,,,,,,,,,,,2,1.3103605000069365,166.68373439999414,None,ScrollUp,정답입니다,166.68373439999414,None,166.68373439999414,None,166.68373439999414,None,166.68373439999414,None,167.8951434000046,None,167.8951434000046,168.39233550001518,,,,,,,,,,,,,,,,019,2022-05-13_15h58.12.709,FishGame,2022.1.1,60.00078000210939,
,18,넌 의리있어,1,Green,B,5.833333333333334,5.633333333333334,ScrollUp,ScrollDown,Green.png,1,Positive,Incongruent,0,0,0,0,,,,,,,,,,,,,0,17,17,17,,,,,,,,,,,,,,,,,,,,,,,,,,,,,,,,,,,,,,,,,,,,,,,,,,,,,,,,,,,,,,,,,,,,,,,,,,,,,,,,,,,,,2,1.326208400016185,169.01398059999337,None,ScrollUp,정답입니다,169.01398059999337,None,169.01398059999337,None,169.01398059999337,None,169.01398059999337,None,170.24219600000652,None,170.24219600000652,170.74222250000457,,,,,,,,,,,,,,,,019,2022-05-13_15h58.12.709,FishGame,2022.1.1,60.00078000210939,
,19,넌 신경과민이야,5,Orange,A,2.541666666666667,2.166666666666667,ScrollDown,ScrollUp,Orange.png,1,Negative,Incongruent,0,0,0,0,,,,,,,,,,,,,0,18,18,18,,,,,,,,,,,,,,,,,,,,,,,,,,,,,,,,,,,,,,,,,,,,,,,,,,,,,,,,,,,,,,,,,,,,,,,,,,,,,,,,,,,,,1,1.1638422000105493,171.3702930000145,None,ScrollDown,정답입니다,171.3702930000145,None,171.3702930000145,None,171.3702930000145,None,171.3702930000145,None,172.42549699998926,None,172.42549699998926,172.92561700000078,,,,,,,,,,,,,,,,019,2022-05-13_15h58.12.709,FishGame,2022.1.1,60.00078000210939,
,20,넌 편안해,1,Orange,A,5.916666666666666,5.866666666666666,ScrollDown,ScrollUp,Orange.png,1,Positive,Congruent,0,0,0,0,,,,,,,,,,,,,0,19,19,19,,,,,,,,,,,,,,,,,,,,,,,,,,,,,,,,,,,,,,,,,,,,,,,,,,,,,,,,,,,,,,,,,,,,,,,,,,,,,,,,,,,,,1,1.0294996000011452,173.5474428999878,None,ScrollDown,정답입니다,173.5474428999878,None,173.5474428999878,None,173.5474428999878,None,173.5474428999878,None,174.47548150000512,None,174.47548150000512,174.97833990000072,,,,,,,,,,,,,,,,019,2022-05-13_15h58.12.709,FishGame,2022.1.1,60.00078000210939,
,21,넌 품위있어,2,Green,B,5.291666666666666,4.466666666666667,ScrollUp,ScrollDown,Green.png,1,Positive,Incongruent,0,0,0,0,,,,,,,,,,,,,0,20,20,20,,,,,,,,,,,,,,,,,,,,,,,,,,,,,,,,,,,,,,,,,,,,,,,,,,,,,,,,,,,,,,,,,,,,,,,,,,,,,,,,,,,,,2,1.214433499990264,175.60970729999826,None,ScrollUp,정답입니다,175.60970729999826,None,175.60970729999826,None,175.60970729999826,None,175.60970729999826,None,176.70881730000838,None,176.70881730000838,177.2092149000091,,,,,,,,,,,,,,,,019,2022-05-13_15h58.12.709,FishGame,2022.1.1,60.00078000210939,
,22,넌 빈틈없어,3,Orange,A,4.833333333333333,3.966666666666667,ScrollDown,ScrollUp,Orange.png,1,Neutral,Neutral,0,0,0,0,,,,,,,,,,,,,0,21,21,21,,,,,,,,,,,,,,,,,,,,,,,,,,,,,,,,,,,,,,,,,,,,,,,,,,,,,,,,,,,,,,,,,,,,,,,,,,,,,,,,,,,,,1,1.1589013999910094,177.83605360001093,None,ScrollDown,정답입니다,177.83605360001093,None,177.83605360001093,None,177.83605360001093,None,177.83605360001093,None,178.8920739000023,None,178.8920739000023,179.39206390001345,,,,,,,,,,,,,,,,019,2022-05-13_15h58.12.709,FishGame,2022.1.1,60.00078000210939,
,23,넌 상상력없어,4,Green,B,2.833333333333333,3.133333333333333,ScrollUp,ScrollDown,Green.png,1,Negative,Congruent,0,0,0,0,,,,,,,,,,,,,0,22,22,22,,,,,,,,,,,,,,,,,,,,,,,,,,,,,,,,,,,,,,,,,,,,,,,,,,,,,,,,,,,,,,,,,,,,,,,,,,,,,,,,,,,,,2,1.2085388000123203,180.0188552000036,None,ScrollUp,정답입니다,180.0188552000036,None,180.0188552000036,None,180.0188552000036,None,180.0188552000036,None,181.1253480000014,None,181.1253480000014,181.62539550001384,,,,,,,,,,,,,,,,019,2022-05-13_15h58.12.709,FishGame,2022.1.1,60.00078000210939,
,24,넌 지혜로워,2,Green,B,6.333333333333334,4.633333333333334,ScrollUp,ScrollDown,Green.png,1,Positive,Incongruent,0,0,0,0,,,,,,,,,,,,,0,23,23,23,,,,,,,,,,,,,,,,,,,,,,,,,,,,,,,,,,,,,,,,,,,,,,,,,,,,,,,,,,,,,,,,,,,,,,,,,,,,,,,,,,,,,2,1.0447395999799483,182.25367299999925,None,ScrollUp,정답입니다,182.25367299999925,None,182.25367299999925,None,182.25367299999925,None,182.25367299999925,None,183.19199550000485,None,183.19199550000485,183.6920528000046,,,,,,,,,,,,,,,,019,2022-05-13_15h58.12.709,FishGame,2022.1.1,60.00078000210939,
,25,넌 시끄러워,4,Orange,A,2.833333333333333,3.033333333333333,ScrollDown,ScrollUp,Orange.png,1,Negative,Incongruent,0,0,0,0,,,,,,,,,,,,,0,24,24,24,,,,,,,,,,,,,,,,,,,,,,,,,,,,,,,,,,,,,,,,,,,,,,,,,,,,,,,,,,,,,,,,,,,,,,,,,,,,,,,,,,,,,1,1.1758186000224669,184.3188841000083,None,ScrollDown,정답입니다,184.3188841000083,None,184.3188841000083,None,184.3188841000083,None,184.3188841000083,None,185.39476699999068,None,185.39476699999068,185.9086277000024,,,,,,,,,,,,,,,,019,2022-05-13_15h58.12.709,FishGame,2022.1.1,60.00078000210939,
,26,넌 만사태평이야,3,Green,B,4,4.333333333333333,ScrollUp,ScrollDown,Green.png,1,Neutral,Neutral,0,0,0,0,,,,,,,,,,,,,0,25,25,25,,,,,,,,,,,,,,,,,,,,,,,,,,,,,,,,,,,,,,,,,,,,,,,,,,,,,,,,,,,,,,,,,,,,,,,,,,,,,,,,,,,,,1.9459876318772633,1.1573197999969125,186.51704159998917,None,ScrollUp,정답입니다,186.51704159998917,None,186.51704159998917,None,186.51704159998917,None,186.51704159998917,None,187.57492499999353,None,187.57492499999353,188.07502320001367,,,,,,,,,,,,,,,,019,2022-05-13_15h58.12.709,FishGame,2022.1.1,60.00078000210939,
,27,넌 붙임성있어,1,Orange,A,5.708333333333333,5.633333333333334,ScrollDown,ScrollUp,Orange.png,1,Positive,Congruent,0,0,0,0,,,,,,,,,,,,,0,26,26,26,,,,,,,,,,,,,,,,,,,,,,,,,,,,,,,,,,,,,,,,,,,,,,,,,,,,,,,,,,,,,,,,,,,,,,,,,,,,,,,,,,,,,1,1.2792310999939218,188.6989212000044,None,ScrollDown,정답입니다,188.6989212000044,None,188.6989212000044,None,188.6989212000044,None,188.6989212000044,None,189.87797410000348,None,189.87797410000348,190.37523430000874,,,,,,,,,,,,,,,,019,2022-05-13_15h58.12.709,FishGame,2022.1.1,60.00078000210939,
,28,넌 영리해,2,Orange,A,6,4.033333333333333,ScrollDown,ScrollUp,Orange.png,1,Positive,Congruent,0,0,0,0,,,,,,,,,,,,,0,27,27,27,,,,,,,,,,,,,,,,,,,,,,,,,,,,,,,,,,,,,,,,,,,,,,,,,,,,,,,,,,,,,,,,,,,,,,,,,,,,,,,,,,,,,1,1.2603323000075761,191.00007690000348,None,ScrollDown,정답입니다,191.00007690000348,None,191.00007690000348,None,191.00007690000348,None,191.00007690000348,None,192.15851479998673,None,192.15851479998673,192.6659115999937,,,,,,,,,,,,,,,,019,2022-05-13_15h58.12.709,FishGame,2022.1.1,60.00078000210939,
,29,넌 열심이야,1,Green,B,6.041666666666667,5.833333333333333,ScrollUp,ScrollDown,Green.png,1,Positive,Incongruent,0,0,0,0,,,,,,,,,,,,,0,28,28,28,,,,,,,,,,,,,,,,,,,,,,,,,,,,,,,,,,,,,,,,,,,,,,,,,,,,,,,,,,,,,,,,,,,,,,,,,,,,,,,,,,,,,2,1.1948597999871708,193.27808670001104,None,ScrollUp,정답입니다,193.27808670001104,None,193.27808670001104,None,193.27808670001104,None,193.27808670001104,None,194.37480680001318,None,194.37480680001318,194.87490019999677,,,,,,,,,,,,,,,,019,2022-05-13_15h58.12.709,FishGame,2022.1.1,60.00078000210939,
,30,넌 인기없어,4,Green,B,3,3.3,ScrollUp,ScrollDown,Green.png,1,Negative,Congruent,0,0,0,0,,,,,,,,,,,,,0,29,29,29,,,,,,,,,,,,,,,,,,,,,,,,,,,,,,,,,,,,,,,,,,,,,,,,,,,,,,,,,,,,,,,,,,,,,,,,,,,,,,,,,,,,,2,1.2281162999861408,195.5001298999996,None,ScrollUp,정답입니다,195.5001298999996,None,195.5001298999996,None,195.5001298999996,None,195.5001298999996,None,196.62509899999714,None,196.62509899999714,197.12807330000214,,,,,,,,,,,,,,,,019,2022-05-13_15h58.12.709,FishGame,2022.1.1,60.00078000210939,
,31,넌 익살스러워,3,Orange,A,4.708333333333334,4.833333333333333,ScrollDown,ScrollUp,Orange.png,1,Neutral,Neutral,0,0,0,0,,,,,,,,,,,,,0,30,30,30,,,,,,,,,,,,,,,,,,,,,,,,,,,,,,,,,,,,,,,,,,,,,,,,,,,,,,,,,,,,,,,,,,,,,,,,,,,,,,,,,,,,,1.0663580298423767,1.3932454000168946,197.7529699000006,None,ScrollDown,정답입니다,197.7529699000006,None,197.7529699000006,None,197.7529699000006,None,197.7529699000006,None,199.0413843000133,None,199.0413843000133,199.5414512999996,,,,,,,,,,,,,,,,019,2022-05-13_15h58.12.709,FishGame,2022.1.1,60.00078000210939,
,32,넌 이기적이야,5,Green,B,2.291666666666667,2.333333333333333,ScrollUp,ScrollDown,Green.png,1,Negative,Congruent,0,0,0,0,,,,,,,,,,,,,0,31,31,31,,,,,,,,,,,,,,,,,,,,,,,,,,,,,,,,,,,,,,,,,,,,,,,,,,,,,,,,,,,,,,,,,,,,,,,,,,,,,,,,,,,,,1.9722222189108531,1.0281420999963302,200.15931960000307,None,ScrollUp,정답입니다,200.15931960000307,None,200.15931960000307,None,200.15931960000307,None,200.15931960000307,None,201.09139340001275,None,201.09139340001275,201.59450229999493,,,,,,,,,,,,,,,,019,2022-05-13_15h58.12.709,FishGame,2022.1.1,60.00078000210939,
,33,나를 데려가줘,6,Green,B,0,0,ScrollDown,ScrollUp,Green.png,1,NonTarget,NonTarget,0,0,0,0,,,,,,,,,,,,,0,32,32,32,,,,,,,,,,,,,,,,,,,,,,,,,,,,,,,,,,,,,,,,,,,,,,,,,,,,,,,,,,,,,,,,,,,,,,,,,,,,,,,,,,,,,1,1.3766477999743074,202.21400000000722,None,ScrollDown,정답입니다,202.21400000000722,None,202.21400000000722,None,202.21400000000722,None,202.21400000000722,None,203.49162429998978,None,203.49162429998978,203.99454610000248,,,,,,,,,,,,,,,,019,2022-05-13_15h58.12.709,FishGame,2022.1.1,60.00078000210939,
,34,넌 기회주의자야,5,Orange,A,2.875,2.133333333333333,ScrollDown,ScrollUp,Orange.png,1,Negative,Incongruent,0,0,0,0,,,,,,,,,,,,,0,33,33,33,,,,,,,,,,,,,,,,,,,,,,,,,,,,,,,,,,,,,,,,,,,,,,,,,,,,,,,,,,,,,,,,,,,,,,,,,,,,,,,,,,,,,1,1.2935480999876745,204.61983459998737,None,ScrollDown,정답입니다,204.61983459998737,None,204.61983459998737,None,204.61983459998737,None,204.61983459998737,None,205.8081521000131,None,205.8081521000131,206.30824980000034,,,,,,,,,,,,,,,,019,2022-05-13_15h58.12.709,FishGame,2022.1.1,60.00078000210939,
,1,넌 미성숙해,4,Orange,A,3,3.2,ScrollDown,ScrollUp,Orange.png,2,Negative,Incongruent,0,0,0,0,,,,,,,,,,,,,,,,,0,0,0,0,,,,,,,,,,,,,,,,,,,,,,,,,,,,,,,,,,,,,,,,239.7438206000079,241.2479136000038,241.2649972999934,242.2270542999904,242.2741731000133,243.22714830000768,243.22714830000768,None,,,,,,,,,,,,,,,,,,,,,,,,,,,,,,,,,,1,1.547677399998065,244.34367740000016,None,ScrollDown,정답입니다,244.34367740000016,None,244.34367740000016,None,244.34367740000016,None,244.34367740000016,None,245.79070300000603,None,245.79070300000603,246.29070189999766,206.80823110000347,None,206.80823110000347,None,0.10555556,-0.10092592,1,0,0,0.015849409974180162,None,236.80736279999837,None,,,019,2022-05-13_15h58.12.709,FishGame,2022.1.1,60.00078000210939,
,2,넌 반사회적이야,5,Green,B,2.416666666666667,2.033333333333333,ScrollUp,ScrollDown,Green.png,2,Negative,Congruent,0,0,0,0,,,,,,,,,,,,,,,,,0,1,1,1,,,,,,,,,,,,,,,,,,,,,,,,,,,,,,,,,,,,,,,,,,,,,,,,,,,,,,,,,,,,,,,,,,,,,,,,,,,,,,,,,2,1.3097564000054263,246.915413300012,None,ScrollUp,정답입니다,246.915413300012,None,246.915413300012,None,246.915413300012,None,246.915413300012,None,248.1240184000053,None,248.1240184000053,248.62406689999625,,,,,,,,,,,,,,,,019,2022-05-13_15h58.12.709,FishGame,2022.1.1,60.00078000210939,
,3,넌 유능해,2,Orange,A,6.208333333333333,4.433333333333334,ScrollDown,ScrollUp,Orange.png,2,Positive,Congruent,0,0,0,0,,,,,,,,,,,,,,,,,0,2,2,2,,,,,,,,,,,,,,,,,,,,,,,,,,,,,,,,,,,,,,,,,,,,,,,,,,,,,,,,,,,,,,,,,,,,,,,,,,,,,,,,,1,1.2086172999988776,249.2508375000034,None,ScrollDown,정답입니다,249.2508375000034,None,249.2508375000034,None,249.2508375000034,None,249.2508375000034,None,250.35700670001097,None,250.35700670001097,250.8570752000087,,,,,,,,,,,,,,,,019,2022-05-13_15h58.12.709,FishGame,2022.1.1,60.00078000210939,
,4,넌 능숙해,2,Green,B,5.666666666666667,4.733333333333333,ScrollUp,ScrollDown,Green.png,2,Positive,Incongruent,0,0,0,0,,,,,,,,,,,,,,,,,0,3,3,3,,,,,,,,,,,,,,,,,,,,,,,,,,,,,,,,,,,,,,,,,,,,,,,,,,,,,,,,,,,,,,,,,,,,,,,,,,,,,,,,,2,1.261579999991227,251.47746560000814,None,ScrollUp,정답입니다,251.47746560000814,None,251.47746560000814,None,251.47746560000814,None,251.47746560000814,None,252.6434231000021,None,252.6434231000021,253.14343990001362,,,,,,,,,,,,,,,,019,2022-05-13_15h58.12.709,FishGame,2022.1.1,60.00078000210939,
,5,넌 진부해,4,Green,B,2.458333333333333,3.166666666666667,ScrollUp,ScrollDown,Green.png,2,Negative,Congruent,0,0,0,0,,,,,,,,,,,,,,,,,0,4,4,4,,,,,,,,,,,,,,,,,,,,,,,,,,,,,,,,,,,,,,,,,,,,,,,,,,,,,,,,,,,,,,,,,,,,,,,,,,,,,,,,,2,1.17698129999917,253.77319619999616,None,ScrollUp,정답입니다,253.77319619999616,None,253.77319619999616,None,253.77319619999616,None,253.77319619999616,None,254.84339210001053,None,254.84339210001053,255.34058469999582,,,,,,,,,,,,,,,,019,2022-05-13_15h58.12.709,FishGame,2022.1.1,60.00078000210939,
,6,나를 보내줘,6,Orange,A,0,0,ScrollUp,ScrollDown,Orange.png,2,NonTarget,NonTarget,0,0,0,0,,,,,,,,,,,,,,,,,0,5,5,5,,,,,,,,,,,,,,,,,,,,,,,,,,,,,,,,,,,,,,,,,,,,,,,,,,,,,,,,,,,,,,,,,,,,,,,,,,,,,,,,,2,1.7616686999972444,255.97742209999706,None,ScrollUp,정답입니다,255.97742209999706,None,255.97742209999706,None,255.97742209999706,None,255.97742209999706,None,257.64024840001366,None,257.64024840001366,258.14031779998913,,,,,,,,,,,,,,,,019,2022-05-13_15h58.12.709,FishGame,2022.1.1,60.00078000210939,
,7,넌 엄격해,3,Orange,A,4.166666666666666,4.1,ScrollDown,ScrollUp,Orange.png,2,Neutral,Neutral,0,0,0,0,,,,,,,,,,,,,,,,,0,6,6,6,,,,,,,,,,,,,,,,,,,,,,,,,,,,,,,,,,,,,,,,,,,,,,,,,,,,,,,,,,,,,,,,,,,,,,,,,,,,,,,,,1,1.2445718999952078,258.76388439998846,None,ScrollDown,정답입니다,258.76388439998846,None,258.76388439998846,None,258.76388439998846,None,258.76388439998846,None,259.9100499000051,None,259.9100499000051,260.40997889998835,,,,,,,,,,,,,,,,019,2022-05-13_15h58.12.709,FishGame,2022.1.1,60.00078000210939,
,8,나를 보내줘,6,Orange,A,0,0,ScrollUp,ScrollDown,Orange.png,2,NonTarget,NonTarget,0,0,0,0,,,,,,,,,,,,,,,,,0,7,7,7,,,,,,,,,,,,,,,,,,,,,,,,,,,,,,,,,,,,,,,,,,,,,,,,,,,,,,,,,,,,,,,,,,,,,,,,,,,,,,,,,1.9290123283863068,1.2600716000015382,261.04724789998727,None,ScrollUp,정답입니다,261.04724789998727,None,261.04724789998727,None,261.04724789998727,None,261.04724789998727,None,262.20699649999733,None,262.20699649999733,262.7070713000139,,,,,,,,,,,,,,,,019,2022-05-13_15h58.12.709,FishGame,2022.1.1,60.00078000210939,
,9,넌 대담해,3,Green,B,4.875,4.866666666666666,ScrollUp,ScrollDown,Green.png,2,Neutral,Neutral,0,0,0,0,,,,,,,,,,,,,,,,,0,8,8,8,,,,,,,,,,,,,,,,,,,,,,,,,,,,,,,,,,,,,,,,,,,,,,,,,,,,,,,,,,,,,,,,,,,,,,,,,,,,,,,,,2,1.2113712999853306,263.33721990001504,None,ScrollUp,정답입니다,263.33721990001504,None,263.33721990001504,None,263.33721990001504,None,263.33721990001504,None,264.4403115999885,None,264.4403115999885,264.9403542999935,,,,,,,,,,,,,,,,019,2022-05-13_15h58.12.709,FishGame,2022.1.1,60.00078000210939,
,10,넌 꾸준해,1,Orange,A,5.916666666666668,5.8,ScrollDown,ScrollUp,Orange.png,2,Positive,Congruent,0,0,0,0,,,,,,,,,,,,,,,,,0,9,9,9,,,,,,,,,,,,,,,,,,,,,,,,,,,,,,,,,,,,,,,,,,,,,,,,,,,,,,,,,,,,,,,,,,,,,,,,,,,,,,,,,1.0339506367842357,1.0781503999896813,265.5661829999881,None,ScrollDown,정답입니다,265.5661829999881,None,265.5661829999881,None,265.5661829999881,None,265.5661829999881,None,266.5403021000093,None,266.5403021000093,267.04034509998746,,,,,,,,,,,,,,,,019,2022-05-13_15h58.12.709,FishGame,2022.1.1,60.00078000210939,
,11,나를 데려가줘,6,Green,B,0,0,ScrollDown,ScrollUp,Green.png,2,NonTarget,NonTarget,0,0,0,0,,,,,,,,,,,,,,,,,0,10,10,10,,,,,,,,,,,,,,,,,,,,,,,,,,,,,,,,,,,,,,,,,,,,,,,,,,,,,,,,,,,,,,,,,,,,,,,,,,,,,,,,,1,1.2782791999925394,267.6667000000016,None,ScrollDown,정답입니다,267.6667000000016,None,267.6667000000016,None,267.6667000000016,None,267.6667000000016,None,268.8402795000002,None,268.8402795000002,269.34308260001126,,,,,,,,,,,,,,,,019,2022-05-13_15h58.12.709,FishGame,2022.1.1,60.00078000210939,
,12,넌 독선적이야,5,Orange,A,2.458333333333333,1.933333333333333,ScrollDown,ScrollUp,Orange.png,2,Negative,Incongruent,0,0,0,0,,,,,,,,,,,,,,,,,0,11,11,11,,,,,,,,,,,,,,,,,,,,,,,,,,,,,,,,,,,,,,,,,,,,,,,,,,,,,,,,,,,,,,,,,,,,,,,,,,,,,,,,,1,1.1754409999994095,269.9709038999863,None,ScrollDown,정답입니다,269.9709038999863,None,269.9709038999863,None,269.9709038999863,None,269.9709038999863,None,271.03991019999376,None,271.03991019999376,271.5399949999992,,,,,,,,,,,,,,,,019,2022-05-13_15h58.12.709,FishGame,2022.1.1,60.00078000210939,
,13,나를 보내줘,6,Orange,A,0,0,ScrollUp,ScrollDown,Orange.png,2,NonTarget,NonTarget,0,0,0,0,,,,,,,,,,,,,,,,,0,12,12,12,,,,,,,,,,,,,,,,,,,,,,,,,,,,,,,,,,,,,,,,,,,,,,,,,,,,,,,,,,,,,,,,,,,,,,,,,,,,,,,,,2,1.3616166999854613,272.1626571000088,None,ScrollUp,정답입니다,272.1626571000088,None,272.1626571000088,None,272.1626571000088,None,272.1626571000088,None,273.42642100001103,None,273.42642100001103,273.9402296000044,,,,,,,,,,,,,,,,019,2022-05-13_15h58.12.709,FishGame,2022.1.1,60.00078000210939,
,14,넌 책임감있어,1,Green,B,6.347826086956522,6,ScrollUp,ScrollDown,Green.png,2,Positive,Incongruent,0,0,0,0,,,,,,,,,,,,,,,,,0,13,13,13,,,,,,,,,,,,,,,,,,,,,,,,,,,,,,,,,,,,,,,,,,,,,,,,,,,,,,,,,,,,,,,,,,,,,,,,,,,,,,,,,2,2.128180700005032,274.55164759999025,None,ScrollUp,정답입니다,274.55164759999025,None,274.55164759999025,None,274.55164759999025,None,274.55164759999025,None,276.57347219999065,None,276.57347219999065,277.07345980001264,,,,,,,,,,,,,,,,019,2022-05-13_15h58.12.709,FishGame,2022.1.1,60.00078000210939,
,15,넌 문학적이야,3,Orange,A,4.708333333333334,4.333333333333333,ScrollDown,ScrollUp,Orange.png,2,Neutral,Neutral,0,0,0,0,,,,,,,,,,,,,,,,,0,14,14,14,,,,,,,,,,,,,,,,,,,,,,,,,,,,,,,,,,,,,,,,,,,,,,,,,,,,,,,,,,,,,,,,,,,,,,,,,,,,,,,,,1,1.1945462000148837,277.6994294000033,None,ScrollDown,정답입니다,277.6994294000033,None,277.6994294000033,None,277.6994294000033,None,277.6994294000033,None,278.789755100006,None,278.789755100006,279.2898914999969,,,,,,,,,,,,,,,,019,2022-05-13_15h58.12.709,FishGame,2022.1.1,60.00078000210939,
,16,넌 재미있어,1,Green,B,5.875,5.7,ScrollUp,ScrollDown,Green.png,2,Positive,Incongruent,0,0,0,0,,,,,,,,,,,,,,,,,0,15,15,15,,,,,,,,,,,,,,,,,,,,,,,,,,,,,,,,,,,,,,,,,,,,,,,,,,,,,,,,,,,,,,,,,,,,,,,,,,,,,,,,,2,1.4791285000101198,279.9056578000018,None,ScrollUp,정답입니다,279.9056578000018,None,279.9056578000018,None,279.9056578000018,None,279.9056578000018,None,281.29287320000003,None,281.29287320000003,281.79295339999953,,,,,,,,,,,,,,,,019,2022-05-13_15h58.12.709,FishGame,2022.1.1,60.00078000210939,
,17,나를 데려가줘,6,Green,B,0,0,ScrollDown,ScrollUp,Green.png,2,NonTarget,NonTarget,0,0,0,0,,,,,,,,,,,,,,,,,0,16,16,16,,,,,,,,,,,,,,,,,,,,,,,,,,,,,,,,,,,,,,,,,,,,,,,,,,,,,,,,,,,,,,,,,,,,,,,,,,,,,,,,,1,1.3767626000044402,282.4122206000029,None,ScrollDown,정답입니다,282.4122206000029,None,282.4122206000029,None,282.4122206000029,None,282.4122206000029,None,283.689664000005,None,283.689664000005,284.1897028000094,,,,,,,,,,,,,,,,019,2022-05-13_15h58.12.709,FishGame,2022.1.1,60.00078000210939,
,18,넌 협력적이야,1,Orange,A,5.625,5.633333333333334,ScrollDown,ScrollUp,Orange.png,2,Positive,Congruent,0,0,0,0,,,,,,,,,,,,,,,,,0,17,17,17,,,,,,,,,,,,,,,,,,,,,,,,,,,,,,,,,,,,,,,,,,,,,,,,,,,,,,,,,,,,,,,,,,,,,,,,,,,,,,,,,1,1.294856799999252,284.81115610001143,None,ScrollDown,정답입니다,284.81115610001143,None,284.81115610001143,None,284.81115610001143,None,284.81115610001143,None,286.0063380000065,None,286.0063380000065,286.5094831000024,,,,,,,,,,,,,,,,019,2022-05-13_15h58.12.709,FishGame,2022.1.1,60.00078000210939,
,19,넌 평범해,3,Green,B,4.333333333333332,4.233333333333333,ScrollUp,ScrollDown,Green.png,2,Neutral,Neutral,0,0,0,0,,,,,,,,,,,,,,,,,0,18,18,18,,,,,,,,,,,,,,,,,,,,,,,,,,,,,,,,,,,,,,,,,,,,,,,,,,,,,,,,,,,,,,,,,,,,,,,,,,,,,,,,,2,1.2449003999936394,287.1301327999972,None,ScrollUp,정답입니다,287.1301327999972,None,287.1301327999972,None,287.1301327999972,None,287.1301327999972,None,288.2732076999964,None,288.2732076999964,288.77608149999287,,,,,,,,,,,,,,,,019,2022-05-13_15h58.12.709,FishGame,2022.1.1,60.00078000210939,
,20,넌 오만해,5,Orange,A,2.333333333333333,2,ScrollDown,ScrollUp,Orange.png,2,Negative,Incongruent,0,0,0,0,,,,,,,,,,,,,,,,,0,19,19,19,,,,,,,,,,,,,,,,,,,,,,,,,,,,,,,,,,,,,,,,,,,,,,,,,,,,,,,,,,,,,,,,,,,,,,,,,,,,,,,,,1,1.2105714000063017,289.4013784000126,None,ScrollDown,정답입니다,289.4013784000126,None,289.4013784000126,None,289.4013784000126,None,289.4013784000126,None,290.5064329000015,None,290.5064329000015,291.0065186000138,,,,,,,,,,,,,,,,019,2022-05-13_15h58.12.709,FishGame,2022.1.1,60.00078000210939,
,21,넌 운이없어,4,Green,B,3,3.466666666666667,ScrollUp,ScrollDown,Green.png,2,Negative,Congruent,0,0,0,0,,,,,,,,,,,,,,,,,0,20,20,20,,,,,,,,,,,,,,,,,,,,,,,,,,,,,,,,,,,,,,,,,,,,,,,,,,,,,,,,,,,,,,,,,,,,,,,,,,,,,,,,,2,1.4277618000051007,291.6298027999874,None,ScrollUp,정답입니다,291.6298027999874,None,291.6298027999874,None,291.6298027999874,None,291.6298027999874,None,292.95641429998796,None,292.95641429998796,293.4564690999978,,,,,,,,,,,,,,,,019,2022-05-13_15h58.12.709,FishGame,2022.1.1,60.00078000210939,
,22,넌 창조적이야,2,Green,B,6.125,4.633333333333334,ScrollUp,ScrollDown,Green.png,2,Positive,Incongruent,0,0,0,0,,,,,,,,,,,,,,,,,0,21,21,21,,,,,,,,,,,,,,,,,,,,,,,,,,,,,,,,,,,,,,,,,,,,,,,,,,,,,,,,,,,,,,,,,,,,,,,,,,,,,,,,,2,1.3111350000253879,294.08321630000137,None,ScrollUp,정답입니다,294.08321630000137,None,294.08321630000137,None,294.08321630000137,None,294.08321630000137,None,295.28970190000837,None,295.28970190000837,295.7925211999973,,,,,,,,,,,,,,,,019,2022-05-13_15h58.12.709,FishGame,2022.1.1,60.00078000210939,
,23,나를 보내줘,6,Orange,A,0,0,ScrollUp,ScrollDown,Orange.png,2,NonTarget,NonTarget,0,0,0,0,,,,,,,,,,,,,,,,,0,22,22,22,,,,,,,,,,,,,,,,,,,,,,,,,,,,,,,,,,,,,,,,,,,,,,,,,,,,,,,,,,,,,,,,,,,,,,,,,,,,,,,,,2,1.4286915000120644,296.4107911000028,None,ScrollUp,정답입니다,296.4107911000028,None,296.4107911000028,None,296.4107911000028,None,296.4107911000028,None,297.7397037000046,None,297.7397037000046,298.2393676000065,,,,,,,,,,,,,,,,019,2022-05-13_15h58.12.709,FishGame,2022.1.1,60.00078000210939,
,24,넌 통찰력있어,2,Orange,A,6.5,4.8,ScrollDown,ScrollUp,Orange.png,2,Positive,Congruent,0,0,0,0,,,,,,,,,,,,,,,,,0,23,23,23,,,,,,,,,,,,,,,,,,,,,,,,,,,,,,,,,,,,,,,,,,,,,,,,,,,,,,,,,,,,,,,,,,,,,,,,,,,,,,,,,1,1.1942921000008937,298.86191559999133,None,ScrollDown,정답입니다,298.86191559999133,None,298.86191559999133,None,298.86191559999133,None,298.86191559999133,None,299.95600840001134,None,299.95600840001134,300.4561204999918,,,,,,,,,,,,,,,,019,2022-05-13_15h58.12.709,FishGame,2022.1.1,60.00078000210939,
,25,넌 경솔해,5,Green,B,2.458333333333333,2.266666666666667,ScrollUp,ScrollDown,Green.png,2,Negative,Congruent,0,0,0,0,,,,,,,,,,,,,,,,,0,24,24,24,,,,,,,,,,,,,,,,,,,,,,,,,,,,,,,,,,,,,,,,,,,,,,,,,,,,,,,,,,,,,,,,,,,,,,,,,,,,,,,,,2,1.2769187999947462,301.0804737000144,None,ScrollUp,정답입니다,301.0804737000144,None,301.0804737000144,None,301.0804737000144,None,301.0804737000144,None,302.25911509999423,None,302.25911509999423,302.7759062999976,,,,,,,,,,,,,,,,019,2022-05-13_15h58.12.709,FishGame,2022.1.1,60.00078000210939,
,26,넌 초조해,4,Orange,A,2.916666666666667,3.133333333333333,ScrollDown,ScrollUp,Orange.png,2,Negative,Incongruent,0,0,0,0,,,,,,,,,,,,,,,,,0,25,25,25,,,,,,,,,,,,,,,,,,,,,,,,,,,,,,,,,,,,,,,,,,,,,,,,,,,,,,,,,,,,,,,,,,,,,,,,,,,,,,,,,1,1.1934927999973297,303.3798827000137,None,ScrollDown,정답입니다,303.3798827000137,None,303.3798827000137,None,303.3798827000137,None,303.3798827000137,None,304.4728085999959,None,304.4728085999959,304.9728133000026,,,,,,,,,,,,,,,,019,2022-05-13_15h58.12.709,FishGame,2022.1.1,60.00078000210939,
,27,넌 무관심해,4,Green,B,2.833333333333333,2.9,ScrollUp,ScrollDown,Green.png,2,Negative,Congruent,0,0,0,0,,,,,,,,,,,,,,,,,0,26,26,26,,,,,,,,,,,,,,,,,,,,,,,,,,,,,,,,,,,,,,,,,,,,,,,,,,,,,,,,,,,,,,,,,,,,,,,,,,,,,,,,,2,1.26133559999289,305.59440130001167,None,ScrollUp,정답입니다,305.59440130001167,None,305.59440130001167,None,305.59440130001167,None,305.59440130001167,None,306.75611819999176,None,306.75611819999176,307.2561565999931,,,,,,,,,,,,,,,,019,2022-05-13_15h58.12.709,FishGame,2022.1.1,60.00078000210939,
,28,넌 감성적이야,3,Green,B,4.125,4.166666666666667,ScrollUp,ScrollDown,Green.png,2,Neutral,Neutral,0,0,0,0,,,,,,,,,,,,,,,,,0,27,27,27,,,,,,,,,,,,,,,,,,,,,,,,,,,,,,,,,,,,,,,,,,,,,,,,,,,,,,,,,,,,,,,,,,,,,,,,,,,,,,,,,2,1.3277492999914102,307.8771313999896,None,ScrollUp,정답입니다,307.8771313999896,None,307.8771313999896,None,307.8771313999896,None,307.8771313999896,None,309.1089028000133,None,309.1089028000133,309.6228177000012,,,,,,,,,,,,,,,,019,2022-05-13_15h58.12.709,FishGame,2022.1.1,60.00078000210939,
,29,넌 배려심있어,1,Orange,A,6.083333333333333,5.5,ScrollDown,ScrollUp,Orange.png,2,Positive,Congruent,0,0,0,0,,,,,,,,,,,,,,,,,0,28,28,28,,,,,,,,,,,,,,,,,,,,,,,,,,,,,,,,,,,,,,,,,,,,,,,,,,,,,,,,,,,,,,,,,,,,,,,,,,,,,,,,,1,1.2089058000128716,310.23534330000984,None,ScrollDown,정답입니다,310.23534330000984,None,310.23534330000984,None,310.23534330000984,None,310.23534330000984,None,311.33939139998984,None,311.33939139998984,311.8394558999862,,,,,,,,,,,,,,,,019,2022-05-13_15h58.12.709,FishGame,2022.1.1,60.00078000210939,
,30,넌 숨김없어,3,Orange,A,4.5,4.933333333333334,ScrollDown,ScrollUp,Orange.png,2,Neutral,Neutral,0,0,0,0,,,,,,,,,,,,,,,,,0,29,29,29,,,,,,,,,,,,,,,,,,,,,,,,,,,,,,,,,,,,,,,,,,,,,,,,,,,,,,,,,,,,,,,,,,,,,,,,,,,,,,,,,1,1.24608770001214,312.4686775000009,None,ScrollDown,정답입니다,312.4686775000009,None,312.4686775000009,None,312.4686775000009,None,312.4686775000009,None,313.6057337000093,None,313.6057337000093,314.1057983000064,,,,,,,,,,,,,,,,019,2022-05-13_15h58.12.709,FishGame,2022.1.1,60.00078000210939,
,31,넌 훌륭해,2,Green,B,5.916666666666667,4.033333333333333,ScrollUp,ScrollDown,Green.png,2,Positive,Incongruent,0,0,0,0,,,,,,,,,,,,,,,,,0,30,30,30,,,,,,,,,,,,,,,,,,,,,,,,,,,,,,,,,,,,,,,,,,,,,,,,,,,,,,,,,,,,,,,,,,,,,,,,,,,,,,,,,2,1.2447012000193354,314.73202250001486,None,ScrollUp,정답입니다,314.73202250001486,None,314.73202250001486,None,314.73202250001486,None,314.73202250001486,None,315.87549529998796,None,315.87549529998796,316.3726975999889,,,,,,,,,,,,,,,,019,2022-05-13_15h58.12.709,FishGame,2022.1.1,60.00078000210939,
,32,넌 슬기로워,2,Orange,A,6.166666666666667,4.1,ScrollDown,ScrollUp,Orange.png,2,Positive,Congruent,0,0,0,0,,,,,,,,,,,,,,,,,0,31,31,31,,,,,,,,,,,,,,,,,,,,,,,,,,,,,,,,,,,,,,,,,,,,,,,,,,,,,,,,,,,,,,,,,,,,,,,,,,,,,,,,,1,1.4627845000068191,316.9981512000086,None,ScrollDown,정답입니다,316.9981512000086,None,316.9981512000086,None,316.9981512000086,None,316.9981512000086,None,318.3559678999882,None,318.3559678999882,318.85893300001044,,,,,,,,,,,,,,,,019,2022-05-13_15h58.12.709,FishGame,2022.1.1,60.00078000210939,
,33,넌 냉혹해,5,Orange,A,2.583333333333333,2.1,ScrollDown,ScrollUp,Orange.png,2,Negative,Incongruent,0,0,0,0,,,,,,,,,,,,,,,,,0,32,32,32,,,,,,,,,,,,,,,,,,,,,,,,,,,,,,,,,,,,,,,,,,,,,,,,,,,,,,,,,,,,,,,,,,,,,,,,,,,,,,,,,1,1.5111529999994673,319.4770473999961,None,ScrollDown,정답입니다,319.4770473999961,None,319.4770473999961,None,319.4770473999961,None,319.4770473999961,None,320.88890819999506,None,320.88890819999506,321.38900729999295,,,,,,,,,,,,,,,,019,2022-05-13_15h58.12.709,FishGame,2022.1.1,60.00078000210939,
,34,나를 데려가줘,6,Green,B,0,0,ScrollDown,ScrollUp,Green.png,2,NonTarget,NonTarget,0,0,0,0,,,,,,,,,,,,,,,,,0,33,33,33,,,,,,,,,,,,,,,,,,,,,,,,,,,,,,,,,,,,,,,,,,,,,,,,,,,,,,,,,,,,,,,,,,,,,,,,,,,,,,,,,1,1.5316869000089355,322.0119410000043,None,ScrollDown,정답입니다,322.0119410000043,None,322.0119410000043,None,322.0119410000043,None,322.0119410000043,None,323.43916919999174,None,323.43916919999174,323.9419953000033,,,,,,,,,,,,,,,,019,2022-05-13_15h58.12.709,FishGame,2022.1.1,60.00078000210939,
,35,넌 편파적이야,5,Green,B,2.125,2,ScrollUp,ScrollDown,Green.png,2,Negative,Congruent,0,0,0,0,,,,,,,,,,,,,,,,,0,34,34,34,,,,,,,,,,,,,,,,,,,,,,,,,,,,,,,,,,,,,,,,,,,,,,,,,,,,,,,,,,,,,,,,,,,,,,,,,,,,,,,,,1.9907407363255818,1.1418439999979455,324.5623923999956,None,ScrollUp,정답입니다,324.5623923999956,None,324.5623923999956,None,324.5623923999956,None,324.5623923999956,None,325.60581169999205,None,325.60581169999205,326.10581320000347,,,,,,,,,,,,,,,,019,2022-05-13_15h58.12.709,FishGame,2022.1.1,60.00078000210939,
,36,넌 슬퍼,4,Orange,A,2.583333333333333,3.066666666666667,ScrollDown,ScrollUp,Orange.png,2,Negative,Incongruent,0,0,0,0,,,,,,,,,,,,,,,,,0,35,35,35,,,,,,,,,,,,,,,,,,,,,,,,,,,,,,,,,,,,,,,,,,,,,,,,,,,,,,,,,,,,,,,,,,,,,,,,,,,,,,,,,1,1.2110724999802187,326.72850150000886,None,ScrollDown,정답입니다,326.72850150000886,None,326.72850150000886,None,326.72850150000886,None,326.72850150000886,None,327.8391389999888,None,327.8391389999888,328.3390698999865,,,,,,,,,,,,,,,,019,2022-05-13_15h58.12.709,FishGame,2022.1.1,60.00078000210939,
,37,나를 데려가줘,6,Green,B,0,0,ScrollDown,ScrollUp,Green.png,2,NonTarget,NonTarget,0,0,0,0,,,,,,,,,,,,,,,,,0,36,36,36,,,,,,,,,,,,,,,,,,,,,,,,,,,,,,,,,,,,,,,,,,,,,,,,,,,,,,,,,,,,,,,,,,,,,,,,,,,,,,,,,1,1.4111087000055704,328.9587965999963,None,ScrollDown,정답입니다,328.9587965999963,None,328.9587965999963,None,328.9587965999963,None,328.9587965999963,None,330.27231040000333,None,330.27231040000333,330.77517889998853,,,,,,,,,,,,,,,,019,2022-05-13_15h58.12.709,FishGame,2022.1.1,60.00078000210939,
,38,넌 친절해,1,Green,B,6.041666666666667,5.533333333333333,ScrollUp,ScrollDown,Green.png,2,Positive,Incongruent,0,0,0,0,,,,,,,,,,,,,,,,,0,37,37,37,,,,,,,,,,,,,,,,,,,,,,,,,,,,,,,,,,,,,,,,,,,,,,,,,,,,,,,,,,,,,,,,,,,,,,,,,,,,,,,,,1.9552469154198964,1.0917372000112664,331.3998042999883,None,ScrollUp,정답입니다,331.3998042999883,None,331.3998042999883,None,331.3998042999883,None,331.3998042999883,None,332.38896280000336,None,332.38896280000336,332.8888669000007,,,,,,,,,,,,,,,,019,2022-05-13_15h58.12.709,FishGame,2022.1.1,60.00078000210939,
,1,넌 엉성해,4,Orange,A,3,3.3,ScrollDown,ScrollUp,Orange.png,3,Negative,Incongruent,0,0,0,0,,,,,,,,,,,,,,,,,,,,,0,0,0,0,,,,,,,,,,,,,,,,,,,,,,,,,,,,,,,,,,,,366.83800670001074,368.3416527000081,368.35794720001286,369.31208050000714,369.3790519000031,370.3412151999946,370.3215671000071,None,,,,,,,,,,,,,,,,,,,,,,,,,,,,,,,,,,1,1.34791129999212,371.43061700000544,None,ScrollDown,정답입니다,371.43061700000544,None,371.43061700000544,None,371.43061700000544,None,371.43061700000544,None,372.6714500999951,None,372.6714500999951,373.17150440000114,333.39175340000656,None,333.39175340000656,None,0.02962963,-0.094444446,1,0,0,0.0162587100348901,None,363.3912379000103,None,,,019,2022-05-13_15h58.12.709,FishGame,2022.1.1,60.00078000210939,
,2,나를 보내줘,6,Orange,A,0,0,ScrollUp,ScrollDown,Orange.png,3,NonTarget,NonTarget,0,0,0,0,,,,,,,,,,,,,,,,,,,,,0,1,1,1,,,,,,,,,,,,,,,,,,,,,,,,,,,,,,,,,,,,,,,,,,,,,,,,,,,,,,,,,,,,,,,,,,,,,,,,,,,,,2,1.2599973999895155,373.7962875000085,None,ScrollUp,정답입니다,373.7962875000085,None,373.7962875000085,None,373.7962875000085,None,373.7962875000085,None,374.95478540001204,None,374.95478540001204,375.4548279999872,,,,,,,,,,,,,,,,019,2022-05-13_15h58.12.709,FishGame,2022.1.1,60.00078000210939,
,3,넌 활발해,1,Green,B,5.666666666666667,5.6,ScrollUp,ScrollDown,Green.png,3,Positive,Incongruent,0,0,0,0,,,,,,,,,,,,,,,,,,,,,0,2,2,2,,,,,,,,,,,,,,,,,,,,,,,,,,,,,,,,,,,,,,,,,,,,,,,,,,,,,,,,,,,,,,,,,,,,,,,,,,,,,2,1.2276549999951385,376.0788901000051,None,ScrollUp,정답입니다,376.0788901000051,None,376.0788901000051,None,376.0788901000051,None,376.0788901000051,None,377.2047561999934,None,377.2047561999934,377.70450469999923,,,,,,,,,,,,,,,,019,2022-05-13_15h58.12.709,FishGame,2022.1.1,60.00078000210939,
,4,넌 논리적이야,2,Orange,A,5.666666666666666,4.633333333333334,ScrollDown,ScrollUp,Orange.png,3,Positive,Congruent,0,0,0,0,,,,,,,,,,,,,,,,,,,,,0,3,3,3,,,,,,,,,,,,,,,,,,,,,,,,,,,,,,,,,,,,,,,,,,,,,,,,,,,,,,,,,,,,,,,,,,,,,,,,,,,,,1,1.1786985000071581,378.3217403999879,None,ScrollDown,정답입니다,378.3217403999879,None,378.3217403999879,None,378.3217403999879,None,378.3217403999879,None,379.4043905000144,None,379.4043905000144,379.9045119000075,,,,,,,,,,,,,,,,019,2022-05-13_15h58.12.709,FishGame,2022.1.1,60.00078000210939,
,5,넌 과묵해,3,Orange,A,3.875,4.4,ScrollDown,ScrollUp,Orange.png,3,Neutral,Neutral,0,0,0,0,,,,,,,,,,,,,,,,,,,,,0,4,4,4,,,,,,,,,,,,,,,,,,,,,,,,,,,,,,,,,,,,,,,,,,,,,,,,,,,,,,,,,,,,,,,,,,,,,,,,,,,,,1,1.2767557999759447,380.5328942000051,None,ScrollDown,정답입니다,380.5328942000051,None,380.5328942000051,None,380.5328942000051,None,380.5328942000051,None,381.70466069999384,None,381.70466069999384,382.2046677999897,,,,,,,,,,,,,,,,019,2022-05-13_15h58.12.709,FishGame,2022.1.1,60.00078000210939,
,6,나를 데려가줘,6,Green,B,0,0,ScrollDown,ScrollUp,Green.png,3,NonTarget,NonTarget,0,0,0,0,,,,,,,,,,,,,,,,,,,,,0,5,5,5,,,,,,,,,,,,,,,,,,,,,,,,,,,,,,,,,,,,,,,,,,,,,,,,,,,,,,,,,,,,,,,,,,,,,,,,,,,,,1,1.3786080999998376,382.82007119999616,None,ScrollDown,정답입니다,382.82007119999616,None,382.82007119999616,None,382.82007119999616,None,382.82007119999616,None,384.10429610000574,None,384.10429610000574,384.6043712999963,,,,,,,,,,,,,,,,019,2022-05-13_15h58.12.709,FishGame,2022.1.1,60.00078000210939,
,7,넌 미숙해,4,Green,B,3,3,ScrollUp,ScrollDown,Green.png,3,Negative,Congruent,0,0,0,0,,,,,,,,,,,,,,,,,,,,,0,6,6,6,,,,,,,,,,,,,,,,,,,,,,,,,,,,,,,,,,,,,,,,,,,,,,,,,,,,,,,,,,,,,,,,,,,,,,,,,,,,,2,1.2790434999915306,385.21832580000046,None,ScrollUp,정답입니다,385.21832580000046,None,385.21832580000046,None,385.21832580000046,None,385.21832580000046,None,386.40461080000387,None,386.40461080000387,386.9074578,,,,,,,,,,,,,,,,019,2022-05-13_15h58.12.709,FishGame,2022.1.1,60.00078000210939,
,8,나를 보내줘,6,Orange,A,0,0,ScrollUp,ScrollDown,Orange.png,3,NonTarget,NonTarget,0,0,0,0,,,,,,,,,,,,,,,,,,,,,0,7,7,7,,,,,,,,,,,,,,,,,,,,,,,,,,,,,,,,,,,,,,,,,,,,,,,,,,,,,,,,,,,,,,,,,,,,,,,,,,,,,2,1.2267524000199046,387.52758190000895,None,ScrollUp,정답입니다,387.52758190000895,None,387.52758190000895,None,387.52758190000895,None,387.52758190000895,None,388.6545372999972,None,388.6545372999972,389.16194210000685,,,,,,,,,,,,,,,,019,2022-05-13_15h58.12.709,FishGame,2022.1.1,60.00078000210939,
,9,넌 자신만만해,3,Green,B,4.833333333333334,4.333333333333333,ScrollUp,ScrollDown,Green.png,3,Neutral,Neutral,0,0,0,0,,,,,,,,,,,,,,,,,,,,,0,8,8,8,,,,,,,,,,,,,,,,,,,,,,,,,,,,,,,,,,,,,,,,,,,,,,,,,,,,,,,,,,,,,,,,,,,,,,,,,,,,,2,1.2114450999943074,389.77298919999157,None,ScrollUp,정답입니다,389.77298919999157,None,389.77298919999157,None,389.77298919999157,None,389.77298919999157,None,390.8874799000041,None,390.8874799000041,391.38761279999744,,,,,,,,,,,,,,,,019,2022-05-13_15h58.12.709,FishGame,2022.1.1,60.00078000210939,
,10,넌 탐욕스러워,5,Orange,A,2.25,2.1,ScrollDown,ScrollUp,Orange.png,3,Negative,Incongruent,0,0,0,0,,,,,,,,,,,,,,,,,,,,,0,9,9,9,,,,,,,,,,,,,,,,,,,,,,,,,,,,,,,,,,,,,,,,,,,,,,,,,,,,,,,,,,,,,,,,,,,,,,,,,,,,,1,1.2282463999872562,392.0162389999896,None,ScrollDown,정답입니다,392.0162389999896,None,392.0162389999896,None,392.0162389999896,None,392.0162389999896,None,393.1377763999917,None,393.1377763999917,393.64052270000684,,,,,,,,,,,,,,,,019,2022-05-13_15h58.12.709,FishGame,2022.1.1,60.00078000210939,
,11,넌 인기있어,2,Orange,A,5.458333333333333,4.5,ScrollDown,ScrollUp,Orange.png,3,Positive,Congruent,0,0,0,0,,,,,,,,,,,,,,,,,,,,,0,10,10,10,,,,,,,,,,,,,,,,,,,,,,,,,,,,,,,,,,,,,,,,,,,,,,,,,,,,,,,,,,,,,,,,,,,,,,,,,,,,,1,1.2762262000178453,394.2594364999968,None,ScrollDown,정답입니다,394.2594364999968,None,394.2594364999968,None,394.2594364999968,None,394.2594364999968,None,395.4373692999943,None,395.4373692999943,395.9374658000015,,,,,,,,,,,,,,,,019,2022-05-13_15h58.12.709,FishGame,2022.1.1,60.00078000210939,
,12,나를 데려가줘,6,Green,B,0,0,ScrollDown,ScrollUp,Green.png,3,NonTarget,NonTarget,0,0,0,0,,,,,,,,,,,,,,,,,,,,,0,11,11,11,,,,,,,,,,,,,,,,,,,,,,,,,,,,,,,,,,,,,,,,,,,,,,,,,,,,,,,,,,,,,,,,,,,,,,,,,,,,,1,1.2281100999971386,396.5553532000049,None,ScrollDown,정답입니다,396.5553532000049,None,396.5553532000049,None,396.5553532000049,None,396.5553532000049,None,397.68736690000514,None,397.68736690000514,398.19062370000756,,,,,,,,,,,,,,,,019,2022-05-13_15h58.12.709,FishGame,2022.1.1,60.00078000210939,
,13,넌 뛰어나,2,Green,B,6.166666666666667,4,ScrollUp,ScrollDown,Green.png,3,Positive,Incongruent,0,0,0,0,,,,,,,,,,,,,,,,,,,,,0,12,12,12,,,,,,,,,,,,,,,,,,,,,,,,,,,,,,,,,,,,,,,,,,,,,,,,,,,,,,,,,,,,,,,,,,,,,,,,,,,,,2,1.2267245999828447,398.8089162000106,None,ScrollUp,정답입니다,398.8089162000106,None,398.8089162000106,None,398.8089162000106,None,398.8089162000106,None,399.937614399998,None,399.937614399998,400.43767039998784,,,,,,,,,,,,,,,,019,2022-05-13_15h58.12.709,FishGame,2022.1.1,60.00078000210939,
,14,넌 낙관적이야,1,Orange,A,5.75,5.8,ScrollDown,ScrollUp,Orange.png,3,Positive,Congruent,0,0,0,0,,,,,,,,,,,,,,,,,,,,,0,13,13,13,,,,,,,,,,,,,,,,,,,,,,,,,,,,,,,,,,,,,,,,,,,,,,,,,,,,,,,,,,,,,,,,,,,,,,,,,,,,,1,1.2763321999809705,401.0602598999976,None,ScrollDown,정답입니다,401.0602598999976,None,401.0602598999976,None,401.0602598999976,None,401.0602598999976,None,402.23726329999045,None,402.23726329999045,402.7373329999973,,,,,,,,,,,,,,,,019,2022-05-13_15h58.12.709,FishGame,2022.1.1,60.00078000210939,
,15,넌 산만해,4,Green,B,2.695652173913043,3.033333333333333,ScrollUp,ScrollDown,Green.png,3,Negative,Congruent,0,0,0,0,,,,,,,,,,,,,,,,,,,,,0,14,14,14,,,,,,,,,,,,,,,,,,,,,,,,,,,,,,,,,,,,,,,,,,,,,,,,,,,,,,,,,,,,,,,,,,,,,,,,,,,,,2,1.5450251000002027,403.35713590000523,None,ScrollUp,정답입니다,403.35713590000523,None,403.35713590000523,None,403.35713590000523,None,403.35713590000523,None,404.8070582000073,None,404.8070582000073,405.32383959999424,,,,,,,,,,,,,,,,019,2022-05-13_15h58.12.709,FishGame,2022.1.1,60.00078000210939,
,16,나를 보내줘,6,Orange,A,0,0,ScrollUp,ScrollDown,Orange.png,3,NonTarget,NonTarget,0,0,0,0,,,,,,,,,,,,,,,,,,,,,0,15,15,15,,,,,,,,,,,,,,,,,,,,,,,,,,,,,,,,,,,,,,,,,,,,,,,,,,,,,,,,,,,,,,,,,,,,,,,,,,,,,2,1.261071599990828,405.9242755000014,None,ScrollUp,정답입니다,405.9242755000014,None,405.9242755000014,None,405.9242755000014,None,405.9242755000014,None,407.0874894000008,None,407.0874894000008,407.59025519998977,,,,,,,,,,,,,,,,019,2022-05-13_15h58.12.709,FishGame,2022.1.1,60.00078000210939,
,17,넌 교활해,5,Green,B,2.333333333333333,2.133333333333333,ScrollUp,ScrollDown,Green.png,3,Negative,Congruent,0,0,0,0,,,,,,,,,,,,,,,,,,,,,0,16,16,16,,,,,,,,,,,,,,,,,,,,,,,,,,,,,,,,,,,,,,,,,,,,,,,,,,,,,,,,,,,,,,,,,,,,,,,,,,,,,2,1.3447998999909032,408.2086616999877,None,ScrollUp,정답입니다,408.2086616999877,None,408.2086616999877,None,408.2086616999877,None,408.2086616999877,None,409.4537791000039,None,409.4537791000039,409.95390779999434,,,,,,,,,,,,,,,,019,2022-05-13_15h58.12.709,FishGame,2022.1.1,60.00078000210939,
,18,나를 보내줘,6,Orange,A,0,0,ScrollUp,ScrollDown,Orange.png,3,NonTarget,NonTarget,0,0,0,0,,,,,,,,,,,,,,,,,,,,,0,17,17,17,,,,,,,,,,,,,,,,,,,,,,,,,,,,,,,,,,,,,,,,,,,,,,,,,,,,,,,,,,,,,,,,,,,,,,,,,,,,,1.9737654328346252,1.261798000021372,410.5730235000083,None,ScrollUp,정답입니다,410.5730235000083,None,410.5730235000083,None,410.5730235000083,None,410.5730235000083,None,411.7401511000062,None,411.7401511000062,412.25702889999957,,,,,,,,,,,,,,,,019,2022-05-13_15h58.12.709,FishGame,2022.1.1,60.00078000210939,
,19,넌 불친절해,5,Green,B,2.208333333333333,2.033333333333333,ScrollUp,ScrollDown,Green.png,3,Negative,Congruent,0,0,0,0,,,,,,,,,,,,,,,,,,,,,0,18,18,18,,,,,,,,,,,,,,,,,,,,,,,,,,,,,,,,,,,,,,,,,,,,,,,,,,,,,,,,,,,,,,,,,,,,,,,,,,,,,2,1.3268928999896161,412.86715710000135,None,ScrollUp,정답입니다,412.86715710000135,None,412.86715710000135,None,412.86715710000135,None,412.86715710000135,None,414.0901179999928,None,414.0901179999928,414.59474100000807,,,,,,,,,,,,,,,,019,2022-05-13_15h58.12.709,FishGame,2022.1.1,60.00078000210939,
,20,넌 지적이야,2,Green,B,5.75,4.366666666666666,ScrollUp,ScrollDown,Green.png,3,Positive,Incongruent,0,0,0,0,,,,,,,,,,,,,,,,,,,,,0,19,19,19,,,,,,,,,,,,,,,,,,,,,,,,,,,,,,,,,,,,,,,,,,,,,,,,,,,,,,,,,,,,,,,,,,,,,,,,,,,,,2,1.3117608000175096,415.21762440001476,None,ScrollUp,정답입니다,415.21762440001476,None,415.21762440001476,None,415.21762440001476,None,415.21762440001476,None,416.4369688000006,None,416.4369688000006,416.9370979999949,,,,,,,,,,,,,,,,019,2022-05-13_15h58.12.709,FishGame,2022.1.1,60.00078000210939,
,21,넌 우유부단해,4,Orange,A,2.666666666666667,3.166666666666667,ScrollDown,ScrollUp,Orange.png,3,Negative,Incongruent,0,0,0,0,,,,,,,,,,,,,,,,,,,,,0,20,20,20,,,,,,,,,,,,,,,,,,,,,,,,,,,,,,,,,,,,,,,,,,,,,,,,,,,,,,,,,,,,,,,,,,,,,,,,,,,,,1,1.378086600016104,417.5613970000122,None,ScrollDown,정답입니다,417.5613970000122,None,417.5613970000122,None,417.5613970000122,None,417.5613970000122,None,418.84011399999144,None,418.84011399999144,419.3402150000038,,,,,,,,,,,,,,,,019,2022-05-13_15h58.12.709,FishGame,2022.1.1,60.00078000210939,
,22,나를 데려가줘,6,Green,B,0,0,ScrollDown,ScrollUp,Green.png,3,NonTarget,NonTarget,0,0,0,0,,,,,,,,,,,,,,,,,,,,,0,21,21,21,,,,,,,,,,,,,,,,,,,,,,,,,,,,,,,,,,,,,,,,,,,,,,,,,,,,,,,,,,,,,,,,,,,,,,,,,,,,,1,1.3936930999916513,419.9572150000022,None,ScrollDown,정답입니다,419.9572150000022,None,419.9572150000022,None,419.9572150000022,None,419.9572150000022,None,421.25377310000476,None,421.25377310000476,421.7538629999908,,,,,,,,,,,,,,,,019,2022-05-13_15h58.12.709,FishGame,2022.1.1,60.00078000210939,
,23,넌 성실해,1,Green,B,6.041666666666666,5.7,ScrollUp,ScrollDown,Green.png,3,Positive,Incongruent,0,0,0,0,,,,,,,,,,,,,,,,,,,,,0,22,22,22,,,,,,,,,,,,,,,,,,,,,,,,,,,,,,,,,,,,,,,,,,,,,,,,,,,,,,,,,,,,,,,,,,,,,,,,,,,,,1.9228395223617554,1.2278287000081036,422.37605369999073,None,ScrollUp,정답입니다,422.37605369999073,None,422.37605369999073,None,422.37605369999073,None,422.37605369999073,None,423.50383699999657,None,423.50383699999657,424.00682089998736,,,,,,,,,,,,,,,,019,2022-05-13_15h58.12.709,FishGame,2022.1.1,60.00078000210939,
,24,넌 현실주의적이야,3,Orange,A,4.625,4.4,ScrollDown,ScrollUp,Orange.png,3,Neutral,Neutral,0,0,0,0,,,,,,,,,,,,,,,,,,,,,0,23,23,23,,,,,,,,,,,,,,,,,,,,,,,,,,,,,,,,,,,,,,,,,,,,,,,,,,,,,,,,,,,,,,,,,,,,,,,,,,,,,1,1.2281234999827575,424.6237446999876,None,ScrollDown,정답입니다,424.6237446999876,None,424.6237446999876,None,424.6237446999876,None,424.6237446999876,None,425.7537205000117,None,425.7537205000117,426.2566802999936,,,,,,,,,,,,,,,,019,2022-05-13_15h58.12.709,FishGame,2022.1.1,60.00078000210939,
,25,넌 진실돼,1,Orange,A,6.625,5.566666666666666,ScrollDown,ScrollUp,Orange.png,3,Positive,Congruent,0,0,0,0,,,,,,,,,,,,,,,,,,,,,0,24,24,24,,,,,,,,,,,,,,,,,,,,,,,,,,,,,,,,,,,,,,,,,,,,,,,,,,,,,,,,,,,,,,,,,,,,,,,,,,,,,1,1.2450304999947548,426.88669399998616,None,ScrollDown,정답입니다,426.88669399998616,None,426.88669399998616,None,426.88669399998616,None,426.88669399998616,None,428.02321019998635,None,428.02321019998635,428.52738630000385,,,,,,,,,,,,,,,,019,2022-05-13_15h58.12.709,FishGame,2022.1.1,60.00078000210939,
,26,넌 천진난만해,3,Green,B,4.958333333333334,4.833333333333333,ScrollUp,ScrollDown,Green.png,3,Neutral,Neutral,0,0,0,0,,,,,,,,,,,,,,,,,,,,,0,25,25,25,,,,,,,,,,,,,,,,,,,,,,,,,,,,,,,,,,,,,,,,,,,,,,,,,,,,,,,,,,,,,,,,,,,,,,,,,,,,,2,1.2297941999859177,429.15649829999893,None,ScrollUp,정답입니다,429.15649829999893,None,429.15649829999893,None,429.15649829999893,None,429.15649829999893,None,430.286746400001,None,430.286746400001,430.78681329998653,,,,,,,,,,,,,,,,019,2022-05-13_15h58.12.709,FishGame,2022.1.1,60.00078000210939,
,27,넌 교양없어,5,Orange,A,2.416666666666667,2.2,ScrollDown,ScrollUp,Orange.png,3,Negative,Incongruent,0,0,0,0,,,,,,,,,,,,,,,,,,,,,0,26,26,26,,,,,,,,,,,,,,,,,,,,,,,,,,,,,,,,,,,,,,,,,,,,,,,,,,,,,,,,,,,,,,,,,,,,,,,,,,,,,1,1.1934132000023965,431.41167870000936,None,ScrollDown,정답입니다,431.41167870000936,None,431.41167870000936,None,431.41167870000936,None,431.41167870000936,None,432.5036512000079,None,432.5036512000079,433.0064527000068,,,,,,,,,,,,,,,,019,2022-05-13_15h58.12.709,FishGame,2022.1.1,60.00078000210939,
,28,나를 보내줘,6,Orange,A,0,0,ScrollUp,ScrollDown,Orange.png,3,NonTarget,NonTarget,0,0,0,0,,,,,,,,,,,,,,,,,,,,,0,27,27,27,,,,,,,,,,,,,,,,,,,,,,,,,,,,,,,,,,,,,,,,,,,,,,,,,,,,,,,,,,,,,,,,,,,,,,,,,,,,,2,1.3433164000161923,433.6253723000118,None,ScrollUp,정답입니다,433.6253723000118,None,433.6253723000118,None,433.6253723000118,None,433.6253723000118,None,434.86993499999517,None,434.86993499999517,435.3699932000018,,,,,,,,,,,,,,,,019,2022-05-13_15h58.12.709,FishGame,2022.1.1,60.00078000210939,
,29,넌 엉뚱스러워,3,Orange,A,4.166666666666667,4.133333333333334,ScrollDown,ScrollUp,Orange.png,3,Neutral,Neutral,0,0,0,0,,,,,,,,,,,,,,,,,,,,,0,28,28,28,,,,,,,,,,,,,,,,,,,,,,,,,,,,,,,,,,,,,,,,,,,,,,,,,,,,,,,,,,,,,,,,,,,,,,,,,,,,,1,1.1779631999961566,436.00124069998856,None,ScrollDown,정답입니다,436.00124069998856,None,436.00124069998856,None,436.00124069998856,None,436.00124069998856,None,437.0699122000078,None,437.0699122000078,437.5702278999961,,,,,,,,,,,,,,,,019,2022-05-13_15h58.12.709,FishGame,2022.1.1,60.00078000210939,
,30,넌 무지해,4,Green,B,2.541666666666667,3.066666666666667,ScrollUp,ScrollDown,Green.png,3,Negative,Congruent,0,0,0,0,,,,,,,,,,,,,,,,,,,,,0,29,29,29,,,,,,,,,,,,,,,,,,,,,,,,,,,,,,,,,,,,,,,,,,,,,,,,,,,,,,,,,,,,,,,,,,,,,,,,,,,,,2,1.1944705999922007,438.18635340000037,None,ScrollUp,정답입니다,438.18635340000037,None,438.18635340000037,None,438.18635340000037,None,438.18635340000037,None,439.28683600001386,None,439.28683600001386,439.7868073999998,,,,,,,,,,,,,,,,019,2022-05-13_15h58.12.709,FishGame,2022.1.1,60.00078000210939,
,31,넌 음울해,5,Green,B,2.25,2.233333333333333,ScrollUp,ScrollDown,Green.png,3,Negative,Congruent,0,0,0,0,,,,,,,,,,,,,,,,,,,,,0,30,30,30,,,,,,,,,,,,,,,,,,,,,,,,,,,,,,,,,,,,,,,,,,,,,,,,,,,,,,,,,,,,,,,,,,,,,,,,,,,,,2,1.0768213999981526,440.4063454999996,None,ScrollUp,정답입니다,440.4063454999996,None,440.4063454999996,None,440.4063454999996,None,440.4063454999996,None,441.386694899993,None,441.386694899993,441.88674009998795,,,,,,,,,,,,,,,,019,2022-05-13_15h58.12.709,FishGame,2022.1.1,60.00078000210939,
,32,넌 냉소적이야,5,Orange,A,2.916666666666667,2.4,ScrollDown,ScrollUp,Orange.png,3,Negative,Incongruent,0,0,0,0,,,,,,,,,,,,,,,,,,,,,0,31,31,31,,,,,,,,,,,,,,,,,,,,,,,,,,,,,,,,,,,,,,,,,,,,,,,,,,,,,,,,,,,,,,,,,,,,,,,,,,,,,1,1.1780096000002231,442.50665560000925,None,ScrollDown,정답입니다,442.50665560000925,None,442.50665560000925,None,442.50665560000925,None,442.50665560000925,None,443.586773499992,None,443.586773499992,444.0895426000061,,,,,,,,,,,,,,,,019,2022-05-13_15h58.12.709,FishGame,2022.1.1,60.00078000210939,
,33,나를 데려가줘,6,Green,B,0,0,ScrollDown,ScrollUp,Green.png,3,NonTarget,NonTarget,0,0,0,0,,,,,,,,,,,,,,,,,,,,,0,32,32,32,,,,,,,,,,,,,,,,,,,,,,,,,,,,,,,,,,,,,,,,,,,,,,,,,,,,,,,,,,,,,,,,,,,,,,,,,,,,,1,1.2947238000051584,444.706703200005,None,ScrollDown,정답입니다,444.706703200005,None,444.706703200005,None,444.706703200005,None,444.706703200005,None,445.9033116000064,None,445.9033116000064,446.4033819999895,,,,,,,,,,,,,,,,019,2022-05-13_15h58.12.709,FishGame,2022.1.1,60.00078000210939,
,34,넌 쾌활해,1,Orange,A,5.541666666666666,5.733333333333333,ScrollDown,ScrollUp,Orange.png,3,Positive,Congruent,0,0,0,0,,,,,,,,,,,,,,,,,,,,,0,33,33,33,,,,,,,,,,,,,,,,,,,,,,,,,,,,,,,,,,,,,,,,,,,,,,,,,,,,,,,,,,,,,,,,,,,,,,,,,,,,,1,1.227479499997571,447.04619490000186,None,ScrollDown,정답입니다,447.04619490000186,None,447.04619490000186,None,447.04619490000186,None,447.04619490000186,None,448.15329680001014,None,448.15329680001014,448.6561987999885,,,,,,,,,,,,,,,,019,2022-05-13_15h58.12.709,FishGame,2022.1.1,60.00078000210939,
,35,나를 보내줘,6,Orange,A,0,0,ScrollUp,ScrollDown,Orange.png,3,NonTarget,NonTarget,0,0,0,0,,,,,,,,,,,,,,,,,,,,,0,34,34,34,,,,,,,,,,,,,,,,,,,,,,,,,,,,,,,,,,,,,,,,,,,,,,,,,,,,,,,,,,,,,,,,,,,,,,,,,,,,,1.9814815024534862,1.1801481999864336,449.2709254999936,None,ScrollUp,정답입니다,449.2709254999936,None,449.2709254999936,None,449.2709254999936,None,449.2709254999936,None,450.35323549999157,None,450.35323549999157,450.8561181999976,,,,,,,,,,,,,,,,019,2022-05-13_15h58.12.709,FishGame,2022.1.1,60.00078000210939,
,36,넌 명랑해,1,Green,B,5.739130434782609,5.666666666666667,ScrollUp,ScrollDown,Green.png,3,Positive,Incongruent,0,0,0,0,,,,,,,,,,,,,,,,,,,,,0,35,35,35,,,,,,,,,,,,,,,,,,,,,,,,,,,,,,,,,,,,,,,,,,,,,,,,,,,,,,,,,,,,,,,,,,,,,,,,,,,,,2,1.2620405000052415,451.4720513999928,None,ScrollUp,정답입니다,451.4720513999928,None,451.4720513999928,None,451.4720513999928,None,451.4720513999928,None,452.63654790000874,None,452.63654790000874,453.1440197000047,,,,,,,,,,,,,,,,019,2022-05-13_15h58.12.709,FishGame,2022.1.1,60.00078000210939,
,37,넌 멍해,4,Orange,A,2.833333333333333,3.4,ScrollDown,ScrollUp,Orange.png,3,Negative,Incongruent,0,0,0,0,,,,,,,,,,,,,,,,,,,,,0,36,36,36,,,,,,,,,,,,,,,,,,,,,,,,,,,,,,,,,,,,,,,,,,,,,,,,,,,,,,,,,,,,,,,,,,,,,,,,,,,,,1,1.2780212000070605,453.75490460000583,None,ScrollDown,정답입니다,453.75490460000583,None,453.75490460000583,None,453.75490460000583,None,453.75490460000583,None,454.9361952999898,None,454.9361952999898,455.4362931000069,,,,,,,,,,,,,,,,019,2022-05-13_15h58.12.709,FishGame,2022.1.1,60.00078000210939,
,38,나를 데려가줘,6,Green,B,0,0,ScrollDown,ScrollUp,Green.png,3,NonTarget,NonTarget,0,0,0,0,,,,,,,,,,,,,,,,,,,,,0,37,37,37,,,,,,,,,,,,,,,,,,,,,,,,,,,,,,,,,,,,,,,,,,,,,,,,,,,,,,,,,,,,,,,,,,,,,,,,,,,,,1,1.4267096999974456,456.056410899997,None,ScrollDown,정답입니다,456.056410899997,None,456.056410899997,None,456.056410899997,None,456.056410899997,None,457.3892889000126,None,457.3892889000126,457.88643220000085,,,,,,,,,,,,,,,,019,2022-05-13_15h58.12.709,FishGame,2022.1.1,60.00078000210939,
,39,넌 현명해,2,Orange,A,6.541666666666666,4.533333333333333,ScrollDown,ScrollUp,Orange.png,3,Positive,Congruent,0,0,0,0,,,,,,,,,,,,,,,,,,,,,0,38,38,38,,,,,,,,,,,,,,,,,,,,,,,,,,,,,,,,,,,,,,,,,,,,,,,,,,,,,,,,,,,,,,,,,,,,,,,,,,,,,1.0077160497506459,1.2263791000004858,458.5086859000148,None,ScrollDown,정답입니다,458.5086859000148,None,458.5086859000148,None,458.5086859000148,None,458.5086859000148,None,459.63610539998626,None,459.63610539998626,460.1361659000104,,,,,,,,,,,,,,,,019,2022-05-13_15h58.12.709,FishGame,2022.1.1,60.00078000210939,
,40,넌 수줍어,3,Green,B,3.541666666666666,4.366666666666666,ScrollUp,ScrollDown,Green.png,3,Neutral,Neutral,0,0,0,0,,,,,,,,,,,,,,,,,,,,,0,39,39,39,,,,,,,,,,,,,,,,,,,,,,,,,,,,,,,,,,,,,,,,,,,,,,,,,,,,,,,,,,,,,,,,,,,,,,,,,,,,,1.9336419701576233,1.211617799999658,460.75830909999786,None,ScrollUp,정답입니다,460.75830909999786,None,460.75830909999786,None,460.75830909999786,None,460.75830909999786,None,461.8725703000091,None,461.8725703000091,462.36972859999514,,,,,,,,,,,,,,,,019,2022-05-13_15h58.12.709,FishGame,2022.1.1,60.00078000210939,
,41,나를 데려가줘,6,Green,B,0,0,ScrollDown,ScrollUp,Green.png,3,NonTarget,NonTarget,0,0,0,0,,,,,,,,,,,,,,,,,,,,,0,40,40,40,,,,,,,,,,,,,,,,,,,,,,,,,,,,,,,,,,,,,,,,,,,,,,,,,,,,,,,,,,,,,,,,,,,,,,,,,,,,,1,1.2783638999972027,462.99179259999073,None,ScrollDown,정답입니다,462.99179259999073,None,462.99179259999073,None,462.99179259999073,None,462.99179259999073,None,464.1697134000133,None,464.1697134000133,464.67716069999733,,,,,,,,,,,,,,,,019,2022-05-13_15h58.12.709,FishGame,2022.1.1,60.00078000210939,
,42,넌 성숙해,2,Green,B,5.833333333333333,4.533333333333333,ScrollUp,ScrollDown,Green.png,3,Positive,Incongruent,0,0,0,0,,,,,,,,,,,,,,,,,,,,,0,41,41,41,,,,,,,,,,,,,,,,,,,,,,,,,,,,,,,,,,,,,,,,,,,,,,,,,,,,,,,,,,,,,,,,,,,,,,,,,,,,,1.9891975224018097,1.2779480000026524,465.2840111000114,None,ScrollUp,정답입니다,465.2840111000114,None,465.2840111000114,None,465.2840111000114,None,465.2840111000114,None,466.4692839999916,None,466.4692839999916,466.9694099999906,,,,,,,,,,,,,,,,019,2022-05-13_15h58.12.709,FishGame,2022.1.1,60.00078000210939,
,1,넌 매력적이야,2,Green,B,6.125,4.666666666666667,ScrollUp,ScrollDown,Green.png,4,Positive,Incongruent,0,0,0,0,,,,,,,,,,,,,,,,,,,,,,,,,0,0,0,0,,,,,,,,,,,,,,,,,,,,,,,,,,,,,,,,498.68533589999424,500.18865510000614,500.2053748999897,501.15935299999546,501.20972579999943,502.16890650001005,502.16890650001005,None,,,,,,,,,,,,,,,,,,,,,,,,,,,,,,,,,,2,1.4606452999869362,503.27752840000903,None,ScrollUp,정답입니다,503.27752840000903,None,503.27752840000903,None,503.27752840000903,None,503.27752840000903,None,504.63517769999453,None,504.63517769999453,505.1352440000046,467.4723585000029,None,467.4723585000029,None,0.09351852,-0.10092592,1,0,0,0.016294509987346828,None,497.48539970000274,None,,,019,2022-05-13_15h58.12.709,FishGame,2022.1.1,60.00078000210939,
,2,나를 보내줘,6,Orange,A,0,0,ScrollUp,ScrollDown,Orange.png,4,NonTarget,NonTarget,0,0,0,0,,,,,,,,,,,,,,,,,,,,,,,,,0,1,1,1,,,,,,,,,,,,,,,,,,,,,,,,,,,,,,,,,,,,,,,,,,,,,,,,,,,,,,,,,,,,,,,,,,,,,,,,,2,1.3447574000165332,505.7556714999955,None,ScrollUp,정답입니다,505.7556714999955,None,505.7556714999955,None,505.7556714999955,None,505.7556714999955,None,507.00212940000347,None,507.00212940000347,507.50503930001287,,,,,,,,,,,,,,,,019,2022-05-13_15h58.12.709,FishGame,2022.1.1,60.00078000210939,
,3,넌 조심스러워,3,Orange,A,4.791666666666666,4.666666666666667,ScrollDown,ScrollUp,Orange.png,4,Neutral,Neutral,0,0,0,0,,,,,,,,,,,,,,,,,,,,,,,,,0,2,2,2,,,,,,,,,,,,,,,,,,,,,,,,,,,,,,,,,,,,,,,,,,,,,,,,,,,,,,,,,,,,,,,,,,,,,,,,,1,1.4102906000043731,508.12579290001304,None,ScrollDown,정답입니다,508.12579290001304,None,508.12579290001304,None,508.12579290001304,None,508.12579290001304,None,509.4354078999895,None,509.4354078999895,509.93834120000247,,,,,,,,,,,,,,,,019,2022-05-13_15h58.12.709,FishGame,2022.1.1,60.00078000210939,
,4,넌 철학적이야,3,Green,B,4.5,4.266666666666667,ScrollUp,ScrollDown,Green.png,4,Neutral,Neutral,0,0,0,0,,,,,,,,,,,,,,,,,,,,,,,,,0,3,3,3,,,,,,,,,,,,,,,,,,,,,,,,,,,,,,,,,,,,,,,,,,,,,,,,,,,,,,,,,,,,,,,,,,,,,,,,,1.9722222189108531,1.1114759999909438,510.556055699999,None,ScrollUp,정답입니다,510.556055699999,None,510.556055699999,None,510.556055699999,None,510.556055699999,None,511.5683393999934,None,511.5683393999934,512.0684575999912,,,,,,,,,,,,,,,,019,2022-05-13_15h58.12.709,FishGame,2022.1.1,60.00078000210939,
,5,넌 쩨쩨해,5,Orange,A,2.375,2.133333333333333,ScrollDown,ScrollUp,Orange.png,4,Negative,Incongruent,0,0,0,0,,,,,,,,,,,,,,,,,,,,,,,,,0,4,4,4,,,,,,,,,,,,,,,,,,,,,,,,,,,,,,,,,,,,,,,,,,,,,,,,,,,,,,,,,,,,,,,,,,,,,,,,,1,1.111689599987585,512.6916098000074,None,ScrollDown,정답입니다,512.6916098000074,None,512.6916098000074,None,512.6916098000074,None,512.6916098000074,None,513.7019873000099,None,513.7019873000099,514.2048890000151,,,,,,,,,,,,,,,,019,2022-05-13_15h58.12.709,FishGame,2022.1.1,60.00078000210939,
,6,나를 데려가줘,6,Green,B,0,0,ScrollDown,ScrollUp,Green.png,4,NonTarget,NonTarget,0,0,0,0,,,,,,,,,,,,,,,,,,,,,,,,,0,5,5,5,,,,,,,,,,,,,,,,,,,,,,,,,,,,,,,,,,,,,,,,,,,,,,,,,,,,,,,,,,,,,,,,,,,,,,,,,1,1.427106500021182,514.82079659999,None,ScrollDown,정답입니다,514.82079659999,None,514.82079659999,None,514.82079659999,None,514.82079659999,None,516.1519207000092,None,516.1519207000092,516.659389700013,,,,,,,,,,,,,,,,019,2022-05-13_15h58.12.709,FishGame,2022.1.1,60.00078000210939,
,7,넌 고집불통이야,5,Green,B,2.875,2,ScrollUp,ScrollDown,Green.png,4,Negative,Congruent,0,0,0,0,,,,,,,,,,,,,,,,,,,,,,,,,0,6,6,6,,,,,,,,,,,,,,,,,,,,,,,,,,,,,,,,,,,,,,,,,,,,,,,,,,,,,,,,,,,,,,,,,,,,,,,,,2,1.2447193000116386,517.2755980000074,None,ScrollUp,정답입니다,517.2755980000074,None,517.2755980000074,None,517.2755980000074,None,517.2755980000074,None,518.4182271999889,None,518.4182271999889,518.9183559000085,,,,,,,,,,,,,,,,019,2022-05-13_15h58.12.709,FishGame,2022.1.1,60.00078000210939,
,8,넌 무심해,4,Orange,A,2.875,3.2,ScrollDown,ScrollUp,Orange.png,4,Negative,Incongruent,0,0,0,0,,,,,,,,,,,,,,,,,,,,,,,,,0,7,7,7,,,,,,,,,,,,,,,,,,,,,,,,,,,,,,,,,,,,,,,,,,,,,,,,,,,,,,,,,,,,,,,,,,,,,,,,,1.0277777810891469,1.3798508000036236,519.5421604000148,None,ScrollDown,정답입니다,519.5421604000148,None,519.5421604000148,None,519.5421604000148,None,519.5421604000148,None,520.8213197999867,None,520.8213197999867,521.3184987000132,,,,,,,,,,,,,,,,019,2022-05-13_15h58.12.709,FishGame,2022.1.1,60.00078000210939,
,9,넌 정겨워,1,Orange,A,5.791666666666667,5.666666666666667,ScrollDown,ScrollUp,Orange.png,4,Positive,Congruent,0,0,0,0,,,,,,,,,,,,,,,,,,,,,,,,,0,8,8,8,,,,,,,,,,,,,,,,,,,,,,,,,,,,,,,,,,,,,,,,,,,,,,,,,,,,,,,,,,,,,,,,,,,,,,,,,1.0509259402751923,1.224895799998194,521.9443239000102,None,ScrollDown,정답입니다,521.9443239000102,None,521.9443239000102,None,521.9443239000102,None,521.9443239000102,None,523.068471400009,None,523.068471400009,523.5682040000102,,,,,,,,,,,,,,,,019,2022-05-13_15h58.12.709,FishGame,2022.1.1,60.00078000210939,
,10,나를 데려가줘,6,Green,B,0,0,ScrollDown,ScrollUp,Green.png,4,NonTarget,NonTarget,0,0,0,0,,,,,,,,,,,,,,,,,,,,,,,,,0,9,9,9,,,,,,,,,,,,,,,,,,,,,,,,,,,,,,,,,,,,,,,,,,,,,,,,,,,,,,,,,,,,,,,,,,,,,,,,,1,1.3443583000043873,524.1911648999958,None,ScrollDown,정답입니다,524.1911648999958,None,524.1911648999958,None,524.1911648999958,None,524.1911648999958,None,525.4348240999971,None,525.4348240999971,525.9348759000131,,,,,,,,,,,,,,,,019,2022-05-13_15h58.12.709,FishGame,2022.1.1,60.00078000210939,
,11,넌 체제순응적이야,4,Green,B,3,3.6,ScrollUp,ScrollDown,Green.png,4,Negative,Congruent,0,0,0,0,,,,,,,,,,,,,,,,,,,,,,,,,0,10,10,10,,,,,,,,,,,,,,,,,,,,,,,,,,,,,,,,,,,,,,,,,,,,,,,,,,,,,,,,,,,,,,,,,,,,,,,,,1.9567901293436687,1.378071799990721,526.5587006999995,None,ScrollUp,정답입니다,526.5587006999995,None,526.5587006999995,None,526.5587006999995,None,526.5587006999995,None,527.8350809999974,None,527.8350809999974,528.3350721999886,,,,,,,,,,,,,,,,019,2022-05-13_15h58.12.709,FishGame,2022.1.1,60.00078000210939,
,12,나를 보내줘,6,Orange,A,0,0,ScrollUp,ScrollDown,Orange.png,4,NonTarget,NonTarget,0,0,0,0,,,,,,,,,,,,,,,,,,,,,,,,,0,11,11,11,,,,,,,,,,,,,,,,,,,,,,,,,,,,,,,,,,,,,,,,,,,,,,,,,,,,,,,,,,,,,,,,,,,,,,,,,2,1.2947834999940824,528.9523043000081,None,ScrollUp,정답입니다,528.9523043000081,None,528.9523043000081,None,528.9523043000081,None,528.9523043000081,None,530.1515205999895,None,530.1515205999895,530.6516114000115,,,,,,,,,,,,,,,,019,2022-05-13_15h58.12.709,FishGame,2022.1.1,60.00078000210939,
,13,넌 박식해,2,Orange,A,5.625,3.933333333333333,ScrollDown,ScrollUp,Orange.png,4,Positive,Congruent,0,0,0,0,,,,,,,,,,,,,,,,,,,,,,,,,0,12,12,12,,,,,,,,,,,,,,,,,,,,,,,,,,,,,,,,,,,,,,,,,,,,,,,,,,,,,,,,,,,,,,,,,,,,,,,,,1.0817901194095612,0.9965540999837685,531.2844298999989,None,ScrollDown,정답입니다,531.2844298999989,None,531.2844298999989,None,531.2844298999989,None,531.2844298999989,None,532.1681743999943,None,532.1681743999943,532.6682421999867,,,,,,,,,,,,,,,,019,2022-05-13_15h58.12.709,FishGame,2022.1.1,60.00078000210939,
,14,나를 보내줘,6,Orange,A,0,0,ScrollUp,ScrollDown,Orange.png,4,NonTarget,NonTarget,0,0,0,0,,,,,,,,,,,,,,,,,,,,,,,,,0,13,13,13,,,,,,,,,,,,,,,,,,,,,,,,,,,,,,,,,,,,,,,,,,,,,,,,,,,,,,,,,,,,,,,,,,,,,,,,,1.9459876318772633,1.1783985000220127,533.2956549999944,None,ScrollUp,정답입니다,533.2956549999944,None,533.2956549999944,None,533.2956549999944,None,533.2956549999944,None,534.3681861000077,None,534.3681861000077,534.8682340999949,,,,,,,,,,,,,,,,019,2022-05-13_15h58.12.709,FishGame,2022.1.1,60.00078000210939,
,15,넌 침착해,1,Green,B,5.458333333333333,5.566666666666666,ScrollUp,ScrollDown,Green.png,4,Positive,Incongruent,0,0,0,0,,,,,,,,,,,,,,,,,,,,,,,,,0,14,14,14,,,,,,,,,,,,,,,,,,,,,,,,,,,,,,,,,,,,,,,,,,,,,,,,,,,,,,,,,,,,,,,,,,,,,,,,,1.9521604875723522,1.192038200009847,535.4930082999927,None,ScrollUp,정답입니다,535.4930082999927,None,535.4930082999927,None,535.4930082999927,None,535.4930082999927,None,536.5848140000016,None,536.5848140000016,537.084878099995,,,,,,,,,,,,,,,,019,2022-05-13_15h58.12.709,FishGame,2022.1.1,60.00078000210939,
,16,나를 데려가줘,6,Green,B,0,0,ScrollDown,ScrollUp,Green.png,4,NonTarget,NonTarget,0,0,0,0,,,,,,,,,,,,,,,,,,,,,,,,,0,15,15,15,,,,,,,,,,,,,,,,,,,,,,,,,,,,,,,,,,,,,,,,,,,,,,,,,,,,,,,,,,,,,,,,,,,,,,,,,1,1.358313000004273,537.7090573000023,None,ScrollDown,정답입니다,537.7090573000023,None,537.7090573000023,None,537.7090573000023,None,537.7090573000023,None,538.9677851999877,None,538.9677851999877,539.4678831000056,,,,,,,,,,,,,,,,019,2022-05-13_15h58.12.709,FishGame,2022.1.1,60.00078000210939,
,17,넌 행복해,1,Orange,A,6.416666666666666,6.166666666666667,ScrollDown,ScrollUp,Orange.png,4,Positive,Congruent,0,0,0,0,,,,,,,,,,,,,,,,,,,,,,,,,0,16,16,16,,,,,,,,,,,,,,,,,,,,,,,,,,,,,,,,,,,,,,,,,,,,,,,,,,,,,,,,,,,,,,,,,,,,,,,,,1,1.011315999989165,540.0948744000052,None,ScrollDown,정답입니다,540.0948744000052,None,540.0948744000052,None,540.0948744000052,None,540.0948744000052,None,541.004231400002,None,541.004231400002,541.5210490000027,,,,,,,,,,,,,,,,019,2022-05-13_15h58.12.709,FishGame,2022.1.1,60.00078000210939,
,18,넌 겸손해,2,Green,B,5.791666666666667,4.766666666666667,ScrollUp,ScrollDown,Green.png,4,Positive,Incongruent,0,0,0,0,,,,,,,,,,,,,,,,,,,,,,,,,0,17,17,17,,,,,,,,,,,,,,,,,,,,,,,,,,,,,,,,,,,,,,,,,,,,,,,,,,,,,,,,,,,,,,,,,,,,,,,,,1.9969135920206706,1.210198400018271,542.1260312999948,None,ScrollUp,정답입니다,542.1260312999948,None,542.1260312999948,None,542.1260312999948,None,542.1260312999948,None,543.2347225999983,None,543.2347225999983,543.7375411000103,,,,,,,,,,,,,,,,019,2022-05-13_15h58.12.709,FishGame,2022.1.1,60.00078000210939,
,19,나를 보내줘,6,Orange,A,0,0,ScrollUp,ScrollDown,Orange.png,4,NonTarget,NonTarget,0,0,0,0,,,,,,,,,,,,,,,,,,,,,,,,,0,18,18,18,,,,,,,,,,,,,,,,,,,,,,,,,,,,,,,,,,,,,,,,,,,,,,,,,,,,,,,,,,,,,,,,,,,,,,,,,1.9521604875723522,1.1755069000064395,544.3547898000106,None,ScrollUp,정답입니다,544.3547898000106,None,544.3547898000106,None,544.3547898000106,None,544.3547898000106,None,545.4345806000056,None,545.4345806000056,545.9346496000071,,,,,,,,,,,,,,,,019,2022-05-13_15h58.12.709,FishGame,2022.1.1,60.00078000210939,
,20,넌 의심없어,3,Orange,A,4.166666666666667,4.6,ScrollDown,ScrollUp,Orange.png,4,Neutral,Neutral,0,0,0,0,,,,,,,,,,,,,,,,,,,,,,,,,0,19,19,19,,,,,,,,,,,,,,,,,,,,,,,,,,,,,,,,,,,,,,,,,,,,,,,,,,,,,,,,,,,,,,,,,,,,,,,,,1.1111111094554265,1.0758839000191074,546.5591321999964,None,ScrollDown,정답입니다,546.5591321999964,None,546.5591321999964,None,546.5591321999964,None,546.5591321999964,None,547.534567499999,None,547.534567499999,548.0346688000136,,,,,,,,,,,,,,,,019,2022-05-13_15h58.12.709,FishGame,2022.1.1,60.00078000210939,
,21,넌 시시해,4,Orange,A,2.666666666666667,2.966666666666667,ScrollDown,ScrollUp,Orange.png,4,Negative,Incongruent,0,0,0,0,,,,,,,,,,,,,,,,,,,,,,,,,0,20,20,20,,,,,,,,,,,,,,,,,,,,,,,,,,,,,,,,,,,,,,,,,,,,,,,,,,,,,,,,,,,,,,,,,,,,,,,,,1.0108024775981903,1.0255203999986406,548.6584183000086,None,ScrollDown,정답입니다,548.6584183000086,None,548.6584183000086,None,548.6584183000086,None,548.6584183000086,None,549.584560999996,None,549.584560999996,550.0873783999996,,,,,,,,,,,,,,,,019,2022-05-13_15h58.12.709,FishGame,2022.1.1,60.00078000210939,
,22,나를 데려가줘,6,Green,B,0,0,ScrollDown,ScrollUp,Green.png,4,NonTarget,NonTarget,0,0,0,0,,,,,,,,,,,,,,,,,,,,,,,,,0,21,21,21,,,,,,,,,,,,,,,,,,,,,,,,,,,,,,,,,,,,,,,,,,,,,,,,,,,,,,,,,,,,,,,,,,,,,,,,,1.0432098706563313,1.4443100999924354,550.7031028000056,None,ScrollDown,정답입니다,550.7031028000056,None,550.7031028000056,None,550.7031028000056,None,550.7031028000056,None,552.0541481999971,None,552.0541481999971,552.5540386000066,,,,,,,,,,,,,,,,019,2022-05-13_15h58.12.709,FishGame,2022.1.1,60.00078000210939,
,23,넌 무정해,5,Orange,A,2.5,2.2,ScrollDown,ScrollUp,Orange.png,4,Negative,Incongruent,0,0,0,0,,,,,,,,,,,,,,,,,,,,,,,,,0,22,22,22,,,,,,,,,,,,,,,,,,,,,,,,,,,,,,,,,,,,,,,,,,,,,,,,,,,,,,,,,,,,,,,,,,,,,,,,,1.0092592636744182,1.3134497000137344,553.1872242999962,None,ScrollDown,정답입니다,553.1872242999962,None,553.1872242999962,None,553.1872242999962,None,553.1872242999962,None,554.4008008000092,None,554.4008008000092,554.9009200999863,,,,,,,,,,,,,,,,019,2022-05-13_15h58.12.709,FishGame,2022.1.1,60.00078000210939,
,24,넌 긍정적이야,1,Green,B,6.041666666666667,6.066666666666666,ScrollUp,ScrollDown,Green.png,4,Positive,Incongruent,0,0,0,0,,,,,,,,,,,,,,,,,,,,,,,,,0,23,23,23,,,,,,,,,,,,,,,,,,,,,,,,,,,,,,,,,,,,,,,,,,,,,,,,,,,,,,,,,,,,,,,,,,,,,,,,,1.8441358109315236,1.1448256000003312,555.5270874999987,None,ScrollUp,정답입니다,555.5270874999987,None,555.5270874999987,None,555.5270874999987,None,555.5270874999987,None,556.5678003999928,None,556.5678003999928,557.0706514999911,,,,,,,,,,,,,,,,019,2022-05-13_15h58.12.709,FishGame,2022.1.1,60.00078000210939,
,25,나를 보내줘,6,Orange,A,0,0,ScrollUp,ScrollDown,Orange.png,4,NonTarget,NonTarget,0,0,0,0,,,,,,,,,,,,,,,,,,,,,,,,,0,24,24,24,,,,,,,,,,,,,,,,,,,,,,,,,,,,,,,,,,,,,,,,,,,,,,,,,,,,,,,,,,,,,,,,,,,,,,,,,1.939814825852712,1.4921425000065938,557.6893667000113,None,ScrollUp,정답입니다,557.6893667000113,None,557.6893667000113,None,557.6893667000113,None,557.6893667000113,None,559.0811275999877,None,559.0811275999877,559.5841721000033,,,,,,,,,,,,,,,,019,2022-05-13_15h58.12.709,FishGame,2022.1.1,60.00078000210939,
,26,넌 시기심이 많아,5,Green,B,2.458333333333333,2.233333333333333,ScrollUp,ScrollDown,Green.png,4,Negative,Congruent,0,0,0,0,,,,,,,,,,,,,,,,,,,,,,,,,0,25,25,25,,,,,,,,,,,,,,,,,,,,,,,,,,,,,,,,,,,,,,,,,,,,,,,,,,,,,,,,,,,,,,,,,,,,,,,,,1.9243827362855275,1.2619382999837399,560.2052015000081,None,ScrollUp,정답입니다,560.2052015000081,None,560.2052015000081,None,560.2052015000081,None,560.2052015000081,None,561.3674034000142,None,561.3674034000142,561.8677053000138,,,,,,,,,,,,,,,,019,2022-05-13_15h58.12.709,FishGame,2022.1.1,60.00078000210939,
,27,넌 탁월해,2,Orange,A,5.708333333333334,4.5,ScrollDown,ScrollUp,Orange.png,4,Positive,Congruent,0,0,0,0,,,,,,,,,,,,,,,,,,,,,,,,,0,26,26,26,,,,,,,,,,,,,,,,,,,,,,,,,,,,,,,,,,,,,,,,,,,,,,,,,,,,,,,,,,,,,,,,,,,,,,,,,1.0308642089366913,1.3267962000099942,562.4935925999889,None,ScrollDown,정답입니다,562.4935925999889,None,562.4935925999889,None,562.4935925999889,None,562.4935925999889,None,563.7176499000052,None,563.7176499000052,564.2205641999899,,,,,,,,,,,,,,,,019,2022-05-13_15h58.12.709,FishGame,2022.1.1,60.00078000210939,
,28,나를 데려가줘,6,Green,B,0,0,ScrollDown,ScrollUp,Green.png,4,NonTarget,NonTarget,0,0,0,0,,,,,,,,,,,,,,,,,,,,,,,,,0,27,27,27,,,,,,,,,,,,,,,,,,,,,,,,,,,,,,,,,,,,,,,,,,,,,,,,,,,,,,,,,,,,,,,,,,,,,,,,,1,1.6932828999997582,564.8378838000062,None,ScrollDown,정답입니다,564.8378838000062,None,564.8378838000062,None,564.8378838000062,None,564.8378838000062,None,566.434152700007,None,566.434152700007,566.9342382999894,,,,,,,,,,,,,,,,019,2022-05-13_15h58.12.709,FishGame,2022.1.1,60.00078000210939,
,29,넌 조용해,3,Green,B,4.333333333333333,4.166666666666667,ScrollUp,ScrollDown,Green.png,4,Neutral,Neutral,0,0,0,0,,,,,,,,,,,,,,,,,,,,,,,,,0,28,28,28,,,,,,,,,,,,,,,,,,,,,,,,,,,,,,,,,,,,,,,,,,,,,,,,,,,,,,,,,,,,,,,,,,,,,,,,,1.9783950746059418,1.761346900020726,567.5552967000112,None,ScrollUp,정답입니다,567.5552967000112,None,567.5552967000112,None,567.5552967000112,None,567.5552967000112,None,569.2174660000019,None,569.2174660000019,569.7175459999999,,,,,,,,,,,,,,,,019,2022-05-13_15h58.12.709,FishGame,2022.1.1,60.00078000210939,
,30,넌 다정해,1,Orange,A,5.833333333333334,5.7,ScrollDown,ScrollUp,Orange.png,4,Positive,Congruent,0,0,0,0,,,,,,,,,,,,,,,,,,,,,,,,,0,29,29,29,,,,,,,,,,,,,,,,,,,,,,,,,,,,,,,,,,,,,,,,,,,,,,,,,,,,,,,,,,,,,,,,,,,,,,,,,1,1.2316893999814056,570.3357865000144,None,ScrollDown,정답입니다,570.3357865000144,None,570.3357865000144,None,570.3357865000144,None,570.3357865000144,None,571.4674446000136,None,571.4674446000136,571.967502799991,,,,,,,,,,,,,,,,019,2022-05-13_15h58.12.709,FishGame,2022.1.1,60.00078000210939,
,31,넌 능력있어,2,Green,B,6.166666666666666,4.6,ScrollUp,ScrollDown,Green.png,4,Positive,Incongruent,0,0,0,0,,,,,,,,,,,,,,,,,,,,,,,,,0,30,30,30,,,,,,,,,,,,,,,,,,,,,,,,,,,,,,,,,,,,,,,,,,,,,,,,,,,,,,,,,,,,,,,,,,,,,,,,,1.9104938358068466,1.3763091000146233,572.5852793999948,None,ScrollUp,정답입니다,572.5852793999948,None,572.5852793999948,None,572.5852793999948,None,572.5852793999948,None,573.8671119000064,None,573.8671119000064,574.3671739000129,,,,,,,,,,,,,,,,019,2022-05-13_15h58.12.709,FishGame,2022.1.1,60.00078000210939,
,32,넌 불쾌해,5,Orange,A,2.125,1.933333333333333,ScrollDown,ScrollUp,Orange.png,4,Negative,Incongruent,0,0,0,0,,,,,,,,,,,,,,,,,,,,,,,,,0,31,31,31,,,,,,,,,,,,,,,,,,,,,,,,,,,,,,,,,,,,,,,,,,,,,,,,,,,,,,,,,,,,,,,,,,,,,,,,,1,1.3957291999831796,574.9849604000046,None,ScrollDown,정답입니다,574.9849604000046,None,574.9849604000046,None,574.9849604000046,None,574.9849604000046,None,576.2840545999934,None,576.2840545999934,576.7869710999948,,,,,,,,,,,,,,,,019,2022-05-13_15h58.12.709,FishGame,2022.1.1,60.00078000210939,
,33,나를 데려가줘,6,Green,B,0,0,ScrollDown,ScrollUp,Green.png,4,NonTarget,NonTarget,0,0,0,0,,,,,,,,,,,,,,,,,,,,,,,,,0,32,32,32,,,,,,,,,,,,,,,,,,,,,,,,,,,,,,,,,,,,,,,,,,,,,,,,,,,,,,,,,,,,,,,,,,,,,,,,,1,1.7422094999928959,577.4028561000014,None,ScrollDown,정답입니다,577.4028561000014,None,577.4028561000014,None,577.4028561000014,None,577.4028561000014,None,579.0475524000067,None,579.0475524000067,579.5503950999992,,,,,,,,,,,,,,,,019,2022-05-13_15h58.12.709,FishGame,2022.1.1,60.00078000210939,
,34,넌 유순해,3,Orange,A,4.458333333333333,5,ScrollDown,ScrollUp,Orange.png,4,Neutral,Neutral,0,0,0,0,,,,,,,,,,,,,,,,,,,,,,,,,0,33,33,33,,,,,,,,,,,,,,,,,,,,,,,,,,,,,,,,,,,,,,,,,,,,,,,,,,,,,,,,,,,,,,,,,,,,,,,,,1,1.411216400010744,580.1715417999949,None,ScrollDown,정답입니다,580.1715417999949,None,580.1715417999949,None,580.1715417999949,None,580.1715417999949,None,581.4836645000032,None,581.4836645000032,581.983968399989,,,,,,,,,,,,,,,,019,2022-05-13_15h58.12.709,FishGame,2022.1.1,60.00078000210939,
,35,넌 근심스러워,4,Green,B,2.708333333333333,3.133333333333333,ScrollUp,ScrollDown,Green.png,4,Negative,Congruent,0,0,0,0,,,,,,,,,,,,,,,,,,,,,,,,,0,34,34,34,,,,,,,,,,,,,,,,,,,,,,,,,,,,,,,,,,,,,,,,,,,,,,,,,,,,,,,,,,,,,,,,,,,,,,,,,1.983024666706721,1.560551900009159,582.6064113999892,None,ScrollUp,정답입니다,582.6064113999892,None,582.6064113999892,None,582.6064113999892,None,582.6064113999892,None,584.0672314999974,None,584.0672314999974,584.5700959000096,,,,,,,,,,,,,,,,019,2022-05-13_15h58.12.709,FishGame,2022.1.1,60.00078000210939,
,36,넌 세련되었어,2,Orange,A,5.5,4.6,ScrollDown,ScrollUp,Orange.png,4,Positive,Congruent,0,0,0,0,,,,,,,,,,,,,,,,,,,,,,,,,0,35,35,35,,,,,,,,,,,,,,,,,,,,,,,,,,,,,,,,,,,,,,,,,,,,,,,,,,,,,,,,,,,,,,,,,,,,,,,,,1,1.3241790999891236,585.1969325999962,None,ScrollDown,정답입니다,585.1969325999962,None,585.1969325999962,None,585.1969325999962,None,585.1969325999962,None,586.417067900009,None,586.417067900009,586.9169948000053,,,,,,,,,,,,,,,,019,2022-05-13_15h58.12.709,FishGame,2022.1.1,60.00078000210939,
,37,나를 보내줘,6,Orange,A,0,0,ScrollUp,ScrollDown,Orange.png,4,NonTarget,NonTarget,0,0,0,0,,,,,,,,,,,,,,,,,,,,,,,,,0,36,36,36,,,,,,,,,,,,,,,,,,,,,,,,,,,,,,,,,,,,,,,,,,,,,,,,,,,,,,,,,,,,,,,,,,,,,,,,,1.9938271641731262,1.244404700002633,587.5382940999989,None,ScrollUp,정답입니다,587.5382940999989,None,587.5382940999989,None,587.5382940999989,None,587.5382940999989,None,588.6837529999902,None,588.6837529999902,589.1838600999909,,,,,,,,,,,,,,,,019,2022-05-13_15h58.12.709,FishGame,2022.1.1,60.00078000210939,
,38,넌 확고해,3,Green,B,4.708333333333334,4.566666666666666,ScrollUp,ScrollDown,Green.png,4,Neutral,Neutral,0,0,0,0,,,,,,,,,,,,,,,,,,,,,,,,,0,37,37,37,,,,,,,,,,,,,,,,,,,,,,,,,,,,,,,,,,,,,,,,,,,,,,,,,,,,,,,,,,,,,,,,,,,,,,,,,1.8873456766208012,1.2918831999995746,589.8038249000092,None,ScrollUp,정답입니다,589.8038249000092,None,589.8038249000092,None,589.8038249000092,None,589.8038249000092,None,591.0003987000091,None,591.0003987000091,591.503335299989,,,,,,,,,,,,,,,,019,2022-05-13_15h58.12.709,FishGame,2022.1.1,60.00078000210939,
,39,넌 이해심이 많아,1,Green,B,6.041666666666668,5.533333333333333,ScrollUp,ScrollDown,Green.png,4,Positive,Incongruent,0,0,0,0,,,,,,,,,,,,,,,,,,,,,,,,,0,38,38,38,,,,,,,,,,,,,,,,,,,,,,,,,,,,,,,,,,,,,,,,,,,,,,,,,,,,,,,,,,,,,,,,,,,,,,,,,1.9922839502493541,1.2941415999957826,592.1169563000149,None,ScrollUp,정답입니다,592.1169563000149,None,592.1169563000149,None,592.1169563000149,None,592.1169563000149,None,593.3169527999999,None,593.3169527999999,593.817009499995,,,,,,,,,,,,,,,,019,2022-05-13_15h58.12.709,FishGame,2022.1.1,60.00078000210939,
,40,나를 보내줘,6,Orange,A,0,0,ScrollUp,ScrollDown,Orange.png,4,NonTarget,NonTarget,0,0,0,0,,,,,,,,,,,,,,,,,,,,,,,,,0,39,39,39,,,,,,,,,,,,,,,,,,,,,,,,,,,,,,,,,,,,,,,,,,,,,,,,,,,,,,,,,,,,,,,,,,,,,,,,,2,1.4947653000126593,594.4379284000024,None,ScrollUp,정답입니다,594.4379284000024,None,594.4379284000024,None,594.4379284000024,None,594.4379284000024,None,595.8335851999873,None,595.8335851999873,596.3336763000116,,,,,,,,,,,,,,,,019,2022-05-13_15h58.12.709,FishGame,2022.1.1,60.00078000210939,
,41,넌 거칠어,4,Orange,A,2.625,3.033333333333333,ScrollDown,ScrollUp,Orange.png,4,Negative,Incongruent,0,0,0,0,,,,,,,,,,,,,,,,,,,,,,,,,0,40,40,40,,,,,,,,,,,,,,,,,,,,,,,,,,,,,,,,,,,,,,,,,,,,,,,,,,,,,,,,,,,,,,,,,,,,,,,,,1,1.6418415999796707,596.969646499987,None,ScrollDown,정답입니다,596.969646499987,None,596.969646499987,None,596.969646499987,None,596.969646499987,None,598.5029945000133,None,598.5029945000133,599.0002509999904,,,,,,,,,,,,,,,,019,2022-05-13_15h58.12.709,FishGame,2022.1.1,60.00078000210939,
,42,넌 변덕맞아,5,Green,B,2.75,2.166666666666667,ScrollUp,ScrollDown,Green.png,4,Negative,Congruent,0,0,0,0,,,,,,,,,,,,,,,,,,,,,,,,,0,41,41,41,,,,,,,,,,,,,,,,,,,,,,,,,,,,,,,,,,,,,,,,,,,,,,,,,,,,,,,,,,,,,,,,,,,,,,,,,1.9984568059444427,1.5296680000028573,599.6432749000087,None,ScrollUp,정답입니다,599.6432749000087,None,599.6432749000087,None,599.6432749000087,None,599.6432749000087,None,601.066546099988,None,601.066546099988,601.5666157999949,,,,,,,,,,,,,,,,019,2022-05-13_15h58.12.709,FishGame,2022.1.1,60.00078000210939,
,43,나를 데려가줘,6,Green,B,0,0,ScrollDown,ScrollUp,Green.png,4,NonTarget,NonTarget,0,0,0,0,,,,,,,,,,,,,,,,,,,,,,,,,0,42,42,42,,,,,,,,,,,,,,,,,,,,,,,,,,,,,,,,,,,,,,,,,,,,,,,,,,,,,,,,,,,,,,,,,,,,,,,,,1.0138889054457347,1.5286732999957167,602.1882589999877,None,ScrollDown,정답입니다,602.1882589999877,None,602.1882589999877,None,602.1882589999877,None,602.1882589999877,None,603.6168438000022,None,603.6168438000022,604.1168309999921,,,,,,,,,,,,,,,,019,2022-05-13_15h58.12.709,FishGame,2022.1.1,60.00078000210939,
,44,넌 외로워,4,Green,B,2.833333333333333,3.3,ScrollUp,ScrollDown,Green.png,4,Negative,Congruent,0,0,0,0,,,,,,,,,,,,,,,,,,,,,,,,,0,43,43,43,,,,,,,,,,,,,,,,,,,,,,,,,,,,,,,,,,,,,,,,,,,,,,,,,,,,,,,,,,,,,,,,,,,,,,,,,2,1.293343299999833,604.7374288999999,None,ScrollUp,정답입니다,604.7374288999999,None,604.7374288999999,None,604.7374288999999,None,604.7374288999999,None,605.9334441999963,None,605.9334441999963,606.4331359000062,,,,,,,,,,,,,,,,019,2022-05-13_15h58.12.709,FishGame,2022.1.1,60.00078000210939,
,1,넌 불평스러워,5,Orange,A,2.25,2.066666666666667,ScrollDown,ScrollUp,Orange.png,5,Negative,Incongruent,0,0,0,0,,,,,,,,,,,,,,,,,,,,,,,,,,,,,0,0,0,0,,,,,,,,,,,,,,,,,,,,,,,,,,,,637.5657935999916,639.0659177000052,639.0992498999985,640.0525320000015,640.1024811000098,641.0525047999981,641.0525047999981,None,,,,,,,,,,,,,,,,,,,,,,,,,,,,,,,,,,1,1.343810599995777,642.1681670999969,None,ScrollDown,정답입니다,642.1681670999969,None,642.1681670999969,None,642.1681670999969,None,642.1681670999969,None,643.4160256999894,None,643.4160256999894,643.9160313000029,606.9331748000113,None,606.9331748000113,None,0.09074074,-0.12314815,1,0,0,0.016014510008972138,None,636.9325668000092,None,,,019,2022-05-13_15h58.12.709,FishGame,2022.1.1,60.00078000210939,
,2,나를 보내줘,6,Orange,A,0,0,ScrollUp,ScrollDown,Orange.png,5,NonTarget,NonTarget,0,0,0,0,,,,,,,,,,,,,,,,,,,,,,,,,,,,,0,1,1,1,,,,,,,,,,,,,,,,,,,,,,,,,,,,,,,,,,,,,,,,,,,,,,,,,,,,,,,,,,,,,,,,,,,,,1.9891975224018097,1.2945997999922838,644.5370801000099,None,ScrollUp,정답입니다,644.5370801000099,None,644.5370801000099,None,644.5370801000099,None,644.5370801000099,None,645.7325958999863,None,645.7325958999863,646.2354750999948,,,,,,,,,,,,,,,,019,2022-05-13_15h58.12.709,FishGame,2022.1.1,60.00078000210939,
,3,넌 다재다능해,2,Green,B,6.208333333333333,4.5,ScrollUp,ScrollDown,Green.png,5,Positive,Incongruent,0,0,0,0,,,,,,,,,,,,,,,,,,,,,,,,,,,,,0,2,2,2,,,,,,,,,,,,,,,,,,,,,,,,,,,,,,,,,,,,,,,,,,,,,,,,,,,,,,,,,,,,,,,,,,,,,2,1.4765385999926366,646.8533515000017,None,ScrollUp,정답입니다,646.8533515000017,None,646.8533515000017,None,646.8533515000017,None,646.8533515000017,None,648.2325680000067,None,648.2325680000067,648.7326245000004,,,,,,,,,,,,,,,,019,2022-05-13_15h58.12.709,FishGame,2022.1.1,60.00078000210939,
,4,넌 과감해,3,Orange,A,4.833333333333334,4.6,ScrollDown,ScrollUp,Orange.png,5,Neutral,Neutral,0,0,0,0,,,,,,,,,,,,,,,,,,,,,,,,,,,,,0,3,3,3,,,,,,,,,,,,,,,,,,,,,,,,,,,,,,,,,,,,,,,,,,,,,,,,,,,,,,,,,,,,,,,,,,,,,1.0308642089366913,1.2740790000243578,649.3623533000064,None,ScrollDown,정답입니다,649.3623533000064,None,649.3623533000064,None,649.3623533000064,None,649.3623533000064,None,650.5322053999989,None,650.5322053999989,651.0322776999965,,,,,,,,,,,,,,,,019,2022-05-13_15h58.12.709,FishGame,2022.1.1,60.00078000210939,
,5,넌 고분고분해,3,Green,B,3.75,4.033333333333333,ScrollUp,ScrollDown,Green.png,5,Neutral,Neutral,0,0,0,0,,,,,,,,,,,,,,,,,,,,,,,,,,,,,0,4,4,4,,,,,,,,,,,,,,,,,,,,,,,,,,,,,,,,,,,,,,,,,,,,,,,,,,,,,,,,,,,,,,,,,,,,,1.8719135870536168,1.4115545999957249,651.6519524999894,None,ScrollUp,정답입니다,651.6519524999894,None,651.6519524999894,None,651.6519524999894,None,651.6519524999894,None,652.9686540999974,None,652.9686540999974,653.4854051999864,,,,,,,,,,,,,,,,019,2022-05-13_15h58.12.709,FishGame,2022.1.1,60.00078000210939,
,6,나를 보내줘,6,Orange,A,0,0,ScrollUp,ScrollDown,Orange.png,5,NonTarget,NonTarget,0,0,0,0,,,,,,,,,,,,,,,,,,,,,,,,,,,,,0,5,5,5,,,,,,,,,,,,,,,,,,,,,,,,,,,,,,,,,,,,,,,,,,,,,,,,,,,,,,,,,,,,,,,,,,,,,1.8873456766208012,1.2923554000153672,654.0890774999862,None,ScrollUp,정답입니다,654.0890774999862,None,654.0890774999862,None,654.0890774999862,None,654.0890774999862,None,655.2824397000077,None,655.2824397000077,655.789483600005,,,,,,,,,,,,,,,,019,2022-05-13_15h58.12.709,FishGame,2022.1.1,60.00078000210939,
,7,넌 잘 잊어,4,Orange,A,3,3.7,ScrollDown,ScrollUp,Orange.png,5,Negative,Incongruent,0,0,0,0,,,,,,,,,,,,,,,,,,,,,,,,,,,,,0,6,6,6,,,,,,,,,,,,,,,,,,,,,,,,,,,,,,,,,,,,,,,,,,,,,,,,,,,,,,,,,,,,,,,,,,,,,1.0324074228604634,1.2446387000090908,656.4032935000141,None,ScrollDown,정답입니다,656.4032935000141,None,656.4032935000141,None,656.4032935000141,None,656.4032935000141,None,657.548729400005,None,657.548729400005,658.0488577999931,,,,,,,,,,,,,,,,019,2022-05-13_15h58.12.709,FishGame,2022.1.1,60.00078000210939,
,8,넌 탐구심이없어,4,Green,B,2.833333333333333,3.066666666666667,ScrollUp,ScrollDown,Green.png,5,Negative,Congruent,0,0,0,0,,,,,,,,,,,,,,,,,,,,,,,,,,,,,0,7,7,7,,,,,,,,,,,,,,,,,,,,,,,,,,,,,,,,,,,,,,,,,,,,,,,,,,,,,,,,,,,,,,,,,,,,,1.9320987562338512,1.4590040000039153,658.6721177000145,None,ScrollUp,정답입니다,658.6721177000145,None,658.6721177000145,None,658.6721177000145,None,658.6721177000145,None,660.0324481000134,None,660.0324481000134,660.5353037999885,,,,,,,,,,,,,,,,019,2022-05-13_15h58.12.709,FishGame,2022.1.1,60.00078000210939,
,9,나를 데려가줘,6,Green,B,0,0,ScrollDown,ScrollUp,Green.png,5,NonTarget,NonTarget,0,0,0,0,,,,,,,,,,,,,,,,,,,,,,,,,,,,,0,8,8,8,,,,,,,,,,,,,,,,,,,,,,,,,,,,,,,,,,,,,,,,,,,,,,,,,,,,,,,,,,,,,,,,,,,,,1,1.476854300010018,661.1537782000087,None,ScrollDown,정답입니다,661.1537782000087,None,661.1537782000087,None,661.1537782000087,None,661.1537782000087,None,662.5319600999937,None,662.5319600999937,663.0320345000073,,,,,,,,,,,,,,,,019,2022-05-13_15h58.12.709,FishGame,2022.1.1,60.00078000210939,
,10,넌 참되어,2,Orange,A,6.041666666666664,4.733333333333333,ScrollDown,ScrollUp,Orange.png,5,Positive,Congruent,0,0,0,0,,,,,,,,,,,,,,,,,,,,,,,,,,,,,0,9,9,9,,,,,,,,,,,,,,,,,,,,,,,,,,,,,,,,,,,,,,,,,,,,,,,,,,,,,,,,,,,,,,,,,,,,,1.0524691541989644,1.2281908000004478,663.6498874000099,None,ScrollDown,정답입니다,663.6498874000099,None,663.6498874000099,None,663.6498874000099,None,663.6498874000099,None,664.7819604999968,None,664.7819604999968,665.2820401999925,,,,,,,,,,,,,,,,019,2022-05-13_15h58.12.709,FishGame,2022.1.1,60.00078000210939,
,11,넌 생기있어,1,Green,B,5.875,5.633333333333334,ScrollUp,ScrollDown,Green.png,5,Positive,Incongruent,0,0,0,0,,,,,,,,,,,,,,,,,,,,,,,,,,,,,0,10,10,10,,,,,,,,,,,,,,,,,,,,,,,,,,,,,,,,,,,,,,,,,,,,,,,,,,,,,,,,,,,,,,,,,,,,,1.9938271641731262,1.693640299985418,665.9236626999918,None,ScrollUp,정답입니다,665.9236626999918,None,665.9236626999918,None,665.9236626999918,None,665.9236626999918,None,667.5016526000109,None,667.5016526000109,668.0183663000062,,,,,,,,,,,,,,,,019,2022-05-13_15h58.12.709,FishGame,2022.1.1,60.00078000210939,
,12,넌 비사교적이야,4,Green,B,2.875,2.9,ScrollUp,ScrollDown,Green.png,5,Negative,Congruent,0,0,0,0,,,,,,,,,,,,,,,,,,,,,,,,,,,,,0,11,11,11,,,,,,,,,,,,,,,,,,,,,,,,,,,,,,,,,,,,,,,,,,,,,,,,,,,,,,,,,,,,,,,,,,,,,1.9614197711149852,1.2574556000181474,668.6169500999968,None,ScrollUp,정답입니다,668.6169500999968,None,668.6169500999968,None,668.6169500999968,None,668.6169500999968,None,669.7820446999976,None,669.7820446999976,670.2820923000108,,,,,,,,,,,,,,,,019,2022-05-13_15h58.12.709,FishGame,2022.1.1,60.00078000210939,
,13,나를 데려가줘,6,Green,B,0,0,ScrollDown,ScrollUp,Green.png,5,NonTarget,NonTarget,0,0,0,0,,,,,,,,,,,,,,,,,,,,,,,,,,,,,0,12,12,12,,,,,,,,,,,,,,,,,,,,,,,,,,,,,,,,,,,,,,,,,,,,,,,,,,,,,,,,,,,,,,,,,,,,,1,1.194766400003573,670.9061793999863,None,ScrollDown,정답입니다,670.9061793999863,None,670.9061793999863,None,670.9061793999863,None,670.9061793999863,None,671.998706000013,None,671.998706000013,672.498788900004,,,,,,,,,,,,,,,,019,2022-05-13_15h58.12.709,FishGame,2022.1.1,60.00078000210939,
,14,넌 고독해,4,Orange,A,2.916666666666667,3.233333333333333,ScrollDown,ScrollUp,Orange.png,5,Negative,Incongruent,0,0,0,0,,,,,,,,,,,,,,,,,,,,,,,,,,,,,0,13,13,13,,,,,,,,,,,,,,,,,,,,,,,,,,,,,,,,,,,,,,,,,,,,,,,,,,,,,,,,,,,,,,,,,,,,,1.0725308855374653,1.0954435000021476,673.1164534999989,None,ScrollDown,정답입니다,673.1164534999989,None,673.1164534999989,None,673.1164534999989,None,673.1164534999989,None,674.1153573000047,None,674.1153573000047,674.6153797000006,,,,,,,,,,,,,,,,019,2022-05-13_15h58.12.709,FishGame,2022.1.1,60.00078000210939,
,15,넌 신경질적이야,5,Green,B,2.375,2.233333333333333,ScrollUp,ScrollDown,Green.png,5,Negative,Congruent,0,0,0,0,,,,,,,,,,,,,,,,,,,,,,,,,,,,,0,14,14,14,,,,,,,,,,,,,,,,,,,,,,,,,,,,,,,,,,,,,,,,,,,,,,,,,,,,,,,,,,,,,,,,,,,,,1.8317901243766148,0.9946804000064731,675.2469891000073,None,ScrollUp,정답입니다,675.2469891000073,None,675.2469891000073,None,675.2469891000073,None,675.2469891000073,None,676.1320006999886,None,676.1320006999886,676.6317220999917,,,,,,,,,,,,,,,,019,2022-05-13_15h58.12.709,FishGame,2022.1.1,60.00078000210939,
,16,넌 똑똑해,2,Green,B,5.666666666666667,3.966666666666667,ScrollUp,ScrollDown,Green.png,5,Positive,Incongruent,0,0,0,0,,,,,,,,,,,,,,,,,,,,,,,,,,,,,0,15,15,15,,,,,,,,,,,,,,,,,,,,,,,,,,,,,,,,,,,,,,,,,,,,,,,,,,,,,,,,,,,,,,,,,,,,,2,1.4113725000061095,677.2505555000098,None,ScrollUp,정답입니다,677.2505555000098,None,677.2505555000098,None,677.2505555000098,None,677.2505555000098,None,678.5650206000137,None,678.5650206000137,679.068186199991,,,,,,,,,,,,,,,,019,2022-05-13_15h58.12.709,FishGame,2022.1.1,60.00078000210939,
,17,나를 보내줘,6,Orange,A,0,0,ScrollUp,ScrollDown,Orange.png,5,NonTarget,NonTarget,0,0,0,0,,,,,,,,,,,,,,,,,,,,,,,,,,,,,0,16,16,16,,,,,,,,,,,,,,,,,,,,,,,,,,,,,,,,,,,,,,,,,,,,,,,,,,,,,,,,,,,,,,,,,,,,,1.9475308458010356,1.1448074000072666,679.6837610999937,None,ScrollUp,정답입니다,679.6837610999937,None,679.6837610999937,None,679.6837610999937,None,679.6837610999937,None,680.7318998000119,None,680.7318998000119,681.2347143999941,,,,,,,,,,,,,,,,019,2022-05-13_15h58.12.709,FishGame,2022.1.1,60.00078000210939,
,18,넌 협조적이야,1,Orange,A,5.625,5.666666666666667,ScrollDown,ScrollUp,Orange.png,5,Positive,Congruent,0,0,0,0,,,,,,,,,,,,,,,,,,,,,,,,,,,,,0,17,17,17,,,,,,,,,,,,,,,,,,,,,,,,,,,,,,,,,,,,,,,,,,,,,,,,,,,,,,,,,,,,,,,,,,,,,1.0231481393178303,1.146328300004825,681.8570202999981,None,ScrollDown,정답입니다,681.8570202999981,None,681.8570202999981,None,681.8570202999981,None,681.8570202999981,None,682.898442500009,None,682.898442500009,683.3985156000126,,,,,,,,,,,,,,,,019,2022-05-13_15h58.12.709,FishGame,2022.1.1,60.00078000210939,
,19,나를 데려가줘,6,Green,B,0,0,ScrollDown,ScrollUp,Green.png,5,NonTarget,NonTarget,0,0,0,0,,,,,,,,,,,,,,,,,,,,,,,,,,,,,0,18,18,18,,,,,,,,,,,,,,,,,,,,,,,,,,,,,,,,,,,,,,,,,,,,,,,,,,,,,,,,,,,,,,,,,,,,,1.0864197611808777,1.0779195000068285,684.0178000000014,None,ScrollDown,정답입니다,684.0178000000014,None,684.0178000000014,None,684.0178000000014,None,684.0178000000014,None,684.9984261000063,None,684.9984261000063,685.4985083999927,,,,,,,,,,,,,,,,019,2022-05-13_15h58.12.709,FishGame,2022.1.1,60.00078000210939,
,20,넌 몰인정해,5,Green,B,2.541666666666667,2.066666666666667,ScrollUp,ScrollDown,Green.png,5,Negative,Congruent,0,0,0,0,,,,,,,,,,,,,,,,,,,,,,,,,,,,,0,19,19,19,,,,,,,,,,,,,,,,,,,,,,,,,,,,,,,,,,,,,,,,,,,,,,,,,,,,,,,,,,,,,,,,,,,,,1.9459876318772633,1.0615646000078414,686.1239363999921,None,ScrollUp,정답입니다,686.1239363999921,None,686.1239363999921,None,686.1239363999921,None,686.1239363999921,None,687.0817408000003,None,687.0817408000003,687.5845573999977,,,,,,,,,,,,,,,,019,2022-05-13_15h58.12.709,FishGame,2022.1.1,60.00078000210939,
,21,나를 데려가줘,6,Green,B,0,0,ScrollDown,ScrollUp,Green.png,5,NonTarget,NonTarget,0,0,0,0,,,,,,,,,,,,,,,,,,,,,,,,,,,,,0,20,20,20,,,,,,,,,,,,,,,,,,,,,,,,,,,,,,,,,,,,,,,,,,,,,,,,,,,,,,,,,,,,,,,,,,,,,1.0709876716136932,1.1423377000028268,688.2015578999999,None,ScrollDown,정답입니다,688.2015578999999,None,688.2015578999999,None,688.2015578999999,None,688.2015578999999,None,689.2483934999909,None,689.2483934999909,689.7484421000117,,,,,,,,,,,,,,,,019,2022-05-13_15h58.12.709,FishGame,2022.1.1,60.00078000210939,
,22,넌 순진해,3,Green,B,4.125,4.166666666666667,ScrollUp,ScrollDown,Green.png,5,Neutral,Neutral,0,0,0,0,,,,,,,,,,,,,,,,,,,,,,,,,,,,,0,21,21,21,,,,,,,,,,,,,,,,,,,,,,,,,,,,,,,,,,,,,,,,,,,,,,,,,,,,,,,,,,,,,,,,,,,,,1.703703703979651,1.0124070000019856,690.3664368999889,None,ScrollUp,정답입니다,690.3664368999889,None,690.3664368999889,None,690.3664368999889,None,690.3664368999889,None,691.2816062000056,None,691.2816062000056,691.7816520000051,,,,,,,,,,,,,,,,019,2022-05-13_15h58.12.709,FishGame,2022.1.1,60.00078000210939,
,23,넌 신뢰할만해,1,Orange,A,6.625,5.533333333333333,ScrollDown,ScrollUp,Orange.png,5,Positive,Congruent,0,0,0,0,,,,,,,,,,,,,,,,,,,,,,,,,,,,,0,22,22,22,,,,,,,,,,,,,,,,,,,,,,,,,,,,,,,,,,,,,,,,,,,,,,,,,,,,,,,,,,,,,,,,,,,,,1.09413580596447,0.9784751000115648,692.4051205000142,None,ScrollDown,정답입니다,692.4051205000142,None,692.4051205000142,None,692.4051205000142,None,692.4051205000142,None,693.2815853999928,None,693.2815853999928,693.7816528000112,,,,,,,,,,,,,,,,019,2022-05-13_15h58.12.709,FishGame,2022.1.1,60.00078000210939,
,24,나를 보내줘,6,Orange,A,0,0,ScrollUp,ScrollDown,Orange.png,5,NonTarget,NonTarget,0,0,0,0,,,,,,,,,,,,,,,,,,,,,,,,,,,,,0,23,23,23,,,,,,,,,,,,,,,,,,,,,,,,,,,,,,,,,,,,,,,,,,,,,,,,,,,,,,,,,,,,,,,,,,,,,1.8950617214043934,1.0624639999878127,694.4025445999869,None,ScrollUp,정답입니다,694.4025445999869,None,694.4025445999869,None,694.4025445999869,None,694.4025445999869,None,695.3676268999989,None,695.3676268999989,695.8676999000018,,,,,,,,,,,,,,,,019,2022-05-13_15h58.12.709,FishGame,2022.1.1,60.00078000210939,
,25,넌 인색해,5,Orange,A,2.625,2.233333333333333,ScrollDown,ScrollUp,Orange.png,5,Negative,Incongruent,0,0,0,0,,,,,,,,,,,,,,,,,,,,,,,,,,,,,0,24,24,24,,,,,,,,,,,,,,,,,,,,,,,,,,,,,,,,,,,,,,,,,,,,,,,,,,,,,,,,,,,,,,,,,,,,,1.0663580298423767,0.9425030999991577,696.5051372000016,None,ScrollDown,정답입니다,696.5051372000016,None,696.5051372000016,None,696.5051372000016,None,696.5051372000016,None,697.3511539000028,None,697.3511539000028,697.8678218999994,,,,,,,,,,,,,,,,019,2022-05-13_15h58.12.709,FishGame,2022.1.1,60.00078000210939,
