name,TrialNum,Word,WordCategory,FishType,WordList,WordValence,WordReputation,CorrectResp,IncorrectResp,FishTypeFile,Round,WordType,Condition,LoopforOrange.thisRepN,LoopforOrange.thisTrialN,LoopforOrange.thisN,LoopforOrange.thisIndex,LoopForGreen.thisRepN,LoopForGreen.thisTrialN,LoopForGreen.thisN,LoopForGreen.thisIndex,GreenInstLoop.thisRepN,GreenInstLoop.thisTrialN,GreenInstLoop.thisN,GreenInstLoop.thisIndex,GreenPrac.thisRepN,GreenPrac.thisTrialN,GreenPrac.thisN,GreenPrac.thisIndex,trials_2.thisRepN,trials_2.thisTrialN,trials_2.thisN,trials_2.thisIndex,GreenRound1.thisRepN,GreenRound1.thisTrialN,GreenRound1.thisN,GreenRound1.thisIndex,GreenRound2.thisRepN,GreenRound2.thisTrialN,GreenRound2.thisN,GreenRound2.thisIndex,GreenRound3.thisRepN,GreenRound3.thisTrialN,GreenRound3.thisN,GreenRound3.thisIndex,GreenRound4.thisRepN,GreenRound4.thisTrialN,GreenRound4.thisN,GreenRound4.thisIndex,GreenRound5.thisRepN,GreenRound5.thisTrialN,GreenRound5.thisN,GreenRound5.thisIndex,text_2.started,text_2.stopped,text_3.started,text_3.stopped,key_resp.keys,key_resp.rt,key_resp.started,key_resp.stopped,PassI.started,PassI.stopped,PassInst.keys,PassInst.rt,PassInst.started,PassInst.stopped,mouse_2.x,mouse_2.y,mouse_2.leftButton,mouse_2.midButton,mouse_2.rightButton,mouse_2.started,mouse_2.stopped,image.started,image.stopped,text_5.started,text_5.stopped,text_6.started,text_6.stopped,text_7.started,text_7.stopped,text_8.started,text_8.stopped,slider_3.response,slider_3.rt,slider_3.started,slider_3.stopped,Response_3,Feedback_3,BackGround_3.started,BackGround_3.stopped,Fish_3.started,Fish_3.stopped,WordBox_3.started,WordBox_3.stopped,Words_3.started,Words_3.stopped,BackGround_Feedback_3.started,BackGround_Feedback_3.stopped,Feedbacks_3.started,Feedbacks_3.stopped,Continue_or_not_2.keys,Continue_or_not_2.rt,Continue_or_not_2.started,Continue_or_not_2.stopped,image_4.started,image_4.stopped,mouse_3.x,mouse_3.y,mouse_3.leftButton,mouse_3.midButton,mouse_3.rightButton,mouse_3.started,mouse_3.stopped,startmain.started,startmain.stopped,slider_4.response,slider_4.rt,slider_4.started,slider_4.stopped,Response_4,Feedback_4,BackGround_4.started,BackGround_4.stopped,Fish_4.started,Fish_4.stopped,WordBox_4.started,WordBox_4.stopped,Words_4.started,Words_4.stopped,BackGround_Feedback_4.started,BackGround_Feedback_4.stopped,Feedbacks_4.started,Feedbacks_4.stopped,text.started,text.stopped,break_interval.started,break_interval.stopped,mouse.x,mouse.y,mouse.leftButton,mouse.midButton,mouse.rightButton,mouse.started,mouse.stopped,stratnextround.started,stratnextround.stopped,endgame.started,endgame.stopped,participant,date,expName,psychopyVersion,frameRate,
,,,,,,,,,,,,,,,,,,,,,,,,,,,,,,,,,,,,,,,,,,,,,,,,,,,,,,26.767711000022246,None,26.767711000022246,None,space,1.7084105999965686,27.26554330001818,None,,,,,,,,,,,,,,,,,,,,,,,,,,,,,,,,,,,,,,,,,,,,,,,,,,,,,,,,,,,,,,,,,,,,,,,,,,,,,,,,,,,,,,,,,,020,2022-05-17_11h00.58.805,FishGame,2022.1.1,59.99815206030715,
물고기과제_instruction(참가자용)GreenVersion.mp4,,,,,,,,,,,,,,,,,,0,0,0,0,0,0,0,0,,,,,,,,,,,,,,,,,,,,,,,,,,,,,,,,,,,,,107.62752070001443,None,n,1.7941403000149876,107.62752070001443,None,,,,,,,,,,,,,,,,,,,,,,,,,,,,,,,,,,,,,,,,,,,,,,,,,,,,,,,,,,,,,,,,,,,,,,,,,,,,,,,,,,,,020,2022-05-17_11h00.58.805,FishGame,2022.1.1,59.99815206030715,
,1,넌 교활해,5,Orange,B,2.333333333333333,2.133333333333333,ScrollUp,ScrollDown,Orange.png,practice,,,,,,,0,0,0,0,,,,,0,0,0,0,0,0,0,0,,,,,,,,,,,,,,,,,,,,,,,,,,,,,,,,,,,0.52685183,-0.1388889,1,0,0,0.5156317299697548,None,109.44382230000338,None,116.39162950002356,117.89393859999836,117.92731670002104,118.88044420001097,118.91368860000512,119.87485449999804,119.87485449999804,None,1.7592592686414719,2.286692599998787,121.1767569000076,None,ScrollUp,정답입니다,121.1767569000076,None,121.1767569000076,None,121.1767569000076,None,121.1767569000076,None,123.15784680002253,None,123.15784680002253,123.65796830001636,,,,,,,,,,,,,,,,,,,,,,,,,,,,,,,,,,,,,,,,,,,,,,,,,020,2022-05-17_11h00.58.805,FishGame,2022.1.1,59.99815206030715,
,2,넌 슬기로워,2,Green,A,6.166666666666667,4.1,ScrollDown,ScrollUp,Green.png,practice,,,,,,,0,0,0,0,,,,,0,0,0,0,0,1,1,1,,,,,,,,,,,,,,,,,,,,,,,,,,,,,,,,,,,,,,,,,,,,,,,,,,,,1.1250000099341075,1.1803140999982134,124.28877730001113,None,ScrollDown,정답입니다,124.28877730001113,None,124.28877730001113,None,124.28877730001113,None,124.28877730001113,None,125.36035290002474,None,125.36035290002474,125.86038570001256,,,,,,,,,,,,,,,,,,,,,,,,,,,,,,,,,,,,,,,,,,,,,,,,,020,2022-05-17_11h00.58.805,FishGame,2022.1.1,59.99815206030715,
,3,나를 보내줘,6,Green,A,0,0,ScrollUp,ScrollDown,Green.png,practice,,,,,,,0,0,0,0,,,,,0,0,0,0,0,2,2,2,,,,,,,,,,,,,,,,,,,,,,,,,,,,,,,,,,,,,,,,,,,,,,,,,,,,1.8441358109315236,1.1792802999843843,126.48573230000329,None,ScrollUp,정답입니다,126.48573230000329,None,126.48573230000329,None,126.48573230000329,None,126.48573230000329,None,127.56018410000252,None,127.56018410000252,128.07688320000307,,,,,,,,,,,,,,,,,,,,,,,,,,,,,,,,,,,,,,,,,,,,,,,,,020,2022-05-17_11h00.58.805,FishGame,2022.1.1,59.99815206030715,
,4,나를 데려가줘,6,Orange,B,0,0,ScrollDown,ScrollUp,Orange.png,practice,,,,,,,0,0,0,0,,,,,0,0,0,0,0,3,3,3,,,,,,,,,,,,,,,,,,,,,,,,,,,,,,,,,,,,,,,,,,,,,,,,,,,,1.180555562178294,1.6096131000085734,128.68248129999847,None,ScrollDown,정답입니다,128.68248129999847,None,128.68248129999847,None,128.68248129999847,None,128.68248129999847,None,130.19133090000832,None,130.19133090000832,130.69668850000016,,,,,,,,,,,,,,,,,,,,,,,,,,,,,,,,,,,,,,,,,,,,,,,,,020,2022-05-17_11h00.58.805,FishGame,2022.1.1,59.99815206030715,
,1,넌 교활해,5,Orange,B,2.333333333333333,2.133333333333333,ScrollUp,ScrollDown,Orange.png,practice,,,,,,,0,0,0,0,,,,,0,0,0,0,,,,,,,,,,,,,,,,,,,,,,,,,,,,,,,,,,,,,,,,,,,,,,,,,,,,,,,,,,,,,,,,,,,,,,,,,,n,6.524784899986116,131.1934889999975,None,131.1934889999975,None,,,,,,,,,,,,,,,,,,,,,,,,,,,,,,,,,,,,,,,,,,,020,2022-05-17_11h00.58.805,FishGame,2022.1.1,59.99815206030715,
,1,넌 따뜻해,1,Orange,B,6.083333333333333,5.6,ScrollUp,ScrollDown,Orange.png,1,Positive,Incongruent,,,,,0,0,0,0,,,,,,,,,,,,,0,0,0,0,,,,,,,,,,,,,,,,,,,,,,,,,,,,,,,,,,,,,,,,141.50970230001258,143.0101330000034,143.04344020001008,143.99353430001065,144.04106930000125,144.9909309000068,144.9909309000068,None,,,,,,,,,,,,,,,,,,,,,,,,,0.30925927,-0.21018519,1,0,0,0.3140902300074231,None,137.7432558000146,None,1.7885802586873372,1.846672599989688,146.29440530002466,None,ScrollUp,정답입니다,146.29440530002466,None,146.29440530002466,None,146.29440530002466,None,146.29440530002466,None,147.8352136000176,None,147.8352136000176,148.34073330002138,,,,,,,,,,,,,,,,020,2022-05-17_11h00.58.805,FishGame,2022.1.1,59.99815206030715,
,2,넌 기품있어,2,Orange,B,5.791666666666668,4.5,ScrollUp,ScrollDown,Orange.png,1,Positive,Incongruent,,,,,0,0,0,0,,,,,,,,,,,,,0,1,1,1,,,,,,,,,,,,,,,,,,,,,,,,,,,,,,,,,,,,,,,,,,,,,,,,,,,,,,,,,,,,,,,,,,,,,,,,,,,,,,,,,1.7345678955316544,1.2114897999854293,148.96697080001468,None,ScrollUp,정답입니다,148.96697080001468,None,148.96697080001468,None,148.96697080001468,None,148.96697080001468,None,150.0740141000133,None,150.0740141000133,150.5765459999966,,,,,,,,,,,,,,,,020,2022-05-17_11h00.58.805,FishGame,2022.1.1,59.99815206030715,
,3,나를 보내줘,6,Green,A,0,0,ScrollUp,ScrollDown,Green.png,1,NonTarget,NonTarget,,,,,0,0,0,0,,,,,,,,,,,,,0,2,2,2,,,,,,,,,,,,,,,,,,,,,,,,,,,,,,,,,,,,,,,,,,,,,,,,,,,,,,,,,,,,,,,,,,,,,,,,,,,,,,,,,1.787037044763565,1.262621699977899,151.20585630001733,None,ScrollUp,정답입니다,151.20585630001733,None,151.20585630001733,None,151.20585630001733,None,151.20585630001733,None,152.3598327000218,None,152.3598327000218,152.85731170000508,,,,,,,,,,,,,,,,020,2022-05-17_11h00.58.805,FishGame,2022.1.1,59.99815206030715,
,4,넌 수동적이야,4,Green,A,2.833333333333333,2.933333333333333,ScrollDown,ScrollUp,Green.png,1,Negative,Incongruent,,,,,0,0,0,0,,,,,,,,,,,,,0,3,3,3,,,,,,,,,,,,,,,,,,,,,,,,,,,,,,,,,,,,,,,,,,,,,,,,,,,,,,,,,,,,,,,,,,,,,,,,,,,,,,,,,1.2021604826052983,1.0616350999916904,153.48501270002453,None,ScrollDown,정답입니다,153.48501270002453,None,153.48501270002453,None,153.48501270002453,None,153.48501270002453,None,154.4408358000219,None,154.4408358000219,154.9431298999989,,,,,,,,,,,,,,,,020,2022-05-17_11h00.58.805,FishGame,2022.1.1,59.99815206030715,
,5,넌 사심이 없어,3,Orange,B,4.916666666666666,4.333333333333333,ScrollUp,ScrollDown,Orange.png,1,Neutral,Neutral,,,,,0,0,0,0,,,,,,,,,,,,,0,4,4,4,,,,,,,,,,,,,,,,,,,,,,,,,,,,,,,,,,,,,,,,,,,,,,,,,,,,,,,,,,,,,,,,,,,,,,,,,,,,,,,,,1.6944444452722869,1.4761496999999508,155.5722056000086,None,ScrollUp,정답입니다,155.5722056000086,None,155.5722056000086,None,155.5722056000086,None,155.5722056000086,None,156.94077770001604,None,156.94077770001604,157.44301640000776,,,,,,,,,,,,,,,,020,2022-05-17_11h00.58.805,FishGame,2022.1.1,59.99815206030715,
,6,넌 헤퍼,5,Green,A,2.458333333333334,2.233333333333333,ScrollDown,ScrollUp,Green.png,1,Negative,Incongruent,,,,,0,0,0,0,,,,,,,,,,,,,0,5,5,5,,,,,,,,,,,,,,,,,,,,,,,,,,,,,,,,,,,,,,,,,,,,,,,,,,,,,,,,,,,,,,,,,,,,,,,,,,,,,,,,,1.0895061641931534,1.093191799998749,158.06778350000968,None,ScrollDown,정답입니다,158.06778350000968,None,158.06778350000968,None,158.06778350000968,None,158.06778350000968,None,159.05711580000934,None,159.05711580000934,159.55720160002238,,,,,,,,,,,,,,,,020,2022-05-17_11h00.58.805,FishGame,2022.1.1,59.99815206030715,
,7,넌 말쑥해,3,Green,A,4.833333333333334,4.333333333333333,ScrollDown,ScrollUp,Green.png,1,Neutral,Neutral,,,,,0,0,0,0,,,,,,,,,,,,,0,6,6,6,,,,,,,,,,,,,,,,,,,,,,,,,,,,,,,,,,,,,,,,,,,,,,,,,,,,,,,,,,,,,,,,,,,,,,,,,,,,,,,,,1.0679012437661488,1.0781045999901835,160.1797374000016,None,ScrollDown,정답입니다,160.1797374000016,None,160.1797374000016,None,160.1797374000016,None,160.1797374000016,None,161.15714250001474,None,161.15714250001474,161.65964290002012,,,,,,,,,,,,,,,,020,2022-05-17_11h00.58.805,FishGame,2022.1.1,59.99815206030715,
,8,넌 투덜거려,5,Orange,B,2.541666666666667,2.266666666666667,ScrollUp,ScrollDown,Orange.png,1,Negative,Congruent,,,,,0,0,0,0,,,,,,,,,,,,,0,7,7,7,,,,,,,,,,,,,,,,,,,,,,,,,,,,,,,,,,,,,,,,,,,,,,,,,,,,,,,,,,,,,,,,,,,,,,,,,,,,,,,,,1.634259263674418,1.3964578000013717,162.2901217000035,None,ScrollUp,정답입니다,162.2901217000035,None,162.2901217000035,None,162.2901217000035,None,162.2901217000035,None,163.5762624000199,None,163.5762624000199,164.0762994000106,,,,,,,,,,,,,,,,020,2022-05-17_11h00.58.805,FishGame,2022.1.1,59.99815206030715,
,9,넌 적극적이야,1,Green,A,5.708333333333333,5.533333333333333,ScrollDown,ScrollUp,Green.png,1,Positive,Congruent,,,,,0,0,0,0,,,,,,,,,,,,,0,8,8,8,,,,,,,,,,,,,,,,,,,,,,,,,,,,,,,,,,,,,,,,,,,,,,,,,,,,,,,,,,,,,,,,,,,,,,,,,,,,,,,,,1.160493830839793,1.1096604999911506,164.7049076000112,None,ScrollDown,정답입니다,164.7049076000112,None,164.7049076000112,None,164.7049076000112,None,164.7049076000112,None,165.7072742000164,None,165.7072742000164,166.20948459999636,,,,,,,,,,,,,,,,020,2022-05-17_11h00.58.805,FishGame,2022.1.1,59.99815206030715,
,10,넌 재미없어,4,Orange,B,2.625,2.966666666666667,ScrollUp,ScrollDown,Orange.png,1,Negative,Congruent,,,,,0,0,0,0,,,,,,,,,,,,,0,9,9,9,,,,,,,,,,,,,,,,,,,,,,,,,,,,,,,,,,,,,,,,,,,,,,,,,,,,,,,,,,,,,,,,,,,,,,,,,,,,,,,,,1.7114197611808777,1.1089150999905542,166.83969770002295,None,ScrollUp,정답입니다,166.83969770002295,None,166.83969770002295,None,166.83969770002295,None,166.83969770002295,None,167.84056730000884,None,167.84056730000884,168.34275280000293,,,,,,,,,,,,,,,,020,2022-05-17_11h00.58.805,FishGame,2022.1.1,59.99815206030715,
,11,넌 명석해,2,Green,A,5.875,4.033333333333333,ScrollDown,ScrollUp,Green.png,1,Positive,Congruent,,,,,0,0,0,0,,,,,,,,,,,,,0,10,10,10,,,,,,,,,,,,,,,,,,,,,,,,,,,,,,,,,,,,,,,,,,,,,,,,,,,,,,,,,,,,,,,,,,,,,,,,,,,,,,,,,1.1018518507480621,1.1754803000076208,168.9701249000209,None,ScrollDown,정답입니다,168.9701249000209,None,168.9701249000209,None,168.9701249000209,None,168.9701249000209,None,170.04052180002327,None,170.04052180002327,170.54281569999876,,,,,,,,,,,,,,,,020,2022-05-17_11h00.58.805,FishGame,2022.1.1,59.99815206030715,
,12,나를 데려가줘,6,Orange,B,0,0,ScrollDown,ScrollUp,Orange.png,1,NonTarget,NonTarget,,,,,0,0,0,0,,,,,,,,,,,,,0,11,11,11,,,,,,,,,,,,,,,,,,,,,,,,,,,,,,,,,,,,,,,,,,,,,,,,,,,,,,,,,,,,,,,,,,,,,,,,,,,,,,,,,1.1790123482545216,1.1285787000088021,171.167620000022,None,ScrollDown,정답입니다,171.167620000022,None,171.167620000022,None,171.167620000022,None,171.167620000022,None,172.19018900001538,None,172.19018900001538,172.69027000002097,,,,,,,,,,,,,,,,020,2022-05-17_11h00.58.805,FishGame,2022.1.1,59.99815206030715,
,13,넌 소심해,4,Green,A,3,3.1,ScrollDown,ScrollUp,Green.png,1,Negative,Incongruent,,,,,0,0,0,0,,,,,,,,,,,,,0,12,12,12,,,,,,,,,,,,,,,,,,,,,,,,,,,,,,,,,,,,,,,,,,,,,,,,,,,,,,,,,,,,,,,,,,,,,,,,,,,,,,,,,1.256172845760981,1.1950062999967486,173.31679189999704,None,ScrollDown,정답입니다,173.31679189999704,None,173.31679189999704,None,173.31679189999704,None,173.31679189999704,None,174.40941530000418,None,174.40941530000418,174.90978919999907,,,,,,,,,,,,,,,,020,2022-05-17_11h00.58.805,FishGame,2022.1.1,59.99815206030715,
,14,넌 합리적이야,2,Green,A,5.583333333333333,4.733333333333333,ScrollDown,ScrollUp,Green.png,1,Positive,Congruent,,,,,0,0,0,0,,,,,,,,,,,,,0,13,13,13,,,,,,,,,,,,,,,,,,,,,,,,,,,,,,,,,,,,,,,,,,,,,,,,,,,,,,,,,,,,,,,,,,,,,,,,,,,,,,,,,1.2592592487732568,0.9589322000101674,175.5308609000058,None,ScrollDown,정답입니다,175.5308609000058,None,175.5308609000058,None,175.5308609000058,None,175.5308609000058,None,176.38565710000694,None,176.38565710000694,176.89022020000266,,,,,,,,,,,,,,,,020,2022-05-17_11h00.58.805,FishGame,2022.1.1,59.99815206030715,
,15,넌 무자비해,5,Orange,B,2.333333333333333,2.1,ScrollUp,ScrollDown,Orange.png,1,Negative,Congruent,,,,,0,0,0,0,,,,,,,,,,,,,0,14,14,14,,,,,,,,,,,,,,,,,,,,,,,,,,,,,,,,,,,,,,,,,,,,,,,,,,,,,,,,,,,,,,,,,,,,,,,,,,,,,,,,,1.7592592686414719,0.9781809999840334,177.52000300001237,None,ScrollUp,정답입니다,177.52000300001237,None,177.52000300001237,None,177.52000300001237,None,177.52000300001237,None,178.39010930000222,None,178.39010930000222,178.89019830001052,,,,,,,,,,,,,,,,020,2022-05-17_11h00.58.805,FishGame,2022.1.1,59.99815206030715,
,16,나를 보내줘,6,Green,A,0,0,ScrollUp,ScrollDown,Green.png,1,NonTarget,NonTarget,,,,,0,0,0,0,,,,,,,,,,,,,0,15,15,15,,,,,,,,,,,,,,,,,,,,,,,,,,,,,,,,,,,,,,,,,,,,,,,,,,,,,,,,,,,,,,,,,,,,,,,,,,,,,,,,,1.7947530895471573,0.9282131999789272,179.513463100011,None,ScrollUp,정답입니다,179.513463100011,None,179.513463100011,None,179.513463100011,None,179.513463100011,None,180.3426080000063,None,180.3426080000063,180.84262140002102,,,,,,,,,,,,,,,,020,2022-05-17_11h00.58.805,FishGame,2022.1.1,59.99815206030715,
,17,넌 현실적이야,3,Orange,B,4.608695652173913,4.766666666666667,ScrollUp,ScrollDown,Orange.png,1,Neutral,Neutral,,,,,0,0,0,0,,,,,,,,,,,,,0,16,16,16,,,,,,,,,,,,,,,,,,,,,,,,,,,,,,,,,,,,,,,,,,,,,,,,,,,,,,,,,,,,,,,,,,,,,,,,,,,,,,,,,1.8364197413126628,1.3579966999823228,181.47646659999737,None,ScrollUp,정답입니다,181.47646659999737,None,181.47646659999737,None,181.47646659999737,None,181.47646659999737,None,182.72358730001724,None,182.72358730001724,183.22594709999976,,,,,,,,,,,,,,,,020,2022-05-17_11h00.58.805,FishGame,2022.1.1,59.99815206030715,
,18,넌 의리있어,1,Orange,B,5.833333333333334,5.633333333333334,ScrollUp,ScrollDown,Orange.png,1,Positive,Incongruent,,,,,0,0,0,0,,,,,,,,,,,,,0,17,17,17,,,,,,,,,,,,,,,,,,,,,,,,,,,,,,,,,,,,,,,,,,,,,,,,,,,,,,,,,,,,,,,,,,,,,,,,,,,,,,,,,1.6805555572112403,0.8755412999889813,183.85649679999915,None,ScrollUp,정답입니다,183.85649679999915,None,183.85649679999915,None,183.85649679999915,None,183.85649679999915,None,184.62328300002264,None,184.62328300002264,185.12334320001537,,,,,,,,,,,,,,,,020,2022-05-17_11h00.58.805,FishGame,2022.1.1,59.99815206030715,
,19,넌 신경과민이야,5,Green,A,2.541666666666667,2.166666666666667,ScrollDown,ScrollUp,Green.png,1,Negative,Incongruent,,,,,0,0,0,0,,,,,,,,,,,,,0,18,18,18,,,,,,,,,,,,,,,,,,,,,,,,,,,,,,,,,,,,,,,,,,,,,,,,,,,,,,,,,,,,,,,,,,,,,,,,,,,,,,,,,1.162037044763565,0.9611888999934308,185.7528702999989,None,ScrollDown,정답입니다,185.7528702999989,None,185.7528702999989,None,185.7528702999989,None,185.7528702999989,None,186.60661550000077,None,186.60661550000077,187.10699380000005,,,,,,,,,,,,,,,,020,2022-05-17_11h00.58.805,FishGame,2022.1.1,59.99815206030715,
,20,넌 편안해,1,Green,A,5.916666666666666,5.866666666666666,ScrollDown,ScrollUp,Green.png,1,Positive,Congruent,,,,,0,0,0,0,,,,,,,,,,,,,0,19,19,19,,,,,,,,,,,,,,,,,,,,,,,,,,,,,,,,,,,,,,,,,,,,,,,,,,,,,,,,,,,,,,,,,,,,,,,,,,,,,,,,,1.2407407313585281,0.8276507999980822,187.7324873000034,None,ScrollDown,정답입니다,187.7324873000034,None,187.7324873000034,None,187.7324873000034,None,187.7324873000034,None,188.45908540001255,None,188.45908540001255,188.96221450000303,,,,,,,,,,,,,,,,020,2022-05-17_11h00.58.805,FishGame,2022.1.1,59.99815206030715,
,21,넌 품위있어,2,Orange,B,5.291666666666666,4.466666666666667,ScrollUp,ScrollDown,Orange.png,1,Positive,Incongruent,,,,,0,0,0,0,,,,,,,,,,,,,0,20,20,20,,,,,,,,,,,,,,,,,,,,,,,,,,,,,,,,,,,,,,,,,,,,,,,,,,,,,,,,,,,,,,,,,,,,,,,,,,,,,,,,,1.68364197264115,0.9258301999943797,189.58383670001058,None,ScrollUp,정답입니다,189.58383670001058,None,189.58383670001058,None,189.58383670001058,None,189.58383670001058,None,190.40895969999838,None,190.40895969999838,190.92559250001796,,,,,,,,,,,,,,,,020,2022-05-17_11h00.58.805,FishGame,2022.1.1,59.99815206030715,
,22,넌 빈틈없어,3,Green,A,4.833333333333333,3.966666666666667,ScrollDown,ScrollUp,Green.png,1,Neutral,Neutral,,,,,0,0,0,0,,,,,,,,,,,,,0,21,21,21,,,,,,,,,,,,,,,,,,,,,,,,,,,,,,,,,,,,,,,,,,,,,,,,,,,,,,,,,,,,,,,,,,,,,,,,,,,,,,,,,1.2777777661879859,1.1603276999958325,191.5328489000094,None,ScrollDown,정답입니다,191.5328489000094,None,191.5328489000094,None,191.5328489000094,None,191.5328489000094,None,192.589789700025,None,192.589789700025,193.08986000000732,,,,,,,,,,,,,,,,020,2022-05-17_11h00.58.805,FishGame,2022.1.1,59.99815206030715,
,23,넌 상상력없어,4,Orange,B,2.833333333333333,3.133333333333333,ScrollUp,ScrollDown,Orange.png,1,Negative,Congruent,,,,,0,0,0,0,,,,,,,,,,,,,0,22,22,22,,,,,,,,,,,,,,,,,,,,,,,,,,,,,,,,,,,,,,,,,,,,,,,,,,,,,,,,,,,,,,,,,,,,,,,,,,,,,,,,,1.68364197264115,0.9446280999982264,193.7183992000064,None,ScrollUp,정답입니다,193.7183992000064,None,193.7183992000064,None,193.7183992000064,None,193.7183992000064,None,194.55645660002483,None,194.55645660002483,195.05921610002406,,,,,,,,,,,,,,,,020,2022-05-17_11h00.58.805,FishGame,2022.1.1,59.99815206030715,
,24,넌 지혜로워,2,Orange,B,6.333333333333334,4.633333333333334,ScrollUp,ScrollDown,Orange.png,1,Positive,Incongruent,,,,,0,0,0,0,,,,,,,,,,,,,0,23,23,23,,,,,,,,,,,,,,,,,,,,,,,,,,,,,,,,,,,,,,,,,,,,,,,,,,,,,,,,,,,,,,,,,,,,,,,,,,,,,,,,,1.6882716019948325,0.9833438000059687,195.68285670000478,None,ScrollUp,정답입니다,195.68285670000478,None,195.68285670000478,None,195.68285670000478,None,195.68285670000478,None,196.55898840000737,None,196.55898840000737,197.0588318000082,,,,,,,,,,,,,,,,020,2022-05-17_11h00.58.805,FishGame,2022.1.1,59.99815206030715,
,25,넌 시끄러워,4,Green,A,2.833333333333333,3.033333333333333,ScrollDown,ScrollUp,Green.png,1,Negative,Incongruent,,,,,0,0,0,0,,,,,,,,,,,,,0,24,24,24,,,,,,,,,,,,,,,,,,,,,,,,,,,,,,,,,,,,,,,,,,,,,,,,,,,,,,,,,,,,,,,,,,,,,,,,,,,,,,,,,1.2993827114502587,1.0594829999899957,197.68416240002261,None,ScrollDown,정답입니다,197.68416240002261,None,197.68416240002261,None,197.68416240002261,None,197.68416240002261,None,198.63993560001836,None,198.63993560001836,199.1422265000001,,,,,,,,,,,,,,,,020,2022-05-17_11h00.58.805,FishGame,2022.1.1,59.99815206030715,
,26,넌 만사태평이야,3,Orange,B,4,4.333333333333333,ScrollUp,ScrollDown,Orange.png,1,Neutral,Neutral,,,,,0,0,0,0,,,,,,,,,,,,,0,25,25,25,,,,,,,,,,,,,,,,,,,,,,,,,,,,,,,,,,,,,,,,,,,,,,,,,,,,,,,,,,,,,,,,,,,,,,,,,,,,,,,,,1.7283950646718345,1.048358100000769,199.76398590000463,None,ScrollUp,정답입니다,199.76398590000463,None,199.76398590000463,None,199.76398590000463,None,199.76398590000463,None,200.7065164000087,None,200.7065164000087,201.206631500012,,,,,,,,,,,,,,,,020,2022-05-17_11h00.58.805,FishGame,2022.1.1,59.99815206030715,
,27,넌 붙임성있어,1,Green,A,5.708333333333333,5.633333333333334,ScrollDown,ScrollUp,Green.png,1,Positive,Congruent,,,,,0,0,0,0,,,,,,,,,,,,,0,26,26,26,,,,,,,,,,,,,,,,,,,,,,,,,,,,,,,,,,,,,,,,,,,,,,,,,,,,,,,,,,,,,,,,,,,,,,,,,,,,,,,,,1.3040123408039412,0.8759558000019751,201.83713970001554,None,ScrollDown,정답입니다,201.83713970001554,None,201.83713970001554,None,201.83713970001554,None,201.83713970001554,None,202.60662040000898,None,202.60662040000898,203.1088335000095,,,,,,,,,,,,,,,,020,2022-05-17_11h00.58.805,FishGame,2022.1.1,59.99815206030715,
,28,넌 영리해,2,Green,A,6,4.033333333333333,ScrollDown,ScrollUp,Green.png,1,Positive,Congruent,,,,,0,0,0,0,,,,,,,,,,,,,0,27,27,27,,,,,,,,,,,,,,,,,,,,,,,,,,,,,,,,,,,,,,,,,,,,,,,,,,,,,,,,,,,,,,,,,,,,,,,,,,,,,,,,,1.3024691392978034,0.9277354000078049,203.7340467000031,None,ScrollDown,정답입니다,203.7340467000031,None,203.7340467000031,None,203.7340467000031,None,203.7340467000031,None,204.5561971999996,None,204.5561971999996,205.05630690002,,,,,,,,,,,,,,,,020,2022-05-17_11h00.58.805,FishGame,2022.1.1,59.99815206030715,
,29,넌 열심이야,1,Orange,B,6.041666666666667,5.833333333333333,ScrollUp,ScrollDown,Orange.png,1,Positive,Incongruent,,,,,0,0,0,0,,,,,,,,,,,,,0,28,28,28,,,,,,,,,,,,,,,,,,,,,,,,,,,,,,,,,,,,,,,,,,,,,,,,,,,,,,,,,,,,,,,,,,,,,,,,,,,,,,,,,1.564814817160368,0.8956766999908723,205.67691210002522,None,ScrollUp,정답입니다,205.67691210002522,None,205.67691210002522,None,205.67691210002522,None,205.67691210002522,None,206.4728705000016,None,206.4728705000016,206.97534370000358,,,,,,,,,,,,,,,,020,2022-05-17_11h00.58.805,FishGame,2022.1.1,59.99815206030715,
,30,넌 인기없어,4,Orange,B,3,3.3,ScrollUp,ScrollDown,Orange.png,1,Negative,Congruent,,,,,0,0,0,0,,,,,,,,,,,,,0,29,29,29,,,,,,,,,,,,,,,,,,,,,,,,,,,,,,,,,,,,,,,,,,,,,,,,,,,,,,,,,,,,,,,,,,,,,,,,,,,,,,,,,1.6018518519898257,0.9300769999972545,207.6028961999982,None,ScrollUp,정답입니다,207.6028961999982,None,207.6028961999982,None,207.6028961999982,None,207.6028961999982,None,208.42533670002013,None,208.42533670002013,208.92855240000063,,,,,,,,,,,,,,,,020,2022-05-17_11h00.58.805,FishGame,2022.1.1,59.99815206030715,
,31,넌 익살스러워,3,Green,A,4.708333333333334,4.833333333333333,ScrollDown,ScrollUp,Green.png,1,Neutral,Neutral,,,,,0,0,0,0,,,,,,,,,,,,,0,30,30,30,,,,,,,,,,,,,,,,,,,,,,,,,,,,,,,,,,,,,,,,,,,,,,,,,,,,,,,,,,,,,,,,,,,,,,,,,,,,,,,,,1.2592592487732568,1.5592931999999564,209.54969320000964,None,ScrollDown,정답입니다,209.54969320000964,None,209.54969320000964,None,209.54969320000964,None,209.54969320000964,None,211.006363100023,None,211.006363100023,211.50874920000206,,,,,,,,,,,,,,,,020,2022-05-17_11h00.58.805,FishGame,2022.1.1,59.99815206030715,
,32,넌 이기적이야,5,Orange,B,2.291666666666667,2.333333333333333,ScrollUp,ScrollDown,Orange.png,1,Negative,Congruent,,,,,0,0,0,0,,,,,,,,,,,,,0,31,31,31,,,,,,,,,,,,,,,,,,,,,,,,,,,,,,,,,,,,,,,,,,,,,,,,,,,,,,,,,,,,,,,,,,,,,,,,,,,,,,,,,1.7422839403152466,0.9952928999846336,212.1335985000187,None,ScrollUp,정답입니다,212.1335985000187,None,212.1335985000187,None,212.1335985000187,None,212.1335985000187,None,213.02269939999678,None,213.02269939999678,213.52284570000484,,,,,,,,,,,,,,,,020,2022-05-17_11h00.58.805,FishGame,2022.1.1,59.99815206030715,
,33,나를 데려가줘,6,Orange,B,0,0,ScrollDown,ScrollUp,Orange.png,1,NonTarget,NonTarget,,,,,0,0,0,0,,,,,,,,,,,,,0,32,32,32,,,,,,,,,,,,,,,,,,,,,,,,,,,,,,,,,,,,,,,,,,,,,,,,,,,,,,,,,,,,,,,,,,,,,,,,,,,,,,,,,1.1867283930381138,1.1972551999788266,214.14750210000784,None,ScrollDown,정답입니다,214.14750210000784,None,214.14750210000784,None,214.14750210000784,None,214.14750210000784,None,215.24189760000445,None,215.24189760000445,215.7419091000047,,,,,,,,,,,,,,,,020,2022-05-17_11h00.58.805,FishGame,2022.1.1,59.99815206030715,
,34,넌 기회주의자야,5,Green,A,2.875,2.133333333333333,ScrollDown,ScrollUp,Green.png,1,Negative,Incongruent,,,,,0,0,0,0,,,,,,,,,,,,,0,33,33,33,,,,,,,,,,,,,,,,,,,,,,,,,,,,,,,,,,,,,,,,,,,,,,,,,,,,,,,,,,,,,,,,,,,,,,,,,,,,,,,,,1.2407407313585281,0.9287187999871094,216.36322450000443,None,ScrollDown,정답입니다,216.36322450000443,None,216.36322450000443,None,216.36322450000443,None,216.36322450000443,None,217.1918650000007,None,217.1918650000007,217.69172299999627,,,,,,,,,,,,,,,,020,2022-05-17_11h00.58.805,FishGame,2022.1.1,59.99815206030715,
,1,넌 미성숙해,4,Green,A,3,3.2,ScrollDown,ScrollUp,Green.png,2,Negative,Incongruent,,,,,0,0,0,0,,,,,,,,,,,,,,,,,0,0,0,0,,,,,,,,,,,,,,,,,,,,,,,,,,,,,,,,,,,,249.99098890001187,251.49124360000133,251.52460530001554,252.4746143000084,252.5246227000025,253.47456000000238,253.47456000000238,None,,,,,,,,,,,,,,,,,,,,,,,,,,,,,,,,,,1.2114197413126628,1.1482278000039514,254.57520310001564,None,ScrollDown,정답입니다,254.57520310001564,None,254.57520310001564,None,254.57520310001564,None,254.57520310001564,None,255.62216070000432,None,255.62216070000432,256.1274887000036,218.19178419999662,None,218.19178419999662,None,0.1287037,-0.009259259,1,0,0,0.015783030015882105,None,248.191098100011,None,,,020,2022-05-17_11h00.58.805,FishGame,2022.1.1,59.99815206030715,
,2,넌 반사회적이야,5,Orange,B,2.416666666666667,2.033333333333333,ScrollUp,ScrollDown,Orange.png,2,Negative,Congruent,,,,,0,0,0,0,,,,,,,,,,,,,,,,,0,1,1,1,,,,,,,,,,,,,,,,,,,,,,,,,,,,,,,,,,,,,,,,,,,,,,,,,,,,,,,,,,,,,,,,,,,,,,,,,,,,,1.6404320945342383,0.960988200007705,256.75008340002387,None,ScrollUp,정답입니다,256.75008340002387,None,256.75008340002387,None,256.75008340002387,None,256.75008340002387,None,257.60544740001205,None,257.60544740001205,258.10771690000547,,,,,,,,,,,,,,,,020,2022-05-17_11h00.58.805,FishGame,2022.1.1,59.99815206030715,
,3,넌 유능해,2,Green,A,6.208333333333333,4.433333333333334,ScrollDown,ScrollUp,Green.png,2,Positive,Congruent,,,,,0,0,0,0,,,,,,,,,,,,,,,,,0,2,2,2,,,,,,,,,,,,,,,,,,,,,,,,,,,,,,,,,,,,,,,,,,,,,,,,,,,,,,,,,,,,,,,,,,,,,,,,,,,,,1.2314814726511638,0.8758395999902859,258.732877500006,None,ScrollDown,정답입니다,258.732877500006,None,258.732877500006,None,258.732877500006,None,258.732877500006,None,259.5075396000175,None,259.5075396000175,260.00766850000946,,,,,,,,,,,,,,,,020,2022-05-17_11h00.58.805,FishGame,2022.1.1,59.99815206030715,
,4,넌 능숙해,2,Orange,B,5.666666666666667,4.733333333333333,ScrollUp,ScrollDown,Orange.png,2,Positive,Incongruent,,,,,0,0,0,0,,,,,,,,,,,,,,,,,0,3,3,3,,,,,,,,,,,,,,,,,,,,,,,,,,,,,,,,,,,,,,,,,,,,,,,,,,,,,,,,,,,,,,,,,,,,,,,,,,,,,1.5910493855675063,0.8254742000135593,260.63242870001704,None,ScrollUp,정답입니다,260.63242870001704,None,260.63242870001704,None,260.63242870001704,None,260.63242870001704,None,261.35505650000414,None,261.35505650000414,261.85514860000694,,,,,,,,,,,,,,,,020,2022-05-17_11h00.58.805,FishGame,2022.1.1,59.99815206030715,
,5,넌 진부해,4,Orange,B,2.458333333333333,3.166666666666667,ScrollUp,ScrollDown,Orange.png,2,Negative,Congruent,,,,,0,0,0,0,,,,,,,,,,,,,,,,,0,4,4,4,,,,,,,,,,,,,,,,,,,,,,,,,,,,,,,,,,,,,,,,,,,,,,,,,,,,,,,,,,,,,,,,,,,,,,,,,,,,,1.7067901194095612,0.8447828000062145,262.4809472000052,None,ScrollUp,정답입니다,262.4809472000052,None,262.4809472000052,None,262.4809472000052,None,262.4809472000052,None,263.22175029999926,None,263.22175029999926,263.72186960000545,,,,,,,,,,,,,,,,020,2022-05-17_11h00.58.805,FishGame,2022.1.1,59.99815206030715,
,6,나를 보내줘,6,Green,A,0,0,ScrollUp,ScrollDown,Green.png,2,NonTarget,NonTarget,,,,,0,0,0,0,,,,,,,,,,,,,,,,,0,5,5,5,,,,,,,,,,,,,,,,,,,,,,,,,,,,,,,,,,,,,,,,,,,,,,,,,,,,,,,,,,,,,,,,,,,,,,,,,,,,,1.7808641890684764,1.2469759000232443,264.34144410002045,None,ScrollUp,정답입니다,264.34144410002045,None,264.34144410002045,None,264.34144410002045,None,264.34144410002045,None,265.49094290001085,None,265.49094290001085,265.9907260000182,,,,,,,,,,,,,,,,020,2022-05-17_11h00.58.805,FishGame,2022.1.1,59.99815206030715,
,7,넌 엄격해,3,Green,A,4.166666666666666,4.1,ScrollDown,ScrollUp,Green.png,2,Neutral,Neutral,,,,,0,0,0,0,,,,,,,,,,,,,,,,,0,6,6,6,,,,,,,,,,,,,,,,,,,,,,,,,,,,,,,,,,,,,,,,,,,,,,,,,,,,,,,,,,,,,,,,,,,,,,,,,,,,,1.2854938358068466,0.9422122999967542,266.6184118000092,None,ScrollDown,정답입니다,266.6184118000092,None,266.6184118000092,None,266.6184118000092,None,266.6184118000092,None,267.4552382999973,None,267.4552382999973,267.9574755000067,,,,,,,,,,,,,,,,020,2022-05-17_11h00.58.805,FishGame,2022.1.1,59.99815206030715,
,8,나를 보내줘,6,Green,A,0,0,ScrollUp,ScrollDown,Green.png,2,NonTarget,NonTarget,,,,,0,0,0,0,,,,,,,,,,,,,,,,,0,7,7,7,,,,,,,,,,,,,,,,,,,,,,,,,,,,,,,,,,,,,,,,,,,,,,,,,,,,,,,,,,,,,,,,,,,,,,,,,,,,,1.5293209869414568,0.8591605999972671,268.5803247000149,None,NoResponse,무응답입니다,268.5803247000149,None,268.5803247000149,None,268.5803247000149,None,268.5803247000149,None,269.3384854000178,None,269.3384854000178,269.84063950000564,,,,,,,,,,,,,,,,020,2022-05-17_11h00.58.805,FishGame,2022.1.1,59.99815206030715,
,9,넌 대담해,3,Orange,B,4.875,4.866666666666666,ScrollUp,ScrollDown,Orange.png,2,Neutral,Neutral,,,,,0,0,0,0,,,,,,,,,,,,,,,,,0,8,8,8,,,,,,,,,,,,,,,,,,,,,,,,,,,,,,,,,,,,,,,,,,,,,,,,,,,,,,,,,,,,,,,,,,,,,,,,,,,,,1.594135800997416,2.544667300011497,270.46408920001704,None,ScrollUp,정답입니다,270.46408920001704,None,270.46408920001704,None,270.46408920001704,None,270.46408920001704,None,272.90723110002,None,272.90723110002,273.40518310002517,,,,,,,,,,,,,,,,020,2022-05-17_11h00.58.805,FishGame,2022.1.1,59.99815206030715,
,10,넌 꾸준해,1,Green,A,5.916666666666668,5.8,ScrollDown,ScrollUp,Green.png,2,Positive,Congruent,,,,,0,0,0,0,,,,,,,,,,,,,,,,,0,9,9,9,,,,,,,,,,,,,,,,,,,,,,,,,,,,,,,,,,,,,,,,,,,,,,,,,,,,,,,,,,,,,,,,,,,,,,,,,,,,,1.2283950696388881,1.0421409999835305,274.03215230000205,None,ScrollDown,정답입니다,274.03215230000205,None,274.03215230000205,None,274.03215230000205,None,274.03215230000205,None,274.9716948000132,None,274.9716948000132,275.47175110000535,,,,,,,,,,,,,,,,020,2022-05-17_11h00.58.805,FishGame,2022.1.1,59.99815206030715,
,11,나를 데려가줘,6,Orange,B,0,0,ScrollDown,ScrollUp,Orange.png,2,NonTarget,NonTarget,,,,,0,0,0,0,,,,,,,,,,,,,,,,,0,10,10,10,,,,,,,,,,,,,,,,,,,,,,,,,,,,,,,,,,,,,,,,,,,,,,,,,,,,,,,,,,,,,,,,,,,,,,,,,,,,,1.1558641890684764,1.2111799999838695,276.09797100001015,None,ScrollDown,정답입니다,276.09797100001015,None,276.09797100001015,None,276.09797100001015,None,276.09797100001015,None,277.2050238000229,None,277.2050238000229,277.7051769000245,,,,,,,,,,,,,,,,020,2022-05-17_11h00.58.805,FishGame,2022.1.1,59.99815206030715,
,12,넌 독선적이야,5,Green,A,2.458333333333333,1.933333333333333,ScrollDown,ScrollUp,Green.png,2,Negative,Incongruent,,,,,0,0,0,0,,,,,,,,,,,,,,,,,0,11,11,11,,,,,,,,,,,,,,,,,,,,,,,,,,,,,,,,,,,,,,,,,,,,,,,,,,,,,,,,,,,,,,,,,,,,,,,,,,,,,1.2515432039896646,1.0554463999869768,278.33472470002016,None,ScrollDown,정답입니다,278.33472470002016,None,278.33472470002016,None,278.33472470002016,None,278.33472470002016,None,279.28359649999766,None,279.28359649999766,279.78812320000725,,,,,,,,,,,,,,,,020,2022-05-17_11h00.58.805,FishGame,2022.1.1,59.99815206030715,
,13,나를 보내줘,6,Green,A,0,0,ScrollUp,ScrollDown,Green.png,2,NonTarget,NonTarget,,,,,0,0,0,0,,,,,,,,,,,,,,,,,0,12,12,12,,,,,,,,,,,,,,,,,,,,,,,,,,,,,,,,,,,,,,,,,,,,,,,,,,,,,,,,,,,,,,,,,,,,,,,,,,,,,1.679012343287468,1.0950718999956734,280.4104796000174,None,ScrollUp,정답입니다,280.4104796000174,None,280.4104796000174,None,280.4104796000174,None,280.4104796000174,None,281.4047359999968,None,281.4047359999968,281.9048438000027,,,,,,,,,,,,,,,,020,2022-05-17_11h00.58.805,FishGame,2022.1.1,59.99815206030715,
,14,넌 책임감있어,1,Orange,B,6.347826086956522,6,ScrollUp,ScrollDown,Orange.png,2,Positive,Incongruent,,,,,0,0,0,0,,,,,,,,,,,,,,,,,0,13,13,13,,,,,,,,,,,,,,,,,,,,,,,,,,,,,,,,,,,,,,,,,,,,,,,,,,,,,,,,,,,,,,,,,,,,,,,,,,,,,1.6697530845801034,1.0760006000055,282.5418578000099,None,ScrollUp,정답입니다,282.5418578000099,None,282.5418578000099,None,282.5418578000099,None,282.5418578000099,None,283.50719120001304,None,283.50719120001304,284.0106477000227,,,,,,,,,,,,,,,,020,2022-05-17_11h00.58.805,FishGame,2022.1.1,59.99815206030715,
,15,넌 문학적이야,3,Green,A,4.708333333333334,4.333333333333333,ScrollDown,ScrollUp,Green.png,2,Neutral,Neutral,,,,,0,0,0,0,,,,,,,,,,,,,,,,,0,14,14,14,,,,,,,,,,,,,,,,,,,,,,,,,,,,,,,,,,,,,,,,,,,,,,,,,,,,,,,,,,,,,,,,,,,,,,,,,,,,,1.2777777661879859,0.925899699999718,284.634973200009,None,ScrollDown,정답입니다,284.634973200009,None,284.634973200009,None,284.634973200009,None,284.634973200009,None,285.4571224000247,None,285.4571224000247,285.95712690000073,,,,,,,,,,,,,,,,020,2022-05-17_11h00.58.805,FishGame,2022.1.1,59.99815206030715,
,16,넌 재미있어,1,Orange,B,5.875,5.7,ScrollUp,ScrollDown,Orange.png,2,Positive,Incongruent,,,,,0,0,0,0,,,,,,,,,,,,,,,,,0,15,15,15,,,,,,,,,,,,,,,,,,,,,,,,,,,,,,,,,,,,,,,,,,,,,,,,,,,,,,,,,,,,,,,,,,,,,,,,,,,,,1.7839506169160206,1.67466359998798,286.58274990000064,None,ScrollUp,정답입니다,286.58274990000064,None,286.58274990000064,None,286.58274990000064,None,286.58274990000064,None,288.15484030000516,None,288.15484030000516,288.65700980002293,,,,,,,,,,,,,,,,020,2022-05-17_11h00.58.805,FishGame,2022.1.1,59.99815206030715,
,17,나를 데려가줘,6,Orange,B,0,0,ScrollDown,ScrollUp,Orange.png,2,NonTarget,NonTarget,,,,,0,0,0,0,,,,,,,,,,,,,,,,,0,16,16,16,,,,,,,,,,,,,,,,,,,,,,,,,,,,,,,,,,,,,,,,,,,,,,,,,,,,,,,,,,,,,,,,,,,,,,,,,,,,,1.276234577099482,1.4590050000115298,289.2825744000147,None,ScrollDown,정답입니다,289.2825744000147,None,289.2825744000147,None,289.2825744000147,None,289.2825744000147,None,290.6402922999987,None,290.6402922999987,291.1403772000049,,,,,,,,,,,,,,,,020,2022-05-17_11h00.58.805,FishGame,2022.1.1,59.99815206030715,
,18,넌 협력적이야,1,Green,A,5.625,5.633333333333334,ScrollDown,ScrollUp,Green.png,2,Positive,Congruent,,,,,0,0,0,0,,,,,,,,,,,,,,,,,0,17,17,17,,,,,,,,,,,,,,,,,,,,,,,,,,,,,,,,,,,,,,,,,,,,,,,,,,,,,,,,,,,,,,,,,,,,,,,,,,,,,1.3194444427887597,0.8771964000188746,291.76303680002457,None,ScrollDown,정답입니다,291.76303680002457,None,291.76303680002457,None,291.76303680002457,None,291.76303680002457,None,292.54016770000453,None,292.54016770000453,293.0548159000173,,,,,,,,,,,,,,,,020,2022-05-17_11h00.58.805,FishGame,2022.1.1,59.99815206030715,
,19,넌 평범해,3,Orange,B,4.333333333333332,4.233333333333333,ScrollUp,ScrollDown,Orange.png,2,Neutral,Neutral,,,,,0,0,0,0,,,,,,,,,,,,,,,,,0,18,18,18,,,,,,,,,,,,,,,,,,,,,,,,,,,,,,,,,,,,,,,,,,,,,,,,,,,,,,,,,,,,,,,,,,,,,,,,,,,,,1.5354938271145024,1.0116463000013027,293.6824760000163,None,NoResponse,무응답입니다,293.6824760000163,None,293.6824760000163,None,293.6824760000163,None,293.6824760000163,None,294.58804260002216,None,294.58804260002216,295.0902404000226,,,,,,,,,,,,,,,,020,2022-05-17_11h00.58.805,FishGame,2022.1.1,59.99815206030715,
,20,넌 오만해,5,Green,A,2.333333333333333,2,ScrollDown,ScrollUp,Green.png,2,Negative,Incongruent,,,,,0,0,0,0,,,,,,,,,,,,,,,,,0,19,19,19,,,,,,,,,,,,,,,,,,,,,,,,,,,,,,,,,,,,,,,,,,,,,,,,,,,,,,,,,,,,,,,,,,,,,,,,,,,,,1.2191358109315236,1.0587025999848265,295.7165801000083,None,ScrollDown,정답입니다,295.7165801000083,None,295.7165801000083,None,295.7165801000083,None,295.7165801000083,None,296.671017900022,None,296.671017900022,297.171121899999,,,,,,,,,,,,,,,,020,2022-05-17_11h00.58.805,FishGame,2022.1.1,59.99815206030715,
,21,넌 운이없어,4,Orange,B,3,3.466666666666667,ScrollUp,ScrollDown,Orange.png,2,Negative,Congruent,,,,,0,0,0,0,,,,,,,,,,,,,,,,,0,20,20,20,,,,,,,,,,,,,,,,,,,,,,,,,,,,,,,,,,,,,,,,,,,,,,,,,,,,,,,,,,,,,,,,,,,,,,,,,,,,,1.743827154239019,1.0123645999992732,297.79263050001464,None,ScrollUp,정답입니다,297.79263050001464,None,297.79263050001464,None,297.79263050001464,None,297.79263050001464,None,298.7068649000139,None,298.7068649000139,299.206894700008,,,,,,,,,,,,,,,,020,2022-05-17_11h00.58.805,FishGame,2022.1.1,59.99815206030715,
,22,넌 창조적이야,2,Orange,B,6.125,4.633333333333334,ScrollUp,ScrollDown,Orange.png,2,Positive,Incongruent,,,,,0,0,0,0,,,,,,,,,,,,,,,,,0,21,21,21,,,,,,,,,,,,,,,,,,,,,,,,,,,,,,,,,,,,,,,,,,,,,,,,,,,,,,,,,,,,,,,,,,,,,,,,,,,,,1.839506169160207,0.8651591000088956,299.83109069999773,None,ScrollUp,정답입니다,299.83109069999773,None,299.83109069999773,None,299.83109069999773,None,299.83109069999773,None,300.59019879999687,None,300.59019879999687,301.08764060001704,,,,,,,,,,,,,,,,020,2022-05-17_11h00.58.805,FishGame,2022.1.1,59.99815206030715,
,23,나를 보내줘,6,Green,A,0,0,ScrollUp,ScrollDown,Green.png,2,NonTarget,NonTarget,,,,,0,0,0,0,,,,,,,,,,,,,,,,,0,22,22,22,,,,,,,,,,,,,,,,,,,,,,,,,,,,,,,,,,,,,,,,,,,,,,,,,,,,,,,,,,,,,,,,,,,,,,,,,,,,,1.7839506169160206,1.1922442000068258,301.71426850001444,None,ScrollUp,정답입니다,301.71426850001444,None,301.71426850001444,None,301.71426850001444,None,301.71426850001444,None,302.8066896000237,None,302.8066896000237,303.3070843000023,,,,,,,,,,,,,,,,020,2022-05-17_11h00.58.805,FishGame,2022.1.1,59.99815206030715,
,24,넌 통찰력있어,2,Green,A,6.5,4.8,ScrollDown,ScrollUp,Green.png,2,Positive,Congruent,,,,,0,0,0,0,,,,,,,,,,,,,,,,,0,23,23,23,,,,,,,,,,,,,,,,,,,,,,,,,,,,,,,,,,,,,,,,,,,,,,,,,,,,,,,,,,,,,,,,,,,,,,,,,,,,,1.2175925970077515,0.9762471000140067,303.93406710002455,None,ScrollDown,정답입니다,303.93406710002455,None,303.93406710002455,None,303.93406710002455,None,303.93406710002455,None,304.804251100024,None,304.804251100024,305.30428170002415,,,,,,,,,,,,,,,,020,2022-05-17_11h00.58.805,FishGame,2022.1.1,59.99815206030715,
,25,넌 경솔해,5,Orange,B,2.458333333333333,2.266666666666667,ScrollUp,ScrollDown,Orange.png,2,Negative,Congruent,,,,,0,0,0,0,,,,,,,,,,,,,,,,,0,24,24,24,,,,,,,,,,,,,,,,,,,,,,,,,,,,,,,,,,,,,,,,,,,,,,,,,,,,,,,,,,,,,,,,,,,,,,,,,,,,,1.7716049303611119,1.0472434000112116,305.9327164000133,None,ScrollUp,정답입니다,305.9327164000133,None,305.9327164000133,None,305.9327164000133,None,305.9327164000133,None,306.8734476000245,None,306.8734476000245,307.3737563000177,,,,,,,,,,,,,,,,020,2022-05-17_11h00.58.805,FishGame,2022.1.1,59.99815206030715,
,26,넌 초조해,4,Green,A,2.916666666666667,3.133333333333333,ScrollDown,ScrollUp,Green.png,2,Negative,Incongruent,,,,,0,0,0,0,,,,,,,,,,,,,,,,,0,25,25,25,,,,,,,,,,,,,,,,,,,,,,,,,,,,,,,,,,,,,,,,,,,,,,,,,,,,,,,,,,,,,,,,,,,,,,,,,,,,,1.2623456766208014,1.0800530000124127,308.00409110001056,None,ScrollDown,정답입니다,308.00409110001056,None,308.00409110001056,None,308.00409110001056,None,308.00409110001056,None,308.97318749999977,None,308.97318749999977,309.4898527000041,,,,,,,,,,,,,,,,020,2022-05-17_11h00.58.805,FishGame,2022.1.1,59.99815206030715,
,27,넌 무관심해,4,Orange,B,2.833333333333333,2.9,ScrollUp,ScrollDown,Orange.png,2,Negative,Congruent,,,,,0,0,0,0,,,,,,,,,,,,,,,,,0,26,26,26,,,,,,,,,,,,,,,,,,,,,,,,,,,,,,,,,,,,,,,,,,,,,,,,,,,,,,,,,,,,,,,,,,,,,,,,,,,,,1.7885802586873372,0.9094050999847241,310.11882820000756,None,ScrollUp,정답입니다,310.11882820000756,None,310.11882820000756,None,310.11882820000756,None,310.11882820000756,None,310.9210465000069,None,310.9210465000069,311.4210316000099,,,,,,,,,,,,,,,,020,2022-05-17_11h00.58.805,FishGame,2022.1.1,59.99815206030715,
,28,넌 감성적이야,3,Orange,B,4.125,4.166666666666667,ScrollUp,ScrollDown,Orange.png,2,Neutral,Neutral,,,,,0,0,0,0,,,,,,,,,,,,,,,,,0,27,27,27,,,,,,,,,,,,,,,,,,,,,,,,,,,,,,,,,,,,,,,,,,,,,,,,,,,,,,,,,,,,,,,,,,,,,,,,,,,,,1.8456790000200272,0.8617801999789663,312.0479366000218,None,ScrollUp,정답입니다,312.0479366000218,None,312.0479366000218,None,312.0479366000218,None,312.0479366000218,None,312.80647440001485,None,312.80647440001485,313.30651300001773,,,,,,,,,,,,,,,,020,2022-05-17_11h00.58.805,FishGame,2022.1.1,59.99815206030715,
,29,넌 배려심있어,1,Green,A,6.083333333333333,5.5,ScrollDown,ScrollUp,Green.png,2,Positive,Congruent,,,,,0,0,0,0,,,,,,,,,,,,,,,,,0,28,28,28,,,,,,,,,,,,,,,,,,,,,,,,,,,,,,,,,,,,,,,,,,,,,,,,,,,,,,,,,,,,,,,,,,,,,,,,,,,,,1.3317901293436685,0.8091155999863986,313.9310022999998,None,ScrollDown,정답입니다,313.9310022999998,None,313.9310022999998,None,313.9310022999998,None,313.9310022999998,None,314.63983500000904,None,314.63983500000904,315.1376295000082,,,,,,,,,,,,,,,,020,2022-05-17_11h00.58.805,FishGame,2022.1.1,59.99815206030715,
,30,넌 숨김없어,3,Green,A,4.5,4.933333333333334,ScrollDown,ScrollUp,Green.png,2,Neutral,Neutral,,,,,0,0,0,0,,,,,,,,,,,,,,,,,0,29,29,29,,,,,,,,,,,,,,,,,,,,,,,,,,,,,,,,,,,,,,,,,,,,,,,,,,,,,,,,,,,,,,,,,,,,,,,,,,,,,1.1527777860562007,0.8259607999934815,315.76400029999786,None,ScrollDown,정답입니다,315.76400029999786,None,315.76400029999786,None,315.76400029999786,None,315.76400029999786,None,316.4876049000013,None,316.4876049000013,316.9876138000109,,,,,,,,,,,,,,,,020,2022-05-17_11h00.58.805,FishGame,2022.1.1,59.99815206030715,
,31,넌 훌륭해,2,Orange,B,5.916666666666667,4.033333333333333,ScrollUp,ScrollDown,Orange.png,2,Positive,Incongruent,,,,,0,0,0,0,,,,,,,,,,,,,,,,,0,30,30,30,,,,,,,,,,,,,,,,,,,,,,,,,,,,,,,,,,,,,,,,,,,,,,,,,,,,,,,,,,,,,,,,,,,,,,,,,,,,,1.9799382885297139,0.9921721999999136,317.61984040000243,None,ScrollUp,정답입니다,317.61984040000243,None,317.61984040000243,None,317.61984040000243,None,317.61984040000243,None,318.5063706000219,None,318.5063706000219,319.0042113000236,,,,,,,,,,,,,,,,020,2022-05-17_11h00.58.805,FishGame,2022.1.1,59.99815206030715,
,32,넌 슬기로워,2,Green,A,6.166666666666667,4.1,ScrollDown,ScrollUp,Green.png,2,Positive,Congruent,,,,,0,0,0,0,,,,,,,,,,,,,,,,,0,31,31,31,,,,,,,,,,,,,,,,,,,,,,,,,,,,,,,,,,,,,,,,,,,,,,,,,,,,,,,,,,,,,,,,,,,,,,,,,,,,,1.0725308855374653,0.8756254999898374,319.6345648000133,None,ScrollDown,정답입니다,319.6345648000133,None,319.6345648000133,None,319.6345648000133,None,319.6345648000133,None,320.4038806000026,None,320.4038806000026,320.90399220000836,,,,,,,,,,,,,,,,020,2022-05-17_11h00.58.805,FishGame,2022.1.1,59.99815206030715,
,33,넌 냉혹해,5,Green,A,2.583333333333333,2.1,ScrollDown,ScrollUp,Green.png,2,Negative,Incongruent,,,,,0,0,0,0,,,,,,,,,,,,,,,,,0,32,32,32,,,,,,,,,,,,,,,,,,,,,,,,,,,,,,,,,,,,,,,,,,,,,,,,,,,,,,,,,,,,,,,,,,,,,,,,,,,,,1.10030863682429,0.9783451999828685,321.5298875000153,None,ScrollDown,정답입니다,321.5298875000153,None,321.5298875000153,None,321.5298875000153,None,321.5298875000153,None,322.40640150001855,None,322.40640150001855,322.90640510001685,,,,,,,,,,,,,,,,020,2022-05-17_11h00.58.805,FishGame,2022.1.1,59.99815206030715,
,34,나를 데려가줘,6,Orange,B,0,0,ScrollDown,ScrollUp,Orange.png,2,NonTarget,NonTarget,,,,,0,0,0,0,,,,,,,,,,,,,,,,,0,33,33,33,,,,,,,,,,,,,,,,,,,,,,,,,,,,,,,,,,,,,,,,,,,,,,,,,,,,,,,,,,,,,,,,,,,,,,,,,,,,,1,1.3128977000014856,323.52864610002143,None,ScrollDown,정답입니다,323.52864610002143,None,323.52864610002143,None,323.52864610002143,None,323.52864610002143,None,324.73970570001984,None,324.73970570001984,325.24283550001564,,,,,,,,,,,,,,,,020,2022-05-17_11h00.58.805,FishGame,2022.1.1,59.99815206030715,
,35,넌 편파적이야,5,Orange,B,2.125,2,ScrollUp,ScrollDown,Orange.png,2,Negative,Congruent,,,,,0,0,0,0,,,,,,,,,,,,,,,,,0,34,34,34,,,,,,,,,,,,,,,,,,,,,,,,,,,,,,,,,,,,,,,,,,,,,,,,,,,,,,,,,,,,,,,,,,,,,,,,,,,,,1.9120370248953502,1.0287544999737293,325.86254480000935,None,ScrollUp,정답입니다,325.86254480000935,None,325.86254480000935,None,325.86254480000935,None,325.86254480000935,None,326.787390100013,None,326.787390100013,327.2896697000251,,,,,,,,,,,,,,,,020,2022-05-17_11h00.58.805,FishGame,2022.1.1,59.99815206030715,
,36,넌 슬퍼,4,Green,A,2.583333333333333,3.066666666666667,ScrollDown,ScrollUp,Green.png,2,Negative,Incongruent,,,,,0,0,0,0,,,,,,,,,,,,,,,,,0,35,35,35,,,,,,,,,,,,,,,,,,,,,,,,,,,,,,,,,,,,,,,,,,,,,,,,,,,,,,,,,,,,,,,,,,,,,,,,,,,,,1.080246905485789,0.8927093000093009,327.91287820000434,None,ScrollDown,정답입니다,327.91287820000434,None,327.91287820000434,None,327.91287820000434,None,327.91287820000434,None,328.7037126000214,None,328.7037126000214,329.2038463000208,,,,,,,,,,,,,,,,020,2022-05-17_11h00.58.805,FishGame,2022.1.1,59.99815206030715,
,37,나를 데려가줘,6,Orange,B,0,0,ScrollDown,ScrollUp,Orange.png,2,NonTarget,NonTarget,,,,,0,0,0,0,,,,,,,,,,,,,,,,,0,36,36,36,,,,,,,,,,,,,,,,,,,,,,,,,,,,,,,,,,,,,,,,,,,,,,,,,,,,,,,,,,,,,,,,,,,,,,,,,,,,,1.162037044763565,1.2448083000199404,329.8269615000172,None,ScrollDown,정답입니다,329.8269615000172,None,329.8269615000172,None,329.8269615000172,None,329.8269615000172,None,330.9729109000182,None,330.9729109000182,331.4729425999976,,,,,,,,,,,,,,,,020,2022-05-17_11h00.58.805,FishGame,2022.1.1,59.99815206030715,
,38,넌 친절해,1,Orange,B,6.041666666666667,5.533333333333333,ScrollUp,ScrollDown,Orange.png,2,Positive,Incongruent,,,,,0,0,0,0,,,,,,,,,,,,,,,,,0,37,37,37,,,,,,,,,,,,,,,,,,,,,,,,,,,,,,,,,,,,,,,,,,,,,,,,,,,,,,,,,,,,,,,,,,,,,,,,,,,,,1.9645061492919922,1.3088437000114936,332.10037150001153,None,ScrollUp,정답입니다,332.10037150001153,None,332.10037150001153,None,332.10037150001153,None,332.10037150001153,None,333.30362120000063,None,333.30362120000063,333.8037658999965,,,,,,,,,,,,,,,,020,2022-05-17_11h00.58.805,FishGame,2022.1.1,59.99815206030715,
,1,넌 엉성해,4,Green,A,3,3.3,ScrollDown,ScrollUp,Green.png,3,Negative,Incongruent,,,,,0,0,0,0,,,,,,,,,,,,,,,,,,,,,0,0,0,0,,,,,,,,,,,,,,,,,,,,,,,,,,,,,,,,365.836632200022,367.3367124000215,367.3722994000127,368.3258573000203,368.3587360000238,369.3222824000113,369.3222824000113,None,,,,,,,,,,,,,,,,,,,,,,,,,,,,,,,,,,1.2253086417913437,1.0723434000101406,370.4399933000095,None,ScrollDown,정답입니다,370.4399933000095,None,370.4399933000095,None,370.4399933000095,None,370.4399933000095,None,371.4031394000049,None,371.4031394000049,371.90545330001623,334.3036976000003,None,334.3036976000003,None,0.07777778,-0.16111112,1,0,0,0.016051229991717264,None,364.30542550000246,None,,,020,2022-05-17_11h00.58.805,FishGame,2022.1.1,59.99815206030715,
,2,나를 보내줘,6,Green,A,0,0,ScrollUp,ScrollDown,Green.png,3,NonTarget,NonTarget,,,,,0,0,0,0,,,,,,,,,,,,,,,,,,,,,0,1,1,1,,,,,,,,,,,,,,,,,,,,,,,,,,,,,,,,,,,,,,,,,,,,,,,,,,,,,,,,,,,,,,,,,,,,,,,,,1.7206790198882422,1.0090216000098735,372.5293792000157,None,ScrollUp,정답입니다,372.5293792000157,None,372.5293792000157,None,372.5293792000157,None,372.5293792000157,None,373.43646300002,None,373.43646300002,373.93706110000494,,,,,,,,,,,,,,,,020,2022-05-17_11h00.58.805,FishGame,2022.1.1,59.99815206030715,
,3,넌 활발해,1,Orange,B,5.666666666666667,5.6,ScrollUp,ScrollDown,Orange.png,3,Positive,Incongruent,,,,,0,0,0,0,,,,,,,,,,,,,,,,,,,,,0,2,2,2,,,,,,,,,,,,,,,,,,,,,,,,,,,,,,,,,,,,,,,,,,,,,,,,,,,,,,,,,,,,,,,,,,,,,,,,,2,1.1770543000020552,374.56374800001504,None,ScrollUp,정답입니다,374.56374800001504,None,374.56374800001504,None,374.56374800001504,None,374.56374800001504,None,375.6363739000226,None,375.6363739000226,376.1385800999997,,,,,,,,,,,,,,,,020,2022-05-17_11h00.58.805,FishGame,2022.1.1,59.99815206030715,
,4,넌 논리적이야,2,Green,A,5.666666666666666,4.633333333333334,ScrollDown,ScrollUp,Green.png,3,Positive,Congruent,,,,,0,0,0,0,,,,,,,,,,,,,,,,,,,,,0,3,3,3,,,,,,,,,,,,,,,,,,,,,,,,,,,,,,,,,,,,,,,,,,,,,,,,,,,,,,,,,,,,,,,,,,,,,,,,,1.2253086417913437,0.809137499978533,376.77169049999793,None,ScrollDown,정답입니다,376.77169049999793,None,376.77169049999793,None,376.77169049999793,None,376.77169049999793,None,377.4697051999974,None,377.4697051999974,377.97197020001477,,,,,,,,,,,,,,,,020,2022-05-17_11h00.58.805,FishGame,2022.1.1,59.99815206030715,
,5,넌 과묵해,3,Green,A,3.875,4.4,ScrollDown,ScrollUp,Green.png,3,Neutral,Neutral,,,,,0,0,0,0,,,,,,,,,,,,,,,,,,,,,0,4,4,4,,,,,,,,,,,,,,,,,,,,,,,,,,,,,,,,,,,,,,,,,,,,,,,,,,,,,,,,,,,,,,,,,,,,,,,,,1.1712963034709294,0.8256854000210296,378.6065324000083,None,ScrollDown,정답입니다,378.6065324000083,None,378.6065324000083,None,378.6065324000083,None,378.6065324000083,None,379.3196264000144,None,379.3196264000144,379.8218257999979,,,,,,,,,,,,,,,,020,2022-05-17_11h00.58.805,FishGame,2022.1.1,59.99815206030715,
,6,나를 데려가줘,6,Orange,B,0,0,ScrollDown,ScrollUp,Orange.png,3,NonTarget,NonTarget,,,,,0,0,0,0,,,,,,,,,,,,,,,,,,,,,0,5,5,5,,,,,,,,,,,,,,,,,,,,,,,,,,,,,,,,,,,,,,,,,,,,,,,,,,,,,,,,,,,,,,,,,,,,,,,,,1.253086417913437,0.9601941999862902,380.4427105000068,None,ScrollDown,정답입니다,380.4427105000068,None,380.4427105000068,None,380.4427105000068,None,380.4427105000068,None,381.3051005000016,None,381.3051005000016,381.8217604000238,,,,,,,,,,,,,,,,020,2022-05-17_11h00.58.805,FishGame,2022.1.1,59.99815206030715,
,7,넌 미숙해,4,Orange,B,3,3,ScrollUp,ScrollDown,Orange.png,3,Negative,Congruent,,,,,0,0,0,0,,,,,,,,,,,,,,,,,,,,,0,6,6,6,,,,,,,,,,,,,,,,,,,,,,,,,,,,,,,,,,,,,,,,,,,,,,,,,,,,,,,,,,,,,,,,,,,,,,,,,1.8472222139437993,0.9922370999993291,382.4309439000208,None,ScrollUp,정답입니다,382.4309439000208,None,382.4309439000208,None,382.4309439000208,None,382.4309439000208,None,383.3217300000251,None,383.3217300000251,383.83630039999844,,,,,,,,,,,,,,,,020,2022-05-17_11h00.58.805,FishGame,2022.1.1,59.99815206030715,
,8,나를 보내줘,6,Green,A,0,0,ScrollUp,ScrollDown,Green.png,3,NonTarget,NonTarget,,,,,0,0,0,0,,,,,,,,,,,,,,,,,,,,,0,7,7,7,,,,,,,,,,,,,,,,,,,,,,,,,,,,,,,,,,,,,,,,,,,,,,,,,,,,,,,,,,,,,,,,,,,,,,,,,1.9182098805904388,1.0280935000046156,384.4566877000034,None,ScrollUp,정답입니다,384.4566877000034,None,384.4566877000034,None,384.4566877000034,None,384.4566877000034,None,385.3860407000175,None,385.3860407000175,385.88839880001615,,,,,,,,,,,,,,,,020,2022-05-17_11h00.58.805,FishGame,2022.1.1,59.99815206030715,
,9,넌 자신만만해,3,Orange,B,4.833333333333334,4.333333333333333,ScrollUp,ScrollDown,Orange.png,3,Neutral,Neutral,,,,,0,0,0,0,,,,,,,,,,,,,,,,,,,,,0,8,8,8,,,,,,,,,,,,,,,,,,,,,,,,,,,,,,,,,,,,,,,,,,,,,,,,,,,,,,,,,,,,,,,,,,,,,,,,,1.9537037014961243,1.077785400004359,386.51221310000983,None,ScrollUp,정답입니다,386.51221310000983,None,386.51221310000983,None,386.51221310000983,None,386.51221310000983,None,387.4883100000152,None,387.4883100000152,387.9915521000221,,,,,,,,,,,,,,,,020,2022-05-17_11h00.58.805,FishGame,2022.1.1,59.99815206030715,
,10,넌 탐욕스러워,5,Green,A,2.25,2.1,ScrollDown,ScrollUp,Green.png,3,Negative,Incongruent,,,,,0,0,0,0,,,,,,,,,,,,,,,,,,,,,0,9,9,9,,,,,,,,,,,,,,,,,,,,,,,,,,,,,,,,,,,,,,,,,,,,,,,,,,,,,,,,,,,,,,,,,,,,,,,,,1.2777777661879859,0.9255655000160914,388.6213776000077,None,ScrollDown,정답입니다,388.6213776000077,None,388.6213776000077,None,388.6213776000077,None,388.6213776000077,None,389.4382245000161,None,389.4382245000161,389.9528820000123,,,,,,,,,,,,,,,,020,2022-05-17_11h00.58.805,FishGame,2022.1.1,59.99815206030715,
,11,넌 인기있어,2,Green,A,5.458333333333333,4.5,ScrollDown,ScrollUp,Green.png,3,Positive,Congruent,,,,,0,0,0,0,,,,,,,,,,,,,,,,,,,,,0,10,10,10,,,,,,,,,,,,,,,,,,,,,,,,,,,,,,,,,,,,,,,,,,,,,,,,,,,,,,,,,,,,,,,,,,,,,,,,,1.2268518557151158,0.7922804999980144,390.56230140000116,None,ScrollDown,정답입니다,390.56230140000116,None,390.56230140000116,None,390.56230140000116,None,390.56230140000116,None,391.2549081000034,None,391.2549081000034,391.7529146000161,,,,,,,,,,,,,,,,020,2022-05-17_11h00.58.805,FishGame,2022.1.1,59.99815206030715,
,12,나를 데려가줘,6,Orange,B,0,0,ScrollDown,ScrollUp,Orange.png,3,NonTarget,NonTarget,,,,,0,0,0,0,,,,,,,,,,,,,,,,,,,,,0,11,11,11,,,,,,,,,,,,,,,,,,,,,,,,,,,,,,,,,,,,,,,,,,,,,,,,,,,,,,,,,,,,,,,,,,,,,,,,,1.2700617214043937,1.1257982999959495,392.37937390001025,None,ScrollDown,정답입니다,392.37937390001025,None,392.37937390001025,None,392.37937390001025,None,392.37937390001025,None,393.4026522000204,None,393.4026522000204,393.9027158000099,,,,,,,,,,,,,,,,020,2022-05-17_11h00.58.805,FishGame,2022.1.1,59.99815206030715,
,13,넌 뛰어나,2,Orange,B,6.166666666666667,4,ScrollUp,ScrollDown,Orange.png,3,Positive,Incongruent,,,,,0,0,0,0,,,,,,,,,,,,,,,,,,,,,0,12,12,12,,,,,,,,,,,,,,,,,,,,,,,,,,,,,,,,,,,,,,,,,,,,,,,,,,,,,,,,,,,,,,,,,,,,,,,,,1.7407407512267432,0.8256281000212766,394.5337661000085,None,ScrollUp,정답입니다,394.5337661000085,None,394.5337661000085,None,394.5337661000085,None,394.5337661000085,None,395.25267250000616,None,395.25267250000616,395.75490840000566,,,,,,,,,,,,,,,,020,2022-05-17_11h00.58.805,FishGame,2022.1.1,59.99815206030715,
,14,넌 낙관적이야,1,Green,A,5.75,5.8,ScrollDown,ScrollUp,Green.png,3,Positive,Congruent,,,,,0,0,0,0,,,,,,,,,,,,,,,,,,,,,0,13,13,13,,,,,,,,,,,,,,,,,,,,,,,,,,,,,,,,,,,,,,,,,,,,,,,,,,,,,,,,,,,,,,,,,,,,,,,,,1.1959876517454784,1.08361280002282,396.38200620000134,None,ScrollDown,정답입니다,396.38200620000134,None,396.38200620000134,None,396.38200620000134,None,396.38200620000134,None,397.3628062000207,None,397.3628062000207,397.86929990001954,,,,,,,,,,,,,,,,020,2022-05-17_11h00.58.805,FishGame,2022.1.1,59.99815206030715,
,15,넌 산만해,4,Orange,B,2.695652173913043,3.033333333333333,ScrollUp,ScrollDown,Orange.png,3,Negative,Congruent,,,,,0,0,0,0,,,,,,,,,,,,,,,,,,,,,0,14,14,14,,,,,,,,,,,,,,,,,,,,,,,,,,,,,,,,,,,,,,,,,,,,,,,,,,,,,,,,,,,,,,,,,,,,,,,,,1.7376543233791986,1.0781166999950074,398.50352610001573,None,ScrollUp,정답입니다,398.50352610001573,None,398.50352610001573,None,398.50352610001573,None,398.50352610001573,None,399.471364099998,None,399.471364099998,399.986015100003,,,,,,,,,,,,,,,,020,2022-05-17_11h00.58.805,FishGame,2022.1.1,59.99815206030715,
,16,나를 보내줘,6,Green,A,0,0,ScrollUp,ScrollDown,Green.png,3,NonTarget,NonTarget,,,,,0,0,0,0,,,,,,,,,,,,,,,,,,,,,0,15,15,15,,,,,,,,,,,,,,,,,,,,,,,,,,,,,,,,,,,,,,,,,,,,,,,,,,,,,,,,,,,,,,,,,,,,,,,,,1.7824074029922485,1.1258198999857996,400.61087460001,None,ScrollUp,정답입니다,400.61087460001,None,400.61087460001,None,400.61087460001,None,400.61087460001,None,401.6380566000007,None,401.6380566000007,402.1382215000049,,,,,,,,,,,,,,,,020,2022-05-17_11h00.58.805,FishGame,2022.1.1,59.99815206030715,
,17,넌 교활해,5,Orange,B,2.333333333333333,2.133333333333333,ScrollUp,ScrollDown,Orange.png,3,Negative,Congruent,,,,,0,0,0,0,,,,,,,,,,,,,,,,,,,,,0,16,16,16,,,,,,,,,,,,,,,,,,,,,,,,,,,,,,,,,,,,,,,,,,,,,,,,,,,,,,,,,,,,,,,,,,,,,,,,,1.7700617164373398,1.160110099997837,402.7660136000195,None,ScrollUp,정답입니다,402.7660136000195,None,402.7660136000195,None,402.7660136000195,None,402.7660136000195,None,403.8188758000033,None,403.8188758000033,404.3189790000033,,,,,,,,,,,,,,,,020,2022-05-17_11h00.58.805,FishGame,2022.1.1,59.99815206030715,
,18,나를 보내줘,6,Green,A,0,0,ScrollUp,ScrollDown,Green.png,3,NonTarget,NonTarget,,,,,0,0,0,0,,,,,,,,,,,,,,,,,,,,,0,17,17,17,,,,,,,,,,,,,,,,,,,,,,,,,,,,,,,,,,,,,,,,,,,,,,,,,,,,,,,,,,,,,,,,,,,,,,,,,1.9074074079593022,0.9473615000024438,404.9419185000006,None,ScrollUp,정답입니다,404.9419185000006,None,404.9419185000006,None,404.9419185000006,None,404.9419185000006,None,405.7880807000038,None,405.7880807000038,406.2881205000158,,,,,,,,,,,,,,,,020,2022-05-17_11h00.58.805,FishGame,2022.1.1,59.99815206030715,
,19,넌 불친절해,5,Orange,B,2.208333333333333,2.033333333333333,ScrollUp,ScrollDown,Orange.png,3,Negative,Congruent,,,,,0,0,0,0,,,,,,,,,,,,,,,,,,,,,0,18,18,18,,,,,,,,,,,,,,,,,,,,,,,,,,,,,,,,,,,,,,,,,,,,,,,,,,,,,,,,,,,,,,,,,,,,,,,,,1.766975313425064,1.043713300023228,406.9124965000083,None,ScrollUp,정답입니다,406.9124965000083,None,406.9124965000083,None,406.9124965000083,None,406.9124965000083,None,407.8524137000204,None,407.8524137000204,408.3547361000092,,,,,,,,,,,,,,,,020,2022-05-17_11h00.58.805,FishGame,2022.1.1,59.99815206030715,
,20,넌 지적이야,2,Orange,B,5.75,4.366666666666666,ScrollUp,ScrollDown,Orange.png,3,Positive,Incongruent,,,,,0,0,0,0,,,,,,,,,,,,,,,,,,,,,0,19,19,19,,,,,,,,,,,,,,,,,,,,,,,,,,,,,,,,,,,,,,,,,,,,,,,,,,,,,,,,,,,,,,,,,,,,,,,,,1.8425925970077515,0.9467137999890838,408.9747972000041,None,ScrollUp,정답입니다,408.9747972000041,None,408.9747972000041,None,408.9747972000041,None,408.9747972000041,None,409.8190672000055,None,409.8190672000055,410.3212870999996,,,,,,,,,,,,,,,,020,2022-05-17_11h00.58.805,FishGame,2022.1.1,59.99815206030715,
,21,넌 우유부단해,4,Green,A,2.666666666666667,3.166666666666667,ScrollDown,ScrollUp,Green.png,3,Negative,Incongruent,,,,,0,0,0,0,,,,,,,,,,,,,,,,,,,,,0,20,20,20,,,,,,,,,,,,,,,,,,,,,,,,,,,,,,,,,,,,,,,,,,,,,,,,,,,,,,,,,,,,,,,,,,,,,,,,,1.1373456716537476,0.9274331000051461,410.9512821000244,None,ScrollDown,정답입니다,410.9512821000244,None,410.9512821000244,None,410.9512821000244,None,410.9512821000244,None,411.76873860001797,None,411.76873860001797,412.268831399997,,,,,,,,,,,,,,,,020,2022-05-17_11h00.58.805,FishGame,2022.1.1,59.99815206030715,
,22,나를 데려가줘,6,Orange,B,0,0,ScrollDown,ScrollUp,Orange.png,3,NonTarget,NonTarget,,,,,0,0,0,0,,,,,,,,,,,,,,,,,,,,,0,21,21,21,,,,,,,,,,,,,,,,,,,,,,,,,,,,,,,,,,,,,,,,,,,,,,,,,,,,,,,,,,,,,,,,,,,,,,,,,1.1898148208856583,1.0281995999976061,412.89241729999776,None,ScrollDown,정답입니다,412.89241729999776,None,412.89241729999776,None,412.89241729999776,None,412.89241729999776,None,413.81873340002494,None,413.81873340002494,414.32127280000714,,,,,,,,,,,,,,,,020,2022-05-17_11h00.58.805,FishGame,2022.1.1,59.99815206030715,
,23,넌 성실해,1,Orange,B,6.041666666666666,5.7,ScrollUp,ScrollDown,Orange.png,3,Positive,Incongruent,,,,,0,0,0,0,,,,,,,,,,,,,,,,,,,,,0,22,22,22,,,,,,,,,,,,,,,,,,,,,,,,,,,,,,,,,,,,,,,,,,,,,,,,,,,,,,,,,,,,,,,,,,,,,,,,,1.6851851865649223,0.9291772000142373,414.93964910000795,None,ScrollUp,정답입니다,414.93964910000795,None,414.93964910000795,None,414.93964910000795,None,414.93964910000795,None,415.7712650000176,None,415.7712650000176,416.27114480000455,,,,,,,,,,,,,,,,020,2022-05-17_11h00.58.805,FishGame,2022.1.1,59.99815206030715,
,24,넌 현실주의적이야,3,Green,A,4.625,4.4,ScrollDown,ScrollUp,Green.png,3,Neutral,Neutral,,,,,0,0,0,0,,,,,,,,,,,,,,,,,,,,,0,23,23,23,,,,,,,,,,,,,,,,,,,,,,,,,,,,,,,,,,,,,,,,,,,,,,,,,,,,,,,,,,,,,,,,,,,,,,,,,1.212962955236435,0.9113871000008658,416.89050380000845,None,ScrollDown,정답입니다,416.89050380000845,None,416.89050380000845,None,416.89050380000845,None,416.89050380000845,None,417.7022384000011,None,417.7022384000011,418.20445940000354,,,,,,,,,,,,,,,,020,2022-05-17_11h00.58.805,FishGame,2022.1.1,59.99815206030715,
,25,넌 진실돼,1,Green,A,6.625,5.566666666666666,ScrollDown,ScrollUp,Green.png,3,Positive,Congruent,,,,,0,0,0,0,,,,,,,,,,,,,,,,,,,,,0,24,24,24,,,,,,,,,,,,,,,,,,,,,,,,,,,,,,,,,,,,,,,,,,,,,,,,,,,,,,,,,,,,,,,,,,,,,,,,,1.2376543283462524,0.8583786000090186,418.8311351000157,None,ScrollDown,정답입니다,418.8311351000157,None,418.8311351000157,None,418.8311351000157,None,418.8311351000157,None,419.5855737000238,None,419.5855737000238,420.0853677999985,,,,,,,,,,,,,,,,020,2022-05-17_11h00.58.805,FishGame,2022.1.1,59.99815206030715,
,26,넌 천진난만해,3,Orange,B,4.958333333333334,4.833333333333333,ScrollUp,ScrollDown,Orange.png,3,Neutral,Neutral,,,,,0,0,0,0,,,,,,,,,,,,,,,,,,,,,0,25,25,25,,,,,,,,,,,,,,,,,,,,,,,,,,,,,,,,,,,,,,,,,,,,,,,,,,,,,,,,,,,,,,,,,,,,,,,,,1.663580241302649,0.9279067000024952,420.71188149999944,None,ScrollUp,정답입니다,420.71188149999944,None,420.71188149999944,None,420.71188149999944,None,420.71188149999944,None,421.53524720002315,None,421.53524720002315,422.0377632000018,,,,,,,,,,,,,,,,020,2022-05-17_11h00.58.805,FishGame,2022.1.1,59.99815206030715,
,27,넌 교양없어,5,Green,A,2.416666666666667,2.2,ScrollDown,ScrollUp,Green.png,3,Negative,Incongruent,,,,,0,0,0,0,,,,,,,,,,,,,,,,,,,,,0,26,26,26,,,,,,,,,,,,,,,,,,,,,,,,,,,,,,,,,,,,,,,,,,,,,,,,,,,,,,,,,,,,,,,,,,,,,,,,,1.2037036965290706,0.9943262999877334,422.6595174999966,None,ScrollDown,정답입니다,422.6595174999966,None,422.6595174999966,None,422.6595174999966,None,422.6595174999966,None,423.5543651000189,None,423.5543651000189,424.07093800001894,,,,,,,,,,,,,,,,020,2022-05-17_11h00.58.805,FishGame,2022.1.1,59.99815206030715,
,28,나를 보내줘,6,Green,A,0,0,ScrollUp,ScrollDown,Green.png,3,NonTarget,NonTarget,,,,,0,0,0,0,,,,,,,,,,,,,,,,,,,,,0,27,27,27,,,,,,,,,,,,,,,,,,,,,,,,,,,,,,,,,,,,,,,,,,,,,,,,,,,,,,,,,,,,,,,,,,,,,,,,,1.799382706483205,1.1092263000027742,424.67363960001967,None,ScrollUp,정답입니다,424.67363960001967,None,424.67363960001967,None,424.67363960001967,None,424.67363960001967,None,425.6875473000109,None,425.6875473000109,426.20431319999625,,,,,,,,,,,,,,,,020,2022-05-17_11h00.58.805,FishGame,2022.1.1,59.99815206030715,
,29,넌 엉뚱스러워,3,Green,A,4.166666666666667,4.133333333333334,ScrollDown,ScrollUp,Green.png,3,Neutral,Neutral,,,,,0,0,0,0,,,,,,,,,,,,,,,,,,,,,0,28,28,28,,,,,,,,,,,,,,,,,,,,,,,,,,,,,,,,,,,,,,,,,,,,,,,,,,,,,,,,,,,,,,,,,,,,,,,,,1.2993827114502587,1.1611962000024505,426.8157362000202,None,ScrollDown,정답입니다,426.8157362000202,None,426.8157362000202,None,426.8157362000202,None,426.8157362000202,None,427.87073860000237,None,427.87073860000237,428.36900930001866,,,,,,,,,,,,,,,,020,2022-05-17_11h00.58.805,FishGame,2022.1.1,59.99815206030715,
,30,넌 무지해,4,Orange,B,2.541666666666667,3.066666666666667,ScrollUp,ScrollDown,Orange.png,3,Negative,Congruent,,,,,0,0,0,0,,,,,,,,,,,,,,,,,,,,,0,29,29,29,,,,,,,,,,,,,,,,,,,,,,,,,,,,,,,,,,,,,,,,,,,,,,,,,,,,,,,,,,,,,,,,,,,,,,,,,1.6234567910432816,1.0090863000077661,428.99308200000087,None,ScrollUp,정답입니다,428.99308200000087,None,428.99308200000087,None,428.99308200000087,None,428.99308200000087,None,429.90197080001235,None,429.90197080001235,430.4023215000052,,,,,,,,,,,,,,,,020,2022-05-17_11h00.58.805,FishGame,2022.1.1,59.99815206030715,
,31,넌 음울해,5,Orange,B,2.25,2.233333333333333,ScrollUp,ScrollDown,Orange.png,3,Negative,Congruent,,,,,0,0,0,0,,,,,,,,,,,,,,,,,,,,,0,30,30,30,,,,,,,,,,,,,,,,,,,,,,,,,,,,,,,,,,,,,,,,,,,,,,,,,,,,,,,,,,,,,,,,,,,,,,,,,1.7546296268701553,0.8614575999963563,431.02564480001456,None,ScrollUp,정답입니다,431.02564480001456,None,431.02564480001456,None,431.02564480001456,None,431.02564480001456,None,431.78750659999787,None,431.78750659999787,432.30208280001534,,,,,,,,,,,,,,,,020,2022-05-17_11h00.58.805,FishGame,2022.1.1,59.99815206030715,
,32,넌 냉소적이야,5,Green,A,2.916666666666667,2.4,ScrollDown,ScrollUp,Green.png,3,Negative,Incongruent,,,,,0,0,0,0,,,,,,,,,,,,,,,,,,,,,0,31,31,31,,,,,,,,,,,,,,,,,,,,,,,,,,,,,,,,,,,,,,,,,,,,,,,,,,,,,,,,,,,,,,,,,,,,,,,,,1.1867283930381138,0.9929678000044078,432.92403650001506,None,ScrollDown,정답입니다,432.92403650001506,None,432.92403650001506,None,432.92403650001506,None,432.92403650001506,None,433.818536900013,None,433.818536900013,434.3186678000202,,,,,,,,,,,,,,,,020,2022-05-17_11h00.58.805,FishGame,2022.1.1,59.99815206030715,
,33,나를 데려가줘,6,Orange,B,0,0,ScrollDown,ScrollUp,Orange.png,3,NonTarget,NonTarget,,,,,0,0,0,0,,,,,,,,,,,,,,,,,,,,,0,32,32,32,,,,,,,,,,,,,,,,,,,,,,,,,,,,,,,,,,,,,,,,,,,,,,,,,,,,,,,,,,,,,,,,,,,,,,,,,1.2222222139437993,1.159314100019401,434.94624820002355,None,ScrollDown,정답입니다,434.94624820002355,None,434.94624820002355,None,434.94624820002355,None,434.94624820002355,None,436.0040348000184,None,436.0040348000184,436.5042504000012,,,,,,,,,,,,,,,,020,2022-05-17_11h00.58.805,FishGame,2022.1.1,59.99815206030715,
,34,넌 쾌활해,1,Green,A,5.541666666666666,5.733333333333333,ScrollDown,ScrollUp,Green.png,3,Positive,Congruent,,,,,0,0,0,0,,,,,,,,,,,,,,,,,,,,,0,33,33,33,,,,,,,,,,,,,,,,,,,,,,,,,,,,,,,,,,,,,,,,,,,,,,,,,,,,,,,,,,,,,,,,,,,,,,,,,1.2237654278675716,0.8922994999738876,437.13046420001774,None,ScrollDown,정답입니다,437.13046420001774,None,437.13046420001774,None,437.13046420001774,None,437.13046420001774,None,437.9206688000122,None,437.9206688000122,438.41849540002295,,,,,,,,,,,,,,,,020,2022-05-17_11h00.58.805,FishGame,2022.1.1,59.99815206030715,
,35,나를 보내줘,6,Green,A,0,0,ScrollUp,ScrollDown,Green.png,3,NonTarget,NonTarget,,,,,0,0,0,0,,,,,,,,,,,,,,,,,,,,,0,34,34,34,,,,,,,,,,,,,,,,,,,,,,,,,,,,,,,,,,,,,,,,,,,,,,,,,,,,,,,,,,,,,,,,,,,,,,,,,1.6959876591960588,0.7758669999893755,439.0421165000007,None,ScrollUp,정답입니다,439.0421165000007,None,439.0421165000007,None,439.0421165000007,None,439.0421165000007,None,439.7184807000158,None,439.7184807000158,440.2207189000037,,,,,,,,,,,,,,,,020,2022-05-17_11h00.58.805,FishGame,2022.1.1,59.99815206030715,
,36,넌 명랑해,1,Orange,B,5.739130434782609,5.666666666666667,ScrollUp,ScrollDown,Orange.png,3,Positive,Incongruent,,,,,0,0,0,0,,,,,,,,,,,,,,,,,,,,,0,35,35,35,,,,,,,,,,,,,,,,,,,,,,,,,,,,,,,,,,,,,,,,,,,,,,,,,,,,,,,,,,,,,,,,,,,,,,,,,1.6126543184121451,0.9278962000098545,440.85144540001056,None,ScrollUp,정답입니다,440.85144540001056,None,440.85144540001056,None,440.85144540001056,None,440.85144540001056,None,441.6684318000043,None,441.6684318000043,442.16870010001,,,,,,,,,,,,,,,,020,2022-05-17_11h00.58.805,FishGame,2022.1.1,59.99815206030715,
,37,넌 멍해,4,Green,A,2.833333333333333,3.4,ScrollDown,ScrollUp,Green.png,3,Negative,Incongruent,,,,,0,0,0,0,,,,,,,,,,,,,,,,,,,,,0,36,36,36,,,,,,,,,,,,,,,,,,,,,,,,,,,,,,,,,,,,,,,,,,,,,,,,,,,,,,,,,,,,,,,,,,,,,,,,,1.2052469104528427,0.9926221999921836,442.7934179000149,None,ScrollDown,정답입니다,442.7934179000149,None,442.7934179000149,None,442.7934179000149,None,442.7934179000149,None,443.68720730001223,None,443.68720730001223,444.18727870000293,,,,,,,,,,,,,,,,020,2022-05-17_11h00.58.805,FishGame,2022.1.1,59.99815206030715,
,38,나를 데려가줘,6,Orange,B,0,0,ScrollDown,ScrollUp,Orange.png,3,NonTarget,NonTarget,,,,,0,0,0,0,,,,,,,,,,,,,,,,,,,,,0,37,37,37,,,,,,,,,,,,,,,,,,,,,,,,,,,,,,,,,,,,,,,,,,,,,,,,,,,,,,,,,,,,,,,,,,,,,,,,,1.2746913631757102,1.0932082000072114,444.8141838000156,None,ScrollDown,정답입니다,444.8141838000156,None,444.8141838000156,None,444.8141838000156,None,444.8141838000156,None,445.8013768000237,None,445.8013768000237,446.30152500001714,,,,,,,,,,,,,,,,020,2022-05-17_11h00.58.805,FishGame,2022.1.1,59.99815206030715,
,39,넌 현명해,2,Green,A,6.541666666666666,4.533333333333333,ScrollDown,ScrollUp,Green.png,3,Positive,Congruent,,,,,0,0,0,0,,,,,,,,,,,,,,,,,,,,,0,38,38,38,,,,,,,,,,,,,,,,,,,,,,,,,,,,,,,,,,,,,,,,,,,,,,,,,,,,,,,,,,,,,,,,,,,,,,,,,1.2746913631757102,1.0294542000046931,446.9198632000189,None,ScrollDown,정답입니다,446.9198632000189,None,446.9198632000189,None,446.9198632000189,None,446.9198632000189,None,447.85391160001745,None,447.85391160001745,448.35436019999906,,,,,,,,,,,,,,,,020,2022-05-17_11h00.58.805,FishGame,2022.1.1,59.99815206030715,
,40,넌 수줍어,3,Orange,B,3.541666666666666,4.366666666666666,ScrollUp,ScrollDown,Orange.png,3,Neutral,Neutral,,,,,0,0,0,0,,,,,,,,,,,,,,,,,,,,,0,39,39,39,,,,,,,,,,,,,,,,,,,,,,,,,,,,,,,,,,,,,,,,,,,,,,,,,,,,,,,,,,,,,,,,,,,,,,,,,1.6728395000100136,1.1113074000168126,448.9791779000079,None,ScrollUp,정답입니다,448.9791779000079,None,448.9791779000079,None,448.9791779000079,None,448.9791779000079,None,449.9872155000048,None,449.9872155000048,450.48724470002344,,,,,,,,,,,,,,,,020,2022-05-17_11h00.58.805,FishGame,2022.1.1,59.99815206030715,
,41,나를 데려가줘,6,Orange,B,0,0,ScrollDown,ScrollUp,Orange.png,3,NonTarget,NonTarget,,,,,0,0,0,0,,,,,,,,,,,,,,,,,,,,,0,40,40,40,,,,,,,,,,,,,,,,,,,,,,,,,,,,,,,,,,,,,,,,,,,,,,,,,,,,,,,,,,,,,,,,,,,,,,,,,1.1435185273488362,1.092665299976943,451.11361490000854,None,ScrollDown,정답입니다,451.11361490000854,None,451.11361490000854,None,451.11361490000854,None,451.11361490000854,None,452.101572900021,None,452.101572900021,452.6014420000138,,,,,,,,,,,,,,,,020,2022-05-17_11h00.58.805,FishGame,2022.1.1,59.99815206030715,
,42,넌 성숙해,2,Orange,B,5.833333333333333,4.533333333333333,ScrollUp,ScrollDown,Orange.png,3,Positive,Incongruent,,,,,0,0,0,0,,,,,,,,,,,,,,,,,,,,,0,41,41,41,,,,,,,,,,,,,,,,,,,,,,,,,,,,,,,,,,,,,,,,,,,,,,,,,,,,,,,,,,,,,,,,,,,,,,,,,1.8765432039896648,0.9812756000028457,453.2220262000046,None,ScrollUp,정답입니다,453.2220262000046,None,453.2220262000046,None,453.2220262000046,None,453.2220262000046,None,454.1037821000209,None,454.1037821000209,454.60420890001114,,,,,,,,,,,,,,,,020,2022-05-17_11h00.58.805,FishGame,2022.1.1,59.99815206030715,
,1,넌 매력적이야,2,Orange,B,6.125,4.666666666666667,ScrollUp,ScrollDown,Orange.png,4,Positive,Incongruent,,,,,0,0,0,0,,,,,,,,,,,,,,,,,,,,,,,,,0,0,0,0,,,,,,,,,,,,,,,,,,,,,,,,,,,,486.76971069999854,488.26986670002225,488.30097520002164,489.25317140002153,489.3031553000037,490.25608869999996,490.25608869999996,None,,,,,,,,,,,,,,,,,,,,,,,,,,,,,,,,,,1.7839506169160206,1.3931243999977596,491.3781218000222,None,ScrollUp,정답입니다,491.3781218000222,None,491.3781218000222,None,491.3781218000222,None,491.3781218000222,None,492.66961199999787,None,492.66961199999787,493.1840546000167,455.10422310000286,None,455.10422310000286,None,0.117592596,-0.2037037,1,0,0,0.016320330003509298,None,485.11959720001323,None,,,020,2022-05-17_11h00.58.805,FishGame,2022.1.1,59.99815206030715,
,2,나를 보내줘,6,Green,A,0,0,ScrollUp,ScrollDown,Green.png,4,NonTarget,NonTarget,,,,,0,0,0,0,,,,,,,,,,,,,,,,,,,,,,,,,0,1,1,1,,,,,,,,,,,,,,,,,,,,,,,,,,,,,,,,,,,,,,,,,,,,,,,,,,,,,,,,,,,,,,,,,,,,,1.8271604826052983,1.2111008999927435,493.8039163000067,None,ScrollUp,정답입니다,493.8039163000067,None,493.8039163000067,None,493.8039163000067,None,493.8039163000067,None,494.9194733000186,None,494.9194733000186,495.43617490000906,,,,,,,,,,,,,,,,020,2022-05-17_11h00.58.805,FishGame,2022.1.1,59.99815206030715,
,3,넌 조심스러워,3,Green,A,4.791666666666666,4.666666666666667,ScrollDown,ScrollUp,Green.png,4,Neutral,Neutral,,,,,0,0,0,0,,,,,,,,,,,,,,,,,,,,,,,,,0,2,2,2,,,,,,,,,,,,,,,,,,,,,,,,,,,,,,,,,,,,,,,,,,,,,,,,,,,,,,,,,,,,,,,,,,,,,1.2222222139437993,0.9260129999893252,496.05630910000764,None,ScrollDown,정답입니다,496.05630910000764,None,496.05630910000764,None,496.05630910000764,None,496.05630910000764,None,496.8839835000108,None,496.8839835000108,497.38623270002427,,,,,,,,,,,,,,,,020,2022-05-17_11h00.58.805,FishGame,2022.1.1,59.99815206030715,
,4,넌 철학적이야,3,Orange,B,4.5,4.266666666666667,ScrollUp,ScrollDown,Orange.png,4,Neutral,Neutral,,,,,0,0,0,0,,,,,,,,,,,,,,,,,,,,,,,,,0,3,3,3,,,,,,,,,,,,,,,,,,,,,,,,,,,,,,,,,,,,,,,,,,,,,,,,,,,,,,,,,,,,,,,,,,,,,1.819444437821706,0.9436704999825452,498.01943770001526,None,ScrollUp,정답입니다,498.01943770001526,None,498.01943770001526,None,498.01943770001526,None,498.01943770001526,None,498.8506156000076,None,498.8506156000076,499.35274709999794,,,,,,,,,,,,,,,,020,2022-05-17_11h00.58.805,FishGame,2022.1.1,59.99815206030715,
,5,넌 쩨쩨해,5,Green,A,2.375,2.133333333333333,ScrollDown,ScrollUp,Green.png,4,Negative,Incongruent,,,,,0,0,0,0,,,,,,,,,,,,,,,,,,,,,,,,,0,4,4,4,,,,,,,,,,,,,,,,,,,,,,,,,,,,,,,,,,,,,,,,,,,,,,,,,,,,,,,,,,,,,,,,,,,,,1.233024686574936,1.0758247000048868,499.9758538000169,None,ScrollDown,정답입니다,499.9758538000169,None,499.9758538000169,None,499.9758538000169,None,499.9758538000169,None,500.9526960000221,None,500.9526960000221,501.4527731999988,,,,,,,,,,,,,,,,020,2022-05-17_11h00.58.805,FishGame,2022.1.1,59.99815206030715,
,6,나를 데려가줘,6,Orange,B,0,0,ScrollDown,ScrollUp,Orange.png,4,NonTarget,NonTarget,,,,,0,0,0,0,,,,,,,,,,,,,,,,,,,,,,,,,0,5,5,5,,,,,,,,,,,,,,,,,,,,,,,,,,,,,,,,,,,,,,,,,,,,,,,,,,,,,,,,,,,,,,,,,,,,,1.233024686574936,1.192679700005101,502.0759359000076,None,ScrollDown,정답입니다,502.0759359000076,None,502.0759359000076,None,502.0759359000076,None,502.0759359000076,None,503.1693967000174,None,503.1693967000174,503.68385880001006,,,,,,,,,,,,,,,,020,2022-05-17_11h00.58.805,FishGame,2022.1.1,59.99815206030715,
,7,넌 고집불통이야,5,Orange,B,2.875,2,ScrollUp,ScrollDown,Orange.png,4,Negative,Congruent,,,,,0,0,0,0,,,,,,,,,,,,,,,,,,,,,,,,,0,6,6,6,,,,,,,,,,,,,,,,,,,,,,,,,,,,,,,,,,,,,,,,,,,,,,,,,,,,,,,,,,,,,,,,,,,,,1.8086419651905696,1.2446858000184875,504.3135044000228,None,ScrollUp,정답입니다,504.3135044000228,None,504.3135044000228,None,504.3135044000228,None,504.3135044000228,None,505.4504565000243,None,505.4504565000243,505.9505933000182,,,,,,,,,,,,,,,,020,2022-05-17_11h00.58.805,FishGame,2022.1.1,59.99815206030715,
,8,넌 무심해,4,Green,A,2.875,3.2,ScrollDown,ScrollUp,Green.png,4,Negative,Incongruent,,,,,0,0,0,0,,,,,,,,,,,,,,,,,,,,,,,,,0,7,7,7,,,,,,,,,,,,,,,,,,,,,,,,,,,,,,,,,,,,,,,,,,,,,,,,,,,,,,,,,,,,,,,,,,,,,1.2731481492519379,0.927083800022956,506.5731782000221,None,ScrollDown,정답입니다,506.5731782000221,None,506.5731782000221,None,506.5731782000221,None,506.5731782000221,None,507.40045650000684,None,507.40045650000684,507.9027376000013,,,,,,,,,,,,,,,,020,2022-05-17_11h00.58.805,FishGame,2022.1.1,59.99815206030715,
,9,넌 정겨워,1,Green,A,5.791666666666667,5.666666666666667,ScrollDown,ScrollUp,Green.png,4,Positive,Congruent,,,,,0,0,0,0,,,,,,,,,,,,,,,,,,,,,,,,,0,8,8,8,,,,,,,,,,,,,,,,,,,,,,,,,,,,,,,,,,,,,,,,,,,,,,,,,,,,,,,,,,,,,,,,,,,,,1.2361111144224803,0.8425296999921557,508.5300705000118,None,ScrollDown,정답입니다,508.5300705000118,None,508.5300705000118,None,508.5300705000118,None,508.5300705000118,None,509.26925189999747,None,509.26925189999747,509.7837451000232,,,,,,,,,,,,,,,,020,2022-05-17_11h00.58.805,FishGame,2022.1.1,59.99815206030715,
,10,나를 데려가줘,6,Orange,B,0,0,ScrollDown,ScrollUp,Orange.png,4,NonTarget,NonTarget,,,,,0,0,0,0,,,,,,,,,,,,,,,,,,,,,,,,,0,9,9,9,,,,,,,,,,,,,,,,,,,,,,,,,,,,,,,,,,,,,,,,,,,,,,,,,,,,,,,,,,,,,,,,,,,,,1.2314814726511638,1.0444542999903206,510.3867772000085,None,ScrollDown,정답입니다,510.3867772000085,None,510.3867772000085,None,510.3867772000085,None,510.3867772000085,None,511.3334054000152,None,511.3334054000152,511.8334837000002,,,,,,,,,,,,,,,,020,2022-05-17_11h00.58.805,FishGame,2022.1.1,59.99815206030715,
,11,넌 체제순응적이야,4,Orange,B,3,3.6,ScrollUp,ScrollDown,Orange.png,4,Negative,Congruent,,,,,0,0,0,0,,,,,,,,,,,,,,,,,,,,,,,,,0,10,10,10,,,,,,,,,,,,,,,,,,,,,,,,,,,,,,,,,,,,,,,,,,,,,,,,,,,,,,,,,,,,,,,,,,,,,1.6929012313485146,1.2778385000128765,512.4621907999972,None,ScrollUp,정답입니다,512.4621907999972,None,512.4621907999972,None,512.4621907999972,None,512.4621907999972,None,513.6334051000013,None,513.6334051000013,514.135946800001,,,,,,,,,,,,,,,,020,2022-05-17_11h00.58.805,FishGame,2022.1.1,59.99815206030715,
,12,나를 보내줘,6,Green,A,0,0,ScrollUp,ScrollDown,Green.png,4,NonTarget,NonTarget,,,,,0,0,0,0,,,,,,,,,,,,,,,,,,,,,,,,,0,11,11,11,,,,,,,,,,,,,,,,,,,,,,,,,,,,,,,,,,,,,,,,,,,,,,,,,,,,,,,,,,,,,,,,,,,,,1.6728395000100136,1.0962230000004638,514.7581599999976,None,ScrollUp,정답입니다,514.7581599999976,None,514.7581599999976,None,514.7581599999976,None,514.7581599999976,None,515.7525183000253,None,515.7525183000253,516.2525693000061,,,,,,,,,,,,,,,,020,2022-05-17_11h00.58.805,FishGame,2022.1.1,59.99815206030715,
,13,넌 박식해,2,Green,A,5.625,3.933333333333333,ScrollDown,ScrollUp,Green.png,4,Positive,Congruent,,,,,0,0,0,0,,,,,,,,,,,,,,,,,,,,,,,,,0,12,12,12,,,,,,,,,,,,,,,,,,,,,,,,,,,,,,,,,,,,,,,,,,,,,,,,,,,,,,,,,,,,,,,,,,,,,1.3132715995113053,0.9437908999971114,516.8760998000216,None,ScrollDown,정답입니다,516.8760998000216,None,516.8760998000216,None,516.8760998000216,None,516.8760998000216,None,517.719038500014,None,517.719038500014,518.2190473000228,,,,,,,,,,,,,,,,020,2022-05-17_11h00.58.805,FishGame,2022.1.1,59.99815206030715,
,14,나를 보내줘,6,Green,A,0,0,ScrollUp,ScrollDown,Green.png,4,NonTarget,NonTarget,,,,,0,0,0,0,,,,,,,,,,,,,,,,,,,,,,,,,0,13,13,13,,,,,,,,,,,,,,,,,,,,,,,,,,,,,,,,,,,,,,,,,,,,,,,,,,,,,,,,,,,,,,,,,,,,,1.6697530845801034,1.0602244000183418,518.8396743000194,None,ScrollUp,정답입니다,518.8396743000194,None,518.8396743000194,None,518.8396743000194,None,518.8396743000194,None,519.7998841000081,None,519.7998841000081,520.2999858999974,,,,,,,,,,,,,,,,020,2022-05-17_11h00.58.805,FishGame,2022.1.1,59.99815206030715,
,15,넌 침착해,1,Orange,B,5.458333333333333,5.566666666666666,ScrollUp,ScrollDown,Orange.png,4,Positive,Incongruent,,,,,0,0,0,0,,,,,,,,,,,,,,,,,,,,,,,,,0,14,14,14,,,,,,,,,,,,,,,,,,,,,,,,,,,,,,,,,,,,,,,,,,,,,,,,,,,,,,,,,,,,,,,,,,,,,1.6574074104428291,1.3804548000043724,520.9292446000036,None,ScrollUp,정답입니다,520.9292446000036,None,520.9292446000036,None,520.9292446000036,None,520.9292446000036,None,522.2024545000168,None,522.2024545000168,522.7024732000136,,,,,,,,,,,,,,,,020,2022-05-17_11h00.58.805,FishGame,2022.1.1,59.99815206030715,
,16,나를 데려가줘,6,Orange,B,0,0,ScrollDown,ScrollUp,Orange.png,4,NonTarget,NonTarget,,,,,0,0,0,0,,,,,,,,,,,,,,,,,,,,,,,,,0,15,15,15,,,,,,,,,,,,,,,,,,,,,,,,,,,,,,,,,,,,,,,,,,,,,,,,,,,,,,,,,,,,,,,,,,,,,1.180555562178294,1.110484600008931,523.3245221000107,None,ScrollDown,정답입니다,523.3245221000107,None,523.3245221000107,None,523.3245221000107,None,523.3245221000107,None,524.3334259999974,None,524.3334259999974,524.8357165000052,,,,,,,,,,,,,,,,020,2022-05-17_11h00.58.805,FishGame,2022.1.1,59.99815206030715,
,17,넌 행복해,1,Green,A,6.416666666666666,6.166666666666667,ScrollDown,ScrollUp,Green.png,4,Positive,Congruent,,,,,0,0,0,0,,,,,,,,,,,,,,,,,,,,,,,,,0,16,16,16,,,,,,,,,,,,,,,,,,,,,,,,,,,,,,,,,,,,,,,,,,,,,,,,,,,,,,,,,,,,,,,,,,,,,1.266975318392118,1.010302300011972,525.4570613000251,None,ScrollDown,정답입니다,525.4570613000251,None,525.4570613000251,None,525.4570613000251,None,525.4570613000251,None,526.3668305000174,None,526.3668305000174,526.8664944000193,,,,,,,,,,,,,,,,020,2022-05-17_11h00.58.805,FishGame,2022.1.1,59.99815206030715,
,18,넌 겸손해,2,Orange,B,5.791666666666667,4.766666666666667,ScrollUp,ScrollDown,Orange.png,4,Positive,Incongruent,,,,,0,0,0,0,,,,,,,,,,,,,,,,,,,,,,,,,0,17,17,17,,,,,,,,,,,,,,,,,,,,,,,,,,,,,,,,,,,,,,,,,,,,,,,,,,,,,,,,,,,,,,,,,,,,,1.6064814875523248,1.0972397000005003,527.4899913000118,None,ScrollUp,정답입니다,527.4899913000118,None,527.4899913000118,None,527.4899913000118,None,527.4899913000118,None,528.483123700018,None,528.483123700018,528.983203700016,,,,,,,,,,,,,,,,020,2022-05-17_11h00.58.805,FishGame,2022.1.1,59.99815206030715,
,19,나를 보내줘,6,Green,A,0,0,ScrollUp,ScrollDown,Green.png,4,NonTarget,NonTarget,,,,,0,0,0,0,,,,,,,,,,,,,,,,,,,,,,,,,0,18,18,18,,,,,,,,,,,,,,,,,,,,,,,,,,,,,,,,,,,,,,,,,,,,,,,,,,,,,,,,,,,,,,,,,,,,,1.6712962985038757,1.0144015999976546,529.6026601000049,None,ScrollUp,정답입니다,529.6026601000049,None,529.6026601000049,None,529.6026601000049,None,529.6026601000049,None,530.5189368000138,None,530.5189368000138,531.0190448000212,,,,,,,,,,,,,,,,020,2022-05-17_11h00.58.805,FishGame,2022.1.1,59.99815206030715,
,20,넌 의심없어,3,Green,A,4.166666666666667,4.6,ScrollDown,ScrollUp,Green.png,4,Neutral,Neutral,,,,,0,0,0,0,,,,,,,,,,,,,,,,,,,,,,,,,0,19,19,19,,,,,,,,,,,,,,,,,,,,,,,,,,,,,,,,,,,,,,,,,,,,,,,,,,,,,,,,,,,,,,,,,,,,,1.1959876517454784,1.0257507999776863,531.6403679000214,None,ScrollDown,정답입니다,531.6403679000214,None,531.6403679000214,None,531.6403679000214,None,531.6403679000214,None,532.5665917000151,None,532.5665917000151,533.0667901000124,,,,,,,,,,,,,,,,020,2022-05-17_11h00.58.805,FishGame,2022.1.1,59.99815206030715,
,21,넌 시시해,4,Green,A,2.666666666666667,2.966666666666667,ScrollDown,ScrollUp,Green.png,4,Negative,Incongruent,,,,,0,0,0,0,,,,,,,,,,,,,,,,,,,,,,,,,0,20,20,20,,,,,,,,,,,,,,,,,,,,,,,,,,,,,,,,,,,,,,,,,,,,,,,,,,,,,,,,,,,,,,,,,,,,,1.2731481492519379,0.8594889999949373,533.6918992999999,None,ScrollDown,정답입니다,533.6918992999999,None,533.6918992999999,None,533.6918992999999,None,533.6918992999999,None,534.4499150000047,None,534.4499150000047,534.9521298000182,,,,,,,,,,,,,,,,020,2022-05-17_11h00.58.805,FishGame,2022.1.1,59.99815206030715,
,22,나를 데려가줘,6,Orange,B,0,0,ScrollDown,ScrollUp,Orange.png,4,NonTarget,NonTarget,,,,,0,0,0,0,,,,,,,,,,,,,,,,,,,,,,,,,0,21,21,21,,,,,,,,,,,,,,,,,,,,,,,,,,,,,,,,,,,,,,,,,,,,,,,,,,,,,,,,,,,,,,,,,,,,,1.2731481492519379,0.9588466999994125,535.5743670000229,None,ScrollDown,정답입니다,535.5743670000229,None,535.5743670000229,None,535.5743670000229,None,535.5743670000229,None,536.4353514999966,None,536.4353514999966,536.9520376000146,,,,,,,,,,,,,,,,020,2022-05-17_11h00.58.805,FishGame,2022.1.1,59.99815206030715,
,23,넌 무정해,5,Green,A,2.5,2.2,ScrollDown,ScrollUp,Green.png,4,Negative,Incongruent,,,,,0,0,0,0,,,,,,,,,,,,,,,,,,,,,,,,,0,22,22,22,,,,,,,,,,,,,,,,,,,,,,,,,,,,,,,,,,,,,,,,,,,,,,,,,,,,,,,,,,,,,,,,,,,,,1.2453703731298447,1.109136999992188,537.5586832000117,None,ScrollDown,정답입니다,537.5586832000117,None,537.5586832000117,None,537.5586832000117,None,537.5586832000117,None,538.5664834000054,None,538.5664834000054,539.0665320999979,,,,,,,,,,,,,,,,020,2022-05-17_11h00.58.805,FishGame,2022.1.1,59.99815206030715,
,24,넌 긍정적이야,1,Orange,B,6.041666666666667,6.066666666666666,ScrollUp,ScrollDown,Orange.png,4,Positive,Incongruent,,,,,0,0,0,0,,,,,,,,,,,,,,,,,,,,,,,,,0,23,23,23,,,,,,,,,,,,,,,,,,,,,,,,,,,,,,,,,,,,,,,,,,,,,,,,,,,,,,,,,,,,,,,,,,,,,1.6404320945342383,1.0923041999922134,539.7027246000071,None,ScrollUp,정답입니다,539.7027246000071,None,539.7027246000071,None,539.7027246000071,None,539.7027246000071,None,540.6828137999983,None,540.6828137999983,541.1828961000137,,,,,,,,,,,,,,,,020,2022-05-17_11h00.58.805,FishGame,2022.1.1,59.99815206030715,
,25,나를 보내줘,6,Green,A,0,0,ScrollUp,ScrollDown,Green.png,4,NonTarget,NonTarget,,,,,0,0,0,0,,,,,,,,,,,,,,,,,,,,,,,,,0,24,24,24,,,,,,,,,,,,,,,,,,,,,,,,,,,,,,,,,,,,,,,,,,,,,,,,,,,,,,,,,,,,,,,,,,,,,1.7623456716537476,1.0803798000270035,541.8055069000111,None,ScrollUp,정답입니다,541.8055069000111,None,541.8055069000111,None,541.8055069000111,None,541.8055069000111,None,542.7853384000191,None,542.7853384000191,543.2853858000017,,,,,,,,,,,,,,,,020,2022-05-17_11h00.58.805,FishGame,2022.1.1,59.99815206030715,
,26,넌 시기심이 많아,5,Orange,B,2.458333333333333,2.233333333333333,ScrollUp,ScrollDown,Orange.png,4,Negative,Congruent,,,,,0,0,0,0,,,,,,,,,,,,,,,,,,,,,,,,,0,25,25,25,,,,,,,,,,,,,,,,,,,,,,,,,,,,,,,,,,,,,,,,,,,,,,,,,,,,,,,,,,,,,,,,,,,,,1.6666666691501937,1.0779938999912702,543.9090053999971,None,ScrollUp,정답입니다,543.9090053999971,None,543.9090053999971,None,543.9090053999971,None,543.9090053999971,None,544.8783765000117,None,544.8783765000117,545.3830556000175,,,,,,,,,,,,,,,,020,2022-05-17_11h00.58.805,FishGame,2022.1.1,59.99815206030715,
,27,넌 탁월해,2,Green,A,5.708333333333334,4.5,ScrollDown,ScrollUp,Green.png,4,Positive,Congruent,,,,,0,0,0,0,,,,,,,,,,,,,,,,,,,,,,,,,0,26,26,26,,,,,,,,,,,,,,,,,,,,,,,,,,,,,,,,,,,,,,,,,,,,,,,,,,,,,,,,,,,,,,,,,,,,,1.296296296020349,0.8761381999938749,546.0095554,None,ScrollDown,정답입니다,546.0095554,None,546.0095554,None,546.0095554,None,546.0095554,None,546.7851599999995,None,546.7851599999995,547.2852863000007,,,,,,,,,,,,,,,,020,2022-05-17_11h00.58.805,FishGame,2022.1.1,59.99815206030715,
,28,나를 데려가줘,6,Orange,B,0,0,ScrollDown,ScrollUp,Orange.png,4,NonTarget,NonTarget,,,,,0,0,0,0,,,,,,,,,,,,,,,,,,,,,,,,,0,27,27,27,,,,,,,,,,,,,,,,,,,,,,,,,,,,,,,,,,,,,,,,,,,,,,,,,,,,,,,,,,,,,,,,,,,,,1.2237654278675716,1.1922906000108924,547.9085931000009,None,ScrollDown,정답입니다,547.9085931000009,None,547.9085931000009,None,547.9085931000009,None,547.9085931000009,None,548.9993983000168,None,548.9993983000168,549.4994312000053,,,,,,,,,,,,,,,,020,2022-05-17_11h00.58.805,FishGame,2022.1.1,59.99815206030715,
,29,넌 조용해,3,Orange,B,4.333333333333333,4.166666666666667,ScrollUp,ScrollDown,Orange.png,4,Neutral,Neutral,,,,,0,0,0,0,,,,,,,,,,,,,,,,,,,,,,,,,0,28,28,28,,,,,,,,,,,,,,,,,,,,,,,,,,,,,,,,,,,,,,,,,,,,,,,,,,,,,,,,,,,,,,,,,,,,,1.589506171643734,0.9473075999994762,550.1251179999963,None,ScrollUp,정답입니다,550.1251179999963,None,550.1251179999963,None,550.1251179999963,None,550.1251179999963,None,550.9661365000065,None,550.9661365000065,551.4685267000168,,,,,,,,,,,,,,,,020,2022-05-17_11h00.58.805,FishGame,2022.1.1,59.99815206030715,
,30,넌 다정해,1,Green,A,5.833333333333334,5.7,ScrollDown,ScrollUp,Green.png,4,Positive,Congruent,,,,,0,0,0,0,,,,,,,,,,,,,,,,,,,,,,,,,0,29,29,29,,,,,,,,,,,,,,,,,,,,,,,,,,,,,,,,,,,,,,,,,,,,,,,,,,,,,,,,,,,,,,,,,,,,,1.3302469154198966,0.9463722000073176,552.0877349000075,None,ScrollDown,정답입니다,552.0877349000075,None,552.0877349000075,None,552.0877349000075,None,552.0877349000075,None,552.9328395000193,None,552.9328395000193,553.4350350000022,,,,,,,,,,,,,,,,020,2022-05-17_11h00.58.805,FishGame,2022.1.1,59.99815206030715,
,31,넌 능력있어,2,Orange,B,6.166666666666666,4.6,ScrollUp,ScrollDown,Orange.png,4,Positive,Incongruent,,,,,0,0,0,0,,,,,,,,,,,,,,,,,,,,,,,,,0,30,30,30,,,,,,,,,,,,,,,,,,,,,,,,,,,,,,,,,,,,,,,,,,,,,,,,,,,,,,,,,,,,,,,,,,,,,1.604938273628553,0.9257511000032537,554.0597741000238,None,ScrollUp,정답입니다,554.0597741000238,None,554.0597741000238,None,554.0597741000238,None,554.0597741000238,None,554.882809600007,None,554.882809600007,555.3850238000159,,,,,,,,,,,,,,,,020,2022-05-17_11h00.58.805,FishGame,2022.1.1,59.99815206030715,
,32,넌 불쾌해,5,Green,A,2.125,1.933333333333333,ScrollDown,ScrollUp,Green.png,4,Negative,Incongruent,,,,,0,0,0,0,,,,,,,,,,,,,,,,,,,,,,,,,0,31,31,31,,,,,,,,,,,,,,,,,,,,,,,,,,,,,,,,,,,,,,,,,,,,,,,,,,,,,,,,,,,,,,,,,,,,,1.2453703731298447,0.9422858000034466,556.0063564000011,None,ScrollDown,정답입니다,556.0063564000011,None,556.0063564000011,None,556.0063564000011,None,556.0063564000011,None,556.8491645000177,None,556.8491645000177,557.3492376000213,,,,,,,,,,,,,,,,020,2022-05-17_11h00.58.805,FishGame,2022.1.1,59.99815206030715,
,33,나를 데려가줘,6,Orange,B,0,0,ScrollDown,ScrollUp,Orange.png,4,NonTarget,NonTarget,,,,,0,0,0,0,,,,,,,,,,,,,,,,,,,,,,,,,0,32,32,32,,,,,,,,,,,,,,,,,,,,,,,,,,,,,,,,,,,,,,,,,,,,,,,,,,,,,,,,,,,,,,,,,,,,,1.325617286066214,1.0949349000002258,557.9746301000123,None,ScrollDown,정답입니다,557.9746301000123,None,557.9746301000123,None,557.9746301000123,None,557.9746301000123,None,558.9683375000022,None,558.9683375000022,559.4688725000015,,,,,,,,,,,,,,,,020,2022-05-17_11h00.58.805,FishGame,2022.1.1,59.99815206030715,
,34,넌 유순해,3,Green,A,4.458333333333333,5,ScrollDown,ScrollUp,Green.png,4,Neutral,Neutral,,,,,0,0,0,0,,,,,,,,,,,,,,,,,,,,,,,,,0,33,33,33,,,,,,,,,,,,,,,,,,,,,,,,,,,,,,,,,,,,,,,,,,,,,,,,,,,,,,,,,,,,,,,,,,,,,1.3117283980051675,0.927811000001384,560.0924675000133,None,ScrollDown,정답입니다,560.0924675000133,None,560.0924675000133,None,560.0924675000133,None,560.0924675000133,None,560.9183294000104,None,560.9183294000104,561.4349324000068,,,,,,,,,,,,,,,,020,2022-05-17_11h00.58.805,FishGame,2022.1.1,59.99815206030715,
,35,넌 근심스러워,4,Orange,B,2.708333333333333,3.133333333333333,ScrollUp,ScrollDown,Orange.png,4,Negative,Congruent,,,,,0,0,0,0,,,,,,,,,,,,,,,,,,,,,,,,,0,34,34,34,,,,,,,,,,,,,,,,,,,,,,,,,,,,,,,,,,,,,,,,,,,,,,,,,,,,,,,,,,,,,,,,,,,,,1.594135800997416,1.0926691000058781,562.0451260000118,None,ScrollUp,정답입니다,562.0451260000118,None,562.0451260000118,None,562.0451260000118,None,562.0451260000118,None,563.0347999000223,None,563.0347999000223,563.5348375000176,,,,,,,,,,,,,,,,020,2022-05-17_11h00.58.805,FishGame,2022.1.1,59.99815206030715,
,36,넌 세련되었어,2,Green,A,5.5,4.6,ScrollDown,ScrollUp,Green.png,4,Positive,Congruent,,,,,0,0,0,0,,,,,,,,,,,,,,,,,,,,,,,,,0,35,35,35,,,,,,,,,,,,,,,,,,,,,,,,,,,,,,,,,,,,,,,,,,,,,,,,,,,,,,,,,,,,,,,,,,,,,1.2623456766208014,1.5765081999998074,564.1582937000203,None,ScrollDown,정답입니다,564.1582937000203,None,564.1582937000203,None,564.1582937000203,None,564.1582937000203,None,565.6325796000019,None,565.6325796000019,566.1348261000239,,,,,,,,,,,,,,,,020,2022-05-17_11h00.58.805,FishGame,2022.1.1,59.99815206030715,
,37,나를 보내줘,6,Green,A,0,0,ScrollUp,ScrollDown,Green.png,4,NonTarget,NonTarget,,,,,0,0,0,0,,,,,,,,,,,,,,,,,,,,,,,,,0,36,36,36,,,,,,,,,,,,,,,,,,,,,,,,,,,,,,,,,,,,,,,,,,,,,,,,,,,,,,,,,,,,,,,,,,,,,1.6975308607021966,0.9761106000223663,566.7542912000208,None,ScrollUp,정답입니다,566.7542912000208,None,566.7542912000208,None,566.7542912000208,None,566.7542912000208,None,567.6325861000223,None,567.6325861000223,568.1325697000138,,,,,,,,,,,,,,,,020,2022-05-17_11h00.58.805,FishGame,2022.1.1,59.99815206030715,
,38,넌 확고해,3,Orange,B,4.708333333333334,4.566666666666666,ScrollUp,ScrollDown,Orange.png,4,Neutral,Neutral,,,,,0,0,0,0,,,,,,,,,,,,,,,,,,,,,,,,,0,37,37,37,,,,,,,,,,,,,,,,,,,,,,,,,,,,,,,,,,,,,,,,,,,,,,,,,,,,,,,,,,,,,,,,,,,,,1.5709876542290053,1.2611334999965038,568.761190899997,None,ScrollUp,정답입니다,568.761190899997,None,568.761190899997,None,568.761190899997,None,568.761190899997,None,569.9179803000006,None,569.9179803000006,570.4180054000171,,,,,,,,,,,,,,,,020,2022-05-17_11h00.58.805,FishGame,2022.1.1,59.99815206030715,
,39,넌 이해심이 많아,1,Orange,B,6.041666666666668,5.533333333333333,ScrollUp,ScrollDown,Orange.png,4,Positive,Incongruent,,,,,0,0,0,0,,,,,,,,,,,,,,,,,,,,,,,,,0,38,38,38,,,,,,,,,,,,,,,,,,,,,,,,,,,,,,,,,,,,,,,,,,,,,,,,,,,,,,,,,,,,,,,,,,,,,1.634259263674418,0.842746200010879,571.0408575000183,None,ScrollUp,정답입니다,571.0408575000183,None,571.0408575000183,None,571.0408575000183,None,571.0408575000183,None,571.7846279000223,None,571.7846279000223,572.2847079000203,,,,,,,,,,,,,,,,020,2022-05-17_11h00.58.805,FishGame,2022.1.1,59.99815206030715,
,40,나를 보내줘,6,Green,A,0,0,ScrollUp,ScrollDown,Green.png,4,NonTarget,NonTarget,,,,,0,0,0,0,,,,,,,,,,,,,,,,,,,,,,,,,0,39,39,39,,,,,,,,,,,,,,,,,,,,,,,,,,,,,,,,,,,,,,,,,,,,,,,,,,,,,,,,,,,,,,,,,,,,,1.6913580298423767,1.1258106000022963,572.9044548000093,None,ScrollUp,정답입니다,572.9044548000093,None,572.9044548000093,None,572.9044548000093,None,572.9044548000093,None,573.9321460000065,None,573.9321460000065,574.4322329999995,,,,,,,,,,,,,,,,020,2022-05-17_11h00.58.805,FishGame,2022.1.1,59.99815206030715,
,41,넌 거칠어,4,Green,A,2.625,3.033333333333333,ScrollDown,ScrollUp,Green.png,4,Negative,Incongruent,,,,,0,0,0,0,,,,,,,,,,,,,,,,,,,,,,,,,0,40,40,40,,,,,,,,,,,,,,,,,,,,,,,,,,,,,,,,,,,,,,,,,,,,,,,,,,,,,,,,,,,,,,,,,,,,,1.1975308656692505,1.0806236000207718,575.0627432000183,None,ScrollDown,정답입니다,575.0627432000183,None,575.0627432000183,None,575.0627432000183,None,575.0627432000183,None,576.0346800000116,None,576.0346800000116,576.5346864000021,,,,,,,,,,,,,,,,020,2022-05-17_11h00.58.805,FishGame,2022.1.1,59.99815206030715,
,42,넌 변덕맞아,5,Orange,B,2.75,2.166666666666667,ScrollUp,ScrollDown,Orange.png,4,Negative,Congruent,,,,,0,0,0,0,,,,,,,,,,,,,,,,,,,,,,,,,0,41,41,41,,,,,,,,,,,,,,,,,,,,,,,,,,,,,,,,,,,,,,,,,,,,,,,,,,,,,,,,,,,,,,,,,,,,,1.4953703702582668,1.0794238000235055,577.1633112000127,None,NoResponse,무응답입니다,577.1633112000127,None,577.1633112000127,None,577.1633112000127,None,577.1633112000127,None,578.129241800023,None,578.129241800023,578.6324498000031,,,,,,,,,,,,,,,,020,2022-05-17_11h00.58.805,FishGame,2022.1.1,59.99815206030715,
,43,나를 데려가줘,6,Orange,B,0,0,ScrollDown,ScrollUp,Orange.png,4,NonTarget,NonTarget,,,,,0,0,0,0,,,,,,,,,,,,,,,,,,,,,,,,,0,42,42,42,,,,,,,,,,,,,,,,,,,,,,,,,,,,,,,,,,,,,,,,,,,,,,,,,,,,,,,,,,,,,,,,,,,,,1.2932098805904388,1.2258394000236876,579.2624325000215,None,ScrollDown,정답입니다,579.2624325000215,None,579.2624325000215,None,579.2624325000215,None,579.2624325000215,None,580.3822865000111,None,580.3822865000111,580.882592000009,,,,,,,,,,,,,,,,020,2022-05-17_11h00.58.805,FishGame,2022.1.1,59.99815206030715,
,44,넌 외로워,4,Orange,B,2.833333333333333,3.3,ScrollUp,ScrollDown,Orange.png,4,Negative,Congruent,,,,,0,0,0,0,,,,,,,,,,,,,,,,,,,,,,,,,0,43,43,43,,,,,,,,,,,,,,,,,,,,,,,,,,,,,,,,,,,,,,,,,,,,,,,,,,,,,,,,,,,,,,,,,,,,,1.8811728457609813,0.958917299984023,581.5129111999995,None,ScrollUp,정답입니다,581.5129111999995,None,581.5129111999995,None,581.5129111999995,None,581.5129111999995,None,582.3656256000104,None,582.3656256000104,582.8678528000019,,,,,,,,,,,,,,,,020,2022-05-17_11h00.58.805,FishGame,2022.1.1,59.99815206030715,
,1,넌 불평스러워,5,Green,A,2.25,2.066666666666667,ScrollDown,ScrollUp,Green.png,5,Negative,Incongruent,,,,,0,0,0,0,,,,,,,,,,,,,,,,,,,,,,,,,,,,,0,0,0,0,,,,,,,,,,,,,,,,,,,,,,,,617.7170065999962,619.2150177000149,619.2482176000194,620.2036769000115,620.2370039000234,621.2005716999993,621.2005716999993,None,,,,,,,,,,,,,,,,,,,,,,,,,,,,,,,,,,1.3055555547277131,1.016382900008466,622.295872000017,None,ScrollDown,정답입니다,622.295872000017,None,622.295872000017,None,622.295872000017,None,622.295872000017,None,623.21692050001,None,623.21692050001,623.7148377000121,583.3680172000022,None,583.3680172000022,None,0.25,-0.18518518,1,0,0,0.016070829995442182,None,613.3672747000237,None,,,020,2022-05-17_11h00.58.805,FishGame,2022.1.1,59.99815206030715,
,2,나를 보내줘,6,Green,A,0,0,ScrollUp,ScrollDown,Green.png,5,NonTarget,NonTarget,,,,,0,0,0,0,,,,,,,,,,,,,,,,,,,,,,,,,,,,,0,1,1,1,,,,,,,,,,,,,,,,,,,,,,,,,,,,,,,,,,,,,,,,,,,,,,,,,,,,,,,,,,,,,,,,,1.6728395000100136,1.0089313999924343,624.3385360999964,None,ScrollUp,정답입니다,624.3385360999964,None,624.3385360999964,None,624.3385360999964,None,624.3385360999964,None,625.2477964000136,None,625.2477964000136,625.7479668000014,,,,,,,,,,,,,,,,020,2022-05-17_11h00.58.805,FishGame,2022.1.1,59.99815206030715,
,3,넌 다재다능해,2,Orange,B,6.208333333333333,4.5,ScrollUp,ScrollDown,Orange.png,5,Positive,Incongruent,,,,,0,0,0,0,,,,,,,,,,,,,,,,,,,,,,,,,,,,,0,2,2,2,,,,,,,,,,,,,,,,,,,,,,,,,,,,,,,,,,,,,,,,,,,,,,,,,,,,,,,,,,,,,,,,,1.9336419701576233,0.9778650000225753,626.3727151000057,None,ScrollUp,정답입니다,626.3727151000057,None,626.3727151000057,None,626.3727151000057,None,626.3727151000057,None,627.2478107000061,None,627.2478107000061,627.7478693000157,,,,,,,,,,,,,,,,020,2022-05-17_11h00.58.805,FishGame,2022.1.1,59.99815206030715,
,4,넌 과감해,3,Green,A,4.833333333333334,4.6,ScrollDown,ScrollUp,Green.png,5,Neutral,Neutral,,,,,0,0,0,0,,,,,,,,,,,,,,,,,,,,,,,,,,,,,0,3,3,3,,,,,,,,,,,,,,,,,,,,,,,,,,,,,,,,,,,,,,,,,,,,,,,,,,,,,,,,,,,,,,,,,1.234567900498708,0.9132298000040464,628.3681316000002,None,ScrollDown,정답입니다,628.3681316000002,None,628.3681316000002,None,628.3681316000002,None,628.3681316000002,None,629.1836268000188,None,629.1836268000188,629.6979937000142,,,,,,,,,,,,,,,,020,2022-05-17_11h00.58.805,FishGame,2022.1.1,59.99815206030715,
,5,넌 고분고분해,3,Orange,B,3.75,4.033333333333333,ScrollUp,ScrollDown,Orange.png,5,Neutral,Neutral,,,,,0,0,0,0,,,,,,,,,,,,,,,,,,,,,,,,,,,,,0,4,4,4,,,,,,,,,,,,,,,,,,,,,,,,,,,,,,,,,,,,,,,,,,,,,,,,,,,,,,,,,,,,,,,,,1.8117283930381138,1.3923995000077412,630.3127892000193,None,ScrollUp,정답입니다,630.3127892000193,None,630.3127892000193,None,630.3127892000193,None,630.3127892000193,None,631.6002004000184,None,631.6002004000184,632.103231200017,,,,,,,,,,,,,,,,020,2022-05-17_11h00.58.805,FishGame,2022.1.1,59.99815206030715,
,6,나를 보내줘,6,Green,A,0,0,ScrollUp,ScrollDown,Green.png,5,NonTarget,NonTarget,,,,,0,0,0,0,,,,,,,,,,,,,,,,,,,,,,,,,,,,,0,5,5,5,,,,,,,,,,,,,,,,,,,,,,,,,,,,,,,,,,,,,,,,,,,,,,,,,,,,,,,,,,,,,,,,,1.7253086368242898,1.0260626999952365,632.7211172000098,None,ScrollUp,정답입니다,632.7211172000098,None,632.7211172000098,None,632.7211172000098,None,632.7211172000098,None,633.6478631000209,None,633.6478631000209,634.1479317000194,,,,,,,,,,,,,,,,020,2022-05-17_11h00.58.805,FishGame,2022.1.1,59.99815206030715,
,7,넌 잘 잊어,4,Green,A,3,3.7,ScrollDown,ScrollUp,Green.png,5,Negative,Incongruent,,,,,0,0,0,0,,,,,,,,,,,,,,,,,,,,,,,,,,,,,0,6,6,6,,,,,,,,,,,,,,,,,,,,,,,,,,,,,,,,,,,,,,,,,,,,,,,,,,,,,,,,,,,,,,,,,1.3101851840813956,1.0424231000069994,634.7783246000181,None,ScrollDown,정답입니다,634.7783246000181,None,634.7783246000181,None,634.7783246000181,None,634.7783246000181,None,635.7146486999991,None,635.7146486999991,636.2167496000184,,,,,,,,,,,,,,,,020,2022-05-17_11h00.58.805,FishGame,2022.1.1,59.99815206030715,
,8,넌 탐구심이없어,4,Orange,B,2.833333333333333,3.066666666666667,ScrollUp,ScrollDown,Orange.png,5,Negative,Congruent,,,,,0,0,0,0,,,,,,,,,,,,,,,,,,,,,,,,,,,,,0,7,7,7,,,,,,,,,,,,,,,,,,,,,,,,,,,,,,,,,,,,,,,,,,,,,,,,,,,,,,,,,,,,,,,,,1.6620370397965112,0.9437514000164811,636.8502009000222,None,ScrollUp,정답입니다,636.8502009000222,None,636.8502009000222,None,636.8502009000222,None,636.8502009000222,None,637.6811290000041,None,637.6811290000041,638.1833251000207,,,,,,,,,,,,,,,,020,2022-05-17_11h00.58.805,FishGame,2022.1.1,59.99815206030715,
,9,나를 데려가줘,6,Orange,B,0,0,ScrollDown,ScrollUp,Orange.png,5,NonTarget,NonTarget,,,,,0,0,0,0,,,,,,,,,,,,,,,,,,,,,,,,,,,,,0,8,8,8,,,,,,,,,,,,,,,,,,,,,,,,,,,,,,,,,,,,,,,,,,,,,,,,,,,,,,,,,,,,,,,,,1.2438271592060726,1.2112018000043463,638.803284900001,None,ScrollDown,정답입니다,638.803284900001,None,638.803284900001,None,638.803284900001,None,638.803284900001,None,639.9166234000004,None,639.9166234000004,640.4333502000081,,,,,,,,,,,,,,,,020,2022-05-17_11h00.58.805,FishGame,2022.1.1,59.99815206030715,
,10,넌 참되어,2,Green,A,6.041666666666664,4.733333333333333,ScrollDown,ScrollUp,Green.png,5,Positive,Congruent,,,,,0,0,0,0,,,,,,,,,,,,,,,,,,,,,,,,,,,,,0,9,9,9,,,,,,,,,,,,,,,,,,,,,,,,,,,,,,,,,,,,,,,,,,,,,,,,,,,,,,,,,,,,,,,,,1.2191358109315236,1.0593703000049572,641.0378416000167,None,ScrollDown,정답입니다,641.0378416000167,None,641.0378416000167,None,641.0378416000167,None,641.0378416000167,None,641.9974448000139,None,641.9974448000139,642.4975474000094,,,,,,,,,,,,,,,,020,2022-05-17_11h00.58.805,FishGame,2022.1.1,59.99815206030715,
,11,넌 생기있어,1,Orange,B,5.875,5.633333333333334,ScrollUp,ScrollDown,Orange.png,5,Positive,Incongruent,,,,,0,0,0,0,,,,,,,,,,,,,,,,,,,,,,,,,,,,,0,10,10,10,,,,,,,,,,,,,,,,,,,,,,,,,,,,,,,,,,,,,,,,,,,,,,,,,,,,,,,,,,,,,,,,,1.6512345671653748,1.211760799982585,643.1189997000038,None,ScrollUp,정답입니다,643.1189997000038,None,643.1189997000038,None,643.1189997000038,None,643.1189997000038,None,644.2307864000031,None,644.2307864000031,644.7308913000161,,,,,,,,,,,,,,,,020,2022-05-17_11h00.58.805,FishGame,2022.1.1,59.99815206030715,
,12,넌 비사교적이야,4,Orange,B,2.875,2.9,ScrollUp,ScrollDown,Orange.png,5,Negative,Congruent,,,,,0,0,0,0,,,,,,,,,,,,,,,,,,,,,,,,,,,,,0,11,11,11,,,,,,,,,,,,,,,,,,,,,,,,,,,,,,,,,,,,,,,,,,,,,,,,,,,,,,,,,,,,,,,,,1.6759259278575578,0.8970824000134598,645.3622115000035,None,ScrollUp,정답입니다,645.3622115000035,None,645.3622115000035,None,645.3622115000035,None,645.3622115000035,None,646.1499500000209,None,646.1499500000209,646.649983100011,,,,,,,,,,,,,,,,020,2022-05-17_11h00.58.805,FishGame,2022.1.1,59.99815206030715,
,13,나를 데려가줘,6,Orange,B,0,0,ScrollDown,ScrollUp,Orange.png,5,NonTarget,NonTarget,,,,,0,0,0,0,,,,,,,,,,,,,,,,,,,,,,,,,,,,,0,12,12,12,,,,,,,,,,,,,,,,,,,,,,,,,,,,,,,,,,,,,,,,,,,,,,,,,,,,,,,,,,,,,,,,,1.2114197413126628,1.0481514999992214,647.2689020000107,None,ScrollDown,정답입니다,647.2689020000107,None,647.2689020000107,None,647.2689020000107,None,647.2689020000107,None,648.2195992000052,None,648.2195992000052,648.7331539000152,,,,,,,,,,,,,,,,020,2022-05-17_11h00.58.805,FishGame,2022.1.1,59.99815206030715,
,14,넌 고독해,4,Green,A,2.916666666666667,3.233333333333333,ScrollDown,ScrollUp,Green.png,5,Negative,Incongruent,,,,,0,0,0,0,,,,,,,,,,,,,,,,,,,,,,,,,,,,,0,13,13,13,,,,,,,,,,,,,,,,,,,,,,,,,,,,,,,,,,,,,,,,,,,,,,,,,,,,,,,,,,,,,,,,,1.1728395173947017,1.0790859000117052,649.3523569000245,None,ScrollDown,정답입니다,649.3523569000245,None,649.3523569000245,None,649.3523569000245,None,649.3523569000245,None,650.3309416999982,None,650.3309416999982,650.8331723000156,,,,,,,,,,,,,,,,020,2022-05-17_11h00.58.805,FishGame,2022.1.1,59.99815206030715,
,15,넌 신경질적이야,5,Orange,B,2.375,2.233333333333333,ScrollUp,ScrollDown,Orange.png,5,Negative,Congruent,,,,,0,0,0,0,,,,,,,,,,,,,,,,,,,,,,,,,,,,,0,14,14,14,,,,,,,,,,,,,,,,,,,,,,,,,,,,,,,,,,,,,,,,,,,,,,,,,,,,,,,,,,,,,,,,,1.604938273628553,0.976262600015616,651.4740784000023,None,ScrollUp,정답입니다,651.4740784000023,None,651.4740784000023,None,651.4740784000023,None,651.4740784000023,None,652.3308160000015,None,652.3308160000015,652.833010900009,,,,,,,,,,,,,,,,020,2022-05-17_11h00.58.805,FishGame,2022.1.1,59.99815206030715,
,16,넌 똑똑해,2,Orange,B,5.666666666666667,3.966666666666667,ScrollUp,ScrollDown,Orange.png,5,Positive,Incongruent,,,,,0,0,0,0,,,,,,,,,,,,,,,,,,,,,,,,,,,,,0,15,15,15,,,,,,,,,,,,,,,,,,,,,,,,,,,,,,,,,,,,,,,,,,,,,,,,,,,,,,,,,,,,,,,,,1.7530864129463832,0.9258400999824516,653.4588673000108,None,ScrollUp,정답입니다,653.4588673000108,None,653.4588673000108,None,653.4588673000108,None,653.4588673000108,None,654.2829600000114,None,654.2829600000114,654.799674800015,,,,,,,,,,,,,,,,020,2022-05-17_11h00.58.805,FishGame,2022.1.1,59.99815206030715,
,17,나를 보내줘,6,Green,A,0,0,ScrollUp,ScrollDown,Green.png,5,NonTarget,NonTarget,,,,,0,0,0,0,,,,,,,,,,,,,,,,,,,,,,,,,,,,,0,16,16,16,,,,,,,,,,,,,,,,,,,,,,,,,,,,,,,,,,,,,,,,,,,,,,,,,,,,,,,,,,,,,,,,,1.7546296268701553,1.1113063000084367,655.4090529000096,None,ScrollUp,정답입니다,655.4090529000096,None,655.4090529000096,None,655.4090529000096,None,655.4090529000096,None,656.4162776000157,None,656.4162776000157,656.9163440999982,,,,,,,,,,,,,,,,020,2022-05-17_11h00.58.805,FishGame,2022.1.1,59.99815206030715,
,18,넌 협조적이야,1,Green,A,5.625,5.666666666666667,ScrollDown,ScrollUp,Green.png,5,Positive,Congruent,,,,,0,0,0,0,,,,,,,,,,,,,,,,,,,,,,,,,,,,,0,17,17,17,,,,,,,,,,,,,,,,,,,,,,,,,,,,,,,,,,,,,,,,,,,,,,,,,,,,,,,,,,,,,,,,,1.2453703731298447,1.5931004000012763,657.5397529000184,None,ScrollDown,정답입니다,657.5397529000184,None,657.5397529000184,None,657.5397529000184,None,657.5397529000184,None,659.0328385000175,None,659.0328385000175,659.5496364000137,,,,,,,,,,,,,,,,020,2022-05-17_11h00.58.805,FishGame,2022.1.1,59.99815206030715,
,19,나를 데려가줘,6,Orange,B,0,0,ScrollDown,ScrollUp,Orange.png,5,NonTarget,NonTarget,,,,,0,0,0,0,,,,,,,,,,,,,,,,,,,,,,,,,,,,,0,18,18,18,,,,,,,,,,,,,,,,,,,,,,,,,,,,,,,,,,,,,,,,,,,,,,,,,,,,,,,,,,,,,,,,,1.248456800977389,1.159241999994265,660.1552609000064,None,ScrollDown,정답입니다,660.1552609000064,None,660.1552609000064,None,660.1552609000064,None,660.1552609000064,None,661.2140493000043,None,661.2140493000043,661.7140161000134,,,,,,,,,,,,,,,,020,2022-05-17_11h00.58.805,FishGame,2022.1.1,59.99815206030715,
,20,넌 몰인정해,5,Orange,B,2.541666666666667,2.066666666666667,ScrollUp,ScrollDown,Orange.png,5,Negative,Congruent,,,,,0,0,0,0,,,,,,,,,,,,,,,,,,,,,,,,,,,,,0,19,19,19,,,,,,,,,,,,,,,,,,,,,,,,,,,,,,,,,,,,,,,,,,,,,,,,,,,,,,,,,,,,,,,,,1.723765422900518,0.9606356000003871,662.3394641000195,None,ScrollUp,정답입니다,662.3394641000195,None,662.3394641000195,None,662.3394641000195,None,662.3394641000195,None,663.1972908000171,None,663.1972908000171,663.6973362000135,,,,,,,,,,,,,,,,020,2022-05-17_11h00.58.805,FishGame,2022.1.1,59.99815206030715,
,21,나를 데려가줘,6,Orange,B,0,0,ScrollDown,ScrollUp,Orange.png,5,NonTarget,NonTarget,,,,,0,0,0,0,,,,,,,,,,,,,,,,,,,,,,,,,,,,,0,20,20,20,,,,,,,,,,,,,,,,,,,,,,,,,,,,,,,,,,,,,,,,,,,,,,,,,,,,,,,,,,,,,,,,,1.115740751226743,1.1426729000231717,664.3260340999987,None,ScrollDown,정답입니다,664.3260340999987,None,664.3260340999987,None,664.3260340999987,None,664.3260340999987,None,665.3639591000101,None,665.3639591000101,665.8661686000123,,,,,,,,,,,,,,,,020,2022-05-17_11h00.58.805,FishGame,2022.1.1,59.99815206030715,
