name,TrialNum,Word,WordCategory,FishType,WordList,WordValence,WordReputation,CorrectResp,IncorrectResp,FishTypeFile,Round,WordType,Condition,LoopforOrange.thisRepN,LoopforOrange.thisTrialN,LoopforOrange.thisN,LoopforOrange.thisIndex,OrangeInstLoop.thisRepN,OrangeInstLoop.thisTrialN,OrangeInstLoop.thisN,OrangeInstLoop.thisIndex,OrangePrac.thisRepN,OrangePrac.thisTrialN,OrangePrac.thisN,OrangePrac.thisIndex,temp1.thisRepN,temp1.thisTrialN,temp1.thisN,temp1.thisIndex,OrangeRound1.thisRepN,OrangeRound1.thisTrialN,OrangeRound1.thisN,OrangeRound1.thisIndex,OrangeRound2.thisRepN,OrangeRound2.thisTrialN,OrangeRound2.thisN,OrangeRound2.thisIndex,OrangeRound3.thisRepN,OrangeRound3.thisTrialN,OrangeRound3.thisN,OrangeRound3.thisIndex,OrangeRound4.thisRepN,OrangeRound4.thisTrialN,OrangeRound4.thisN,OrangeRound4.thisIndex,OrangeRound5.thisRepN,OrangeRound5.thisTrialN,OrangeRound5.thisN,OrangeRound5.thisIndex,LoopForGreen.thisRepN,LoopForGreen.thisTrialN,LoopForGreen.thisN,LoopForGreen.thisIndex,text_2.started,text_2.stopped,text_3.started,text_3.stopped,key_resp.keys,key_resp.rt,key_resp.started,key_resp.stopped,PassI_2.started,PassI_2.stopped,PassInst_2.keys,PassInst_2.rt,PassInst_2.started,PassInst_2.stopped,mouse_2.x,mouse_2.y,mouse_2.leftButton,mouse_2.midButton,mouse_2.rightButton,mouse_2.started,mouse_2.stopped,image.started,image.stopped,text_5.started,text_5.stopped,text_6.started,text_6.stopped,text_7.started,text_7.stopped,text_8.started,text_8.stopped,slider_2.response,slider_2.rt,slider_2.started,slider_2.stopped,Response_2,Feedback_2,BackGround_2.started,BackGround_2.stopped,Fish_2.started,Fish_2.stopped,WordBox_2.started,WordBox_2.stopped,Words_2.started,Words_2.stopped,BackGround_Feedback_2.started,BackGround_Feedback_2.stopped,Feedbacks_2.started,Feedbacks_2.stopped,Continue_or_not.keys,Continue_or_not.rt,Continue_or_not.started,Continue_or_not.stopped,image_3.started,image_3.stopped,mouse_3.x,mouse_3.y,mouse_3.leftButton,mouse_3.midButton,mouse_3.rightButton,mouse_3.started,mouse_3.stopped,startmain.started,startmain.stopped,slider.response,slider.rt,slider.started,slider.stopped,Response,Feedback,BackGround.started,BackGround.stopped,Fish.started,Fish.stopped,WordBox.started,WordBox.stopped,Words.started,Words.stopped,BackGround_Feedback.started,BackGround_Feedback.stopped,Feedbacks.started,Feedbacks.stopped,text.started,text.stopped,break_interval.started,break_interval.stopped,mouse.x,mouse.y,mouse.leftButton,mouse.midButton,mouse.rightButton,mouse.started,mouse.stopped,stratnextround.started,stratnextround.stopped,endgame.started,endgame.stopped,participant,date,expName,psychopyVersion,frameRate,
,,,,,,,,,,,,,,,,,,,,,,,,,,,,,,,,,,,,,,,,,,,,,,,,,,,,,,16.879660400009016,None,16.879660400009016,None,space,0.7135003999865148,17.36432429999695,None,,,,,,,,,,,,,,,,,,,,,,,,,,,,,,,,,,,,,,,,,,,,,,,,,,,,,,,,,,,,,,,,,,,,,,,,,,,,,,,,,,,,,,,,,,021,2022-05-18_11h15.05.089,FishGame,2022.1.1,60.00074401139849,
물고기과제_instruction(참가자용)OrangeVersion.mp4,,,,,,,,,,,,,,0,0,0,0,0,0,0,0,,,,,,,,,,,,,,,,,,,,,,,,,,,,,,,,,,,,,,,,,91.19619539999985,None,n,1.5613757999963127,91.19619539999985,None,,,,,,,,,,,,,,,,,,,,,,,,,,,,,,,,,,,,,,,,,,,,,,,,,,,,,,,,,,,,,,,,,,,,,,,,,,,,,,,,,,,,021,2022-05-18_11h15.05.089,FishGame,2022.1.1,60.00074401139849,
,1,넌 교활해,5,Green,B,2.333333333333333,2.133333333333333,ScrollUp,ScrollDown,Green.png,practice,,,0,0,0,0,,,,,0,0,0,0,0,0,0,0,,,,,,,,,,,,,,,,,,,,,,,,,,,,,,,,,,,,,,,0.325,-0.05,1,0,0,0.5125136799761094,None,92.77401130000362,None,98.19065830000909,99.69289589999244,99.72393889998784,100.6762366000039,100.72624439999345,101.6762303999858,101.6762303999858,None,2,2.251683399983449,102.973727900011,None,ScrollUp,정답입니다,102.973727900011,None,102.973727900011,None,102.973727900011,None,102.973727900011,None,104.92381770000793,None,104.92381770000793,105.42600099998526,,,,,,,,,,,,,,,,,,,,,,,,,,,,,,,,,,,,,,,,,,,,,,,,,021,2022-05-18_11h15.05.089,FishGame,2022.1.1,60.00074401139849,
,2,넌 슬기로워,2,Orange,A,6.166666666666667,4.1,ScrollDown,ScrollUp,Orange.png,practice,,,0,0,0,0,,,,,0,0,0,0,0,1,1,1,,,,,,,,,,,,,,,,,,,,,,,,,,,,,,,,,,,,,,,,,,,,,,,,,,,,,,,,1,1.0088888999889605,106.0568268999923,None,ScrollDown,정답입니다,106.0568268999923,None,106.0568268999923,None,106.0568268999923,None,106.0568268999923,None,106.95682799999486,None,106.95682799999486,107.45688760001212,,,,,,,,,,,,,,,,,,,,,,,,,,,,,,,,,,,,,,,,,,,,,,,,,021,2022-05-18_11h15.05.089,FishGame,2022.1.1,60.00074401139849,
,3,나를 보내줘,6,Orange,A,0,0,ScrollUp,ScrollDown,Orange.png,practice,,,0,0,0,0,,,,,0,0,0,0,0,2,2,2,,,,,,,,,,,,,,,,,,,,,,,,,,,,,,,,,,,,,,,,,,,,,,,,,,,,,,,,2,1.5125349000154529,108.07516979999491,None,ScrollUp,정답입니다,108.07516979999491,None,108.07516979999491,None,108.07516979999491,None,108.07516979999491,None,109.49056979999295,None,109.49056979999295,109.9927134999889,,,,,,,,,,,,,,,,,,,,,,,,,,,,,,,,,,,,,,,,,,,,,,,,,021,2022-05-18_11h15.05.089,FishGame,2022.1.1,60.00074401139849,
,4,나를 데려가줘,6,Green,B,0,0,ScrollDown,ScrollUp,Green.png,practice,,,0,0,0,0,,,,,0,0,0,0,0,3,3,3,,,,,,,,,,,,,,,,,,,,,,,,,,,,,,,,,,,,,,,,,,,,,,,,,,,,,,,,1,1.1442626000207383,110.61166029999731,None,ScrollDown,정답입니다,110.61166029999731,None,110.61166029999731,None,110.61166029999731,None,110.61166029999731,None,111.65699839999434,None,111.65699839999434,112.15916809998453,,,,,,,,,,,,,,,,,,,,,,,,,,,,,,,,,,,,,,,,,,,,,,,,,021,2022-05-18_11h15.05.089,FishGame,2022.1.1,60.00074401139849,
,1,넌 교활해,5,Green,B,2.333333333333333,2.133333333333333,ScrollUp,ScrollDown,Green.png,practice,,,0,0,0,0,,,,,0,0,0,0,,,,,,,,,,,,,,,,,,,,,,,,,,,,,,,,,,,,,,,,,,,,,,,,,,,,,,,,,,,,,,,,,,,,,,,,,,,,,,n,7.995055100007448,112.6592462999979,None,112.6592462999979,None,,,,,,,,,,,,,,,,,,,,,,,,,,,,,,,,,,,,,,,,,,,021,2022-05-18_11h15.05.089,FishGame,2022.1.1,60.00074401139849,
,1,넌 따뜻해,1,Green,B,6.083333333333333,5.6,ScrollUp,ScrollDown,Green.png,1,Positive,Incongruent,0,0,0,0,,,,,,,,,,,,,0,0,0,0,,,,,,,,,,,,,,,,,,,,,,,,,,,,,,,,,,,,,,,,,,,,121.85681520000799,123.3568011999887,123.39013610000256,124.34248269998352,124.39248700000462,125.34244400000898,125.34244400000898,None,,,,,,,,,,,,,,,,,,,,,,,,,0.25833333,0.0074074073,1,0,0,0.3138020799669903,None,120.67350579999038,None,2,1.7490025000006426,126.64340949998586,None,ScrollUp,정답입니다,126.64340949998586,None,126.64340949998586,None,126.64340949998586,None,126.64340949998586,None,128.09002939998754,None,128.09002939998754,128.58999909998965,,,,,,,,,,,,,,,,021,2022-05-18_11h15.05.089,FishGame,2022.1.1,60.00074401139849,
,2,넌 기품있어,2,Green,B,5.791666666666668,4.5,ScrollUp,ScrollDown,Green.png,1,Positive,Incongruent,0,0,0,0,,,,,,,,,,,,,0,1,1,1,,,,,,,,,,,,,,,,,,,,,,,,,,,,,,,,,,,,,,,,,,,,,,,,,,,,,,,,,,,,,,,,,,,,,,,,,,,,,,,,,,,,,2,1.111304599995492,129.21471369999927,None,ScrollUp,정답입니다,129.21471369999927,None,129.21471369999927,None,129.21471369999927,None,129.21471369999927,None,130.22328360000392,None,130.22328360000392,130.7231887000089,,,,,,,,,,,,,,,,021,2022-05-18_11h15.05.089,FishGame,2022.1.1,60.00074401139849,
,3,나를 보내줘,6,Orange,A,0,0,ScrollUp,ScrollDown,Orange.png,1,NonTarget,NonTarget,0,0,0,0,,,,,,,,,,,,,0,2,2,2,,,,,,,,,,,,,,,,,,,,,,,,,,,,,,,,,,,,,,,,,,,,,,,,,,,,,,,,,,,,,,,,,,,,,,,,,,,,,,,,,,,,,2,1.3091002999863122,131.3594415000116,None,ScrollUp,정답입니다,131.3594415000116,None,131.3594415000116,None,131.3594415000116,None,131.3594415000116,None,132.55876230000285,None,132.55876230000285,133.0588138999883,,,,,,,,,,,,,,,,021,2022-05-18_11h15.05.089,FishGame,2022.1.1,60.00074401139849,
,4,넌 수동적이야,4,Orange,A,2.833333333333333,2.933333333333333,ScrollDown,ScrollUp,Orange.png,1,Negative,Incongruent,0,0,0,0,,,,,,,,,,,,,0,3,3,3,,,,,,,,,,,,,,,,,,,,,,,,,,,,,,,,,,,,,,,,,,,,,,,,,,,,,,,,,,,,,,,,,,,,,,,,,,,,,,,,,,,,,1,1.3925768999906722,133.69924680000986,None,ScrollDown,정답입니다,133.69924680000986,None,133.69924680000986,None,133.69924680000986,None,133.69924680000986,None,134.97294340000371,None,134.97294340000371,135.47300510000787,,,,,,,,,,,,,,,,021,2022-05-18_11h15.05.089,FishGame,2022.1.1,60.00074401139849,
,5,넌 사심이 없어,3,Green,B,4.916666666666666,4.333333333333333,ScrollUp,ScrollDown,Green.png,1,Neutral,Neutral,0,0,0,0,,,,,,,,,,,,,0,4,4,4,,,,,,,,,,,,,,,,,,,,,,,,,,,,,,,,,,,,,,,,,,,,,,,,,,,,,,,,,,,,,,,,,,,,,,,,,,,,,,,,,,,,,2,1.4285056000226177,136.10051809999277,None,ScrollUp,정답입니다,136.10051809999277,None,136.10051809999277,None,136.10051809999277,None,136.10051809999277,None,137.42555620000348,None,137.42555620000348,137.9256061000051,,,,,,,,,,,,,,,,021,2022-05-18_11h15.05.089,FishGame,2022.1.1,60.00074401139849,
,6,넌 헤퍼,5,Orange,A,2.458333333333334,2.233333333333333,ScrollDown,ScrollUp,Orange.png,1,Negative,Incongruent,0,0,0,0,,,,,,,,,,,,,0,5,5,5,,,,,,,,,,,,,,,,,,,,,,,,,,,,,,,,,,,,,,,,,,,,,,,,,,,,,,,,,,,,,,,,,,,,,,,,,,,,,,,,,,,,,1,1.593708600004902,138.5542046999908,None,ScrollDown,정답입니다,138.5542046999908,None,138.5542046999908,None,138.5542046999908,None,138.5542046999908,None,140.0419772999885,None,140.0419772999885,140.54195360001177,,,,,,,,,,,,,,,,021,2022-05-18_11h15.05.089,FishGame,2022.1.1,60.00074401139849,
,7,넌 말쑥해,3,Orange,A,4.833333333333334,4.333333333333333,ScrollDown,ScrollUp,Orange.png,1,Neutral,Neutral,0,0,0,0,,,,,,,,,,,,,0,6,6,6,,,,,,,,,,,,,,,,,,,,,,,,,,,,,,,,,,,,,,,,,,,,,,,,,,,,,,,,,,,,,,,,,,,,,,,,,,,,,,,,,,,,,1,1.3587094999966212,141.1691123000055,None,ScrollDown,정답입니다,141.1691123000055,None,141.1691123000055,None,141.1691123000055,None,141.1691123000055,None,142.42276560000028,None,142.42276560000028,142.9228366999887,,,,,,,,,,,,,,,,021,2022-05-18_11h15.05.089,FishGame,2022.1.1,60.00074401139849,
,8,넌 투덜거려,5,Green,B,2.541666666666667,2.266666666666667,ScrollUp,ScrollDown,Green.png,1,Negative,Congruent,0,0,0,0,,,,,,,,,,,,,0,7,7,7,,,,,,,,,,,,,,,,,,,,,,,,,,,,,,,,,,,,,,,,,,,,,,,,,,,,,,,,,,,,,,,,,,,,,,,,,,,,,,,,,,,,,2,1.1288390000117943,143.56187589999172,None,ScrollUp,정답입니다,143.56187589999172,None,143.56187589999172,None,143.56187589999172,None,143.56187589999172,None,144.57538850000128,None,144.57538850000128,145.07534139999188,,,,,,,,,,,,,,,,021,2022-05-18_11h15.05.089,FishGame,2022.1.1,60.00074401139849,
,9,넌 적극적이야,1,Orange,A,5.708333333333333,5.533333333333333,ScrollDown,ScrollUp,Orange.png,1,Positive,Congruent,0,0,0,0,,,,,,,,,,,,,0,8,8,8,,,,,,,,,,,,,,,,,,,,,,,,,,,,,,,,,,,,,,,,,,,,,,,,,,,,,,,,,,,,,,,,,,,,,,,,,,,,,,,,,,,,,1,1.3627583000052255,145.6961072999984,None,ScrollDown,정답입니다,145.6961072999984,None,145.6961072999984,None,145.6961072999984,None,145.6961072999984,None,146.9584759999998,None,146.9584759999998,147.45847809998668,,,,,,,,,,,,,,,,021,2022-05-18_11h15.05.089,FishGame,2022.1.1,60.00074401139849,
,10,넌 재미없어,4,Green,B,2.625,2.966666666666667,ScrollUp,ScrollDown,Green.png,1,Negative,Congruent,0,0,0,0,,,,,,,,,,,,,0,9,9,9,,,,,,,,,,,,,,,,,,,,,,,,,,,,,,,,,,,,,,,,,,,,,,,,,,,,,,,,,,,,,,,,,,,,,,,,,,,,,,,,,,,,,2,1.0425748999987263,148.08195039999555,None,ScrollUp,정답입니다,148.08195039999555,None,148.08195039999555,None,148.08195039999555,None,148.08195039999555,None,149.0251433000085,None,149.0251433000085,149.52849319999223,,,,,,,,,,,,,,,,021,2022-05-18_11h15.05.089,FishGame,2022.1.1,60.00074401139849,
,11,넌 명석해,2,Orange,A,5.875,4.033333333333333,ScrollDown,ScrollUp,Orange.png,1,Positive,Congruent,0,0,0,0,,,,,,,,,,,,,0,10,10,10,,,,,,,,,,,,,,,,,,,,,,,,,,,,,,,,,,,,,,,,,,,,,,,,,,,,,,,,,,,,,,,,,,,,,,,,,,,,,,,,,,,,,1,1.2094225000182632,150.16718749998836,None,ScrollDown,정답입니다,150.16718749998836,None,150.16718749998836,None,150.16718749998836,None,150.16718749998836,None,151.27289510000264,None,151.27289510000264,151.77508630001103,,,,,,,,,,,,,,,,021,2022-05-18_11h15.05.089,FishGame,2022.1.1,60.00074401139849,
,12,나를 데려가줘,6,Green,B,0,0,ScrollDown,ScrollUp,Green.png,1,NonTarget,NonTarget,0,0,0,0,,,,,,,,,,,,,0,11,11,11,,,,,,,,,,,,,,,,,,,,,,,,,,,,,,,,,,,,,,,,,,,,,,,,,,,,,,,,,,,,,,,,,,,,,,,,,,,,,,,,,,,,,1,1.5593500999966636,152.40063970000483,None,ScrollDown,정답입니다,152.40063970000483,None,152.40063970000483,None,152.40063970000483,None,152.40063970000483,None,153.8561910999997,None,153.8561910999997,154.35831049998524,,,,,,,,,,,,,,,,021,2022-05-18_11h15.05.089,FishGame,2022.1.1,60.00074401139849,
,13,넌 소심해,4,Orange,A,3,3.1,ScrollDown,ScrollUp,Orange.png,1,Negative,Incongruent,0,0,0,0,,,,,,,,,,,,,0,12,12,12,,,,,,,,,,,,,,,,,,,,,,,,,,,,,,,,,,,,,,,,,,,,,,,,,,,,,,,,,,,,,,,,,,,,,,,,,,,,,,,,,,,,,1,1.1925845999794547,154.98734630001127,None,ScrollDown,정답입니다,154.98734630001127,None,154.98734630001127,None,154.98734630001127,None,154.98734630001127,None,156.0727654999937,None,156.0727654999937,156.57493820000673,,,,,,,,,,,,,,,,021,2022-05-18_11h15.05.089,FishGame,2022.1.1,60.00074401139849,
,14,넌 합리적이야,2,Orange,A,5.583333333333333,4.733333333333333,ScrollDown,ScrollUp,Orange.png,1,Positive,Congruent,0,0,0,0,,,,,,,,,,,,,0,13,13,13,,,,,,,,,,,,,,,,,,,,,,,,,,,,,,,,,,,,,,,,,,,,,,,,,,,,,,,,,,,,,,,,,,,,,,,,,,,,,,,,,,,,,1,1.0259821000217926,157.20303490001243,None,ScrollDown,정답입니다,157.20303490001243,None,157.20303490001243,None,157.20303490001243,None,157.20303490001243,None,158.12276940001175,None,158.12276940001175,158.62497649999568,,,,,,,,,,,,,,,,021,2022-05-18_11h15.05.089,FishGame,2022.1.1,60.00074401139849,
,15,넌 무자비해,5,Green,B,2.333333333333333,2.1,ScrollUp,ScrollDown,Green.png,1,Negative,Congruent,0,0,0,0,,,,,,,,,,,,,0,14,14,14,,,,,,,,,,,,,,,,,,,,,,,,,,,,,,,,,,,,,,,,,,,,,,,,,,,,,,,,,,,,,,,,,,,,,,,,,,,,,,,,,,,,,2,1.0945528000011109,159.25100119999843,None,ScrollUp,정답입니다,159.25100119999843,None,159.25100119999843,None,159.25100119999843,None,159.25100119999843,None,160.2393360999995,None,160.2393360999995,160.73939979998977,,,,,,,,,,,,,,,,021,2022-05-18_11h15.05.089,FishGame,2022.1.1,60.00074401139849,
,16,나를 보내줘,6,Orange,A,0,0,ScrollUp,ScrollDown,Orange.png,1,NonTarget,NonTarget,0,0,0,0,,,,,,,,,,,,,0,15,15,15,,,,,,,,,,,,,,,,,,,,,,,,,,,,,,,,,,,,,,,,,,,,,,,,,,,,,,,,,,,,,,,,,,,,,,,,,,,,,,,,,,,,,2,1.325529199995799,161.36697750000167,None,ScrollUp,정답입니다,161.36697750000167,None,161.36697750000167,None,161.36697750000167,None,161.36697750000167,None,162.58906659999047,None,162.58906659999047,163.0891161999898,,,,,,,,,,,,,,,,021,2022-05-18_11h15.05.089,FishGame,2022.1.1,60.00074401139849,
,17,넌 현실적이야,3,Green,B,4.608695652173913,4.766666666666667,ScrollUp,ScrollDown,Green.png,1,Neutral,Neutral,0,0,0,0,,,,,,,,,,,,,0,16,16,16,,,,,,,,,,,,,,,,,,,,,,,,,,,,,,,,,,,,,,,,,,,,,,,,,,,,,,,,,,,,,,,,,,,,,,,,,,,,,,,,,,,,,2,1.3117019000055734,163.71100849998766,None,ScrollUp,정답입니다,163.71100849998766,None,163.71100849998766,None,163.71100849998766,None,163.71100849998766,None,164.92494130000705,None,164.92494130000705,165.4249664999952,,,,,,,,,,,,,,,,021,2022-05-18_11h15.05.089,FishGame,2022.1.1,60.00074401139849,
,18,넌 의리있어,1,Green,B,5.833333333333334,5.633333333333334,ScrollUp,ScrollDown,Green.png,1,Positive,Incongruent,0,0,0,0,,,,,,,,,,,,,0,17,17,17,,,,,,,,,,,,,,,,,,,,,,,,,,,,,,,,,,,,,,,,,,,,,,,,,,,,,,,,,,,,,,,,,,,,,,,,,,,,,,,,,,,,,2,1.0896040999796242,166.04987869999604,None,ScrollUp,정답입니다,166.04987869999604,None,166.04987869999604,None,166.04987869999604,None,166.04987869999604,None,167.02636799999163,None,167.02636799999163,167.53903439998976,,,,,,,,,,,,,,,,021,2022-05-18_11h15.05.089,FishGame,2022.1.1,60.00074401139849,
,19,넌 신경과민이야,5,Orange,A,2.541666666666667,2.166666666666667,ScrollDown,ScrollUp,Orange.png,1,Negative,Incongruent,0,0,0,0,,,,,,,,,,,,,0,18,18,18,,,,,,,,,,,,,,,,,,,,,,,,,,,,,,,,,,,,,,,,,,,,,,,,,,,,,,,,,,,,,,,,,,,,,,,,,,,,,,,,,,,,,1,1.445188000012422,168.1672491999925,None,ScrollDown,정답입니다,168.1672491999925,None,168.1672491999925,None,168.1672491999925,None,168.1672491999925,None,169.50562139999238,None,169.50562139999238,170.0083278999955,,,,,,,,,,,,,,,,021,2022-05-18_11h15.05.089,FishGame,2022.1.1,60.00074401139849,
,20,넌 편안해,1,Orange,A,5.916666666666666,5.866666666666666,ScrollDown,ScrollUp,Orange.png,1,Positive,Congruent,0,0,0,0,,,,,,,,,,,,,0,19,19,19,,,,,,,,,,,,,,,,,,,,,,,,,,,,,,,,,,,,,,,,,,,,,,,,,,,,,,,,,,,,,,,,,,,,,,,,,,,,,,,,,,,,,1,0.9948161999927834,170.63075929999468,None,ScrollDown,정답입니다,170.63075929999468,None,170.63075929999468,None,170.63075929999468,None,170.63075929999468,None,171.52475579999737,None,171.52475579999737,172.04137620000984,,,,,,,,,,,,,,,,021,2022-05-18_11h15.05.089,FishGame,2022.1.1,60.00074401139849,
,21,넌 품위있어,2,Green,B,5.291666666666666,4.466666666666667,ScrollUp,ScrollDown,Green.png,1,Positive,Incongruent,0,0,0,0,,,,,,,,,,,,,0,20,20,20,,,,,,,,,,,,,,,,,,,,,,,,,,,,,,,,,,,,,,,,,,,,,,,,,,,,,,,,,,,,,,,,,,,,,,,,,,,,,,,,,,,,,2,1.0093125999846961,172.64906039999914,None,ScrollUp,정답입니다,172.64906039999914,None,172.64906039999914,None,172.64906039999914,None,172.64906039999914,None,173.55577889998676,None,173.55577889998676,174.05797600001097,,,,,,,,,,,,,,,,021,2022-05-18_11h15.05.089,FishGame,2022.1.1,60.00074401139849,
,22,넌 빈틈없어,3,Orange,A,4.833333333333333,3.966666666666667,ScrollDown,ScrollUp,Orange.png,1,Neutral,Neutral,0,0,0,0,,,,,,,,,,,,,0,21,21,21,,,,,,,,,,,,,,,,,,,,,,,,,,,,,,,,,,,,,,,,,,,,,,,,,,,,,,,,,,,,,,,,,,,,,,,,,,,,,,,,,,,,,1,0.9438604999741074,174.6866982000065,None,ScrollDown,정답입니다,174.6866982000065,None,174.6866982000065,None,174.6866982000065,None,174.6866982000065,None,175.52212879998842,None,175.52212879998842,176.02220820001094,,,,,,,,,,,,,,,,021,2022-05-18_11h15.05.089,FishGame,2022.1.1,60.00074401139849,
,23,넌 상상력없어,4,Green,B,2.833333333333333,3.133333333333333,ScrollUp,ScrollDown,Green.png,1,Negative,Congruent,0,0,0,0,,,,,,,,,,,,,0,22,22,22,,,,,,,,,,,,,,,,,,,,,,,,,,,,,,,,,,,,,,,,,,,,,,,,,,,,,,,,,,,,,,,,,,,,,,,,,,,,,,,,,,,,,2,1.1954894999798853,176.6609075999877,None,ScrollUp,정답입니다,176.6609075999877,None,176.6609075999877,None,176.6609075999877,None,176.6609075999877,None,177.74142820000998,None,177.74142820000998,178.24132239999017,,,,,,,,,,,,,,,,021,2022-05-18_11h15.05.089,FishGame,2022.1.1,60.00074401139849,
,24,넌 지혜로워,2,Green,B,6.333333333333334,4.633333333333334,ScrollUp,ScrollDown,Green.png,1,Positive,Incongruent,0,0,0,0,,,,,,,,,,,,,0,23,23,23,,,,,,,,,,,,,,,,,,,,,,,,,,,,,,,,,,,,,,,,,,,,,,,,,,,,,,,,,,,,,,,,,,,,,,,,,,,,,,,,,,,,,2,1.2102168000128586,178.86531669998658,None,ScrollUp,정답입니다,178.86531669998658,None,178.86531669998658,None,178.86531669998658,None,178.86531669998658,None,179.972047999996,None,179.972047999996,180.4721137000015,,,,,,,,,,,,,,,,021,2022-05-18_11h15.05.089,FishGame,2022.1.1,60.00074401139849,
,25,넌 시끄러워,4,Orange,A,2.833333333333333,3.033333333333333,ScrollDown,ScrollUp,Orange.png,1,Negative,Incongruent,0,0,0,0,,,,,,,,,,,,,0,24,24,24,,,,,,,,,,,,,,,,,,,,,,,,,,,,,,,,,,,,,,,,,,,,,,,,,,,,,,,,,,,,,,,,,,,,,,,,,,,,,,,,,,,,,1,0.8448003999947105,181.09786380000878,None,ScrollDown,정답입니다,181.09786380000878,None,181.09786380000878,None,181.09786380000878,None,181.09786380000878,None,181.838725300011,None,181.838725300011,182.34122030000435,,,,,,,,,,,,,,,,021,2022-05-18_11h15.05.089,FishGame,2022.1.1,60.00074401139849,
,26,넌 만사태평이야,3,Green,B,4,4.333333333333333,ScrollUp,ScrollDown,Green.png,1,Neutral,Neutral,0,0,0,0,,,,,,,,,,,,,0,25,25,25,,,,,,,,,,,,,,,,,,,,,,,,,,,,,,,,,,,,,,,,,,,,,,,,,,,,,,,,,,,,,,,,,,,,,,,,,,,,,,,,,,,,,2,1.0442831999971531,182.96768780000275,None,ScrollUp,정답입니다,182.96768780000275,None,182.96768780000275,None,182.96768780000275,None,182.96768780000275,None,183.90787910000654,None,183.90787910000654,184.41100659998483,,,,,,,,,,,,,,,,021,2022-05-18_11h15.05.089,FishGame,2022.1.1,60.00074401139849,
,27,넌 붙임성있어,1,Orange,A,5.708333333333333,5.633333333333334,ScrollDown,ScrollUp,Orange.png,1,Positive,Congruent,0,0,0,0,,,,,,,,,,,,,0,26,26,26,,,,,,,,,,,,,,,,,,,,,,,,,,,,,,,,,,,,,,,,,,,,,,,,,,,,,,,,,,,,,,,,,,,,,,,,,,,,,,,,,,,,,1,1.010380499996245,185.0360825000098,None,ScrollDown,정답입니다,185.0360825000098,None,185.0360825000098,None,185.0360825000098,None,185.0360825000098,None,185.93885770000634,None,185.93885770000634,186.44108550000237,,,,,,,,,,,,,,,,021,2022-05-18_11h15.05.089,FishGame,2022.1.1,60.00074401139849,
,28,넌 영리해,2,Orange,A,6,4.033333333333333,ScrollDown,ScrollUp,Orange.png,1,Positive,Congruent,0,0,0,0,,,,,,,,,,,,,0,27,27,27,,,,,,,,,,,,,,,,,,,,,,,,,,,,,,,,,,,,,,,,,,,,,,,,,,,,,,,,,,,,,,,,,,,,,,,,,,,,,,,,,,,,,1,0.9257002999947872,187.06664979999186,None,ScrollDown,정답입니다,187.06664979999186,None,187.06664979999186,None,187.06664979999186,None,187.06664979999186,None,187.8885738000099,None,187.8885738000099,188.3886353999842,,,,,,,,,,,,,,,,021,2022-05-18_11h15.05.089,FishGame,2022.1.1,60.00074401139849,
,29,넌 열심이야,1,Green,B,6.041666666666667,5.833333333333333,ScrollUp,ScrollDown,Green.png,1,Positive,Incongruent,0,0,0,0,,,,,,,,,,,,,0,28,28,28,,,,,,,,,,,,,,,,,,,,,,,,,,,,,,,,,,,,,,,,,,,,,,,,,,,,,,,,,,,,,,,,,,,,,,,,,,,,,,,,,,,,,2,0.9951115000003483,189.01710989998537,None,ScrollUp,정답입니다,189.01710989998537,None,189.01710989998537,None,189.01710989998537,None,189.01710989998537,None,189.90785729998606,None,189.90785729998606,190.40773539998918,,,,,,,,,,,,,,,,021,2022-05-18_11h15.05.089,FishGame,2022.1.1,60.00074401139849,
,30,넌 인기없어,4,Green,B,3,3.3,ScrollUp,ScrollDown,Green.png,1,Negative,Congruent,0,0,0,0,,,,,,,,,,,,,0,29,29,29,,,,,,,,,,,,,,,,,,,,,,,,,,,,,,,,,,,,,,,,,,,,,,,,,,,,,,,,,,,,,,,,,,,,,,,,,,,,,,,,,,,,,2,0.9808297000126913,191.02622379999957,None,ScrollUp,정답입니다,191.02622379999957,None,191.02622379999957,None,191.02622379999957,None,191.02622379999957,None,191.90769799999543,None,191.90769799999543,192.40536919998704,,,,,,,,,,,,,,,,021,2022-05-18_11h15.05.089,FishGame,2022.1.1,60.00074401139849,
,31,넌 익살스러워,3,Orange,A,4.708333333333334,4.833333333333333,ScrollDown,ScrollUp,Orange.png,1,Neutral,Neutral,0,0,0,0,,,,,,,,,,,,,0,30,30,30,,,,,,,,,,,,,,,,,,,,,,,,,,,,,,,,,,,,,,,,,,,,,,,,,,,,,,,,,,,,,,,,,,,,,,,,,,,,,,,,,,,,,1,1.008913700003177,193.03832530000363,None,ScrollDown,정답입니다,193.03832530000363,None,193.03832530000363,None,193.03832530000363,None,193.03832530000363,None,193.9387105999922,None,193.9387105999922,194.44093809998594,,,,,,,,,,,,,,,,021,2022-05-18_11h15.05.089,FishGame,2022.1.1,60.00074401139849,
,32,넌 이기적이야,5,Green,B,2.291666666666667,2.333333333333333,ScrollUp,ScrollDown,Green.png,1,Negative,Congruent,0,0,0,0,,,,,,,,,,,,,0,31,31,31,,,,,,,,,,,,,,,,,,,,,,,,,,,,,,,,,,,,,,,,,,,,,,,,,,,,,,,,,,,,,,,,,,,,,,,,,,,,,,,,,,,,,2,0.9614733000053093,195.0642344999942,None,ScrollUp,정답입니다,195.0642344999942,None,195.0642344999942,None,195.0642344999942,None,195.0642344999942,None,195.92203399998834,None,195.92203399998834,196.4220260999864,,,,,,,,,,,,,,,,021,2022-05-18_11h15.05.089,FishGame,2022.1.1,60.00074401139849,
,33,나를 데려가줘,6,Green,B,0,0,ScrollDown,ScrollUp,Green.png,1,NonTarget,NonTarget,0,0,0,0,,,,,,,,,,,,,0,32,32,32,,,,,,,,,,,,,,,,,,,,,,,,,,,,,,,,,,,,,,,,,,,,,,,,,,,,,,,,,,,,,,,,,,,,,,,,,,,,,,,,,,,,,1,1.3608744000084698,197.0421895000036,None,ScrollDown,정답입니다,197.0421895000036,None,197.0421895000036,None,197.0421895000036,None,197.0421895000036,None,198.30530010000803,None,198.30530010000803,198.80750510000507,,,,,,,,,,,,,,,,021,2022-05-18_11h15.05.089,FishGame,2022.1.1,60.00074401139849,
,34,넌 기회주의자야,5,Orange,A,2.875,2.133333333333333,ScrollDown,ScrollUp,Orange.png,1,Negative,Incongruent,0,0,0,0,,,,,,,,,,,,,0,33,33,33,,,,,,,,,,,,,,,,,,,,,,,,,,,,,,,,,,,,,,,,,,,,,,,,,,,,,,,,,,,,,,,,,,,,,,,,,,,,,,,,,,,,,1,1.1933987999800593,199.43272969999816,None,ScrollDown,정답입니다,199.43272969999816,None,199.43272969999816,None,199.43272969999816,None,199.43272969999816,None,200.52187520000734,None,200.52187520000734,201.0219487999857,,,,,,,,,,,,,,,,021,2022-05-18_11h15.05.089,FishGame,2022.1.1,60.00074401139849,
,1,넌 미성숙해,4,Orange,A,3,3.2,ScrollDown,ScrollUp,Orange.png,2,Negative,Incongruent,0,0,0,0,,,,,,,,,,,,,,,,,0,0,0,0,,,,,,,,,,,,,,,,,,,,,,,,,,,,,,,,,,,,,,,,234.13797969999723,235.6402761999925,235.6736247999943,236.62366330000805,236.6736232000112,237.64023889999953,237.62124919999042,None,,,,,,,,,,,,,,,,,,,,,,,,,,,,,,,,,,1,1.3978943999973126,238.73559679999016,None,ScrollDown,정답입니다,238.73559679999016,None,238.73559679999016,None,238.73559679999016,None,238.73559679999016,None,240.02333500000532,None,240.02333500000532,240.5211239999917,201.521905600006,None,201.521905600006,None,0.3314815,-0.039814815,1,0,0,0.015792079997481778,None,231.5235168999934,None,,,021,2022-05-18_11h15.05.089,FishGame,2022.1.1,60.00074401139849,
,2,넌 반사회적이야,5,Green,B,2.416666666666667,2.033333333333333,ScrollUp,ScrollDown,Green.png,2,Negative,Congruent,0,0,0,0,,,,,,,,,,,,,,,,,0,1,1,1,,,,,,,,,,,,,,,,,,,,,,,,,,,,,,,,,,,,,,,,,,,,,,,,,,,,,,,,,,,,,,,,,,,,,,,,,,,,,,,,,2,1.0792156000097748,241.16354810001212,None,ScrollUp,정답입니다,241.16354810001212,None,241.16354810001212,None,241.16354810001212,None,241.16354810001212,None,242.13773990000482,None,242.13773990000482,242.63780709999264,,,,,,,,,,,,,,,,021,2022-05-18_11h15.05.089,FishGame,2022.1.1,60.00074401139849,
,3,넌 유능해,2,Orange,A,6.208333333333333,4.433333333333334,ScrollDown,ScrollUp,Orange.png,2,Positive,Congruent,0,0,0,0,,,,,,,,,,,,,,,,,0,2,2,2,,,,,,,,,,,,,,,,,,,,,,,,,,,,,,,,,,,,,,,,,,,,,,,,,,,,,,,,,,,,,,,,,,,,,,,,,,,,,,,,,1,1.0283226000028662,243.26233070000308,None,ScrollDown,정답입니다,243.26233070000308,None,243.26233070000308,None,243.26233070000308,None,243.26233070000308,None,244.18773810000857,None,244.18773810000857,244.68993829999818,,,,,,,,,,,,,,,,021,2022-05-18_11h15.05.089,FishGame,2022.1.1,60.00074401139849,
,4,넌 능숙해,2,Green,B,5.666666666666667,4.733333333333333,ScrollUp,ScrollDown,Green.png,2,Positive,Incongruent,0,0,0,0,,,,,,,,,,,,,,,,,0,3,3,3,,,,,,,,,,,,,,,,,,,,,,,,,,,,,,,,,,,,,,,,,,,,,,,,,,,,,,,,,,,,,,,,,,,,,,,,,,,,,,,,,2,1.0755274000111967,245.31559499999275,None,ScrollUp,정답입니다,245.31559499999275,None,245.31559499999275,None,245.31559499999275,None,245.31559499999275,None,246.28740760000073,None,246.28740760000073,246.7874875999987,,,,,,,,,,,,,,,,021,2022-05-18_11h15.05.089,FishGame,2022.1.1,60.00074401139849,
,5,넌 진부해,4,Green,B,2.458333333333333,3.166666666666667,ScrollUp,ScrollDown,Green.png,2,Negative,Congruent,0,0,0,0,,,,,,,,,,,,,,,,,0,4,4,4,,,,,,,,,,,,,,,,,,,,,,,,,,,,,,,,,,,,,,,,,,,,,,,,,,,,,,,,,,,,,,,,,,,,,,,,,,,,,,,,,2,1.0617270000220742,247.41131450000103,None,ScrollUp,정답입니다,247.41131450000103,None,247.41131450000103,None,247.41131450000103,None,247.41131450000103,None,248.37334709998686,None,248.37334709998686,248.87330400000792,,,,,,,,,,,,,,,,021,2022-05-18_11h15.05.089,FishGame,2022.1.1,60.00074401139849,
,6,나를 보내줘,6,Orange,A,0,0,ScrollUp,ScrollDown,Orange.png,2,NonTarget,NonTarget,0,0,0,0,,,,,,,,,,,,,,,,,0,5,5,5,,,,,,,,,,,,,,,,,,,,,,,,,,,,,,,,,,,,,,,,,,,,,,,,,,,,,,,,,,,,,,,,,,,,,,,,,,,,,,,,,2,1.3437895000097342,249.49929609999526,None,ScrollUp,정답입니다,249.49929609999526,None,249.49929609999526,None,249.49929609999526,None,249.49929609999526,None,250.7373158999835,None,250.7373158999835,251.2373990000051,,,,,,,,,,,,,,,,021,2022-05-18_11h15.05.089,FishGame,2022.1.1,60.00074401139849,
,7,넌 엄격해,3,Orange,A,4.166666666666666,4.1,ScrollDown,ScrollUp,Orange.png,2,Neutral,Neutral,0,0,0,0,,,,,,,,,,,,,,,,,0,6,6,6,,,,,,,,,,,,,,,,,,,,,,,,,,,,,,,,,,,,,,,,,,,,,,,,,,,,,,,,,,,,,,,,,,,,,,,,,,,,,,,,,1,1.0281351000012364,251.86357990000397,None,ScrollDown,정답입니다,251.86357990000397,None,251.86357990000397,None,251.86357990000397,None,251.86357990000397,None,252.78732969998964,None,252.78732969998964,253.28741590000573,,,,,,,,,,,,,,,,021,2022-05-18_11h15.05.089,FishGame,2022.1.1,60.00074401139849,
,8,나를 보내줘,6,Orange,A,0,0,ScrollUp,ScrollDown,Orange.png,2,NonTarget,NonTarget,0,0,0,0,,,,,,,,,,,,,,,,,0,7,7,7,,,,,,,,,,,,,,,,,,,,,,,,,,,,,,,,,,,,,,,,,,,,,,,,,,,,,,,,,,,,,,,,,,,,,,,,,,,,,,,,,2,1.277991099981591,253.90980459999992,None,ScrollUp,정답입니다,253.90980459999992,None,253.90980459999992,None,253.90980459999992,None,253.90980459999992,None,255.08981289999792,None,255.08981289999792,255.6063465999905,,,,,,,,,,,,,,,,021,2022-05-18_11h15.05.089,FishGame,2022.1.1,60.00074401139849,
,9,넌 대담해,3,Green,B,4.875,4.866666666666666,ScrollUp,ScrollDown,Green.png,2,Neutral,Neutral,0,0,0,0,,,,,,,,,,,,,,,,,0,8,8,8,,,,,,,,,,,,,,,,,,,,,,,,,,,,,,,,,,,,,,,,,,,,,,,,,,,,,,,,,,,,,,,,,,,,,,,,,,,,,,,,,2,1.3925841000163928,256.21426249999786,None,ScrollUp,정답입니다,256.21426249999786,None,256.21426249999786,None,256.21426249999786,None,256.21426249999786,None,257.50634049999644,None,257.50634049999644,258.0094306000101,,,,,,,,,,,,,,,,021,2022-05-18_11h15.05.089,FishGame,2022.1.1,60.00074401139849,
,10,넌 꾸준해,1,Orange,A,5.916666666666668,5.8,ScrollDown,ScrollUp,Orange.png,2,Positive,Congruent,0,0,0,0,,,,,,,,,,,,,,,,,0,9,9,9,,,,,,,,,,,,,,,,,,,,,,,,,,,,,,,,,,,,,,,,,,,,,,,,,,,,,,,,,,,,,,,,,,,,,,,,,,,,,,,,,1,1.3118292999861296,258.65264759998536,None,ScrollDown,정답입니다,258.65264759998536,None,258.65264759998536,None,258.65264759998536,None,258.65264759998536,None,259.85403009998845,None,259.85403009998845,260.3563332000049,,,,,,,,,,,,,,,,021,2022-05-18_11h15.05.089,FishGame,2022.1.1,60.00074401139849,
,11,나를 데려가줘,6,Green,B,0,0,ScrollDown,ScrollUp,Green.png,2,NonTarget,NonTarget,0,0,0,0,,,,,,,,,,,,,,,,,0,10,10,10,,,,,,,,,,,,,,,,,,,,,,,,,,,,,,,,,,,,,,,,,,,,,,,,,,,,,,,,,,,,,,,,,,,,,,,,,,,,,,,,,1,1.1256739999807905,260.9793429999845,None,ScrollDown,정답입니다,260.9793429999845,None,260.9793429999845,None,260.9793429999845,None,260.9793429999845,None,262.0062362999888,None,262.0062362999888,262.5041010999994,,,,,,,,,,,,,,,,021,2022-05-18_11h15.05.089,FishGame,2022.1.1,60.00074401139849,
,12,넌 독선적이야,5,Orange,A,2.458333333333333,1.933333333333333,ScrollDown,ScrollUp,Orange.png,2,Negative,Incongruent,0,0,0,0,,,,,,,,,,,,,,,,,0,11,11,11,,,,,,,,,,,,,,,,,,,,,,,,,,,,,,,,,,,,,,,,,,,,,,,,,,,,,,,,,,,,,,,,,,,,,,,,,,,,,,,,,1,1.3106257999897934,263.1513946999912,None,ScrollDown,정답입니다,263.1513946999912,None,263.1513946999912,None,263.1513946999912,None,263.1513946999912,None,264.3370530999964,None,264.3370530999964,264.83711900000344,,,,,,,,,,,,,,,,021,2022-05-18_11h15.05.089,FishGame,2022.1.1,60.00074401139849,
,13,나를 보내줘,6,Orange,A,0,0,ScrollUp,ScrollDown,Orange.png,2,NonTarget,NonTarget,0,0,0,0,,,,,,,,,,,,,,,,,0,12,12,12,,,,,,,,,,,,,,,,,,,,,,,,,,,,,,,,,,,,,,,,,,,,,,,,,,,,,,,,,,,,,,,,,,,,,,,,,,,,,,,,,2,1.1625264000031166,265.45976410000003,None,ScrollUp,정답입니다,265.45976410000003,None,265.45976410000003,None,265.45976410000003,None,265.45976410000003,None,266.52290670000366,None,266.52290670000366,267.02295799998683,,,,,,,,,,,,,,,,021,2022-05-18_11h15.05.089,FishGame,2022.1.1,60.00074401139849,
,14,넌 책임감있어,1,Green,B,6.347826086956522,6,ScrollUp,ScrollDown,Green.png,2,Positive,Incongruent,0,0,0,0,,,,,,,,,,,,,,,,,0,13,13,13,,,,,,,,,,,,,,,,,,,,,,,,,,,,,,,,,,,,,,,,,,,,,,,,,,,,,,,,,,,,,,,,,,,,,,,,,,,,,,,,,2,1.2625349999871105,267.6483062999905,None,ScrollUp,정답입니다,267.6483062999905,None,267.6483062999905,None,267.6483062999905,None,267.6483062999905,None,268.8038979000121,None,268.8038979000121,269.30612819999806,,,,,,,,,,,,,,,,021,2022-05-18_11h15.05.089,FishGame,2022.1.1,60.00074401139849,
,15,넌 문학적이야,3,Orange,A,4.708333333333334,4.333333333333333,ScrollDown,ScrollUp,Orange.png,2,Neutral,Neutral,0,0,0,0,,,,,,,,,,,,,,,,,0,14,14,14,,,,,,,,,,,,,,,,,,,,,,,,,,,,,,,,,,,,,,,,,,,,,,,,,,,,,,,,,,,,,,,,,,,,,,,,,,,,,,,,,1,1.1926677999726962,269.93173209999804,None,ScrollDown,정답입니다,269.93173209999804,None,269.93173209999804,None,269.93173209999804,None,269.93173209999804,None,271.0228630999918,None,271.0228630999918,271.53723680000985,,,,,,,,,,,,,,,,021,2022-05-18_11h15.05.089,FishGame,2022.1.1,60.00074401139849,
,16,넌 재미있어,1,Green,B,5.875,5.7,ScrollUp,ScrollDown,Green.png,2,Positive,Incongruent,0,0,0,0,,,,,,,,,,,,,,,,,0,15,15,15,,,,,,,,,,,,,,,,,,,,,,,,,,,,,,,,,,,,,,,,,,,,,,,,,,,,,,,,,,,,,,,,,,,,,,,,,,,,,,,,,2,1.1116083999804687,272.15750679999474,None,ScrollUp,정답입니다,272.15750679999474,None,272.15750679999474,None,272.15750679999474,None,272.15750679999474,None,273.1705367999966,None,273.1705367999966,273.67266039998503,,,,,,,,,,,,,,,,021,2022-05-18_11h15.05.089,FishGame,2022.1.1,60.00074401139849,
,17,나를 데려가줘,6,Green,B,0,0,ScrollDown,ScrollUp,Green.png,2,NonTarget,NonTarget,0,0,0,0,,,,,,,,,,,,,,,,,0,16,16,16,,,,,,,,,,,,,,,,,,,,,,,,,,,,,,,,,,,,,,,,,,,,,,,,,,,,,,,,,,,,,,,,,,,,,,,,,,,,,,,,,1,1.076881399989361,274.2905335999967,None,ScrollDown,정답입니다,274.2905335999967,None,274.2905335999967,None,274.2905335999967,None,274.2905335999967,None,275.27047129999846,None,275.27047129999846,275.77268779999577,,,,,,,,,,,,,,,,021,2022-05-18_11h15.05.089,FishGame,2022.1.1,60.00074401139849,
,18,넌 협력적이야,1,Orange,A,5.625,5.633333333333334,ScrollDown,ScrollUp,Orange.png,2,Positive,Congruent,0,0,0,0,,,,,,,,,,,,,,,,,0,17,17,17,,,,,,,,,,,,,,,,,,,,,,,,,,,,,,,,,,,,,,,,,,,,,,,,,,,,,,,,,,,,,,,,,,,,,,,,,,,,,,,,,1,1.010776499984786,276.4002699999837,None,ScrollDown,정답입니다,276.4002699999837,None,276.4002699999837,None,276.4002699999837,None,276.4002699999837,None,277.3037258000113,None,277.3037258000113,277.8038447999861,,,,,,,,,,,,,,,,021,2022-05-18_11h15.05.089,FishGame,2022.1.1,60.00074401139849,
,19,넌 평범해,3,Green,B,4.333333333333332,4.233333333333333,ScrollUp,ScrollDown,Green.png,2,Neutral,Neutral,0,0,0,0,,,,,,,,,,,,,,,,,0,18,18,18,,,,,,,,,,,,,,,,,,,,,,,,,,,,,,,,,,,,,,,,,,,,,,,,,,,,,,,,,,,,,,,,,,,,,,,,,,,,,,,,,2,1.0448497999750543,278.42822269999306,None,ScrollUp,정답입니다,278.42822269999306,None,278.42822269999306,None,278.42822269999306,None,278.42822269999306,None,279.3725933000096,None,279.3725933000096,279.88924899999984,,,,,,,,,,,,,,,,021,2022-05-18_11h15.05.089,FishGame,2022.1.1,60.00074401139849,
,20,넌 오만해,5,Orange,A,2.333333333333333,2,ScrollDown,ScrollUp,Orange.png,2,Negative,Incongruent,0,0,0,0,,,,,,,,,,,,,,,,,0,19,19,19,,,,,,,,,,,,,,,,,,,,,,,,,,,,,,,,,,,,,,,,,,,,,,,,,,,,,,,,,,,,,,,,,,,,,,,,,,,,,,,,,1,0.9763610000081826,280.49595959999715,None,ScrollDown,정답입니다,280.49595959999715,None,280.49595959999715,None,280.49595959999715,None,280.49595959999715,None,281.3703763000085,None,281.3703763000085,281.87038569999277,,,,,,,,,,,,,,,,021,2022-05-18_11h15.05.089,FishGame,2022.1.1,60.00074401139849,
,21,넌 운이없어,4,Green,B,3,3.466666666666667,ScrollUp,ScrollDown,Green.png,2,Negative,Congruent,0,0,0,0,,,,,,,,,,,,,,,,,0,20,20,20,,,,,,,,,,,,,,,,,,,,,,,,,,,,,,,,,,,,,,,,,,,,,,,,,,,,,,,,,,,,,,,,,,,,,,,,,,,,,,,,,2,1.0927464999840595,282.4972629999975,None,ScrollUp,정답입니다,282.4972629999975,None,282.4972629999975,None,282.4972629999975,None,282.4972629999975,None,283.48696320000454,None,283.48696320000454,283.9891682000016,,,,,,,,,,,,,,,,021,2022-05-18_11h15.05.089,FishGame,2022.1.1,60.00074401139849,
,22,넌 창조적이야,2,Green,B,6.125,4.633333333333334,ScrollUp,ScrollDown,Green.png,2,Positive,Incongruent,0,0,0,0,,,,,,,,,,,,,,,,,0,21,21,21,,,,,,,,,,,,,,,,,,,,,,,,,,,,,,,,,,,,,,,,,,,,,,,,,,,,,,,,,,,,,,,,,,,,,,,,,,,,,,,,,2,1.075475000019651,284.61729470000137,None,ScrollUp,정답입니다,284.61729470000137,None,284.61729470000137,None,284.61729470000137,None,284.61729470000137,None,285.58663340000203,None,285.58663340000203,286.0867167999968,,,,,,,,,,,,,,,,021,2022-05-18_11h15.05.089,FishGame,2022.1.1,60.00074401139849,
,23,나를 보내줘,6,Orange,A,0,0,ScrollUp,ScrollDown,Orange.png,2,NonTarget,NonTarget,0,0,0,0,,,,,,,,,,,,,,,,,0,22,22,22,,,,,,,,,,,,,,,,,,,,,,,,,,,,,,,,,,,,,,,,,,,,,,,,,,,,,,,,,,,,,,,,,,,,,,,,,,,,,,,,,2,1.1451735000009649,286.70967939999537,None,ScrollUp,정답입니다,286.70967939999537,None,286.70967939999537,None,286.70967939999537,None,286.70967939999537,None,287.7558401999995,None,287.7558401999995,288.25586000000476,,,,,,,,,,,,,,,,021,2022-05-18_11h15.05.089,FishGame,2022.1.1,60.00074401139849,
,24,넌 통찰력있어,2,Orange,A,6.5,4.8,ScrollDown,ScrollUp,Orange.png,2,Positive,Congruent,0,0,0,0,,,,,,,,,,,,,,,,,0,23,23,23,,,,,,,,,,,,,,,,,,,,,,,,,,,,,,,,,,,,,,,,,,,,,,,,,,,,,,,,,,,,,,,,,,,,,,,,,,,,,,,,,1,1.076676500000758,288.8779727999936,None,ScrollDown,정답입니다,288.8779727999936,None,288.8779727999936,None,288.8779727999936,None,288.8779727999936,None,289.8489358999941,None,289.8489358999941,290.3532978000003,,,,,,,,,,,,,,,,021,2022-05-18_11h15.05.089,FishGame,2022.1.1,60.00074401139849,
,25,넌 경솔해,5,Green,B,2.458333333333333,2.266666666666667,ScrollUp,ScrollDown,Green.png,2,Negative,Congruent,0,0,0,0,,,,,,,,,,,,,,,,,0,24,24,24,,,,,,,,,,,,,,,,,,,,,,,,,,,,,,,,,,,,,,,,,,,,,,,,,,,,,,,,,,,,,,,,,,,,,,,,,,,,,,,,,2,1.0127104000130203,290.97634090000065,None,ScrollUp,정답입니다,290.97634090000065,None,290.97634090000065,None,290.97634090000065,None,290.97634090000065,None,291.88655639998615,None,291.88655639998615,292.3866463000013,,,,,,,,,,,,,,,,021,2022-05-18_11h15.05.089,FishGame,2022.1.1,60.00074401139849,
,26,넌 초조해,4,Orange,A,2.916666666666667,3.133333333333333,ScrollDown,ScrollUp,Orange.png,2,Negative,Incongruent,0,0,0,0,,,,,,,,,,,,,,,,,0,25,25,25,,,,,,,,,,,,,,,,,,,,,,,,,,,,,,,,,,,,,,,,,,,,,,,,,,,,,,,,,,,,,,,,,,,,,,,,,,,,,,,,,1,1.0262591000064276,293.01337110000895,None,ScrollDown,정답입니다,293.01337110000895,None,293.01337110000895,None,293.01337110000895,None,293.01337110000895,None,293.93904369999655,None,293.93904369999655,294.4390308999864,,,,,,,,,,,,,,,,021,2022-05-18_11h15.05.089,FishGame,2022.1.1,60.00074401139849,
,27,넌 무관심해,4,Green,B,2.833333333333333,2.9,ScrollUp,ScrollDown,Green.png,2,Negative,Congruent,0,0,0,0,,,,,,,,,,,,,,,,,0,26,26,26,,,,,,,,,,,,,,,,,,,,,,,,,,,,,,,,,,,,,,,,,,,,,,,,,,,,,,,,,,,,,,,,,,,,,,,,,,,,,,,,,2,0.9260419999773148,295.06296660000226,None,ScrollUp,정답입니다,295.06296660000226,None,295.06296660000226,None,295.06296660000226,None,295.06296660000226,None,295.8888902000035,None,295.8888902000035,296.386771599995,,,,,,,,,,,,,,,,021,2022-05-18_11h15.05.089,FishGame,2022.1.1,60.00074401139849,
,28,넌 감성적이야,3,Green,B,4.125,4.166666666666667,ScrollUp,ScrollDown,Green.png,2,Neutral,Neutral,0,0,0,0,,,,,,,,,,,,,,,,,0,27,27,27,,,,,,,,,,,,,,,,,,,,,,,,,,,,,,,,,,,,,,,,,,,,,,,,,,,,,,,,,,,,,,,,,,,,,,,,,,,,,,,,,2,1.0425283999938983,297.01659099999233,None,ScrollUp,정답입니다,297.01659099999233,None,297.01659099999233,None,297.01659099999233,None,297.01659099999233,None,297.9533550000051,None,297.9533550000051,298.45551699999487,,,,,,,,,,,,,,,,021,2022-05-18_11h15.05.089,FishGame,2022.1.1,60.00074401139849,
,29,넌 배려심있어,1,Orange,A,6.083333333333333,5.5,ScrollDown,ScrollUp,Orange.png,2,Positive,Congruent,0,0,0,0,,,,,,,,,,,,,,,,,0,28,28,28,,,,,,,,,,,,,,,,,,,,,,,,,,,,,,,,,,,,,,,,,,,,,,,,,,,,,,,,,,,,,,,,,,,,,,,,,,,,,,,,,1,0.9443235000071581,299.08377490000566,None,ScrollDown,정답입니다,299.08377490000566,None,299.08377490000566,None,299.08377490000566,None,299.08377490000566,None,299.9199454000045,None,299.9199454000045,300.4200184000074,,,,,,,,,,,,,,,,021,2022-05-18_11h15.05.089,FishGame,2022.1.1,60.00074401139849,
,30,넌 숨김없어,3,Orange,A,4.5,4.933333333333334,ScrollDown,ScrollUp,Orange.png,2,Neutral,Neutral,0,0,0,0,,,,,,,,,,,,,,,,,0,29,29,29,,,,,,,,,,,,,,,,,,,,,,,,,,,,,,,,,,,,,,,,,,,,,,,,,,,,,,,,,,,,,,,,,,,,,,,,,,,,,,,,,1,0.8947746999911033,301.0494683999859,None,ScrollDown,정답입니다,301.0494683999859,None,301.0494683999859,None,301.0494683999859,None,301.0494683999859,None,301.83661009999923,None,301.83661009999923,302.33887499998673,,,,,,,,,,,,,,,,021,2022-05-18_11h15.05.089,FishGame,2022.1.1,60.00074401139849,
,31,넌 훌륭해,2,Green,B,5.916666666666667,4.033333333333333,ScrollUp,ScrollDown,Green.png,2,Positive,Incongruent,0,0,0,0,,,,,,,,,,,,,,,,,0,30,30,30,,,,,,,,,,,,,,,,,,,,,,,,,,,,,,,,,,,,,,,,,,,,,,,,,,,,,,,,,,,,,,,,,,,,,,,,,,,,,,,,,2,0.9270400000095833,302.9717679999885,None,ScrollUp,정답입니다,302.9717679999885,None,302.9717679999885,None,302.9717679999885,None,302.9717679999885,None,303.78627409998444,None,303.78627409998444,304.2863575000083,,,,,,,,,,,,,,,,021,2022-05-18_11h15.05.089,FishGame,2022.1.1,60.00074401139849,
,32,넌 슬기로워,2,Orange,A,6.166666666666667,4.1,ScrollDown,ScrollUp,Orange.png,2,Positive,Congruent,0,0,0,0,,,,,,,,,,,,,,,,,0,31,31,31,,,,,,,,,,,,,,,,,,,,,,,,,,,,,,,,,,,,,,,,,,,,,,,,,,,,,,,,,,,,,,,,,,,,,,,,,,,,,,,,,1,0.8619315999967512,304.907269599993,None,ScrollDown,정답입니다,304.907269599993,None,304.907269599993,None,304.907269599993,None,304.907269599993,None,305.66962450000574,None,305.66962450000574,306.1722431000089,,,,,,,,,,,,,,,,021,2022-05-18_11h15.05.089,FishGame,2022.1.1,60.00074401139849,
,33,넌 냉혹해,5,Orange,A,2.583333333333333,2.1,ScrollDown,ScrollUp,Orange.png,2,Negative,Incongruent,0,0,0,0,,,,,,,,,,,,,,,,,0,32,32,32,,,,,,,,,,,,,,,,,,,,,,,,,,,,,,,,,,,,,,,,,,,,,,,,,,,,,,,,,,,,,,,,,,,,,,,,,,,,,,,,,1,0.8276675000088289,306.79657889998634,None,ScrollDown,정답입니다,306.79657889998634,None,306.79657889998634,None,306.79657889998634,None,306.79657889998634,None,307.52216160000535,None,307.52216160000535,308.0198031000036,,,,,,,,,,,,,,,,021,2022-05-18_11h15.05.089,FishGame,2022.1.1,60.00074401139849,
,34,나를 데려가줘,6,Green,B,0,0,ScrollDown,ScrollUp,Green.png,2,NonTarget,NonTarget,0,0,0,0,,,,,,,,,,,,,,,,,0,33,33,33,,,,,,,,,,,,,,,,,,,,,,,,,,,,,,,,,,,,,,,,,,,,,,,,,,,,,,,,,,,,,,,,,,,,,,,,,,,,,,,,,1,1.1100723999843467,308.64066470001126,None,ScrollDown,정답입니다,308.64066470001126,None,308.64066470001126,None,308.64066470001126,None,308.64066470001126,None,309.65310739999404,None,309.65310739999404,310.1553268999851,,,,,,,,,,,,,,,,021,2022-05-18_11h15.05.089,FishGame,2022.1.1,60.00074401139849,
,35,넌 편파적이야,5,Green,B,2.125,2,ScrollUp,ScrollDown,Green.png,2,Negative,Congruent,0,0,0,0,,,,,,,,,,,,,,,,,0,34,34,34,,,,,,,,,,,,,,,,,,,,,,,,,,,,,,,,,,,,,,,,,,,,,,,,,,,,,,,,,,,,,,,,,,,,,,,,,,,,,,,,,2,1.126030500017805,310.78273370000534,None,ScrollUp,정답입니다,310.78273370000534,None,310.78273370000534,None,310.78273370000534,None,310.78273370000534,None,311.80278880000697,None,311.80278880000697,312.30286799999885,,,,,,,,,,,,,,,,021,2022-05-18_11h15.05.089,FishGame,2022.1.1,60.00074401139849,
,36,넌 슬퍼,4,Orange,A,2.583333333333333,3.066666666666667,ScrollDown,ScrollUp,Orange.png,2,Negative,Incongruent,0,0,0,0,,,,,,,,,,,,,,,,,0,35,35,35,,,,,,,,,,,,,,,,,,,,,,,,,,,,,,,,,,,,,,,,,,,,,,,,,,,,,,,,,,,,,,,,,,,,,,,,,,,,,,,,,1,0.8614599000138696,312.92733529998804,None,ScrollDown,정답입니다,312.92733529998804,None,312.92733529998804,None,312.92733529998804,None,312.92733529998804,None,313.68613719998393,None,313.68613719998393,314.1886879999947,,,,,,,,,,,,,,,,021,2022-05-18_11h15.05.089,FishGame,2022.1.1,60.00074401139849,
,37,나를 데려가줘,6,Green,B,0,0,ScrollDown,ScrollUp,Green.png,2,NonTarget,NonTarget,0,0,0,0,,,,,,,,,,,,,,,,,0,36,36,36,,,,,,,,,,,,,,,,,,,,,,,,,,,,,,,,,,,,,,,,,,,,,,,,,,,,,,,,,,,,,,,,,,,,,,,,,,,,,,,,,1,1.177138200000627,314.8049158999929,None,ScrollDown,정답입니다,314.8049158999929,None,314.8049158999929,None,314.8049158999929,None,314.8049158999929,None,315.8696517999924,None,315.8696517999924,316.37181109999074,,,,,,,,,,,,,,,,021,2022-05-18_11h15.05.089,FishGame,2022.1.1,60.00074401139849,
,38,넌 친절해,1,Green,B,6.041666666666667,5.533333333333333,ScrollUp,ScrollDown,Green.png,2,Positive,Incongruent,0,0,0,0,,,,,,,,,,,,,,,,,0,37,37,37,,,,,,,,,,,,,,,,,,,,,,,,,,,,,,,,,,,,,,,,,,,,,,,,,,,,,,,,,,,,,,,,,,,,,,,,,,,,,,,,,2,0.9592681000067387,316.9968222999887,None,ScrollUp,정답입니다,316.9968222999887,None,316.9968222999887,None,316.9968222999887,None,316.9968222999887,None,317.8529556999856,None,317.8529556999856,318.3551451000094,,,,,,,,,,,,,,,,021,2022-05-18_11h15.05.089,FishGame,2022.1.1,60.00074401139849,
,1,넌 엉성해,4,Orange,A,3,3.3,ScrollDown,ScrollUp,Orange.png,3,Negative,Incongruent,0,0,0,0,,,,,,,,,,,,,,,,,,,,,0,0,0,0,,,,,,,,,,,,,,,,,,,,,,,,,,,,,,,,,,,,353.90228899999056,355.40765139998985,355.43554340000264,356.38786560000153,356.43793970000115,357.3908785000094,357.3908785000094,None,,,,,,,,,,,,,,,,,,,,,,,,,,,,,,,,,,1,1.2192265999910887,358.5106300000043,None,ScrollDown,정답입니다,358.5106300000043,None,358.5106300000043,None,358.5106300000043,None,358.5106300000043,None,359.618830899999,None,359.618830899999,360.1188043000002,318.85517600001185,None,318.85517600001185,None,0.44907406,-0.08240741,1,0,0,0.01598748000105843,None,348.85237839998445,None,,,021,2022-05-18_11h15.05.089,FishGame,2022.1.1,60.00074401139849,
,2,나를 보내줘,6,Orange,A,0,0,ScrollUp,ScrollDown,Orange.png,3,NonTarget,NonTarget,0,0,0,0,,,,,,,,,,,,,,,,,,,,,0,1,1,1,,,,,,,,,,,,,,,,,,,,,,,,,,,,,,,,,,,,,,,,,,,,,,,,,,,,,,,,,,,,,,,,,,,,,,,,,,,,,2,1.0279566000099294,360.74728499999037,None,ScrollUp,정답입니다,360.74728499999037,None,360.74728499999037,None,360.74728499999037,None,360.74728499999037,None,361.67096540000057,None,361.67096540000057,362.1709961000015,,,,,,,,,,,,,,,,021,2022-05-18_11h15.05.089,FishGame,2022.1.1,60.00074401139849,
,3,넌 활발해,1,Green,B,5.666666666666667,5.6,ScrollUp,ScrollDown,Green.png,3,Positive,Incongruent,0,0,0,0,,,,,,,,,,,,,,,,,,,,,0,2,2,2,,,,,,,,,,,,,,,,,,,,,,,,,,,,,,,,,,,,,,,,,,,,,,,,,,,,,,,,,,,,,,,,,,,,,,,,,,,,,2,1.0928753000043798,362.7929511000111,None,ScrollUp,정답입니다,362.7929511000111,None,362.7929511000111,None,362.7929511000111,None,362.7929511000111,None,363.7853848999948,None,363.7853848999948,364.28757190000033,,,,,,,,,,,,,,,,021,2022-05-18_11h15.05.089,FishGame,2022.1.1,60.00074401139849,
,4,넌 논리적이야,2,Orange,A,5.666666666666666,4.633333333333334,ScrollDown,ScrollUp,Orange.png,3,Positive,Congruent,0,0,0,0,,,,,,,,,,,,,,,,,,,,,0,3,3,3,,,,,,,,,,,,,,,,,,,,,,,,,,,,,,,,,,,,,,,,,,,,,,,,,,,,,,,,,,,,,,,,,,,,,,,,,,,,,1,1.1262767000007443,364.91946480001207,None,ScrollDown,정답입니다,364.91946480001207,None,364.91946480001207,None,364.91946480001207,None,364.91946480001207,None,365.9350606999942,None,365.9350606999942,366.43513050000183,,,,,,,,,,,,,,,,021,2022-05-18_11h15.05.089,FishGame,2022.1.1,60.00074401139849,
,5,넌 과묵해,3,Orange,A,3.875,4.4,ScrollDown,ScrollUp,Orange.png,3,Neutral,Neutral,0,0,0,0,,,,,,,,,,,,,,,,,,,,,0,4,4,4,,,,,,,,,,,,,,,,,,,,,,,,,,,,,,,,,,,,,,,,,,,,,,,,,,,,,,,,,,,,,,,,,,,,,,,,,,,,,1.1558641890684764,1.011567199981073,367.06381190000684,None,ScrollDown,정답입니다,367.06381190000684,None,367.06381190000684,None,367.06381190000684,None,367.06381190000684,None,367.97091440000804,None,367.97091440000804,368.4709159999911,,,,,,,,,,,,,,,,021,2022-05-18_11h15.05.089,FishGame,2022.1.1,60.00074401139849,
,6,나를 데려가줘,6,Green,B,0,0,ScrollDown,ScrollUp,Green.png,3,NonTarget,NonTarget,0,0,0,0,,,,,,,,,,,,,,,,,,,,,0,5,5,5,,,,,,,,,,,,,,,,,,,,,,,,,,,,,,,,,,,,,,,,,,,,,,,,,,,,,,,,,,,,,,,,,,,,,,,,,,,,,1,1.2723456000094302,369.08993650000775,None,ScrollDown,정답입니다,369.08993650000775,None,369.08993650000775,None,369.08993650000775,None,369.08993650000775,None,370.2639416999882,None,370.2639416999882,370.7683560999867,,,,,,,,,,,,,,,,021,2022-05-18_11h15.05.089,FishGame,2022.1.1,60.00074401139849,
,7,넌 미숙해,4,Green,B,3,3,ScrollUp,ScrollDown,Green.png,3,Negative,Congruent,0,0,0,0,,,,,,,,,,,,,,,,,,,,,0,6,6,6,,,,,,,,,,,,,,,,,,,,,,,,,,,,,,,,,,,,,,,,,,,,,,,,,,,,,,,,,,,,,,,,,,,,,,,,,,,,,1.9984568059444427,1.02982460000203,371.39113149998593,None,ScrollUp,정답입니다,371.39113149998593,None,371.39113149998593,None,371.39113149998593,None,371.39113149998593,None,372.3183013999951,None,372.3183013999951,372.81838979999884,,,,,,,,,,,,,,,,021,2022-05-18_11h15.05.089,FishGame,2022.1.1,60.00074401139849,
,8,나를 보내줘,6,Orange,A,0,0,ScrollUp,ScrollDown,Orange.png,3,NonTarget,NonTarget,0,0,0,0,,,,,,,,,,,,,,,,,,,,,0,7,7,7,,,,,,,,,,,,,,,,,,,,,,,,,,,,,,,,,,,,,,,,,,,,,,,,,,,,,,,,,,,,,,,,,,,,,,,,,,,,,2,1.0596281999896746,373.44188870000653,None,ScrollUp,정답입니다,373.44188870000653,None,373.44188870000653,None,373.44188870000653,None,373.44188870000653,None,374.4042333000107,None,374.4042333000107,374.9041438999993,,,,,,,,,,,,,,,,021,2022-05-18_11h15.05.089,FishGame,2022.1.1,60.00074401139849,
,9,넌 자신만만해,3,Green,B,4.833333333333334,4.333333333333333,ScrollUp,ScrollDown,Green.png,3,Neutral,Neutral,0,0,0,0,,,,,,,,,,,,,,,,,,,,,0,8,8,8,,,,,,,,,,,,,,,,,,,,,,,,,,,,,,,,,,,,,,,,,,,,,,,,,,,,,,,,,,,,,,,,,,,,,,,,,,,,,2,1.0760870999947656,375.5238975000102,None,ScrollUp,정답입니다,375.5238975000102,None,375.5238975000102,None,375.5238975000102,None,375.5238975000102,None,376.5017996999959,None,376.5017996999959,377.0040452000103,,,,,,,,,,,,,,,,021,2022-05-18_11h15.05.089,FishGame,2022.1.1,60.00074401139849,
,10,넌 탐욕스러워,5,Orange,A,2.25,2.1,ScrollDown,ScrollUp,Orange.png,3,Negative,Incongruent,0,0,0,0,,,,,,,,,,,,,,,,,,,,,0,9,9,9,,,,,,,,,,,,,,,,,,,,,,,,,,,,,,,,,,,,,,,,,,,,,,,,,,,,,,,,,,,,,,,,,,,,,,,,,,,,,1.0246913532416027,0.928108100022655,377.629305999988,None,ScrollDown,정답입니다,377.629305999988,None,377.629305999988,None,377.629305999988,None,377.629305999988,None,378.45171459999983,None,378.45171459999983,378.95383589999983,,,,,,,,,,,,,,,,021,2022-05-18_11h15.05.089,FishGame,2022.1.1,60.00074401139849,
,11,넌 인기있어,2,Orange,A,5.458333333333333,4.5,ScrollDown,ScrollUp,Orange.png,3,Positive,Congruent,0,0,0,0,,,,,,,,,,,,,,,,,,,,,0,10,10,10,,,,,,,,,,,,,,,,,,,,,,,,,,,,,,,,,,,,,,,,,,,,,,,,,,,,,,,,,,,,,,,,,,,,,,,,,,,,,1,0.8093245000054594,379.57560799998464,None,ScrollDown,정답입니다,379.57560799998464,None,379.57560799998464,None,379.57560799998464,None,379.57560799998464,None,380.28504310001153,None,380.28504310001153,380.7872362000053,,,,,,,,,,,,,,,,021,2022-05-18_11h15.05.089,FishGame,2022.1.1,60.00074401139849,
,12,나를 데려가줘,6,Green,B,0,0,ScrollDown,ScrollUp,Green.png,3,NonTarget,NonTarget,0,0,0,0,,,,,,,,,,,,,,,,,,,,,0,11,11,11,,,,,,,,,,,,,,,,,,,,,,,,,,,,,,,,,,,,,,,,,,,,,,,,,,,,,,,,,,,,,,,,,,,,,,,,,,,,,1,0.976647800009232,381.40573009999935,None,ScrollDown,정답입니다,381.40573009999935,None,381.40573009999935,None,381.40573009999935,None,381.40573009999935,None,382.28502209999715,None,382.28502209999715,382.7850433999847,,,,,,,,,,,,,,,,021,2022-05-18_11h15.05.089,FishGame,2022.1.1,60.00074401139849,
,13,넌 뛰어나,2,Green,B,6.166666666666667,4,ScrollUp,ScrollDown,Green.png,3,Positive,Incongruent,0,0,0,0,,,,,,,,,,,,,,,,,,,,,0,12,12,12,,,,,,,,,,,,,,,,,,,,,,,,,,,,,,,,,,,,,,,,,,,,,,,,,,,,,,,,,,,,,,,,,,,,,,,,,,,,,2,0.9946652000071481,383.4103552000015,None,ScrollUp,정답입니다,383.4103552000015,None,383.4103552000015,None,383.4103552000015,None,383.4103552000015,None,384.3016851999855,None,384.3016851999855,384.80385950001073,,,,,,,,,,,,,,,,021,2022-05-18_11h15.05.089,FishGame,2022.1.1,60.00074401139849,
,14,넌 낙관적이야,1,Orange,A,5.75,5.8,ScrollDown,ScrollUp,Orange.png,3,Positive,Congruent,0,0,0,0,,,,,,,,,,,,,,,,,,,,,0,13,13,13,,,,,,,,,,,,,,,,,,,,,,,,,,,,,,,,,,,,,,,,,,,,,,,,,,,,,,,,,,,,,,,,,,,,,,,,,,,,,1,1.0757652999891434,385.42913860001136,None,ScrollDown,정답입니다,385.42913860001136,None,385.42913860001136,None,385.42913860001136,None,385.42913860001136,None,386.40380279999226,None,386.40380279999226,386.90386980000767,,,,,,,,,,,,,,,,021,2022-05-18_11h15.05.089,FishGame,2022.1.1,60.00074401139849,
,15,넌 산만해,4,Green,B,2.695652173913043,3.033333333333333,ScrollUp,ScrollDown,Green.png,3,Negative,Congruent,0,0,0,0,,,,,,,,,,,,,,,,,,,,,0,14,14,14,,,,,,,,,,,,,,,,,,,,,,,,,,,,,,,,,,,,,,,,,,,,,,,,,,,,,,,,,,,,,,,,,,,,,,,,,,,,,2,1.0597192000132054,387.5297050999943,None,ScrollUp,정답입니다,387.5297050999943,None,387.5297050999943,None,387.5297050999943,None,387.5297050999943,None,388.48494409999694,None,388.48494409999694,388.98506959999213,,,,,,,,,,,,,,,,021,2022-05-18_11h15.05.089,FishGame,2022.1.1,60.00074401139849,
,16,나를 보내줘,6,Orange,A,0,0,ScrollUp,ScrollDown,Orange.png,3,NonTarget,NonTarget,0,0,0,0,,,,,,,,,,,,,,,,,,,,,0,15,15,15,,,,,,,,,,,,,,,,,,,,,,,,,,,,,,,,,,,,,,,,,,,,,,,,,,,,,,,,,,,,,,,,,,,,,,,,,,,,,1.959876557191213,1.2279005000018515,389.6134993000014,None,ScrollUp,정답입니다,389.6134993000014,None,389.6134993000014,None,389.6134993000014,None,389.6134993000014,None,390.7348309000081,None,390.7348309000081,391.237037599989,,,,,,,,,,,,,,,,021,2022-05-18_11h15.05.089,FishGame,2022.1.1,60.00074401139849,
,17,넌 교활해,5,Green,B,2.333333333333333,2.133333333333333,ScrollUp,ScrollDown,Green.png,3,Negative,Congruent,0,0,0,0,,,,,,,,,,,,,,,,,,,,,0,16,16,16,,,,,,,,,,,,,,,,,,,,,,,,,,,,,,,,,,,,,,,,,,,,,,,,,,,,,,,,,,,,,,,,,,,,,,,,,,,,,1.9907407363255818,1.175591200008057,391.8595714000112,None,ScrollUp,정답입니다,391.8595714000112,None,391.8595714000112,None,391.8595714000112,None,391.8595714000112,None,392.9345243999851,None,392.9345243999851,393.4346127999888,,,,,,,,,,,,,,,,021,2022-05-18_11h15.05.089,FishGame,2022.1.1,60.00074401139849,
,18,나를 보내줘,6,Orange,A,0,0,ScrollUp,ScrollDown,Orange.png,3,NonTarget,NonTarget,0,0,0,0,,,,,,,,,,,,,,,,,,,,,0,17,17,17,,,,,,,,,,,,,,,,,,,,,,,,,,,,,,,,,,,,,,,,,,,,,,,,,,,,,,,,,,,,,,,,,,,,,,,,,,,,,2,1.0614600999979302,394.0592663999996,None,ScrollUp,정답입니다,394.0592663999996,None,394.0592663999996,None,394.0592663999996,None,394.0592663999996,None,395.01786230001017,None,395.01786230001017,395.5179530000023,,,,,,,,,,,,,,,,021,2022-05-18_11h15.05.089,FishGame,2022.1.1,60.00074401139849,
,19,넌 불친절해,5,Green,B,2.208333333333333,2.033333333333333,ScrollUp,ScrollDown,Green.png,3,Negative,Congruent,0,0,0,0,,,,,,,,,,,,,,,,,,,,,0,18,18,18,,,,,,,,,,,,,,,,,,,,,,,,,,,,,,,,,,,,,,,,,,,,,,,,,,,,,,,,,,,,,,,,,,,,,,,,,,,,,1.9814815024534862,1.0096378000162076,396.1475958999945,None,ScrollUp,정답입니다,396.1475958999945,None,396.1475958999945,None,396.1475958999945,None,396.1475958999945,None,397.0537154999911,None,397.0537154999911,397.553816700005,,,,,,,,,,,,,,,,021,2022-05-18_11h15.05.089,FishGame,2022.1.1,60.00074401139849,
,20,넌 지적이야,2,Green,B,5.75,4.366666666666666,ScrollUp,ScrollDown,Green.png,3,Positive,Incongruent,0,0,0,0,,,,,,,,,,,,,,,,,,,,,0,19,19,19,,,,,,,,,,,,,,,,,,,,,,,,,,,,,,,,,,,,,,,,,,,,,,,,,,,,,,,,,,,,,,,,,,,,,,,,,,,,,2,0.943799599976046,398.1728449999937,None,ScrollUp,정답입니다,398.1728449999937,None,398.1728449999937,None,398.1728449999937,None,398.1728449999937,None,399.0180141000019,None,399.0180141000019,399.52017249999335,,,,,,,,,,,,,,,,021,2022-05-18_11h15.05.089,FishGame,2022.1.1,60.00074401139849,
,21,넌 우유부단해,4,Orange,A,2.666666666666667,3.166666666666667,ScrollDown,ScrollUp,Orange.png,3,Negative,Incongruent,0,0,0,0,,,,,,,,,,,,,,,,,,,,,0,20,20,20,,,,,,,,,,,,,,,,,,,,,,,,,,,,,,,,,,,,,,,,,,,,,,,,,,,,,,,,,,,,,,,,,,,,,,,,,,,,,1,1.1093796000059228,400.145949400001,None,ScrollDown,정답입니다,400.145949400001,None,400.145949400001,None,400.145949400001,None,400.145949400001,None,401.1513244000089,None,401.1513244000089,401.6513760999951,,,,,,,,,,,,,,,,021,2022-05-18_11h15.05.089,FishGame,2022.1.1,60.00074401139849,
,22,나를 데려가줘,6,Green,B,0,0,ScrollDown,ScrollUp,Green.png,3,NonTarget,NonTarget,0,0,0,0,,,,,,,,,,,,,,,,,,,,,0,21,21,21,,,,,,,,,,,,,,,,,,,,,,,,,,,,,,,,,,,,,,,,,,,,,,,,,,,,,,,,,,,,,,,,,,,,,,,,,,,,,1,1.0937699000060093,402.27753709998797,None,ScrollDown,정답입니다,402.27753709998797,None,402.27753709998797,None,402.27753709998797,None,402.27753709998797,None,403.2701490999898,None,403.2701490999898,403.77014919999056,,,,,,,,,,,,,,,,021,2022-05-18_11h15.05.089,FishGame,2022.1.1,60.00074401139849,
,23,넌 성실해,1,Green,B,6.041666666666666,5.7,ScrollUp,ScrollDown,Green.png,3,Positive,Incongruent,0,0,0,0,,,,,,,,,,,,,,,,,,,,,0,22,22,22,,,,,,,,,,,,,,,,,,,,,,,,,,,,,,,,,,,,,,,,,,,,,,,,,,,,,,,,,,,,,,,,,,,,,,,,,,,,,1.9876543084780376,1.5615290999994613,404.3872762999963,None,ScrollUp,정답입니다,404.3872762999963,None,404.3872762999963,None,404.3872762999963,None,404.3872762999963,None,405.85125579999294,None,405.85125579999294,406.35124019999057,,,,,,,,,,,,,,,,021,2022-05-18_11h15.05.089,FishGame,2022.1.1,60.00074401139849,
,24,넌 현실주의적이야,3,Orange,A,4.625,4.4,ScrollDown,ScrollUp,Orange.png,3,Neutral,Neutral,0,0,0,0,,,,,,,,,,,,,,,,,,,,,0,23,23,23,,,,,,,,,,,,,,,,,,,,,,,,,,,,,,,,,,,,,,,,,,,,,,,,,,,,,,,,,,,,,,,,,,,,,,,,,,,,,1,1.3091564000060316,406.9783521000063,None,ScrollDown,정답입니다,406.9783521000063,None,406.9783521000063,None,406.9783521000063,None,406.9783521000063,None,408.18446809999296,None,408.18446809999296,408.6867159999965,,,,,,,,,,,,,,,,021,2022-05-18_11h15.05.089,FishGame,2022.1.1,60.00074401139849,
,25,넌 진실돼,1,Orange,A,6.625,5.566666666666666,ScrollDown,ScrollUp,Orange.png,3,Positive,Congruent,0,0,0,0,,,,,,,,,,,,,,,,,,,,,0,24,24,24,,,,,,,,,,,,,,,,,,,,,,,,,,,,,,,,,,,,,,,,,,,,,,,,,,,,,,,,,,,,,,,,,,,,,,,,,,,,,1.1311728407939274,1.2101194999995641,409.3106761999952,None,ScrollDown,정답입니다,409.3106761999952,None,409.3106761999952,None,409.3106761999952,None,409.3106761999952,None,410.4178060000122,None,410.4178060000122,410.91780799999833,,,,,,,,,,,,,,,,021,2022-05-18_11h15.05.089,FishGame,2022.1.1,60.00074401139849,
,26,넌 천진난만해,3,Green,B,4.958333333333334,4.833333333333333,ScrollUp,ScrollDown,Green.png,3,Neutral,Neutral,0,0,0,0,,,,,,,,,,,,,,,,,,,,,0,25,25,25,,,,,,,,,,,,,,,,,,,,,,,,,,,,,,,,,,,,,,,,,,,,,,,,,,,,,,,,,,,,,,,,,,,,,,,,,,,,,2,1.2257039999822155,411.5477752999868,None,ScrollUp,정답입니다,411.5477752999868,None,411.5477752999868,None,411.5477752999868,None,411.5477752999868,None,412.6677151999902,None,412.6677151999902,413.16982939999434,,,,,,,,,,,,,,,,021,2022-05-18_11h15.05.089,FishGame,2022.1.1,60.00074401139849,
,27,넌 교양없어,5,Orange,A,2.416666666666667,2.2,ScrollDown,ScrollUp,Orange.png,3,Negative,Incongruent,0,0,0,0,,,,,,,,,,,,,,,,,,,,,0,26,26,26,,,,,,,,,,,,,,,,,,,,,,,,,,,,,,,,,,,,,,,,,,,,,,,,,,,,,,,,,,,,,,,,,,,,,,,,,,,,,1,1.0925221999932546,413.7945175000059,None,ScrollDown,정답입니다,413.7945175000059,None,413.7945175000059,None,413.7945175000059,None,413.7945175000059,None,414.7844095999899,None,414.7844095999899,415.28658759998507,,,,,,,,,,,,,,,,021,2022-05-18_11h15.05.089,FishGame,2022.1.1,60.00074401139849,
,28,나를 보내줘,6,Orange,A,0,0,ScrollUp,ScrollDown,Orange.png,3,NonTarget,NonTarget,0,0,0,0,,,,,,,,,,,,,,,,,,,,,0,27,27,27,,,,,,,,,,,,,,,,,,,,,,,,,,,,,,,,,,,,,,,,,,,,,,,,,,,,,,,,,,,,,,,,,,,,,,,,,,,,,2,1.026246399997035,415.9117469000048,None,ScrollUp,정답입니다,415.9117469000048,None,415.9117469000048,None,415.9117469000048,None,415.9117469000048,None,416.8340678999957,None,416.8340678999957,417.334130800009,,,,,,,,,,,,,,,,021,2022-05-18_11h15.05.089,FishGame,2022.1.1,60.00074401139849,
,29,넌 엉뚱스러워,3,Orange,A,4.166666666666667,4.133333333333334,ScrollDown,ScrollUp,Orange.png,3,Neutral,Neutral,0,0,0,0,,,,,,,,,,,,,,,,,,,,,0,28,28,28,,,,,,,,,,,,,,,,,,,,,,,,,,,,,,,,,,,,,,,,,,,,,,,,,,,,,,,,,,,,,,,,,,,,,,,,,,,,,1,1.0283960000087973,417.9785959000001,None,ScrollDown,정답입니다,417.9785959000001,None,417.9785959000001,None,417.9785959000001,None,417.9785959000001,None,418.88662209999165,None,418.88662209999165,419.38658540000324,,,,,,,,,,,,,,,,021,2022-05-18_11h15.05.089,FishGame,2022.1.1,60.00074401139849,
,30,넌 무지해,4,Green,B,2.541666666666667,3.066666666666667,ScrollUp,ScrollDown,Green.png,3,Negative,Congruent,0,0,0,0,,,,,,,,,,,,,,,,,,,,,0,29,29,29,,,,,,,,,,,,,,,,,,,,,,,,,,,,,,,,,,,,,,,,,,,,,,,,,,,,,,,,,,,,,,,,,,,,,,,,,,,,,1.983024666706721,1.0460773999802768,420.0025502000062,None,ScrollUp,정답입니다,420.0025502000062,None,420.0025502000062,None,420.0025502000062,None,420.0025502000062,None,420.9533010000014,None,420.9533010000014,421.45310419998714,,,,,,,,,,,,,,,,021,2022-05-18_11h15.05.089,FishGame,2022.1.1,60.00074401139849,
,31,넌 음울해,5,Green,B,2.25,2.233333333333333,ScrollUp,ScrollDown,Green.png,3,Negative,Congruent,0,0,0,0,,,,,,,,,,,,,,,,,,,,,0,30,30,30,,,,,,,,,,,,,,,,,,,,,,,,,,,,,,,,,,,,,,,,,,,,,,,,,,,,,,,,,,,,,,,,,,,,,,,,,,,,,1.839506169160207,0.9104863000102341,422.07420209998963,None,ScrollUp,정답입니다,422.07420209998963,None,422.07420209998963,None,422.07420209998963,None,422.07420209998963,None,422.88420820000465,None,422.88420820000465,423.3896614999976,,,,,,,,,,,,,,,,021,2022-05-18_11h15.05.089,FishGame,2022.1.1,60.00074401139849,
,32,넌 냉소적이야,5,Orange,A,2.916666666666667,2.4,ScrollDown,ScrollUp,Orange.png,3,Negative,Incongruent,0,0,0,0,,,,,,,,,,,,,,,,,,,,,0,31,31,31,,,,,,,,,,,,,,,,,,,,,,,,,,,,,,,,,,,,,,,,,,,,,,,,,,,,,,,,,,,,,,,,,,,,,,,,,,,,,1,1.0448422000044957,424.0065146999841,None,ScrollDown,정답입니다,424.0065146999841,None,424.0065146999841,None,424.0065146999841,None,424.0065146999841,None,424.9507988000114,None,424.9507988000114,425.4508891000005,,,,,,,,,,,,,,,,021,2022-05-18_11h15.05.089,FishGame,2022.1.1,60.00074401139849,
,33,나를 데려가줘,6,Green,B,0,0,ScrollDown,ScrollUp,Green.png,3,NonTarget,NonTarget,0,0,0,0,,,,,,,,,,,,,,,,,,,,,0,32,32,32,,,,,,,,,,,,,,,,,,,,,,,,,,,,,,,,,,,,,,,,,,,,,,,,,,,,,,,,,,,,,,,,,,,,,,,,,,,,,1,0.9591748000239022,426.07335389999207,None,ScrollDown,정답입니다,426.07335389999207,None,426.07335389999207,None,426.07335389999207,None,426.07335389999207,None,426.9341434999951,None,426.9341434999951,427.43634129999555,,,,,,,,,,,,,,,,021,2022-05-18_11h15.05.089,FishGame,2022.1.1,60.00074401139849,
,34,넌 쾌활해,1,Orange,A,5.541666666666666,5.733333333333333,ScrollDown,ScrollUp,Orange.png,3,Positive,Congruent,0,0,0,0,,,,,,,,,,,,,,,,,,,,,0,33,33,33,,,,,,,,,,,,,,,,,,,,,,,,,,,,,,,,,,,,,,,,,,,,,,,,,,,,,,,,,,,,,,,,,,,,,,,,,,,,,1.0154321193695068,0.9927874999993946,428.06425639998633,None,ScrollDown,정답입니다,428.06425639998633,None,428.06425639998633,None,428.06425639998633,None,428.06425639998633,None,428.95071119998465,None,428.95071119998465,429.4507452000107,,,,,,,,,,,,,,,,021,2022-05-18_11h15.05.089,FishGame,2022.1.1,60.00074401139849,
,35,나를 보내줘,6,Orange,A,0,0,ScrollUp,ScrollDown,Orange.png,3,NonTarget,NonTarget,0,0,0,0,,,,,,,,,,,,,,,,,,,,,0,34,34,34,,,,,,,,,,,,,,,,,,,,,,,,,,,,,,,,,,,,,,,,,,,,,,,,,,,,,,,,,,,,,,,,,,,,,,,,,,,,,2,1.0260040999855846,430.0775454000104,None,ScrollUp,정답입니다,430.0775454000104,None,430.0775454000104,None,430.0775454000104,None,430.0775454000104,None,431.0007409999962,None,431.0007409999962,431.5029075999919,,,,,,,,,,,,,,,,021,2022-05-18_11h15.05.089,FishGame,2022.1.1,60.00074401139849,
,36,넌 명랑해,1,Green,B,5.739130434782609,5.666666666666667,ScrollUp,ScrollDown,Green.png,3,Positive,Incongruent,0,0,0,0,,,,,,,,,,,,,,,,,,,,,0,35,35,35,,,,,,,,,,,,,,,,,,,,,,,,,,,,,,,,,,,,,,,,,,,,,,,,,,,,,,,,,,,,,,,,,,,,,,,,,,,,,1.9521604875723522,0.9436821999843232,432.12355129999924,None,ScrollUp,정답입니다,432.12355129999924,None,432.12355129999924,None,432.12355129999924,None,432.12355129999924,None,432.9673719999846,None,432.9673719999846,433.46945879998384,,,,,,,,,,,,,,,,021,2022-05-18_11h15.05.089,FishGame,2022.1.1,60.00074401139849,
,37,넌 멍해,4,Orange,A,2.833333333333333,3.4,ScrollDown,ScrollUp,Orange.png,3,Negative,Incongruent,0,0,0,0,,,,,,,,,,,,,,,,,,,,,0,36,36,36,,,,,,,,,,,,,,,,,,,,,,,,,,,,,,,,,,,,,,,,,,,,,,,,,,,,,,,,,,,,,,,,,,,,,,,,,,,,,1.0555555323759716,0.9453271000238601,434.09007929998916,None,ScrollDown,정답입니다,434.09007929998916,None,434.09007929998916,None,434.09007929998916,None,434.09007929998916,None,434.9361692999955,None,434.9361692999955,435.4361631000065,,,,,,,,,,,,,,,,021,2022-05-18_11h15.05.089,FishGame,2022.1.1,60.00074401139849,
,38,나를 데려가줘,6,Green,B,0,0,ScrollDown,ScrollUp,Green.png,3,NonTarget,NonTarget,0,0,0,0,,,,,,,,,,,,,,,,,,,,,0,37,37,37,,,,,,,,,,,,,,,,,,,,,,,,,,,,,,,,,,,,,,,,,,,,,,,,,,,,,,,,,,,,,,,,,,,,,,,,,,,,,1,1.026084200013429,436.0604544999951,None,ScrollDown,정답입니다,436.0604544999951,None,436.0604544999951,None,436.0604544999951,None,436.0604544999951,None,436.98394430000917,None,436.98394430000917,437.4861155000108,,,,,,,,,,,,,,,,021,2022-05-18_11h15.05.089,FishGame,2022.1.1,60.00074401139849,
,39,넌 현명해,2,Orange,A,6.541666666666666,4.533333333333333,ScrollDown,ScrollUp,Orange.png,3,Positive,Congruent,0,0,0,0,,,,,,,,,,,,,,,,,,,,,0,38,38,38,,,,,,,,,,,,,,,,,,,,,,,,,,,,,,,,,,,,,,,,,,,,,,,,,,,,,,,,,,,,,,,,,,,,,,,,,,,,,1.1589506169160206,1.2423723000101745,438.1074221000017,None,ScrollDown,정답입니다,438.1074221000017,None,438.1074221000017,None,438.1074221000017,None,438.1074221000017,None,439.2502692999842,None,439.2502692999842,439.7503533999843,,,,,,,,,,,,,,,,021,2022-05-18_11h15.05.089,FishGame,2022.1.1,60.00074401139849,
,40,넌 수줍어,3,Green,B,3.541666666666666,4.366666666666666,ScrollUp,ScrollDown,Green.png,3,Neutral,Neutral,0,0,0,0,,,,,,,,,,,,,,,,,,,,,0,39,39,39,,,,,,,,,,,,,,,,,,,,,,,,,,,,,,,,,,,,,,,,,,,,,,,,,,,,,,,,,,,,,,,,,,,,,,,,,,,,,1.8749999900658925,1.0781687000126112,440.37196889999905,None,ScrollUp,정답입니다,440.37196889999905,None,440.37196889999905,None,440.37196889999905,None,440.37196889999905,None,441.3527909000113,None,441.3527909000113,441.8528410999861,,,,,,,,,,,,,,,,021,2022-05-18_11h15.05.089,FishGame,2022.1.1,60.00074401139849,
,41,나를 데려가줘,6,Green,B,0,0,ScrollDown,ScrollUp,Green.png,3,NonTarget,NonTarget,0,0,0,0,,,,,,,,,,,,,,,,,,,,,0,40,40,40,,,,,,,,,,,,,,,,,,,,,,,,,,,,,,,,,,,,,,,,,,,,,,,,,,,,,,,,,,,,,,,,,,,,,,,,,,,,,1.0077160497506459,1.061358899984043,442.4872147999995,None,ScrollDown,정답입니다,442.4872147999995,None,442.4872147999995,None,442.4872147999995,None,442.4872147999995,None,443.450474799989,None,443.450474799989,443.95263740001246,,,,,,,,,,,,,,,,021,2022-05-18_11h15.05.089,FishGame,2022.1.1,60.00074401139849,
,42,넌 성숙해,2,Green,B,5.833333333333333,4.533333333333333,ScrollUp,ScrollDown,Green.png,3,Positive,Incongruent,0,0,0,0,,,,,,,,,,,,,,,,,,,,,0,41,41,41,,,,,,,,,,,,,,,,,,,,,,,,,,,,,,,,,,,,,,,,,,,,,,,,,,,,,,,,,,,,,,,,,,,,,,,,,,,,,1.9135802388191223,1.0101495000126306,444.57062019998557,None,ScrollUp,정답입니다,444.57062019998557,None,444.57062019998557,None,444.57062019998557,None,444.57062019998557,None,445.48378290000255,None,445.48378290000255,445.9838404000038,,,,,,,,,,,,,,,,021,2022-05-18_11h15.05.089,FishGame,2022.1.1,60.00074401139849,
,1,넌 매력적이야,2,Green,B,6.125,4.666666666666667,ScrollUp,ScrollDown,Green.png,4,Positive,Incongruent,0,0,0,0,,,,,,,,,,,,,,,,,,,,,,,,,0,0,0,0,,,,,,,,,,,,,,,,,,,,,,,,,,,,,,,,478.3332187999913,479.83545119999326,479.86876919999486,480.81874889999744,480.866406599991,481.81873910001013,481.81873910001013,None,,,,,,,,,,,,,,,,,,,,,,,,,,,,,,,,,,2,1.2253486000117846,482.9259056999872,None,ScrollUp,정답입니다,482.9259056999872,None,482.9259056999872,None,482.9259056999872,None,482.9259056999872,None,484.04970589998993,None,484.04970589998993,484.5517974999966,446.48377689998597,None,446.48377689998597,None,0.5472222,-0.125,1,0,0,0.015991079999366775,None,476.48520689998986,None,,,021,2022-05-18_11h15.05.089,FishGame,2022.1.1,60.00074401139849,
,2,나를 보내줘,6,Orange,A,0,0,ScrollUp,ScrollDown,Orange.png,4,NonTarget,NonTarget,0,0,0,0,,,,,,,,,,,,,,,,,,,,,,,,,0,1,1,1,,,,,,,,,,,,,,,,,,,,,,,,,,,,,,,,,,,,,,,,,,,,,,,,,,,,,,,,,,,,,,,,,,,,,,,,,2,1.0092482999898493,485.1746504000039,None,ScrollUp,정답입니다,485.1746504000039,None,485.1746504000039,None,485.1746504000039,None,485.1746504000039,None,486.0829158999841,None,486.0829158999841,486.58519250000245,,,,,,,,,,,,,,,,021,2022-05-18_11h15.05.089,FishGame,2022.1.1,60.00074401139849,
,3,넌 조심스러워,3,Orange,A,4.791666666666666,4.666666666666667,ScrollDown,ScrollUp,Orange.png,4,Neutral,Neutral,0,0,0,0,,,,,,,,,,,,,,,,,,,,,,,,,0,2,2,2,,,,,,,,,,,,,,,,,,,,,,,,,,,,,,,,,,,,,,,,,,,,,,,,,,,,,,,,,,,,,,,,,,,,,,,,,1.0061728358268738,0.975949000014225,487.21147889998974,None,ScrollDown,정답입니다,487.21147889998974,None,487.21147889998974,None,487.21147889998974,None,487.21147889998974,None,488.0829371,None,488.0829371,488.5851372999896,,,,,,,,,,,,,,,,021,2022-05-18_11h15.05.089,FishGame,2022.1.1,60.00074401139849,
,4,넌 철학적이야,3,Green,B,4.5,4.266666666666667,ScrollUp,ScrollDown,Green.png,4,Neutral,Neutral,0,0,0,0,,,,,,,,,,,,,,,,,,,,,,,,,0,3,3,3,,,,,,,,,,,,,,,,,,,,,,,,,,,,,,,,,,,,,,,,,,,,,,,,,,,,,,,,,,,,,,,,,,,,,,,,,2,0.9259632999892347,489.21411189998616,None,ScrollUp,정답입니다,489.21411189998616,None,489.21411189998616,None,489.21411189998616,None,489.21411189998616,None,490.0328429999936,None,490.0328429999936,490.53291680000257,,,,,,,,,,,,,,,,021,2022-05-18_11h15.05.089,FishGame,2022.1.1,60.00074401139849,
,5,넌 쩨쩨해,5,Orange,A,2.375,2.133333333333333,ScrollDown,ScrollUp,Orange.png,4,Negative,Incongruent,0,0,0,0,,,,,,,,,,,,,,,,,,,,,,,,,0,4,4,4,,,,,,,,,,,,,,,,,,,,,,,,,,,,,,,,,,,,,,,,,,,,,,,,,,,,,,,,,,,,,,,,,,,,,,,,,1,1.0591779999958817,491.1617375999922,None,ScrollDown,정답입니다,491.1617375999922,None,491.1617375999922,None,491.1617375999922,None,491.1617375999922,None,492.11617829999886,None,492.11617829999886,492.6183744999871,,,,,,,,,,,,,,,,021,2022-05-18_11h15.05.089,FishGame,2022.1.1,60.00074401139849,
,6,나를 데려가줘,6,Green,B,0,0,ScrollDown,ScrollUp,Green.png,4,NonTarget,NonTarget,0,0,0,0,,,,,,,,,,,,,,,,,,,,,,,,,0,5,5,5,,,,,,,,,,,,,,,,,,,,,,,,,,,,,,,,,,,,,,,,,,,,,,,,,,,,,,,,,,,,,,,,,,,,,,,,,1,1.0094938999973238,493.24178449998726,None,ScrollDown,정답입니다,493.24178449998726,None,493.24178449998726,None,493.24178449998726,None,493.24178449998726,None,494.14950520001,None,494.14950520001,494.6516270999855,,,,,,,,,,,,,,,,021,2022-05-18_11h15.05.089,FishGame,2022.1.1,60.00074401139849,
,7,넌 고집불통이야,5,Green,B,2.875,2,ScrollUp,ScrollDown,Green.png,4,Negative,Congruent,0,0,0,0,,,,,,,,,,,,,,,,,,,,,,,,,0,6,6,6,,,,,,,,,,,,,,,,,,,,,,,,,,,,,,,,,,,,,,,,,,,,,,,,,,,,,,,,,,,,,,,,,,,,,,,,,2,0.9262139000056777,495.2741945000016,None,ScrollUp,정답입니다,495.2741945000016,None,495.2741945000016,None,495.2741945000016,None,495.2741945000016,None,496.0993823999888,None,496.0993823999888,496.60157040000195,,,,,,,,,,,,,,,,021,2022-05-18_11h15.05.089,FishGame,2022.1.1,60.00074401139849,
,8,넌 무심해,4,Orange,A,2.875,3.2,ScrollDown,ScrollUp,Orange.png,4,Negative,Incongruent,0,0,0,0,,,,,,,,,,,,,,,,,,,,,,,,,0,7,7,7,,,,,,,,,,,,,,,,,,,,,,,,,,,,,,,,,,,,,,,,,,,,,,,,,,,,,,,,,,,,,,,,,,,,,,,,,1,0.8766425999929197,497.2222963999957,None,ScrollDown,정답입니다,497.2222963999957,None,497.2222963999957,None,497.2222963999957,None,497.2222963999957,None,497.9994119000039,None,497.9994119000039,498.5016162999964,,,,,,,,,,,,,,,,021,2022-05-18_11h15.05.089,FishGame,2022.1.1,60.00074401139849,
,9,넌 정겨워,1,Orange,A,5.791666666666667,5.666666666666667,ScrollDown,ScrollUp,Orange.png,4,Positive,Congruent,0,0,0,0,,,,,,,,,,,,,,,,,,,,,,,,,0,8,8,8,,,,,,,,,,,,,,,,,,,,,,,,,,,,,,,,,,,,,,,,,,,,,,,,,,,,,,,,,,,,,,,,,,,,,,,,,1,0.825623100012308,499.13275409999187,None,ScrollDown,정답입니다,499.13275409999187,None,499.13275409999187,None,499.13275409999187,None,499.13275409999187,None,499.84942889999365,None,499.84942889999365,500.349398499995,,,,,,,,,,,,,,,,021,2022-05-18_11h15.05.089,FishGame,2022.1.1,60.00074401139849,
,10,나를 데려가줘,6,Green,B,0,0,ScrollDown,ScrollUp,Green.png,4,NonTarget,NonTarget,0,0,0,0,,,,,,,,,,,,,,,,,,,,,,,,,0,9,9,9,,,,,,,,,,,,,,,,,,,,,,,,,,,,,,,,,,,,,,,,,,,,,,,,,,,,,,,,,,,,,,,,,,,,,,,,,1,1.0614571000041906,500.96925210001064,None,ScrollDown,정답입니다,500.96925210001064,None,500.96925210001064,None,500.96925210001064,None,500.96925210001064,None,501.9326599999913,None,501.9326599999913,502.43483209999977,,,,,,,,,,,,,,,,021,2022-05-18_11h15.05.089,FishGame,2022.1.1,60.00074401139849,
,11,넌 체제순응적이야,4,Green,B,3,3.6,ScrollUp,ScrollDown,Green.png,4,Negative,Congruent,0,0,0,0,,,,,,,,,,,,,,,,,,,,,,,,,0,10,10,10,,,,,,,,,,,,,,,,,,,,,,,,,,,,,,,,,,,,,,,,,,,,,,,,,,,,,,,,,,,,,,,,,,,,,,,,,2,0.9595306999981403,503.0617592000053,None,ScrollUp,정답입니다,503.0617592000053,None,503.0617592000053,None,503.0617592000053,None,503.0617592000053,None,503.9159897000063,None,503.9159897000063,504.4180922000087,,,,,,,,,,,,,,,,021,2022-05-18_11h15.05.089,FishGame,2022.1.1,60.00074401139849,
,12,나를 보내줘,6,Orange,A,0,0,ScrollUp,ScrollDown,Orange.png,4,NonTarget,NonTarget,0,0,0,0,,,,,,,,,,,,,,,,,,,,,,,,,0,11,11,11,,,,,,,,,,,,,,,,,,,,,,,,,,,,,,,,,,,,,,,,,,,,,,,,,,,,,,,,,,,,,,,,,,,,,,,,,1.787037044763565,1.1116674999939278,505.0366081999964,None,ScrollUp,정답입니다,505.0366081999964,None,505.0366081999964,None,505.0366081999964,None,505.0366081999964,None,506.04929910000646,None,506.04929910000646,506.5514909999911,,,,,,,,,,,,,,,,021,2022-05-18_11h15.05.089,FishGame,2022.1.1,60.00074401139849,
,13,넌 박식해,2,Orange,A,5.625,3.933333333333333,ScrollDown,ScrollUp,Orange.png,4,Positive,Congruent,0,0,0,0,,,,,,,,,,,,,,,,,,,,,,,,,0,12,12,12,,,,,,,,,,,,,,,,,,,,,,,,,,,,,,,,,,,,,,,,,,,,,,,,,,,,,,,,,,,,,,,,,,,,,,,,,1,0.9425249999912921,507.1809821999923,None,ScrollDown,정답입니다,507.1809821999923,None,507.1809821999923,None,507.1809821999923,None,507.1809821999923,None,508.01588099999935,None,508.01588099999935,508.51807679998456,,,,,,,,,,,,,,,,021,2022-05-18_11h15.05.089,FishGame,2022.1.1,60.00074401139849,
,14,나를 보내줘,6,Orange,A,0,0,ScrollUp,ScrollDown,Orange.png,4,NonTarget,NonTarget,0,0,0,0,,,,,,,,,,,,,,,,,,,,,,,,,0,13,13,13,,,,,,,,,,,,,,,,,,,,,,,,,,,,,,,,,,,,,,,,,,,,,,,,,,,,,,,,,,,,,,,,,,,,,,,,,2,0.9923796000075527,509.14211980000255,None,ScrollUp,정답입니다,509.14211980000255,None,509.14211980000255,None,509.14211980000255,None,509.14211980000255,None,510.032451600011,None,510.032451600011,510.5346443000017,,,,,,,,,,,,,,,,021,2022-05-18_11h15.05.089,FishGame,2022.1.1,60.00074401139849,
,15,넌 침착해,1,Green,B,5.458333333333333,5.566666666666666,ScrollUp,ScrollDown,Green.png,4,Positive,Incongruent,0,0,0,0,,,,,,,,,,,,,,,,,,,,,,,,,0,14,14,14,,,,,,,,,,,,,,,,,,,,,,,,,,,,,,,,,,,,,,,,,,,,,,,,,,,,,,,,,,,,,,,,,,,,,,,,,1,0.9760789999854751,511.1579877999902,None,ScrollDown,오답입니다,511.1579877999902,None,511.1579877999902,None,511.1579877999902,None,511.1579877999902,None,512.0324881999986,None,512.0324881999986,512.5326307000068,,,,,,,,,,,,,,,,021,2022-05-18_11h15.05.089,FishGame,2022.1.1,60.00074401139849,
,16,나를 데려가줘,6,Green,B,0,0,ScrollDown,ScrollUp,Green.png,4,NonTarget,NonTarget,0,0,0,0,,,,,,,,,,,,,,,,,,,,,,,,,0,15,15,15,,,,,,,,,,,,,,,,,,,,,,,,,,,,,,,,,,,,,,,,,,,,,,,,,,,,,,,,,,,,,,,,,,,,,,,,,1,1.1110859000182245,513.1524992999912,None,ScrollDown,정답입니다,513.1524992999912,None,513.1524992999912,None,513.1524992999912,None,513.1524992999912,None,514.1657937999989,None,514.1657937999989,514.6657616999873,,,,,,,,,,,,,,,,021,2022-05-18_11h15.05.089,FishGame,2022.1.1,60.00074401139849,
,17,넌 행복해,1,Orange,A,6.416666666666666,6.166666666666667,ScrollDown,ScrollUp,Orange.png,4,Positive,Congruent,0,0,0,0,,,,,,,,,,,,,,,,,,,,,,,,,0,16,16,16,,,,,,,,,,,,,,,,,,,,,,,,,,,,,,,,,,,,,,,,,,,,,,,,,,,,,,,,,,,,,,,,,,,,,,,,,1.040123442808787,1.0780425000120886,515.3025555000058,None,ScrollDown,정답입니다,515.3025555000058,None,515.3025555000058,None,515.3025555000058,None,515.3025555000058,None,516.2679404999944,None,516.2679404999944,516.7845215999987,,,,,,,,,,,,,,,,021,2022-05-18_11h15.05.089,FishGame,2022.1.1,60.00074401139849,
,18,넌 겸손해,2,Green,B,5.791666666666667,4.766666666666667,ScrollUp,ScrollDown,Green.png,4,Positive,Incongruent,0,0,0,0,,,,,,,,,,,,,,,,,,,,,,,,,0,17,17,17,,,,,,,,,,,,,,,,,,,,,,,,,,,,,,,,,,,,,,,,,,,,,,,,,,,,,,,,,,,,,,,,,,,,,,,,,1.7314814925193787,1.1927463999891188,517.4044640999928,None,ScrollUp,정답입니다,517.4044640999928,None,517.4044640999928,None,517.4044640999928,None,517.4044640999928,None,518.4823588999861,None,518.4823588999861,518.9845555000065,,,,,,,,,,,,,,,,021,2022-05-18_11h15.05.089,FishGame,2022.1.1,60.00074401139849,
,19,나를 보내줘,6,Orange,A,0,0,ScrollUp,ScrollDown,Orange.png,4,NonTarget,NonTarget,0,0,0,0,,,,,,,,,,,,,,,,,,,,,,,,,0,18,18,18,,,,,,,,,,,,,,,,,,,,,,,,,,,,,,,,,,,,,,,,,,,,,,,,,,,,,,,,,,,,,,,,,,,,,,,,,1.9274691144625347,1.009685700002592,519.610849299992,None,ScrollUp,정답입니다,519.610849299992,None,519.610849299992,None,519.610849299992,None,519.610849299992,None,520.5153433000087,None,520.5153433000087,521.0154196000076,,,,,,,,,,,,,,,,021,2022-05-18_11h15.05.089,FishGame,2022.1.1,60.00074401139849,
,20,넌 의심없어,3,Orange,A,4.166666666666667,4.6,ScrollDown,ScrollUp,Orange.png,4,Neutral,Neutral,0,0,0,0,,,,,,,,,,,,,,,,,,,,,,,,,0,19,19,19,,,,,,,,,,,,,,,,,,,,,,,,,,,,,,,,,,,,,,,,,,,,,,,,,,,,,,,,,,,,,,,,,,,,,,,,,1.0154321193695068,1.061517099995399,521.6368439999933,None,ScrollDown,정답입니다,521.6368439999933,None,521.6368439999933,None,521.6368439999933,None,521.6368439999933,None,522.5986985999916,None,522.5986985999916,523.1011896999844,,,,,,,,,,,,,,,,021,2022-05-18_11h15.05.089,FishGame,2022.1.1,60.00074401139849,
,21,넌 시시해,4,Orange,A,2.666666666666667,2.966666666666667,ScrollDown,ScrollUp,Orange.png,4,Negative,Incongruent,0,0,0,0,,,,,,,,,,,,,,,,,,,,,,,,,0,20,20,20,,,,,,,,,,,,,,,,,,,,,,,,,,,,,,,,,,,,,,,,,,,,,,,,,,,,,,,,,,,,,,,,,,,,,,,,,1,0.9408917000109795,523.7227655999886,None,ScrollDown,정답입니다,523.7227655999886,None,523.7227655999886,None,523.7227655999886,None,523.7227655999886,None,524.5609057999973,None,524.5609057999973,525.0678287000046,,,,,,,,,,,,,,,,021,2022-05-18_11h15.05.089,FishGame,2022.1.1,60.00074401139849,
,22,나를 데려가줘,6,Green,B,0,0,ScrollDown,ScrollUp,Green.png,4,NonTarget,NonTarget,0,0,0,0,,,,,,,,,,,,,,,,,,,,,,,,,0,21,21,21,,,,,,,,,,,,,,,,,,,,,,,,,,,,,,,,,,,,,,,,,,,,,,,,,,,,,,,,,,,,,,,,,,,,,,,,,1,0.9593172999739181,525.6891341999872,None,ScrollDown,정답입니다,525.6891341999872,None,525.6891341999872,None,525.6891341999872,None,525.6891341999872,None,526.5510554999928,None,526.5510554999928,527.0510402999935,,,,,,,,,,,,,,,,021,2022-05-18_11h15.05.089,FishGame,2022.1.1,60.00074401139849,
,23,넌 무정해,5,Orange,A,2.5,2.2,ScrollDown,ScrollUp,Orange.png,4,Negative,Incongruent,0,0,0,0,,,,,,,,,,,,,,,,,,,,,,,,,0,22,22,22,,,,,,,,,,,,,,,,,,,,,,,,,,,,,,,,,,,,,,,,,,,,,,,,,,,,,,,,,,,,,,,,,,,,,,,,,1,0.9090768999885768,527.6809556999942,None,ScrollDown,정답입니다,527.6809556999942,None,527.6809556999942,None,527.6809556999942,None,527.6809556999942,None,528.4818563000008,None,528.4818563000008,528.9819301000098,,,,,,,,,,,,,,,,021,2022-05-18_11h15.05.089,FishGame,2022.1.1,60.00074401139849,
,24,넌 긍정적이야,1,Green,B,6.041666666666667,6.066666666666666,ScrollUp,ScrollDown,Green.png,4,Positive,Incongruent,0,0,0,0,,,,,,,,,,,,,,,,,,,,,,,,,0,23,23,23,,,,,,,,,,,,,,,,,,,,,,,,,,,,,,,,,,,,,,,,,,,,,,,,,,,,,,,,,,,,,,,,,,,,,,,,,2,1.211644700000761,529.6034700000018,None,ScrollUp,정답입니다,529.6034700000018,None,529.6034700000018,None,529.6034700000018,None,529.6034700000018,None,530.7152157000091,None,530.7152157000091,531.2177094999934,,,,,,,,,,,,,,,,021,2022-05-18_11h15.05.089,FishGame,2022.1.1,60.00074401139849,
,25,나를 보내줘,6,Orange,A,0,0,ScrollUp,ScrollDown,Orange.png,4,NonTarget,NonTarget,0,0,0,0,,,,,,,,,,,,,,,,,,,,,,,,,0,24,24,24,,,,,,,,,,,,,,,,,,,,,,,,,,,,,,,,,,,,,,,,,,,,,,,,,,,,,,,,,,,,,,,,,,,,,,,,,1.9459876318772633,0.9795697999943513,531.8355066000076,None,ScrollUp,정답입니다,531.8355066000076,None,531.8355066000076,None,531.8355066000076,None,531.8355066000076,None,532.7176670999906,None,532.7176670999906,533.2320939000056,,,,,,,,,,,,,,,,021,2022-05-18_11h15.05.089,FishGame,2022.1.1,60.00074401139849,
,26,넌 시기심이 많아,5,Green,B,2.458333333333333,2.233333333333333,ScrollUp,ScrollDown,Green.png,4,Negative,Congruent,0,0,0,0,,,,,,,,,,,,,,,,,,,,,,,,,0,25,25,25,,,,,,,,,,,,,,,,,,,,,,,,,,,,,,,,,,,,,,,,,,,,,,,,,,,,,,,,,,,,,,,,,,,,,,,,,1.8611111144224803,0.9435907999868505,533.8398612999881,None,ScrollUp,정답입니다,533.8398612999881,None,533.8398612999881,None,533.8398612999881,None,533.8398612999881,None,534.6820204000105,None,534.6820204000105,535.1820866999915,,,,,,,,,,,,,,,,021,2022-05-18_11h15.05.089,FishGame,2022.1.1,60.00074401139849,
,27,넌 탁월해,2,Orange,A,5.708333333333334,4.5,ScrollDown,ScrollUp,Orange.png,4,Positive,Congruent,0,0,0,0,,,,,,,,,,,,,,,,,,,,,,,,,0,26,26,26,,,,,,,,,,,,,,,,,,,,,,,,,,,,,,,,,,,,,,,,,,,,,,,,,,,,,,,,,,,,,,,,,,,,,,,,,1.182098776102066,0.9664867999963462,535.8070605999965,None,ScrollDown,정답입니다,535.8070605999965,None,535.8070605999965,None,535.8070605999965,None,535.8070605999965,None,536.6652822000033,None,536.6652822000033,537.1653567999892,,,,,,,,,,,,,,,,021,2022-05-18_11h15.05.089,FishGame,2022.1.1,60.00074401139849,
,28,나를 데려가줘,6,Green,B,0,0,ScrollDown,ScrollUp,Green.png,4,NonTarget,NonTarget,0,0,0,0,,,,,,,,,,,,,,,,,,,,,,,,,0,27,27,27,,,,,,,,,,,,,,,,,,,,,,,,,,,,,,,,,,,,,,,,,,,,,,,,,,,,,,,,,,,,,,,,,,,,,,,,,1,1.0925713000178803,537.7969319999975,None,ScrollDown,정답입니다,537.7969319999975,None,537.7969319999975,None,537.7969319999975,None,537.7969319999975,None,538.7819537000032,None,538.7819537000032,539.2841412999842,,,,,,,,,,,,,,,,021,2022-05-18_11h15.05.089,FishGame,2022.1.1,60.00074401139849,
,29,넌 조용해,3,Green,B,4.333333333333333,4.166666666666667,ScrollUp,ScrollDown,Green.png,4,Neutral,Neutral,0,0,0,0,,,,,,,,,,,,,,,,,,,,,,,,,0,28,28,28,,,,,,,,,,,,,,,,,,,,,,,,,,,,,,,,,,,,,,,,,,,,,,,,,,,,,,,,,,,,,,,,,,,,,,,,,2,1.0923424999928102,539.9125308000075,None,ScrollUp,정답입니다,539.9125308000075,None,539.9125308000075,None,539.9125308000075,None,539.9125308000075,None,540.8985605000053,None,540.8985605000053,541.4007361000113,,,,,,,,,,,,,,,,021,2022-05-18_11h15.05.089,FishGame,2022.1.1,60.00074401139849,
,30,넌 다정해,1,Orange,A,5.833333333333334,5.7,ScrollDown,ScrollUp,Orange.png,4,Positive,Congruent,0,0,0,0,,,,,,,,,,,,,,,,,,,,,,,,,0,29,29,29,,,,,,,,,,,,,,,,,,,,,,,,,,,,,,,,,,,,,,,,,,,,,,,,,,,,,,,,,,,,,,,,,,,,,,,,,1,0.9261638000025414,542.0278992000094,None,ScrollDown,정답입니다,542.0278992000094,None,542.0278992000094,None,542.0278992000094,None,542.0278992000094,None,542.8482509999885,None,542.8482509999885,543.348318400007,,,,,,,,,,,,,,,,021,2022-05-18_11h15.05.089,FishGame,2022.1.1,60.00074401139849,
,31,넌 능력있어,2,Green,B,6.166666666666666,4.6,ScrollUp,ScrollDown,Green.png,4,Positive,Incongruent,0,0,0,0,,,,,,,,,,,,,,,,,,,,,,,,,0,30,30,30,,,,,,,,,,,,,,,,,,,,,,,,,,,,,,,,,,,,,,,,,,,,,,,,,,,,,,,,,,,,,,,,,,,,,,,,,2,1.2140813000150956,543.9677250999957,None,ScrollUp,정답입니다,543.9677250999957,None,543.9677250999957,None,543.9677250999957,None,543.9677250999957,None,545.0842147000076,None,545.0842147000076,545.5841002000088,,,,,,,,,,,,,,,,021,2022-05-18_11h15.05.089,FishGame,2022.1.1,60.00074401139849,
,32,넌 불쾌해,5,Orange,A,2.125,1.933333333333333,ScrollDown,ScrollUp,Orange.png,4,Negative,Incongruent,0,0,0,0,,,,,,,,,,,,,,,,,,,,,,,,,0,31,31,31,,,,,,,,,,,,,,,,,,,,,,,,,,,,,,,,,,,,,,,,,,,,,,,,,,,,,,,,,,,,,,,,,,,,,,,,,1,0.9562729999888688,546.2080810999905,None,ScrollDown,정답입니다,546.2080810999905,None,546.2080810999905,None,546.2080810999905,None,546.2080810999905,None,547.0604903000058,None,547.0604903000058,547.5673283000069,,,,,,,,,,,,,,,,021,2022-05-18_11h15.05.089,FishGame,2022.1.1,60.00074401139849,
,33,나를 데려가줘,6,Green,B,0,0,ScrollDown,ScrollUp,Green.png,4,NonTarget,NonTarget,0,0,0,0,,,,,,,,,,,,,,,,,,,,,,,,,0,32,32,32,,,,,,,,,,,,,,,,,,,,,,,,,,,,,,,,,,,,,,,,,,,,,,,,,,,,,,,,,,,,,,,,,,,,,,,,,1,1.0286634999793023,548.1877120999852,None,ScrollDown,정답입니다,548.1877120999852,None,548.1877120999852,None,548.1877120999852,None,548.1877120999852,None,549.1150797999871,None,549.1150797999871,549.6172654000111,,,,,,,,,,,,,,,,021,2022-05-18_11h15.05.089,FishGame,2022.1.1,60.00074401139849,
,34,넌 유순해,3,Orange,A,4.458333333333333,5,ScrollDown,ScrollUp,Orange.png,4,Neutral,Neutral,0,0,0,0,,,,,,,,,,,,,,,,,,,,,,,,,0,33,33,33,,,,,,,,,,,,,,,,,,,,,,,,,,,,,,,,,,,,,,,,,,,,,,,,,,,,,,,,,,,,,,,,,,,,,,,,,1,0.9892626999935601,550.2483611000062,None,ScrollDown,정답입니다,550.2483611000062,None,550.2483611000062,None,550.2483611000062,None,550.2483611000062,None,551.1313890999882,None,551.1313890999882,551.6314854999946,,,,,,,,,,,,,,,,021,2022-05-18_11h15.05.089,FishGame,2022.1.1,60.00074401139849,
,35,넌 근심스러워,4,Green,B,2.708333333333333,3.133333333333333,ScrollUp,ScrollDown,Green.png,4,Negative,Congruent,0,0,0,0,,,,,,,,,,,,,,,,,,,,,,,,,0,34,34,34,,,,,,,,,,,,,,,,,,,,,,,,,,,,,,,,,,,,,,,,,,,,,,,,,,,,,,,,,,,,,,,,,,,,,,,,,2,1.2955314999853726,552.2541018000047,None,ScrollUp,정답입니다,552.2541018000047,None,552.2541018000047,None,552.2541018000047,None,552.2541018000047,None,553.4506756000046,None,553.4506756000046,553.9505640999996,,,,,,,,,,,,,,,,021,2022-05-18_11h15.05.089,FishGame,2022.1.1,60.00074401139849,
,36,넌 세련되었어,2,Orange,A,5.5,4.6,ScrollDown,ScrollUp,Orange.png,4,Positive,Congruent,0,0,0,0,,,,,,,,,,,,,,,,,,,,,,,,,0,35,35,35,,,,,,,,,,,,,,,,,,,,,,,,,,,,,,,,,,,,,,,,,,,,,,,,,,,,,,,,,,,,,,,,,,,,,,,,,1,1.0761235000099987,554.5754855000123,None,ScrollDown,정답입니다,554.5754855000123,None,554.5754855000123,None,554.5754855000123,None,554.5754855000123,None,555.5391546000028,None,555.5391546000028,556.0480630999955,,,,,,,,,,,,,,,,021,2022-05-18_11h15.05.089,FishGame,2022.1.1,60.00074401139849,
,37,나를 보내줘,6,Orange,A,0,0,ScrollUp,ScrollDown,Orange.png,4,NonTarget,NonTarget,0,0,0,0,,,,,,,,,,,,,,,,,,,,,,,,,0,36,36,36,,,,,,,,,,,,,,,,,,,,,,,,,,,,,,,,,,,,,,,,,,,,,,,,,,,,,,,,,,,,,,,,,,,,,,,,,2,1.4446819000004325,556.6731560000044,None,ScrollUp,정답입니다,556.6731560000044,None,556.6731560000044,None,556.6731560000044,None,556.6731560000044,None,558.0146585000039,None,558.0146585000039,558.5171760999947,,,,,,,,,,,,,,,,021,2022-05-18_11h15.05.089,FishGame,2022.1.1,60.00074401139849,
,38,넌 확고해,3,Green,B,4.708333333333334,4.566666666666666,ScrollUp,ScrollDown,Green.png,4,Neutral,Neutral,0,0,0,0,,,,,,,,,,,,,,,,,,,,,,,,,0,37,37,37,,,,,,,,,,,,,,,,,,,,,,,,,,,,,,,,,,,,,,,,,,,,,,,,,,,,,,,,,,,,,,,,,,,,,,,,,1.9135802388191223,1.1595300000044517,559.1407611999894,None,ScrollUp,정답입니다,559.1407611999894,None,559.1407611999894,None,559.1407611999894,None,559.1407611999894,None,560.2004721999983,None,560.2004721999983,560.7004561999929,,,,,,,,,,,,,,,,021,2022-05-18_11h15.05.089,FishGame,2022.1.1,60.00074401139849,
,39,넌 이해심이 많아,1,Green,B,6.041666666666668,5.533333333333333,ScrollUp,ScrollDown,Green.png,4,Positive,Incongruent,0,0,0,0,,,,,,,,,,,,,,,,,,,,,,,,,0,38,38,38,,,,,,,,,,,,,,,,,,,,,,,,,,,,,,,,,,,,,,,,,,,,,,,,,,,,,,,,,,,,,,,,,,,,,,,,,1.8719135870536168,1.2106941000092775,561.3225945000013,None,ScrollUp,정답입니다,561.3225945000013,None,561.3225945000013,None,561.3225945000013,None,561.3225945000013,None,562.43144819999,None,562.43144819999,562.9336414999852,,,,,,,,,,,,,,,,021,2022-05-18_11h15.05.089,FishGame,2022.1.1,60.00074401139849,
,40,나를 보내줘,6,Orange,A,0,0,ScrollUp,ScrollDown,Orange.png,4,NonTarget,NonTarget,0,0,0,0,,,,,,,,,,,,,,,,,,,,,,,,,0,39,39,39,,,,,,,,,,,,,,,,,,,,,,,,,,,,,,,,,,,,,,,,,,,,,,,,,,,,,,,,,,,,,,,,,,,,,,,,,2,1.194054599996889,563.553743299999,None,ScrollUp,정답입니다,563.553743299999,None,563.553743299999,None,563.553743299999,None,563.553743299999,None,564.6480305999867,None,564.6480305999867,565.1481028999842,,,,,,,,,,,,,,,,021,2022-05-18_11h15.05.089,FishGame,2022.1.1,60.00074401139849,
,41,넌 거칠어,4,Orange,A,2.625,3.033333333333333,ScrollDown,ScrollUp,Orange.png,4,Negative,Incongruent,0,0,0,0,,,,,,,,,,,,,,,,,,,,,,,,,0,40,40,40,,,,,,,,,,,,,,,,,,,,,,,,,,,,,,,,,,,,,,,,,,,,,,,,,,,,,,,,,,,,,,,,,,,,,,,,,1,1.4427991000120528,565.7739521999902,None,ScrollDown,정답입니다,565.7739521999902,None,565.7739521999902,None,565.7739521999902,None,565.7739521999902,None,567.114717199991,None,567.114717199991,567.616910599987,,,,,,,,,,,,,,,,021,2022-05-18_11h15.05.089,FishGame,2022.1.1,60.00074401139849,
,42,넌 변덕맞아,5,Green,B,2.75,2.166666666666667,ScrollUp,ScrollDown,Green.png,4,Negative,Congruent,0,0,0,0,,,,,,,,,,,,,,,,,,,,,,,,,0,41,41,41,,,,,,,,,,,,,,,,,,,,,,,,,,,,,,,,,,,,,,,,,,,,,,,,,,,,,,,,,,,,,,,,,,,,,,,,,1.9382716119289398,1.0421918999927584,568.2504154999915,None,ScrollUp,정답입니다,568.2504154999915,None,568.2504154999915,None,568.2504154999915,None,568.2504154999915,None,569.1810650000116,None,569.1810650000116,569.6811304999865,,,,,,,,,,,,,,,,021,2022-05-18_11h15.05.089,FishGame,2022.1.1,60.00074401139849,
,43,나를 데려가줘,6,Green,B,0,0,ScrollDown,ScrollUp,Green.png,4,NonTarget,NonTarget,0,0,0,0,,,,,,,,,,,,,,,,,,,,,,,,,0,42,42,42,,,,,,,,,,,,,,,,,,,,,,,,,,,,,,,,,,,,,,,,,,,,,,,,,,,,,,,,,,,,,,,,,,,,,,,,,1,0.9787392000143882,570.3005234999873,None,ScrollDown,정답입니다,570.3005234999873,None,570.3005234999873,None,570.3005234999873,None,570.3005234999873,None,571.1836542999954,None,571.1836542999954,571.6835902000021,,,,,,,,,,,,,,,,021,2022-05-18_11h15.05.089,FishGame,2022.1.1,60.00074401139849,
,44,넌 외로워,4,Green,B,2.833333333333333,3.3,ScrollUp,ScrollDown,Green.png,4,Negative,Congruent,0,0,0,0,,,,,,,,,,,,,,,,,,,,,,,,,0,43,43,43,,,,,,,,,,,,,,,,,,,,,,,,,,,,,,,,,,,,,,,,,,,,,,,,,,,,,,,,,,,,,,,,,,,,,,,,,1.8688271592060726,1.144170200015651,572.3067908000085,None,ScrollUp,정답입니다,572.3067908000085,None,572.3067908000085,None,572.3067908000085,None,572.3067908000085,None,573.3503007999971,None,573.3503007999971,573.8500745999918,,,,,,,,,,,,,,,,021,2022-05-18_11h15.05.089,FishGame,2022.1.1,60.00074401139849,
,1,넌 불평스러워,5,Orange,A,2.25,2.066666666666667,ScrollDown,ScrollUp,Orange.png,5,Negative,Incongruent,0,0,0,0,,,,,,,,,,,,,,,,,,,,,,,,,,,,,0,0,0,0,,,,,,,,,,,,,,,,,,,,,,,,,,,,610.0472268000012,611.5495933000057,611.5829260000028,612.5495216999843,612.5828591999889,613.5304595000052,613.5304595000052,None,,,,,,,,,,,,,,,,,,,,,,,,,,,,,,,,,,1,1.1410666000156198,614.6441486999975,None,ScrollDown,정답입니다,614.6441486999975,None,614.6441486999975,None,614.6441486999975,None,614.6441486999975,None,615.6804303000099,None,615.6804303000099,616.1857690000033,574.3478894,None,574.3478894,None,0.53333336,-0.17777778,1,0,0,0.015963079989887774,None,604.3494232000085,None,,,021,2022-05-18_11h15.05.089,FishGame,2022.1.1,60.00074401139849,
,2,나를 보내줘,6,Orange,A,0,0,ScrollUp,ScrollDown,Orange.png,5,NonTarget,NonTarget,0,0,0,0,,,,,,,,,,,,,,,,,,,,,,,,,,,,,0,1,1,1,,,,,,,,,,,,,,,,,,,,,,,,,,,,,,,,,,,,,,,,,,,,,,,,,,,,,,,,,,,,,,,,,,,,,2,1.0606617000012193,616.8022587999876,None,ScrollUp,정답입니다,616.8022587999876,None,616.8022587999876,None,616.8022587999876,None,616.8022587999876,None,617.763764000003,None,617.763764000003,618.2658955999941,,,,,,,,,,,,,,,,021,2022-05-18_11h15.05.089,FishGame,2022.1.1,60.00074401139849,
,3,넌 다재다능해,2,Green,B,6.208333333333333,4.5,ScrollUp,ScrollDown,Green.png,5,Positive,Incongruent,0,0,0,0,,,,,,,,,,,,,,,,,,,,,,,,,,,,,0,2,2,2,,,,,,,,,,,,,,,,,,,,,,,,,,,,,,,,,,,,,,,,,,,,,,,,,,,,,,,,,,,,,,,,,,,,,2,1.1928512000013143,618.8843652000069,None,ScrollUp,정답입니다,618.8843652000069,None,618.8843652000069,None,618.8843652000069,None,618.8843652000069,None,619.9803437000082,None,619.9803437000082,620.4803831999889,,,,,,,,,,,,,,,,021,2022-05-18_11h15.05.089,FishGame,2022.1.1,60.00074401139849,
,4,넌 과감해,3,Orange,A,4.833333333333334,4.6,ScrollDown,ScrollUp,Orange.png,5,Neutral,Neutral,0,0,0,0,,,,,,,,,,,,,,,,,,,,,,,,,,,,,0,3,3,3,,,,,,,,,,,,,,,,,,,,,,,,,,,,,,,,,,,,,,,,,,,,,,,,,,,,,,,,,,,,,,,,,,,,,1,1.0260269999853335,621.1075820999977,None,ScrollDown,정답입니다,621.1075820999977,None,621.1075820999977,None,621.1075820999977,None,621.1075820999977,None,622.0300025999895,None,622.0300025999895,622.5300846000027,,,,,,,,,,,,,,,,021,2022-05-18_11h15.05.089,FishGame,2022.1.1,60.00074401139849,
,5,넌 고분고분해,3,Green,B,3.75,4.033333333333333,ScrollUp,ScrollDown,Green.png,5,Neutral,Neutral,0,0,0,0,,,,,,,,,,,,,,,,,,,,,,,,,,,,,0,4,4,4,,,,,,,,,,,,,,,,,,,,,,,,,,,,,,,,,,,,,,,,,,,,,,,,,,,,,,,,,,,,,,,,,,,,,2,1.0283782000187784,623.157055299991,None,ScrollUp,정답입니다,623.157055299991,None,623.157055299991,None,623.157055299991,None,623.157055299991,None,624.082607999997,None,624.082607999997,624.5825530999864,,,,,,,,,,,,,,,,021,2022-05-18_11h15.05.089,FishGame,2022.1.1,60.00074401139849,
,6,나를 보내줘,6,Orange,A,0,0,ScrollUp,ScrollDown,Orange.png,5,NonTarget,NonTarget,0,0,0,0,,,,,,,,,,,,,,,,,,,,,,,,,,,,,0,5,5,5,,,,,,,,,,,,,,,,,,,,,,,,,,,,,,,,,,,,,,,,,,,,,,,,,,,,,,,,,,,,,,,,,,,,,2,1.011005100008333,625.2056633000029,None,ScrollUp,정답입니다,625.2056633000029,None,625.2056633000029,None,625.2056633000029,None,625.2056633000029,None,626.1158350000042,None,626.1158350000042,626.6135769000102,,,,,,,,,,,,,,,,021,2022-05-18_11h15.05.089,FishGame,2022.1.1,60.00074401139849,
,7,넌 잘 잊어,4,Orange,A,3,3.7,ScrollDown,ScrollUp,Orange.png,5,Negative,Incongruent,0,0,0,0,,,,,,,,,,,,,,,,,,,,,,,,,,,,,0,6,6,6,,,,,,,,,,,,,,,,,,,,,,,,,,,,,,,,,,,,,,,,,,,,,,,,,,,,,,,,,,,,,,,,,,,,,1.2098765522241592,1.209459700010484,627.2462384999963,None,ScrollDown,정답입니다,627.2462384999963,None,627.2462384999963,None,627.2462384999963,None,627.2462384999963,None,628.3489738999924,None,628.3489738999924,628.8490384999895,,,,,,,,,,,,,,,,021,2022-05-18_11h15.05.089,FishGame,2022.1.1,60.00074401139849,
,8,넌 탐구심이없어,4,Green,B,2.833333333333333,3.066666666666667,ScrollUp,ScrollDown,Green.png,5,Negative,Congruent,0,0,0,0,,,,,,,,,,,,,,,,,,,,,,,,,,,,,0,7,7,7,,,,,,,,,,,,,,,,,,,,,,,,,,,,,,,,,,,,,,,,,,,,,,,,,,,,,,,,,,,,,,,,,,,,,2,1.1262979000166524,629.4707376000006,None,ScrollUp,정답입니다,629.4707376000006,None,629.4707376000006,None,629.4707376000006,None,629.4707376000006,None,630.4989044000104,None,630.4989044000104,630.9988712999912,,,,,,,,,,,,,,,,021,2022-05-18_11h15.05.089,FishGame,2022.1.1,60.00074401139849,
,9,나를 데려가줘,6,Green,B,0,0,ScrollDown,ScrollUp,Green.png,5,NonTarget,NonTarget,0,0,0,0,,,,,,,,,,,,,,,,,,,,,,,,,,,,,0,8,8,8,,,,,,,,,,,,,,,,,,,,,,,,,,,,,,,,,,,,,,,,,,,,,,,,,,,,,,,,,,,,,,,,,,,,,1,1.376015899993945,631.6189408999926,None,ScrollDown,정답입니다,631.6189408999926,None,631.6189408999926,None,631.6189408999926,None,631.6189408999926,None,632.8967858999968,None,632.8967858999968,633.4020522999926,,,,,,,,,,,,,,,,021,2022-05-18_11h15.05.089,FishGame,2022.1.1,60.00074401139849,
,10,넌 참되어,2,Orange,A,6.041666666666664,4.733333333333333,ScrollDown,ScrollUp,Orange.png,5,Positive,Congruent,0,0,0,0,,,,,,,,,,,,,,,,,,,,,,,,,,,,,0,9,9,9,,,,,,,,,,,,,,,,,,,,,,,,,,,,,,,,,,,,,,,,,,,,,,,,,,,,,,,,,,,,,,,,,,,,,1.214506169160207,1.1612590000149794,634.0221397999849,None,ScrollDown,정답입니다,634.0221397999849,None,634.0221397999849,None,634.0221397999849,None,634.0221397999849,None,635.0799759000074,None,635.0799759000074,635.580046099989,,,,,,,,,,,,,,,,021,2022-05-18_11h15.05.089,FishGame,2022.1.1,60.00074401139849,
,11,넌 생기있어,1,Green,B,5.875,5.633333333333334,ScrollUp,ScrollDown,Green.png,5,Positive,Incongruent,0,0,0,0,,,,,,,,,,,,,,,,,,,,,,,,,,,,,0,10,10,10,,,,,,,,,,,,,,,,,,,,,,,,,,,,,,,,,,,,,,,,,,,,,,,,,,,,,,,,,,,,,,,,,,,,,2,2.359513800009154,636.2063097000064,None,ScrollUp,정답입니다,636.2063097000064,None,636.2063097000064,None,636.2063097000064,None,636.2063097000064,None,638.4633351000084,None,638.4633351000084,638.965546499996,,,,,,,,,,,,,,,,021,2022-05-18_11h15.05.089,FishGame,2022.1.1,60.00074401139849,
,12,넌 비사교적이야,4,Green,B,2.875,2.9,ScrollUp,ScrollDown,Green.png,5,Negative,Congruent,0,0,0,0,,,,,,,,,,,,,,,,,,,,,,,,,,,,,0,11,11,11,,,,,,,,,,,,,,,,,,,,,,,,,,,,,,,,,,,,,,,,,,,,,,,,,,,,,,,,,,,,,,,,,,,,,2,1.0758690999937244,639.585467500001,None,ScrollUp,정답입니다,639.585467500001,None,639.585467500001,None,639.585467500001,None,639.585467500001,None,640.5632105999975,None,640.5632105999975,641.065368200012,,,,,,,,,,,,,,,,021,2022-05-18_11h15.05.089,FishGame,2022.1.1,60.00074401139849,
,13,나를 데려가줘,6,Green,B,0,0,ScrollDown,ScrollUp,Green.png,5,NonTarget,NonTarget,0,0,0,0,,,,,,,,,,,,,,,,,,,,,,,,,,,,,0,12,12,12,,,,,,,,,,,,,,,,,,,,,,,,,,,,,,,,,,,,,,,,,,,,,,,,,,,,,,,,,,,,,,,,,,,,,1.0462962985038757,1.1092818999895826,641.684774399997,None,ScrollDown,정답입니다,641.684774399997,None,641.684774399997,None,641.684774399997,None,641.684774399997,None,642.698673100007,None,642.698673100007,643.215452400007,,,,,,,,,,,,,,,,021,2022-05-18_11h15.05.089,FishGame,2022.1.1,60.00074401139849,
,14,넌 고독해,4,Orange,A,2.916666666666667,3.233333333333333,ScrollDown,ScrollUp,Orange.png,5,Negative,Incongruent,0,0,0,0,,,,,,,,,,,,,,,,,,,,,,,,,,,,,0,13,13,13,,,,,,,,,,,,,,,,,,,,,,,,,,,,,,,,,,,,,,,,,,,,,,,,,,,,,,,,,,,,,,,,,,,,,1,1.0936698999721557,643.8213654999854,None,ScrollDown,정답입니다,643.8213654999854,None,643.8213654999854,None,643.8213654999854,None,643.8213654999854,None,644.8131098999875,None,644.8131098999875,645.3153784000024,,,,,,,,,,,,,,,,021,2022-05-18_11h15.05.089,FishGame,2022.1.1,60.00074401139849,
,15,넌 신경질적이야,5,Green,B,2.375,2.233333333333333,ScrollUp,ScrollDown,Green.png,5,Negative,Congruent,0,0,0,0,,,,,,,,,,,,,,,,,,,,,,,,,,,,,0,14,14,14,,,,,,,,,,,,,,,,,,,,,,,,,,,,,,,,,,,,,,,,,,,,,,,,,,,,,,,,,,,,,,,,,,,,,2,1.5615997999848332,645.9484926000005,None,ScrollUp,정답입니다,645.9484926000005,None,645.9484926000005,None,645.9484926000005,None,645.9484926000005,None,647.3964563999907,None,647.3964563999907,647.8986581999925,,,,,,,,,,,,,,,,021,2022-05-18_11h15.05.089,FishGame,2022.1.1,60.00074401139849,
,16,넌 똑똑해,2,Green,B,5.666666666666667,3.966666666666667,ScrollUp,ScrollDown,Green.png,5,Positive,Incongruent,0,0,0,0,,,,,,,,,,,,,,,,,,,,,,,,,,,,,0,15,15,15,,,,,,,,,,,,,,,,,,,,,,,,,,,,,,,,,,,,,,,,,,,,,,,,,,,,,,,,,,,,,,,,,,,,,2,1.1421032999933232,648.5230729999894,None,ScrollUp,정답입니다,648.5230729999894,None,648.5230729999894,None,648.5230729999894,None,648.5230729999894,None,649.5628023000027,None,649.5628023000027,650.0628762000124,,,,,,,,,,,,,,,,021,2022-05-18_11h15.05.089,FishGame,2022.1.1,60.00074401139849,
,17,나를 보내줘,6,Orange,A,0,0,ScrollUp,ScrollDown,Orange.png,5,NonTarget,NonTarget,0,0,0,0,,,,,,,,,,,,,,,,,,,,,,,,,,,,,0,16,16,16,,,,,,,,,,,,,,,,,,,,,,,,,,,,,,,,,,,,,,,,,,,,,,,,,,,,,,,,,,,,,,,,,,,,,1.0185184975465138,1.511955299996771,650.683325799997,None,ScrollDown,오답입니다,650.683325799997,None,650.683325799997,None,650.683325799997,None,650.683325799997,None,652.098570400005,None,652.098570400005,652.5987531999999,,,,,,,,,,,,,,,,021,2022-05-18_11h15.05.089,FishGame,2022.1.1,60.00074401139849,
,18,넌 협조적이야,1,Orange,A,5.625,5.666666666666667,ScrollDown,ScrollUp,Orange.png,5,Positive,Congruent,0,0,0,0,,,,,,,,,,,,,,,,,,,,,,,,,,,,,0,17,17,17,,,,,,,,,,,,,,,,,,,,,,,,,,,,,,,,,,,,,,,,,,,,,,,,,,,,,,,,,,,,,,,,,,,,,1,0.9360405000043102,653.2210419999901,None,ScrollDown,정답입니다,653.2210419999901,None,653.2210419999901,None,653.2210419999901,None,653.2210419999901,None,654.0583333999966,None,654.0583333999966,654.5651080000098,,,,,,,,,,,,,,,,021,2022-05-18_11h15.05.089,FishGame,2022.1.1,60.00074401139849,
,19,나를 데려가줘,6,Green,B,0,0,ScrollDown,ScrollUp,Green.png,5,NonTarget,NonTarget,0,0,0,0,,,,,,,,,,,,,,,,,,,,,,,,,,,,,0,18,18,18,,,,,,,,,,,,,,,,,,,,,,,,,,,,,,,,,,,,,,,,,,,,,,,,,,,,,,,,,,,,,,,,,,,,,1.0061728358268738,1.0928159000177402,655.184503299999,None,ScrollDown,정답입니다,655.184503299999,None,655.184503299999,None,655.184503299999,None,655.184503299999,None,656.1796078000043,None,656.1796078000043,656.6796688000031,,,,,,,,,,,,,,,,021,2022-05-18_11h15.05.089,FishGame,2022.1.1,60.00074401139849,
,20,넌 몰인정해,5,Green,B,2.541666666666667,2.066666666666667,ScrollUp,ScrollDown,Green.png,5,Negative,Congruent,0,0,0,0,,,,,,,,,,,,,,,,,,,,,,,,,,,,,0,19,19,19,,,,,,,,,,,,,,,,,,,,,,,,,,,,,,,,,,,,,,,,,,,,,,,,,,,,,,,,,,,,,,,,,,,,,1.9984568059444427,1.1265880000137258,657.3033908999932,None,ScrollUp,정답입니다,657.3033908999932,None,657.3033908999932,None,657.3033908999932,None,657.3033908999932,None,658.3295107999875,None,658.3295107999875,658.8295977000089,,,,,,,,,,,,,,,,021,2022-05-18_11h15.05.089,FishGame,2022.1.1,60.00074401139849,
,21,나를 데려가줘,6,Green,B,0,0,ScrollDown,ScrollUp,Green.png,5,NonTarget,NonTarget,0,0,0,0,,,,,,,,,,,,,,,,,,,,,,,,,,,,,0,20,20,20,,,,,,,,,,,,,,,,,,,,,,,,,,,,,,,,,,,,,,,,,,,,,,,,,,,,,,,,,,,,,,,,,,,,,1,1.1281903000199236,659.453571399994,None,ScrollDown,정답입니다,659.453571399994,None,659.453571399994,None,659.453571399994,None,659.453571399994,None,660.4795180000074,None,660.4795180000074,660.9817825999926,,,,,,,,,,,,,,,,021,2022-05-18_11h15.05.089,FishGame,2022.1.1,60.00074401139849,
,22,넌 순진해,3,Green,B,4.125,4.166666666666667,ScrollUp,ScrollDown,Green.png,5,Neutral,Neutral,0,0,0,0,,,,,,,,,,,,,,,,,,,,,,,,,,,,,0,21,21,21,,,,,,,,,,,,,,,,,,,,,,,,,,,,,,,,,,,,,,,,,,,,,,,,,,,,,,,,,,,,,,,,,,,,,2,1.0928122000186704,661.6020186000096,None,ScrollUp,정답입니다,661.6020186000096,None,661.6020186000096,None,661.6020186000096,None,661.6020186000096,None,662.5961160000006,None,662.5961160000006,663.0982991000055,,,,,,,,,,,,,,,,021,2022-05-18_11h15.05.089,FishGame,2022.1.1,60.00074401139849,
,23,넌 신뢰할만해,1,Orange,A,6.625,5.533333333333333,ScrollDown,ScrollUp,Orange.png,5,Positive,Congruent,0,0,0,0,,,,,,,,,,,,,,,,,,,,,,,,,,,,,0,22,22,22,,,,,,,,,,,,,,,,,,,,,,,,,,,,,,,,,,,,,,,,,,,,,,,,,,,,,,,,,,,,,,,,,,,,,1,1.327959499991266,663.7313171999995,None,ScrollDown,정답입니다,663.7313171999995,None,663.7313171999995,None,663.7313171999995,None,663.7313171999995,None,664.946083399991,None,664.946083399991,665.4482195999881,,,,,,,,,,,,,,,,021,2022-05-18_11h15.05.089,FishGame,2022.1.1,60.00074401139849,
,24,나를 보내줘,6,Orange,A,0,0,ScrollUp,ScrollDown,Orange.png,5,NonTarget,NonTarget,0,0,0,0,,,,,,,,,,,,,,,,,,,,,,,,,,,,,0,23,23,23,,,,,,,,,,,,,,,,,,,,,,,,,,,,,,,,,,,,,,,,,,,,,,,,,,,,,,,,,,,,,,,,,,,,,1.787037044763565,1.2565419000166003,666.0787638000038,None,ScrollUp,정답입니다,666.0787638000038,None,666.0787638000038,None,666.0787638000038,None,666.0787638000038,None,667.2316933000111,None,667.2316933000111,667.7316275000048,,,,,,,,,,,,,,,,021,2022-05-18_11h15.05.089,FishGame,2022.1.1,60.00074401139849,
,25,넌 인색해,5,Orange,A,2.625,2.233333333333333,ScrollDown,ScrollUp,Orange.png,5,Negative,Incongruent,0,0,0,0,,,,,,,,,,,,,,,,,,,,,,,,,,,,,0,24,24,24,,,,,,,,,,,,,,,,,,,,,,,,,,,,,,,,,,,,,,,,,,,,,,,,,,,,,,,,,,,,,,,,,,,,,1.0632716019948323,1.7095702000078745,668.3665761000011,None,ScrollDown,정답입니다,668.3665761000011,None,668.3665761000011,None,668.3665761000011,None,668.3665761000011,None,669.9626469000068,None,669.9626469000068,670.4648740999983,,,,,,,,,,,,,,,,021,2022-05-18_11h15.05.089,FishGame,2022.1.1,60.00074401139849,
,26,넌 유쾌해,1,Green,B,5.833333333333333,5.766666666666667,ScrollUp,ScrollDown,Green.png,5,Positive,Incongruent,0,0,0,0,,,,,,,,,,,,,,,,,,,,,,,,,,,,,0,25,25,25,,,,,,,,,,,,,,,,,,,,,,,,,,,,,,,,,,,,,,,,,,,,,,,,,,,,,,,,,,,,,,,,,,,,,2,1.3260416999983136,671.0841516999935,None,ScrollUp,정답입니다,671.0841516999935,None,671.0841516999935,None,671.0841516999935,None,671.0841516999935,None,672.3126496000041,None,672.3126496000041,672.814850099996,,,,,,,,,,,,,,,,021,2022-05-18_11h15.05.089,FishGame,2022.1.1,60.00074401139849,
