name,TrialNum,Word,WordCategory,FishType,WordList,WordValence,WordReputation,CorrectResp,IncorrectResp,FishTypeFile,Round,WordType,Condition,LoopforOrange.thisRepN,LoopforOrange.thisTrialN,LoopforOrange.thisN,LoopforOrange.thisIndex,LoopForGreen.thisRepN,LoopForGreen.thisTrialN,LoopForGreen.thisN,LoopForGreen.thisIndex,GreenInstLoop.thisRepN,GreenInstLoop.thisTrialN,GreenInstLoop.thisN,GreenInstLoop.thisIndex,GreenPrac.thisRepN,GreenPrac.thisTrialN,GreenPrac.thisN,GreenPrac.thisIndex,trials_2.thisRepN,trials_2.thisTrialN,trials_2.thisN,trials_2.thisIndex,GreenRound1.thisRepN,GreenRound1.thisTrialN,GreenRound1.thisN,GreenRound1.thisIndex,GreenRound2.thisRepN,GreenRound2.thisTrialN,GreenRound2.thisN,GreenRound2.thisIndex,GreenRound3.thisRepN,GreenRound3.thisTrialN,GreenRound3.thisN,GreenRound3.thisIndex,GreenRound4.thisRepN,GreenRound4.thisTrialN,GreenRound4.thisN,GreenRound4.thisIndex,GreenRound5.thisRepN,GreenRound5.thisTrialN,GreenRound5.thisN,GreenRound5.thisIndex,text_2.started,text_2.stopped,text_3.started,text_3.stopped,key_resp.keys,key_resp.rt,key_resp.started,key_resp.stopped,PassI.started,PassI.stopped,PassInst.keys,PassInst.rt,PassInst.started,PassInst.stopped,mouse_2.x,mouse_2.y,mouse_2.leftButton,mouse_2.midButton,mouse_2.rightButton,mouse_2.started,mouse_2.stopped,image.started,image.stopped,text_5.started,text_5.stopped,text_6.started,text_6.stopped,text_7.started,text_7.stopped,text_8.started,text_8.stopped,slider_3.response,slider_3.rt,slider_3.started,slider_3.stopped,Response_3,Feedback_3,BackGround_3.started,BackGround_3.stopped,Fish_3.started,Fish_3.stopped,WordBox_3.started,WordBox_3.stopped,Words_3.started,Words_3.stopped,BackGround_Feedback_3.started,BackGround_Feedback_3.stopped,Feedbacks_3.started,Feedbacks_3.stopped,Continue_or_not_2.keys,Continue_or_not_2.rt,Continue_or_not_2.started,Continue_or_not_2.stopped,image_4.started,image_4.stopped,mouse_3.x,mouse_3.y,mouse_3.leftButton,mouse_3.midButton,mouse_3.rightButton,mouse_3.started,mouse_3.stopped,startmain.started,startmain.stopped,slider_4.response,slider_4.rt,slider_4.started,slider_4.stopped,Response_4,Feedback_4,BackGround_4.started,BackGround_4.stopped,Fish_4.started,Fish_4.stopped,WordBox_4.started,WordBox_4.stopped,Words_4.started,Words_4.stopped,BackGround_Feedback_4.started,BackGround_Feedback_4.stopped,Feedbacks_4.started,Feedbacks_4.stopped,text.started,text.stopped,break_interval.started,break_interval.stopped,mouse.x,mouse.y,mouse.leftButton,mouse.midButton,mouse.rightButton,mouse.started,mouse.stopped,stratnextround.started,stratnextround.stopped,endgame.started,endgame.stopped,participant,date,expName,psychopyVersion,frameRate,
,,,,,,,,,,,,,,,,,,,,,,,,,,,,,,,,,,,,,,,,,,,,,,,,,,,,,,16.792173099995125,None,16.792173099995125,None,space,2.0270892000116874,17.267631800001254,None,,,,,,,,,,,,,,,,,,,,,,,,,,,,,,,,,,,,,,,,,,,,,,,,,,,,,,,,,,,,,,,,,,,,,,,,,,,,,,,,,,,,,,,,,,022,2022-05-18_13h57.08.007,FishGame,2022.1.1,59.986311120826585,
물고기과제_instruction(참가자용)GreenVersion.mp4,,,,,,,,,,,,,,,,,,0,0,0,0,0,0,0,0,,,,,,,,,,,,,,,,,,,,,,,,,,,,,,,,,,,,,91.48254129997804,None,n,1.492591899994295,91.48254129997804,None,,,,,,,,,,,,,,,,,,,,,,,,,,,,,,,,,,,,,,,,,,,,,,,,,,,,,,,,,,,,,,,,,,,,,,,,,,,,,,,,,,,,022,2022-05-18_13h57.08.007,FishGame,2022.1.1,59.986311120826585,
,1,넌 교활해,5,Orange,B,2.333333333333333,2.133333333333333,ScrollUp,ScrollDown,Orange.png,practice,,,,,,,0,0,0,0,,,,,0,0,0,0,0,0,0,0,,,,,,,,,,,,,,,,,,,,,,,,,,,,,,,,,,,-0.08888889,-0.24814814,1,0,0,0.4991047299990896,None,92.99577349997708,None,96.66022109999903,98.16253099997994,98.19585859999643,99.1490300000005,99.19896509998944,100.16012059999048,100.14581499999622,None,1.9706790049870808,1.4789574000169523,101.44848249998176,None,ScrollUp,정답입니다,101.44848249998176,None,101.44848249998176,None,101.44848249998176,None,101.44848249998176,None,102.6264798999764,None,102.6264798999764,103.12651599998935,,,,,,,,,,,,,,,,,,,,,,,,,,,,,,,,,,,,,,,,,,,,,,,,,022,2022-05-18_13h57.08.007,FishGame,2022.1.1,59.986311120826585,
,2,넌 슬기로워,2,Green,A,6.166666666666667,4.1,ScrollDown,ScrollUp,Green.png,practice,,,,,,,0,0,0,0,,,,,0,0,0,0,0,1,1,1,,,,,,,,,,,,,,,,,,,,,,,,,,,,,,,,,,,,,,,,,,,,,,,,,,,,1,1.0465215999865904,103.74635589998798,None,ScrollDown,정답입니다,103.74635589998798,None,103.74635589998798,None,103.74635589998798,None,103.74635589998798,None,104.69563809997635,None,104.69563809997635,105.19564559997525,,,,,,,,,,,,,,,,,,,,,,,,,,,,,,,,,,,,,,,,,,,,,,,,,022,2022-05-18_13h57.08.007,FishGame,2022.1.1,59.986311120826585,
,3,나를 보내줘,6,Green,A,0,0,ScrollUp,ScrollDown,Green.png,practice,,,,,,,0,0,0,0,,,,,0,0,0,0,0,2,2,2,,,,,,,,,,,,,,,,,,,,,,,,,,,,,,,,,,,,,,,,,,,,,,,,,,,,1.6666666691501937,1.194051500002388,105.816748799989,None,ScrollUp,정답입니다,105.816748799989,None,105.816748799989,None,105.816748799989,None,105.816748799989,None,106.90996319998521,None,106.90996319998521,107.41214569998556,,,,,,,,,,,,,,,,,,,,,,,,,,,,,,,,,,,,,,,,,,,,,,,,,022,2022-05-18_13h57.08.007,FishGame,2022.1.1,59.986311120826585,
,4,나를 데려가줘,6,Orange,B,0,0,ScrollDown,ScrollUp,Orange.png,practice,,,,,,,0,0,0,0,,,,,0,0,0,0,0,3,3,3,,,,,,,,,,,,,,,,,,,,,,,,,,,,,,,,,,,,,,,,,,,,,,,,,,,,1,1.442780399986077,108.03578619999462,None,ScrollDown,정답입니다,108.03578619999462,None,108.03578619999462,None,108.03578619999462,None,108.03578619999462,None,109.37881339999149,None,109.37881339999149,109.87880039997981,,,,,,,,,,,,,,,,,,,,,,,,,,,,,,,,,,,,,,,,,,,,,,,,,022,2022-05-18_13h57.08.007,FishGame,2022.1.1,59.986311120826585,
,1,넌 교활해,5,Orange,B,2.333333333333333,2.133333333333333,ScrollUp,ScrollDown,Orange.png,practice,,,,,,,0,0,0,0,,,,,0,0,0,0,,,,,,,,,,,,,,,,,,,,,,,,,,,,,,,,,,,,,,,,,,,,,,,,,,,,,,,,,,,,,,,,,,,,,,,,,,n,6.958222500019474,110.37660009998945,None,110.37660009998945,None,,,,,,,,,,,,,,,,,,,,,,,,,,,,,,,,,,,,,,,,,,,022,2022-05-18_13h57.08.007,FishGame,2022.1.1,59.986311120826585,
,1,넌 따뜻해,1,Orange,B,6.083333333333333,5.6,ScrollUp,ScrollDown,Orange.png,1,Positive,Incongruent,,,,,0,0,0,0,,,,,,,,,,,,,0,0,0,0,,,,,,,,,,,,,,,,,,,,,,,,,,,,,,,,,,,,,,,,118.40949539997382,119.9097533999884,119.94533479999518,120.91203849998419,120.94536719997996,121.8953707999899,121.8953707999899,None,,,,,,,,,,,,,,,,,,,,,,,,,-0.225,-0.2685185,1,0,0,0.3138556299963966,None,117.36188889999175,None,1.8117283930381138,1.524451399978716,123.2053251999896,None,ScrollUp,정답입니다,123.2053251999896,None,123.2053251999896,None,123.2053251999896,None,123.2053251999896,None,124.42628389998572,None,124.42628389998572,124.93166299999575,,,,,,,,,,,,,,,,022,2022-05-18_13h57.08.007,FishGame,2022.1.1,59.986311120826585,
,2,넌 기품있어,2,Orange,B,5.791666666666668,4.5,ScrollUp,ScrollDown,Orange.png,1,Positive,Incongruent,,,,,0,0,0,0,,,,,,,,,,,,,0,1,1,1,,,,,,,,,,,,,,,,,,,,,,,,,,,,,,,,,,,,,,,,,,,,,,,,,,,,,,,,,,,,,,,,,,,,,,,,,,,,,,,,,1.8086419651905696,1.0257207000104245,125.55912319998606,None,ScrollUp,정답입니다,125.55912319998606,None,125.55912319998606,None,125.55912319998606,None,125.55912319998606,None,126.47845149997738,None,126.47845149997738,126.97842719999608,,,,,,,,,,,,,,,,022,2022-05-18_13h57.08.007,FishGame,2022.1.1,59.986311120826585,
,3,나를 보내줘,6,Green,A,0,0,ScrollUp,ScrollDown,Green.png,1,NonTarget,NonTarget,,,,,0,0,0,0,,,,,,,,,,,,,0,2,2,2,,,,,,,,,,,,,,,,,,,,,,,,,,,,,,,,,,,,,,,,,,,,,,,,,,,,,,,,,,,,,,,,,,,,,,,,,,,,,,,,,1.7253086368242898,1.0929630000027828,127.60429119999753,None,ScrollUp,정답입니다,127.60429119999753,None,127.60429119999753,None,127.60429119999753,None,127.60429119999753,None,128.59288159999414,None,128.59288159999414,129.09507139999187,,,,,,,,,,,,,,,,022,2022-05-18_13h57.08.007,FishGame,2022.1.1,59.986311120826585,
,4,넌 수동적이야,4,Green,A,2.833333333333333,2.933333333333333,ScrollDown,ScrollUp,Green.png,1,Negative,Incongruent,,,,,0,0,0,0,,,,,,,,,,,,,0,3,3,3,,,,,,,,,,,,,,,,,,,,,,,,,,,,,,,,,,,,,,,,,,,,,,,,,,,,,,,,,,,,,,,,,,,,,,,,,,,,,,,,,1.0262345671653748,1.3105520000099204,129.73066579998704,None,ScrollDown,정답입니다,129.73066579998704,None,129.73066579998704,None,129.73066579998704,None,129.73066579998704,None,130.92586419999134,None,130.92586419999134,131.42594699998153,,,,,,,,,,,,,,,,022,2022-05-18_13h57.08.007,FishGame,2022.1.1,59.986311120826585,
,5,넌 사심이 없어,3,Orange,B,4.916666666666666,4.333333333333333,ScrollUp,ScrollDown,Orange.png,1,Neutral,Neutral,,,,,0,0,0,0,,,,,,,,,,,,,0,4,4,4,,,,,,,,,,,,,,,,,,,,,,,,,,,,,,,,,,,,,,,,,,,,,,,,,,,,,,,,,,,,,,,,,,,,,,,,,,,,,,,,,1.6913580298423767,1.261596099997405,132.06163439998636,None,ScrollUp,정답입니다,132.06163439998636,None,132.06163439998636,None,132.06163439998636,None,132.06163439998636,None,133.209604499978,None,133.209604499978,133.71173609999823,,,,,,,,,,,,,,,,022,2022-05-18_13h57.08.007,FishGame,2022.1.1,59.986311120826585,
,6,넌 헤퍼,5,Green,A,2.458333333333334,2.233333333333333,ScrollDown,ScrollUp,Green.png,1,Negative,Incongruent,,,,,0,0,0,0,,,,,,,,,,,,,0,5,5,5,,,,,,,,,,,,,,,,,,,,,,,,,,,,,,,,,,,,,,,,,,,,,,,,,,,,,,,,,,,,,,,,,,,,,,,,,,,,,,,,,1.0848765472571056,1.0788675000076182,134.330687699985,None,ScrollDown,정답입니다,134.330687699985,None,134.330687699985,None,134.330687699985,None,134.330687699985,None,135.30912789999275,None,135.30912789999275,135.80918869999005,,,,,,,,,,,,,,,,022,2022-05-18_13h57.08.007,FishGame,2022.1.1,59.986311120826585,
,7,넌 말쑥해,3,Green,A,4.833333333333334,4.333333333333333,ScrollDown,ScrollUp,Green.png,1,Neutral,Neutral,,,,,0,0,0,0,,,,,,,,,,,,,0,6,6,6,,,,,,,,,,,,,,,,,,,,,,,,,,,,,,,,,,,,,,,,,,,,,,,,,,,,,,,,,,,,,,,,,,,,,,,,,,,,,,,,,1,1.161435000016354,136.43312539998442,None,ScrollDown,정답입니다,136.43312539998442,None,136.43312539998442,None,136.43312539998442,None,136.43312539998442,None,137.49497689999407,None,137.49497689999407,137.99500169997918,,,,,,,,,,,,,,,,022,2022-05-18_13h57.08.007,FishGame,2022.1.1,59.986311120826585,
,8,넌 투덜거려,5,Orange,B,2.541666666666667,2.266666666666667,ScrollUp,ScrollDown,Orange.png,1,Negative,Congruent,,,,,0,0,0,0,,,,,,,,,,,,,0,7,7,7,,,,,,,,,,,,,,,,,,,,,,,,,,,,,,,,,,,,,,,,,,,,,,,,,,,,,,,,,,,,,,,,,,,,,,,,,,,,,,,,,1.839506169160207,1.009165999974357,138.62695969999186,None,ScrollUp,정답입니다,138.62695969999186,None,138.62695969999186,None,138.62695969999186,None,138.62695969999186,None,139.5259809999843,None,139.5259809999843,140.0281553999812,,,,,,,,,,,,,,,,022,2022-05-18_13h57.08.007,FishGame,2022.1.1,59.986311120826585,
,9,넌 적극적이야,1,Green,A,5.708333333333333,5.533333333333333,ScrollDown,ScrollUp,Green.png,1,Positive,Congruent,,,,,0,0,0,0,,,,,,,,,,,,,0,8,8,8,,,,,,,,,,,,,,,,,,,,,,,,,,,,,,,,,,,,,,,,,,,,,,,,,,,,,,,,,,,,,,,,,,,,,,,,,,,,,,,,,1.095679019888242,1.009731099999044,140.64881479999167,None,ScrollDown,정답입니다,140.64881479999167,None,140.64881479999167,None,140.64881479999167,None,140.64881479999167,None,141.55928129999666,None,141.55928129999666,142.06151780000073,,,,,,,,,,,,,,,,022,2022-05-18_13h57.08.007,FishGame,2022.1.1,59.986311120826585,
,10,넌 재미없어,4,Orange,B,2.625,2.966666666666667,ScrollUp,ScrollDown,Orange.png,1,Negative,Congruent,,,,,0,0,0,0,,,,,,,,,,,,,0,9,9,9,,,,,,,,,,,,,,,,,,,,,,,,,,,,,,,,,,,,,,,,,,,,,,,,,,,,,,,,,,,,,,,,,,,,,,,,,,,,,,,,,1.7777777860562007,1.1117413000029046,142.6933207999973,None,ScrollUp,정답입니다,142.6933207999973,None,142.6933207999973,None,142.6933207999973,None,142.6933207999973,None,143.69470519997412,None,143.69470519997412,144.19472729999688,,,,,,,,,,,,,,,,022,2022-05-18_13h57.08.007,FishGame,2022.1.1,59.986311120826585,
,11,넌 명석해,2,Green,A,5.875,4.033333333333333,ScrollDown,ScrollUp,Green.png,1,Positive,Congruent,,,,,0,0,0,0,,,,,,,,,,,,,0,10,10,10,,,,,,,,,,,,,,,,,,,,,,,,,,,,,,,,,,,,,,,,,,,,,,,,,,,,,,,,,,,,,,,,,,,,,,,,,,,,,,,,,1,1.0035728000220843,144.8180020999862,None,ScrollDown,정답입니다,144.8180020999862,None,144.8180020999862,None,144.8180020999862,None,144.8180020999862,None,145.72158709997893,None,145.72158709997893,146.22563009997248,,,,,,,,,,,,,,,,022,2022-05-18_13h57.08.007,FishGame,2022.1.1,59.986311120826585,
,12,나를 데려가줘,6,Orange,B,0,0,ScrollDown,ScrollUp,Orange.png,1,NonTarget,NonTarget,,,,,0,0,0,0,,,,,,,,,,,,,0,11,11,11,,,,,,,,,,,,,,,,,,,,,,,,,,,,,,,,,,,,,,,,,,,,,,,,,,,,,,,,,,,,,,,,,,,,,,,,,,,,,,,,,1.0185184975465138,1.194781199999852,146.85446829997818,None,ScrollDown,정답입니다,146.85446829997818,None,146.85446829997818,None,146.85446829997818,None,146.85446829997818,None,147.94222939998144,None,147.94222939998144,148.442316199973,,,,,,,,,,,,,,,,022,2022-05-18_13h57.08.007,FishGame,2022.1.1,59.986311120826585,
,13,넌 소심해,4,Green,A,3,3.1,ScrollDown,ScrollUp,Green.png,1,Negative,Incongruent,,,,,0,0,0,0,,,,,,,,,,,,,0,12,12,12,,,,,,,,,,,,,,,,,,,,,,,,,,,,,,,,,,,,,,,,,,,,,,,,,,,,,,,,,,,,,,,,,,,,,,,,,,,,,,,,,1.0555555323759716,1.194127099995967,149.06491809998988,None,ScrollDown,정답입니다,149.06491809998988,None,149.06491809998988,None,149.06491809998988,None,149.06491809998988,None,150.16133959998842,None,150.16133959998842,150.66136919998098,,,,,,,,,,,,,,,,022,2022-05-18_13h57.08.007,FishGame,2022.1.1,59.986311120826585,
,14,넌 합리적이야,2,Green,A,5.583333333333333,4.733333333333333,ScrollDown,ScrollUp,Green.png,1,Positive,Congruent,,,,,0,0,0,0,,,,,,,,,,,,,0,13,13,13,,,,,,,,,,,,,,,,,,,,,,,,,,,,,,,,,,,,,,,,,,,,,,,,,,,,,,,,,,,,,,,,,,,,,,,,,,,,,,,,,1.0154321193695068,0.892695399990771,151.2842325999809,None,ScrollDown,정답입니다,151.2842325999809,None,151.2842325999809,None,151.2842325999809,None,151.2842325999809,None,152.07786659998237,None,152.07786659998237,152.594589299988,,,,,,,,,,,,,,,,022,2022-05-18_13h57.08.007,FishGame,2022.1.1,59.986311120826585,
,15,넌 무자비해,5,Orange,B,2.333333333333333,2.1,ScrollUp,ScrollDown,Orange.png,1,Negative,Congruent,,,,,0,0,0,0,,,,,,,,,,,,,0,14,14,14,,,,,,,,,,,,,,,,,,,,,,,,,,,,,,,,,,,,,,,,,,,,,,,,,,,,,,,,,,,,,,,,,,,,,,,,,,,,,,,,,1.8209876517454784,0.992270600021584,153.20563189999666,None,ScrollUp,정답입니다,153.20563189999666,None,153.20563189999666,None,153.20563189999666,None,153.20563189999666,None,154.0920547999849,None,154.0920547999849,154.59212529999786,,,,,,,,,,,,,,,,022,2022-05-18_13h57.08.007,FishGame,2022.1.1,59.986311120826585,
,16,나를 보내줘,6,Green,A,0,0,ScrollUp,ScrollDown,Green.png,1,NonTarget,NonTarget,,,,,0,0,0,0,,,,,,,,,,,,,0,15,15,15,,,,,,,,,,,,,,,,,,,,,,,,,,,,,,,,,,,,,,,,,,,,,,,,,,,,,,,,,,,,,,,,,,,,,,,,,,,,,,,,,1.8302469104528427,1.161175599991111,155.20888900000136,None,ScrollUp,정답입니다,155.20888900000136,None,155.20888900000136,None,155.20888900000136,None,155.20888900000136,None,156.27539689998957,None,156.27539689998957,156.7779558999755,,,,,,,,,,,,,,,,022,2022-05-18_13h57.08.007,FishGame,2022.1.1,59.986311120826585,
,17,넌 현실적이야,3,Orange,B,4.608695652173913,4.766666666666667,ScrollUp,ScrollDown,Orange.png,1,Neutral,Neutral,,,,,0,0,0,0,,,,,,,,,,,,,0,16,16,16,,,,,,,,,,,,,,,,,,,,,,,,,,,,,,,,,,,,,,,,,,,,,,,,,,,,,,,,,,,,,,,,,,,,,,,,,,,,,,,,,1.8086419651905696,0.9758785000012722,157.4051076999749,None,ScrollUp,정답입니다,157.4051076999749,None,157.4051076999749,None,157.4051076999749,None,157.4051076999749,None,158.27788660000078,None,158.27788660000078,158.79442449999624,,,,,,,,,,,,,,,,022,2022-05-18_13h57.08.007,FishGame,2022.1.1,59.986311120826585,
,18,넌 의리있어,1,Orange,B,5.833333333333334,5.633333333333334,ScrollUp,ScrollDown,Orange.png,1,Positive,Incongruent,,,,,0,0,0,0,,,,,,,,,,,,,0,17,17,17,,,,,,,,,,,,,,,,,,,,,,,,,,,,,,,,,,,,,,,,,,,,,,,,,,,,,,,,,,,,,,,,,,,,,,,,,,,,,,,,,1.9490740597248077,0.9091600000101607,159.40117849997478,None,ScrollUp,정답입니다,159.40117849997478,None,159.40117849997478,None,159.40117849997478,None,159.40117849997478,None,160.2088746999798,None,160.2088746999798,160.71107959997607,,,,,,,,,,,,,,,,022,2022-05-18_13h57.08.007,FishGame,2022.1.1,59.986311120826585,
,19,넌 신경과민이야,5,Green,A,2.541666666666667,2.166666666666667,ScrollDown,ScrollUp,Green.png,1,Negative,Incongruent,,,,,0,0,0,0,,,,,,,,,,,,,0,18,18,18,,,,,,,,,,,,,,,,,,,,,,,,,,,,,,,,,,,,,,,,,,,,,,,,,,,,,,,,,,,,,,,,,,,,,,,,,,,,,,,,,1.0154321193695068,1.0262361999775749,161.33967469999334,None,ScrollDown,정답입니다,161.33967469999334,None,161.33967469999334,None,161.33967469999334,None,161.33967469999334,None,162.25854039998376,None,162.25854039998376,162.75863199998275,,,,,,,,,,,,,,,,022,2022-05-18_13h57.08.007,FishGame,2022.1.1,59.986311120826585,
,20,넌 편안해,1,Green,A,5.916666666666666,5.866666666666666,ScrollDown,ScrollUp,Green.png,1,Positive,Congruent,,,,,0,0,0,0,,,,,,,,,,,,,0,19,19,19,,,,,,,,,,,,,,,,,,,,,,,,,,,,,,,,,,,,,,,,,,,,,,,,,,,,,,,,,,,,,,,,,,,,,,,,,,,,,,,,,1,0.8447295000078157,163.38487239999813,None,ScrollDown,정답입니다,163.38487239999813,None,163.38487239999813,None,163.38487239999813,None,163.38487239999813,None,164.12786909998977,None,164.12786909998977,164.62776789997588,,,,,,,,,,,,,,,,022,2022-05-18_13h57.08.007,FishGame,2022.1.1,59.986311120826585,
,21,넌 품위있어,2,Orange,B,5.291666666666666,4.466666666666667,ScrollUp,ScrollDown,Orange.png,1,Positive,Incongruent,,,,,0,0,0,0,,,,,,,,,,,,,0,20,20,20,,,,,,,,,,,,,,,,,,,,,,,,,,,,,,,,,,,,,,,,,,,,,,,,,,,,,,,,,,,,,,,,,,,,,,,,,,,,,,,,,2,1.0767720000003465,165.2516105999821,None,ScrollUp,정답입니다,165.2516105999821,None,165.2516105999821,None,165.2516105999821,None,165.2516105999821,None,166.22772349999286,None,166.22772349999286,166.72758429998066,,,,,,,,,,,,,,,,022,2022-05-18_13h57.08.007,FishGame,2022.1.1,59.986311120826585,
,22,넌 빈틈없어,3,Green,A,4.833333333333333,3.966666666666667,ScrollDown,ScrollUp,Green.png,1,Neutral,Neutral,,,,,0,0,0,0,,,,,,,,,,,,,0,21,21,21,,,,,,,,,,,,,,,,,,,,,,,,,,,,,,,,,,,,,,,,,,,,,,,,,,,,,,,,,,,,,,,,,,,,,,,,,,,,,,,,,1,1.3922866999928374,167.35011919998215,None,ScrollDown,정답입니다,167.35011919998215,None,167.35011919998215,None,167.35011919998215,None,167.35011919998215,None,168.64205259998562,None,168.64205259998562,169.1443076999858,,,,,,,,,,,,,,,,022,2022-05-18_13h57.08.007,FishGame,2022.1.1,59.986311120826585,
,23,넌 상상력없어,4,Orange,B,2.833333333333333,3.133333333333333,ScrollUp,ScrollDown,Orange.png,1,Negative,Congruent,,,,,0,0,0,0,,,,,,,,,,,,,0,22,22,22,,,,,,,,,,,,,,,,,,,,,,,,,,,,,,,,,,,,,,,,,,,,,,,,,,,,,,,,,,,,,,,,,,,,,,,,,,,,,,,,,1.9614197711149852,0.948433700017631,169.76362489999156,None,ScrollUp,정답입니다,169.76362489999156,None,169.76362489999156,None,169.76362489999156,None,169.76362489999156,None,170.60866469997563,None,170.60866469997563,171.11078489999636,,,,,,,,,,,,,,,,022,2022-05-18_13h57.08.007,FishGame,2022.1.1,59.986311120826585,
,24,넌 지혜로워,2,Orange,B,6.333333333333334,4.633333333333334,ScrollUp,ScrollDown,Orange.png,1,Positive,Incongruent,,,,,0,0,0,0,,,,,,,,,,,,,0,23,23,23,,,,,,,,,,,,,,,,,,,,,,,,,,,,,,,,,,,,,,,,,,,,,,,,,,,,,,,,,,,,,,,,,,,,,,,,,,,,,,,,,1.8533950696388881,0.9781117999809794,171.7357824999781,None,ScrollUp,정답입니다,171.7357824999781,None,171.7357824999781,None,171.7357824999781,None,171.7357824999781,None,172.60862119999365,None,172.60862119999365,173.10869339999044,,,,,,,,,,,,,,,,022,2022-05-18_13h57.08.007,FishGame,2022.1.1,59.986311120826585,
,25,넌 시끄러워,4,Green,A,2.833333333333333,3.033333333333333,ScrollDown,ScrollUp,Green.png,1,Negative,Incongruent,,,,,0,0,0,0,,,,,,,,,,,,,0,24,24,24,,,,,,,,,,,,,,,,,,,,,,,,,,,,,,,,,,,,,,,,,,,,,,,,,,,,,,,,,,,,,,,,,,,,,,,,,,,,,,,,,1,0.9922867999994196,173.73788339999737,None,ScrollDown,정답입니다,173.73788339999737,None,173.73788339999737,None,173.73788339999737,None,173.73788339999737,None,174.62496549999923,None,174.62496549999923,175.12504559999797,,,,,,,,,,,,,,,,022,2022-05-18_13h57.08.007,FishGame,2022.1.1,59.986311120826585,
,26,넌 만사태평이야,3,Orange,B,4,4.333333333333333,ScrollUp,ScrollDown,Orange.png,1,Neutral,Neutral,,,,,0,0,0,0,,,,,,,,,,,,,0,25,25,25,,,,,,,,,,,,,,,,,,,,,,,,,,,,,,,,,,,,,,,,,,,,,,,,,,,,,,,,,,,,,,,,,,,,,,,,,,,,,,,,,1.8981481492519379,0.979653899994446,175.75022089999402,None,ScrollUp,정답입니다,175.75022089999402,None,175.75022089999402,None,175.75022089999402,None,175.75022089999402,None,176.62496699998155,None,176.62496699998155,177.12766139997984,,,,,,,,,,,,,,,,022,2022-05-18_13h57.08.007,FishGame,2022.1.1,59.986311120826585,
,27,넌 붙임성있어,1,Green,A,5.708333333333333,5.633333333333334,ScrollDown,ScrollUp,Green.png,1,Positive,Congruent,,,,,0,0,0,0,,,,,,,,,,,,,0,26,26,26,,,,,,,,,,,,,,,,,,,,,,,,,,,,,,,,,,,,,,,,,,,,,,,,,,,,,,,,,,,,,,,,,,,,,,,,,,,,,,,,,1.060185174147288,1.010785099992063,177.7544645999733,None,ScrollDown,정답입니다,177.7544645999733,None,177.7544645999733,None,177.7544645999733,None,177.7544645999733,None,178.66083949999302,None,178.66083949999302,179.16399229998933,,,,,,,,,,,,,,,,022,2022-05-18_13h57.08.007,FishGame,2022.1.1,59.986311120826585,
,28,넌 영리해,2,Green,A,6,4.033333333333333,ScrollDown,ScrollUp,Green.png,1,Positive,Congruent,,,,,0,0,0,0,,,,,,,,,,,,,0,27,27,27,,,,,,,,,,,,,,,,,,,,,,,,,,,,,,,,,,,,,,,,,,,,,,,,,,,,,,,,,,,,,,,,,,,,,,,,,,,,,,,,,1.1990740795930226,0.8924980000010692,179.7821922999865,None,ScrollDown,정답입니다,179.7821922999865,None,179.7821922999865,None,179.7821922999865,None,179.7821922999865,None,180.57730469998205,None,180.57730469998205,181.09412629998405,,,,,,,,,,,,,,,,022,2022-05-18_13h57.08.007,FishGame,2022.1.1,59.986311120826585,
,29,넌 열심이야,1,Orange,B,6.041666666666667,5.833333333333333,ScrollUp,ScrollDown,Orange.png,1,Positive,Incongruent,,,,,0,0,0,0,,,,,,,,,,,,,0,28,28,28,,,,,,,,,,,,,,,,,,,,,,,,,,,,,,,,,,,,,,,,,,,,,,,,,,,,,,,,,,,,,,,,,,,,,,,,,,,,,,,,,1.7962963034709294,0.8779001999937464,181.71774179997738,None,ScrollUp,정답입니다,181.71774179997738,None,181.71774179997738,None,181.71774179997738,None,181.71774179997738,None,182.49172019999241,None,182.49172019999241,182.99177159997635,,,,,,,,,,,,,,,,022,2022-05-18_13h57.08.007,FishGame,2022.1.1,59.986311120826585,
,30,넌 인기없어,4,Orange,B,3,3.3,ScrollUp,ScrollDown,Orange.png,1,Negative,Congruent,,,,,0,0,0,0,,,,,,,,,,,,,0,29,29,29,,,,,,,,,,,,,,,,,,,,,,,,,,,,,,,,,,,,,,,,,,,,,,,,,,,,,,,,,,,,,,,,,,,,,,,,,,,,,,,,,1.7901234477758408,0.9092299999902025,183.62279689998832,None,ScrollUp,정답입니다,183.62279689998832,None,183.62279689998832,None,183.62279689998832,None,183.62279689998832,None,184.4250518999761,None,184.4250518999761,184.9272820999904,,,,,,,,,,,,,,,,022,2022-05-18_13h57.08.007,FishGame,2022.1.1,59.986311120826585,
,31,넌 익살스러워,3,Green,A,4.708333333333334,4.833333333333333,ScrollDown,ScrollUp,Green.png,1,Neutral,Neutral,,,,,0,0,0,0,,,,,,,,,,,,,0,30,30,30,,,,,,,,,,,,,,,,,,,,,,,,,,,,,,,,,,,,,,,,,,,,,,,,,,,,,,,,,,,,,,,,,,,,,,,,,,,,,,,,,1.0293209950129192,0.9089750999992248,185.55545349998283,None,ScrollDown,정답입니다,185.55545349998283,None,185.55545349998283,None,185.55545349998283,None,185.55545349998283,None,186.35828979997314,None,186.35828979997314,186.85827739999513,,,,,,,,,,,,,,,,022,2022-05-18_13h57.08.007,FishGame,2022.1.1,59.986311120826585,
,32,넌 이기적이야,5,Orange,B,2.291666666666667,2.333333333333333,ScrollUp,ScrollDown,Orange.png,1,Negative,Congruent,,,,,0,0,0,0,,,,,,,,,,,,,0,31,31,31,,,,,,,,,,,,,,,,,,,,,,,,,,,,,,,,,,,,,,,,,,,,,,,,,,,,,,,,,,,,,,,,,,,,,,,,,,,,,,,,,1.9969135920206706,0.8790693000191823,187.47844019997865,None,ScrollUp,정답입니다,187.47844019997865,None,187.47844019997865,None,187.47844019997865,None,187.47844019997865,None,188.25832669998636,None,188.25832669998636,188.76047280000057,,,,,,,,,,,,,,,,022,2022-05-18_13h57.08.007,FishGame,2022.1.1,59.986311120826585,
,33,나를 데려가줘,6,Orange,B,0,0,ScrollDown,ScrollUp,Orange.png,1,NonTarget,NonTarget,,,,,0,0,0,0,,,,,,,,,,,,,0,32,32,32,,,,,,,,,,,,,,,,,,,,,,,,,,,,,,,,,,,,,,,,,,,,,,,,,,,,,,,,,,,,,,,,,,,,,,,,,,,,,,,,,1.7901234477758408,0.8094454999954905,189.3823349000013,None,ScrollUp,오답입니다,189.3823349000013,None,189.3823349000013,None,189.3823349000013,None,189.3823349000013,None,190.09161619999213,None,190.09161619999213,190.5915197999857,,,,,,,,,,,,,,,,022,2022-05-18_13h57.08.007,FishGame,2022.1.1,59.986311120826585,
,34,넌 기회주의자야,5,Green,A,2.875,2.133333333333333,ScrollDown,ScrollUp,Green.png,1,Negative,Incongruent,,,,,0,0,0,0,,,,,,,,,,,,,0,33,33,33,,,,,,,,,,,,,,,,,,,,,,,,,,,,,,,,,,,,,,,,,,,,,,,,,,,,,,,,,,,,,,,,,,,,,,,,,,,,,,,,,1.0740740497907002,0.960279899998568,191.21995299999253,None,ScrollDown,정답입니다,191.21995299999253,None,191.21995299999253,None,191.21995299999253,None,191.21995299999253,None,192.07462659999146,None,192.07462659999146,192.5746859999781,,,,,,,,,,,,,,,,022,2022-05-18_13h57.08.007,FishGame,2022.1.1,59.986311120826585,
,1,넌 미성숙해,4,Green,A,3,3.2,ScrollDown,ScrollUp,Green.png,2,Negative,Incongruent,,,,,0,0,0,0,,,,,,,,,,,,,,,,,0,0,0,0,,,,,,,,,,,,,,,,,,,,,,,,,,,,,,,,,,,,224.79090419999557,226.2932776999951,226.3266225999978,227.27653609999106,227.32650629998534,228.27645409997785,228.27645409997785,None,,,,,,,,,,,,,,,,,,,,,,,,,,,,,,,,,,1,1.1743666999973357,229.38342249998823,None,ScrollDown,정답입니다,229.38342249998823,None,229.38342249998823,None,229.38342249998823,None,229.38342249998823,None,230.45744669999112,None,230.45744669999112,230.9627570999728,193.07467689999612,None,193.07467689999612,None,-0.16851851,-0.28333333,1,0,0,0.015806729992618784,None,223.07635439999285,None,,,022,2022-05-18_13h57.08.007,FishGame,2022.1.1,59.986311120826585,
,2,넌 반사회적이야,5,Orange,B,2.416666666666667,2.033333333333333,ScrollUp,ScrollDown,Orange.png,2,Negative,Congruent,,,,,0,0,0,0,,,,,,,,,,,,,,,,,0,1,1,1,,,,,,,,,,,,,,,,,,,,,,,,,,,,,,,,,,,,,,,,,,,,,,,,,,,,,,,,,,,,,,,,,,,,,,,,,,,,,1.7592592686414719,0.9434134000039194,231.5854497999826,None,ScrollUp,정답입니다,231.5854497999826,None,231.5854497999826,None,231.5854497999826,None,231.5854497999826,None,232.42401899999822,None,232.42401899999822,232.92409319998114,,,,,,,,,,,,,,,,022,2022-05-18_13h57.08.007,FishGame,2022.1.1,59.986311120826585,
,3,넌 유능해,2,Green,A,6.208333333333333,4.433333333333334,ScrollDown,ScrollUp,Green.png,2,Positive,Congruent,,,,,0,0,0,0,,,,,,,,,,,,,,,,,0,2,2,2,,,,,,,,,,,,,,,,,,,,,,,,,,,,,,,,,,,,,,,,,,,,,,,,,,,,,,,,,,,,,,,,,,,,,,,,,,,,,1.0725308855374653,0.9260058999934699,233.5534067999979,None,ScrollDown,정답입니다,233.5534067999979,None,233.5534067999979,None,233.5534067999979,None,233.5534067999979,None,234.3762309999729,None,234.3762309999729,234.87622099998407,,,,,,,,,,,,,,,,022,2022-05-18_13h57.08.007,FishGame,2022.1.1,59.986311120826585,
,4,넌 능숙해,2,Orange,B,5.666666666666667,4.733333333333333,ScrollUp,ScrollDown,Orange.png,2,Positive,Incongruent,,,,,0,0,0,0,,,,,,,,,,,,,,,,,0,3,3,3,,,,,,,,,,,,,,,,,,,,,,,,,,,,,,,,,,,,,,,,,,,,,,,,,,,,,,,,,,,,,,,,,,,,,,,,,,,,,1.8441358109315236,0.9112577000050806,235.4954305999854,None,ScrollUp,정답입니다,235.4954305999854,None,235.4954305999854,None,235.4954305999854,None,235.4954305999854,None,236.30727289998322,None,236.30727289998322,236.8094154999999,,,,,,,,,,,,,,,,022,2022-05-18_13h57.08.007,FishGame,2022.1.1,59.986311120826585,
,5,넌 진부해,4,Orange,B,2.458333333333333,3.166666666666667,ScrollUp,ScrollDown,Orange.png,2,Negative,Congruent,,,,,0,0,0,0,,,,,,,,,,,,,,,,,0,4,4,4,,,,,,,,,,,,,,,,,,,,,,,,,,,,,,,,,,,,,,,,,,,,,,,,,,,,,,,,,,,,,,,,,,,,,,,,,,,,,1.6929012313485146,0.8436581999994814,237.43283009997685,None,ScrollUp,정답입니다,237.43283009997685,None,237.43283009997685,None,237.43283009997685,None,237.43283009997685,None,238.17391959999804,None,238.17391959999804,238.67613119998714,,,,,,,,,,,,,,,,022,2022-05-18_13h57.08.007,FishGame,2022.1.1,59.986311120826585,
,6,나를 보내줘,6,Green,A,0,0,ScrollUp,ScrollDown,Green.png,2,NonTarget,NonTarget,,,,,0,0,0,0,,,,,,,,,,,,,,,,,0,5,5,5,,,,,,,,,,,,,,,,,,,,,,,,,,,,,,,,,,,,,,,,,,,,,,,,,,,,,,,,,,,,,,,,,,,,,,,,,,,,,1.743827154239019,1.0760134999873117,239.29789519999758,None,ScrollUp,정답입니다,239.29789519999758,None,239.29789519999758,None,239.29789519999758,None,239.29789519999758,None,240.27390929998364,None,240.27390929998364,240.7761100999778,,,,,,,,,,,,,,,,022,2022-05-18_13h57.08.007,FishGame,2022.1.1,59.986311120826585,
,7,넌 엄격해,3,Green,A,4.166666666666666,4.1,ScrollDown,ScrollUp,Green.png,2,Neutral,Neutral,,,,,0,0,0,0,,,,,,,,,,,,,,,,,0,6,6,6,,,,,,,,,,,,,,,,,,,,,,,,,,,,,,,,,,,,,,,,,,,,,,,,,,,,,,,,,,,,,,,,,,,,,,,,,,,,,1.0895061641931534,1.0255721999856178,241.4007046999759,None,ScrollDown,정답입니다,241.4007046999759,None,241.4007046999759,None,241.4007046999759,None,241.4007046999759,None,242.32356979997712,None,242.32356979997712,242.82365659999778,,,,,,,,,,,,,,,,022,2022-05-18_13h57.08.007,FishGame,2022.1.1,59.986311120826585,
,8,나를 보내줘,6,Green,A,0,0,ScrollUp,ScrollDown,Green.png,2,NonTarget,NonTarget,,,,,0,0,0,0,,,,,,,,,,,,,,,,,0,7,7,7,,,,,,,,,,,,,,,,,,,,,,,,,,,,,,,,,,,,,,,,,,,,,,,,,,,,,,,,,,,,,,,,,,,,,,,,,,,,,1.6882716019948325,0.9136896999843884,243.43910439999308,None,ScrollUp,정답입니다,243.43910439999308,None,243.43910439999308,None,243.43910439999308,None,243.43910439999308,None,244.25691979998373,None,244.25691979998373,244.75960399999167,,,,,,,,,,,,,,,,022,2022-05-18_13h57.08.007,FishGame,2022.1.1,59.986311120826585,
,9,넌 대담해,3,Orange,B,4.875,4.866666666666666,ScrollUp,ScrollDown,Orange.png,2,Neutral,Neutral,,,,,0,0,0,0,,,,,,,,,,,,,,,,,0,8,8,8,,,,,,,,,,,,,,,,,,,,,,,,,,,,,,,,,,,,,,,,,,,,,,,,,,,,,,,,,,,,,,,,,,,,,,,,,,,,,1.7114197611808777,0.8613520999788307,245.38262659998145,None,ScrollUp,정답입니다,245.38262659998145,None,245.38262659998145,None,245.38262659998145,None,245.38262659998145,None,246.14277700000093,None,246.14277700000093,246.65928809999605,,,,,,,,,,,,,,,,022,2022-05-18_13h57.08.007,FishGame,2022.1.1,59.986311120826585,
,10,넌 꾸준해,1,Green,A,5.916666666666668,5.8,ScrollDown,ScrollUp,Green.png,2,Positive,Congruent,,,,,0,0,0,0,,,,,,,,,,,,,,,,,0,9,9,9,,,,,,,,,,,,,,,,,,,,,,,,,,,,,,,,,,,,,,,,,,,,,,,,,,,,,,,,,,,,,,,,,,,,,,,,,,,,,1.0478395124276478,0.8759489000076428,247.2668916999828,None,ScrollDown,정답입니다,247.2668916999828,None,247.2668916999828,None,247.2668916999828,None,247.2668916999828,None,248.04265949997352,None,248.04265949997352,248.54581119999057,,,,,,,,,,,,,,,,022,2022-05-18_13h57.08.007,FishGame,2022.1.1,59.986311120826585,
,11,나를 데려가줘,6,Orange,B,0,0,ScrollDown,ScrollUp,Orange.png,2,NonTarget,NonTarget,,,,,0,0,0,0,,,,,,,,,,,,,,,,,0,10,10,10,,,,,,,,,,,,,,,,,,,,,,,,,,,,,,,,,,,,,,,,,,,,,,,,,,,,,,,,,,,,,,,,,,,,,,,,,,,,,1.0817901194095612,1.0951252999948338,249.18211119997432,None,ScrollDown,정답입니다,249.18211119997432,None,249.18211119997432,None,249.18211119997432,None,249.18211119997432,None,250.17366219998803,None,250.17366219998803,250.67589439998847,,,,,,,,,,,,,,,,022,2022-05-18_13h57.08.007,FishGame,2022.1.1,59.986311120826585,
,12,넌 독선적이야,5,Green,A,2.458333333333333,1.933333333333333,ScrollDown,ScrollUp,Green.png,2,Negative,Incongruent,,,,,0,0,0,0,,,,,,,,,,,,,,,,,0,11,11,11,,,,,,,,,,,,,,,,,,,,,,,,,,,,,,,,,,,,,,,,,,,,,,,,,,,,,,,,,,,,,,,,,,,,,,,,,,,,,1.2253086417913437,0.9093577000021469,251.30139889998827,None,ScrollDown,정답입니다,251.30139889998827,None,251.30139889998827,None,251.30139889998827,None,251.30139889998827,None,252.10700469999574,None,252.10700469999574,252.60915059997933,,,,,,,,,,,,,,,,022,2022-05-18_13h57.08.007,FishGame,2022.1.1,59.986311120826585,
,13,나를 보내줘,6,Green,A,0,0,ScrollUp,ScrollDown,Green.png,2,NonTarget,NonTarget,,,,,0,0,0,0,,,,,,,,,,,,,,,,,0,12,12,12,,,,,,,,,,,,,,,,,,,,,,,,,,,,,,,,,,,,,,,,,,,,,,,,,,,,,,,,,,,,,,,,,,,,,,,,,,,,,1.629629634320736,0.9422248000046238,253.23720529998536,None,ScrollUp,정답입니다,253.23720529998536,None,253.23720529998536,None,253.23720529998536,None,253.23720529998536,None,254.07332799999858,None,254.07332799999858,254.57339639999554,,,,,,,,,,,,,,,,022,2022-05-18_13h57.08.007,FishGame,2022.1.1,59.986311120826585,
,14,넌 책임감있어,1,Orange,B,6.347826086956522,6,ScrollUp,ScrollDown,Orange.png,2,Positive,Incongruent,,,,,0,0,0,0,,,,,,,,,,,,,,,,,0,13,13,13,,,,,,,,,,,,,,,,,,,,,,,,,,,,,,,,,,,,,,,,,,,,,,,,,,,,,,,,,,,,,,,,,,,,,,,,,,,,,1.549382715175549,0.8279747999913525,255.2000127999927,None,NoResponse,무응답입니다,255.2000127999927,None,255.2000127999927,None,255.2000127999927,None,255.2000127999927,None,255.92336309998063,None,255.92336309998063,256.4259790999931,,,,,,,,,,,,,,,,022,2022-05-18_13h57.08.007,FishGame,2022.1.1,59.986311120826585,
,15,넌 문학적이야,3,Green,A,4.708333333333334,4.333333333333333,ScrollDown,ScrollUp,Green.png,2,Neutral,Neutral,,,,,0,0,0,0,,,,,,,,,,,,,,,,,0,14,14,14,,,,,,,,,,,,,,,,,,,,,,,,,,,,,,,,,,,,,,,,,,,,,,,,,,,,,,,,,,,,,,,,,,,,,,,,,,,,,1.0895061641931534,0.9427589999977499,257.05026469999575,None,ScrollDown,정답입니다,257.05026469999575,None,257.05026469999575,None,257.05026469999575,None,257.05026469999575,None,257.8925097999745,None,257.8925097999745,258.41230169998016,,,,,,,,,,,,,,,,022,2022-05-18_13h57.08.007,FishGame,2022.1.1,59.986311120826585,
,16,넌 재미있어,1,Orange,B,5.875,5.7,ScrollUp,ScrollDown,Orange.png,2,Positive,Incongruent,,,,,0,0,0,0,,,,,,,,,,,,,,,,,0,15,15,15,,,,,,,,,,,,,,,,,,,,,,,,,,,,,,,,,,,,,,,,,,,,,,,,,,,,,,,,,,,,,,,,,,,,,,,,,,,,,1.6620370397965112,0.8927614999993239,259.0133510000014,None,ScrollUp,정답입니다,259.0133510000014,None,259.0133510000014,None,259.0133510000014,None,259.0133510000014,None,259.80905439998605,None,259.80905439998605,260.32567959997687,,,,,,,,,,,,,,,,022,2022-05-18_13h57.08.007,FishGame,2022.1.1,59.986311120826585,
,17,나를 데려가줘,6,Orange,B,0,0,ScrollDown,ScrollUp,Orange.png,2,NonTarget,NonTarget,,,,,0,0,0,0,,,,,,,,,,,,,,,,,0,16,16,16,,,,,,,,,,,,,,,,,,,,,,,,,,,,,,,,,,,,,,,,,,,,,,,,,,,,,,,,,,,,,,,,,,,,,,,,,,,,,1.0216049253940582,1.0097662000043783,260.9295761999965,None,ScrollDown,정답입니다,260.9295761999965,None,260.9295761999965,None,260.9295761999965,None,260.9295761999965,None,261.8400752999878,None,261.8400752999878,262.3401326999883,,,,,,,,,,,,,,,,022,2022-05-18_13h57.08.007,FishGame,2022.1.1,59.986311120826585,
,18,넌 협력적이야,1,Green,A,5.625,5.633333333333334,ScrollDown,ScrollUp,Green.png,2,Positive,Congruent,,,,,0,0,0,0,,,,,,,,,,,,,,,,,0,17,17,17,,,,,,,,,,,,,,,,,,,,,,,,,,,,,,,,,,,,,,,,,,,,,,,,,,,,,,,,,,,,,,,,,,,,,,,,,,,,,1.0833333333333333,0.8757888000109233,262.96842489999835,None,ScrollDown,정답입니다,262.96842489999835,None,262.96842489999835,None,262.96842489999835,None,262.96842489999835,None,263.74008389998926,None,263.74008389998926,264.2422803999798,,,,,,,,,,,,,,,,022,2022-05-18_13h57.08.007,FishGame,2022.1.1,59.986311120826585,
,19,넌 평범해,3,Orange,B,4.333333333333332,4.233333333333333,ScrollUp,ScrollDown,Orange.png,2,Neutral,Neutral,,,,,0,0,0,0,,,,,,,,,,,,,,,,,0,18,18,18,,,,,,,,,,,,,,,,,,,,,,,,,,,,,,,,,,,,,,,,,,,,,,,,,,,,,,,,,,,,,,,,,,,,,,,,,,,,,1.7623456716537476,0.8424378999916371,264.86624399997527,None,ScrollUp,정답입니다,264.86624399997527,None,264.86624399997527,None,264.86624399997527,None,264.86624399997527,None,265.60641349997604,None,265.60641349997604,266.1065147999907,,,,,,,,,,,,,,,,022,2022-05-18_13h57.08.007,FishGame,2022.1.1,59.986311120826585,
,20,넌 오만해,5,Green,A,2.333333333333333,2,ScrollDown,ScrollUp,Green.png,2,Negative,Incongruent,,,,,0,0,0,0,,,,,,,,,,,,,,,,,0,19,19,19,,,,,,,,,,,,,,,,,,,,,,,,,,,,,,,,,,,,,,,,,,,,,,,,,,,,,,,,,,,,,,,,,,,,,,,,,,,,,1,0.9779110999952536,266.7298309999751,None,ScrollDown,정답입니다,266.7298309999751,None,266.7298309999751,None,266.7298309999751,None,266.7298309999751,None,267.6064388999948,None,267.6064388999948,268.1090567999927,,,,,,,,,,,,,,,,022,2022-05-18_13h57.08.007,FishGame,2022.1.1,59.986311120826585,
,21,넌 운이없어,4,Orange,B,3,3.466666666666667,ScrollUp,ScrollDown,Orange.png,2,Negative,Congruent,,,,,0,0,0,0,,,,,,,,,,,,,,,,,0,20,20,20,,,,,,,,,,,,,,,,,,,,,,,,,,,,,,,,,,,,,,,,,,,,,,,,,,,,,,,,,,,,,,,,,,,,,,,,,,,,,1.8209876517454784,0.8654154999821912,268.7292802000011,None,ScrollUp,정답입니다,268.7292802000011,None,268.7292802000011,None,268.7292802000011,None,268.7292802000011,None,269.4923952999816,None,269.4923952999816,269.9922883999825,,,,,,,,,,,,,,,,022,2022-05-18_13h57.08.007,FishGame,2022.1.1,59.986311120826585,
,22,넌 창조적이야,2,Orange,B,6.125,4.633333333333334,ScrollUp,ScrollDown,Orange.png,2,Positive,Incongruent,,,,,0,0,0,0,,,,,,,,,,,,,,,,,0,21,21,21,,,,,,,,,,,,,,,,,,,,,,,,,,,,,,,,,,,,,,,,,,,,,,,,,,,,,,,,,,,,,,,,,,,,,,,,,,,,,1.7793209999799728,0.9391405000060331,270.6287579999771,None,ScrollUp,정답입니다,270.6287579999771,None,270.6287579999771,None,270.6287579999771,None,270.6287579999771,None,271.4562889999943,None,271.4562889999943,271.95638609997695,,,,,,,,,,,,,,,,022,2022-05-18_13h57.08.007,FishGame,2022.1.1,59.986311120826585,
,23,나를 보내줘,6,Green,A,0,0,ScrollUp,ScrollDown,Green.png,2,NonTarget,NonTarget,,,,,0,0,0,0,,,,,,,,,,,,,,,,,0,22,22,22,,,,,,,,,,,,,,,,,,,,,,,,,,,,,,,,,,,,,,,,,,,,,,,,,,,,,,,,,,,,,,,,,,,,,,,,,,,,,1.9151234527428944,1.11158179998165,272.57763119999436,None,ScrollUp,정답입니다,272.57763119999436,None,272.57763119999436,None,272.57763119999436,None,272.57763119999436,None,273.5921662999899,None,273.5921662999899,274.09231549999095,,,,,,,,,,,,,,,,022,2022-05-18_13h57.08.007,FishGame,2022.1.1,59.986311120826585,
,24,넌 통찰력있어,2,Green,A,6.5,4.8,ScrollDown,ScrollUp,Green.png,2,Positive,Congruent,,,,,0,0,0,0,,,,,,,,,,,,,,,,,0,23,23,23,,,,,,,,,,,,,,,,,,,,,,,,,,,,,,,,,,,,,,,,,,,,,,,,,,,,,,,,,,,,,,,,,,,,,,,,,,,,,1,0.9926542000030167,274.71794079997926,None,ScrollDown,정답입니다,274.71794079997926,None,274.71794079997926,None,274.71794079997926,None,274.71794079997926,None,275.6087953999813,None,275.6087953999813,276.1118952999823,,,,,,,,,,,,,,,,022,2022-05-18_13h57.08.007,FishGame,2022.1.1,59.986311120826585,
,25,넌 경솔해,5,Orange,B,2.458333333333333,2.266666666666667,ScrollUp,ScrollDown,Orange.png,2,Negative,Congruent,,,,,0,0,0,0,,,,,,,,,,,,,,,,,0,24,24,24,,,,,,,,,,,,,,,,,,,,,,,,,,,,,,,,,,,,,,,,,,,,,,,,,,,,,,,,,,,,,,,,,,,,,,,,,,,,,1.7546296268701553,0.8270765999914147,276.7311411999981,None,ScrollUp,정답입니다,276.7311411999981,None,276.7311411999981,None,276.7311411999981,None,276.7311411999981,None,277.4586898999987,None,277.4586898999987,277.95864529997925,,,,,,,,,,,,,,,,022,2022-05-18_13h57.08.007,FishGame,2022.1.1,59.986311120826585,
,26,넌 초조해,4,Green,A,2.916666666666667,3.133333333333333,ScrollDown,ScrollUp,Green.png,2,Negative,Incongruent,,,,,0,0,0,0,,,,,,,,,,,,,,,,,0,25,25,25,,,,,,,,,,,,,,,,,,,,,,,,,,,,,,,,,,,,,,,,,,,,,,,,,,,,,,,,,,,,,,,,,,,,,,,,,,,,,1.1697530895471573,0.8423857999732718,278.58387889998266,None,ScrollDown,정답입니다,278.58387889998266,None,278.58387889998266,None,278.58387889998266,None,278.58387889998266,None,279.32281419998617,None,279.32281419998617,279.8228932999773,,,,,,,,,,,,,,,,022,2022-05-18_13h57.08.007,FishGame,2022.1.1,59.986311120826585,
,27,넌 무관심해,4,Orange,B,2.833333333333333,2.9,ScrollUp,ScrollDown,Orange.png,2,Negative,Congruent,,,,,0,0,0,0,,,,,,,,,,,,,,,,,0,26,26,26,,,,,,,,,,,,,,,,,,,,,,,,,,,,,,,,,,,,,,,,,,,,,,,,,,,,,,,,,,,,,,,,,,,,,,,,,,,,,1.7268518507480621,0.861506500019459,280.44629449999775,None,ScrollUp,정답입니다,280.44629449999775,None,280.44629449999775,None,280.44629449999775,None,280.44629449999775,None,281.2061624999915,None,281.2061624999915,281.70868279997376,,,,,,,,,,,,,,,,022,2022-05-18_13h57.08.007,FishGame,2022.1.1,59.986311120826585,
,28,넌 감성적이야,3,Orange,B,4.125,4.166666666666667,ScrollUp,ScrollDown,Orange.png,2,Neutral,Neutral,,,,,0,0,0,0,,,,,,,,,,,,,,,,,0,27,27,27,,,,,,,,,,,,,,,,,,,,,,,,,,,,,,,,,,,,,,,,,,,,,,,,,,,,,,,,,,,,,,,,,,,,,,,,,,,,,1.654320982595285,0.7653886000043713,282.3272158999753,None,ScrollUp,정답입니다,282.3272158999753,None,282.3272158999753,None,282.3272158999753,None,282.3272158999753,None,282.9919799999916,None,282.9919799999916,283.49197939998703,,,,,,,,,,,,,,,,022,2022-05-18_13h57.08.007,FishGame,2022.1.1,59.986311120826585,
,29,넌 배려심있어,1,Green,A,6.083333333333333,5.5,ScrollDown,ScrollUp,Green.png,2,Positive,Congruent,,,,,0,0,0,0,,,,,,,,,,,,,,,,,0,28,28,28,,,,,,,,,,,,,,,,,,,,,,,,,,,,,,,,,,,,,,,,,,,,,,,,,,,,,,,,,,,,,,,,,,,,,,,,,,,,,1.1666666616996129,0.9631854000035673,284.1301155999827,None,ScrollDown,정답입니다,284.1301155999827,None,284.1301155999827,None,284.1301155999827,None,284.1301155999827,None,284.98966789999395,None,284.98966789999395,285.49188599997433,,,,,,,,,,,,,,,,022,2022-05-18_13h57.08.007,FishGame,2022.1.1,59.986311120826585,
,30,넌 숨김없어,3,Green,A,4.5,4.933333333333334,ScrollDown,ScrollUp,Green.png,2,Neutral,Neutral,,,,,0,0,0,0,,,,,,,,,,,,,,,,,0,29,29,29,,,,,,,,,,,,,,,,,,,,,,,,,,,,,,,,,,,,,,,,,,,,,,,,,,,,,,,,,,,,,,,,,,,,,,,,,,,,,1.126543199022611,0.8760725999891292,286.11579229999916,None,ScrollDown,정답입니다,286.11579229999916,None,286.11579229999916,None,286.11579229999916,None,286.11579229999916,None,286.8918094999972,None,286.8918094999972,287.4084260999807,,,,,,,,,,,,,,,,022,2022-05-18_13h57.08.007,FishGame,2022.1.1,59.986311120826585,
,31,넌 훌륭해,2,Orange,B,5.916666666666667,4.033333333333333,ScrollUp,ScrollDown,Orange.png,2,Positive,Incongruent,,,,,0,0,0,0,,,,,,,,,,,,,,,,,0,30,30,30,,,,,,,,,,,,,,,,,,,,,,,,,,,,,,,,,,,,,,,,,,,,,,,,,,,,,,,,,,,,,,,,,,,,,,,,,,,,,1.7376543233791986,0.8593998000142165,288.02107029999024,None,ScrollUp,정답입니다,288.02107029999024,None,288.02107029999024,None,288.02107029999024,None,288.02107029999024,None,288.77289480000036,None,288.77289480000036,289.27510489997803,,,,,,,,,,,,,,,,022,2022-05-18_13h57.08.007,FishGame,2022.1.1,59.986311120826585,
,32,넌 슬기로워,2,Green,A,6.166666666666667,4.1,ScrollDown,ScrollUp,Green.png,2,Positive,Congruent,,,,,0,0,0,0,,,,,,,,,,,,,,,,,0,31,31,31,,,,,,,,,,,,,,,,,,,,,,,,,,,,,,,,,,,,,,,,,,,,,,,,,,,,,,,,,,,,,,,,,,,,,,,,,,,,,1,0.8927186999935657,289.8970473999798,None,ScrollDown,정답입니다,289.8970473999798,None,289.8970473999798,None,289.8970473999798,None,289.8970473999798,None,290.6894610999734,None,290.6894610999734,291.189553299977,,,,,,,,,,,,,,,,022,2022-05-18_13h57.08.007,FishGame,2022.1.1,59.986311120826585,
,33,넌 냉혹해,5,Green,A,2.583333333333333,2.1,ScrollDown,ScrollUp,Green.png,2,Negative,Incongruent,,,,,0,0,0,0,,,,,,,,,,,,,,,,,0,32,32,32,,,,,,,,,,,,,,,,,,,,,,,,,,,,,,,,,,,,,,,,,,,,,,,,,,,,,,,,,,,,,,,,,,,,,,,,,,,,,1,1.0779858000169042,291.8151834999735,None,ScrollDown,정답입니다,291.8151834999735,None,291.8151834999735,None,291.8151834999735,None,291.8151834999735,None,292.78945929999463,None,292.78945929999463,293.2917089999828,,,,,,,,,,,,,,,,022,2022-05-18_13h57.08.007,FishGame,2022.1.1,59.986311120826585,
,34,나를 데려가줘,6,Orange,B,0,0,ScrollDown,ScrollUp,Orange.png,2,NonTarget,NonTarget,,,,,0,0,0,0,,,,,,,,,,,,,,,,,0,33,33,33,,,,,,,,,,,,,,,,,,,,,,,,,,,,,,,,,,,,,,,,,,,,,,,,,,,,,,,,,,,,,,,,,,,,,,,,,,,,,1.1141975373029709,0.9926447999896482,293.9156649999786,None,ScrollDown,정답입니다,293.9156649999786,None,293.9156649999786,None,293.9156649999786,None,293.9156649999786,None,294.8061241999967,None,294.8061241999967,295.30835899998783,,,,,,,,,,,,,,,,022,2022-05-18_13h57.08.007,FishGame,2022.1.1,59.986311120826585,
,35,넌 편파적이야,5,Orange,B,2.125,2,ScrollUp,ScrollDown,Orange.png,2,Negative,Congruent,,,,,0,0,0,0,,,,,,,,,,,,,,,,,0,34,34,34,,,,,,,,,,,,,,,,,,,,,,,,,,,,,,,,,,,,,,,,,,,,,,,,,,,,,,,,,,,,,,,,,,,,,,,,,,,,,1.9259259502092998,1.0934377000085078,295.9359726999828,None,ScrollUp,정답입니다,295.9359726999828,None,295.9359726999828,None,295.9359726999828,None,295.9359726999828,None,296.92270049999934,None,296.92270049999934,297.42488879998564,,,,,,,,,,,,,,,,022,2022-05-18_13h57.08.007,FishGame,2022.1.1,59.986311120826585,
,36,넌 슬퍼,4,Green,A,2.583333333333333,3.066666666666667,ScrollDown,ScrollUp,Green.png,2,Negative,Incongruent,,,,,0,0,0,0,,,,,,,,,,,,,,,,,0,35,35,35,,,,,,,,,,,,,,,,,,,,,,,,,,,,,,,,,,,,,,,,,,,,,,,,,,,,,,,,,,,,,,,,,,,,,,,,,,,,,1.0524691541989644,0.8441152999876067,298.04271219999646,None,ScrollDown,정답입니다,298.04271219999646,None,298.04271219999646,None,298.04271219999646,None,298.04271219999646,None,298.78937049998785,None,298.78937049998785,299.29159429998253,,,,,,,,,,,,,,,,022,2022-05-18_13h57.08.007,FishGame,2022.1.1,59.986311120826585,
,37,나를 데려가줘,6,Orange,B,0,0,ScrollDown,ScrollUp,Orange.png,2,NonTarget,NonTarget,,,,,0,0,0,0,,,,,,,,,,,,,,,,,0,36,36,36,,,,,,,,,,,,,,,,,,,,,,,,,,,,,,,,,,,,,,,,,,,,,,,,,,,,,,,,,,,,,,,,,,,,,,,,,,,,,1.2191358109315236,0.9108237999898847,299.92014989999007,None,ScrollDown,정답입니다,299.92014989999007,None,299.92014989999007,None,299.92014989999007,None,299.92014989999007,None,300.72234279999975,None,300.72234279999975,301.22243029999663,,,,,,,,,,,,,,,,022,2022-05-18_13h57.08.007,FishGame,2022.1.1,59.986311120826585,
,38,넌 친절해,1,Orange,B,6.041666666666667,5.533333333333333,ScrollUp,ScrollDown,Orange.png,2,Positive,Incongruent,,,,,0,0,0,0,,,,,,,,,,,,,,,,,0,37,37,37,,,,,,,,,,,,,,,,,,,,,,,,,,,,,,,,,,,,,,,,,,,,,,,,,,,,,,,,,,,,,,,,,,,,,,,,,,,,,1.751543199022611,0.861498299986124,301.84936449999805,None,ScrollUp,정답입니다,301.84936449999805,None,301.84936449999805,None,301.84936449999805,None,301.84936449999805,None,302.6057317999948,None,302.6057317999948,303.10836319997907,,,,,,,,,,,,,,,,022,2022-05-18_13h57.08.007,FishGame,2022.1.1,59.986311120826585,
,1,넌 엉성해,4,Green,A,3,3.3,ScrollDown,ScrollUp,Green.png,3,Negative,Incongruent,,,,,0,0,0,0,,,,,,,,,,,,,,,,,,,,,0,0,0,0,,,,,,,,,,,,,,,,,,,,,,,,,,,,,,,,335.2552938000008,336.7575902999961,336.7909464999975,337.7576038999832,337.7909250999801,338.740899299999,338.740899299999,None,,,,,,,,,,,,,,,,,,,,,,,,,,,,,,,,,,1,1.1120616999978665,339.8492426999728,None,ScrollDown,정답입니다,339.8492426999728,None,339.8492426999728,None,339.8492426999728,None,339.8492426999728,None,340.85738909998327,None,340.85738909998327,341.3739973999909,303.6082514000009,None,303.6082514000009,None,-0.24351852,-0.31851852,1,0,0,0.01609052997082472,None,333.607506499975,None,,,022,2022-05-18_13h57.08.007,FishGame,2022.1.1,59.986311120826585,
,2,나를 보내줘,6,Green,A,0,0,ScrollUp,ScrollDown,Green.png,3,NonTarget,NonTarget,,,,,0,0,0,0,,,,,,,,,,,,,,,,,,,,,0,1,1,1,,,,,,,,,,,,,,,,,,,,,,,,,,,,,,,,,,,,,,,,,,,,,,,,,,,,,,,,,,,,,,,,,,,,,,,,,1.9783950746059418,1.209757799981162,341.9812751999998,None,ScrollUp,정답입니다,341.9812751999998,None,341.9812751999998,None,341.9812751999998,None,341.9812751999998,None,343.0884308999812,None,343.0884308999812,343.5906923000002,,,,,,,,,,,,,,,,022,2022-05-18_13h57.08.007,FishGame,2022.1.1,59.986311120826585,
,3,넌 활발해,1,Orange,B,5.666666666666667,5.6,ScrollUp,ScrollDown,Orange.png,3,Positive,Incongruent,,,,,0,0,0,0,,,,,,,,,,,,,,,,,,,,,0,2,2,2,,,,,,,,,,,,,,,,,,,,,,,,,,,,,,,,,,,,,,,,,,,,,,,,,,,,,,,,,,,,,,,,,,,,,,,,,1.6250000049670539,1.0426128999970388,344.2165383999818,None,ScrollUp,정답입니다,344.2165383999818,None,344.2165383999818,None,344.2165383999818,None,344.2165383999818,None,345.1550890999788,None,345.1550890999788,345.6572683999839,,,,,,,,,,,,,,,,022,2022-05-18_13h57.08.007,FishGame,2022.1.1,59.986311120826585,
,4,넌 논리적이야,2,Green,A,5.666666666666666,4.633333333333334,ScrollDown,ScrollUp,Green.png,3,Positive,Congruent,,,,,0,0,0,0,,,,,,,,,,,,,,,,,,,,,0,3,3,3,,,,,,,,,,,,,,,,,,,,,,,,,,,,,,,,,,,,,,,,,,,,,,,,,,,,,,,,,,,,,,,,,,,,,,,,,1.2515432039896646,0.7258968999958597,346.2810442999762,None,ScrollDown,정답입니다,346.2810442999762,None,346.2810442999762,None,346.2810442999762,None,346.2810442999762,None,346.9050018999842,None,346.9050018999842,347.4050660999783,,,,,,,,,,,,,,,,022,2022-05-18_13h57.08.007,FishGame,2022.1.1,59.986311120826585,
,5,넌 과묵해,3,Green,A,3.875,4.4,ScrollDown,ScrollUp,Green.png,3,Neutral,Neutral,,,,,0,0,0,0,,,,,,,,,,,,,,,,,,,,,0,4,4,4,,,,,,,,,,,,,,,,,,,,,,,,,,,,,,,,,,,,,,,,,,,,,,,,,,,,,,,,,,,,,,,,,,,,,,,,,1.1851851791143417,0.8279351999808569,348.0308954999782,None,ScrollDown,정답입니다,348.0308954999782,None,348.0308954999782,None,348.0308954999782,None,348.0308954999782,None,348.75713629997335,None,348.75713629997335,349.2550580999814,,,,,,,,,,,,,,,,022,2022-05-18_13h57.08.007,FishGame,2022.1.1,59.986311120826585,
,6,나를 데려가줘,6,Orange,B,0,0,ScrollDown,ScrollUp,Orange.png,3,NonTarget,NonTarget,,,,,0,0,0,0,,,,,,,,,,,,,,,,,,,,,0,5,5,5,,,,,,,,,,,,,,,,,,,,,,,,,,,,,,,,,,,,,,,,,,,,,,,,,,,,,,,,,,,,,,,,,,,,,,,,,1.0725308855374653,1.1261232999968342,349.88062329997774,None,ScrollDown,정답입니다,349.88062329997774,None,349.88062329997774,None,349.88062329997774,None,349.88062329997774,None,350.9071123999893,None,350.9071123999893,351.4071686999814,,,,,,,,,,,,,,,,022,2022-05-18_13h57.08.007,FishGame,2022.1.1,59.986311120826585,
,7,넌 미숙해,4,Orange,B,3,3,ScrollUp,ScrollDown,Orange.png,3,Negative,Congruent,,,,,0,0,0,0,,,,,,,,,,,,,,,,,,,,,0,6,6,6,,,,,,,,,,,,,,,,,,,,,,,,,,,,,,,,,,,,,,,,,,,,,,,,,,,,,,,,,,,,,,,,,,,,,,,,,1.9243827362855275,0.9596139000204857,352.03218079998624,None,ScrollUp,정답입니다,352.03218079998624,None,352.03218079998624,None,352.03218079998624,None,352.03218079998624,None,352.88826969999354,None,352.88826969999354,353.3903962999757,,,,,,,,,,,,,,,,022,2022-05-18_13h57.08.007,FishGame,2022.1.1,59.986311120826585,
,8,나를 보내줘,6,Green,A,0,0,ScrollUp,ScrollDown,Green.png,3,NonTarget,NonTarget,,,,,0,0,0,0,,,,,,,,,,,,,,,,,,,,,0,7,7,7,,,,,,,,,,,,,,,,,,,,,,,,,,,,,,,,,,,,,,,,,,,,,,,,,,,,,,,,,,,,,,,,,,,,,,,,,1.7222222338120141,0.9443616999778897,354.0082434999931,None,ScrollUp,정답입니다,354.0082434999931,None,354.0082434999931,None,354.0082434999931,None,354.0082434999931,None,354.8548785999883,None,354.8548785999883,355.35707659999025,,,,,,,,,,,,,,,,022,2022-05-18_13h57.08.007,FishGame,2022.1.1,59.986311120826585,
,9,넌 자신만만해,3,Orange,B,4.833333333333334,4.333333333333333,ScrollUp,ScrollDown,Orange.png,3,Neutral,Neutral,,,,,0,0,0,0,,,,,,,,,,,,,,,,,,,,,0,8,8,8,,,,,,,,,,,,,,,,,,,,,,,,,,,,,,,,,,,,,,,,,,,,,,,,,,,,,,,,,,,,,,,,,,,,,,,,,1.723765422900518,0.892722299991874,355.9828939999861,None,ScrollUp,정답입니다,355.9828939999861,None,355.9828939999861,None,355.9828939999861,None,355.9828939999861,None,356.771233699983,None,356.771233699983,357.2712998999923,,,,,,,,,,,,,,,,022,2022-05-18_13h57.08.007,FishGame,2022.1.1,59.986311120826585,
,10,넌 탐욕스러워,5,Green,A,2.25,2.1,ScrollDown,ScrollUp,Green.png,3,Negative,Incongruent,,,,,0,0,0,0,,,,,,,,,,,,,,,,,,,,,0,9,9,9,,,,,,,,,,,,,,,,,,,,,,,,,,,,,,,,,,,,,,,,,,,,,,,,,,,,,,,,,,,,,,,,,,,,,,,,,1,0.9285213999974076,357.89226490000146,None,ScrollDown,정답입니다,357.89226490000146,None,357.89226490000146,None,357.89226490000146,None,357.89226490000146,None,358.72122919998947,None,358.72122919998947,359.2238165999879,,,,,,,,,,,,,,,,022,2022-05-18_13h57.08.007,FishGame,2022.1.1,59.986311120826585,
,11,넌 인기있어,2,Green,A,5.458333333333333,4.5,ScrollDown,ScrollUp,Green.png,3,Positive,Congruent,,,,,0,0,0,0,,,,,,,,,,,,,,,,,,,,,0,10,10,10,,,,,,,,,,,,,,,,,,,,,,,,,,,,,,,,,,,,,,,,,,,,,,,,,,,,,,,,,,,,,,,,,,,,,,,,,1.1959876517454784,0.8778373000095598,359.8416187999828,None,ScrollDown,정답입니다,359.8416187999828,None,359.8416187999828,None,359.8416187999828,None,359.8416187999828,None,360.62372019997565,None,360.62372019997565,361.1237099999853,,,,,,,,,,,,,,,,022,2022-05-18_13h57.08.007,FishGame,2022.1.1,59.986311120826585,
,12,나를 데려가줘,6,Orange,B,0,0,ScrollDown,ScrollUp,Orange.png,3,NonTarget,NonTarget,,,,,0,0,0,0,,,,,,,,,,,,,,,,,,,,,0,11,11,11,,,,,,,,,,,,,,,,,,,,,,,,,,,,,,,,,,,,,,,,,,,,,,,,,,,,,,,,,,,,,,,,,,,,,,,,,1.0416666567325592,0.959090800024569,361.74693809999735,None,ScrollDown,정답입니다,361.74693809999735,None,361.74693809999735,None,361.74693809999735,None,361.74693809999735,None,362.60473049999564,None,362.60473049999564,363.10695729998406,,,,,,,,,,,,,,,,022,2022-05-18_13h57.08.007,FishGame,2022.1.1,59.986311120826585,
,13,넌 뛰어나,2,Orange,B,6.166666666666667,4,ScrollUp,ScrollDown,Orange.png,3,Positive,Incongruent,,,,,0,0,0,0,,,,,,,,,,,,,,,,,,,,,0,12,12,12,,,,,,,,,,,,,,,,,,,,,,,,,,,,,,,,,,,,,,,,,,,,,,,,,,,,,,,,,,,,,,,,,,,,,,,,,1.9367283980051677,0.8259417999943253,363.73074909998104,None,ScrollUp,정답입니다,363.73074909998104,None,363.73074909998104,None,363.73074909998104,None,363.73074909998104,None,364.4546248999832,None,364.4546248999832,364.95466039999155,,,,,,,,,,,,,,,,022,2022-05-18_13h57.08.007,FishGame,2022.1.1,59.986311120826585,
,14,넌 낙관적이야,1,Green,A,5.75,5.8,ScrollDown,ScrollUp,Green.png,3,Positive,Congruent,,,,,0,0,0,0,,,,,,,,,,,,,,,,,,,,,0,13,13,13,,,,,,,,,,,,,,,,,,,,,,,,,,,,,,,,,,,,,,,,,,,,,,,,,,,,,,,,,,,,,,,,,,,,,,,,,1.140432099501292,0.8430259000160731,365.5829126999888,None,ScrollDown,정답입니다,365.5829126999888,None,365.5829126999888,None,365.5829126999888,None,365.5829126999888,None,366.321312199987,None,366.321312199987,366.82359479999286,,,,,,,,,,,,,,,,022,2022-05-18_13h57.08.007,FishGame,2022.1.1,59.986311120826585,
,15,넌 산만해,4,Orange,B,2.695652173913043,3.033333333333333,ScrollUp,ScrollDown,Orange.png,3,Negative,Congruent,,,,,0,0,0,0,,,,,,,,,,,,,,,,,,,,,0,14,14,14,,,,,,,,,,,,,,,,,,,,,,,,,,,,,,,,,,,,,,,,,,,,,,,,,,,,,,,,,,,,,,,,,,,,,,,,,1.7962963034709294,0.7924628999899141,367.4486725999741,None,ScrollUp,정답입니다,367.4486725999741,None,367.4486725999741,None,367.4486725999741,None,367.4486725999741,None,368.1378728999989,None,368.1378728999989,368.6379386999761,,,,,,,,,,,,,,,,022,2022-05-18_13h57.08.007,FishGame,2022.1.1,59.986311120826585,
,16,나를 보내줘,6,Green,A,0,0,ScrollUp,ScrollDown,Green.png,3,NonTarget,NonTarget,,,,,0,0,0,0,,,,,,,,,,,,,,,,,,,,,0,15,15,15,,,,,,,,,,,,,,,,,,,,,,,,,,,,,,,,,,,,,,,,,,,,,,,,,,,,,,,,,,,,,,,,,,,,,,,,,1.785493830839793,1.0092428000061773,369.26039389998186,None,ScrollUp,정답입니다,369.26039389998186,None,369.26039389998186,None,369.26039389998186,None,369.26039389998186,None,370.1712059999991,None,370.1712059999991,370.6733660999744,,,,,,,,,,,,,,,,022,2022-05-18_13h57.08.007,FishGame,2022.1.1,59.986311120826585,
,17,넌 교활해,5,Orange,B,2.333333333333333,2.133333333333333,ScrollUp,ScrollDown,Orange.png,3,Negative,Congruent,,,,,0,0,0,0,,,,,,,,,,,,,,,,,,,,,0,16,16,16,,,,,,,,,,,,,,,,,,,,,,,,,,,,,,,,,,,,,,,,,,,,,,,,,,,,,,,,,,,,,,,,,,,,,,,,,1.7268518507480621,0.8594214000040665,371.3004122999846,None,ScrollUp,정답입니다,371.3004122999846,None,371.3004122999846,None,371.3004122999846,None,371.3004122999846,None,372.0567634999752,None,372.0567634999752,372.55671319999965,,,,,,,,,,,,,,,,022,2022-05-18_13h57.08.007,FishGame,2022.1.1,59.986311120826585,
,18,나를 보내줘,6,Green,A,0,0,ScrollUp,ScrollDown,Green.png,3,NonTarget,NonTarget,,,,,0,0,0,0,,,,,,,,,,,,,,,,,,,,,0,17,17,17,,,,,,,,,,,,,,,,,,,,,,,,,,,,,,,,,,,,,,,,,,,,,,,,,,,,,,,,,,,,,,,,,,,,,,,,,1.787037044763565,0.909147700003814,373.1808742999856,None,ScrollUp,정답입니다,373.1808742999856,None,373.1808742999856,None,373.1808742999856,None,373.1808742999856,None,373.9875471999985,None,373.9875471999985,374.4876150999917,,,,,,,,,,,,,,,,022,2022-05-18_13h57.08.007,FishGame,2022.1.1,59.986311120826585,
,19,넌 불친절해,5,Orange,B,2.208333333333333,2.033333333333333,ScrollUp,ScrollDown,Orange.png,3,Negative,Congruent,,,,,0,0,0,0,,,,,,,,,,,,,,,,,,,,,0,18,18,18,,,,,,,,,,,,,,,,,,,,,,,,,,,,,,,,,,,,,,,,,,,,,,,,,,,,,,,,,,,,,,,,,,,,,,,,,1.766975313425064,0.8949988000094891,375.11160219999147,None,ScrollUp,정답입니다,375.11160219999147,None,375.11160219999147,None,375.11160219999147,None,375.11160219999147,None,375.9042160999961,None,375.9042160999961,376.4067492999893,,,,,,,,,,,,,,,,022,2022-05-18_13h57.08.007,FishGame,2022.1.1,59.986311120826585,
,20,넌 지적이야,2,Orange,B,5.75,4.366666666666666,ScrollUp,ScrollDown,Orange.png,3,Positive,Incongruent,,,,,0,0,0,0,,,,,,,,,,,,,,,,,,,,,0,19,19,19,,,,,,,,,,,,,,,,,,,,,,,,,,,,,,,,,,,,,,,,,,,,,,,,,,,,,,,,,,,,,,,,,,,,,,,,,1.7623456716537476,0.8301865000103135,377.0283858999901,None,ScrollUp,정답입니다,377.0283858999901,None,377.0283858999901,None,377.0283858999901,None,377.0283858999901,None,377.75670499997796,None,377.75670499997796,378.25986739998916,,,,,,,,,,,,,,,,022,2022-05-18_13h57.08.007,FishGame,2022.1.1,59.986311120826585,
,21,넌 우유부단해,4,Green,A,2.666666666666667,3.166666666666667,ScrollDown,ScrollUp,Green.png,3,Negative,Incongruent,,,,,0,0,0,0,,,,,,,,,,,,,,,,,,,,,0,20,20,20,,,,,,,,,,,,,,,,,,,,,,,,,,,,,,,,,,,,,,,,,,,,,,,,,,,,,,,,,,,,,,,,,,,,,,,,,1.1666666616996129,0.8591582999797538,378.88217299999087,None,ScrollDown,정답입니다,378.88217299999087,None,378.88217299999087,None,378.88217299999087,None,378.88217299999087,None,379.63770199997816,None,379.63770199997816,380.13987429998815,,,,,,,,,,,,,,,,022,2022-05-18_13h57.08.007,FishGame,2022.1.1,59.986311120826585,
,22,나를 데려가줘,6,Orange,B,0,0,ScrollDown,ScrollUp,Orange.png,3,NonTarget,NonTarget,,,,,0,0,0,0,,,,,,,,,,,,,,,,,,,,,0,21,21,21,,,,,,,,,,,,,,,,,,,,,,,,,,,,,,,,,,,,,,,,,,,,,,,,,,,,,,,,,,,,,,,,,,,,,,,,,1.212962955236435,0.9091499000205658,380.7652914999926,None,ScrollDown,정답입니다,380.7652914999926,None,380.7652914999926,None,380.7652914999926,None,380.7652914999926,None,381.5709955999919,None,381.5709955999919,382.0710208999808,,,,,,,,,,,,,,,,022,2022-05-18_13h57.08.007,FishGame,2022.1.1,59.986311120826585,
,23,넌 성실해,1,Orange,B,6.041666666666666,5.7,ScrollUp,ScrollDown,Orange.png,3,Positive,Incongruent,,,,,0,0,0,0,,,,,,,,,,,,,,,,,,,,,0,22,22,22,,,,,,,,,,,,,,,,,,,,,,,,,,,,,,,,,,,,,,,,,,,,,,,,,,,,,,,,,,,,,,,,,,,,,,,,,1.9490740597248077,0.9281207000021823,382.7034781999828,None,ScrollUp,정답입니다,382.7034781999828,None,382.7034781999828,None,382.7034781999828,None,382.7034781999828,None,383.52096319998964,None,383.52096319998964,384.02315669998643,,,,,,,,,,,,,,,,022,2022-05-18_13h57.08.007,FishGame,2022.1.1,59.986311120826585,
,24,넌 현실주의적이야,3,Green,A,4.625,4.4,ScrollDown,ScrollUp,Green.png,3,Neutral,Neutral,,,,,0,0,0,0,,,,,,,,,,,,,,,,,,,,,0,23,23,23,,,,,,,,,,,,,,,,,,,,,,,,,,,,,,,,,,,,,,,,,,,,,,,,,,,,,,,,,,,,,,,,,,,,,,,,,1.0092592636744182,0.9273003999842331,384.6473044999875,None,ScrollDown,정답입니다,384.6473044999875,None,384.6473044999875,None,384.6473044999875,None,384.6473044999875,None,385.47062199999345,None,385.47062199999345,385.9707079999789,,,,,,,,,,,,,,,,022,2022-05-18_13h57.08.007,FishGame,2022.1.1,59.986311120826585,
,25,넌 진실돼,1,Green,A,6.625,5.566666666666666,ScrollDown,ScrollUp,Green.png,3,Positive,Congruent,,,,,0,0,0,0,,,,,,,,,,,,,,,,,,,,,0,24,24,24,,,,,,,,,,,,,,,,,,,,,,,,,,,,,,,,,,,,,,,,,,,,,,,,,,,,,,,,,,,,,,,,,,,,,,,,,1.3179012288649878,0.7779104000073858,386.59447969999746,None,ScrollDown,정답입니다,386.59447969999746,None,386.59447969999746,None,386.59447969999746,None,386.59447969999746,None,387.2706967999984,None,387.2706967999984,387.7732495999953,,,,,,,,,,,,,,,,022,2022-05-18_13h57.08.007,FishGame,2022.1.1,59.986311120826585,
,26,넌 천진난만해,3,Orange,B,4.958333333333334,4.833333333333333,ScrollUp,ScrollDown,Orange.png,3,Neutral,Neutral,,,,,0,0,0,0,,,,,,,,,,,,,,,,,,,,,0,25,25,25,,,,,,,,,,,,,,,,,,,,,,,,,,,,,,,,,,,,,,,,,,,,,,,,,,,,,,,,,,,,,,,,,,,,,,,,,2,0.8610680999991018,388.4002777999849,None,ScrollUp,정답입니다,388.4002777999849,None,388.4002777999849,None,388.4002777999849,None,388.4002777999849,None,389.15649389999453,None,389.15649389999453,389.6564977999951,,,,,,,,,,,,,,,,022,2022-05-18_13h57.08.007,FishGame,2022.1.1,59.986311120826585,
,27,넌 교양없어,5,Green,A,2.416666666666667,2.2,ScrollDown,ScrollUp,Green.png,3,Negative,Incongruent,,,,,0,0,0,0,,,,,,,,,,,,,,,,,,,,,0,26,26,26,,,,,,,,,,,,,,,,,,,,,,,,,,,,,,,,,,,,,,,,,,,,,,,,,,,,,,,,,,,,,,,,,,,,,,,,,1.0308642089366913,0.8260275000066031,390.2785232999886,None,ScrollDown,정답입니다,390.2785232999886,None,390.2785232999886,None,390.2785232999886,None,390.2785232999886,None,391.00637949997326,None,391.00637949997326,391.5063377999759,,,,,,,,,,,,,,,,022,2022-05-18_13h57.08.007,FishGame,2022.1.1,59.986311120826585,
,28,나를 보내줘,6,Green,A,0,0,ScrollUp,ScrollDown,Green.png,3,NonTarget,NonTarget,,,,,0,0,0,0,,,,,,,,,,,,,,,,,,,,,0,27,27,27,,,,,,,,,,,,,,,,,,,,,,,,,,,,,,,,,,,,,,,,,,,,,,,,,,,,,,,,,,,,,,,,,,,,,,,,,1.9089506218830745,0.92811890001758,392.1446023999888,None,ScrollUp,정답입니다,392.1446023999888,None,392.1446023999888,None,392.1446023999888,None,392.1446023999888,None,392.9707168999885,None,392.9707168999885,393.4707778999873,,,,,,,,,,,,,,,,022,2022-05-18_13h57.08.007,FishGame,2022.1.1,59.986311120826585,
,29,넌 엉뚱스러워,3,Green,A,4.166666666666667,4.133333333333334,ScrollDown,ScrollUp,Green.png,3,Neutral,Neutral,,,,,0,0,0,0,,,,,,,,,,,,,,,,,,,,,0,28,28,28,,,,,,,,,,,,,,,,,,,,,,,,,,,,,,,,,,,,,,,,,,,,,,,,,,,,,,,,,,,,,,,,,,,,,,,,,1.1558641890684764,0.9426397999923211,394.09857740000007,None,ScrollDown,정답입니다,394.09857740000007,None,394.09857740000007,None,394.09857740000007,None,394.09857740000007,None,394.93963559999247,None,394.93963559999247,395.4396214999724,,,,,,,,,,,,,,,,022,2022-05-18_13h57.08.007,FishGame,2022.1.1,59.986311120826585,
,30,넌 무지해,4,Orange,B,2.541666666666667,3.066666666666667,ScrollUp,ScrollDown,Orange.png,3,Negative,Congruent,,,,,0,0,0,0,,,,,,,,,,,,,,,,,,,,,0,29,29,29,,,,,,,,,,,,,,,,,,,,,,,,,,,,,,,,,,,,,,,,,,,,,,,,,,,,,,,,,,,,,,,,,,,,,,,,,1.8981481492519379,0.9587343000166584,396.0634557000012,None,ScrollUp,정답입니다,396.0634557000012,None,396.0634557000012,None,396.0634557000012,None,396.0634557000012,None,396.92041359998984,None,396.92041359998984,397.42047829998774,,,,,,,,,,,,,,,,022,2022-05-18_13h57.08.007,FishGame,2022.1.1,59.986311120826585,
,31,넌 음울해,5,Orange,B,2.25,2.233333333333333,ScrollUp,ScrollDown,Orange.png,3,Negative,Congruent,,,,,0,0,0,0,,,,,,,,,,,,,,,,,,,,,0,30,30,30,,,,,,,,,,,,,,,,,,,,,,,,,,,,,,,,,,,,,,,,,,,,,,,,,,,,,,,,,,,,,,,,,,,,,,,,,1.8287036965290706,0.8447141000069678,398.0458335999865,None,ScrollUp,정답입니다,398.0458335999865,None,398.0458335999865,None,398.0458335999865,None,398.0458335999865,None,398.78706809997675,None,398.78706809997675,399.28963569999905,,,,,,,,,,,,,,,,022,2022-05-18_13h57.08.007,FishGame,2022.1.1,59.986311120826585,
,32,넌 냉소적이야,5,Green,A,2.916666666666667,2.4,ScrollDown,ScrollUp,Green.png,3,Negative,Incongruent,,,,,0,0,0,0,,,,,,,,,,,,,,,,,,,,,0,31,31,31,,,,,,,,,,,,,,,,,,,,,,,,,,,,,,,,,,,,,,,,,,,,,,,,,,,,,,,,,,,,,,,,,,,,,,,,,1.1280864129463832,0.8444409999938216,399.9074978999852,None,ScrollDown,정답입니다,399.9074978999852,None,399.9074978999852,None,399.9074978999852,None,399.9074978999852,None,400.6562439999834,None,400.6562439999834,401.15621779998764,,,,,,,,,,,,,,,,022,2022-05-18_13h57.08.007,FishGame,2022.1.1,59.986311120826585,
,33,나를 데려가줘,6,Orange,B,0,0,ScrollDown,ScrollUp,Orange.png,3,NonTarget,NonTarget,,,,,0,0,0,0,,,,,,,,,,,,,,,,,,,,,0,32,32,32,,,,,,,,,,,,,,,,,,,,,,,,,,,,,,,,,,,,,,,,,,,,,,,,,,,,,,,,,,,,,,,,,,,,,,,,,1.0879629751046498,0.8926568999886513,401.78041729997494,None,ScrollDown,정답입니다,401.78041729997494,None,401.78041729997494,None,401.78041729997494,None,401.78041729997494,None,402.5705683999986,None,402.5705683999986,403.0728474999778,,,,,,,,,,,,,,,,022,2022-05-18_13h57.08.007,FishGame,2022.1.1,59.986311120826585,
,34,넌 쾌활해,1,Green,A,5.541666666666666,5.733333333333333,ScrollDown,ScrollUp,Green.png,3,Positive,Congruent,,,,,0,0,0,0,,,,,,,,,,,,,,,,,,,,,0,33,33,33,,,,,,,,,,,,,,,,,,,,,,,,,,,,,,,,,,,,,,,,,,,,,,,,,,,,,,,,,,,,,,,,,,,,,,,,,1.0293209950129192,1.4922454000043217,403.7019692999893,None,ScrollDown,정답입니다,403.7019692999893,None,403.7019692999893,None,403.7019692999893,None,403.7019692999893,None,405.08717119999346,None,405.08717119999346,405.5893443999812,,,,,,,,,,,,,,,,022,2022-05-18_13h57.08.007,FishGame,2022.1.1,59.986311120826585,
,35,나를 보내줘,6,Green,A,0,0,ScrollUp,ScrollDown,Green.png,3,NonTarget,NonTarget,,,,,0,0,0,0,,,,,,,,,,,,,,,,,,,,,0,34,34,34,,,,,,,,,,,,,,,,,,,,,,,,,,,,,,,,,,,,,,,,,,,,,,,,,,,,,,,,,,,,,,,,,,,,,,,,,1.858024686574936,1.0262413999880664,406.2126887999766,None,ScrollUp,정답입니다,406.2126887999766,None,406.2126887999766,None,406.2126887999766,None,406.2126887999766,None,407.13687049999135,None,407.13687049999135,407.6369318999932,,,,,,,,,,,,,,,,022,2022-05-18_13h57.08.007,FishGame,2022.1.1,59.986311120826585,
,36,넌 명랑해,1,Orange,B,5.739130434782609,5.666666666666667,ScrollUp,ScrollDown,Orange.png,3,Positive,Incongruent,,,,,0,0,0,0,,,,,,,,,,,,,,,,,,,,,0,35,35,35,,,,,,,,,,,,,,,,,,,,,,,,,,,,,,,,,,,,,,,,,,,,,,,,,,,,,,,,,,,,,,,,,,,,,,,,,1.5833333345750966,0.8282782000023872,408.2632425999909,None,ScrollUp,정답입니다,408.2632425999909,None,408.2632425999909,None,408.2632425999909,None,408.2632425999909,None,408.9868656999897,None,408.9868656999897,409.4894218999834,,,,,,,,,,,,,,,,022,2022-05-18_13h57.08.007,FishGame,2022.1.1,59.986311120826585,
,37,넌 멍해,4,Green,A,2.833333333333333,3.4,ScrollDown,ScrollUp,Green.png,3,Negative,Incongruent,,,,,0,0,0,0,,,,,,,,,,,,,,,,,,,,,0,36,36,36,,,,,,,,,,,,,,,,,,,,,,,,,,,,,,,,,,,,,,,,,,,,,,,,,,,,,,,,,,,,,,,,,,,,,,,,,1.080246905485789,0.8610984000260942,410.10903519997373,None,ScrollDown,정답입니다,410.10903519997373,None,410.10903519997373,None,410.10903519997373,None,410.10903519997373,None,410.87273549998645,None,410.87273549998645,411.37274949997663,,,,,,,,,,,,,,,,022,2022-05-18_13h57.08.007,FishGame,2022.1.1,59.986311120826585,
,38,나를 데려가줘,6,Orange,B,0,0,ScrollDown,ScrollUp,Orange.png,3,NonTarget,NonTarget,,,,,0,0,0,0,,,,,,,,,,,,,,,,,,,,,0,37,37,37,,,,,,,,,,,,,,,,,,,,,,,,,,,,,,,,,,,,,,,,,,,,,,,,,,,,,,,,,,,,,,,,,,,,,,,,,1.0308642089366913,0.9937388999969698,411.9954319999961,None,ScrollDown,정답입니다,411.9954319999961,None,411.9954319999961,None,411.9954319999961,None,411.9954319999961,None,412.88920779997716,None,412.88920779997716,413.3892151999753,,,,,,,,,,,,,,,,022,2022-05-18_13h57.08.007,FishGame,2022.1.1,59.986311120826585,
,39,넌 현명해,2,Green,A,6.541666666666666,4.533333333333333,ScrollDown,ScrollUp,Green.png,3,Positive,Congruent,,,,,0,0,0,0,,,,,,,,,,,,,,,,,,,,,0,38,38,38,,,,,,,,,,,,,,,,,,,,,,,,,,,,,,,,,,,,,,,,,,,,,,,,,,,,,,,,,,,,,,,,,,,,,,,,,1.1435185273488362,0.7769335999910254,414.0069721999753,None,ScrollDown,정답입니다,414.0069721999753,None,414.0069721999753,None,414.0069721999753,None,414.0069721999753,None,414.6891674999788,None,414.6891674999788,415.2057815999724,,,,,,,,,,,,,,,,022,2022-05-18_13h57.08.007,FishGame,2022.1.1,59.986311120826585,
,40,넌 수줍어,3,Orange,B,3.541666666666666,4.366666666666666,ScrollUp,ScrollDown,Orange.png,3,Neutral,Neutral,,,,,0,0,0,0,,,,,,,,,,,,,,,,,,,,,0,39,39,39,,,,,,,,,,,,,,,,,,,,,,,,,,,,,,,,,,,,,,,,,,,,,,,,,,,,,,,,,,,,,,,,,,,,,,,,,1.6898148159186044,0.7776617000054102,415.82749329999206,None,ScrollUp,정답입니다,415.82749329999206,None,415.82749329999206,None,415.82749329999206,None,415.82749329999206,None,416.5057100999984,None,416.5057100999984,417.00574439999764,,,,,,,,,,,,,,,,022,2022-05-18_13h57.08.007,FishGame,2022.1.1,59.986311120826585,
,41,나를 데려가줘,6,Orange,B,0,0,ScrollDown,ScrollUp,Orange.png,3,NonTarget,NonTarget,,,,,0,0,0,0,,,,,,,,,,,,,,,,,,,,,0,40,40,40,,,,,,,,,,,,,,,,,,,,,,,,,,,,,,,,,,,,,,,,,,,,,,,,,,,,,,,,,,,,,,,,,,,,,,,,,1.1358024577299755,0.9111278000054881,417.6258451999747,None,ScrollDown,정답입니다,417.6258451999747,None,417.6258451999747,None,417.6258451999747,None,417.6258451999747,None,418.43697669997346,None,418.43697669997346,418.9391270999913,,,,,,,,,,,,,,,,022,2022-05-18_13h57.08.007,FishGame,2022.1.1,59.986311120826585,
,42,넌 성숙해,2,Orange,B,5.833333333333333,4.533333333333333,ScrollUp,ScrollDown,Orange.png,3,Positive,Incongruent,,,,,0,0,0,0,,,,,,,,,,,,,,,,,,,,,0,41,41,41,,,,,,,,,,,,,,,,,,,,,,,,,,,,,,,,,,,,,,,,,,,,,,,,,,,,,,,,,,,,,,,,,,,,,,,,,1.939814825852712,0.9268924999923911,419.5640176999732,None,ScrollUp,정답입니다,419.5640176999732,None,419.5640176999732,None,419.5640176999732,None,419.5640176999732,None,420.3865850000002,None,420.3865850000002,420.88666509999894,,,,,,,,,,,,,,,,022,2022-05-18_13h57.08.007,FishGame,2022.1.1,59.986311120826585,
,1,넌 매력적이야,2,Orange,B,6.125,4.666666666666667,ScrollUp,ScrollDown,Orange.png,4,Positive,Incongruent,,,,,0,0,0,0,,,,,,,,,,,,,,,,,,,,,,,,,0,0,0,0,,,,,,,,,,,,,,,,,,,,,,,,,,,,453.4862457999843,454.9886040999845,455.02188679997926,455.9718047999777,456.01947729999665,456.97181859999546,456.97181859999546,None,,,,,,,,,,,,,,,,,,,,,,,,,,,,,,,,,,1.7700617164373398,1.059783199976664,458.0985984999861,None,ScrollUp,정답입니다,458.0985984999861,None,458.0985984999861,None,458.0985984999861,None,458.0985984999861,None,459.05274949999875,None,459.05274949999875,459.55496989999665,421.38665129998117,None,421.38665129998117,None,-0.20185184,-0.20925926,1,0,0,0.016007030004402623,None,451.38830099999905,None,,,022,2022-05-18_13h57.08.007,FishGame,2022.1.1,59.986311120826585,
,2,나를 보내줘,6,Green,A,0,0,ScrollUp,ScrollDown,Green.png,4,NonTarget,NonTarget,,,,,0,0,0,0,,,,,,,,,,,,,,,,,,,,,,,,,0,1,1,1,,,,,,,,,,,,,,,,,,,,,,,,,,,,,,,,,,,,,,,,,,,,,,,,,,,,,,,,,,,,,,,,,,,,,1.5833333345750966,1.0112763999786694,460.1739719999896,None,ScrollUp,정답입니다,460.1739719999896,None,460.1739719999896,None,460.1739719999896,None,460.1739719999896,None,461.08597329998156,None,461.08597329998156,461.586055199994,,,,,,,,,,,,,,,,022,2022-05-18_13h57.08.007,FishGame,2022.1.1,59.986311120826585,
,3,넌 조심스러워,3,Green,A,4.791666666666666,4.666666666666667,ScrollDown,ScrollUp,Green.png,4,Neutral,Neutral,,,,,0,0,0,0,,,,,,,,,,,,,,,,,,,,,,,,,0,2,2,2,,,,,,,,,,,,,,,,,,,,,,,,,,,,,,,,,,,,,,,,,,,,,,,,,,,,,,,,,,,,,,,,,,,,,1.0864197611808777,0.9588710999814793,462.2117048999935,None,ScrollDown,정답입니다,462.2117048999935,None,462.2117048999935,None,462.2117048999935,None,462.2117048999935,None,463.0693279999832,None,463.0693279999832,463.57154179998906,,,,,,,,,,,,,,,,022,2022-05-18_13h57.08.007,FishGame,2022.1.1,59.986311120826585,
,4,넌 철학적이야,3,Orange,B,4.5,4.266666666666667,ScrollUp,ScrollDown,Orange.png,4,Neutral,Neutral,,,,,0,0,0,0,,,,,,,,,,,,,,,,,,,,,,,,,0,3,3,3,,,,,,,,,,,,,,,,,,,,,,,,,,,,,,,,,,,,,,,,,,,,,,,,,,,,,,,,,,,,,,,,,,,,,1.8765432039896648,0.7757874999952037,464.20131019997643,None,ScrollUp,정답입니다,464.20131019997643,None,464.20131019997643,None,464.20131019997643,None,464.20131019997643,None,464.86923909999314,None,464.86923909999314,465.3713922999741,,,,,,,,,,,,,,,,022,2022-05-18_13h57.08.007,FishGame,2022.1.1,59.986311120826585,
,5,넌 쩨쩨해,5,Green,A,2.375,2.133333333333333,ScrollDown,ScrollUp,Green.png,4,Negative,Incongruent,,,,,0,0,0,0,,,,,,,,,,,,,,,,,,,,,,,,,0,4,4,4,,,,,,,,,,,,,,,,,,,,,,,,,,,,,,,,,,,,,,,,,,,,,,,,,,,,,,,,,,,,,,,,,,,,,1.0725308855374653,0.7281460999802221,466.00072399998317,None,ScrollDown,정답입니다,466.00072399998317,None,466.00072399998317,None,466.00072399998317,None,466.00072399998317,None,466.6192065999785,None,466.6192065999785,467.12145009997766,,,,,,,,,,,,,,,,022,2022-05-18_13h57.08.007,FishGame,2022.1.1,59.986311120826585,
,6,나를 데려가줘,6,Orange,B,0,0,ScrollDown,ScrollUp,Orange.png,4,NonTarget,NonTarget,,,,,0,0,0,0,,,,,,,,,,,,,,,,,,,,,,,,,0,5,5,5,,,,,,,,,,,,,,,,,,,,,,,,,,,,,,,,,,,,,,,,,,,,,,,,,,,,,,,,,,,,,,,,,,,,,1.0246913532416027,1.1256554999854416,467.74743329998455,None,ScrollDown,정답입니다,467.74743329998455,None,467.74743329998455,None,467.74743329998455,None,467.74743329998455,None,468.7713771999988,None,468.7713771999988,469.2714093999821,,,,,,,,,,,,,,,,022,2022-05-18_13h57.08.007,FishGame,2022.1.1,59.986311120826585,
,7,넌 고집불통이야,5,Orange,B,2.875,2,ScrollUp,ScrollDown,Orange.png,4,Negative,Congruent,,,,,0,0,0,0,,,,,,,,,,,,,,,,,,,,,,,,,0,6,6,6,,,,,,,,,,,,,,,,,,,,,,,,,,,,,,,,,,,,,,,,,,,,,,,,,,,,,,,,,,,,,,,,,,,,,1.9074074079593022,0.7758341000007931,469.89985389998765,None,ScrollUp,정답입니다,469.89985389998765,None,469.89985389998765,None,469.89985389998765,None,469.89985389998765,None,470.56911109999055,None,470.56911109999055,471.07128730000113,,,,,,,,,,,,,,,,022,2022-05-18_13h57.08.007,FishGame,2022.1.1,59.986311120826585,
,8,넌 무심해,4,Green,A,2.875,3.2,ScrollDown,ScrollUp,Green.png,4,Negative,Incongruent,,,,,0,0,0,0,,,,,,,,,,,,,,,,,,,,,,,,,0,7,7,7,,,,,,,,,,,,,,,,,,,,,,,,,,,,,,,,,,,,,,,,,,,,,,,,,,,,,,,,,,,,,,,,,,,,,1.1543209999799728,0.8114852999860886,471.69187650000094,None,ScrollDown,정답입니다,471.69187650000094,None,471.69187650000094,None,471.69187650000094,None,471.69187650000094,None,472.4046638,None,472.4046638,472.90462219997426,,,,,,,,,,,,,,,,022,2022-05-18_13h57.08.007,FishGame,2022.1.1,59.986311120826585,
,9,넌 정겨워,1,Green,A,5.791666666666667,5.666666666666667,ScrollDown,ScrollUp,Green.png,4,Positive,Congruent,,,,,0,0,0,0,,,,,,,,,,,,,,,,,,,,,,,,,0,8,8,8,,,,,,,,,,,,,,,,,,,,,,,,,,,,,,,,,,,,,,,,,,,,,,,,,,,,,,,,,,,,,,,,,,,,,1.1774691343307495,0.7427381000015885,473.5280578999955,None,ScrollDown,정답입니다,473.5280578999955,None,473.5280578999955,None,473.5280578999955,None,473.5280578999955,None,474.16909049998503,None,474.16909049998503,474.6691499000008,,,,,,,,,,,,,,,,022,2022-05-18_13h57.08.007,FishGame,2022.1.1,59.986311120826585,
,10,나를 데려가줘,6,Orange,B,0,0,ScrollDown,ScrollUp,Orange.png,4,NonTarget,NonTarget,,,,,0,0,0,0,,,,,,,,,,,,,,,,,,,,,,,,,0,9,9,9,,,,,,,,,,,,,,,,,,,,,,,,,,,,,,,,,,,,,,,,,,,,,,,,,,,,,,,,,,,,,,,,,,,,,1.1496913582086563,0.9423069000185933,475.29946599999676,None,ScrollDown,정답입니다,475.29946599999676,None,475.29946599999676,None,475.29946599999676,None,475.29946599999676,None,476.13568039998063,None,476.13568039998063,476.6378668999823,,,,,,,,,,,,,,,,022,2022-05-18_13h57.08.007,FishGame,2022.1.1,59.986311120826585,
,11,넌 체제순응적이야,4,Orange,B,3,3.6,ScrollUp,ScrollDown,Orange.png,4,Negative,Congruent,,,,,0,0,0,0,,,,,,,,,,,,,,,,,,,,,,,,,0,10,10,10,,,,,,,,,,,,,,,,,,,,,,,,,,,,,,,,,,,,,,,,,,,,,,,,,,,,,,,,,,,,,,,,,,,,,1.9413580397764842,0.942663200024981,477.27148809999926,None,ScrollUp,정답입니다,477.27148809999926,None,477.27148809999926,None,477.27148809999926,None,477.27148809999926,None,478.1023458999989,None,478.1023458999989,478.6045370999782,,,,,,,,,,,,,,,,022,2022-05-18_13h57.08.007,FishGame,2022.1.1,59.986311120826585,
,12,나를 보내줘,6,Green,A,0,0,ScrollUp,ScrollDown,Green.png,4,NonTarget,NonTarget,,,,,0,0,0,0,,,,,,,,,,,,,,,,,,,,,,,,,0,11,11,11,,,,,,,,,,,,,,,,,,,,,,,,,,,,,,,,,,,,,,,,,,,,,,,,,,,,,,,,,,,,,,,,,,,,,1.807098776102066,1.026191100012511,479.22416239997256,None,ScrollUp,정답입니다,479.22416239997256,None,479.22416239997256,None,479.22416239997256,None,479.22416239997256,None,480.15233199999784,None,480.15233199999784,480.65768679999746,,,,,,,,,,,,,,,,022,2022-05-18_13h57.08.007,FishGame,2022.1.1,59.986311120826585,
,13,넌 박식해,2,Green,A,5.625,3.933333333333333,ScrollDown,ScrollUp,Green.png,4,Positive,Congruent,,,,,0,0,0,0,,,,,,,,,,,,,,,,,,,,,,,,,0,12,12,12,,,,,,,,,,,,,,,,,,,,,,,,,,,,,,,,,,,,,,,,,,,,,,,,,,,,,,,,,,,,,,,,,,,,,1.095679019888242,0.8445078000077046,481.27875389999826,None,ScrollDown,정답입니다,481.27875389999826,None,481.27875389999826,None,481.27875389999826,None,481.27875389999826,None,482.01893399999244,None,482.01893399999244,482.5210975999944,,,,,,,,,,,,,,,,022,2022-05-18_13h57.08.007,FishGame,2022.1.1,59.986311120826585,
,14,나를 보내줘,6,Green,A,0,0,ScrollUp,ScrollDown,Green.png,4,NonTarget,NonTarget,,,,,0,0,0,0,,,,,,,,,,,,,,,,,,,,,,,,,0,13,13,13,,,,,,,,,,,,,,,,,,,,,,,,,,,,,,,,,,,,,,,,,,,,,,,,,,,,,,,,,,,,,,,,,,,,,1.679012343287468,0.8592836000025272,483.14003449998563,None,ScrollUp,정답입니다,483.14003449998563,None,483.14003449998563,None,483.14003449998563,None,483.14003449998563,None,483.90441989997635,None,483.90441989997635,484.4210922999773,,,,,,,,,,,,,,,,022,2022-05-18_13h57.08.007,FishGame,2022.1.1,59.986311120826585,
,15,넌 침착해,1,Orange,B,5.458333333333333,5.566666666666666,ScrollUp,ScrollDown,Orange.png,4,Positive,Incongruent,,,,,0,0,0,0,,,,,,,,,,,,,,,,,,,,,,,,,0,14,14,14,,,,,,,,,,,,,,,,,,,,,,,,,,,,,,,,,,,,,,,,,,,,,,,,,,,,,,,,,,,,,,,,,,,,,1.7638888855775197,0.842623000004096,485.0402272999927,None,ScrollUp,정답입니다,485.0402272999927,None,485.0402272999927,None,485.0402272999927,None,485.0402272999927,None,485.7685702999879,None,485.7685702999879,486.26864859997295,,,,,,,,,,,,,,,,022,2022-05-18_13h57.08.007,FishGame,2022.1.1,59.986311120826585,
,16,나를 데려가줘,6,Orange,B,0,0,ScrollDown,ScrollUp,Orange.png,4,NonTarget,NonTarget,,,,,0,0,0,0,,,,,,,,,,,,,,,,,,,,,,,,,0,15,15,15,,,,,,,,,,,,,,,,,,,,,,,,,,,,,,,,,,,,,,,,,,,,,,,,,,,,,,,,,,,,,,,,,,,,,1.1064814925193787,0.8115846999862697,486.8896857999789,None,ScrollDown,정답입니다,486.8896857999789,None,486.8896857999789,None,486.8896857999789,None,486.8896857999789,None,487.60191789999953,None,487.60191789999953,488.10458329998073,,,,,,,,,,,,,,,,022,2022-05-18_13h57.08.007,FishGame,2022.1.1,59.986311120826585,
,17,넌 행복해,1,Green,A,6.416666666666666,6.166666666666667,ScrollDown,ScrollUp,Green.png,4,Positive,Congruent,,,,,0,0,0,0,,,,,,,,,,,,,,,,,,,,,,,,,0,16,16,16,,,,,,,,,,,,,,,,,,,,,,,,,,,,,,,,,,,,,,,,,,,,,,,,,,,,,,,,,,,,,,,,,,,,,1.1898148208856583,0.8112854000064544,488.7263218999724,None,ScrollDown,정답입니다,488.7263218999724,None,488.7263218999724,None,488.7263218999724,None,488.7263218999724,None,489.4378267999855,None,489.4378267999855,489.9377591999946,,,,,,,,,,,,,,,,022,2022-05-18_13h57.08.007,FishGame,2022.1.1,59.986311120826585,
,18,넌 겸손해,2,Orange,B,5.791666666666667,4.766666666666667,ScrollUp,ScrollDown,Orange.png,4,Positive,Incongruent,,,,,0,0,0,0,,,,,,,,,,,,,,,,,,,,,,,,,0,17,17,17,,,,,,,,,,,,,,,,,,,,,,,,,,,,,,,,,,,,,,,,,,,,,,,,,,,,,,,,,,,,,,,,,,,,,1.703703703979651,0.875952700007474,490.5665560999769,None,ScrollUp,정답입니다,490.5665560999769,None,490.5665560999769,None,490.5665560999769,None,490.5665560999769,None,491.3375842999958,None,491.3375842999958,491.8542430999805,,,,,,,,,,,,,,,,022,2022-05-18_13h57.08.007,FishGame,2022.1.1,59.986311120826585,
,19,나를 보내줘,6,Green,A,0,0,ScrollUp,ScrollDown,Green.png,4,NonTarget,NonTarget,,,,,0,0,0,0,,,,,,,,,,,,,,,,,,,,,,,,,0,18,18,18,,,,,,,,,,,,,,,,,,,,,,,,,,,,,,,,,,,,,,,,,,,,,,,,,,,,,,,,,,,,,,,,,,,,,1.9166666666666667,1.0593749999825377,492.462593299977,None,ScrollUp,정답입니다,492.462593299977,None,492.462593299977,None,492.462593299977,None,492.462593299977,None,493.4186843999778,None,493.4186843999778,493.9208729999955,,,,,,,,,,,,,,,,022,2022-05-18_13h57.08.007,FishGame,2022.1.1,59.986311120826585,
,20,넌 의심없어,3,Green,A,4.166666666666667,4.6,ScrollDown,ScrollUp,Green.png,4,Neutral,Neutral,,,,,0,0,0,0,,,,,,,,,,,,,,,,,,,,,,,,,0,19,19,19,,,,,,,,,,,,,,,,,,,,,,,,,,,,,,,,,,,,,,,,,,,,,,,,,,,,,,,,,,,,,,,,,,,,,1.2376543283462524,0.7760839999828022,494.5402316999971,None,ScrollDown,정답입니다,494.5402316999971,None,494.5402316999971,None,494.5402316999971,None,494.5402316999971,None,495.22444489999907,None,495.22444489999907,495.73751139998785,,,,,,,,,,,,,,,,022,2022-05-18_13h57.08.007,FishGame,2022.1.1,59.986311120826585,
,21,넌 시시해,4,Green,A,2.666666666666667,2.966666666666667,ScrollDown,ScrollUp,Green.png,4,Negative,Incongruent,,,,,0,0,0,0,,,,,,,,,,,,,,,,,,,,,,,,,0,20,20,20,,,,,,,,,,,,,,,,,,,,,,,,,,,,,,,,,,,,,,,,,,,,,,,,,,,,,,,,,,,,,,,,,,,,,1.121913582086563,0.7781562000163831,496.3544366999995,None,ScrollDown,정답입니다,496.3544366999995,None,496.3544366999995,None,496.3544366999995,None,496.3544366999995,None,497.03525179999997,None,497.03525179999997,497.5374462999753,,,,,,,,,,,,,,,,022,2022-05-18_13h57.08.007,FishGame,2022.1.1,59.986311120826585,
,22,나를 데려가줘,6,Orange,B,0,0,ScrollDown,ScrollUp,Orange.png,4,NonTarget,NonTarget,,,,,0,0,0,0,,,,,,,,,,,,,,,,,,,,,,,,,0,21,21,21,,,,,,,,,,,,,,,,,,,,,,,,,,,,,,,,,,,,,,,,,,,,,,,,,,,,,,,,,,,,,,,,,,,,,1,0.9096854999952484,498.1595791,None,ScrollDown,정답입니다,498.1595791,None,498.1595791,None,498.1595791,None,498.1595791,None,498.97076409999863,None,498.97076409999863,499.47079019999364,,,,,,,,,,,,,,,,022,2022-05-18_13h57.08.007,FishGame,2022.1.1,59.986311120826585,
,23,넌 무정해,5,Green,A,2.5,2.2,ScrollDown,ScrollUp,Green.png,4,Negative,Incongruent,,,,,0,0,0,0,,,,,,,,,,,,,,,,,,,,,,,,,0,22,22,22,,,,,,,,,,,,,,,,,,,,,,,,,,,,,,,,,,,,,,,,,,,,,,,,,,,,,,,,,,,,,,,,,,,,,1.2376543283462524,0.8179464999993797,500.09058409999125,None,ScrollDown,정답입니다,500.09058409999125,None,500.09058409999125,None,500.09058409999125,None,500.09058409999125,None,500.8132696999819,None,500.8132696999819,501.3183314999915,,,,,,,,,,,,,,,,022,2022-05-18_13h57.08.007,FishGame,2022.1.1,59.986311120826585,
,24,넌 긍정적이야,1,Orange,B,6.041666666666667,6.066666666666666,ScrollUp,ScrollDown,Orange.png,4,Positive,Incongruent,,,,,0,0,0,0,,,,,,,,,,,,,,,,,,,,,,,,,0,23,23,23,,,,,,,,,,,,,,,,,,,,,,,,,,,,,,,,,,,,,,,,,,,,,,,,,,,,,,,,,,,,,,,,,,,,,1.8302469104528427,0.9123942000151146,501.94065119998413,None,ScrollUp,정답입니다,501.94065119998413,None,501.94065119998413,None,501.94065119998413,None,501.94065119998413,None,502.7516071999853,None,502.7516071999853,503.25169039997854,,,,,,,,,,,,,,,,022,2022-05-18_13h57.08.007,FishGame,2022.1.1,59.986311120826585,
,25,나를 보내줘,6,Green,A,0,0,ScrollUp,ScrollDown,Green.png,4,NonTarget,NonTarget,,,,,0,0,0,0,,,,,,,,,,,,,,,,,,,,,,,,,0,24,24,24,,,,,,,,,,,,,,,,,,,,,,,,,,,,,,,,,,,,,,,,,,,,,,,,,,,,,,,,,,,,,,,,,,,,,1.9089506218830745,1.0767550000164192,503.8724202999729,None,ScrollUp,정답입니다,503.8724202999729,None,503.8724202999729,None,503.8724202999729,None,503.8724202999729,None,504.85411159999785,None,504.85411159999785,505.3572241999791,,,,,,,,,,,,,,,,022,2022-05-18_13h57.08.007,FishGame,2022.1.1,59.986311120826585,
,26,넌 시기심이 많아,5,Orange,B,2.458333333333333,2.233333333333333,ScrollUp,ScrollDown,Orange.png,4,Negative,Congruent,,,,,0,0,0,0,,,,,,,,,,,,,,,,,,,,,,,,,0,25,25,25,,,,,,,,,,,,,,,,,,,,,,,,,,,,,,,,,,,,,,,,,,,,,,,,,,,,,,,,,,,,,,,,,,,,,1.1466049303611119,0.8603401999862399,505.97949889997835,None,ScrollDown,오답입니다,505.97949889997835,None,505.97949889997835,None,505.97949889997835,None,505.97949889997835,None,506.7350939999742,None,506.7350939999742,507.2373736999871,,,,,,,,,,,,,,,,022,2022-05-18_13h57.08.007,FishGame,2022.1.1,59.986311120826585,
,27,넌 탁월해,2,Green,A,5.708333333333334,4.5,ScrollDown,ScrollUp,Green.png,4,Positive,Congruent,,,,,0,0,0,0,,,,,,,,,,,,,,,,,,,,,,,,,0,26,26,26,,,,,,,,,,,,,,,,,,,,,,,,,,,,,,,,,,,,,,,,,,,,,,,,,,,,,,,,,,,,,,,,,,,,,1.1728395173947017,0.9224613000114914,507.8745665999886,None,ScrollDown,정답입니다,507.8745665999886,None,507.8745665999886,None,507.8745665999886,None,507.8745665999886,None,508.6847701999941,None,508.6847701999941,509.1848449999816,,,,,,,,,,,,,,,,022,2022-05-18_13h57.08.007,FishGame,2022.1.1,59.986311120826585,
,28,나를 데려가줘,6,Orange,B,0,0,ScrollDown,ScrollUp,Orange.png,4,NonTarget,NonTarget,,,,,0,0,0,0,,,,,,,,,,,,,,,,,,,,,,,,,0,27,27,27,,,,,,,,,,,,,,,,,,,,,,,,,,,,,,,,,,,,,,,,,,,,,,,,,,,,,,,,,,,,,,,,,,,,,1.0972222338120143,1.19521109998459,509.8075202999753,None,ScrollDown,정답입니다,509.8075202999753,None,509.8075202999753,None,509.8075202999753,None,509.8075202999753,None,510.9039496999758,None,510.9039496999758,511.40397389998543,,,,,,,,,,,,,,,,022,2022-05-18_13h57.08.007,FishGame,2022.1.1,59.986311120826585,
,29,넌 조용해,3,Orange,B,4.333333333333333,4.166666666666667,ScrollUp,ScrollDown,Orange.png,4,Neutral,Neutral,,,,,0,0,0,0,,,,,,,,,,,,,,,,,,,,,,,,,0,28,28,28,,,,,,,,,,,,,,,,,,,,,,,,,,,,,,,,,,,,,,,,,,,,,,,,,,,,,,,,,,,,,,,,,,,,,1.8719135870536168,0.9793921999807935,512.024941199983,None,ScrollUp,정답입니다,512.024941199983,None,512.024941199983,None,512.024941199983,None,512.024941199983,None,512.9039099999936,None,512.9039099999936,513.4016671999998,,,,,,,,,,,,,,,,022,2022-05-18_13h57.08.007,FishGame,2022.1.1,59.986311120826585,
,30,넌 다정해,1,Green,A,5.833333333333334,5.7,ScrollDown,ScrollUp,Green.png,4,Positive,Congruent,,,,,0,0,0,0,,,,,,,,,,,,,,,,,,,,,,,,,0,29,29,29,,,,,,,,,,,,,,,,,,,,,,,,,,,,,,,,,,,,,,,,,,,,,,,,,,,,,,,,,,,,,,,,,,,,,1.2283950696388881,0.8256625999929383,514.0265489999729,None,ScrollDown,정답입니다,514.0265489999729,None,514.0265489999729,None,514.0265489999729,None,514.0265489999729,None,514.7537564999948,None,514.7537564999948,515.253787900001,,,,,,,,,,,,,,,,022,2022-05-18_13h57.08.007,FishGame,2022.1.1,59.986311120826585,
,31,넌 능력있어,2,Orange,B,6.166666666666666,4.6,ScrollUp,ScrollDown,Orange.png,4,Positive,Incongruent,,,,,0,0,0,0,,,,,,,,,,,,,,,,,,,,,,,,,0,30,30,30,,,,,,,,,,,,,,,,,,,,,,,,,,,,,,,,,,,,,,,,,,,,,,,,,,,,,,,,,,,,,,,,,,,,,2,0.8098601000092458,515.8790784999728,None,ScrollUp,정답입니다,515.8790784999728,None,515.8790784999728,None,515.8790784999728,None,515.8790784999728,None,516.5848946999758,None,516.5848946999758,517.0871110999724,,,,,,,,,,,,,,,,022,2022-05-18_13h57.08.007,FishGame,2022.1.1,59.986311120826585,
,32,넌 불쾌해,5,Green,A,2.125,1.933333333333333,ScrollDown,ScrollUp,Green.png,4,Negative,Incongruent,,,,,0,0,0,0,,,,,,,,,,,,,,,,,,,,,,,,,0,31,31,31,,,,,,,,,,,,,,,,,,,,,,,,,,,,,,,,,,,,,,,,,,,,,,,,,,,,,,,,,,,,,,,,,,,,,1.1496913582086563,0.7422679000010248,517.7102404999896,None,ScrollDown,정답입니다,517.7102404999896,None,517.7102404999896,None,517.7102404999896,None,517.7102404999896,None,518.3512295999972,None,518.3512295999972,518.8513098999974,,,,,,,,,,,,,,,,022,2022-05-18_13h57.08.007,FishGame,2022.1.1,59.986311120826585,
,33,나를 데려가줘,6,Orange,B,0,0,ScrollDown,ScrollUp,Orange.png,4,NonTarget,NonTarget,,,,,0,0,0,0,,,,,,,,,,,,,,,,,,,,,,,,,0,32,32,32,,,,,,,,,,,,,,,,,,,,,,,,,,,,,,,,,,,,,,,,,,,,,,,,,,,,,,,,,,,,,,,,,,,,,1.0432098706563313,1.0281903000141028,519.4826371999807,None,ScrollDown,정답입니다,519.4826371999807,None,519.4826371999807,None,519.4826371999807,None,519.4826371999807,None,520.4012406999827,None,520.4012406999827,520.9037824999832,,,,,,,,,,,,,,,,022,2022-05-18_13h57.08.007,FishGame,2022.1.1,59.986311120826585,
,34,넌 유순해,3,Green,A,4.458333333333333,5,ScrollDown,ScrollUp,Green.png,4,Neutral,Neutral,,,,,0,0,0,0,,,,,,,,,,,,,,,,,,,,,,,,,0,33,33,33,,,,,,,,,,,,,,,,,,,,,,,,,,,,,,,,,,,,,,,,,,,,,,,,,,,,,,,,,,,,,,,,,,,,,1.1358024577299755,0.860933300020406,521.5231385999941,None,ScrollDown,정답입니다,521.5231385999941,None,521.5231385999941,None,521.5231385999941,None,521.5231385999941,None,522.2870804999839,None,522.2870804999839,522.7870813999907,,,,,,,,,,,,,,,,022,2022-05-18_13h57.08.007,FishGame,2022.1.1,59.986311120826585,
,35,넌 근심스러워,4,Orange,B,2.708333333333333,3.133333333333333,ScrollUp,ScrollDown,Orange.png,4,Negative,Congruent,,,,,0,0,0,0,,,,,,,,,,,,,,,,,,,,,,,,,0,34,34,34,,,,,,,,,,,,,,,,,,,,,,,,,,,,,,,,,,,,,,,,,,,,,,,,,,,,,,,,,,,,,,,,,,,,,1.9459876318772633,0.8794854000152554,523.4092481999833,None,ScrollUp,정답입니다,523.4092481999833,None,523.4092481999833,None,523.4092481999833,None,523.4092481999833,None,524.1847427999892,None,524.1847427999892,524.6869142999931,,,,,,,,,,,,,,,,022,2022-05-18_13h57.08.007,FishGame,2022.1.1,59.986311120826585,
,36,넌 세련되었어,2,Green,A,5.5,4.6,ScrollDown,ScrollUp,Green.png,4,Positive,Congruent,,,,,0,0,0,0,,,,,,,,,,,,,,,,,,,,,,,,,0,35,35,35,,,,,,,,,,,,,,,,,,,,,,,,,,,,,,,,,,,,,,,,,,,,,,,,,,,,,,,,,,,,,,,,,,,,,1.10030863682429,0.7923856999841519,525.3130112999934,None,ScrollDown,정답입니다,525.3130112999934,None,525.3130112999934,None,525.3130112999934,None,525.3130112999934,None,526.0010760999867,None,526.0010760999867,526.5011630999797,,,,,,,,,,,,,,,,022,2022-05-18_13h57.08.007,FishGame,2022.1.1,59.986311120826585,
,37,나를 보내줘,6,Green,A,0,0,ScrollUp,ScrollDown,Green.png,4,NonTarget,NonTarget,,,,,0,0,0,0,,,,,,,,,,,,,,,,,,,,,,,,,0,36,36,36,,,,,,,,,,,,,,,,,,,,,,,,,,,,,,,,,,,,,,,,,,,,,,,,,,,,,,,,,,,,,,,,,,,,,1.733024681607882,0.8948689000098966,527.1183909999963,None,ScrollUp,정답입니다,527.1183909999963,None,527.1183909999963,None,527.1183909999963,None,527.1183909999963,None,527.9177509000001,None,527.9177509000001,528.4203119000013,,,,,,,,,,,,,,,,022,2022-05-18_13h57.08.007,FishGame,2022.1.1,59.986311120826585,
,38,넌 확고해,3,Orange,B,4.708333333333334,4.566666666666666,ScrollUp,ScrollDown,Orange.png,4,Neutral,Neutral,,,,,0,0,0,0,,,,,,,,,,,,,,,,,,,,,,,,,0,37,37,37,,,,,,,,,,,,,,,,,,,,,,,,,,,,,,,,,,,,,,,,,,,,,,,,,,,,,,,,,,,,,,,,,,,,,1.858024686574936,0.8984098999935668,529.0413106999767,None,ScrollUp,정답입니다,529.0413106999767,None,529.0413106999767,None,529.0413106999767,None,529.0413106999767,None,529.8369012999756,None,529.8369012999756,530.3369252999837,,,,,,,,,,,,,,,,022,2022-05-18_13h57.08.007,FishGame,2022.1.1,59.986311120826585,
,39,넌 이해심이 많아,1,Orange,B,6.041666666666668,5.533333333333333,ScrollUp,ScrollDown,Orange.png,4,Positive,Incongruent,,,,,0,0,0,0,,,,,,,,,,,,,,,,,,,,,,,,,0,38,38,38,,,,,,,,,,,,,,,,,,,,,,,,,,,,,,,,,,,,,,,,,,,,,,,,,,,,,,,,,,,,,,,,,,,,,1.9027777661879857,0.8431534999981523,530.9626763999986,None,ScrollUp,정답입니다,530.9626763999986,None,530.9626763999986,None,530.9626763999986,None,530.9626763999986,None,531.7012710999988,None,531.7012710999988,532.2034334999917,,,,,,,,,,,,,,,,022,2022-05-18_13h57.08.007,FishGame,2022.1.1,59.986311120826585,
,40,나를 보내줘,6,Green,A,0,0,ScrollUp,ScrollDown,Green.png,4,NonTarget,NonTarget,,,,,0,0,0,0,,,,,,,,,,,,,,,,,,,,,,,,,0,39,39,39,,,,,,,,,,,,,,,,,,,,,,,,,,,,,,,,,,,,,,,,,,,,,,,,,,,,,,,,,,,,,,,,,,,,,1.8225308656692505,1.0772182999935467,532.8211493999988,None,ScrollUp,정답입니다,532.8211493999988,None,532.8211493999988,None,532.8211493999988,None,532.8211493999988,None,533.8012374999817,None,533.8012374999817,534.3034202999843,,,,,,,,,,,,,,,,022,2022-05-18_13h57.08.007,FishGame,2022.1.1,59.986311120826585,
,41,넌 거칠어,4,Green,A,2.625,3.033333333333333,ScrollDown,ScrollUp,Green.png,4,Negative,Incongruent,,,,,0,0,0,0,,,,,,,,,,,,,,,,,,,,,,,,,0,40,40,40,,,,,,,,,,,,,,,,,,,,,,,,,,,,,,,,,,,,,,,,,,,,,,,,,,,,,,,,,,,,,,,,,,,,,1.28086419403553,0.8606574999867007,534.9233146999904,None,ScrollDown,정답입니다,534.9233146999904,None,534.9233146999904,None,534.9233146999904,None,534.9233146999904,None,535.6844536999997,None,535.6844536999997,536.1866526999802,,,,,,,,,,,,,,,,022,2022-05-18_13h57.08.007,FishGame,2022.1.1,59.986311120826585,
,42,넌 변덕맞아,5,Orange,B,2.75,2.166666666666667,ScrollUp,ScrollDown,Orange.png,4,Negative,Congruent,,,,,0,0,0,0,,,,,,,,,,,,,,,,,,,,,,,,,0,41,41,41,,,,,,,,,,,,,,,,,,,,,,,,,,,,,,,,,,,,,,,,,,,,,,,,,,,,,,,,,,,,,,,,,,,,,1.9367283980051677,0.8595360999752302,536.8146290000004,None,ScrollUp,정답입니다,536.8146290000004,None,536.8146290000004,None,536.8146290000004,None,536.8146290000004,None,537.5678151999891,None,537.5678151999891,538.0678650999907,,,,,,,,,,,,,,,,022,2022-05-18_13h57.08.007,FishGame,2022.1.1,59.986311120826585,
,43,나를 데려가줘,6,Orange,B,0,0,ScrollDown,ScrollUp,Orange.png,4,NonTarget,NonTarget,,,,,0,0,0,0,,,,,,,,,,,,,,,,,,,,,,,,,0,42,42,42,,,,,,,,,,,,,,,,,,,,,,,,,,,,,,,,,,,,,,,,,,,,,,,,,,,,,,,,,,,,,,,,,,,,,1.1651234477758408,1.160307299986016,538.690360299981,None,ScrollDown,정답입니다,538.690360299981,None,538.690360299981,None,538.690360299981,None,538.690360299981,None,539.7510173999763,None,539.7510173999763,540.2511003999971,,,,,,,,,,,,,,,,022,2022-05-18_13h57.08.007,FishGame,2022.1.1,59.986311120826585,
,44,넌 외로워,4,Orange,B,2.833333333333333,3.3,ScrollUp,ScrollDown,Orange.png,4,Negative,Congruent,,,,,0,0,0,0,,,,,,,,,,,,,,,,,,,,,,,,,0,43,43,43,,,,,,,,,,,,,,,,,,,,,,,,,,,,,,,,,,,,,,,,,,,,,,,,,,,,,,,,,,,,,,,,,,,,,1.9969135920206706,0.928272699995432,540.8770103999996,None,ScrollUp,정답입니다,540.8770103999996,None,540.8770103999996,None,540.8770103999996,None,540.8770103999996,None,541.7010212999885,None,541.7010212999885,542.2032168000005,,,,,,,,,,,,,,,,022,2022-05-18_13h57.08.007,FishGame,2022.1.1,59.986311120826585,
,1,넌 불평스러워,5,Green,A,2.25,2.066666666666667,ScrollDown,ScrollUp,Green.png,5,Negative,Incongruent,,,,,0,0,0,0,,,,,,,,,,,,,,,,,,,,,,,,,,,,,0,0,0,0,,,,,,,,,,,,,,,,,,,,,,,,573.9838339999842,575.4835510999837,575.5194618999958,576.4693472999788,576.519346999994,577.469312399975,577.469312399975,None,,,,,,,,,,,,,,,,,,,,,,,,,,,,,,,,,,1.0617283880710602,0.7938604000082705,578.5708039999881,None,ScrollDown,정답입니다,578.5708039999881,None,578.5708039999881,None,578.5708039999881,None,578.5708039999881,None,579.269189899991,None,579.269189899991,579.7690937999869,542.703240199975,None,542.703240199975,None,-0.027777778,-0.15833333,1,0,0,0.016218629985814914,None,572.7026053999725,None,,,022,2022-05-18_13h57.08.007,FishGame,2022.1.1,59.986311120826585,
,2,나를 보내줘,6,Green,A,0,0,ScrollUp,ScrollDown,Green.png,5,NonTarget,NonTarget,,,,,0,0,0,0,,,,,,,,,,,,,,,,,,,,,,,,,,,,,0,1,1,1,,,,,,,,,,,,,,,,,,,,,,,,,,,,,,,,,,,,,,,,,,,,,,,,,,,,,,,,,,,,,,,,,1.9737654328346252,0.8791168999741785,580.4020079999755,None,ScrollUp,정답입니다,580.4020079999755,None,580.4020079999755,None,580.4020079999755,None,580.4020079999755,None,581.1857699999819,None,581.1857699999819,581.700259699981,,,,,,,,,,,,,,,,022,2022-05-18_13h57.08.007,FishGame,2022.1.1,59.986311120826585,
,3,넌 다재다능해,2,Orange,B,6.208333333333333,4.5,ScrollUp,ScrollDown,Orange.png,5,Positive,Incongruent,,,,,0,0,0,0,,,,,,,,,,,,,,,,,,,,,,,,,,,,,0,2,2,2,,,,,,,,,,,,,,,,,,,,,,,,,,,,,,,,,,,,,,,,,,,,,,,,,,,,,,,,,,,,,,,,,1.8626543283462524,0.8259947999904398,582.3077061999938,None,ScrollUp,정답입니다,582.3077061999938,None,582.3077061999938,None,582.3077061999938,None,582.3077061999938,None,583.033532499976,None,583.033532499976,583.5357268999796,,,,,,,,,,,,,,,,022,2022-05-18_13h57.08.007,FishGame,2022.1.1,59.986311120826585,
,4,넌 과감해,3,Green,A,4.833333333333334,4.6,ScrollDown,ScrollUp,Green.png,5,Neutral,Neutral,,,,,0,0,0,0,,,,,,,,,,,,,,,,,,,,,,,,,,,,,0,3,3,3,,,,,,,,,,,,,,,,,,,,,,,,,,,,,,,,,,,,,,,,,,,,,,,,,,,,,,,,,,,,,,,,,1,0.9777247000019997,584.2176998999785,None,ScrollDown,정답입니다,584.2176998999785,None,584.2176998999785,None,584.2176998999785,None,584.2176998999785,None,585.0334363000002,None,585.0334363000002,585.5356361999875,,,,,,,,,,,,,,,,022,2022-05-18_13h57.08.007,FishGame,2022.1.1,59.986311120826585,
,5,넌 고분고분해,3,Orange,B,3.75,4.033333333333333,ScrollUp,ScrollDown,Orange.png,5,Neutral,Neutral,,,,,0,0,0,0,,,,,,,,,,,,,,,,,,,,,,,,,,,,,0,4,4,4,,,,,,,,,,,,,,,,,,,,,,,,,,,,,,,,,,,,,,,,,,,,,,,,,,,,,,,,,,,,,,,,,1.8518518557151158,0.7782995000015944,586.1700321999961,None,ScrollUp,정답입니다,586.1700321999961,None,586.1700321999961,None,586.1700321999961,None,586.1700321999961,None,586.8356063999818,None,586.8356063999818,587.3356416999886,,,,,,,,,,,,,,,,022,2022-05-18_13h57.08.007,FishGame,2022.1.1,59.986311120826585,
,6,나를 보내줘,6,Green,A,0,0,ScrollUp,ScrollDown,Green.png,5,NonTarget,NonTarget,,,,,0,0,0,0,,,,,,,,,,,,,,,,,,,,,,,,,,,,,0,5,5,5,,,,,,,,,,,,,,,,,,,,,,,,,,,,,,,,,,,,,,,,,,,,,,,,,,,,,,,,,,,,,,,,,1.7762345721324284,0.8729630000016186,587.9573631999956,None,ScrollUp,정답입니다,587.9573631999956,None,587.9573631999956,None,587.9573631999956,None,587.9573631999956,None,588.728696199978,None,588.728696199978,589.2332052999991,,,,,,,,,,,,,,,,022,2022-05-18_13h57.08.007,FishGame,2022.1.1,59.986311120826585,
,7,넌 잘 잊어,4,Green,A,3,3.7,ScrollDown,ScrollUp,Green.png,5,Negative,Incongruent,,,,,0,0,0,0,,,,,,,,,,,,,,,,,,,,,,,,,,,,,0,6,6,6,,,,,,,,,,,,,,,,,,,,,,,,,,,,,,,,,,,,,,,,,,,,,,,,,,,,,,,,,,,,,,,,,1.0200617114702861,0.8288993000169285,589.8533061999769,None,ScrollDown,정답입니다,589.8533061999769,None,589.8533061999769,None,589.8533061999769,None,589.8533061999769,None,590.5830933999969,None,590.5830933999969,591.0832183999883,,,,,,,,,,,,,,,,022,2022-05-18_13h57.08.007,FishGame,2022.1.1,59.986311120826585,
,8,넌 탐구심이없어,4,Orange,B,2.833333333333333,3.066666666666667,ScrollUp,ScrollDown,Orange.png,5,Negative,Congruent,,,,,0,0,0,0,,,,,,,,,,,,,,,,,,,,,,,,,,,,,0,7,7,7,,,,,,,,,,,,,,,,,,,,,,,,,,,,,,,,,,,,,,,,,,,,,,,,,,,,,,,,,,,,,,,,,1.7731481442848842,0.7429418000101577,591.7133229999745,None,ScrollUp,정답입니다,591.7133229999745,None,591.7133229999745,None,591.7133229999745,None,591.7133229999745,None,592.3522796999896,None,592.3522796999896,592.8523194000009,,,,,,,,,,,,,,,,022,2022-05-18_13h57.08.007,FishGame,2022.1.1,59.986311120826585,
,9,나를 데려가줘,6,Orange,B,0,0,ScrollDown,ScrollUp,Orange.png,5,NonTarget,NonTarget,,,,,0,0,0,0,,,,,,,,,,,,,,,,,,,,,,,,,,,,,0,8,8,8,,,,,,,,,,,,,,,,,,,,,,,,,,,,,,,,,,,,,,,,,,,,,,,,,,,,,,,,,,,,,,,,,1.1188271542390187,0.8960944999998901,593.4711639999878,None,ScrollDown,정답입니다,593.4711639999878,None,593.4711639999878,None,593.4711639999878,None,593.4711639999878,None,594.266621799994,None,594.266621799994,594.7688041999936,,,,,,,,,,,,,,,,022,2022-05-18_13h57.08.007,FishGame,2022.1.1,59.986311120826585,
,10,넌 참되어,2,Green,A,6.041666666666664,4.733333333333333,ScrollDown,ScrollUp,Green.png,5,Positive,Congruent,,,,,0,0,0,0,,,,,,,,,,,,,,,,,,,,,,,,,,,,,0,9,9,9,,,,,,,,,,,,,,,,,,,,,,,,,,,,,,,,,,,,,,,,,,,,,,,,,,,,,,,,,,,,,,,,,1.0154321193695068,0.7601850000210106,595.3896746999817,None,ScrollDown,정답입니다,595.3896746999817,None,595.3896746999817,None,595.3896746999817,None,595.3896746999817,None,596.0499347999867,None,596.0499347999867,596.5521523999923,,,,,,,,,,,,,,,,022,2022-05-18_13h57.08.007,FishGame,2022.1.1,59.986311120826585,
,11,넌 생기있어,1,Orange,B,5.875,5.633333333333334,ScrollUp,ScrollDown,Orange.png,5,Positive,Incongruent,,,,,0,0,0,0,,,,,,,,,,,,,,,,,,,,,,,,,,,,,0,10,10,10,,,,,,,,,,,,,,,,,,,,,,,,,,,,,,,,,,,,,,,,,,,,,,,,,,,,,,,,,,,,,,,,,1.9305555423100789,0.8097006999887526,597.1800895999768,None,ScrollUp,정답입니다,597.1800895999768,None,597.1800895999768,None,597.1800895999768,None,597.1800895999768,None,597.8832317999913,None,597.8832317999913,598.3853832999885,,,,,,,,,,,,,,,,022,2022-05-18_13h57.08.007,FishGame,2022.1.1,59.986311120826585,
,12,넌 비사교적이야,4,Orange,B,2.875,2.9,ScrollUp,ScrollDown,Orange.png,5,Negative,Congruent,,,,,0,0,0,0,,,,,,,,,,,,,,,,,,,,,,,,,,,,,0,11,11,11,,,,,,,,,,,,,,,,,,,,,,,,,,,,,,,,,,,,,,,,,,,,,,,,,,,,,,,,,,,,,,,,,1.9737654328346252,0.8277308999968227,599.0059912999859,None,ScrollUp,정답입니다,599.0059912999859,None,599.0059912999859,None,599.0059912999859,None,599.0059912999859,None,599.733121199999,None,599.733121199999,600.2332191999885,,,,,,,,,,,,,,,,022,2022-05-18_13h57.08.007,FishGame,2022.1.1,59.986311120826585,
,13,나를 데려가줘,6,Orange,B,0,0,ScrollDown,ScrollUp,Orange.png,5,NonTarget,NonTarget,,,,,0,0,0,0,,,,,,,,,,,,,,,,,,,,,,,,,,,,,0,12,12,12,,,,,,,,,,,,,,,,,,,,,,,,,,,,,,,,,,,,,,,,,,,,,,,,,,,,,,,,,,,,,,,,,1.0987654229005177,0.8782747999939602,600.858155199996,None,ScrollDown,정답입니다,600.858155199996,None,600.858155199996,None,600.858155199996,None,600.858155199996,None,601.6353353000013,None,601.6353353000013,602.1353107999894,,,,,,,,,,,,,,,,022,2022-05-18_13h57.08.007,FishGame,2022.1.1,59.986311120826585,
,14,넌 고독해,4,Green,A,2.916666666666667,3.233333333333333,ScrollDown,ScrollUp,Green.png,5,Negative,Incongruent,,,,,0,0,0,0,,,,,,,,,,,,,,,,,,,,,,,,,,,,,0,13,13,13,,,,,,,,,,,,,,,,,,,,,,,,,,,,,,,,,,,,,,,,,,,,,,,,,,,,,,,,,,,,,,,,,1.0817901194095612,0.8796892999962438,602.7525515999878,None,ScrollDown,정답입니다,602.7525515999878,None,602.7525515999878,None,602.7525515999878,None,602.7525515999878,None,603.5352887999907,None,603.5352887999907,604.0353175999771,,,,,,,,,,,,,,,,022,2022-05-18_13h57.08.007,FishGame,2022.1.1,59.986311120826585,
,15,넌 신경질적이야,5,Orange,B,2.375,2.233333333333333,ScrollUp,ScrollDown,Orange.png,5,Negative,Congruent,,,,,0,0,0,0,,,,,,,,,,,,,,,,,,,,,,,,,,,,,0,14,14,14,,,,,,,,,,,,,,,,,,,,,,,,,,,,,,,,,,,,,,,,,,,,,,,,,,,,,,,,,,,,,,,,,1.8981481492519379,0.8590592000109609,604.6738037999894,None,ScrollUp,정답입니다,604.6738037999894,None,604.6738037999894,None,604.6738037999894,None,604.6738037999894,None,605.4161137999909,None,605.4161137999909,605.9161746999889,,,,,,,,,,,,,,,,022,2022-05-18_13h57.08.007,FishGame,2022.1.1,59.986311120826585,
,16,넌 똑똑해,2,Orange,B,5.666666666666667,3.966666666666667,ScrollUp,ScrollDown,Orange.png,5,Positive,Incongruent,,,,,0,0,0,0,,,,,,,,,,,,,,,,,,,,,,,,,,,,,0,15,15,15,,,,,,,,,,,,,,,,,,,,,,,,,,,,,,,,,,,,,,,,,,,,,,,,,,,,,,,,,,,,,,,,,1.9351851840813954,1.3295693999971263,606.5421702999738,None,ScrollUp,정답입니다,606.5421702999738,None,606.5421702999738,None,606.5421702999738,None,606.5421702999738,None,607.768625799974,None,607.768625799974,608.2687309999892,,,,,,,,,,,,,,,,022,2022-05-18_13h57.08.007,FishGame,2022.1.1,59.986311120826585,
,17,나를 보내줘,6,Green,A,0,0,ScrollUp,ScrollDown,Green.png,5,NonTarget,NonTarget,,,,,0,0,0,0,,,,,,,,,,,,,,,,,,,,,,,,,,,,,0,16,16,16,,,,,,,,,,,,,,,,,,,,,,,,,,,,,,,,,,,,,,,,,,,,,,,,,,,,,,,,,,,,,,,,,1.8564814726511638,0.9773564000206534,608.8862926999864,None,ScrollUp,정답입니다,608.8862926999864,None,608.8862926999864,None,608.8862926999864,None,608.8862926999864,None,609.7663108999841,None,609.7663108999841,610.2684552999854,,,,,,,,,,,,,,,,022,2022-05-18_13h57.08.007,FishGame,2022.1.1,59.986311120826585,
,18,넌 협조적이야,1,Green,A,5.625,5.666666666666667,ScrollDown,ScrollUp,Green.png,5,Positive,Congruent,,,,,0,0,0,0,,,,,,,,,,,,,,,,,,,,,,,,,,,,,0,17,17,17,,,,,,,,,,,,,,,,,,,,,,,,,,,,,,,,,,,,,,,,,,,,,,,,,,,,,,,,,,,,,,,,,1.0725308855374653,0.9594109999889042,610.8916736999818,None,ScrollDown,정답입니다,610.8916736999818,None,610.8916736999818,None,610.8916736999818,None,610.8916736999818,None,611.7496223999769,None,611.7496223999769,612.2518172999844,,,,,,,,,,,,,,,,022,2022-05-18_13h57.08.007,FishGame,2022.1.1,59.986311120826585,
,19,나를 데려가줘,6,Orange,B,0,0,ScrollDown,ScrollUp,Orange.png,5,NonTarget,NonTarget,,,,,0,0,0,0,,,,,,,,,,,,,,,,,,,,,,,,,,,,,0,18,18,18,,,,,,,,,,,,,,,,,,,,,,,,,,,,,,,,,,,,,,,,,,,,,,,,,,,,,,,,,,,,,,,,,1.1712963034709294,0.9592443000001367,612.875343199994,None,ScrollDown,정답입니다,612.875343199994,None,612.875343199994,None,612.875343199994,None,612.875343199994,None,613.7328487999912,None,613.7328487999912,614.2328982999898,,,,,,,,,,,,,,,,022,2022-05-18_13h57.08.007,FishGame,2022.1.1,59.986311120826585,
,20,넌 몰인정해,5,Orange,B,2.541666666666667,2.066666666666667,ScrollUp,ScrollDown,Orange.png,5,Negative,Congruent,,,,,0,0,0,0,,,,,,,,,,,,,,,,,,,,,,,,,,,,,0,19,19,19,,,,,,,,,,,,,,,,,,,,,,,,,,,,,,,,,,,,,,,,,,,,,,,,,,,,,,,,,,,,,,,,,1.7623456716537476,0.909447399986675,614.8602523999871,None,ScrollUp,정답입니다,614.8602523999871,None,614.8602523999871,None,614.8602523999871,None,614.8602523999871,None,615.6661893999844,None,615.6661893999844,616.168354399997,,,,,,,,,,,,,,,,022,2022-05-18_13h57.08.007,FishGame,2022.1.1,59.986311120826585,
,21,나를 데려가줘,6,Orange,B,0,0,ScrollDown,ScrollUp,Orange.png,5,NonTarget,NonTarget,,,,,0,0,0,0,,,,,,,,,,,,,,,,,,,,,,,,,,,,,0,20,20,20,,,,,,,,,,,,,,,,,,,,,,,,,,,,,,,,,,,,,,,,,,,,,,,,,,,,,,,,,,,,,,,,,1,1.0756424000137486,616.7916828999878,None,ScrollDown,정답입니다,616.7916828999878,None,616.7916828999878,None,616.7916828999878,None,616.7916828999878,None,617.7660893999855,None,617.7660893999855,618.2683276999742,,,,,,,,,,,,,,,,022,2022-05-18_13h57.08.007,FishGame,2022.1.1,59.986311120826585,
