name,TrialNum,Word,WordCategory,FishType,WordList,WordValence,WordReputation,CorrectResp,IncorrectResp,FishTypeFile,Round,WordType,Condition,LoopforOrange.thisRepN,LoopforOrange.thisTrialN,LoopforOrange.thisN,LoopforOrange.thisIndex,OrangeInstLoop.thisRepN,OrangeInstLoop.thisTrialN,OrangeInstLoop.thisN,OrangeInstLoop.thisIndex,OrangePrac.thisRepN,OrangePrac.thisTrialN,OrangePrac.thisN,OrangePrac.thisIndex,temp1.thisRepN,temp1.thisTrialN,temp1.thisN,temp1.thisIndex,OrangeRound1.thisRepN,OrangeRound1.thisTrialN,OrangeRound1.thisN,OrangeRound1.thisIndex,OrangeRound2.thisRepN,OrangeRound2.thisTrialN,OrangeRound2.thisN,OrangeRound2.thisIndex,OrangeRound3.thisRepN,OrangeRound3.thisTrialN,OrangeRound3.thisN,OrangeRound3.thisIndex,OrangeRound4.thisRepN,OrangeRound4.thisTrialN,OrangeRound4.thisN,OrangeRound4.thisIndex,OrangeRound5.thisRepN,OrangeRound5.thisTrialN,OrangeRound5.thisN,OrangeRound5.thisIndex,LoopForGreen.thisRepN,LoopForGreen.thisTrialN,LoopForGreen.thisN,LoopForGreen.thisIndex,text_2.started,text_2.stopped,text_3.started,text_3.stopped,key_resp.keys,key_resp.rt,key_resp.started,key_resp.stopped,PassI_2.started,PassI_2.stopped,PassInst_2.keys,PassInst_2.rt,PassInst_2.started,PassInst_2.stopped,mouse_2.x,mouse_2.y,mouse_2.leftButton,mouse_2.midButton,mouse_2.rightButton,mouse_2.started,mouse_2.stopped,image.started,image.stopped,text_5.started,text_5.stopped,text_6.started,text_6.stopped,text_7.started,text_7.stopped,text_8.started,text_8.stopped,slider_2.response,slider_2.rt,slider_2.started,slider_2.stopped,Response_2,Feedback_2,BackGround_2.started,BackGround_2.stopped,Fish_2.started,Fish_2.stopped,WordBox_2.started,WordBox_2.stopped,Words_2.started,Words_2.stopped,BackGround_Feedback_2.started,BackGround_Feedback_2.stopped,Feedbacks_2.started,Feedbacks_2.stopped,Continue_or_not.keys,Continue_or_not.rt,Continue_or_not.started,Continue_or_not.stopped,image_3.started,image_3.stopped,mouse_3.x,mouse_3.y,mouse_3.leftButton,mouse_3.midButton,mouse_3.rightButton,mouse_3.started,mouse_3.stopped,startmain.started,startmain.stopped,slider.response,slider.rt,slider.started,slider.stopped,Response,Feedback,BackGround.started,BackGround.stopped,Fish.started,Fish.stopped,WordBox.started,WordBox.stopped,Words.started,Words.stopped,BackGround_Feedback.started,BackGround_Feedback.stopped,Feedbacks.started,Feedbacks.stopped,text.started,text.stopped,break_interval.started,break_interval.stopped,mouse.x,mouse.y,mouse.leftButton,mouse.midButton,mouse.rightButton,mouse.started,mouse.stopped,stratnextround.started,stratnextround.stopped,endgame.started,endgame.stopped,participant,date,expName,psychopyVersion,frameRate,
,,,,,,,,,,,,,,,,,,,,,,,,,,,,,,,,,,,,,,,,,,,,,,,,,,,,,,17.322060299979057,None,17.322060299979057,None,space,2.002233300008811,17.813940799969714,None,,,,,,,,,,,,,,,,,,,,,,,,,,,,,,,,,,,,,,,,,,,,,,,,,,,,,,,,,,,,,,,,,,,,,,,,,,,,,,,,,,,,,,,,,,023,2022-05-18_17h48.19.309,FishGame,2022.1.1,60.0083411670488,
물고기과제_instruction(참가자용)OrangeVersion.mp4,,,,,,,,,,,,,,0,0,0,0,0,0,0,0,,,,,,,,,,,,,,,,,,,,,,,,,,,,,,,,,,,,,,,,,91.94028139999136,None,n,1.3315177999902517,91.94028139999136,None,,,,,,,,,,,,,,,,,,,,,,,,,,,,,,,,,,,,,,,,,,,,,,,,,,,,,,,,,,,,,,,,,,,,,,,,,,,,,,,,,,,,023,2022-05-18_17h48.19.309,FishGame,2022.1.1,60.0083411670488,
,1,넌 교활해,5,Green,B,2.333333333333333,2.133333333333333,ScrollUp,ScrollDown,Green.png,practice,,,0,0,0,0,,,,,0,0,0,0,0,0,0,0,,,,,,,,,,,,,,,,,,,,,,,,,,,,,,,,,,,,,,,0.18240741,-0.22777778,1,0,0,0.5124049700680189,None,93.29005670000333,None,96.79037359997164,98.29019809997408,98.3258675999823,99.27581319998717,99.32585919997655,100.27581730001839,100.27581730001839,None,1.5879629639287791,1.4666686999844387,101.55050479999045,None,ScrollUp,정답입니다,101.55050479999045,None,101.55050479999045,None,101.55050479999045,None,101.55050479999045,None,102.72308889997657,None,102.72308889997657,103.22313220001524,,,,,,,,,,,,,,,,,,,,,,,,,,,,,,,,,,,,,,,,,,,,,,,,,023,2022-05-18_17h48.19.309,FishGame,2022.1.1,60.0083411670488,
,2,넌 슬기로워,2,Orange,A,6.166666666666667,4.1,ScrollDown,ScrollUp,Orange.png,practice,,,0,0,0,0,,,,,0,0,0,0,0,1,1,1,,,,,,,,,,,,,,,,,,,,,,,,,,,,,,,,,,,,,,,,,,,,,,,,,,,,,,,,1.3626543208956718,0.9112914000288583,103.84432319999905,None,ScrollDown,정답입니다,103.84432319999905,None,103.84432319999905,None,103.84432319999905,None,103.84432319999905,None,104.6564398999908,None,104.6564398999908,105.15899029996945,,,,,,,,,,,,,,,,,,,,,,,,,,,,,,,,,,,,,,,,,,,,,,,,,023,2022-05-18_17h48.19.309,FishGame,2022.1.1,60.0083411670488,
,3,나를 보내줘,6,Orange,A,0,0,ScrollUp,ScrollDown,Orange.png,practice,,,0,0,0,0,,,,,0,0,0,0,0,2,2,2,,,,,,,,,,,,,,,,,,,,,,,,,,,,,,,,,,,,,,,,,,,,,,,,,,,,,,,,1.634259263674418,1.095742399978917,105.7789837999735,None,ScrollUp,정답입니다,105.7789837999735,None,105.7789837999735,None,105.7789837999735,None,105.7789837999735,None,106.77558939997107,None,106.77558939997107,107.27599340002052,,,,,,,,,,,,,,,,,,,,,,,,,,,,,,,,,,,,,,,,,,,,,,,,,023,2022-05-18_17h48.19.309,FishGame,2022.1.1,60.0083411670488,
,4,나를 데려가줘,6,Green,B,0,0,ScrollDown,ScrollUp,Green.png,practice,,,0,0,0,0,,,,,0,0,0,0,0,3,3,3,,,,,,,,,,,,,,,,,,,,,,,,,,,,,,,,,,,,,,,,,,,,,,,,,,,,,,,,1.2098765522241592,1.1591226000455208,107.90033159998711,None,ScrollDown,정답입니다,107.90033159998711,None,107.90033159998711,None,107.90033159998711,None,107.90033159998711,None,108.95628939999733,None,108.95628939999733,109.45635120000225,,,,,,,,,,,,,,,,,,,,,,,,,,,,,,,,,,,,,,,,,,,,,,,,,023,2022-05-18_17h48.19.309,FishGame,2022.1.1,60.0083411670488,
,1,넌 교활해,5,Green,B,2.333333333333333,2.133333333333333,ScrollUp,ScrollDown,Green.png,practice,,,0,0,0,0,,,,,0,0,0,0,,,,,,,,,,,,,,,,,,,,,,,,,,,,,,,,,,,,,,,,,,,,,,,,,,,,,,,,,,,,,,,,,,,,,,,,,,,,,,n,5.155359299969859,109.95640269998694,None,109.95640269998694,None,,,,,,,,,,,,,,,,,,,,,,,,,,,,,,,,,,,,,,,,,,,023,2022-05-18_17h48.19.309,FishGame,2022.1.1,60.0083411670488,
,1,넌 따뜻해,1,Green,B,6.083333333333333,5.6,ScrollUp,ScrollDown,Green.png,1,Positive,Incongruent,0,0,0,0,,,,,,,,,,,,,0,0,0,0,,,,,,,,,,,,,,,,,,,,,,,,,,,,,,,,,,,,,,,,,,,,116.30644959997153,117.80878179997671,117.8254450999666,118.7920751000056,118.8230894000153,119.77302419999614,119.77302419999614,None,,,,,,,,,,,,,,,,,,,,,,,,,0.20462963,-0.18333334,1,0,0,0.3139265700010583,None,115.13977680000244,None,1.8317901243766148,1.4298925999901257,121.06116139999358,None,ScrollUp,정답입니다,121.06116139999358,None,121.06116139999358,None,121.06116139999358,None,121.06116139999358,None,122.18966029997682,None,122.18966029997682,122.69529120001243,,,,,,,,,,,,,,,,023,2022-05-18_17h48.19.309,FishGame,2022.1.1,60.0083411670488,
,2,넌 기품있어,2,Green,B,5.791666666666668,4.5,ScrollUp,ScrollDown,Green.png,1,Positive,Incongruent,0,0,0,0,,,,,,,,,,,,,0,1,1,1,,,,,,,,,,,,,,,,,,,,,,,,,,,,,,,,,,,,,,,,,,,,,,,,,,,,,,,,,,,,,,,,,,,,,,,,,,,,,,,,,,,,,1.9351851840813954,1.0784352999762632,123.31821739999577,None,ScrollUp,정답입니다,123.31821739999577,None,123.31821739999577,None,123.31821739999577,None,123.31821739999577,None,124.28989730001194,None,124.28989730001194,124.78963159996783,,,,,,,,,,,,,,,,023,2022-05-18_17h48.19.309,FishGame,2022.1.1,60.0083411670488,
,3,나를 보내줘,6,Orange,A,0,0,ScrollUp,ScrollDown,Orange.png,1,NonTarget,NonTarget,0,0,0,0,,,,,,,,,,,,,0,2,2,2,,,,,,,,,,,,,,,,,,,,,,,,,,,,,,,,,,,,,,,,,,,,,,,,,,,,,,,,,,,,,,,,,,,,,,,,,,,,,,,,,,,,,1.884259248773257,1.226334000006318,125.42274080001516,None,ScrollUp,정답입니다,125.42274080001516,None,125.42274080001516,None,125.42274080001516,None,125.42274080001516,None,126.53985709999688,None,126.53985709999688,127.03955619997578,,,,,,,,,,,,,,,,023,2022-05-18_17h48.19.309,FishGame,2022.1.1,60.0083411670488,
,4,넌 수동적이야,4,Orange,A,2.833333333333333,2.933333333333333,ScrollDown,ScrollUp,Orange.png,1,Negative,Incongruent,0,0,0,0,,,,,,,,,,,,,0,3,3,3,,,,,,,,,,,,,,,,,,,,,,,,,,,,,,,,,,,,,,,,,,,,,,,,,,,,,,,,,,,,,,,,,,,,,,,,,,,,,,,,,,,,,1.1913580348094304,1.3590537999989465,127.67360580002423,None,ScrollDown,정답입니다,127.67360580002423,None,127.67360580002423,None,127.67360580002423,None,127.67360580002423,None,128.92279179999605,None,128.92279179999605,129.42284919996746,,,,,,,,,,,,,,,,023,2022-05-18_17h48.19.309,FishGame,2022.1.1,60.0083411670488,
,5,넌 사심이 없어,3,Green,B,4.916666666666666,4.333333333333333,ScrollUp,ScrollDown,Green.png,1,Neutral,Neutral,0,0,0,0,,,,,,,,,,,,,0,4,4,4,,,,,,,,,,,,,,,,,,,,,,,,,,,,,,,,,,,,,,,,,,,,,,,,,,,,,,,,,,,,,,,,,,,,,,,,,,,,,,,,,,,,,1.6944444452722869,1.2759486000286415,130.0517594999983,None,ScrollUp,정답입니다,130.0517594999983,None,130.0517594999983,None,130.0517594999983,None,130.0517594999983,None,131.2249386999756,None,131.2249386999756,131.74175919999834,,,,,,,,,,,,,,,,023,2022-05-18_17h48.19.309,FishGame,2022.1.1,60.0083411670488,
,6,넌 헤퍼,5,Orange,A,2.458333333333334,2.233333333333333,ScrollDown,ScrollUp,Orange.png,1,Negative,Incongruent,0,0,0,0,,,,,,,,,,,,,0,5,5,5,,,,,,,,,,,,,,,,,,,,,,,,,,,,,,,,,,,,,,,,,,,,,,,,,,,,,,,,,,,,,,,,,,,,,,,,,,,,,,,,,,,,,2,1.6921236999914981,132.3554398000124,None,ScrollUp,오답입니다,132.3554398000124,None,132.3554398000124,None,132.3554398000124,None,132.3554398000124,None,133.9390636999742,None,133.9390636999742,134.43933289998677,,,,,,,,,,,,,,,,023,2022-05-18_17h48.19.309,FishGame,2022.1.1,60.0083411670488,
,7,넌 말쑥해,3,Orange,A,4.833333333333334,4.333333333333333,ScrollDown,ScrollUp,Orange.png,1,Neutral,Neutral,0,0,0,0,,,,,,,,,,,,,0,6,6,6,,,,,,,,,,,,,,,,,,,,,,,,,,,,,,,,,,,,,,,,,,,,,,,,,,,,,,,,,,,,,,,,,,,,,,,,,,,,,,,,,,,,,1.2083333383003871,1.0950980000197887,135.0661420999677,None,ScrollDown,정답입니다,135.0661420999677,None,135.0661420999677,None,135.0661420999677,None,135.0661420999677,None,136.05828669999028,None,136.05828669999028,136.55825449997792,,,,,,,,,,,,,,,,023,2022-05-18_17h48.19.309,FishGame,2022.1.1,60.0083411670488,
,8,넌 투덜거려,5,Green,B,2.541666666666667,2.266666666666667,ScrollUp,ScrollDown,Green.png,1,Negative,Congruent,0,0,0,0,,,,,,,,,,,,,0,7,7,7,,,,,,,,,,,,,,,,,,,,,,,,,,,,,,,,,,,,,,,,,,,,,,,,,,,,,,,,,,,,,,,,,,,,,,,,,,,,,,,,,,,,,1.5679012325902781,1.036026399990078,137.17960789997596,None,ScrollUp,정답입니다,137.17960789997596,None,137.17960789997596,None,137.17960789997596,None,137.17960789997596,None,138.09500159998424,None,138.09500159998424,138.60818779998226,,,,,,,,,,,,,,,,023,2022-05-18_17h48.19.309,FishGame,2022.1.1,60.0083411670488,
,9,넌 적극적이야,1,Orange,A,5.708333333333333,5.533333333333333,ScrollDown,ScrollUp,Orange.png,1,Positive,Congruent,0,0,0,0,,,,,,,,,,,,,0,8,8,8,,,,,,,,,,,,,,,,,,,,,,,,,,,,,,,,,,,,,,,,,,,,,,,,,,,,,,,,,,,,,,,,,,,,,,,,,,,,,,,,,,,,,1.2067901243766148,0.8762354000355117,139.2340075999964,None,ScrollDown,정답입니다,139.2340075999964,None,139.2340075999964,None,139.2340075999964,None,139.2340075999964,None,140.00810839998303,None,140.00810839998303,140.51136020000558,,,,,,,,,,,,,,,,023,2022-05-18_17h48.19.309,FishGame,2022.1.1,60.0083411670488,
,10,넌 재미없어,4,Green,B,2.625,2.966666666666667,ScrollUp,ScrollDown,Green.png,1,Negative,Congruent,0,0,0,0,,,,,,,,,,,,,0,9,9,9,,,,,,,,,,,,,,,,,,,,,,,,,,,,,,,,,,,,,,,,,,,,,,,,,,,,,,,,,,,,,,,,,,,,,,,,,,,,,,,,,,,,,1.7145061641931534,1.0761709000216797,141.15009519999148,None,ScrollUp,정답입니다,141.15009519999148,None,141.15009519999148,None,141.15009519999148,None,141.15009519999148,None,142.12252420000732,None,142.12252420000732,142.62466049997602,,,,,,,,,,,,,,,,023,2022-05-18_17h48.19.309,FishGame,2022.1.1,60.0083411670488,
,11,넌 명석해,2,Orange,A,5.875,4.033333333333333,ScrollDown,ScrollUp,Orange.png,1,Positive,Congruent,0,0,0,0,,,,,,,,,,,,,0,10,10,10,,,,,,,,,,,,,,,,,,,,,,,,,,,,,,,,,,,,,,,,,,,,,,,,,,,,,,,,,,,,,,,,,,,,,,,,,,,,,,,,,,,,,1.1234567960103352,0.9092934000073001,143.2528870999813,None,ScrollDown,정답입니다,143.2528870999813,None,143.2528870999813,None,143.2528870999813,None,143.2528870999813,None,144.0558299999684,None,144.0558299999684,144.55803459999152,,,,,,,,,,,,,,,,023,2022-05-18_17h48.19.309,FishGame,2022.1.1,60.0083411670488,
,12,나를 데려가줘,6,Green,B,0,0,ScrollDown,ScrollUp,Green.png,1,NonTarget,NonTarget,0,0,0,0,,,,,,,,,,,,,0,11,11,11,,,,,,,,,,,,,,,,,,,,,,,,,,,,,,,,,,,,,,,,,,,,,,,,,,,,,,,,,,,,,,,,,,,,,,,,,,,,,,,,,,,,,1.1898148208856583,1.0591097000287846,145.18516850000015,None,ScrollDown,정답입니다,145.18516850000015,None,145.18516850000015,None,145.18516850000015,None,145.18516850000015,None,146.13907530001597,None,146.13907530001597,146.6413161000237,,,,,,,,,,,,,,,,023,2022-05-18_17h48.19.309,FishGame,2022.1.1,60.0083411670488,
,13,넌 소심해,4,Orange,A,3,3.1,ScrollDown,ScrollUp,Orange.png,1,Negative,Incongruent,0,0,0,0,,,,,,,,,,,,,0,12,12,12,,,,,,,,,,,,,,,,,,,,,,,,,,,,,,,,,,,,,,,,,,,,,,,,,,,,,,,,,,,,,,,,,,,,,,,,,,,,,,,,,,,,,1.1759259204069774,1.0616956999874674,147.26197859999957,None,ScrollDown,정답입니다,147.26197859999957,None,147.26197859999957,None,147.26197859999957,None,147.26197859999957,None,148.2224228999694,None,148.2224228999694,148.72459810000146,,,,,,,,,,,,,,,,023,2022-05-18_17h48.19.309,FishGame,2022.1.1,60.0083411670488,
,14,넌 합리적이야,2,Orange,A,5.583333333333333,4.733333333333333,ScrollDown,ScrollUp,Orange.png,1,Positive,Congruent,0,0,0,0,,,,,,,,,,,,,0,13,13,13,,,,,,,,,,,,,,,,,,,,,,,,,,,,,,,,,,,,,,,,,,,,,,,,,,,,,,,,,,,,,,,,,,,,,,,,,,,,,,,,,,,,,1.2638888905445733,0.8433349000406452,149.348813300021,None,ScrollDown,정답입니다,149.348813300021,None,149.348813300021,None,149.348813300021,None,149.348813300021,None,150.08895509998547,None,150.08895509998547,150.59115260001272,,,,,,,,,,,,,,,,023,2022-05-18_17h48.19.309,FishGame,2022.1.1,60.0083411670488,
,15,넌 무자비해,5,Green,B,2.333333333333333,2.1,ScrollUp,ScrollDown,Green.png,1,Negative,Congruent,0,0,0,0,,,,,,,,,,,,,0,14,14,14,,,,,,,,,,,,,,,,,,,,,,,,,,,,,,,,,,,,,,,,,,,,,,,,,,,,,,,,,,,,,,,,,,,,,,,,,,,,,,,,,,,,,1.8472222139437993,0.9259596000192687,151.21950559999095,None,ScrollUp,정답입니다,151.21950559999095,None,151.21950559999095,None,151.21950559999095,None,151.21950559999095,None,152.03903189999983,None,152.03903189999983,152.5390188000165,,,,,,,,,,,,,,,,023,2022-05-18_17h48.19.309,FishGame,2022.1.1,60.0083411670488,
,16,나를 보내줘,6,Orange,A,0,0,ScrollUp,ScrollDown,Orange.png,1,NonTarget,NonTarget,0,0,0,0,,,,,,,,,,,,,0,15,15,15,,,,,,,,,,,,,,,,,,,,,,,,,,,,,,,,,,,,,,,,,,,,,,,,,,,,,,,,,,,,,,,,,,,,,,,,,,,,,,,,,,,,,1.7546296268701553,1.226030300022103,153.1650723000057,None,ScrollUp,정답입니다,153.1650723000057,None,153.1650723000057,None,153.1650723000057,None,153.1650723000057,None,154.29108880000422,None,154.29108880000422,154.80576109996764,,,,,,,,,,,,,,,,023,2022-05-18_17h48.19.309,FishGame,2022.1.1,60.0083411670488,
,17,넌 현실적이야,3,Green,B,4.608695652173913,4.766666666666667,ScrollUp,ScrollDown,Green.png,1,Neutral,Neutral,0,0,0,0,,,,,,,,,,,,,0,16,16,16,,,,,,,,,,,,,,,,,,,,,,,,,,,,,,,,,,,,,,,,,,,,,,,,,,,,,,,,,,,,,,,,,,,,,,,,,,,,,,,,,,,,,1.594135800997416,1.2260543999727815,155.42093309998745,None,ScrollUp,정답입니다,155.42093309998745,None,155.42093309998745,None,155.42093309998745,None,155.42093309998745,None,156.54101990000345,None,156.54101990000345,157.05593009997392,,,,,,,,,,,,,,,,023,2022-05-18_17h48.19.309,FishGame,2022.1.1,60.0083411670488,
,18,넌 의리있어,1,Green,B,5.833333333333334,5.633333333333334,ScrollUp,ScrollDown,Green.png,1,Positive,Incongruent,0,0,0,0,,,,,,,,,,,,,0,17,17,17,,,,,,,,,,,,,,,,,,,,,,,,,,,,,,,,,,,,,,,,,,,,,,,,,,,,,,,,,,,,,,,,,,,,,,,,,,,,,,,,,,,,,1.632716049750646,0.8698067999794148,157.66614180000033,None,ScrollUp,정답입니다,157.66614180000033,None,157.66614180000033,None,157.66614180000033,None,157.66614180000033,None,158.4341874999809,None,158.4341874999809,158.93891720002284,,,,,,,,,,,,,,,,023,2022-05-18_17h48.19.309,FishGame,2022.1.1,60.0083411670488,
,19,넌 신경과민이야,5,Orange,A,2.541666666666667,2.166666666666667,ScrollDown,ScrollUp,Orange.png,1,Negative,Incongruent,0,0,0,0,,,,,,,,,,,,,0,18,18,18,,,,,,,,,,,,,,,,,,,,,,,,,,,,,,,,,,,,,,,,,,,,,,,,,,,,,,,,,,,,,,,,,,,,,,,,,,,,,,,,,,,,,1.141975313425064,1.1622735999990255,159.56544889998622,None,ScrollDown,정답입니다,159.56544889998622,None,159.56544889998622,None,159.56544889998622,None,159.56544889998622,None,160.6221293999697,None,160.6221293999697,161.12214719998883,,,,,,,,,,,,,,,,023,2022-05-18_17h48.19.309,FishGame,2022.1.1,60.0083411670488,
,20,넌 편안해,1,Orange,A,5.916666666666666,5.866666666666666,ScrollDown,ScrollUp,Orange.png,1,Positive,Congruent,0,0,0,0,,,,,,,,,,,,,0,19,19,19,,,,,,,,,,,,,,,,,,,,,,,,,,,,,,,,,,,,,,,,,,,,,,,,,,,,,,,,,,,,,,,,,,,,,,,,,,,,,,,,,,,,,1.0771604776382446,0.892449899984058,161.75032890000148,None,ScrollDown,정답입니다,161.75032890000148,None,161.75032890000148,None,161.75032890000148,None,161.75032890000148,None,162.54097560001537,None,162.54097560001537,163.03892269998323,,,,,,,,,,,,,,,,023,2022-05-18_17h48.19.309,FishGame,2022.1.1,60.0083411670488,
,21,넌 품위있어,2,Green,B,5.291666666666666,4.466666666666667,ScrollUp,ScrollDown,Green.png,1,Positive,Incongruent,0,0,0,0,,,,,,,,,,,,,0,20,20,20,,,,,,,,,,,,,,,,,,,,,,,,,,,,,,,,,,,,,,,,,,,,,,,,,,,,,,,,,,,,,,,,,,,,,,,,,,,,,,,,,,,,,1.7083333333333335,0.8253340999945067,163.66504360002,None,ScrollUp,정답입니다,163.66504360002,None,163.66504360002,None,163.66504360002,None,163.66504360002,None,164.388489999983,None,164.388489999983,164.88851680001244,,,,,,,,,,,,,,,,023,2022-05-18_17h48.19.309,FishGame,2022.1.1,60.0083411670488,
,22,넌 빈틈없어,3,Orange,A,4.833333333333333,3.966666666666667,ScrollDown,ScrollUp,Orange.png,1,Neutral,Neutral,0,0,0,0,,,,,,,,,,,,,0,21,21,21,,,,,,,,,,,,,,,,,,,,,,,,,,,,,,,,,,,,,,,,,,,,,,,,,,,,,,,,,,,,,,,,,,,,,,,,,,,,,,,,,,,,,1.1342592686414719,0.7780951000167988,165.51405180001166,None,ScrollDown,정답입니다,165.51405180001166,None,165.51405180001166,None,165.51405180001166,None,165.51405180001166,None,166.18880110001191,None,166.18880110001191,166.69102869997732,,,,,,,,,,,,,,,,023,2022-05-18_17h48.19.309,FishGame,2022.1.1,60.0083411670488,
,23,넌 상상력없어,4,Green,B,2.833333333333333,3.133333333333333,ScrollUp,ScrollDown,Green.png,1,Negative,Congruent,0,0,0,0,,,,,,,,,,,,,0,22,22,22,,,,,,,,,,,,,,,,,,,,,,,,,,,,,,,,,,,,,,,,,,,,,,,,,,,,,,,,,,,,,,,,,,,,,,,,,,,,,,,,,,,,,1.7592592686414719,0.8109019999974407,167.3133369999705,None,ScrollUp,정답입니다,167.3133369999705,None,167.3133369999705,None,167.3133369999705,None,167.3133369999705,None,168.02427250001347,None,168.02427250001347,168.52429600001778,,,,,,,,,,,,,,,,023,2022-05-18_17h48.19.309,FishGame,2022.1.1,60.0083411670488,
,24,넌 지혜로워,2,Green,B,6.333333333333334,4.633333333333334,ScrollUp,ScrollDown,Green.png,1,Positive,Incongruent,0,0,0,0,,,,,,,,,,,,,0,23,23,23,,,,,,,,,,,,,,,,,,,,,,,,,,,,,,,,,,,,,,,,,,,,,,,,,,,,,,,,,,,,,,,,,,,,,,,,,,,,,,,,,,,,,1.7083333333333335,0.8763290999922901,169.1487797999871,None,ScrollUp,정답입니다,169.1487797999871,None,169.1487797999871,None,169.1487797999871,None,169.1487797999871,None,169.92198009998538,None,169.92198009998538,170.42201099998783,,,,,,,,,,,,,,,,023,2022-05-18_17h48.19.309,FishGame,2022.1.1,60.0083411670488,
,25,넌 시끄러워,4,Orange,A,2.833333333333333,3.033333333333333,ScrollDown,ScrollUp,Orange.png,1,Negative,Incongruent,0,0,0,0,,,,,,,,,,,,,0,24,24,24,,,,,,,,,,,,,,,,,,,,,,,,,,,,,,,,,,,,,,,,,,,,,,,,,,,,,,,,,,,,,,,,,,,,,,,,,,,,,,,,,,,,,1.341049388051033,0.7592924000346102,171.05400120001286,None,ScrollDown,정답입니다,171.05400120001286,None,171.05400120001286,None,171.05400120001286,None,171.05400120001286,None,171.7049684000085,None,171.7049684000085,172.20503100001952,,,,,,,,,,,,,,,,023,2022-05-18_17h48.19.309,FishGame,2022.1.1,60.0083411670488,
,26,넌 만사태평이야,3,Green,B,4,4.333333333333333,ScrollUp,ScrollDown,Green.png,1,Neutral,Neutral,0,0,0,0,,,,,,,,,,,,,0,25,25,25,,,,,,,,,,,,,,,,,,,,,,,,,,,,,,,,,,,,,,,,,,,,,,,,,,,,,,,,,,,,,,,,,,,,,,,,,,,,,,,,,,,,,1.6157407462596893,0.7948117000050843,172.83104820002336,None,ScrollUp,정답입니다,172.83104820002336,None,172.83104820002336,None,172.83104820002336,None,172.83104820002336,None,173.52167330001248,None,173.52167330001248,174.02419630001532,,,,,,,,,,,,,,,,023,2022-05-18_17h48.19.309,FishGame,2022.1.1,60.0083411670488,
,27,넌 붙임성있어,1,Orange,A,5.708333333333333,5.633333333333334,ScrollDown,ScrollUp,Orange.png,1,Positive,Congruent,0,0,0,0,,,,,,,,,,,,,0,26,26,26,,,,,,,,,,,,,,,,,,,,,,,,,,,,,,,,,,,,,,,,,,,,,,,,,,,,,,,,,,,,,,,,,,,,,,,,,,,,,,,,,,,,,1.2515432039896646,0.8939512000069954,174.65088059997652,None,ScrollDown,정답입니다,174.65088059997652,None,174.65088059997652,None,174.65088059997652,None,174.65088059997652,None,175.440824099991,None,175.440824099991,175.94119189999765,,,,,,,,,,,,,,,,023,2022-05-18_17h48.19.309,FishGame,2022.1.1,60.0083411670488,
,28,넌 영리해,2,Orange,A,6,4.033333333333333,ScrollDown,ScrollUp,Orange.png,1,Positive,Congruent,0,0,0,0,,,,,,,,,,,,,0,27,27,27,,,,,,,,,,,,,,,,,,,,,,,,,,,,,,,,,,,,,,,,,,,,,,,,,,,,,,,,,,,,,,,,,,,,,,,,,,,,,,,,,,,,,1.3348765447735786,0.7593628999893554,176.5676779000205,None,ScrollDown,정답입니다,176.5676779000205,None,176.5676779000205,None,176.5676779000205,None,176.5676779000205,None,177.22182759997668,None,177.22182759997668,177.7218625000096,,,,,,,,,,,,,,,,023,2022-05-18_17h48.19.309,FishGame,2022.1.1,60.0083411670488,
,29,넌 열심이야,1,Green,B,6.041666666666667,5.833333333333333,ScrollUp,ScrollDown,Green.png,1,Positive,Incongruent,0,0,0,0,,,,,,,,,,,,,0,28,28,28,,,,,,,,,,,,,,,,,,,,,,,,,,,,,,,,,,,,,,,,,,,,,,,,,,,,,,,,,,,,,,,,,,,,,,,,,,,,,,,,,,,,,1.8132716069618862,0.8925349999917671,178.3538213999709,None,ScrollUp,정답입니다,178.3538213999709,None,178.3538213999709,None,178.3538213999709,None,178.3538213999709,None,179.13838849996682,None,179.13838849996682,179.6382754999795,,,,,,,,,,,,,,,,023,2022-05-18_17h48.19.309,FishGame,2022.1.1,60.0083411670488,
,30,넌 인기없어,4,Green,B,3,3.3,ScrollUp,ScrollDown,Green.png,1,Negative,Congruent,0,0,0,0,,,,,,,,,,,,,0,29,29,29,,,,,,,,,,,,,,,,,,,,,,,,,,,,,,,,,,,,,,,,,,,,,,,,,,,,,,,,,,,,,,,,,,,,,,,,,,,,,,,,,,,,,1.71296297510465,0.811457599978894,180.25906170002418,None,ScrollUp,정답입니다,180.25906170002418,None,180.25906170002418,None,180.25906170002418,None,180.25906170002418,None,180.97151790000498,None,180.97151790000498,181.47407880000537,,,,,,,,,,,,,,,,023,2022-05-18_17h48.19.309,FishGame,2022.1.1,60.0083411670488,
,31,넌 익살스러워,3,Orange,A,4.708333333333334,4.833333333333333,ScrollDown,ScrollUp,Orange.png,1,Neutral,Neutral,0,0,0,0,,,,,,,,,,,,,0,30,30,30,,,,,,,,,,,,,,,,,,,,,,,,,,,,,,,,,,,,,,,,,,,,,,,,,,,,,,,,,,,,,,,,,,,,,,,,,,,,,,,,,,,,,1.2685185074806213,0.7483838000334799,182.0977089999942,None,ScrollDown,정답입니다,182.0977089999942,None,182.0977089999942,None,182.0977089999942,None,182.0977089999942,None,182.74078410002403,None,182.74078410002403,183.24073600000702,,,,,,,,,,,,,,,,023,2022-05-18_17h48.19.309,FishGame,2022.1.1,60.0083411670488,
,32,넌 이기적이야,5,Green,B,2.291666666666667,2.333333333333333,ScrollUp,ScrollDown,Green.png,1,Negative,Congruent,0,0,0,0,,,,,,,,,,,,,0,31,31,31,,,,,,,,,,,,,,,,,,,,,,,,,,,,,,,,,,,,,,,,,,,,,,,,,,,,,,,,,,,,,,,,,,,,,,,,,,,,,,,,,,,,,1.8009259204069774,0.7272437999490649,183.85903849999886,None,ScrollUp,정답입니다,183.85903849999886,None,183.85903849999886,None,183.85903849999886,None,183.85903849999886,None,184.48871309997048,None,184.48871309997048,184.9906372000114,,,,,,,,,,,,,,,,023,2022-05-18_17h48.19.309,FishGame,2022.1.1,60.0083411670488,
,33,나를 데려가줘,6,Green,B,0,0,ScrollDown,ScrollUp,Green.png,1,NonTarget,NonTarget,0,0,0,0,,,,,,,,,,,,,0,32,32,32,,,,,,,,,,,,,,,,,,,,,,,,,,,,,,,,,,,,,,,,,,,,,,,,,,,,,,,,,,,,,,,,,,,,,,,,,,,,,,,,,,,,,1.2052469104528427,0.9755808999761939,185.61483939999016,None,ScrollDown,정답입니다,185.61483939999016,None,185.61483939999016,None,185.61483939999016,None,185.61483939999016,None,186.48827689996688,None,186.48827689996688,186.99040309997508,,,,,,,,,,,,,,,,023,2022-05-18_17h48.19.309,FishGame,2022.1.1,60.0083411670488,
,34,넌 기회주의자야,5,Orange,A,2.875,2.133333333333333,ScrollDown,ScrollUp,Orange.png,1,Negative,Incongruent,0,0,0,0,,,,,,,,,,,,,0,33,33,33,,,,,,,,,,,,,,,,,,,,,,,,,,,,,,,,,,,,,,,,,,,,,,,,,,,,,,,,,,,,,,,,,,,,,,,,,,,,,,,,,,,,,1.266975318392118,1.0949926999746822,187.61377290001838,None,ScrollDown,정답입니다,187.61377290001838,None,187.61377290001838,None,187.61377290001838,None,187.61377290001838,None,188.60715340002207,None,188.60715340002207,189.1071325999801,,,,,,,,,,,,,,,,023,2022-05-18_17h48.19.309,FishGame,2022.1.1,60.0083411670488,
,1,넌 미성숙해,4,Orange,A,3,3.2,ScrollDown,ScrollUp,Orange.png,2,Negative,Incongruent,0,0,0,0,,,,,,,,,,,,,,,,,0,0,0,0,,,,,,,,,,,,,,,,,,,,,,,,,,,,,,,,,,,,,,,,221.0542702000239,222.55659110000124,222.58993060002103,223.53985930001363,223.5898518000031,224.55654740001773,224.53988489997573,None,,,,,,,,,,,,,,,,,,,,,,,,,,,,,,,,,,1.1913580348094304,1.157016500015743,225.6324865000206,None,ScrollDown,정답입니다,225.6324865000206,None,225.6324865000206,None,225.6324865000206,None,225.6324865000206,None,226.68775470001856,None,226.68775470001856,227.18758789997082,189.60712000000058,None,189.60712000000058,None,0.26296297,-0.2175926,1,0,0,0.01583486993331462,None,219.60642129997723,None,,,023,2022-05-18_17h48.19.309,FishGame,2022.1.1,60.0083411670488,
,2,넌 반사회적이야,5,Green,B,2.416666666666667,2.033333333333333,ScrollUp,ScrollDown,Green.png,2,Negative,Congruent,0,0,0,0,,,,,,,,,,,,,,,,,0,1,1,1,,,,,,,,,,,,,,,,,,,,,,,,,,,,,,,,,,,,,,,,,,,,,,,,,,,,,,,,,,,,,,,,,,,,,,,,,,,,,,,,,1.5771604912976422,0.8278485999908298,227.80948200001149,None,ScrollUp,정답입니다,227.80948200001149,None,227.80948200001149,None,227.80948200001149,None,227.80948200001149,None,228.5373618999729,None,228.5373618999729,229.03971949999686,,,,,,,,,,,,,,,,023,2022-05-18_17h48.19.309,FishGame,2022.1.1,60.0083411670488,
,3,넌 유능해,2,Orange,A,6.208333333333333,4.433333333333334,ScrollDown,ScrollUp,Orange.png,2,Positive,Congruent,0,0,0,0,,,,,,,,,,,,,,,,,0,2,2,2,,,,,,,,,,,,,,,,,,,,,,,,,,,,,,,,,,,,,,,,,,,,,,,,,,,,,,,,,,,,,,,,,,,,,,,,,,,,,,,,,1.212962955236435,0.809240700036753,229.66868519998388,None,ScrollDown,정답입니다,229.66868519998388,None,229.66868519998388,None,229.66868519998388,None,229.66868519998388,None,230.37071350001497,None,230.37071350001497,230.87076239997987,,,,,,,,,,,,,,,,023,2022-05-18_17h48.19.309,FishGame,2022.1.1,60.0083411670488,
,4,넌 능숙해,2,Green,B,5.666666666666667,4.733333333333333,ScrollUp,ScrollDown,Green.png,2,Positive,Incongruent,0,0,0,0,,,,,,,,,,,,,,,,,0,3,3,3,,,,,,,,,,,,,,,,,,,,,,,,,,,,,,,,,,,,,,,,,,,,,,,,,,,,,,,,,,,,,,,,,,,,,,,,,,,,,,,,,1.8132716069618862,0.8256953999516554,231.4946058000205,None,ScrollUp,정답입니다,231.4946058000205,None,231.4946058000205,None,231.4946058000205,None,231.4946058000205,None,232.2210161999683,None,232.2210161999683,232.7206893999828,,,,,,,,,,,,,,,,023,2022-05-18_17h48.19.309,FishGame,2022.1.1,60.0083411670488,
,5,넌 진부해,4,Green,B,2.458333333333333,3.166666666666667,ScrollUp,ScrollDown,Green.png,2,Negative,Congruent,0,0,0,0,,,,,,,,,,,,,,,,,0,4,4,4,,,,,,,,,,,,,,,,,,,,,,,,,,,,,,,,,,,,,,,,,,,,,,,,,,,,,,,,,,,,,,,,,,,,,,,,,,,,,,,,,1.6064814875523248,0.7280975000467151,233.34362230001716,None,ScrollUp,정답입니다,233.34362230001716,None,233.34362230001716,None,233.34362230001716,None,233.34362230001716,None,233.97061949997442,None,233.97061949997442,234.47278579999693,,,,,,,,,,,,,,,,023,2022-05-18_17h48.19.309,FishGame,2022.1.1,60.0083411670488,
,6,나를 보내줘,6,Orange,A,0,0,ScrollUp,ScrollDown,Orange.png,2,NonTarget,NonTarget,0,0,0,0,,,,,,,,,,,,,,,,,0,5,5,5,,,,,,,,,,,,,,,,,,,,,,,,,,,,,,,,,,,,,,,,,,,,,,,,,,,,,,,,,,,,,,,,,,,,,,,,,,,,,,,,,1.3179012288649878,0.9424414000241086,235.09632790001342,None,ScrollDown,오답입니다,235.09632790001342,None,235.09632790001342,None,235.09632790001342,None,235.09632790001342,None,235.93727679998847,None,235.93727679998847,236.43945740000345,,,,,,,,,,,,,,,,023,2022-05-18_17h48.19.309,FishGame,2022.1.1,60.0083411670488,
,7,넌 엄격해,3,Orange,A,4.166666666666666,4.1,ScrollDown,ScrollUp,Orange.png,2,Neutral,Neutral,0,0,0,0,,,,,,,,,,,,,,,,,0,6,6,6,,,,,,,,,,,,,,,,,,,,,,,,,,,,,,,,,,,,,,,,,,,,,,,,,,,,,,,,,,,,,,,,,,,,,,,,,,,,,,,,,1.345679017404715,1.025658700033091,237.07045729999663,None,ScrollDown,정답입니다,237.07045729999663,None,237.07045729999663,None,237.07045729999663,None,237.07045729999663,None,237.98693359998288,None,237.98693359998288,238.4869905000087,,,,,,,,,,,,,,,,023,2022-05-18_17h48.19.309,FishGame,2022.1.1,60.0083411670488,
,8,나를 보내줘,6,Orange,A,0,0,ScrollUp,ScrollDown,Orange.png,2,NonTarget,NonTarget,0,0,0,0,,,,,,,,,,,,,,,,,0,7,7,7,,,,,,,,,,,,,,,,,,,,,,,,,,,,,,,,,,,,,,,,,,,,,,,,,,,,,,,,,,,,,,,,,,,,,,,,,,,,,,,,,1.5092592594834664,0.8280793000012636,239.11340269999346,None,NoResponse,무응답입니다,239.11340269999346,None,239.11340269999346,None,239.11340269999346,None,239.11340269999346,None,239.83695849997457,None,239.83695849997457,240.33953110000584,,,,,,,,,,,,,,,,023,2022-05-18_17h48.19.309,FishGame,2022.1.1,60.0083411670488,
,9,넌 대담해,3,Green,B,4.875,4.866666666666666,ScrollUp,ScrollDown,Green.png,2,Neutral,Neutral,0,0,0,0,,,,,,,,,,,,,,,,,0,8,8,8,,,,,,,,,,,,,,,,,,,,,,,,,,,,,,,,,,,,,,,,,,,,,,,,,,,,,,,,,,,,,,,,,,,,,,,,,,,,,,,,,1.8904321044683456,1.472833800013177,240.96210070000961,None,ScrollUp,정답입니다,240.96210070000961,None,240.96210070000961,None,240.96210070000961,None,240.96210070000961,None,242.3204477999825,None,242.3204477999825,242.8226484999759,,,,,,,,,,,,,,,,023,2022-05-18_17h48.19.309,FishGame,2022.1.1,60.0083411670488,
,10,넌 꾸준해,1,Orange,A,5.916666666666668,5.8,ScrollDown,ScrollUp,Orange.png,2,Positive,Congruent,0,0,0,0,,,,,,,,,,,,,,,,,0,9,9,9,,,,,,,,,,,,,,,,,,,,,,,,,,,,,,,,,,,,,,,,,,,,,,,,,,,,,,,,,,,,,,,,,,,,,,,,,,,,,,,,,1.1774691343307495,0.9444648000062443,243.44499260000885,None,ScrollDown,정답입니다,243.44499260000885,None,243.44499260000885,None,243.44499260000885,None,243.44499260000885,None,244.28927690000273,None,244.28927690000273,244.7871579999919,,,,,,,,,,,,,,,,023,2022-05-18_17h48.19.309,FishGame,2022.1.1,60.0083411670488,
,11,나를 데려가줘,6,Green,B,0,0,ScrollDown,ScrollUp,Green.png,2,NonTarget,NonTarget,0,0,0,0,,,,,,,,,,,,,,,,,0,10,10,10,,,,,,,,,,,,,,,,,,,,,,,,,,,,,,,,,,,,,,,,,,,,,,,,,,,,,,,,,,,,,,,,,,,,,,,,,,,,,,,,,1.0015431940555573,1.2257517000543885,245.41233800002374,None,ScrollDown,정답입니다,245.41233800002374,None,245.41233800002374,None,245.41233800002374,None,245.41233800002374,None,246.53700800001388,None,246.53700800001388,247.0370552999666,,,,,,,,,,,,,,,,023,2022-05-18_17h48.19.309,FishGame,2022.1.1,60.0083411670488,
,12,넌 독선적이야,5,Orange,A,2.458333333333333,1.933333333333333,ScrollDown,ScrollUp,Orange.png,2,Negative,Incongruent,0,0,0,0,,,,,,,,,,,,,,,,,0,11,11,11,,,,,,,,,,,,,,,,,,,,,,,,,,,,,,,,,,,,,,,,,,,,,,,,,,,,,,,,,,,,,,,,,,,,,,,,,,,,,,,,,1.2037036965290706,1.3795168999931775,247.66961159999482,None,ScrollDown,정답입니다,247.66961159999482,None,247.66961159999482,None,247.66961159999482,None,247.66961159999482,None,248.93700109998463,None,248.93700109998463,249.4393490999937,,,,,,,,,,,,,,,,023,2022-05-18_17h48.19.309,FishGame,2022.1.1,60.0083411670488,
,13,나를 보내줘,6,Orange,A,0,0,ScrollUp,ScrollDown,Orange.png,2,NonTarget,NonTarget,0,0,0,0,,,,,,,,,,,,,,,,,0,12,12,12,,,,,,,,,,,,,,,,,,,,,,,,,,,,,,,,,,,,,,,,,,,,,,,,,,,,,,,,,,,,,,,,,,,,,,,,,,,,,,,,,2,1.0256252000108361,250.0647006999934,None,ScrollUp,정답입니다,250.0647006999934,None,250.0647006999934,None,250.0647006999934,None,250.0647006999934,None,250.98668249999173,None,250.98668249999173,251.4868739999947,,,,,,,,,,,,,,,,023,2022-05-18_17h48.19.309,FishGame,2022.1.1,60.0083411670488,
,14,넌 책임감있어,1,Green,B,6.347826086956522,6,ScrollUp,ScrollDown,Green.png,2,Positive,Incongruent,0,0,0,0,,,,,,,,,,,,,,,,,0,13,13,13,,,,,,,,,,,,,,,,,,,,,,,,,,,,,,,,,,,,,,,,,,,,,,,,,,,,,,,,,,,,,,,,,,,,,,,,,,,,,,,,,2,1.1781442000064999,252.10782799997833,None,ScrollUp,정답입니다,252.10782799997833,None,252.10782799997833,None,252.10782799997833,None,252.10782799997833,None,253.18921490001958,None,253.18921490001958,253.6892269999953,,,,,,,,,,,,,,,,023,2022-05-18_17h48.19.309,FishGame,2022.1.1,60.0083411670488,
,15,넌 문학적이야,3,Orange,A,4.708333333333334,4.333333333333333,ScrollDown,ScrollUp,Orange.png,2,Neutral,Neutral,0,0,0,0,,,,,,,,,,,,,,,,,0,14,14,14,,,,,,,,,,,,,,,,,,,,,,,,,,,,,,,,,,,,,,,,,,,,,,,,,,,,,,,,,,,,,,,,,,,,,,,,,,,,,,,,,1,0.910924099967815,254.31491770001594,None,ScrollDown,정답입니다,254.31491770001594,None,254.31491770001594,None,254.31491770001594,None,254.31491770001594,None,255.12245640001493,None,255.12245640001493,255.62248580000596,,,,,,,,,,,,,,,,023,2022-05-18_17h48.19.309,FishGame,2022.1.1,60.0083411670488,
,16,넌 재미있어,1,Green,B,5.875,5.7,ScrollUp,ScrollDown,Green.png,2,Positive,Incongruent,0,0,0,0,,,,,,,,,,,,,,,,,0,15,15,15,,,,,,,,,,,,,,,,,,,,,,,,,,,,,,,,,,,,,,,,,,,,,,,,,,,,,,,,,,,,,,,,,,,,,,,,,,,,,,,,,2,1.009732400008943,256.24575210001785,None,ScrollUp,정답입니다,256.24575210001785,None,256.24575210001785,None,256.24575210001785,None,256.24575210001785,None,257.15347740001744,None,257.15347740001744,257.655623300001,,,,,,,,,,,,,,,,023,2022-05-18_17h48.19.309,FishGame,2022.1.1,60.0083411670488,
,17,나를 데려가줘,6,Green,B,0,0,ScrollDown,ScrollUp,Green.png,2,NonTarget,NonTarget,0,0,0,0,,,,,,,,,,,,,,,,,0,16,16,16,,,,,,,,,,,,,,,,,,,,,,,,,,,,,,,,,,,,,,,,,,,,,,,,,,,,,,,,,,,,,,,,,,,,,,,,,,,,,,,,,1.0277777810891469,1.027382000000216,258.2737298000138,None,ScrollDown,정답입니다,258.2737298000138,None,258.2737298000138,None,258.2737298000138,None,258.2737298000138,None,259.20567130000563,None,259.20567130000563,259.70345550001366,,,,,,,,,,,,,,,,023,2022-05-18_17h48.19.309,FishGame,2022.1.1,60.0083411670488,
,18,넌 협력적이야,1,Orange,A,5.625,5.633333333333334,ScrollDown,ScrollUp,Orange.png,2,Positive,Congruent,0,0,0,0,,,,,,,,,,,,,,,,,0,17,17,17,,,,,,,,,,,,,,,,,,,,,,,,,,,,,,,,,,,,,,,,,,,,,,,,,,,,,,,,,,,,,,,,,,,,,,,,,,,,,,,,,1,1.2446382999769412,260.34554000000935,None,ScrollDown,정답입니다,260.34554000000935,None,260.34554000000935,None,260.34554000000935,None,260.34554000000935,None,261.4866957999766,None,261.4866957999766,261.98885829997016,,,,,,,,,,,,,,,,023,2022-05-18_17h48.19.309,FishGame,2022.1.1,60.0083411670488,
,19,넌 평범해,3,Green,B,4.333333333333332,4.233333333333333,ScrollUp,ScrollDown,Green.png,2,Neutral,Neutral,0,0,0,0,,,,,,,,,,,,,,,,,0,18,18,18,,,,,,,,,,,,,,,,,,,,,,,,,,,,,,,,,,,,,,,,,,,,,,,,,,,,,,,,,,,,,,,,,,,,,,,,,,,,,,,,,1.9891975224018097,0.8766503999941051,262.60994330001995,None,ScrollUp,정답입니다,262.60994330001995,None,262.60994330001995,None,262.60994330001995,None,262.60994330001995,None,263.38668960001087,None,263.38668960001087,263.88889299996663,,,,,,,,,,,,,,,,023,2022-05-18_17h48.19.309,FishGame,2022.1.1,60.0083411670488,
,20,넌 오만해,5,Orange,A,2.333333333333333,2,ScrollDown,ScrollUp,Orange.png,2,Negative,Incongruent,0,0,0,0,,,,,,,,,,,,,,,,,0,19,19,19,,,,,,,,,,,,,,,,,,,,,,,,,,,,,,,,,,,,,,,,,,,,,,,,,,,,,,,,,,,,,,,,,,,,,,,,,,,,,,,,,1.2037036965290706,0.8922902000485919,264.51789519999875,None,ScrollDown,정답입니다,264.51789519999875,None,264.51789519999875,None,264.51789519999875,None,264.51789519999875,None,265.30302739999024,None,265.30302739999024,265.80310089996783,,,,,,,,,,,,,,,,023,2022-05-18_17h48.19.309,FishGame,2022.1.1,60.0083411670488,
,21,넌 운이없어,4,Green,B,3,3.466666666666667,ScrollUp,ScrollDown,Green.png,2,Negative,Congruent,0,0,0,0,,,,,,,,,,,,,,,,,0,20,20,20,,,,,,,,,,,,,,,,,,,,,,,,,,,,,,,,,,,,,,,,,,,,,,,,,,,,,,,,,,,,,,,,,,,,,,,,,,,,,,,,,1.7762345721324284,0.8112556000123732,266.4279104999732,None,ScrollUp,정답입니다,266.4279104999732,None,266.4279104999732,None,266.4279104999732,None,266.4279104999732,None,267.13661739998497,None,267.13661739998497,267.63930480001727,,,,,,,,,,,,,,,,023,2022-05-18_17h48.19.309,FishGame,2022.1.1,60.0083411670488,
,22,넌 창조적이야,2,Green,B,6.125,4.633333333333334,ScrollUp,ScrollDown,Green.png,2,Positive,Incongruent,0,0,0,0,,,,,,,,,,,,,,,,,0,21,21,21,,,,,,,,,,,,,,,,,,,,,,,,,,,,,,,,,,,,,,,,,,,,,,,,,,,,,,,,,,,,,,,,,,,,,,,,,,,,,,,,,1.9675925771395366,1.1442347000120208,268.2626496999874,None,ScrollUp,정답입니다,268.2626496999874,None,268.2626496999874,None,268.2626496999874,None,268.2626496999874,None,269.3056098999805,None,269.3056098999805,269.8055701999692,,,,,,,,,,,,,,,,023,2022-05-18_17h48.19.309,FishGame,2022.1.1,60.0083411670488,
,23,나를 보내줘,6,Orange,A,0,0,ScrollUp,ScrollDown,Orange.png,2,NonTarget,NonTarget,0,0,0,0,,,,,,,,,,,,,,,,,0,22,22,22,,,,,,,,,,,,,,,,,,,,,,,,,,,,,,,,,,,,,,,,,,,,,,,,,,,,,,,,,,,,,,,,,,,,,,,,,,,,,,,,,2,1.0942901999806054,270.42532889998984,None,ScrollUp,정답입니다,270.42532889998984,None,270.42532889998984,None,270.42532889998984,None,270.42532889998984,None,271.4198628999875,None,271.4198628999875,271.92202749999706,,,,,,,,,,,,,,,,023,2022-05-18_17h48.19.309,FishGame,2022.1.1,60.0083411670488,
,24,넌 통찰력있어,2,Orange,A,6.5,4.8,ScrollDown,ScrollUp,Orange.png,2,Positive,Congruent,0,0,0,0,,,,,,,,,,,,,,,,,0,23,23,23,,,,,,,,,,,,,,,,,,,,,,,,,,,,,,,,,,,,,,,,,,,,,,,,,,,,,,,,,,,,,,,,,,,,,,,,,,,,,,,,,1.1141975373029709,0.8092067000106908,272.551003200002,None,ScrollDown,정답입니다,272.551003200002,None,272.551003200002,None,272.551003200002,None,272.551003200002,None,273.25287149997894,None,273.25287149997894,273.75292349996744,,,,,,,,,,,,,,,,023,2022-05-18_17h48.19.309,FishGame,2022.1.1,60.0083411670488,
,25,넌 경솔해,5,Green,B,2.458333333333333,2.266666666666667,ScrollUp,ScrollDown,Green.png,2,Negative,Congruent,0,0,0,0,,,,,,,,,,,,,,,,,0,24,24,24,,,,,,,,,,,,,,,,,,,,,,,,,,,,,,,,,,,,,,,,,,,,,,,,,,,,,,,,,,,,,,,,,,,,,,,,,,,,,,,,,1.9305555423100789,0.8111079999944195,274.3791055000038,None,ScrollUp,정답입니다,274.3791055000038,None,274.3791055000038,None,274.3791055000038,None,274.3791055000038,None,275.08620540000265,None,275.08620540000265,275.5887088999734,,,,,,,,,,,,,,,,023,2022-05-18_17h48.19.309,FishGame,2022.1.1,60.0083411670488,
,26,넌 초조해,4,Orange,A,2.916666666666667,3.133333333333333,ScrollDown,ScrollUp,Orange.png,2,Negative,Incongruent,0,0,0,0,,,,,,,,,,,,,,,,,0,25,25,25,,,,,,,,,,,,,,,,,,,,,,,,,,,,,,,,,,,,,,,,,,,,,,,,,,,,,,,,,,,,,,,,,,,,,,,,,,,,,,,,,1.200617293516795,0.746125600009691,276.2084498999757,None,ScrollDown,정답입니다,276.2084498999757,None,276.2084498999757,None,276.2084498999757,None,276.2084498999757,None,276.8553046999732,None,276.8553046999732,277.3553627000074,,,,,,,,,,,,,,,,023,2022-05-18_17h48.19.309,FishGame,2022.1.1,60.0083411670488,
,27,넌 무관심해,4,Green,B,2.833333333333333,2.9,ScrollUp,ScrollDown,Green.png,2,Negative,Congruent,0,0,0,0,,,,,,,,,,,,,,,,,0,26,26,26,,,,,,,,,,,,,,,,,,,,,,,,,,,,,,,,,,,,,,,,,,,,,,,,,,,,,,,,,,,,,,,,,,,,,,,,,,,,,,,,,1.9012345770994823,0.826150199980475,277.9807466000202,None,ScrollUp,정답입니다,277.9807466000202,None,277.9807466000202,None,277.9807466000202,None,277.9807466000202,None,278.7027554999804,None,278.7027554999804,279.20281260000775,,,,,,,,,,,,,,,,023,2022-05-18_17h48.19.309,FishGame,2022.1.1,60.0083411670488,
,28,넌 감성적이야,3,Green,B,4.125,4.166666666666667,ScrollUp,ScrollDown,Green.png,2,Neutral,Neutral,0,0,0,0,,,,,,,,,,,,,,,,,0,27,27,27,,,,,,,,,,,,,,,,,,,,,,,,,,,,,,,,,,,,,,,,,,,,,,,,,,,,,,,,,,,,,,,,,,,,,,,,,,,,,,,,,1.9891975224018097,0.9945668000145815,279.8227588000009,None,ScrollUp,정답입니다,279.8227588000009,None,279.8227588000009,None,279.8227588000009,None,279.8227588000009,None,280.71941760001937,None,280.71941760001937,281.22188620001543,,,,,,,,,,,,,,,,023,2022-05-18_17h48.19.309,FishGame,2022.1.1,60.0083411670488,
,29,넌 배려심있어,1,Orange,A,6.083333333333333,5.5,ScrollDown,ScrollUp,Orange.png,2,Positive,Congruent,0,0,0,0,,,,,,,,,,,,,,,,,0,28,28,28,,,,,,,,,,,,,,,,,,,,,,,,,,,,,,,,,,,,,,,,,,,,,,,,,,,,,,,,,,,,,,,,,,,,,,,,,,,,,,,,,1.192901223897934,0.8642461000126787,281.8437275000033,None,ScrollDown,정답입니다,281.8437275000033,None,281.8437275000033,None,281.8437275000033,None,281.8437275000033,None,282.6052894999739,None,282.6052894999739,283.1052411000128,,,,,,,,,,,,,,,,023,2022-05-18_17h48.19.309,FishGame,2022.1.1,60.0083411670488,
,30,넌 숨김없어,3,Orange,A,4.5,4.933333333333334,ScrollDown,ScrollUp,Orange.png,2,Neutral,Neutral,0,0,0,0,,,,,,,,,,,,,,,,,0,29,29,29,,,,,,,,,,,,,,,,,,,,,,,,,,,,,,,,,,,,,,,,,,,,,,,,,,,,,,,,,,,,,,,,,,,,,,,,,,,,,,,,,1.0370370149612427,0.8259595000417903,283.73161550000077,None,ScrollDown,정답입니다,283.73161550000077,None,283.73161550000077,None,283.73161550000077,None,283.73161550000077,None,284.45516209997004,None,284.45516209997004,284.9550668000011,,,,,,,,,,,,,,,,023,2022-05-18_17h48.19.309,FishGame,2022.1.1,60.0083411670488,
,31,넌 훌륭해,2,Green,B,5.916666666666667,4.033333333333333,ScrollUp,ScrollDown,Green.png,2,Positive,Incongruent,0,0,0,0,,,,,,,,,,,,,,,,,0,30,30,30,,,,,,,,,,,,,,,,,,,,,,,,,,,,,,,,,,,,,,,,,,,,,,,,,,,,,,,,,,,,,,,,,,,,,,,,,,,,,,,,,1.858024686574936,0.9443373000249267,285.5924004999688,None,ScrollUp,정답입니다,285.5924004999688,None,285.5924004999688,None,285.5924004999688,None,285.5924004999688,None,286.43592840002384,None,286.43592840002384,286.93598760000896,,,,,,,,,,,,,,,,023,2022-05-18_17h48.19.309,FishGame,2022.1.1,60.0083411670488,
,32,넌 슬기로워,2,Orange,A,6.166666666666667,4.1,ScrollDown,ScrollUp,Orange.png,2,Positive,Congruent,0,0,0,0,,,,,,,,,,,,,,,,,0,31,31,31,,,,,,,,,,,,,,,,,,,,,,,,,,,,,,,,,,,,,,,,,,,,,,,,,,,,,,,,,,,,,,,,,,,,,,,,,,,,,,,,,1.1913580348094304,0.8789742999942973,287.55613260000246,None,ScrollDown,정답입니다,287.55613260000246,None,287.55613260000246,None,287.55613260000246,None,287.55613260000246,None,288.3359271999798,None,288.3359271999798,288.8385147000081,,,,,,,,,,,,,,,,023,2022-05-18_17h48.19.309,FishGame,2022.1.1,60.0083411670488,
,33,넌 냉혹해,5,Orange,A,2.583333333333333,2.1,ScrollDown,ScrollUp,Orange.png,2,Negative,Incongruent,0,0,0,0,,,,,,,,,,,,,,,,,0,32,32,32,,,,,,,,,,,,,,,,,,,,,,,,,,,,,,,,,,,,,,,,,,,,,,,,,,,,,,,,,,,,,,,,,,,,,,,,,,,,,,,,,2,0.7778879999532364,289.4622975999955,None,ScrollUp,오답입니다,289.4622975999955,None,289.4622975999955,None,289.4622975999955,None,289.4622975999955,None,290.1384451999911,None,290.1384451999911,290.641616399982,,,,,,,,,,,,,,,,023,2022-05-18_17h48.19.309,FishGame,2022.1.1,60.0083411670488,
,34,나를 데려가줘,6,Green,B,0,0,ScrollDown,ScrollUp,Green.png,2,NonTarget,NonTarget,0,0,0,0,,,,,,,,,,,,,,,,,0,33,33,33,,,,,,,,,,,,,,,,,,,,,,,,,,,,,,,,,,,,,,,,,,,,,,,,,,,,,,,,,,,,,,,,,,,,,,,,,,,,,,,,,1.0756172637144725,1.1594673999934457,291.25757720001275,None,ScrollDown,정답입니다,291.25757720001275,None,291.25757720001275,None,291.25757720001275,None,291.25757720001275,None,292.3194434000179,None,292.3194434000179,292.82160319999093,,,,,,,,,,,,,,,,023,2022-05-18_17h48.19.309,FishGame,2022.1.1,60.0083411670488,
,35,넌 편파적이야,5,Green,B,2.125,2,ScrollUp,ScrollDown,Green.png,2,Negative,Congruent,0,0,0,0,,,,,,,,,,,,,,,,,0,34,34,34,,,,,,,,,,,,,,,,,,,,,,,,,,,,,,,,,,,,,,,,,,,,,,,,,,,,,,,,,,,,,,,,,,,,,,,,,,,,,,,,,2,0.9757647000369616,293.4457184000057,None,ScrollUp,정답입니다,293.4457184000057,None,293.4457184000057,None,293.4457184000057,None,293.4457184000057,None,294.3193262999994,None,294.3193262999994,294.821478799975,,,,,,,,,,,,,,,,023,2022-05-18_17h48.19.309,FishGame,2022.1.1,60.0083411670488,
,36,넌 슬퍼,4,Orange,A,2.583333333333333,3.066666666666667,ScrollDown,ScrollUp,Orange.png,2,Negative,Incongruent,0,0,0,0,,,,,,,,,,,,,,,,,0,35,35,35,,,,,,,,,,,,,,,,,,,,,,,,,,,,,,,,,,,,,,,,,,,,,,,,,,,,,,,,,,,,,,,,,,,,,,,,,,,,,,,,,1.0617283880710602,1.2095563000184484,295.44301879999693,None,ScrollDown,정답입니다,295.44301879999693,None,295.44301879999693,None,295.44301879999693,None,295.44301879999693,None,296.5548490000074,None,296.5548490000074,297.05490489996737,,,,,,,,,,,,,,,,023,2022-05-18_17h48.19.309,FishGame,2022.1.1,60.0083411670488,
,37,나를 데려가줘,6,Green,B,0,0,ScrollDown,ScrollUp,Green.png,2,NonTarget,NonTarget,0,0,0,0,,,,,,,,,,,,,,,,,0,36,36,36,,,,,,,,,,,,,,,,,,,,,,,,,,,,,,,,,,,,,,,,,,,,,,,,,,,,,,,,,,,,,,,,,,,,,,,,,,,,,,,,,1.1327160547176998,1.2091708999942057,297.6757553999778,None,ScrollDown,정답입니다,297.6757553999778,None,297.6757553999778,None,297.6757553999778,None,297.6757553999778,None,298.78595170000335,None,298.78595170000335,299.28604560001986,,,,,,,,,,,,,,,,023,2022-05-18_17h48.19.309,FishGame,2022.1.1,60.0083411670488,
,38,넌 친절해,1,Green,B,6.041666666666667,5.533333333333333,ScrollUp,ScrollDown,Green.png,2,Positive,Incongruent,0,0,0,0,,,,,,,,,,,,,,,,,0,37,37,37,,,,,,,,,,,,,,,,,,,,,,,,,,,,,,,,,,,,,,,,,,,,,,,,,,,,,,,,,,,,,,,,,,,,,,,,,,,,,,,,,2,1.05924309999682,299.91282259998843,None,ScrollUp,정답입니다,299.91282259998843,None,299.91282259998843,None,299.91282259998843,None,299.91282259998843,None,300.86924660002114,None,300.86924660002114,301.36914439999964,,,,,,,,,,,,,,,,023,2022-05-18_17h48.19.309,FishGame,2022.1.1,60.0083411670488,
,1,넌 엉성해,4,Orange,A,3,3.3,ScrollDown,ScrollUp,Orange.png,3,Negative,Incongruent,0,0,0,0,,,,,,,,,,,,,,,,,,,,,0,0,0,0,,,,,,,,,,,,,,,,,,,,,,,,,,,,,,,,,,,,332.9241150000016,334.4375803999719,334.4518648000085,335.4042660999694,335.4542468999862,336.4042421000195,336.4042421000195,None,,,,,,,,,,,,,,,,,,,,,,,,,,,,,,,,,,1.160493830839793,1.162308499973733,337.4913967999746,None,ScrollDown,정답입니다,337.4913967999746,None,337.4913967999746,None,337.4913967999746,None,337.4913967999746,None,338.5539679999929,None,338.5539679999929,339.0540590999881,301.8714817999862,None,301.8714817999862,None,0.25555557,-0.13425925,1,0,0,0.01642637007171288,None,331.88756990002,None,,,023,2022-05-18_17h48.19.309,FishGame,2022.1.1,60.0083411670488,
,2,나를 보내줘,6,Orange,A,0,0,ScrollUp,ScrollDown,Orange.png,3,NonTarget,NonTarget,0,0,0,0,,,,,,,,,,,,,,,,,,,,,0,1,1,1,,,,,,,,,,,,,,,,,,,,,,,,,,,,,,,,,,,,,,,,,,,,,,,,,,,,,,,,,,,,,,,,,,,,,,,,,,,,,1.9212963084379833,1.2592513000126928,339.6766642999719,None,ScrollUp,정답입니다,339.6766642999719,None,339.6766642999719,None,339.6766642999719,None,339.6766642999719,None,340.83503800001927,None,340.83503800001927,341.33723309997004,,,,,,,,,,,,,,,,023,2022-05-18_17h48.19.309,FishGame,2022.1.1,60.0083411670488,
,3,넌 활발해,1,Green,B,5.666666666666667,5.6,ScrollUp,ScrollDown,Green.png,3,Positive,Incongruent,0,0,0,0,,,,,,,,,,,,,,,,,,,,,0,2,2,2,,,,,,,,,,,,,,,,,,,,,,,,,,,,,,,,,,,,,,,,,,,,,,,,,,,,,,,,,,,,,,,,,,,,,,,,,,,,,1.9320987562338512,0.8928690999746323,341.96001599996816,None,ScrollUp,정답입니다,341.96001599996816,None,341.96001599996816,None,341.96001599996816,None,341.96001599996816,None,342.7539044999867,None,342.7539044999867,343.2539225000073,,,,,,,,,,,,,,,,023,2022-05-18_17h48.19.309,FishGame,2022.1.1,60.0083411670488,
,4,넌 논리적이야,2,Orange,A,5.666666666666666,4.633333333333334,ScrollDown,ScrollUp,Orange.png,3,Positive,Congruent,0,0,0,0,,,,,,,,,,,,,,,,,,,,,0,3,3,3,,,,,,,,,,,,,,,,,,,,,,,,,,,,,,,,,,,,,,,,,,,,,,,,,,,,,,,,,,,,,,,,,,,,,,,,,,,,,1.2453703731298447,0.792278399982024,343.88422220002394,None,ScrollDown,정답입니다,343.88422220002394,None,343.88422220002394,None,343.88422220002394,None,343.88422220002394,None,344.5705353000085,None,344.5705353000085,345.070516399981,,,,,,,,,,,,,,,,023,2022-05-18_17h48.19.309,FishGame,2022.1.1,60.0083411670488,
,5,넌 과묵해,3,Orange,A,3.875,4.4,ScrollDown,ScrollUp,Orange.png,3,Neutral,Neutral,0,0,0,0,,,,,,,,,,,,,,,,,,,,,0,4,4,4,,,,,,,,,,,,,,,,,,,,,,,,,,,,,,,,,,,,,,,,,,,,,,,,,,,,,,,,,,,,,,,,,,,,,,,,,,,,,1.120370368162791,0.7761095000314526,345.69492869998794,None,ScrollDown,정답입니다,345.69492869998794,None,345.69492869998794,None,345.69492869998794,None,345.69492869998794,None,346.3704807999893,None,346.3704807999893,346.88497760001337,,,,,,,,,,,,,,,,023,2022-05-18_17h48.19.309,FishGame,2022.1.1,60.0083411670488,
,6,나를 데려가줘,6,Green,B,0,0,ScrollDown,ScrollUp,Green.png,3,NonTarget,NonTarget,0,0,0,0,,,,,,,,,,,,,,,,,,,,,0,5,5,5,,,,,,,,,,,,,,,,,,,,,,,,,,,,,,,,,,,,,,,,,,,,,,,,,,,,,,,,,,,,,,,,,,,,,,,,,,,,,1.1635802586873372,1.0596511000185274,347.508124999993,None,ScrollDown,정답입니다,347.508124999993,None,347.508124999993,None,347.508124999993,None,347.508124999993,None,348.4682208999875,None,348.4682208999875,348.9704113000189,,,,,,,,,,,,,,,,023,2022-05-18_17h48.19.309,FishGame,2022.1.1,60.0083411670488,
,7,넌 미숙해,4,Green,B,3,3,ScrollUp,ScrollDown,Green.png,3,Negative,Congruent,0,0,0,0,,,,,,,,,,,,,,,,,,,,,0,6,6,6,,,,,,,,,,,,,,,,,,,,,,,,,,,,,,,,,,,,,,,,,,,,,,,,,,,,,,,,,,,,,,,,,,,,,,,,,,,,,1.5833333345750966,0.9762822999618948,349.5899583999999,None,ScrollUp,정답입니다,349.5899583999999,None,349.5899583999999,None,349.5899583999999,None,349.5899583999999,None,350.4682451999979,None,350.4682451999979,350.970453499991,,,,,,,,,,,,,,,,023,2022-05-18_17h48.19.309,FishGame,2022.1.1,60.0083411670488,
,8,나를 보내줘,6,Orange,A,0,0,ScrollUp,ScrollDown,Orange.png,3,NonTarget,NonTarget,0,0,0,0,,,,,,,,,,,,,,,,,,,,,0,7,7,7,,,,,,,,,,,,,,,,,,,,,,,,,,,,,,,,,,,,,,,,,,,,,,,,,,,,,,,,,,,,,,,,,,,,,,,,,,,,,1.8749999900658925,1.0935961999930441,351.5905239999993,None,ScrollUp,정답입니다,351.5905239999993,None,351.5905239999993,None,351.5905239999993,None,351.5905239999993,None,352.58483160001924,None,352.58483160001924,353.0869574000244,,,,,,,,,,,,,,,,023,2022-05-18_17h48.19.309,FishGame,2022.1.1,60.0083411670488,
,9,넌 자신만만해,3,Green,B,4.833333333333334,4.333333333333333,ScrollUp,ScrollDown,Green.png,3,Neutral,Neutral,0,0,0,0,,,,,,,,,,,,,,,,,,,,,0,8,8,8,,,,,,,,,,,,,,,,,,,,,,,,,,,,,,,,,,,,,,,,,,,,,,,,,,,,,,,,,,,,,,,,,,,,,,,,,,,,,1.9922839502493541,1.1453144999686629,353.704751799989,None,ScrollUp,정답입니다,353.704751799989,None,353.704751799989,None,353.704751799989,None,353.704751799989,None,354.75144919997547,None,354.75144919997547,355.2536172000109,,,,,,,,,,,,,,,,023,2022-05-18_17h48.19.309,FishGame,2022.1.1,60.0083411670488,
,10,넌 탐욕스러워,5,Orange,A,2.25,2.1,ScrollDown,ScrollUp,Orange.png,3,Negative,Incongruent,0,0,0,0,,,,,,,,,,,,,,,,,,,,,0,9,9,9,,,,,,,,,,,,,,,,,,,,,,,,,,,,,,,,,,,,,,,,,,,,,,,,,,,,,,,,,,,,,,,,,,,,,,,,,,,,,1.2716049353281655,0.759390200022608,355.88087270001415,None,ScrollDown,정답입니다,355.88087270001415,None,355.88087270001415,None,355.88087270001415,None,355.88087270001415,None,356.53479389997665,None,356.53479389997665,357.04010220000055,,,,,,,,,,,,,,,,023,2022-05-18_17h48.19.309,FishGame,2022.1.1,60.0083411670488,
,11,넌 인기있어,2,Orange,A,5.458333333333333,4.5,ScrollDown,ScrollUp,Orange.png,3,Positive,Congruent,0,0,0,0,,,,,,,,,,,,,,,,,,,,,0,10,10,10,,,,,,,,,,,,,,,,,,,,,,,,,,,,,,,,,,,,,,,,,,,,,,,,,,,,,,,,,,,,,,,,,,,,,,,,,,,,,1.1296296268701553,0.8259421000257134,357.6604540999979,None,ScrollDown,정답입니다,357.6604540999979,None,357.6604540999979,None,357.6604540999979,None,357.6604540999979,None,358.38465889997315,None,358.38465889997315,358.88472819997696,,,,,,,,,,,,,,,,023,2022-05-18_17h48.19.309,FishGame,2022.1.1,60.0083411670488,
,12,나를 데려가줘,6,Green,B,0,0,ScrollDown,ScrollUp,Green.png,3,NonTarget,NonTarget,0,0,0,0,,,,,,,,,,,,,,,,,,,,,0,11,11,11,,,,,,,,,,,,,,,,,,,,,,,,,,,,,,,,,,,,,,,,,,,,,,,,,,,,,,,,,,,,,,,,,,,,,,,,,,,,,1.0200617114702861,1.009478299994953,359.51219360000687,None,ScrollDown,정답입니다,359.51219360000687,None,359.51219360000687,None,359.51219360000687,None,359.51219360000687,None,360.41802089998964,None,360.41802089998964,360.91834430000745,,,,,,,,,,,,,,,,023,2022-05-18_17h48.19.309,FishGame,2022.1.1,60.0083411670488,
,13,넌 뛰어나,2,Green,B,6.166666666666667,4,ScrollUp,ScrollDown,Green.png,3,Positive,Incongruent,0,0,0,0,,,,,,,,,,,,,,,,,,,,,0,12,12,12,,,,,,,,,,,,,,,,,,,,,,,,,,,,,,,,,,,,,,,,,,,,,,,,,,,,,,,,,,,,,,,,,,,,,,,,,,,,,1.7006172885497413,0.9586802999838255,361.5494529000134,None,ScrollUp,정답입니다,361.5494529000134,None,361.5494529000134,None,361.5494529000134,None,361.5494529000134,None,362.40101059997687,None,362.40101059997687,362.90108229999896,,,,,,,,,,,,,,,,023,2022-05-18_17h48.19.309,FishGame,2022.1.1,60.0083411670488,
,14,넌 낙관적이야,1,Orange,A,5.75,5.8,ScrollDown,ScrollUp,Orange.png,3,Positive,Congruent,0,0,0,0,,,,,,,,,,,,,,,,,,,,,0,13,13,13,,,,,,,,,,,,,,,,,,,,,,,,,,,,,,,,,,,,,,,,,,,,,,,,,,,,,,,,,,,,,,,,,,,,,,,,,,,,,1.256172845760981,0.846711799968034,363.5263903000159,None,ScrollDown,정답입니다,363.5263903000159,None,363.5263903000159,None,363.5263903000159,None,363.5263903000159,None,364.2701758000185,None,364.2701758000185,364.7702018999844,,,,,,,,,,,,,,,,023,2022-05-18_17h48.19.309,FishGame,2022.1.1,60.0083411670488,
,15,넌 산만해,4,Green,B,2.695652173913043,3.033333333333333,ScrollUp,ScrollDown,Green.png,3,Negative,Congruent,0,0,0,0,,,,,,,,,,,,,,,,,,,,,0,14,14,14,,,,,,,,,,,,,,,,,,,,,,,,,,,,,,,,,,,,,,,,,,,,,,,,,,,,,,,,,,,,,,,,,,,,,,,,,,,,,1.858024686574936,0.8791846999665722,365.3891698999796,None,ScrollUp,정답입니다,365.3891698999796,None,365.3891698999796,None,365.3891698999796,None,365.3891698999796,None,366.1702709000092,None,366.1702709000092,366.67023009998957,,,,,,,,,,,,,,,,023,2022-05-18_17h48.19.309,FishGame,2022.1.1,60.0083411670488,
,16,나를 보내줘,6,Orange,A,0,0,ScrollUp,ScrollDown,Orange.png,3,NonTarget,NonTarget,0,0,0,0,,,,,,,,,,,,,,,,,,,,,0,15,15,15,,,,,,,,,,,,,,,,,,,,,,,,,,,,,,,,,,,,,,,,,,,,,,,,,,,,,,,,,,,,,,,,,,,,,,,,,,,,,1.9367283980051677,1.1093792999745347,367.3083486999967,None,ScrollUp,정답입니다,367.3083486999967,None,367.3083486999967,None,367.3083486999967,None,367.3083486999967,None,368.3178743000026,None,368.3178743000026,368.8200463000103,,,,,,,,,,,,,,,,023,2022-05-18_17h48.19.309,FishGame,2022.1.1,60.0083411670488,
,17,넌 교활해,5,Green,B,2.333333333333333,2.133333333333333,ScrollUp,ScrollDown,Green.png,3,Negative,Congruent,0,0,0,0,,,,,,,,,,,,,,,,,,,,,0,16,16,16,,,,,,,,,,,,,,,,,,,,,,,,,,,,,,,,,,,,,,,,,,,,,,,,,,,,,,,,,,,,,,,,,,,,,,,,,,,,,1.8873456766208012,1.0780472999904305,369.4390041999868,None,ScrollUp,정답입니다,369.4390041999868,None,369.4390041999868,None,369.4390041999868,None,369.4390041999868,None,370.4177786000073,None,370.4177786000073,370.9177775999997,,,,,,,,,,,,,,,,023,2022-05-18_17h48.19.309,FishGame,2022.1.1,60.0083411670488,
,18,나를 보내줘,6,Orange,A,0,0,ScrollUp,ScrollDown,Orange.png,3,NonTarget,NonTarget,0,0,0,0,,,,,,,,,,,,,,,,,,,,,0,17,17,17,,,,,,,,,,,,,,,,,,,,,,,,,,,,,,,,,,,,,,,,,,,,,,,,,,,,,,,,,,,,,,,,,,,,,,,,,,,,,1.9490740597248077,0.9936761999852024,371.53970999998273,None,ScrollUp,정답입니다,371.53970999998273,None,371.53970999998273,None,371.53970999998273,None,371.53970999998273,None,372.43444769998314,None,372.43444769998314,372.9366432999959,,,,,,,,,,,,,,,,023,2022-05-18_17h48.19.309,FishGame,2022.1.1,60.0083411670488,
,19,넌 불친절해,5,Green,B,2.208333333333333,2.033333333333333,ScrollUp,ScrollDown,Green.png,3,Negative,Congruent,0,0,0,0,,,,,,,,,,,,,,,,,,,,,0,18,18,18,,,,,,,,,,,,,,,,,,,,,,,,,,,,,,,,,,,,,,,,,,,,,,,,,,,,,,,,,,,,,,,,,,,,,,,,,,,,,1.9861110945542653,1.059309399977792,373.56111080001574,None,ScrollUp,정답입니다,373.56111080001574,None,373.56111080001574,None,373.56111080001574,None,373.56111080001574,None,374.51772160001565,None,374.51772160001565,375.0177715999889,,,,,,,,,,,,,,,,023,2022-05-18_17h48.19.309,FishGame,2022.1.1,60.0083411670488,
,20,넌 지적이야,2,Green,B,5.75,4.366666666666666,ScrollUp,ScrollDown,Green.png,3,Positive,Incongruent,0,0,0,0,,,,,,,,,,,,,,,,,,,,,0,19,19,19,,,,,,,,,,,,,,,,,,,,,,,,,,,,,,,,,,,,,,,,,,,,,,,,,,,,,,,,,,,,,,,,,,,,,,,,,,,,,2,1.009257500001695,375.6433796000201,None,ScrollUp,정답입니다,375.6433796000201,None,375.6433796000201,None,375.6433796000201,None,375.6433796000201,None,376.5510233999812,None,376.5510233999812,377.0509227999719,,,,,,,,,,,,,,,,023,2022-05-18_17h48.19.309,FishGame,2022.1.1,60.0083411670488,
,21,넌 우유부단해,4,Orange,A,2.666666666666667,3.166666666666667,ScrollDown,ScrollUp,Orange.png,3,Negative,Incongruent,0,0,0,0,,,,,,,,,,,,,,,,,,,,,0,20,20,20,,,,,,,,,,,,,,,,,,,,,,,,,,,,,,,,,,,,,,,,,,,,,,,,,,,,,,,,,,,,,,,,,,,,,,,,,,,,,1.2932098805904388,0.8422453999519348,377.6833297999692,None,ScrollDown,정답입니다,377.6833297999692,None,377.6833297999692,None,377.6833297999692,None,377.6833297999692,None,378.4173519000178,None,378.4173519000178,378.91742870002054,,,,,,,,,,,,,,,,023,2022-05-18_17h48.19.309,FishGame,2022.1.1,60.0083411670488,
,22,나를 데려가줘,6,Green,B,0,0,ScrollDown,ScrollUp,Green.png,3,NonTarget,NonTarget,0,0,0,0,,,,,,,,,,,,,,,,,,,,,0,21,21,21,,,,,,,,,,,,,,,,,,,,,,,,,,,,,,,,,,,,,,,,,,,,,,,,,,,,,,,,,,,,,,,,,,,,,,,,,,,,,1,1.145031099964399,379.5394484999706,None,ScrollDown,정답입니다,379.5394484999706,None,379.5394484999706,None,379.5394484999706,None,379.5394484999706,None,380.58653889998095,None,380.58653889998095,381.08683280000696,,,,,,,,,,,,,,,,023,2022-05-18_17h48.19.309,FishGame,2022.1.1,60.0083411670488,
,23,넌 성실해,1,Green,B,6.041666666666666,5.7,ScrollUp,ScrollDown,Green.png,3,Positive,Incongruent,0,0,0,0,,,,,,,,,,,,,,,,,,,,,0,22,22,22,,,,,,,,,,,,,,,,,,,,,,,,,,,,,,,,,,,,,,,,,,,,,,,,,,,,,,,,,,,,,,,,,,,,,,,,,,,,,2,0.912980199966114,381.70223539997824,None,ScrollUp,정답입니다,381.70223539997824,None,381.70223539997824,None,381.70223539997824,None,381.70223539997824,None,382.523056200007,None,382.523056200007,383.0363825999666,,,,,,,,,,,,,,,,023,2022-05-18_17h48.19.309,FishGame,2022.1.1,60.0083411670488,
,24,넌 현실주의적이야,3,Orange,A,4.625,4.4,ScrollDown,ScrollUp,Orange.png,3,Neutral,Neutral,0,0,0,0,,,,,,,,,,,,,,,,,,,,,0,23,23,23,,,,,,,,,,,,,,,,,,,,,,,,,,,,,,,,,,,,,,,,,,,,,,,,,,,,,,,,,,,,,,,,,,,,,,,,,,,,,1.160493830839793,0.9932173999841325,383.6587811000063,None,ScrollDown,정답입니다,383.6587811000063,None,383.6587811000063,None,383.6587811000063,None,383.6587811000063,None,384.55303359997924,None,384.55303359997924,385.05303379998077,,,,,,,,,,,,,,,,023,2022-05-18_17h48.19.309,FishGame,2022.1.1,60.0083411670488,
,25,넌 진실돼,1,Orange,A,6.625,5.566666666666666,ScrollDown,ScrollUp,Orange.png,3,Positive,Congruent,0,0,0,0,,,,,,,,,,,,,,,,,,,,,0,24,24,24,,,,,,,,,,,,,,,,,,,,,,,,,,,,,,,,,,,,,,,,,,,,,,,,,,,,,,,,,,,,,,,,,,,,,,,,,,,,,1.1095678955316544,0.9928718999726698,385.6901863000239,None,ScrollDown,정답입니다,385.6901863000239,None,385.6901863000239,None,385.6901863000239,None,385.6901863000239,None,386.56718459998956,None,386.56718459998956,387.06724160001613,,,,,,,,,,,,,,,,023,2022-05-18_17h48.19.309,FishGame,2022.1.1,60.0083411670488,
,26,넌 천진난만해,3,Green,B,4.958333333333334,4.833333333333333,ScrollUp,ScrollDown,Green.png,3,Neutral,Neutral,0,0,0,0,,,,,,,,,,,,,,,,,,,,,0,25,25,25,,,,,,,,,,,,,,,,,,,,,,,,,,,,,,,,,,,,,,,,,,,,,,,,,,,,,,,,,,,,,,,,,,,,,,,,,,,,,2,1.0615953999804333,387.69246280001244,None,ScrollUp,정답입니다,387.69246280001244,None,387.69246280001244,None,387.69246280001244,None,387.69246280001244,None,388.6530325000058,None,388.6530325000058,389.15301239996916,,,,,,,,,,,,,,,,023,2022-05-18_17h48.19.309,FishGame,2022.1.1,60.0083411670488,
,27,넌 교양없어,5,Orange,A,2.416666666666667,2.2,ScrollDown,ScrollUp,Orange.png,3,Negative,Incongruent,0,0,0,0,,,,,,,,,,,,,,,,,,,,,0,26,26,26,,,,,,,,,,,,,,,,,,,,,,,,,,,,,,,,,,,,,,,,,,,,,,,,,,,,,,,,,,,,,,,,,,,,,,,,,,,,,1.080246905485789,0.89591510000173,389.77406059997156,None,ScrollDown,정답입니다,389.77406059997156,None,389.77406059997156,None,389.77406059997156,None,389.77406059997156,None,390.5696754999808,None,390.5696754999808,391.07284380000783,,,,,,,,,,,,,,,,023,2022-05-18_17h48.19.309,FishGame,2022.1.1,60.0083411670488,
,28,나를 보내줘,6,Orange,A,0,0,ScrollUp,ScrollDown,Orange.png,3,NonTarget,NonTarget,0,0,0,0,,,,,,,,,,,,,,,,,,,,,0,27,27,27,,,,,,,,,,,,,,,,,,,,,,,,,,,,,,,,,,,,,,,,,,,,,,,,,,,,,,,,,,,,,,,,,,,,,,,,,,,,,1.8611111144224803,0.9923619999899529,391.6941661000019,None,ScrollUp,정답입니다,391.6941661000019,None,391.6941661000019,None,391.6941661000019,None,391.6941661000019,None,392.5840145999682,None,392.5840145999682,393.08624079998117,,,,,,,,,,,,,,,,023,2022-05-18_17h48.19.309,FishGame,2022.1.1,60.0083411670488,
,29,넌 엉뚱스러워,3,Orange,A,4.166666666666667,4.133333333333334,ScrollDown,ScrollUp,Orange.png,3,Neutral,Neutral,0,0,0,0,,,,,,,,,,,,,,,,,,,,,0,28,28,28,,,,,,,,,,,,,,,,,,,,,,,,,,,,,,,,,,,,,,,,,,,,,,,,,,,,,,,,,,,,,,,,,,,,,,,,,,,,,1.1558641890684764,0.876096999971196,393.7105157999904,None,ScrollDown,정답입니다,393.7105157999904,None,393.7105157999904,None,393.7105157999904,None,393.7105157999904,None,394.48391850001644,None,394.48391850001644,394.9839776000008,,,,,,,,,,,,,,,,023,2022-05-18_17h48.19.309,FishGame,2022.1.1,60.0083411670488,
,30,넌 무지해,4,Green,B,2.541666666666667,3.066666666666667,ScrollUp,ScrollDown,Green.png,3,Negative,Congruent,0,0,0,0,,,,,,,,,,,,,,,,,,,,,0,29,29,29,,,,,,,,,,,,,,,,,,,,,,,,,,,,,,,,,,,,,,,,,,,,,,,,,,,,,,,,,,,,,,,,,,,,,,,,,,,,,1.9120370248953502,0.9092863000114448,395.6074988999753,None,ScrollUp,정답입니다,395.6074988999753,None,395.6074988999753,None,395.6074988999753,None,395.6074988999753,None,396.41940319997957,None,396.41940319997957,396.91947209998034,,,,,,,,,,,,,,,,023,2022-05-18_17h48.19.309,FishGame,2022.1.1,60.0083411670488,
,31,넌 음울해,5,Green,B,2.25,2.233333333333333,ScrollUp,ScrollDown,Green.png,3,Negative,Congruent,0,0,0,0,,,,,,,,,,,,,,,,,,,,,0,30,30,30,,,,,,,,,,,,,,,,,,,,,,,,,,,,,,,,,,,,,,,,,,,,,,,,,,,,,,,,,,,,,,,,,,,,,,,,,,,,,1.9722222189108531,0.8756661999505013,397.54545729997335,None,ScrollUp,정답입니다,397.54545729997335,None,397.54545729997335,None,397.54545729997335,None,397.54545729997335,None,398.31694350001635,None,398.31694350001635,398.81699809996644,,,,,,,,,,,,,,,,023,2022-05-18_17h48.19.309,FishGame,2022.1.1,60.0083411670488,
,32,넌 냉소적이야,5,Orange,A,2.916666666666667,2.4,ScrollDown,ScrollUp,Orange.png,3,Negative,Incongruent,0,0,0,0,,,,,,,,,,,,,,,,,,,,,0,31,31,31,,,,,,,,,,,,,,,,,,,,,,,,,,,,,,,,,,,,,,,,,,,,,,,,,,,,,,,,,,,,,,,,,,,,,,,,,,,,,1.1496913582086563,0.9280747000011615,399.4368429000024,None,ScrollDown,정답입니다,399.4368429000024,None,399.4368429000024,None,399.4368429000024,None,399.4368429000024,None,400.26717750000535,None,400.26717750000535,400.76950370002305,,,,,,,,,,,,,,,,023,2022-05-18_17h48.19.309,FishGame,2022.1.1,60.0083411670488,
,33,나를 데려가줘,6,Green,B,0,0,ScrollDown,ScrollUp,Green.png,3,NonTarget,NonTarget,0,0,0,0,,,,,,,,,,,,,,,,,,,,,0,32,32,32,,,,,,,,,,,,,,,,,,,,,,,,,,,,,,,,,,,,,,,,,,,,,,,,,,,,,,,,,,,,,,,,,,,,,,,,,,,,,1.1496913582086563,1.1630957000306807,401.3878945999895,None,ScrollDown,정답입니다,401.3878945999895,None,401.3878945999895,None,401.3878945999895,None,401.3878945999895,None,402.4527447000146,None,402.4527447000146,402.952589499997,,,,,,,,,,,,,,,,023,2022-05-18_17h48.19.309,FishGame,2022.1.1,60.0083411670488,
,34,넌 쾌활해,1,Orange,A,5.541666666666666,5.733333333333333,ScrollDown,ScrollUp,Orange.png,3,Positive,Congruent,0,0,0,0,,,,,,,,,,,,,,,,,,,,,0,33,33,33,,,,,,,,,,,,,,,,,,,,,,,,,,,,,,,,,,,,,,,,,,,,,,,,,,,,,,,,,,,,,,,,,,,,,,,,,,,,,1.140432099501292,1.0591953999828547,403.57830829999875,None,ScrollDown,정답입니다,403.57830829999875,None,403.57830829999875,None,403.57830829999875,None,403.57830829999875,None,404.5337803000002,None,404.5337803000002,405.03598789998796,,,,,,,,,,,,,,,,023,2022-05-18_17h48.19.309,FishGame,2022.1.1,60.0083411670488,
,35,나를 보내줘,6,Orange,A,0,0,ScrollUp,ScrollDown,Orange.png,3,NonTarget,NonTarget,0,0,0,0,,,,,,,,,,,,,,,,,,,,,0,34,34,34,,,,,,,,,,,,,,,,,,,,,,,,,,,,,,,,,,,,,,,,,,,,,,,,,,,,,,,,,,,,,,,,,,,,,,,,,,,,,2,1.142576000012923,405.65972459997283,None,ScrollUp,정답입니다,405.65972459997283,None,405.65972459997283,None,405.65972459997283,None,405.65972459997283,None,406.7003210000112,None,406.7003210000112,407.202583700011,,,,,,,,,,,,,,,,023,2022-05-18_17h48.19.309,FishGame,2022.1.1,60.0083411670488,
,36,넌 명랑해,1,Green,B,5.739130434782609,5.666666666666667,ScrollUp,ScrollDown,Green.png,3,Positive,Incongruent,0,0,0,0,,,,,,,,,,,,,,,,,,,,,0,35,35,35,,,,,,,,,,,,,,,,,,,,,,,,,,,,,,,,,,,,,,,,,,,,,,,,,,,,,,,,,,,,,,,,,,,,,,,,,,,,,2,0.9925091000040993,407.8238256999757,None,ScrollUp,정답입니다,407.8238256999757,None,407.8238256999757,None,407.8238256999757,None,407.8238256999757,None,408.71921529999236,None,408.71921529999236,409.2192035000189,,,,,,,,,,,,,,,,023,2022-05-18_17h48.19.309,FishGame,2022.1.1,60.0083411670488,
,37,넌 멍해,4,Orange,A,2.833333333333333,3.4,ScrollDown,ScrollUp,Orange.png,3,Negative,Incongruent,0,0,0,0,,,,,,,,,,,,,,,,,,,,,0,36,36,36,,,,,,,,,,,,,,,,,,,,,,,,,,,,,,,,,,,,,,,,,,,,,,,,,,,,,,,,,,,,,,,,,,,,,,,,,,,,,1.0972222338120143,0.8757203000131994,409.8472389000235,None,ScrollDown,정답입니다,409.8472389000235,None,409.8472389000235,None,409.8472389000235,None,409.8472389000235,None,410.61667969997507,None,410.61667969997507,411.1167354999925,,,,,,,,,,,,,,,,023,2022-05-18_17h48.19.309,FishGame,2022.1.1,60.0083411670488,
,38,나를 데려가줘,6,Green,B,0,0,ScrollDown,ScrollUp,Green.png,3,NonTarget,NonTarget,0,0,0,0,,,,,,,,,,,,,,,,,,,,,0,37,37,37,,,,,,,,,,,,,,,,,,,,,,,,,,,,,,,,,,,,,,,,,,,,,,,,,,,,,,,,,,,,,,,,,,,,,,,,,,,,,1,1.1615849999943748,411.7401276999735,None,ScrollDown,정답입니다,411.7401276999735,None,411.7401276999735,None,411.7401276999735,None,411.7401276999735,None,412.8025721000158,None,412.8025721000158,413.30253350001294,,,,,,,,,,,,,,,,023,2022-05-18_17h48.19.309,FishGame,2022.1.1,60.0083411670488,
,39,넌 현명해,2,Orange,A,6.541666666666666,4.533333333333333,ScrollDown,ScrollUp,Orange.png,3,Positive,Congruent,0,0,0,0,,,,,,,,,,,,,,,,,,,,,0,38,38,38,,,,,,,,,,,,,,,,,,,,,,,,,,,,,,,,,,,,,,,,,,,,,,,,,,,,,,,,,,,,,,,,,,,,,,,,,,,,,1,1.401909500011243,413.92052559996955,None,ScrollDown,정답입니다,413.92052559996955,None,413.92052559996955,None,413.92052559996955,None,413.92052559996955,None,415.22260199999437,None,415.22260199999437,415.7356991000124,,,,,,,,,,,,,,,,023,2022-05-18_17h48.19.309,FishGame,2022.1.1,60.0083411670488,
,40,넌 수줍어,3,Green,B,3.541666666666666,4.366666666666666,ScrollUp,ScrollDown,Green.png,3,Neutral,Neutral,0,0,0,0,,,,,,,,,,,,,,,,,,,,,0,39,39,39,,,,,,,,,,,,,,,,,,,,,,,,,,,,,,,,,,,,,,,,,,,,,,,,,,,,,,,,,,,,,,,,,,,,,,,,,,,,,2,1.1430905000306666,416.35688899998786,None,ScrollUp,정답입니다,416.35688899998786,None,416.35688899998786,None,416.35688899998786,None,416.35688899998786,None,417.40016279998235,None,417.40016279998235,417.90233269997407,,,,,,,,,,,,,,,,023,2022-05-18_17h48.19.309,FishGame,2022.1.1,60.0083411670488,
,41,나를 데려가줘,6,Green,B,0,0,ScrollDown,ScrollUp,Green.png,3,NonTarget,NonTarget,0,0,0,0,,,,,,,,,,,,,,,,,,,,,0,40,40,40,,,,,,,,,,,,,,,,,,,,,,,,,,,,,,,,,,,,,,,,,,,,,,,,,,,,,,,,,,,,,,,,,,,,,,,,,,,,,1,1.1285641999565996,418.51883249997627,None,ScrollDown,정답입니다,418.51883249997627,None,418.51883249997627,None,418.51883249997627,None,418.51883249997627,None,419.5498311999836,None,419.5498311999836,420.0498967000167,,,,,,,,,,,,,,,,023,2022-05-18_17h48.19.309,FishGame,2022.1.1,60.0083411670488,
,42,넌 성숙해,2,Green,B,5.833333333333333,4.533333333333333,ScrollUp,ScrollDown,Green.png,3,Positive,Incongruent,0,0,0,0,,,,,,,,,,,,,,,,,,,,,0,41,41,41,,,,,,,,,,,,,,,,,,,,,,,,,,,,,,,,,,,,,,,,,,,,,,,,,,,,,,,,,,,,,,,,,,,,,,,,,,,,,2,0.928074800001923,420.67306270002155,None,ScrollUp,정답입니다,420.67306270002155,None,420.67306270002155,None,420.67306270002155,None,420.67306270002155,None,421.4998474000022,None,421.4998474000022,422.0023817999754,,,,,,,,,,,,,,,,023,2022-05-18_17h48.19.309,FishGame,2022.1.1,60.0083411670488,
,1,넌 매력적이야,2,Green,B,6.125,4.666666666666667,ScrollUp,ScrollDown,Green.png,4,Positive,Incongruent,0,0,0,0,,,,,,,,,,,,,,,,,,,,,,,,,0,0,0,0,,,,,,,,,,,,,,,,,,,,,,,,,,,,,,,,453.73291409999365,455.2350938000018,455.26840930001345,456.2350329000037,456.2683822999825,457.21835939999437,457.21835939999437,None,,,,,,,,,,,,,,,,,,,,,,,,,,,,,,,,,,1.9691357910633087,1.0224271999904886,458.3104086999665,None,ScrollUp,정답입니다,458.3104086999665,None,458.3104086999665,None,458.3104086999665,None,458.3104086999665,None,459.23265379999066,None,459.23265379999066,459.7379939999664,422.50237910001306,None,422.50237910001306,None,-0.0787037,-0.18703704,1,0,0,0.015951469948049635,None,452.49947779998183,None,,,023,2022-05-18_17h48.19.309,FishGame,2022.1.1,60.0083411670488,
,2,나를 보내줘,6,Orange,A,0,0,ScrollUp,ScrollDown,Orange.png,4,NonTarget,NonTarget,0,0,0,0,,,,,,,,,,,,,,,,,,,,,,,,,0,1,1,1,,,,,,,,,,,,,,,,,,,,,,,,,,,,,,,,,,,,,,,,,,,,,,,,,,,,,,,,,,,,,,,,,,,,,,,,,1.7391975373029709,0.9099266999983229,460.35467359999893,None,ScrollUp,정답입니다,460.35467359999893,None,460.35467359999893,None,460.35467359999893,None,460.35467359999893,None,461.16801680001663,None,461.16801680001663,461.6680467000115,,,,,,,,,,,,,,,,023,2022-05-18_17h48.19.309,FishGame,2022.1.1,60.0083411670488,
,3,넌 조심스러워,3,Orange,A,4.791666666666666,4.666666666666667,ScrollDown,ScrollUp,Orange.png,4,Neutral,Neutral,0,0,0,0,,,,,,,,,,,,,,,,,,,,,,,,,0,2,2,2,,,,,,,,,,,,,,,,,,,,,,,,,,,,,,,,,,,,,,,,,,,,,,,,,,,,,,,,,,,,,,,,,,,,,,,,,1.1651234477758408,0.8760455999872647,462.29018730000826,None,ScrollDown,정답입니다,462.29018730000826,None,462.29018730000826,None,462.29018730000826,None,462.29018730000826,None,463.06588989996817,None,463.06588989996817,463.5680437000119,,,,,,,,,,,,,,,,023,2022-05-18_17h48.19.309,FishGame,2022.1.1,60.0083411670488,
,4,넌 철학적이야,3,Green,B,4.5,4.266666666666667,ScrollUp,ScrollDown,Green.png,4,Neutral,Neutral,0,0,0,0,,,,,,,,,,,,,,,,,,,,,,,,,0,3,3,3,,,,,,,,,,,,,,,,,,,,,,,,,,,,,,,,,,,,,,,,,,,,,,,,,,,,,,,,,,,,,,,,,,,,,,,,,1.8148148208856583,0.7990866000181995,464.1951556999702,None,ScrollUp,정답입니다,464.1951556999702,None,464.1951556999702,None,464.1951556999702,None,464.1951556999702,None,464.89126339997165,None,464.89126339997165,465.39900059998035,,,,,,,,,,,,,,,,023,2022-05-18_17h48.19.309,FishGame,2022.1.1,60.0083411670488,
,5,넌 쩨쩨해,5,Orange,A,2.375,2.133333333333333,ScrollDown,ScrollUp,Orange.png,4,Negative,Incongruent,0,0,0,0,,,,,,,,,,,,,,,,,,,,,,,,,0,4,4,4,,,,,,,,,,,,,,,,,,,,,,,,,,,,,,,,,,,,,,,,,,,,,,,,,,,,,,,,,,,,,,,,,,,,,,,,,1,0.9779133999836631,466.02229459997034,None,ScrollDown,정답입니다,466.02229459997034,None,466.02229459997034,None,466.02229459997034,None,466.02229459997034,None,466.8989115000004,None,466.8989115000004,467.39896959997714,,,,,,,,,,,,,,,,023,2022-05-18_17h48.19.309,FishGame,2022.1.1,60.0083411670488,
,6,나를 데려가줘,6,Green,B,0,0,ScrollDown,ScrollUp,Green.png,4,NonTarget,NonTarget,0,0,0,0,,,,,,,,,,,,,,,,,,,,,,,,,0,5,5,5,,,,,,,,,,,,,,,,,,,,,,,,,,,,,,,,,,,,,,,,,,,,,,,,,,,,,,,,,,,,,,,,,,,,,,,,,1,1.1440729000023566,468.01947579998523,None,ScrollDown,정답입니다,468.01947579998523,None,468.01947579998523,None,468.01947579998523,None,468.01947579998523,None,469.06806199997663,None,469.06806199997663,469.56803119997494,,,,,,,,,,,,,,,,023,2022-05-18_17h48.19.309,FishGame,2022.1.1,60.0083411670488,
,7,넌 고집불통이야,5,Green,B,2.875,2,ScrollUp,ScrollDown,Green.png,4,Negative,Congruent,0,0,0,0,,,,,,,,,,,,,,,,,,,,,,,,,0,6,6,6,,,,,,,,,,,,,,,,,,,,,,,,,,,,,,,,,,,,,,,,,,,,,,,,,,,,,,,,,,,,,,,,,,,,,,,,,1.9691357910633087,0.9460096000111662,470.1885392999975,None,ScrollUp,정답입니다,470.1885392999975,None,470.1885392999975,None,470.1885392999975,None,470.1885392999975,None,471.03452789998846,None,471.03452789998846,471.5345577999833,,,,,,,,,,,,,,,,023,2022-05-18_17h48.19.309,FishGame,2022.1.1,60.0083411670488,
,8,넌 무심해,4,Orange,A,2.875,3.2,ScrollDown,ScrollUp,Orange.png,4,Negative,Incongruent,0,0,0,0,,,,,,,,,,,,,,,,,,,,,,,,,0,7,7,7,,,,,,,,,,,,,,,,,,,,,,,,,,,,,,,,,,,,,,,,,,,,,,,,,,,,,,,,,,,,,,,,,,,,,,,,,1.0709876716136932,0.82588969997596,472.15761669998756,None,ScrollDown,정답입니다,472.15761669998756,None,472.15761669998756,None,472.15761669998756,None,472.15761669998756,None,472.8822870000149,None,472.8822870000149,473.38236300001154,,,,,,,,,,,,,,,,023,2022-05-18_17h48.19.309,FishGame,2022.1.1,60.0083411670488,
,9,넌 정겨워,1,Orange,A,5.791666666666667,5.666666666666667,ScrollDown,ScrollUp,Orange.png,4,Positive,Congruent,0,0,0,0,,,,,,,,,,,,,,,,,,,,,,,,,0,8,8,8,,,,,,,,,,,,,,,,,,,,,,,,,,,,,,,,,,,,,,,,,,,,,,,,,,,,,,,,,,,,,,,,,,,,,,,,,1.1466049303611119,0.8265921999700367,474.0084385999944,None,ScrollDown,정답입니다,474.0084385999944,None,474.0084385999944,None,474.0084385999944,None,474.0084385999944,None,474.732331599982,None,474.732331599982,475.23450189997675,,,,,,,,,,,,,,,,023,2022-05-18_17h48.19.309,FishGame,2022.1.1,60.0083411670488,
,10,나를 데려가줘,6,Green,B,0,0,ScrollDown,ScrollUp,Green.png,4,NonTarget,NonTarget,0,0,0,0,,,,,,,,,,,,,,,,,,,,,,,,,0,9,9,9,,,,,,,,,,,,,,,,,,,,,,,,,,,,,,,,,,,,,,,,,,,,,,,,,,,,,,,,,,,,,,,,,,,,,,,,,1,1.1260368000366725,475.8574533999781,None,ScrollDown,정답입니다,475.8574533999781,None,475.8574533999781,None,475.8574533999781,None,475.8574533999781,None,476.884432699997,None,476.884432699997,477.38447160000214,,,,,,,,,,,,,,,,023,2022-05-18_17h48.19.309,FishGame,2022.1.1,60.0083411670488,
,11,넌 체제순응적이야,4,Green,B,3,3.6,ScrollUp,ScrollDown,Green.png,4,Negative,Congruent,0,0,0,0,,,,,,,,,,,,,,,,,,,,,,,,,0,10,10,10,,,,,,,,,,,,,,,,,,,,,,,,,,,,,,,,,,,,,,,,,,,,,,,,,,,,,,,,,,,,,,,,,,,,,,,,,2,0.9926167000085115,478.017963899998,None,ScrollUp,정답입니다,478.017963899998,None,478.017963899998,None,478.017963899998,None,478.017963899998,None,478.8988830000162,None,478.8988830000162,479.4011346999905,,,,,,,,,,,,,,,,023,2022-05-18_17h48.19.309,FishGame,2022.1.1,60.0083411670488,
,12,나를 보내줘,6,Orange,A,0,0,ScrollUp,ScrollDown,Orange.png,4,NonTarget,NonTarget,0,0,0,0,,,,,,,,,,,,,,,,,,,,,,,,,0,11,11,11,,,,,,,,,,,,,,,,,,,,,,,,,,,,,,,,,,,,,,,,,,,,,,,,,,,,,,,,,,,,,,,,,,,,,,,,,1.9104938358068466,1.028168100048788,480.02054140000837,None,ScrollUp,정답입니다,480.02054140000837,None,480.02054140000837,None,480.02054140000837,None,480.02054140000837,None,480.9485418999684,None,480.9485418999684,481.448618000024,,,,,,,,,,,,,,,,023,2022-05-18_17h48.19.309,FishGame,2022.1.1,60.0083411670488,
,13,넌 박식해,2,Orange,A,5.625,3.933333333333333,ScrollDown,ScrollUp,Orange.png,4,Positive,Congruent,0,0,0,0,,,,,,,,,,,,,,,,,,,,,,,,,0,12,12,12,,,,,,,,,,,,,,,,,,,,,,,,,,,,,,,,,,,,,,,,,,,,,,,,,,,,,,,,,,,,,,,,,,,,,,,,,1,0.8782749999663793,482.073024399986,None,ScrollDown,정답입니다,482.073024399986,None,482.073024399986,None,482.073024399986,None,482.073024399986,None,482.8485485999845,None,482.8485485999845,483.3511014999822,,,,,,,,,,,,,,,,023,2022-05-18_17h48.19.309,FishGame,2022.1.1,60.0083411670488,
,14,나를 보내줘,6,Orange,A,0,0,ScrollUp,ScrollDown,Orange.png,4,NonTarget,NonTarget,0,0,0,0,,,,,,,,,,,,,,,,,,,,,,,,,0,13,13,13,,,,,,,,,,,,,,,,,,,,,,,,,,,,,,,,,,,,,,,,,,,,,,,,,,,,,,,,,,,,,,,,,,,,,,,,,2,1.013310000009369,483.97612870001467,None,ScrollUp,정답입니다,483.97612870001467,None,483.97612870001467,None,483.97612870001467,None,483.97612870001467,None,484.88441230001627,None,484.88441230001627,485.3844100999995,,,,,,,,,,,,,,,,023,2022-05-18_17h48.19.309,FishGame,2022.1.1,60.0083411670488,
,15,넌 침착해,1,Green,B,5.458333333333333,5.566666666666666,ScrollUp,ScrollDown,Green.png,4,Positive,Incongruent,0,0,0,0,,,,,,,,,,,,,,,,,,,,,,,,,0,14,14,14,,,,,,,,,,,,,,,,,,,,,,,,,,,,,,,,,,,,,,,,,,,,,,,,,,,,,,,,,,,,,,,,,,,,,,,,,2,0.9773600000189617,486.0101275999914,None,ScrollUp,정답입니다,486.0101275999914,None,486.0101275999914,None,486.0101275999914,None,486.0101275999914,None,486.8820351000177,None,486.8820351000177,487.38418569997884,,,,,,,,,,,,,,,,023,2022-05-18_17h48.19.309,FishGame,2022.1.1,60.0083411670488,
,16,나를 데려가줘,6,Green,B,0,0,ScrollDown,ScrollUp,Green.png,4,NonTarget,NonTarget,0,0,0,0,,,,,,,,,,,,,,,,,,,,,,,,,0,15,15,15,,,,,,,,,,,,,,,,,,,,,,,,,,,,,,,,,,,,,,,,,,,,,,,,,,,,,,,,,,,,,,,,,,,,,,,,,1.0910493781169255,1.0094269999535754,488.00737489998573,None,ScrollDown,정답입니다,488.00737489998573,None,488.00737489998573,None,488.00737489998573,None,488.00737489998573,None,488.91537960001733,None,488.91537960001733,489.41757849999703,,,,,,,,,,,,,,,,023,2022-05-18_17h48.19.309,FishGame,2022.1.1,60.0083411670488,
,17,넌 행복해,1,Orange,A,6.416666666666666,6.166666666666667,ScrollDown,ScrollUp,Orange.png,4,Positive,Congruent,0,0,0,0,,,,,,,,,,,,,,,,,,,,,,,,,0,16,16,16,,,,,,,,,,,,,,,,,,,,,,,,,,,,,,,,,,,,,,,,,,,,,,,,,,,,,,,,,,,,,,,,,,,,,,,,,1.1975308656692505,0.794871200050693,490.041315999988,None,ScrollDown,정답입니다,490.041315999988,None,490.041315999988,None,490.041315999988,None,490.041315999988,None,490.73192649998236,None,490.73192649998236,491.23198939999565,,,,,,,,,,,,,,,,023,2022-05-18_17h48.19.309,FishGame,2022.1.1,60.0083411670488,
,18,넌 겸손해,2,Green,B,5.791666666666667,4.766666666666667,ScrollUp,ScrollDown,Green.png,4,Positive,Incongruent,0,0,0,0,,,,,,,,,,,,,,,,,,,,,,,,,0,17,17,17,,,,,,,,,,,,,,,,,,,,,,,,,,,,,,,,,,,,,,,,,,,,,,,,,,,,,,,,,,,,,,,,,,,,,,,,,2,1.0097255000146106,491.8563787000021,None,ScrollUp,정답입니다,491.8563787000021,None,491.8563787000021,None,491.8563787000021,None,491.8563787000021,None,492.7674507999909,None,492.7674507999909,493.28197900002124,,,,,,,,,,,,,,,,023,2022-05-18_17h48.19.309,FishGame,2022.1.1,60.0083411670488,
,19,나를 보내줘,6,Orange,A,0,0,ScrollUp,ScrollDown,Orange.png,4,NonTarget,NonTarget,0,0,0,0,,,,,,,,,,,,,,,,,,,,,,,,,0,18,18,18,,,,,,,,,,,,,,,,,,,,,,,,,,,,,,,,,,,,,,,,,,,,,,,,,,,,,,,,,,,,,,,,,,,,,,,,,2,1.126514200004749,493.90748940000776,None,ScrollUp,정답입니다,493.90748940000776,None,493.90748940000776,None,493.90748940000776,None,493.90748940000776,None,494.93215800001053,None,494.93215800001053,495.4319275000016,,,,,,,,,,,,,,,,023,2022-05-18_17h48.19.309,FishGame,2022.1.1,60.0083411670488,
,20,넌 의심없어,3,Orange,A,4.166666666666667,4.6,ScrollDown,ScrollUp,Orange.png,4,Neutral,Neutral,0,0,0,0,,,,,,,,,,,,,,,,,,,,,,,,,0,19,19,19,,,,,,,,,,,,,,,,,,,,,,,,,,,,,,,,,,,,,,,,,,,,,,,,,,,,,,,,,,,,,,,,,,,,,,,,,1,1.0095918999868445,496.0549531999859,None,ScrollDown,정답입니다,496.0549531999859,None,496.0549531999859,None,496.0549531999859,None,496.0549531999859,None,496.9651926999795,None,496.9651926999795,497.4673824000056,,,,,,,,,,,,,,,,023,2022-05-18_17h48.19.309,FishGame,2022.1.1,60.0083411670488,
,21,넌 시시해,4,Orange,A,2.666666666666667,2.966666666666667,ScrollDown,ScrollUp,Orange.png,4,Negative,Incongruent,0,0,0,0,,,,,,,,,,,,,,,,,,,,,,,,,0,20,20,20,,,,,,,,,,,,,,,,,,,,,,,,,,,,,,,,,,,,,,,,,,,,,,,,,,,,,,,,,,,,,,,,,,,,,,,,,1.160493830839793,0.8090577000402845,498.09468179999385,None,ScrollDown,정답입니다,498.09468179999385,None,498.09468179999385,None,498.09468179999385,None,498.09468179999385,None,498.7981885999907,None,498.7981885999907,499.2982514000032,,,,,,,,,,,,,,,,023,2022-05-18_17h48.19.309,FishGame,2022.1.1,60.0083411670488,
,22,나를 데려가줘,6,Green,B,0,0,ScrollDown,ScrollUp,Green.png,4,NonTarget,NonTarget,0,0,0,0,,,,,,,,,,,,,,,,,,,,,,,,,0,21,21,21,,,,,,,,,,,,,,,,,,,,,,,,,,,,,,,,,,,,,,,,,,,,,,,,,,,,,,,,,,,,,,,,,,,,,,,,,1.2098765522241592,0.9952075000037439,499.91682939999737,None,ScrollDown,정답입니다,499.91682939999737,None,499.91682939999737,None,499.91682939999737,None,499.91682939999737,None,500.81740840000566,None,500.81740840000566,501.31740559998434,,,,,,,,,,,,,,,,023,2022-05-18_17h48.19.309,FishGame,2022.1.1,60.0083411670488,
,23,넌 무정해,5,Orange,A,2.5,2.2,ScrollDown,ScrollUp,Orange.png,4,Negative,Incongruent,0,0,0,0,,,,,,,,,,,,,,,,,,,,,,,,,0,22,22,22,,,,,,,,,,,,,,,,,,,,,,,,,,,,,,,,,,,,,,,,,,,,,,,,,,,,,,,,,,,,,,,,,,,,,,,,,1.0185184975465138,0.8949775000219233,501.9361706000054,None,ScrollDown,정답입니다,501.9361706000054,None,501.9361706000054,None,501.9361706000054,None,501.9361706000054,None,502.73400130000664,None,502.73400130000664,503.2340188000235,,,,,,,,,,,,,,,,023,2022-05-18_17h48.19.309,FishGame,2022.1.1,60.0083411670488,
,24,넌 긍정적이야,1,Green,B,6.041666666666667,6.066666666666666,ScrollUp,ScrollDown,Green.png,4,Positive,Incongruent,0,0,0,0,,,,,,,,,,,,,,,,,,,,,,,,,0,23,23,23,,,,,,,,,,,,,,,,,,,,,,,,,,,,,,,,,,,,,,,,,,,,,,,,,,,,,,,,,,,,,,,,,,,,,,,,,2,1.24633559997892,503.8695623999811,None,ScrollUp,정답입니다,503.8695623999811,None,503.8695623999811,None,503.8695623999811,None,503.8695623999811,None,505.0150104999775,None,505.0150104999775,505.51724549999926,,,,,,,,,,,,,,,,023,2022-05-18_17h48.19.309,FishGame,2022.1.1,60.0083411670488,
,25,나를 보내줘,6,Orange,A,0,0,ScrollUp,ScrollDown,Orange.png,4,NonTarget,NonTarget,0,0,0,0,,,,,,,,,,,,,,,,,,,,,,,,,0,24,24,24,,,,,,,,,,,,,,,,,,,,,,,,,,,,,,,,,,,,,,,,,,,,,,,,,,,,,,,,,,,,,,,,,,,,,,,,,2,1.1092313000117429,506.14248949999455,None,ScrollUp,정답입니다,506.14248949999455,None,506.14248949999455,None,506.14248949999455,None,506.14248949999455,None,507.14801070000976,None,507.14801070000976,507.6480780999991,,,,,,,,,,,,,,,,023,2022-05-18_17h48.19.309,FishGame,2022.1.1,60.0083411670488,
,26,넌 시기심이 많아,5,Green,B,2.458333333333333,2.233333333333333,ScrollUp,ScrollDown,Green.png,4,Negative,Congruent,0,0,0,0,,,,,,,,,,,,,,,,,,,,,,,,,0,25,25,25,,,,,,,,,,,,,,,,,,,,,,,,,,,,,,,,,,,,,,,,,,,,,,,,,,,,,,,,,,,,,,,,,,,,,,,,,2,0.995098199986387,508.27649660001043,None,ScrollUp,정답입니다,508.27649660001043,None,508.27649660001043,None,508.27649660001043,None,508.27649660001043,None,509.16733029996976,None,509.16733029996976,509.66739939997206,,,,,,,,,,,,,,,,023,2022-05-18_17h48.19.309,FishGame,2022.1.1,60.0083411670488,
,27,넌 탁월해,2,Orange,A,5.708333333333334,4.5,ScrollDown,ScrollUp,Orange.png,4,Positive,Congruent,0,0,0,0,,,,,,,,,,,,,,,,,,,,,,,,,0,26,26,26,,,,,,,,,,,,,,,,,,,,,,,,,,,,,,,,,,,,,,,,,,,,,,,,,,,,,,,,,,,,,,,,,,,,,,,,,1,0.8954539999831468,510.28958109999076,None,ScrollDown,정답입니다,510.28958109999076,None,510.28958109999076,None,510.28958109999076,None,510.28958109999076,None,511.0812630999717,None,511.0812630999717,511.5813449000125,,,,,,,,,,,,,,,,023,2022-05-18_17h48.19.309,FishGame,2022.1.1,60.0083411670488,
,28,나를 데려가줘,6,Green,B,0,0,ScrollDown,ScrollUp,Green.png,4,NonTarget,NonTarget,0,0,0,0,,,,,,,,,,,,,,,,,,,,,,,,,0,27,27,27,,,,,,,,,,,,,,,,,,,,,,,,,,,,,,,,,,,,,,,,,,,,,,,,,,,,,,,,,,,,,,,,,,,,,,,,,1.3086419701576233,0.9946995999780484,512.2015897000092,None,ScrollDown,정답입니다,512.2015897000092,None,512.2015897000092,None,512.2015897000092,None,512.2015897000092,None,513.0979581999709,None,513.0979581999709,513.6004281999776,,,,,,,,,,,,,,,,023,2022-05-18_17h48.19.309,FishGame,2022.1.1,60.0083411670488,
,29,넌 조용해,3,Green,B,4.333333333333333,4.166666666666667,ScrollUp,ScrollDown,Green.png,4,Neutral,Neutral,0,0,0,0,,,,,,,,,,,,,,,,,,,,,,,,,0,28,28,28,,,,,,,,,,,,,,,,,,,,,,,,,,,,,,,,,,,,,,,,,,,,,,,,,,,,,,,,,,,,,,,,,,,,,,,,,2,1.1156005999655463,514.2192801000201,None,ScrollUp,정답입니다,514.2192801000201,None,514.2192801000201,None,514.2192801000201,None,514.2192801000201,None,515.2338782000006,None,515.2338782000006,515.736953500018,,,,,,,,,,,,,,,,023,2022-05-18_17h48.19.309,FishGame,2022.1.1,60.0083411670488,
,30,넌 다정해,1,Orange,A,5.833333333333334,5.7,ScrollDown,ScrollUp,Orange.png,4,Positive,Congruent,0,0,0,0,,,,,,,,,,,,,,,,,,,,,,,,,0,29,29,29,,,,,,,,,,,,,,,,,,,,,,,,,,,,,,,,,,,,,,,,,,,,,,,,,,,,,,,,,,,,,,,,,,,,,,,,,1,0.9761952999979258,516.3609858999844,None,ScrollDown,정답입니다,516.3609858999844,None,516.3609858999844,None,516.3609858999844,None,516.3609858999844,None,517.2314074999886,None,517.2314074999886,517.7336185000022,,,,,,,,,,,,,,,,023,2022-05-18_17h48.19.309,FishGame,2022.1.1,60.0083411670488,
,31,넌 능력있어,2,Green,B,6.166666666666666,4.6,ScrollUp,ScrollDown,Green.png,4,Positive,Incongruent,0,0,0,0,,,,,,,,,,,,,,,,,,,,,,,,,0,30,30,30,,,,,,,,,,,,,,,,,,,,,,,,,,,,,,,,,,,,,,,,,,,,,,,,,,,,,,,,,,,,,,,,,,,,,,,,,2,0.9091201000264846,518.4155098000192,None,ScrollUp,정답입니다,518.4155098000192,None,518.4155098000192,None,518.4155098000192,None,518.4155098000192,None,519.1644260999747,None,519.1644260999747,519.664488999988,,,,,,,,,,,,,,,,023,2022-05-18_17h48.19.309,FishGame,2022.1.1,60.0083411670488,
,32,넌 불쾌해,5,Orange,A,2.125,1.933333333333333,ScrollDown,ScrollUp,Orange.png,4,Negative,Incongruent,0,0,0,0,,,,,,,,,,,,,,,,,,,,,,,,,0,31,31,31,,,,,,,,,,,,,,,,,,,,,,,,,,,,,,,,,,,,,,,,,,,,,,,,,,,,,,,,,,,,,,,,,,,,,,,,,1,0.9117661000345834,520.2874658000073,None,ScrollDown,정답입니다,520.2874658000073,None,520.2874658000073,None,520.2874658000073,None,520.2874658000073,None,521.0977818999672,None,521.0977818999672,521.6007227000082,,,,,,,,,,,,,,,,023,2022-05-18_17h48.19.309,FishGame,2022.1.1,60.0083411670488,
,33,나를 데려가줘,6,Green,B,0,0,ScrollDown,ScrollUp,Green.png,4,NonTarget,NonTarget,0,0,0,0,,,,,,,,,,,,,,,,,,,,,,,,,0,32,32,32,,,,,,,,,,,,,,,,,,,,,,,,,,,,,,,,,,,,,,,,,,,,,,,,,,,,,,,,,,,,,,,,,,,,,,,,,1.0262345671653748,0.97740790003445,522.2212741000112,None,ScrollDown,정답입니다,522.2212741000112,None,522.2212741000112,None,522.2212741000112,None,522.2212741000112,None,523.1002838999848,None,523.1002838999848,523.60351549997,,,,,,,,,,,,,,,,023,2022-05-18_17h48.19.309,FishGame,2022.1.1,60.0083411670488,
,34,넌 유순해,3,Orange,A,4.458333333333333,5,ScrollDown,ScrollUp,Orange.png,4,Neutral,Neutral,0,0,0,0,,,,,,,,,,,,,,,,,,,,,,,,,0,33,33,33,,,,,,,,,,,,,,,,,,,,,,,,,,,,,,,,,,,,,,,,,,,,,,,,,,,,,,,,,,,,,,,,,,,,,,,,,1,0.8923147000023164,524.2229618999991,None,ScrollDown,정답입니다,524.2229618999991,None,524.2229618999991,None,524.2229618999991,None,524.2229618999991,None,525.0145979999797,None,525.0145979999797,525.5168181000045,,,,,,,,,,,,,,,,023,2022-05-18_17h48.19.309,FishGame,2022.1.1,60.0083411670488,
,35,넌 근심스러워,4,Green,B,2.708333333333333,3.133333333333333,ScrollUp,ScrollDown,Green.png,4,Negative,Congruent,0,0,0,0,,,,,,,,,,,,,,,,,,,,,,,,,0,34,34,34,,,,,,,,,,,,,,,,,,,,,,,,,,,,,,,,,,,,,,,,,,,,,,,,,,,,,,,,,,,,,,,,,,,,,,,,,2,0.8756900000153109,526.1506710000103,None,ScrollUp,정답입니다,526.1506710000103,None,526.1506710000103,None,526.1506710000103,None,526.1506710000103,None,526.9145223000087,None,526.9145223000087,527.4145707999705,,,,,,,,,,,,,,,,023,2022-05-18_17h48.19.309,FishGame,2022.1.1,60.0083411670488,
,36,넌 세련되었어,2,Orange,A,5.5,4.6,ScrollDown,ScrollUp,Orange.png,4,Positive,Congruent,0,0,0,0,,,,,,,,,,,,,,,,,,,,,,,,,0,35,35,35,,,,,,,,,,,,,,,,,,,,,,,,,,,,,,,,,,,,,,,,,,,,,,,,,,,,,,,,,,,,,,,,,,,,,,,,,1,0.8112147999927402,528.043113199994,None,ScrollDown,정답입니다,528.043113199994,None,528.043113199994,None,528.043113199994,None,528.043113199994,None,528.7478549000225,None,528.7478549000225,529.2500413000234,,,,,,,,,,,,,,,,023,2022-05-18_17h48.19.309,FishGame,2022.1.1,60.0083411670488,
,37,나를 보내줘,6,Orange,A,0,0,ScrollUp,ScrollDown,Orange.png,4,NonTarget,NonTarget,0,0,0,0,,,,,,,,,,,,,,,,,,,,,,,,,0,36,36,36,,,,,,,,,,,,,,,,,,,,,,,,,,,,,,,,,,,,,,,,,,,,,,,,,,,,,,,,,,,,,,,,,,,,,,,,,2,0.9587868999806233,529.88029619999,None,ScrollUp,정답입니다,529.88029619999,None,529.88029619999,None,529.88029619999,None,529.88029619999,None,530.7311144999694,None,530.7311144999694,531.2334623999777,,,,,,,,,,,,,,,,023,2022-05-18_17h48.19.309,FishGame,2022.1.1,60.0083411670488,
,38,넌 확고해,3,Green,B,4.708333333333334,4.566666666666666,ScrollUp,ScrollDown,Green.png,4,Neutral,Neutral,0,0,0,0,,,,,,,,,,,,,,,,,,,,,,,,,0,37,37,37,,,,,,,,,,,,,,,,,,,,,,,,,,,,,,,,,,,,,,,,,,,,,,,,,,,,,,,,,,,,,,,,,,,,,,,,,2,1.078001799993217,531.8552345000207,None,ScrollUp,정답입니다,531.8552345000207,None,531.8552345000207,None,531.8552345000207,None,531.8552345000207,None,532.8310978999943,None,532.8310978999943,533.3314066000166,,,,,,,,,,,,,,,,023,2022-05-18_17h48.19.309,FishGame,2022.1.1,60.0083411670488,
,39,넌 이해심이 많아,1,Green,B,6.041666666666668,5.533333333333333,ScrollUp,ScrollDown,Green.png,4,Positive,Incongruent,0,0,0,0,,,,,,,,,,,,,,,,,,,,,,,,,0,38,38,38,,,,,,,,,,,,,,,,,,,,,,,,,,,,,,,,,,,,,,,,,,,,,,,,,,,,,,,,,,,,,,,,,,,,,,,,,2,1.281848100014031,533.9558653999702,None,ScrollUp,정답입니다,533.9558653999702,None,533.9558653999702,None,533.9558653999702,None,533.9558653999702,None,535.1368769999826,None,535.1368769999826,535.6475137000089,,,,,,,,,,,,,,,,023,2022-05-18_17h48.19.309,FishGame,2022.1.1,60.0083411670488,
,40,나를 보내줘,6,Orange,A,0,0,ScrollUp,ScrollDown,Orange.png,4,NonTarget,NonTarget,0,0,0,0,,,,,,,,,,,,,,,,,,,,,,,,,0,39,39,39,,,,,,,,,,,,,,,,,,,,,,,,,,,,,,,,,,,,,,,,,,,,,,,,,,,,,,,,,,,,,,,,,,,,,,,,,2,0.9783660999964923,536.2673519999953,None,ScrollUp,정답입니다,536.2673519999953,None,536.2673519999953,None,536.2673519999953,None,536.2673519999953,None,537.1474626999698,None,537.1474626999698,537.6500134000089,,,,,,,,,,,,,,,,023,2022-05-18_17h48.19.309,FishGame,2022.1.1,60.0083411670488,
,41,넌 거칠어,4,Orange,A,2.625,3.033333333333333,ScrollDown,ScrollUp,Orange.png,4,Negative,Incongruent,0,0,0,0,,,,,,,,,,,,,,,,,,,,,,,,,0,40,40,40,,,,,,,,,,,,,,,,,,,,,,,,,,,,,,,,,,,,,,,,,,,,,,,,,,,,,,,,,,,,,,,,,,,,,,,,,1.0277777810891469,0.9094140999950469,538.2776111999992,None,ScrollDown,정답입니다,538.2776111999992,None,538.2776111999992,None,538.2776111999992,None,538.2776111999992,None,539.0833190999692,None,539.0833190999692,539.5833203999791,,,,,,,,,,,,,,,,023,2022-05-18_17h48.19.309,FishGame,2022.1.1,60.0083411670488,
,42,넌 변덕맞아,5,Green,B,2.75,2.166666666666667,ScrollUp,ScrollDown,Green.png,4,Negative,Congruent,0,0,0,0,,,,,,,,,,,,,,,,,,,,,,,,,0,41,41,41,,,,,,,,,,,,,,,,,,,,,,,,,,,,,,,,,,,,,,,,,,,,,,,,,,,,,,,,,,,,,,,,,,,,,,,,,2,0.8757208000170067,540.2110091000213,None,ScrollUp,정답입니다,540.2110091000213,None,540.2110091000213,None,540.2110091000213,None,540.2110091000213,None,540.9809459000244,None,540.9809459000244,541.4830940999673,,,,,,,,,,,,,,,,023,2022-05-18_17h48.19.309,FishGame,2022.1.1,60.0083411670488,
,43,나를 데려가줘,6,Green,B,0,0,ScrollDown,ScrollUp,Green.png,4,NonTarget,NonTarget,0,0,0,0,,,,,,,,,,,,,,,,,,,,,,,,,0,42,42,42,,,,,,,,,,,,,,,,,,,,,,,,,,,,,,,,,,,,,,,,,,,,,,,,,,,,,,,,,,,,,,,,,,,,,,,,,1,0.959797499992419,542.1075018999982,None,ScrollDown,정답입니다,542.1075018999982,None,542.1075018999982,None,542.1075018999982,None,542.1075018999982,None,542.9642919999897,None,542.9642919999897,543.4642088999972,,,,,,,,,,,,,,,,023,2022-05-18_17h48.19.309,FishGame,2022.1.1,60.0083411670488,
,44,넌 외로워,4,Green,B,2.833333333333333,3.3,ScrollUp,ScrollDown,Green.png,4,Negative,Congruent,0,0,0,0,,,,,,,,,,,,,,,,,,,,,,,,,0,43,43,43,,,,,,,,,,,,,,,,,,,,,,,,,,,,,,,,,,,,,,,,,,,,,,,,,,,,,,,,,,,,,,,,,,,,,,,,,2,0.9275941999512725,544.0864941999898,None,ScrollUp,정답입니다,544.0864941999898,None,544.0864941999898,None,544.0864941999898,None,544.0864941999898,None,544.9163663000218,None,544.9163663000218,545.4331760000205,,,,,,,,,,,,,,,,023,2022-05-18_17h48.19.309,FishGame,2022.1.1,60.0083411670488,
,1,넌 불평스러워,5,Orange,A,2.25,2.066666666666667,ScrollDown,ScrollUp,Orange.png,5,Negative,Incongruent,0,0,0,0,,,,,,,,,,,,,,,,,,,,,,,,,,,,,0,0,0,0,,,,,,,,,,,,,,,,,,,,,,,,,,,,576.980196999968,578.4855988000054,578.518894399982,579.482516899996,579.515819000022,580.4687794999918,580.4687794999918,None,,,,,,,,,,,,,,,,,,,,,,,,,,,,,,,,,,1.0987654229005177,1.209247899998445,581.5706316999858,None,ScrollDown,정답입니다,581.5706316999858,None,581.5706316999858,None,581.5706316999858,None,581.5706316999858,None,582.680093700008,None,582.680093700008,583.1800793000148,545.9141759999911,None,545.9141759999911,None,0.2574074,-0.09259259,1,0,0,0.01600396999856457,None,575.9135573999956,None,,,023,2022-05-18_17h48.19.309,FishGame,2022.1.1,60.0083411670488,
,2,나를 보내줘,6,Orange,A,0,0,ScrollUp,ScrollDown,Orange.png,5,NonTarget,NonTarget,0,0,0,0,,,,,,,,,,,,,,,,,,,,,,,,,,,,,0,1,1,1,,,,,,,,,,,,,,,,,,,,,,,,,,,,,,,,,,,,,,,,,,,,,,,,,,,,,,,,,,,,,,,,,,,,,2,0.9092764999950305,583.8033946999931,None,ScrollUp,정답입니다,583.8033946999931,None,583.8033946999931,None,583.8033946999931,None,583.8033946999931,None,584.6133565999917,None,584.6133565999917,585.1155562999775,,,,,,,,,,,,,,,,023,2022-05-18_17h48.19.309,FishGame,2022.1.1,60.0083411670488,
,3,넌 다재다능해,2,Green,B,6.208333333333333,4.5,ScrollUp,ScrollDown,Green.png,5,Positive,Incongruent,0,0,0,0,,,,,,,,,,,,,,,,,,,,,,,,,,,,,0,2,2,2,,,,,,,,,,,,,,,,,,,,,,,,,,,,,,,,,,,,,,,,,,,,,,,,,,,,,,,,,,,,,,,,,,,,,1.7407407512267432,0.8759575000149198,585.7358278000029,None,ScrollUp,정답입니다,585.7358278000029,None,585.7358278000029,None,585.7358278000029,None,585.7358278000029,None,586.5133356999722,None,586.5133356999722,587.0154739000136,,,,,,,,,,,,,,,,023,2022-05-18_17h48.19.309,FishGame,2022.1.1,60.0083411670488,
,4,넌 과감해,3,Orange,A,4.833333333333334,4.6,ScrollDown,ScrollUp,Orange.png,5,Neutral,Neutral,0,0,0,0,,,,,,,,,,,,,,,,,,,,,,,,,,,,,0,3,3,3,,,,,,,,,,,,,,,,,,,,,,,,,,,,,,,,,,,,,,,,,,,,,,,,,,,,,,,,,,,,,,,,,,,,,1.248456800977389,0.7920899000018835,587.6440294000204,None,ScrollDown,정답입니다,587.6440294000204,None,587.6440294000204,None,587.6440294000204,None,587.6440294000204,None,588.3296446999884,None,588.3296446999884,588.8297232000041,,,,,,,,,,,,,,,,023,2022-05-18_17h48.19.309,FishGame,2022.1.1,60.0083411670488,
,5,넌 고분고분해,3,Green,B,3.75,4.033333333333333,ScrollUp,ScrollDown,Green.png,5,Neutral,Neutral,0,0,0,0,,,,,,,,,,,,,,,,,,,,,,,,,,,,,0,4,4,4,,,,,,,,,,,,,,,,,,,,,,,,,,,,,,,,,,,,,,,,,,,,,,,,,,,,,,,,,,,,,,,,,,,,,1.819444437821706,0.8617299000034109,589.4529841999756,None,ScrollUp,정답입니다,589.4529841999756,None,589.4529841999756,None,589.4529841999756,None,589.4529841999756,None,590.2130123000243,None,590.2130123000243,590.7155417000176,,,,,,,,,,,,,,,,023,2022-05-18_17h48.19.309,FishGame,2022.1.1,60.0083411670488,
,6,나를 보내줘,6,Orange,A,0,0,ScrollUp,ScrollDown,Orange.png,5,NonTarget,NonTarget,0,0,0,0,,,,,,,,,,,,,,,,,,,,,,,,,,,,,0,5,5,5,,,,,,,,,,,,,,,,,,,,,,,,,,,,,,,,,,,,,,,,,,,,,,,,,,,,,,,,,,,,,,,,,,,,,1.959876557191213,1.0131135999690741,591.3335616000113,None,ScrollUp,정답입니다,591.3335616000113,None,591.3335616000113,None,591.3335616000113,None,591.3335616000113,None,592.2488090000115,None,592.2488090000115,592.748731700005,,,,,,,,,,,,,,,,023,2022-05-18_17h48.19.309,FishGame,2022.1.1,60.0083411670488,
,7,넌 잘 잊어,4,Orange,A,3,3.7,ScrollDown,ScrollUp,Orange.png,5,Negative,Incongruent,0,0,0,0,,,,,,,,,,,,,,,,,,,,,,,,,,,,,0,6,6,6,,,,,,,,,,,,,,,,,,,,,,,,,,,,,,,,,,,,,,,,,,,,,,,,,,,,,,,,,,,,,,,,,,,,,1.0524691541989644,0.8927395999780856,593.3758328999975,None,ScrollDown,정답입니다,593.3758328999975,None,593.3758328999975,None,593.3758328999975,None,593.3758328999975,None,594.1653353999718,None,594.1653353999718,594.6820554999867,,,,,,,,,,,,,,,,023,2022-05-18_17h48.19.309,FishGame,2022.1.1,60.0083411670488,
,8,넌 탐구심이없어,4,Green,B,2.833333333333333,3.066666666666667,ScrollUp,ScrollDown,Green.png,5,Negative,Congruent,0,0,0,0,,,,,,,,,,,,,,,,,,,,,,,,,,,,,0,7,7,7,,,,,,,,,,,,,,,,,,,,,,,,,,,,,,,,,,,,,,,,,,,,,,,,,,,,,,,,,,,,,,,,,,,,,1.9845678806304932,0.9096096000284888,595.2915224999888,None,ScrollUp,정답입니다,595.2915224999888,None,595.2915224999888,None,595.2915224999888,None,595.2915224999888,None,596.096168500022,None,596.096168500022,596.5962368000182,,,,,,,,,,,,,,,,023,2022-05-18_17h48.19.309,FishGame,2022.1.1,60.0083411670488,
,9,나를 데려가줘,6,Green,B,0,0,ScrollDown,ScrollUp,Green.png,5,NonTarget,NonTarget,0,0,0,0,,,,,,,,,,,,,,,,,,,,,,,,,,,,,0,8,8,8,,,,,,,,,,,,,,,,,,,,,,,,,,,,,,,,,,,,,,,,,,,,,,,,,,,,,,,,,,,,,,,,,,,,,1.192901223897934,0.9282324999803677,597.2189653000096,None,ScrollDown,정답입니다,597.2189653000096,None,597.2189653000096,None,597.2189653000096,None,597.2189653000096,None,598.0461858999915,None,598.0461858999915,598.5487304999842,,,,,,,,,,,,,,,,023,2022-05-18_17h48.19.309,FishGame,2022.1.1,60.0083411670488,
,10,넌 참되어,2,Orange,A,6.041666666666664,4.733333333333333,ScrollDown,ScrollUp,Orange.png,5,Positive,Congruent,0,0,0,0,,,,,,,,,,,,,,,,,,,,,,,,,,,,,0,9,9,9,,,,,,,,,,,,,,,,,,,,,,,,,,,,,,,,,,,,,,,,,,,,,,,,,,,,,,,,,,,,,,,,,,,,,1.3719135796030364,0.7944292000029236,599.1743270999868,None,ScrollDown,정답입니다,599.1743270999868,None,599.1743270999868,None,599.1743270999868,None,599.1743270999868,None,599.865327699983,None,599.865327699983,600.3685027000029,,,,,,,,,,,,,,,,023,2022-05-18_17h48.19.309,FishGame,2022.1.1,60.0083411670488,
,11,넌 생기있어,1,Green,B,5.875,5.633333333333334,ScrollUp,ScrollDown,Green.png,5,Positive,Incongruent,0,0,0,0,,,,,,,,,,,,,,,,,,,,,,,,,,,,,0,10,10,10,,,,,,,,,,,,,,,,,,,,,,,,,,,,,,,,,,,,,,,,,,,,,,,,,,,,,,,,,,,,,,,,,,,,,1.7145061641931534,0.8257958999602124,600.9897695999825,None,ScrollUp,정답입니다,600.9897695999825,None,600.9897695999825,None,600.9897695999825,None,600.9897695999825,None,601.7151540999766,None,601.7151540999766,602.2318513999926,,,,,,,,,,,,,,,,023,2022-05-18_17h48.19.309,FishGame,2022.1.1,60.0083411670488,
,12,넌 비사교적이야,4,Green,B,2.875,2.9,ScrollUp,ScrollDown,Green.png,5,Negative,Congruent,0,0,0,0,,,,,,,,,,,,,,,,,,,,,,,,,,,,,0,11,11,11,,,,,,,,,,,,,,,,,,,,,,,,,,,,,,,,,,,,,,,,,,,,,,,,,,,,,,,,,,,,,,,,,,,,,1.9814815024534862,0.809804400021676,602.8517502999748,None,ScrollUp,정답입니다,602.8517502999748,None,602.8517502999748,None,602.8517502999748,None,602.8517502999748,None,603.5651435999898,None,603.5651435999898,604.0651355999871,,,,,,,,,,,,,,,,023,2022-05-18_17h48.19.309,FishGame,2022.1.1,60.0083411670488,
,13,나를 데려가줘,6,Green,B,0,0,ScrollDown,ScrollUp,Green.png,5,NonTarget,NonTarget,0,0,0,0,,,,,,,,,,,,,,,,,,,,,,,,,,,,,0,12,12,12,,,,,,,,,,,,,,,,,,,,,,,,,,,,,,,,,,,,,,,,,,,,,,,,,,,,,,,,,,,,,,,,,,,,,1.367283950249354,0.9436313000041991,604.6834130000207,None,ScrollDown,정답입니다,604.6834130000207,None,604.6834130000207,None,604.6834130000207,None,604.6834130000207,None,605.529900100024,None,605.529900100024,606.0297365000006,,,,,,,,,,,,,,,,023,2022-05-18_17h48.19.309,FishGame,2022.1.1,60.0083411670488,
,14,넌 고독해,4,Orange,A,2.916666666666667,3.233333333333333,ScrollDown,ScrollUp,Orange.png,5,Negative,Incongruent,0,0,0,0,,,,,,,,,,,,,,,,,,,,,,,,,,,,,0,13,13,13,,,,,,,,,,,,,,,,,,,,,,,,,,,,,,,,,,,,,,,,,,,,,,,,,,,,,,,,,,,,,,,,,,,,,1.0540123681227367,0.8441675999783911,606.6519765999983,None,ScrollDown,정답입니다,606.6519765999983,None,606.6519765999983,None,606.6519765999983,None,606.6519765999983,None,607.3961615000153,None,607.3961615000153,607.89617610001,,,,,,,,,,,,,,,,023,2022-05-18_17h48.19.309,FishGame,2022.1.1,60.0083411670488,
,15,넌 신경질적이야,5,Green,B,2.375,2.233333333333333,ScrollUp,ScrollDown,Green.png,5,Negative,Congruent,0,0,0,0,,,,,,,,,,,,,,,,,,,,,,,,,,,,,0,14,14,14,,,,,,,,,,,,,,,,,,,,,,,,,,,,,,,,,,,,,,,,,,,,,,,,,,,,,,,,,,,,,,,,,,,,,2,0.8923119999817573,608.5296134999953,None,ScrollUp,정답입니다,608.5296134999953,None,608.5296134999953,None,608.5296134999953,None,608.5296134999953,None,609.3128121999907,None,609.3128121999907,609.8127356999903,,,,,,,,,,,,,,,,023,2022-05-18_17h48.19.309,FishGame,2022.1.1,60.0083411670488,
,16,넌 똑똑해,2,Green,B,5.666666666666667,3.966666666666667,ScrollUp,ScrollDown,Green.png,5,Positive,Incongruent,0,0,0,0,,,,,,,,,,,,,,,,,,,,,,,,,,,,,0,15,15,15,,,,,,,,,,,,,,,,,,,,,,,,,,,,,,,,,,,,,,,,,,,,,,,,,,,,,,,,,,,,,,,,,,,,,2,0.9594389999983832,610.4396456999821,None,ScrollUp,정답입니다,610.4396456999821,None,610.4396456999821,None,610.4396456999821,None,610.4396456999821,None,611.2983266999945,None,611.2983266999945,611.815096699982,,,,,,,,,,,,,,,,023,2022-05-18_17h48.19.309,FishGame,2022.1.1,60.0083411670488,
,17,나를 보내줘,6,Orange,A,0,0,ScrollUp,ScrollDown,Orange.png,5,NonTarget,NonTarget,0,0,0,0,,,,,,,,,,,,,,,,,,,,,,,,,,,,,0,16,16,16,,,,,,,,,,,,,,,,,,,,,,,,,,,,,,,,,,,,,,,,,,,,,,,,,,,,,,,,,,,,,,,,,,,,,2,1.1594373999978416,612.4213555000024,None,ScrollUp,정답입니다,612.4213555000024,None,612.4213555000024,None,612.4213555000024,None,612.4213555000024,None,613.4815202999744,None,613.4815202999744,613.9815586999757,,,,,,,,,,,,,,,,023,2022-05-18_17h48.19.309,FishGame,2022.1.1,60.0083411670488,
,18,넌 협조적이야,1,Orange,A,5.625,5.666666666666667,ScrollDown,ScrollUp,Orange.png,5,Positive,Congruent,0,0,0,0,,,,,,,,,,,,,,,,,,,,,,,,,,,,,0,17,17,17,,,,,,,,,,,,,,,,,,,,,,,,,,,,,,,,,,,,,,,,,,,,,,,,,,,,,,,,,,,,,,,,,,,,,1,1.0106760999769904,614.6013891000184,None,ScrollDown,정답입니다,614.6013891000184,None,614.6013891000184,None,614.6013891000184,None,614.6013891000184,None,615.5127328999806,None,615.5127328999806,616.0149061999982,,,,,,,,,,,,,,,,023,2022-05-18_17h48.19.309,FishGame,2022.1.1,60.0083411670488,
,19,나를 데려가줘,6,Green,B,0,0,ScrollDown,ScrollUp,Green.png,5,NonTarget,NonTarget,0,0,0,0,,,,,,,,,,,,,,,,,,,,,,,,,,,,,0,18,18,18,,,,,,,,,,,,,,,,,,,,,,,,,,,,,,,,,,,,,,,,,,,,,,,,,,,,,,,,,,,,,,,,,,,,,1,1.225683199998457,616.635208200023,None,ScrollDown,정답입니다,616.635208200023,None,616.635208200023,None,616.635208200023,None,616.635208200023,None,617.7623825999908,None,617.7623825999908,618.2624445999973,,,,,,,,,,,,,,,,023,2022-05-18_17h48.19.309,FishGame,2022.1.1,60.0083411670488,
,20,넌 몰인정해,5,Green,B,2.541666666666667,2.066666666666667,ScrollUp,ScrollDown,Green.png,5,Negative,Congruent,0,0,0,0,,,,,,,,,,,,,,,,,,,,,,,,,,,,,0,19,19,19,,,,,,,,,,,,,,,,,,,,,,,,,,,,,,,,,,,,,,,,,,,,,,,,,,,,,,,,,,,,,,,,,,,,,2,1.028294800024014,618.8844276000164,None,ScrollUp,정답입니다,618.8844276000164,None,618.8844276000164,None,618.8844276000164,None,618.8844276000164,None,619.8124003999983,None,619.8124003999983,620.3148946000147,,,,,,,,,,,,,,,,023,2022-05-18_17h48.19.309,FishGame,2022.1.1,60.0083411670488,
,21,나를 데려가줘,6,Green,B,0,0,ScrollDown,ScrollUp,Green.png,5,NonTarget,NonTarget,0,0,0,0,,,,,,,,,,,,,,,,,,,,,,,,,,,,,0,20,20,20,,,,,,,,,,,,,,,,,,,,,,,,,,,,,,,,,,,,,,,,,,,,,,,,,,,,,,,,,,,,,,,,,,,,,1,1.0317977999802679,620.9383064999711,None,ScrollDown,정답입니다,620.9383064999711,None,620.9383064999711,None,620.9383064999711,None,620.9383064999711,None,621.864871400001,None,621.864871400001,622.3648557999986,,,,,,,,,,,,,,,,023,2022-05-18_17h48.19.309,FishGame,2022.1.1,60.0083411670488,
,22,넌 순진해,3,Green,B,4.125,4.166666666666667,ScrollUp,ScrollDown,Green.png,5,Neutral,Neutral,0,0,0,0,,,,,,,,,,,,,,,,,,,,,,,,,,,,,0,21,21,21,,,,,,,,,,,,,,,,,,,,,,,,,,,,,,,,,,,,,,,,,,,,,,,,,,,,,,,,,,,,,,,,,,,,,2,1.3427345000091009,622.9881077000173,None,ScrollUp,정답입니다,622.9881077000173,None,622.9881077000173,None,622.9881077000173,None,622.9881077000173,None,624.2291941000149,None,624.2291941000149,624.7314105000114,,,,,,,,,,,,,,,,023,2022-05-18_17h48.19.309,FishGame,2022.1.1,60.0083411670488,
,23,넌 신뢰할만해,1,Orange,A,6.625,5.533333333333333,ScrollDown,ScrollUp,Orange.png,5,Positive,Congruent,0,0,0,0,,,,,,,,,,,,,,,,,,,,,,,,,,,,,0,22,22,22,,,,,,,,,,,,,,,,,,,,,,,,,,,,,,,,,,,,,,,,,,,,,,,,,,,,,,,,,,,,,,,,,,,,,1.0262345671653748,0.892256399965845,625.3635863999953,None,ScrollDown,정답입니다,625.3635863999953,None,625.3635863999953,None,625.3635863999953,None,625.3635863999953,None,626.1455446999753,None,626.1455446999753,626.645610800013,,,,,,,,,,,,,,,,023,2022-05-18_17h48.19.309,FishGame,2022.1.1,60.0083411670488,
