name,TrialNum,Word,WordCategory,FishType,WordList,WordValence,WordReputation,CorrectResp,IncorrectResp,FishTypeFile,Round,WordType,Condition,LoopforOrange.thisRepN,LoopforOrange.thisTrialN,LoopforOrange.thisN,LoopforOrange.thisIndex,LoopForGreen.thisRepN,LoopForGreen.thisTrialN,LoopForGreen.thisN,LoopForGreen.thisIndex,GreenInstLoop.thisRepN,GreenInstLoop.thisTrialN,GreenInstLoop.thisN,GreenInstLoop.thisIndex,GreenPrac.thisRepN,GreenPrac.thisTrialN,GreenPrac.thisN,GreenPrac.thisIndex,trials_2.thisRepN,trials_2.thisTrialN,trials_2.thisN,trials_2.thisIndex,GreenRound1.thisRepN,GreenRound1.thisTrialN,GreenRound1.thisN,GreenRound1.thisIndex,GreenRound2.thisRepN,GreenRound2.thisTrialN,GreenRound2.thisN,GreenRound2.thisIndex,GreenRound3.thisRepN,GreenRound3.thisTrialN,GreenRound3.thisN,GreenRound3.thisIndex,GreenRound4.thisRepN,GreenRound4.thisTrialN,GreenRound4.thisN,GreenRound4.thisIndex,GreenRound5.thisRepN,GreenRound5.thisTrialN,GreenRound5.thisN,GreenRound5.thisIndex,text_2.started,text_2.stopped,text_3.started,text_3.stopped,key_resp.keys,key_resp.rt,key_resp.started,key_resp.stopped,PassI.started,PassI.stopped,PassInst.keys,PassInst.rt,PassInst.started,PassInst.stopped,mouse_2.x,mouse_2.y,mouse_2.leftButton,mouse_2.midButton,mouse_2.rightButton,mouse_2.started,mouse_2.stopped,image.started,image.stopped,text_5.started,text_5.stopped,text_6.started,text_6.stopped,text_7.started,text_7.stopped,text_8.started,text_8.stopped,slider_3.response,slider_3.rt,slider_3.started,slider_3.stopped,Response_3,Feedback_3,BackGround_3.started,BackGround_3.stopped,Fish_3.started,Fish_3.stopped,WordBox_3.started,WordBox_3.stopped,Words_3.started,Words_3.stopped,BackGround_Feedback_3.started,BackGround_Feedback_3.stopped,Feedbacks_3.started,Feedbacks_3.stopped,Continue_or_not_2.keys,Continue_or_not_2.rt,Continue_or_not_2.started,Continue_or_not_2.stopped,image_4.started,image_4.stopped,mouse_3.x,mouse_3.y,mouse_3.leftButton,mouse_3.midButton,mouse_3.rightButton,mouse_3.started,mouse_3.stopped,startmain.started,startmain.stopped,slider_4.response,slider_4.rt,slider_4.started,slider_4.stopped,Response_4,Feedback_4,BackGround_4.started,BackGround_4.stopped,Fish_4.started,Fish_4.stopped,WordBox_4.started,WordBox_4.stopped,Words_4.started,Words_4.stopped,BackGround_Feedback_4.started,BackGround_Feedback_4.stopped,Feedbacks_4.started,Feedbacks_4.stopped,text.started,text.stopped,break_interval.started,break_interval.stopped,mouse.x,mouse.y,mouse.leftButton,mouse.midButton,mouse.rightButton,mouse.started,mouse.stopped,stratnextround.started,stratnextround.stopped,endgame.started,endgame.stopped,participant,date,expName,psychopyVersion,frameRate,
,,,,,,,,,,,,,,,,,,,,,,,,,,,,,,,,,,,,,,,,,,,,,,,,,,,,,,17.191439100017305,None,17.191439100017305,None,space,3.489186799968593,17.667762500001118,None,,,,,,,,,,,,,,,,,,,,,,,,,,,,,,,,,,,,,,,,,,,,,,,,,,,,,,,,,,,,,,,,,,,,,,,,,,,,,,,,,,,,,,,,,,024,2022-05-19_10h59.35.722,FishGame,2022.1.1,59.79284171632573,
물고기과제_instruction(참가자용)GreenVersion.mp4,,,,,,,,,,,,,,,,,,0,0,0,0,0,0,0,0,,,,,,,,,,,,,,,,,,,,,,,,,,,,,,,,,,,,,135.0955119000282,None,n,1.3339019999839365,135.0955119000282,None,,,,,,,,,,,,,,,,,,,,,,,,,,,,,,,,,,,,,,,,,,,,,,,,,,,,,,,,,,,,,,,,,,,,,,,,,,,,,,,,,,,,024,2022-05-19_10h59.35.722,FishGame,2022.1.1,59.79284171632573,
,1,넌 교활해,5,Orange,B,2.333333333333333,2.133333333333333,ScrollUp,ScrollDown,Orange.png,practice,,,,,,,0,0,0,0,,,,,0,0,0,0,0,0,0,0,,,,,,,,,,,,,,,,,,,,,,,,,,,,,,,,,,,0.425,-0.2777778,1,0,0,0.499120119959116,None,136.45984959998168,None,140.94307869998738,142.44540480000433,142.47872090002056,143.42875060002552,143.47870430001058,144.42872700002044,144.42872700002044,None,2,2.1174769999925047,145.73530060000485,None,ScrollUp,정답입니다,145.73530060000485,None,145.73530060000485,None,145.73530060000485,None,145.73530060000485,None,147.56234750000294,None,147.56234750000294,148.05959560000338,,,,,,,,,,,,,,,,,,,,,,,,,,,,,,,,,,,,,,,,,,,,,,,,,024,2022-05-19_10h59.35.722,FishGame,2022.1.1,59.79284171632573,
,2,넌 슬기로워,2,Green,A,6.166666666666667,4.1,ScrollDown,ScrollUp,Green.png,practice,,,,,,,0,0,0,0,,,,,0,0,0,0,0,1,1,1,,,,,,,,,,,,,,,,,,,,,,,,,,,,,,,,,,,,,,,,,,,,,,,,,,,,1,1.1449816999956965,148.69282529997872,None,ScrollDown,정답입니다,148.69282529997872,None,148.69282529997872,None,148.69282529997872,None,148.69282529997872,None,149.74291510001058,None,149.74291510001058,150.24506059999112,,,,,,,,,,,,,,,,,,,,,,,,,,,,,,,,,,,,,,,,,,,,,,,,,024,2022-05-19_10h59.35.722,FishGame,2022.1.1,59.79284171632573,
,3,나를 보내줘,6,Green,A,0,0,ScrollUp,ScrollDown,Green.png,practice,,,,,,,0,0,0,0,,,,,0,0,0,0,0,2,2,2,,,,,,,,,,,,,,,,,,,,,,,,,,,,,,,,,,,,,,,,,,,,,,,,,,,,2,1.7422339000040665,150.86596600001212,None,ScrollUp,정답입니다,150.86596600001212,None,150.86596600001212,None,150.86596600001212,None,150.86596600001212,None,152.50951850001002,None,152.50951850001002,153.01171890000114,,,,,,,,,,,,,,,,,,,,,,,,,,,,,,,,,,,,,,,,,,,,,,,,,024,2022-05-19_10h59.35.722,FishGame,2022.1.1,59.79284171632573,
,4,나를 데려가줘,6,Orange,B,0,0,ScrollDown,ScrollUp,Orange.png,practice,,,,,,,0,0,0,0,,,,,0,0,0,0,0,3,3,3,,,,,,,,,,,,,,,,,,,,,,,,,,,,,,,,,,,,,,,,,,,,,,,,,,,,1,1.5422361000091769,153.63044560002163,None,ScrollDown,정답입니다,153.63044560002163,None,153.63044560002163,None,153.63044560002163,None,153.63044560002163,None,155.07605420000618,None,155.07605420000618,155.5783033000189,,,,,,,,,,,,,,,,,,,,,,,,,,,,,,,,,,,,,,,,,,,,,,,,,024,2022-05-19_10h59.35.722,FishGame,2022.1.1,59.79284171632573,
,1,넌 교활해,5,Orange,B,2.333333333333333,2.133333333333333,ScrollUp,ScrollDown,Orange.png,practice,,,,,,,0,0,0,0,,,,,0,0,0,0,,,,,,,,,,,,,,,,,,,,,,,,,,,,,,,,,,,,,,,,,,,,,,,,,,,,,,,,,,,,,,,,,,,,,,,,,,n,7.278751200006809,156.0782404000056,None,156.0782404000056,None,,,,,,,,,,,,,,,,,,,,,,,,,,,,,,,,,,,,,,,,,,,024,2022-05-19_10h59.35.722,FishGame,2022.1.1,59.79284171632573,
,1,넌 따뜻해,1,Orange,B,6.083333333333333,5.6,ScrollUp,ScrollDown,Orange.png,1,Positive,Incongruent,,,,,0,0,0,0,,,,,,,,,,,,,0,0,0,0,,,,,,,,,,,,,,,,,,,,,,,,,,,,,,,,,,,,,,,,165.12608890002593,166.62829920003423,166.66161589999683,167.61155670002336,167.66158429998904,168.61153039999772,168.61153039999772,None,,,,,,,,,,,,,,,,,,,,,,,,,0.11203704,-0.15092592,1,0,0,0.313905920018442,None,163.37588960002176,None,2,1.6872656000196002,169.90670099999988,None,ScrollUp,정답입니다,169.90670099999988,None,169.90670099999988,None,169.90670099999988,None,169.90670099999988,None,171.2946973000071,None,171.2946973000071,171.81124980002642,,,,,,,,,,,,,,,,024,2022-05-19_10h59.35.722,FishGame,2022.1.1,59.79284171632573,
,2,넌 기품있어,2,Orange,B,5.791666666666668,4.5,ScrollUp,ScrollDown,Orange.png,1,Positive,Incongruent,,,,,0,0,0,0,,,,,,,,,,,,,0,1,1,1,,,,,,,,,,,,,,,,,,,,,,,,,,,,,,,,,,,,,,,,,,,,,,,,,,,,,,,,,,,,,,,,,,,,,,,,,,,,,,,,,2,1.4112854999839328,172.4461825999897,None,ScrollUp,정답입니다,172.4461825999897,None,172.4461825999897,None,172.4461825999897,None,172.4461825999897,None,173.7423751000315,None,173.7423751000315,174.2423756000353,,,,,,,,,,,,,,,,024,2022-05-19_10h59.35.722,FishGame,2022.1.1,59.79284171632573,
,3,나를 보내줘,6,Green,A,0,0,ScrollUp,ScrollDown,Green.png,1,NonTarget,NonTarget,,,,,0,0,0,0,,,,,,,,,,,,,0,2,2,2,,,,,,,,,,,,,,,,,,,,,,,,,,,,,,,,,,,,,,,,,,,,,,,,,,,,,,,,,,,,,,,,,,,,,,,,,,,,,,,,,2,1.5590298000024632,174.87086949998047,None,ScrollUp,정답입니다,174.87086949998047,None,174.87086949998047,None,174.87086949998047,None,174.87086949998047,None,176.3256826000288,None,176.3256826000288,176.82790600002045,,,,,,,,,,,,,,,,024,2022-05-19_10h59.35.722,FishGame,2022.1.1,59.79284171632573,
,4,넌 수동적이야,4,Green,A,2.833333333333333,2.933333333333333,ScrollDown,ScrollUp,Green.png,1,Negative,Incongruent,,,,,0,0,0,0,,,,,,,,,,,,,0,3,3,3,,,,,,,,,,,,,,,,,,,,,,,,,,,,,,,,,,,,,,,,,,,,,,,,,,,,,,,,,,,,,,,,,,,,,,,,,,,,,,,,,1,1.5961972000077367,177.44994790002238,None,ScrollDown,정답입니다,177.44994790002238,None,177.44994790002238,None,177.44994790002238,None,177.44994790002238,None,178.94224599999143,None,178.94224599999143,179.44439150003018,,,,,,,,,,,,,,,,024,2022-05-19_10h59.35.722,FishGame,2022.1.1,59.79284171632573,
,5,넌 사심이 없어,3,Orange,B,4.916666666666666,4.333333333333333,ScrollUp,ScrollDown,Orange.png,1,Neutral,Neutral,,,,,0,0,0,0,,,,,,,,,,,,,0,4,4,4,,,,,,,,,,,,,,,,,,,,,,,,,,,,,,,,,,,,,,,,,,,,,,,,,,,,,,,,,,,,,,,,,,,,,,,,,,,,,,,,,2,1.460890999995172,180.06666660000337,None,ScrollUp,정답입니다,180.06666660000337,None,180.06666660000337,None,180.06666660000337,None,180.06666660000337,None,181.42776839999715,None,181.42776839999715,181.92781570000807,,,,,,,,,,,,,,,,024,2022-05-19_10h59.35.722,FishGame,2022.1.1,59.79284171632573,
,6,넌 헤퍼,5,Green,A,2.458333333333334,2.233333333333333,ScrollDown,ScrollUp,Green.png,1,Negative,Incongruent,,,,,0,0,0,0,,,,,,,,,,,,,0,5,5,5,,,,,,,,,,,,,,,,,,,,,,,,,,,,,,,,,,,,,,,,,,,,,,,,,,,,,,,,,,,,,,,,,,,,,,,,,,,,,,,,,1,1.3923675999976695,182.5648552000057,None,ScrollDown,정답입니다,182.5648552000057,None,182.5648552000057,None,182.5648552000057,None,182.5648552000057,None,183.85886540001957,None,183.85886540001957,184.36100309999892,,,,,,,,,,,,,,,,024,2022-05-19_10h59.35.722,FishGame,2022.1.1,59.79284171632573,
,7,넌 말쑥해,3,Green,A,4.833333333333334,4.333333333333333,ScrollDown,ScrollUp,Green.png,1,Neutral,Neutral,,,,,0,0,0,0,,,,,,,,,,,,,0,6,6,6,,,,,,,,,,,,,,,,,,,,,,,,,,,,,,,,,,,,,,,,,,,,,,,,,,,,,,,,,,,,,,,,,,,,,,,,,,,,,,,,,1,1.3588458999875002,184.98069649998797,None,ScrollDown,정답입니다,184.98069649998797,None,184.98069649998797,None,184.98069649998797,None,184.98069649998797,None,186.24215790000744,None,186.24215790000744,186.7444171999814,,,,,,,,,,,,,,,,024,2022-05-19_10h59.35.722,FishGame,2022.1.1,59.79284171632573,
,8,넌 투덜거려,5,Orange,B,2.541666666666667,2.266666666666667,ScrollUp,ScrollDown,Orange.png,1,Negative,Congruent,,,,,0,0,0,0,,,,,,,,,,,,,0,7,7,7,,,,,,,,,,,,,,,,,,,,,,,,,,,,,,,,,,,,,,,,,,,,,,,,,,,,,,,,,,,,,,,,,,,,,,,,,,,,,,,,,2,1.5099835999426432,187.37290750001557,None,ScrollUp,정답입니다,187.37290750001557,None,187.37290750001557,None,187.37290750001557,None,187.37290750001557,None,188.77513740002178,None,188.77513740002178,189.27518639998743,,,,,,,,,,,,,,,,024,2022-05-19_10h59.35.722,FishGame,2022.1.1,59.79284171632573,
,9,넌 적극적이야,1,Green,A,5.708333333333333,5.533333333333333,ScrollDown,ScrollUp,Green.png,1,Positive,Congruent,,,,,0,0,0,0,,,,,,,,,,,,,0,8,8,8,,,,,,,,,,,,,,,,,,,,,,,,,,,,,,,,,,,,,,,,,,,,,,,,,,,,,,,,,,,,,,,,,,,,,,,,,,,,,,,,,1,1.3471415000385605,189.89682959998026,None,ScrollDown,정답입니다,189.89682959998026,None,189.89682959998026,None,189.89682959998026,None,189.89682959998026,None,191.14429239998572,None,191.14429239998572,191.6443196000182,,,,,,,,,,,,,,,,024,2022-05-19_10h59.35.722,FishGame,2022.1.1,59.79284171632573,
,10,넌 재미없어,4,Orange,B,2.625,2.966666666666667,ScrollUp,ScrollDown,Orange.png,1,Negative,Congruent,,,,,0,0,0,0,,,,,,,,,,,,,0,9,9,9,,,,,,,,,,,,,,,,,,,,,,,,,,,,,,,,,,,,,,,,,,,,,,,,,,,,,,,,,,,,,,,,,,,,,,,,,,,,,,,,,2,1.3750473999534734,192.2774709999794,None,ScrollUp,정답입니다,192.2774709999794,None,192.2774709999794,None,192.2774709999794,None,192.2774709999794,None,193.54170569998678,None,193.54170569998678,194.0417741999845,,,,,,,,,,,,,,,,024,2022-05-19_10h59.35.722,FishGame,2022.1.1,59.79284171632573,
,11,넌 명석해,2,Green,A,5.875,4.033333333333333,ScrollDown,ScrollUp,Green.png,1,Positive,Congruent,,,,,0,0,0,0,,,,,,,,,,,,,0,10,10,10,,,,,,,,,,,,,,,,,,,,,,,,,,,,,,,,,,,,,,,,,,,,,,,,,,,,,,,,,,,,,,,,,,,,,,,,,,,,,,,,,1,1.2636178000248037,194.66552540002158,None,ScrollDown,정답입니다,194.66552540002158,None,194.66552540002158,None,194.66552540002158,None,194.66552540002158,None,195.82759569998598,None,195.82759569998598,196.32765270001255,,,,,,,,,,,,,,,,024,2022-05-19_10h59.35.722,FishGame,2022.1.1,59.79284171632573,
,12,나를 데려가줘,6,Orange,B,0,0,ScrollDown,ScrollUp,Orange.png,1,NonTarget,NonTarget,,,,,0,0,0,0,,,,,,,,,,,,,0,11,11,11,,,,,,,,,,,,,,,,,,,,,,,,,,,,,,,,,,,,,,,,,,,,,,,,,,,,,,,,,,,,,,,,,,,,,,,,,,,,,,,,,1,1.3792245999793522,196.94703420001315,None,ScrollDown,정답입니다,196.94703420001315,None,196.94703420001315,None,196.94703420001315,None,196.94703420001315,None,198.2273534000269,None,198.2273534000269,198.7273929999792,,,,,,,,,,,,,,,,024,2022-05-19_10h59.35.722,FishGame,2022.1.1,59.79284171632573,
,13,넌 소심해,4,Green,A,3,3.1,ScrollDown,ScrollUp,Green.png,1,Negative,Incongruent,,,,,0,0,0,0,,,,,,,,,,,,,0,12,12,12,,,,,,,,,,,,,,,,,,,,,,,,,,,,,,,,,,,,,,,,,,,,,,,,,,,,,,,,,,,,,,,,,,,,,,,,,,,,,,,,,1,2.59211739996681,199.35244180000154,None,ScrollDown,정답입니다,199.35244180000154,None,199.35244180000154,None,199.35244180000154,None,199.35244180000154,None,201.84159090003232,None,201.84159090003232,202.34410450002179,,,,,,,,,,,,,,,,024,2022-05-19_10h59.35.722,FishGame,2022.1.1,59.79284171632573,
,14,넌 합리적이야,2,Green,A,5.583333333333333,4.733333333333333,ScrollDown,ScrollUp,Green.png,1,Positive,Congruent,,,,,0,0,0,0,,,,,,,,,,,,,0,13,13,13,,,,,,,,,,,,,,,,,,,,,,,,,,,,,,,,,,,,,,,,,,,,,,,,,,,,,,,,,,,,,,,,,,,,,,,,,,,,,,,,,1,1.2817926999996416,202.96197720000055,None,ScrollDown,정답입니다,202.96197720000055,None,202.96197720000055,None,202.96197720000055,None,202.96197720000055,None,204.14406489999965,None,204.14406489999965,204.6472123999847,,,,,,,,,,,,,,,,024,2022-05-19_10h59.35.722,FishGame,2022.1.1,59.79284171632573,
,15,넌 무자비해,5,Orange,B,2.333333333333333,2.1,ScrollUp,ScrollDown,Orange.png,1,Negative,Congruent,,,,,0,0,0,0,,,,,,,,,,,,,0,14,14,14,,,,,,,,,,,,,,,,,,,,,,,,,,,,,,,,,,,,,,,,,,,,,,,,,,,,,,,,,,,,,,,,,,,,,,,,,,,,,,,,,2,1.1938642000313848,205.2660995000042,None,ScrollUp,정답입니다,205.2660995000042,None,205.2660995000042,None,205.2660995000042,None,205.2660995000042,None,206.3605222000042,None,206.3605222000042,206.86059510003543,,,,,,,,,,,,,,,,024,2022-05-19_10h59.35.722,FishGame,2022.1.1,59.79284171632573,
,16,나를 보내줘,6,Green,A,0,0,ScrollUp,ScrollDown,Green.png,1,NonTarget,NonTarget,,,,,0,0,0,0,,,,,,,,,,,,,0,15,15,15,,,,,,,,,,,,,,,,,,,,,,,,,,,,,,,,,,,,,,,,,,,,,,,,,,,,,,,,,,,,,,,,,,,,,,,,,,,,,,,,,2,1.3595146000152454,207.48199719999684,None,ScrollUp,정답입니다,207.48199719999684,None,207.48199719999684,None,207.48199719999684,None,207.48199719999684,None,208.74139819998527,None,208.74139819998527,209.24146250000922,,,,,,,,,,,,,,,,024,2022-05-19_10h59.35.722,FishGame,2022.1.1,59.79284171632573,
,17,넌 현실적이야,3,Orange,B,4.608695652173913,4.766666666666667,ScrollUp,ScrollDown,Orange.png,1,Neutral,Neutral,,,,,0,0,0,0,,,,,,,,,,,,,0,16,16,16,,,,,,,,,,,,,,,,,,,,,,,,,,,,,,,,,,,,,,,,,,,,,,,,,,,,,,,,,,,,,,,,,,,,,,,,,,,,,,,,,2,1.4283082999754697,209.86668500001542,None,ScrollUp,정답입니다,209.86668500001542,None,209.86668500001542,None,209.86668500001542,None,209.86668500001542,None,211.1938944000285,None,211.1938944000285,211.69389689998934,,,,,,,,,,,,,,,,024,2022-05-19_10h59.35.722,FishGame,2022.1.1,59.79284171632573,
,18,넌 의리있어,1,Orange,B,5.833333333333334,5.633333333333334,ScrollUp,ScrollDown,Orange.png,1,Positive,Incongruent,,,,,0,0,0,0,,,,,,,,,,,,,0,17,17,17,,,,,,,,,,,,,,,,,,,,,,,,,,,,,,,,,,,,,,,,,,,,,,,,,,,,,,,,,,,,,,,,,,,,,,,,,,,,,,,,,2,1.2441661999910139,212.3146262000082,None,ScrollUp,정답입니다,212.3146262000082,None,212.3146262000082,None,212.3146262000082,None,212.3146262000082,None,213.45824499998707,None,213.45824499998707,213.95825820002938,,,,,,,,,,,,,,,,024,2022-05-19_10h59.35.722,FishGame,2022.1.1,59.79284171632573,
,19,넌 신경과민이야,5,Green,A,2.541666666666667,2.166666666666667,ScrollDown,ScrollUp,Green.png,1,Negative,Incongruent,,,,,0,0,0,0,,,,,,,,,,,,,0,18,18,18,,,,,,,,,,,,,,,,,,,,,,,,,,,,,,,,,,,,,,,,,,,,,,,,,,,,,,,,,,,,,,,,,,,,,,,,,,,,,,,,,1,1.1945649000117555,214.5859219999984,None,ScrollDown,정답입니다,214.5859219999984,None,214.5859219999984,None,214.5859219999984,None,214.5859219999984,None,215.67459359997883,None,215.67459359997883,216.17466000001878,,,,,,,,,,,,,,,,024,2022-05-19_10h59.35.722,FishGame,2022.1.1,59.79284171632573,
,20,넌 편안해,1,Green,A,5.916666666666666,5.866666666666666,ScrollDown,ScrollUp,Green.png,1,Positive,Congruent,,,,,0,0,0,0,,,,,,,,,,,,,0,19,19,19,,,,,,,,,,,,,,,,,,,,,,,,,,,,,,,,,,,,,,,,,,,,,,,,,,,,,,,,,,,,,,,,,,,,,,,,,,,,,,,,,1,1.1972831999883056,216.7974151999806,None,ScrollDown,정답입니다,216.7974151999806,None,216.7974151999806,None,216.7974151999806,None,216.7974151999806,None,217.8938231000211,None,217.8938231000211,218.39378370001214,,,,,,,,,,,,,,,,024,2022-05-19_10h59.35.722,FishGame,2022.1.1,59.79284171632573,
,21,넌 품위있어,2,Orange,B,5.291666666666666,4.466666666666667,ScrollUp,ScrollDown,Orange.png,1,Positive,Incongruent,,,,,0,0,0,0,,,,,,,,,,,,,0,20,20,20,,,,,,,,,,,,,,,,,,,,,,,,,,,,,,,,,,,,,,,,,,,,,,,,,,,,,,,,,,,,,,,,,,,,,,,,,,,,,,,,,2,1.1586395999765955,219.01655489997938,None,ScrollUp,정답입니다,219.01655489997938,None,219.01655489997938,None,219.01655489997938,None,219.01655489997938,None,220.07450250000693,None,220.07450250000693,220.5745556000038,,,,,,,,,,,,,,,,024,2022-05-19_10h59.35.722,FishGame,2022.1.1,59.79284171632573,
,22,넌 빈틈없어,3,Green,A,4.833333333333333,3.966666666666667,ScrollDown,ScrollUp,Green.png,1,Neutral,Neutral,,,,,0,0,0,0,,,,,,,,,,,,,0,21,21,21,,,,,,,,,,,,,,,,,,,,,,,,,,,,,,,,,,,,,,,,,,,,,,,,,,,,,,,,,,,,,,,,,,,,,,,,,,,,,,,,,1,1.0947758000111207,221.20231170003535,None,ScrollDown,정답입니다,221.20231170003535,None,221.20231170003535,None,221.20231170003535,None,221.20231170003535,None,222.1911919999984,None,222.1911919999984,222.69369240000378,,,,,,,,,,,,,,,,024,2022-05-19_10h59.35.722,FishGame,2022.1.1,59.79284171632573,
,23,넌 상상력없어,4,Orange,B,2.833333333333333,3.133333333333333,ScrollUp,ScrollDown,Orange.png,1,Negative,Congruent,,,,,0,0,0,0,,,,,,,,,,,,,0,22,22,22,,,,,,,,,,,,,,,,,,,,,,,,,,,,,,,,,,,,,,,,,,,,,,,,,,,,,,,,,,,,,,,,,,,,,,,,,,,,,,,,,2,1.2708853000076488,223.31344440003159,None,ScrollUp,정답입니다,223.31344440003159,None,223.31344440003159,None,223.31344440003159,None,223.31344440003159,None,224.485041500011,None,224.485041500011,224.9935770999873,,,,,,,,,,,,,,,,024,2022-05-19_10h59.35.722,FishGame,2022.1.1,59.79284171632573,
,24,넌 지혜로워,2,Orange,B,6.333333333333334,4.633333333333334,ScrollUp,ScrollDown,Orange.png,1,Positive,Incongruent,,,,,0,0,0,0,,,,,,,,,,,,,0,23,23,23,,,,,,,,,,,,,,,,,,,,,,,,,,,,,,,,,,,,,,,,,,,,,,,,,,,,,,,,,,,,,,,,,,,,,,,,,,,,,,,,,2,1.3261653999798,225.61882879998302,None,ScrollUp,정답입니다,225.61882879998302,None,225.61882879998302,None,225.61882879998302,None,225.61882879998302,None,226.8435119999922,None,226.8435119999922,227.3602137999842,,,,,,,,,,,,,,,,024,2022-05-19_10h59.35.722,FishGame,2022.1.1,59.79284171632573,
,25,넌 시끄러워,4,Green,A,2.833333333333333,3.033333333333333,ScrollDown,ScrollUp,Green.png,1,Negative,Incongruent,,,,,0,0,0,0,,,,,,,,,,,,,0,24,24,24,,,,,,,,,,,,,,,,,,,,,,,,,,,,,,,,,,,,,,,,,,,,,,,,,,,,,,,,,,,,,,,,,,,,,,,,,,,,,,,,,1,1.4753622999996878,227.968400200014,None,ScrollDown,정답입니다,227.968400200014,None,227.968400200014,None,227.968400200014,None,227.968400200014,None,229.34096340002725,None,229.34096340002725,229.84104309999384,,,,,,,,,,,,,,,,024,2022-05-19_10h59.35.722,FishGame,2022.1.1,59.79284171632573,
,26,넌 만사태평이야,3,Orange,B,4,4.333333333333333,ScrollUp,ScrollDown,Orange.png,1,Neutral,Neutral,,,,,0,0,0,0,,,,,,,,,,,,,0,25,25,25,,,,,,,,,,,,,,,,,,,,,,,,,,,,,,,,,,,,,,,,,,,,,,,,,,,,,,,,,,,,,,,,,,,,,,,,,,,,,,,,,2,1.3136358999763615,230.4655811000266,None,ScrollUp,정답입니다,230.4655811000266,None,230.4655811000266,None,230.4655811000266,None,230.4655811000266,None,231.6768524000072,None,231.6768524000072,232.17683160002343,,,,,,,,,,,,,,,,024,2022-05-19_10h59.35.722,FishGame,2022.1.1,59.79284171632573,
,27,넌 붙임성있어,1,Green,A,5.708333333333333,5.633333333333334,ScrollDown,ScrollUp,Green.png,1,Positive,Congruent,,,,,0,0,0,0,,,,,,,,,,,,,0,26,26,26,,,,,,,,,,,,,,,,,,,,,,,,,,,,,,,,,,,,,,,,,,,,,,,,,,,,,,,,,,,,,,,,,,,,,,,,,,,,,,,,,1,1.1603865000070073,232.79856770002516,None,ScrollDown,정답입니다,232.79856770002516,None,232.79856770002516,None,232.79856770002516,None,232.79856770002516,None,233.85785199998645,None,233.85785199998645,234.35781389998738,,,,,,,,,,,,,,,,024,2022-05-19_10h59.35.722,FishGame,2022.1.1,59.79284171632573,
,28,넌 영리해,2,Green,A,6,4.033333333333333,ScrollDown,ScrollUp,Green.png,1,Positive,Congruent,,,,,0,0,0,0,,,,,,,,,,,,,0,27,27,27,,,,,,,,,,,,,,,,,,,,,,,,,,,,,,,,,,,,,,,,,,,,,,,,,,,,,,,,,,,,,,,,,,,,,,,,,,,,,,,,,1,1.1290358999976888,234.98056870000437,None,ScrollDown,정답입니다,234.98056870000437,None,234.98056870000437,None,234.98056870000437,None,234.98056870000437,None,236.0077685000142,None,236.0077685000142,236.50992179999594,,,,,,,,,,,,,,,,024,2022-05-19_10h59.35.722,FishGame,2022.1.1,59.79284171632573,
,29,넌 열심이야,1,Orange,B,6.041666666666667,5.833333333333333,ScrollUp,ScrollDown,Orange.png,1,Positive,Incongruent,,,,,0,0,0,0,,,,,,,,,,,,,0,28,28,28,,,,,,,,,,,,,,,,,,,,,,,,,,,,,,,,,,,,,,,,,,,,,,,,,,,,,,,,,,,,,,,,,,,,,,,,,,,,,,,,,1.9444444676240284,1.075932300009299,237.1419445000356,None,ScrollUp,정답입니다,237.1419445000356,None,237.1419445000356,None,237.1419445000356,None,237.1419445000356,None,238.10778070002561,None,238.10778070002561,238.61310369998682,,,,,,,,,,,,,,,,024,2022-05-19_10h59.35.722,FishGame,2022.1.1,59.79284171632573,
,30,넌 인기없어,4,Orange,B,3,3.3,ScrollUp,ScrollDown,Orange.png,1,Negative,Congruent,,,,,0,0,0,0,,,,,,,,,,,,,0,29,29,29,,,,,,,,,,,,,,,,,,,,,,,,,,,,,,,,,,,,,,,,,,,,,,,,,,,,,,,,,,,,,,,,,,,,,,,,,,,,,,,,,2,1.1755186999798752,239.2343991000089,None,ScrollUp,정답입니다,239.2343991000089,None,239.2343991000089,None,239.2343991000089,None,239.2343991000089,None,240.30766099999892,None,240.30766099999892,240.80992810003227,,,,,,,,,,,,,,,,024,2022-05-19_10h59.35.722,FishGame,2022.1.1,59.79284171632573,
,31,넌 익살스러워,3,Green,A,4.708333333333334,4.833333333333333,ScrollDown,ScrollUp,Green.png,1,Neutral,Neutral,,,,,0,0,0,0,,,,,,,,,,,,,0,30,30,30,,,,,,,,,,,,,,,,,,,,,,,,,,,,,,,,,,,,,,,,,,,,,,,,,,,,,,,,,,,,,,,,,,,,,,,,,,,,,,,,,1,1.0111966999829747,241.4301078999997,None,ScrollDown,정답입니다,241.4301078999997,None,241.4301078999997,None,241.4301078999997,None,241.4301078999997,None,242.34097580000525,None,242.34097580000525,242.84323120000772,,,,,,,,,,,,,,,,024,2022-05-19_10h59.35.722,FishGame,2022.1.1,59.79284171632573,
,32,넌 이기적이야,5,Orange,B,2.291666666666667,2.333333333333333,ScrollUp,ScrollDown,Orange.png,1,Negative,Congruent,,,,,0,0,0,0,,,,,,,,,,,,,0,31,31,31,,,,,,,,,,,,,,,,,,,,,,,,,,,,,,,,,,,,,,,,,,,,,,,,,,,,,,,,,,,,,,,,,,,,,,,,,,,,,,,,,2,1.3270980999805033,243.4678550999961,None,ScrollUp,정답입니다,243.4678550999961,None,243.4678550999961,None,243.4678550999961,None,243.4678550999961,None,244.69093450001674,None,244.69093450001674,245.19310249999398,,,,,,,,,,,,,,,,024,2022-05-19_10h59.35.722,FishGame,2022.1.1,59.79284171632573,
,33,나를 데려가줘,6,Orange,B,0,0,ScrollDown,ScrollUp,Orange.png,1,NonTarget,NonTarget,,,,,0,0,0,0,,,,,,,,,,,,,0,32,32,32,,,,,,,,,,,,,,,,,,,,,,,,,,,,,,,,,,,,,,,,,,,,,,,,,,,,,,,,,,,,,,,,,,,,,,,,,,,,,,,,,1,1.5588045000331476,245.81668960000388,None,ScrollDown,정답입니다,245.81668960000388,None,245.81668960000388,None,245.81668960000388,None,245.81668960000388,None,247.27393880003365,None,247.27393880003365,247.774006200023,,,,,,,,,,,,,,,,024,2022-05-19_10h59.35.722,FishGame,2022.1.1,59.79284171632573,
,34,넌 기회주의자야,5,Green,A,2.875,2.133333333333333,ScrollDown,ScrollUp,Green.png,1,Negative,Incongruent,,,,,0,0,0,0,,,,,,,,,,,,,0,33,33,33,,,,,,,,,,,,,,,,,,,,,,,,,,,,,,,,,,,,,,,,,,,,,,,,,,,,,,,,,,,,,,,,,,,,,,,,,,,,,,,,,1.0262345671653748,1.3950767000205815,248.3977312000352,None,ScrollDown,정답입니다,248.3977312000352,None,248.3977312000352,None,248.3977312000352,None,248.3977312000352,None,249.69307360000676,None,249.69307360000676,250.19316060002893,,,,,,,,,,,,,,,,024,2022-05-19_10h59.35.722,FishGame,2022.1.1,59.79284171632573,
,1,넌 미성숙해,4,Green,A,3,3.2,ScrollDown,ScrollUp,Green.png,2,Negative,Incongruent,,,,,0,0,0,0,,,,,,,,,,,,,,,,,0,0,0,0,,,,,,,,,,,,,,,,,,,,,,,,,,,,,,,,,,,,282.80690520000644,284.3091524000047,284.3424956999952,285.2924620999838,285.34248440002557,286.29243979998864,286.29243979998864,None,,,,,,,,,,,,,,,,,,,,,,,,,,,,,,,,,,1,1.5750299000064842,287.39547699998366,None,ScrollDown,정답입니다,287.39547699998366,None,287.39547699998366,None,287.39547699998366,None,287.39547699998366,None,288.8734082999872,None,288.8734082999872,289.3733970000176,250.69313929998316,None,250.69313929998316,None,0.23425926,-0.072222225,1,0,0,0.016063120041508228,None,280.70891879999544,None,,,024,2022-05-19_10h59.35.722,FishGame,2022.1.1,59.79284171632573,
,2,넌 반사회적이야,5,Orange,B,2.416666666666667,2.033333333333333,ScrollUp,ScrollDown,Orange.png,2,Negative,Congruent,,,,,0,0,0,0,,,,,,,,,,,,,,,,,0,1,1,1,,,,,,,,,,,,,,,,,,,,,,,,,,,,,,,,,,,,,,,,,,,,,,,,,,,,,,,,,,,,,,,,,,,,,,,,,,,,,2,1.2946120999986306,289.9969533000258,None,ScrollUp,정답입니다,289.9969533000258,None,289.9969533000258,None,289.9969533000258,None,289.9969533000258,None,291.19216859998414,None,291.19216859998414,291.69221489998745,,,,,,,,,,,,,,,,024,2022-05-19_10h59.35.722,FishGame,2022.1.1,59.79284171632573,
,3,넌 유능해,2,Green,A,6.208333333333333,4.433333333333334,ScrollDown,ScrollUp,Green.png,2,Positive,Congruent,,,,,0,0,0,0,,,,,,,,,,,,,,,,,0,2,2,2,,,,,,,,,,,,,,,,,,,,,,,,,,,,,,,,,,,,,,,,,,,,,,,,,,,,,,,,,,,,,,,,,,,,,,,,,,,,,1,1.1587194000021555,292.32288719998905,None,ScrollDown,정답입니다,292.32288719998905,None,292.32288719998905,None,292.32288719998905,None,292.32288719998905,None,293.37550259998534,None,293.37550259998534,293.87546070001554,,,,,,,,,,,,,,,,024,2022-05-19_10h59.35.722,FishGame,2022.1.1,59.79284171632573,
,4,넌 능숙해,2,Orange,B,5.666666666666667,4.733333333333333,ScrollUp,ScrollDown,Orange.png,2,Positive,Incongruent,,,,,0,0,0,0,,,,,,,,,,,,,,,,,0,3,3,3,,,,,,,,,,,,,,,,,,,,,,,,,,,,,,,,,,,,,,,,,,,,,,,,,,,,,,,,,,,,,,,,,,,,,,,,,,,,,2,1.275808100006543,294.49989530001767,None,ScrollUp,정답입니다,294.49989530001767,None,294.49989530001767,None,294.49989530001767,None,294.49989530001767,None,295.6731930000242,None,295.6731930000242,296.175357500033,,,,,,,,,,,,,,,,024,2022-05-19_10h59.35.722,FishGame,2022.1.1,59.79284171632573,
,5,넌 진부해,4,Orange,B,2.458333333333333,3.166666666666667,ScrollUp,ScrollDown,Orange.png,2,Negative,Congruent,,,,,0,0,0,0,,,,,,,,,,,,,,,,,0,4,4,4,,,,,,,,,,,,,,,,,,,,,,,,,,,,,,,,,,,,,,,,,,,,,,,,,,,,,,,,,,,,,,,,,,,,,,,,,,,,,2,1.4443059000186622,296.79534840001725,None,ScrollUp,정답입니다,296.79534840001725,None,296.79534840001725,None,296.79534840001725,None,296.79534840001725,None,298.14208489999874,None,298.14208489999874,298.64206749998266,,,,,,,,,,,,,,,,024,2022-05-19_10h59.35.722,FishGame,2022.1.1,59.79284171632573,
,6,나를 보내줘,6,Green,A,0,0,ScrollUp,ScrollDown,Green.png,2,NonTarget,NonTarget,,,,,0,0,0,0,,,,,,,,,,,,,,,,,0,5,5,5,,,,,,,,,,,,,,,,,,,,,,,,,,,,,,,,,,,,,,,,,,,,,,,,,,,,,,,,,,,,,,,,,,,,,,,,,,,,,2,1.8255820999620482,299.2604177999892,None,ScrollUp,정답입니다,299.2604177999892,None,299.2604177999892,None,299.2604177999892,None,299.2604177999892,None,300.9897561999969,None,300.9897561999969,301.489700599981,,,,,,,,,,,,,,,,024,2022-05-19_10h59.35.722,FishGame,2022.1.1,59.79284171632573,
,7,넌 엄격해,3,Green,A,4.166666666666666,4.1,ScrollDown,ScrollUp,Green.png,2,Neutral,Neutral,,,,,0,0,0,0,,,,,,,,,,,,,,,,,0,6,6,6,,,,,,,,,,,,,,,,,,,,,,,,,,,,,,,,,,,,,,,,,,,,,,,,,,,,,,,,,,,,,,,,,,,,,,,,,,,,,1,1.5255691999918781,302.11436910001794,None,ScrollDown,정답입니다,302.11436910001794,None,302.11436910001794,None,302.11436910001794,None,302.11436910001794,None,303.5419814999914,None,303.5419814999914,304.0419586999924,,,,,,,,,,,,,,,,024,2022-05-19_10h59.35.722,FishGame,2022.1.1,59.79284171632573,
,8,나를 보내줘,6,Green,A,0,0,ScrollUp,ScrollDown,Green.png,2,NonTarget,NonTarget,,,,,0,0,0,0,,,,,,,,,,,,,,,,,0,7,7,7,,,,,,,,,,,,,,,,,,,,,,,,,,,,,,,,,,,,,,,,,,,,,,,,,,,,,,,,,,,,,,,,,,,,,,,,,,,,,2,1.9589756000204943,304.6604148999904,None,ScrollUp,정답입니다,304.6604148999904,None,304.6604148999904,None,304.6604148999904,None,304.6604148999904,None,306.52299680002034,None,306.52299680002034,307.02515760000097,,,,,,,,,,,,,,,,024,2022-05-19_10h59.35.722,FishGame,2022.1.1,59.79284171632573,
,9,넌 대담해,3,Orange,B,4.875,4.866666666666666,ScrollUp,ScrollDown,Orange.png,2,Neutral,Neutral,,,,,0,0,0,0,,,,,,,,,,,,,,,,,0,8,8,8,,,,,,,,,,,,,,,,,,,,,,,,,,,,,,,,,,,,,,,,,,,,,,,,,,,,,,,,,,,,,,,,,,,,,,,,,,,,,2,2.0925687000271864,307.6501861999859,None,ScrollUp,정답입니다,307.6501861999859,None,307.6501861999859,None,307.6501861999859,None,307.6501861999859,None,309.63965209998423,None,309.63965209998423,310.1449688000139,,,,,,,,,,,,,,,,024,2022-05-19_10h59.35.722,FishGame,2022.1.1,59.79284171632573,
,10,넌 꾸준해,1,Green,A,5.916666666666668,5.8,ScrollDown,ScrollUp,Green.png,2,Positive,Congruent,,,,,0,0,0,0,,,,,,,,,,,,,,,,,0,9,9,9,,,,,,,,,,,,,,,,,,,,,,,,,,,,,,,,,,,,,,,,,,,,,,,,,,,,,,,,,,,,,,,,,,,,,,,,,,,,,1,1.4423549000057392,310.7675506999949,None,ScrollDown,정답입니다,310.7675506999949,None,310.7675506999949,None,310.7675506999949,None,310.7675506999949,None,312.10620730003575,None,312.10620730003575,312.6083976000082,,,,,,,,,,,,,,,,024,2022-05-19_10h59.35.722,FishGame,2022.1.1,59.79284171632573,
,11,나를 데려가줘,6,Orange,B,0,0,ScrollDown,ScrollUp,Orange.png,2,NonTarget,NonTarget,,,,,0,0,0,0,,,,,,,,,,,,,,,,,0,10,10,10,,,,,,,,,,,,,,,,,,,,,,,,,,,,,,,,,,,,,,,,,,,,,,,,,,,,,,,,,,,,,,,,,,,,,,,,,,,,,1,1.3921832999913022,313.2293244000175,None,ScrollDown,정답입니다,313.2293244000175,None,313.2293244000175,None,313.2293244000175,None,313.2293244000175,None,314.5228411999997,None,314.5228411999997,315.02511260000756,,,,,,,,,,,,,,,,024,2022-05-19_10h59.35.722,FishGame,2022.1.1,59.79284171632573,
,12,넌 독선적이야,5,Green,A,2.458333333333333,1.933333333333333,ScrollDown,ScrollUp,Green.png,2,Negative,Incongruent,,,,,0,0,0,0,,,,,,,,,,,,,,,,,0,11,11,11,,,,,,,,,,,,,,,,,,,,,,,,,,,,,,,,,,,,,,,,,,,,,,,,,,,,,,,,,,,,,,,,,,,,,,,,,,,,,1,1.8261529000010341,315.6503253999981,None,ScrollDown,정답입니다,315.6503253999981,None,315.6503253999981,None,315.6503253999981,None,315.6503253999981,None,317.37251399998786,None,317.37251399998786,317.87259889999405,,,,,,,,,,,,,,,,024,2022-05-19_10h59.35.722,FishGame,2022.1.1,59.79284171632573,
,13,나를 보내줘,6,Green,A,0,0,ScrollUp,ScrollDown,Green.png,2,NonTarget,NonTarget,,,,,0,0,0,0,,,,,,,,,,,,,,,,,0,12,12,12,,,,,,,,,,,,,,,,,,,,,,,,,,,,,,,,,,,,,,,,,,,,,,,,,,,,,,,,,,,,,,,,,,,,,,,,,,,,,2,1.3949272999889217,318.4911926999921,None,ScrollUp,정답입니다,318.4911926999921,None,318.4911926999921,None,318.4911926999921,None,318.4911926999921,None,319.79168379999464,None,319.79168379999464,320.2917280999827,,,,,,,,,,,,,,,,024,2022-05-19_10h59.35.722,FishGame,2022.1.1,59.79284171632573,
,14,넌 책임감있어,1,Orange,B,6.347826086956522,6,ScrollUp,ScrollDown,Orange.png,2,Positive,Incongruent,,,,,0,0,0,0,,,,,,,,,,,,,,,,,0,13,13,13,,,,,,,,,,,,,,,,,,,,,,,,,,,,,,,,,,,,,,,,,,,,,,,,,,,,,,,,,,,,,,,,,,,,,,,,,,,,,2,1.5761516999918967,320.91891680000117,None,ScrollUp,정답입니다,320.91891680000117,None,320.91891680000117,None,320.91891680000117,None,320.91891680000117,None,322.3893487000023,None,322.3893487000023,322.8915738000069,,,,,,,,,,,,,,,,024,2022-05-19_10h59.35.722,FishGame,2022.1.1,59.79284171632573,
,15,넌 문학적이야,3,Green,A,4.708333333333334,4.333333333333333,ScrollDown,ScrollUp,Green.png,2,Neutral,Neutral,,,,,0,0,0,0,,,,,,,,,,,,,,,,,0,14,14,14,,,,,,,,,,,,,,,,,,,,,,,,,,,,,,,,,,,,,,,,,,,,,,,,,,,,,,,,,,,,,,,,,,,,,,,,,,,,,1,1.5589362000464462,323.5205558000016,None,ScrollDown,정답입니다,323.5205558000016,None,323.5205558000016,None,323.5205558000016,None,323.5205558000016,None,324.972590600024,None,324.972590600024,325.4747783000348,,,,,,,,,,,,,,,,024,2022-05-19_10h59.35.722,FishGame,2022.1.1,59.79284171632573,
,16,넌 재미있어,1,Orange,B,5.875,5.7,ScrollUp,ScrollDown,Orange.png,2,Positive,Incongruent,,,,,0,0,0,0,,,,,,,,,,,,,,,,,0,15,15,15,,,,,,,,,,,,,,,,,,,,,,,,,,,,,,,,,,,,,,,,,,,,,,,,,,,,,,,,,,,,,,,,,,,,,,,,,,,,,2,1.4091276999679394,326.0994764000061,None,ScrollUp,정답입니다,326.0994764000061,None,326.0994764000061,None,326.0994764000061,None,326.0994764000061,None,327.40592779999133,None,327.40592779999133,327.9081182000227,,,,,,,,,,,,,,,,024,2022-05-19_10h59.35.722,FishGame,2022.1.1,59.79284171632573,
,17,나를 데려가줘,6,Orange,B,0,0,ScrollDown,ScrollUp,Orange.png,2,NonTarget,NonTarget,,,,,0,0,0,0,,,,,,,,,,,,,,,,,0,16,16,16,,,,,,,,,,,,,,,,,,,,,,,,,,,,,,,,,,,,,,,,,,,,,,,,,,,,,,,,,,,,,,,,,,,,,,,,,,,,,1,1.3924784999690019,328.52847449999535,None,ScrollDown,정답입니다,328.52847449999535,None,328.52847449999535,None,328.52847449999535,None,328.52847449999535,None,329.8222440999816,None,329.8222440999816,330.3223246000125,,,,,,,,,,,,,,,,024,2022-05-19_10h59.35.722,FishGame,2022.1.1,59.79284171632573,
,18,넌 협력적이야,1,Green,A,5.625,5.633333333333334,ScrollDown,ScrollUp,Green.png,2,Positive,Congruent,,,,,0,0,0,0,,,,,,,,,,,,,,,,,0,17,17,17,,,,,,,,,,,,,,,,,,,,,,,,,,,,,,,,,,,,,,,,,,,,,,,,,,,,,,,,,,,,,,,,,,,,,,,,,,,,,1,1.2130018000025302,330.9436641000211,None,ScrollDown,정답입니다,330.9436641000211,None,330.9436641000211,None,330.9436641000211,None,330.9436641000211,None,332.05809710000176,None,332.05809710000176,332.5581355000031,,,,,,,,,,,,,,,,024,2022-05-19_10h59.35.722,FishGame,2022.1.1,59.79284171632573,
,19,넌 평범해,3,Orange,B,4.333333333333332,4.233333333333333,ScrollUp,ScrollDown,Orange.png,2,Neutral,Neutral,,,,,0,0,0,0,,,,,,,,,,,,,,,,,0,18,18,18,,,,,,,,,,,,,,,,,,,,,,,,,,,,,,,,,,,,,,,,,,,,,,,,,,,,,,,,,,,,,,,,,,,,,,,,,,,,,2,1.141963100002613,333.1818158000242,None,ScrollUp,정답입니다,333.1818158000242,None,333.1818158000242,None,333.1818158000242,None,333.1818158000242,None,334.22213710000506,None,334.22213710000506,334.72223489999305,,,,,,,,,,,,,,,,024,2022-05-19_10h59.35.722,FishGame,2022.1.1,59.79284171632573,
,20,넌 오만해,5,Green,A,2.333333333333333,2,ScrollDown,ScrollUp,Green.png,2,Negative,Incongruent,,,,,0,0,0,0,,,,,,,,,,,,,,,,,0,19,19,19,,,,,,,,,,,,,,,,,,,,,,,,,,,,,,,,,,,,,,,,,,,,,,,,,,,,,,,,,,,,,,,,,,,,,,,,,,,,,1,1.3450462999753654,335.33841259998735,None,ScrollDown,정답입니다,335.33841259998735,None,335.33841259998735,None,335.33841259998735,None,335.33841259998735,None,336.5888215000159,None,336.5888215000159,337.09137530002045,,,,,,,,,,,,,,,,024,2022-05-19_10h59.35.722,FishGame,2022.1.1,59.79284171632573,
,21,넌 운이없어,4,Orange,B,3,3.466666666666667,ScrollUp,ScrollDown,Orange.png,2,Negative,Congruent,,,,,0,0,0,0,,,,,,,,,,,,,,,,,0,20,20,20,,,,,,,,,,,,,,,,,,,,,,,,,,,,,,,,,,,,,,,,,,,,,,,,,,,,,,,,,,,,,,,,,,,,,,,,,,,,,2,1.3230010999832302,337.71283690002747,None,ScrollUp,정답입니다,337.71283690002747,None,337.71283690002747,None,337.71283690002747,None,337.71283690002747,None,338.9343459000229,None,338.9343459000229,339.4388024000218,,,,,,,,,,,,,,,,024,2022-05-19_10h59.35.722,FishGame,2022.1.1,59.79284171632573,
,22,넌 창조적이야,2,Orange,B,6.125,4.633333333333334,ScrollUp,ScrollDown,Orange.png,2,Positive,Incongruent,,,,,0,0,0,0,,,,,,,,,,,,,,,,,0,21,21,21,,,,,,,,,,,,,,,,,,,,,,,,,,,,,,,,,,,,,,,,,,,,,,,,,,,,,,,,,,,,,,,,,,,,,,,,,,,,,1.9737654328346252,1.4945688999723643,340.06666670000413,None,ScrollUp,정답입니다,340.06666670000413,None,340.06666670000413,None,340.06666670000413,None,340.06666670000413,None,341.45540690002963,None,341.45540690002963,341.9579095999943,,,,,,,,,,,,,,,,024,2022-05-19_10h59.35.722,FishGame,2022.1.1,59.79284171632573,
,23,나를 보내줘,6,Green,A,0,0,ScrollUp,ScrollDown,Green.png,2,NonTarget,NonTarget,,,,,0,0,0,0,,,,,,,,,,,,,,,,,0,22,22,22,,,,,,,,,,,,,,,,,,,,,,,,,,,,,,,,,,,,,,,,,,,,,,,,,,,,,,,,,,,,,,,,,,,,,,,,,,,,,2,1.227334900002461,342.57637900003465,None,ScrollUp,정답입니다,342.57637900003465,None,342.57637900003465,None,342.57637900003465,None,342.57637900003465,None,343.7078587000142,None,343.7078587000142,344.2079433000181,,,,,,,,,,,,,,,,024,2022-05-19_10h59.35.722,FishGame,2022.1.1,59.79284171632573,
,24,넌 통찰력있어,2,Green,A,6.5,4.8,ScrollDown,ScrollUp,Green.png,2,Positive,Congruent,,,,,0,0,0,0,,,,,,,,,,,,,,,,,0,23,23,23,,,,,,,,,,,,,,,,,,,,,,,,,,,,,,,,,,,,,,,,,,,,,,,,,,,,,,,,,,,,,,,,,,,,,,,,,,,,,1,1.225948600040283,344.8475785999908,None,ScrollDown,정답입니다,344.8475785999908,None,344.8475785999908,None,344.8475785999908,None,344.8475785999908,None,345.97220750001725,None,345.97220750001725,346.47445710003376,,,,,,,,,,,,,,,,024,2022-05-19_10h59.35.722,FishGame,2022.1.1,59.79284171632573,
,25,넌 경솔해,5,Orange,B,2.458333333333333,2.266666666666667,ScrollUp,ScrollDown,Orange.png,2,Negative,Congruent,,,,,0,0,0,0,,,,,,,,,,,,,,,,,0,24,24,24,,,,,,,,,,,,,,,,,,,,,,,,,,,,,,,,,,,,,,,,,,,,,,,,,,,,,,,,,,,,,,,,,,,,,,,,,,,,,2,1.4422327000065707,347.10238230001414,None,ScrollUp,정답입니다,347.10238230001414,None,347.10238230001414,None,347.10238230001414,None,347.10238230001414,None,348.43876370001817,None,348.43876370001817,348.94095050002215,,,,,,,,,,,,,,,,024,2022-05-19_10h59.35.722,FishGame,2022.1.1,59.79284171632573,
,26,넌 초조해,4,Green,A,2.916666666666667,3.133333333333333,ScrollDown,ScrollUp,Green.png,2,Negative,Incongruent,,,,,0,0,0,0,,,,,,,,,,,,,,,,,0,25,25,25,,,,,,,,,,,,,,,,,,,,,,,,,,,,,,,,,,,,,,,,,,,,,,,,,,,,,,,,,,,,,,,,,,,,,,,,,,,,,1,1.4090979999746196,349.55961890000617,None,ScrollDown,정답입니다,349.55961890000617,None,349.55961890000617,None,349.55961890000617,None,349.55961890000617,None,350.8721191000077,None,350.8721191000077,351.3743350000004,,,,,,,,,,,,,,,,024,2022-05-19_10h59.35.722,FishGame,2022.1.1,59.79284171632573,
,27,넌 무관심해,4,Orange,B,2.833333333333333,2.9,ScrollUp,ScrollDown,Orange.png,2,Negative,Congruent,,,,,0,0,0,0,,,,,,,,,,,,,,,,,0,26,26,26,,,,,,,,,,,,,,,,,,,,,,,,,,,,,,,,,,,,,,,,,,,,,,,,,,,,,,,,,,,,,,,,,,,,,,,,,,,,,2,1.1602933999965899,351.99461290001636,None,ScrollUp,정답입니다,351.99461290001636,None,351.99461290001636,None,351.99461290001636,None,351.99461290001636,None,353.05761130002793,None,353.05761130002793,353.5720796000096,,,,,,,,,,,,,,,,024,2022-05-19_10h59.35.722,FishGame,2022.1.1,59.79284171632573,
,28,넌 감성적이야,3,Orange,B,4.125,4.166666666666667,ScrollUp,ScrollDown,Orange.png,2,Neutral,Neutral,,,,,0,0,0,0,,,,,,,,,,,,,,,,,0,27,27,27,,,,,,,,,,,,,,,,,,,,,,,,,,,,,,,,,,,,,,,,,,,,,,,,,,,,,,,,,,,,,,,,,,,,,,,,,,,,,2,1.409246199997142,354.19443219999084,None,ScrollUp,정답입니다,354.19443219999084,None,354.19443219999084,None,354.19443219999084,None,354.19443219999084,None,355.5053538000211,None,355.5053538000211,356.0075551000191,,,,,,,,,,,,,,,,024,2022-05-19_10h59.35.722,FishGame,2022.1.1,59.79284171632573,
,29,넌 배려심있어,1,Green,A,6.083333333333333,5.5,ScrollDown,ScrollUp,Green.png,2,Positive,Congruent,,,,,0,0,0,0,,,,,,,,,,,,,,,,,0,28,28,28,,,,,,,,,,,,,,,,,,,,,,,,,,,,,,,,,,,,,,,,,,,,,,,,,,,,,,,,,,,,,,,,,,,,,,,,,,,,,1,1.1591351999668404,356.6266088000266,None,ScrollDown,정답입니다,356.6266088000266,None,356.6266088000266,None,356.6266088000266,None,356.6266088000266,None,357.6883320999914,None,357.6883320999914,358.1884042000165,,,,,,,,,,,,,,,,024,2022-05-19_10h59.35.722,FishGame,2022.1.1,59.79284171632573,
,30,넌 숨김없어,3,Green,A,4.5,4.933333333333334,ScrollDown,ScrollUp,Green.png,2,Neutral,Neutral,,,,,0,0,0,0,,,,,,,,,,,,,,,,,0,29,29,29,,,,,,,,,,,,,,,,,,,,,,,,,,,,,,,,,,,,,,,,,,,,,,,,,,,,,,,,,,,,,,,,,,,,,,,,,,,,,1,1.0111264999723062,358.8102868000278,None,ScrollDown,정답입니다,358.8102868000278,None,358.8102868000278,None,358.8102868000278,None,358.8102868000278,None,359.7216801000177,None,359.7216801000177,360.2242598999874,,,,,,,,,,,,,,,,024,2022-05-19_10h59.35.722,FishGame,2022.1.1,59.79284171632573,
,31,넌 훌륭해,2,Orange,B,5.916666666666667,4.033333333333333,ScrollUp,ScrollDown,Orange.png,2,Positive,Incongruent,,,,,0,0,0,0,,,,,,,,,,,,,,,,,0,30,30,30,,,,,,,,,,,,,,,,,,,,,,,,,,,,,,,,,,,,,,,,,,,,,,,,,,,,,,,,,,,,,,,,,,,,,,,,,,,,,2,1.1470602999906987,360.8448780000326,None,ScrollUp,정답입니다,360.8448780000326,None,360.8448780000326,None,360.8448780000326,None,360.8448780000326,None,361.8908529999899,None,361.8908529999899,362.3938896000036,,,,,,,,,,,,,,,,024,2022-05-19_10h59.35.722,FishGame,2022.1.1,59.79284171632573,
,32,넌 슬기로워,2,Green,A,6.166666666666667,4.1,ScrollDown,ScrollUp,Green.png,2,Positive,Congruent,,,,,0,0,0,0,,,,,,,,,,,,,,,,,0,31,31,31,,,,,,,,,,,,,,,,,,,,,,,,,,,,,,,,,,,,,,,,,,,,,,,,,,,,,,,,,,,,,,,,,,,,,,,,,,,,,1,1.0258033000282012,363.01182369998423,None,ScrollDown,정답입니다,363.01182369998423,None,363.01182369998423,None,363.01182369998423,None,363.01182369998423,None,363.9385106000118,None,363.9385106000118,364.4407097999938,,,,,,,,,,,,,,,,024,2022-05-19_10h59.35.722,FishGame,2022.1.1,59.79284171632573,
,33,넌 냉혹해,5,Green,A,2.583333333333333,2.1,ScrollDown,ScrollUp,Green.png,2,Negative,Incongruent,,,,,0,0,0,0,,,,,,,,,,,,,,,,,0,32,32,32,,,,,,,,,,,,,,,,,,,,,,,,,,,,,,,,,,,,,,,,,,,,,,,,,,,,,,,,,,,,,,,,,,,,,,,,,,,,,1,1.708849899994675,365.06462190003367,None,ScrollDown,정답입니다,365.06462190003367,None,365.06462190003367,None,365.06462190003367,None,365.06462190003367,None,366.6717630000203,None,366.6717630000203,367.173935000028,,,,,,,,,,,,,,,,024,2022-05-19_10h59.35.722,FishGame,2022.1.1,59.79284171632573,
,34,나를 데려가줘,6,Orange,B,0,0,ScrollDown,ScrollUp,Orange.png,2,NonTarget,NonTarget,,,,,0,0,0,0,,,,,,,,,,,,,,,,,0,33,33,33,,,,,,,,,,,,,,,,,,,,,,,,,,,,,,,,,,,,,,,,,,,,,,,,,,,,,,,,,,,,,,,,,,,,,,,,,,,,,1,1.2114042000030167,367.7971168999793,None,ScrollDown,정답입니다,367.7971168999793,None,367.7971168999793,None,367.7971168999793,None,367.7971168999793,None,368.90723950002575,None,368.90723950002575,369.4073679000139,,,,,,,,,,,,,,,,024,2022-05-19_10h59.35.722,FishGame,2022.1.1,59.79284171632573,
,35,넌 편파적이야,5,Orange,B,2.125,2,ScrollUp,ScrollDown,Orange.png,2,Negative,Congruent,,,,,0,0,0,0,,,,,,,,,,,,,,,,,0,34,34,34,,,,,,,,,,,,,,,,,,,,,,,,,,,,,,,,,,,,,,,,,,,,,,,,,,,,,,,,,,,,,,,,,,,,,,,,,,,,,2,1.2925888000172563,370.0334068000084,None,ScrollUp,정답입니다,370.0334068000084,None,370.0334068000084,None,370.0334068000084,None,370.0334068000084,None,371.221455699997,None,371.221455699997,371.7214613999822,,,,,,,,,,,,,,,,024,2022-05-19_10h59.35.722,FishGame,2022.1.1,59.79284171632573,
,36,넌 슬퍼,4,Green,A,2.583333333333333,3.066666666666667,ScrollDown,ScrollUp,Green.png,2,Negative,Incongruent,,,,,0,0,0,0,,,,,,,,,,,,,,,,,0,35,35,35,,,,,,,,,,,,,,,,,,,,,,,,,,,,,,,,,,,,,,,,,,,,,,,,,,,,,,,,,,,,,,,,,,,,,,,,,,,,,1,1.1784005999797955,372.34037270001136,None,ScrollDown,정답입니다,372.34037270001136,None,372.34037270001136,None,372.34037270001136,None,372.34037270001136,None,373.42395919997944,None,373.42395919997944,373.92395919997944,,,,,,,,,,,,,,,,024,2022-05-19_10h59.35.722,FishGame,2022.1.1,59.79284171632573,
,37,나를 데려가줘,6,Orange,B,0,0,ScrollDown,ScrollUp,Orange.png,2,NonTarget,NonTarget,,,,,0,0,0,0,,,,,,,,,,,,,,,,,0,36,36,36,,,,,,,,,,,,,,,,,,,,,,,,,,,,,,,,,,,,,,,,,,,,,,,,,,,,,,,,,,,,,,,,,,,,,,,,,,,,,1,1.2757934000110254,374.54704460001085,None,ScrollDown,정답입니다,374.54704460001085,None,374.54704460001085,None,374.54704460001085,None,374.54704460001085,None,375.72157080000034,None,375.72157080000034,376.2237490999978,,,,,,,,,,,,,,,,024,2022-05-19_10h59.35.722,FishGame,2022.1.1,59.79284171632573,
,38,넌 친절해,1,Orange,B,6.041666666666667,5.533333333333333,ScrollUp,ScrollDown,Orange.png,2,Positive,Incongruent,,,,,0,0,0,0,,,,,,,,,,,,,,,,,0,37,37,37,,,,,,,,,,,,,,,,,,,,,,,,,,,,,,,,,,,,,,,,,,,,,,,,,,,,,,,,,,,,,,,,,,,,,,,,,,,,,2,1.3091834000078961,376.84712160000345,None,ScrollUp,정답입니다,376.84712160000345,None,376.84712160000345,None,376.84712160000345,None,376.84712160000345,None,378.05705240002135,None,378.05705240002135,378.56029270001454,,,,,,,,,,,,,,,,024,2022-05-19_10h59.35.722,FishGame,2022.1.1,59.79284171632573,
,1,넌 엉성해,4,Green,A,3,3.3,ScrollDown,ScrollUp,Green.png,3,Negative,Incongruent,,,,,0,0,0,0,,,,,,,,,,,,,,,,,,,,,0,0,0,0,,,,,,,,,,,,,,,,,,,,,,,,,,,,,,,,410.2542374000186,411.7565556000336,411.7898904000176,412.739848600002,412.7898436000105,413.7398625999922,413.7398625999922,None,,,,,,,,,,,,,,,,,,,,,,,,,,,,,,,,,,1,1.245449300040491,414.8397052999935,None,ScrollDown,정답입니다,414.8397052999935,None,414.8397052999935,None,414.8397052999935,None,414.8397052999935,None,415.98962370003574,None,415.98962370003574,416.48963870003354,379.0549093000009,None,379.0549093000009,None,0.40925926,-0.016666668,1,0,0,0.016113920020870864,None,409.0565379000036,None,,,024,2022-05-19_10h59.35.722,FishGame,2022.1.1,59.79284171632573,
,2,나를 보내줘,6,Green,A,0,0,ScrollUp,ScrollDown,Green.png,3,NonTarget,NonTarget,,,,,0,0,0,0,,,,,,,,,,,,,,,,,,,,,0,1,1,1,,,,,,,,,,,,,,,,,,,,,,,,,,,,,,,,,,,,,,,,,,,,,,,,,,,,,,,,,,,,,,,,,,,,,,,,,2,1.2927171000046656,417.111410100013,None,ScrollUp,정답입니다,417.111410100013,None,417.111410100013,None,417.111410100013,None,417.111410100013,None,418.3037716000108,None,418.3037716000108,418.8038484000135,,,,,,,,,,,,,,,,024,2022-05-19_10h59.35.722,FishGame,2022.1.1,59.79284171632573,
,3,넌 활발해,1,Orange,B,5.666666666666667,5.6,ScrollUp,ScrollDown,Orange.png,3,Positive,Incongruent,,,,,0,0,0,0,,,,,,,,,,,,,,,,,,,,,0,2,2,2,,,,,,,,,,,,,,,,,,,,,,,,,,,,,,,,,,,,,,,,,,,,,,,,,,,,,,,,,,,,,,,,,,,,,,,,,2,1.2780036999611184,419.42799400002696,None,ScrollUp,정답입니다,419.42799400002696,None,419.42799400002696,None,419.42799400002696,None,419.42799400002696,None,420.6037956000073,None,420.6037956000073,421.10385489999317,,,,,,,,,,,,,,,,024,2022-05-19_10h59.35.722,FishGame,2022.1.1,59.79284171632573,
,4,넌 논리적이야,2,Green,A,5.666666666666666,4.633333333333334,ScrollDown,ScrollUp,Green.png,3,Positive,Congruent,,,,,0,0,0,0,,,,,,,,,,,,,,,,,,,,,0,3,3,3,,,,,,,,,,,,,,,,,,,,,,,,,,,,,,,,,,,,,,,,,,,,,,,,,,,,,,,,,,,,,,,,,,,,,,,,,1,1.2424656000221148,421.7260944999871,None,ScrollDown,정답입니다,421.7260944999871,None,421.7260944999871,None,421.7260944999871,None,421.7260944999871,None,422.8729064000072,None,422.8729064000072,423.37301290000323,,,,,,,,,,,,,,,,024,2022-05-19_10h59.35.722,FishGame,2022.1.1,59.79284171632573,
,5,넌 과묵해,3,Green,A,3.875,4.4,ScrollDown,ScrollUp,Green.png,3,Neutral,Neutral,,,,,0,0,0,0,,,,,,,,,,,,,,,,,,,,,0,4,4,4,,,,,,,,,,,,,,,,,,,,,,,,,,,,,,,,,,,,,,,,,,,,,,,,,,,,,,,,,,,,,,,,,,,,,,,,,1,1.029178500000853,424.00072459998773,None,ScrollDown,정답입니다,424.00072459998773,None,424.00072459998773,None,424.00072459998773,None,424.00072459998773,None,424.9202965000295,None,424.9202965000295,425.4203758999938,,,,,,,,,,,,,,,,024,2022-05-19_10h59.35.722,FishGame,2022.1.1,59.79284171632573,
,6,나를 데려가줘,6,Orange,B,0,0,ScrollDown,ScrollUp,Orange.png,3,NonTarget,NonTarget,,,,,0,0,0,0,,,,,,,,,,,,,,,,,,,,,0,5,5,5,,,,,,,,,,,,,,,,,,,,,,,,,,,,,,,,,,,,,,,,,,,,,,,,,,,,,,,,,,,,,,,,,,,,,,,,,1,1.178073100047186,426.04026650002925,None,ScrollDown,정답입니다,426.04026650002925,None,426.04026650002925,None,426.04026650002925,None,426.04026650002925,None,427.12030190002406,None,427.12030190002406,427.620386900031,,,,,,,,,,,,,,,,024,2022-05-19_10h59.35.722,FishGame,2022.1.1,59.79284171632573,
,7,넌 미숙해,4,Orange,B,3,3,ScrollUp,ScrollDown,Orange.png,3,Negative,Congruent,,,,,0,0,0,0,,,,,,,,,,,,,,,,,,,,,0,6,6,6,,,,,,,,,,,,,,,,,,,,,,,,,,,,,,,,,,,,,,,,,,,,,,,,,,,,,,,,,,,,,,,,,,,,,,,,,2,1.2093891999684274,428.24622119998094,None,ScrollUp,정답입니다,428.24622119998094,None,428.24622119998094,None,428.24622119998094,None,428.24622119998094,None,429.3561463999795,None,429.3561463999795,429.85613979998743,,,,,,,,,,,,,,,,024,2022-05-19_10h59.35.722,FishGame,2022.1.1,59.79284171632573,
,8,나를 보내줘,6,Green,A,0,0,ScrollUp,ScrollDown,Green.png,3,NonTarget,NonTarget,,,,,0,0,0,0,,,,,,,,,,,,,,,,,,,,,0,7,7,7,,,,,,,,,,,,,,,,,,,,,,,,,,,,,,,,,,,,,,,,,,,,,,,,,,,,,,,,,,,,,,,,,,,,,,,,,2,1.1623849999741651,430.46937549998984,None,ScrollUp,정답입니다,430.46937549998984,None,430.46937549998984,None,430.46937549998984,None,430.46937549998984,None,431.53684610000346,None,431.53684610000346,432.03690980002284,,,,,,,,,,,,,,,,024,2022-05-19_10h59.35.722,FishGame,2022.1.1,59.79284171632573,
,9,넌 자신만만해,3,Orange,B,4.833333333333334,4.333333333333333,ScrollUp,ScrollDown,Orange.png,3,Neutral,Neutral,,,,,0,0,0,0,,,,,,,,,,,,,,,,,,,,,0,8,8,8,,,,,,,,,,,,,,,,,,,,,,,,,,,,,,,,,,,,,,,,,,,,,,,,,,,,,,,,,,,,,,,,,,,,,,,,,2,1.3638178000110202,432.65597870002966,None,ScrollUp,정답입니다,432.65597870002966,None,432.65597870002966,None,432.65597870002966,None,432.65597870002966,None,433.92269500001566,None,433.92269500001566,434.42273310001474,,,,,,,,,,,,,,,,024,2022-05-19_10h59.35.722,FishGame,2022.1.1,59.79284171632573,
,10,넌 탐욕스러워,5,Green,A,2.25,2.1,ScrollDown,ScrollUp,Green.png,3,Negative,Incongruent,,,,,0,0,0,0,,,,,,,,,,,,,,,,,,,,,0,9,9,9,,,,,,,,,,,,,,,,,,,,,,,,,,,,,,,,,,,,,,,,,,,,,,,,,,,,,,,,,,,,,,,,,,,,,,,,,1,1.0758323000045493,435.04550000000745,None,ScrollDown,정답입니다,435.04550000000745,None,435.04550000000745,None,435.04550000000745,None,435.04550000000745,None,436.020338500035,None,436.020338500035,436.5225120999967,,,,,,,,,,,,,,,,024,2022-05-19_10h59.35.722,FishGame,2022.1.1,59.79284171632573,
,11,넌 인기있어,2,Green,A,5.458333333333333,4.5,ScrollDown,ScrollUp,Green.png,3,Positive,Congruent,,,,,0,0,0,0,,,,,,,,,,,,,,,,,,,,,0,10,10,10,,,,,,,,,,,,,,,,,,,,,,,,,,,,,,,,,,,,,,,,,,,,,,,,,,,,,,,,,,,,,,,,,,,,,,,,,1,1.4425980999949388,437.140922999999,None,ScrollDown,정답입니다,437.140922999999,None,437.140922999999,None,437.140922999999,None,437.140922999999,None,438.48699370003305,None,438.48699370003305,438.9893081000191,,,,,,,,,,,,,,,,024,2022-05-19_10h59.35.722,FishGame,2022.1.1,59.79284171632573,
,12,나를 데려가줘,6,Orange,B,0,0,ScrollDown,ScrollUp,Orange.png,3,NonTarget,NonTarget,,,,,0,0,0,0,,,,,,,,,,,,,,,,,,,,,0,11,11,11,,,,,,,,,,,,,,,,,,,,,,,,,,,,,,,,,,,,,,,,,,,,,,,,,,,,,,,,,,,,,,,,,,,,,,,,,1,1.2271478999755345,439.60685390001163,None,ScrollDown,정답입니다,439.60685390001163,None,439.60685390001163,None,439.60685390001163,None,439.60685390001163,None,440.7368908000062,None,440.7368908000062,441.23909300001105,,,,,,,,,,,,,,,,024,2022-05-19_10h59.35.722,FishGame,2022.1.1,59.79284171632573,
,13,넌 뛰어나,2,Orange,B,6.166666666666667,4,ScrollUp,ScrollDown,Orange.png,3,Positive,Incongruent,,,,,0,0,0,0,,,,,,,,,,,,,,,,,,,,,0,12,12,12,,,,,,,,,,,,,,,,,,,,,,,,,,,,,,,,,,,,,,,,,,,,,,,,,,,,,,,,,,,,,,,,,,,,,,,,,2,1.1105157000129111,441.8648209000239,None,ScrollUp,정답입니다,441.8648209000239,None,441.8648209000239,None,441.8648209000239,None,441.8648209000239,None,442.87238469999284,None,442.87238469999284,443.3724607999902,,,,,,,,,,,,,,,,024,2022-05-19_10h59.35.722,FishGame,2022.1.1,59.79284171632573,
,14,넌 낙관적이야,1,Green,A,5.75,5.8,ScrollDown,ScrollUp,Green.png,3,Positive,Congruent,,,,,0,0,0,0,,,,,,,,,,,,,,,,,,,,,0,13,13,13,,,,,,,,,,,,,,,,,,,,,,,,,,,,,,,,,,,,,,,,,,,,,,,,,,,,,,,,,,,,,,,,,,,,,,,,,1,1.1756199999945238,443.9961869000108,None,ScrollDown,정답입니다,443.9961869000108,None,443.9961869000108,None,443.9961869000108,None,443.9961869000108,None,445.0701705000247,None,445.0701705000247,445.57231050002156,,,,,,,,,,,,,,,,024,2022-05-19_10h59.35.722,FishGame,2022.1.1,59.79284171632573,
,15,넌 산만해,4,Orange,B,2.695652173913043,3.033333333333333,ScrollUp,ScrollDown,Orange.png,3,Negative,Congruent,,,,,0,0,0,0,,,,,,,,,,,,,,,,,,,,,0,14,14,14,,,,,,,,,,,,,,,,,,,,,,,,,,,,,,,,,,,,,,,,,,,,,,,,,,,,,,,,,,,,,,,,,,,,,,,,,2,1.1946926999953575,446.1913190000341,None,ScrollUp,정답입니다,446.1913190000341,None,446.1913190000341,None,446.1913190000341,None,446.1913190000341,None,447.2889795000083,None,447.2889795000083,447.80564179999055,,,,,,,,,,,,,,,,024,2022-05-19_10h59.35.722,FishGame,2022.1.1,59.79284171632573,
,16,나를 보내줘,6,Green,A,0,0,ScrollUp,ScrollDown,Green.png,3,NonTarget,NonTarget,,,,,0,0,0,0,,,,,,,,,,,,,,,,,,,,,0,15,15,15,,,,,,,,,,,,,,,,,,,,,,,,,,,,,,,,,,,,,,,,,,,,,,,,,,,,,,,,,,,,,,,,,,,,,,,,,2,1.1203058999963105,448.40724000002956,None,ScrollUp,정답입니다,448.40724000002956,None,448.40724000002956,None,448.40724000002956,None,448.40724000002956,None,449.43206560000544,None,449.43206560000544,449.9365507999901,,,,,,,,,,,,,,,,024,2022-05-19_10h59.35.722,FishGame,2022.1.1,59.79284171632573,
,17,넌 교활해,5,Orange,B,2.333333333333333,2.133333333333333,ScrollUp,ScrollDown,Orange.png,3,Negative,Congruent,,,,,0,0,0,0,,,,,,,,,,,,,,,,,,,,,0,16,16,16,,,,,,,,,,,,,,,,,,,,,,,,,,,,,,,,,,,,,,,,,,,,,,,,,,,,,,,,,,,,,,,,,,,,,,,,,2,1.3287420999840833,450.554831299989,None,ScrollUp,정답입니다,450.554831299989,None,450.554831299989,None,450.554831299989,None,450.554831299989,None,451.78649139998015,None,451.78649139998015,452.28903390001506,,,,,,,,,,,,,,,,024,2022-05-19_10h59.35.722,FishGame,2022.1.1,59.79284171632573,
,18,나를 보내줘,6,Green,A,0,0,ScrollUp,ScrollDown,Green.png,3,NonTarget,NonTarget,,,,,0,0,0,0,,,,,,,,,,,,,,,,,,,,,0,17,17,17,,,,,,,,,,,,,,,,,,,,,,,,,,,,,,,,,,,,,,,,,,,,,,,,,,,,,,,,,,,,,,,,,,,,,,,,,2,1.465177699981723,452.9021609000047,None,ScrollUp,정답입니다,452.9021609000047,None,452.9021609000047,None,452.9021609000047,None,452.9021609000047,None,454.2723352999892,None,454.2723352999892,454.7721433999832,,,,,,,,,,,,,,,,024,2022-05-19_10h59.35.722,FishGame,2022.1.1,59.79284171632573,
,19,넌 불친절해,5,Orange,B,2.208333333333333,2.033333333333333,ScrollUp,ScrollDown,Orange.png,3,Negative,Congruent,,,,,0,0,0,0,,,,,,,,,,,,,,,,,,,,,0,18,18,18,,,,,,,,,,,,,,,,,,,,,,,,,,,,,,,,,,,,,,,,,,,,,,,,,,,,,,,,,,,,,,,,,,,,,,,,,2,2.2757081000017934,455.3984489000286,None,ScrollUp,정답입니다,455.3984489000286,None,455.3984489000286,None,455.3984489000286,None,455.3984489000286,None,457.57214360003127,None,457.57214360003127,458.0753732000012,,,,,,,,,,,,,,,,024,2022-05-19_10h59.35.722,FishGame,2022.1.1,59.79284171632573,
,20,넌 지적이야,2,Orange,B,5.75,4.366666666666666,ScrollUp,ScrollDown,Orange.png,3,Positive,Incongruent,,,,,0,0,0,0,,,,,,,,,,,,,,,,,,,,,0,19,19,19,,,,,,,,,,,,,,,,,,,,,,,,,,,,,,,,,,,,,,,,,,,,,,,,,,,,,,,,,,,,,,,,,,,,,,,,,2,1.342359900008887,458.694825100014,None,ScrollUp,정답입니다,458.694825100014,None,458.694825100014,None,458.694825100014,None,458.694825100014,None,459.936500300013,None,459.936500300013,460.4386694999994,,,,,,,,,,,,,,,,024,2022-05-19_10h59.35.722,FishGame,2022.1.1,59.79284171632573,
,21,넌 우유부단해,4,Green,A,2.666666666666667,3.166666666666667,ScrollDown,ScrollUp,Green.png,3,Negative,Incongruent,,,,,0,0,0,0,,,,,,,,,,,,,,,,,,,,,0,20,20,20,,,,,,,,,,,,,,,,,,,,,,,,,,,,,,,,,,,,,,,,,,,,,,,,,,,,,,,,,,,,,,,,,,,,,,,,,1,1.3942042000126094,461.05756859999383,None,ScrollDown,정답입니다,461.05756859999383,None,461.05756859999383,None,461.05756859999383,None,461.05756859999383,None,462.3531646000338,None,462.3531646000338,462.855429999996,,,,,,,,,,,,,,,,024,2022-05-19_10h59.35.722,FishGame,2022.1.1,59.79284171632573,
,22,나를 데려가줘,6,Orange,B,0,0,ScrollDown,ScrollUp,Orange.png,3,NonTarget,NonTarget,,,,,0,0,0,0,,,,,,,,,,,,,,,,,,,,,0,21,21,21,,,,,,,,,,,,,,,,,,,,,,,,,,,,,,,,,,,,,,,,,,,,,,,,,,,,,,,,,,,,,,,,,,,,,,,,,1,1.1927632000297308,463.4788872000063,None,ScrollDown,정답입니다,463.4788872000063,None,463.4788872000063,None,463.4788872000063,None,463.4788872000063,None,464.5694796000025,None,464.5694796000025,465.06957140000304,,,,,,,,,,,,,,,,024,2022-05-19_10h59.35.722,FishGame,2022.1.1,59.79284171632573,
,23,넌 성실해,1,Orange,B,6.041666666666666,5.7,ScrollUp,ScrollDown,Orange.png,3,Positive,Incongruent,,,,,0,0,0,0,,,,,,,,,,,,,,,,,,,,,0,22,22,22,,,,,,,,,,,,,,,,,,,,,,,,,,,,,,,,,,,,,,,,,,,,,,,,,,,,,,,,,,,,,,,,,,,,,,,,,2,1.345177400042303,465.689366000006,None,ScrollUp,정답입니다,465.689366000006,None,465.689366000006,None,465.689366000006,None,465.689366000006,None,466.9387446999899,None,466.9387446999899,467.438758000033,,,,,,,,,,,,,,,,024,2022-05-19_10h59.35.722,FishGame,2022.1.1,59.79284171632573,
,24,넌 현실주의적이야,3,Green,A,4.625,4.4,ScrollDown,ScrollUp,Green.png,3,Neutral,Neutral,,,,,0,0,0,0,,,,,,,,,,,,,,,,,,,,,0,23,23,23,,,,,,,,,,,,,,,,,,,,,,,,,,,,,,,,,,,,,,,,,,,,,,,,,,,,,,,,,,,,,,,,,,,,,,,,,1,1.0883917000028305,468.06198090000544,None,ScrollDown,정답입니다,468.06198090000544,None,468.06198090000544,None,468.06198090000544,None,468.06198090000544,None,469.0484107999946,None,469.0484107999946,469.55280619999394,,,,,,,,,,,,,,,,024,2022-05-19_10h59.35.722,FishGame,2022.1.1,59.79284171632573,
,25,넌 진실돼,1,Green,A,6.625,5.566666666666666,ScrollDown,ScrollUp,Green.png,3,Positive,Congruent,,,,,0,0,0,0,,,,,,,,,,,,,,,,,,,,,0,24,24,24,,,,,,,,,,,,,,,,,,,,,,,,,,,,,,,,,,,,,,,,,,,,,,,,,,,,,,,,,,,,,,,,,,,,,,,,,1,1.0782060000346974,470.17138280003564,None,ScrollDown,정답입니다,470.17138280003564,None,470.17138280003564,None,470.17138280003564,None,470.17138280003564,None,471.152736500022,None,471.152736500022,471.65281629998935,,,,,,,,,,,,,,,,024,2022-05-19_10h59.35.722,FishGame,2022.1.1,59.79284171632573,
,26,넌 천진난만해,3,Orange,B,4.958333333333334,4.833333333333333,ScrollUp,ScrollDown,Orange.png,3,Neutral,Neutral,,,,,0,0,0,0,,,,,,,,,,,,,,,,,,,,,0,25,25,25,,,,,,,,,,,,,,,,,,,,,,,,,,,,,,,,,,,,,,,,,,,,,,,,,,,,,,,,,,,,,,,,,,,,,,,,,2,1.192724000022281,472.2787932000356,None,ScrollUp,정답입니다,472.2787932000356,None,472.2787932000356,None,472.2787932000356,None,472.2787932000356,None,473.3718590000062,None,473.3718590000062,473.875043499982,,,,,,,,,,,,,,,,024,2022-05-19_10h59.35.722,FishGame,2022.1.1,59.79284171632573,
,27,넌 교양없어,5,Green,A,2.416666666666667,2.2,ScrollDown,ScrollUp,Green.png,3,Negative,Incongruent,,,,,0,0,0,0,,,,,,,,,,,,,,,,,,,,,0,26,26,26,,,,,,,,,,,,,,,,,,,,,,,,,,,,,,,,,,,,,,,,,,,,,,,,,,,,,,,,,,,,,,,,,,,,,,,,,1,1.1092898999922909,474.49658079998335,None,ScrollDown,정답입니다,474.49658079998335,None,474.49658079998335,None,474.49658079998335,None,474.49658079998335,None,475.5028995000175,None,475.5028995000175,476.00510090001626,,,,,,,,,,,,,,,,024,2022-05-19_10h59.35.722,FishGame,2022.1.1,59.79284171632573,
,28,나를 보내줘,6,Green,A,0,0,ScrollUp,ScrollDown,Green.png,3,NonTarget,NonTarget,,,,,0,0,0,0,,,,,,,,,,,,,,,,,,,,,0,27,27,27,,,,,,,,,,,,,,,,,,,,,,,,,,,,,,,,,,,,,,,,,,,,,,,,,,,,,,,,,,,,,,,,,,,,,,,,,2,1.2261025000480004,476.62137850001454,None,ScrollUp,정답입니다,476.62137850001454,None,476.62137850001454,None,476.62137850001454,None,476.62137850001454,None,477.75283369998215,None,477.75283369998215,478.2549975999864,,,,,,,,,,,,,,,,024,2022-05-19_10h59.35.722,FishGame,2022.1.1,59.79284171632573,
,29,넌 엉뚱스러워,3,Green,A,4.166666666666667,4.133333333333334,ScrollDown,ScrollUp,Green.png,3,Neutral,Neutral,,,,,0,0,0,0,,,,,,,,,,,,,,,,,,,,,0,28,28,28,,,,,,,,,,,,,,,,,,,,,,,,,,,,,,,,,,,,,,,,,,,,,,,,,,,,,,,,,,,,,,,,,,,,,,,,,1,2.175648199976422,478.8835473000072,None,ScrollDown,정답입니다,478.8835473000072,None,478.8835473000072,None,478.8835473000072,None,478.8835473000072,None,480.9525023000315,None,480.9525023000315,481.4525648999843,,,,,,,,,,,,,,,,024,2022-05-19_10h59.35.722,FishGame,2022.1.1,59.79284171632573,
,30,넌 무지해,4,Orange,B,2.541666666666667,3.066666666666667,ScrollUp,ScrollDown,Orange.png,3,Negative,Congruent,,,,,0,0,0,0,,,,,,,,,,,,,,,,,,,,,0,29,29,29,,,,,,,,,,,,,,,,,,,,,,,,,,,,,,,,,,,,,,,,,,,,,,,,,,,,,,,,,,,,,,,,,,,,,,,,,2,1.1646549999713898,482.07072950003203,None,ScrollUp,정답입니다,482.07072950003203,None,482.07072950003203,None,482.07072950003203,None,482.07072950003203,None,483.138317200006,None,483.138317200006,483.63834990002215,,,,,,,,,,,,,,,,024,2022-05-19_10h59.35.722,FishGame,2022.1.1,59.79284171632573,
,31,넌 음울해,5,Orange,B,2.25,2.233333333333333,ScrollUp,ScrollDown,Orange.png,3,Negative,Congruent,,,,,0,0,0,0,,,,,,,,,,,,,,,,,,,,,0,30,30,30,,,,,,,,,,,,,,,,,,,,,,,,,,,,,,,,,,,,,,,,,,,,,,,,,,,,,,,,,,,,,,,,,,,,,,,,,1.9444444676240284,1.0920884999795817,484.26845740003046,None,ScrollUp,정답입니다,484.26845740003046,None,484.26845740003046,None,484.26845740003046,None,484.26845740003046,None,485.25238900003023,None,485.25238900003023,485.7524618000025,,,,,,,,,,,,,,,,024,2022-05-19_10h59.35.722,FishGame,2022.1.1,59.79284171632573,
,32,넌 냉소적이야,5,Green,A,2.916666666666667,2.4,ScrollDown,ScrollUp,Green.png,3,Negative,Incongruent,,,,,0,0,0,0,,,,,,,,,,,,,,,,,,,,,0,31,31,31,,,,,,,,,,,,,,,,,,,,,,,,,,,,,,,,,,,,,,,,,,,,,,,,,,,,,,,,,,,,,,,,,,,,,,,,,1,1.3280666999635287,486.3689297999954,None,ScrollDown,정답입니다,486.3689297999954,None,486.3689297999954,None,486.3689297999954,None,486.3689297999954,None,487.60239369998453,None,487.60239369998453,488.1024858999881,,,,,,,,,,,,,,,,024,2022-05-19_10h59.35.722,FishGame,2022.1.1,59.79284171632573,
,33,나를 데려가줘,6,Orange,B,0,0,ScrollDown,ScrollUp,Orange.png,3,NonTarget,NonTarget,,,,,0,0,0,0,,,,,,,,,,,,,,,,,,,,,0,32,32,32,,,,,,,,,,,,,,,,,,,,,,,,,,,,,,,,,,,,,,,,,,,,,,,,,,,,,,,,,,,,,,,,,,,,,,,,,1,1.0451177000068128,488.7272571999929,None,ScrollDown,정답입니다,488.7272571999929,None,488.7272571999929,None,488.7272571999929,None,488.7272571999929,None,489.6716000000015,None,489.6716000000015,490.171570800012,,,,,,,,,,,,,,,,024,2022-05-19_10h59.35.722,FishGame,2022.1.1,59.79284171632573,
,34,넌 쾌활해,1,Green,A,5.541666666666666,5.733333333333333,ScrollDown,ScrollUp,Green.png,3,Positive,Congruent,,,,,0,0,0,0,,,,,,,,,,,,,,,,,,,,,0,33,33,33,,,,,,,,,,,,,,,,,,,,,,,,,,,,,,,,,,,,,,,,,,,,,,,,,,,,,,,,,,,,,,,,,,,,,,,,,1,1.3436912999604829,490.7932839000132,None,ScrollDown,정답입니다,490.7932839000132,None,490.7932839000132,None,490.7932839000132,None,490.7932839000132,None,492.03560300002573,None,492.03560300002573,492.5356532000005,,,,,,,,,,,,,,,,024,2022-05-19_10h59.35.722,FishGame,2022.1.1,59.79284171632573,
,35,나를 보내줘,6,Green,A,0,0,ScrollUp,ScrollDown,Green.png,3,NonTarget,NonTarget,,,,,0,0,0,0,,,,,,,,,,,,,,,,,,,,,0,34,34,34,,,,,,,,,,,,,,,,,,,,,,,,,,,,,,,,,,,,,,,,,,,,,,,,,,,,,,,,,,,,,,,,,,,,,,,,,2,1.0950365999597125,493.15133979998063,None,ScrollUp,정답입니다,493.15133979998063,None,493.15133979998063,None,493.15133979998063,None,493.15133979998063,None,494.1547698000213,None,494.1547698000213,494.654775300005,,,,,,,,,,,,,,,,024,2022-05-19_10h59.35.722,FishGame,2022.1.1,59.79284171632573,
,36,넌 명랑해,1,Orange,B,5.739130434782609,5.666666666666667,ScrollUp,ScrollDown,Orange.png,3,Positive,Incongruent,,,,,0,0,0,0,,,,,,,,,,,,,,,,,,,,,0,35,35,35,,,,,,,,,,,,,,,,,,,,,,,,,,,,,,,,,,,,,,,,,,,,,,,,,,,,,,,,,,,,,,,,,,,,,,,,,1.9614197711149852,1.2292155999457464,495.27282210002886,None,ScrollUp,정답입니다,495.27282210002886,None,495.27282210002886,None,495.27282210002886,None,495.27282210002886,None,496.4021830999991,None,496.4021830999991,496.902249100036,,,,,,,,,,,,,,,,024,2022-05-19_10h59.35.722,FishGame,2022.1.1,59.79284171632573,
,37,넌 멍해,4,Green,A,2.833333333333333,3.4,ScrollDown,ScrollUp,Green.png,3,Negative,Incongruent,,,,,0,0,0,0,,,,,,,,,,,,,,,,,,,,,0,36,36,36,,,,,,,,,,,,,,,,,,,,,,,,,,,,,,,,,,,,,,,,,,,,,,,,,,,,,,,,,,,,,,,,,,,,,,,,,1,1.078636699996423,497.51788300002227,None,ScrollDown,정답입니다,497.51788300002227,None,497.51788300002227,None,497.51788300002227,None,497.51788300002227,None,498.50218900002073,None,498.50218900002073,499.00225880002836,,,,,,,,,,,,,,,,024,2022-05-19_10h59.35.722,FishGame,2022.1.1,59.79284171632573,
,38,나를 데려가줘,6,Orange,B,0,0,ScrollDown,ScrollUp,Orange.png,3,NonTarget,NonTarget,,,,,0,0,0,0,,,,,,,,,,,,,,,,,,,,,0,37,37,37,,,,,,,,,,,,,,,,,,,,,,,,,,,,,,,,,,,,,,,,,,,,,,,,,,,,,,,,,,,,,,,,,,,,,,,,,1,1.130136499996297,499.6225832999917,None,ScrollDown,정답입니다,499.6225832999917,None,499.6225832999917,None,499.6225832999917,None,499.6225832999917,None,500.65462270000717,None,500.65462270000717,501.15238909999607,,,,,,,,,,,,,,,,024,2022-05-19_10h59.35.722,FishGame,2022.1.1,59.79284171632573,
,39,넌 현명해,2,Green,A,6.541666666666666,4.533333333333333,ScrollDown,ScrollUp,Green.png,3,Positive,Congruent,,,,,0,0,0,0,,,,,,,,,,,,,,,,,,,,,0,38,38,38,,,,,,,,,,,,,,,,,,,,,,,,,,,,,,,,,,,,,,,,,,,,,,,,,,,,,,,,,,,,,,,,,,,,,,,,,1.9753086467583973,1.2088665000046603,501.7741305999807,None,ScrollUp,오답입니다,501.7741305999807,None,501.7741305999807,None,501.7741305999807,None,501.7741305999807,None,502.88564150000457,None,502.88564150000457,503.38786890002666,,,,,,,,,,,,,,,,024,2022-05-19_10h59.35.722,FishGame,2022.1.1,59.79284171632573,
,40,넌 수줍어,3,Orange,B,3.541666666666666,4.366666666666666,ScrollUp,ScrollDown,Orange.png,3,Neutral,Neutral,,,,,0,0,0,0,,,,,,,,,,,,,,,,,,,,,0,39,39,39,,,,,,,,,,,,,,,,,,,,,,,,,,,,,,,,,,,,,,,,,,,,,,,,,,,,,,,,,,,,,,,,,,,,,,,,,2,2.3936996000120416,504.01092820003396,None,ScrollUp,정답입니다,504.01092820003396,None,504.01092820003396,None,504.01092820003396,None,504.01092820003396,None,506.3020334999892,None,506.3020334999892,506.8021007000352,,,,,,,,,,,,,,,,024,2022-05-19_10h59.35.722,FishGame,2022.1.1,59.79284171632573,
,41,나를 데려가줘,6,Orange,B,0,0,ScrollDown,ScrollUp,Orange.png,3,NonTarget,NonTarget,,,,,0,0,0,0,,,,,,,,,,,,,,,,,,,,,0,40,40,40,,,,,,,,,,,,,,,,,,,,,,,,,,,,,,,,,,,,,,,,,,,,,,,,,,,,,,,,,,,,,,,,,,,,,,,,,1,1.0938093999866396,507.42341250000754,None,ScrollDown,정답입니다,507.42341250000754,None,507.42341250000754,None,507.42341250000754,None,507.42341250000754,None,508.4212178000016,None,508.4212178000016,508.92116129997885,,,,,,,,,,,,,,,,024,2022-05-19_10h59.35.722,FishGame,2022.1.1,59.79284171632573,
,42,넌 성숙해,2,Orange,B,5.833333333333333,4.533333333333333,ScrollUp,ScrollDown,Orange.png,3,Positive,Incongruent,,,,,0,0,0,0,,,,,,,,,,,,,,,,,,,,,0,41,41,41,,,,,,,,,,,,,,,,,,,,,,,,,,,,,,,,,,,,,,,,,,,,,,,,,,,,,,,,,,,,,,,,,,,,,,,,,1.9845678806304932,2.1928044999949634,509.5451003999915,None,ScrollUp,정답입니다,509.5451003999915,None,509.5451003999915,None,509.5451003999915,None,509.5451003999915,None,511.63521410000976,None,511.63521410000976,512.1353257999872,,,,,,,,,,,,,,,,024,2022-05-19_10h59.35.722,FishGame,2022.1.1,59.79284171632573,
,1,넌 매력적이야,2,Orange,B,6.125,4.666666666666667,ScrollUp,ScrollDown,Orange.png,4,Positive,Incongruent,,,,,0,0,0,0,,,,,,,,,,,,,,,,,,,,,,,,,0,0,0,0,,,,,,,,,,,,,,,,,,,,,,,,,,,,545.0016420999891,546.503848900029,546.5371562000364,547.4847514000139,547.5371700000251,548.4871374000213,548.4871374000213,None,,,,,,,,,,,,,,,,,,,,,,,,,,,,,,,,,,2,1.3457503000390716,549.5938659000094,None,ScrollUp,정답입니다,549.5938659000094,None,549.5938659000094,None,549.5938659000094,None,549.5938659000094,None,550.8368445999804,None,550.8368445999804,551.3400329999859,512.6353116999962,None,512.6353116999962,None,0.36944443,-0.075,1,0,0,0.015989920066203922,None,542.6369443000294,None,,,024,2022-05-19_10h59.35.722,FishGame,2022.1.1,59.79284171632573,
,2,나를 보내줘,6,Green,A,0,0,ScrollUp,ScrollDown,Green.png,4,NonTarget,NonTarget,,,,,0,0,0,0,,,,,,,,,,,,,,,,,,,,,,,,,0,1,1,1,,,,,,,,,,,,,,,,,,,,,,,,,,,,,,,,,,,,,,,,,,,,,,,,,,,,,,,,,,,,,,,,,,,,,2,1.2111958999885246,551.967848100001,None,ScrollUp,정답입니다,551.967848100001,None,551.967848100001,None,551.967848100001,None,551.967848100001,None,553.0845930000069,None,553.0845930000069,553.5868238999974,,,,,,,,,,,,,,,,024,2022-05-19_10h59.35.722,FishGame,2022.1.1,59.79284171632573,
,3,넌 조심스러워,3,Green,A,4.791666666666666,4.666666666666667,ScrollDown,ScrollUp,Green.png,4,Neutral,Neutral,,,,,0,0,0,0,,,,,,,,,,,,,,,,,,,,,,,,,0,2,2,2,,,,,,,,,,,,,,,,,,,,,,,,,,,,,,,,,,,,,,,,,,,,,,,,,,,,,,,,,,,,,,,,,,,,,1,1.2263669000240043,554.2037472000229,None,ScrollDown,정답입니다,554.2037472000229,None,554.2037472000229,None,554.2037472000229,None,554.2037472000229,None,555.3345722000231,None,555.3345722000231,555.8368870000122,,,,,,,,,,,,,,,,024,2022-05-19_10h59.35.722,FishGame,2022.1.1,59.79284171632573,
,4,넌 철학적이야,3,Orange,B,4.5,4.266666666666667,ScrollUp,ScrollDown,Orange.png,4,Neutral,Neutral,,,,,0,0,0,0,,,,,,,,,,,,,,,,,,,,,,,,,0,3,3,3,,,,,,,,,,,,,,,,,,,,,,,,,,,,,,,,,,,,,,,,,,,,,,,,,,,,,,,,,,,,,,,,,,,,,2,1.3949855999671854,556.473240500025,None,ScrollUp,정답입니다,556.473240500025,None,556.473240500025,None,556.473240500025,None,556.473240500025,None,557.7511955000227,None,557.7511955000227,558.2534228999866,,,,,,,,,,,,,,,,024,2022-05-19_10h59.35.722,FishGame,2022.1.1,59.79284171632573,
,5,넌 쩨쩨해,5,Green,A,2.375,2.133333333333333,ScrollDown,ScrollUp,Green.png,4,Negative,Incongruent,,,,,0,0,0,0,,,,,,,,,,,,,,,,,,,,,,,,,0,4,4,4,,,,,,,,,,,,,,,,,,,,,,,,,,,,,,,,,,,,,,,,,,,,,,,,,,,,,,,,,,,,,,,,,,,,,1,1.0599852000013925,558.8714459000039,None,ScrollDown,정답입니다,558.8714459000039,None,558.8714459000039,None,558.8714459000039,None,558.8714459000039,None,559.8367044000188,None,559.8367044000188,560.334496400028,,,,,,,,,,,,,,,,024,2022-05-19_10h59.35.722,FishGame,2022.1.1,59.79284171632573,
,6,나를 데려가줘,6,Orange,B,0,0,ScrollDown,ScrollUp,Orange.png,4,NonTarget,NonTarget,,,,,0,0,0,0,,,,,,,,,,,,,,,,,,,,,,,,,0,5,5,5,,,,,,,,,,,,,,,,,,,,,,,,,,,,,,,,,,,,,,,,,,,,,,,,,,,,,,,,,,,,,,,,,,,,,1,1.2772440999979153,560.971042899997,None,ScrollDown,정답입니다,560.971042899997,None,560.971042899997,None,560.971042899997,None,560.971042899997,None,562.1510882999864,None,562.1510882999864,562.6532906999928,,,,,,,,,,,,,,,,024,2022-05-19_10h59.35.722,FishGame,2022.1.1,59.79284171632573,
,7,넌 고집불통이야,5,Orange,B,2.875,2,ScrollUp,ScrollDown,Orange.png,4,Negative,Congruent,,,,,0,0,0,0,,,,,,,,,,,,,,,,,,,,,,,,,0,6,6,6,,,,,,,,,,,,,,,,,,,,,,,,,,,,,,,,,,,,,,,,,,,,,,,,,,,,,,,,,,,,,,,,,,,,,2,1.3591109999688342,563.2806303999969,None,ScrollUp,정답입니다,563.2806303999969,None,563.2806303999969,None,563.2806303999969,None,563.2806303999969,None,564.5344296999974,None,564.5344296999974,565.0365847999929,,,,,,,,,,,,,,,,024,2022-05-19_10h59.35.722,FishGame,2022.1.1,59.79284171632573,
,8,넌 무심해,4,Green,A,2.875,3.2,ScrollDown,ScrollUp,Green.png,4,Negative,Incongruent,,,,,0,0,0,0,,,,,,,,,,,,,,,,,,,,,,,,,0,7,7,7,,,,,,,,,,,,,,,,,,,,,,,,,,,,,,,,,,,,,,,,,,,,,,,,,,,,,,,,,,,,,,,,,,,,,1,1.1928640000405721,565.6577208000235,None,ScrollDown,정답입니다,565.6577208000235,None,565.6577208000235,None,565.6577208000235,None,565.6577208000235,None,566.7507423000061,None,566.7507423000061,567.2508074000361,,,,,,,,,,,,,,,,024,2022-05-19_10h59.35.722,FishGame,2022.1.1,59.79284171632573,
,9,넌 정겨워,1,Green,A,5.791666666666667,5.666666666666667,ScrollDown,ScrollUp,Green.png,4,Positive,Congruent,,,,,0,0,0,0,,,,,,,,,,,,,,,,,,,,,,,,,0,8,8,8,,,,,,,,,,,,,,,,,,,,,,,,,,,,,,,,,,,,,,,,,,,,,,,,,,,,,,,,,,,,,,,,,,,,,1,1.1139872000203468,567.8707710999879,None,ScrollDown,정답입니다,567.8707710999879,None,567.8707710999879,None,567.8707710999879,None,567.8707710999879,None,568.8865835000179,None,568.8865835000179,569.3866320999805,,,,,,,,,,,,,,,,024,2022-05-19_10h59.35.722,FishGame,2022.1.1,59.79284171632573,
,10,나를 데려가줘,6,Orange,B,0,0,ScrollDown,ScrollUp,Orange.png,4,NonTarget,NonTarget,,,,,0,0,0,0,,,,,,,,,,,,,,,,,,,,,,,,,0,9,9,9,,,,,,,,,,,,,,,,,,,,,,,,,,,,,,,,,,,,,,,,,,,,,,,,,,,,,,,,,,,,,,,,,,,,,1,1.1623938999837264,570.0032160999835,None,ScrollDown,정답입니다,570.0032160999835,None,570.0032160999835,None,570.0032160999835,None,570.0032160999835,None,571.0676033000345,None,571.0676033000345,571.5698405000148,,,,,,,,,,,,,,,,024,2022-05-19_10h59.35.722,FishGame,2022.1.1,59.79284171632573,
,11,넌 체제순응적이야,4,Orange,B,3,3.6,ScrollUp,ScrollDown,Orange.png,4,Negative,Congruent,,,,,0,0,0,0,,,,,,,,,,,,,,,,,,,,,,,,,0,10,10,10,,,,,,,,,,,,,,,,,,,,,,,,,,,,,,,,,,,,,,,,,,,,,,,,,,,,,,,,,,,,,,,,,,,,,2,1.4091078000492416,572.196546000021,None,ScrollUp,정답입니다,572.196546000021,None,572.196546000021,None,572.196546000021,None,572.196546000021,None,573.5009126000223,None,573.5009126000223,574.003169899981,,,,,,,,,,,,,,,,024,2022-05-19_10h59.35.722,FishGame,2022.1.1,59.79284171632573,
,12,나를 보내줘,6,Green,A,0,0,ScrollUp,ScrollDown,Green.png,4,NonTarget,NonTarget,,,,,0,0,0,0,,,,,,,,,,,,,,,,,,,,,,,,,0,11,11,11,,,,,,,,,,,,,,,,,,,,,,,,,,,,,,,,,,,,,,,,,,,,,,,,,,,,,,,,,,,,,,,,,,,,,2,1.1761114999535494,574.619324600033,None,ScrollUp,정답입니다,574.619324600033,None,574.619324600033,None,574.619324600033,None,574.619324600033,None,575.7008364000358,None,575.7008364000358,576.203016799991,,,,,,,,,,,,,,,,024,2022-05-19_10h59.35.722,FishGame,2022.1.1,59.79284171632573,
,13,넌 박식해,2,Green,A,5.625,3.933333333333333,ScrollDown,ScrollUp,Green.png,4,Positive,Congruent,,,,,0,0,0,0,,,,,,,,,,,,,,,,,,,,,,,,,0,12,12,12,,,,,,,,,,,,,,,,,,,,,,,,,,,,,,,,,,,,,,,,,,,,,,,,,,,,,,,,,,,,,,,,,,,,,1,1.4592386999865994,576.8255829000263,None,ScrollDown,정답입니다,576.8255829000263,None,576.8255829000263,None,576.8255829000263,None,576.8255829000263,None,578.1838487000205,None,578.1838487000205,578.6839103000239,,,,,,,,,,,,,,,,024,2022-05-19_10h59.35.722,FishGame,2022.1.1,59.79284171632573,
,14,나를 보내줘,6,Green,A,0,0,ScrollUp,ScrollDown,Green.png,4,NonTarget,NonTarget,,,,,0,0,0,0,,,,,,,,,,,,,,,,,,,,,,,,,0,13,13,13,,,,,,,,,,,,,,,,,,,,,,,,,,,,,,,,,,,,,,,,,,,,,,,,,,,,,,,,,,,,,,,,,,,,,2,1.261630100023467,579.3062342000194,None,ScrollUp,정답입니다,579.3062342000194,None,579.3062342000194,None,579.3062342000194,None,579.3062342000194,None,580.4696927000186,None,580.4696927000186,580.9696924000164,,,,,,,,,,,,,,,,024,2022-05-19_10h59.35.722,FishGame,2022.1.1,59.79284171632573,
,15,넌 침착해,1,Orange,B,5.458333333333333,5.566666666666666,ScrollUp,ScrollDown,Orange.png,4,Positive,Incongruent,,,,,0,0,0,0,,,,,,,,,,,,,,,,,,,,,,,,,0,14,14,14,,,,,,,,,,,,,,,,,,,,,,,,,,,,,,,,,,,,,,,,,,,,,,,,,,,,,,,,,,,,,,,,,,,,,2,1.377050299954135,581.6160376000335,None,ScrollUp,정답입니다,581.6160376000335,None,581.6160376000335,None,581.6160376000335,None,581.6160376000335,None,582.8670868999907,None,582.8670868999907,583.3671399999876,,,,,,,,,,,,,,,,024,2022-05-19_10h59.35.722,FishGame,2022.1.1,59.79284171632573,
,16,나를 데려가줘,6,Orange,B,0,0,ScrollDown,ScrollUp,Orange.png,4,NonTarget,NonTarget,,,,,0,0,0,0,,,,,,,,,,,,,,,,,,,,,,,,,0,15,15,15,,,,,,,,,,,,,,,,,,,,,,,,,,,,,,,,,,,,,,,,,,,,,,,,,,,,,,,,,,,,,,,,,,,,,1,1.061811999999918,583.9884315999807,None,ScrollDown,정답입니다,583.9884315999807,None,583.9884315999807,None,583.9884315999807,None,583.9884315999807,None,584.9529188000015,None,584.9529188000015,585.4529648000025,,,,,,,,,,,,,,,,024,2022-05-19_10h59.35.722,FishGame,2022.1.1,59.79284171632573,
,17,넌 행복해,1,Green,A,6.416666666666666,6.166666666666667,ScrollDown,ScrollUp,Green.png,4,Positive,Congruent,,,,,0,0,0,0,,,,,,,,,,,,,,,,,,,,,,,,,0,16,16,16,,,,,,,,,,,,,,,,,,,,,,,,,,,,,,,,,,,,,,,,,,,,,,,,,,,,,,,,,,,,,,,,,,,,,1,1.6919504999532364,586.0842827000306,None,ScrollDown,정답입니다,586.0842827000306,None,586.0842827000306,None,586.0842827000306,None,586.0842827000306,None,587.6669785000267,None,587.6669785000267,588.1670427999925,,,,,,,,,,,,,,,,024,2022-05-19_10h59.35.722,FishGame,2022.1.1,59.79284171632573,
,18,넌 겸손해,2,Orange,B,5.791666666666667,4.766666666666667,ScrollUp,ScrollDown,Orange.png,4,Positive,Incongruent,,,,,0,0,0,0,,,,,,,,,,,,,,,,,,,,,,,,,0,17,17,17,,,,,,,,,,,,,,,,,,,,,,,,,,,,,,,,,,,,,,,,,,,,,,,,,,,,,,,,,,,,,,,,,,,,,2,1.378554399998393,588.7917526999954,None,ScrollUp,정답입니다,588.7917526999954,None,588.7917526999954,None,588.7917526999954,None,588.7917526999954,None,590.069533300004,None,590.069533300004,590.5695391999907,,,,,,,,,,,,,,,,024,2022-05-19_10h59.35.722,FishGame,2022.1.1,59.79284171632573,
,19,나를 보내줘,6,Green,A,0,0,ScrollUp,ScrollDown,Green.png,4,NonTarget,NonTarget,,,,,0,0,0,0,,,,,,,,,,,,,,,,,,,,,,,,,0,18,18,18,,,,,,,,,,,,,,,,,,,,,,,,,,,,,,,,,,,,,,,,,,,,,,,,,,,,,,,,,,,,,,,,,,,,,2,1.2625393999624066,591.1827770000091,None,ScrollUp,정답입니다,591.1827770000091,None,591.1827770000091,None,591.1827770000091,None,591.1827770000091,None,592.3502197000198,None,592.3502197000198,592.8502841999871,,,,,,,,,,,,,,,,024,2022-05-19_10h59.35.722,FishGame,2022.1.1,59.79284171632573,
,20,넌 의심없어,3,Green,A,4.166666666666667,4.6,ScrollDown,ScrollUp,Green.png,4,Neutral,Neutral,,,,,0,0,0,0,,,,,,,,,,,,,,,,,,,,,,,,,0,19,19,19,,,,,,,,,,,,,,,,,,,,,,,,,,,,,,,,,,,,,,,,,,,,,,,,,,,,,,,,,,,,,,,,,,,,,1,1.3474642999935895,593.4678807000164,None,ScrollDown,정답입니다,593.4678807000164,None,593.4678807000164,None,593.4678807000164,None,593.4678807000164,None,594.719413999992,None,594.719413999992,595.2194067999953,,,,,,,,,,,,,,,,024,2022-05-19_10h59.35.722,FishGame,2022.1.1,59.79284171632573,
,21,넌 시시해,4,Green,A,2.666666666666667,2.966666666666667,ScrollDown,ScrollUp,Green.png,4,Negative,Incongruent,,,,,0,0,0,0,,,,,,,,,,,,,,,,,,,,,,,,,0,20,20,20,,,,,,,,,,,,,,,,,,,,,,,,,,,,,,,,,,,,,,,,,,,,,,,,,,,,,,,,,,,,,,,,,,,,,1,1.1107112999889068,595.8371166000143,None,ScrollDown,정답입니다,595.8371166000143,None,595.8371166000143,None,595.8371166000143,None,595.8371166000143,None,596.8504093000083,None,596.8504093000083,597.3525543999858,,,,,,,,,,,,,,,,024,2022-05-19_10h59.35.722,FishGame,2022.1.1,59.79284171632573,
,22,나를 데려가줘,6,Orange,B,0,0,ScrollDown,ScrollUp,Orange.png,4,NonTarget,NonTarget,,,,,0,0,0,0,,,,,,,,,,,,,,,,,,,,,,,,,0,21,21,21,,,,,,,,,,,,,,,,,,,,,,,,,,,,,,,,,,,,,,,,,,,,,,,,,,,,,,,,,,,,,,,,,,,,,1,1.1594890999840572,597.9731537000043,None,ScrollDown,정답입니다,597.9731537000043,None,597.9731537000043,None,597.9731537000043,None,597.9731537000043,None,599.0359012000263,None,599.0359012000263,599.5526472000056,,,,,,,,,,,,,,,,024,2022-05-19_10h59.35.722,FishGame,2022.1.1,59.79284171632573,
,23,넌 무정해,5,Green,A,2.5,2.2,ScrollDown,ScrollUp,Green.png,4,Negative,Incongruent,,,,,0,0,0,0,,,,,,,,,,,,,,,,,,,,,,,,,0,22,22,22,,,,,,,,,,,,,,,,,,,,,,,,,,,,,,,,,,,,,,,,,,,,,,,,,,,,,,,,,,,,,,,,,,,,,1,1.994089299987536,600.1593647000263,None,ScrollDown,정답입니다,600.1593647000263,None,600.1593647000263,None,600.1593647000263,None,600.1593647000263,None,602.0503085000091,None,602.0503085000091,602.5524359000265,,,,,,,,,,,,,,,,024,2022-05-19_10h59.35.722,FishGame,2022.1.1,59.79284171632573,
,24,넌 긍정적이야,1,Orange,B,6.041666666666667,6.066666666666666,ScrollUp,ScrollDown,Orange.png,4,Positive,Incongruent,,,,,0,0,0,0,,,,,,,,,,,,,,,,,,,,,,,,,0,23,23,23,,,,,,,,,,,,,,,,,,,,,,,,,,,,,,,,,,,,,,,,,,,,,,,,,,,,,,,,,,,,,,,,,,,,,2,1.2924368999665603,603.1782081000274,None,ScrollUp,정답입니다,603.1782081000274,None,603.1782081000274,None,603.1782081000274,None,603.1782081000274,None,604.3667767000152,None,604.3667767000152,604.8669858000358,,,,,,,,,,,,,,,,024,2022-05-19_10h59.35.722,FishGame,2022.1.1,59.79284171632573,
,25,나를 보내줘,6,Green,A,0,0,ScrollUp,ScrollDown,Green.png,4,NonTarget,NonTarget,,,,,0,0,0,0,,,,,,,,,,,,,,,,,,,,,,,,,0,24,24,24,,,,,,,,,,,,,,,,,,,,,,,,,,,,,,,,,,,,,,,,,,,,,,,,,,,,,,,,,,,,,,,,,,,,,2,1.1754231000086293,605.4899720000103,None,ScrollUp,정답입니다,605.4899720000103,None,605.4899720000103,None,605.4899720000103,None,605.4899720000103,None,606.5666098000365,None,606.5666098000365,607.0666437000036,,,,,,,,,,,,,,,,024,2022-05-19_10h59.35.722,FishGame,2022.1.1,59.79284171632573,
,26,넌 시기심이 많아,5,Orange,B,2.458333333333333,2.233333333333333,ScrollUp,ScrollDown,Orange.png,4,Negative,Congruent,,,,,0,0,0,0,,,,,,,,,,,,,,,,,,,,,,,,,0,25,25,25,,,,,,,,,,,,,,,,,,,,,,,,,,,,,,,,,,,,,,,,,,,,,,,,,,,,,,,,,,,,,,,,,,,,,2,1.2307479999726638,607.6946199000231,None,ScrollUp,정답입니다,607.6946199000231,None,607.6946199000231,None,607.6946199000231,None,607.6946199000231,None,608.8191468000296,None,608.8191468000296,609.3191696000285,,,,,,,,,,,,,,,,024,2022-05-19_10h59.35.722,FishGame,2022.1.1,59.79284171632573,
,27,넌 탁월해,2,Green,A,5.708333333333334,4.5,ScrollDown,ScrollUp,Green.png,4,Positive,Congruent,,,,,0,0,0,0,,,,,,,,,,,,,,,,,,,,,,,,,0,26,26,26,,,,,,,,,,,,,,,,,,,,,,,,,,,,,,,,,,,,,,,,,,,,,,,,,,,,,,,,,,,,,,,,,,,,,1,1.111504100030288,609.9584274999797,None,ScrollDown,정답입니다,609.9584274999797,None,609.9584274999797,None,609.9584274999797,None,609.9584274999797,None,610.9691165999975,None,610.9691165999975,611.4689424000098,,,,,,,,,,,,,,,,024,2022-05-19_10h59.35.722,FishGame,2022.1.1,59.79284171632573,
,28,나를 데려가줘,6,Orange,B,0,0,ScrollDown,ScrollUp,Orange.png,4,NonTarget,NonTarget,,,,,0,0,0,0,,,,,,,,,,,,,,,,,,,,,,,,,0,27,27,27,,,,,,,,,,,,,,,,,,,,,,,,,,,,,,,,,,,,,,,,,,,,,,,,,,,,,,,,,,,,,,,,,,,,,1,1.1779115999815986,612.0889494000003,None,ScrollDown,정답입니다,612.0889494000003,None,612.0889494000003,None,612.0889494000003,None,612.0889494000003,None,613.1667588999844,None,613.1667588999844,613.669073600031,,,,,,,,,,,,,,,,024,2022-05-19_10h59.35.722,FishGame,2022.1.1,59.79284171632573,
,29,넌 조용해,3,Orange,B,4.333333333333333,4.166666666666667,ScrollUp,ScrollDown,Orange.png,4,Neutral,Neutral,,,,,0,0,0,0,,,,,,,,,,,,,,,,,,,,,,,,,0,28,28,28,,,,,,,,,,,,,,,,,,,,,,,,,,,,,,,,,,,,,,,,,,,,,,,,,,,,,,,,,,,,,,,,,,,,,2,1.4759202999994159,614.2932323000277,None,ScrollUp,정답입니다,614.2932323000277,None,614.2932323000277,None,614.2932323000277,None,614.2932323000277,None,615.6666412000195,None,615.6666412000195,616.1688457999844,,,,,,,,,,,,,,,,024,2022-05-19_10h59.35.722,FishGame,2022.1.1,59.79284171632573,
,30,넌 다정해,1,Green,A,5.833333333333334,5.7,ScrollDown,ScrollUp,Green.png,4,Positive,Congruent,,,,,0,0,0,0,,,,,,,,,,,,,,,,,,,,,,,,,0,29,29,29,,,,,,,,,,,,,,,,,,,,,,,,,,,,,,,,,,,,,,,,,,,,,,,,,,,,,,,,,,,,,,,,,,,,,1,0.9940494000329636,616.7867662000353,None,ScrollDown,정답입니다,616.7867662000353,None,616.7867662000353,None,616.7867662000353,None,616.7867662000353,None,617.6833005999797,None,617.6833005999797,618.185560700018,,,,,,,,,,,,,,,,024,2022-05-19_10h59.35.722,FishGame,2022.1.1,59.79284171632573,
,31,넌 능력있어,2,Orange,B,6.166666666666666,4.6,ScrollUp,ScrollDown,Orange.png,4,Positive,Incongruent,,,,,0,0,0,0,,,,,,,,,,,,,,,,,,,,,,,,,0,30,30,30,,,,,,,,,,,,,,,,,,,,,,,,,,,,,,,,,,,,,,,,,,,,,,,,,,,,,,,,,,,,,,,,,,,,,2,1.0938335999962874,618.8108030000003,None,ScrollUp,정답입니다,618.8108030000003,None,618.8108030000003,None,618.8108030000003,None,618.8108030000003,None,619.8020856000367,None,619.8020856000367,620.3166145000141,,,,,,,,,,,,,,,,024,2022-05-19_10h59.35.722,FishGame,2022.1.1,59.79284171632573,
,32,넌 불쾌해,5,Green,A,2.125,1.933333333333333,ScrollDown,ScrollUp,Green.png,4,Negative,Incongruent,,,,,0,0,0,0,,,,,,,,,,,,,,,,,,,,,,,,,0,31,31,31,,,,,,,,,,,,,,,,,,,,,,,,,,,,,,,,,,,,,,,,,,,,,,,,,,,,,,,,,,,,,,,,,,,,,1,1.145083200011868,620.9354474000284,None,ScrollDown,정답입니다,620.9354474000284,None,620.9354474000284,None,620.9354474000284,None,620.9354474000284,None,621.9832037999877,None,621.9832037999877,622.4853697000071,,,,,,,,,,,,,,,,024,2022-05-19_10h59.35.722,FishGame,2022.1.1,59.79284171632573,
,33,나를 데려가줘,6,Orange,B,0,0,ScrollDown,ScrollUp,Orange.png,4,NonTarget,NonTarget,,,,,0,0,0,0,,,,,,,,,,,,,,,,,,,,,,,,,0,32,32,32,,,,,,,,,,,,,,,,,,,,,,,,,,,,,,,,,,,,,,,,,,,,,,,,,,,,,,,,,,,,,,,,,,,,,1,1.0776904000085779,623.1033213000046,None,ScrollDown,정답입니다,623.1033213000046,None,623.1033213000046,None,623.1033213000046,None,623.1033213000046,None,624.0832179000136,None,624.0832179000136,624.5831684999866,,,,,,,,,,,,,,,,024,2022-05-19_10h59.35.722,FishGame,2022.1.1,59.79284171632573,
,34,넌 유순해,3,Green,A,4.458333333333333,5,ScrollDown,ScrollUp,Green.png,4,Neutral,Neutral,,,,,0,0,0,0,,,,,,,,,,,,,,,,,,,,,,,,,0,33,33,33,,,,,,,,,,,,,,,,,,,,,,,,,,,,,,,,,,,,,,,,,,,,,,,,,,,,,,,,,,,,,,,,,,,,,1,1.5774307000101544,625.2007580000209,None,ScrollDown,정답입니다,625.2007580000209,None,625.2007580000209,None,625.2007580000209,None,625.2007580000209,None,626.6831019999809,None,626.6831019999809,627.1831014000345,,,,,,,,,,,,,,,,024,2022-05-19_10h59.35.722,FishGame,2022.1.1,59.79284171632573,
,35,넌 근심스러워,4,Orange,B,2.708333333333333,3.133333333333333,ScrollUp,ScrollDown,Orange.png,4,Negative,Congruent,,,,,0,0,0,0,,,,,,,,,,,,,,,,,,,,,,,,,0,34,34,34,,,,,,,,,,,,,,,,,,,,,,,,,,,,,,,,,,,,,,,,,,,,,,,,,,,,,,,,,,,,,,,,,,,,,2,1.0945454000029713,627.8110188000137,None,ScrollUp,정답입니다,627.8110188000137,None,627.8110188000137,None,627.8110188000137,None,627.8110188000137,None,628.7997374000261,None,628.7997374000261,629.30196349998,,,,,,,,,,,,,,,,024,2022-05-19_10h59.35.722,FishGame,2022.1.1,59.79284171632573,
,36,넌 세련되었어,2,Green,A,5.5,4.6,ScrollDown,ScrollUp,Green.png,4,Positive,Congruent,,,,,0,0,0,0,,,,,,,,,,,,,,,,,,,,,,,,,0,35,35,35,,,,,,,,,,,,,,,,,,,,,,,,,,,,,,,,,,,,,,,,,,,,,,,,,,,,,,,,,,,,,,,,,,,,,1,1.193813299993053,629.9258280000067,None,ScrollDown,정답입니다,629.9258280000067,None,629.9258280000067,None,629.9258280000067,None,629.9258280000067,None,631.0160915000015,None,631.0160915000015,631.516154300014,,,,,,,,,,,,,,,,024,2022-05-19_10h59.35.722,FishGame,2022.1.1,59.79284171632573,
,37,나를 보내줘,6,Green,A,0,0,ScrollUp,ScrollDown,Green.png,4,NonTarget,NonTarget,,,,,0,0,0,0,,,,,,,,,,,,,,,,,,,,,,,,,0,36,36,36,,,,,,,,,,,,,,,,,,,,,,,,,,,,,,,,,,,,,,,,,,,,,,,,,,,,,,,,,,,,,,,,,,,,,2,1.1806782999774441,632.1375890999916,None,ScrollUp,정답입니다,632.1375890999916,None,632.1375890999916,None,632.1375890999916,None,632.1375890999916,None,633.2185866000364,None,633.2185866000364,633.7186323000351,,,,,,,,,,,,,,,,024,2022-05-19_10h59.35.722,FishGame,2022.1.1,59.79284171632573,
,38,넌 확고해,3,Orange,B,4.708333333333334,4.566666666666666,ScrollUp,ScrollDown,Orange.png,4,Neutral,Neutral,,,,,0,0,0,0,,,,,,,,,,,,,,,,,,,,,,,,,0,37,37,37,,,,,,,,,,,,,,,,,,,,,,,,,,,,,,,,,,,,,,,,,,,,,,,,,,,,,,,,,,,,,,,,,,,,,2,1.1127132999827154,634.3368980999803,None,ScrollUp,정답입니다,634.3368980999803,None,634.3368980999803,None,634.3368980999803,None,634.3368980999803,None,635.3496033999836,None,635.3496033999836,635.8517515999847,,,,,,,,,,,,,,,,024,2022-05-19_10h59.35.722,FishGame,2022.1.1,59.79284171632573,
,39,넌 이해심이 많아,1,Orange,B,6.041666666666668,5.533333333333333,ScrollUp,ScrollDown,Orange.png,4,Positive,Incongruent,,,,,0,0,0,0,,,,,,,,,,,,,,,,,,,,,,,,,0,38,38,38,,,,,,,,,,,,,,,,,,,,,,,,,,,,,,,,,,,,,,,,,,,,,,,,,,,,,,,,,,,,,,,,,,,,,2,1.1926023000269197,636.475575199991,None,ScrollUp,정답입니다,636.475575199991,None,636.475575199991,None,636.475575199991,None,636.475575199991,None,637.5662244000123,None,637.5662244000123,638.068375300034,,,,,,,,,,,,,,,,024,2022-05-19_10h59.35.722,FishGame,2022.1.1,59.79284171632573,
,40,나를 보내줘,6,Green,A,0,0,ScrollUp,ScrollDown,Green.png,4,NonTarget,NonTarget,,,,,0,0,0,0,,,,,,,,,,,,,,,,,,,,,,,,,0,39,39,39,,,,,,,,,,,,,,,,,,,,,,,,,,,,,,,,,,,,,,,,,,,,,,,,,,,,,,,,,,,,,,,,,,,,,2,1.1459352999809198,638.6828964999877,None,ScrollUp,정답입니다,638.6828964999877,None,638.6828964999877,None,638.6828964999877,None,638.6828964999877,None,639.7328707000124,None,639.7328707000124,640.2350745000294,,,,,,,,,,,,,,,,024,2022-05-19_10h59.35.722,FishGame,2022.1.1,59.79284171632573,
,41,넌 거칠어,4,Green,A,2.625,3.033333333333333,ScrollDown,ScrollUp,Green.png,4,Negative,Incongruent,,,,,0,0,0,0,,,,,,,,,,,,,,,,,,,,,,,,,0,40,40,40,,,,,,,,,,,,,,,,,,,,,,,,,,,,,,,,,,,,,,,,,,,,,,,,,,,,,,,,,,,,,,,,,,,,,1,1.1922750000376254,640.8570182999829,None,ScrollDown,정답입니다,640.8570182999829,None,640.8570182999829,None,640.8570182999829,None,640.8570182999829,None,641.9491909000208,None,641.9491909000208,642.4492661000113,,,,,,,,,,,,,,,,024,2022-05-19_10h59.35.722,FishGame,2022.1.1,59.79284171632573,
,42,넌 변덕맞아,5,Orange,B,2.75,2.166666666666667,ScrollUp,ScrollDown,Orange.png,4,Negative,Congruent,,,,,0,0,0,0,,,,,,,,,,,,,,,,,,,,,,,,,0,41,41,41,,,,,,,,,,,,,,,,,,,,,,,,,,,,,,,,,,,,,,,,,,,,,,,,,,,,,,,,,,,,,,,,,,,,,2,1.2111397000262514,643.07903730002,None,ScrollUp,정답입니다,643.07903730002,None,643.07903730002,None,643.07903730002,None,643.07903730002,None,644.182515499997,None,644.182515499997,644.6850636000163,,,,,,,,,,,,,,,,024,2022-05-19_10h59.35.722,FishGame,2022.1.1,59.79284171632573,
,43,나를 데려가줘,6,Orange,B,0,0,ScrollDown,ScrollUp,Orange.png,4,NonTarget,NonTarget,,,,,0,0,0,0,,,,,,,,,,,,,,,,,,,,,,,,,0,42,42,42,,,,,,,,,,,,,,,,,,,,,,,,,,,,,,,,,,,,,,,,,,,,,,,,,,,,,,,,,,,,,,,,,,,,,1,1.3611998000415042,645.3030689000152,None,ScrollDown,정답입니다,645.3030689000152,None,645.3030689000152,None,645.3030689000152,None,645.3030689000152,None,646.5684248000034,None,646.5684248000034,647.0848814999918,,,,,,,,,,,,,,,,024,2022-05-19_10h59.35.722,FishGame,2022.1.1,59.79284171632573,
,44,넌 외로워,4,Orange,B,2.833333333333333,3.3,ScrollUp,ScrollDown,Orange.png,4,Negative,Congruent,,,,,0,0,0,0,,,,,,,,,,,,,,,,,,,,,,,,,0,43,43,43,,,,,,,,,,,,,,,,,,,,,,,,,,,,,,,,,,,,,,,,,,,,,,,,,,,,,,,,,,,,,,,,,,,,,2,1.7606068000313826,647.688589700032,None,ScrollUp,정답입니다,647.688589700032,None,647.688589700032,None,647.688589700032,None,647.688589700032,None,649.3493395000114,None,649.3493395000114,649.8515778000001,,,,,,,,,,,,,,,,024,2022-05-19_10h59.35.722,FishGame,2022.1.1,59.79284171632573,
,1,넌 불평스러워,5,Green,A,2.25,2.066666666666667,ScrollDown,ScrollUp,Green.png,5,Negative,Incongruent,,,,,0,0,0,0,,,,,,,,,,,,,,,,,,,,,,,,,,,,,0,0,0,0,,,,,,,,,,,,,,,,,,,,,,,,682.0653866000357,683.567717500031,683.6010370000149,684.5509483999922,684.6009484999813,685.5509428000078,685.5509428000078,None,,,,,,,,,,,,,,,,,,,,,,,,,,,,,,,,,,1,1.2095965000335127,686.6553890000214,None,ScrollDown,정답입니다,686.6553890000214,None,686.6553890000214,None,686.6553890000214,None,686.6553890000214,None,687.7673817999894,None,687.7673817999894,688.2706675999798,650.3490734000225,None,650.3490734000225,None,0.3175926,-0.085185185,1,0,0,0.016082719957921654,None,680.3509975000052,None,,,024,2022-05-19_10h59.35.722,FishGame,2022.1.1,59.79284171632573,
,2,나를 보내줘,6,Green,A,0,0,ScrollUp,ScrollDown,Green.png,5,NonTarget,NonTarget,,,,,0,0,0,0,,,,,,,,,,,,,,,,,,,,,,,,,,,,,0,1,1,1,,,,,,,,,,,,,,,,,,,,,,,,,,,,,,,,,,,,,,,,,,,,,,,,,,,,,,,,,,,,,,,,,2,1.1090511999791488,688.9021397000179,None,ScrollUp,정답입니다,688.9021397000179,None,688.9021397000179,None,688.9021397000179,None,688.9021397000179,None,689.9151148999808,None,689.9151148999808,690.4173762000282,,,,,,,,,,,,,,,,024,2022-05-19_10h59.35.722,FishGame,2022.1.1,59.79284171632573,
,3,넌 다재다능해,2,Orange,B,6.208333333333333,4.5,ScrollUp,ScrollDown,Orange.png,5,Positive,Incongruent,,,,,0,0,0,0,,,,,,,,,,,,,,,,,,,,,,,,,,,,,0,2,2,2,,,,,,,,,,,,,,,,,,,,,,,,,,,,,,,,,,,,,,,,,,,,,,,,,,,,,,,,,,,,,,,,,1.9583333432674408,1.1933361000264995,691.0356863000197,None,ScrollUp,정답입니다,691.0356863000197,None,691.0356863000197,None,691.0356863000197,None,691.0356863000197,None,692.1339513999992,None,692.1339513999992,692.6339670000016,,,,,,,,,,,,,,,,024,2022-05-19_10h59.35.722,FishGame,2022.1.1,59.79284171632573,
,4,넌 과감해,3,Green,A,4.833333333333334,4.6,ScrollDown,ScrollUp,Green.png,5,Neutral,Neutral,,,,,0,0,0,0,,,,,,,,,,,,,,,,,,,,,,,,,,,,,0,3,3,3,,,,,,,,,,,,,,,,,,,,,,,,,,,,,,,,,,,,,,,,,,,,,,,,,,,,,,,,,,,,,,,,,1,1.075580800010357,693.2525356999831,None,ScrollDown,정답입니다,693.2525356999831,None,693.2525356999831,None,693.2525356999831,None,693.2525356999831,None,694.2316832999932,None,694.2316832999932,694.7339433000307,,,,,,,,,,,,,,,,024,2022-05-19_10h59.35.722,FishGame,2022.1.1,59.79284171632573,
,5,넌 고분고분해,3,Orange,B,3.75,4.033333333333333,ScrollUp,ScrollDown,Orange.png,5,Neutral,Neutral,,,,,0,0,0,0,,,,,,,,,,,,,,,,,,,,,,,,,,,,,0,4,4,4,,,,,,,,,,,,,,,,,,,,,,,,,,,,,,,,,,,,,,,,,,,,,,,,,,,,,,,,,,,,,,,,,2,1.0778646999970078,695.3558570999885,None,ScrollUp,정답입니다,695.3558570999885,None,695.3558570999885,None,695.3558570999885,None,695.3558570999885,None,696.3338038999937,None,696.3338038999937,696.833898300014,,,,,,,,,,,,,,,,024,2022-05-19_10h59.35.722,FishGame,2022.1.1,59.79284171632573,
,6,나를 보내줘,6,Green,A,0,0,ScrollUp,ScrollDown,Green.png,5,NonTarget,NonTarget,,,,,0,0,0,0,,,,,,,,,,,,,,,,,,,,,,,,,,,,,0,5,5,5,,,,,,,,,,,,,,,,,,,,,,,,,,,,,,,,,,,,,,,,,,,,,,,,,,,,,,,,,,,,,,,,,2,1.0810471000149846,697.4517662000144,None,ScrollUp,정답입니다,697.4517662000144,None,697.4517662000144,None,697.4517662000144,None,697.4517662000144,None,698.437093399989,None,698.437093399989,698.94836390001,,,,,,,,,,,,,,,,024,2022-05-19_10h59.35.722,FishGame,2022.1.1,59.79284171632573,
,7,넌 잘 잊어,4,Green,A,3,3.7,ScrollDown,ScrollUp,Green.png,5,Negative,Incongruent,,,,,0,0,0,0,,,,,,,,,,,,,,,,,,,,,,,,,,,,,0,6,6,6,,,,,,,,,,,,,,,,,,,,,,,,,,,,,,,,,,,,,,,,,,,,,,,,,,,,,,,,,,,,,,,,,1,1.109418399981223,699.5704827000154,None,ScrollDown,정답입니다,699.5704827000154,None,699.5704827000154,None,699.5704827000154,None,699.5704827000154,None,700.5815851999796,None,700.5815851999796,701.0838667000062,,,,,,,,,,,,,,,,024,2022-05-19_10h59.35.722,FishGame,2022.1.1,59.79284171632573,
,8,넌 탐구심이없어,4,Orange,B,2.833333333333333,3.066666666666667,ScrollUp,ScrollDown,Orange.png,5,Negative,Congruent,,,,,0,0,0,0,,,,,,,,,,,,,,,,,,,,,,,,,,,,,0,7,7,7,,,,,,,,,,,,,,,,,,,,,,,,,,,,,,,,,,,,,,,,,,,,,,,,,,,,,,,,,,,,,,,,,2,1.0773528999998234,701.7047742999857,None,ScrollUp,정답입니다,701.7047742999857,None,701.7047742999857,None,701.7047742999857,None,701.7047742999857,None,702.6837338000187,None,702.6837338000187,703.1837773000007,,,,,,,,,,,,,,,,024,2022-05-19_10h59.35.722,FishGame,2022.1.1,59.79284171632573,
,9,나를 데려가줘,6,Orange,B,0,0,ScrollDown,ScrollUp,Orange.png,5,NonTarget,NonTarget,,,,,0,0,0,0,,,,,,,,,,,,,,,,,,,,,,,,,,,,,0,8,8,8,,,,,,,,,,,,,,,,,,,,,,,,,,,,,,,,,,,,,,,,,,,,,,,,,,,,,,,,,,,,,,,,,1,1.1927881999872625,703.8075881000259,None,ScrollDown,정답입니다,703.8075881000259,None,703.8075881000259,None,703.8075881000259,None,703.8075881000259,None,704.8979171999963,None,704.8979171999963,705.3979642000049,,,,,,,,,,,,,,,,024,2022-05-19_10h59.35.722,FishGame,2022.1.1,59.79284171632573,
,10,넌 참되어,2,Green,A,6.041666666666664,4.733333333333333,ScrollDown,ScrollUp,Green.png,5,Positive,Congruent,,,,,0,0,0,0,,,,,,,,,,,,,,,,,,,,,,,,,,,,,0,9,9,9,,,,,,,,,,,,,,,,,,,,,,,,,,,,,,,,,,,,,,,,,,,,,,,,,,,,,,,,,,,,,,,,,1,1.1783337999950163,706.0190183999948,None,ScrollDown,정답입니다,706.0190183999948,None,706.0190183999948,None,706.0190183999948,None,706.0190183999948,None,707.100394100009,None,707.100394100009,707.6004514999804,,,,,,,,,,,,,,,,024,2022-05-19_10h59.35.722,FishGame,2022.1.1,59.79284171632573,
,11,넌 생기있어,1,Orange,B,5.875,5.633333333333334,ScrollUp,ScrollDown,Orange.png,5,Positive,Incongruent,,,,,0,0,0,0,,,,,,,,,,,,,,,,,,,,,,,,,,,,,0,10,10,10,,,,,,,,,,,,,,,,,,,,,,,,,,,,,,,,,,,,,,,,,,,,,,,,,,,,,,,,,,,,,,,,,2,1.2603106000460684,708.2230941000162,None,ScrollUp,정답입니다,708.2230941000162,None,708.2230941000162,None,708.2230941000162,None,708.2230941000162,None,709.3811566000222,None,709.3811566000222,709.881218900031,,,,,,,,,,,,,,,,024,2022-05-19_10h59.35.722,FishGame,2022.1.1,59.79284171632573,
,12,넌 비사교적이야,4,Orange,B,2.875,2.9,ScrollUp,ScrollDown,Orange.png,5,Negative,Congruent,,,,,0,0,0,0,,,,,,,,,,,,,,,,,,,,,,,,,,,,,0,11,11,11,,,,,,,,,,,,,,,,,,,,,,,,,,,,,,,,,,,,,,,,,,,,,,,,,,,,,,,,,,,,,,,,,2,1.9617655000183731,710.5032860999927,None,ScrollUp,정답입니다,710.5032860999927,None,710.5032860999927,None,710.5032860999927,None,710.5032860999927,None,712.367018399993,None,712.367018399993,712.8670364000136,,,,,,,,,,,,,,,,024,2022-05-19_10h59.35.722,FishGame,2022.1.1,59.79284171632573,
,13,나를 데려가줘,6,Orange,B,0,0,ScrollDown,ScrollUp,Orange.png,5,NonTarget,NonTarget,,,,,0,0,0,0,,,,,,,,,,,,,,,,,,,,,,,,,,,,,0,12,12,12,,,,,,,,,,,,,,,,,,,,,,,,,,,,,,,,,,,,,,,,,,,,,,,,,,,,,,,,,,,,,,,,,1,1.1425665999995545,713.4891368999961,None,ScrollDown,정답입니다,713.4891368999961,None,713.4891368999961,None,713.4891368999961,None,713.4891368999961,None,714.5369053999893,None,714.5369053999893,715.0501474000048,,,,,,,,,,,,,,,,024,2022-05-19_10h59.35.722,FishGame,2022.1.1,59.79284171632573,
,14,넌 고독해,4,Green,A,2.916666666666667,3.233333333333333,ScrollDown,ScrollUp,Green.png,5,Negative,Incongruent,,,,,0,0,0,0,,,,,,,,,,,,,,,,,,,,,,,,,,,,,0,13,13,13,,,,,,,,,,,,,,,,,,,,,,,,,,,,,,,,,,,,,,,,,,,,,,,,,,,,,,,,,,,,,,,,,1,1.3446524000028148,715.6695562999812,None,ScrollDown,정답입니다,715.6695562999812,None,715.6695562999812,None,715.6695562999812,None,715.6695562999812,None,716.9146424999926,None,716.9146424999926,717.4168512999895,,,,,,,,,,,,,,,,024,2022-05-19_10h59.35.722,FishGame,2022.1.1,59.79284171632573,
,15,넌 신경질적이야,5,Orange,B,2.375,2.233333333333333,ScrollUp,ScrollDown,Orange.png,5,Negative,Congruent,,,,,0,0,0,0,,,,,,,,,,,,,,,,,,,,,,,,,,,,,0,14,14,14,,,,,,,,,,,,,,,,,,,,,,,,,,,,,,,,,,,,,,,,,,,,,,,,,,,,,,,,,,,,,,,,,2,1.728079600026831,718.0434700000333,None,ScrollUp,정답입니다,718.0434700000333,None,718.0434700000333,None,718.0434700000333,None,718.0434700000333,None,719.6645269999863,None,719.6645269999863,720.1667442999897,,,,,,,,,,,,,,,,024,2022-05-19_10h59.35.722,FishGame,2022.1.1,59.79284171632573,
,16,넌 똑똑해,2,Orange,B,5.666666666666667,3.966666666666667,ScrollUp,ScrollDown,Orange.png,5,Positive,Incongruent,,,,,0,0,0,0,,,,,,,,,,,,,,,,,,,,,,,,,,,,,0,15,15,15,,,,,,,,,,,,,,,,,,,,,,,,,,,,,,,,,,,,,,,,,,,,,,,,,,,,,,,,,,,,,,,,,2,1.792682799976319,720.7922956999973,None,ScrollUp,정답입니다,720.7922956999973,None,720.7922956999973,None,720.7922956999973,None,720.7922956999973,None,722.4811935999896,None,722.4811935999896,722.9868183000362,,,,,,,,,,,,,,,,024,2022-05-19_10h59.35.722,FishGame,2022.1.1,59.79284171632573,
,17,나를 보내줘,6,Green,A,0,0,ScrollUp,ScrollDown,Green.png,5,NonTarget,NonTarget,,,,,0,0,0,0,,,,,,,,,,,,,,,,,,,,,,,,,,,,,0,16,16,16,,,,,,,,,,,,,,,,,,,,,,,,,,,,,,,,,,,,,,,,,,,,,,,,,,,,,,,,,,,,,,,,,2,1.361313399975188,723.597438900033,None,ScrollUp,정답입니다,723.597438900033,None,723.597438900033,None,723.597438900033,None,723.597438900033,None,724.8644188999897,None,724.8644188999897,725.3665827999939,,,,,,,,,,,,,,,,024,2022-05-19_10h59.35.722,FishGame,2022.1.1,59.79284171632573,
,18,넌 협조적이야,1,Green,A,5.625,5.666666666666667,ScrollDown,ScrollUp,Green.png,5,Positive,Congruent,,,,,0,0,0,0,,,,,,,,,,,,,,,,,,,,,,,,,,,,,0,17,17,17,,,,,,,,,,,,,,,,,,,,,,,,,,,,,,,,,,,,,,,,,,,,,,,,,,,,,,,,,,,,,,,,,1,1.6930677000200376,725.9838302999851,None,ScrollDown,정답입니다,725.9838302999851,None,725.9838302999851,None,725.9838302999851,None,725.9838302999851,None,727.5832921999972,None,727.5832921999972,728.0833453999949,,,,,,,,,,,,,,,,024,2022-05-19_10h59.35.722,FishGame,2022.1.1,59.79284171632573,
,19,나를 데려가줘,6,Orange,B,0,0,ScrollDown,ScrollUp,Orange.png,5,NonTarget,NonTarget,,,,,0,0,0,0,,,,,,,,,,,,,,,,,,,,,,,,,,,,,0,18,18,18,,,,,,,,,,,,,,,,,,,,,,,,,,,,,,,,,,,,,,,,,,,,,,,,,,,,,,,,,,,,,,,,,1,1.2095897000399418,728.7022696000058,None,ScrollDown,정답입니다,728.7022696000058,None,728.7022696000058,None,728.7022696000058,None,728.7022696000058,None,729.8143580000033,None,729.8143580000033,730.3165499999886,,,,,,,,,,,,,,,,024,2022-05-19_10h59.35.722,FishGame,2022.1.1,59.79284171632573,
,20,넌 몰인정해,5,Orange,B,2.541666666666667,2.066666666666667,ScrollUp,ScrollDown,Orange.png,5,Negative,Congruent,,,,,0,0,0,0,,,,,,,,,,,,,,,,,,,,,,,,,,,,,0,19,19,19,,,,,,,,,,,,,,,,,,,,,,,,,,,,,,,,,,,,,,,,,,,,,,,,,,,,,,,,,,,,,,,,,2,1.6112045000190847,730.944489800022,None,ScrollUp,정답입니다,730.944489800022,None,730.944489800022,None,730.944489800022,None,730.944489800022,None,732.4475941000273,None,732.4475941000273,732.949792200001,,,,,,,,,,,,,,,,024,2022-05-19_10h59.35.722,FishGame,2022.1.1,59.79284171632573,
,21,나를 데려가줘,6,Orange,B,0,0,ScrollDown,ScrollUp,Orange.png,5,NonTarget,NonTarget,,,,,0,0,0,0,,,,,,,,,,,,,,,,,,,,,,,,,,,,,0,20,20,20,,,,,,,,,,,,,,,,,,,,,,,,,,,,,,,,,,,,,,,,,,,,,,,,,,,,,,,,,,,,,,,,,1,1.1925898000481538,733.5759713000152,None,ScrollDown,정답입니다,733.5759713000152,None,733.5759713000152,None,733.5759713000152,None,733.5759713000152,None,734.6642449999927,None,734.6642449999927,735.1665580000263,,,,,,,,,,,,,,,,024,2022-05-19_10h59.35.722,FishGame,2022.1.1,59.79284171632573,
,22,넌 순진해,3,Orange,B,4.125,4.166666666666667,ScrollUp,ScrollDown,Orange.png,5,Neutral,Neutral,,,,,0,0,0,0,,,,,,,,,,,,,,,,,,,,,,,,,,,,,0,21,21,21,,,,,,,,,,,,,,,,,,,,,,,,,,,,,,,,,,,,,,,,,,,,,,,,,,,,,,,,,,,,,,,,,2,1.2595509000238962,735.7851278000162,None,ScrollUp,정답입니다,735.7851278000162,None,735.7851278000162,None,735.7851278000162,None,735.7851278000162,None,736.9475143000018,None,736.9475143000018,737.4496875000186,,,,,,,,,,,,,,,,024,2022-05-19_10h59.35.722,FishGame,2022.1.1,59.79284171632573,
,23,넌 신뢰할만해,1,Green,A,6.625,5.533333333333333,ScrollDown,ScrollUp,Green.png,5,Positive,Congruent,,,,,0,0,0,0,,,,,,,,,,,,,,,,,,,,,,,,,,,,,0,22,22,22,,,,,,,,,,,,,,,,,,,,,,,,,,,,,,,,,,,,,,,,,,,,,,,,,,,,,,,,,,,,,,,,,1,1.0589235000079498,738.0744452000363,None,ScrollDown,정답입니다,738.0744452000363,None,738.0744452000363,None,738.0744452000363,None,738.0744452000363,None,739.0307488000253,None,739.0307488000253,739.5329598999815,,,,,,,,,,,,,,,,024,2022-05-19_10h59.35.722,FishGame,2022.1.1,59.79284171632573,
,24,나를 보내줘,6,Green,A,0,0,ScrollUp,ScrollDown,Green.png,5,NonTarget,NonTarget,,,,,0,0,0,0,,,,,,,,,,,,,,,,,,,,,,,,,,,,,0,23,23,23,,,,,,,,,,,,,,,,,,,,,,,,,,,,,,,,,,,,,,,,,,,,,,,,,,,,,,,,,,,,,,,,,2,1.1944078999804333,740.1529151999857,None,ScrollUp,정답입니다,740.1529151999857,None,740.1529151999857,None,740.1529151999857,None,740.1529151999857,None,741.2474583000294,None,741.2474583000294,741.7496507000178,,,,,,,,,,,,,,,,024,2022-05-19_10h59.35.722,FishGame,2022.1.1,59.79284171632573,
,25,넌 인색해,5,Green,A,2.625,2.233333333333333,ScrollDown,ScrollUp,Green.png,5,Negative,Incongruent,,,,,0,0,0,0,,,,,,,,,,,,,,,,,,,,,,,,,,,,,0,24,24,24,,,,,,,,,,,,,,,,,,,,,,,,,,,,,,,,,,,,,,,,,,,,,,,,,,,,,,,,,,,,,,,,,1,1.4775013999897055,742.3694735000026,None,ScrollDown,정답입니다,742.3694735000026,None,742.3694735000026,None,742.3694735000026,None,742.3694735000026,None,743.7471078999806,None,743.7471078999806,744.2471866999986,,,,,,,,,,,,,,,,024,2022-05-19_10h59.35.722,FishGame,2022.1.1,59.79284171632573,
,26,넌 유쾌해,1,Orange,B,5.833333333333333,5.766666666666667,ScrollUp,ScrollDown,Orange.png,5,Positive,Incongruent,,,,,0,0,0,0,,,,,,,,,,,,,,,,,,,,,,,,,,,,,0,25,25,25,,,,,,,,,,,,,,,,,,,,,,,,,,,,,,,,,,,,,,,,,,,,,,,,,,,,,,,,,,,,,,,,,2,1.2111353000509553,744.8658801999991,None,ScrollUp,정답입니다,744.8658801999991,None,744.8658801999991,None,744.8658801999991,None,744.8658801999991,None,745.9804786000168,None,745.9804786000168,746.4829985999968,,,,,,,,,,,,,,,,024,2022-05-19_10h59.35.722,FishGame,2022.1.1,59.79284171632573,
,27,나를 보내줘,6,Green,A,0,0,ScrollUp,ScrollDown,Green.png,5,NonTarget,NonTarget,,,,,0,0,0,0,,,,,,,,,,,,,,,,,,,,,,,,,,,,,0,26,26,26,,,,,,,,,,,,,,,,,,,,,,,,,,,,,,,,,,,,,,,,,,,,,,,,,,,,,,,,,,,,,,,,,2,1.1283885999582708,747.1017801000271,None,ScrollUp,정답입니다,747.1017801000271,None,747.1017801000271,None,747.1017801000271,None,747.1017801000271,None,748.1330629999866,None,748.1330629999866,748.6494638000149,,,,,,,,,,,,,,,,024,2022-05-19_10h59.35.722,FishGame,2022.1.1,59.79284171632573,
