name,TrialNum,Word,WordCategory,FishType,WordList,WordValence,WordReputation,CorrectResp,IncorrectResp,FishTypeFile,Round,WordType,Condition,LoopforOrange.thisRepN,LoopforOrange.thisTrialN,LoopforOrange.thisN,LoopforOrange.thisIndex,OrangeInstLoop.thisRepN,OrangeInstLoop.thisTrialN,OrangeInstLoop.thisN,OrangeInstLoop.thisIndex,OrangePrac.thisRepN,OrangePrac.thisTrialN,OrangePrac.thisN,OrangePrac.thisIndex,temp1.thisRepN,temp1.thisTrialN,temp1.thisN,temp1.thisIndex,OrangeRound1.thisRepN,OrangeRound1.thisTrialN,OrangeRound1.thisN,OrangeRound1.thisIndex,OrangeRound2.thisRepN,OrangeRound2.thisTrialN,OrangeRound2.thisN,OrangeRound2.thisIndex,OrangeRound3.thisRepN,OrangeRound3.thisTrialN,OrangeRound3.thisN,OrangeRound3.thisIndex,OrangeRound4.thisRepN,OrangeRound4.thisTrialN,OrangeRound4.thisN,OrangeRound4.thisIndex,OrangeRound5.thisRepN,OrangeRound5.thisTrialN,OrangeRound5.thisN,OrangeRound5.thisIndex,LoopForGreen.thisRepN,LoopForGreen.thisTrialN,LoopForGreen.thisN,LoopForGreen.thisIndex,text_2.started,text_2.stopped,text_3.started,text_3.stopped,key_resp.keys,key_resp.rt,key_resp.started,key_resp.stopped,PassI_2.started,PassI_2.stopped,PassInst_2.keys,PassInst_2.rt,PassInst_2.started,PassInst_2.stopped,mouse_2.x,mouse_2.y,mouse_2.leftButton,mouse_2.midButton,mouse_2.rightButton,mouse_2.started,mouse_2.stopped,image.started,image.stopped,text_5.started,text_5.stopped,text_6.started,text_6.stopped,text_7.started,text_7.stopped,text_8.started,text_8.stopped,slider_2.response,slider_2.rt,slider_2.started,slider_2.stopped,Response_2,Feedback_2,BackGround_2.started,BackGround_2.stopped,Fish_2.started,Fish_2.stopped,WordBox_2.started,WordBox_2.stopped,Words_2.started,Words_2.stopped,BackGround_Feedback_2.started,BackGround_Feedback_2.stopped,Feedbacks_2.started,Feedbacks_2.stopped,Continue_or_not.keys,Continue_or_not.rt,Continue_or_not.started,Continue_or_not.stopped,image_3.started,image_3.stopped,mouse_3.x,mouse_3.y,mouse_3.leftButton,mouse_3.midButton,mouse_3.rightButton,mouse_3.started,mouse_3.stopped,startmain.started,startmain.stopped,slider.response,slider.rt,slider.started,slider.stopped,Response,Feedback,BackGround.started,BackGround.stopped,Fish.started,Fish.stopped,WordBox.started,WordBox.stopped,Words.started,Words.stopped,BackGround_Feedback.started,BackGround_Feedback.stopped,Feedbacks.started,Feedbacks.stopped,text.started,text.stopped,break_interval.started,break_interval.stopped,mouse.x,mouse.y,mouse.leftButton,mouse.midButton,mouse.rightButton,mouse.started,mouse.stopped,stratnextround.started,stratnextround.stopped,endgame.started,endgame.stopped,participant,date,expName,psychopyVersion,frameRate,
,,,,,,,,,,,,,,,,,,,,,,,,,,,,,,,,,,,,,,,,,,,,,,,,,,,,,,16.92252630001167,None,16.92252630001167,None,space,0.419065399968531,17.40227959997719,None,,,,,,,,,,,,,,,,,,,,,,,,,,,,,,,,,,,,,,,,,,,,,,,,,,,,,,,,,,,,,,,,,,,,,,,,,,,,,,,,,,,,,,,,,,025,2022-05-19_14h04.08.361,FishGame,2022.1.1,60.19491112074511,
물고기과제_instruction(참가자용)OrangeVersion.mp4,,,,,,,,,,,,,,0,0,0,0,0,0,0,0,,,,,,,,,,,,,,,,,,,,,,,,,,,,,,,,,,,,,,,,,103.54736979998415,None,n,1.514158099947963,103.54736979998415,None,,,,,,,,,,,,,,,,,,,,,,,,,,,,,,,,,,,,,,,,,,,,,,,,,,,,,,,,,,,,,,,,,,,,,,,,,,,,,,,,,,,,025,2022-05-19_14h04.08.361,FishGame,2022.1.1,60.19491112074511,
,1,넌 교활해,5,Green,B,2.333333333333333,2.133333333333333,ScrollUp,ScrollDown,Green.png,practice,,,0,0,0,0,,,,,0,0,0,0,0,0,0,0,,,,,,,,,,,,,,,,,,,,,,,,,,,,,,,,,,,,,,,-0.037962962,-0.24537037,1,0,0,0.5122972199460492,None,105.07828110002447,None,110.29482660000212,111.79713550000452,111.83044520003023,112.78046280000126,112.82813879998866,113.78355659998488,113.78355659998488,None,1.6898148159186044,2.1898326000082307,115.08101570000872,None,ScrollUp,정답입니다,115.08101570000872,None,115.08101570000872,None,115.08101570000872,None,115.08101570000872,None,116.97775299998466,None,116.97775299998466,117.47780709998915,,,,,,,,,,,,,,,,,,,,,,,,,,,,,,,,,,,,,,,,,,,,,,,,,025,2022-05-19_14h04.08.361,FishGame,2022.1.1,60.19491112074511,
,2,넌 슬기로워,2,Orange,A,6.166666666666667,4.1,ScrollDown,ScrollUp,Orange.png,practice,,,0,0,0,0,,,,,0,0,0,0,0,1,1,1,,,,,,,,,,,,,,,,,,,,,,,,,,,,,,,,,,,,,,,,,,,,,,,,,,,,,,,,1.0262345671653748,1.280369599990081,118.09686410002178,None,ScrollDown,정답입니다,118.09686410002178,None,118.09686410002178,None,118.09686410002178,None,118.09686410002178,None,119.28035010001622,None,119.28035010001622,119.78033019998111,,,,,,,,,,,,,,,,,,,,,,,,,,,,,,,,,,,,,,,,,,,,,,,,,025,2022-05-19_14h04.08.361,FishGame,2022.1.1,60.19491112074511,
,3,나를 보내줘,6,Orange,A,0,0,ScrollUp,ScrollDown,Orange.png,practice,,,0,0,0,0,,,,,0,0,0,0,0,2,2,2,,,,,,,,,,,,,,,,,,,,,,,,,,,,,,,,,,,,,,,,,,,,,,,,,,,,,,,,1.7376543233791986,1.2808764000074007,120.39816109999083,None,ScrollUp,정답입니다,120.39816109999083,None,120.39816109999083,None,120.39816109999083,None,120.39816109999083,None,121.58027640002547,None,121.58027640002547,122.07783770002425,,,,,,,,,,,,,,,,,,,,,,,,,,,,,,,,,,,,,,,,,,,,,,,,,025,2022-05-19_14h04.08.361,FishGame,2022.1.1,60.19491112074511,
,4,나를 데려가줘,6,Green,B,0,0,ScrollDown,ScrollUp,Green.png,practice,,,0,0,0,0,,,,,0,0,0,0,0,3,3,3,,,,,,,,,,,,,,,,,,,,,,,,,,,,,,,,,,,,,,,,,,,,,,,,,,,,,,,,1,2.2257629000232555,122.6990079000243,None,ScrollDown,정답입니다,122.6990079000243,None,122.6990079000243,None,122.6990079000243,None,122.6990079000243,None,124.82790730003035,None,124.82790730003035,125.32998979999684,,,,,,,,,,,,,,,,,,,,,,,,,,,,,,,,,,,,,,,,,,,,,,,,,025,2022-05-19_14h04.08.361,FishGame,2022.1.1,60.19491112074511,
,1,넌 교활해,5,Green,B,2.333333333333333,2.133333333333333,ScrollUp,ScrollDown,Green.png,practice,,,0,0,0,0,,,,,0,0,0,0,,,,,,,,,,,,,,,,,,,,,,,,,,,,,,,,,,,,,,,,,,,,,,,,,,,,,,,,,,,,,,,,,,,,,,,,,,,,,,n,5.271236700005829,125.83059359999606,None,125.83059359999606,None,,,,,,,,,,,,,,,,,,,,,,,,,,,,,,,,,,,,,,,,,,,025,2022-05-19_14h04.08.361,FishGame,2022.1.1,60.19491112074511,
,1,넌 따뜻해,1,Green,B,6.083333333333333,5.6,ScrollUp,ScrollDown,Green.png,1,Positive,Incongruent,0,0,0,0,,,,,,,,,,,,,0,0,0,0,,,,,,,,,,,,,,,,,,,,,,,,,,,,,,,,,,,,,,,,,,,,132.24454290000722,133.74672290001763,133.78013289999217,134.73005180002656,134.78004729998065,135.7300421000109,135.7300421000109,None,,,,,,,,,,,,,,,,,,,,,,,,,-0.14166667,-0.11666667,1,0,0,0.31589801993686706,None,131.1277769000153,None,1.6851851865649223,2.5095625999965705,137.0336545999744,None,ScrollUp,정답입니다,137.0336545999744,None,137.0336545999744,None,137.0336545999744,None,137.0336545999744,None,139.24396330001764,None,139.24396330001764,139.7440143999993,,,,,,,,,,,,,,,,025,2022-05-19_14h04.08.361,FishGame,2022.1.1,60.19491112074511,
,2,넌 기품있어,2,Green,B,5.791666666666668,4.5,ScrollUp,ScrollDown,Green.png,1,Positive,Incongruent,0,0,0,0,,,,,,,,,,,,,0,1,1,1,,,,,,,,,,,,,,,,,,,,,,,,,,,,,,,,,,,,,,,,,,,,,,,,,,,,,,,,,,,,,,,,,,,,,,,,,,,,,,,,,,,,,1.7978395173947017,1.2443220000131987,140.37034359999234,None,ScrollUp,정답입니다,140.37034359999234,None,140.37034359999234,None,140.37034359999234,None,140.37034359999234,None,141.51062259997707,None,141.51062259997707,142.01320210000267,,,,,,,,,,,,,,,,025,2022-05-19_14h04.08.361,FishGame,2022.1.1,60.19491112074511,
,3,나를 보내줘,6,Orange,A,0,0,ScrollUp,ScrollDown,Orange.png,1,NonTarget,NonTarget,0,0,0,0,,,,,,,,,,,,,0,2,2,2,,,,,,,,,,,,,,,,,,,,,,,,,,,,,,,,,,,,,,,,,,,,,,,,,,,,,,,,,,,,,,,,,,,,,,,,,,,,,,,,,,,,,1.7391975373029709,1.4747265999903902,142.6398681999999,None,ScrollUp,정답입니다,142.6398681999999,None,142.6398681999999,None,142.6398681999999,None,142.6398681999999,None,144.006133900024,None,144.006133900024,144.51299150002887,,,,,,,,,,,,,,,,025,2022-05-19_14h04.08.361,FishGame,2022.1.1,60.19491112074511,
,4,넌 수동적이야,4,Orange,A,2.833333333333333,2.933333333333333,ScrollDown,ScrollUp,Orange.png,1,Negative,Incongruent,0,0,0,0,,,,,,,,,,,,,0,3,3,3,,,,,,,,,,,,,,,,,,,,,,,,,,,,,,,,,,,,,,,,,,,,,,,,,,,,,,,,,,,,,,,,,,,,,,,,,,,,,,,,,,,,,1,1.2772253000293858,145.13738710002508,None,ScrollDown,정답입니다,145.13738710002508,None,145.13738710002508,None,145.13738710002508,None,145.13738710002508,None,146.31077049998567,None,146.31077049998567,146.81293349998305,,,,,,,,,,,,,,,,025,2022-05-19_14h04.08.361,FishGame,2022.1.1,60.19491112074511,
,5,넌 사심이 없어,3,Green,B,4.916666666666666,4.333333333333333,ScrollUp,ScrollDown,Green.png,1,Neutral,Neutral,0,0,0,0,,,,,,,,,,,,,0,4,4,4,,,,,,,,,,,,,,,,,,,,,,,,,,,,,,,,,,,,,,,,,,,,,,,,,,,,,,,,,,,,,,,,,,,,,,,,,,,,,,,,,,,,,1.8425925970077515,1.5920198000385426,147.43861800001469,None,ScrollUp,정답입니다,147.43861800001469,None,147.43861800001469,None,147.43861800001469,None,147.43861800001469,None,148.9270917000249,None,148.9270917000249,149.4271925999783,,,,,,,,,,,,,,,,025,2022-05-19_14h04.08.361,FishGame,2022.1.1,60.19491112074511,
,6,넌 헤퍼,5,Orange,A,2.458333333333334,2.233333333333333,ScrollDown,ScrollUp,Orange.png,1,Negative,Incongruent,0,0,0,0,,,,,,,,,,,,,0,5,5,5,,,,,,,,,,,,,,,,,,,,,,,,,,,,,,,,,,,,,,,,,,,,,,,,,,,,,,,,,,,,,,,,,,,,,,,,,,,,,,,,,,,,,1,1.4800467999884859,150.05439429997932,None,ScrollDown,정답입니다,150.05439429997932,None,150.05439429997932,None,150.05439429997932,None,150.05439429997932,None,151.4296968000126,None,151.4296968000126,151.92962960002478,,,,,,,,,,,,,,,,025,2022-05-19_14h04.08.361,FishGame,2022.1.1,60.19491112074511,
,7,넌 말쑥해,3,Orange,A,4.833333333333334,4.333333333333333,ScrollDown,ScrollUp,Orange.png,1,Neutral,Neutral,0,0,0,0,,,,,,,,,,,,,0,6,6,6,,,,,,,,,,,,,,,,,,,,,,,,,,,,,,,,,,,,,,,,,,,,,,,,,,,,,,,,,,,,,,,,,,,,,,,,,,,,,,,,,,,,,1,1.3105454000178725,152.55303730000742,None,ScrollDown,정답입니다,152.55303730000742,None,152.55303730000742,None,152.55303730000742,None,152.55303730000742,None,153.76293299999088,None,153.76293299999088,154.2662858000258,,,,,,,,,,,,,,,,025,2022-05-19_14h04.08.361,FishGame,2022.1.1,60.19491112074511,
,8,넌 투덜거려,5,Green,B,2.541666666666667,2.266666666666667,ScrollUp,ScrollDown,Green.png,1,Negative,Congruent,0,0,0,0,,,,,,,,,,,,,0,7,7,7,,,,,,,,,,,,,,,,,,,,,,,,,,,,,,,,,,,,,,,,,,,,,,,,,,,,,,,,,,,,,,,,,,,,,,,,,,,,,,,,,,,,,1.9552469154198964,2.177387700008694,154.9005179000087,None,ScrollUp,정답입니다,154.9005179000087,None,154.9005179000087,None,154.9005179000087,None,154.9005179000087,None,156.97706060000928,None,156.97706060000928,157.47952789999545,,,,,,,,,,,,,,,,025,2022-05-19_14h04.08.361,FishGame,2022.1.1,60.19491112074511,
,9,넌 적극적이야,1,Orange,A,5.708333333333333,5.533333333333333,ScrollDown,ScrollUp,Orange.png,1,Positive,Congruent,0,0,0,0,,,,,,,,,,,,,0,8,8,8,,,,,,,,,,,,,,,,,,,,,,,,,,,,,,,,,,,,,,,,,,,,,,,,,,,,,,,,,,,,,,,,,,,,,,,,,,,,,,,,,,,,,1,1.4780639000236988,158.10226329998113,None,ScrollDown,정답입니다,158.10226329998113,None,158.10226329998113,None,158.10226329998113,None,158.10226329998113,None,159.47710680001182,None,159.47710680001182,159.97716830001445,,,,,,,,,,,,,,,,025,2022-05-19_14h04.08.361,FishGame,2022.1.1,60.19491112074511,
,10,넌 재미없어,4,Green,B,2.625,2.966666666666667,ScrollUp,ScrollDown,Green.png,1,Negative,Congruent,0,0,0,0,,,,,,,,,,,,,0,9,9,9,,,,,,,,,,,,,,,,,,,,,,,,,,,,,,,,,,,,,,,,,,,,,,,,,,,,,,,,,,,,,,,,,,,,,,,,,,,,,,,,,,,,,2,1.694307400030084,160.59759050002322,None,ScrollUp,정답입니다,160.59759050002322,None,160.59759050002322,None,160.59759050002322,None,160.59759050002322,None,162.19598279998172,None,162.19598279998172,162.69598800002132,,,,,,,,,,,,,,,,025,2022-05-19_14h04.08.361,FishGame,2022.1.1,60.19491112074511,
,11,넌 명석해,2,Orange,A,5.875,4.033333333333333,ScrollDown,ScrollUp,Orange.png,1,Positive,Congruent,0,0,0,0,,,,,,,,,,,,,0,10,10,10,,,,,,,,,,,,,,,,,,,,,,,,,,,,,,,,,,,,,,,,,,,,,,,,,,,,,,,,,,,,,,,,,,,,,,,,,,,,,,,,,,,,,1,1.259116199973505,163.32561749999877,None,ScrollDown,정답입니다,163.32561749999877,None,163.32561749999877,None,163.32561749999877,None,163.32561749999877,None,164.4770434999955,None,164.4770434999955,164.97923609998543,,,,,,,,,,,,,,,,025,2022-05-19_14h04.08.361,FishGame,2022.1.1,60.19491112074511,
,12,나를 데려가줘,6,Green,B,0,0,ScrollDown,ScrollUp,Green.png,1,NonTarget,NonTarget,0,0,0,0,,,,,,,,,,,,,0,11,11,11,,,,,,,,,,,,,,,,,,,,,,,,,,,,,,,,,,,,,,,,,,,,,,,,,,,,,,,,,,,,,,,,,,,,,,,,,,,,,,,,,,,,,1,1.3269423000165261,165.6022020999808,None,ScrollDown,정답입니다,165.6022020999808,None,165.6022020999808,None,165.6022020999808,None,165.6022020999808,None,166.82670320000034,None,166.82670320000034,167.32678800000576,,,,,,,,,,,,,,,,025,2022-05-19_14h04.08.361,FishGame,2022.1.1,60.19491112074511,
,13,넌 소심해,4,Orange,A,3,3.1,ScrollDown,ScrollUp,Orange.png,1,Negative,Incongruent,0,0,0,0,,,,,,,,,,,,,0,12,12,12,,,,,,,,,,,,,,,,,,,,,,,,,,,,,,,,,,,,,,,,,,,,,,,,,,,,,,,,,,,,,,,,,,,,,,,,,,,,,,,,,,,,,1,1.2620721999555826,167.94730820000404,None,ScrollDown,정답입니다,167.94730820000404,None,167.94730820000404,None,167.94730820000404,None,167.94730820000404,None,169.11259580001934,None,169.11259580001934,169.61257920000935,,,,,,,,,,,,,,,,025,2022-05-19_14h04.08.361,FishGame,2022.1.1,60.19491112074511,
,14,넌 합리적이야,2,Orange,A,5.583333333333333,4.733333333333333,ScrollDown,ScrollUp,Orange.png,1,Positive,Congruent,0,0,0,0,,,,,,,,,,,,,0,13,13,13,,,,,,,,,,,,,,,,,,,,,,,,,,,,,,,,,,,,,,,,,,,,,,,,,,,,,,,,,,,,,,,,,,,,,,,,,,,,,,,,,,,,,1,1.8790103999781422,170.2328646000242,None,ScrollDown,정답입니다,170.2328646000242,None,170.2328646000242,None,170.2328646000242,None,170.2328646000242,None,172.01236499997322,None,172.01236499997322,172.51241580001079,,,,,,,,,,,,,,,,025,2022-05-19_14h04.08.361,FishGame,2022.1.1,60.19491112074511,
,15,넌 무자비해,5,Green,B,2.333333333333333,2.1,ScrollUp,ScrollDown,Green.png,1,Negative,Congruent,0,0,0,0,,,,,,,,,,,,,0,14,14,14,,,,,,,,,,,,,,,,,,,,,,,,,,,,,,,,,,,,,,,,,,,,,,,,,,,,,,,,,,,,,,,,,,,,,,,,,,,,,,,,,,,,,2,1.5102954000467435,173.13869330001762,None,ScrollUp,정답입니다,173.13869330001762,None,173.13869330001762,None,173.13869330001762,None,173.13869330001762,None,174.54323509999085,None,174.54323509999085,175.04328839998925,,,,,,,,,,,,,,,,025,2022-05-19_14h04.08.361,FishGame,2022.1.1,60.19491112074511,
,16,나를 보내줘,6,Orange,A,0,0,ScrollUp,ScrollDown,Orange.png,1,NonTarget,NonTarget,0,0,0,0,,,,,,,,,,,,,0,15,15,15,,,,,,,,,,,,,,,,,,,,,,,,,,,,,,,,,,,,,,,,,,,,,,,,,,,,,,,,,,,,,,,,,,,,,,,,,,,,,,,,,,,,,2,1.5613389000063762,175.66528429999016,None,ScrollUp,정답입니다,175.66528429999016,None,175.66528429999016,None,175.66528429999016,None,175.66528429999016,None,177.1291135000065,None,177.1291135000065,177.62908340001013,,,,,,,,,,,,,,,,025,2022-05-19_14h04.08.361,FishGame,2022.1.1,60.19491112074511,
,17,넌 현실적이야,3,Green,B,4.608695652173913,4.766666666666667,ScrollUp,ScrollDown,Green.png,1,Neutral,Neutral,0,0,0,0,,,,,,,,,,,,,0,16,16,16,,,,,,,,,,,,,,,,,,,,,,,,,,,,,,,,,,,,,,,,,,,,,,,,,,,,,,,,,,,,,,,,,,,,,,,,,,,,,,,,,,,,,2,1.8292767000384629,178.24682689999463,None,ScrollUp,정답입니다,178.24682689999463,None,178.24682689999463,None,178.24682689999463,None,178.24682689999463,None,179.97645910002757,None,179.97645910002757,180.4765801000176,,,,,,,,,,,,,,,,025,2022-05-19_14h04.08.361,FishGame,2022.1.1,60.19491112074511,
,18,넌 의리있어,1,Green,B,5.833333333333334,5.633333333333334,ScrollUp,ScrollDown,Green.png,1,Positive,Incongruent,0,0,0,0,,,,,,,,,,,,,0,17,17,17,,,,,,,,,,,,,,,,,,,,,,,,,,,,,,,,,,,,,,,,,,,,,,,,,,,,,,,,,,,,,,,,,,,,,,,,,,,,,,,,,,,,,2,1.28040200000396,181.0979454999906,None,ScrollUp,정답입니다,181.0979454999906,None,181.0979454999906,None,181.0979454999906,None,181.0979454999906,None,182.2790241999901,None,182.2790241999901,182.77900520002004,,,,,,,,,,,,,,,,025,2022-05-19_14h04.08.361,FishGame,2022.1.1,60.19491112074511,
,19,넌 신경과민이야,5,Orange,A,2.541666666666667,2.166666666666667,ScrollDown,ScrollUp,Orange.png,1,Negative,Incongruent,0,0,0,0,,,,,,,,,,,,,0,18,18,18,,,,,,,,,,,,,,,,,,,,,,,,,,,,,,,,,,,,,,,,,,,,,,,,,,,,,,,,,,,,,,,,,,,,,,,,,,,,,,,,,,,,,1,1.7457434000098146,183.40111949999118,None,ScrollDown,정답입니다,183.40111949999118,None,183.40111949999118,None,183.40111949999118,None,183.40111949999118,None,185.04327139997622,None,185.04327139997622,185.5454717000248,,,,,,,,,,,,,,,,025,2022-05-19_14h04.08.361,FishGame,2022.1.1,60.19491112074511,
,20,넌 편안해,1,Orange,A,5.916666666666666,5.866666666666666,ScrollDown,ScrollUp,Orange.png,1,Positive,Congruent,0,0,0,0,,,,,,,,,,,,,0,19,19,19,,,,,,,,,,,,,,,,,,,,,,,,,,,,,,,,,,,,,,,,,,,,,,,,,,,,,,,,,,,,,,,,,,,,,,,,,,,,,,,,,,,,,1,1.3589043999672867,186.17751270002918,None,ScrollDown,정답입니다,186.17751270002918,None,186.17751270002918,None,186.17751270002918,None,186.17751270002918,None,187.4287737000268,None,187.4287737000268,187.93196650000755,,,,,,,,,,,,,,,,025,2022-05-19_14h04.08.361,FishGame,2022.1.1,60.19491112074511,
,21,넌 품위있어,2,Green,B,5.291666666666666,4.466666666666667,ScrollUp,ScrollDown,Green.png,1,Positive,Incongruent,0,0,0,0,,,,,,,,,,,,,0,20,20,20,,,,,,,,,,,,,,,,,,,,,,,,,,,,,,,,,,,,,,,,,,,,,,,,,,,,,,,,,,,,,,,,,,,,,,,,,,,,,,,,,,,,,2,1.4594045999692753,188.56610709999222,None,ScrollUp,정답입니다,188.56610709999222,None,188.56610709999222,None,188.56610709999222,None,188.56610709999222,None,189.92651509999996,None,189.92651509999996,190.4266475000186,,,,,,,,,,,,,,,,025,2022-05-19_14h04.08.361,FishGame,2022.1.1,60.19491112074511,
,22,넌 빈틈없어,3,Orange,A,4.833333333333333,3.966666666666667,ScrollDown,ScrollUp,Orange.png,1,Neutral,Neutral,0,0,0,0,,,,,,,,,,,,,0,21,21,21,,,,,,,,,,,,,,,,,,,,,,,,,,,,,,,,,,,,,,,,,,,,,,,,,,,,,,,,,,,,,,,,,,,,,,,,,,,,,,,,,,,,,1,1.1942776999785565,191.05010579997906,None,ScrollDown,정답입니다,191.05010579997906,None,191.05010579997906,None,191.05010579997906,None,191.05010579997906,None,192.1431657000212,None,192.1431657000212,192.64547960000345,,,,,,,,,,,,,,,,025,2022-05-19_14h04.08.361,FishGame,2022.1.1,60.19491112074511,
,23,넌 상상력없어,4,Green,B,2.833333333333333,3.133333333333333,ScrollUp,ScrollDown,Green.png,1,Negative,Congruent,0,0,0,0,,,,,,,,,,,,,0,22,22,22,,,,,,,,,,,,,,,,,,,,,,,,,,,,,,,,,,,,,,,,,,,,,,,,,,,,,,,,,,,,,,,,,,,,,,,,,,,,,,,,,,,,,2,2.008982900006231,193.27063749998342,None,ScrollUp,정답입니다,193.27063749998342,None,193.27063749998342,None,193.27063749998342,None,193.27063749998342,None,195.17613320000237,None,195.17613320000237,195.67629410000518,,,,,,,,,,,,,,,,025,2022-05-19_14h04.08.361,FishGame,2022.1.1,60.19491112074511,
,24,넌 지혜로워,2,Green,B,6.333333333333334,4.633333333333334,ScrollUp,ScrollDown,Green.png,1,Positive,Incongruent,0,0,0,0,,,,,,,,,,,,,0,23,23,23,,,,,,,,,,,,,,,,,,,,,,,,,,,,,,,,,,,,,,,,,,,,,,,,,,,,,,,,,,,,,,,,,,,,,,,,,,,,,,,,,,,,,2,1.245641199988313,196.29858760000207,None,ScrollUp,정답입니다,196.29858760000207,None,196.29858760000207,None,196.29858760000207,None,196.29858760000207,None,197.44530030002352,None,197.44530030002352,197.9453023999813,,,,,,,,,,,,,,,,025,2022-05-19_14h04.08.361,FishGame,2022.1.1,60.19491112074511,
,25,넌 시끄러워,4,Orange,A,2.833333333333333,3.033333333333333,ScrollDown,ScrollUp,Orange.png,1,Negative,Incongruent,0,0,0,0,,,,,,,,,,,,,0,24,24,24,,,,,,,,,,,,,,,,,,,,,,,,,,,,,,,,,,,,,,,,,,,,,,,,,,,,,,,,,,,,,,,,,,,,,,,,,,,,,,,,,,,,,1,1.4929250000277534,198.57321160001447,None,ScrollDown,정답입니다,198.57321160001447,None,198.57321160001447,None,198.57321160001447,None,198.57321160001447,None,199.9617847999907,None,199.9617847999907,200.46179450000636,,,,,,,,,,,,,,,,025,2022-05-19_14h04.08.361,FishGame,2022.1.1,60.19491112074511,
,26,넌 만사태평이야,3,Green,B,4,4.333333333333333,ScrollUp,ScrollDown,Green.png,1,Neutral,Neutral,0,0,0,0,,,,,,,,,,,,,0,25,25,25,,,,,,,,,,,,,,,,,,,,,,,,,,,,,,,,,,,,,,,,,,,,,,,,,,,,,,,,,,,,,,,,,,,,,,,,,,,,,,,,,,,,,2,1.2098335000337102,201.0834302000003,None,ScrollUp,정답입니다,201.0834302000003,None,201.0834302000003,None,201.0834302000003,None,201.0834302000003,None,202.19287389999954,None,202.19287389999954,202.69295360002434,,,,,,,,,,,,,,,,025,2022-05-19_14h04.08.361,FishGame,2022.1.1,60.19491112074511,
,27,넌 붙임성있어,1,Orange,A,5.708333333333333,5.633333333333334,ScrollDown,ScrollUp,Orange.png,1,Positive,Congruent,0,0,0,0,,,,,,,,,,,,,0,26,26,26,,,,,,,,,,,,,,,,,,,,,,,,,,,,,,,,,,,,,,,,,,,,,,,,,,,,,,,,,,,,,,,,,,,,,,,,,,,,,,,,,,,,,1,1.0588463000021875,203.31928729999345,None,ScrollDown,정답입니다,203.31928729999345,None,203.31928729999345,None,203.31928729999345,None,203.31928729999345,None,204.27620780002326,None,204.27620780002326,204.77838420000626,,,,,,,,,,,,,,,,025,2022-05-19_14h04.08.361,FishGame,2022.1.1,60.19491112074511,
,28,넌 영리해,2,Orange,A,6,4.033333333333333,ScrollDown,ScrollUp,Orange.png,1,Positive,Congruent,0,0,0,0,,,,,,,,,,,,,0,27,27,27,,,,,,,,,,,,,,,,,,,,,,,,,,,,,,,,,,,,,,,,,,,,,,,,,,,,,,,,,,,,,,,,,,,,,,,,,,,,,,,,,,,,,1,0.9425525999977253,205.40106030000607,None,ScrollDown,정답입니다,205.40106030000607,None,205.40106030000607,None,205.40106030000607,None,205.40106030000607,None,206.24503500002902,None,206.24503500002902,206.745163900021,,,,,,,,,,,,,,,,025,2022-05-19_14h04.08.361,FishGame,2022.1.1,60.19491112074511,
,29,넌 열심이야,1,Green,B,6.041666666666667,5.833333333333333,ScrollUp,ScrollDown,Green.png,1,Positive,Incongruent,0,0,0,0,,,,,,,,,,,,,0,28,28,28,,,,,,,,,,,,,,,,,,,,,,,,,,,,,,,,,,,,,,,,,,,,,,,,,,,,,,,,,,,,,,,,,,,,,,,,,,,,,,,,,,,,,1.9876543084780376,1.093887499999255,207.3757401999901,None,ScrollUp,정답입니다,207.3757401999901,None,207.3757401999901,None,207.3757401999901,None,207.3757401999901,None,208.3594331999775,None,208.3594331999775,208.86158510000678,,,,,,,,,,,,,,,,025,2022-05-19_14h04.08.361,FishGame,2022.1.1,60.19491112074511,
,30,넌 인기없어,4,Green,B,3,3.3,ScrollUp,ScrollDown,Green.png,1,Negative,Congruent,0,0,0,0,,,,,,,,,,,,,0,29,29,29,,,,,,,,,,,,,,,,,,,,,,,,,,,,,,,,,,,,,,,,,,,,,,,,,,,,,,,,,,,,,,,,,,,,,,,,,,,,,,,,,,,,,2,1.043229800008703,209.48060670000268,None,ScrollUp,정답입니다,209.48060670000268,None,209.48060670000268,None,209.48060670000268,None,209.48060670000268,None,210.42824789998122,None,210.42824789998122,210.94498969998676,,,,,,,,,,,,,,,,025,2022-05-19_14h04.08.361,FishGame,2022.1.1,60.19491112074511,
,31,넌 익살스러워,3,Orange,A,4.708333333333334,4.833333333333333,ScrollDown,ScrollUp,Orange.png,1,Neutral,Neutral,0,0,0,0,,,,,,,,,,,,,0,30,30,30,,,,,,,,,,,,,,,,,,,,,,,,,,,,,,,,,,,,,,,,,,,,,,,,,,,,,,,,,,,,,,,,,,,,,,,,,,,,,,,,,,,,,1,0.9903386000078171,211.5528917000047,None,ScrollDown,정답입니다,211.5528917000047,None,211.5528917000047,None,211.5528917000047,None,211.5528917000047,None,212.43808210000861,None,212.43808210000861,212.9433053000248,,,,,,,,,,,,,,,,025,2022-05-19_14h04.08.361,FishGame,2022.1.1,60.19491112074511,
,32,넌 이기적이야,5,Green,B,2.291666666666667,2.333333333333333,ScrollUp,ScrollDown,Green.png,1,Negative,Congruent,0,0,0,0,,,,,,,,,,,,,0,31,31,31,,,,,,,,,,,,,,,,,,,,,,,,,,,,,,,,,,,,,,,,,,,,,,,,,,,,,,,,,,,,,,,,,,,,,,,,,,,,,,,,,,,,,2,1.145214100019075,213.56509170000209,None,ScrollUp,정답입니다,213.56509170000209,None,213.56509170000209,None,213.56509170000209,None,213.56509170000209,None,214.60934720002115,None,214.60934720002115,215.10938849998638,,,,,,,,,,,,,,,,025,2022-05-19_14h04.08.361,FishGame,2022.1.1,60.19491112074511,
,33,나를 데려가줘,6,Green,B,0,0,ScrollDown,ScrollUp,Green.png,1,NonTarget,NonTarget,0,0,0,0,,,,,,,,,,,,,0,32,32,32,,,,,,,,,,,,,,,,,,,,,,,,,,,,,,,,,,,,,,,,,,,,,,,,,,,,,,,,,,,,,,,,,,,,,,,,,,,,,,,,,,,,,1,1.7925164000480436,215.7309481999837,None,ScrollDown,정답입니다,215.7309481999837,None,215.7309481999837,None,215.7309481999837,None,215.7309481999837,None,217.42814119998366,None,217.42814119998366,217.9285662000184,,,,,,,,,,,,,,,,025,2022-05-19_14h04.08.361,FishGame,2022.1.1,60.19491112074511,
,34,넌 기회주의자야,5,Orange,A,2.875,2.133333333333333,ScrollDown,ScrollUp,Orange.png,1,Negative,Incongruent,0,0,0,0,,,,,,,,,,,,,0,33,33,33,,,,,,,,,,,,,,,,,,,,,,,,,,,,,,,,,,,,,,,,,,,,,,,,,,,,,,,,,,,,,,,,,,,,,,,,,,,,,,,,,,,,,1,2.092118999978993,218.55519310000818,None,ScrollDown,정답입니다,218.55519310000818,None,218.55519310000818,None,218.55519310000818,None,218.55519310000818,None,220.5446941999835,None,220.5446941999835,221.04472960002022,,,,,,,,,,,,,,,,025,2022-05-19_14h04.08.361,FishGame,2022.1.1,60.19491112074511,
,1,넌 미성숙해,4,Orange,A,3,3.2,ScrollDown,ScrollUp,Orange.png,2,Negative,Incongruent,0,0,0,0,,,,,,,,,,,,,,,,,0,0,0,0,,,,,,,,,,,,,,,,,,,,,,,,,,,,,,,,,,,,,,,,253.35870889999205,254.86085040000034,254.89421340002446,255.86093399999663,255.8920943000121,256.84421690000454,256.84421690000454,None,,,,,,,,,,,,,,,,,,,,,,,,,,,,,,,,,,1,1.5293778000050224,257.953766599996,None,ScrollDown,정답입니다,257.953766599996,None,257.953766599996,None,257.953766599996,None,257.953766599996,None,259.37732999998843,None,259.37732999998843,259.8940440000151,221.54473419999704,None,221.54473419999704,None,-0.16111112,-0.106481485,1,0,0,0.01605952001409605,None,251.56068029999733,None,,,025,2022-05-19_14h04.08.361,FishGame,2022.1.1,60.19491112074511,
,2,넌 반사회적이야,5,Green,B,2.416666666666667,2.033333333333333,ScrollUp,ScrollDown,Green.png,2,Negative,Congruent,0,0,0,0,,,,,,,,,,,,,,,,,0,1,1,1,,,,,,,,,,,,,,,,,,,,,,,,,,,,,,,,,,,,,,,,,,,,,,,,,,,,,,,,,,,,,,,,,,,,,,,,,,,,,,,,,1.8425925970077515,1.2447842999827117,260.51162210002076,None,ScrollUp,정답입니다,260.51162210002076,None,260.51162210002076,None,260.51162210002076,None,260.51162210002076,None,261.6583735999884,None,261.6583735999884,262.1605638000183,,,,,,,,,,,,,,,,025,2022-05-19_14h04.08.361,FishGame,2022.1.1,60.19491112074511,
,3,넌 유능해,2,Orange,A,6.208333333333333,4.433333333333334,ScrollDown,ScrollUp,Orange.png,2,Positive,Congruent,0,0,0,0,,,,,,,,,,,,,,,,,0,2,2,2,,,,,,,,,,,,,,,,,,,,,,,,,,,,,,,,,,,,,,,,,,,,,,,,,,,,,,,,,,,,,,,,,,,,,,,,,,,,,,,,,1,1.0091314000310376,262.78732110001147,None,ScrollDown,정답입니다,262.78732110001147,None,262.78732110001147,None,262.78732110001147,None,262.78732110001147,None,263.6938741999911,None,263.6938741999911,264.19388139998773,,,,,,,,,,,,,,,,025,2022-05-19_14h04.08.361,FishGame,2022.1.1,60.19491112074511,
,4,넌 능숙해,2,Green,B,5.666666666666667,4.733333333333333,ScrollUp,ScrollDown,Green.png,2,Positive,Incongruent,0,0,0,0,,,,,,,,,,,,,,,,,0,3,3,3,,,,,,,,,,,,,,,,,,,,,,,,,,,,,,,,,,,,,,,,,,,,,,,,,,,,,,,,,,,,,,,,,,,,,,,,,,,,,,,,,1.9290123283863068,1.0756411000038497,264.8170042000129,None,ScrollUp,정답입니다,264.8170042000129,None,264.8170042000129,None,264.8170042000129,None,264.8170042000129,None,265.7916480000131,None,265.7916480000131,266.2937944000005,,,,,,,,,,,,,,,,025,2022-05-19_14h04.08.361,FishGame,2022.1.1,60.19491112074511,
,5,넌 진부해,4,Green,B,2.458333333333333,3.166666666666667,ScrollUp,ScrollDown,Green.png,2,Negative,Congruent,0,0,0,0,,,,,,,,,,,,,,,,,0,4,4,4,,,,,,,,,,,,,,,,,,,,,,,,,,,,,,,,,,,,,,,,,,,,,,,,,,,,,,,,,,,,,,,,,,,,,,,,,,,,,,,,,1.9783950746059418,1.2585648999665864,266.9203548000078,None,ScrollUp,정답입니다,266.9203548000078,None,266.9203548000078,None,266.9203548000078,None,266.9203548000078,None,268.0746437999769,None,268.0746437999769,268.57471900002565,,,,,,,,,,,,,,,,025,2022-05-19_14h04.08.361,FishGame,2022.1.1,60.19491112074511,
,6,나를 보내줘,6,Orange,A,0,0,ScrollUp,ScrollDown,Orange.png,2,NonTarget,NonTarget,0,0,0,0,,,,,,,,,,,,,,,,,0,5,5,5,,,,,,,,,,,,,,,,,,,,,,,,,,,,,,,,,,,,,,,,,,,,,,,,,,,,,,,,,,,,,,,,,,,,,,,,,,,,,,,,,2,2.278294099960476,269.19455950002884,None,ScrollUp,정답입니다,269.19455950002884,None,269.19455950002884,None,269.19455950002884,None,269.19455950002884,None,271.3772095000022,None,271.3772095000022,271.877136999974,,,,,,,,,,,,,,,,025,2022-05-19_14h04.08.361,FishGame,2022.1.1,60.19491112074511,
,7,넌 엄격해,3,Orange,A,4.166666666666666,4.1,ScrollDown,ScrollUp,Orange.png,2,Neutral,Neutral,0,0,0,0,,,,,,,,,,,,,,,,,0,6,6,6,,,,,,,,,,,,,,,,,,,,,,,,,,,,,,,,,,,,,,,,,,,,,,,,,,,,,,,,,,,,,,,,,,,,,,,,,,,,,,,,,1,1.0762850000173785,272.4993234000285,None,ScrollDown,정답입니다,272.4993234000285,None,272.4993234000285,None,272.4993234000285,None,272.4993234000285,None,273.4748100999859,None,273.4748100999859,273.9770423999871,,,,,,,,,,,,,,,,025,2022-05-19_14h04.08.361,FishGame,2022.1.1,60.19491112074511,
,8,나를 보내줘,6,Orange,A,0,0,ScrollUp,ScrollDown,Orange.png,2,NonTarget,NonTarget,0,0,0,0,,,,,,,,,,,,,,,,,0,7,7,7,,,,,,,,,,,,,,,,,,,,,,,,,,,,,,,,,,,,,,,,,,,,,,,,,,,,,,,,,,,,,,,,,,,,,,,,,,,,,,,,,1.9506172736485798,1.3098200999666005,274.6000864999951,None,ScrollUp,정답입니다,274.6000864999951,None,274.6000864999951,None,274.6000864999951,None,274.6000864999951,None,275.8078118999838,None,275.8078118999838,276.30788209999446,,,,,,,,,,,,,,,,025,2022-05-19_14h04.08.361,FishGame,2022.1.1,60.19491112074511,
,9,넌 대담해,3,Green,B,4.875,4.866666666666666,ScrollUp,ScrollDown,Green.png,2,Neutral,Neutral,0,0,0,0,,,,,,,,,,,,,,,,,0,8,8,8,,,,,,,,,,,,,,,,,,,,,,,,,,,,,,,,,,,,,,,,,,,,,,,,,,,,,,,,,,,,,,,,,,,,,,,,,,,,,,,,,1.878086417913437,1.5449182000011206,276.9321956000058,None,ScrollUp,정답입니다,276.9321956000058,None,276.9321956000058,None,276.9321956000058,None,276.9321956000058,None,278.37700089998543,None,278.37700089998543,278.8770156999817,,,,,,,,,,,,,,,,025,2022-05-19_14h04.08.361,FishGame,2022.1.1,60.19491112074511,
,10,넌 꾸준해,1,Orange,A,5.916666666666668,5.8,ScrollDown,ScrollUp,Orange.png,2,Positive,Congruent,0,0,0,0,,,,,,,,,,,,,,,,,0,9,9,9,,,,,,,,,,,,,,,,,,,,,,,,,,,,,,,,,,,,,,,,,,,,,,,,,,,,,,,,,,,,,,,,,,,,,,,,,,,,,,,,,1,1.098279999976512,279.5003880999866,None,ScrollDown,정답입니다,279.5003880999866,None,279.5003880999866,None,279.5003880999866,None,279.5003880999866,None,280.49358319997555,None,280.49358319997555,280.99135660001775,,,,,,,,,,,,,,,,025,2022-05-19_14h04.08.361,FishGame,2022.1.1,60.19491112074511,
,11,나를 데려가줘,6,Green,B,0,0,ScrollDown,ScrollUp,Green.png,2,NonTarget,NonTarget,0,0,0,0,,,,,,,,,,,,,,,,,0,10,10,10,,,,,,,,,,,,,,,,,,,,,,,,,,,,,,,,,,,,,,,,,,,,,,,,,,,,,,,,,,,,,,,,,,,,,,,,,,,,,,,,,1,1.4252400000113994,281.6151704000076,None,ScrollDown,정답입니다,281.6151704000076,None,281.6151704000076,None,281.6151704000076,None,281.6151704000076,None,282.94123509997735,None,282.94123509997735,283.4413009000127,,,,,,,,,,,,,,,,025,2022-05-19_14h04.08.361,FishGame,2022.1.1,60.19491112074511,
,12,넌 독선적이야,5,Orange,A,2.458333333333333,1.933333333333333,ScrollDown,ScrollUp,Orange.png,2,Negative,Incongruent,0,0,0,0,,,,,,,,,,,,,,,,,0,11,11,11,,,,,,,,,,,,,,,,,,,,,,,,,,,,,,,,,,,,,,,,,,,,,,,,,,,,,,,,,,,,,,,,,,,,,,,,,,,,,,,,,1,1.0605714000412263,284.06535980000626,None,ScrollDown,정답입니다,284.06535980000626,None,284.06535980000626,None,284.06535980000626,None,284.06535980000626,None,285.02457399998093,None,285.02457399998093,285.5268606999889,,,,,,,,,,,,,,,,025,2022-05-19_14h04.08.361,FishGame,2022.1.1,60.19491112074511,
,13,나를 보내줘,6,Orange,A,0,0,ScrollUp,ScrollDown,Orange.png,2,NonTarget,NonTarget,0,0,0,0,,,,,,,,,,,,,,,,,0,12,12,12,,,,,,,,,,,,,,,,,,,,,,,,,,,,,,,,,,,,,,,,,,,,,,,,,,,,,,,,,,,,,,,,,,,,,,,,,,,,,,,,,1.9274691144625347,1.1268216999596916,286.1498438999988,None,ScrollUp,정답입니다,286.1498438999988,None,286.1498438999988,None,286.1498438999988,None,286.1498438999988,None,287.174491200014,None,287.174491200014,287.6766368999961,,,,,,,,,,,,,,,,025,2022-05-19_14h04.08.361,FishGame,2022.1.1,60.19491112074511,
,14,넌 책임감있어,1,Green,B,6.347826086956522,6,ScrollUp,ScrollDown,Green.png,2,Positive,Incongruent,0,0,0,0,,,,,,,,,,,,,,,,,0,13,13,13,,,,,,,,,,,,,,,,,,,,,,,,,,,,,,,,,,,,,,,,,,,,,,,,,,,,,,,,,,,,,,,,,,,,,,,,,,,,,,,,,1.9336419701576233,1.4091510999714956,288.3016427999828,None,ScrollUp,정답입니다,288.3016427999828,None,288.3016427999828,None,288.3016427999828,None,288.3016427999828,None,289.61002249998273,None,289.61002249998273,290.11006949999137,,,,,,,,,,,,,,,,025,2022-05-19_14h04.08.361,FishGame,2022.1.1,60.19491112074511,
,15,넌 문학적이야,3,Orange,A,4.708333333333334,4.333333333333333,ScrollDown,ScrollUp,Orange.png,2,Neutral,Neutral,0,0,0,0,,,,,,,,,,,,,,,,,0,14,14,14,,,,,,,,,,,,,,,,,,,,,,,,,,,,,,,,,,,,,,,,,,,,,,,,,,,,,,,,,,,,,,,,,,,,,,,,,,,,,,,,,1,1.1425221999525093,290.7380353999906,None,ScrollDown,정답입니다,290.7380353999906,None,290.7380353999906,None,290.7380353999906,None,290.7380353999906,None,291.77414220001083,None,291.77414220001083,292.2742287000292,,,,,,,,,,,,,,,,025,2022-05-19_14h04.08.361,FishGame,2022.1.1,60.19491112074511,
,16,넌 재미있어,1,Green,B,5.875,5.7,ScrollUp,ScrollDown,Green.png,2,Positive,Incongruent,0,0,0,0,,,,,,,,,,,,,,,,,0,15,15,15,,,,,,,,,,,,,,,,,,,,,,,,,,,,,,,,,,,,,,,,,,,,,,,,,,,,,,,,,,,,,,,,,,,,,,,,,,,,,,,,,1.9629629850387573,1.2784502999857068,292.89172080002027,None,ScrollUp,정답입니다,292.89172080002027,None,292.89172080002027,None,292.89172080002027,None,292.89172080002027,None,294.07669830002123,None,294.07669830002123,294.5769871000084,,,,,,,,,,,,,,,,025,2022-05-19_14h04.08.361,FishGame,2022.1.1,60.19491112074511,
,17,나를 데려가줘,6,Green,B,0,0,ScrollDown,ScrollUp,Green.png,2,NonTarget,NonTarget,0,0,0,0,,,,,,,,,,,,,,,,,0,16,16,16,,,,,,,,,,,,,,,,,,,,,,,,,,,,,,,,,,,,,,,,,,,,,,,,,,,,,,,,,,,,,,,,,,,,,,,,,,,,,,,,,1,1.1456983999814838,295.19070129998727,None,ScrollDown,정답입니다,295.19070129998727,None,295.19070129998727,None,295.19070129998727,None,295.19070129998727,None,296.24098040000536,None,296.24098040000536,296.74109889997635,,,,,,,,,,,,,,,,025,2022-05-19_14h04.08.361,FishGame,2022.1.1,60.19491112074511,
,18,넌 협력적이야,1,Orange,A,5.625,5.633333333333334,ScrollDown,ScrollUp,Orange.png,2,Positive,Congruent,0,0,0,0,,,,,,,,,,,,,,,,,0,17,17,17,,,,,,,,,,,,,,,,,,,,,,,,,,,,,,,,,,,,,,,,,,,,,,,,,,,,,,,,,,,,,,,,,,,,,,,,,,,,,,,,,1,1.1090909999911673,297.3726760999998,None,ScrollDown,정답입니다,297.3726760999998,None,297.3726760999998,None,297.3726760999998,None,297.3726760999998,None,298.37645470001735,None,298.37645470001735,298.8764696000144,,,,,,,,,,,,,,,,025,2022-05-19_14h04.08.361,FishGame,2022.1.1,60.19491112074511,
,19,넌 평범해,3,Green,B,4.333333333333332,4.233333333333333,ScrollUp,ScrollDown,Green.png,2,Neutral,Neutral,0,0,0,0,,,,,,,,,,,,,,,,,0,18,18,18,,,,,,,,,,,,,,,,,,,,,,,,,,,,,,,,,,,,,,,,,,,,,,,,,,,,,,,,,,,,,,,,,,,,,,,,,,,,,,,,,1.9691357910633087,1.1273511999752373,299.495041200018,None,ScrollUp,정답입니다,299.495041200018,None,299.495041200018,None,299.495041200018,None,299.495041200018,None,300.5264683000278,None,300.5264683000278,301.0242657000199,,,,,,,,,,,,,,,,025,2022-05-19_14h04.08.361,FishGame,2022.1.1,60.19491112074511,
,20,넌 오만해,5,Orange,A,2.333333333333333,2,ScrollDown,ScrollUp,Orange.png,2,Negative,Incongruent,0,0,0,0,,,,,,,,,,,,,,,,,0,19,19,19,,,,,,,,,,,,,,,,,,,,,,,,,,,,,,,,,,,,,,,,,,,,,,,,,,,,,,,,,,,,,,,,,,,,,,,,,,,,,,,,,1,1.0279643000103533,301.66614200000186,None,ScrollDown,정답입니다,301.66614200000186,None,301.66614200000186,None,301.66614200000186,None,301.66614200000186,None,302.59082500002114,None,302.59082500002114,303.0930698000011,,,,,,,,,,,,,,,,025,2022-05-19_14h04.08.361,FishGame,2022.1.1,60.19491112074511,
,21,넌 운이없어,4,Green,B,3,3.466666666666667,ScrollUp,ScrollDown,Green.png,2,Negative,Congruent,0,0,0,0,,,,,,,,,,,,,,,,,0,20,20,20,,,,,,,,,,,,,,,,,,,,,,,,,,,,,,,,,,,,,,,,,,,,,,,,,,,,,,,,,,,,,,,,,,,,,,,,,,,,,,,,,2,1.1257805000059307,303.7184409999754,None,ScrollUp,정답입니다,303.7184409999754,None,303.7184409999754,None,303.7184409999754,None,303.7184409999754,None,304.7430069000111,None,304.7430069000111,305.24073439999484,,,,,,,,,,,,,,,,025,2022-05-19_14h04.08.361,FishGame,2022.1.1,60.19491112074511,
,22,넌 창조적이야,2,Green,B,6.125,4.633333333333334,ScrollUp,ScrollDown,Green.png,2,Positive,Incongruent,0,0,0,0,,,,,,,,,,,,,,,,,0,21,21,21,,,,,,,,,,,,,,,,,,,,,,,,,,,,,,,,,,,,,,,,,,,,,,,,,,,,,,,,,,,,,,,,,,,,,,,,,,,,,,,,,1.8888888905445735,1.1417762000346556,305.87889649998397,None,ScrollUp,정답입니다,305.87889649998397,None,305.87889649998397,None,305.87889649998397,None,305.87889649998397,None,306.9071722999797,None,306.9071722999797,307.407251800003,,,,,,,,,,,,,,,,025,2022-05-19_14h04.08.361,FishGame,2022.1.1,60.19491112074511,
,23,나를 보내줘,6,Orange,A,0,0,ScrollUp,ScrollDown,Orange.png,2,NonTarget,NonTarget,0,0,0,0,,,,,,,,,,,,,,,,,0,22,22,22,,,,,,,,,,,,,,,,,,,,,,,,,,,,,,,,,,,,,,,,,,,,,,,,,,,,,,,,,,,,,,,,,,,,,,,,,,,,,,,,,2,1.346839900012128,308.027771699999,None,ScrollUp,정답입니다,308.027771699999,None,308.027771699999,None,308.027771699999,None,308.027771699999,None,309.2763974000118,None,309.2763974000118,309.7763110999949,,,,,,,,,,,,,,,,025,2022-05-19_14h04.08.361,FishGame,2022.1.1,60.19491112074511,
,24,넌 통찰력있어,2,Orange,A,6.5,4.8,ScrollDown,ScrollUp,Orange.png,2,Positive,Congruent,0,0,0,0,,,,,,,,,,,,,,,,,0,23,23,23,,,,,,,,,,,,,,,,,,,,,,,,,,,,,,,,,,,,,,,,,,,,,,,,,,,,,,,,,,,,,,,,,,,,,,,,,,,,,,,,,1,1.0292559000081383,310.39606739999726,None,ScrollDown,정답입니다,310.39606739999726,None,310.39606739999726,None,310.39606739999726,None,310.39606739999726,None,311.32402409997303,None,311.32402409997303,311.82453739998164,,,,,,,,,,,,,,,,025,2022-05-19_14h04.08.361,FishGame,2022.1.1,60.19491112074511,
,25,넌 경솔해,5,Green,B,2.458333333333333,2.266666666666667,ScrollUp,ScrollDown,Green.png,2,Negative,Congruent,0,0,0,0,,,,,,,,,,,,,,,,,0,24,24,24,,,,,,,,,,,,,,,,,,,,,,,,,,,,,,,,,,,,,,,,,,,,,,,,,,,,,,,,,,,,,,,,,,,,,,,,,,,,,,,,,1.9459876318772633,1.0761274000396952,312.4487217999995,None,ScrollUp,정답입니다,312.4487217999995,None,312.4487217999995,None,312.4487217999995,None,312.4487217999995,None,313.42430509999394,None,313.42430509999394,313.92618599999696,,,,,,,,,,,,,,,,025,2022-05-19_14h04.08.361,FishGame,2022.1.1,60.19491112074511,
,26,넌 초조해,4,Orange,A,2.916666666666667,3.133333333333333,ScrollDown,ScrollUp,Orange.png,2,Negative,Incongruent,0,0,0,0,,,,,,,,,,,,,,,,,0,25,25,25,,,,,,,,,,,,,,,,,,,,,,,,,,,,,,,,,,,,,,,,,,,,,,,,,,,,,,,,,,,,,,,,,,,,,,,,,,,,,,,,,1,1.1757571000489406,314.5539532999974,None,ScrollDown,정답입니다,314.5539532999974,None,314.5539532999974,None,314.5539532999974,None,314.5539532999974,None,315.6239071000018,None,315.6239071000018,316.1260724000167,,,,,,,,,,,,,,,,025,2022-05-19_14h04.08.361,FishGame,2022.1.1,60.19491112074511,
,27,넌 무관심해,4,Green,B,2.833333333333333,2.9,ScrollUp,ScrollDown,Green.png,2,Negative,Congruent,0,0,0,0,,,,,,,,,,,,,,,,,0,26,26,26,,,,,,,,,,,,,,,,,,,,,,,,,,,,,,,,,,,,,,,,,,,,,,,,,,,,,,,,,,,,,,,,,,,,,,,,,,,,,,,,,1.9429012537002563,1.0928497000131756,316.7422514000209,None,ScrollUp,정답입니다,316.7422514000209,None,316.7422514000209,None,316.7422514000209,None,316.7422514000209,None,317.7404115999816,None,317.7404115999816,318.24272470001597,,,,,,,,,,,,,,,,025,2022-05-19_14h04.08.361,FishGame,2022.1.1,60.19491112074511,
,28,넌 감성적이야,3,Green,B,4.125,4.166666666666667,ScrollUp,ScrollDown,Green.png,2,Neutral,Neutral,0,0,0,0,,,,,,,,,,,,,,,,,0,27,27,27,,,,,,,,,,,,,,,,,,,,,,,,,,,,,,,,,,,,,,,,,,,,,,,,,,,,,,,,,,,,,,,,,,,,,,,,,,,,,,,,,1.9753086467583973,1.0103601000155322,318.85882530000526,None,ScrollUp,정답입니다,318.85882530000526,None,318.85882530000526,None,318.85882530000526,None,318.85882530000526,None,319.77388940000674,None,319.77388940000674,320.2739456000272,,,,,,,,,,,,,,,,025,2022-05-19_14h04.08.361,FishGame,2022.1.1,60.19491112074511,
,29,넌 배려심있어,1,Orange,A,6.083333333333333,5.5,ScrollDown,ScrollUp,Orange.png,2,Positive,Congruent,0,0,0,0,,,,,,,,,,,,,,,,,0,28,28,28,,,,,,,,,,,,,,,,,,,,,,,,,,,,,,,,,,,,,,,,,,,,,,,,,,,,,,,,,,,,,,,,,,,,,,,,,,,,,,,,,1,1.128089200006798,320.89831319998484,None,ScrollDown,정답입니다,320.89831319998484,None,320.89831319998484,None,320.89831319998484,None,320.89831319998484,None,321.9237510000239,None,321.9237510000239,322.42603029997554,,,,,,,,,,,,,,,,025,2022-05-19_14h04.08.361,FishGame,2022.1.1,60.19491112074511,
,30,넌 숨김없어,3,Orange,A,4.5,4.933333333333334,ScrollDown,ScrollUp,Orange.png,2,Neutral,Neutral,0,0,0,0,,,,,,,,,,,,,,,,,0,29,29,29,,,,,,,,,,,,,,,,,,,,,,,,,,,,,,,,,,,,,,,,,,,,,,,,,,,,,,,,,,,,,,,,,,,,,,,,,,,,,,,,,1,1.0597704999963753,323.0567778000259,None,ScrollDown,정답입니다,323.0567778000259,None,323.0567778000259,None,323.0567778000259,None,323.0567778000259,None,324.00927699997555,None,324.00927699997555,324.5093104999978,,,,,,,,,,,,,,,,025,2022-05-19_14h04.08.361,FishGame,2022.1.1,60.19491112074511,
,31,넌 훌륭해,2,Green,B,5.916666666666667,4.033333333333333,ScrollUp,ScrollDown,Green.png,2,Positive,Incongruent,0,0,0,0,,,,,,,,,,,,,,,,,0,30,30,30,,,,,,,,,,,,,,,,,,,,,,,,,,,,,,,,,,,,,,,,,,,,,,,,,,,,,,,,,,,,,,,,,,,,,,,,,,,,,,,,,1.983024666706721,1.0921036999789067,325.13447180000367,None,ScrollUp,정답입니다,325.13447180000367,None,325.13447180000367,None,325.13447180000367,None,325.13447180000367,None,326.1234250999987,None,326.1234250999987,326.6235209000297,,,,,,,,,,,,,,,,025,2022-05-19_14h04.08.361,FishGame,2022.1.1,60.19491112074511,
,32,넌 슬기로워,2,Orange,A,6.166666666666667,4.1,ScrollDown,ScrollUp,Orange.png,2,Positive,Congruent,0,0,0,0,,,,,,,,,,,,,,,,,0,31,31,31,,,,,,,,,,,,,,,,,,,,,,,,,,,,,,,,,,,,,,,,,,,,,,,,,,,,,,,,,,,,,,,,,,,,,,,,,,,,,,,,,1,1.061559900001157,327.24540569999954,None,ScrollDown,정답입니다,327.24540569999954,None,327.24540569999954,None,327.24540569999954,None,327.24540569999954,None,328.2092653000145,None,328.2092653000145,328.70934290002333,,,,,,,,,,,,,,,,025,2022-05-19_14h04.08.361,FishGame,2022.1.1,60.19491112074511,
,33,넌 냉혹해,5,Orange,A,2.583333333333333,2.1,ScrollDown,ScrollUp,Orange.png,2,Negative,Incongruent,0,0,0,0,,,,,,,,,,,,,,,,,0,32,32,32,,,,,,,,,,,,,,,,,,,,,,,,,,,,,,,,,,,,,,,,,,,,,,,,,,,,,,,,,,,,,,,,,,,,,,,,,,,,,,,,,1.0046296219031017,1.014760699996259,329.32774039998185,None,ScrollDown,정답입니다,329.32774039998185,None,329.32774039998185,None,329.32774039998185,None,329.32774039998185,None,330.24021790002007,None,330.24021790002007,330.74040529999183,,,,,,,,,,,,,,,,025,2022-05-19_14h04.08.361,FishGame,2022.1.1,60.19491112074511,
,34,나를 데려가줘,6,Green,B,0,0,ScrollDown,ScrollUp,Green.png,2,NonTarget,NonTarget,0,0,0,0,,,,,,,,,,,,,,,,,0,33,33,33,,,,,,,,,,,,,,,,,,,,,,,,,,,,,,,,,,,,,,,,,,,,,,,,,,,,,,,,,,,,,,,,,,,,,,,,,,,,,,,,,1,1.3588527000392787,331.3608234000276,None,ScrollDown,정답입니다,331.3608234000276,None,331.3608234000276,None,331.3608234000276,None,331.3608234000276,None,332.62581559998216,None,332.62581559998216,333.1258710999973,,,,,,,,,,,,,,,,025,2022-05-19_14h04.08.361,FishGame,2022.1.1,60.19491112074511,
,35,넌 편파적이야,5,Green,B,2.125,2,ScrollUp,ScrollDown,Green.png,2,Negative,Congruent,0,0,0,0,,,,,,,,,,,,,,,,,0,34,34,34,,,,,,,,,,,,,,,,,,,,,,,,,,,,,,,,,,,,,,,,,,,,,,,,,,,,,,,,,,,,,,,,,,,,,,,,,,,,,,,,,1.9706790049870808,1.276486000046134,333.74516350001795,None,ScrollUp,정답입니다,333.74516350001795,None,333.74516350001795,None,333.74516350001795,None,333.74516350001795,None,334.92358320002677,None,334.92358320002677,335.42573199997423,,,,,,,,,,,,,,,,025,2022-05-19_14h04.08.361,FishGame,2022.1.1,60.19491112074511,
,36,넌 슬퍼,4,Orange,A,2.583333333333333,3.066666666666667,ScrollDown,ScrollUp,Orange.png,2,Negative,Incongruent,0,0,0,0,,,,,,,,,,,,,,,,,0,35,35,35,,,,,,,,,,,,,,,,,,,,,,,,,,,,,,,,,,,,,,,,,,,,,,,,,,,,,,,,,,,,,,,,,,,,,,,,,,,,,,,,,1,1.1558522999985144,336.05146879999666,None,ScrollDown,정답입니다,336.05146879999666,None,336.05146879999666,None,336.05146879999666,None,336.05146879999666,None,337.10655740002403,None,337.10655740002403,337.60661189997336,,,,,,,,,,,,,,,,025,2022-05-19_14h04.08.361,FishGame,2022.1.1,60.19491112074511,
,37,나를 데려가줘,6,Green,B,0,0,ScrollDown,ScrollUp,Green.png,2,NonTarget,NonTarget,0,0,0,0,,,,,,,,,,,,,,,,,0,36,36,36,,,,,,,,,,,,,,,,,,,,,,,,,,,,,,,,,,,,,,,,,,,,,,,,,,,,,,,,,,,,,,,,,,,,,,,,,,,,,,,,,1,1.1953556999797001,338.22007819998544,None,ScrollDown,정답입니다,338.22007819998544,None,338.22007819998544,None,338.22007819998544,None,338.22007819998544,None,339.3257326000021,None,339.3257326000021,339.82574589998694,,,,,,,,,,,,,,,,025,2022-05-19_14h04.08.361,FishGame,2022.1.1,60.19491112074511,
,38,넌 친절해,1,Green,B,6.041666666666667,5.533333333333333,ScrollUp,ScrollDown,Green.png,2,Positive,Incongruent,0,0,0,0,,,,,,,,,,,,,,,,,0,37,37,37,,,,,,,,,,,,,,,,,,,,,,,,,,,,,,,,,,,,,,,,,,,,,,,,,,,,,,,,,,,,,,,,,,,,,,,,,,,,,,,,,2,1.1447210000478663,340.4464007000206,None,ScrollUp,정답입니다,340.4464007000206,None,340.4464007000206,None,340.4464007000206,None,340.4464007000206,None,341.4900644000154,None,341.4900644000154,341.9922059000237,,,,,,,,,,,,,,,,025,2022-05-19_14h04.08.361,FishGame,2022.1.1,60.19491112074511,
,1,넌 엉성해,4,Orange,A,3,3.3,ScrollDown,ScrollUp,Orange.png,3,Negative,Incongruent,0,0,0,0,,,,,,,,,,,,,,,,,,,,,0,0,0,0,,,,,,,,,,,,,,,,,,,,,,,,,,,,,,,,,,,,373.9228473000112,375.42273390002083,375.458469300007,376.4115691999905,376.4559801000287,377.4083703000215,377.4083703000215,None,,,,,,,,,,,,,,,,,,,,,,,,,,,,,,,,,,1.0509259402751923,1.472320300003048,378.52425620000577,None,ScrollDown,정답입니다,378.52425620000577,None,378.52425620000577,None,378.52425620000577,None,378.52425620000577,None,379.89146439998876,None,379.89146439998876,380.4081588999834,342.4922219000291,None,342.4922219000291,None,-0.17222223,-0.12592593,1,0,0,0.016421020030975342,None,372.506171200017,None,,,025,2022-05-19_14h04.08.361,FishGame,2022.1.1,60.19491112074511,
,2,나를 보내줘,6,Orange,A,0,0,ScrollUp,ScrollDown,Orange.png,3,NonTarget,NonTarget,0,0,0,0,,,,,,,,,,,,,,,,,,,,,0,1,1,1,,,,,,,,,,,,,,,,,,,,,,,,,,,,,,,,,,,,,,,,,,,,,,,,,,,,,,,,,,,,,,,,,,,,,,,,,,,,,1.817901223897934,1.1421343999681994,381.0145991999889,None,ScrollUp,정답입니다,381.0145991999889,None,381.0145991999889,None,381.0145991999889,None,381.0145991999889,None,382.0558382999734,None,382.0558382999734,382.5580624000286,,,,,,,,,,,,,,,,025,2022-05-19_14h04.08.361,FishGame,2022.1.1,60.19491112074511,
,3,넌 활발해,1,Green,B,5.666666666666667,5.6,ScrollUp,ScrollDown,Green.png,3,Positive,Incongruent,0,0,0,0,,,,,,,,,,,,,,,,,,,,,0,2,2,2,,,,,,,,,,,,,,,,,,,,,,,,,,,,,,,,,,,,,,,,,,,,,,,,,,,,,,,,,,,,,,,,,,,,,,,,,,,,,1.9969135920206706,1.0779005999793299,383.1775279000285,None,ScrollUp,정답입니다,383.1775279000285,None,383.1775279000285,None,383.1775279000285,None,383.1775279000285,None,384.15804650000064,None,384.15804650000064,384.65808239998296,,,,,,,,,,,,,,,,025,2022-05-19_14h04.08.361,FishGame,2022.1.1,60.19491112074511,
,4,넌 논리적이야,2,Orange,A,5.666666666666666,4.633333333333334,ScrollDown,ScrollUp,Orange.png,3,Positive,Congruent,0,0,0,0,,,,,,,,,,,,,,,,,,,,,0,3,3,3,,,,,,,,,,,,,,,,,,,,,,,,,,,,,,,,,,,,,,,,,,,,,,,,,,,,,,,,,,,,,,,,,,,,,,,,,,,,,1.0061728358268738,1.0160385000053793,385.2785147000104,None,ScrollDown,정답입니다,385.2785147000104,None,385.2785147000104,None,385.2785147000104,None,385.2785147000104,None,386.1944362000213,None,386.1944362000213,386.7057688999921,,,,,,,,,,,,,,,,025,2022-05-19_14h04.08.361,FishGame,2022.1.1,60.19491112074511,
,5,넌 과묵해,3,Orange,A,3.875,4.4,ScrollDown,ScrollUp,Orange.png,3,Neutral,Neutral,0,0,0,0,,,,,,,,,,,,,,,,,,,,,0,4,4,4,,,,,,,,,,,,,,,,,,,,,,,,,,,,,,,,,,,,,,,,,,,,,,,,,,,,,,,,,,,,,,,,,,,,,,,,,,,,,1,1.0262217000126839,387.3292121000122,None,ScrollDown,정답입니다,387.3292121000122,None,387.3292121000122,None,387.3292121000122,None,387.3292121000122,None,388.25575389998266,None,388.25575389998266,388.7579263999942,,,,,,,,,,,,,,,,025,2022-05-19_14h04.08.361,FishGame,2022.1.1,60.19491112074511,
,6,나를 데려가줘,6,Green,B,0,0,ScrollDown,ScrollUp,Green.png,3,NonTarget,NonTarget,0,0,0,0,,,,,,,,,,,,,,,,,,,,,0,5,5,5,,,,,,,,,,,,,,,,,,,,,,,,,,,,,,,,,,,,,,,,,,,,,,,,,,,,,,,,,,,,,,,,,,,,,,,,,,,,,1,1.14581369998632,389.3749257000163,None,ScrollDown,정답입니다,389.3749257000163,None,389.3749257000163,None,389.3749257000163,None,389.3749257000163,None,390.42461250000633,None,390.42461250000633,390.92474589997437,,,,,,,,,,,,,,,,025,2022-05-19_14h04.08.361,FishGame,2022.1.1,60.19491112074511,
,7,넌 미숙해,4,Green,B,3,3,ScrollUp,ScrollDown,Green.png,3,Negative,Congruent,0,0,0,0,,,,,,,,,,,,,,,,,,,,,0,6,6,6,,,,,,,,,,,,,,,,,,,,,,,,,,,,,,,,,,,,,,,,,,,,,,,,,,,,,,,,,,,,,,,,,,,,,,,,,,,,,2,1.1141201000427827,391.5375238999841,None,ScrollUp,정답입니다,391.5375238999841,None,391.5375238999841,None,391.5375238999841,None,391.5375238999841,None,392.55569639999885,None,392.55569639999885,393.0556813000003,,,,,,,,,,,,,,,,025,2022-05-19_14h04.08.361,FishGame,2022.1.1,60.19491112074511,
,8,나를 보내줘,6,Orange,A,0,0,ScrollUp,ScrollDown,Orange.png,3,NonTarget,NonTarget,0,0,0,0,,,,,,,,,,,,,,,,,,,,,0,7,7,7,,,,,,,,,,,,,,,,,,,,,,,,,,,,,,,,,,,,,,,,,,,,,,,,,,,,,,,,,,,,,,,,,,,,,,,,,,,,,1.8904321044683456,1.175890900020022,393.67800459999125,None,ScrollUp,정답입니다,393.67800459999125,None,393.67800459999125,None,393.67800459999125,None,393.67800459999125,None,394.7556486999965,None,394.7556486999965,395.2578655999969,,,,,,,,,,,,,,,,025,2022-05-19_14h04.08.361,FishGame,2022.1.1,60.19491112074511,
,9,넌 자신만만해,3,Green,B,4.833333333333334,4.333333333333333,ScrollUp,ScrollDown,Green.png,3,Neutral,Neutral,0,0,0,0,,,,,,,,,,,,,,,,,,,,,0,8,8,8,,,,,,,,,,,,,,,,,,,,,,,,,,,,,,,,,,,,,,,,,,,,,,,,,,,,,,,,,,,,,,,,,,,,,,,,,,,,,1.9104938358068466,1.1418875000090338,395.8789646999794,None,ScrollUp,정답입니다,395.8789646999794,None,395.8789646999794,None,395.8789646999794,None,395.8789646999794,None,396.921989399998,None,396.921989399998,397.4220530000166,,,,,,,,,,,,,,,,025,2022-05-19_14h04.08.361,FishGame,2022.1.1,60.19491112074511,
,10,넌 탐욕스러워,5,Orange,A,2.25,2.1,ScrollDown,ScrollUp,Orange.png,3,Negative,Incongruent,0,0,0,0,,,,,,,,,,,,,,,,,,,,,0,9,9,9,,,,,,,,,,,,,,,,,,,,,,,,,,,,,,,,,,,,,,,,,,,,,,,,,,,,,,,,,,,,,,,,,,,,,,,,,,,,,1,1.1804804000421427,398.0482897000038,None,ScrollDown,정답입니다,398.0482897000038,None,398.0482897000038,None,398.0482897000038,None,398.0482897000038,None,399.12454059999436,None,399.12454059999436,399.6245421000058,,,,,,,,,,,,,,,,025,2022-05-19_14h04.08.361,FishGame,2022.1.1,60.19491112074511,
,11,넌 인기있어,2,Orange,A,5.458333333333333,4.5,ScrollDown,ScrollUp,Orange.png,3,Positive,Congruent,0,0,0,0,,,,,,,,,,,,,,,,,,,,,0,10,10,10,,,,,,,,,,,,,,,,,,,,,,,,,,,,,,,,,,,,,,,,,,,,,,,,,,,,,,,,,,,,,,,,,,,,,,,,,,,,,1,1.0932915000012144,400.23927100002766,None,ScrollDown,정답입니다,400.23927100002766,None,400.23927100002766,None,400.23927100002766,None,400.23927100002766,None,401.23418650001986,None,401.23418650001986,401.73865220003063,,,,,,,,,,,,,,,,025,2022-05-19_14h04.08.361,FishGame,2022.1.1,60.19491112074511,
,12,나를 데려가줘,6,Green,B,0,0,ScrollDown,ScrollUp,Green.png,3,NonTarget,NonTarget,0,0,0,0,,,,,,,,,,,,,,,,,,,,,0,11,11,11,,,,,,,,,,,,,,,,,,,,,,,,,,,,,,,,,,,,,,,,,,,,,,,,,,,,,,,,,,,,,,,,,,,,,,,,,,,,,1,1.2638463000184856,402.35364899999695,None,ScrollDown,정답입니다,402.35364899999695,None,402.35364899999695,None,402.35364899999695,None,402.35364899999695,None,403.5219073999906,None,403.5219073999906,404.0247179000289,,,,,,,,,,,,,,,,025,2022-05-19_14h04.08.361,FishGame,2022.1.1,60.19491112074511,
,13,넌 뛰어나,2,Green,B,6.166666666666667,4,ScrollUp,ScrollDown,Green.png,3,Positive,Incongruent,0,0,0,0,,,,,,,,,,,,,,,,,,,,,0,12,12,12,,,,,,,,,,,,,,,,,,,,,,,,,,,,,,,,,,,,,,,,,,,,,,,,,,,,,,,,,,,,,,,,,,,,,,,,,,,,,1.89969136317571,1.060943300020881,404.6427694000304,None,ScrollUp,정답입니다,404.6427694000304,None,404.6427694000304,None,404.6427694000304,None,404.6427694000304,None,405.6077136999811,None,405.6077136999811,406.1076148999855,,,,,,,,,,,,,,,,025,2022-05-19_14h04.08.361,FishGame,2022.1.1,60.19491112074511,
,14,넌 낙관적이야,1,Orange,A,5.75,5.8,ScrollDown,ScrollUp,Orange.png,3,Positive,Congruent,0,0,0,0,,,,,,,,,,,,,,,,,,,,,0,13,13,13,,,,,,,,,,,,,,,,,,,,,,,,,,,,,,,,,,,,,,,,,,,,,,,,,,,,,,,,,,,,,,,,,,,,,,,,,,,,,1,0.9768020000192337,406.7310752000194,None,ScrollDown,정답입니다,406.7310752000194,None,406.7310752000194,None,406.7310752000194,None,406.7310752000194,None,407.60536769998726,None,407.60536769998726,408.1076019000029,,,,,,,,,,,,,,,,025,2022-05-19_14h04.08.361,FishGame,2022.1.1,60.19491112074511,
,15,넌 산만해,4,Green,B,2.695652173913043,3.033333333333333,ScrollUp,ScrollDown,Green.png,3,Negative,Congruent,0,0,0,0,,,,,,,,,,,,,,,,,,,,,0,14,14,14,,,,,,,,,,,,,,,,,,,,,,,,,,,,,,,,,,,,,,,,,,,,,,,,,,,,,,,,,,,,,,,,,,,,,,,,,,,,,1.8487654278675716,1.1765555000165477,408.72832430002745,None,ScrollUp,정답입니다,408.72832430002745,None,408.72832430002745,None,408.72832430002745,None,408.72832430002745,None,409.80505189998075,None,409.80505189998075,410.30512059998,,,,,,,,,,,,,,,,025,2022-05-19_14h04.08.361,FishGame,2022.1.1,60.19491112074511,
,16,나를 보내줘,6,Orange,A,0,0,ScrollUp,ScrollDown,Orange.png,3,NonTarget,NonTarget,0,0,0,0,,,,,,,,,,,,,,,,,,,,,0,15,15,15,,,,,,,,,,,,,,,,,,,,,,,,,,,,,,,,,,,,,,,,,,,,,,,,,,,,,,,,,,,,,,,,,,,,,,,,,,,,,2,1.3468681999947876,410.92417239997303,None,ScrollUp,정답입니다,410.92417239997303,None,410.92417239997303,None,410.92417239997303,None,410.92417239997303,None,412.1742497999803,None,412.1742497999803,412.6742380000069,,,,,,,,,,,,,,,,025,2022-05-19_14h04.08.361,FishGame,2022.1.1,60.19491112074511,
,17,넌 교활해,5,Green,B,2.333333333333333,2.133333333333333,ScrollUp,ScrollDown,Green.png,3,Negative,Congruent,0,0,0,0,,,,,,,,,,,,,,,,,,,,,0,16,16,16,,,,,,,,,,,,,,,,,,,,,,,,,,,,,,,,,,,,,,,,,,,,,,,,,,,,,,,,,,,,,,,,,,,,,,,,,,,,,1.9367283980051677,1.3625790000078268,413.2897121999995,None,ScrollUp,정답입니다,413.2897121999995,None,413.2897121999995,None,413.2897121999995,None,413.2897121999995,None,414.55523539998103,None,414.55523539998103,415.05526250001276,,,,,,,,,,,,,,,,025,2022-05-19_14h04.08.361,FishGame,2022.1.1,60.19491112074511,
,18,나를 보내줘,6,Orange,A,0,0,ScrollUp,ScrollDown,Orange.png,3,NonTarget,NonTarget,0,0,0,0,,,,,,,,,,,,,,,,,,,,,0,17,17,17,,,,,,,,,,,,,,,,,,,,,,,,,,,,,,,,,,,,,,,,,,,,,,,,,,,,,,,,,,,,,,,,,,,,,,,,,,,,,2,1.6590250000008382,415.67861000000266,None,ScrollUp,정답입니다,415.67861000000266,None,415.67861000000266,None,415.67861000000266,None,415.67861000000266,None,417.2385230999789,None,417.2385230999789,417.73850149998907,,,,,,,,,,,,,,,,025,2022-05-19_14h04.08.361,FishGame,2022.1.1,60.19491112074511,
,19,넌 불친절해,5,Green,B,2.208333333333333,2.033333333333333,ScrollUp,ScrollDown,Green.png,3,Negative,Congruent,0,0,0,0,,,,,,,,,,,,,,,,,,,,,0,18,18,18,,,,,,,,,,,,,,,,,,,,,,,,,,,,,,,,,,,,,,,,,,,,,,,,,,,,,,,,,,,,,,,,,,,,,,,,,,,,,1.8410493830839794,1.0420774000231177,418.3609514000127,None,ScrollUp,정답입니다,418.3609514000127,None,418.3609514000127,None,418.3609514000127,None,418.3609514000127,None,419.30513059999794,None,419.30513059999794,419.80733420001343,,,,,,,,,,,,,,,,025,2022-05-19_14h04.08.361,FishGame,2022.1.1,60.19491112074511,
,20,넌 지적이야,2,Green,B,5.75,4.366666666666666,ScrollUp,ScrollDown,Green.png,3,Positive,Incongruent,0,0,0,0,,,,,,,,,,,,,,,,,,,,,0,19,19,19,,,,,,,,,,,,,,,,,,,,,,,,,,,,,,,,,,,,,,,,,,,,,,,,,,,,,,,,,,,,,,,,,,,,,,,,,,,,,1.7978395173947017,0.9770030999789014,420.42374860000564,None,ScrollUp,정답입니다,420.42374860000564,None,420.42374860000564,None,420.42374860000564,None,420.42374860000564,None,421.30734549998306,None,421.30734549998306,421.8217899000156,,,,,,,,,,,,,,,,025,2022-05-19_14h04.08.361,FishGame,2022.1.1,60.19491112074511,
,21,넌 우유부단해,4,Orange,A,2.666666666666667,3.166666666666667,ScrollDown,ScrollUp,Orange.png,3,Negative,Incongruent,0,0,0,0,,,,,,,,,,,,,,,,,,,,,0,20,20,20,,,,,,,,,,,,,,,,,,,,,,,,,,,,,,,,,,,,,,,,,,,,,,,,,,,,,,,,,,,,,,,,,,,,,,,,,,,,,1,1.0759067999897525,422.43282470002305,None,ScrollDown,정답입니다,422.43282470002305,None,422.43282470002305,None,422.43282470002305,None,422.43282470002305,None,423.40501829999266,None,423.40501829999266,423.90507550002076,,,,,,,,,,,,,,,,025,2022-05-19_14h04.08.361,FishGame,2022.1.1,60.19491112074511,
,22,나를 데려가줘,6,Green,B,0,0,ScrollDown,ScrollUp,Green.png,3,NonTarget,NonTarget,0,0,0,0,,,,,,,,,,,,,,,,,,,,,0,21,21,21,,,,,,,,,,,,,,,,,,,,,,,,,,,,,,,,,,,,,,,,,,,,,,,,,,,,,,,,,,,,,,,,,,,,,,,,,,,,,1,1.4088685999740846,424.52746680000564,None,ScrollDown,정답입니다,424.52746680000564,None,424.52746680000564,None,424.52746680000564,None,424.52746680000564,None,425.84051920002094,None,425.84051920002094,426.34061210002983,,,,,,,,,,,,,,,,025,2022-05-19_14h04.08.361,FishGame,2022.1.1,60.19491112074511,
,23,넌 성실해,1,Green,B,6.041666666666666,5.7,ScrollUp,ScrollDown,Green.png,3,Positive,Incongruent,0,0,0,0,,,,,,,,,,,,,,,,,,,,,0,22,22,22,,,,,,,,,,,,,,,,,,,,,,,,,,,,,,,,,,,,,,,,,,,,,,,,,,,,,,,,,,,,,,,,,,,,,,,,,,,,,1.9104938358068466,1.0425574000109918,426.9594891999732,None,ScrollUp,정답입니다,426.9594891999732,None,426.9594891999732,None,426.9594891999732,None,426.9594891999732,None,427.9049142000149,None,427.9049142000149,428.40497590001905,,,,,,,,,,,,,,,,025,2022-05-19_14h04.08.361,FishGame,2022.1.1,60.19491112074511,
,24,넌 현실주의적이야,3,Orange,A,4.625,4.4,ScrollDown,ScrollUp,Orange.png,3,Neutral,Neutral,0,0,0,0,,,,,,,,,,,,,,,,,,,,,0,23,23,23,,,,,,,,,,,,,,,,,,,,,,,,,,,,,,,,,,,,,,,,,,,,,,,,,,,,,,,,,,,,,,,,,,,,,,,,,,,,,1,1.0423574000014924,429.03334060002817,None,ScrollDown,정답입니다,429.03334060002817,None,429.03334060002817,None,429.03334060002817,None,429.03334060002817,None,429.9737356000114,None,429.9737356000114,430.47188169998117,,,,,,,,,,,,,,,,025,2022-05-19_14h04.08.361,FishGame,2022.1.1,60.19491112074511,
,25,넌 진실돼,1,Orange,A,6.625,5.566666666666666,ScrollDown,ScrollUp,Orange.png,3,Positive,Congruent,0,0,0,0,,,,,,,,,,,,,,,,,,,,,0,24,24,24,,,,,,,,,,,,,,,,,,,,,,,,,,,,,,,,,,,,,,,,,,,,,,,,,,,,,,,,,,,,,,,,,,,,,,,,,,,,,1,0.963450199982617,431.09218979999423,None,ScrollDown,정답입니다,431.09218979999423,None,431.09218979999423,None,431.09218979999423,None,431.09218979999423,None,431.95493210002314,None,431.95493210002314,432.46027709997725,,,,,,,,,,,,,,,,025,2022-05-19_14h04.08.361,FishGame,2022.1.1,60.19491112074511,
,26,넌 천진난만해,3,Green,B,4.958333333333334,4.833333333333333,ScrollUp,ScrollDown,Green.png,3,Neutral,Neutral,0,0,0,0,,,,,,,,,,,,,,,,,,,,,0,25,25,25,,,,,,,,,,,,,,,,,,,,,,,,,,,,,,,,,,,,,,,,,,,,,,,,,,,,,,,,,,,,,,,,,,,,,,,,,,,,,1.9166666666666667,0.9945993000292219,433.07718110003043,None,ScrollUp,정답입니다,433.07718110003043,None,433.07718110003043,None,433.07718110003043,None,433.07718110003043,None,433.9717730000266,None,433.9717730000266,434.47368870000355,,,,,,,,,,,,,,,,025,2022-05-19_14h04.08.361,FishGame,2022.1.1,60.19491112074511,
,27,넌 교양없어,5,Orange,A,2.416666666666667,2.2,ScrollDown,ScrollUp,Orange.png,3,Negative,Incongruent,0,0,0,0,,,,,,,,,,,,,,,,,,,,,0,26,26,26,,,,,,,,,,,,,,,,,,,,,,,,,,,,,,,,,,,,,,,,,,,,,,,,,,,,,,,,,,,,,,,,,,,,,,,,,,,,,1,1.0925597000168636,435.09755890001543,None,ScrollDown,정답입니다,435.09755890001543,None,435.09755890001543,None,435.09755890001543,None,435.09755890001543,None,436.09030649997294,None,436.09030649997294,436.5903836999787,,,,,,,,,,,,,,,,025,2022-05-19_14h04.08.361,FishGame,2022.1.1,60.19491112074511,
,28,나를 보내줘,6,Orange,A,0,0,ScrollUp,ScrollDown,Orange.png,3,NonTarget,NonTarget,0,0,0,0,,,,,,,,,,,,,,,,,,,,,0,27,27,27,,,,,,,,,,,,,,,,,,,,,,,,,,,,,,,,,,,,,,,,,,,,,,,,,,,,,,,,,,,,,,,,,,,,,,,,,,,,,1.89969136317571,1.2424361999728717,437.21438770001987,None,ScrollUp,정답입니다,437.21438770001987,None,437.21438770001987,None,437.21438770001987,None,437.21438770001987,None,438.3546894000028,None,438.3546894000028,438.85476229997585,,,,,,,,,,,,,,,,025,2022-05-19_14h04.08.361,FishGame,2022.1.1,60.19491112074511,
,29,넌 엉뚱스러워,3,Orange,A,4.166666666666667,4.133333333333334,ScrollDown,ScrollUp,Orange.png,3,Neutral,Neutral,0,0,0,0,,,,,,,,,,,,,,,,,,,,,0,28,28,28,,,,,,,,,,,,,,,,,,,,,,,,,,,,,,,,,,,,,,,,,,,,,,,,,,,,,,,,,,,,,,,,,,,,,,,,,,,,,1,0.9935241999919526,439.4764204000239,None,ScrollDown,정답입니다,439.4764204000239,None,439.4764204000239,None,439.4764204000239,None,439.4764204000239,None,440.37353859998984,None,440.37353859998984,440.8736050000298,,,,,,,,,,,,,,,,025,2022-05-19_14h04.08.361,FishGame,2022.1.1,60.19491112074511,
,30,넌 무지해,4,Green,B,2.541666666666667,3.066666666666667,ScrollUp,ScrollDown,Green.png,3,Negative,Congruent,0,0,0,0,,,,,,,,,,,,,,,,,,,,,0,29,29,29,,,,,,,,,,,,,,,,,,,,,,,,,,,,,,,,,,,,,,,,,,,,,,,,,,,,,,,,,,,,,,,,,,,,,,,,,,,,,1.7731481442848842,1.2092054999666288,441.4909401999903,None,ScrollUp,정답입니다,441.4909401999903,None,441.4909401999903,None,441.4909401999903,None,441.4909401999903,None,442.60469970002305,None,442.60469970002305,443.10673769999994,,,,,,,,,,,,,,,,025,2022-05-19_14h04.08.361,FishGame,2022.1.1,60.19491112074511,
,31,넌 음울해,5,Green,B,2.25,2.233333333333333,ScrollUp,ScrollDown,Green.png,3,Negative,Congruent,0,0,0,0,,,,,,,,,,,,,,,,,,,,,0,30,30,30,,,,,,,,,,,,,,,,,,,,,,,,,,,,,,,,,,,,,,,,,,,,,,,,,,,,,,,,,,,,,,,,,,,,,,,,,,,,,1.7175925920406976,0.8756159999757074,443.7305311000091,None,ScrollUp,정답입니다,443.7305311000091,None,443.7305311000091,None,443.7305311000091,None,443.7305311000091,None,444.504582100024,None,444.504582100024,445.00459229998523,,,,,,,,,,,,,,,,025,2022-05-19_14h04.08.361,FishGame,2022.1.1,60.19491112074511,
,32,넌 냉소적이야,5,Orange,A,2.916666666666667,2.4,ScrollDown,ScrollUp,Orange.png,3,Negative,Incongruent,0,0,0,0,,,,,,,,,,,,,,,,,,,,,0,31,31,31,,,,,,,,,,,,,,,,,,,,,,,,,,,,,,,,,,,,,,,,,,,,,,,,,,,,,,,,,,,,,,,,,,,,,,,,,,,,,1,1.0433960999944247,445.6253379000118,None,ScrollDown,정답입니다,445.6253379000118,None,445.6253379000118,None,445.6253379000118,None,445.6253379000118,None,446.5712656999822,None,446.5712656999822,447.0734785000095,,,,,,,,,,,,,,,,025,2022-05-19_14h04.08.361,FishGame,2022.1.1,60.19491112074511,
,33,나를 데려가줘,6,Green,B,0,0,ScrollDown,ScrollUp,Green.png,3,NonTarget,NonTarget,0,0,0,0,,,,,,,,,,,,,,,,,,,,,0,32,32,32,,,,,,,,,,,,,,,,,,,,,,,,,,,,,,,,,,,,,,,,,,,,,,,,,,,,,,,,,,,,,,,,,,,,,,,,,,,,,1,1.2604469999787398,447.6957040000125,None,ScrollDown,정답입니다,447.6957040000125,None,447.6957040000125,None,447.6957040000125,None,447.6957040000125,None,448.85425239999313,None,448.85425239999313,449.35431989998324,,,,,,,,,,,,,,,,025,2022-05-19_14h04.08.361,FishGame,2022.1.1,60.19491112074511,
,34,넌 쾌활해,1,Orange,A,5.541666666666666,5.733333333333333,ScrollDown,ScrollUp,Orange.png,3,Positive,Congruent,0,0,0,0,,,,,,,,,,,,,,,,,,,,,0,33,33,33,,,,,,,,,,,,,,,,,,,,,,,,,,,,,,,,,,,,,,,,,,,,,,,,,,,,,,,,,,,,,,,,,,,,,,,,,,,,,1,0.9284642999991775,449.9764384999871,None,ScrollDown,정답입니다,449.9764384999871,None,449.9764384999871,None,449.9764384999871,None,449.9764384999871,None,450.8067711999756,None,450.8067711999756,451.3068311000243,,,,,,,,,,,,,,,,025,2022-05-19_14h04.08.361,FishGame,2022.1.1,60.19491112074511,
,35,나를 보내줘,6,Orange,A,0,0,ScrollUp,ScrollDown,Orange.png,3,NonTarget,NonTarget,0,0,0,0,,,,,,,,,,,,,,,,,,,,,0,34,34,34,,,,,,,,,,,,,,,,,,,,,,,,,,,,,,,,,,,,,,,,,,,,,,,,,,,,,,,,,,,,,,,,,,,,,,,,,,,,,2,1.1107591000036336,451.92482000001473,None,ScrollUp,정답입니다,451.92482000001473,None,451.92482000001473,None,451.92482000001473,None,451.92482000001473,None,452.9400767000043,None,452.9400767000043,453.4399374999921,,,,,,,,,,,,,,,,025,2022-05-19_14h04.08.361,FishGame,2022.1.1,60.19491112074511,
,36,넌 명랑해,1,Green,B,5.739130434782609,5.666666666666667,ScrollUp,ScrollDown,Green.png,3,Positive,Incongruent,0,0,0,0,,,,,,,,,,,,,,,,,,,,,0,35,35,35,,,,,,,,,,,,,,,,,,,,,,,,,,,,,,,,,,,,,,,,,,,,,,,,,,,,,,,,,,,,,,,,,,,,,,,,,,,,,1.8549382835626602,1.159012999967672,454.0619485999923,None,ScrollUp,정답입니다,454.0619485999923,None,454.0619485999923,None,454.0619485999923,None,454.0619485999923,None,455.12328220001655,None,455.12328220001655,455.6233418000047,,,,,,,,,,,,,,,,025,2022-05-19_14h04.08.361,FishGame,2022.1.1,60.19491112074511,
,37,넌 멍해,4,Orange,A,2.833333333333333,3.4,ScrollDown,ScrollUp,Orange.png,3,Negative,Incongruent,0,0,0,0,,,,,,,,,,,,,,,,,,,,,0,36,36,36,,,,,,,,,,,,,,,,,,,,,,,,,,,,,,,,,,,,,,,,,,,,,,,,,,,,,,,,,,,,,,,,,,,,,,,,,,,,,1,1.110640799975954,456.2471987999743,None,ScrollDown,정답입니다,456.2471987999743,None,456.2471987999743,None,456.2471987999743,None,456.2471987999743,None,457.2543908000225,None,457.2543908000225,457.756623400026,,,,,,,,,,,,,,,,025,2022-05-19_14h04.08.361,FishGame,2022.1.1,60.19491112074511,
,38,나를 데려가줘,6,Green,B,0,0,ScrollDown,ScrollUp,Green.png,3,NonTarget,NonTarget,0,0,0,0,,,,,,,,,,,,,,,,,,,,,0,37,37,37,,,,,,,,,,,,,,,,,,,,,,,,,,,,,,,,,,,,,,,,,,,,,,,,,,,,,,,,,,,,,,,,,,,,,,,,,,,,,1,1.1438032999867573,458.3772839999874,None,ScrollDown,정답입니다,458.3772839999874,None,458.3772839999874,None,458.3772839999874,None,458.3772839999874,None,459.4206924000173,None,459.4206924000173,459.92076599999564,,,,,,,,,,,,,,,,025,2022-05-19_14h04.08.361,FishGame,2022.1.1,60.19491112074511,
,39,넌 현명해,2,Orange,A,6.541666666666666,4.533333333333333,ScrollDown,ScrollUp,Orange.png,3,Positive,Congruent,0,0,0,0,,,,,,,,,,,,,,,,,,,,,0,38,38,38,,,,,,,,,,,,,,,,,,,,,,,,,,,,,,,,,,,,,,,,,,,,,,,,,,,,,,,,,,,,,,,,,,,,,,,,,,,,,1,0.9970565999974497,460.54442450002534,None,ScrollDown,정답입니다,460.54442450002534,None,460.54442450002534,None,460.54442450002534,None,460.54442450002534,None,461.43989929999225,None,461.43989929999225,461.9398905999842,,,,,,,,,,,,,,,,025,2022-05-19_14h04.08.361,FishGame,2022.1.1,60.19491112074511,
,40,넌 수줍어,3,Green,B,3.541666666666666,4.366666666666666,ScrollUp,ScrollDown,Green.png,3,Neutral,Neutral,0,0,0,0,,,,,,,,,,,,,,,,,,,,,0,39,39,39,,,,,,,,,,,,,,,,,,,,,,,,,,,,,,,,,,,,,,,,,,,,,,,,,,,,,,,,,,,,,,,,,,,,,,,,,,,,,1.9367283980051677,1.108083600003738,462.5569739000057,None,ScrollUp,정답입니다,462.5569739000057,None,462.5569739000057,None,462.5569739000057,None,462.5569739000057,None,463.56621339998674,None,463.56621339998674,464.0706737000146,,,,,,,,,,,,,,,,025,2022-05-19_14h04.08.361,FishGame,2022.1.1,60.19491112074511,
,41,나를 데려가줘,6,Green,B,0,0,ScrollDown,ScrollUp,Green.png,3,NonTarget,NonTarget,0,0,0,0,,,,,,,,,,,,,,,,,,,,,0,40,40,40,,,,,,,,,,,,,,,,,,,,,,,,,,,,,,,,,,,,,,,,,,,,,,,,,,,,,,,,,,,,,,,,,,,,,,,,,,,,,1,1.3283123000292107,464.6824617999955,None,ScrollDown,정답입니다,464.6824617999955,None,464.6824617999955,None,464.6824617999955,None,464.6824617999955,None,465.92061690002447,None,465.92061690002447,466.4230876999791,,,,,,,,,,,,,,,,025,2022-05-19_14h04.08.361,FishGame,2022.1.1,60.19491112074511,
,42,넌 성숙해,2,Green,B,5.833333333333333,4.533333333333333,ScrollUp,ScrollDown,Green.png,3,Positive,Incongruent,0,0,0,0,,,,,,,,,,,,,,,,,,,,,0,41,41,41,,,,,,,,,,,,,,,,,,,,,,,,,,,,,,,,,,,,,,,,,,,,,,,,,,,,,,,,,,,,,,,,,,,,,,,,,,,,,1.904320980111758,1.3463371999678202,467.0402095000027,None,ScrollUp,정답입니다,467.0402095000027,None,467.0402095000027,None,467.0402095000027,None,467.0402095000027,None,468.28975759999594,None,468.28975759999594,468.7897713999846,,,,,,,,,,,,,,,,025,2022-05-19_14h04.08.361,FishGame,2022.1.1,60.19491112074511,
,1,넌 매력적이야,2,Green,B,6.125,4.666666666666667,ScrollUp,ScrollDown,Green.png,4,Positive,Incongruent,0,0,0,0,,,,,,,,,,,,,,,,,,,,,,,,,0,0,0,0,,,,,,,,,,,,,,,,,,,,,,,,,,,,,,,,501.40356150001753,502.90577429998666,502.93911969999317,503.8922488000244,503.94226350000827,504.90339099999983,504.8890805999981,None,,,,,,,,,,,,,,,,,,,,,,,,,,,,,,,,,,1.825617293516795,1.4889476000098512,505.99962810002035,None,ScrollUp,정답입니다,505.99962810002035,None,505.99962810002035,None,505.99962810002035,None,505.99962810002035,None,507.38663510000333,None,507.38663510000333,507.8888663999969,469.2896286000032,None,469.2896286000032,None,-0.19907407,-0.10925926,1,0,0,0.01624051993712783,None,499.3055312000215,None,,,025,2022-05-19_14h04.08.361,FishGame,2022.1.1,60.19491112074511,
,2,나를 보내줘,6,Orange,A,0,0,ScrollUp,ScrollDown,Orange.png,4,NonTarget,NonTarget,0,0,0,0,,,,,,,,,,,,,,,,,,,,,,,,,0,1,1,1,,,,,,,,,,,,,,,,,,,,,,,,,,,,,,,,,,,,,,,,,,,,,,,,,,,,,,,,,,,,,,,,,,,,,,,,,1.9537037014961243,1.2309104999876581,508.51782120001735,None,ScrollUp,정답입니다,508.51782120001735,None,508.51782120001735,None,508.51782120001735,None,508.51782120001735,None,509.6420661000302,None,509.6420661000302,510.1533131999895,,,,,,,,,,,,,,,,025,2022-05-19_14h04.08.361,FishGame,2022.1.1,60.19491112074511,
,3,넌 조심스러워,3,Orange,A,4.791666666666666,4.666666666666667,ScrollDown,ScrollUp,Orange.png,4,Neutral,Neutral,0,0,0,0,,,,,,,,,,,,,,,,,,,,,,,,,0,2,2,2,,,,,,,,,,,,,,,,,,,,,,,,,,,,,,,,,,,,,,,,,,,,,,,,,,,,,,,,,,,,,,,,,,,,,,,,,1.0092592636744182,0.976156999997329,510.77961760002654,None,ScrollDown,정답입니다,510.77961760002654,None,510.77961760002654,None,510.77961760002654,None,510.77961760002654,None,511.65323310001986,None,511.65323310001986,512.1554558000062,,,,,,,,,,,,,,,,025,2022-05-19_14h04.08.361,FishGame,2022.1.1,60.19491112074511,
,4,넌 철학적이야,3,Green,B,4.5,4.266666666666667,ScrollUp,ScrollDown,Green.png,4,Neutral,Neutral,0,0,0,0,,,,,,,,,,,,,,,,,,,,,,,,,0,3,3,3,,,,,,,,,,,,,,,,,,,,,,,,,,,,,,,,,,,,,,,,,,,,,,,,,,,,,,,,,,,,,,,,,,,,,,,,,2,1.058963000017684,512.777540399984,None,ScrollUp,정답입니다,512.777540399984,None,512.777540399984,None,512.777540399984,None,512.777540399984,None,513.7365723000257,None,513.7365723000257,514.2388405000092,,,,,,,,,,,,,,,,025,2022-05-19_14h04.08.361,FishGame,2022.1.1,60.19491112074511,
,5,넌 쩨쩨해,5,Orange,A,2.375,2.133333333333333,ScrollDown,ScrollUp,Orange.png,4,Negative,Incongruent,0,0,0,0,,,,,,,,,,,,,,,,,,,,,,,,,0,4,4,4,,,,,,,,,,,,,,,,,,,,,,,,,,,,,,,,,,,,,,,,,,,,,,,,,,,,,,,,,,,,,,,,,,,,,,,,,1.0787036915620167,1.0111656000372022,514.868697500031,None,ScrollDown,정답입니다,514.868697500031,None,514.868697500031,None,514.868697500031,None,514.868697500031,None,515.7697801999748,None,515.7697801999748,516.2698513999931,,,,,,,,,,,,,,,,025,2022-05-19_14h04.08.361,FishGame,2022.1.1,60.19491112074511,
,6,나를 데려가줘,6,Green,B,0,0,ScrollDown,ScrollUp,Green.png,4,NonTarget,NonTarget,0,0,0,0,,,,,,,,,,,,,,,,,,,,,,,,,0,5,5,5,,,,,,,,,,,,,,,,,,,,,,,,,,,,,,,,,,,,,,,,,,,,,,,,,,,,,,,,,,,,,,,,,,,,,,,,,1,1.7096673999913037,516.8882531999843,None,ScrollDown,정답입니다,516.8882531999843,None,516.8882531999843,None,516.8882531999843,None,516.8882531999843,None,518.5053092999733,None,518.5053092999733,519.0220657999744,,,,,,,,,,,,,,,,025,2022-05-19_14h04.08.361,FishGame,2022.1.1,60.19491112074511,
,7,넌 고집불통이야,5,Green,B,2.875,2,ScrollUp,ScrollDown,Green.png,4,Negative,Congruent,0,0,0,0,,,,,,,,,,,,,,,,,,,,,,,,,0,6,6,6,,,,,,,,,,,,,,,,,,,,,,,,,,,,,,,,,,,,,,,,,,,,,,,,,,,,,,,,,,,,,,,,,,,,,,,,,1.9027777661879857,1.1754022999666631,519.6295004999847,None,ScrollUp,정답입니다,519.6295004999847,None,519.6295004999847,None,519.6295004999847,None,519.6295004999847,None,520.7051493999898,None,520.7051493999898,521.2218958000303,,,,,,,,,,,,,,,,025,2022-05-19_14h04.08.361,FishGame,2022.1.1,60.19491112074511,
,8,넌 무심해,4,Orange,A,2.875,3.2,ScrollDown,ScrollUp,Orange.png,4,Negative,Incongruent,0,0,0,0,,,,,,,,,,,,,,,,,,,,,,,,,0,7,7,7,,,,,,,,,,,,,,,,,,,,,,,,,,,,,,,,,,,,,,,,,,,,,,,,,,,,,,,,,,,,,,,,,,,,,,,,,1.0987654229005177,1.0281263000215404,521.8364391999785,None,ScrollDown,정답입니다,521.8364391999785,None,521.8364391999785,None,521.8364391999785,None,521.8364391999785,None,522.7718104000087,None,522.7718104000087,523.2718847999931,,,,,,,,,,,,,,,,025,2022-05-19_14h04.08.361,FishGame,2022.1.1,60.19491112074511,
,9,넌 정겨워,1,Orange,A,5.791666666666667,5.666666666666667,ScrollDown,ScrollUp,Orange.png,4,Positive,Congruent,0,0,0,0,,,,,,,,,,,,,,,,,,,,,,,,,0,8,8,8,,,,,,,,,,,,,,,,,,,,,,,,,,,,,,,,,,,,,,,,,,,,,,,,,,,,,,,,,,,,,,,,,,,,,,,,,1.0262345671653748,0.8926093999762088,523.8950736999977,None,ScrollDown,정답입니다,523.8950736999977,None,523.8950736999977,None,523.8950736999977,None,523.8950736999977,None,524.688527100021,None,524.688527100021,525.2051227000193,,,,,,,,,,,,,,,,025,2022-05-19_14h04.08.361,FishGame,2022.1.1,60.19491112074511,
,10,나를 데려가줘,6,Green,B,0,0,ScrollDown,ScrollUp,Green.png,4,NonTarget,NonTarget,0,0,0,0,,,,,,,,,,,,,,,,,,,,,,,,,0,9,9,9,,,,,,,,,,,,,,,,,,,,,,,,,,,,,,,,,,,,,,,,,,,,,,,,,,,,,,,,,,,,,,,,,,,,,,,,,1,1.6091157000046223,525.8108762999764,None,ScrollDown,정답입니다,525.8108762999764,None,525.8108762999764,None,525.8108762999764,None,525.8108762999764,None,527.3196330000064,None,527.3196330000064,527.8217658000067,,,,,,,,,,,,,,,,025,2022-05-19_14h04.08.361,FishGame,2022.1.1,60.19491112074511,
,11,넌 체제순응적이야,4,Green,B,3,3.6,ScrollUp,ScrollDown,Green.png,4,Negative,Congruent,0,0,0,0,,,,,,,,,,,,,,,,,,,,,,,,,0,10,10,10,,,,,,,,,,,,,,,,,,,,,,,,,,,,,,,,,,,,,,,,,,,,,,,,,,,,,,,,,,,,,,,,,,,,,,,,,2,1.1263599999947473,528.444785300002,None,ScrollUp,정답입니다,528.444785300002,None,528.444785300002,None,528.444785300002,None,528.444785300002,None,529.4717721000197,None,529.4717721000197,529.9717585999751,,,,,,,,,,,,,,,,025,2022-05-19_14h04.08.361,FishGame,2022.1.1,60.19491112074511,
,12,나를 보내줘,6,Orange,A,0,0,ScrollUp,ScrollDown,Orange.png,4,NonTarget,NonTarget,0,0,0,0,,,,,,,,,,,,,,,,,,,,,,,,,0,11,11,11,,,,,,,,,,,,,,,,,,,,,,,,,,,,,,,,,,,,,,,,,,,,,,,,,,,,,,,,,,,,,,,,,,,,,,,,,1.8765432039896648,1.1594220999977551,530.595651199983,None,ScrollUp,정답입니다,530.595651199983,None,530.595651199983,None,530.595651199983,None,530.595651199983,None,531.6525514000095,None,531.6525514000095,532.1526148000266,,,,,,,,,,,,,,,,025,2022-05-19_14h04.08.361,FishGame,2022.1.1,60.19491112074511,
,13,넌 박식해,2,Orange,A,5.625,3.933333333333333,ScrollDown,ScrollUp,Orange.png,4,Positive,Congruent,0,0,0,0,,,,,,,,,,,,,,,,,,,,,,,,,0,12,12,12,,,,,,,,,,,,,,,,,,,,,,,,,,,,,,,,,,,,,,,,,,,,,,,,,,,,,,,,,,,,,,,,,,,,,,,,,1,0.9113952000043355,532.776811800024,None,ScrollDown,정답입니다,532.776811800024,None,532.776811800024,None,532.776811800024,None,532.776811800024,None,533.5884013000177,None,533.5884013000177,534.0884170000209,,,,,,,,,,,,,,,,025,2022-05-19_14h04.08.361,FishGame,2022.1.1,60.19491112074511,
,14,나를 보내줘,6,Orange,A,0,0,ScrollUp,ScrollDown,Orange.png,4,NonTarget,NonTarget,0,0,0,0,,,,,,,,,,,,,,,,,,,,,,,,,0,13,13,13,,,,,,,,,,,,,,,,,,,,,,,,,,,,,,,,,,,,,,,,,,,,,,,,,,,,,,,,,,,,,,,,,,,,,,,,,1.8148148208856583,1.7280745999887586,534.7125525000156,None,ScrollUp,정답입니다,534.7125525000156,None,534.7125525000156,None,534.7125525000156,None,534.7125525000156,None,536.3384397000191,None,536.3384397000191,536.8358105000225,,,,,,,,,,,,,,,,025,2022-05-19_14h04.08.361,FishGame,2022.1.1,60.19491112074511,
,15,넌 침착해,1,Green,B,5.458333333333333,5.566666666666666,ScrollUp,ScrollDown,Green.png,4,Positive,Incongruent,0,0,0,0,,,,,,,,,,,,,,,,,,,,,,,,,0,14,14,14,,,,,,,,,,,,,,,,,,,,,,,,,,,,,,,,,,,,,,,,,,,,,,,,,,,,,,,,,,,,,,,,,,,,,,,,,1.879629631837209,1.5753516999538988,537.4681336000212,None,ScrollUp,정답입니다,537.4681336000212,None,537.4681336000212,None,537.4681336000212,None,537.4681336000212,None,538.9360244999989,None,538.9360244999989,539.4383094999939,,,,,,,,,,,,,,,,025,2022-05-19_14h04.08.361,FishGame,2022.1.1,60.19491112074511,
,16,나를 데려가줘,6,Green,B,0,0,ScrollDown,ScrollUp,Green.png,4,NonTarget,NonTarget,0,0,0,0,,,,,,,,,,,,,,,,,,,,,,,,,0,15,15,15,,,,,,,,,,,,,,,,,,,,,,,,,,,,,,,,,,,,,,,,,,,,,,,,,,,,,,,,,,,,,,,,,,,,,,,,,1,1.1090460999985225,540.0570780999842,None,ScrollDown,정답입니다,540.0570780999842,None,540.0570780999842,None,540.0570780999842,None,540.0570780999842,None,541.0692883000011,None,541.0692883000011,541.5693245999864,,,,,,,,,,,,,,,,025,2022-05-19_14h04.08.361,FishGame,2022.1.1,60.19491112074511,
,17,넌 행복해,1,Orange,A,6.416666666666666,6.166666666666667,ScrollDown,ScrollUp,Orange.png,4,Positive,Congruent,0,0,0,0,,,,,,,,,,,,,,,,,,,,,,,,,0,16,16,16,,,,,,,,,,,,,,,,,,,,,,,,,,,,,,,,,,,,,,,,,,,,,,,,,,,,,,,,,,,,,,,,,,,,,,,,,1,0.9425606000004336,542.1919802000048,None,ScrollDown,정답입니다,542.1919802000048,None,542.1919802000048,None,542.1919802000048,None,542.1919802000048,None,543.036296300008,None,543.036296300008,543.5360771000269,,,,,,,,,,,,,,,,025,2022-05-19_14h04.08.361,FishGame,2022.1.1,60.19491112074511,
,18,넌 겸손해,2,Green,B,5.791666666666667,4.766666666666667,ScrollUp,ScrollDown,Green.png,4,Positive,Incongruent,0,0,0,0,,,,,,,,,,,,,,,,,,,,,,,,,0,17,17,17,,,,,,,,,,,,,,,,,,,,,,,,,,,,,,,,,,,,,,,,,,,,,,,,,,,,,,,,,,,,,,,,,,,,,,,,,1,1.3274023000267334,544.1602811000193,None,ScrollDown,오답입니다,544.1602811000193,None,544.1602811000193,None,544.1602811000193,None,544.1602811000193,None,545.3856066000299,None,545.3856066000299,545.8856710999971,,,,,,,,,,,,,,,,025,2022-05-19_14h04.08.361,FishGame,2022.1.1,60.19491112074511,
,19,나를 보내줘,6,Orange,A,0,0,ScrollUp,ScrollDown,Orange.png,4,NonTarget,NonTarget,0,0,0,0,,,,,,,,,,,,,,,,,,,,,,,,,0,18,18,18,,,,,,,,,,,,,,,,,,,,,,,,,,,,,,,,,,,,,,,,,,,,,,,,,,,,,,,,,,,,,,,,,,,,,,,,,1.9351851840813954,1.4448455999954604,546.5099256000249,None,ScrollUp,정답입니다,546.5099256000249,None,546.5099256000249,None,546.5099256000249,None,546.5099256000249,None,547.8547917000251,None,547.8547917000251,548.3548065000214,,,,,,,,,,,,,,,,025,2022-05-19_14h04.08.361,FishGame,2022.1.1,60.19491112074511,
,20,넌 의심없어,3,Orange,A,4.166666666666667,4.6,ScrollDown,ScrollUp,Orange.png,4,Neutral,Neutral,0,0,0,0,,,,,,,,,,,,,,,,,,,,,,,,,0,19,19,19,,,,,,,,,,,,,,,,,,,,,,,,,,,,,,,,,,,,,,,,,,,,,,,,,,,,,,,,,,,,,,,,,,,,,,,,,1,1.2130413999548182,548.9696170000243,None,ScrollDown,정답입니다,548.9696170000243,None,548.9696170000243,None,548.9696170000243,None,548.9696170000243,None,550.0880706000025,None,550.0880706000025,550.5912043999997,,,,,,,,,,,,,,,,025,2022-05-19_14h04.08.361,FishGame,2022.1.1,60.19491112074511,
,21,넌 시시해,4,Orange,A,2.666666666666667,2.966666666666667,ScrollDown,ScrollUp,Orange.png,4,Negative,Incongruent,0,0,0,0,,,,,,,,,,,,,,,,,,,,,,,,,0,20,20,20,,,,,,,,,,,,,,,,,,,,,,,,,,,,,,,,,,,,,,,,,,,,,,,,,,,,,,,,,,,,,,,,,,,,,,,,,1,1.0253719000029378,551.2088758000173,None,ScrollDown,정답입니다,551.2088758000173,None,551.2088758000173,None,551.2088758000173,None,551.2088758000173,None,552.1357403000002,None,552.1357403000002,552.6379491999978,,,,,,,,,,,,,,,,025,2022-05-19_14h04.08.361,FishGame,2022.1.1,60.19491112074511,
,22,나를 데려가줘,6,Green,B,0,0,ScrollDown,ScrollUp,Green.png,4,NonTarget,NonTarget,0,0,0,0,,,,,,,,,,,,,,,,,,,,,,,,,0,21,21,21,,,,,,,,,,,,,,,,,,,,,,,,,,,,,,,,,,,,,,,,,,,,,,,,,,,,,,,,,,,,,,,,,,,,,,,,,1,1.2263783999951556,553.2532815000159,None,ScrollDown,정답입니다,553.2532815000159,None,553.2532815000159,None,553.2532815000159,None,553.2532815000159,None,554.385723799991,None,554.385723799991,554.8878945999895,,,,,,,,,,,,,,,,025,2022-05-19_14h04.08.361,FishGame,2022.1.1,60.19491112074511,
,23,넌 무정해,5,Orange,A,2.5,2.2,ScrollDown,ScrollUp,Orange.png,4,Negative,Incongruent,0,0,0,0,,,,,,,,,,,,,,,,,,,,,,,,,0,22,22,22,,,,,,,,,,,,,,,,,,,,,,,,,,,,,,,,,,,,,,,,,,,,,,,,,,,,,,,,,,,,,,,,,,,,,,,,,1,1.0421964999986812,555.5074933000142,None,ScrollDown,정답입니다,555.5074933000142,None,555.5074933000142,None,555.5074933000142,None,555.5074933000142,None,556.4545414000168,None,556.4545414000168,556.9544069999829,,,,,,,,,,,,,,,,025,2022-05-19_14h04.08.361,FishGame,2022.1.1,60.19491112074511,
,24,넌 긍정적이야,1,Green,B,6.041666666666667,6.066666666666666,ScrollUp,ScrollDown,Green.png,4,Positive,Incongruent,0,0,0,0,,,,,,,,,,,,,,,,,,,,,,,,,0,23,23,23,,,,,,,,,,,,,,,,,,,,,,,,,,,,,,,,,,,,,,,,,,,,,,,,,,,,,,,,,,,,,,,,,,,,,,,,,1.9413580397764842,1.4429413999896497,557.5936117999954,None,ScrollUp,정답입니다,557.5936117999954,None,557.5936117999954,None,557.5936117999954,None,557.5936117999954,None,558.9355909000151,None,558.9355909000151,559.437746200012,,,,,,,,,,,,,,,,025,2022-05-19_14h04.08.361,FishGame,2022.1.1,60.19491112074511,
,25,나를 보내줘,6,Orange,A,0,0,ScrollUp,ScrollDown,Orange.png,4,NonTarget,NonTarget,0,0,0,0,,,,,,,,,,,,,,,,,,,,,,,,,0,24,24,24,,,,,,,,,,,,,,,,,,,,,,,,,,,,,,,,,,,,,,,,,,,,,,,,,,,,,,,,,,,,,,,,,,,,,,,,,1.9969135920206706,1.1758926000329666,560.0615602000034,None,ScrollUp,정답입니다,560.0615602000034,None,560.0615602000034,None,560.0615602000034,None,560.0615602000034,None,561.1355748000205,None,561.1355748000205,561.6354769999743,,,,,,,,,,,,,,,,025,2022-05-19_14h04.08.361,FishGame,2022.1.1,60.19491112074511,
,26,넌 시기심이 많아,5,Green,B,2.458333333333333,2.233333333333333,ScrollUp,ScrollDown,Green.png,4,Negative,Congruent,0,0,0,0,,,,,,,,,,,,,,,,,,,,,,,,,0,25,25,25,,,,,,,,,,,,,,,,,,,,,,,,,,,,,,,,,,,,,,,,,,,,,,,,,,,,,,,,,,,,,,,,,,,,,,,,,1.9969135920206706,1.3258185999584384,562.2608405000065,None,ScrollUp,정답입니다,562.2608405000065,None,562.2608405000065,None,562.2608405000065,None,562.2608405000065,None,563.4854358999874,None,563.4854358999874,563.9853127999813,,,,,,,,,,,,,,,,025,2022-05-19_14h04.08.361,FishGame,2022.1.1,60.19491112074511,
,27,넌 탁월해,2,Orange,A,5.708333333333334,4.5,ScrollDown,ScrollUp,Orange.png,4,Positive,Congruent,0,0,0,0,,,,,,,,,,,,,,,,,,,,,,,,,0,26,26,26,,,,,,,,,,,,,,,,,,,,,,,,,,,,,,,,,,,,,,,,,,,,,,,,,,,,,,,,,,,,,,,,,,,,,,,,,1,1.1451272999984212,564.606398599979,None,ScrollDown,정답입니다,564.606398599979,None,564.606398599979,None,564.606398599979,None,564.606398599979,None,565.6544130999828,None,565.6544130999828,566.1544410000206,,,,,,,,,,,,,,,,025,2022-05-19_14h04.08.361,FishGame,2022.1.1,60.19491112074511,
,28,나를 데려가줘,6,Green,B,0,0,ScrollDown,ScrollUp,Green.png,4,NonTarget,NonTarget,0,0,0,0,,,,,,,,,,,,,,,,,,,,,,,,,0,27,27,27,,,,,,,,,,,,,,,,,,,,,,,,,,,,,,,,,,,,,,,,,,,,,,,,,,,,,,,,,,,,,,,,,,,,,,,,,1,1.1755414999788627,566.7709053999861,None,ScrollDown,정답입니다,566.7709053999861,None,566.7709053999861,None,566.7709053999861,None,566.7709053999861,None,567.8520893999957,None,567.8520893999957,568.3521180999815,,,,,,,,,,,,,,,,025,2022-05-19_14h04.08.361,FishGame,2022.1.1,60.19491112074511,
,29,넌 조용해,3,Green,B,4.333333333333333,4.166666666666667,ScrollUp,ScrollDown,Green.png,4,Neutral,Neutral,0,0,0,0,,,,,,,,,,,,,,,,,,,,,,,,,0,28,28,28,,,,,,,,,,,,,,,,,,,,,,,,,,,,,,,,,,,,,,,,,,,,,,,,,,,,,,,,,,,,,,,,,,,,,,,,,1,1.1774098000023514,568.9688486999949,None,ScrollDown,오답입니다,568.9688486999949,None,568.9688486999949,None,568.9688486999949,None,568.9688486999949,None,570.0517576999846,None,570.0517576999846,570.5518233000184,,,,,,,,,,,,,,,,025,2022-05-19_14h04.08.361,FishGame,2022.1.1,60.19491112074511,
,30,넌 다정해,1,Orange,A,5.833333333333334,5.7,ScrollDown,ScrollUp,Orange.png,4,Positive,Congruent,0,0,0,0,,,,,,,,,,,,,,,,,,,,,,,,,0,29,29,29,,,,,,,,,,,,,,,,,,,,,,,,,,,,,,,,,,,,,,,,,,,,,,,,,,,,,,,,,,,,,,,,,,,,,,,,,1,1.04644659999758,571.17649849999,None,ScrollDown,정답입니다,571.17649849999,None,571.17649849999,None,571.17649849999,None,571.17649849999,None,572.1209725000081,None,572.1209725000081,572.6209525000304,,,,,,,,,,,,,,,,025,2022-05-19_14h04.08.361,FishGame,2022.1.1,60.19491112074511,
,31,넌 능력있어,2,Green,B,6.166666666666666,4.6,ScrollUp,ScrollDown,Green.png,4,Positive,Incongruent,0,0,0,0,,,,,,,,,,,,,,,,,,,,,,,,,0,30,30,30,,,,,,,,,,,,,,,,,,,,,,,,,,,,,,,,,,,,,,,,,,,,,,,,,,,,,,,,,,,,,,,,,,,,,,,,,2,1.1226288999896497,573.2364461999969,None,ScrollUp,정답입니다,573.2364461999969,None,573.2364461999969,None,573.2364461999969,None,573.2364461999969,None,574.2639651999925,None,574.2639651999925,574.7684026000206,,,,,,,,,,,,,,,,025,2022-05-19_14h04.08.361,FishGame,2022.1.1,60.19491112074511,
,32,넌 불쾌해,5,Orange,A,2.125,1.933333333333333,ScrollDown,ScrollUp,Orange.png,4,Negative,Incongruent,0,0,0,0,,,,,,,,,,,,,,,,,,,,,,,,,0,31,31,31,,,,,,,,,,,,,,,,,,,,,,,,,,,,,,,,,,,,,,,,,,,,,,,,,,,,,,,,,,,,,,,,,,,,,,,,,1,1.4110366000095382,575.3837276999839,None,ScrollDown,정답입니다,575.3837276999839,None,575.3837276999839,None,575.3837276999839,None,575.3837276999839,None,576.7016732000047,None,576.7016732000047,577.204264400003,,,,,,,,,,,,,,,,025,2022-05-19_14h04.08.361,FishGame,2022.1.1,60.19491112074511,
,33,나를 데려가줘,6,Green,B,0,0,ScrollDown,ScrollUp,Green.png,4,NonTarget,NonTarget,0,0,0,0,,,,,,,,,,,,,,,,,,,,,,,,,0,32,32,32,,,,,,,,,,,,,,,,,,,,,,,,,,,,,,,,,,,,,,,,,,,,,,,,,,,,,,,,,,,,,,,,,,,,,,,,,1,1.1633469000225887,577.8177069000085,None,ScrollDown,정답입니다,577.8177069000085,None,577.8177069000085,None,577.8177069000085,None,577.8177069000085,None,578.8874716000282,None,578.8874716000282,579.387515600014,,,,,,,,,,,,,,,,025,2022-05-19_14h04.08.361,FishGame,2022.1.1,60.19491112074511,
,34,넌 유순해,3,Orange,A,4.458333333333333,5,ScrollDown,ScrollUp,Orange.png,4,Neutral,Neutral,0,0,0,0,,,,,,,,,,,,,,,,,,,,,,,,,0,33,33,33,,,,,,,,,,,,,,,,,,,,,,,,,,,,,,,,,,,,,,,,,,,,,,,,,,,,,,,,,,,,,,,,,,,,,,,,,1,1.0255486000096425,580.0041500999941,None,ScrollDown,정답입니다,580.0041500999941,None,580.0041500999941,None,580.0041500999941,None,580.0041500999941,None,580.9373449999839,None,580.9373449999839,581.4539862999809,,,,,,,,,,,,,,,,025,2022-05-19_14h04.08.361,FishGame,2022.1.1,60.19491112074511,
,35,넌 근심스러워,4,Green,B,2.708333333333333,3.133333333333333,ScrollUp,ScrollDown,Green.png,4,Negative,Congruent,0,0,0,0,,,,,,,,,,,,,,,,,,,,,,,,,0,34,34,34,,,,,,,,,,,,,,,,,,,,,,,,,,,,,,,,,,,,,,,,,,,,,,,,,,,,,,,,,,,,,,,,,,,,,,,,,1,1.192006700031925,582.0703854999738,None,ScrollDown,오답입니다,582.0703854999738,None,582.0703854999738,None,582.0703854999738,None,582.0703854999738,None,583.1517520999769,None,583.1517520999769,583.6539764999761,,,,,,,,,,,,,,,,025,2022-05-19_14h04.08.361,FishGame,2022.1.1,60.19491112074511,
,36,넌 세련되었어,2,Orange,A,5.5,4.6,ScrollDown,ScrollUp,Orange.png,4,Positive,Congruent,0,0,0,0,,,,,,,,,,,,,,,,,,,,,,,,,0,35,35,35,,,,,,,,,,,,,,,,,,,,,,,,,,,,,,,,,,,,,,,,,,,,,,,,,,,,,,,,,,,,,,,,,,,,,,,,,1,1.0273846999625675,584.2831985999946,None,ScrollDown,정답입니다,584.2831985999946,None,584.2831985999946,None,584.2831985999946,None,584.2831985999946,None,585.203970099974,None,585.203970099974,585.7038518000045,,,,,,,,,,,,,,,,025,2022-05-19_14h04.08.361,FishGame,2022.1.1,60.19491112074511,
,37,나를 보내줘,6,Orange,A,0,0,ScrollUp,ScrollDown,Orange.png,4,NonTarget,NonTarget,0,0,0,0,,,,,,,,,,,,,,,,,,,,,,,,,0,36,36,36,,,,,,,,,,,,,,,,,,,,,,,,,,,,,,,,,,,,,,,,,,,,,,,,,,,,,,,,,,,,,,,,,,,,,,,,,1.9891975224018097,1.342809199995827,586.3373703000252,None,ScrollUp,정답입니다,586.3373703000252,None,586.3373703000252,None,586.3373703000252,None,586.3373703000252,None,587.5849938999745,None,587.5849938999745,588.0871620000107,,,,,,,,,,,,,,,,025,2022-05-19_14h04.08.361,FishGame,2022.1.1,60.19491112074511,
,38,넌 확고해,3,Green,B,4.708333333333334,4.566666666666666,ScrollUp,ScrollDown,Green.png,4,Neutral,Neutral,0,0,0,0,,,,,,,,,,,,,,,,,,,,,,,,,0,37,37,37,,,,,,,,,,,,,,,,,,,,,,,,,,,,,,,,,,,,,,,,,,,,,,,,,,,,,,,,,,,,,,,,,,,,,,,,,1.9567901293436687,1.3758323999936692,588.7143933000043,None,ScrollUp,정답입니다,588.7143933000043,None,588.7143933000043,None,588.7143933000043,None,588.7143933000043,None,589.9849960000138,None,589.9849960000138,590.4871878999984,,,,,,,,,,,,,,,,025,2022-05-19_14h04.08.361,FishGame,2022.1.1,60.19491112074511,
,39,넌 이해심이 많아,1,Green,B,6.041666666666668,5.533333333333333,ScrollUp,ScrollDown,Green.png,4,Positive,Incongruent,0,0,0,0,,,,,,,,,,,,,,,,,,,,,,,,,0,38,38,38,,,,,,,,,,,,,,,,,,,,,,,,,,,,,,,,,,,,,,,,,,,,,,,,,,,,,,,,,,,,,,,,,,,,,,,,,1.9675925771395366,1.0925012999796309,591.1106131999986,None,ScrollUp,정답입니다,591.1106131999986,None,591.1106131999986,None,591.1106131999986,None,591.1106131999986,None,592.103710299998,None,592.103710299998,592.6015960000223,,,,,,,,,,,,,,,,025,2022-05-19_14h04.08.361,FishGame,2022.1.1,60.19491112074511,
,40,나를 보내줘,6,Orange,A,0,0,ScrollUp,ScrollDown,Orange.png,4,NonTarget,NonTarget,0,0,0,0,,,,,,,,,,,,,,,,,,,,,,,,,0,39,39,39,,,,,,,,,,,,,,,,,,,,,,,,,,,,,,,,,,,,,,,,,,,,,,,,,,,,,,,,,,,,,,,,,,,,,,,,,1.9351851840813954,1.2591342000523582,593.2215637000045,None,ScrollUp,정답입니다,593.2215637000045,None,593.2215637000045,None,593.2215637000045,None,593.2215637000045,None,594.3848752999911,None,594.3848752999911,594.8870983999805,,,,,,,,,,,,,,,,025,2022-05-19_14h04.08.361,FishGame,2022.1.1,60.19491112074511,
,41,넌 거칠어,4,Orange,A,2.625,3.033333333333333,ScrollDown,ScrollUp,Orange.png,4,Negative,Incongruent,0,0,0,0,,,,,,,,,,,,,,,,,,,,,,,,,0,40,40,40,,,,,,,,,,,,,,,,,,,,,,,,,,,,,,,,,,,,,,,,,,,,,,,,,,,,,,,,,,,,,,,,,,,,,,,,,1.0740740497907002,1.9592379999812692,595.5117713999934,None,ScrollDown,정답입니다,595.5117713999934,None,595.5117713999934,None,595.5117713999934,None,595.5117713999934,None,597.367864299973,None,597.367864299973,597.8679317000206,,,,,,,,,,,,,,,,025,2022-05-19_14h04.08.361,FishGame,2022.1.1,60.19491112074511,
,42,넌 변덕맞아,5,Green,B,2.75,2.166666666666667,ScrollUp,ScrollDown,Green.png,4,Negative,Congruent,0,0,0,0,,,,,,,,,,,,,,,,,,,,,,,,,0,41,41,41,,,,,,,,,,,,,,,,,,,,,,,,,,,,,,,,,,,,,,,,,,,,,,,,,,,,,,,,,,,,,,,,,,,,,,,,,1.859567900498708,1.59689669997897,598.4863973999745,None,ScrollUp,정답입니다,598.4863973999745,None,598.4863973999745,None,598.4863973999745,None,598.4863973999745,None,599.9870496999938,None,599.9870496999938,600.4871416999958,,,,,,,,,,,,,,,,025,2022-05-19_14h04.08.361,FishGame,2022.1.1,60.19491112074511,
,43,나를 데려가줘,6,Green,B,0,0,ScrollDown,ScrollUp,Green.png,4,NonTarget,NonTarget,0,0,0,0,,,,,,,,,,,,,,,,,,,,,,,,,0,42,42,42,,,,,,,,,,,,,,,,,,,,,,,,,,,,,,,,,,,,,,,,,,,,,,,,,,,,,,,,,,,,,,,,,,,,,,,,,1,1.6089376999880187,601.1052651000209,None,ScrollDown,정답입니다,601.1052651000209,None,601.1052651000209,None,601.1052651000209,None,601.1052651000209,None,602.6180680000107,None,602.6180680000107,603.1202107000281,,,,,,,,,,,,,,,,025,2022-05-19_14h04.08.361,FishGame,2022.1.1,60.19491112074511,
,44,넌 외로워,4,Green,B,2.833333333333333,3.3,ScrollUp,ScrollDown,Green.png,4,Negative,Congruent,0,0,0,0,,,,,,,,,,,,,,,,,,,,,,,,,0,43,43,43,,,,,,,,,,,,,,,,,,,,,,,,,,,,,,,,,,,,,,,,,,,,,,,,,,,,,,,,,,,,,,,,,,,,,,,,,1,1.4425235000089742,603.7437458999921,None,ScrollDown,오답입니다,603.7437458999921,None,603.7437458999921,None,603.7437458999921,None,603.7437458999921,None,605.0846202999819,None,605.0846202999819,605.5844349000254,,,,,,,,,,,,,,,,025,2022-05-19_14h04.08.361,FishGame,2022.1.1,60.19491112074511,
,1,넌 불평스러워,5,Orange,A,2.25,2.066666666666667,ScrollDown,ScrollUp,Orange.png,5,Negative,Incongruent,0,0,0,0,,,,,,,,,,,,,,,,,,,,,,,,,,,,,0,0,0,0,,,,,,,,,,,,,,,,,,,,,,,,,,,,638.033999599982,639.5362986000255,639.5696383999893,640.5175995000172,640.5696660000249,641.5363180999993,641.519603200024,None,,,,,,,,,,,,,,,,,,,,,,,,,,,,,,,,,,1.0262345671653748,1.4450037999777123,642.6191789000295,None,ScrollDown,정답입니다,642.6191789000295,None,642.6191789000295,None,642.6191789000295,None,642.6191789000295,None,643.9672181999777,None,643.9672181999777,644.4694018000155,606.0844741999754,None,606.0844741999754,None,-0.16481481,-0.11574074,1,0,0,0.016200819984078407,None,636.0843481000047,None,,,025,2022-05-19_14h04.08.361,FishGame,2022.1.1,60.19491112074511,
,2,나를 보내줘,6,Orange,A,0,0,ScrollUp,ScrollDown,Orange.png,5,NonTarget,NonTarget,0,0,0,0,,,,,,,,,,,,,,,,,,,,,,,,,,,,,0,1,1,1,,,,,,,,,,,,,,,,,,,,,,,,,,,,,,,,,,,,,,,,,,,,,,,,,,,,,,,,,,,,,,,,,,,,,1.8657407313585281,1.2057344000204466,645.0944618000067,None,ScrollUp,정답입니다,645.0944618000067,None,645.0944618000067,None,645.0944618000067,None,645.0944618000067,None,646.2001892999979,None,646.2001892999979,646.7002788999816,,,,,,,,,,,,,,,,025,2022-05-19_14h04.08.361,FishGame,2022.1.1,60.19491112074511,
,3,넌 다재다능해,2,Green,B,6.208333333333333,4.5,ScrollUp,ScrollDown,Green.png,5,Positive,Incongruent,0,0,0,0,,,,,,,,,,,,,,,,,,,,,,,,,,,,,0,2,2,2,,,,,,,,,,,,,,,,,,,,,,,,,,,,,,,,,,,,,,,,,,,,,,,,,,,,,,,,,,,,,,,,,,,,,1.9290123283863068,1.2296406999812461,647.3195298999781,None,ScrollUp,정답입니다,647.3195298999781,None,647.3195298999781,None,647.3195298999781,None,647.3195298999781,None,648.4526968999999,None,648.4526968999999,648.9527378000203,,,,,,,,,,,,,,,,025,2022-05-19_14h04.08.361,FishGame,2022.1.1,60.19491112074511,
,4,넌 과감해,3,Orange,A,4.833333333333334,4.6,ScrollDown,ScrollUp,Orange.png,5,Neutral,Neutral,0,0,0,0,,,,,,,,,,,,,,,,,,,,,,,,,,,,,0,3,3,3,,,,,,,,,,,,,,,,,,,,,,,,,,,,,,,,,,,,,,,,,,,,,,,,,,,,,,,,,,,,,,,,,,,,,1.0061728358268738,1.0104187999968417,649.5730962000089,None,ScrollDown,정답입니다,649.5730962000089,None,649.5730962000089,None,649.5730962000089,None,649.5730962000089,None,650.4862579000182,None,650.4862579000182,650.9858906000154,,,,,,,,,,,,,,,,025,2022-05-19_14h04.08.361,FishGame,2022.1.1,60.19491112074511,
,5,넌 고분고분해,3,Green,B,3.75,4.033333333333333,ScrollUp,ScrollDown,Green.png,5,Neutral,Neutral,0,0,0,0,,,,,,,,,,,,,,,,,,,,,,,,,,,,,0,4,4,4,,,,,,,,,,,,,,,,,,,,,,,,,,,,,,,,,,,,,,,,,,,,,,,,,,,,,,,,,,,,,,,,,,,,,1.9074074079593022,1.1592658999725245,651.6067903999938,None,ScrollUp,정답입니다,651.6067903999938,None,651.6067903999938,None,651.6067903999938,None,651.6067903999938,None,652.6691949000233,None,652.6691949000233,653.1692273999797,,,,,,,,,,,,,,,,025,2022-05-19_14h04.08.361,FishGame,2022.1.1,60.19491112074511,
,6,나를 보내줘,6,Orange,A,0,0,ScrollUp,ScrollDown,Orange.png,5,NonTarget,NonTarget,0,0,0,0,,,,,,,,,,,,,,,,,,,,,,,,,,,,,0,5,5,5,,,,,,,,,,,,,,,,,,,,,,,,,,,,,,,,,,,,,,,,,,,,,,,,,,,,,,,,,,,,,,,,,,,,,1.9135802388191223,1.3421955999801867,653.7876872000052,None,ScrollUp,정답입니다,653.7876872000052,None,653.7876872000052,None,653.7876872000052,None,653.7876872000052,None,655.0335661999998,None,655.0335661999998,655.5357808999834,,,,,,,,,,,,,,,,025,2022-05-19_14h04.08.361,FishGame,2022.1.1,60.19491112074511,
,7,넌 잘 잊어,4,Orange,A,3,3.7,ScrollDown,ScrollUp,Orange.png,5,Negative,Incongruent,0,0,0,0,,,,,,,,,,,,,,,,,,,,,,,,,,,,,0,6,6,6,,,,,,,,,,,,,,,,,,,,,,,,,,,,,,,,,,,,,,,,,,,,,,,,,,,,,,,,,,,,,,,,,,,,,1,1.45887200004654,656.1689431000268,None,ScrollDown,정답입니다,656.1689431000268,None,656.1689431000268,None,656.1689431000268,None,656.1689431000268,None,657.5190891000093,None,657.5190891000093,658.0191770999809,,,,,,,,,,,,,,,,025,2022-05-19_14h04.08.361,FishGame,2022.1.1,60.19491112074511,
,8,넌 탐구심이없어,4,Green,B,2.833333333333333,3.066666666666667,ScrollUp,ScrollDown,Green.png,5,Negative,Congruent,0,0,0,0,,,,,,,,,,,,,,,,,,,,,,,,,,,,,0,7,7,7,,,,,,,,,,,,,,,,,,,,,,,,,,,,,,,,,,,,,,,,,,,,,,,,,,,,,,,,,,,,,,,,,,,,,1.9305555423100789,1.092620400013402,658.6412488999777,None,ScrollUp,정답입니다,658.6412488999777,None,658.6412488999777,None,658.6412488999777,None,658.6412488999777,None,659.6332470999914,None,659.6332470999914,660.1333242999972,,,,,,,,,,,,,,,,025,2022-05-19_14h04.08.361,FishGame,2022.1.1,60.19491112074511,
,9,나를 데려가줘,6,Green,B,0,0,ScrollDown,ScrollUp,Green.png,5,NonTarget,NonTarget,0,0,0,0,,,,,,,,,,,,,,,,,,,,,,,,,,,,,0,8,8,8,,,,,,,,,,,,,,,,,,,,,,,,,,,,,,,,,,,,,,,,,,,,,,,,,,,,,,,,,,,,,,,,,,,,,1,1.2469711000449024,660.7519013999845,None,ScrollDown,정답입니다,660.7519013999845,None,660.7519013999845,None,660.7519013999845,None,660.7519013999845,None,661.9024621000281,None,661.9024621000281,662.4024471000303,,,,,,,,,,,,,,,,025,2022-05-19_14h04.08.361,FishGame,2022.1.1,60.19491112074511,
,10,넌 참되어,2,Orange,A,6.041666666666664,4.733333333333333,ScrollDown,ScrollUp,Orange.png,5,Positive,Congruent,0,0,0,0,,,,,,,,,,,,,,,,,,,,,,,,,,,,,0,9,9,9,,,,,,,,,,,,,,,,,,,,,,,,,,,,,,,,,,,,,,,,,,,,,,,,,,,,,,,,,,,,,,,,,,,,,1,1.0213494000490755,663.019927699992,None,ScrollDown,정답입니다,663.019927699992,None,663.019927699992,None,663.019927699992,None,663.019927699992,None,663.9334517000243,None,663.9334517000243,664.4356372000184,,,,,,,,,,,,,,,,025,2022-05-19_14h04.08.361,FishGame,2022.1.1,60.19491112074511,
,11,넌 생기있어,1,Green,B,5.875,5.633333333333334,ScrollUp,ScrollDown,Green.png,5,Positive,Incongruent,0,0,0,0,,,,,,,,,,,,,,,,,,,,,,,,,,,,,0,10,10,10,,,,,,,,,,,,,,,,,,,,,,,,,,,,,,,,,,,,,,,,,,,,,,,,,,,,,,,,,,,,,,,,,,,,,1.8101851791143417,1.0088094000238925,665.0540472000139,None,ScrollUp,정답입니다,665.0540472000139,None,665.0540472000139,None,665.0540472000139,None,665.0540472000139,None,665.9667639000108,None,665.9667639000108,666.468990000023,,,,,,,,,,,,,,,,025,2022-05-19_14h04.08.361,FishGame,2022.1.1,60.19491112074511,
,12,넌 비사교적이야,4,Green,B,2.875,2.9,ScrollUp,ScrollDown,Green.png,5,Negative,Congruent,0,0,0,0,,,,,,,,,,,,,,,,,,,,,,,,,,,,,0,11,11,11,,,,,,,,,,,,,,,,,,,,,,,,,,,,,,,,,,,,,,,,,,,,,,,,,,,,,,,,,,,,,,,,,,,,,1.9444444676240284,1.0984217000077479,667.0791019999888,None,ScrollUp,정답입니다,667.0791019999888,None,667.0791019999888,None,667.0791019999888,None,667.0791019999888,None,668.0833894999814,None,668.0833894999814,668.5855133000296,,,,,,,,,,,,,,,,025,2022-05-19_14h04.08.361,FishGame,2022.1.1,60.19491112074511,
,13,나를 데려가줘,6,Green,B,0,0,ScrollDown,ScrollUp,Green.png,5,NonTarget,NonTarget,0,0,0,0,,,,,,,,,,,,,,,,,,,,,,,,,,,,,0,12,12,12,,,,,,,,,,,,,,,,,,,,,,,,,,,,,,,,,,,,,,,,,,,,,,,,,,,,,,,,,,,,,,,,,,,,,1,1.4755340999690816,669.2037751000025,None,ScrollDown,정답입니다,669.2037751000025,None,669.2037751000025,None,669.2037751000025,None,669.2037751000025,None,670.5854759999784,None,670.5854759999784,671.0855157999904,,,,,,,,,,,,,,,,025,2022-05-19_14h04.08.361,FishGame,2022.1.1,60.19491112074511,
,14,넌 고독해,4,Orange,A,2.916666666666667,3.233333333333333,ScrollDown,ScrollUp,Orange.png,5,Negative,Incongruent,0,0,0,0,,,,,,,,,,,,,,,,,,,,,,,,,,,,,0,13,13,13,,,,,,,,,,,,,,,,,,,,,,,,,,,,,,,,,,,,,,,,,,,,,,,,,,,,,,,,,,,,,,,,,,,,,1,1.259193400037475,671.7014945999836,None,ScrollDown,정답입니다,671.7014945999836,None,671.7014945999836,None,671.7014945999836,None,671.7014945999836,None,672.866314599989,None,672.866314599989,673.3663764999947,,,,,,,,,,,,,,,,025,2022-05-19_14h04.08.361,FishGame,2022.1.1,60.19491112074511,
,15,넌 신경질적이야,5,Green,B,2.375,2.233333333333333,ScrollUp,ScrollDown,Green.png,5,Negative,Congruent,0,0,0,0,,,,,,,,,,,,,,,,,,,,,,,,,,,,,0,14,14,14,,,,,,,,,,,,,,,,,,,,,,,,,,,,,,,,,,,,,,,,,,,,,,,,,,,,,,,,,,,,,,,,,,,,,1.8364197413126628,1.0812767000170425,673.9850163999945,None,ScrollUp,정답입니다,673.9850163999945,None,673.9850163999945,None,673.9850163999945,None,673.9850163999945,None,674.9688604000257,None,674.9688604000257,675.4688741000136,,,,,,,,,,,,,,,,025,2022-05-19_14h04.08.361,FishGame,2022.1.1,60.19491112074511,
,16,넌 똑똑해,2,Green,B,5.666666666666667,3.966666666666667,ScrollUp,ScrollDown,Green.png,5,Positive,Incongruent,0,0,0,0,,,,,,,,,,,,,,,,,,,,,,,,,,,,,0,15,15,15,,,,,,,,,,,,,,,,,,,,,,,,,,,,,,,,,,,,,,,,,,,,,,,,,,,,,,,,,,,,,,,,,,,,,2,1.0646320000523701,676.0802688000258,None,ScrollUp,정답입니다,676.0802688000258,None,676.0802688000258,None,676.0802688000258,None,676.0802688000258,None,677.0498424000107,None,677.0498424000107,677.5519772000262,,,,,,,,,,,,,,,,025,2022-05-19_14h04.08.361,FishGame,2022.1.1,60.19491112074511,
,17,나를 보내줘,6,Orange,A,0,0,ScrollUp,ScrollDown,Orange.png,5,NonTarget,NonTarget,0,0,0,0,,,,,,,,,,,,,,,,,,,,,,,,,,,,,0,16,16,16,,,,,,,,,,,,,,,,,,,,,,,,,,,,,,,,,,,,,,,,,,,,,,,,,,,,,,,,,,,,,,,,,,,,,1.959876557191213,1.5259580999845639,678.1679789000191,None,ScrollUp,정답입니다,678.1679789000191,None,678.1679789000191,None,678.1679789000191,None,678.1679789000191,None,679.6019732999848,None,679.6019732999848,680.1052340000169,,,,,,,,,,,,,,,,025,2022-05-19_14h04.08.361,FishGame,2022.1.1,60.19491112074511,
,18,넌 협조적이야,1,Orange,A,5.625,5.666666666666667,ScrollDown,ScrollUp,Orange.png,5,Positive,Congruent,0,0,0,0,,,,,,,,,,,,,,,,,,,,,,,,,,,,,0,17,17,17,,,,,,,,,,,,,,,,,,,,,,,,,,,,,,,,,,,,,,,,,,,,,,,,,,,,,,,,,,,,,,,,,,,,,1.0493827263514202,0.9621811999822967,680.7342660999857,None,ScrollDown,정답입니다,680.7342660999857,None,680.7342660999857,None,680.7342660999857,None,680.7342660999857,None,681.5996989000123,None,681.5996989000123,682.1019493999775,,,,,,,,,,,,,,,,025,2022-05-19_14h04.08.361,FishGame,2022.1.1,60.19491112074511,
,19,나를 데려가줘,6,Green,B,0,0,ScrollDown,ScrollUp,Green.png,5,NonTarget,NonTarget,0,0,0,0,,,,,,,,,,,,,,,,,,,,,,,,,,,,,0,18,18,18,,,,,,,,,,,,,,,,,,,,,,,,,,,,,,,,,,,,,,,,,,,,,,,,,,,,,,,,,,,,,,,,,,,,,1,1.5093063000240363,682.7187193999998,None,ScrollDown,정답입니다,682.7187193999998,None,682.7187193999998,None,682.7187193999998,None,682.7187193999998,None,684.133041699999,None,684.133041699999,684.6352954999893,,,,,,,,,,,,,,,,025,2022-05-19_14h04.08.361,FishGame,2022.1.1,60.19491112074511,
,20,넌 몰인정해,5,Green,B,2.541666666666667,2.066666666666667,ScrollUp,ScrollDown,Green.png,5,Negative,Congruent,0,0,0,0,,,,,,,,,,,,,,,,,,,,,,,,,,,,,0,19,19,19,,,,,,,,,,,,,,,,,,,,,,,,,,,,,,,,,,,,,,,,,,,,,,,,,,,,,,,,,,,,,,,,,,,,,1.983024666706721,1.0086478000157513,685.2603248999803,None,ScrollUp,정답입니다,685.2603248999803,None,685.2603248999803,None,685.2603248999803,None,685.2603248999803,None,686.1660442000139,None,686.1660442000139,686.6661028999952,,,,,,,,,,,,,,,,025,2022-05-19_14h04.08.361,FishGame,2022.1.1,60.19491112074511,
,21,나를 데려가줘,6,Green,B,0,0,ScrollDown,ScrollUp,Green.png,5,NonTarget,NonTarget,0,0,0,0,,,,,,,,,,,,,,,,,,,,,,,,,,,,,0,20,20,20,,,,,,,,,,,,,,,,,,,,,,,,,,,,,,,,,,,,,,,,,,,,,,,,,,,,,,,,,,,,,,,,,,,,,1,1.0949046000023372,687.289618699986,None,ScrollDown,정답입니다,687.289618699986,None,687.289618699986,None,687.289618699986,None,687.289618699986,None,688.2827171999961,None,688.2827171999961,688.7852459999849,,,,,,,,,,,,,,,,025,2022-05-19_14h04.08.361,FishGame,2022.1.1,60.19491112074511,
,22,넌 순진해,3,Green,B,4.125,4.166666666666667,ScrollUp,ScrollDown,Green.png,5,Neutral,Neutral,0,0,0,0,,,,,,,,,,,,,,,,,,,,,,,,,,,,,0,21,21,21,,,,,,,,,,,,,,,,,,,,,,,,,,,,,,,,,,,,,,,,,,,,,,,,,,,,,,,,,,,,,,,,,,,,,1.9027777661879857,1.031500999990385,689.3958401000127,None,ScrollUp,정답입니다,689.3958401000127,None,689.3958401000127,None,689.3958401000127,None,689.3958401000127,None,690.3383420999744,None,690.3383420999744,690.8517528999946,,,,,,,,,,,,,,,,025,2022-05-19_14h04.08.361,FishGame,2022.1.1,60.19491112074511,
,23,넌 신뢰할만해,1,Orange,A,6.625,5.533333333333333,ScrollDown,ScrollUp,Orange.png,5,Positive,Congruent,0,0,0,0,,,,,,,,,,,,,,,,,,,,,,,,,,,,,0,22,22,22,,,,,,,,,,,,,,,,,,,,,,,,,,,,,,,,,,,,,,,,,,,,,,,,,,,,,,,,,,,,,,,,,,,,,1,0.9426536000100896,691.4606157999951,None,ScrollDown,정답입니다,691.4606157999951,None,691.4606157999951,None,691.4606157999951,None,691.4606157999951,None,692.299547099974,None,692.299547099974,692.7995431000018,,,,,,,,,,,,,,,,025,2022-05-19_14h04.08.361,FishGame,2022.1.1,60.19491112074511,
,24,나를 보내줘,6,Orange,A,0,0,ScrollUp,ScrollDown,Orange.png,5,NonTarget,NonTarget,0,0,0,0,,,,,,,,,,,,,,,,,,,,,,,,,,,,,0,23,23,23,,,,,,,,,,,,,,,,,,,,,,,,,,,,,,,,,,,,,,,,,,,,,,,,,,,,,,,,,,,,,,,,,,,,,1.9737654328346252,1.5089666999992914,693.4193302000058,None,ScrollUp,정답입니다,693.4193302000058,None,693.4193302000058,None,693.4193302000058,None,693.4193302000058,None,694.8349600000074,None,694.8349600000074,695.3349376000115,,,,,,,,,,,,,,,,025,2022-05-19_14h04.08.361,FishGame,2022.1.1,60.19491112074511,
