name,TrialNum,Word,WordCategory,FishType,WordList,WordValence,WordReputation,CorrectResp,IncorrectResp,FishTypeFile,Round,WordType,Condition,LoopforOrange.thisRepN,LoopforOrange.thisTrialN,LoopforOrange.thisN,LoopforOrange.thisIndex,LoopForGreen.thisRepN,LoopForGreen.thisTrialN,LoopForGreen.thisN,LoopForGreen.thisIndex,GreenInstLoop.thisRepN,GreenInstLoop.thisTrialN,GreenInstLoop.thisN,GreenInstLoop.thisIndex,GreenPrac.thisRepN,GreenPrac.thisTrialN,GreenPrac.thisN,GreenPrac.thisIndex,trials_2.thisRepN,trials_2.thisTrialN,trials_2.thisN,trials_2.thisIndex,GreenRound1.thisRepN,GreenRound1.thisTrialN,GreenRound1.thisN,GreenRound1.thisIndex,GreenRound2.thisRepN,GreenRound2.thisTrialN,GreenRound2.thisN,GreenRound2.thisIndex,GreenRound3.thisRepN,GreenRound3.thisTrialN,GreenRound3.thisN,GreenRound3.thisIndex,GreenRound4.thisRepN,GreenRound4.thisTrialN,GreenRound4.thisN,GreenRound4.thisIndex,GreenRound5.thisRepN,GreenRound5.thisTrialN,GreenRound5.thisN,GreenRound5.thisIndex,text_2.started,text_2.stopped,text_3.started,text_3.stopped,key_resp.keys,key_resp.rt,key_resp.started,key_resp.stopped,PassI.started,PassI.stopped,PassInst.keys,PassInst.rt,PassInst.started,PassInst.stopped,mouse_2.x,mouse_2.y,mouse_2.leftButton,mouse_2.midButton,mouse_2.rightButton,mouse_2.started,mouse_2.stopped,image.started,image.stopped,text_5.started,text_5.stopped,text_6.started,text_6.stopped,text_7.started,text_7.stopped,text_8.started,text_8.stopped,slider_3.response,slider_3.rt,slider_3.started,slider_3.stopped,Response_3,Feedback_3,BackGround_3.started,BackGround_3.stopped,Fish_3.started,Fish_3.stopped,WordBox_3.started,WordBox_3.stopped,Words_3.started,Words_3.stopped,BackGround_Feedback_3.started,BackGround_Feedback_3.stopped,Feedbacks_3.started,Feedbacks_3.stopped,Continue_or_not_2.keys,Continue_or_not_2.rt,Continue_or_not_2.started,Continue_or_not_2.stopped,image_4.started,image_4.stopped,mouse_3.x,mouse_3.y,mouse_3.leftButton,mouse_3.midButton,mouse_3.rightButton,mouse_3.started,mouse_3.stopped,startmain.started,startmain.stopped,slider_4.response,slider_4.rt,slider_4.started,slider_4.stopped,Response_4,Feedback_4,BackGround_4.started,BackGround_4.stopped,Fish_4.started,Fish_4.stopped,WordBox_4.started,WordBox_4.stopped,Words_4.started,Words_4.stopped,BackGround_Feedback_4.started,BackGround_Feedback_4.stopped,Feedbacks_4.started,Feedbacks_4.stopped,text.started,text.stopped,break_interval.started,break_interval.stopped,mouse.x,mouse.y,mouse.leftButton,mouse.midButton,mouse.rightButton,mouse.started,mouse.stopped,stratnextround.started,stratnextround.stopped,endgame.started,endgame.stopped,participant,date,expName,psychopyVersion,frameRate,
,,,,,,,,,,,,,,,,,,,,,,,,,,,,,,,,,,,,,,,,,,,,,,,,,,,,,,16.901565000007395,None,16.901565000007395,None,space,0.8933403000119142,17.38082259998191,None,,,,,,,,,,,,,,,,,,,,,,,,,,,,,,,,,,,,,,,,,,,,,,,,,,,,,,,,,,,,,,,,,,,,,,,,,,,,,,,,,,,,,,,,,,026,2022-05-19_19h46.12.837,FishGame,2022.1.1,60.00758496060822,
물고기과제_instruction(참가자용)GreenVersion.mp4,,,,,,,,,,,,,,,,,,0,0,0,0,0,0,0,0,,,,,,,,,,,,,,,,,,,,,,,,,,,,,,,,,,,,,90.54303050000453,None,n,1.5548234999878332,90.54303050000453,None,,,,,,,,,,,,,,,,,,,,,,,,,,,,,,,,,,,,,,,,,,,,,,,,,,,,,,,,,,,,,,,,,,,,,,,,,,,,,,,,,,,,026,2022-05-19_19h46.12.837,FishGame,2022.1.1,60.00758496060822,
,1,넌 교활해,5,Orange,B,2.333333333333333,2.133333333333333,ScrollUp,ScrollDown,Orange.png,practice,,,,,,,0,0,0,0,,,,,0,0,0,0,0,0,0,0,,,,,,,,,,,,,,,,,,,,,,,,,,,,,,,,,,,0.58518517,-0.14629629,1,0,0,0.5128351500025019,None,92.12956630002009,None,95.057251500024,96.5594623000361,96.59279199998127,97.54589509998914,97.5958687000093,98.55706040002406,98.54275369999232,None,2,2.6991726999985985,99.8208459999878,None,ScrollUp,정답입니다,99.8208459999878,None,99.8208459999878,None,99.8208459999878,None,99.8208459999878,None,102.22816180001246,None,102.22816180001246,102.74266230000649,,,,,,,,,,,,,,,,,,,,,,,,,,,,,,,,,,,,,,,,,,,,,,,,,026,2022-05-19_19h46.12.837,FishGame,2022.1.1,60.00758496060822,
,2,넌 슬기로워,2,Green,A,6.166666666666667,4.1,ScrollDown,ScrollUp,Green.png,practice,,,,,,,0,0,0,0,,,,,0,0,0,0,0,1,1,1,,,,,,,,,,,,,,,,,,,,,,,,,,,,,,,,,,,,,,,,,,,,,,,,,,,,1,1.2927370999823324,103.36714099999517,None,ScrollDown,정답입니다,103.36714099999517,None,103.36714099999517,None,103.36714099999517,None,103.36714099999517,None,104.55928500002483,None,104.55928500002483,105.05694680003216,,,,,,,,,,,,,,,,,,,,,,,,,,,,,,,,,,,,,,,,,,,,,,,,,026,2022-05-19_19h46.12.837,FishGame,2022.1.1,60.00758496060822,
,3,나를 보내줘,6,Green,A,0,0,ScrollUp,ScrollDown,Green.png,practice,,,,,,,0,0,0,0,,,,,0,0,0,0,0,2,2,2,,,,,,,,,,,,,,,,,,,,,,,,,,,,,,,,,,,,,,,,,,,,,,,,,,,,2,1.3451688999775797,105.69529649999458,None,ScrollUp,정답입니다,105.69529649999458,None,105.69529649999458,None,105.69529649999458,None,105.69529649999458,None,106.9402799999807,None,106.9402799999807,107.44243190000998,,,,,,,,,,,,,,,,,,,,,,,,,,,,,,,,,,,,,,,,,,,,,,,,,026,2022-05-19_19h46.12.837,FishGame,2022.1.1,60.00758496060822,
,4,나를 데려가줘,6,Orange,B,0,0,ScrollDown,ScrollUp,Orange.png,practice,,,,,,,0,0,0,0,,,,,0,0,0,0,0,3,3,3,,,,,,,,,,,,,,,,,,,,,,,,,,,,,,,,,,,,,,,,,,,,,,,,,,,,1,1.528066300030332,108.06431919999886,None,ScrollDown,정답입니다,108.06431919999886,None,108.06431919999886,None,108.06431919999886,None,108.06431919999886,None,109.48989690002054,None,109.48989690002054,109.98996169999009,,,,,,,,,,,,,,,,,,,,,,,,,,,,,,,,,,,,,,,,,,,,,,,,,026,2022-05-19_19h46.12.837,FishGame,2022.1.1,60.00758496060822,
,1,넌 교활해,5,Orange,B,2.333333333333333,2.133333333333333,ScrollUp,ScrollDown,Orange.png,practice,,,,,,,0,0,0,0,,,,,0,0,0,0,,,,,,,,,,,,,,,,,,,,,,,,,,,,,,,,,,,,,,,,,,,,,,,,,,,,,,,,,,,,,,,,,,,,,,,,,,n,5.816327599983197,110.48999269999331,None,110.48999269999331,None,,,,,,,,,,,,,,,,,,,,,,,,,,,,,,,,,,,,,,,,,,,026,2022-05-19_19h46.12.837,FishGame,2022.1.1,60.00758496060822,
,1,넌 따뜻해,1,Orange,B,6.083333333333333,5.6,ScrollUp,ScrollDown,Orange.png,1,Positive,Incongruent,,,,,0,0,0,0,,,,,,,,,,,,,0,0,0,0,,,,,,,,,,,,,,,,,,,,,,,,,,,,,,,,,,,,,,,,118.02342949999729,119.52567629999248,119.55898570001591,120.50671889999649,120.55900569999358,121.50903140002629,121.50903140002629,None,,,,,,,,,,,,,,,,,,,,,,,,,0.50277776,-0.15185185,1,0,0,0.29901705001248047,None,116.32340679998742,None,2,1.6180500999907963,122.8049276000238,None,ScrollUp,정답입니다,122.8049276000238,None,122.8049276000238,None,122.8049276000238,None,122.8049276000238,None,124.12322300003143,None,124.12322300003143,124.62544020003406,,,,,,,,,,,,,,,,026,2022-05-19_19h46.12.837,FishGame,2022.1.1,60.00758496060822,
,2,넌 기품있어,2,Orange,B,5.791666666666668,4.5,ScrollUp,ScrollDown,Orange.png,1,Positive,Incongruent,,,,,0,0,0,0,,,,,,,,,,,,,0,1,1,1,,,,,,,,,,,,,,,,,,,,,,,,,,,,,,,,,,,,,,,,,,,,,,,,,,,,,,,,,,,,,,,,,,,,,,,,,,,,,,,,,2,1.1443799000116996,125.2581865999964,None,ScrollUp,정답입니다,125.2581865999964,None,125.2581865999964,None,125.2581865999964,None,125.2581865999964,None,126.28979539999273,None,126.28979539999273,126.79207309999038,,,,,,,,,,,,,,,,026,2022-05-19_19h46.12.837,FishGame,2022.1.1,60.00758496060822,
,3,나를 보내줘,6,Green,A,0,0,ScrollUp,ScrollDown,Green.png,1,NonTarget,NonTarget,,,,,0,0,0,0,,,,,,,,,,,,,0,2,2,2,,,,,,,,,,,,,,,,,,,,,,,,,,,,,,,,,,,,,,,,,,,,,,,,,,,,,,,,,,,,,,,,,,,,,,,,,,,,,,,,,2,1.3127820999943651,127.41348749998724,None,ScrollUp,정답입니다,127.41348749998724,None,127.41348749998724,None,127.41348749998724,None,127.41348749998724,None,128.62536260002526,None,128.62536260002526,129.1231645999942,,,,,,,,,,,,,,,,026,2022-05-19_19h46.12.837,FishGame,2022.1.1,60.00758496060822,
,4,넌 수동적이야,4,Green,A,2.833333333333333,2.933333333333333,ScrollDown,ScrollUp,Green.png,1,Negative,Incongruent,,,,,0,0,0,0,,,,,,,,,,,,,0,3,3,3,,,,,,,,,,,,,,,,,,,,,,,,,,,,,,,,,,,,,,,,,,,,,,,,,,,,,,,,,,,,,,,,,,,,,,,,,,,,,,,,,1,1.3257032000110485,129.75169270002516,None,ScrollDown,정답입니다,129.75169270002516,None,129.75169270002516,None,129.75169270002516,None,129.75169270002516,None,130.97303550003562,None,130.97303550003562,131.4730855000089,,,,,,,,,,,,,,,,026,2022-05-19_19h46.12.837,FishGame,2022.1.1,60.00758496060822,
,5,넌 사심이 없어,3,Orange,B,4.916666666666666,4.333333333333333,ScrollUp,ScrollDown,Orange.png,1,Neutral,Neutral,,,,,0,0,0,0,,,,,,,,,,,,,0,4,4,4,,,,,,,,,,,,,,,,,,,,,,,,,,,,,,,,,,,,,,,,,,,,,,,,,,,,,,,,,,,,,,,,,,,,,,,,,,,,,,,,,2,1.4088255999959074,132.11018459999468,None,ScrollUp,정답입니다,132.11018459999468,None,132.11018459999468,None,132.11018459999468,None,132.11018459999468,None,133.4063627999858,None,133.4063627999858,133.908659800014,,,,,,,,,,,,,,,,026,2022-05-19_19h46.12.837,FishGame,2022.1.1,60.00758496060822,
,6,넌 헤퍼,5,Green,A,2.458333333333334,2.233333333333333,ScrollDown,ScrollUp,Green.png,1,Negative,Incongruent,,,,,0,0,0,0,,,,,,,,,,,,,0,5,5,5,,,,,,,,,,,,,,,,,,,,,,,,,,,,,,,,,,,,,,,,,,,,,,,,,,,,,,,,,,,,,,,,,,,,,,,,,,,,,,,,,1,1.4091427000239491,134.5343916999991,None,ScrollDown,정답입니다,134.5343916999991,None,134.5343916999991,None,134.5343916999991,None,134.5343916999991,None,135.83957990002818,None,135.83957990002818,136.33968660002574,,,,,,,,,,,,,,,,026,2022-05-19_19h46.12.837,FishGame,2022.1.1,60.00758496060822,
,7,넌 말쑥해,3,Green,A,4.833333333333334,4.333333333333333,ScrollDown,ScrollUp,Green.png,1,Neutral,Neutral,,,,,0,0,0,0,,,,,,,,,,,,,0,6,6,6,,,,,,,,,,,,,,,,,,,,,,,,,,,,,,,,,,,,,,,,,,,,,,,,,,,,,,,,,,,,,,,,,,,,,,,,,,,,,,,,,1,1.2425951000186615,136.9627617999795,None,ScrollDown,정답입니다,136.9627617999795,None,136.9627617999795,None,136.9627617999795,None,136.9627617999795,None,138.106296700018,None,138.106296700018,138.60856510000303,,,,,,,,,,,,,,,,026,2022-05-19_19h46.12.837,FishGame,2022.1.1,60.00758496060822,
,8,넌 투덜거려,5,Orange,B,2.541666666666667,2.266666666666667,ScrollUp,ScrollDown,Orange.png,1,Negative,Congruent,,,,,0,0,0,0,,,,,,,,,,,,,0,7,7,7,,,,,,,,,,,,,,,,,,,,,,,,,,,,,,,,,,,,,,,,,,,,,,,,,,,,,,,,,,,,,,,,,,,,,,,,,,,,,,,,,2,1.2758630000171252,139.23772350000218,None,ScrollUp,정답입니다,139.23772350000218,None,139.23772350000218,None,139.23772350000218,None,139.23772350000218,None,140.40593920001993,None,140.40593920001993,140.90599070000462,,,,,,,,,,,,,,,,026,2022-05-19_19h46.12.837,FishGame,2022.1.1,60.00758496060822,
,9,넌 적극적이야,1,Green,A,5.708333333333333,5.533333333333333,ScrollDown,ScrollUp,Green.png,1,Positive,Congruent,,,,,0,0,0,0,,,,,,,,,,,,,0,8,8,8,,,,,,,,,,,,,,,,,,,,,,,,,,,,,,,,,,,,,,,,,,,,,,,,,,,,,,,,,,,,,,,,,,,,,,,,,,,,,,,,,1,1.3449011000338942,141.52930819999892,None,ScrollDown,정답입니다,141.52930819999892,None,141.52930819999892,None,141.52930819999892,None,141.52930819999892,None,142.77521350001916,None,142.77521350001916,143.27511970000342,,,,,,,,,,,,,,,,026,2022-05-19_19h46.12.837,FishGame,2022.1.1,60.00758496060822,
,10,넌 재미없어,4,Orange,B,2.625,2.966666666666667,ScrollUp,ScrollDown,Orange.png,1,Negative,Congruent,,,,,0,0,0,0,,,,,,,,,,,,,0,9,9,9,,,,,,,,,,,,,,,,,,,,,,,,,,,,,,,,,,,,,,,,,,,,,,,,,,,,,,,,,,,,,,,,,,,,,,,,,,,,,,,,,1.7762345721324284,1.194383200025186,143.8963760000188,None,ScrollUp,정답입니다,143.8963760000188,None,143.8963760000188,None,143.8963760000188,None,143.8963760000188,None,144.99172709998675,None,144.99172709998675,145.49484529998153,,,,,,,,,,,,,,,,026,2022-05-19_19h46.12.837,FishGame,2022.1.1,60.00758496060822,
,11,넌 명석해,2,Green,A,5.875,4.033333333333333,ScrollDown,ScrollUp,Green.png,1,Positive,Congruent,,,,,0,0,0,0,,,,,,,,,,,,,0,10,10,10,,,,,,,,,,,,,,,,,,,,,,,,,,,,,,,,,,,,,,,,,,,,,,,,,,,,,,,,,,,,,,,,,,,,,,,,,,,,,,,,,1,1.49237389996415,146.11272000003373,None,ScrollDown,정답입니다,146.11272000003373,None,146.11272000003373,None,146.11272000003373,None,146.11272000003373,None,147.5060801000218,None,147.5060801000218,148.00619869999355,,,,,,,,,,,,,,,,026,2022-05-19_19h46.12.837,FishGame,2022.1.1,60.00758496060822,
,12,나를 데려가줘,6,Orange,B,0,0,ScrollDown,ScrollUp,Orange.png,1,NonTarget,NonTarget,,,,,0,0,0,0,,,,,,,,,,,,,0,11,11,11,,,,,,,,,,,,,,,,,,,,,,,,,,,,,,,,,,,,,,,,,,,,,,,,,,,,,,,,,,,,,,,,,,,,,,,,,,,,,,,,,1,1.2589026999776252,148.63341160002165,None,ScrollDown,정답입니다,148.63341160002165,None,148.63341160002165,None,148.63341160002165,None,148.63341160002165,None,149.7914798000129,None,149.7914798000129,150.30606229999103,,,,,,,,,,,,,,,,026,2022-05-19_19h46.12.837,FishGame,2022.1.1,60.00758496060822,
,13,넌 소심해,4,Green,A,3,3.1,ScrollDown,ScrollUp,Green.png,1,Negative,Incongruent,,,,,0,0,0,0,,,,,,,,,,,,,0,12,12,12,,,,,,,,,,,,,,,,,,,,,,,,,,,,,,,,,,,,,,,,,,,,,,,,,,,,,,,,,,,,,,,,,,,,,,,,,,,,,,,,,1.1682098756233852,1.075598000024911,150.9113103999989,None,ScrollDown,정답입니다,150.9113103999989,None,150.9113103999989,None,150.9113103999989,None,150.9113103999989,None,151.89156690001255,None,151.89156690001255,152.40818050003145,,,,,,,,,,,,,,,,026,2022-05-19_19h46.12.837,FishGame,2022.1.1,60.00758496060822,
,14,넌 합리적이야,2,Green,A,5.583333333333333,4.733333333333333,ScrollDown,ScrollUp,Green.png,1,Positive,Congruent,,,,,0,0,0,0,,,,,,,,,,,,,0,13,13,13,,,,,,,,,,,,,,,,,,,,,,,,,,,,,,,,,,,,,,,,,,,,,,,,,,,,,,,,,,,,,,,,,,,,,,,,,,,,,,,,,1.1033950646718342,1.0213006000267342,153.01339560002089,None,ScrollDown,정답입니다,153.01339560002089,None,153.01339560002089,None,153.01339560002089,None,153.01339560002089,None,153.9346024999977,None,153.9346024999977,154.43906850001076,,,,,,,,,,,,,,,,026,2022-05-19_19h46.12.837,FishGame,2022.1.1,60.00758496060822,
,15,넌 무자비해,5,Orange,B,2.333333333333333,2.1,ScrollUp,ScrollDown,Orange.png,1,Negative,Congruent,,,,,0,0,0,0,,,,,,,,,,,,,0,14,14,14,,,,,,,,,,,,,,,,,,,,,,,,,,,,,,,,,,,,,,,,,,,,,,,,,,,,,,,,,,,,,,,,,,,,,,,,,,,,,,,,,1.9212963084379833,1.1783851999789476,155.06548789999215,None,ScrollUp,정답입니다,155.06548789999215,None,155.06548789999215,None,155.06548789999215,None,155.06548789999215,None,156.13898530002916,None,156.13898530002916,156.6415555999847,,,,,,,,,,,,,,,,026,2022-05-19_19h46.12.837,FishGame,2022.1.1,60.00758496060822,
,16,나를 보내줘,6,Green,A,0,0,ScrollUp,ScrollDown,Green.png,1,NonTarget,NonTarget,,,,,0,0,0,0,,,,,,,,,,,,,0,15,15,15,,,,,,,,,,,,,,,,,,,,,,,,,,,,,,,,,,,,,,,,,,,,,,,,,,,,,,,,,,,,,,,,,,,,,,,,,,,,,,,,,1.9537037014961243,1.1962876999750733,157.25515219999943,None,ScrollUp,정답입니다,157.25515219999943,None,157.25515219999943,None,157.25515219999943,None,157.25515219999943,None,158.3581051999936,None,158.3581051999936,158.85813810001127,,,,,,,,,,,,,,,,026,2022-05-19_19h46.12.837,FishGame,2022.1.1,60.00758496060822,
,17,넌 현실적이야,3,Orange,B,4.608695652173913,4.766666666666667,ScrollUp,ScrollDown,Orange.png,1,Neutral,Neutral,,,,,0,0,0,0,,,,,,,,,,,,,0,16,16,16,,,,,,,,,,,,,,,,,,,,,,,,,,,,,,,,,,,,,,,,,,,,,,,,,,,,,,,,,,,,,,,,,,,,,,,,,,,,,,,,,1.9953703780968983,1.2094088000012562,159.48543260002043,None,ScrollUp,정답입니다,159.48543260002043,None,159.48543260002043,None,159.48543260002043,None,159.48543260002043,None,160.58884700003546,None,160.58884700003546,161.08893289999105,,,,,,,,,,,,,,,,026,2022-05-19_19h46.12.837,FishGame,2022.1.1,60.00758496060822,
,18,넌 의리있어,1,Orange,B,5.833333333333334,5.633333333333334,ScrollUp,ScrollDown,Orange.png,1,Positive,Incongruent,,,,,0,0,0,0,,,,,,,,,,,,,0,17,17,17,,,,,,,,,,,,,,,,,,,,,,,,,,,,,,,,,,,,,,,,,,,,,,,,,,,,,,,,,,,,,,,,,,,,,,,,,,,,,,,,,2,1.0966044000233524,161.7147550000227,None,ScrollUp,정답입니다,161.7147550000227,None,161.7147550000227,None,161.7147550000227,None,161.7147550000227,None,162.70807090000017,None,162.70807090000017,163.20805439999094,,,,,,,,,,,,,,,,026,2022-05-19_19h46.12.837,FishGame,2022.1.1,60.00758496060822,
,19,넌 신경과민이야,5,Green,A,2.541666666666667,2.166666666666667,ScrollDown,ScrollUp,Green.png,1,Negative,Incongruent,,,,,0,0,0,0,,,,,,,,,,,,,0,18,18,18,,,,,,,,,,,,,,,,,,,,,,,,,,,,,,,,,,,,,,,,,,,,,,,,,,,,,,,,,,,,,,,,,,,,,,,,,,,,,,,,,1.1172839403152466,1.4125273000099696,163.82800179999322,None,ScrollDown,정답입니다,163.82800179999322,None,163.82800179999322,None,163.82800179999322,None,163.82800179999322,None,165.13878480001586,None,165.13878480001586,165.63881949998904,,,,,,,,,,,,,,,,026,2022-05-19_19h46.12.837,FishGame,2022.1.1,60.00758496060822,
,20,넌 편안해,1,Green,A,5.916666666666666,5.866666666666666,ScrollDown,ScrollUp,Green.png,1,Positive,Congruent,,,,,0,0,0,0,,,,,,,,,,,,,0,19,19,19,,,,,,,,,,,,,,,,,,,,,,,,,,,,,,,,,,,,,,,,,,,,,,,,,,,,,,,,,,,,,,,,,,,,,,,,,,,,,,,,,1,1.0785227000014856,166.2637249000254,None,ScrollDown,정답입니다,166.2637249000254,None,166.2637249000254,None,166.2637249000254,None,166.2637249000254,None,167.23877060000086,None,167.23877060000086,167.74128409998957,,,,,,,,,,,,,,,,026,2022-05-19_19h46.12.837,FishGame,2022.1.1,60.00758496060822,
,21,넌 품위있어,2,Orange,B,5.291666666666666,4.466666666666667,ScrollUp,ScrollDown,Orange.png,1,Positive,Incongruent,,,,,0,0,0,0,,,,,,,,,,,,,0,20,20,20,,,,,,,,,,,,,,,,,,,,,,,,,,,,,,,,,,,,,,,,,,,,,,,,,,,,,,,,,,,,,,,,,,,,,,,,,,,,,,,,,1.873456800977389,1.0130166999879293,168.35947790002683,None,ScrollUp,정답입니다,168.35947790002683,None,168.35947790002683,None,168.35947790002683,None,168.35947790002683,None,169.27467610000167,None,169.27467610000167,169.77227489999495,,,,,,,,,,,,,,,,026,2022-05-19_19h46.12.837,FishGame,2022.1.1,60.00758496060822,
,22,넌 빈틈없어,3,Green,A,4.833333333333333,3.966666666666667,ScrollDown,ScrollUp,Green.png,1,Neutral,Neutral,,,,,0,0,0,0,,,,,,,,,,,,,0,21,21,21,,,,,,,,,,,,,,,,,,,,,,,,,,,,,,,,,,,,,,,,,,,,,,,,,,,,,,,,,,,,,,,,,,,,,,,,,,,,,,,,,1.016975333293279,1.2422382000368088,170.39718100003665,None,ScrollDown,정답입니다,170.39718100003665,None,170.39718100003665,None,170.39718100003665,None,170.39718100003665,None,171.53889520000666,None,171.53889520000666,172.04120350000449,,,,,,,,,,,,,,,,026,2022-05-19_19h46.12.837,FishGame,2022.1.1,60.00758496060822,
,23,넌 상상력없어,4,Orange,B,2.833333333333333,3.133333333333333,ScrollUp,ScrollDown,Orange.png,1,Negative,Congruent,,,,,0,0,0,0,,,,,,,,,,,,,0,22,22,22,,,,,,,,,,,,,,,,,,,,,,,,,,,,,,,,,,,,,,,,,,,,,,,,,,,,,,,,,,,,,,,,,,,,,,,,,,,,,,,,,1.939814825852712,1.0590859000221826,172.6693258000305,None,ScrollUp,정답입니다,172.6693258000305,None,172.6693258000305,None,172.6693258000305,None,172.6693258000305,None,173.6222042000154,None,173.6222042000154,174.12443690001965,,,,,,,,,,,,,,,,026,2022-05-19_19h46.12.837,FishGame,2022.1.1,60.00758496060822,
,24,넌 지혜로워,2,Orange,B,6.333333333333334,4.633333333333334,ScrollUp,ScrollDown,Orange.png,1,Positive,Incongruent,,,,,0,0,0,0,,,,,,,,,,,,,0,23,23,23,,,,,,,,,,,,,,,,,,,,,,,,,,,,,,,,,,,,,,,,,,,,,,,,,,,,,,,,,,,,,,,,,,,,,,,,,,,,,,,,,1.873456800977389,1.4424734999774955,174.7540791000356,None,ScrollUp,정답입니다,174.7540791000356,None,174.7540791000356,None,174.7540791000356,None,174.7540791000356,None,176.0888280000072,None,176.0888280000072,176.59095979999984,,,,,,,,,,,,,,,,026,2022-05-19_19h46.12.837,FishGame,2022.1.1,60.00758496060822,
,25,넌 시끄러워,4,Green,A,2.833333333333333,3.033333333333333,ScrollDown,ScrollUp,Green.png,1,Negative,Incongruent,,,,,0,0,0,0,,,,,,,,,,,,,0,24,24,24,,,,,,,,,,,,,,,,,,,,,,,,,,,,,,,,,,,,,,,,,,,,,,,,,,,,,,,,,,,,,,,,,,,,,,,,,,,,,,,,,1.1574074029922485,1.1770723999943584,177.2140810000128,None,ScrollDown,정답입니다,177.2140810000128,None,177.2140810000128,None,177.2140810000128,None,177.2140810000128,None,178.28876929997932,None,178.28876929997932,178.7909886999987,,,,,,,,,,,,,,,,026,2022-05-19_19h46.12.837,FishGame,2022.1.1,60.00758496060822,
,26,넌 만사태평이야,3,Orange,B,4,4.333333333333333,ScrollUp,ScrollDown,Orange.png,1,Neutral,Neutral,,,,,0,0,0,0,,,,,,,,,,,,,0,25,25,25,,,,,,,,,,,,,,,,,,,,,,,,,,,,,,,,,,,,,,,,,,,,,,,,,,,,,,,,,,,,,,,,,,,,,,,,,,,,,,,,,1.8364197413126628,1.0758459999924526,179.4165727000218,None,ScrollUp,정답입니다,179.4165727000218,None,179.4165727000218,None,179.4165727000218,None,179.4165727000218,None,180.38869170000544,None,180.38869170000544,180.88874269998632,,,,,,,,,,,,,,,,026,2022-05-19_19h46.12.837,FishGame,2022.1.1,60.00758496060822,
,27,넌 붙임성있어,1,Green,A,5.708333333333333,5.633333333333334,ScrollDown,ScrollUp,Green.png,1,Positive,Congruent,,,,,0,0,0,0,,,,,,,,,,,,,0,26,26,26,,,,,,,,,,,,,,,,,,,,,,,,,,,,,,,,,,,,,,,,,,,,,,,,,,,,,,,,,,,,,,,,,,,,,,,,,,,,,,,,,1.174382706483205,1.011311799986288,181.519611500029,None,ScrollDown,정답입니다,181.519611500029,None,181.519611500029,None,181.519611500029,None,181.519611500029,None,182.42200339998817,None,182.42200339998817,182.92420080001466,,,,,,,,,,,,,,,,026,2022-05-19_19h46.12.837,FishGame,2022.1.1,60.00758496060822,
,28,넌 영리해,2,Green,A,6,4.033333333333333,ScrollDown,ScrollUp,Green.png,1,Positive,Congruent,,,,,0,0,0,0,,,,,,,,,,,,,0,27,27,27,,,,,,,,,,,,,,,,,,,,,,,,,,,,,,,,,,,,,,,,,,,,,,,,,,,,,,,,,,,,,,,,,,,,,,,,,,,,,,,,,1.0632716019948323,0.9924467999953777,183.54708440002287,None,ScrollDown,정답입니다,183.54708440002287,None,183.54708440002287,None,183.54708440002287,None,183.54708440002287,None,184.4386777000036,None,184.4386777000036,184.94098850002047,,,,,,,,,,,,,,,,026,2022-05-19_19h46.12.837,FishGame,2022.1.1,60.00758496060822,
,29,넌 열심이야,1,Orange,B,6.041666666666667,5.833333333333333,ScrollUp,ScrollDown,Orange.png,1,Positive,Incongruent,,,,,0,0,0,0,,,,,,,,,,,,,0,28,28,28,,,,,,,,,,,,,,,,,,,,,,,,,,,,,,,,,,,,,,,,,,,,,,,,,,,,,,,,,,,,,,,,,,,,,,,,,,,,,,,,,1.9243827362855275,1.0925319999805652,185.5688101000269,None,ScrollUp,정답입니다,185.5688101000269,None,185.5688101000269,None,185.5688101000269,None,185.5688101000269,None,186.5552634000196,None,186.5552634000196,187.05533140001353,,,,,,,,,,,,,,,,026,2022-05-19_19h46.12.837,FishGame,2022.1.1,60.00758496060822,
,30,넌 인기없어,4,Orange,B,3,3.3,ScrollUp,ScrollDown,Orange.png,1,Negative,Congruent,,,,,0,0,0,0,,,,,,,,,,,,,0,29,29,29,,,,,,,,,,,,,,,,,,,,,,,,,,,,,,,,,,,,,,,,,,,,,,,,,,,,,,,,,,,,,,,,,,,,,,,,,,,,,,,,,1.9166666666666667,1.0092674999614246,187.67972130002454,None,ScrollUp,정답입니다,187.67972130002454,None,187.67972130002454,None,187.67972130002454,None,187.67972130002454,None,188.58859529998153,None,188.58859529998153,189.09079350001412,,,,,,,,,,,,,,,,026,2022-05-19_19h46.12.837,FishGame,2022.1.1,60.00758496060822,
,31,넌 익살스러워,3,Green,A,4.708333333333334,4.833333333333333,ScrollDown,ScrollUp,Green.png,1,Neutral,Neutral,,,,,0,0,0,0,,,,,,,,,,,,,0,30,30,30,,,,,,,,,,,,,,,,,,,,,,,,,,,,,,,,,,,,,,,,,,,,,,,,,,,,,,,,,,,,,,,,,,,,,,,,,,,,,,,,,1.1049382785956066,0.9112513999571092,189.7218335000216,None,ScrollDown,정답입니다,189.7218335000216,None,189.7218335000216,None,189.7218335000216,None,189.7218335000216,None,190.5218730000197,None,190.5218730000197,191.0218875000137,,,,,,,,,,,,,,,,026,2022-05-19_19h46.12.837,FishGame,2022.1.1,60.00758496060822,
,32,넌 이기적이야,5,Orange,B,2.291666666666667,2.333333333333333,ScrollUp,ScrollDown,Orange.png,1,Negative,Congruent,,,,,0,0,0,0,,,,,,,,,,,,,0,31,31,31,,,,,,,,,,,,,,,,,,,,,,,,,,,,,,,,,,,,,,,,,,,,,,,,,,,,,,,,,,,,,,,,,,,,,,,,,,,,,,,,,1.71913580596447,0.9608679999946617,191.65146910003386,None,ScrollUp,정답입니다,191.65146910003386,None,191.65146910003386,None,191.65146910003386,None,191.65146910003386,None,192.50517249997938,None,192.50517249997938,193.0051616000128,,,,,,,,,,,,,,,,026,2022-05-19_19h46.12.837,FishGame,2022.1.1,60.00758496060822,
,33,나를 데려가줘,6,Orange,B,0,0,ScrollDown,ScrollUp,Orange.png,1,NonTarget,NonTarget,,,,,0,0,0,0,,,,,,,,,,,,,0,32,32,32,,,,,,,,,,,,,,,,,,,,,,,,,,,,,,,,,,,,,,,,,,,,,,,,,,,,,,,,,,,,,,,,,,,,,,,,,,,,,,,,,1,1.1921754000359215,193.62996400002157,None,ScrollDown,정답입니다,193.62996400002157,None,193.62996400002157,None,193.62996400002157,None,193.62996400002157,None,194.72173430002294,None,194.72173430002294,195.2239336000057,,,,,,,,,,,,,,,,026,2022-05-19_19h46.12.837,FishGame,2022.1.1,60.00758496060822,
,34,넌 기회주의자야,5,Green,A,2.875,2.133333333333333,ScrollDown,ScrollUp,Green.png,1,Negative,Incongruent,,,,,0,0,0,0,,,,,,,,,,,,,0,33,33,33,,,,,,,,,,,,,,,,,,,,,,,,,,,,,,,,,,,,,,,,,,,,,,,,,,,,,,,,,,,,,,,,,,,,,,,,,,,,,,,,,1.0339506367842357,0.9612739000003785,195.8469814999844,None,ScrollDown,정답입니다,195.8469814999844,None,195.8469814999844,None,195.8469814999844,None,195.8469814999844,None,196.70513509999728,None,196.70513509999728,197.2072385000065,,,,,,,,,,,,,,,,026,2022-05-19_19h46.12.837,FishGame,2022.1.1,60.00758496060822,
,1,넌 미성숙해,4,Green,A,3,3.2,ScrollDown,ScrollUp,Green.png,2,Negative,Incongruent,,,,,0,0,0,0,,,,,,,,,,,,,,,,,0,0,0,0,,,,,,,,,,,,,,,,,,,,,,,,,,,,,,,,,,,,228.9378671000013,230.44017080002232,230.47109489998547,231.42350450000959,231.4734940000344,232.42343450000044,232.42343450000044,None,,,,,,,,,,,,,,,,,,,,,,,,,,,,,,,,,,1,1.3020110999932513,233.51528110000072,None,ScrollDown,정답입니다,233.51528110000072,None,233.51528110000072,None,233.51528110000072,None,233.51528110000072,None,234.72101859998656,None,234.72101859998656,235.22098779998487,197.70505930000218,None,197.70505930000218,None,0.6574074,-0.10092592,1,0,0,0.01578875002451241,None,227.7044743000297,None,,,026,2022-05-19_19h46.12.837,FishGame,2022.1.1,60.00758496060822,
,2,넌 반사회적이야,5,Orange,B,2.416666666666667,2.033333333333333,ScrollUp,ScrollDown,Orange.png,2,Negative,Congruent,,,,,0,0,0,0,,,,,,,,,,,,,,,,,0,1,1,1,,,,,,,,,,,,,,,,,,,,,,,,,,,,,,,,,,,,,,,,,,,,,,,,,,,,,,,,,,,,,,,,,,,,,,,,,,,,,2,1.1425911999540403,235.84964139998192,None,ScrollUp,정답입니다,235.84964139998192,None,235.84964139998192,None,235.84964139998192,None,235.84964139998192,None,236.8876318000257,None,236.8876318000257,237.3876490999828,,,,,,,,,,,,,,,,026,2022-05-19_19h46.12.837,FishGame,2022.1.1,60.00758496060822,
,3,넌 유능해,2,Green,A,6.208333333333333,4.433333333333334,ScrollDown,ScrollUp,Green.png,2,Positive,Congruent,,,,,0,0,0,0,,,,,,,,,,,,,,,,,0,2,2,2,,,,,,,,,,,,,,,,,,,,,,,,,,,,,,,,,,,,,,,,,,,,,,,,,,,,,,,,,,,,,,,,,,,,,,,,,,,,,1.1388888855775197,1.4758162000216544,238.01428509998368,None,ScrollDown,정답입니다,238.01428509998368,None,238.01428509998368,None,238.01428509998368,None,238.01428509998368,None,239.38978740002494,None,239.38978740002494,239.8897800000268,,,,,,,,,,,,,,,,026,2022-05-19_19h46.12.837,FishGame,2022.1.1,60.00758496060822,
,4,넌 능숙해,2,Orange,B,5.666666666666667,4.733333333333333,ScrollUp,ScrollDown,Orange.png,2,Positive,Incongruent,,,,,0,0,0,0,,,,,,,,,,,,,,,,,0,3,3,3,,,,,,,,,,,,,,,,,,,,,,,,,,,,,,,,,,,,,,,,,,,,,,,,,,,,,,,,,,,,,,,,,,,,,,,,,,,,,2,1.1765375999966636,240.51730780000798,None,ScrollUp,정답입니다,240.51730780000798,None,240.51730780000798,None,240.51730780000798,None,240.51730780000798,None,241.58723020000616,None,241.58723020000616,242.08728350000456,,,,,,,,,,,,,,,,026,2022-05-19_19h46.12.837,FishGame,2022.1.1,60.00758496060822,
,5,넌 진부해,4,Orange,B,2.458333333333333,3.166666666666667,ScrollUp,ScrollDown,Orange.png,2,Negative,Congruent,,,,,0,0,0,0,,,,,,,,,,,,,,,,,0,4,4,4,,,,,,,,,,,,,,,,,,,,,,,,,,,,,,,,,,,,,,,,,,,,,,,,,,,,,,,,,,,,,,,,,,,,,,,,,,,,,2,1.0950136000174098,242.71266489999834,None,ScrollUp,정답입니다,242.71266489999834,None,242.71266489999834,None,242.71266489999834,None,242.71266489999834,None,243.70644009998068,None,243.70644009998068,244.20640239998465,,,,,,,,,,,,,,,,026,2022-05-19_19h46.12.837,FishGame,2022.1.1,60.00758496060822,
,6,나를 보내줘,6,Green,A,0,0,ScrollUp,ScrollDown,Green.png,2,NonTarget,NonTarget,,,,,0,0,0,0,,,,,,,,,,,,,,,,,0,5,5,5,,,,,,,,,,,,,,,,,,,,,,,,,,,,,,,,,,,,,,,,,,,,,,,,,,,,,,,,,,,,,,,,,,,,,,,,,,,,,2,1.160626700031571,244.82254439999815,None,ScrollUp,정답입니다,244.82254439999815,None,244.82254439999815,None,244.82254439999815,None,244.82254439999815,None,245.8875092000235,None,245.8875092000235,246.38747539999895,,,,,,,,,,,,,,,,026,2022-05-19_19h46.12.837,FishGame,2022.1.1,60.00758496060822,
,7,넌 엄격해,3,Green,A,4.166666666666666,4.1,ScrollDown,ScrollUp,Green.png,2,Neutral,Neutral,,,,,0,0,0,0,,,,,,,,,,,,,,,,,0,6,6,6,,,,,,,,,,,,,,,,,,,,,,,,,,,,,,,,,,,,,,,,,,,,,,,,,,,,,,,,,,,,,,,,,,,,,,,,,,,,,1,1.194578199996613,247.01086490001762,None,ScrollDown,정답입니다,247.01086490001762,None,247.01086490001762,None,247.01086490001762,None,247.01086490001762,None,248.10405060002813,None,248.10405060002813,248.60631290002493,,,,,,,,,,,,,,,,026,2022-05-19_19h46.12.837,FishGame,2022.1.1,60.00758496060822,
,8,나를 보내줘,6,Green,A,0,0,ScrollUp,ScrollDown,Green.png,2,NonTarget,NonTarget,,,,,0,0,0,0,,,,,,,,,,,,,,,,,0,7,7,7,,,,,,,,,,,,,,,,,,,,,,,,,,,,,,,,,,,,,,,,,,,,,,,,,,,,,,,,,,,,,,,,,,,,,,,,,,,,,1.983024666706721,1.0532068000175059,249.2215520000318,None,ScrollUp,정답입니다,249.2215520000318,None,249.2215520000318,None,249.2215520000318,None,249.2215520000318,None,250.18186680000508,None,250.18186680000508,250.68714029999683,,,,,,,,,,,,,,,,026,2022-05-19_19h46.12.837,FishGame,2022.1.1,60.00758496060822,
,9,넌 대담해,3,Orange,B,4.875,4.866666666666666,ScrollUp,ScrollDown,Orange.png,2,Neutral,Neutral,,,,,0,0,0,0,,,,,,,,,,,,,,,,,0,8,8,8,,,,,,,,,,,,,,,,,,,,,,,,,,,,,,,,,,,,,,,,,,,,,,,,,,,,,,,,,,,,,,,,,,,,,,,,,,,,,2,1.1613331999978982,251.3071479999926,None,ScrollUp,정답입니다,251.3071479999926,None,251.3071479999926,None,251.3071479999926,None,251.3071479999926,None,252.3703944000299,None,252.3703944000299,252.87294329999713,,,,,,,,,,,,,,,,026,2022-05-19_19h46.12.837,FishGame,2022.1.1,60.00758496060822,
,10,넌 꾸준해,1,Green,A,5.916666666666668,5.8,ScrollDown,ScrollUp,Green.png,2,Positive,Congruent,,,,,0,0,0,0,,,,,,,,,,,,,,,,,0,9,9,9,,,,,,,,,,,,,,,,,,,,,,,,,,,,,,,,,,,,,,,,,,,,,,,,,,,,,,,,,,,,,,,,,,,,,,,,,,,,,1,1.177144099958241,253.4970826000208,None,ScrollDown,정답입니다,253.4970826000208,None,253.4970826000208,None,253.4970826000208,None,253.4970826000208,None,254.5729778999812,None,254.5729778999812,255.0728625000338,,,,,,,,,,,,,,,,026,2022-05-19_19h46.12.837,FishGame,2022.1.1,60.00758496060822,
,11,나를 데려가줘,6,Orange,B,0,0,ScrollDown,ScrollUp,Orange.png,2,NonTarget,NonTarget,,,,,0,0,0,0,,,,,,,,,,,,,,,,,0,10,10,10,,,,,,,,,,,,,,,,,,,,,,,,,,,,,,,,,,,,,,,,,,,,,,,,,,,,,,,,,,,,,,,,,,,,,,,,,,,,,1,1.2095576000283472,255.69627250003396,None,ScrollDown,정답입니다,255.69627250003396,None,255.69627250003396,None,255.69627250003396,None,255.69627250003396,None,256.80359140003566,None,256.80359140003566,257.303669099987,,,,,,,,,,,,,,,,026,2022-05-19_19h46.12.837,FishGame,2022.1.1,60.00758496060822,
,12,넌 독선적이야,5,Green,A,2.458333333333333,1.933333333333333,ScrollDown,ScrollUp,Green.png,2,Negative,Incongruent,,,,,0,0,0,0,,,,,,,,,,,,,,,,,0,11,11,11,,,,,,,,,,,,,,,,,,,,,,,,,,,,,,,,,,,,,,,,,,,,,,,,,,,,,,,,,,,,,,,,,,,,,,,,,,,,,1,1.0955615999992006,257.9244407999795,None,ScrollDown,정답입니다,257.9244407999795,None,257.9244407999795,None,257.9244407999795,None,257.9244407999795,None,258.922895900032,None,258.922895900032,259.4227630000096,,,,,,,,,,,,,,,,026,2022-05-19_19h46.12.837,FishGame,2022.1.1,60.00758496060822,
,13,나를 보내줘,6,Green,A,0,0,ScrollUp,ScrollDown,Green.png,2,NonTarget,NonTarget,,,,,0,0,0,0,,,,,,,,,,,,,,,,,0,12,12,12,,,,,,,,,,,,,,,,,,,,,,,,,,,,,,,,,,,,,,,,,,,,,,,,,,,,,,,,,,,,,,,,,,,,,,,,,,,,,2,1.075603700010106,260.044660900021,None,ScrollUp,정답입니다,260.044660900021,None,260.044660900021,None,260.044660900021,None,260.044660900021,None,261.02043410000624,None,261.02043410000624,261.52254790003644,,,,,,,,,,,,,,,,026,2022-05-19_19h46.12.837,FishGame,2022.1.1,60.00758496060822,
,14,넌 책임감있어,1,Orange,B,6.347826086956522,6,ScrollUp,ScrollDown,Orange.png,2,Positive,Incongruent,,,,,0,0,0,0,,,,,,,,,,,,,,,,,0,13,13,13,,,,,,,,,,,,,,,,,,,,,,,,,,,,,,,,,,,,,,,,,,,,,,,,,,,,,,,,,,,,,,,,,,,,,,,,,,,,,2,1.3112779000075534,262.16561189998174,None,ScrollUp,정답입니다,262.16561189998174,None,262.16561189998174,None,262.16561189998174,None,262.16561189998174,None,263.3537677000277,None,263.3537677000277,263.85596050001914,,,,,,,,,,,,,,,,026,2022-05-19_19h46.12.837,FishGame,2022.1.1,60.00758496060822,
,15,넌 문학적이야,3,Green,A,4.708333333333334,4.333333333333333,ScrollDown,ScrollUp,Green.png,2,Neutral,Neutral,,,,,0,0,0,0,,,,,,,,,,,,,,,,,0,14,14,14,,,,,,,,,,,,,,,,,,,,,,,,,,,,,,,,,,,,,,,,,,,,,,,,,,,,,,,,,,,,,,,,,,,,,,,,,,,,,1,1.3092241999693215,264.47818330000155,None,ScrollDown,정답입니다,264.47818330000155,None,264.47818330000155,None,264.47818330000155,None,264.47818330000155,None,265.68702900002245,None,265.68702900002245,266.1891858000308,,,,,,,,,,,,,,,,026,2022-05-19_19h46.12.837,FishGame,2022.1.1,60.00758496060822,
,16,넌 재미있어,1,Orange,B,5.875,5.7,ScrollUp,ScrollDown,Orange.png,2,Positive,Incongruent,,,,,0,0,0,0,,,,,,,,,,,,,,,,,0,15,15,15,,,,,,,,,,,,,,,,,,,,,,,,,,,,,,,,,,,,,,,,,,,,,,,,,,,,,,,,,,,,,,,,,,,,,,,,,,,,,1.9567901293436687,1.1924802000285126,266.8116495999857,None,ScrollUp,정답입니다,266.8116495999857,None,266.8116495999857,None,266.8116495999857,None,266.8116495999857,None,267.9036974000046,None,267.9036974000046,268.4059591999976,,,,,,,,,,,,,,,,026,2022-05-19_19h46.12.837,FishGame,2022.1.1,60.00758496060822,
,17,나를 데려가줘,6,Orange,B,0,0,ScrollDown,ScrollUp,Orange.png,2,NonTarget,NonTarget,,,,,0,0,0,0,,,,,,,,,,,,,,,,,0,16,16,16,,,,,,,,,,,,,,,,,,,,,,,,,,,,,,,,,,,,,,,,,,,,,,,,,,,,,,,,,,,,,,,,,,,,,,,,,,,,,1,1.2435683999792673,269.0276271000039,None,ScrollDown,정답입니다,269.0276271000039,None,269.0276271000039,None,269.0276271000039,None,269.0276271000039,None,270.16999810002744,None,270.16999810002744,270.6700555999996,,,,,,,,,,,,,,,,026,2022-05-19_19h46.12.837,FishGame,2022.1.1,60.00758496060822,
,18,넌 협력적이야,1,Green,A,5.625,5.633333333333334,ScrollDown,ScrollUp,Green.png,2,Positive,Congruent,,,,,0,0,0,0,,,,,,,,,,,,,,,,,0,17,17,17,,,,,,,,,,,,,,,,,,,,,,,,,,,,,,,,,,,,,,,,,,,,,,,,,,,,,,,,,,,,,,,,,,,,,,,,,,,,,1,1.1959619999979623,271.28898810001556,None,ScrollDown,정답입니다,271.28898810001556,None,271.28898810001556,None,271.28898810001556,None,271.28898810001556,None,272.3892525000265,None,272.3892525000265,272.88916770002106,,,,,,,,,,,,,,,,026,2022-05-19_19h46.12.837,FishGame,2022.1.1,60.00758496060822,
,19,넌 평범해,3,Orange,B,4.333333333333332,4.233333333333333,ScrollUp,ScrollDown,Orange.png,2,Neutral,Neutral,,,,,0,0,0,0,,,,,,,,,,,,,,,,,0,18,18,18,,,,,,,,,,,,,,,,,,,,,,,,,,,,,,,,,,,,,,,,,,,,,,,,,,,,,,,,,,,,,,,,,,,,,,,,,,,,,1.9645061492919922,1.1271753999753855,273.50956030003726,None,ScrollUp,정답입니다,273.50956030003726,None,273.50956030003726,None,273.50956030003726,None,273.50956030003726,None,274.5368499000324,None,274.5368499000324,275.0391082999995,,,,,,,,,,,,,,,,026,2022-05-19_19h46.12.837,FishGame,2022.1.1,60.00758496060822,
,20,넌 오만해,5,Green,A,2.333333333333333,2,ScrollDown,ScrollUp,Green.png,2,Negative,Incongruent,,,,,0,0,0,0,,,,,,,,,,,,,,,,,0,19,19,19,,,,,,,,,,,,,,,,,,,,,,,,,,,,,,,,,,,,,,,,,,,,,,,,,,,,,,,,,,,,,,,,,,,,,,,,,,,,,1,1.0922909999499097,275.6666517999838,None,ScrollDown,정답입니다,275.6666517999838,None,275.6666517999838,None,275.6666517999838,None,275.6666517999838,None,276.6531890000333,None,276.6531890000333,277.1532713000197,,,,,,,,,,,,,,,,026,2022-05-19_19h46.12.837,FishGame,2022.1.1,60.00758496060822,
,21,넌 운이없어,4,Orange,B,3,3.466666666666667,ScrollUp,ScrollDown,Orange.png,2,Negative,Congruent,,,,,0,0,0,0,,,,,,,,,,,,,,,,,0,20,20,20,,,,,,,,,,,,,,,,,,,,,,,,,,,,,,,,,,,,,,,,,,,,,,,,,,,,,,,,,,,,,,,,,,,,,,,,,,,,,1.9953703780968983,1.1281801000004634,277.77925720001804,None,ScrollUp,정답입니다,277.77925720001804,None,277.77925720001804,None,277.77925720001804,None,277.77925720001804,None,278.8058200000087,None,278.8058200000087,279.30580040003406,,,,,,,,,,,,,,,,026,2022-05-19_19h46.12.837,FishGame,2022.1.1,60.00758496060822,
,22,넌 창조적이야,2,Orange,B,6.125,4.633333333333334,ScrollUp,ScrollDown,Orange.png,2,Positive,Incongruent,,,,,0,0,0,0,,,,,,,,,,,,,,,,,0,21,21,21,,,,,,,,,,,,,,,,,,,,,,,,,,,,,,,,,,,,,,,,,,,,,,,,,,,,,,,,,,,,,,,,,,,,,,,,,,,,,1.9336419701576233,1.1726578999659978,279.928258800006,None,ScrollUp,정답입니다,279.928258800006,None,279.928258800006,None,279.928258800006,None,279.928258800006,None,280.998735900037,None,280.998735900037,281.50339909998,,,,,,,,,,,,,,,,026,2022-05-19_19h46.12.837,FishGame,2022.1.1,60.00758496060822,
,23,나를 보내줘,6,Green,A,0,0,ScrollUp,ScrollDown,Green.png,2,NonTarget,NonTarget,,,,,0,0,0,0,,,,,,,,,,,,,,,,,0,22,22,22,,,,,,,,,,,,,,,,,,,,,,,,,,,,,,,,,,,,,,,,,,,,,,,,,,,,,,,,,,,,,,,,,,,,,,,,,,,,,2,1.4426347999833524,282.12483169999905,None,ScrollUp,정답입니다,282.12483169999905,None,282.12483169999905,None,282.12483169999905,None,282.12483169999905,None,283.47008470003493,None,283.47008470003493,283.9722044999944,,,,,,,,,,,,,,,,026,2022-05-19_19h46.12.837,FishGame,2022.1.1,60.00758496060822,
,24,넌 통찰력있어,2,Green,A,6.5,4.8,ScrollDown,ScrollUp,Green.png,2,Positive,Congruent,,,,,0,0,0,0,,,,,,,,,,,,,,,,,0,23,23,23,,,,,,,,,,,,,,,,,,,,,,,,,,,,,,,,,,,,,,,,,,,,,,,,,,,,,,,,,,,,,,,,,,,,,,,,,,,,,1.0632716019948323,1.042111799994018,284.6018015000154,None,ScrollDown,정답입니다,284.6018015000154,None,284.6018015000154,None,284.6018015000154,None,284.6018015000154,None,285.5365846999921,None,285.5365846999921,286.0366536999936,,,,,,,,,,,,,,,,026,2022-05-19_19h46.12.837,FishGame,2022.1.1,60.00758496060822,
,25,넌 경솔해,5,Orange,B,2.458333333333333,2.266666666666667,ScrollUp,ScrollDown,Orange.png,2,Negative,Congruent,,,,,0,0,0,0,,,,,,,,,,,,,,,,,0,24,24,24,,,,,,,,,,,,,,,,,,,,,,,,,,,,,,,,,,,,,,,,,,,,,,,,,,,,,,,,,,,,,,,,,,,,,,,,,,,,,1.9243827362855275,1.097827600024175,286.65550470002927,None,ScrollUp,정답입니다,286.65550470002927,None,286.65550470002927,None,286.65550470002927,None,286.65550470002927,None,287.65326049999567,None,287.65326049999567,288.1555801000213,,,,,,,,,,,,,,,,026,2022-05-19_19h46.12.837,FishGame,2022.1.1,60.00758496060822,
,26,넌 초조해,4,Green,A,2.916666666666667,3.133333333333333,ScrollDown,ScrollUp,Green.png,2,Negative,Incongruent,,,,,0,0,0,0,,,,,,,,,,,,,,,,,0,25,25,25,,,,,,,,,,,,,,,,,,,,,,,,,,,,,,,,,,,,,,,,,,,,,,,,,,,,,,,,,,,,,,,,,,,,,,,,,,,,,1.060185174147288,0.9925178999546915,288.77525310002966,None,ScrollDown,정답입니다,288.77525310002966,None,288.77525310002966,None,288.77525310002966,None,288.77525310002966,None,289.66983870003605,None,289.66983870003605,290.169881800015,,,,,,,,,,,,,,,,026,2022-05-19_19h46.12.837,FishGame,2022.1.1,60.00758496060822,
,27,넌 무관심해,4,Orange,B,2.833333333333333,2.9,ScrollUp,ScrollDown,Orange.png,2,Negative,Congruent,,,,,0,0,0,0,,,,,,,,,,,,,,,,,0,26,26,26,,,,,,,,,,,,,,,,,,,,,,,,,,,,,,,,,,,,,,,,,,,,,,,,,,,,,,,,,,,,,,,,,,,,,,,,,,,,,1.9120370248953502,1.028641399985645,290.7994600000093,None,ScrollUp,정답입니다,290.7994600000093,None,290.7994600000093,None,290.7994600000093,None,290.7994600000093,None,291.7198473000317,None,291.7198473000317,292.2220175000257,,,,,,,,,,,,,,,,026,2022-05-19_19h46.12.837,FishGame,2022.1.1,60.00758496060822,
,28,넌 감성적이야,3,Orange,B,4.125,4.166666666666667,ScrollUp,ScrollDown,Orange.png,2,Neutral,Neutral,,,,,0,0,0,0,,,,,,,,,,,,,,,,,0,27,27,27,,,,,,,,,,,,,,,,,,,,,,,,,,,,,,,,,,,,,,,,,,,,,,,,,,,,,,,,,,,,,,,,,,,,,,,,,,,,,2,0.9922192000085488,292.84197040001163,None,ScrollUp,정답입니다,292.84197040001163,None,292.84197040001163,None,292.84197040001163,None,292.84197040001163,None,293.73618489998626,None,293.73618489998626,294.23626720003085,,,,,,,,,,,,,,,,026,2022-05-19_19h46.12.837,FishGame,2022.1.1,60.00758496060822,
,29,넌 배려심있어,1,Green,A,6.083333333333333,5.5,ScrollDown,ScrollUp,Green.png,2,Positive,Congruent,,,,,0,0,0,0,,,,,,,,,,,,,,,,,0,28,28,28,,,,,,,,,,,,,,,,,,,,,,,,,,,,,,,,,,,,,,,,,,,,,,,,,,,,,,,,,,,,,,,,,,,,,,,,,,,,,1.0385802288850148,0.962827000010293,294.85823850001907,None,ScrollDown,정답입니다,294.85823850001907,None,294.85823850001907,None,294.85823850001907,None,294.85823850001907,None,295.71951229998376,None,295.71951229998376,296.2220293999999,,,,,,,,,,,,,,,,026,2022-05-19_19h46.12.837,FishGame,2022.1.1,60.00758496060822,
,30,넌 숨김없어,3,Green,A,4.5,4.933333333333334,ScrollDown,ScrollUp,Green.png,2,Neutral,Neutral,,,,,0,0,0,0,,,,,,,,,,,,,,,,,0,29,29,29,,,,,,,,,,,,,,,,,,,,,,,,,,,,,,,,,,,,,,,,,,,,,,,,,,,,,,,,,,,,,,,,,,,,,,,,,,,,,1.0771604776382446,0.8440233999863267,296.8430876000202,None,ScrollDown,정답입니다,296.8430876000202,None,296.8430876000202,None,296.8430876000202,None,296.8430876000202,None,297.58874350000406,None,297.58874350000406,298.0887605000171,,,,,,,,,,,,,,,,026,2022-05-19_19h46.12.837,FishGame,2022.1.1,60.00758496060822,
,31,넌 훌륭해,2,Orange,B,5.916666666666667,4.033333333333333,ScrollUp,ScrollDown,Orange.png,2,Positive,Incongruent,,,,,0,0,0,0,,,,,,,,,,,,,,,,,0,30,30,30,,,,,,,,,,,,,,,,,,,,,,,,,,,,,,,,,,,,,,,,,,,,,,,,,,,,,,,,,,,,,,,,,,,,,,,,,,,,,1.8518518557151158,0.8264267999911681,298.7176002000342,None,ScrollUp,정답입니다,298.7176002000342,None,298.7176002000342,None,298.7176002000342,None,298.7176002000342,None,299.4363336000242,None,299.4363336000242,299.93848790001357,,,,,,,,,,,,,,,,026,2022-05-19_19h46.12.837,FishGame,2022.1.1,60.00758496060822,
,32,넌 슬기로워,2,Green,A,6.166666666666667,4.1,ScrollDown,ScrollUp,Green.png,2,Positive,Congruent,,,,,0,0,0,0,,,,,,,,,,,,,,,,,0,31,31,31,,,,,,,,,,,,,,,,,,,,,,,,,,,,,,,,,,,,,,,,,,,,,,,,,,,,,,,,,,,,,,,,,,,,,,,,,,,,,1.0385802288850148,0.9092824999825098,300.56114649999654,None,ScrollDown,정답입니다,300.56114649999654,None,300.56114649999654,None,300.56114649999654,None,300.56114649999654,None,301.36968459998025,None,301.36968459998025,301.8696771999821,,,,,,,,,,,,,,,,026,2022-05-19_19h46.12.837,FishGame,2022.1.1,60.00758496060822,
,33,넌 냉혹해,5,Green,A,2.583333333333333,2.1,ScrollDown,ScrollUp,Green.png,2,Negative,Incongruent,,,,,0,0,0,0,,,,,,,,,,,,,,,,,0,32,32,32,,,,,,,,,,,,,,,,,,,,,,,,,,,,,,,,,,,,,,,,,,,,,,,,,,,,,,,,,,,,,,,,,,,,,,,,,,,,,1.1913580348094304,0.795519300037995,302.488817800011,None,ScrollDown,정답입니다,302.488817800011,None,302.488817800011,None,302.488817800011,None,302.488817800011,None,303.1862049000338,None,303.1862049000338,303.6863164000097,,,,,,,,,,,,,,,,026,2022-05-19_19h46.12.837,FishGame,2022.1.1,60.00758496060822,
,34,나를 데려가줘,6,Orange,B,0,0,ScrollDown,ScrollUp,Orange.png,2,NonTarget,NonTarget,,,,,0,0,0,0,,,,,,,,,,,,,,,,,0,33,33,33,,,,,,,,,,,,,,,,,,,,,,,,,,,,,,,,,,,,,,,,,,,,,,,,,,,,,,,,,,,,,,,,,,,,,,,,,,,,,1.2901234527428946,0.9112959000049159,304.31512179999845,None,ScrollDown,정답입니다,304.31512179999845,None,304.31512179999845,None,304.31512179999845,None,304.31512179999845,None,305.1217289000051,None,305.1217289000051,305.6217643999844,,,,,,,,,,,,,,,,026,2022-05-19_19h46.12.837,FishGame,2022.1.1,60.00758496060822,
,35,넌 편파적이야,5,Orange,B,2.125,2,ScrollUp,ScrollDown,Orange.png,2,Negative,Congruent,,,,,0,0,0,0,,,,,,,,,,,,,,,,,0,34,34,34,,,,,,,,,,,,,,,,,,,,,,,,,,,,,,,,,,,,,,,,,,,,,,,,,,,,,,,,,,,,,,,,,,,,,,,,,,,,,1.7407407512267432,1.0273285000002943,306.24519460002193,None,ScrollUp,정답입니다,306.24519460002193,None,306.24519460002193,None,306.24519460002193,None,306.24519460002193,None,307.16960999998264,None,307.16960999998264,307.6695347999921,,,,,,,,,,,,,,,,026,2022-05-19_19h46.12.837,FishGame,2022.1.1,60.00758496060822,
,36,넌 슬퍼,4,Green,A,2.583333333333333,3.066666666666667,ScrollDown,ScrollUp,Green.png,2,Negative,Incongruent,,,,,0,0,0,0,,,,,,,,,,,,,,,,,0,35,35,35,,,,,,,,,,,,,,,,,,,,,,,,,,,,,,,,,,,,,,,,,,,,,,,,,,,,,,,,,,,,,,,,,,,,,,,,,,,,,1.2438271592060726,0.8447347999899648,308.2923822000157,None,ScrollDown,정답입니다,308.2923822000157,None,308.2923822000157,None,308.2923822000157,None,308.2923822000157,None,309.03615200001514,None,309.03615200001514,309.5382788000279,,,,,,,,,,,,,,,,026,2022-05-19_19h46.12.837,FishGame,2022.1.1,60.00758496060822,
,37,나를 데려가줘,6,Orange,B,0,0,ScrollDown,ScrollUp,Orange.png,2,NonTarget,NonTarget,,,,,0,0,0,0,,,,,,,,,,,,,,,,,0,36,36,36,,,,,,,,,,,,,,,,,,,,,,,,,,,,,,,,,,,,,,,,,,,,,,,,,,,,,,,,,,,,,,,,,,,,,,,,,,,,,1.2854938358068466,0.9756984999985434,310.1624457000289,None,ScrollDown,정답입니다,310.1624457000289,None,310.1624457000289,None,310.1624457000289,None,310.1624457000289,None,311.03612890001386,None,311.03612890001386,311.53835480002454,,,,,,,,,,,,,,,,026,2022-05-19_19h46.12.837,FishGame,2022.1.1,60.00758496060822,
,38,넌 친절해,1,Orange,B,6.041666666666667,5.533333333333333,ScrollUp,ScrollDown,Orange.png,2,Positive,Incongruent,,,,,0,0,0,0,,,,,,,,,,,,,,,,,0,37,37,37,,,,,,,,,,,,,,,,,,,,,,,,,,,,,,,,,,,,,,,,,,,,,,,,,,,,,,,,,,,,,,,,,,,,,,,,,,,,,1.7268518507480621,0.9924471999984235,312.16221480001695,None,ScrollUp,정답입니다,312.16221480001695,None,312.16221480001695,None,312.16221480001695,None,312.16221480001695,None,313.0527044000337,None,313.0527044000337,313.552773500036,,,,,,,,,,,,,,,,026,2022-05-19_19h46.12.837,FishGame,2022.1.1,60.00758496060822,
,1,넌 엉성해,4,Green,A,3,3.3,ScrollDown,ScrollUp,Green.png,3,Negative,Incongruent,,,,,0,0,0,0,,,,,,,,,,,,,,,,,,,,,0,0,0,0,,,,,,,,,,,,,,,,,,,,,,,,,,,,,,,,344.8020826000138,346.30740739998873,346.3408667999902,347.3044116999954,347.33775080001215,348.2877304999856,348.2877304999856,None,,,,,,,,,,,,,,,,,,,,,,,,,,,,,,,,,,1.0447530845801036,0.9372700999956578,349.3771863000002,None,ScrollDown,정답입니다,349.3771863000002,None,349.3771863000002,None,349.3771863000002,None,349.3771863000002,None,350.2186723999912,None,350.2186723999912,350.7209916000138,314.05489700002363,None,314.05489700002363,None,0.7398148,-0.11018518,1,0,0,0.01624364999588579,None,344.07089710002765,None,,,026,2022-05-19_19h46.12.837,FishGame,2022.1.1,60.00758496060822,
,2,나를 보내줘,6,Green,A,0,0,ScrollUp,ScrollDown,Green.png,3,NonTarget,NonTarget,,,,,0,0,0,0,,,,,,,,,,,,,,,,,,,,,0,1,1,1,,,,,,,,,,,,,,,,,,,,,,,,,,,,,,,,,,,,,,,,,,,,,,,,,,,,,,,,,,,,,,,,,,,,,,,,,1.9675925771395366,1.377657699980773,351.33797019999474,None,ScrollUp,정답입니다,351.33797019999474,None,351.33797019999474,None,351.33797019999474,None,351.33797019999474,None,352.6185938999988,None,352.6185938999988,353.11868080002023,,,,,,,,,,,,,,,,026,2022-05-19_19h46.12.837,FishGame,2022.1.1,60.00758496060822,
,3,넌 활발해,1,Orange,B,5.666666666666667,5.6,ScrollUp,ScrollDown,Orange.png,3,Positive,Incongruent,,,,,0,0,0,0,,,,,,,,,,,,,,,,,,,,,0,2,2,2,,,,,,,,,,,,,,,,,,,,,,,,,,,,,,,,,,,,,,,,,,,,,,,,,,,,,,,,,,,,,,,,,,,,,,,,,1.8086419651905696,0.9257249999791384,353.74418189999415,None,ScrollUp,정답입니다,353.74418189999415,None,353.74418189999415,None,353.74418189999415,None,353.74418189999415,None,354.5707559000002,None,354.5707559000002,355.0708119000192,,,,,,,,,,,,,,,,026,2022-05-19_19h46.12.837,FishGame,2022.1.1,60.00758496060822,
,4,넌 논리적이야,2,Green,A,5.666666666666666,4.633333333333334,ScrollDown,ScrollUp,Green.png,3,Positive,Congruent,,,,,0,0,0,0,,,,,,,,,,,,,,,,,,,,,0,3,3,3,,,,,,,,,,,,,,,,,,,,,,,,,,,,,,,,,,,,,,,,,,,,,,,,,,,,,,,,,,,,,,,,,,,,,,,,,1.1589506169160206,0.9089074000366963,355.6971470999997,None,ScrollDown,정답입니다,355.6971470999997,None,355.6971470999997,None,355.6971470999997,None,355.6971470999997,None,356.5018247999833,None,356.5018247999833,357.0040184999816,,,,,,,,,,,,,,,,026,2022-05-19_19h46.12.837,FishGame,2022.1.1,60.00758496060822,
,5,넌 과묵해,3,Green,A,3.875,4.4,ScrollDown,ScrollUp,Green.png,3,Neutral,Neutral,,,,,0,0,0,0,,,,,,,,,,,,,,,,,,,,,0,4,4,4,,,,,,,,,,,,,,,,,,,,,,,,,,,,,,,,,,,,,,,,,,,,,,,,,,,,,,,,,,,,,,,,,,,,,,,,,1.2438271592060726,0.8277649999945424,357.6235827000346,None,ScrollDown,정답입니다,357.6235827000346,None,357.6235827000346,None,357.6235827000346,None,357.6235827000346,None,358.35183659999166,None,358.35183659999166,358.8539818000281,,,,,,,,,,,,,,,,026,2022-05-19_19h46.12.837,FishGame,2022.1.1,60.00758496060822,
,6,나를 데려가줘,6,Orange,B,0,0,ScrollDown,ScrollUp,Orange.png,3,NonTarget,NonTarget,,,,,0,0,0,0,,,,,,,,,,,,,,,,,,,,,0,5,5,5,,,,,,,,,,,,,,,,,,,,,,,,,,,,,,,,,,,,,,,,,,,,,,,,,,,,,,,,,,,,,,,,,,,,,,,,,1.1018518507480621,0.9602689999737777,359.4754947000183,None,ScrollDown,정답입니다,359.4754947000183,None,359.4754947000183,None,359.4754947000183,None,359.4754947000183,None,360.33515860000625,None,360.33515860000625,360.84073290001834,,,,,,,,,,,,,,,,026,2022-05-19_19h46.12.837,FishGame,2022.1.1,60.00758496060822,
,7,넌 미숙해,4,Orange,B,3,3,ScrollUp,ScrollDown,Orange.png,3,Negative,Congruent,,,,,0,0,0,0,,,,,,,,,,,,,,,,,,,,,0,6,6,6,,,,,,,,,,,,,,,,,,,,,,,,,,,,,,,,,,,,,,,,,,,,,,,,,,,,,,,,,,,,,,,,,,,,,,,,,1.6620370397965112,0.9125016000471078,361.45318519999273,None,ScrollUp,정답입니다,361.45318519999273,None,361.45318519999273,None,361.45318519999273,None,361.45318519999273,None,362.2683901999844,None,362.2683901999844,362.76850040000863,,,,,,,,,,,,,,,,026,2022-05-19_19h46.12.837,FishGame,2022.1.1,60.00758496060822,
,8,나를 보내줘,6,Green,A,0,0,ScrollUp,ScrollDown,Green.png,3,NonTarget,NonTarget,,,,,0,0,0,0,,,,,,,,,,,,,,,,,,,,,0,7,7,7,,,,,,,,,,,,,,,,,,,,,,,,,,,,,,,,,,,,,,,,,,,,,,,,,,,,,,,,,,,,,,,,,,,,,,,,,1.7623456716537476,1.3272560000186786,363.38617369998246,None,ScrollUp,정답입니다,363.38617369998246,None,363.38617369998246,None,363.38617369998246,None,363.38617369998246,None,364.6205603000126,None,364.6205603000126,365.1372816999792,,,,,,,,,,,,,,,,026,2022-05-19_19h46.12.837,FishGame,2022.1.1,60.00758496060822,
,9,넌 자신만만해,3,Orange,B,4.833333333333334,4.333333333333333,ScrollUp,ScrollDown,Orange.png,3,Neutral,Neutral,,,,,0,0,0,0,,,,,,,,,,,,,,,,,,,,,0,8,8,8,,,,,,,,,,,,,,,,,,,,,,,,,,,,,,,,,,,,,,,,,,,,,,,,,,,,,,,,,,,,,,,,,,,,,,,,,1.7175925920406976,1.125802399998065,365.74068930000067,None,ScrollUp,정답입니다,365.74068930000067,None,365.74068930000067,None,365.74068930000067,None,365.74068930000067,None,366.7680476999958,None,366.7680476999958,367.2681282000267,,,,,,,,,,,,,,,,026,2022-05-19_19h46.12.837,FishGame,2022.1.1,60.00758496060822,
,10,넌 탐욕스러워,5,Green,A,2.25,2.1,ScrollDown,ScrollUp,Green.png,3,Negative,Incongruent,,,,,0,0,0,0,,,,,,,,,,,,,,,,,,,,,0,9,9,9,,,,,,,,,,,,,,,,,,,,,,,,,,,,,,,,,,,,,,,,,,,,,,,,,,,,,,,,,,,,,,,,,,,,,,,,,1.2422839452823002,1.095350099960342,367.88977619999787,None,ScrollDown,정답입니다,367.88977619999787,None,367.88977619999787,None,367.88977619999787,None,367.88977619999787,None,368.8872609999962,None,368.8872609999962,369.3873003000044,,,,,,,,,,,,,,,,026,2022-05-19_19h46.12.837,FishGame,2022.1.1,60.00758496060822,
,11,넌 인기있어,2,Green,A,5.458333333333333,4.5,ScrollDown,ScrollUp,Green.png,3,Positive,Congruent,,,,,0,0,0,0,,,,,,,,,,,,,,,,,,,,,0,10,10,10,,,,,,,,,,,,,,,,,,,,,,,,,,,,,,,,,,,,,,,,,,,,,,,,,,,,,,,,,,,,,,,,,,,,,,,,,1.3348765447735786,0.8474807000020519,370.00206500000786,None,ScrollDown,정답입니다,370.00206500000786,None,370.00206500000786,None,370.00206500000786,None,370.00206500000786,None,370.75390220002737,None,370.75390220002737,371.2570751000312,,,,,,,,,,,,,,,,026,2022-05-19_19h46.12.837,FishGame,2022.1.1,60.00758496060822,
,12,나를 데려가줘,6,Orange,B,0,0,ScrollDown,ScrollUp,Orange.png,3,NonTarget,NonTarget,,,,,0,0,0,0,,,,,,,,,,,,,,,,,,,,,0,11,11,11,,,,,,,,,,,,,,,,,,,,,,,,,,,,,,,,,,,,,,,,,,,,,,,,,,,,,,,,,,,,,,,,,,,,,,,,,1.3117283980051675,0.8924862999701872,371.87893820001045,None,ScrollDown,정답입니다,371.87893820001045,None,371.87893820001045,None,371.87893820001045,None,371.87893820001045,None,372.6682225000113,None,372.6682225000113,373.16830010002013,,,,,,,,,,,,,,,,026,2022-05-19_19h46.12.837,FishGame,2022.1.1,60.00758496060822,
,13,넌 뛰어나,2,Orange,B,6.166666666666667,4,ScrollUp,ScrollDown,Orange.png,3,Positive,Incongruent,,,,,0,0,0,0,,,,,,,,,,,,,,,,,,,,,0,12,12,12,,,,,,,,,,,,,,,,,,,,,,,,,,,,,,,,,,,,,,,,,,,,,,,,,,,,,,,,,,,,,,,,,,,,,,,,,1.7453703681627908,0.8922698000096716,373.79953120002756,None,ScrollUp,정답입니다,373.79953120002756,None,373.79953120002756,None,373.79953120002756,None,373.79953120002756,None,374.58479970000917,None,374.58479970000917,375.084877300018,,,,,,,,,,,,,,,,026,2022-05-19_19h46.12.837,FishGame,2022.1.1,60.00758496060822,
,14,넌 낙관적이야,1,Green,A,5.75,5.8,ScrollDown,ScrollUp,Green.png,3,Positive,Congruent,,,,,0,0,0,0,,,,,,,,,,,,,,,,,,,,,0,13,13,13,,,,,,,,,,,,,,,,,,,,,,,,,,,,,,,,,,,,,,,,,,,,,,,,,,,,,,,,,,,,,,,,,,,,,,,,,1.256172845760981,0.962047100008931,375.7046987999929,None,ScrollDown,정답입니다,375.7046987999929,None,375.7046987999929,None,375.7046987999929,None,375.7046987999929,None,376.5681351000094,None,376.5681351000094,377.07031059998553,,,,,,,,,,,,,,,,026,2022-05-19_19h46.12.837,FishGame,2022.1.1,60.00758496060822,
,15,넌 산만해,4,Orange,B,2.695652173913043,3.033333333333333,ScrollUp,ScrollDown,Orange.png,3,Negative,Congruent,,,,,0,0,0,0,,,,,,,,,,,,,,,,,,,,,0,14,14,14,,,,,,,,,,,,,,,,,,,,,,,,,,,,,,,,,,,,,,,,,,,,,,,,,,,,,,,,,,,,,,,,,,,,,,,,,1.702160490055879,0.9925975000369363,377.7002609000192,None,ScrollUp,정답입니다,377.7002609000192,None,377.7002609000192,None,377.7002609000192,None,377.7002609000192,None,378.59011709998595,None,378.59011709998595,379.1014623999945,,,,,,,,,,,,,,,,026,2022-05-19_19h46.12.837,FishGame,2022.1.1,60.00758496060822,
,16,나를 보내줘,6,Green,A,0,0,ScrollUp,ScrollDown,Green.png,3,NonTarget,NonTarget,,,,,0,0,0,0,,,,,,,,,,,,,,,,,,,,,0,15,15,15,,,,,,,,,,,,,,,,,,,,,,,,,,,,,,,,,,,,,,,,,,,,,,,,,,,,,,,,,,,,,,,,,,,,,,,,,1.7283950646718345,1.0447592999553308,379.7178697999916,None,ScrollUp,정답입니다,379.7178697999916,None,379.7178697999916,None,379.7178697999916,None,379.7178697999916,None,380.6680144999991,None,380.6680144999991,381.1702155999956,,,,,,,,,,,,,,,,026,2022-05-19_19h46.12.837,FishGame,2022.1.1,60.00758496060822,
,17,넌 교활해,5,Orange,B,2.333333333333333,2.133333333333333,ScrollUp,ScrollDown,Orange.png,3,Negative,Congruent,,,,,0,0,0,0,,,,,,,,,,,,,,,,,,,,,0,16,16,16,,,,,,,,,,,,,,,,,,,,,,,,,,,,,,,,,,,,,,,,,,,,,,,,,,,,,,,,,,,,,,,,,,,,,,,,,1.7453703681627908,0.9258291000151075,381.7926541999914,None,ScrollUp,정답입니다,381.7926541999914,None,381.7926541999914,None,381.7926541999914,None,381.7926541999914,None,382.618068700016,None,382.618068700016,383.12025019997964,,,,,,,,,,,,,,,,026,2022-05-19_19h46.12.837,FishGame,2022.1.1,60.00758496060822,
,18,나를 보내줘,6,Green,A,0,0,ScrollUp,ScrollDown,Green.png,3,NonTarget,NonTarget,,,,,0,0,0,0,,,,,,,,,,,,,,,,,,,,,0,17,17,17,,,,,,,,,,,,,,,,,,,,,,,,,,,,,,,,,,,,,,,,,,,,,,,,,,,,,,,,,,,,,,,,,,,,,,,,,1.8317901243766148,1.0092583000077866,383.7378153000027,None,ScrollUp,정답입니다,383.7378153000027,None,383.7378153000027,None,383.7378153000027,None,383.7378153000027,None,384.6512605000171,None,384.6512605000171,385.1534599000006,,,,,,,,,,,,,,,,026,2022-05-19_19h46.12.837,FishGame,2022.1.1,60.00758496060822,
,19,넌 불친절해,5,Orange,B,2.208333333333333,2.033333333333333,ScrollUp,ScrollDown,Orange.png,3,Negative,Congruent,,,,,0,0,0,0,,,,,,,,,,,,,,,,,,,,,0,18,18,18,,,,,,,,,,,,,,,,,,,,,,,,,,,,,,,,,,,,,,,,,,,,,,,,,,,,,,,,,,,,,,,,,,,,,,,,,1.7839506169160206,0.9111735999467783,385.7756398000056,None,ScrollUp,정답입니다,385.7756398000056,None,385.7756398000056,None,385.7756398000056,None,385.7756398000056,None,386.5846424000338,None,386.5846424000338,387.08689570002025,,,,,,,,,,,,,,,,026,2022-05-19_19h46.12.837,FishGame,2022.1.1,60.00758496060822,
,20,넌 지적이야,2,Orange,B,5.75,4.366666666666666,ScrollUp,ScrollDown,Orange.png,3,Positive,Incongruent,,,,,0,0,0,0,,,,,,,,,,,,,,,,,,,,,0,19,19,19,,,,,,,,,,,,,,,,,,,,,,,,,,,,,,,,,,,,,,,,,,,,,,,,,,,,,,,,,,,,,,,,,,,,,,,,,1.858024686574936,0.8777575999847613,387.7042625999893,None,ScrollUp,정답입니다,387.7042625999893,None,387.7042625999893,None,387.7042625999893,None,387.7042625999893,None,388.48455370002193,None,388.48455370002193,388.98458879999816,,,,,,,,,,,,,,,,026,2022-05-19_19h46.12.837,FishGame,2022.1.1,60.00758496060822,
,21,넌 우유부단해,4,Green,A,2.666666666666667,3.166666666666667,ScrollDown,ScrollUp,Green.png,3,Negative,Incongruent,,,,,0,0,0,0,,,,,,,,,,,,,,,,,,,,,0,20,20,20,,,,,,,,,,,,,,,,,,,,,,,,,,,,,,,,,,,,,,,,,,,,,,,,,,,,,,,,,,,,,,,,,,,,,,,,,1.256172845760981,0.8445718000293709,389.6061700999853,None,ScrollDown,정답입니다,389.6061700999853,None,389.6061700999853,None,389.6061700999853,None,389.6061700999853,None,390.3511785999872,None,390.3511785999872,390.85337050003,,,,,,,,,,,,,,,,026,2022-05-19_19h46.12.837,FishGame,2022.1.1,60.00758496060822,
,22,나를 데려가줘,6,Orange,B,0,0,ScrollDown,ScrollUp,Orange.png,3,NonTarget,NonTarget,,,,,0,0,0,0,,,,,,,,,,,,,,,,,,,,,0,21,21,21,,,,,,,,,,,,,,,,,,,,,,,,,,,,,,,,,,,,,,,,,,,,,,,,,,,,,,,,,,,,,,,,,,,,,,,,,1.2361111144224803,0.9258285000105388,391.4762663000147,None,ScrollDown,정답입니다,391.4762663000147,None,391.4762663000147,None,391.4762663000147,None,391.4762663000147,None,392.3034071000293,None,392.3034071000293,392.8033827000181,,,,,,,,,,,,,,,,026,2022-05-19_19h46.12.837,FishGame,2022.1.1,60.00758496060822,
,23,넌 성실해,1,Orange,B,6.041666666666666,5.7,ScrollUp,ScrollDown,Orange.png,3,Positive,Incongruent,,,,,0,0,0,0,,,,,,,,,,,,,,,,,,,,,0,22,22,22,,,,,,,,,,,,,,,,,,,,,,,,,,,,,,,,,,,,,,,,,,,,,,,,,,,,,,,,,,,,,,,,,,,,,,,,,1.6280864203969636,0.9598151000100188,393.41974480001954,None,ScrollUp,정답입니다,393.41974480001954,None,393.41974480001954,None,393.41974480001954,None,393.41974480001954,None,394.28440629999386,None,394.28440629999386,394.78444590000436,,,,,,,,,,,,,,,,026,2022-05-19_19h46.12.837,FishGame,2022.1.1,60.00758496060822,
,24,넌 현실주의적이야,3,Green,A,4.625,4.4,ScrollDown,ScrollUp,Green.png,3,Neutral,Neutral,,,,,0,0,0,0,,,,,,,,,,,,,,,,,,,,,0,23,23,23,,,,,,,,,,,,,,,,,,,,,,,,,,,,,,,,,,,,,,,,,,,,,,,,,,,,,,,,,,,,,,,,,,,,,,,,,1.3317901293436685,0.8758402999956161,395.4125125000137,None,ScrollDown,정답입니다,395.4125125000137,None,395.4125125000137,None,395.4125125000137,None,395.4125125000137,None,396.18441709998297,None,396.18441709998297,396.68661239999346,,,,,,,,,,,,,,,,026,2022-05-19_19h46.12.837,FishGame,2022.1.1,60.00758496060822,
,25,넌 진실돼,1,Green,A,6.625,5.566666666666666,ScrollDown,ScrollUp,Green.png,3,Positive,Congruent,,,,,0,0,0,0,,,,,,,,,,,,,,,,,,,,,0,24,24,24,,,,,,,,,,,,,,,,,,,,,,,,,,,,,,,,,,,,,,,,,,,,,,,,,,,,,,,,,,,,,,,,,,,,,,,,,1.3441358034809432,1.0113046999904327,397.30943010002375,None,ScrollDown,정답입니다,397.30943010002375,None,397.30943010002375,None,397.30943010002375,None,397.30943010002375,None,398.217639599985,None,398.217639599985,398.71773000003304,,,,,,,,,,,,,,,,026,2022-05-19_19h46.12.837,FishGame,2022.1.1,60.00758496060822,
,26,넌 천진난만해,3,Orange,B,4.958333333333334,4.833333333333333,ScrollUp,ScrollDown,Orange.png,3,Neutral,Neutral,,,,,0,0,0,0,,,,,,,,,,,,,,,,,,,,,0,25,25,25,,,,,,,,,,,,,,,,,,,,,,,,,,,,,,,,,,,,,,,,,,,,,,,,,,,,,,,,,,,,,,,,,,,,,,,,,1.8549382835626602,1.2947831999626942,399.3491582000279,None,ScrollUp,정답입니다,399.3491582000279,None,399.3491582000279,None,399.3491582000279,None,399.3491582000279,None,400.5343129999819,None,400.5343129999819,401.0364975000266,,,,,,,,,,,,,,,,026,2022-05-19_19h46.12.837,FishGame,2022.1.1,60.00758496060822,
,27,넌 교양없어,5,Green,A,2.416666666666667,2.2,ScrollDown,ScrollUp,Green.png,3,Negative,Incongruent,,,,,0,0,0,0,,,,,,,,,,,,,,,,,,,,,0,26,26,26,,,,,,,,,,,,,,,,,,,,,,,,,,,,,,,,,,,,,,,,,,,,,,,,,,,,,,,,,,,,,,,,,,,,,,,,,1.3070987686514854,0.8633260999922641,401.653659100004,None,ScrollDown,정답입니다,401.653659100004,None,401.653659100004,None,401.653659100004,None,401.653659100004,None,402.4176335000084,None,402.4176335000084,402.91762550000567,,,,,,,,,,,,,,,,026,2022-05-19_19h46.12.837,FishGame,2022.1.1,60.00758496060822,
,28,나를 보내줘,6,Green,A,0,0,ScrollUp,ScrollDown,Green.png,3,NonTarget,NonTarget,,,,,0,0,0,0,,,,,,,,,,,,,,,,,,,,,0,27,27,27,,,,,,,,,,,,,,,,,,,,,,,,,,,,,,,,,,,,,,,,,,,,,,,,,,,,,,,,,,,,,,,,,,,,,,,,,1.6975308607021966,1.1926596999983303,403.5379040000262,None,ScrollUp,정답입니다,403.5379040000262,None,403.5379040000262,None,403.5379040000262,None,403.5379040000262,None,404.63420070003485,None,404.63420070003485,405.1363998000161,,,,,,,,,,,,,,,,026,2022-05-19_19h46.12.837,FishGame,2022.1.1,60.00758496060822,
,29,넌 엉뚱스러워,3,Green,A,4.166666666666667,4.133333333333334,ScrollDown,ScrollUp,Green.png,3,Neutral,Neutral,,,,,0,0,0,0,,,,,,,,,,,,,,,,,,,,,0,28,28,28,,,,,,,,,,,,,,,,,,,,,,,,,,,,,,,,,,,,,,,,,,,,,,,,,,,,,,,,,,,,,,,,,,,,,,,,,1.3518518482645354,0.909115299989935,405.7739942999906,None,ScrollDown,정답입니다,405.7739942999906,None,405.7739942999906,None,405.7739942999906,None,405.7739942999906,None,406.5675437999889,None,406.5675437999889,407.0697385999956,,,,,,,,,,,,,,,,026,2022-05-19_19h46.12.837,FishGame,2022.1.1,60.00758496060822,
,30,넌 무지해,4,Orange,B,2.541666666666667,3.066666666666667,ScrollUp,ScrollDown,Orange.png,3,Negative,Congruent,,,,,0,0,0,0,,,,,,,,,,,,,,,,,,,,,0,29,29,29,,,,,,,,,,,,,,,,,,,,,,,,,,,,,,,,,,,,,,,,,,,,,,,,,,,,,,,,,,,,,,,,,,,,,,,,,1.6898148159186044,0.8922910999972373,407.6920215000282,None,ScrollUp,정답입니다,407.6920215000282,None,407.6920215000282,None,407.6920215000282,None,407.6920215000282,None,408.4841016000137,None,408.4841016000137,408.9862872000085,,,,,,,,,,,,,,,,026,2022-05-19_19h46.12.837,FishGame,2022.1.1,60.00758496060822,
,31,넌 음울해,5,Orange,B,2.25,2.233333333333333,ScrollUp,ScrollDown,Orange.png,3,Negative,Congruent,,,,,0,0,0,0,,,,,,,,,,,,,,,,,,,,,0,30,30,30,,,,,,,,,,,,,,,,,,,,,,,,,,,,,,,,,,,,,,,,,,,,,,,,,,,,,,,,,,,,,,,,,,,,,,,,,1.6620370397965112,0.8777894000522792,409.60493229998974,None,ScrollUp,정답입니다,409.60493229998974,None,409.60493229998974,None,409.60493229998974,None,409.60493229998974,None,410.3840921000228,None,410.3840921000228,410.88633569999365,,,,,,,,,,,,,,,,026,2022-05-19_19h46.12.837,FishGame,2022.1.1,60.00758496060822,
,32,넌 냉소적이야,5,Green,A,2.916666666666667,2.4,ScrollDown,ScrollUp,Green.png,3,Negative,Incongruent,,,,,0,0,0,0,,,,,,,,,,,,,,,,,,,,,0,31,31,31,,,,,,,,,,,,,,,,,,,,,,,,,,,,,,,,,,,,,,,,,,,,,,,,,,,,,,,,,,,,,,,,,,,,,,,,,1.276234577099482,0.9259850999806076,411.5043240999803,None,ScrollDown,정답입니다,411.5043240999803,None,411.5043240999803,None,411.5043240999803,None,411.5043240999803,None,412.3341175999958,None,412.3341175999958,412.836316800036,,,,,,,,,,,,,,,,026,2022-05-19_19h46.12.837,FishGame,2022.1.1,60.00758496060822,
,33,나를 데려가줘,6,Orange,B,0,0,ScrollDown,ScrollUp,Orange.png,3,NonTarget,NonTarget,,,,,0,0,0,0,,,,,,,,,,,,,,,,,,,,,0,32,32,32,,,,,,,,,,,,,,,,,,,,,,,,,,,,,,,,,,,,,,,,,,,,,,,,,,,,,,,,,,,,,,,,,,,,,,,,,1.2947530820965767,1.0926316000404768,413.4565181999933,None,ScrollDown,정답입니다,413.4565181999933,None,413.4565181999933,None,413.4565181999933,None,413.4565181999933,None,414.45066470000893,None,414.45066470000893,414.9529499000055,,,,,,,,,,,,,,,,026,2022-05-19_19h46.12.837,FishGame,2022.1.1,60.00758496060822,
,34,넌 쾌활해,1,Green,A,5.541666666666666,5.733333333333333,ScrollDown,ScrollUp,Green.png,3,Positive,Congruent,,,,,0,0,0,0,,,,,,,,,,,,,,,,,,,,,0,33,33,33,,,,,,,,,,,,,,,,,,,,,,,,,,,,,,,,,,,,,,,,,,,,,,,,,,,,,,,,,,,,,,,,,,,,,,,,,1.3055555547277131,0.9114163999911398,415.57693660003133,None,ScrollDown,정답입니다,415.57693660003133,None,415.57693660003133,None,415.57693660003133,None,415.57693660003133,None,416.3840673000086,None,416.3840673000086,416.88619679998374,,,,,,,,,,,,,,,,026,2022-05-19_19h46.12.837,FishGame,2022.1.1,60.00758496060822,
,35,나를 보내줘,6,Green,A,0,0,ScrollUp,ScrollDown,Green.png,3,NonTarget,NonTarget,,,,,0,0,0,0,,,,,,,,,,,,,,,,,,,,,0,34,34,34,,,,,,,,,,,,,,,,,,,,,,,,,,,,,,,,,,,,,,,,,,,,,,,,,,,,,,,,,,,,,,,,,,,,,,,,,1.6820987711350122,0.992427300021518,417.50276830000803,None,ScrollUp,정답입니다,417.50276830000803,None,417.50276830000803,None,417.50276830000803,None,417.50276830000803,None,418.4005785000045,None,418.4005785000045,418.90278010000475,,,,,,,,,,,,,,,,026,2022-05-19_19h46.12.837,FishGame,2022.1.1,60.00758496060822,
,36,넌 명랑해,1,Orange,B,5.739130434782609,5.666666666666667,ScrollUp,ScrollDown,Orange.png,3,Positive,Incongruent,,,,,0,0,0,0,,,,,,,,,,,,,,,,,,,,,0,35,35,35,,,,,,,,,,,,,,,,,,,,,,,,,,,,,,,,,,,,,,,,,,,,,,,,,,,,,,,,,,,,,,,,,,,,,,,,,1.614197532335917,0.9425311000086367,419.5281936000101,None,ScrollUp,정답입니다,419.5281936000101,None,419.5281936000101,None,419.5281936000101,None,419.5281936000101,None,420.36727899999823,None,420.36727899999823,420.8694187999936,,,,,,,,,,,,,,,,026,2022-05-19_19h46.12.837,FishGame,2022.1.1,60.00758496060822,
,37,넌 멍해,4,Green,A,2.833333333333333,3.4,ScrollDown,ScrollUp,Green.png,3,Negative,Incongruent,,,,,0,0,0,0,,,,,,,,,,,,,,,,,,,,,0,36,36,36,,,,,,,,,,,,,,,,,,,,,,,,,,,,,,,,,,,,,,,,,,,,,,,,,,,,,,,,,,,,,,,,,,,,,,,,,1.3518518482645354,0.8283298999886028,421.4909171999898,None,ScrollDown,정답입니다,421.4909171999898,None,421.4909171999898,None,421.4909171999898,None,421.4909171999898,None,422.2172377000097,None,422.2172377000097,422.7194031000254,,,,,,,,,,,,,,,,026,2022-05-19_19h46.12.837,FishGame,2022.1.1,60.00758496060822,
,38,나를 데려가줘,6,Orange,B,0,0,ScrollDown,ScrollUp,Orange.png,3,NonTarget,NonTarget,,,,,0,0,0,0,,,,,,,,,,,,,,,,,,,,,0,37,37,37,,,,,,,,,,,,,,,,,,,,,,,,,,,,,,,,,,,,,,,,,,,,,,,,,,,,,,,,,,,,,,,,,,,,,,,,,1.3101851840813956,1.0422503000008874,423.3438517000177,None,ScrollDown,정답입니다,423.3438517000177,None,423.3438517000177,None,423.3438517000177,None,423.3438517000177,None,424.28380169998854,None,424.28380169998854,424.7859974000021,,,,,,,,,,,,,,,,026,2022-05-19_19h46.12.837,FishGame,2022.1.1,60.00758496060822,
,39,넌 현명해,2,Green,A,6.541666666666666,4.533333333333333,ScrollDown,ScrollUp,Green.png,3,Positive,Congruent,,,,,0,0,0,0,,,,,,,,,,,,,,,,,,,,,0,38,38,38,,,,,,,,,,,,,,,,,,,,,,,,,,,,,,,,,,,,,,,,,,,,,,,,,,,,,,,,,,,,,,,,,,,,,,,,,1.3179012288649878,0.8779287000070326,425.4075956000015,None,ScrollDown,정답입니다,425.4075956000015,None,425.4075956000015,None,425.4075956000015,None,425.4075956000015,None,426.18380579998484,None,426.18380579998484,426.68605830002343,,,,,,,,,,,,,,,,026,2022-05-19_19h46.12.837,FishGame,2022.1.1,60.00758496060822,
,40,넌 수줍어,3,Orange,B,3.541666666666666,4.366666666666666,ScrollUp,ScrollDown,Orange.png,3,Neutral,Neutral,,,,,0,0,0,0,,,,,,,,,,,,,,,,,,,,,0,39,39,39,,,,,,,,,,,,,,,,,,,,,,,,,,,,,,,,,,,,,,,,,,,,,,,,,,,,,,,,,,,,,,,,,,,,,,,,,1.5910493855675063,0.9275173000060022,427.30579990003025,None,ScrollUp,정답입니다,427.30579990003025,None,427.30579990003025,None,427.30579990003025,None,427.30579990003025,None,428.1360610999982,None,428.1360610999982,428.6359190000221,,,,,,,,,,,,,,,,026,2022-05-19_19h46.12.837,FishGame,2022.1.1,60.00758496060822,
,41,나를 데려가줘,6,Orange,B,0,0,ScrollDown,ScrollUp,Orange.png,3,NonTarget,NonTarget,,,,,0,0,0,0,,,,,,,,,,,,,,,,,,,,,0,40,40,40,,,,,,,,,,,,,,,,,,,,,,,,,,,,,,,,,,,,,,,,,,,,,,,,,,,,,,,,,,,,,,,,,,,,,,,,,1.3395061741272607,0.9446799000143073,429.27555950003443,None,ScrollDown,정답입니다,429.27555950003443,None,429.27555950003443,None,429.27555950003443,None,429.27555950003443,None,430.1170134000131,None,430.1170134000131,430.6171105999965,,,,,,,,,,,,,,,,026,2022-05-19_19h46.12.837,FishGame,2022.1.1,60.00758496060822,
,42,넌 성숙해,2,Orange,B,5.833333333333333,4.533333333333333,ScrollUp,ScrollDown,Orange.png,3,Positive,Incongruent,,,,,0,0,0,0,,,,,,,,,,,,,,,,,,,,,0,41,41,41,,,,,,,,,,,,,,,,,,,,,,,,,,,,,,,,,,,,,,,,,,,,,,,,,,,,,,,,,,,,,,,,,,,,,,,,,1.6064814875523248,0.9426460000104271,431.2420184999937,None,ScrollUp,정답입니다,431.2420184999937,None,431.2420184999937,None,431.2420184999937,None,431.2420184999937,None,432.0858585999813,None,432.0858585999813,432.5837486999808,,,,,,,,,,,,,,,,026,2022-05-19_19h46.12.837,FishGame,2022.1.1,60.00758496060822,
,1,넌 매력적이야,2,Orange,B,6.125,4.666666666666667,ScrollUp,ScrollDown,Orange.png,4,Positive,Incongruent,,,,,0,0,0,0,,,,,,,,,,,,,,,,,,,,,,,,,0,0,0,0,,,,,,,,,,,,,,,,,,,,,,,,,,,,464.07181460002903,465.5853539999807,465.59965940000257,466.552127700008,466.60202160000335,467.5686666999827,467.5521012999816,None,,,,,,,,,,,,,,,,,,,,,,,,,,,,,,,,,,1.7592592686414719,0.9746636000345461,468.65662530000554,None,ScrollUp,정답입니다,468.65662530000554,None,468.65662530000554,None,468.65662530000554,None,468.65662530000554,None,469.5329625000013,None,469.5329625000013,470.0351474999916,433.08593920001294,None,433.08593920001294,None,0.42222223,-0.1037037,1,0,0,0.01607914996566251,None,463.08533770003123,None,,,026,2022-05-19_19h46.12.837,FishGame,2022.1.1,60.00758496060822,
,2,나를 보내줘,6,Green,A,0,0,ScrollUp,ScrollDown,Green.png,4,NonTarget,NonTarget,,,,,0,0,0,0,,,,,,,,,,,,,,,,,,,,,,,,,0,1,1,1,,,,,,,,,,,,,,,,,,,,,,,,,,,,,,,,,,,,,,,,,,,,,,,,,,,,,,,,,,,,,,,,,,,,,1.6373456791043282,0.9266225000028498,470.65116800001124,None,ScrollUp,정답입니다,470.65116800001124,None,470.65116800001124,None,470.65116800001124,None,470.65116800001124,None,471.482962900016,None,471.482962900016,471.9829305000021,,,,,,,,,,,,,,,,026,2022-05-19_19h46.12.837,FishGame,2022.1.1,60.00758496060822,
,3,넌 조심스러워,3,Green,A,4.791666666666666,4.666666666666667,ScrollDown,ScrollUp,Green.png,4,Neutral,Neutral,,,,,0,0,0,0,,,,,,,,,,,,,,,,,,,,,,,,,0,2,2,2,,,,,,,,,,,,,,,,,,,,,,,,,,,,,,,,,,,,,,,,,,,,,,,,,,,,,,,,,,,,,,,,,,,,,1.2422839452823002,0.9273585000191815,472.60026789997937,None,ScrollDown,정답입니다,472.60026789997937,None,472.60026789997937,None,472.60026789997937,None,472.60026789997937,None,473.4350802000263,None,473.4350802000263,473.9350907999906,,,,,,,,,,,,,,,,026,2022-05-19_19h46.12.837,FishGame,2022.1.1,60.00758496060822,
,4,넌 철학적이야,3,Orange,B,4.5,4.266666666666667,ScrollUp,ScrollDown,Orange.png,4,Neutral,Neutral,,,,,0,0,0,0,,,,,,,,,,,,,,,,,,,,,,,,,0,3,3,3,,,,,,,,,,,,,,,,,,,,,,,,,,,,,,,,,,,,,,,,,,,,,,,,,,,,,,,,,,,,,,,,,,,,,1.6311728358268738,0.876669299963396,474.55913070001407,None,ScrollUp,정답입니다,474.55913070001407,None,474.55913070001407,None,474.55913070001407,None,474.55913070001407,None,475.33278170000995,None,475.33278170000995,475.83285880001495,,,,,,,,,,,,,,,,026,2022-05-19_19h46.12.837,FishGame,2022.1.1,60.00758496060822,
,5,넌 쩨쩨해,5,Green,A,2.375,2.133333333333333,ScrollDown,ScrollUp,Green.png,4,Negative,Incongruent,,,,,0,0,0,0,,,,,,,,,,,,,,,,,,,,,,,,,0,4,4,4,,,,,,,,,,,,,,,,,,,,,,,,,,,,,,,,,,,,,,,,,,,,,,,,,,,,,,,,,,,,,,,,,,,,,1.3287037014961243,0.8278372000204399,476.46724670002004,None,ScrollDown,정답입니다,476.46724670002004,None,476.46724670002004,None,476.46724670002004,None,476.46724670002004,None,477.1827475000173,None,477.1827475000173,477.68284199998016,,,,,,,,,,,,,,,,026,2022-05-19_19h46.12.837,FishGame,2022.1.1,60.00758496060822,
,6,나를 데려가줘,6,Orange,B,0,0,ScrollDown,ScrollUp,Orange.png,4,NonTarget,NonTarget,,,,,0,0,0,0,,,,,,,,,,,,,,,,,,,,,,,,,0,5,5,5,,,,,,,,,,,,,,,,,,,,,,,,,,,,,,,,,,,,,,,,,,,,,,,,,,,,,,,,,,,,,,,,,,,,,1.0910493781169255,0.9281536999624223,478.30280280002626,None,ScrollDown,정답입니다,478.30280280002626,None,478.30280280002626,None,478.30280280002626,None,478.30280280002626,None,479.13493940001354,None,479.13493940001354,479.6350407000282,,,,,,,,,,,,,,,,026,2022-05-19_19h46.12.837,FishGame,2022.1.1,60.00758496060822,
,7,넌 고집불통이야,5,Orange,B,2.875,2,ScrollUp,ScrollDown,Orange.png,4,Negative,Congruent,,,,,0,0,0,0,,,,,,,,,,,,,,,,,,,,,,,,,0,6,6,6,,,,,,,,,,,,,,,,,,,,,,,,,,,,,,,,,,,,,,,,,,,,,,,,,,,,,,,,,,,,,,,,,,,,,1.6234567910432816,0.8436975000076927,480.2562195000355,None,ScrollUp,정답입니다,480.2562195000355,None,480.2562195000355,None,480.2562195000355,None,480.2562195000355,None,480.9993184999912,None,480.9993184999912,481.5015410000342,,,,,,,,,,,,,,,,026,2022-05-19_19h46.12.837,FishGame,2022.1.1,60.00758496060822,
,8,넌 무심해,4,Green,A,2.875,3.2,ScrollDown,ScrollUp,Green.png,4,Negative,Incongruent,,,,,0,0,0,0,,,,,,,,,,,,,,,,,,,,,,,,,0,7,7,7,,,,,,,,,,,,,,,,,,,,,,,,,,,,,,,,,,,,,,,,,,,,,,,,,,,,,,,,,,,,,,,,,,,,,1.214506169160207,0.7775325999828056,482.11878970003454,None,ScrollDown,정답입니다,482.11878970003454,None,482.11878970003454,None,482.11878970003454,None,482.11878970003454,None,482.799314200005,None,482.799314200005,483.3014588000369,,,,,,,,,,,,,,,,026,2022-05-19_19h46.12.837,FishGame,2022.1.1,60.00758496060822,
,9,넌 정겨워,1,Green,A,5.791666666666667,5.666666666666667,ScrollDown,ScrollUp,Green.png,4,Positive,Congruent,,,,,0,0,0,0,,,,,,,,,,,,,,,,,,,,,,,,,0,8,8,8,,,,,,,,,,,,,,,,,,,,,,,,,,,,,,,,,,,,,,,,,,,,,,,,,,,,,,,,,,,,,,,,,,,,,1.2314814726511638,0.7947992000263184,483.9283605000237,None,ScrollDown,정답입니다,483.9283605000237,None,483.9283605000237,None,483.9283605000237,None,483.9283605000237,None,484.61598380003124,None,484.61598380003124,485.11826319998363,,,,,,,,,,,,,,,,026,2022-05-19_19h46.12.837,FishGame,2022.1.1,60.00758496060822,
,10,나를 데려가줘,6,Orange,B,0,0,ScrollDown,ScrollUp,Orange.png,4,NonTarget,NonTarget,,,,,0,0,0,0,,,,,,,,,,,,,,,,,,,,,,,,,0,9,9,9,,,,,,,,,,,,,,,,,,,,,,,,,,,,,,,,,,,,,,,,,,,,,,,,,,,,,,,,,,,,,,,,,,,,,1.248456800977389,0.8757252999930643,485.74427580001066,None,ScrollDown,정답입니다,485.74427580001066,None,485.74427580001066,None,485.74427580001066,None,485.74427580001066,None,486.5156476999982,None,486.5156476999982,487.01572910003597,,,,,,,,,,,,,,,,026,2022-05-19_19h46.12.837,FishGame,2022.1.1,60.00758496060822,
,11,넌 체제순응적이야,4,Orange,B,3,3.6,ScrollUp,ScrollDown,Orange.png,4,Negative,Congruent,,,,,0,0,0,0,,,,,,,,,,,,,,,,,,,,,,,,,0,10,10,10,,,,,,,,,,,,,,,,,,,,,,,,,,,,,,,,,,,,,,,,,,,,,,,,,,,,,,,,,,,,,,,,,,,,,1.6265432064731917,0.8450004999758676,487.64406800002325,None,ScrollUp,정답입니다,487.64406800002325,None,487.64406800002325,None,487.64406800002325,None,487.64406800002325,None,488.3848658000352,None,488.3848658000352,488.88488840003265,,,,,,,,,,,,,,,,026,2022-05-19_19h46.12.837,FishGame,2022.1.1,60.00758496060822,
,12,나를 보내줘,6,Green,A,0,0,ScrollUp,ScrollDown,Green.png,4,NonTarget,NonTarget,,,,,0,0,0,0,,,,,,,,,,,,,,,,,,,,,,,,,0,11,11,11,,,,,,,,,,,,,,,,,,,,,,,,,,,,,,,,,,,,,,,,,,,,,,,,,,,,,,,,,,,,,,,,,,,,,1.560185187806686,0.9963453999953344,489.5005404999829,None,ScrollUp,정답입니다,489.5005404999829,None,489.5005404999829,None,489.5005404999829,None,489.5005404999829,None,490.4014482999919,None,490.4014482999919,490.9014734000084,,,,,,,,,,,,,,,,026,2022-05-19_19h46.12.837,FishGame,2022.1.1,60.00758496060822,
,13,넌 박식해,2,Green,A,5.625,3.933333333333333,ScrollDown,ScrollUp,Green.png,4,Positive,Congruent,,,,,0,0,0,0,,,,,,,,,,,,,,,,,,,,,,,,,0,12,12,12,,,,,,,,,,,,,,,,,,,,,,,,,,,,,,,,,,,,,,,,,,,,,,,,,,,,,,,,,,,,,,,,,,,,,1.248456800977389,0.8107286000158638,491.5285147000104,None,ScrollDown,정답입니다,491.5285147000104,None,491.5285147000104,None,491.5285147000104,None,491.5285147000104,None,492.23247550003,None,492.23247550003,492.73470760002965,,,,,,,,,,,,,,,,026,2022-05-19_19h46.12.837,FishGame,2022.1.1,60.00758496060822,
,14,나를 보내줘,6,Green,A,0,0,ScrollUp,ScrollDown,Green.png,4,NonTarget,NonTarget,,,,,0,0,0,0,,,,,,,,,,,,,,,,,,,,,,,,,0,13,13,13,,,,,,,,,,,,,,,,,,,,,,,,,,,,,,,,,,,,,,,,,,,,,,,,,,,,,,,,,,,,,,,,,,,,,1.6157407462596893,0.992316399991978,493.35491440002806,None,ScrollUp,정답입니다,493.35491440002806,None,493.35491440002806,None,493.35491440002806,None,493.35491440002806,None,494.24905709997984,None,494.24905709997984,494.7491299000103,,,,,,,,,,,,,,,,026,2022-05-19_19h46.12.837,FishGame,2022.1.1,60.00758496060822,
,15,넌 침착해,1,Orange,B,5.458333333333333,5.566666666666666,ScrollUp,ScrollDown,Orange.png,4,Positive,Incongruent,,,,,0,0,0,0,,,,,,,,,,,,,,,,,,,,,,,,,0,14,14,14,,,,,,,,,,,,,,,,,,,,,,,,,,,,,,,,,,,,,,,,,,,,,,,,,,,,,,,,,,,,,,,,,,,,,1.6975308607021966,0.8444136999896728,495.3727436999907,None,ScrollUp,정답입니다,495.3727436999907,None,495.3727436999907,None,495.3727436999907,None,495.3727436999907,None,496.11573670001235,None,496.11573670001235,496.6179109000368,,,,,,,,,,,,,,,,026,2022-05-19_19h46.12.837,FishGame,2022.1.1,60.00758496060822,
,16,나를 데려가줘,6,Orange,B,0,0,ScrollDown,ScrollUp,Orange.png,4,NonTarget,NonTarget,,,,,0,0,0,0,,,,,,,,,,,,,,,,,,,,,,,,,0,15,15,15,,,,,,,,,,,,,,,,,,,,,,,,,,,,,,,,,,,,,,,,,,,,,,,,,,,,,,,,,,,,,,,,,,,,,1.28086419403553,0.8921501000295393,497.2450312000001,None,ScrollDown,정답입니다,497.2450312000001,None,497.2450312000001,None,497.2450312000001,None,497.2450312000001,None,498.0346033999813,None,498.0346033999813,498.5490510999807,,,,,,,,,,,,,,,,026,2022-05-19_19h46.12.837,FishGame,2022.1.1,60.00758496060822,
,17,넌 행복해,1,Green,A,6.416666666666666,6.166666666666667,ScrollDown,ScrollUp,Green.png,4,Positive,Congruent,,,,,0,0,0,0,,,,,,,,,,,,,,,,,,,,,,,,,0,16,16,16,,,,,,,,,,,,,,,,,,,,,,,,,,,,,,,,,,,,,,,,,,,,,,,,,,,,,,,,,,,,,,,,,,,,,1.1466049303611119,1.3124359999783337,499.1682641999796,None,ScrollDown,정답입니다,499.1682641999796,None,499.1682641999796,None,499.1682641999796,None,499.1682641999796,None,500.38453630002914,None,500.38453630002914,500.8823646000237,,,,,,,,,,,,,,,,026,2022-05-19_19h46.12.837,FishGame,2022.1.1,60.00758496060822,
,18,넌 겸손해,2,Orange,B,5.791666666666667,4.766666666666667,ScrollUp,ScrollDown,Orange.png,4,Positive,Incongruent,,,,,0,0,0,0,,,,,,,,,,,,,,,,,,,,,,,,,0,17,17,17,,,,,,,,,,,,,,,,,,,,,,,,,,,,,,,,,,,,,,,,,,,,,,,,,,,,,,,,,,,,,,,,,,,,,1.609567902982235,0.9759430999984033,501.5086779000121,None,ScrollUp,정답입니다,501.5086779000121,None,501.5086779000121,None,501.5086779000121,None,501.5086779000121,None,502.38229799998226,None,502.38229799998226,502.88457460002974,,,,,,,,,,,,,,,,026,2022-05-19_19h46.12.837,FishGame,2022.1.1,60.00758496060822,
,19,나를 보내줘,6,Green,A,0,0,ScrollUp,ScrollDown,Green.png,4,NonTarget,NonTarget,,,,,0,0,0,0,,,,,,,,,,,,,,,,,,,,,,,,,0,18,18,18,,,,,,,,,,,,,,,,,,,,,,,,,,,,,,,,,,,,,,,,,,,,,,,,,,,,,,,,,,,,,,,,,,,,,1.6929012313485146,0.8930691000423394,503.50642019999214,None,ScrollUp,정답입니다,503.50642019999214,None,503.50642019999214,None,503.50642019999214,None,503.50642019999214,None,504.2986426000134,None,504.2986426000134,504.79867200000444,,,,,,,,,,,,,,,,026,2022-05-19_19h46.12.837,FishGame,2022.1.1,60.00758496060822,
,20,넌 의심없어,3,Green,A,4.166666666666667,4.6,ScrollDown,ScrollUp,Green.png,4,Neutral,Neutral,,,,,0,0,0,0,,,,,,,,,,,,,,,,,,,,,,,,,0,19,19,19,,,,,,,,,,,,,,,,,,,,,,,,,,,,,,,,,,,,,,,,,,,,,,,,,,,,,,,,,,,,,,,,,,,,,1.2793209801117578,0.8447811999940313,505.4153366999817,None,ScrollDown,정답입니다,505.4153366999817,None,505.4153366999817,None,505.4153366999817,None,505.4153366999817,None,506.1653016000055,None,506.1653016000055,506.6678748999839,,,,,,,,,,,,,,,,026,2022-05-19_19h46.12.837,FishGame,2022.1.1,60.00758496060822,
,21,넌 시시해,4,Green,A,2.666666666666667,2.966666666666667,ScrollDown,ScrollUp,Green.png,4,Negative,Incongruent,,,,,0,0,0,0,,,,,,,,,,,,,,,,,,,,,,,,,0,20,20,20,,,,,,,,,,,,,,,,,,,,,,,,,,,,,,,,,,,,,,,,,,,,,,,,,,,,,,,,,,,,,,,,,,,,,1.3379629602034888,0.7128209000220522,507.280683399993,None,ScrollDown,정답입니다,507.280683399993,None,507.280683399993,None,507.280683399993,None,507.280683399993,None,507.8989539000322,None,507.8989539000322,508.40114440000616,,,,,,,,,,,,,,,,026,2022-05-19_19h46.12.837,FishGame,2022.1.1,60.00758496060822,
,22,나를 데려가줘,6,Orange,B,0,0,ScrollDown,ScrollUp,Orange.png,4,NonTarget,NonTarget,,,,,0,0,0,0,,,,,,,,,,,,,,,,,,,,,,,,,0,21,21,21,,,,,,,,,,,,,,,,,,,,,,,,,,,,,,,,,,,,,,,,,,,,,,,,,,,,,,,,,,,,,,,,,,,,,1.253086417913437,1.2092014999943785,509.021259000001,None,ScrollDown,정답입니다,509.021259000001,None,509.021259000001,None,509.021259000001,None,509.021259000001,None,510.1343177999952,None,510.1343177999952,510.63751860003686,,,,,,,,,,,,,,,,026,2022-05-19_19h46.12.837,FishGame,2022.1.1,60.00758496060822,
,23,넌 무정해,5,Green,A,2.5,2.2,ScrollDown,ScrollUp,Green.png,4,Negative,Incongruent,,,,,0,0,0,0,,,,,,,,,,,,,,,,,,,,,,,,,0,22,22,22,,,,,,,,,,,,,,,,,,,,,,,,,,,,,,,,,,,,,,,,,,,,,,,,,,,,,,,,,,,,,,,,,,,,,1.2731481492519379,0.8262413000338711,511.2676982000121,None,ScrollDown,정답입니다,511.2676982000121,None,511.2676982000121,None,511.2676982000121,None,511.2676982000121,None,511.9987987999921,None,511.9987987999921,512.4987954000244,,,,,,,,,,,,,,,,026,2022-05-19_19h46.12.837,FishGame,2022.1.1,60.00758496060822,
,24,넌 긍정적이야,1,Orange,B,6.041666666666667,6.066666666666666,ScrollUp,ScrollDown,Orange.png,4,Positive,Incongruent,,,,,0,0,0,0,,,,,,,,,,,,,,,,,,,,,,,,,0,23,23,23,,,,,,,,,,,,,,,,,,,,,,,,,,,,,,,,,,,,,,,,,,,,,,,,,,,,,,,,,,,,,,,,,,,,,1.6311728358268738,1.9421796000096947,513.1316324000363,None,ScrollUp,정답입니다,513.1316324000363,None,513.1316324000363,None,513.1316324000363,None,513.1316324000363,None,514.9676411999972,None,514.9676411999972,515.4675525000202,,,,,,,,,,,,,,,,026,2022-05-19_19h46.12.837,FishGame,2022.1.1,60.00758496060822,
,25,나를 보내줘,6,Green,A,0,0,ScrollUp,ScrollDown,Green.png,4,NonTarget,NonTarget,,,,,0,0,0,0,,,,,,,,,,,,,,,,,,,,,,,,,0,24,24,24,,,,,,,,,,,,,,,,,,,,,,,,,,,,,,,,,,,,,,,,,,,,,,,,,,,,,,,,,,,,,,,,,,,,,1.6929012313485146,1.3425910999649204,516.0896660999861,None,ScrollUp,정답입니다,516.0896660999861,None,516.0896660999861,None,516.0896660999861,None,516.0896660999861,None,517.3320508000324,None,517.3320508000324,517.8341718000011,,,,,,,,,,,,,,,,026,2022-05-19_19h46.12.837,FishGame,2022.1.1,60.00758496060822,
,26,넌 시기심이 많아,5,Orange,B,2.458333333333333,2.233333333333333,ScrollUp,ScrollDown,Orange.png,4,Negative,Congruent,,,,,0,0,0,0,,,,,,,,,,,,,,,,,,,,,,,,,0,25,25,25,,,,,,,,,,,,,,,,,,,,,,,,,,,,,,,,,,,,,,,,,,,,,,,,,,,,,,,,,,,,,,,,,,,,,1.6018518519898257,1.0264829999650829,518.4565182999941,None,ScrollUp,정답입니다,518.4565182999941,None,518.4565182999941,None,518.4565182999941,None,518.4565182999941,None,519.381979800004,None,519.381979800004,519.8841623000335,,,,,,,,,,,,,,,,026,2022-05-19_19h46.12.837,FishGame,2022.1.1,60.00758496060822,
,27,넌 탁월해,2,Green,A,5.708333333333334,4.5,ScrollDown,ScrollUp,Green.png,4,Positive,Congruent,,,,,0,0,0,0,,,,,,,,,,,,,,,,,,,,,,,,,0,26,26,26,,,,,,,,,,,,,,,,,,,,,,,,,,,,,,,,,,,,,,,,,,,,,,,,,,,,,,,,,,,,,,,,,,,,,1.3086419701576233,0.9929695000173524,520.5020663000178,None,ScrollDown,정답입니다,520.5020663000178,None,520.5020663000178,None,520.5020663000178,None,520.5020663000178,None,521.398579700035,None,521.398579700035,521.8986646999838,,,,,,,,,,,,,,,,026,2022-05-19_19h46.12.837,FishGame,2022.1.1,60.00758496060822,
,28,나를 데려가줘,6,Orange,B,0,0,ScrollDown,ScrollUp,Orange.png,4,NonTarget,NonTarget,,,,,0,0,0,0,,,,,,,,,,,,,,,,,,,,,,,,,0,27,27,27,,,,,,,,,,,,,,,,,,,,,,,,,,,,,,,,,,,,,,,,,,,,,,,,,,,,,,,,,,,,,,,,,,,,,1.2901234527428946,0.9095763000077568,522.5193331000046,None,ScrollDown,정답입니다,522.5193331000046,None,522.5193331000046,None,522.5193331000046,None,522.5193331000046,None,523.331851600029,None,523.331851600029,523.8340473999851,,,,,,,,,,,,,,,,026,2022-05-19_19h46.12.837,FishGame,2022.1.1,60.00758496060822,
,29,넌 조용해,3,Orange,B,4.333333333333333,4.166666666666667,ScrollUp,ScrollDown,Orange.png,4,Neutral,Neutral,,,,,0,0,0,0,,,,,,,,,,,,,,,,,,,,,,,,,0,28,28,28,,,,,,,,,,,,,,,,,,,,,,,,,,,,,,,,,,,,,,,,,,,,,,,,,,,,,,,,,,,,,,,,,,,,,1.6959876591960588,1.4424319000099786,524.4581346000195,None,ScrollUp,정답입니다,524.4581346000195,None,524.4581346000195,None,524.4581346000195,None,524.4581346000195,None,525.7982172000338,None,525.7982172000338,526.2982756000129,,,,,,,,,,,,,,,,026,2022-05-19_19h46.12.837,FishGame,2022.1.1,60.00758496060822,
,30,넌 다정해,1,Green,A,5.833333333333334,5.7,ScrollDown,ScrollUp,Green.png,4,Positive,Congruent,,,,,0,0,0,0,,,,,,,,,,,,,,,,,,,,,,,,,0,29,29,29,,,,,,,,,,,,,,,,,,,,,,,,,,,,,,,,,,,,,,,,,,,,,,,,,,,,,,,,,,,,,,,,,,,,,1.3132715995113053,0.8951223000185564,526.9155401000171,None,ScrollDown,정답입니다,526.9155401000171,None,526.9155401000171,None,526.9155401000171,None,526.9155401000171,None,527.715348400001,None,527.715348400001,528.2174543000292,,,,,,,,,,,,,,,,026,2022-05-19_19h46.12.837,FishGame,2022.1.1,60.00758496060822,
,31,넌 능력있어,2,Orange,B,6.166666666666666,4.6,ScrollUp,ScrollDown,Orange.png,4,Positive,Incongruent,,,,,0,0,0,0,,,,,,,,,,,,,,,,,,,,,,,,,0,30,30,30,,,,,,,,,,,,,,,,,,,,,,,,,,,,,,,,,,,,,,,,,,,,,,,,,,,,,,,,,,,,,,,,,,,,,1.6265432064731917,0.9104195000254549,528.8338203000021,None,ScrollUp,정답입니다,528.8338203000021,None,528.8338203000021,None,528.8338203000021,None,528.8338203000021,None,529.6484004000085,None,529.6484004000085,530.1484647000325,,,,,,,,,,,,,,,,026,2022-05-19_19h46.12.837,FishGame,2022.1.1,60.00758496060822,
,32,넌 불쾌해,5,Green,A,2.125,1.933333333333333,ScrollDown,ScrollUp,Green.png,4,Negative,Incongruent,,,,,0,0,0,0,,,,,,,,,,,,,,,,,,,,,,,,,0,31,31,31,,,,,,,,,,,,,,,,,,,,,,,,,,,,,,,,,,,,,,,,,,,,,,,,,,,,,,,,,,,,,,,,,,,,,1.2376543283462524,0.7759170000208542,530.7683889000327,None,ScrollDown,정답입니다,530.7683889000327,None,530.7683889000327,None,530.7683889000327,None,530.7683889000327,None,531.4484598999843,None,531.4484598999843,531.9484492000192,,,,,,,,,,,,,,,,026,2022-05-19_19h46.12.837,FishGame,2022.1.1,60.00758496060822,
,33,나를 데려가줘,6,Orange,B,0,0,ScrollDown,ScrollUp,Orange.png,4,NonTarget,NonTarget,,,,,0,0,0,0,,,,,,,,,,,,,,,,,,,,,,,,,0,32,32,32,,,,,,,,,,,,,,,,,,,,,,,,,,,,,,,,,,,,,,,,,,,,,,,,,,,,,,,,,,,,,,,,,,,,,1.256172845760981,0.9098823999520391,532.5695369000314,None,ScrollDown,정답입니다,532.5695369000314,None,532.5695369000314,None,532.5695369000314,None,532.5695369000314,None,533.3816998000257,None,533.3816998000257,533.8817605000222,,,,,,,,,,,,,,,,026,2022-05-19_19h46.12.837,FishGame,2022.1.1,60.00758496060822,
,34,넌 유순해,3,Green,A,4.458333333333333,5,ScrollDown,ScrollUp,Green.png,4,Neutral,Neutral,,,,,0,0,0,0,,,,,,,,,,,,,,,,,,,,,,,,,0,33,33,33,,,,,,,,,,,,,,,,,,,,,,,,,,,,,,,,,,,,,,,,,,,,,,,,,,,,,,,,,,,,,,,,,,,,,1.2253086417913437,0.7428445999976248,534.505388199992,None,ScrollDown,정답입니다,534.505388199992,None,534.505388199992,None,534.505388199992,None,534.505388199992,None,535.1480038000154,None,535.1480038000154,535.648064500012,,,,,,,,,,,,,,,,026,2022-05-19_19h46.12.837,FishGame,2022.1.1,60.00758496060822,
,35,넌 근심스러워,4,Orange,B,2.708333333333333,3.133333333333333,ScrollUp,ScrollDown,Orange.png,4,Negative,Congruent,,,,,0,0,0,0,,,,,,,,,,,,,,,,,,,,,,,,,0,34,34,34,,,,,,,,,,,,,,,,,,,,,,,,,,,,,,,,,,,,,,,,,,,,,,,,,,,,,,,,,,,,,,,,,,,,,1.5617283955216408,0.844592500012368,536.2713586000027,None,ScrollUp,정답입니다,536.2713586000027,None,536.2713586000027,None,536.2713586000027,None,536.2713586000027,None,537.0146894000354,None,537.0146894000354,537.5172615000047,,,,,,,,,,,,,,,,026,2022-05-19_19h46.12.837,FishGame,2022.1.1,60.00758496060822,
,36,넌 세련되었어,2,Green,A,5.5,4.6,ScrollDown,ScrollUp,Green.png,4,Positive,Congruent,,,,,0,0,0,0,,,,,,,,,,,,,,,,,,,,,,,,,0,35,35,35,,,,,,,,,,,,,,,,,,,,,,,,,,,,,,,,,,,,,,,,,,,,,,,,,,,,,,,,,,,,,,,,,,,,,1.253086417913437,0.7961965999566019,538.1395676999819,None,ScrollDown,정답입니다,538.1395676999819,None,538.1395676999819,None,538.1395676999819,None,538.1395676999819,None,538.8339194,None,538.8339194,539.3338684000191,,,,,,,,,,,,,,,,026,2022-05-19_19h46.12.837,FishGame,2022.1.1,60.00758496060822,
,37,나를 보내줘,6,Green,A,0,0,ScrollUp,ScrollDown,Green.png,4,NonTarget,NonTarget,,,,,0,0,0,0,,,,,,,,,,,,,,,,,,,,,,,,,0,36,36,36,,,,,,,,,,,,,,,,,,,,,,,,,,,,,,,,,,,,,,,,,,,,,,,,,,,,,,,,,,,,,,,,,,,,,1.5740740758677325,0.8794485999969766,539.9473486000206,None,ScrollUp,정답입니다,539.9473486000206,None,539.9473486000206,None,539.9473486000206,None,539.9473486000206,None,540.7314807000221,None,540.7314807000221,541.231555300008,,,,,,,,,,,,,,,,026,2022-05-19_19h46.12.837,FishGame,2022.1.1,60.00758496060822,
,38,넌 확고해,3,Orange,B,4.708333333333334,4.566666666666666,ScrollUp,ScrollDown,Orange.png,4,Neutral,Neutral,,,,,0,0,0,0,,,,,,,,,,,,,,,,,,,,,,,,,0,37,37,37,,,,,,,,,,,,,,,,,,,,,,,,,,,,,,,,,,,,,,,,,,,,,,,,,,,,,,,,,,,,,,,,,,,,,1.6496913532416024,0.7927787999506108,541.8556251000264,None,ScrollUp,정답입니다,541.8556251000264,None,541.8556251000264,None,541.8556251000264,None,541.8556251000264,None,542.5481481000315,None,542.5481481000315,543.0503959000343,,,,,,,,,,,,,,,,026,2022-05-19_19h46.12.837,FishGame,2022.1.1,60.00758496060822,
,39,넌 이해심이 많아,1,Orange,B,6.041666666666668,5.533333333333333,ScrollUp,ScrollDown,Orange.png,4,Positive,Incongruent,,,,,0,0,0,0,,,,,,,,,,,,,,,,,,,,,,,,,0,38,38,38,,,,,,,,,,,,,,,,,,,,,,,,,,,,,,,,,,,,,,,,,,,,,,,,,,,,,,,,,,,,,,,,,,,,,1.6358024651805558,0.8590345000266097,543.6739378999919,None,ScrollUp,정답입니다,543.6739378999919,None,543.6739378999919,None,543.6739378999919,None,543.6739378999919,None,544.4313986999914,None,544.4313986999914,544.9335073999828,,,,,,,,,,,,,,,,026,2022-05-19_19h46.12.837,FishGame,2022.1.1,60.00758496060822,
,40,나를 보내줘,6,Green,A,0,0,ScrollUp,ScrollDown,Green.png,4,NonTarget,NonTarget,,,,,0,0,0,0,,,,,,,,,,,,,,,,,,,,,,,,,0,39,39,39,,,,,,,,,,,,,,,,,,,,,,,,,,,,,,,,,,,,,,,,,,,,,,,,,,,,,,,,,,,,,,,,,,,,,1.6311728358268738,0.8926778000313789,545.5539314000052,None,ScrollUp,정답입니다,545.5539314000052,None,545.5539314000052,None,545.5539314000052,None,545.5539314000052,None,546.3480598999886,None,546.3480598999886,546.8502853999962,,,,,,,,,,,,,,,,026,2022-05-19_19h46.12.837,FishGame,2022.1.1,60.00758496060822,
,41,넌 거칠어,4,Green,A,2.625,3.033333333333333,ScrollDown,ScrollUp,Green.png,4,Negative,Incongruent,,,,,0,0,0,0,,,,,,,,,,,,,,,,,,,,,,,,,0,40,40,40,,,,,,,,,,,,,,,,,,,,,,,,,,,,,,,,,,,,,,,,,,,,,,,,,,,,,,,,,,,,,,,,,,,,,1.3240740721424422,0.8256153999827802,547.4746301000123,None,ScrollDown,정답입니다,547.4746301000123,None,547.4746301000123,None,547.4746301000123,None,547.4746301000123,None,548.1979666000116,None,548.1979666000116,548.7001798999845,,,,,,,,,,,,,,,,026,2022-05-19_19h46.12.837,FishGame,2022.1.1,60.00758496060822,
,42,넌 변덕맞아,5,Orange,B,2.75,2.166666666666667,ScrollUp,ScrollDown,Orange.png,4,Negative,Congruent,,,,,0,0,0,0,,,,,,,,,,,,,,,,,,,,,,,,,0,41,41,41,,,,,,,,,,,,,,,,,,,,,,,,,,,,,,,,,,,,,,,,,,,,,,,,,,,,,,,,,,,,,,,,,,,,,1.6126543184121451,0.8944625000003725,549.3255974000203,None,ScrollUp,정답입니다,549.3255974000203,None,549.3255974000203,None,549.3255974000203,None,549.3255974000203,None,550.1147007999825,None,550.1147007999825,550.6168183999835,,,,,,,,,,,,,,,,026,2022-05-19_19h46.12.837,FishGame,2022.1.1,60.00758496060822,
,43,나를 데려가줘,6,Orange,B,0,0,ScrollDown,ScrollUp,Orange.png,4,NonTarget,NonTarget,,,,,0,0,0,0,,,,,,,,,,,,,,,,,,,,,,,,,0,42,42,42,,,,,,,,,,,,,,,,,,,,,,,,,,,,,,,,,,,,,,,,,,,,,,,,,,,,,,,,,,,,,,,,,,,,,1.3179012288649878,0.8445062999962829,551.2314162999974,None,ScrollDown,정답입니다,551.2314162999974,None,551.2314162999974,None,551.2314162999974,None,551.2314162999974,None,551.9813020000001,None,551.9813020000001,552.4834952999954,,,,,,,,,,,,,,,,026,2022-05-19_19h46.12.837,FishGame,2022.1.1,60.00758496060822,
,44,넌 외로워,4,Orange,B,2.833333333333333,3.3,ScrollUp,ScrollDown,Orange.png,4,Negative,Congruent,,,,,0,0,0,0,,,,,,,,,,,,,,,,,,,,,,,,,0,43,43,43,,,,,,,,,,,,,,,,,,,,,,,,,,,,,,,,,,,,,,,,,,,,,,,,,,,,,,,,,,,,,,,,,,,,,1.5246913575877747,0.8441797000123188,553.1111227000365,None,NoResponse,무응답입니다,553.1111227000365,None,553.1111227000365,None,553.1111227000365,None,553.1111227000365,None,553.847626200004,None,553.847626200004,554.3477115000132,,,,,,,,,,,,,,,,026,2022-05-19_19h46.12.837,FishGame,2022.1.1,60.00758496060822,
,1,넌 불평스러워,5,Green,A,2.25,2.066666666666667,ScrollDown,ScrollUp,Green.png,5,Negative,Incongruent,,,,,0,0,0,0,,,,,,,,,,,,,,,,,,,,,,,,,,,,,0,0,0,0,,,,,,,,,,,,,,,,,,,,,,,,585.4473084000056,586.9497060999856,586.982975699997,587.9329541000188,587.9829529999988,588.9329283999978,588.9329283999978,None,,,,,,,,,,,,,,,,,,,,,,,,,,,,,,,,,,1.2824074079593024,0.8772557000047527,590.0860543000163,None,ScrollDown,정답입니다,590.0860543000163,None,590.0860543000163,None,590.0860543000163,None,590.0860543000163,None,590.8639168000082,None,590.8639168000082,591.3638853000011,554.8477067000349,None,554.8477067000349,None,0.6953704,-0.014814815,1,0,0,0.016201449907384813,None,584.8494132999913,None,,,026,2022-05-19_19h46.12.837,FishGame,2022.1.1,60.00758496060822,
,2,나를 보내줘,6,Green,A,0,0,ScrollUp,ScrollDown,Green.png,5,NonTarget,NonTarget,,,,,0,0,0,0,,,,,,,,,,,,,,,,,,,,,,,,,,,,,0,1,1,1,,,,,,,,,,,,,,,,,,,,,,,,,,,,,,,,,,,,,,,,,,,,,,,,,,,,,,,,,,,,,,,,,1.6697530845801034,0.8447438000002876,591.9792600999936,None,ScrollUp,정답입니다,591.9792600999936,None,591.9792600999936,None,591.9792600999936,None,591.9792600999936,None,592.7304696000065,None,592.7304696000065,593.2326175000053,,,,,,,,,,,,,,,,026,2022-05-19_19h46.12.837,FishGame,2022.1.1,60.00758496060822,
,3,넌 다재다능해,2,Orange,B,6.208333333333333,4.5,ScrollUp,ScrollDown,Orange.png,5,Positive,Incongruent,,,,,0,0,0,0,,,,,,,,,,,,,,,,,,,,,,,,,,,,,0,2,2,2,,,,,,,,,,,,,,,,,,,,,,,,,,,,,,,,,,,,,,,,,,,,,,,,,,,,,,,,,,,,,,,,,1.8518518557151158,0.9261404999997467,593.8568618000136,None,ScrollUp,정답입니다,593.8568618000136,None,593.8568618000136,None,593.8568618000136,None,593.8568618000136,None,594.6804713000311,None,594.6804713000311,595.1858086999855,,,,,,,,,,,,,,,,026,2022-05-19_19h46.12.837,FishGame,2022.1.1,60.00758496060822,
,4,넌 과감해,3,Green,A,4.833333333333334,4.6,ScrollDown,ScrollUp,Green.png,5,Neutral,Neutral,,,,,0,0,0,0,,,,,,,,,,,,,,,,,,,,,,,,,,,,,0,3,3,3,,,,,,,,,,,,,,,,,,,,,,,,,,,,,,,,,,,,,,,,,,,,,,,,,,,,,,,,,,,,,,,,,1.2777777661879859,0.7927366999792866,595.8038550000056,None,ScrollDown,정답입니다,595.8038550000056,None,595.8038550000056,None,595.8038550000056,None,595.8038550000056,None,596.497075500025,None,596.497075500025,596.9970753000234,,,,,,,,,,,,,,,,026,2022-05-19_19h46.12.837,FishGame,2022.1.1,60.00758496060822,
,5,넌 고분고분해,3,Orange,B,3.75,4.033333333333333,ScrollUp,ScrollDown,Orange.png,5,Neutral,Neutral,,,,,0,0,0,0,,,,,,,,,,,,,,,,,,,,,,,,,,,,,0,4,4,4,,,,,,,,,,,,,,,,,,,,,,,,,,,,,,,,,,,,,,,,,,,,,,,,,,,,,,,,,,,,,,,,,1.6759259278575578,0.9260537999798544,597.6255696000298,None,ScrollUp,정답입니다,597.6255696000298,None,597.6255696000298,None,597.6255696000298,None,597.6255696000298,None,598.4470842999872,None,598.4470842999872,598.9492937999894,,,,,,,,,,,,,,,,026,2022-05-19_19h46.12.837,FishGame,2022.1.1,60.00758496060822,
,6,나를 보내줘,6,Green,A,0,0,ScrollUp,ScrollDown,Green.png,5,NonTarget,NonTarget,,,,,0,0,0,0,,,,,,,,,,,,,,,,,,,,,,,,,,,,,0,5,5,5,,,,,,,,,,,,,,,,,,,,,,,,,,,,,,,,,,,,,,,,,,,,,,,,,,,,,,,,,,,,,,,,,1.6898148159186044,0.8927137000137009,599.5697833999875,None,ScrollUp,정답입니다,599.5697833999875,None,599.5697833999875,None,599.5697833999875,None,599.5697833999875,None,600.3635816000169,None,600.3635816000169,600.8658824000158,,,,,,,,,,,,,,,,026,2022-05-19_19h46.12.837,FishGame,2022.1.1,60.00758496060822,
,7,넌 잘 잊어,4,Green,A,3,3.7,ScrollDown,ScrollUp,Green.png,5,Negative,Incongruent,,,,,0,0,0,0,,,,,,,,,,,,,,,,,,,,,,,,,,,,,0,6,6,6,,,,,,,,,,,,,,,,,,,,,,,,,,,,,,,,,,,,,,,,,,,,,,,,,,,,,,,,,,,,,,,,,1.367283950249354,0.7617896999581717,601.4897060000221,None,ScrollDown,정답입니다,601.4897060000221,None,601.4897060000221,None,601.4897060000221,None,601.4897060000221,None,602.1469242000021,None,602.1469242000021,602.6491694999859,,,,,,,,,,,,,,,,026,2022-05-19_19h46.12.837,FishGame,2022.1.1,60.00758496060822,
,8,넌 탐구심이없어,4,Orange,B,2.833333333333333,3.066666666666667,ScrollUp,ScrollDown,Orange.png,5,Negative,Congruent,,,,,0,0,0,0,,,,,,,,,,,,,,,,,,,,,,,,,,,,,0,7,7,7,,,,,,,,,,,,,,,,,,,,,,,,,,,,,,,,,,,,,,,,,,,,,,,,,,,,,,,,,,,,,,,,,1.751543199022611,0.8931410000077449,603.2814947000006,None,ScrollUp,정답입니다,603.2814947000006,None,603.2814947000006,None,603.2814947000006,None,603.2814947000006,None,604.0635947000119,None,604.0635947000119,604.5657724000048,,,,,,,,,,,,,,,,026,2022-05-19_19h46.12.837,FishGame,2022.1.1,60.00758496060822,
,9,나를 데려가줘,6,Orange,B,0,0,ScrollDown,ScrollUp,Orange.png,5,NonTarget,NonTarget,,,,,0,0,0,0,,,,,,,,,,,,,,,,,,,,,,,,,,,,,0,8,8,8,,,,,,,,,,,,,,,,,,,,,,,,,,,,,,,,,,,,,,,,,,,,,,,,,,,,,,,,,,,,,,,,,1.2654321044683456,0.7422803999506868,605.1907981000259,None,ScrollDown,정답입니다,605.1907981000259,None,605.1907981000259,None,605.1907981000259,None,605.1907981000259,None,605.830218099989,None,605.830218099989,606.3302323999815,,,,,,,,,,,,,,,,026,2022-05-19_19h46.12.837,FishGame,2022.1.1,60.00758496060822,
,10,넌 참되어,2,Green,A,6.041666666666664,4.733333333333333,ScrollDown,ScrollUp,Green.png,5,Positive,Congruent,,,,,0,0,0,0,,,,,,,,,,,,,,,,,,,,,,,,,,,,,0,9,9,9,,,,,,,,,,,,,,,,,,,,,,,,,,,,,,,,,,,,,,,,,,,,,,,,,,,,,,,,,,,,,,,,,1.2916666666666665,0.6948313000029884,606.9519754000357,None,ScrollDown,정답입니다,606.9519754000357,None,606.9519754000357,None,606.9519754000357,None,606.9519754000357,None,607.5468073000084,None,607.5468073000084,608.0468897999963,,,,,,,,,,,,,,,,026,2022-05-19_19h46.12.837,FishGame,2022.1.1,60.00758496060822,
,11,넌 생기있어,1,Orange,B,5.875,5.633333333333334,ScrollUp,ScrollDown,Orange.png,5,Positive,Incongruent,,,,,0,0,0,0,,,,,,,,,,,,,,,,,,,,,,,,,,,,,0,10,10,10,,,,,,,,,,,,,,,,,,,,,,,,,,,,,,,,,,,,,,,,,,,,,,,,,,,,,,,,,,,,,,,,,1.7098765472571054,0.8121194000123069,608.6715989999939,None,ScrollUp,정답입니다,608.6715989999939,None,608.6715989999939,None,608.6715989999939,None,608.6715989999939,None,609.3822444999823,None,609.3822444999823,609.8823363999836,,,,,,,,,,,,,,,,026,2022-05-19_19h46.12.837,FishGame,2022.1.1,60.00758496060822,
,12,넌 비사교적이야,4,Orange,B,2.875,2.9,ScrollUp,ScrollDown,Orange.png,5,Negative,Congruent,,,,,0,0,0,0,,,,,,,,,,,,,,,,,,,,,,,,,,,,,0,11,11,11,,,,,,,,,,,,,,,,,,,,,,,,,,,,,,,,,,,,,,,,,,,,,,,,,,,,,,,,,,,,,,,,,1.6419753084580102,0.8090349999838509,610.5104118000017,None,ScrollUp,정답입니다,610.5104118000017,None,610.5104118000017,None,610.5104118000017,None,610.5104118000017,None,611.2134420000366,None,611.2134420000366,611.7156548000057,,,,,,,,,,,,,,,,026,2022-05-19_19h46.12.837,FishGame,2022.1.1,60.00758496060822,
,13,나를 데려가줘,6,Orange,B,0,0,ScrollDown,ScrollUp,Orange.png,5,NonTarget,NonTarget,,,,,0,0,0,0,,,,,,,,,,,,,,,,,,,,,,,,,,,,,0,12,12,12,,,,,,,,,,,,,,,,,,,,,,,,,,,,,,,,,,,,,,,,,,,,,,,,,,,,,,,,,,,,,,,,,1.2052469104528427,0.842539300036151,612.3384125999874,None,ScrollDown,정답입니다,612.3384125999874,None,612.3384125999874,None,612.3384125999874,None,612.3384125999874,None,613.0800096000312,None,613.0800096000312,613.582275599998,,,,,,,,,,,,,,,,026,2022-05-19_19h46.12.837,FishGame,2022.1.1,60.00758496060822,
,14,넌 고독해,4,Green,A,2.916666666666667,3.233333333333333,ScrollDown,ScrollUp,Green.png,5,Negative,Incongruent,,,,,0,0,0,0,,,,,,,,,,,,,,,,,,,,,,,,,,,,,0,13,13,13,,,,,,,,,,,,,,,,,,,,,,,,,,,,,,,,,,,,,,,,,,,,,,,,,,,,,,,,,,,,,,,,,1.3549382761120796,0.5948166000307538,614.2006131000235,None,ScrollDown,정답입니다,614.2006131000235,None,614.2006131000235,None,614.2006131000235,None,614.2006131000235,None,614.6966668000096,None,614.6966668000096,615.1988397000241,,,,,,,,,,,,,,,,026,2022-05-19_19h46.12.837,FishGame,2022.1.1,60.00758496060822,
,15,넌 신경질적이야,5,Orange,B,2.375,2.233333333333333,ScrollUp,ScrollDown,Orange.png,5,Negative,Congruent,,,,,0,0,0,0,,,,,,,,,,,,,,,,,,,,,,,,,,,,,0,14,14,14,,,,,,,,,,,,,,,,,,,,,,,,,,,,,,,,,,,,,,,,,,,,,,,,,,,,,,,,,,,,,,,,,1.6604938258727393,0.7758064999943599,615.8207789000007,None,ScrollUp,정답입니다,615.8207789000007,None,615.8207789000007,None,615.8207789000007,None,615.8207789000007,None,616.4967141000088,None,616.4967141000088,616.9989486000268,,,,,,,,,,,,,,,,026,2022-05-19_19h46.12.837,FishGame,2022.1.1,60.00758496060822,
,16,넌 똑똑해,2,Orange,B,5.666666666666667,3.966666666666667,ScrollUp,ScrollDown,Orange.png,5,Positive,Incongruent,,,,,0,0,0,0,,,,,,,,,,,,,,,,,,,,,,,,,,,,,0,15,15,15,,,,,,,,,,,,,,,,,,,,,,,,,,,,,,,,,,,,,,,,,,,,,,,,,,,,,,,,,,,,,,,,,1.564814817160368,0.7257979999994859,617.6220206000144,None,ScrollUp,정답입니다,617.6220206000144,None,617.6220206000144,None,617.6220206000144,None,617.6220206000144,None,618.2465771000134,None,618.2465771000134,618.7466396000236,,,,,,,,,,,,,,,,026,2022-05-19_19h46.12.837,FishGame,2022.1.1,60.00758496060822,
,17,나를 보내줘,6,Green,A,0,0,ScrollUp,ScrollDown,Green.png,5,NonTarget,NonTarget,,,,,0,0,0,0,,,,,,,,,,,,,,,,,,,,,,,,,,,,,0,16,16,16,,,,,,,,,,,,,,,,,,,,,,,,,,,,,,,,,,,,,,,,,,,,,,,,,,,,,,,,,,,,,,,,,1.68364197264115,0.8757599999662489,619.3729299000115,None,ScrollUp,정답입니다,619.3729299000115,None,619.3729299000115,None,619.3729299000115,None,619.3729299000115,None,620.146567400021,None,620.146567400021,620.6488077000249,,,,,,,,,,,,,,,,026,2022-05-19_19h46.12.837,FishGame,2022.1.1,60.00758496060822,
,18,넌 협조적이야,1,Green,A,5.625,5.666666666666667,ScrollDown,ScrollUp,Green.png,5,Positive,Congruent,,,,,0,0,0,0,,,,,,,,,,,,,,,,,,,,,,,,,,,,,0,17,17,17,,,,,,,,,,,,,,,,,,,,,,,,,,,,,,,,,,,,,,,,,,,,,,,,,,,,,,,,,,,,,,,,,1.276234577099482,0.7432811000035144,621.2653320999816,None,ScrollDown,정답입니다,621.2653320999816,None,621.2653320999816,None,621.2653320999816,None,621.2653320999816,None,621.9132522,None,621.9132522,622.4154905999894,,,,,,,,,,,,,,,,026,2022-05-19_19h46.12.837,FishGame,2022.1.1,60.00758496060822,
,19,나를 데려가줘,6,Orange,B,0,0,ScrollDown,ScrollUp,Orange.png,5,NonTarget,NonTarget,,,,,0,0,0,0,,,,,,,,,,,,,,,,,,,,,,,,,,,,,0,18,18,18,,,,,,,,,,,,,,,,,,,,,,,,,,,,,,,,,,,,,,,,,,,,,,,,,,,,,,,,,,,,,,,,,1.248456800977389,1.0592130000004545,623.0345877000364,None,ScrollDown,정답입니다,623.0345877000364,None,623.0345877000364,None,623.0345877000364,None,623.0345877000364,None,623.9987574000261,None,623.9987574000261,624.496542799985,,,,,,,,,,,,,,,,026,2022-05-19_19h46.12.837,FishGame,2022.1.1,60.00758496060822,
,20,넌 몰인정해,5,Orange,B,2.541666666666667,2.066666666666667,ScrollUp,ScrollDown,Orange.png,5,Negative,Congruent,,,,,0,0,0,0,,,,,,,,,,,,,,,,,,,,,,,,,,,,,0,19,19,19,,,,,,,,,,,,,,,,,,,,,,,,,,,,,,,,,,,,,,,,,,,,,,,,,,,,,,,,,,,,,,,,,1.5570987661679587,0.9428308000206016,625.11960179999,None,ScrollUp,정답입니다,625.11960179999,None,625.11960179999,None,625.11960179999,None,625.11960179999,None,625.9631574000232,None,625.9631574000232,626.4653067000327,,,,,,,,,,,,,,,,026,2022-05-19_19h46.12.837,FishGame,2022.1.1,60.00758496060822,
,21,나를 데려가줘,6,Orange,B,0,0,ScrollDown,ScrollUp,Orange.png,5,NonTarget,NonTarget,,,,,0,0,0,0,,,,,,,,,,,,,,,,,,,,,,,,,,,,,0,20,20,20,,,,,,,,,,,,,,,,,,,,,,,,,,,,,,,,,,,,,,,,,,,,,,,,,,,,,,,,,,,,,,,,,1.8163580348094304,0.6590375999803655,627.0858576000319,None,ScrollUp,오답입니다,627.0858576000319,None,627.0858576000319,None,627.0858576000319,None,627.0858576000319,None,627.6464011000353,None,627.6464011000353,628.1485875000362,,,,,,,,,,,,,,,,026,2022-05-19_19h46.12.837,FishGame,2022.1.1,60.00758496060822,
,22,넌 순진해,3,Orange,B,4.125,4.166666666666667,ScrollUp,ScrollDown,Orange.png,5,Neutral,Neutral,,,,,0,0,0,0,,,,,,,,,,,,,,,,,,,,,,,,,,,,,0,21,21,21,,,,,,,,,,,,,,,,,,,,,,,,,,,,,,,,,,,,,,,,,,,,,,,,,,,,,,,,,,,,,,,,,1.674382713933786,0.9445126000209711,628.7663241000264,None,ScrollUp,정답입니다,628.7663241000264,None,628.7663241000264,None,628.7663241000264,None,628.7663241000264,None,629.6130384000135,None,629.6130384000135,630.1152698000078,,,,,,,,,,,,,,,,026,2022-05-19_19h46.12.837,FishGame,2022.1.1,60.00758496060822,
