name,TrialNum,Word,WordCategory,FishType,WordList,WordValence,WordReputation,CorrectResp,IncorrectResp,FishTypeFile,Round,WordType,Condition,LoopforOrange.thisRepN,LoopforOrange.thisTrialN,LoopforOrange.thisN,LoopforOrange.thisIndex,OrangeInstLoop.thisRepN,OrangeInstLoop.thisTrialN,OrangeInstLoop.thisN,OrangeInstLoop.thisIndex,OrangePrac.thisRepN,OrangePrac.thisTrialN,OrangePrac.thisN,OrangePrac.thisIndex,temp1.thisRepN,temp1.thisTrialN,temp1.thisN,temp1.thisIndex,OrangeRound1.thisRepN,OrangeRound1.thisTrialN,OrangeRound1.thisN,OrangeRound1.thisIndex,OrangeRound2.thisRepN,OrangeRound2.thisTrialN,OrangeRound2.thisN,OrangeRound2.thisIndex,OrangeRound3.thisRepN,OrangeRound3.thisTrialN,OrangeRound3.thisN,OrangeRound3.thisIndex,OrangeRound4.thisRepN,OrangeRound4.thisTrialN,OrangeRound4.thisN,OrangeRound4.thisIndex,OrangeRound5.thisRepN,OrangeRound5.thisTrialN,OrangeRound5.thisN,OrangeRound5.thisIndex,LoopForGreen.thisRepN,LoopForGreen.thisTrialN,LoopForGreen.thisN,LoopForGreen.thisIndex,text_2.started,text_2.stopped,text_3.started,text_3.stopped,key_resp.keys,key_resp.rt,key_resp.started,key_resp.stopped,PassI_2.started,PassI_2.stopped,PassInst_2.keys,PassInst_2.rt,PassInst_2.started,PassInst_2.stopped,mouse_2.x,mouse_2.y,mouse_2.leftButton,mouse_2.midButton,mouse_2.rightButton,mouse_2.started,mouse_2.stopped,image.started,image.stopped,text_5.started,text_5.stopped,text_6.started,text_6.stopped,text_7.started,text_7.stopped,text_8.started,text_8.stopped,slider_2.response,slider_2.rt,slider_2.started,slider_2.stopped,Response_2,Feedback_2,BackGround_2.started,BackGround_2.stopped,Fish_2.started,Fish_2.stopped,WordBox_2.started,WordBox_2.stopped,Words_2.started,Words_2.stopped,BackGround_Feedback_2.started,BackGround_Feedback_2.stopped,Feedbacks_2.started,Feedbacks_2.stopped,Continue_or_not.keys,Continue_or_not.rt,Continue_or_not.started,Continue_or_not.stopped,image_3.started,image_3.stopped,mouse_3.x,mouse_3.y,mouse_3.leftButton,mouse_3.midButton,mouse_3.rightButton,mouse_3.started,mouse_3.stopped,startmain.started,startmain.stopped,slider.response,slider.rt,slider.started,slider.stopped,Response,Feedback,BackGround.started,BackGround.stopped,Fish.started,Fish.stopped,WordBox.started,WordBox.stopped,Words.started,Words.stopped,BackGround_Feedback.started,BackGround_Feedback.stopped,Feedbacks.started,Feedbacks.stopped,text.started,text.stopped,break_interval.started,break_interval.stopped,mouse.x,mouse.y,mouse.leftButton,mouse.midButton,mouse.rightButton,mouse.started,mouse.stopped,stratnextround.started,stratnextround.stopped,endgame.started,endgame.stopped,participant,date,expName,psychopyVersion,frameRate,
,,,,,,,,,,,,,,,,,,,,,,,,,,,,,,,,,,,,,,,,,,,,,,,,,,,,,,17.746278100006748,None,17.746278100006748,None,space,1.9456247999914922,18.239733099995647,None,,,,,,,,,,,,,,,,,,,,,,,,,,,,,,,,,,,,,,,,,,,,,,,,,,,,,,,,,,,,,,,,,,,,,,,,,,,,,,,,,,,,,,,,,,027,2022-05-20_18h39.14.033,FishGame,2022.1.1,60.0214876955022,
물고기과제_instruction(참가자용)OrangeVersion.mp4,,,,,,,,,,,,,,0,0,0,0,0,0,0,0,,,,,,,,,,,,,,,,,,,,,,,,,,,,,,,,,,,,,,,,,93.46609000000171,None,n,1.846310299995821,93.46609000000171,None,,,,,,,,,,,,,,,,,,,,,,,,,,,,,,,,,,,,,,,,,,,,,,,,,,,,,,,,,,,,,,,,,,,,,,,,,,,,,,,,,,,,027,2022-05-20_18h39.14.033,FishGame,2022.1.1,60.0214876955022,
,1,넌 교활해,5,Green,B,2.333333333333333,2.133333333333333,ScrollUp,ScrollDown,Green.png,practice,,,0,0,0,0,,,,,0,0,0,0,0,0,0,0,,,,,,,,,,,,,,,,,,,,,,,,,,,,,,,,,,,,,,,0.094444446,-0.23333333,1,0,0,0.5085070099448785,None,95.33802600001218,None,99.55952950002393,101.06593179999618,101.0991917999927,102.05158920004033,102.09949330001837,103.05162360001123,103.05162360001123,None,1.1774691343307495,2.386637899966445,104.34102630004054,None,ScrollDown,오답입니다,104.34102630004054,None,104.34102630004054,None,104.34102630004054,None,104.34102630004054,None,106.43813540000701,None,106.43813540000701,106.94901510002092,,,,,,,,,,,,,,,,,,,,,,,,,,,,,,,,,,,,,,,,,,,,,,,,,027,2022-05-20_18h39.14.033,FishGame,2022.1.1,60.0214876955022,
,2,넌 슬기로워,2,Orange,A,6.166666666666667,4.1,ScrollDown,ScrollUp,Orange.png,practice,,,0,0,0,0,,,,,0,0,0,0,0,1,1,1,,,,,,,,,,,,,,,,,,,,,,,,,,,,,,,,,,,,,,,,,,,,,,,,,,,,,,,,1.2592592487732568,1.2258155000163242,107.57931520004058,None,ScrollDown,정답입니다,107.57931520004058,None,107.57931520004058,None,107.57931520004058,None,107.57931520004058,None,108.70141660002992,None,108.70141660002992,109.2013936000294,,,,,,,,,,,,,,,,,,,,,,,,,,,,,,,,,,,,,,,,,,,,,,,,,027,2022-05-20_18h39.14.033,FishGame,2022.1.1,60.0214876955022,
,3,나를 보내줘,6,Orange,A,0,0,ScrollUp,ScrollDown,Orange.png,practice,,,0,0,0,0,,,,,0,0,0,0,0,2,2,2,,,,,,,,,,,,,,,,,,,,,,,,,,,,,,,,,,,,,,,,,,,,,,,,,,,,,,,,1.0246913532416027,1.4596815999830142,109.82565950002754,None,ScrollDown,오답입니다,109.82565950002754,None,109.82565950002754,None,109.82565950002754,None,109.82565950002754,None,111.18234759999905,None,111.18234759999905,111.68241170002148,,,,,,,,,,,,,,,,,,,,,,,,,,,,,,,,,,,,,,,,,,,,,,,,,027,2022-05-20_18h39.14.033,FishGame,2022.1.1,60.0214876955022,
,4,나를 데려가줘,6,Green,B,0,0,ScrollDown,ScrollUp,Green.png,practice,,,0,0,0,0,,,,,0,0,0,0,0,3,3,3,,,,,,,,,,,,,,,,,,,,,,,,,,,,,,,,,,,,,,,,,,,,,,,,,,,,,,,,1.0895061641931534,1.4446107000112534,112.300276199996,None,ScrollDown,정답입니다,112.300276199996,None,112.300276199996,None,112.300276199996,None,112.300276199996,None,113.64871750003658,None,113.64871750003658,114.14878869999666,,,,,,,,,,,,,,,,,,,,,,,,,,,,,,,,,,,,,,,,,,,,,,,,,027,2022-05-20_18h39.14.033,FishGame,2022.1.1,60.0214876955022,
,1,넌 교활해,5,Green,B,2.333333333333333,2.133333333333333,ScrollUp,ScrollDown,Green.png,practice,,,0,0,0,0,,,,,0,0,0,0,,,,,,,,,,,,,,,,,,,,,,,,,,,,,,,,,,,,,,,,,,,,,,,,,,,,,,,,,,,,,,,,,,,,,,,,,,,,,,n,7.847128099994734,114.64875690004556,None,114.64875690004556,None,,,,,,,,,,,,,,,,,,,,,,,,,,,,,,,,,,,,,,,,,,,027,2022-05-20_18h39.14.033,FishGame,2022.1.1,60.0214876955022,
,1,넌 따뜻해,1,Green,B,6.083333333333333,5.6,ScrollUp,ScrollDown,Green.png,1,Positive,Incongruent,0,0,0,0,,,,,,,,,,,,,0,0,0,0,,,,,,,,,,,,,,,,,,,,,,,,,,,,,,,,,,,,,,,,,,,,124.14872460003244,125.65118710004026,125.68220260000089,126.63447670004098,126.68210670002736,127.63220930000534,127.63220930000534,None,,,,,,,,,,,,,,,,,,,,,,,,,0.08796296,-0.13425925,1,0,0,0.3140176099841483,None,122.517755900044,None,1.7685185273488362,1.7940066999872215,128.9200769000454,None,ScrollUp,정답입니다,128.9200769000454,None,128.9200769000454,None,128.9200769000454,None,128.9200769000454,None,130.41754430002766,None,130.41754430002766,130.91536590002943,,,,,,,,,,,,,,,,027,2022-05-20_18h39.14.033,FishGame,2022.1.1,60.0214876955022,
,2,넌 기품있어,2,Green,B,5.791666666666668,4.5,ScrollUp,ScrollDown,Green.png,1,Positive,Incongruent,0,0,0,0,,,,,,,,,,,,,0,1,1,1,,,,,,,,,,,,,,,,,,,,,,,,,,,,,,,,,,,,,,,,,,,,,,,,,,,,,,,,,,,,,,,,,,,,,,,,,,,,,,,,,,,,,1.7577160547176998,1.2793418999644928,131.54403049999382,None,ScrollUp,정답입니다,131.54403049999382,None,131.54403049999382,None,131.54403049999382,None,131.54403049999382,None,132.7149716000422,None,132.7149716000422,133.21509410004364,,,,,,,,,,,,,,,,027,2022-05-20_18h39.14.033,FishGame,2022.1.1,60.0214876955022,
,3,나를 보내줘,6,Orange,A,0,0,ScrollUp,ScrollDown,Orange.png,1,NonTarget,NonTarget,0,0,0,0,,,,,,,,,,,,,0,2,2,2,,,,,,,,,,,,,,,,,,,,,,,,,,,,,,,,,,,,,,,,,,,,,,,,,,,,,,,,,,,,,,,,,,,,,,,,,,,,,,,,,,,,,1.746913582086563,1.796978999977,133.84384610003326,None,ScrollUp,정답입니다,133.84384610003326,None,133.84384610003326,None,133.84384610003326,None,133.84384610003326,None,135.53416340000695,None,135.53416340000695,136.03453520004405,,,,,,,,,,,,,,,,027,2022-05-20_18h39.14.033,FishGame,2022.1.1,60.0214876955022,
,4,넌 수동적이야,4,Orange,A,2.833333333333333,2.933333333333333,ScrollDown,ScrollUp,Orange.png,1,Negative,Incongruent,0,0,0,0,,,,,,,,,,,,,0,3,3,3,,,,,,,,,,,,,,,,,,,,,,,,,,,,,,,,,,,,,,,,,,,,,,,,,,,,,,,,,,,,,,,,,,,,,,,,,,,,,,,,,,,,,1.095679019888242,1.325448299990967,136.66488980001304,None,ScrollDown,정답입니다,136.66488980001304,None,136.66488980001304,None,136.66488980001304,None,136.66488980001304,None,137.88183060003212,None,137.88183060003212,138.38419240002986,,,,,,,,,,,,,,,,027,2022-05-20_18h39.14.033,FishGame,2022.1.1,60.0214876955022,
,5,넌 사심이 없어,3,Green,B,4.916666666666666,4.333333333333333,ScrollUp,ScrollDown,Green.png,1,Neutral,Neutral,0,0,0,0,,,,,,,,,,,,,0,4,4,4,,,,,,,,,,,,,,,,,,,,,,,,,,,,,,,,,,,,,,,,,,,,,,,,,,,,,,,,,,,,,,,,,,,,,,,,,,,,,,,,,,,,,1.7407407512267432,1.4945436000125483,139.00546469999244,None,ScrollUp,정답입니다,139.00546469999244,None,139.00546469999244,None,139.00546469999244,None,139.00546469999244,None,140.39839620003477,None,140.39839620003477,140.89846970001236,,,,,,,,,,,,,,,,027,2022-05-20_18h39.14.033,FishGame,2022.1.1,60.0214876955022,
,6,넌 헤퍼,5,Orange,A,2.458333333333334,2.233333333333333,ScrollDown,ScrollUp,Orange.png,1,Negative,Incongruent,0,0,0,0,,,,,,,,,,,,,0,5,5,5,,,,,,,,,,,,,,,,,,,,,,,,,,,,,,,,,,,,,,,,,,,,,,,,,,,,,,,,,,,,,,,,,,,,,,,,,,,,,,,,,,,,,1.1080246816078823,1.392202700022608,141.52932970004622,None,ScrollDown,정답입니다,141.52932970004622,None,141.52932970004622,None,141.52932970004622,None,141.52932970004622,None,142.81506039999658,None,142.81506039999658,143.3152102000313,,,,,,,,,,,,,,,,027,2022-05-20_18h39.14.033,FishGame,2022.1.1,60.0214876955022,
,7,넌 말쑥해,3,Orange,A,4.833333333333334,4.333333333333333,ScrollDown,ScrollUp,Orange.png,1,Neutral,Neutral,0,0,0,0,,,,,,,,,,,,,0,6,6,6,,,,,,,,,,,,,,,,,,,,,,,,,,,,,,,,,,,,,,,,,,,,,,,,,,,,,,,,,,,,,,,,,,,,,,,,,,,,,,,,,,,,,1.0432098706563313,1.2110519999987446,143.9383608000353,None,ScrollDown,정답입니다,143.9383608000353,None,143.9383608000353,None,143.9383608000353,None,143.9383608000353,None,145.04807540000184,None,145.04807540000184,145.54815069999313,,,,,,,,,,,,,,,,027,2022-05-20_18h39.14.033,FishGame,2022.1.1,60.0214876955022,
,8,넌 투덜거려,5,Green,B,2.541666666666667,2.266666666666667,ScrollUp,ScrollDown,Green.png,1,Negative,Congruent,0,0,0,0,,,,,,,,,,,,,0,7,7,7,,,,,,,,,,,,,,,,,,,,,,,,,,,,,,,,,,,,,,,,,,,,,,,,,,,,,,,,,,,,,,,,,,,,,,,,,,,,,,,,,,,,,1.6280864203969636,1.41138740000315,146.17079370003194,None,ScrollUp,정답입니다,146.17079370003194,None,146.17079370003194,None,146.17079370003194,None,146.17079370003194,None,147.48392080003396,None,147.48392080003396,147.98396969999885,,,,,,,,,,,,,,,,027,2022-05-20_18h39.14.033,FishGame,2022.1.1,60.0214876955022,
,9,넌 적극적이야,1,Orange,A,5.708333333333333,5.533333333333333,ScrollDown,ScrollUp,Orange.png,1,Positive,Congruent,0,0,0,0,,,,,,,,,,,,,0,8,8,8,,,,,,,,,,,,,,,,,,,,,,,,,,,,,,,,,,,,,,,,,,,,,,,,,,,,,,,,,,,,,,,,,,,,,,,,,,,,,,,,,,,,,1.1188271542390187,1.5802450000192039,148.60204070003238,None,ScrollDown,정답입니다,148.60204070003238,None,148.60204070003238,None,148.60204070003238,None,148.60204070003238,None,150.08159439999145,None,150.08159439999145,150.58173440000974,,,,,,,,,,,,,,,,027,2022-05-20_18h39.14.033,FishGame,2022.1.1,60.0214876955022,
,10,넌 재미없어,4,Green,B,2.625,2.966666666666667,ScrollUp,ScrollDown,Green.png,1,Negative,Congruent,0,0,0,0,,,,,,,,,,,,,0,9,9,9,,,,,,,,,,,,,,,,,,,,,,,,,,,,,,,,,,,,,,,,,,,,,,,,,,,,,,,,,,,,,,,,,,,,,,,,,,,,,,,,,,,,,1.7962963034709294,1.1612779999850318,151.2062194000464,None,ScrollUp,정답입니다,151.2062194000464,None,151.2062194000464,None,151.2062194000464,None,151.2062194000464,None,152.26711340004113,None,152.26711340004113,152.78158310003346,,,,,,,,,,,,,,,,027,2022-05-20_18h39.14.033,FishGame,2022.1.1,60.0214876955022,
,11,넌 명석해,2,Orange,A,5.875,4.033333333333333,ScrollDown,ScrollUp,Orange.png,1,Positive,Congruent,0,0,0,0,,,,,,,,,,,,,0,10,10,10,,,,,,,,,,,,,,,,,,,,,,,,,,,,,,,,,,,,,,,,,,,,,,,,,,,,,,,,,,,,,,,,,,,,,,,,,,,,,,,,,,,,,1.0787036915620167,1.3252859000349417,153.3894408000051,None,ScrollDown,정답입니다,153.3894408000051,None,153.3894408000051,None,153.3894408000051,None,153.3894408000051,None,154.6148041000124,None,154.6148041000124,155.11488080001436,,,,,,,,,,,,,,,,027,2022-05-20_18h39.14.033,FishGame,2022.1.1,60.0214876955022,
,12,나를 데려가줘,6,Green,B,0,0,ScrollDown,ScrollUp,Green.png,1,NonTarget,NonTarget,0,0,0,0,,,,,,,,,,,,,0,11,11,11,,,,,,,,,,,,,,,,,,,,,,,,,,,,,,,,,,,,,,,,,,,,,,,,,,,,,,,,,,,,,,,,,,,,,,,,,,,,,,,,,,,,,1,1.3090940000256523,155.7463869000203,None,ScrollDown,정답입니다,155.7463869000203,None,155.7463869000203,None,155.7463869000203,None,155.7463869000203,None,156.95030480000423,None,156.95030480000423,157.44827819999773,,,,,,,,,,,,,,,,027,2022-05-20_18h39.14.033,FishGame,2022.1.1,60.0214876955022,
,13,넌 소심해,4,Orange,A,3,3.1,ScrollDown,ScrollUp,Orange.png,1,Negative,Incongruent,0,0,0,0,,,,,,,,,,,,,0,12,12,12,,,,,,,,,,,,,,,,,,,,,,,,,,,,,,,,,,,,,,,,,,,,,,,,,,,,,,,,,,,,,,,,,,,,,,,,,,,,,,,,,,,,,1.141975313425064,1.6764669999829493,158.07022630004212,None,ScrollDown,정답입니다,158.07022630004212,None,158.07022630004212,None,158.07022630004212,None,158.07022630004212,None,159.64800320001086,None,159.64800320001086,160.1480582000222,,,,,,,,,,,,,,,,027,2022-05-20_18h39.14.033,FishGame,2022.1.1,60.0214876955022,
,14,넌 합리적이야,2,Orange,A,5.583333333333333,4.733333333333333,ScrollDown,ScrollUp,Orange.png,1,Positive,Congruent,0,0,0,0,,,,,,,,,,,,,0,13,13,13,,,,,,,,,,,,,,,,,,,,,,,,,,,,,,,,,,,,,,,,,,,,,,,,,,,,,,,,,,,,,,,,,,,,,,,,,,,,,,,,,,,,,1.0478395124276478,1.7435616999864578,160.77437970001483,None,ScrollDown,정답입니다,160.77437970001483,None,160.77437970001483,None,160.77437970001483,None,160.77437970001483,None,162.41468149999855,None,162.41468149999855,162.91693990002386,,,,,,,,,,,,,,,,027,2022-05-20_18h39.14.033,FishGame,2022.1.1,60.0214876955022,
,15,넌 무자비해,5,Green,B,2.333333333333333,2.1,ScrollUp,ScrollDown,Green.png,1,Negative,Congruent,0,0,0,0,,,,,,,,,,,,,0,14,14,14,,,,,,,,,,,,,,,,,,,,,,,,,,,,,,,,,,,,,,,,,,,,,,,,,,,,,,,,,,,,,,,,,,,,,,,,,,,,,,,,,,,,,1.7561728407939274,1.544510599982459,163.53961120004533,None,ScrollUp,정답입니다,163.53961120004533,None,163.53961120004533,None,163.53961120004533,None,163.53961120004533,None,164.98130770004354,None,164.98130770004354,165.48132560000522,,,,,,,,,,,,,,,,027,2022-05-20_18h39.14.033,FishGame,2022.1.1,60.0214876955022,
,16,나를 보내줘,6,Orange,A,0,0,ScrollUp,ScrollDown,Orange.png,1,NonTarget,NonTarget,0,0,0,0,,,,,,,,,,,,,0,15,15,15,,,,,,,,,,,,,,,,,,,,,,,,,,,,,,,,,,,,,,,,,,,,,,,,,,,,,,,,,,,,,,,,,,,,,,,,,,,,,,,,,,,,,1.9027777661879857,1.6442704999935813,166.10437110002385,None,ScrollUp,정답입니다,166.10437110002385,None,166.10437110002385,None,166.10437110002385,None,166.10437110002385,None,167.64774829999078,None,167.64774829999078,168.14806249999674,,,,,,,,,,,,,,,,027,2022-05-20_18h39.14.033,FishGame,2022.1.1,60.0214876955022,
,17,넌 현실적이야,3,Green,B,4.608695652173913,4.766666666666667,ScrollUp,ScrollDown,Green.png,1,Neutral,Neutral,0,0,0,0,,,,,,,,,,,,,0,16,16,16,,,,,,,,,,,,,,,,,,,,,,,,,,,,,,,,,,,,,,,,,,,,,,,,,,,,,,,,,,,,,,,,,,,,,,,,,,,,,,,,,,,,,1.9305555423100789,1.5089972999994643,168.78752470004838,None,ScrollUp,정답입니다,168.78752470004838,None,168.78752470004838,None,168.78752470004838,None,168.78752470004838,None,170.18089560000226,None,170.18089560000226,170.6809762000339,,,,,,,,,,,,,,,,027,2022-05-20_18h39.14.033,FishGame,2022.1.1,60.0214876955022,
,18,넌 의리있어,1,Green,B,5.833333333333334,5.633333333333334,ScrollUp,ScrollDown,Green.png,1,Positive,Incongruent,0,0,0,0,,,,,,,,,,,,,0,17,17,17,,,,,,,,,,,,,,,,,,,,,,,,,,,,,,,,,,,,,,,,,,,,,,,,,,,,,,,,,,,,,,,,,,,,,,,,,,,,,,,,,,,,,1.817901223897934,1.4793597999960184,171.2990373999928,None,ScrollUp,정답입니다,171.2990373999928,None,171.2990373999928,None,171.2990373999928,None,171.2990373999928,None,172.68346450000536,None,172.68346450000536,173.1834455000353,,,,,,,,,,,,,,,,027,2022-05-20_18h39.14.033,FishGame,2022.1.1,60.0214876955022,
,19,넌 신경과민이야,5,Orange,A,2.541666666666667,2.166666666666667,ScrollDown,ScrollUp,Orange.png,1,Negative,Incongruent,0,0,0,0,,,,,,,,,,,,,0,18,18,18,,,,,,,,,,,,,,,,,,,,,,,,,,,,,,,,,,,,,,,,,,,,,,,,,,,,,,,,,,,,,,,,,,,,,,,,,,,,,,,,,,,,,1.0200617114702861,1.2272894999478012,173.80802650004625,None,ScrollDown,정답입니다,173.80802650004625,None,173.80802650004625,None,173.80802650004625,None,173.80802650004625,None,174.93107910000253,None,174.93107910000253,175.43112520000432,,,,,,,,,,,,,,,,027,2022-05-20_18h39.14.033,FishGame,2022.1.1,60.0214876955022,
,20,넌 편안해,1,Orange,A,5.916666666666666,5.866666666666666,ScrollDown,ScrollUp,Orange.png,1,Positive,Congruent,0,0,0,0,,,,,,,,,,,,,0,19,19,19,,,,,,,,,,,,,,,,,,,,,,,,,,,,,,,,,,,,,,,,,,,,,,,,,,,,,,,,,,,,,,,,,,,,,,,,,,,,,,,,,,,,,1.0061728358268738,1.125693299982231,176.06089110003086,None,ScrollDown,정답입니다,176.06089110003086,None,176.06089110003086,None,176.06089110003086,None,176.06089110003086,None,177.08325650001643,None,177.08325650001643,177.58335690002423,,,,,,,,,,,,,,,,027,2022-05-20_18h39.14.033,FishGame,2022.1.1,60.0214876955022,
,21,넌 품위있어,2,Green,B,5.291666666666666,4.466666666666667,ScrollUp,ScrollDown,Green.png,1,Positive,Incongruent,0,0,0,0,,,,,,,,,,,,,0,20,20,20,,,,,,,,,,,,,,,,,,,,,,,,,,,,,,,,,,,,,,,,,,,,,,,,,,,,,,,,,,,,,,,,,,,,,,,,,,,,,,,,,,,,,1.8333333383003871,1.2926279000239447,178.20194689999335,None,ScrollUp,정답입니다,178.20194689999335,None,178.20194689999335,None,178.20194689999335,None,178.20194689999335,None,179.39982280001277,None,179.39982280001277,179.91437620000215,,,,,,,,,,,,,,,,027,2022-05-20_18h39.14.033,FishGame,2022.1.1,60.0214876955022,
,22,넌 빈틈없어,3,Orange,A,4.833333333333333,3.966666666666667,ScrollDown,ScrollUp,Orange.png,1,Neutral,Neutral,0,0,0,0,,,,,,,,,,,,,0,21,21,21,,,,,,,,,,,,,,,,,,,,,,,,,,,,,,,,,,,,,,,,,,,,,,,,,,,,,,,,,,,,,,,,,,,,,,,,,,,,,,,,,,,,,1.0046296219031017,1.2258661999949254,180.5267955000163,None,ScrollDown,정답입니다,180.5267955000163,None,180.5267955000163,None,180.5267955000163,None,180.5267955000163,None,181.6473309000139,None,181.6473309000139,182.14744430000428,,,,,,,,,,,,,,,,027,2022-05-20_18h39.14.033,FishGame,2022.1.1,60.0214876955022,
,23,넌 상상력없어,4,Green,B,2.833333333333333,3.133333333333333,ScrollUp,ScrollDown,Green.png,1,Negative,Congruent,0,0,0,0,,,,,,,,,,,,,0,22,22,22,,,,,,,,,,,,,,,,,,,,,,,,,,,,,,,,,,,,,,,,,,,,,,,,,,,,,,,,,,,,,,,,,,,,,,,,,,,,,,,,,,,,,1.7422839403152466,1.2802214000257663,182.77420859999256,None,ScrollUp,정답입니다,182.77420859999256,None,182.77420859999256,None,182.77420859999256,None,182.77420859999256,None,183.94983280001907,None,183.94983280001907,184.44989940000232,,,,,,,,,,,,,,,,027,2022-05-20_18h39.14.033,FishGame,2022.1.1,60.0214876955022,
,24,넌 지혜로워,2,Green,B,6.333333333333334,4.633333333333334,ScrollUp,ScrollDown,Green.png,1,Positive,Incongruent,0,0,0,0,,,,,,,,,,,,,0,23,23,23,,,,,,,,,,,,,,,,,,,,,,,,,,,,,,,,,,,,,,,,,,,,,,,,,,,,,,,,,,,,,,,,,,,,,,,,,,,,,,,,,,,,,1.703703703979651,1.2279897999833338,185.07598990004044,None,ScrollUp,정답입니다,185.07598990004044,None,185.07598990004044,None,185.07598990004044,None,185.07598990004044,None,186.1972989999922,None,186.1972989999922,186.69740400003502,,,,,,,,,,,,,,,,027,2022-05-20_18h39.14.033,FishGame,2022.1.1,60.0214876955022,
,25,넌 시끄러워,4,Orange,A,2.833333333333333,3.033333333333333,ScrollDown,ScrollUp,Orange.png,1,Negative,Incongruent,0,0,0,0,,,,,,,,,,,,,0,24,24,24,,,,,,,,,,,,,,,,,,,,,,,,,,,,,,,,,,,,,,,,,,,,,,,,,,,,,,,,,,,,,,,,,,,,,,,,,,,,,,,,,,,,,1,1.4139276000205427,187.3216985000181,None,ScrollDown,정답입니다,187.3216985000181,None,187.3216985000181,None,187.3216985000181,None,187.3216985000181,None,188.6331796000013,None,188.6331796000013,189.13313600001857,,,,,,,,,,,,,,,,027,2022-05-20_18h39.14.033,FishGame,2022.1.1,60.0214876955022,
,26,넌 만사태평이야,3,Green,B,4,4.333333333333333,ScrollUp,ScrollDown,Green.png,1,Neutral,Neutral,0,0,0,0,,,,,,,,,,,,,0,25,25,25,,,,,,,,,,,,,,,,,,,,,,,,,,,,,,,,,,,,,,,,,,,,,,,,,,,,,,,,,,,,,,,,,,,,,,,,,,,,,,,,,,,,,1.7901234477758408,1.3277616999694146,189.75804810004774,None,ScrollUp,정답입니다,189.75804810004774,None,189.75804810004774,None,189.75804810004774,None,189.75804810004774,None,190.98047870001756,None,190.98047870001756,191.48068830004195,,,,,,,,,,,,,,,,027,2022-05-20_18h39.14.033,FishGame,2022.1.1,60.0214876955022,
,27,넌 붙임성있어,1,Orange,A,5.708333333333333,5.633333333333334,ScrollDown,ScrollUp,Orange.png,1,Positive,Congruent,0,0,0,0,,,,,,,,,,,,,0,26,26,26,,,,,,,,,,,,,,,,,,,,,,,,,,,,,,,,,,,,,,,,,,,,,,,,,,,,,,,,,,,,,,,,,,,,,,,,,,,,,,,,,,,,,1,1.1634302000165917,192.1054879000294,None,ScrollDown,정답입니다,192.1054879000294,None,192.1054879000294,None,192.1054879000294,None,192.1054879000294,None,193.16636720002862,None,193.16636720002862,193.6664115000167,,,,,,,,,,,,,,,,027,2022-05-20_18h39.14.033,FishGame,2022.1.1,60.0214876955022,
,28,넌 영리해,2,Orange,A,6,4.033333333333333,ScrollDown,ScrollUp,Orange.png,1,Positive,Congruent,0,0,0,0,,,,,,,,,,,,,0,27,27,27,,,,,,,,,,,,,,,,,,,,,,,,,,,,,,,,,,,,,,,,,,,,,,,,,,,,,,,,,,,,,,,,,,,,,,,,,,,,,,,,,,,,,1.0895061641931534,1.129059500002768,194.28423230000772,None,ScrollDown,정답입니다,194.28423230000772,None,194.28423230000772,None,194.28423230000772,None,194.28423230000772,None,195.31619860004866,None,195.31619860004866,195.83080370002426,,,,,,,,,,,,,,,,027,2022-05-20_18h39.14.033,FishGame,2022.1.1,60.0214876955022,
,29,넌 열심이야,1,Green,B,6.041666666666667,5.833333333333333,ScrollUp,ScrollDown,Green.png,1,Positive,Incongruent,0,0,0,0,,,,,,,,,,,,,0,28,28,28,,,,,,,,,,,,,,,,,,,,,,,,,,,,,,,,,,,,,,,,,,,,,,,,,,,,,,,,,,,,,,,,,,,,,,,,,,,,,,,,,,,,,1.8827160596847534,1.113644299970474,196.45084390003467,None,ScrollUp,정답입니다,196.45084390003467,None,196.45084390003467,None,196.45084390003467,None,196.45084390003467,None,197.4662118999986,None,197.4662118999986,197.9663087000372,,,,,,,,,,,,,,,,027,2022-05-20_18h39.14.033,FishGame,2022.1.1,60.0214876955022,
,30,넌 인기없어,4,Green,B,3,3.3,ScrollUp,ScrollDown,Green.png,1,Negative,Congruent,0,0,0,0,,,,,,,,,,,,,0,29,29,29,,,,,,,,,,,,,,,,,,,,,,,,,,,,,,,,,,,,,,,,,,,,,,,,,,,,,,,,,,,,,,,,,,,,,,,,,,,,,,,,,,,,,1.8719135870536168,1.3927545999758877,198.58486000000266,None,ScrollUp,정답입니다,198.58486000000266,None,198.58486000000266,None,198.58486000000266,None,198.58486000000266,None,199.8805686000269,None,199.8805686000269,200.38085870002396,,,,,,,,,,,,,,,,027,2022-05-20_18h39.14.033,FishGame,2022.1.1,60.0214876955022,
,31,넌 익살스러워,3,Orange,A,4.708333333333334,4.833333333333333,ScrollDown,ScrollUp,Orange.png,1,Neutral,Neutral,0,0,0,0,,,,,,,,,,,,,0,30,30,30,,,,,,,,,,,,,,,,,,,,,,,,,,,,,,,,,,,,,,,,,,,,,,,,,,,,,,,,,,,,,,,,,,,,,,,,,,,,,,,,,,,,,1,1.011580699996557,201.0035037000198,None,ScrollDown,정답입니다,201.0035037000198,None,201.0035037000198,None,201.0035037000198,None,201.0035037000198,None,201.9160938000423,None,201.9160938000423,202.4139738000231,,,,,,,,,,,,,,,,027,2022-05-20_18h39.14.033,FishGame,2022.1.1,60.0214876955022,
,32,넌 이기적이야,5,Green,B,2.291666666666667,2.333333333333333,ScrollUp,ScrollDown,Green.png,1,Negative,Congruent,0,0,0,0,,,,,,,,,,,,,0,31,31,31,,,,,,,,,,,,,,,,,,,,,,,,,,,,,,,,,,,,,,,,,,,,,,,,,,,,,,,,,,,,,,,,,,,,,,,,,,,,,,,,,,,,,1.8148148208856583,1.1259572000126354,203.03197350003757,None,ScrollUp,정답입니다,203.03197350003757,None,203.03197350003757,None,203.03197350003757,None,203.03197350003757,None,204.0638027000241,None,204.0638027000241,204.56621190003352,,,,,,,,,,,,,,,,027,2022-05-20_18h39.14.033,FishGame,2022.1.1,60.0214876955022,
,33,나를 데려가줘,6,Green,B,0,0,ScrollDown,ScrollUp,Green.png,1,NonTarget,NonTarget,0,0,0,0,,,,,,,,,,,,,0,32,32,32,,,,,,,,,,,,,,,,,,,,,,,,,,,,,,,,,,,,,,,,,,,,,,,,,,,,,,,,,,,,,,,,,,,,,,,,,,,,,,,,,,,,,1,1.1622164000291377,205.18038720003096,None,ScrollDown,정답입니다,205.18038720003096,None,205.18038720003096,None,205.18038720003096,None,205.18038720003096,None,206.24715539999306,None,206.24715539999306,206.7493390000309,,,,,,,,,,,,,,,,027,2022-05-20_18h39.14.033,FishGame,2022.1.1,60.0214876955022,
,34,넌 기회주의자야,5,Orange,A,2.875,2.133333333333333,ScrollDown,ScrollUp,Orange.png,1,Negative,Incongruent,0,0,0,0,,,,,,,,,,,,,0,33,33,33,,,,,,,,,,,,,,,,,,,,,,,,,,,,,,,,,,,,,,,,,,,,,,,,,,,,,,,,,,,,,,,,,,,,,,,,,,,,,,,,,,,,,1,1.4759907000116073,207.37785310001345,None,ScrollDown,정답입니다,207.37785310001345,None,207.37785310001345,None,207.37785310001345,None,207.37785310001345,None,208.74678630003473,None,208.74678630003473,209.24686670000665,,,,,,,,,,,,,,,,027,2022-05-20_18h39.14.033,FishGame,2022.1.1,60.0214876955022,
,1,넌 미성숙해,4,Orange,A,3,3.2,ScrollDown,ScrollUp,Orange.png,2,Negative,Incongruent,0,0,0,0,,,,,,,,,,,,,,,,,0,0,0,0,,,,,,,,,,,,,,,,,,,,,,,,,,,,,,,,,,,,,,,,241.6297690999927,243.12975419999566,243.16309909999836,244.11542390001705,244.16308060003212,245.1153622000129,245.1153622000129,None,,,,,,,,,,,,,,,,,,,,,,,,,,,,,,,,,,1,1.6267960999975912,246.23644010000862,None,ScrollDown,정답입니다,246.23644010000862,None,246.23644010000862,None,246.23644010000862,None,246.23644010000862,None,247.76300910004647,None,247.76300910004647,248.26534720003838,209.74694320000708,None,209.74694320000708,None,0.24444444,-0.097222224,1,0,0,0.015709409955888987,None,239.74865399999544,None,,,027,2022-05-20_18h39.14.033,FishGame,2022.1.1,60.0214876955022,
,2,넌 반사회적이야,5,Green,B,2.416666666666667,2.033333333333333,ScrollUp,ScrollDown,Green.png,2,Negative,Congruent,0,0,0,0,,,,,,,,,,,,,,,,,0,1,1,1,,,,,,,,,,,,,,,,,,,,,,,,,,,,,,,,,,,,,,,,,,,,,,,,,,,,,,,,,,,,,,,,,,,,,,,,,,,,,,,,,1.9351851840813954,1.325586499995552,248.88716760004172,None,ScrollUp,정답입니다,248.88716760004172,None,248.88716760004172,None,248.88716760004172,None,248.88716760004172,None,250.11286310001742,None,250.11286310001742,250.61316030001035,,,,,,,,,,,,,,,,027,2022-05-20_18h39.14.033,FishGame,2022.1.1,60.0214876955022,
,3,넌 유능해,2,Orange,A,6.208333333333333,4.433333333333334,ScrollDown,ScrollUp,Orange.png,2,Positive,Congruent,0,0,0,0,,,,,,,,,,,,,,,,,0,2,2,2,,,,,,,,,,,,,,,,,,,,,,,,,,,,,,,,,,,,,,,,,,,,,,,,,,,,,,,,,,,,,,,,,,,,,,,,,,,,,,,,,1,0.9111546999774873,251.2431608000188,None,ScrollDown,정답입니다,251.2431608000188,None,251.2431608000188,None,251.2431608000188,None,251.2431608000188,None,252.04845370003022,None,252.04845370003022,252.54612050001742,,,,,,,,,,,,,,,,027,2022-05-20_18h39.14.033,FishGame,2022.1.1,60.0214876955022,
,4,넌 능숙해,2,Green,B,5.666666666666667,4.733333333333333,ScrollUp,ScrollDown,Green.png,2,Positive,Incongruent,0,0,0,0,,,,,,,,,,,,,,,,,0,3,3,3,,,,,,,,,,,,,,,,,,,,,,,,,,,,,,,,,,,,,,,,,,,,,,,,,,,,,,,,,,,,,,,,,,,,,,,,,,,,,,,,,1.884259248773257,1.059184700017795,253.1692730000359,None,ScrollUp,정답입니다,253.1692730000359,None,253.1692730000359,None,253.1692730000359,None,253.1692730000359,None,254.1292100000428,None,254.1292100000428,254.62926439999137,,,,,,,,,,,,,,,,027,2022-05-20_18h39.14.033,FishGame,2022.1.1,60.0214876955022,
,5,넌 진부해,4,Green,B,2.458333333333333,3.166666666666667,ScrollUp,ScrollDown,Green.png,2,Negative,Congruent,0,0,0,0,,,,,,,,,,,,,,,,,0,4,4,4,,,,,,,,,,,,,,,,,,,,,,,,,,,,,,,,,,,,,,,,,,,,,,,,,,,,,,,,,,,,,,,,,,,,,,,,,,,,,,,,,1.9938271641731262,1.3467733000288717,255.25014920003014,None,ScrollUp,정답입니다,255.25014920003014,None,255.25014920003014,None,255.25014920003014,None,255.25014920003014,None,256.4984050000203,None,256.4984050000203,256.99623620003695,,,,,,,,,,,,,,,,027,2022-05-20_18h39.14.033,FishGame,2022.1.1,60.0214876955022,
,6,나를 보내줘,6,Orange,A,0,0,ScrollUp,ScrollDown,Orange.png,2,NonTarget,NonTarget,0,0,0,0,,,,,,,,,,,,,,,,,0,5,5,5,,,,,,,,,,,,,,,,,,,,,,,,,,,,,,,,,,,,,,,,,,,,,,,,,,,,,,,,,,,,,,,,,,,,,,,,,,,,,,,,,1.8703703731298447,1.3613250000053085,257.6199168000021,None,ScrollUp,정답입니다,257.6199168000021,None,257.6199168000021,None,257.6199168000021,None,257.6199168000021,None,258.87940239999443,None,258.87940239999443,259.3815947000403,,,,,,,,,,,,,,,,027,2022-05-20_18h39.14.033,FishGame,2022.1.1,60.0214876955022,
,7,넌 엄격해,3,Orange,A,4.166666666666666,4.1,ScrollDown,ScrollUp,Orange.png,2,Neutral,Neutral,0,0,0,0,,,,,,,,,,,,,,,,,0,6,6,6,,,,,,,,,,,,,,,,,,,,,,,,,,,,,,,,,,,,,,,,,,,,,,,,,,,,,,,,,,,,,,,,,,,,,,,,,,,,,,,,,1,1.1758104999898933,260.005998800043,None,ScrollDown,정답입니다,260.005998800043,None,260.005998800043,None,260.005998800043,None,260.005998800043,None,261.07931110000936,None,261.07931110000936,261.5793591000256,,,,,,,,,,,,,,,,027,2022-05-20_18h39.14.033,FishGame,2022.1.1,60.0214876955022,
,8,나를 보내줘,6,Orange,A,0,0,ScrollUp,ScrollDown,Orange.png,2,NonTarget,NonTarget,0,0,0,0,,,,,,,,,,,,,,,,,0,7,7,7,,,,,,,,,,,,,,,,,,,,,,,,,,,,,,,,,,,,,,,,,,,,,,,,,,,,,,,,,,,,,,,,,,,,,,,,,,,,,,,,,2,1.2117129999678582,262.19867430004524,None,ScrollUp,정답입니다,262.19867430004524,None,262.19867430004524,None,262.19867430004524,None,262.19867430004524,None,263.3148422000231,None,263.3148422000231,263.83157959999517,,,,,,,,,,,,,,,,027,2022-05-20_18h39.14.033,FishGame,2022.1.1,60.0214876955022,
,9,넌 대담해,3,Green,B,4.875,4.866666666666666,ScrollUp,ScrollDown,Green.png,2,Neutral,Neutral,0,0,0,0,,,,,,,,,,,,,,,,,0,8,8,8,,,,,,,,,,,,,,,,,,,,,,,,,,,,,,,,,,,,,,,,,,,,,,,,,,,,,,,,,,,,,,,,,,,,,,,,,,,,,,,,,1.9490740597248077,1.059768300037831,264.4340846000123,None,ScrollUp,정답입니다,264.4340846000123,None,264.4340846000123,None,264.4340846000123,None,264.4340846000123,None,265.39565449999645,None,265.39565449999645,265.8957389999996,,,,,,,,,,,,,,,,027,2022-05-20_18h39.14.033,FishGame,2022.1.1,60.0214876955022,
,10,넌 꾸준해,1,Orange,A,5.916666666666668,5.8,ScrollDown,ScrollUp,Orange.png,2,Positive,Congruent,0,0,0,0,,,,,,,,,,,,,,,,,0,9,9,9,,,,,,,,,,,,,,,,,,,,,,,,,,,,,,,,,,,,,,,,,,,,,,,,,,,,,,,,,,,,,,,,,,,,,,,,,,,,,,,,,1,1.2611641000257805,266.516218600038,None,ScrollDown,정답입니다,266.516218600038,None,266.516218600038,None,266.516218600038,None,266.516218600038,None,267.6790158000076,None,267.6790158000076,268.18174090003595,,,,,,,,,,,,,,,,027,2022-05-20_18h39.14.033,FishGame,2022.1.1,60.0214876955022,
,11,나를 데려가줘,6,Green,B,0,0,ScrollDown,ScrollUp,Green.png,2,NonTarget,NonTarget,0,0,0,0,,,,,,,,,,,,,,,,,0,10,10,10,,,,,,,,,,,,,,,,,,,,,,,,,,,,,,,,,,,,,,,,,,,,,,,,,,,,,,,,,,,,,,,,,,,,,,,,,,,,,,,,,1.0138889054457347,2.1623657000018284,268.7947170000407,None,ScrollDown,정답입니다,268.7947170000407,None,268.7947170000407,None,268.7947170000407,None,268.7947170000407,None,270.8622088000411,None,270.8622088000411,271.3622691000346,,,,,,,,,,,,,,,,027,2022-05-20_18h39.14.033,FishGame,2022.1.1,60.0214876955022,
,12,넌 독선적이야,5,Orange,A,2.458333333333333,1.933333333333333,ScrollDown,ScrollUp,Orange.png,2,Negative,Incongruent,0,0,0,0,,,,,,,,,,,,,,,,,0,11,11,11,,,,,,,,,,,,,,,,,,,,,,,,,,,,,,,,,,,,,,,,,,,,,,,,,,,,,,,,,,,,,,,,,,,,,,,,,,,,,,,,,1.0092592636744182,1.4116189000196755,271.9897443000227,None,ScrollDown,정답입니다,271.9897443000227,None,271.9897443000227,None,271.9897443000227,None,271.9897443000227,None,273.2980786000262,None,273.2980786000262,273.81485250004334,,,,,,,,,,,,,,,,027,2022-05-20_18h39.14.033,FishGame,2022.1.1,60.0214876955022,
,13,나를 보내줘,6,Orange,A,0,0,ScrollUp,ScrollDown,Orange.png,2,NonTarget,NonTarget,0,0,0,0,,,,,,,,,,,,,,,,,0,12,12,12,,,,,,,,,,,,,,,,,,,,,,,,,,,,,,,,,,,,,,,,,,,,,,,,,,,,,,,,,,,,,,,,,,,,,,,,,,,,,,,,,1.817901223897934,1.4606533999904059,274.4172089000349,None,ScrollUp,정답입니다,274.4172089000349,None,274.4172089000349,None,274.4172089000349,None,274.4172089000349,None,275.77905529999407,None,275.77905529999407,276.27918400004273,,,,,,,,,,,,,,,,027,2022-05-20_18h39.14.033,FishGame,2022.1.1,60.0214876955022,
,14,넌 책임감있어,1,Green,B,6.347826086956522,6,ScrollUp,ScrollDown,Green.png,2,Positive,Incongruent,0,0,0,0,,,,,,,,,,,,,,,,,0,13,13,13,,,,,,,,,,,,,,,,,,,,,,,,,,,,,,,,,,,,,,,,,,,,,,,,,,,,,,,,,,,,,,,,,,,,,,,,,,,,,,,,,1.9799382885297139,1.2951469999970868,276.90148880000925,None,ScrollUp,정답입니다,276.90148880000925,None,276.90148880000925,None,276.90148880000925,None,276.90148880000925,None,278.09563320002053,None,278.09563320002053,278.59609260002617,,,,,,,,,,,,,,,,027,2022-05-20_18h39.14.033,FishGame,2022.1.1,60.0214876955022,
,15,넌 문학적이야,3,Orange,A,4.708333333333334,4.333333333333333,ScrollDown,ScrollUp,Orange.png,2,Neutral,Neutral,0,0,0,0,,,,,,,,,,,,,,,,,0,14,14,14,,,,,,,,,,,,,,,,,,,,,,,,,,,,,,,,,,,,,,,,,,,,,,,,,,,,,,,,,,,,,,,,,,,,,,,,,,,,,,,,,1,1.2594380000373349,279.22264630004065,None,ScrollDown,정답입니다,279.22264630004065,None,279.22264630004065,None,279.22264630004065,None,279.22264630004065,None,280.3789774000179,None,280.3789774000179,280.8812648000312,,,,,,,,,,,,,,,,027,2022-05-20_18h39.14.033,FishGame,2022.1.1,60.0214876955022,
,16,넌 재미있어,1,Green,B,5.875,5.7,ScrollUp,ScrollDown,Green.png,2,Positive,Incongruent,0,0,0,0,,,,,,,,,,,,,,,,,0,15,15,15,,,,,,,,,,,,,,,,,,,,,,,,,,,,,,,,,,,,,,,,,,,,,,,,,,,,,,,,,,,,,,,,,,,,,,,,,,,,,,,,,1.8410493830839794,1.2922795999911614,281.49844160000794,None,ScrollUp,정답입니다,281.49844160000794,None,281.49844160000794,None,281.49844160000794,None,281.49844160000794,None,282.69555480004055,None,282.69555480004055,283.19573080004193,,,,,,,,,,,,,,,,027,2022-05-20_18h39.14.033,FishGame,2022.1.1,60.0214876955022,
,17,나를 데려가줘,6,Green,B,0,0,ScrollDown,ScrollUp,Green.png,2,NonTarget,NonTarget,0,0,0,0,,,,,,,,,,,,,,,,,0,16,16,16,,,,,,,,,,,,,,,,,,,,,,,,,,,,,,,,,,,,,,,,,,,,,,,,,,,,,,,,,,,,,,,,,,,,,,,,,,,,,,,,,1,1.278785099973902,283.8105469000293,None,ScrollDown,정답입니다,283.8105469000293,None,283.8105469000293,None,283.8105469000293,None,283.8105469000293,None,284.99551820004126,None,284.99551820004126,285.49770780000836,,,,,,,,,,,,,,,,027,2022-05-20_18h39.14.033,FishGame,2022.1.1,60.0214876955022,
,18,넌 협력적이야,1,Orange,A,5.625,5.633333333333334,ScrollDown,ScrollUp,Orange.png,2,Positive,Congruent,0,0,0,0,,,,,,,,,,,,,,,,,0,17,17,17,,,,,,,,,,,,,,,,,,,,,,,,,,,,,,,,,,,,,,,,,,,,,,,,,,,,,,,,,,,,,,,,,,,,,,,,,,,,,,,,,1,1.3277280000038445,286.12204859999474,None,ScrollDown,정답입니다,286.12204859999474,None,286.12204859999474,None,286.12204859999474,None,286.12204859999474,None,287.3476756000309,None,287.3476756000309,287.84792730002664,,,,,,,,,,,,,,,,027,2022-05-20_18h39.14.033,FishGame,2022.1.1,60.0214876955022,
,19,넌 평범해,3,Green,B,4.333333333333332,4.233333333333333,ScrollUp,ScrollDown,Green.png,2,Neutral,Neutral,0,0,0,0,,,,,,,,,,,,,,,,,0,18,18,18,,,,,,,,,,,,,,,,,,,,,,,,,,,,,,,,,,,,,,,,,,,,,,,,,,,,,,,,,,,,,,,,,,,,,,,,,,,,,,,,,1.8719135870536168,1.1291795000433922,288.4693275000318,None,ScrollUp,정답입니다,288.4693275000318,None,288.4693275000318,None,288.4693275000318,None,288.4693275000318,None,289.49516330001643,None,289.49516330001643,289.9953267000383,,,,,,,,,,,,,,,,027,2022-05-20_18h39.14.033,FishGame,2022.1.1,60.0214876955022,
,20,넌 오만해,5,Orange,A,2.333333333333333,2,ScrollDown,ScrollUp,Orange.png,2,Negative,Incongruent,0,0,0,0,,,,,,,,,,,,,,,,,0,19,19,19,,,,,,,,,,,,,,,,,,,,,,,,,,,,,,,,,,,,,,,,,,,,,,,,,,,,,,,,,,,,,,,,,,,,,,,,,,,,,,,,,1,1.8283159999991767,290.6194946000469,None,ScrollDown,정답입니다,290.6194946000469,None,290.6194946000469,None,290.6194946000469,None,290.6194946000469,None,292.34770270000445,None,292.34770270000445,292.847707500041,,,,,,,,,,,,,,,,027,2022-05-20_18h39.14.033,FishGame,2022.1.1,60.0214876955022,
,21,넌 운이없어,4,Green,B,3,3.466666666666667,ScrollUp,ScrollDown,Green.png,2,Negative,Congruent,0,0,0,0,,,,,,,,,,,,,,,,,0,20,20,20,,,,,,,,,,,,,,,,,,,,,,,,,,,,,,,,,,,,,,,,,,,,,,,,,,,,,,,,,,,,,,,,,,,,,,,,,,,,,,,,,1.807098776102066,1.143904600001406,293.4680346000241,None,ScrollUp,정답입니다,293.4680346000241,None,293.4680346000241,None,293.4680346000241,None,293.4680346000241,None,294.5120264000143,None,294.5120264000143,295.01216520002345,,,,,,,,,,,,,,,,027,2022-05-20_18h39.14.033,FishGame,2022.1.1,60.0214876955022,
,22,넌 창조적이야,2,Green,B,6.125,4.633333333333334,ScrollUp,ScrollDown,Green.png,2,Positive,Incongruent,0,0,0,0,,,,,,,,,,,,,,,,,0,21,21,21,,,,,,,,,,,,,,,,,,,,,,,,,,,,,,,,,,,,,,,,,,,,,,,,,,,,,,,,,,,,,,,,,,,,,,,,,,,,,,,,,1.733024681607882,1.0621020999969915,295.634097400005,None,ScrollUp,정답입니다,295.634097400005,None,295.634097400005,None,295.634097400005,None,295.634097400005,None,296.5952799000079,None,296.5952799000079,297.09540490002837,,,,,,,,,,,,,,,,027,2022-05-20_18h39.14.033,FishGame,2022.1.1,60.0214876955022,
,23,나를 보내줘,6,Orange,A,0,0,ScrollUp,ScrollDown,Orange.png,2,NonTarget,NonTarget,0,0,0,0,,,,,,,,,,,,,,,,,0,22,22,22,,,,,,,,,,,,,,,,,,,,,,,,,,,,,,,,,,,,,,,,,,,,,,,,,,,,,,,,,,,,,,,,,,,,,,,,,,,,,,,,,1.817901223897934,1.1592210000380874,297.7166277000215,None,ScrollUp,정답입니다,297.7166277000215,None,297.7166277000215,None,297.7166277000215,None,297.7166277000215,None,298.77860540000256,None,298.77860540000256,299.27875580004184,,,,,,,,,,,,,,,,027,2022-05-20_18h39.14.033,FishGame,2022.1.1,60.0214876955022,
,24,넌 통찰력있어,2,Orange,A,6.5,4.8,ScrollDown,ScrollUp,Orange.png,2,Positive,Congruent,0,0,0,0,,,,,,,,,,,,,,,,,0,23,23,23,,,,,,,,,,,,,,,,,,,,,,,,,,,,,,,,,,,,,,,,,,,,,,,,,,,,,,,,,,,,,,,,,,,,,,,,,,,,,,,,,1,1.1424725000397302,299.910686600022,None,ScrollDown,정답입니다,299.910686600022,None,299.910686600022,None,299.910686600022,None,299.910686600022,None,300.94741660001455,None,300.94741660001455,301.4618966000271,,,,,,,,,,,,,,,,027,2022-05-20_18h39.14.033,FishGame,2022.1.1,60.0214876955022,
,25,넌 경솔해,5,Green,B,2.458333333333333,2.266666666666667,ScrollUp,ScrollDown,Green.png,2,Negative,Congruent,0,0,0,0,,,,,,,,,,,,,,,,,0,24,24,24,,,,,,,,,,,,,,,,,,,,,,,,,,,,,,,,,,,,,,,,,,,,,,,,,,,,,,,,,,,,,,,,,,,,,,,,,,,,,,,,,1.873456800977389,1.1927051999955438,302.08221200003754,None,ScrollUp,정답입니다,302.08221200003754,None,302.08221200003754,None,302.08221200003754,None,302.08221200003754,None,303.1785219000303,None,303.1785219000303,303.68125590001,,,,,,,,,,,,,,,,027,2022-05-20_18h39.14.033,FishGame,2022.1.1,60.0214876955022,
,26,넌 초조해,4,Orange,A,2.916666666666667,3.133333333333333,ScrollDown,ScrollUp,Orange.png,2,Negative,Incongruent,0,0,0,0,,,,,,,,,,,,,,,,,0,25,25,25,,,,,,,,,,,,,,,,,,,,,,,,,,,,,,,,,,,,,,,,,,,,,,,,,,,,,,,,,,,,,,,,,,,,,,,,,,,,,,,,,1.0185184975465138,1.242604199971538,304.30294180003693,None,ScrollDown,정답입니다,304.30294180003693,None,304.30294180003693,None,304.30294180003693,None,304.30294180003693,None,305.445081700047,None,305.445081700047,305.94519880000735,,,,,,,,,,,,,,,,027,2022-05-20_18h39.14.033,FishGame,2022.1.1,60.0214876955022,
,27,넌 무관심해,4,Green,B,2.833333333333333,2.9,ScrollUp,ScrollDown,Green.png,2,Negative,Congruent,0,0,0,0,,,,,,,,,,,,,,,,,0,26,26,26,,,,,,,,,,,,,,,,,,,,,,,,,,,,,,,,,,,,,,,,,,,,,,,,,,,,,,,,,,,,,,,,,,,,,,,,,,,,,,,,,1.8703703731298447,1.1259954000124708,306.5665119000478,None,ScrollUp,정답입니다,306.5665119000478,None,306.5665119000478,None,306.5665119000478,None,306.5665119000478,None,307.59725120000076,None,307.59725120000076,308.0952335000038,,,,,,,,,,,,,,,,027,2022-05-20_18h39.14.033,FishGame,2022.1.1,60.0214876955022,
,28,넌 감성적이야,3,Green,B,4.125,4.166666666666667,ScrollUp,ScrollDown,Green.png,2,Neutral,Neutral,0,0,0,0,,,,,,,,,,,,,,,,,0,27,27,27,,,,,,,,,,,,,,,,,,,,,,,,,,,,,,,,,,,,,,,,,,,,,,,,,,,,,,,,,,,,,,,,,,,,,,,,,,,,,,,,,1.9783950746059418,1.361086199991405,308.71175830002176,None,ScrollUp,정답입니다,308.71175830002176,None,308.71175830002176,None,308.71175830002176,None,308.71175830002176,None,309.9784152000211,None,309.9784152000211,310.47854209999787,,,,,,,,,,,,,,,,027,2022-05-20_18h39.14.033,FishGame,2022.1.1,60.0214876955022,
,29,넌 배려심있어,1,Orange,A,6.083333333333333,5.5,ScrollDown,ScrollUp,Orange.png,2,Positive,Congruent,0,0,0,0,,,,,,,,,,,,,,,,,0,28,28,28,,,,,,,,,,,,,,,,,,,,,,,,,,,,,,,,,,,,,,,,,,,,,,,,,,,,,,,,,,,,,,,,,,,,,,,,,,,,,,,,,1,0.9763952000066638,311.1013750000275,None,ScrollDown,정답입니다,311.1013750000275,None,311.1013750000275,None,311.1013750000275,None,311.1013750000275,None,311.97833489999175,None,311.97833489999175,312.4783699000254,,,,,,,,,,,,,,,,027,2022-05-20_18h39.14.033,FishGame,2022.1.1,60.0214876955022,
,30,넌 숨김없어,3,Orange,A,4.5,4.933333333333334,ScrollDown,ScrollUp,Orange.png,2,Neutral,Neutral,0,0,0,0,,,,,,,,,,,,,,,,,0,29,29,29,,,,,,,,,,,,,,,,,,,,,,,,,,,,,,,,,,,,,,,,,,,,,,,,,,,,,,,,,,,,,,,,,,,,,,,,,,,,,,,,,1,1.3609635999891907,313.1113550000009,None,ScrollDown,정답입니다,313.1113550000009,None,313.1113550000009,None,313.1113550000009,None,313.1113550000009,None,314.36160170001676,None,314.36160170001676,314.86383139999816,,,,,,,,,,,,,,,,027,2022-05-20_18h39.14.033,FishGame,2022.1.1,60.0214876955022,
,31,넌 훌륭해,2,Green,B,5.916666666666667,4.033333333333333,ScrollUp,ScrollDown,Green.png,2,Positive,Incongruent,0,0,0,0,,,,,,,,,,,,,,,,,0,30,30,30,,,,,,,,,,,,,,,,,,,,,,,,,,,,,,,,,,,,,,,,,,,,,,,,,,,,,,,,,,,,,,,,,,,,,,,,,,,,,,,,,1.9567901293436687,1.194701200001873,315.4870743000065,None,ScrollUp,정답입니다,315.4870743000065,None,315.4870743000065,None,315.4870743000065,None,315.4870743000065,None,316.5782627000008,None,316.5782627000008,317.0805723000085,,,,,,,,,,,,,,,,027,2022-05-20_18h39.14.033,FishGame,2022.1.1,60.0214876955022,
,32,넌 슬기로워,2,Orange,A,6.166666666666667,4.1,ScrollDown,ScrollUp,Orange.png,2,Positive,Congruent,0,0,0,0,,,,,,,,,,,,,,,,,0,31,31,31,,,,,,,,,,,,,,,,,,,,,,,,,,,,,,,,,,,,,,,,,,,,,,,,,,,,,,,,,,,,,,,,,,,,,,,,,,,,,,,,,1,1.3947255999664776,317.7050799000426,None,ScrollDown,정답입니다,317.7050799000426,None,317.7050799000426,None,317.7050799000426,None,317.7050799000426,None,318.9946270000073,None,318.9946270000073,319.49464029999217,,,,,,,,,,,,,,,,027,2022-05-20_18h39.14.033,FishGame,2022.1.1,60.0214876955022,
,33,넌 냉혹해,5,Orange,A,2.583333333333333,2.1,ScrollDown,ScrollUp,Orange.png,2,Negative,Incongruent,0,0,0,0,,,,,,,,,,,,,,,,,0,32,32,32,,,,,,,,,,,,,,,,,,,,,,,,,,,,,,,,,,,,,,,,,,,,,,,,,,,,,,,,,,,,,,,,,,,,,,,,,,,,,,,,,1,0.978646099974867,320.11613690003287,None,ScrollDown,정답입니다,320.11613690003287,None,320.11613690003287,None,320.11613690003287,None,320.11613690003287,None,320.9971581000136,None,320.9971581000136,321.49711140000727,,,,,,,,,,,,,,,,027,2022-05-20_18h39.14.033,FishGame,2022.1.1,60.0214876955022,
,34,나를 데려가줘,6,Green,B,0,0,ScrollDown,ScrollUp,Green.png,2,NonTarget,NonTarget,0,0,0,0,,,,,,,,,,,,,,,,,0,33,33,33,,,,,,,,,,,,,,,,,,,,,,,,,,,,,,,,,,,,,,,,,,,,,,,,,,,,,,,,,,,,,,,,,,,,,,,,,,,,,,,,,1,1.427199899975676,322.1171676000231,None,ScrollDown,정답입니다,322.1171676000231,None,322.1171676000231,None,322.1171676000231,None,322.1171676000231,None,323.4444911000319,None,323.4444911000319,323.9445958000142,,,,,,,,,,,,,,,,027,2022-05-20_18h39.14.033,FishGame,2022.1.1,60.0214876955022,
,35,넌 편파적이야,5,Green,B,2.125,2,ScrollUp,ScrollDown,Green.png,2,Negative,Congruent,0,0,0,0,,,,,,,,,,,,,,,,,0,34,34,34,,,,,,,,,,,,,,,,,,,,,,,,,,,,,,,,,,,,,,,,,,,,,,,,,,,,,,,,,,,,,,,,,,,,,,,,,,,,,,,,,1.959876557191213,1.261727700009942,324.5652126999921,None,ScrollUp,정답입니다,324.5652126999921,None,324.5652126999921,None,324.5652126999921,None,324.5652126999921,None,325.73043660004623,None,325.73043660004623,326.23034940002253,,,,,,,,,,,,,,,,027,2022-05-20_18h39.14.033,FishGame,2022.1.1,60.0214876955022,
,36,넌 슬퍼,4,Orange,A,2.583333333333333,3.066666666666667,ScrollDown,ScrollUp,Orange.png,2,Negative,Incongruent,0,0,0,0,,,,,,,,,,,,,,,,,0,35,35,35,,,,,,,,,,,,,,,,,,,,,,,,,,,,,,,,,,,,,,,,,,,,,,,,,,,,,,,,,,,,,,,,,,,,,,,,,,,,,,,,,1,1.10995869996259,326.8481810000376,None,ScrollDown,정답입니다,326.8481810000376,None,326.8481810000376,None,326.8481810000376,None,326.8481810000376,None,327.8613511000294,None,327.8613511000294,328.3635283000185,,,,,,,,,,,,,,,,027,2022-05-20_18h39.14.033,FishGame,2022.1.1,60.0214876955022,
,37,나를 데려가줘,6,Green,B,0,0,ScrollDown,ScrollUp,Green.png,2,NonTarget,NonTarget,0,0,0,0,,,,,,,,,,,,,,,,,0,36,36,36,,,,,,,,,,,,,,,,,,,,,,,,,,,,,,,,,,,,,,,,,,,,,,,,,,,,,,,,,,,,,,,,,,,,,,,,,,,,,,,,,1,1.7092171999975108,328.98494460002985,None,ScrollDown,정답입니다,328.98494460002985,None,328.98494460002985,None,328.98494460002985,None,328.98494460002985,None,330.5946564000333,None,330.5946564000333,331.09687970002415,,,,,,,,,,,,,,,,027,2022-05-20_18h39.14.033,FishGame,2022.1.1,60.0214876955022,
,38,넌 친절해,1,Green,B,6.041666666666667,5.533333333333333,ScrollUp,ScrollDown,Green.png,2,Positive,Incongruent,0,0,0,0,,,,,,,,,,,,,,,,,0,37,37,37,,,,,,,,,,,,,,,,,,,,,,,,,,,,,,,,,,,,,,,,,,,,,,,,,,,,,,,,,,,,,,,,,,,,,,,,,,,,,,,,,1.9120370248953502,1.2924558999948204,331.71670650003944,None,ScrollUp,정답입니다,331.71670650003944,None,331.71670650003944,None,331.71670650003944,None,331.71670650003944,None,332.91118769999593,None,332.91118769999593,333.4134195999941,,,,,,,,,,,,,,,,027,2022-05-20_18h39.14.033,FishGame,2022.1.1,60.0214876955022,
,1,넌 엉성해,4,Orange,A,3,3.3,ScrollDown,ScrollUp,Orange.png,3,Negative,Incongruent,0,0,0,0,,,,,,,,,,,,,,,,,,,,,0,0,0,0,,,,,,,,,,,,,,,,,,,,,,,,,,,,,,,,,,,,367.3608436000068,368.862930400006,368.89628530002665,369.8606642000377,369.89420620002784,370.84934360004263,370.8326939000399,None,,,,,,,,,,,,,,,,,,,,,,,,,,,,,,,,,,1,1.3265394000336528,371.9500982000027,None,ScrollDown,정답입니다,371.9500982000027,None,371.9500982000027,None,371.9500982000027,None,371.9500982000027,None,373.1771523000207,None,373.1771523000207,373.6793230000185,333.9112202000106,None,333.9112202000106,None,0.25092593,-0.12037037,1,0,0,0.016204910003580153,None,363.91105990001233,None,,,027,2022-05-20_18h39.14.033,FishGame,2022.1.1,60.0214876955022,
,2,나를 보내줘,6,Orange,A,0,0,ScrollUp,ScrollDown,Orange.png,3,NonTarget,NonTarget,0,0,0,0,,,,,,,,,,,,,,,,,,,,,0,1,1,1,,,,,,,,,,,,,,,,,,,,,,,,,,,,,,,,,,,,,,,,,,,,,,,,,,,,,,,,,,,,,,,,,,,,,,,,,,,,,2,1.1588253999943845,374.303850300028,None,ScrollUp,정답입니다,374.303850300028,None,374.303850300028,None,374.303850300028,None,374.303850300028,None,375.36036890000105,None,375.36036890000105,375.8604930000147,,,,,,,,,,,,,,,,027,2022-05-20_18h39.14.033,FishGame,2022.1.1,60.0214876955022,
,3,넌 활발해,1,Green,B,5.666666666666667,5.6,ScrollUp,ScrollDown,Green.png,3,Positive,Incongruent,0,0,0,0,,,,,,,,,,,,,,,,,,,,,0,2,2,2,,,,,,,,,,,,,,,,,,,,,,,,,,,,,,,,,,,,,,,,,,,,,,,,,,,,,,,,,,,,,,,,,,,,,,,,,,,,,1.983024666706721,0.9760216999566182,376.48250710003776,None,ScrollUp,정답입니다,376.48250710003776,None,376.48250710003776,None,376.48250710003776,None,376.48250710003776,None,377.3603693000041,None,377.3603693000041,377.8626298000454,,,,,,,,,,,,,,,,027,2022-05-20_18h39.14.033,FishGame,2022.1.1,60.0214876955022,
,4,넌 논리적이야,2,Orange,A,5.666666666666666,4.633333333333334,ScrollDown,ScrollUp,Orange.png,3,Positive,Congruent,0,0,0,0,,,,,,,,,,,,,,,,,,,,,0,3,3,3,,,,,,,,,,,,,,,,,,,,,,,,,,,,,,,,,,,,,,,,,,,,,,,,,,,,,,,,,,,,,,,,,,,,,,,,,,,,,1,1.0441956999711692,378.48195059999125,None,ScrollDown,정답입니다,378.48195059999125,None,378.48195059999125,None,378.48195059999125,None,378.48195059999125,None,379.42671020003036,None,379.42671020003036,379.926786200027,,,,,,,,,,,,,,,,027,2022-05-20_18h39.14.033,FishGame,2022.1.1,60.0214876955022,
,5,넌 과묵해,3,Orange,A,3.875,4.4,ScrollDown,ScrollUp,Orange.png,3,Neutral,Neutral,0,0,0,0,,,,,,,,,,,,,,,,,,,,,0,4,4,4,,,,,,,,,,,,,,,,,,,,,,,,,,,,,,,,,,,,,,,,,,,,,,,,,,,,,,,,,,,,,,,,,,,,,,,,,,,,,1,1.0972343000466935,380.54635670001153,None,ScrollDown,정답입니다,380.54635670001153,None,380.54635670001153,None,380.54635670001153,None,380.54635670001153,None,381.5460165000404,None,381.5460165000404,382.0460512000136,,,,,,,,,,,,,,,,027,2022-05-20_18h39.14.033,FishGame,2022.1.1,60.0214876955022,
,6,나를 데려가줘,6,Green,B,0,0,ScrollDown,ScrollUp,Green.png,3,NonTarget,NonTarget,0,0,0,0,,,,,,,,,,,,,,,,,,,,,0,5,5,5,,,,,,,,,,,,,,,,,,,,,,,,,,,,,,,,,,,,,,,,,,,,,,,,,,,,,,,,,,,,,,,,,,,,,,,,,,,,,1,1.2771094999625348,382.6591158999945,None,ScrollDown,정답입니다,382.6591158999945,None,382.6591158999945,None,382.6591158999945,None,382.6591158999945,None,383.83897560002515,None,383.83897560002515,384.34336180001264,,,,,,,,,,,,,,,,027,2022-05-20_18h39.14.033,FishGame,2022.1.1,60.0214876955022,
,7,넌 미숙해,4,Green,B,3,3,ScrollUp,ScrollDown,Green.png,3,Negative,Congruent,0,0,0,0,,,,,,,,,,,,,,,,,,,,,0,6,6,6,,,,,,,,,,,,,,,,,,,,,,,,,,,,,,,,,,,,,,,,,,,,,,,,,,,,,,,,,,,,,,,,,,,,,,,,,,,,,1.8503086417913437,1.130058899987489,384.96198990003904,None,ScrollUp,정답입니다,384.96198990003904,None,384.96198990003904,None,384.96198990003904,None,384.96198990003904,None,385.993291700026,None,385.993291700026,386.4938627000083,,,,,,,,,,,,,,,,027,2022-05-20_18h39.14.033,FishGame,2022.1.1,60.0214876955022,
,8,나를 보내줘,6,Orange,A,0,0,ScrollUp,ScrollDown,Orange.png,3,NonTarget,NonTarget,0,0,0,0,,,,,,,,,,,,,,,,,,,,,0,7,7,7,,,,,,,,,,,,,,,,,,,,,,,,,,,,,,,,,,,,,,,,,,,,,,,,,,,,,,,,,,,,,,,,,,,,,,,,,,,,,1.8811728457609813,1.3442623000009917,387.1143871000386,None,ScrollUp,정답입니다,387.1143871000386,None,387.1143871000386,None,387.1143871000386,None,387.1143871000386,None,388.3624611000414,None,388.3624611000414,388.86254610004835,,,,,,,,,,,,,,,,027,2022-05-20_18h39.14.033,FishGame,2022.1.1,60.0214876955022,
,9,넌 자신만만해,3,Green,B,4.833333333333334,4.333333333333333,ScrollUp,ScrollDown,Green.png,3,Neutral,Neutral,0,0,0,0,,,,,,,,,,,,,,,,,,,,,0,8,8,8,,,,,,,,,,,,,,,,,,,,,,,,,,,,,,,,,,,,,,,,,,,,,,,,,,,,,,,,,,,,,,,,,,,,,,,,,,,,,1.7314814925193787,1.411308699985966,389.4974352000281,None,ScrollUp,정답입니다,389.4974352000281,None,389.4974352000281,None,389.4974352000281,None,389.4974352000281,None,390.8100871000206,None,390.8100871000206,391.31240670004627,,,,,,,,,,,,,,,,027,2022-05-20_18h39.14.033,FishGame,2022.1.1,60.0214876955022,
,10,넌 탐욕스러워,5,Orange,A,2.25,2.1,ScrollDown,ScrollUp,Orange.png,3,Negative,Incongruent,0,0,0,0,,,,,,,,,,,,,,,,,,,,,0,9,9,9,,,,,,,,,,,,,,,,,,,,,,,,,,,,,,,,,,,,,,,,,,,,,,,,,,,,,,,,,,,,,,,,,,,,,,,,,,,,,1.0077160497506459,0.9942968999966979,391.9396417000098,None,ScrollDown,정답입니다,391.9396417000098,None,391.9396417000098,None,391.9396417000098,None,391.9396417000098,None,392.8266660000081,None,392.8266660000081,393.32672230002936,,,,,,,,,,,,,,,,027,2022-05-20_18h39.14.033,FishGame,2022.1.1,60.0214876955022,
,11,넌 인기있어,2,Orange,A,5.458333333333333,4.5,ScrollDown,ScrollUp,Orange.png,3,Positive,Congruent,0,0,0,0,,,,,,,,,,,,,,,,,,,,,0,10,10,10,,,,,,,,,,,,,,,,,,,,,,,,,,,,,,,,,,,,,,,,,,,,,,,,,,,,,,,,,,,,,,,,,,,,,,,,,,,,,1.0679012437661488,1.2093557000043802,393.95143000001553,None,ScrollDown,정답입니다,393.95143000001553,None,393.95143000001553,None,393.95143000001553,None,393.95143000001553,None,395.06000890000723,None,395.06000890000723,395.5622118000174,,,,,,,,,,,,,,,,027,2022-05-20_18h39.14.033,FishGame,2022.1.1,60.0214876955022,
,12,나를 데려가줘,6,Green,B,0,0,ScrollDown,ScrollUp,Green.png,3,NonTarget,NonTarget,0,0,0,0,,,,,,,,,,,,,,,,,,,,,0,11,11,11,,,,,,,,,,,,,,,,,,,,,,,,,,,,,,,,,,,,,,,,,,,,,,,,,,,,,,,,,,,,,,,,,,,,,,,,,,,,,1.9537037014961243,1.2951993999886326,396.1759836000274,None,ScrollUp,오답입니다,396.1759836000274,None,396.1759836000274,None,396.1759836000274,None,396.1759836000274,None,397.37802210001973,None,397.37802210001973,397.8933582000318,,,,,,,,,,,,,,,,027,2022-05-20_18h39.14.033,FishGame,2022.1.1,60.0214876955022,
,13,넌 뛰어나,2,Green,B,6.166666666666667,4,ScrollUp,ScrollDown,Green.png,3,Positive,Incongruent,0,0,0,0,,,,,,,,,,,,,,,,,,,,,0,12,12,12,,,,,,,,,,,,,,,,,,,,,,,,,,,,,,,,,,,,,,,,,,,,,,,,,,,,,,,,,,,,,,,,,,,,,,,,,,,,,1.68364197264115,1.4924607999855652,398.49973360000877,None,ScrollUp,정답입니다,398.49973360000877,None,398.49973360000877,None,398.49973360000877,None,398.49973360000877,None,399.8954311000416,None,399.8954311000416,400.39356250001583,,,,,,,,,,,,,,,,027,2022-05-20_18h39.14.033,FishGame,2022.1.1,60.0214876955022,
,14,넌 낙관적이야,1,Orange,A,5.75,5.8,ScrollDown,ScrollUp,Orange.png,3,Positive,Congruent,0,0,0,0,,,,,,,,,,,,,,,,,,,,,0,13,13,13,,,,,,,,,,,,,,,,,,,,,,,,,,,,,,,,,,,,,,,,,,,,,,,,,,,,,,,,,,,,,,,,,,,,,,,,,,,,,1.0817901194095612,1.1423233000095934,401.022321299999,None,ScrollDown,정답입니다,401.022321299999,None,401.022321299999,None,401.022321299999,None,401.022321299999,None,402.06208200001856,None,402.06208200001856,402.578864500043,,,,,,,,,,,,,,,,027,2022-05-20_18h39.14.033,FishGame,2022.1.1,60.0214876955022,
,15,넌 산만해,4,Green,B,2.695652173913043,3.033333333333333,ScrollUp,ScrollDown,Green.png,3,Negative,Congruent,0,0,0,0,,,,,,,,,,,,,,,,,,,,,0,14,14,14,,,,,,,,,,,,,,,,,,,,,,,,,,,,,,,,,,,,,,,,,,,,,,,,,,,,,,,,,,,,,,,,,,,,,,,,,,,,,1.8719135870536168,1.160120000015013,403.2070450000465,None,ScrollUp,정답입니다,403.2070450000465,None,403.2070450000465,None,403.2070450000465,None,403.2070450000465,None,404.2428693000111,None,404.2428693000111,404.742979200033,,,,,,,,,,,,,,,,027,2022-05-20_18h39.14.033,FishGame,2022.1.1,60.0214876955022,
,16,나를 보내줘,6,Orange,A,0,0,ScrollUp,ScrollDown,Orange.png,3,NonTarget,NonTarget,0,0,0,0,,,,,,,,,,,,,,,,,,,,,0,15,15,15,,,,,,,,,,,,,,,,,,,,,,,,,,,,,,,,,,,,,,,,,,,,,,,,,,,,,,,,,,,,,,,,,,,,,,,,,,,,,1.9537037014961243,1.5657112000044435,405.3686852999963,None,ScrollUp,정답입니다,405.3686852999963,None,405.3686852999963,None,405.3686852999963,None,405.3686852999963,None,406.8287291000015,None,406.8287291000015,407.32875179999974,,,,,,,,,,,,,,,,027,2022-05-20_18h39.14.033,FishGame,2022.1.1,60.0214876955022,
,17,넌 교활해,5,Green,B,2.333333333333333,2.133333333333333,ScrollUp,ScrollDown,Green.png,3,Negative,Congruent,0,0,0,0,,,,,,,,,,,,,,,,,,,,,0,16,16,16,,,,,,,,,,,,,,,,,,,,,,,,,,,,,,,,,,,,,,,,,,,,,,,,,,,,,,,,,,,,,,,,,,,,,,,,,,,,,1.6929012313485146,1.1959132999763824,407.94718760001706,None,ScrollUp,정답입니다,407.94718760001706,None,407.94718760001706,None,407.94718760001706,None,407.94718760001706,None,409.04523640003754,None,409.04523640003754,409.5452663000324,,,,,,,,,,,,,,,,027,2022-05-20_18h39.14.033,FishGame,2022.1.1,60.0214876955022,
,18,나를 보내줘,6,Orange,A,0,0,ScrollUp,ScrollDown,Orange.png,3,NonTarget,NonTarget,0,0,0,0,,,,,,,,,,,,,,,,,,,,,0,17,17,17,,,,,,,,,,,,,,,,,,,,,,,,,,,,,,,,,,,,,,,,,,,,,,,,,,,,,,,,,,,,,,,,,,,,,,,,,,,,,1.7299382785956063,1.1425094999722205,410.1673407999915,None,ScrollUp,정답입니다,410.1673407999915,None,410.1673407999915,None,410.1673407999915,None,410.1673407999915,None,411.2118826000369,None,411.2118826000369,411.7286861000466,,,,,,,,,,,,,,,,027,2022-05-20_18h39.14.033,FishGame,2022.1.1,60.0214876955022,
,19,넌 불친절해,5,Green,B,2.208333333333333,2.033333333333333,ScrollUp,ScrollDown,Green.png,3,Negative,Congruent,0,0,0,0,,,,,,,,,,,,,,,,,,,,,0,18,18,18,,,,,,,,,,,,,,,,,,,,,,,,,,,,,,,,,,,,,,,,,,,,,,,,,,,,,,,,,,,,,,,,,,,,,,,,,,,,,1.8009259204069774,1.1782241000328213,412.34620110003743,None,ScrollUp,정답입니다,412.34620110003743,None,412.34620110003743,None,412.34620110003743,None,412.34620110003743,None,413.4262592000305,None,413.4262592000305,413.9263590000337,,,,,,,,,,,,,,,,027,2022-05-20_18h39.14.033,FishGame,2022.1.1,60.0214876955022,
,20,넌 지적이야,2,Green,B,5.75,4.366666666666666,ScrollUp,ScrollDown,Green.png,3,Positive,Incongruent,0,0,0,0,,,,,,,,,,,,,,,,,,,,,0,19,19,19,,,,,,,,,,,,,,,,,,,,,,,,,,,,,,,,,,,,,,,,,,,,,,,,,,,,,,,,,,,,,,,,,,,,,,,,,,,,,1.6867284004886947,0.8591900000465102,414.54720790003194,None,ScrollUp,정답입니다,414.54720790003194,None,414.54720790003194,None,414.54720790003194,None,414.54720790003194,None,415.31175110000186,None,415.31175110000186,415.8284840999986,,,,,,,,,,,,,,,,027,2022-05-20_18h39.14.033,FishGame,2022.1.1,60.0214876955022,
,21,넌 우유부단해,4,Orange,A,2.666666666666667,3.166666666666667,ScrollDown,ScrollUp,Orange.png,3,Negative,Incongruent,0,0,0,0,,,,,,,,,,,,,,,,,,,,,0,20,20,20,,,,,,,,,,,,,,,,,,,,,,,,,,,,,,,,,,,,,,,,,,,,,,,,,,,,,,,,,,,,,,,,,,,,,,,,,,,,,1.1450617164373398,0.960604100022465,416.4369474000414,None,ScrollDown,정답입니다,416.4369474000414,None,416.4369474000414,None,416.4369474000414,None,416.4369474000414,None,417.29292209999403,None,417.29292209999403,417.792882800044,,,,,,,,,,,,,,,,027,2022-05-20_18h39.14.033,FishGame,2022.1.1,60.0214876955022,
,22,나를 데려가줘,6,Green,B,0,0,ScrollDown,ScrollUp,Green.png,3,NonTarget,NonTarget,0,0,0,0,,,,,,,,,,,,,,,,,,,,,0,21,21,21,,,,,,,,,,,,,,,,,,,,,,,,,,,,,,,,,,,,,,,,,,,,,,,,,,,,,,,,,,,,,,,,,,,,,,,,,,,,,1.0061728358268738,1.6612029999960214,418.4139526000363,None,ScrollDown,정답입니다,418.4139526000363,None,418.4139526000363,None,418.4139526000363,None,418.4139526000363,None,419.97619810001925,None,419.97619810001925,420.47623400000157,,,,,,,,,,,,,,,,027,2022-05-20_18h39.14.033,FishGame,2022.1.1,60.0214876955022,
,23,넌 성실해,1,Green,B,6.041666666666666,5.7,ScrollUp,ScrollDown,Green.png,3,Positive,Incongruent,0,0,0,0,,,,,,,,,,,,,,,,,,,,,0,22,22,22,,,,,,,,,,,,,,,,,,,,,,,,,,,,,,,,,,,,,,,,,,,,,,,,,,,,,,,,,,,,,,,,,,,,,,,,,,,,,1.7793209999799728,1.0784382999991067,421.0917940000072,None,ScrollUp,정답입니다,421.0917940000072,None,421.0917940000072,None,421.0917940000072,None,421.0917940000072,None,422.07834300003015,None,422.07834300003015,422.5783661000314,,,,,,,,,,,,,,,,027,2022-05-20_18h39.14.033,FishGame,2022.1.1,60.0214876955022,
,24,넌 현실주의적이야,3,Orange,A,4.625,4.4,ScrollDown,ScrollUp,Orange.png,3,Neutral,Neutral,0,0,0,0,,,,,,,,,,,,,,,,,,,,,0,23,23,23,,,,,,,,,,,,,,,,,,,,,,,,,,,,,,,,,,,,,,,,,,,,,,,,,,,,,,,,,,,,,,,,,,,,,,,,,,,,,1.1373456716537476,1.1424854000215419,423.2033636000124,None,ScrollDown,정답입니다,423.2033636000124,None,423.2033636000124,None,423.2033636000124,None,423.2033636000124,None,424.24270410003373,None,424.24270410003373,424.74281500000507,,,,,,,,,,,,,,,,027,2022-05-20_18h39.14.033,FishGame,2022.1.1,60.0214876955022,
,25,넌 진실돼,1,Orange,A,6.625,5.566666666666666,ScrollDown,ScrollUp,Orange.png,3,Positive,Congruent,0,0,0,0,,,,,,,,,,,,,,,,,,,,,0,24,24,24,,,,,,,,,,,,,,,,,,,,,,,,,,,,,,,,,,,,,,,,,,,,,,,,,,,,,,,,,,,,,,,,,,,,,,,,,,,,,1.2114197413126628,0.9469712999998592,425.36759490001714,None,ScrollDown,정답입니다,425.36759490001714,None,425.36759490001714,None,425.36759490001714,None,425.36759490001714,None,426.2093839000445,None,426.2093839000445,426.71166540001286,,,,,,,,,,,,,,,,027,2022-05-20_18h39.14.033,FishGame,2022.1.1,60.0214876955022,
,26,넌 천진난만해,3,Green,B,4.958333333333334,4.833333333333333,ScrollUp,ScrollDown,Green.png,3,Neutral,Neutral,0,0,0,0,,,,,,,,,,,,,,,,,,,,,0,25,25,25,,,,,,,,,,,,,,,,,,,,,,,,,,,,,,,,,,,,,,,,,,,,,,,,,,,,,,,,,,,,,,,,,,,,,,,,,,,,,1.6450617238879204,1.0285960999899544,427.3382283000392,None,ScrollUp,정답입니다,427.3382283000392,None,427.3382283000392,None,427.3382283000392,None,427.3382283000392,None,428.25937040004646,None,428.25937040004646,428.7615144000156,,,,,,,,,,,,,,,,027,2022-05-20_18h39.14.033,FishGame,2022.1.1,60.0214876955022,
,27,넌 교양없어,5,Orange,A,2.416666666666667,2.2,ScrollDown,ScrollUp,Orange.png,3,Negative,Incongruent,0,0,0,0,,,,,,,,,,,,,,,,,,,,,0,26,26,26,,,,,,,,,,,,,,,,,,,,,,,,,,,,,,,,,,,,,,,,,,,,,,,,,,,,,,,,,,,,,,,,,,,,,,,,,,,,,1.1033950646718342,1.0590464000124484,429.3859560000128,None,ScrollDown,정답입니다,429.3859560000128,None,429.3859560000128,None,429.3859560000128,None,429.3859560000128,None,430.3425782000413,None,430.3425782000413,430.8448139000102,,,,,,,,,,,,,,,,027,2022-05-20_18h39.14.033,FishGame,2022.1.1,60.0214876955022,
,28,나를 보내줘,6,Orange,A,0,0,ScrollUp,ScrollDown,Orange.png,3,NonTarget,NonTarget,0,0,0,0,,,,,,,,,,,,,,,,,,,,,0,27,27,27,,,,,,,,,,,,,,,,,,,,,,,,,,,,,,,,,,,,,,,,,,,,,,,,,,,,,,,,,,,,,,,,,,,,,,,,,,,,,1.805555562178294,1.5091085999738425,431.4665350000141,None,ScrollUp,정답입니다,431.4665350000141,None,431.4665350000141,None,431.4665350000141,None,431.4665350000141,None,432.878126399999,None,432.878126399999,433.37818450003397,,,,,,,,,,,,,,,,027,2022-05-20_18h39.14.033,FishGame,2022.1.1,60.0214876955022,
,29,넌 엉뚱스러워,3,Orange,A,4.166666666666667,4.133333333333334,ScrollDown,ScrollUp,Orange.png,3,Neutral,Neutral,0,0,0,0,,,,,,,,,,,,,,,,,,,,,0,28,28,28,,,,,,,,,,,,,,,,,,,,,,,,,,,,,,,,,,,,,,,,,,,,,,,,,,,,,,,,,,,,,,,,,,,,,,,,,,,,,1.2268518557151158,1.1425989999552257,434.01800209999783,None,ScrollDown,정답입니다,434.01800209999783,None,434.01800209999783,None,434.01800209999783,None,434.01800209999783,None,435.0422555000405,None,435.0422555000405,435.5423913000268,,,,,,,,,,,,,,,,027,2022-05-20_18h39.14.033,FishGame,2022.1.1,60.0214876955022,
,30,넌 무지해,4,Green,B,2.541666666666667,3.066666666666667,ScrollUp,ScrollDown,Green.png,3,Negative,Congruent,0,0,0,0,,,,,,,,,,,,,,,,,,,,,0,29,29,29,,,,,,,,,,,,,,,,,,,,,,,,,,,,,,,,,,,,,,,,,,,,,,,,,,,,,,,,,,,,,,,,,,,,,,,,,,,,,1.5925925932824612,0.8970836999942549,436.161392500042,None,ScrollUp,정답입니다,436.161392500042,None,436.161392500042,None,436.161392500042,None,436.161392500042,None,436.96143960003974,None,436.96143960003974,437.46148739999626,,,,,,,,,,,,,,,,027,2022-05-20_18h39.14.033,FishGame,2022.1.1,60.0214876955022,
,31,넌 음울해,5,Green,B,2.25,2.233333333333333,ScrollUp,ScrollDown,Green.png,3,Negative,Congruent,0,0,0,0,,,,,,,,,,,,,,,,,,,,,0,30,30,30,,,,,,,,,,,,,,,,,,,,,,,,,,,,,,,,,,,,,,,,,,,,,,,,,,,,,,,,,,,,,,,,,,,,,,,,,,,,,1.549382715175549,0.7938984999782406,438.08231389999855,None,NoResponse,무응답입니다,438.08231389999855,None,438.08231389999855,None,438.08231389999855,None,438.08231389999855,None,438.7784043000429,None,438.7784043000429,439.2781026000157,,,,,,,,,,,,,,,,027,2022-05-20_18h39.14.033,FishGame,2022.1.1,60.0214876955022,
,32,넌 냉소적이야,5,Orange,A,2.916666666666667,2.4,ScrollDown,ScrollUp,Orange.png,3,Negative,Incongruent,0,0,0,0,,,,,,,,,,,,,,,,,,,,,0,31,31,31,,,,,,,,,,,,,,,,,,,,,,,,,,,,,,,,,,,,,,,,,,,,,,,,,,,,,,,,,,,,,,,,,,,,,,,,,,,,,1.2314814726511638,0.9615756999701262,439.91532550001284,None,ScrollDown,정답입니다,439.91532550001284,None,439.91532550001284,None,439.91532550001284,None,439.91532550001284,None,440.7757833999931,None,440.7757833999931,441.2783934000181,,,,,,,,,,,,,,,,027,2022-05-20_18h39.14.033,FishGame,2022.1.1,60.0214876955022,
,33,나를 데려가줘,6,Green,B,0,0,ScrollDown,ScrollUp,Green.png,3,NonTarget,NonTarget,0,0,0,0,,,,,,,,,,,,,,,,,,,,,0,32,32,32,,,,,,,,,,,,,,,,,,,,,,,,,,,,,,,,,,,,,,,,,,,,,,,,,,,,,,,,,,,,,,,,,,,,,,,,,,,,,1.266975318392118,1.5615891000488773,441.89631510002073,None,ScrollDown,정답입니다,441.89631510002073,None,441.89631510002073,None,441.89631510002073,None,441.89631510002073,None,443.35900490003405,None,443.35900490003405,443.8590808000299,,,,,,,,,,,,,,,,027,2022-05-20_18h39.14.033,FishGame,2022.1.1,60.0214876955022,
,34,넌 쾌활해,1,Orange,A,5.541666666666666,5.733333333333333,ScrollDown,ScrollUp,Orange.png,3,Positive,Congruent,0,0,0,0,,,,,,,,,,,,,,,,,,,,,0,33,33,33,,,,,,,,,,,,,,,,,,,,,,,,,,,,,,,,,,,,,,,,,,,,,,,,,,,,,,,,,,,,,,,,,,,,,,,,,,,,,1.6512345671653748,1.1108154999674298,444.48094800004037,None,ScrollUp,오답입니다,444.48094800004037,None,444.48094800004037,None,444.48094800004037,None,444.48094800004037,None,445.49235040001804,None,445.49235040001804,445.99460440000985,,,,,,,,,,,,,,,,027,2022-05-20_18h39.14.033,FishGame,2022.1.1,60.0214876955022,
,35,나를 보내줘,6,Orange,A,0,0,ScrollUp,ScrollDown,Orange.png,3,NonTarget,NonTarget,0,0,0,0,,,,,,,,,,,,,,,,,,,,,0,34,34,34,,,,,,,,,,,,,,,,,,,,,,,,,,,,,,,,,,,,,,,,,,,,,,,,,,,,,,,,,,,,,,,,,,,,,,,,,,,,,1.6435185223817825,1.377121499972418,446.6201682999963,None,ScrollUp,정답입니다,446.6201682999963,None,446.6201682999963,None,446.6201682999963,None,446.6201682999963,None,447.89224110002397,None,447.89224110002397,448.392289600044,,,,,,,,,,,,,,,,027,2022-05-20_18h39.14.033,FishGame,2022.1.1,60.0214876955022,
,36,넌 명랑해,1,Green,B,5.739130434782609,5.666666666666667,ScrollUp,ScrollDown,Green.png,3,Positive,Incongruent,0,0,0,0,,,,,,,,,,,,,,,,,,,,,0,35,35,35,,,,,,,,,,,,,,,,,,,,,,,,,,,,,,,,,,,,,,,,,,,,,,,,,,,,,,,,,,,,,,,,,,,,,,,,,,,,,1.6033950597047806,1.7613225000095554,449.0154979000217,None,ScrollUp,정답입니다,449.0154979000217,None,449.0154979000217,None,449.0154979000217,None,449.0154979000217,None,450.6755808000453,None,450.6755808000453,451.1778867000248,,,,,,,,,,,,,,,,027,2022-05-20_18h39.14.033,FishGame,2022.1.1,60.0214876955022,
,37,넌 멍해,4,Orange,A,2.833333333333333,3.4,ScrollDown,ScrollUp,Orange.png,3,Negative,Incongruent,0,0,0,0,,,,,,,,,,,,,,,,,,,,,0,36,36,36,,,,,,,,,,,,,,,,,,,,,,,,,,,,,,,,,,,,,,,,,,,,,,,,,,,,,,,,,,,,,,,,,,,,,,,,,,,,,1.0493827263514202,1.0422970000072382,451.8278805000009,None,ScrollDown,정답입니다,451.8278805000009,None,451.8278805000009,None,451.8278805000009,None,451.8278805000009,None,452.74189920001663,None,452.74189920001663,453.24201220000396,,,,,,,,,,,,,,,,027,2022-05-20_18h39.14.033,FishGame,2022.1.1,60.0214876955022,
,38,나를 데려가줘,6,Green,B,0,0,ScrollDown,ScrollUp,Green.png,3,NonTarget,NonTarget,0,0,0,0,,,,,,,,,,,,,,,,,,,,,0,37,37,37,,,,,,,,,,,,,,,,,,,,,,,,,,,,,,,,,,,,,,,,,,,,,,,,,,,,,,,,,,,,,,,,,,,,,,,,,,,,,1.1651234477758408,1.2616955999983475,453.86143750004703,None,ScrollDown,정답입니다,453.86143750004703,None,453.86143750004703,None,453.86143750004703,None,453.86143750004703,None,455.02782720001414,None,455.02782720001414,455.5258251000196,,,,,,,,,,,,,,,,027,2022-05-20_18h39.14.033,FishGame,2022.1.1,60.0214876955022,
,39,넌 현명해,2,Orange,A,6.541666666666666,4.533333333333333,ScrollDown,ScrollUp,Orange.png,3,Positive,Congruent,0,0,0,0,,,,,,,,,,,,,,,,,,,,,0,38,38,38,,,,,,,,,,,,,,,,,,,,,,,,,,,,,,,,,,,,,,,,,,,,,,,,,,,,,,,,,,,,,,,,,,,,,,,,,,,,,1.2700617214043937,0.9444094999926165,456.1432364000357,None,ScrollDown,정답입니다,456.1432364000357,None,456.1432364000357,None,456.1432364000357,None,456.1432364000357,None,456.9876376000466,None,456.9876376000466,457.4943420999916,,,,,,,,,,,,,,,,027,2022-05-20_18h39.14.033,FishGame,2022.1.1,60.0214876955022,
,40,넌 수줍어,3,Green,B,3.541666666666666,4.366666666666666,ScrollUp,ScrollDown,Green.png,3,Neutral,Neutral,0,0,0,0,,,,,,,,,,,,,,,,,,,,,0,39,39,39,,,,,,,,,,,,,,,,,,,,,,,,,,,,,,,,,,,,,,,,,,,,,,,,,,,,,,,,,,,,,,,,,,,,,,,,,,,,,1.5679012325902781,1.1616933000041172,458.11244210001314,None,ScrollUp,정답입니다,458.11244210001314,None,458.11244210001314,None,458.11244210001314,None,458.11244210001314,None,459.1754390000133,None,459.1754390000133,459.6753018000163,,,,,,,,,,,,,,,,027,2022-05-20_18h39.14.033,FishGame,2022.1.1,60.0214876955022,
,41,나를 데려가줘,6,Green,B,0,0,ScrollDown,ScrollUp,Green.png,3,NonTarget,NonTarget,0,0,0,0,,,,,,,,,,,,,,,,,,,,,0,40,40,40,,,,,,,,,,,,,,,,,,,,,,,,,,,,,,,,,,,,,,,,,,,,,,,,,,,,,,,,,,,,,,,,,,,,,,,,,,,,,1,1.2591681000194512,460.29691010003444,None,ScrollDown,정답입니다,460.29691010003444,None,460.29691010003444,None,460.29691010003444,None,460.29691010003444,None,461.45841449999716,None,461.45841449999716,461.9585073000053,,,,,,,,,,,,,,,,027,2022-05-20_18h39.14.033,FishGame,2022.1.1,60.0214876955022,
,42,넌 성숙해,2,Green,B,5.833333333333333,4.533333333333333,ScrollUp,ScrollDown,Green.png,3,Positive,Incongruent,0,0,0,0,,,,,,,,,,,,,,,,,,,,,0,41,41,41,,,,,,,,,,,,,,,,,,,,,,,,,,,,,,,,,,,,,,,,,,,,,,,,,,,,,,,,,,,,,,,,,,,,,,,,,,,,,1.4907407405165334,2.3780920000281185,462.5749194000382,None,NoResponse,무응답입니다,462.5749194000382,None,462.5749194000382,None,462.5749194000382,None,462.5749194000382,None,464.8587225000374,None,464.8587225000374,465.3609599000192,,,,,,,,,,,,,,,,027,2022-05-20_18h39.14.033,FishGame,2022.1.1,60.0214876955022,
,1,넌 매력적이야,2,Green,B,6.125,4.666666666666667,ScrollUp,ScrollDown,Green.png,4,Positive,Incongruent,0,0,0,0,,,,,,,,,,,,,,,,,,,,,,,,,0,0,0,0,,,,,,,,,,,,,,,,,,,,,,,,,,,,,,,,500.96001919999253,502.4602806000039,502.49359250004636,503.46026290004374,503.4912015000009,504.44131950003793,504.44131950003793,None,,,,,,,,,,,,,,,,,,,,,,,,,,,,,,,,,,1.5478395074605942,1.2746280999854207,505.5491715000244,None,NoResponse,무응답입니다,505.5491715000244,None,505.5491715000244,None,505.5491715000244,None,505.5491715000244,None,506.73013770004036,None,506.73013770004036,507.2411669000285,465.8610167000443,None,465.8610167000443,None,0.2574074,-0.09537037,1,0,0,0.015939410019200295,None,495.8602480000118,None,,,027,2022-05-20_18h39.14.033,FishGame,2022.1.1,60.0214876955022,
,2,나를 보내줘,6,Orange,A,0,0,ScrollUp,ScrollDown,Orange.png,4,NonTarget,NonTarget,0,0,0,0,,,,,,,,,,,,,,,,,,,,,,,,,0,1,1,1,,,,,,,,,,,,,,,,,,,,,,,,,,,,,,,,,,,,,,,,,,,,,,,,,,,,,,,,,,,,,,,,,,,,,,,,,1.4938271606030564,1.1113396000000648,507.86237710004207,None,NoResponse,무응답입니다,507.86237710004207,None,507.86237710004207,None,507.86237710004207,None,507.86237710004207,None,508.87436260003597,None,508.87436260003597,509.37445780000417,,,,,,,,,,,,,,,,027,2022-05-20_18h39.14.033,FishGame,2022.1.1,60.0214876955022,
,3,넌 조심스러워,3,Orange,A,4.791666666666666,4.666666666666667,ScrollDown,ScrollUp,Orange.png,4,Neutral,Neutral,0,0,0,0,,,,,,,,,,,,,,,,,,,,,,,,,0,2,2,2,,,,,,,,,,,,,,,,,,,,,,,,,,,,,,,,,,,,,,,,,,,,,,,,,,,,,,,,,,,,,,,,,,,,,,,,,1.234567900498708,1.3260547999525443,509.99661160004325,None,ScrollDown,정답입니다,509.99661160004325,None,509.99661160004325,None,509.99661160004325,None,509.99661160004325,None,511.2265241999994,None,511.2265241999994,511.72662580001634,,,,,,,,,,,,,,,,027,2022-05-20_18h39.14.033,FishGame,2022.1.1,60.0214876955022,
,4,넌 철학적이야,3,Green,B,4.5,4.266666666666667,ScrollUp,ScrollDown,Green.png,4,Neutral,Neutral,0,0,0,0,,,,,,,,,,,,,,,,,,,,,,,,,0,3,3,3,,,,,,,,,,,,,,,,,,,,,,,,,,,,,,,,,,,,,,,,,,,,,,,,,,,,,,,,,,,,,,,,,,,,,,,,,1.5910493855675063,0.9756136999931186,512.3490307000466,None,ScrollUp,정답입니다,512.3490307000466,None,512.3490307000466,None,512.3490307000466,None,512.3490307000466,None,513.2240199000225,None,513.2240199000225,513.7240700999973,,,,,,,,,,,,,,,,027,2022-05-20_18h39.14.033,FishGame,2022.1.1,60.0214876955022,
,5,넌 쩨쩨해,5,Orange,A,2.375,2.133333333333333,ScrollDown,ScrollUp,Orange.png,4,Negative,Incongruent,0,0,0,0,,,,,,,,,,,,,,,,,,,,,,,,,0,4,4,4,,,,,,,,,,,,,,,,,,,,,,,,,,,,,,,,,,,,,,,,,,,,,,,,,,,,,,,,,,,,,,,,,,,,,,,,,1.3533950621883073,0.9619082999997772,514.344668100006,None,ScrollDown,정답입니다,514.344668100006,None,514.344668100006,None,514.344668100006,None,514.344668100006,None,515.2099586999975,None,515.2099586999975,515.7099351999932,,,,,,,,,,,,,,,,027,2022-05-20_18h39.14.033,FishGame,2022.1.1,60.0214876955022,
,6,나를 데려가줘,6,Green,B,0,0,ScrollDown,ScrollUp,Green.png,4,NonTarget,NonTarget,0,0,0,0,,,,,,,,,,,,,,,,,,,,,,,,,0,5,5,5,,,,,,,,,,,,,,,,,,,,,,,,,,,,,,,,,,,,,,,,,,,,,,,,,,,,,,,,,,,,,,,,,,,,,,,,,1.2592592487732568,1.8791951999883167,516.3229203000083,None,ScrollDown,정답입니다,516.3229203000083,None,516.3229203000083,None,516.3229203000083,None,516.3229203000083,None,518.1075300000375,None,518.1075300000375,518.6099068000331,,,,,,,,,,,,,,,,027,2022-05-20_18h39.14.033,FishGame,2022.1.1,60.0214876955022,
,7,넌 고집불통이야,5,Green,B,2.875,2,ScrollUp,ScrollDown,Green.png,4,Negative,Congruent,0,0,0,0,,,,,,,,,,,,,,,,,,,,,,,,,0,6,6,6,,,,,,,,,,,,,,,,,,,,,,,,,,,,,,,,,,,,,,,,,,,,,,,,,,,,,,,,,,,,,,,,,,,,,,,,,1.7052469179034233,0.8589606000459753,519.2344979000045,None,ScrollUp,정답입니다,519.2344979000045,None,519.2344979000045,None,519.2344979000045,None,519.2344979000045,None,519.9930643000407,None,519.9930643000407,520.4930879000458,,,,,,,,,,,,,,,,027,2022-05-20_18h39.14.033,FishGame,2022.1.1,60.0214876955022,
,8,넌 무심해,4,Orange,A,2.875,3.2,ScrollDown,ScrollUp,Orange.png,4,Negative,Incongruent,0,0,0,0,,,,,,,,,,,,,,,,,,,,,,,,,0,7,7,7,,,,,,,,,,,,,,,,,,,,,,,,,,,,,,,,,,,,,,,,,,,,,,,,,,,,,,,,,,,,,,,,,,,,,,,,,1.0910493781169255,1.0944810999790207,521.1331879000063,None,ScrollDown,정답입니다,521.1331879000063,None,521.1331879000063,None,521.1331879000063,None,521.1331879000063,None,522.1239179000258,None,522.1239179000258,522.6240751000005,,,,,,,,,,,,,,,,027,2022-05-20_18h39.14.033,FishGame,2022.1.1,60.0214876955022,
,9,넌 정겨워,1,Orange,A,5.791666666666667,5.666666666666667,ScrollDown,ScrollUp,Orange.png,4,Positive,Congruent,0,0,0,0,,,,,,,,,,,,,,,,,,,,,,,,,0,8,8,8,,,,,,,,,,,,,,,,,,,,,,,,,,,,,,,,,,,,,,,,,,,,,,,,,,,,,,,,,,,,,,,,,,,,,,,,,1.2453703731298447,0.8113778000115417,523.2461177000077,None,ScrollDown,정답입니다,523.2461177000077,None,523.2461177000077,None,523.2461177000077,None,523.2461177000077,None,523.9572046000394,None,523.9572046000394,524.459763300023,,,,,,,,,,,,,,,,027,2022-05-20_18h39.14.033,FishGame,2022.1.1,60.0214876955022,
,10,나를 데려가줘,6,Green,B,0,0,ScrollDown,ScrollUp,Green.png,4,NonTarget,NonTarget,0,0,0,0,,,,,,,,,,,,,,,,,,,,,,,,,0,9,9,9,,,,,,,,,,,,,,,,,,,,,,,,,,,,,,,,,,,,,,,,,,,,,,,,,,,,,,,,,,,,,,,,,,,,,,,,,1.1111111094554265,1.127740600029938,525.0927120000124,None,ScrollDown,정답입니다,525.0927120000124,None,525.0927120000124,None,525.0927120000124,None,525.0927120000124,None,526.1096567999921,None,526.1096567999921,526.6128105000244,,,,,,,,,,,,,,,,027,2022-05-20_18h39.14.033,FishGame,2022.1.1,60.0214876955022,
,11,넌 체제순응적이야,4,Green,B,3,3.6,ScrollUp,ScrollDown,Green.png,4,Negative,Congruent,0,0,0,0,,,,,,,,,,,,,,,,,,,,,,,,,0,10,10,10,,,,,,,,,,,,,,,,,,,,,,,,,,,,,,,,,,,,,,,,,,,,,,,,,,,,,,,,,,,,,,,,,,,,,,,,,1.7638888855775197,1.0758210999774747,527.2345585000003,None,ScrollUp,정답입니다,527.2345585000003,None,527.2345585000003,None,527.2345585000003,None,527.2345585000003,None,528.2073488000315,None,528.2073488000315,528.707380100037,,,,,,,,,,,,,,,,027,2022-05-20_18h39.14.033,FishGame,2022.1.1,60.0214876955022,
,12,나를 보내줘,6,Orange,A,0,0,ScrollUp,ScrollDown,Orange.png,4,NonTarget,NonTarget,0,0,0,0,,,,,,,,,,,,,,,,,,,,,,,,,0,11,11,11,,,,,,,,,,,,,,,,,,,,,,,,,,,,,,,,,,,,,,,,,,,,,,,,,,,,,,,,,,,,,,,,,,,,,,,,,1.807098776102066,1.8948128999909386,529.3274467000156,None,ScrollUp,정답입니다,529.3274467000156,None,529.3274467000156,None,529.3274467000156,None,529.3274467000156,None,531.1297894000309,None,531.1297894000309,531.642787299992,,,,,,,,,,,,,,,,027,2022-05-20_18h39.14.033,FishGame,2022.1.1,60.0214876955022,
,13,넌 박식해,2,Orange,A,5.625,3.933333333333333,ScrollDown,ScrollUp,Orange.png,4,Positive,Congruent,0,0,0,0,,,,,,,,,,,,,,,,,,,,,,,,,0,12,12,12,,,,,,,,,,,,,,,,,,,,,,,,,,,,,,,,,,,,,,,,,,,,,,,,,,,,,,,,,,,,,,,,,,,,,,,,,1.1898148208856583,1.094868200016208,532.2623022000189,None,ScrollDown,정답입니다,532.2623022000189,None,532.2623022000189,None,532.2623022000189,None,532.2623022000189,None,533.2572090000031,None,533.2572090000031,533.7572871000157,,,,,,,,,,,,,,,,027,2022-05-20_18h39.14.033,FishGame,2022.1.1,60.0214876955022,
,14,나를 보내줘,6,Orange,A,0,0,ScrollUp,ScrollDown,Orange.png,4,NonTarget,NonTarget,0,0,0,0,,,,,,,,,,,,,,,,,,,,,,,,,0,13,13,13,,,,,,,,,,,,,,,,,,,,,,,,,,,,,,,,,,,,,,,,,,,,,,,,,,,,,,,,,,,,,,,,,,,,,,,,,1.7947530895471573,1.3261315999552608,534.3812753999955,None,ScrollUp,정답입니다,534.3812753999955,None,534.3812753999955,None,534.3812753999955,None,534.3812753999955,None,535.6072174000437,None,535.6072174000437,536.1074847000418,,,,,,,,,,,,,,,,027,2022-05-20_18h39.14.033,FishGame,2022.1.1,60.0214876955022,
,15,넌 침착해,1,Green,B,5.458333333333333,5.566666666666666,ScrollUp,ScrollDown,Green.png,4,Positive,Incongruent,0,0,0,0,,,,,,,,,,,,,,,,,,,,,,,,,0,14,14,14,,,,,,,,,,,,,,,,,,,,,,,,,,,,,,,,,,,,,,,,,,,,,,,,,,,,,,,,,,,,,,,,,,,,,,,,,1.6435185223817825,1.0274089999729767,536.7376394000021,None,ScrollUp,정답입니다,536.7376394000021,None,536.7376394000021,None,536.7376394000021,None,536.7376394000021,None,537.6569585000398,None,537.6569585000398,538.1569477000157,,,,,,,,,,,,,,,,027,2022-05-20_18h39.14.033,FishGame,2022.1.1,60.0214876955022,
,16,나를 데려가줘,6,Green,B,0,0,ScrollDown,ScrollUp,Green.png,4,NonTarget,NonTarget,0,0,0,0,,,,,,,,,,,,,,,,,,,,,,,,,0,15,15,15,,,,,,,,,,,,,,,,,,,,,,,,,,,,,,,,,,,,,,,,,,,,,,,,,,,,,,,,,,,,,,,,,,,,,,,,,1.0617283880710602,1.0461424000095576,538.7793700000038,None,ScrollDown,정답입니다,538.7793700000038,None,538.7793700000038,None,538.7793700000038,None,538.7793700000038,None,539.7261097000446,None,539.7261097000446,540.2264906000346,,,,,,,,,,,,,,,,027,2022-05-20_18h39.14.033,FishGame,2022.1.1,60.0214876955022,
,17,넌 행복해,1,Orange,A,6.416666666666666,6.166666666666667,ScrollDown,ScrollUp,Orange.png,4,Positive,Congruent,0,0,0,0,,,,,,,,,,,,,,,,,,,,,,,,,0,16,16,16,,,,,,,,,,,,,,,,,,,,,,,,,,,,,,,,,,,,,,,,,,,,,,,,,,,,,,,,,,,,,,,,,,,,,,,,,1.1373456716537476,1.1424504999886267,540.8520445000031,None,ScrollDown,정답입니다,540.8520445000031,None,540.8520445000031,None,540.8520445000031,None,540.8520445000031,None,541.8927081000293,None,541.8927081000293,542.3927706000395,,,,,,,,,,,,,,,,027,2022-05-20_18h39.14.033,FishGame,2022.1.1,60.0214876955022,
,18,넌 겸손해,2,Green,B,5.791666666666667,4.766666666666667,ScrollUp,ScrollDown,Green.png,4,Positive,Incongruent,0,0,0,0,,,,,,,,,,,,,,,,,,,,,,,,,0,17,17,17,,,,,,,,,,,,,,,,,,,,,,,,,,,,,,,,,,,,,,,,,,,,,,,,,,,,,,,,,,,,,,,,,,,,,,,,,1.5416666672875485,1.0610294999787584,543.0169949000119,None,NoResponse,무응답입니다,543.0169949000119,None,543.0169949000119,None,543.0169949000119,None,543.0169949000119,None,543.9734288000036,None,543.9734288000036,544.4734666000004,,,,,,,,,,,,,,,,027,2022-05-20_18h39.14.033,FishGame,2022.1.1,60.0214876955022,
,19,나를 보내줘,6,Orange,A,0,0,ScrollUp,ScrollDown,Orange.png,4,NonTarget,NonTarget,0,0,0,0,,,,,,,,,,,,,,,,,,,,,,,,,0,18,18,18,,,,,,,,,,,,,,,,,,,,,,,,,,,,,,,,,,,,,,,,,,,,,,,,,,,,,,,,,,,,,,,,,,,,,,,,,1.7577160547176998,1.0950240999809466,545.0943237000029,None,ScrollUp,정답입니다,545.0943237000029,None,545.0943237000029,None,545.0943237000029,None,545.0943237000029,None,546.092783900036,None,546.092783900036,546.5926351000089,,,,,,,,,,,,,,,,027,2022-05-20_18h39.14.033,FishGame,2022.1.1,60.0214876955022,
,20,넌 의심없어,3,Orange,A,4.166666666666667,4.6,ScrollDown,ScrollUp,Orange.png,4,Neutral,Neutral,0,0,0,0,,,,,,,,,,,,,,,,,,,,,,,,,0,19,19,19,,,,,,,,,,,,,,,,,,,,,,,,,,,,,,,,,,,,,,,,,,,,,,,,,,,,,,,,,,,,,,,,,,,,,,,,,1.120370368162791,1.159989100007806,547.2141059000278,None,ScrollDown,정답입니다,547.2141059000278,None,547.2141059000278,None,547.2141059000278,None,547.2141059000278,None,548.2733220999944,None,548.2733220999944,548.773429599998,,,,,,,,,,,,,,,,027,2022-05-20_18h39.14.033,FishGame,2022.1.1,60.0214876955022,
,21,넌 시시해,4,Orange,A,2.666666666666667,2.966666666666667,ScrollDown,ScrollUp,Orange.png,4,Negative,Incongruent,0,0,0,0,,,,,,,,,,,,,,,,,,,,,,,,,0,20,20,20,,,,,,,,,,,,,,,,,,,,,,,,,,,,,,,,,,,,,,,,,,,,,,,,,,,,,,,,,,,,,,,,,,,,,,,,,1.0817901194095612,1.1951489000348374,549.394026199996,None,ScrollDown,정답입니다,549.394026199996,None,549.394026199996,None,549.394026199996,None,549.394026199996,None,550.492585,None,550.492585,550.9907413000474,,,,,,,,,,,,,,,,027,2022-05-20_18h39.14.033,FishGame,2022.1.1,60.0214876955022,
,22,나를 데려가줘,6,Green,B,0,0,ScrollDown,ScrollUp,Green.png,4,NonTarget,NonTarget,0,0,0,0,,,,,,,,,,,,,,,,,,,,,,,,,0,21,21,21,,,,,,,,,,,,,,,,,,,,,,,,,,,,,,,,,,,,,,,,,,,,,,,,,,,,,,,,,,,,,,,,,,,,,,,,,1.0586419602235158,1.1612300999695435,551.619064700033,None,ScrollDown,정답입니다,551.619064700033,None,551.619064700033,None,551.619064700033,None,551.619064700033,None,552.6758392000338,None,552.6758392000338,553.179320700001,,,,,,,,,,,,,,,,027,2022-05-20_18h39.14.033,FishGame,2022.1.1,60.0214876955022,
,23,넌 무정해,5,Orange,A,2.5,2.2,ScrollDown,ScrollUp,Orange.png,4,Negative,Incongruent,0,0,0,0,,,,,,,,,,,,,,,,,,,,,,,,,0,22,22,22,,,,,,,,,,,,,,,,,,,,,,,,,,,,,,,,,,,,,,,,,,,,,,,,,,,,,,,,,,,,,,,,,,,,,,,,,1.0617283880710602,1.010077899962198,553.7954579000361,None,ScrollDown,정답입니다,553.7954579000361,None,553.7954579000361,None,553.7954579000361,None,553.7954579000361,None,554.7068124000216,None,554.7068124000216,555.2090747000184,,,,,,,,,,,,,,,,027,2022-05-20_18h39.14.033,FishGame,2022.1.1,60.0214876955022,
,24,넌 긍정적이야,1,Green,B,6.041666666666667,6.066666666666666,ScrollUp,ScrollDown,Green.png,4,Positive,Incongruent,0,0,0,0,,,,,,,,,,,,,,,,,,,,,,,,,0,23,23,23,,,,,,,,,,,,,,,,,,,,,,,,,,,,,,,,,,,,,,,,,,,,,,,,,,,,,,,,,,,,,,,,,,,,,,,,,1.674382713933786,1.0106758000329137,555.8328992000315,None,ScrollUp,정답입니다,555.8328992000315,None,555.8328992000315,None,555.8328992000315,None,555.8328992000315,None,556.7401449000463,None,556.7401449000463,557.2401373000466,,,,,,,,,,,,,,,,027,2022-05-20_18h39.14.033,FishGame,2022.1.1,60.0214876955022,
,25,나를 보내줘,6,Orange,A,0,0,ScrollUp,ScrollDown,Orange.png,4,NonTarget,NonTarget,0,0,0,0,,,,,,,,,,,,,,,,,,,,,,,,,0,24,24,24,,,,,,,,,,,,,,,,,,,,,,,,,,,,,,,,,,,,,,,,,,,,,,,,,,,,,,,,,,,,,,,,,,,,,,,,,1.7253086368242898,1.2129012999939732,557.8601600000402,None,ScrollUp,정답입니다,557.8601600000402,None,557.8601600000402,None,557.8601600000402,None,557.8601600000402,None,558.9734107000404,None,558.9734107000404,559.4735604000161,,,,,,,,,,,,,,,,027,2022-05-20_18h39.14.033,FishGame,2022.1.1,60.0214876955022,
,26,넌 시기심이 많아,5,Green,B,2.458333333333333,2.233333333333333,ScrollUp,ScrollDown,Green.png,4,Negative,Congruent,0,0,0,0,,,,,,,,,,,,,,,,,,,,,,,,,0,25,25,25,,,,,,,,,,,,,,,,,,,,,,,,,,,,,,,,,,,,,,,,,,,,,,,,,,,,,,,,,,,,,,,,,,,,,,,,,1.6466049378116927,0.9592262000078335,560.097882400034,None,ScrollUp,정답입니다,560.097882400034,None,560.097882400034,None,560.097882400034,None,560.097882400034,None,560.9589048000053,None,560.9589048000053,561.4733326000278,,,,,,,,,,,,,,,,027,2022-05-20_18h39.14.033,FishGame,2022.1.1,60.0214876955022,
,27,넌 탁월해,2,Orange,A,5.708333333333334,4.5,ScrollDown,ScrollUp,Orange.png,4,Positive,Congruent,0,0,0,0,,,,,,,,,,,,,,,,,,,,,,,,,0,26,26,26,,,,,,,,,,,,,,,,,,,,,,,,,,,,,,,,,,,,,,,,,,,,,,,,,,,,,,,,,,,,,,,,,,,,,,,,,1.1728395173947017,0.9300653000245802,562.0950351000065,None,ScrollDown,정답입니다,562.0950351000065,None,562.0950351000065,None,562.0950351000065,None,562.0950351000065,None,562.9233196999994,None,562.9233196999994,563.4254837000044,,,,,,,,,,,,,,,,027,2022-05-20_18h39.14.033,FishGame,2022.1.1,60.0214876955022,
,28,나를 데려가줘,6,Green,B,0,0,ScrollDown,ScrollUp,Green.png,4,NonTarget,NonTarget,0,0,0,0,,,,,,,,,,,,,,,,,,,,,,,,,0,27,27,27,,,,,,,,,,,,,,,,,,,,,,,,,,,,,,,,,,,,,,,,,,,,,,,,,,,,,,,,,,,,,,,,,,,,,,,,,1.1589506169160206,1.1266447000089101,564.0417093000142,None,ScrollDown,정답입니다,564.0417093000142,None,564.0417093000142,None,564.0417093000142,None,564.0417093000142,None,565.075496800011,None,565.075496800011,565.5755043000099,,,,,,,,,,,,,,,,027,2022-05-20_18h39.14.033,FishGame,2022.1.1,60.0214876955022,
,29,넌 조용해,3,Green,B,4.333333333333333,4.166666666666667,ScrollUp,ScrollDown,Green.png,4,Neutral,Neutral,0,0,0,0,,,,,,,,,,,,,,,,,,,,,,,,,0,28,28,28,,,,,,,,,,,,,,,,,,,,,,,,,,,,,,,,,,,,,,,,,,,,,,,,,,,,,,,,,,,,,,,,,,,,,,,,,1.632716049750646,0.9591984000289813,566.2014566000435,None,ScrollUp,정답입니다,566.2014566000435,None,566.2014566000435,None,566.2014566000435,None,566.2014566000435,None,567.0565920000081,None,567.0565920000081,567.5565953000332,,,,,,,,,,,,,,,,027,2022-05-20_18h39.14.033,FishGame,2022.1.1,60.0214876955022,
,30,넌 다정해,1,Orange,A,5.833333333333334,5.7,ScrollDown,ScrollUp,Orange.png,4,Positive,Congruent,0,0,0,0,,,,,,,,,,,,,,,,,,,,,,,,,0,29,29,29,,,,,,,,,,,,,,,,,,,,,,,,,,,,,,,,,,,,,,,,,,,,,,,,,,,,,,,,,,,,,,,,,,,,,,,,,1.2283950696388881,1.0589736999827437,568.183149199991,None,ScrollDown,정답입니다,568.183149199991,None,568.183149199991,None,568.183149199991,None,568.183149199991,None,569.1398471000139,None,569.1398471000139,569.6398718000273,,,,,,,,,,,,,,,,027,2022-05-20_18h39.14.033,FishGame,2022.1.1,60.0214876955022,
,31,넌 능력있어,2,Green,B,6.166666666666666,4.6,ScrollUp,ScrollDown,Green.png,4,Positive,Incongruent,0,0,0,0,,,,,,,,,,,,,,,,,,,,,,,,,0,30,30,30,,,,,,,,,,,,,,,,,,,,,,,,,,,,,,,,,,,,,,,,,,,,,,,,,,,,,,,,,,,,,,,,,,,,,,,,,1.5138888896132507,0.7780643000151031,570.2592058000155,None,NoResponse,무응답입니다,570.2592058000155,None,570.2592058000155,None,570.2592058000155,None,570.2592058000155,None,570.9398437000345,None,570.9398437000345,571.4420294000302,,,,,,,,,,,,,,,,027,2022-05-20_18h39.14.033,FishGame,2022.1.1,60.0214876955022,
,32,넌 불쾌해,5,Orange,A,2.125,1.933333333333333,ScrollDown,ScrollUp,Orange.png,4,Negative,Incongruent,0,0,0,0,,,,,,,,,,,,,,,,,,,,,,,,,0,31,31,31,,,,,,,,,,,,,,,,,,,,,,,,,,,,,,,,,,,,,,,,,,,,,,,,,,,,,,,,,,,,,,,,,,,,,,,,,1.1774691343307495,1.3420491999713704,572.0614946000278,None,ScrollDown,정답입니다,572.0614946000278,None,572.0614946000278,None,572.0614946000278,None,572.0614946000278,None,573.3061661000247,None,573.3061661000247,573.8062459999928,,,,,,,,,,,,,,,,027,2022-05-20_18h39.14.033,FishGame,2022.1.1,60.0214876955022,
,33,나를 데려가줘,6,Green,B,0,0,ScrollDown,ScrollUp,Green.png,4,NonTarget,NonTarget,0,0,0,0,,,,,,,,,,,,,,,,,,,,,,,,,0,32,32,32,,,,,,,,,,,,,,,,,,,,,,,,,,,,,,,,,,,,,,,,,,,,,,,,,,,,,,,,,,,,,,,,,,,,,,,,,1.1280864129463832,1.3115284999948926,574.4264498000266,None,ScrollDown,정답입니다,574.4264498000266,None,574.4264498000266,None,574.4264498000266,None,574.4264498000266,None,575.6421087000053,None,575.6421087000053,576.1587438000133,,,,,,,,,,,,,,,,027,2022-05-20_18h39.14.033,FishGame,2022.1.1,60.0214876955022,
,34,넌 유순해,3,Orange,A,4.458333333333333,5,ScrollDown,ScrollUp,Orange.png,4,Neutral,Neutral,0,0,0,0,,,,,,,,,,,,,,,,,,,,,,,,,0,33,33,33,,,,,,,,,,,,,,,,,,,,,,,,,,,,,,,,,,,,,,,,,,,,,,,,,,,,,,,,,,,,,,,,,,,,,,,,,1.1651234477758408,0.944039200025145,576.7602796000428,None,ScrollDown,정답입니다,576.7602796000428,None,576.7602796000428,None,576.7602796000428,None,576.7602796000428,None,577.6085469000391,None,577.6085469000391,578.1064330000081,,,,,,,,,,,,,,,,027,2022-05-20_18h39.14.033,FishGame,2022.1.1,60.0214876955022,
,35,넌 근심스러워,4,Green,B,2.708333333333333,3.133333333333333,ScrollUp,ScrollDown,Green.png,4,Negative,Congruent,0,0,0,0,,,,,,,,,,,,,,,,,,,,,,,,,0,34,34,34,,,,,,,,,,,,,,,,,,,,,,,,,,,,,,,,,,,,,,,,,,,,,,,,,,,,,,,,,,,,,,,,,,,,,,,,,1.765432099501292,0.9926163000054657,578.7272875999915,None,ScrollUp,정답입니다,578.7272875999915,None,578.7272875999915,None,578.7272875999915,None,578.7272875999915,None,579.6251676999964,None,579.6251676999964,580.1253234000178,,,,,,,,,,,,,,,,027,2022-05-20_18h39.14.033,FishGame,2022.1.1,60.0214876955022,
,36,넌 세련되었어,2,Orange,A,5.5,4.6,ScrollDown,ScrollUp,Orange.png,4,Positive,Congruent,0,0,0,0,,,,,,,,,,,,,,,,,,,,,,,,,0,35,35,35,,,,,,,,,,,,,,,,,,,,,,,,,,,,,,,,,,,,,,,,,,,,,,,,,,,,,,,,,,,,,,,,,,,,,,,,,1.2191358109315236,1.2109152000048198,580.7559078999911,None,ScrollDown,정답입니다,580.7559078999911,None,580.7559078999911,None,580.7559078999911,None,580.7559078999911,None,581.8562403999968,None,581.8562403999968,582.3563055000268,,,,,,,,,,,,,,,,027,2022-05-20_18h39.14.033,FishGame,2022.1.1,60.0214876955022,
,37,나를 보내줘,6,Orange,A,0,0,ScrollUp,ScrollDown,Orange.png,4,NonTarget,NonTarget,0,0,0,0,,,,,,,,,,,,,,,,,,,,,,,,,0,36,36,36,,,,,,,,,,,,,,,,,,,,,,,,,,,,,,,,,,,,,,,,,,,,,,,,,,,,,,,,,,,,,,,,,,,,,,,,,1.8904321044683456,1.4780427999794483,582.9812367000268,None,ScrollUp,정답입니다,582.9812367000268,None,582.9812367000268,None,582.9812367000268,None,582.9812367000268,None,584.3562565000029,None,584.3562565000029,584.858456899994,,,,,,,,,,,,,,,,027,2022-05-20_18h39.14.033,FishGame,2022.1.1,60.0214876955022,
,38,넌 확고해,3,Green,B,4.708333333333334,4.566666666666666,ScrollUp,ScrollDown,Green.png,4,Neutral,Neutral,0,0,0,0,,,,,,,,,,,,,,,,,,,,,,,,,0,37,37,37,,,,,,,,,,,,,,,,,,,,,,,,,,,,,,,,,,,,,,,,,,,,,,,,,,,,,,,,,,,,,,,,,,,,,,,,,1.9228395223617554,1.1758240000344813,585.4819652000442,None,ScrollUp,정답입니다,585.4819652000442,None,585.4819652000442,None,585.4819652000442,None,585.4819652000442,None,586.5561825000332,None,586.5561825000332,587.0583562999964,,,,,,,,,,,,,,,,027,2022-05-20_18h39.14.033,FishGame,2022.1.1,60.0214876955022,
,39,넌 이해심이 많아,1,Green,B,6.041666666666668,5.533333333333333,ScrollUp,ScrollDown,Green.png,4,Positive,Incongruent,0,0,0,0,,,,,,,,,,,,,,,,,,,,,,,,,0,38,38,38,,,,,,,,,,,,,,,,,,,,,,,,,,,,,,,,,,,,,,,,,,,,,,,,,,,,,,,,,,,,,,,,,,,,,,,,,1.6466049378116927,0.9439281999948435,587.6761085000471,None,ScrollUp,정답입니다,587.6761085000471,None,587.6761085000471,None,587.6761085000471,None,587.6761085000471,None,588.5228044000105,None,588.5228044000105,589.0251787000452,,,,,,,,,,,,,,,,027,2022-05-20_18h39.14.033,FishGame,2022.1.1,60.0214876955022,
,40,나를 보내줘,6,Orange,A,0,0,ScrollUp,ScrollDown,Orange.png,4,NonTarget,NonTarget,0,0,0,0,,,,,,,,,,,,,,,,,,,,,,,,,0,39,39,39,,,,,,,,,,,,,,,,,,,,,,,,,,,,,,,,,,,,,,,,,,,,,,,,,,,,,,,,,,,,,,,,,,,,,,,,,1.9027777661879857,1.1938766000093892,589.6452534000273,None,ScrollUp,정답입니다,589.6452534000273,None,589.6452534000273,None,589.6452534000273,None,589.6452534000273,None,590.7391453000018,None,590.7391453000018,591.2392041000421,,,,,,,,,,,,,,,,027,2022-05-20_18h39.14.033,FishGame,2022.1.1,60.0214876955022,
,41,넌 거칠어,4,Orange,A,2.625,3.033333333333333,ScrollDown,ScrollUp,Orange.png,4,Negative,Incongruent,0,0,0,0,,,,,,,,,,,,,,,,,,,,,,,,,0,40,40,40,,,,,,,,,,,,,,,,,,,,,,,,,,,,,,,,,,,,,,,,,,,,,,,,,,,,,,,,,,,,,,,,,,,,,,,,,1.0185184975465138,1.0966245000017807,591.8631028000382,None,ScrollDown,정답입니다,591.8631028000382,None,591.8631028000382,None,591.8631028000382,None,591.8631028000382,None,592.8583544000285,None,592.8583544000285,593.358400200028,,,,,,,,,,,,,,,,027,2022-05-20_18h39.14.033,FishGame,2022.1.1,60.0214876955022,
,42,넌 변덕맞아,5,Green,B,2.75,2.166666666666667,ScrollUp,ScrollDown,Green.png,4,Negative,Congruent,0,0,0,0,,,,,,,,,,,,,,,,,,,,,,,,,0,41,41,41,,,,,,,,,,,,,,,,,,,,,,,,,,,,,,,,,,,,,,,,,,,,,,,,,,,,,,,,,,,,,,,,,,,,,,,,,1.7947530895471573,1.1272420000168495,593.9798367000185,None,ScrollUp,정답입니다,593.9798367000185,None,593.9798367000185,None,593.9798367000185,None,593.9798367000185,None,595.0083888000227,None,595.0083888000227,595.511418500042,,,,,,,,,,,,,,,,027,2022-05-20_18h39.14.033,FishGame,2022.1.1,60.0214876955022,
,43,나를 데려가줘,6,Green,B,0,0,ScrollDown,ScrollUp,Green.png,4,NonTarget,NonTarget,0,0,0,0,,,,,,,,,,,,,,,,,,,,,,,,,0,42,42,42,,,,,,,,,,,,,,,,,,,,,,,,,,,,,,,,,,,,,,,,,,,,,,,,,,,,,,,,,,,,,,,,,,,,,,,,,1.0632716019948323,0.959190999972634,596.1221515000216,None,ScrollDown,정답입니다,596.1221515000216,None,596.1221515000216,None,596.1221515000216,None,596.1221515000216,None,596.9893057000008,None,596.9893057000008,597.4894485000405,,,,,,,,,,,,,,,,027,2022-05-20_18h39.14.033,FishGame,2022.1.1,60.0214876955022,
,44,넌 외로워,4,Green,B,2.833333333333333,3.3,ScrollUp,ScrollDown,Green.png,4,Negative,Congruent,0,0,0,0,,,,,,,,,,,,,,,,,,,,,,,,,0,43,43,43,,,,,,,,,,,,,,,,,,,,,,,,,,,,,,,,,,,,,,,,,,,,,,,,,,,,,,,,,,,,,,,,,,,,,,,,,1.6697530845801034,1.0944510999834165,598.1140597000485,None,ScrollUp,정답입니다,598.1140597000485,None,598.1140597000485,None,598.1140597000485,None,598.1140597000485,None,599.1059085000306,None,599.1059085000306,599.6059667000081,,,,,,,,,,,,,,,,027,2022-05-20_18h39.14.033,FishGame,2022.1.1,60.0214876955022,
,1,넌 불평스러워,5,Orange,A,2.25,2.066666666666667,ScrollDown,ScrollUp,Orange.png,5,Negative,Incongruent,0,0,0,0,,,,,,,,,,,,,,,,,,,,,,,,,,,,,0,0,0,0,,,,,,,,,,,,,,,,,,,,,,,,,,,,632.5885923000169,634.0910022000317,634.1243342999951,635.072036800033,635.1222094999976,636.0718704000465,636.0718704000465,None,,,,,,,,,,,,,,,,,,,,,,,,,,,,,,,,,,1.2407407313585281,1.1238058999879286,637.1785157000413,None,ScrollDown,정답입니다,637.1785157000413,None,637.1785157000413,None,637.1785157000413,None,637.1785157000413,None,638.2051596000092,None,638.2051596000092,638.7109188000322,600.1059028000454,None,600.1059028000454,None,0.26481482,-0.06759259,1,0,0,0.01607200992293656,None,630.1077125000302,None,,,027,2022-05-20_18h39.14.033,FishGame,2022.1.1,60.0214876955022,
,2,나를 보내줘,6,Orange,A,0,0,ScrollUp,ScrollDown,Orange.png,5,NonTarget,NonTarget,0,0,0,0,,,,,,,,,,,,,,,,,,,,,,,,,,,,,0,1,1,1,,,,,,,,,,,,,,,,,,,,,,,,,,,,,,,,,,,,,,,,,,,,,,,,,,,,,,,,,,,,,,,,,,,,,1.7561728407939274,1.0590217999997549,639.3260215999908,None,ScrollUp,정답입니다,639.3260215999908,None,639.3260215999908,None,639.3260215999908,None,639.3260215999908,None,640.2883850000217,None,640.2883850000217,640.7884497999912,,,,,,,,,,,,,,,,027,2022-05-20_18h39.14.033,FishGame,2022.1.1,60.0214876955022,
,3,넌 다재다능해,2,Green,B,6.208333333333333,4.5,ScrollUp,ScrollDown,Green.png,5,Positive,Incongruent,0,0,0,0,,,,,,,,,,,,,,,,,,,,,,,,,,,,,0,2,2,2,,,,,,,,,,,,,,,,,,,,,,,,,,,,,,,,,,,,,,,,,,,,,,,,,,,,,,,,,,,,,,,,,,,,,1.7592592686414719,0.8429156999918632,641.4115894000279,None,ScrollUp,정답입니다,641.4115894000279,None,641.4115894000279,None,641.4115894000279,None,641.4115894000279,None,642.1550964000053,None,642.1550964000053,642.6573422999936,,,,,,,,,,,,,,,,027,2022-05-20_18h39.14.033,FishGame,2022.1.1,60.0214876955022,
,4,넌 과감해,3,Orange,A,4.833333333333334,4.6,ScrollDown,ScrollUp,Orange.png,5,Neutral,Neutral,0,0,0,0,,,,,,,,,,,,,,,,,,,,,,,,,,,,,0,3,3,3,,,,,,,,,,,,,,,,,,,,,,,,,,,,,,,,,,,,,,,,,,,,,,,,,,,,,,,,,,,,,,,,,,,,,1.2283950696388881,0.8942999999853782,643.2816800000146,None,ScrollDown,정답입니다,643.2816800000146,None,643.2816800000146,None,643.2816800000146,None,643.2816800000146,None,644.0717402000446,None,644.0717402000446,644.5715633000364,,,,,,,,,,,,,,,,027,2022-05-20_18h39.14.033,FishGame,2022.1.1,60.0214876955022,
,5,넌 고분고분해,3,Green,B,3.75,4.033333333333333,ScrollUp,ScrollDown,Green.png,5,Neutral,Neutral,0,0,0,0,,,,,,,,,,,,,,,,,,,,,,,,,,,,,0,4,4,4,,,,,,,,,,,,,,,,,,,,,,,,,,,,,,,,,,,,,,,,,,,,,,,,,,,,,,,,,,,,,,,,,,,,,1.6512345671653748,0.8613712000078522,645.1875328000169,None,ScrollUp,정답입니다,645.1875328000169,None,645.1875328000169,None,645.1875328000169,None,645.1875328000169,None,645.9547607999993,None,645.9547607999993,646.4573879000382,,,,,,,,,,,,,,,,027,2022-05-20_18h39.14.033,FishGame,2022.1.1,60.0214876955022,
,6,나를 보내줘,6,Orange,A,0,0,ScrollUp,ScrollDown,Orange.png,5,NonTarget,NonTarget,0,0,0,0,,,,,,,,,,,,,,,,,,,,,,,,,,,,,0,5,5,5,,,,,,,,,,,,,,,,,,,,,,,,,,,,,,,,,,,,,,,,,,,,,,,,,,,,,,,,,,,,,,,,,,,,,1.6712962985038757,1.0944317000103183,647.0791121000075,None,ScrollUp,정답입니다,647.0791121000075,None,647.0791121000075,None,647.0791121000075,None,647.0791121000075,None,648.0740025000414,None,648.0740025000414,648.5742934000446,,,,,,,,,,,,,,,,027,2022-05-20_18h39.14.033,FishGame,2022.1.1,60.0214876955022,
,7,넌 잘 잊어,4,Orange,A,3,3.7,ScrollDown,ScrollUp,Orange.png,5,Negative,Incongruent,0,0,0,0,,,,,,,,,,,,,,,,,,,,,,,,,,,,,0,6,6,6,,,,,,,,,,,,,,,,,,,,,,,,,,,,,,,,,,,,,,,,,,,,,,,,,,,,,,,,,,,,,,,,,,,,,1.214506169160207,1.0759980999864638,649.1982742000255,None,ScrollDown,정답입니다,649.1982742000255,None,649.1982742000255,None,649.1982742000255,None,649.1982742000255,None,650.1737924000481,None,650.1737924000481,650.6906405000482,,,,,,,,,,,,,,,,027,2022-05-20_18h39.14.033,FishGame,2022.1.1,60.0214876955022,
,8,넌 탐구심이없어,4,Green,B,2.833333333333333,3.066666666666667,ScrollUp,ScrollDown,Green.png,5,Negative,Congruent,0,0,0,0,,,,,,,,,,,,,,,,,,,,,,,,,,,,,0,7,7,7,,,,,,,,,,,,,,,,,,,,,,,,,,,,,,,,,,,,,,,,,,,,,,,,,,,,,,,,,,,,,,,,,,,,,1.560185187806686,0.8949967999942601,651.3110400000005,None,ScrollUp,정답입니다,651.3110400000005,None,651.3110400000005,None,651.3110400000005,None,651.3110400000005,None,652.1048253000481,None,652.1048253000481,652.6048636000487,,,,,,,,,,,,,,,,027,2022-05-20_18h39.14.033,FishGame,2022.1.1,60.0214876955022,
,9,나를 데려가줘,6,Green,B,0,0,ScrollDown,ScrollUp,Green.png,5,NonTarget,NonTarget,0,0,0,0,,,,,,,,,,,,,,,,,,,,,,,,,,,,,0,8,8,8,,,,,,,,,,,,,,,,,,,,,,,,,,,,,,,,,,,,,,,,,,,,,,,,,,,,,,,,,,,,,,,,,,,,,1.1558641890684764,1.7959516000119038,653.2236464000307,None,ScrollDown,정답입니다,653.2236464000307,None,653.2236464000307,None,653.2236464000307,None,653.2236464000307,None,654.9236626999918,None,654.9236626999918,655.4236947000027,,,,,,,,,,,,,,,,027,2022-05-20_18h39.14.033,FishGame,2022.1.1,60.0214876955022,
,10,넌 참되어,2,Orange,A,6.041666666666664,4.733333333333333,ScrollDown,ScrollUp,Orange.png,5,Positive,Congruent,0,0,0,0,,,,,,,,,,,,,,,,,,,,,,,,,,,,,0,9,9,9,,,,,,,,,,,,,,,,,,,,,,,,,,,,,,,,,,,,,,,,,,,,,,,,,,,,,,,,,,,,,,,,,,,,,1.3503086467583976,0.9590788999921642,656.0641357999993,None,ScrollDown,정답입니다,656.0641357999993,None,656.0641357999993,None,656.0641357999993,None,656.0641357999993,None,656.9047270000447,None,656.9047270000447,657.4052102999995,,,,,,,,,,,,,,,,027,2022-05-20_18h39.14.033,FishGame,2022.1.1,60.0214876955022,
,11,넌 생기있어,1,Green,B,5.875,5.633333333333334,ScrollUp,ScrollDown,Green.png,5,Positive,Incongruent,0,0,0,0,,,,,,,,,,,,,,,,,,,,,,,,,,,,,0,10,10,10,,,,,,,,,,,,,,,,,,,,,,,,,,,,,,,,,,,,,,,,,,,,,,,,,,,,,,,,,,,,,,,,,,,,,1.4305555534859498,0.9258265999960713,658.0277866999968,None,ScrollDown,오답입니다,658.0277866999968,None,658.0277866999968,None,658.0277866999968,None,658.0277866999968,None,658.8548064000206,None,658.8548064000206,659.3569409000338,,,,,,,,,,,,,,,,027,2022-05-20_18h39.14.033,FishGame,2022.1.1,60.0214876955022,
,12,넌 비사교적이야,4,Green,B,2.875,2.9,ScrollUp,ScrollDown,Green.png,5,Negative,Congruent,0,0,0,0,,,,,,,,,,,,,,,,,,,,,,,,,,,,,0,11,11,11,,,,,,,,,,,,,,,,,,,,,,,,,,,,,,,,,,,,,,,,,,,,,,,,,,,,,,,,,,,,,,,,,,,,,1.4938271606030564,1.458923899976071,659.984277600015,None,NoResponse,무응답입니다,659.984277600015,None,659.984277600015,None,659.984277600015,None,659.984277600015,None,661.3402186000021,None,661.3402186000021,661.8547270999989,,,,,,,,,,,,,,,,027,2022-05-20_18h39.14.033,FishGame,2022.1.1,60.0214876955022,
,13,나를 데려가줘,6,Green,B,0,0,ScrollDown,ScrollUp,Green.png,5,NonTarget,NonTarget,0,0,0,0,,,,,,,,,,,,,,,,,,,,,,,,,,,,,0,12,12,12,,,,,,,,,,,,,,,,,,,,,,,,,,,,,,,,,,,,,,,,,,,,,,,,,,,,,,,,,,,,,,,,,,,,,1,1.1935841999948025,662.4555361000239,None,ScrollDown,정답입니다,662.4555361000239,None,662.4555361000239,None,662.4555361000239,None,662.4555361000239,None,663.5546169000445,None,663.5546169000445,664.0546846000361,,,,,,,,,,,,,,,,027,2022-05-20_18h39.14.033,FishGame,2022.1.1,60.0214876955022,
,14,넌 고독해,4,Orange,A,2.916666666666667,3.233333333333333,ScrollDown,ScrollUp,Orange.png,5,Negative,Incongruent,0,0,0,0,,,,,,,,,,,,,,,,,,,,,,,,,,,,,0,13,13,13,,,,,,,,,,,,,,,,,,,,,,,,,,,,,,,,,,,,,,,,,,,,,,,,,,,,,,,,,,,,,,,,,,,,,1,1.225727499986533,664.6761539000436,None,ScrollDown,정답입니다,664.6761539000436,None,664.6761539000436,None,664.6761539000436,None,664.6761539000436,None,665.8046224000282,None,665.8046224000282,666.3069342999952,,,,,,,,,,,,,,,,027,2022-05-20_18h39.14.033,FishGame,2022.1.1,60.0214876955022,
,15,넌 신경질적이야,5,Green,B,2.375,2.233333333333333,ScrollUp,ScrollDown,Green.png,5,Negative,Congruent,0,0,0,0,,,,,,,,,,,,,,,,,,,,,,,,,,,,,0,14,14,14,,,,,,,,,,,,,,,,,,,,,,,,,,,,,,,,,,,,,,,,,,,,,,,,,,,,,,,,,,,,,,,,,,,,,2,1.1442386000417173,666.9439542000182,None,ScrollUp,정답입니다,666.9439542000182,None,666.9439542000182,None,666.9439542000182,None,666.9439542000182,None,667.9734399000299,None,667.9734399000299,668.490184299997,,,,,,,,,,,,,,,,027,2022-05-20_18h39.14.033,FishGame,2022.1.1,60.0214876955022,
,16,넌 똑똑해,2,Green,B,5.666666666666667,3.966666666666667,ScrollUp,ScrollDown,Green.png,5,Positive,Incongruent,0,0,0,0,,,,,,,,,,,,,,,,,,,,,,,,,,,,,0,15,15,15,,,,,,,,,,,,,,,,,,,,,,,,,,,,,,,,,,,,,,,,,,,,,,,,,,,,,,,,,,,,,,,,,,,,,2,1.1423312000115402,669.0981049000402,None,ScrollUp,정답입니다,669.0981049000402,None,669.0981049000402,None,669.0981049000402,None,669.0981049000402,None,670.1378177000443,None,670.1378177000443,670.6381912000361,,,,,,,,,,,,,,,,027,2022-05-20_18h39.14.033,FishGame,2022.1.1,60.0214876955022,
,17,나를 보내줘,6,Orange,A,0,0,ScrollUp,ScrollDown,Orange.png,5,NonTarget,NonTarget,0,0,0,0,,,,,,,,,,,,,,,,,,,,,,,,,,,,,0,16,16,16,,,,,,,,,,,,,,,,,,,,,,,,,,,,,,,,,,,,,,,,,,,,,,,,,,,,,,,,,,,,,,,,,,,,,2,1.2773694000206888,671.2593794999993,None,ScrollUp,정답입니다,671.2593794999993,None,671.2593794999993,None,671.2593794999993,None,671.2593794999993,None,672.4378282999969,None,672.4378282999969,672.9400152000017,,,,,,,,,,,,,,,,027,2022-05-20_18h39.14.033,FishGame,2022.1.1,60.0214876955022,
,18,넌 협조적이야,1,Orange,A,5.625,5.666666666666667,ScrollDown,ScrollUp,Orange.png,5,Positive,Congruent,0,0,0,0,,,,,,,,,,,,,,,,,,,,,,,,,,,,,0,17,17,17,,,,,,,,,,,,,,,,,,,,,,,,,,,,,,,,,,,,,,,,,,,,,,,,,,,,,,,,,,,,,,,,,,,,,1,1.0762170999660157,673.5584470000467,None,ScrollDown,정답입니다,673.5584470000467,None,673.5584470000467,None,673.5584470000467,None,673.5584470000467,None,674.5377557000029,None,674.5377557000029,675.0400173999951,,,,,,,,,,,,,,,,027,2022-05-20_18h39.14.033,FishGame,2022.1.1,60.0214876955022,
,19,나를 데려가줘,6,Green,B,0,0,ScrollDown,ScrollUp,Green.png,5,NonTarget,NonTarget,0,0,0,0,,,,,,,,,,,,,,,,,,,,,,,,,,,,,0,18,18,18,,,,,,,,,,,,,,,,,,,,,,,,,,,,,,,,,,,,,,,,,,,,,,,,,,,,,,,,,,,,,,,,,,,,,1.0262345671653748,1.7282202999922447,675.656191600021,None,ScrollDown,정답입니다,675.656191600021,None,675.656191600021,None,675.656191600021,None,675.656191600021,None,677.2874240000383,None,677.2874240000383,677.7875573000056,,,,,,,,,,,,,,,,027,2022-05-20_18h39.14.033,FishGame,2022.1.1,60.0214876955022,
,20,넌 몰인정해,5,Green,B,2.541666666666667,2.066666666666667,ScrollUp,ScrollDown,Green.png,5,Negative,Congruent,0,0,0,0,,,,,,,,,,,,,,,,,,,,,,,,,,,,,0,19,19,19,,,,,,,,,,,,,,,,,,,,,,,,,,,,,,,,,,,,,,,,,,,,,,,,,,,,,,,,,,,,,,,,,,,,,2,1.0155148999765515,678.4234070000239,None,ScrollUp,정답입니다,678.4234070000239,None,678.4234070000239,None,678.4234070000239,None,678.4234070000239,None,679.3233790000086,None,679.3233790000086,679.8233105000108,,,,,,,,,,,,,,,,027,2022-05-20_18h39.14.033,FishGame,2022.1.1,60.0214876955022,
,21,나를 데려가줘,6,Green,B,0,0,ScrollDown,ScrollUp,Green.png,5,NonTarget,NonTarget,0,0,0,0,,,,,,,,,,,,,,,,,,,,,,,,,,,,,0,20,20,20,,,,,,,,,,,,,,,,,,,,,,,,,,,,,,,,,,,,,,,,,,,,,,,,,,,,,,,,,,,,,,,,,,,,,1,1.1424365999992006,680.4398142000427,None,ScrollDown,정답입니다,680.4398142000427,None,680.4398142000427,None,680.4398142000427,None,680.4398142000427,None,681.4898022999987,None,681.4898022999987,682.0064991000108,,,,,,,,,,,,,,,,027,2022-05-20_18h39.14.033,FishGame,2022.1.1,60.0214876955022,
,22,넌 순진해,3,Green,B,4.125,4.166666666666667,ScrollUp,ScrollDown,Green.png,5,Neutral,Neutral,0,0,0,0,,,,,,,,,,,,,,,,,,,,,,,,,,,,,0,21,21,21,,,,,,,,,,,,,,,,,,,,,,,,,,,,,,,,,,,,,,,,,,,,,,,,,,,,,,,,,,,,,,,,,,,,,2,1.2094928000005893,682.6251966000418,None,ScrollUp,정답입니다,682.6251966000418,None,682.6251966000418,None,682.6251966000418,None,682.6251966000418,None,683.7375252000056,None,683.7375252000056,684.2376398000051,,,,,,,,,,,,,,,,027,2022-05-20_18h39.14.033,FishGame,2022.1.1,60.0214876955022,
