name,TrialNum,Word,WordCategory,FishType,WordList,WordValence,WordReputation,CorrectResp,IncorrectResp,FishTypeFile,Round,WordType,Condition,LoopforOrange.thisRepN,LoopforOrange.thisTrialN,LoopforOrange.thisN,LoopforOrange.thisIndex,LoopForGreen.thisRepN,LoopForGreen.thisTrialN,LoopForGreen.thisN,LoopForGreen.thisIndex,GreenInstLoop.thisRepN,GreenInstLoop.thisTrialN,GreenInstLoop.thisN,GreenInstLoop.thisIndex,GreenPrac.thisRepN,GreenPrac.thisTrialN,GreenPrac.thisN,GreenPrac.thisIndex,trials_2.thisRepN,trials_2.thisTrialN,trials_2.thisN,trials_2.thisIndex,GreenRound1.thisRepN,GreenRound1.thisTrialN,GreenRound1.thisN,GreenRound1.thisIndex,GreenRound2.thisRepN,GreenRound2.thisTrialN,GreenRound2.thisN,GreenRound2.thisIndex,GreenRound3.thisRepN,GreenRound3.thisTrialN,GreenRound3.thisN,GreenRound3.thisIndex,GreenRound4.thisRepN,GreenRound4.thisTrialN,GreenRound4.thisN,GreenRound4.thisIndex,GreenRound5.thisRepN,GreenRound5.thisTrialN,GreenRound5.thisN,GreenRound5.thisIndex,text_2.started,text_2.stopped,text_3.started,text_3.stopped,key_resp.keys,key_resp.rt,key_resp.started,key_resp.stopped,PassI.started,PassI.stopped,PassInst.keys,PassInst.rt,PassInst.started,PassInst.stopped,mouse_2.x,mouse_2.y,mouse_2.leftButton,mouse_2.midButton,mouse_2.rightButton,mouse_2.started,mouse_2.stopped,image.started,image.stopped,text_5.started,text_5.stopped,text_6.started,text_6.stopped,text_7.started,text_7.stopped,text_8.started,text_8.stopped,slider_3.response,slider_3.rt,slider_3.started,slider_3.stopped,Response_3,Feedback_3,BackGround_3.started,BackGround_3.stopped,Fish_3.started,Fish_3.stopped,WordBox_3.started,WordBox_3.stopped,Words_3.started,Words_3.stopped,BackGround_Feedback_3.started,BackGround_Feedback_3.stopped,Feedbacks_3.started,Feedbacks_3.stopped,Continue_or_not_2.keys,Continue_or_not_2.rt,Continue_or_not_2.started,Continue_or_not_2.stopped,image_4.started,image_4.stopped,mouse_3.x,mouse_3.y,mouse_3.leftButton,mouse_3.midButton,mouse_3.rightButton,mouse_3.started,mouse_3.stopped,startmain.started,startmain.stopped,slider_4.response,slider_4.rt,slider_4.started,slider_4.stopped,Response_4,Feedback_4,BackGround_4.started,BackGround_4.stopped,Fish_4.started,Fish_4.stopped,WordBox_4.started,WordBox_4.stopped,Words_4.started,Words_4.stopped,BackGround_Feedback_4.started,BackGround_Feedback_4.stopped,Feedbacks_4.started,Feedbacks_4.stopped,text.started,text.stopped,break_interval.started,break_interval.stopped,mouse.x,mouse.y,mouse.leftButton,mouse.midButton,mouse.rightButton,mouse.started,mouse.stopped,stratnextround.started,stratnextround.stopped,endgame.started,endgame.stopped,participant,date,expName,psychopyVersion,frameRate,
,,,,,,,,,,,,,,,,,,,,,,,,,,,,,,,,,,,,,,,,,,,,,,,,,,,,,,18.58715369994752,None,18.58715369994752,None,space,2.1321053000865504,19.073604900040664,None,,,,,,,,,,,,,,,,,,,,,,,,,,,,,,,,,,,,,,,,,,,,,,,,,,,,,,,,,,,,,,,,,,,,,,,,,,,,,,,,,,,,,,,,,,028,2022-05-23_11h18.23.695,FishGame,2022.1.1,60.02487431563846,
물고기과제_instruction(참가자용)GreenVersion.mp4,,,,,,,,,,,,,,,,,,0,0,0,0,0,0,0,0,,,,,,,,,,,,,,,,,,,,,,,,,,,,,,,,,,,,,91.5500734000234,None,n,2.047546699992381,91.5500734000234,None,,,,,,,,,,,,,,,,,,,,,,,,,,,,,,,,,,,,,,,,,,,,,,,,,,,,,,,,,,,,,,,,,,,,,,,,,,,,,,,,,,,,028,2022-05-23_11h18.23.695,FishGame,2022.1.1,60.02487431563846,
,1,넌 교활해,5,Orange,B,2.333333333333333,2.133333333333333,ScrollUp,ScrollDown,Orange.png,practice,,,,,,,0,0,0,0,,,,,0,0,0,0,0,0,0,0,,,,,,,,,,,,,,,,,,,,,,,,,,,,,,,,,,,0.024074074,-0.20925926,1,0,0,0.51266987004783,None,93.61645810003392,None,97.74990199995227,99.25230539997574,99.28560820000712,100.23556679999456,100.28551219997462,101.25230699998792,101.2332409999799,None,1.879629631837209,1.9546048999764025,102.5235225999495,None,ScrollUp,정답입니다,102.5235225999495,None,102.5235225999495,None,102.5235225999495,None,102.5235225999495,None,104.18315549998078,None,104.18315549998078,104.68313320004381,,,,,,,,,,,,,,,,,,,,,,,,,,,,,,,,,,,,,,,,,,,,,,,,,028,2022-05-23_11h18.23.695,FishGame,2022.1.1,60.02487431563846,
,2,넌 슬기로워,2,Green,A,6.166666666666667,4.1,ScrollDown,ScrollUp,Green.png,practice,,,,,,,0,0,0,0,,,,,0,0,0,0,0,1,1,1,,,,,,,,,,,,,,,,,,,,,,,,,,,,,,,,,,,,,,,,,,,,,,,,,,,,1.2391975422700245,1.1114492999622598,105.30780519999098,None,ScrollDown,정답입니다,105.30780519999098,None,105.30780519999098,None,105.30780519999098,None,105.30780519999098,None,106.31638990005013,None,106.31638990005013,106.81641950004268,,,,,,,,,,,,,,,,,,,,,,,,,,,,,,,,,,,,,,,,,,,,,,,,,028,2022-05-23_11h18.23.695,FishGame,2022.1.1,60.02487431563846,
,3,나를 보내줘,6,Green,A,0,0,ScrollUp,ScrollDown,Green.png,practice,,,,,,,0,0,0,0,,,,,0,0,0,0,0,2,2,2,,,,,,,,,,,,,,,,,,,,,,,,,,,,,,,,,,,,,,,,,,,,,,,,,,,,1.5740740758677325,1.2795925999525934,107.43612450000364,None,ScrollUp,정답입니다,107.43612450000364,None,107.43612450000364,None,107.43612450000364,None,107.43612450000364,None,108.61639159999322,None,108.61639159999322,109.11645980004687,,,,,,,,,,,,,,,,,,,,,,,,,,,,,,,,,,,,,,,,,,,,,,,,,028,2022-05-23_11h18.23.695,FishGame,2022.1.1,60.02487431563846,
,4,나를 데려가줘,6,Orange,B,0,0,ScrollDown,ScrollUp,Orange.png,practice,,,,,,,0,0,0,0,,,,,0,0,0,0,0,3,3,3,,,,,,,,,,,,,,,,,,,,,,,,,,,,,,,,,,,,,,,,,,,,,,,,,,,,1.276234577099482,1.1601612999802455,109.74602910003159,None,ScrollDown,정답입니다,109.74602910003159,None,109.74602910003159,None,109.74602910003159,None,109.74602910003159,None,110.79937180003617,None,110.79937180003617,111.29945279995445,,,,,,,,,,,,,,,,,,,,,,,,,,,,,,,,,,,,,,,,,,,,,,,,,028,2022-05-23_11h18.23.695,FishGame,2022.1.1,60.02487431563846,
,1,넌 교활해,5,Orange,B,2.333333333333333,2.133333333333333,ScrollUp,ScrollDown,Orange.png,practice,,,,,,,0,0,0,0,,,,,0,0,0,0,,,,,,,,,,,,,,,,,,,,,,,,,,,,,,,,,,,,,,,,,,,,,,,,,,,,,,,,,,,,,,,,,,,,,,,,,,n,3.870721200015396,111.79943769995589,None,111.79943769995589,None,,,,,,,,,,,,,,,,,,,,,,,,,,,,,,,,,,,,,,,,,,,028,2022-05-23_11h18.23.695,FishGame,2022.1.1,60.02487431563846,
,1,넌 따뜻해,1,Orange,B,6.083333333333333,5.6,ScrollUp,ScrollDown,Orange.png,1,Positive,Incongruent,,,,,0,0,0,0,,,,,,,,,,,,,0,0,0,0,,,,,,,,,,,,,,,,,,,,,,,,,,,,,,,,,,,,,,,,117.71615100000054,119.21857399994042,119.25189259997569,120.20184330001939,120.24956110003404,121.19952340004966,121.19952340004966,None,,,,,,,,,,,,,,,,,,,,,,,,,0.018518519,-0.11296296,1,0,0,0.313994670053944,None,115.69956999993883,None,1.5709876542290053,1.5247597999405116,122.51061110000592,None,ScrollUp,정답입니다,122.51061110000592,None,122.51061110000592,None,122.51061110000592,None,122.51061110000592,None,123.73282899998594,None,123.73282899998594,124.23810880002566,,,,,,,,,,,,,,,,028,2022-05-23_11h18.23.695,FishGame,2022.1.1,60.02487431563846,
,2,넌 기품있어,2,Orange,B,5.791666666666668,4.5,ScrollUp,ScrollDown,Orange.png,1,Positive,Incongruent,,,,,0,0,0,0,,,,,,,,,,,,,0,1,1,1,,,,,,,,,,,,,,,,,,,,,,,,,,,,,,,,,,,,,,,,,,,,,,,,,,,,,,,,,,,,,,,,,,,,,,,,,,,,,,,,,1.5509259259949126,1.00900650001131,124.86618859996088,None,ScrollUp,정답입니다,124.86618859996088,None,124.86618859996088,None,124.86618859996088,None,124.86618859996088,None,125.76598130003549,None,125.76598130003549,126.26819420000538,,,,,,,,,,,,,,,,028,2022-05-23_11h18.23.695,FishGame,2022.1.1,60.02487431563846,
,3,나를 보내줘,6,Green,A,0,0,ScrollUp,ScrollDown,Green.png,1,NonTarget,NonTarget,,,,,0,0,0,0,,,,,,,,,,,,,0,2,2,2,,,,,,,,,,,,,,,,,,,,,,,,,,,,,,,,,,,,,,,,,,,,,,,,,,,,,,,,,,,,,,,,,,,,,,,,,,,,,,,,,1.5200617282340922,1.0257492000237107,126.89425739995204,None,NoResponse,무응답입니다,126.89425739995204,None,126.89425739995204,None,126.89425739995204,None,126.89425739995204,None,127.81601099995896,None,127.81601099995896,128.31604519998655,,,,,,,,,,,,,,,,028,2022-05-23_11h18.23.695,FishGame,2022.1.1,60.02487431563846,
,4,넌 수동적이야,4,Green,A,2.833333333333333,2.933333333333333,ScrollDown,ScrollUp,Green.png,1,Negative,Incongruent,,,,,0,0,0,0,,,,,,,,,,,,,0,3,3,3,,,,,,,,,,,,,,,,,,,,,,,,,,,,,,,,,,,,,,,,,,,,,,,,,,,,,,,,,,,,,,,,,,,,,,,,,,,,,,,,,1.1512345721324284,1.32563300000038,128.9470876000123,None,ScrollDown,정답입니다,128.9470876000123,None,128.9470876000123,None,128.9470876000123,None,128.9470876000123,None,130.16566389997024,None,130.16566389997024,130.66567430004943,,,,,,,,,,,,,,,,028,2022-05-23_11h18.23.695,FishGame,2022.1.1,60.02487431563846,
,5,넌 사심이 없어,3,Orange,B,4.916666666666666,4.333333333333333,ScrollUp,ScrollDown,Orange.png,1,Neutral,Neutral,,,,,0,0,0,0,,,,,,,,,,,,,0,4,4,4,,,,,,,,,,,,,,,,,,,,,,,,,,,,,,,,,,,,,,,,,,,,,,,,,,,,,,,,,,,,,,,,,,,,,,,,,,,,,,,,,1.5956790149211884,1.0289707999909297,131.29140210000332,None,ScrollUp,정답입니다,131.29140210000332,None,131.29140210000332,None,131.29140210000332,None,131.29140210000332,None,132.21831190004013,None,132.21831190004013,132.718267200049,,,,,,,,,,,,,,,,028,2022-05-23_11h18.23.695,FishGame,2022.1.1,60.02487431563846,
,6,넌 헤퍼,5,Green,A,2.458333333333334,2.233333333333333,ScrollDown,ScrollUp,Green.png,1,Negative,Incongruent,,,,,0,0,0,0,,,,,,,,,,,,,0,5,5,5,,,,,,,,,,,,,,,,,,,,,,,,,,,,,,,,,,,,,,,,,,,,,,,,,,,,,,,,,,,,,,,,,,,,,,,,,,,,,,,,,1.2515432039896646,1.0125275999307632,133.3373305000132,None,ScrollDown,정답입니다,133.3373305000132,None,133.3373305000132,None,133.3373305000132,None,133.3373305000132,None,134.24920930003282,None,134.24920930003282,134.74931270000525,,,,,,,,,,,,,,,,028,2022-05-23_11h18.23.695,FishGame,2022.1.1,60.02487431563846,
,7,넌 말쑥해,3,Green,A,4.833333333333334,4.333333333333333,ScrollDown,ScrollUp,Green.png,1,Neutral,Neutral,,,,,0,0,0,0,,,,,,,,,,,,,0,6,6,6,,,,,,,,,,,,,,,,,,,,,,,,,,,,,,,,,,,,,,,,,,,,,,,,,,,,,,,,,,,,,,,,,,,,,,,,,,,,,,,,,1.2253086417913437,1.0427175000077114,135.37599199998658,None,ScrollDown,정답입니다,135.37599199998658,None,135.37599199998658,None,135.37599199998658,None,135.37599199998658,None,136.31587719998788,None,136.31587719998788,136.81592510000337,,,,,,,,,,,,,,,,028,2022-05-23_11h18.23.695,FishGame,2022.1.1,60.02487431563846,
,8,넌 투덜거려,5,Orange,B,2.541666666666667,2.266666666666667,ScrollUp,ScrollDown,Orange.png,1,Negative,Congruent,,,,,0,0,0,0,,,,,,,,,,,,,0,7,7,7,,,,,,,,,,,,,,,,,,,,,,,,,,,,,,,,,,,,,,,,,,,,,,,,,,,,,,,,,,,,,,,,,,,,,,,,,,,,,,,,,1.7793209999799728,0.9264897999819368,137.44858269998804,None,ScrollUp,정답입니다,137.44858269998804,None,137.44858269998804,None,137.44858269998804,None,137.44858269998804,None,138.26552699995227,None,138.26552699995227,138.76558350003324,,,,,,,,,,,,,,,,028,2022-05-23_11h18.23.695,FishGame,2022.1.1,60.02487431563846,
,9,넌 적극적이야,1,Green,A,5.708333333333333,5.533333333333333,ScrollDown,ScrollUp,Green.png,1,Positive,Congruent,,,,,0,0,0,0,,,,,,,,,,,,,0,8,8,8,,,,,,,,,,,,,,,,,,,,,,,,,,,,,,,,,,,,,,,,,,,,,,,,,,,,,,,,,,,,,,,,,,,,,,,,,,,,,,,,,1.1373456716537476,0.9291326000820845,139.38418910000473,None,ScrollDown,정답입니다,139.38418910000473,None,139.38418910000473,None,139.38418910000473,None,139.38418910000473,None,140.2180586999748,None,140.2180586999748,140.7180626000045,,,,,,,,,,,,,,,,028,2022-05-23_11h18.23.695,FishGame,2022.1.1,60.02487431563846,
,10,넌 재미없어,4,Orange,B,2.625,2.966666666666667,ScrollUp,ScrollDown,Orange.png,1,Negative,Congruent,,,,,0,0,0,0,,,,,,,,,,,,,0,9,9,9,,,,,,,,,,,,,,,,,,,,,,,,,,,,,,,,,,,,,,,,,,,,,,,,,,,,,,,,,,,,,,,,,,,,,,,,,,,,,,,,,1.6697530845801034,0.92962599999737,141.34052069997415,None,ScrollUp,정답입니다,141.34052069997415,None,141.34052069997415,None,141.34052069997415,None,141.34052069997415,None,142.1680504999822,None,142.1680504999822,142.6713502999628,,,,,,,,,,,,,,,,028,2022-05-23_11h18.23.695,FishGame,2022.1.1,60.02487431563846,
,11,넌 명석해,2,Green,A,5.875,4.033333333333333,ScrollDown,ScrollUp,Green.png,1,Positive,Congruent,,,,,0,0,0,0,,,,,,,,,,,,,0,10,10,10,,,,,,,,,,,,,,,,,,,,,,,,,,,,,,,,,,,,,,,,,,,,,,,,,,,,,,,,,,,,,,,,,,,,,,,,,,,,,,,,,1.1666666616996129,0.9618892999133095,143.3050448000431,None,ScrollDown,정답입니다,143.3050448000431,None,143.3050448000431,None,143.3050448000431,None,143.3050448000431,None,144.16568360000383,None,144.16568360000383,144.6657313000178,,,,,,,,,,,,,,,,028,2022-05-23_11h18.23.695,FishGame,2022.1.1,60.02487431563846,
,12,나를 데려가줘,6,Orange,B,0,0,ScrollDown,ScrollUp,Orange.png,1,NonTarget,NonTarget,,,,,0,0,0,0,,,,,,,,,,,,,0,11,11,11,,,,,,,,,,,,,,,,,,,,,,,,,,,,,,,,,,,,,,,,,,,,,,,,,,,,,,,,,,,,,,,,,,,,,,,,,,,,,,,,,1,1.225727399927564,145.3000581000233,None,ScrollDown,정답입니다,145.3000581000233,None,145.3000581000233,None,145.3000581000233,None,145.3000581000233,None,146.41536690003704,None,146.41536690003704,146.91553090000525,,,,,,,,,,,,,,,,028,2022-05-23_11h18.23.695,FishGame,2022.1.1,60.02487431563846,
,13,넌 소심해,4,Green,A,3,3.1,ScrollDown,ScrollUp,Green.png,1,Negative,Incongruent,,,,,0,0,0,0,,,,,,,,,,,,,0,12,12,12,,,,,,,,,,,,,,,,,,,,,,,,,,,,,,,,,,,,,,,,,,,,,,,,,,,,,,,,,,,,,,,,,,,,,,,,,,,,,,,,,1.2283950696388881,1.0974982000188902,147.5409858999774,None,ScrollDown,정답입니다,147.5409858999774,None,147.5409858999774,None,147.5409858999774,None,147.5409858999774,None,148.53460240003187,None,148.53460240003187,149.0346265999833,,,,,,,,,,,,,,,,028,2022-05-23_11h18.23.695,FishGame,2022.1.1,60.02487431563846,
,14,넌 합리적이야,2,Green,A,5.583333333333333,4.733333333333333,ScrollDown,ScrollUp,Green.png,1,Positive,Congruent,,,,,0,0,0,0,,,,,,,,,,,,,0,13,13,13,,,,,,,,,,,,,,,,,,,,,,,,,,,,,,,,,,,,,,,,,,,,,,,,,,,,,,,,,,,,,,,,,,,,,,,,,,,,,,,,,1.1558641890684764,0.7628834000788629,149.6550502999453,None,ScrollDown,정답입니다,149.6550502999453,None,149.6550502999453,None,149.6550502999453,None,149.6550502999453,None,150.31774770002812,None,150.31774770002812,150.83453560003545,,,,,,,,,,,,,,,,028,2022-05-23_11h18.23.695,FishGame,2022.1.1,60.02487431563846,
,15,넌 무자비해,5,Orange,B,2.333333333333333,2.1,ScrollUp,ScrollDown,Orange.png,1,Negative,Congruent,,,,,0,0,0,0,,,,,,,,,,,,,0,14,14,14,,,,,,,,,,,,,,,,,,,,,,,,,,,,,,,,,,,,,,,,,,,,,,,,,,,,,,,,,,,,,,,,,,,,,,,,,,,,,,,,,1.7145061641931534,0.7924938999349251,151.4468923000386,None,ScrollUp,정답입니다,151.4468923000386,None,151.4468923000386,None,151.4468923000386,None,151.4468923000386,None,152.13441990001593,None,152.13441990001593,152.6375987000065,,,,,,,,,,,,,,,,028,2022-05-23_11h18.23.695,FishGame,2022.1.1,60.02487431563846,
,16,나를 보내줘,6,Green,A,0,0,ScrollUp,ScrollDown,Green.png,1,NonTarget,NonTarget,,,,,0,0,0,0,,,,,,,,,,,,,0,15,15,15,,,,,,,,,,,,,,,,,,,,,,,,,,,,,,,,,,,,,,,,,,,,,,,,,,,,,,,,,,,,,,,,,,,,,,,,,,,,,,,,,2,1.3615467000054196,153.27023529994767,None,ScrollUp,정답입니다,153.27023529994767,None,153.27023529994767,None,153.27023529994767,None,153.27023529994767,None,154.53208339994308,None,154.53208339994308,155.03218810004182,,,,,,,,,,,,,,,,028,2022-05-23_11h18.23.695,FishGame,2022.1.1,60.02487431563846,
,17,넌 현실적이야,3,Orange,B,4.608695652173913,4.766666666666667,ScrollUp,ScrollDown,Orange.png,1,Neutral,Neutral,,,,,0,0,0,0,,,,,,,,,,,,,0,16,16,16,,,,,,,,,,,,,,,,,,,,,,,,,,,,,,,,,,,,,,,,,,,,,,,,,,,,,,,,,,,,,,,,,,,,,,,,,,,,,,,,,1.5679012325902781,0.8429275000235066,155.66232759994455,None,ScrollUp,정답입니다,155.66232759994455,None,155.66232759994455,None,155.66232759994455,None,155.66232759994455,None,156.39882699993905,None,156.39882699993905,156.90099749993533,,,,,,,,,,,,,,,,028,2022-05-23_11h18.23.695,FishGame,2022.1.1,60.02487431563846,
,18,넌 의리있어,1,Orange,B,5.833333333333334,5.633333333333334,ScrollUp,ScrollDown,Orange.png,1,Positive,Incongruent,,,,,0,0,0,0,,,,,,,,,,,,,0,17,17,17,,,,,,,,,,,,,,,,,,,,,,,,,,,,,,,,,,,,,,,,,,,,,,,,,,,,,,,,,,,,,,,,,,,,,,,,,,,,,,,,,1.5169753081475696,0.8097104999469593,157.5246873999713,None,NoResponse,무응답입니다,157.5246873999713,None,157.5246873999713,None,157.5246873999713,None,157.5246873999713,None,158.2320400000317,None,158.2320400000317,158.73212419997435,,,,,,,,,,,,,,,,028,2022-05-23_11h18.23.695,FishGame,2022.1.1,60.02487431563846,
,19,넌 신경과민이야,5,Green,A,2.541666666666667,2.166666666666667,ScrollDown,ScrollUp,Green.png,1,Negative,Incongruent,,,,,0,0,0,0,,,,,,,,,,,,,0,18,18,18,,,,,,,,,,,,,,,,,,,,,,,,,,,,,,,,,,,,,,,,,,,,,,,,,,,,,,,,,,,,,,,,,,,,,,,,,,,,,,,,,1.2175925970077515,0.9783091000281274,159.3622350000078,None,ScrollDown,정답입니다,159.3622350000078,None,159.3622350000078,None,159.3622350000078,None,159.3622350000078,None,160.2342560000252,None,160.2342560000252,160.7342150999466,,,,,,,,,,,,,,,,028,2022-05-23_11h18.23.695,FishGame,2022.1.1,60.02487431563846,
,20,넌 편안해,1,Green,A,5.916666666666666,5.866666666666666,ScrollDown,ScrollUp,Green.png,1,Positive,Congruent,,,,,0,0,0,0,,,,,,,,,,,,,0,19,19,19,,,,,,,,,,,,,,,,,,,,,,,,,,,,,,,,,,,,,,,,,,,,,,,,,,,,,,,,,,,,,,,,,,,,,,,,,,,,,,,,,1.2160493830839794,0.8774526999332011,161.3748770999955,None,ScrollDown,정답입니다,161.3748770999955,None,161.3748770999955,None,161.3748770999955,None,161.3748770999955,None,162.15081729996018,None,162.15081729996018,162.65088680002373,,,,,,,,,,,,,,,,028,2022-05-23_11h18.23.695,FishGame,2022.1.1,60.02487431563846,
,21,넌 품위있어,2,Orange,B,5.291666666666666,4.466666666666667,ScrollUp,ScrollDown,Orange.png,1,Positive,Incongruent,,,,,0,0,0,0,,,,,,,,,,,,,0,20,20,20,,,,,,,,,,,,,,,,,,,,,,,,,,,,,,,,,,,,,,,,,,,,,,,,,,,,,,,,,,,,,,,,,,,,,,,,,,,,,,,,,1.6419753084580102,0.8929751999676228,163.2788076000288,None,ScrollUp,정답입니다,163.2788076000288,None,163.2788076000288,None,163.2788076000288,None,163.2788076000288,None,164.06523279997054,None,164.06523279997054,164.56529800000135,,,,,,,,,,,,,,,,028,2022-05-23_11h18.23.695,FishGame,2022.1.1,60.02487431563846,
,22,넌 빈틈없어,3,Green,A,4.833333333333333,3.966666666666667,ScrollDown,ScrollUp,Green.png,1,Neutral,Neutral,,,,,0,0,0,0,,,,,,,,,,,,,0,21,21,21,,,,,,,,,,,,,,,,,,,,,,,,,,,,,,,,,,,,,,,,,,,,,,,,,,,,,,,,,,,,,,,,,,,,,,,,,,,,,,,,,1.1250000099341075,0.8609420000575483,165.1887772999471,None,ScrollDown,정답입니다,165.1887772999471,None,165.1887772999471,None,165.1887772999471,None,165.1887772999471,None,165.950829599984,None,165.950829599984,166.46741459995974,,,,,,,,,,,,,,,,028,2022-05-23_11h18.23.695,FishGame,2022.1.1,60.02487431563846,
,23,넌 상상력없어,4,Orange,B,2.833333333333333,3.133333333333333,ScrollUp,ScrollDown,Orange.png,1,Negative,Congruent,,,,,0,0,0,0,,,,,,,,,,,,,0,22,22,22,,,,,,,,,,,,,,,,,,,,,,,,,,,,,,,,,,,,,,,,,,,,,,,,,,,,,,,,,,,,,,,,,,,,,,,,,,,,,,,,,1.6265432064731917,0.7762067000148818,167.07765580003615,None,ScrollUp,정답입니다,167.07765580003615,None,167.07765580003615,None,167.07765580003615,None,167.07765580003615,None,167.74858150002547,None,167.74858150002547,168.2486462999368,,,,,,,,,,,,,,,,028,2022-05-23_11h18.23.695,FishGame,2022.1.1,60.02487431563846,
,24,넌 지혜로워,2,Orange,B,6.333333333333334,4.633333333333334,ScrollUp,ScrollDown,Orange.png,1,Positive,Incongruent,,,,,0,0,0,0,,,,,,,,,,,,,0,23,23,23,,,,,,,,,,,,,,,,,,,,,,,,,,,,,,,,,,,,,,,,,,,,,,,,,,,,,,,,,,,,,,,,,,,,,,,,,,,,,,,,,1.5771604912976422,0.8280000999802724,168.87813880003523,None,ScrollUp,정답입니다,168.87813880003523,None,168.87813880003523,None,168.87813880003523,None,168.87813880003523,None,169.59847129997797,None,169.59847129997797,170.1006518000504,,,,,,,,,,,,,,,,028,2022-05-23_11h18.23.695,FishGame,2022.1.1,60.02487431563846,
,25,넌 시끄러워,4,Green,A,2.833333333333333,3.033333333333333,ScrollDown,ScrollUp,Green.png,1,Negative,Incongruent,,,,,0,0,0,0,,,,,,,,,,,,,0,24,24,24,,,,,,,,,,,,,,,,,,,,,,,,,,,,,,,,,,,,,,,,,,,,,,,,,,,,,,,,,,,,,,,,,,,,,,,,,,,,,,,,,1.1543209999799728,0.8272607000544667,170.723802399938,None,ScrollDown,정답입니다,170.723802399938,None,170.723802399938,None,170.723802399938,None,170.723802399938,None,171.44848050002474,None,171.44848050002474,171.94852309999987,,,,,,,,,,,,,,,,028,2022-05-23_11h18.23.695,FishGame,2022.1.1,60.02487431563846,
,26,넌 만사태평이야,3,Orange,B,4,4.333333333333333,ScrollUp,ScrollDown,Orange.png,1,Neutral,Neutral,,,,,0,0,0,0,,,,,,,,,,,,,0,25,25,25,,,,,,,,,,,,,,,,,,,,,,,,,,,,,,,,,,,,,,,,,,,,,,,,,,,,,,,,,,,,,,,,,,,,,,,,,,,,,,,,,1.658950611948967,0.8731115999398753,172.58141850004904,None,ScrollUp,정답입니다,172.58141850004904,None,172.58141850004904,None,172.58141850004904,None,172.58141850004904,None,173.3374857000308,None,173.3374857000308,173.84844940004405,,,,,,,,,,,,,,,,028,2022-05-23_11h18.23.695,FishGame,2022.1.1,60.02487431563846,
,27,넌 붙임성있어,1,Green,A,5.708333333333333,5.633333333333334,ScrollDown,ScrollUp,Green.png,1,Positive,Congruent,,,,,0,0,0,0,,,,,,,,,,,,,0,26,26,26,,,,,,,,,,,,,,,,,,,,,,,,,,,,,,,,,,,,,,,,,,,,,,,,,,,,,,,,,,,,,,,,,,,,,,,,,,,,,,,,,1.1666666616996129,0.9435593000380322,174.4742468999466,None,ScrollDown,정답입니다,174.4742468999466,None,174.4742468999466,None,174.4742468999466,None,174.4742468999466,None,175.31514379999135,None,175.31514379999135,175.81717569998,,,,,,,,,,,,,,,,028,2022-05-23_11h18.23.695,FishGame,2022.1.1,60.02487431563846,
,28,넌 영리해,2,Green,A,6,4.033333333333333,ScrollDown,ScrollUp,Green.png,1,Positive,Congruent,,,,,0,0,0,0,,,,,,,,,,,,,0,27,27,27,,,,,,,,,,,,,,,,,,,,,,,,,,,,,,,,,,,,,,,,,,,,,,,,,,,,,,,,,,,,,,,,,,,,,,,,,,,,,,,,,1.266975318392118,0.77746690006461,176.43736750003882,None,ScrollDown,정답입니다,176.43736750003882,None,176.43736750003882,None,176.43736750003882,None,176.43736750003882,None,177.11504169995897,None,177.11504169995897,177.61720840004273,,,,,,,,,,,,,,,,028,2022-05-23_11h18.23.695,FishGame,2022.1.1,60.02487431563846,
,29,넌 열심이야,1,Orange,B,6.041666666666667,5.833333333333333,ScrollUp,ScrollDown,Orange.png,1,Positive,Incongruent,,,,,0,0,0,0,,,,,,,,,,,,,0,28,28,28,,,,,,,,,,,,,,,,,,,,,,,,,,,,,,,,,,,,,,,,,,,,,,,,,,,,,,,,,,,,,,,,,,,,,,,,,,,,,,,,,1.5910493855675063,0.8935308000072837,178.2402155000018,None,ScrollUp,정답입니다,178.2402155000018,None,178.2402155000018,None,178.2402155000018,None,178.2402155000018,None,179.03160250000656,None,179.03160250000656,179.53166149999015,,,,,,,,,,,,,,,,028,2022-05-23_11h18.23.695,FishGame,2022.1.1,60.02487431563846,
,30,넌 인기없어,4,Orange,B,3,3.3,ScrollUp,ScrollDown,Orange.png,1,Negative,Congruent,,,,,0,0,0,0,,,,,,,,,,,,,0,29,29,29,,,,,,,,,,,,,,,,,,,,,,,,,,,,,,,,,,,,,,,,,,,,,,,,,,,,,,,,,,,,,,,,,,,,,,,,,,,,,,,,,1.5879629639287791,0.8757705999305472,180.1580964999739,None,ScrollUp,정답입니다,180.1580964999739,None,180.1580964999739,None,180.1580964999739,None,180.1580964999739,None,180.93159809999634,None,180.93159809999634,181.4337960999692,,,,,,,,,,,,,,,,028,2022-05-23_11h18.23.695,FishGame,2022.1.1,60.02487431563846,
,31,넌 익살스러워,3,Green,A,4.708333333333334,4.833333333333333,ScrollDown,ScrollUp,Green.png,1,Neutral,Neutral,,,,,0,0,0,0,,,,,,,,,,,,,0,30,30,30,,,,,,,,,,,,,,,,,,,,,,,,,,,,,,,,,,,,,,,,,,,,,,,,,,,,,,,,,,,,,,,,,,,,,,,,,,,,,,,,,1.2067901243766148,0.8758388001006097,182.06003479997162,None,ScrollDown,정답입니다,182.06003479997162,None,182.06003479997162,None,182.06003479997162,None,182.06003479997162,None,182.83159910002723,None,182.83159910002723,183.33387169998605,,,,,,,,,,,,,,,,028,2022-05-23_11h18.23.695,FishGame,2022.1.1,60.02487431563846,
,32,넌 이기적이야,5,Orange,B,2.291666666666667,2.333333333333333,ScrollUp,ScrollDown,Orange.png,1,Negative,Congruent,,,,,0,0,0,0,,,,,,,,,,,,,0,31,31,31,,,,,,,,,,,,,,,,,,,,,,,,,,,,,,,,,,,,,,,,,,,,,,,,,,,,,,,,,,,,,,,,,,,,,,,,,,,,,,,,,1.6203703756133714,0.8446277999319136,183.95856169995386,None,ScrollUp,정답입니다,183.95856169995386,None,183.95856169995386,None,183.95856169995386,None,183.95856169995386,None,184.69815419998486,None,184.69815419998486,185.19824319996405,,,,,,,,,,,,,,,,028,2022-05-23_11h18.23.695,FishGame,2022.1.1,60.02487431563846,
,33,나를 데려가줘,6,Orange,B,0,0,ScrollDown,ScrollUp,Orange.png,1,NonTarget,NonTarget,,,,,0,0,0,0,,,,,,,,,,,,,0,32,32,32,,,,,,,,,,,,,,,,,,,,,,,,,,,,,,,,,,,,,,,,,,,,,,,,,,,,,,,,,,,,,,,,,,,,,,,,,,,,,,,,,1.0385802288850148,1.2450572999659926,185.8270473999437,None,ScrollDown,정답입니다,185.8270473999437,None,185.8270473999437,None,185.8270473999437,None,185.8270473999437,None,186.96481909998693,None,186.96481909998693,187.46509379998315,,,,,,,,,,,,,,,,028,2022-05-23_11h18.23.695,FishGame,2022.1.1,60.02487431563846,
,34,넌 기회주의자야,5,Green,A,2.875,2.133333333333333,ScrollDown,ScrollUp,Green.png,1,Negative,Incongruent,,,,,0,0,0,0,,,,,,,,,,,,,0,33,33,33,,,,,,,,,,,,,,,,,,,,,,,,,,,,,,,,,,,,,,,,,,,,,,,,,,,,,,,,,,,,,,,,,,,,,,,,,,,,,,,,,1.2175925970077515,1.3091557000298053,188.0916737000225,None,ScrollDown,정답입니다,188.0916737000225,None,188.0916737000225,None,188.0916737000225,None,188.0916737000225,None,189.3003634000197,None,189.3003634000197,189.81485990004148,,,,,,,,,,,,,,,,028,2022-05-23_11h18.23.695,FishGame,2022.1.1,60.02487431563846,
,1,넌 미성숙해,4,Green,A,3,3.2,ScrollDown,ScrollUp,Green.png,2,Negative,Incongruent,,,,,0,0,0,0,,,,,,,,,,,,,,,,,0,0,0,0,,,,,,,,,,,,,,,,,,,,,,,,,,,,,,,,,,,,226.01403219997883,227.5141033999389,227.54984240001068,228.51409740000963,228.54975530004594,229.5141049999511,229.49753890000284,None,,,,,,,,,,,,,,,,,,,,,,,,,,,,,,,,,,1.0555555323759716,1.1694666999392211,230.59418919996824,None,ScrollDown,정답입니다,230.59418919996824,None,230.59418919996824,None,230.59418919996824,None,230.59418919996824,None,231.6639901000308,None,231.6639901000308,232.16401609999593,190.3037309999345,None,190.3037309999345,None,0.073148146,-0.1,1,0,0,0.01617327006533742,None,220.31662629998755,None,,,028,2022-05-23_11h18.23.695,FishGame,2022.1.1,60.02487431563846,
,2,넌 반사회적이야,5,Orange,B,2.416666666666667,2.033333333333333,ScrollUp,ScrollDown,Orange.png,2,Negative,Congruent,,,,,0,0,0,0,,,,,,,,,,,,,,,,,0,1,1,1,,,,,,,,,,,,,,,,,,,,,,,,,,,,,,,,,,,,,,,,,,,,,,,,,,,,,,,,,,,,,,,,,,,,,,,,,,,,,1.6172839477658272,0.9799873000010848,232.78978039999492,None,ScrollUp,정답입니다,232.78978039999492,None,232.78978039999492,None,232.78978039999492,None,232.78978039999492,None,233.6639377999818,None,233.6639377999818,234.1639738000231,,,,,,,,,,,,,,,,028,2022-05-23_11h18.23.695,FishGame,2022.1.1,60.02487431563846,
,3,넌 유능해,2,Green,A,6.208333333333333,4.433333333333334,ScrollDown,ScrollUp,Green.png,2,Positive,Congruent,,,,,0,0,0,0,,,,,,,,,,,,,,,,,0,2,2,2,,,,,,,,,,,,,,,,,,,,,,,,,,,,,,,,,,,,,,,,,,,,,,,,,,,,,,,,,,,,,,,,,,,,,,,,,,,,,1.1666666616996129,0.9100704999873415,234.78878960001748,None,ScrollDown,정답입니다,234.78878960001748,None,234.78878960001748,None,234.78878960001748,None,234.78878960001748,None,235.59726129996125,None,235.59726129996125,236.09940529998858,,,,,,,,,,,,,,,,028,2022-05-23_11h18.23.695,FishGame,2022.1.1,60.02487431563846,
,4,넌 능숙해,2,Orange,B,5.666666666666667,4.733333333333333,ScrollUp,ScrollDown,Orange.png,2,Positive,Incongruent,,,,,0,0,0,0,,,,,,,,,,,,,,,,,0,3,3,3,,,,,,,,,,,,,,,,,,,,,,,,,,,,,,,,,,,,,,,,,,,,,,,,,,,,,,,,,,,,,,,,,,,,,,,,,,,,,1.7762345721324284,1.0088587999343872,236.7250905999681,None,ScrollUp,정답입니다,236.7250905999681,None,236.7250905999681,None,236.7250905999681,None,236.7250905999681,None,237.63024780002888,None,237.63024780002888,238.1303185999859,,,,,,,,,,,,,,,,028,2022-05-23_11h18.23.695,FishGame,2022.1.1,60.02487431563846,
,5,넌 진부해,4,Orange,B,2.458333333333333,3.166666666666667,ScrollUp,ScrollDown,Orange.png,2,Negative,Congruent,,,,,0,0,0,0,,,,,,,,,,,,,,,,,0,4,4,4,,,,,,,,,,,,,,,,,,,,,,,,,,,,,,,,,,,,,,,,,,,,,,,,,,,,,,,,,,,,,,,,,,,,,,,,,,,,,1.733024681607882,0.8115903999423608,238.75940939993598,None,ScrollUp,정답입니다,238.75940939993598,None,238.75940939993598,None,238.75940939993598,None,238.75940939993598,None,239.46359419997316,None,239.46359419997316,239.966090300004,,,,,,,,,,,,,,,,028,2022-05-23_11h18.23.695,FishGame,2022.1.1,60.02487431563846,
,6,나를 보내줘,6,Green,A,0,0,ScrollUp,ScrollDown,Green.png,2,NonTarget,NonTarget,,,,,0,0,0,0,,,,,,,,,,,,,,,,,0,5,5,5,,,,,,,,,,,,,,,,,,,,,,,,,,,,,,,,,,,,,,,,,,,,,,,,,,,,,,,,,,,,,,,,,,,,,,,,,,,,,1.8117283930381138,1.0462762999814004,240.5826270999387,None,ScrollUp,정답입니다,240.5826270999387,None,240.5826270999387,None,240.5826270999387,None,240.5826270999387,None,241.53284570004325,None,241.53284570004325,242.03588650003076,,,,,,,,,,,,,,,,028,2022-05-23_11h18.23.695,FishGame,2022.1.1,60.02487431563846,
,7,넌 엄격해,3,Green,A,4.166666666666666,4.1,ScrollDown,ScrollUp,Green.png,2,Neutral,Neutral,,,,,0,0,0,0,,,,,,,,,,,,,,,,,0,6,6,6,,,,,,,,,,,,,,,,,,,,,,,,,,,,,,,,,,,,,,,,,,,,,,,,,,,,,,,,,,,,,,,,,,,,,,,,,,,,,1.7546296268701553,0.9591944999992847,242.65777119994164,None,ScrollUp,오답입니다,242.65777119994164,None,242.65777119994164,None,242.65777119994164,None,242.65777119994164,None,243.51381180004682,None,243.51381180004682,244.01378409995232,,,,,,,,,,,,,,,,028,2022-05-23_11h18.23.695,FishGame,2022.1.1,60.02487431563846,
,8,나를 보내줘,6,Green,A,0,0,ScrollUp,ScrollDown,Green.png,2,NonTarget,NonTarget,,,,,0,0,0,0,,,,,,,,,,,,,,,,,0,7,7,7,,,,,,,,,,,,,,,,,,,,,,,,,,,,,,,,,,,,,,,,,,,,,,,,,,,,,,,,,,,,,,,,,,,,,,,,,,,,,1.7206790198882422,0.9093833999941126,244.64133509993553,None,ScrollUp,정답입니다,244.64133509993553,None,244.64133509993553,None,244.64133509993553,None,244.64133509993553,None,245.4470363999717,None,245.4470363999717,245.94707410002593,,,,,,,,,,,,,,,,028,2022-05-23_11h18.23.695,FishGame,2022.1.1,60.02487431563846,
,9,넌 대담해,3,Orange,B,4.875,4.866666666666666,ScrollUp,ScrollDown,Orange.png,2,Neutral,Neutral,,,,,0,0,0,0,,,,,,,,,,,,,,,,,0,8,8,8,,,,,,,,,,,,,,,,,,,,,,,,,,,,,,,,,,,,,,,,,,,,,,,,,,,,,,,,,,,,,,,,,,,,,,,,,,,,,1.5524691368142762,1.2593122000107542,246.5766741000116,None,ScrollUp,정답입니다,246.5766741000116,None,246.5766741000116,None,246.5766741000116,None,246.5766741000116,None,247.73249700001907,None,247.73249700001907,248.24925989995245,,,,,,,,,,,,,,,,028,2022-05-23_11h18.23.695,FishGame,2022.1.1,60.02487431563846,
,10,넌 꾸준해,1,Green,A,5.916666666666668,5.8,ScrollDown,ScrollUp,Green.png,2,Positive,Congruent,,,,,0,0,0,0,,,,,,,,,,,,,,,,,0,9,9,9,,,,,,,,,,,,,,,,,,,,,,,,,,,,,,,,,,,,,,,,,,,,,,,,,,,,,,,,,,,,,,,,,,,,,,,,,,,,,1.1898148208856583,0.9275684000458568,248.85563939996064,None,ScrollDown,정답입니다,248.85563939996064,None,248.85563939996064,None,248.85563939996064,None,248.85563939996064,None,249.68022079998627,None,249.68022079998627,250.18030430004,,,,,,,,,,,,,,,,028,2022-05-23_11h18.23.695,FishGame,2022.1.1,60.02487431563846,
,11,나를 데려가줘,6,Orange,B,0,0,ScrollDown,ScrollUp,Orange.png,2,NonTarget,NonTarget,,,,,0,0,0,0,,,,,,,,,,,,,,,,,0,10,10,10,,,,,,,,,,,,,,,,,,,,,,,,,,,,,,,,,,,,,,,,,,,,,,,,,,,,,,,,,,,,,,,,,,,,,,,,,,,,,1,1.1446009000064805,250.80520659999456,None,ScrollDown,정답입니다,250.80520659999456,None,250.80520659999456,None,250.80520659999456,None,250.80520659999456,None,251.84688660001848,None,251.84688660001848,252.34696590004023,,,,,,,,,,,,,,,,028,2022-05-23_11h18.23.695,FishGame,2022.1.1,60.02487431563846,
,12,넌 독선적이야,5,Green,A,2.458333333333333,1.933333333333333,ScrollDown,ScrollUp,Green.png,2,Negative,Incongruent,,,,,0,0,0,0,,,,,,,,,,,,,,,,,0,11,11,11,,,,,,,,,,,,,,,,,,,,,,,,,,,,,,,,,,,,,,,,,,,,,,,,,,,,,,,,,,,,,,,,,,,,,,,,,,,,,1.1342592686414719,0.9443527000257745,252.97665339999367,None,ScrollDown,정답입니다,252.97665339999367,None,252.97665339999367,None,252.97665339999367,None,252.97665339999367,None,253.81355059996713,None,253.81355059996713,254.3157605000306,,,,,,,,,,,,,,,,028,2022-05-23_11h18.23.695,FishGame,2022.1.1,60.02487431563846,
,13,나를 보내줘,6,Green,A,0,0,ScrollUp,ScrollDown,Green.png,2,NonTarget,NonTarget,,,,,0,0,0,0,,,,,,,,,,,,,,,,,0,12,12,12,,,,,,,,,,,,,,,,,,,,,,,,,,,,,,,,,,,,,,,,,,,,,,,,,,,,,,,,,,,,,,,,,,,,,,,,,,,,,1.7716049303611119,1.1771131999557838,254.94279490003828,None,ScrollUp,정답입니다,254.94279490003828,None,254.94279490003828,None,254.94279490003828,None,254.94279490003828,None,256.0156881000148,None,256.0156881000148,256.51568650000263,,,,,,,,,,,,,,,,028,2022-05-23_11h18.23.695,FishGame,2022.1.1,60.02487431563846,
,14,넌 책임감있어,1,Orange,B,6.347826086956522,6,ScrollUp,ScrollDown,Orange.png,2,Positive,Incongruent,,,,,0,0,0,0,,,,,,,,,,,,,,,,,0,13,13,13,,,,,,,,,,,,,,,,,,,,,,,,,,,,,,,,,,,,,,,,,,,,,,,,,,,,,,,,,,,,,,,,,,,,,,,,,,,,,1.6172839477658272,0.7932946000946686,257.1401559000369,None,ScrollUp,정답입니다,257.1401559000369,None,257.1401559000369,None,257.1401559000369,None,257.1401559000369,None,257.83015739999246,None,257.83015739999246,258.33026319998316,,,,,,,,,,,,,,,,028,2022-05-23_11h18.23.695,FishGame,2022.1.1,60.02487431563846,
,15,넌 문학적이야,3,Green,A,4.708333333333334,4.333333333333333,ScrollDown,ScrollUp,Green.png,2,Neutral,Neutral,,,,,0,0,0,0,,,,,,,,,,,,,,,,,0,14,14,14,,,,,,,,,,,,,,,,,,,,,,,,,,,,,,,,,,,,,,,,,,,,,,,,,,,,,,,,,,,,,,,,,,,,,,,,,,,,,1.200617293516795,1.1789586999220774,258.9633777999552,None,ScrollDown,정답입니다,258.9633777999552,None,258.9633777999552,None,258.9633777999552,None,258.9633777999552,None,260.03016940003727,None,260.03016940003727,260.53009000001475,,,,,,,,,,,,,,,,028,2022-05-23_11h18.23.695,FishGame,2022.1.1,60.02487431563846,
,16,넌 재미있어,1,Orange,B,5.875,5.7,ScrollUp,ScrollDown,Orange.png,2,Positive,Incongruent,,,,,0,0,0,0,,,,,,,,,,,,,,,,,0,15,15,15,,,,,,,,,,,,,,,,,,,,,,,,,,,,,,,,,,,,,,,,,,,,,,,,,,,,,,,,,,,,,,,,,,,,,,,,,,,,,1.7391975373029709,0.9090574999572709,261.1542366000358,None,ScrollUp,정답입니다,261.1542366000358,None,261.1542366000358,None,261.1542366000358,None,261.1542366000358,None,261.9633937999606,None,261.9633937999606,262.46570099995006,,,,,,,,,,,,,,,,028,2022-05-23_11h18.23.695,FishGame,2022.1.1,60.02487431563846,
,17,나를 데려가줘,6,Orange,B,0,0,ScrollDown,ScrollUp,Orange.png,2,NonTarget,NonTarget,,,,,0,0,0,0,,,,,,,,,,,,,,,,,0,16,16,16,,,,,,,,,,,,,,,,,,,,,,,,,,,,,,,,,,,,,,,,,,,,,,,,,,,,,,,,,,,,,,,,,,,,,,,,,,,,,1.1095678955316544,1.3929351998958737,263.0905952999601,None,ScrollDown,정답입니다,263.0905952999601,None,263.0905952999601,None,263.0905952999601,None,263.0905952999601,None,264.37972159998026,None,264.37972159998026,264.87979409995023,,,,,,,,,,,,,,,,028,2022-05-23_11h18.23.695,FishGame,2022.1.1,60.02487431563846,
,18,넌 협력적이야,1,Green,A,5.625,5.633333333333334,ScrollDown,ScrollUp,Green.png,2,Positive,Congruent,,,,,0,0,0,0,,,,,,,,,,,,,,,,,0,17,17,17,,,,,,,,,,,,,,,,,,,,,,,,,,,,,,,,,,,,,,,,,,,,,,,,,,,,,,,,,,,,,,,,,,,,,,,,,,,,,1.0540123681227367,1.01193899998907,265.5038055999903,None,ScrollDown,정답입니다,265.5038055999903,None,265.5038055999903,None,265.5038055999903,None,265.5038055999903,None,266.4155247999588,None,266.4155247999588,266.91556320001837,,,,,,,,,,,,,,,,028,2022-05-23_11h18.23.695,FishGame,2022.1.1,60.02487431563846,
,19,넌 평범해,3,Orange,B,4.333333333333332,4.233333333333333,ScrollUp,ScrollDown,Orange.png,2,Neutral,Neutral,,,,,0,0,0,0,,,,,,,,,,,,,,,,,0,18,18,18,,,,,,,,,,,,,,,,,,,,,,,,,,,,,,,,,,,,,,,,,,,,,,,,,,,,,,,,,,,,,,,,,,,,,,,,,,,,,1.7175925920406976,0.9294477999210358,267.5368667000439,None,ScrollUp,정답입니다,267.5368667000439,None,267.5368667000439,None,267.5368667000439,None,267.5368667000439,None,268.3654228999512,None,268.3654228999512,268.8654300000053,,,,,,,,,,,,,,,,028,2022-05-23_11h18.23.695,FishGame,2022.1.1,60.02487431563846,
,20,넌 오만해,5,Green,A,2.333333333333333,2,ScrollDown,ScrollUp,Green.png,2,Negative,Incongruent,,,,,0,0,0,0,,,,,,,,,,,,,,,,,0,19,19,19,,,,,,,,,,,,,,,,,,,,,,,,,,,,,,,,,,,,,,,,,,,,,,,,,,,,,,,,,,,,,,,,,,,,,,,,,,,,,1.0493827263514202,0.992533199954778,269.489711000002,None,ScrollDown,정답입니다,269.489711000002,None,269.489711000002,None,269.489711000002,None,269.489711000002,None,270.38215650001075,None,270.38215650001075,270.87997799995355,,,,,,,,,,,,,,,,028,2022-05-23_11h18.23.695,FishGame,2022.1.1,60.02487431563846,
,21,넌 운이없어,4,Orange,B,3,3.466666666666667,ScrollUp,ScrollDown,Orange.png,2,Negative,Congruent,,,,,0,0,0,0,,,,,,,,,,,,,,,,,0,20,20,20,,,,,,,,,,,,,,,,,,,,,,,,,,,,,,,,,,,,,,,,,,,,,,,,,,,,,,,,,,,,,,,,,,,,,,,,,,,,,1.807098776102066,1.0091097000986338,271.5073145000497,None,ScrollUp,정답입니다,271.5073145000497,None,271.5073145000497,None,271.5073145000497,None,271.5073145000497,None,272.4132393000182,None,272.4132393000182,272.9132115000393,,,,,,,,,,,,,,,,028,2022-05-23_11h18.23.695,FishGame,2022.1.1,60.02487431563846,
,22,넌 창조적이야,2,Orange,B,6.125,4.633333333333334,ScrollUp,ScrollDown,Orange.png,2,Positive,Incongruent,,,,,0,0,0,0,,,,,,,,,,,,,,,,,0,21,21,21,,,,,,,,,,,,,,,,,,,,,,,,,,,,,,,,,,,,,,,,,,,,,,,,,,,,,,,,,,,,,,,,,,,,,,,,,,,,,1.703703703979651,1.011342199984938,273.54314790002536,None,ScrollUp,정답입니다,273.54314790002536,None,273.54314790002536,None,273.54314790002536,None,273.54314790002536,None,274.4464720999822,None,274.4464720999822,274.9487261000322,,,,,,,,,,,,,,,,028,2022-05-23_11h18.23.695,FishGame,2022.1.1,60.02487431563846,
,23,나를 보내줘,6,Green,A,0,0,ScrollUp,ScrollDown,Green.png,2,NonTarget,NonTarget,,,,,0,0,0,0,,,,,,,,,,,,,,,,,0,22,22,22,,,,,,,,,,,,,,,,,,,,,,,,,,,,,,,,,,,,,,,,,,,,,,,,,,,,,,,,,,,,,,,,,,,,,,,,,,,,,1.68364197264115,1.0463152000447735,275.5652986000059,None,ScrollUp,정답입니다,275.5652986000059,None,275.5652986000059,None,275.5652986000059,None,275.5652986000059,None,276.513071399997,None,276.513071399997,277.01324330002535,,,,,,,,,,,,,,,,028,2022-05-23_11h18.23.695,FishGame,2022.1.1,60.02487431563846,
,24,넌 통찰력있어,2,Green,A,6.5,4.8,ScrollDown,ScrollUp,Green.png,2,Positive,Congruent,,,,,0,0,0,0,,,,,,,,,,,,,,,,,0,23,23,23,,,,,,,,,,,,,,,,,,,,,,,,,,,,,,,,,,,,,,,,,,,,,,,,,,,,,,,,,,,,,,,,,,,,,,,,,,,,,1.1435185273488362,0.9779592999257147,277.64416709996294,None,ScrollDown,정답입니다,277.64416709996294,None,277.64416709996294,None,277.64416709996294,None,277.64416709996294,None,278.5130534999771,None,278.5130534999771,279.01311059994623,,,,,,,,,,,,,,,,028,2022-05-23_11h18.23.695,FishGame,2022.1.1,60.02487431563846,
,25,넌 경솔해,5,Orange,B,2.458333333333333,2.266666666666667,ScrollUp,ScrollDown,Orange.png,2,Negative,Congruent,,,,,0,0,0,0,,,,,,,,,,,,,,,,,0,24,24,24,,,,,,,,,,,,,,,,,,,,,,,,,,,,,,,,,,,,,,,,,,,,,,,,,,,,,,,,,,,,,,,,,,,,,,,,,,,,,1.609567902982235,0.9259942000498995,279.63910379994195,None,ScrollUp,정답입니다,279.63910379994195,None,279.63910379994195,None,279.63910379994195,None,279.63910379994195,None,280.46522160002496,None,280.46522160002496,280.9653207999654,,,,,,,,,,,,,,,,028,2022-05-23_11h18.23.695,FishGame,2022.1.1,60.02487431563846,
,26,넌 초조해,4,Green,A,2.916666666666667,3.133333333333333,ScrollDown,ScrollUp,Green.png,2,Negative,Incongruent,,,,,0,0,0,0,,,,,,,,,,,,,,,,,0,25,25,25,,,,,,,,,,,,,,,,,,,,,,,,,,,,,,,,,,,,,,,,,,,,,,,,,,,,,,,,,,,,,,,,,,,,,,,,,,,,,1.1033950646718342,1.0763125999365002,281.5865862000501,None,ScrollDown,정답입니다,281.5865862000501,None,281.5865862000501,None,281.5865862000501,None,281.5865862000501,None,282.56293529993854,None,282.56293529993854,283.0629901000066,,,,,,,,,,,,,,,,028,2022-05-23_11h18.23.695,FishGame,2022.1.1,60.02487431563846,
,27,넌 무관심해,4,Orange,B,2.833333333333333,2.9,ScrollUp,ScrollDown,Orange.png,2,Negative,Congruent,,,,,0,0,0,0,,,,,,,,,,,,,,,,,0,26,26,26,,,,,,,,,,,,,,,,,,,,,,,,,,,,,,,,,,,,,,,,,,,,,,,,,,,,,,,,,,,,,,,,,,,,,,,,,,,,,1.6574074104428291,0.8613746999762952,283.6932663000189,None,ScrollUp,정답입니다,283.6932663000189,None,283.6932663000189,None,283.6932663000189,None,283.6932663000189,None,284.44636049994733,None,284.44636049994733,284.9485567000229,,,,,,,,,,,,,,,,028,2022-05-23_11h18.23.695,FishGame,2022.1.1,60.02487431563846,
,28,넌 감성적이야,3,Orange,B,4.125,4.166666666666667,ScrollUp,ScrollDown,Orange.png,2,Neutral,Neutral,,,,,0,0,0,0,,,,,,,,,,,,,,,,,0,27,27,27,,,,,,,,,,,,,,,,,,,,,,,,,,,,,,,,,,,,,,,,,,,,,,,,,,,,,,,,,,,,,,,,,,,,,,,,,,,,,1.7407407512267432,0.9424682999961078,285.57248800003435,None,ScrollUp,정답입니다,285.57248800003435,None,285.57248800003435,None,285.57248800003435,None,285.57248800003435,None,286.41283259994816,None,286.41283259994816,286.9129166000057,,,,,,,,,,,,,,,,028,2022-05-23_11h18.23.695,FishGame,2022.1.1,60.02487431563846,
,29,넌 배려심있어,1,Green,A,6.083333333333333,5.5,ScrollDown,ScrollUp,Green.png,2,Positive,Congruent,,,,,0,0,0,0,,,,,,,,,,,,,,,,,0,28,28,28,,,,,,,,,,,,,,,,,,,,,,,,,,,,,,,,,,,,,,,,,,,,,,,,,,,,,,,,,,,,,,,,,,,,,,,,,,,,,1.1975308656692505,0.9279597999993712,287.54460020002443,None,ScrollDown,정답입니다,287.54460020002443,None,287.54460020002443,None,287.54460020002443,None,287.54460020002443,None,288.3628873999696,None,288.3628873999696,288.8629074000055,,,,,,,,,,,,,,,,028,2022-05-23_11h18.23.695,FishGame,2022.1.1,60.02487431563846,
,30,넌 숨김없어,3,Green,A,4.5,4.933333333333334,ScrollDown,ScrollUp,Green.png,2,Neutral,Neutral,,,,,0,0,0,0,,,,,,,,,,,,,,,,,0,29,29,29,,,,,,,,,,,,,,,,,,,,,,,,,,,,,,,,,,,,,,,,,,,,,,,,,,,,,,,,,,,,,,,,,,,,,,,,,,,,,1.140432099501292,0.8451100999955088,289.48831579997204,None,ScrollDown,정답입니다,289.48831579997204,None,289.48831579997204,None,289.48831579997204,None,289.48831579997204,None,290.2295219999505,None,290.2295219999505,290.7317456000019,,,,,,,,,,,,,,,,028,2022-05-23_11h18.23.695,FishGame,2022.1.1,60.02487431563846,
,31,넌 훌륭해,2,Orange,B,5.916666666666667,4.033333333333333,ScrollUp,ScrollDown,Orange.png,2,Positive,Incongruent,,,,,0,0,0,0,,,,,,,,,,,,,,,,,0,30,30,30,,,,,,,,,,,,,,,,,,,,,,,,,,,,,,,,,,,,,,,,,,,,,,,,,,,,,,,,,,,,,,,,,,,,,,,,,,,,,1.6466049378116927,0.7599510999862105,291.35613229998853,None,ScrollUp,정답입니다,291.35613229998853,None,291.35613229998853,None,291.35613229998853,None,291.35613229998853,None,292.0185897999909,None,292.0185897999909,292.52961129997857,,,,,,,,,,,,,,,,028,2022-05-23_11h18.23.695,FishGame,2022.1.1,60.02487431563846,
,32,넌 슬기로워,2,Green,A,6.166666666666667,4.1,ScrollDown,ScrollUp,Green.png,2,Positive,Congruent,,,,,0,0,0,0,,,,,,,,,,,,,,,,,0,31,31,31,,,,,,,,,,,,,,,,,,,,,,,,,,,,,,,,,,,,,,,,,,,,,,,,,,,,,,,,,,,,,,,,,,,,,,,,,,,,,1.2314814726511638,0.8283594999229535,293.1508930999553,None,ScrollDown,정답입니다,293.1508930999553,None,293.1508930999553,None,293.1508930999553,None,293.1508930999553,None,293.8793719999958,None,293.8793719999958,294.3816300999606,,,,,,,,,,,,,,,,028,2022-05-23_11h18.23.695,FishGame,2022.1.1,60.02487431563846,
,33,넌 냉혹해,5,Green,A,2.583333333333333,2.1,ScrollDown,ScrollUp,Green.png,2,Negative,Incongruent,,,,,0,0,0,0,,,,,,,,,,,,,,,,,0,32,32,32,,,,,,,,,,,,,,,,,,,,,,,,,,,,,,,,,,,,,,,,,,,,,,,,,,,,,,,,,,,,,,,,,,,,,,,,,,,,,1.2160493830839794,0.7428535000653937,295.0080114000011,None,ScrollDown,정답입니다,295.0080114000011,None,295.0080114000011,None,295.0080114000011,None,295.0080114000011,None,295.6461333000334,None,295.6461333000334,296.1461781000253,,,,,,,,,,,,,,,,028,2022-05-23_11h18.23.695,FishGame,2022.1.1,60.02487431563846,
,34,나를 데려가줘,6,Orange,B,0,0,ScrollDown,ScrollUp,Orange.png,2,NonTarget,NonTarget,,,,,0,0,0,0,,,,,,,,,,,,,,,,,0,33,33,33,,,,,,,,,,,,,,,,,,,,,,,,,,,,,,,,,,,,,,,,,,,,,,,,,,,,,,,,,,,,,,,,,,,,,,,,,,,,,1.0447530845801036,1.0776021999772638,296.7680240999907,None,ScrollDown,정답입니다,296.7680240999907,None,296.7680240999907,None,296.7680240999907,None,296.7680240999907,None,297.7457335999934,None,297.7457335999934,298.24579840002116,,,,,,,,,,,,,,,,028,2022-05-23_11h18.23.695,FishGame,2022.1.1,60.02487431563846,
,35,넌 편파적이야,5,Orange,B,2.125,2,ScrollUp,ScrollDown,Orange.png,2,Negative,Congruent,,,,,0,0,0,0,,,,,,,,,,,,,,,,,0,34,34,34,,,,,,,,,,,,,,,,,,,,,,,,,,,,,,,,,,,,,,,,,,,,,,,,,,,,,,,,,,,,,,,,,,,,,,,,,,,,,1.7083333333333335,0.7956938999705017,298.8695463000331,None,ScrollUp,정답입니다,298.8695463000331,None,298.8695463000331,None,298.8695463000331,None,298.8695463000331,None,299.5650631999597,None,299.5650631999597,300.0651559999678,,,,,,,,,,,,,,,,028,2022-05-23_11h18.23.695,FishGame,2022.1.1,60.02487431563846,
,36,넌 슬퍼,4,Green,A,2.583333333333333,3.066666666666667,ScrollDown,ScrollUp,Green.png,2,Negative,Incongruent,,,,,0,0,0,0,,,,,,,,,,,,,,,,,0,35,35,35,,,,,,,,,,,,,,,,,,,,,,,,,,,,,,,,,,,,,,,,,,,,,,,,,,,,,,,,,,,,,,,,,,,,,,,,,,,,,1.1527777860562007,0.7463731000898406,300.6861164999427,None,ScrollDown,정답입니다,300.6861164999427,None,300.6861164999427,None,300.6861164999427,None,300.6861164999427,None,301.33169969997834,None,301.33169969997834,301.83180339995306,,,,,,,,,,,,,,,,028,2022-05-23_11h18.23.695,FishGame,2022.1.1,60.02487431563846,
,37,나를 데려가줘,6,Orange,B,0,0,ScrollDown,ScrollUp,Orange.png,2,NonTarget,NonTarget,,,,,0,0,0,0,,,,,,,,,,,,,,,,,0,36,36,36,,,,,,,,,,,,,,,,,,,,,,,,,,,,,,,,,,,,,,,,,,,,,,,,,,,,,,,,,,,,,,,,,,,,,,,,,,,,,1.0015431940555573,0.9269830000121146,302.4513019999722,None,ScrollDown,정답입니다,302.4513019999722,None,302.4513019999722,None,302.4513019999722,None,302.4513019999722,None,303.27926470001694,None,303.27926470001694,303.7814518000232,,,,,,,,,,,,,,,,028,2022-05-23_11h18.23.695,FishGame,2022.1.1,60.02487431563846,
,38,넌 친절해,1,Orange,B,6.041666666666667,5.533333333333333,ScrollUp,ScrollDown,Orange.png,2,Positive,Incongruent,,,,,0,0,0,0,,,,,,,,,,,,,,,,,0,37,37,37,,,,,,,,,,,,,,,,,,,,,,,,,,,,,,,,,,,,,,,,,,,,,,,,,,,,,,,,,,,,,,,,,,,,,,,,,,,,,1.7314814925193787,0.876557599985972,304.4096945000347,None,ScrollUp,정답입니다,304.4096945000347,None,304.4096945000347,None,304.4096945000347,None,304.4096945000347,None,305.17892720003147,None,305.17892720003147,305.67898860003334,,,,,,,,,,,,,,,,028,2022-05-23_11h18.23.695,FishGame,2022.1.1,60.02487431563846,
,1,넌 엉성해,4,Green,A,3,3.3,ScrollDown,ScrollUp,Green.png,3,Negative,Incongruent,,,,,0,0,0,0,,,,,,,,,,,,,,,,,,,,,0,0,0,0,,,,,,,,,,,,,,,,,,,,,,,,,,,,,,,,338.04518559994176,339.54768029996194,339.5810611000052,340.5475393999368,340.57861079997383,341.5285605000099,341.5285605000099,None,,,,,,,,,,,,,,,,,,,,,,,,,,,,,,,,,,1.0509259402751923,1.120990699972026,342.6228151000105,None,ScrollDown,정답입니다,342.6228151000105,None,342.6228151000105,None,342.6228151000105,None,342.6228151000105,None,343.6451664000051,None,343.6451664000051,344.1453075000318,306.178985800012,None,306.178985800012,None,0.05462963,-0.097222224,1,0,0,0.016174569842405617,None,336.1807225999655,None,,,028,2022-05-23_11h18.23.695,FishGame,2022.1.1,60.02487431563846,
,2,나를 보내줘,6,Green,A,0,0,ScrollUp,ScrollDown,Green.png,3,NonTarget,NonTarget,,,,,0,0,0,0,,,,,,,,,,,,,,,,,,,,,0,1,1,1,,,,,,,,,,,,,,,,,,,,,,,,,,,,,,,,,,,,,,,,,,,,,,,,,,,,,,,,,,,,,,,,,,,,,,,,,1.6820987711350122,1.0613298000534996,344.7648130999878,None,ScrollUp,정답입니다,344.7648130999878,None,344.7648130999878,None,344.7648130999878,None,344.7648130999878,None,345.72839409997687,None,345.72839409997687,346.2284390999703,,,,,,,,,,,,,,,,028,2022-05-23_11h18.23.695,FishGame,2022.1.1,60.02487431563846,
,3,넌 활발해,1,Orange,B,5.666666666666667,5.6,ScrollUp,ScrollDown,Orange.png,3,Positive,Incongruent,,,,,0,0,0,0,,,,,,,,,,,,,,,,,,,,,0,2,2,2,,,,,,,,,,,,,,,,,,,,,,,,,,,,,,,,,,,,,,,,,,,,,,,,,,,,,,,,,,,,,,,,,,,,,,,,,1.6620370397965112,0.8616055999882519,346.85886929999106,None,ScrollUp,정답입니다,346.85886929999106,None,346.85886929999106,None,346.85886929999106,None,346.85886929999106,None,347.61179160000756,None,347.61179160000756,348.11213080002926,,,,,,,,,,,,,,,,028,2022-05-23_11h18.23.695,FishGame,2022.1.1,60.02487431563846,
,4,넌 논리적이야,2,Green,A,5.666666666666666,4.633333333333334,ScrollDown,ScrollUp,Green.png,3,Positive,Congruent,,,,,0,0,0,0,,,,,,,,,,,,,,,,,,,,,0,3,3,3,,,,,,,,,,,,,,,,,,,,,,,,,,,,,,,,,,,,,,,,,,,,,,,,,,,,,,,,,,,,,,,,,,,,,,,,,1.2175925970077515,0.9261436000233516,348.7453151999507,None,ScrollDown,정답입니다,348.7453151999507,None,348.7453151999507,None,348.7453151999507,None,348.7453151999507,None,349.5616673999466,None,349.5616673999466,350.0620828999672,,,,,,,,,,,,,,,,028,2022-05-23_11h18.23.695,FishGame,2022.1.1,60.02487431563846,
,5,넌 과묵해,3,Green,A,3.875,4.4,ScrollDown,ScrollUp,Green.png,3,Neutral,Neutral,,,,,0,0,0,0,,,,,,,,,,,,,,,,,,,,,0,4,4,4,,,,,,,,,,,,,,,,,,,,,,,,,,,,,,,,,,,,,,,,,,,,,,,,,,,,,,,,,,,,,,,,,,,,,,,,,1.2206790000200272,0.7934051000047475,350.6869609999703,None,ScrollDown,정답입니다,350.6869609999703,None,350.6869609999703,None,350.6869609999703,None,350.6869609999703,None,351.37830330000725,None,351.37830330000725,351.87831149995327,,,,,,,,,,,,,,,,028,2022-05-23_11h18.23.695,FishGame,2022.1.1,60.02487431563846,
,6,나를 데려가줘,6,Orange,B,0,0,ScrollDown,ScrollUp,Orange.png,3,NonTarget,NonTarget,,,,,0,0,0,0,,,,,,,,,,,,,,,,,,,,,0,5,5,5,,,,,,,,,,,,,,,,,,,,,,,,,,,,,,,,,,,,,,,,,,,,,,,,,,,,,,,,,,,,,,,,,,,,,,,,,1,0.994723099982366,352.50238269998226,None,ScrollDown,정답입니다,352.50238269998226,None,352.50238269998226,None,352.50238269998226,None,352.50238269998226,None,353.3971410000231,None,353.3971410000231,353.91147409996483,,,,,,,,,,,,,,,,028,2022-05-23_11h18.23.695,FishGame,2022.1.1,60.02487431563846,
,7,넌 미숙해,4,Orange,B,3,3,ScrollUp,ScrollDown,Orange.png,3,Negative,Congruent,,,,,0,0,0,0,,,,,,,,,,,,,,,,,,,,,0,6,6,6,,,,,,,,,,,,,,,,,,,,,,,,,,,,,,,,,,,,,,,,,,,,,,,,,,,,,,,,,,,,,,,,,,,,,,,,,1.6944444452722869,0.8601734999101609,354.51791559997946,None,ScrollUp,정답입니다,354.51791559997946,None,354.51791559997946,None,354.51791559997946,None,354.51791559997946,None,355.2779671000317,None,355.2779671000317,355.7780362999765,,,,,,,,,,,,,,,,028,2022-05-23_11h18.23.695,FishGame,2022.1.1,60.02487431563846,
,8,나를 보내줘,6,Green,A,0,0,ScrollUp,ScrollDown,Green.png,3,NonTarget,NonTarget,,,,,0,0,0,0,,,,,,,,,,,,,,,,,,,,,0,7,7,7,,,,,,,,,,,,,,,,,,,,,,,,,,,,,,,,,,,,,,,,,,,,,,,,,,,,,,,,,,,,,,,,,,,,,,,,,1.723765422900518,0.9447501000249758,356.3980656999629,None,ScrollUp,정답입니다,356.3980656999629,None,356.3980656999629,None,356.3980656999629,None,356.3980656999629,None,357.2446345000062,None,357.2446345000062,357.74713939998765,,,,,,,,,,,,,,,,028,2022-05-23_11h18.23.695,FishGame,2022.1.1,60.02487431563846,
,9,넌 자신만만해,3,Orange,B,4.833333333333334,4.333333333333333,ScrollUp,ScrollDown,Orange.png,3,Neutral,Neutral,,,,,0,0,0,0,,,,,,,,,,,,,,,,,,,,,0,8,8,8,,,,,,,,,,,,,,,,,,,,,,,,,,,,,,,,,,,,,,,,,,,,,,,,,,,,,,,,,,,,,,,,,,,,,,,,,1.604938273628553,0.8444886999204755,358.36808119993657,None,ScrollUp,정답입니다,358.36808119993657,None,358.36808119993657,None,358.36808119993657,None,358.36808119993657,None,359.11392509995494,None,359.11392509995494,359.6138656999683,,,,,,,,,,,,,,,,028,2022-05-23_11h18.23.695,FishGame,2022.1.1,60.02487431563846,
,10,넌 탐욕스러워,5,Green,A,2.25,2.1,ScrollDown,ScrollUp,Green.png,3,Negative,Incongruent,,,,,0,0,0,0,,,,,,,,,,,,,,,,,,,,,0,9,9,9,,,,,,,,,,,,,,,,,,,,,,,,,,,,,,,,,,,,,,,,,,,,,,,,,,,,,,,,,,,,,,,,,,,,,,,,,1.1867283930381138,0.8627756000496447,360.2512535999995,None,ScrollDown,정답입니다,360.2512535999995,None,360.2512535999995,None,360.2512535999995,None,360.2512535999995,None,361.01156749995425,None,361.01156749995425,361.5115039999364,,,,,,,,,,,,,,,,028,2022-05-23_11h18.23.695,FishGame,2022.1.1,60.02487431563846,
,11,넌 인기있어,2,Green,A,5.458333333333333,4.5,ScrollDown,ScrollUp,Green.png,3,Positive,Congruent,,,,,0,0,0,0,,,,,,,,,,,,,,,,,,,,,0,10,10,10,,,,,,,,,,,,,,,,,,,,,,,,,,,,,,,,,,,,,,,,,,,,,,,,,,,,,,,,,,,,,,,,,,,,,,,,,1.2546296318372092,0.7926107000093907,362.1327225000132,None,ScrollDown,정답입니다,362.1327225000132,None,362.1327225000132,None,362.1327225000132,None,362.1327225000132,None,362.8281192999566,None,362.8281192999566,363.33032660000026,,,,,,,,,,,,,,,,028,2022-05-23_11h18.23.695,FishGame,2022.1.1,60.02487431563846,
,12,나를 데려가줘,6,Orange,B,0,0,ScrollDown,ScrollUp,Orange.png,3,NonTarget,NonTarget,,,,,0,0,0,0,,,,,,,,,,,,,,,,,,,,,0,11,11,11,,,,,,,,,,,,,,,,,,,,,,,,,,,,,,,,,,,,,,,,,,,,,,,,,,,,,,,,,,,,,,,,,,,,,,,,,1.1697530895471573,0.9756078000646085,363.9559360999847,None,ScrollDown,정답입니다,363.9559360999847,None,363.9559360999847,None,363.9559360999847,None,363.9559360999847,None,364.8277793000452,None,364.8277793000452,365.32785400003195,,,,,,,,,,,,,,,,028,2022-05-23_11h18.23.695,FishGame,2022.1.1,60.02487431563846,
,13,넌 뛰어나,2,Orange,B,6.166666666666667,4,ScrollUp,ScrollDown,Orange.png,3,Positive,Incongruent,,,,,0,0,0,0,,,,,,,,,,,,,,,,,,,,,0,12,12,12,,,,,,,,,,,,,,,,,,,,,,,,,,,,,,,,,,,,,,,,,,,,,,,,,,,,,,,,,,,,,,,,,,,,,,,,,1.4768518516793847,1.0448750000214204,365.9543709999416,None,NoResponse,무응답입니다,365.9543709999416,None,365.9543709999416,None,365.9543709999416,None,365.9543709999416,None,366.8944434999721,None,366.8944434999721,367.39700480003376,,,,,,,,,,,,,,,,028,2022-05-23_11h18.23.695,FishGame,2022.1.1,60.02487431563846,
,14,넌 낙관적이야,1,Green,A,5.75,5.8,ScrollDown,ScrollUp,Green.png,3,Positive,Congruent,,,,,0,0,0,0,,,,,,,,,,,,,,,,,,,,,0,13,13,13,,,,,,,,,,,,,,,,,,,,,,,,,,,,,,,,,,,,,,,,,,,,,,,,,,,,,,,,,,,,,,,,,,,,,,,,,1.233024686574936,0.7484788000583649,368.01569649996236,None,ScrollDown,정답입니다,368.01569649996236,None,368.01569649996236,None,368.01569649996236,None,368.01569649996236,None,368.6614088000497,None,368.6614088000497,369.1668546999572,,,,,,,,,,,,,,,,028,2022-05-23_11h18.23.695,FishGame,2022.1.1,60.02487431563846,
,15,넌 산만해,4,Orange,B,2.695652173913043,3.033333333333333,ScrollUp,ScrollDown,Orange.png,3,Negative,Congruent,,,,,0,0,0,0,,,,,,,,,,,,,,,,,,,,,0,14,14,14,,,,,,,,,,,,,,,,,,,,,,,,,,,,,,,,,,,,,,,,,,,,,,,,,,,,,,,,,,,,,,,,,,,,,,,,,1.6574074104428291,0.81055940000806,369.7920477000298,None,ScrollUp,정답입니다,369.7920477000298,None,369.7920477000298,None,369.7920477000298,None,369.7920477000298,None,370.4967695999658,None,370.4967695999658,371.01149149995763,,,,,,,,,,,,,,,,028,2022-05-23_11h18.23.695,FishGame,2022.1.1,60.02487431563846,
,16,나를 보내줘,6,Green,A,0,0,ScrollUp,ScrollDown,Green.png,3,NonTarget,NonTarget,,,,,0,0,0,0,,,,,,,,,,,,,,,,,,,,,0,15,15,15,,,,,,,,,,,,,,,,,,,,,,,,,,,,,,,,,,,,,,,,,,,,,,,,,,,,,,,,,,,,,,,,,,,,,,,,,1.7391975373029709,1.0103664000052959,371.6149333999492,None,ScrollUp,정답입니다,371.6149333999492,None,371.6149333999492,None,371.6149333999492,None,371.6149333999492,None,372.527861700044,None,372.527861700044,373.02791259996593,,,,,,,,,,,,,,,,028,2022-05-23_11h18.23.695,FishGame,2022.1.1,60.02487431563846,
,17,넌 교활해,5,Orange,B,2.333333333333333,2.133333333333333,ScrollUp,ScrollDown,Orange.png,3,Negative,Congruent,,,,,0,0,0,0,,,,,,,,,,,,,,,,,,,,,0,16,16,16,,,,,,,,,,,,,,,,,,,,,,,,,,,,,,,,,,,,,,,,,,,,,,,,,,,,,,,,,,,,,,,,,,,,,,,,,1.6466049378116927,0.9450506999855861,373.653942200006,None,ScrollUp,정답입니다,373.653942200006,None,373.653942200006,None,373.653942200006,None,373.653942200006,None,374.49455709999893,None,374.49455709999893,374.9967750000069,,,,,,,,,,,,,,,,028,2022-05-23_11h18.23.695,FishGame,2022.1.1,60.02487431563846,
,18,나를 보내줘,6,Green,A,0,0,ScrollUp,ScrollDown,Green.png,3,NonTarget,NonTarget,,,,,0,0,0,0,,,,,,,,,,,,,,,,,,,,,0,17,17,17,,,,,,,,,,,,,,,,,,,,,,,,,,,,,,,,,,,,,,,,,,,,,,,,,,,,,,,,,,,,,,,,,,,,,,,,,1.6512345671653748,1.0089715000940487,375.61631239997223,None,ScrollUp,정답입니다,375.61631239997223,None,375.61631239997223,None,375.61631239997223,None,375.61631239997223,None,376.5277952000033,None,376.5277952000033,377.027852899977,,,,,,,,,,,,,,,,028,2022-05-23_11h18.23.695,FishGame,2022.1.1,60.02487431563846,
,19,넌 불친절해,5,Orange,B,2.208333333333333,2.033333333333333,ScrollUp,ScrollDown,Orange.png,3,Negative,Congruent,,,,,0,0,0,0,,,,,,,,,,,,,,,,,,,,,0,18,18,18,,,,,,,,,,,,,,,,,,,,,,,,,,,,,,,,,,,,,,,,,,,,,,,,,,,,,,,,,,,,,,,,,,,,,,,,,1.5462962966412306,0.828258000081405,377.65684419998433,None,NoResponse,무응답입니다,377.65684419998433,None,377.65684419998433,None,377.65684419998433,None,377.65684419998433,None,378.37779960001353,None,378.37779960001353,378.8778338000411,,,,,,,,,,,,,,,,028,2022-05-23_11h18.23.695,FishGame,2022.1.1,60.02487431563846,
,20,넌 지적이야,2,Orange,B,5.75,4.366666666666666,ScrollUp,ScrollDown,Orange.png,3,Positive,Incongruent,,,,,0,0,0,0,,,,,,,,,,,,,,,,,,,,,0,19,19,19,,,,,,,,,,,,,,,,,,,,,,,,,,,,,,,,,,,,,,,,,,,,,,,,,,,,,,,,,,,,,,,,,,,,,,,,,1.7546296268701553,1.009258900070563,379.50353300001007,None,ScrollUp,정답입니다,379.50353300001007,None,379.50353300001007,None,379.50353300001007,None,379.50353300001007,None,380.41114370001014,None,380.41114370001014,380.9111217999598,,,,,,,,,,,,,,,,028,2022-05-23_11h18.23.695,FishGame,2022.1.1,60.02487431563846,
,21,넌 우유부단해,4,Green,A,2.666666666666667,3.166666666666667,ScrollDown,ScrollUp,Green.png,3,Negative,Incongruent,,,,,0,0,0,0,,,,,,,,,,,,,,,,,,,,,0,20,20,20,,,,,,,,,,,,,,,,,,,,,,,,,,,,,,,,,,,,,,,,,,,,,,,,,,,,,,,,,,,,,,,,,,,,,,,,,1.0570987462997437,0.8625209999736398,381.53334920003545,None,ScrollDown,정답입니다,381.53334920003545,None,381.53334920003545,None,381.53334920003545,None,381.53334920003545,None,382.29437150002923,None,382.29437150002923,382.79442910000216,,,,,,,,,,,,,,,,028,2022-05-23_11h18.23.695,FishGame,2022.1.1,60.02487431563846,
,22,나를 데려가줘,6,Orange,B,0,0,ScrollDown,ScrollUp,Orange.png,3,NonTarget,NonTarget,,,,,0,0,0,0,,,,,,,,,,,,,,,,,,,,,0,21,21,21,,,,,,,,,,,,,,,,,,,,,,,,,,,,,,,,,,,,,,,,,,,,,,,,,,,,,,,,,,,,,,,,,,,,,,,,,1,1.342526499996893,383.41945529996883,None,ScrollDown,정답입니다,383.41945529996883,None,383.41945529996883,None,383.41945529996883,None,383.41945529996883,None,384.66102550004143,None,384.66102550004143,385.16321250004694,,,,,,,,,,,,,,,,028,2022-05-23_11h18.23.695,FishGame,2022.1.1,60.02487431563846,
,23,넌 성실해,1,Orange,B,6.041666666666666,5.7,ScrollUp,ScrollDown,Orange.png,3,Positive,Incongruent,,,,,0,0,0,0,,,,,,,,,,,,,,,,,,,,,0,22,22,22,,,,,,,,,,,,,,,,,,,,,,,,,,,,,,,,,,,,,,,,,,,,,,,,,,,,,,,,,,,,,,,,,,,,,,,,,2,0.9590078999754041,385.79077980003785,None,ScrollUp,정답입니다,385.79077980003785,None,385.79077980003785,None,385.79077980003785,None,385.79077980003785,None,386.6440105999354,None,386.6440105999354,387.14409389998764,,,,,,,,,,,,,,,,028,2022-05-23_11h18.23.695,FishGame,2022.1.1,60.02487431563846,
,24,넌 현실주의적이야,3,Green,A,4.625,4.4,ScrollDown,ScrollUp,Green.png,3,Neutral,Neutral,,,,,0,0,0,0,,,,,,,,,,,,,,,,,,,,,0,23,23,23,,,,,,,,,,,,,,,,,,,,,,,,,,,,,,,,,,,,,,,,,,,,,,,,,,,,,,,,,,,,,,,,,,,,,,,,,1.0679012437661488,0.911354299983941,387.7638658999931,None,ScrollDown,정답입니다,387.7638658999931,None,387.7638658999931,None,387.7638658999931,None,387.7638658999931,None,388.5773643000284,None,388.5773643000284,389.07999729993753,,,,,,,,,,,,,,,,028,2022-05-23_11h18.23.695,FishGame,2022.1.1,60.02487431563846,
,25,넌 진실돼,1,Green,A,6.625,5.566666666666666,ScrollDown,ScrollUp,Green.png,3,Positive,Congruent,,,,,0,0,0,0,,,,,,,,,,,,,,,,,,,,,0,24,24,24,,,,,,,,,,,,,,,,,,,,,,,,,,,,,,,,,,,,,,,,,,,,,,,,,,,,,,,,,,,,,,,,,,,,,,,,,1,0.8796485000057146,389.69845979998354,None,ScrollDown,정답입니다,389.69845979998354,None,389.69845979998354,None,389.69845979998354,None,389.69845979998354,None,390.47986890003085,None,390.47986890003085,390.9831964999903,,,,,,,,,,,,,,,,028,2022-05-23_11h18.23.695,FishGame,2022.1.1,60.02487431563846,
,26,넌 천진난만해,3,Orange,B,4.958333333333334,4.833333333333333,ScrollUp,ScrollDown,Orange.png,3,Neutral,Neutral,,,,,0,0,0,0,,,,,,,,,,,,,,,,,,,,,0,25,25,25,,,,,,,,,,,,,,,,,,,,,,,,,,,,,,,,,,,,,,,,,,,,,,,,,,,,,,,,,,,,,,,,,,,,,,,,,1.9922839502493541,0.9260711999377236,391.6089929000009,None,ScrollUp,정답입니다,391.6089929000009,None,391.6089929000009,None,391.6089929000009,None,391.6089929000009,None,392.4298135000281,None,392.4298135000281,392.9443663000129,,,,,,,,,,,,,,,,028,2022-05-23_11h18.23.695,FishGame,2022.1.1,60.02487431563846,
,27,넌 교양없어,5,Green,A,2.416666666666667,2.2,ScrollDown,ScrollUp,Green.png,3,Negative,Incongruent,,,,,0,0,0,0,,,,,,,,,,,,,,,,,,,,,0,26,26,26,,,,,,,,,,,,,,,,,,,,,,,,,,,,,,,,,,,,,,,,,,,,,,,,,,,,,,,,,,,,,,,,,,,,,,,,,1,0.8426066999090835,393.55536939995363,None,ScrollDown,정답입니다,393.55536939995363,None,393.55536939995363,None,393.55536939995363,None,393.55536939995363,None,394.2941450999351,None,394.2941450999351,394.7941627999535,,,,,,,,,,,,,,,,028,2022-05-23_11h18.23.695,FishGame,2022.1.1,60.02487431563846,
,28,나를 보내줘,6,Green,A,0,0,ScrollUp,ScrollDown,Green.png,3,NonTarget,NonTarget,,,,,0,0,0,0,,,,,,,,,,,,,,,,,,,,,0,27,27,27,,,,,,,,,,,,,,,,,,,,,,,,,,,,,,,,,,,,,,,,,,,,,,,,,,,,,,,,,,,,,,,,,,,,,,,,,2,0.9590633999323472,395.41560930002015,None,ScrollUp,정답입니다,395.41560930002015,None,395.41560930002015,None,395.41560930002015,None,395.41560930002015,None,396.27742669999134,None,396.27742669999134,396.779591599945,,,,,,,,,,,,,,,,028,2022-05-23_11h18.23.695,FishGame,2022.1.1,60.02487431563846,
,29,넌 엉뚱스러워,3,Green,A,4.166666666666667,4.133333333333334,ScrollDown,ScrollUp,Green.png,3,Neutral,Neutral,,,,,0,0,0,0,,,,,,,,,,,,,,,,,,,,,0,28,28,28,,,,,,,,,,,,,,,,,,,,,,,,,,,,,,,,,,,,,,,,,,,,,,,,,,,,,,,,,,,,,,,,,,,,,,,,,2,1.011515700025484,397.40050460002385,None,ScrollUp,오답입니다,397.40050460002385,None,397.40050460002385,None,397.40050460002385,None,397.40050460002385,None,398.3107511999551,None,398.3107511999551,398.81078990001697,,,,,,,,,,,,,,,,028,2022-05-23_11h18.23.695,FishGame,2022.1.1,60.02487431563846,
,30,넌 무지해,4,Orange,B,2.541666666666667,3.066666666666667,ScrollUp,ScrollDown,Orange.png,3,Negative,Congruent,,,,,0,0,0,0,,,,,,,,,,,,,,,,,,,,,0,29,29,29,,,,,,,,,,,,,,,,,,,,,,,,,,,,,,,,,,,,,,,,,,,,,,,,,,,,,,,,,,,,,,,,,,,,,,,,,1.825617293516795,0.8608505999436602,399.4355008000275,None,ScrollUp,정답입니다,399.4355008000275,None,399.4355008000275,None,399.4355008000275,None,399.4355008000275,None,400.19398750003893,None,400.19398750003893,400.6961891000392,,,,,,,,,,,,,,,,028,2022-05-23_11h18.23.695,FishGame,2022.1.1,60.02487431563846,
,31,넌 음울해,5,Orange,B,2.25,2.233333333333333,ScrollUp,ScrollDown,Orange.png,3,Negative,Congruent,,,,,0,0,0,0,,,,,,,,,,,,,,,,,,,,,0,30,30,30,,,,,,,,,,,,,,,,,,,,,,,,,,,,,,,,,,,,,,,,,,,,,,,,,,,,,,,,,,,,,,,,,,,,,,,,,1.7962963034709294,0.9448004000587389,401.3289693000261,None,ScrollUp,정답입니다,401.3289693000261,None,401.3289693000261,None,401.3289693000261,None,401.3289693000261,None,402.16280569997616,None,402.16280569997616,402.6629295999883,,,,,,,,,,,,,,,,028,2022-05-23_11h18.23.695,FishGame,2022.1.1,60.02487431563846,
,32,넌 냉소적이야,5,Green,A,2.916666666666667,2.4,ScrollDown,ScrollUp,Green.png,3,Negative,Incongruent,,,,,0,0,0,0,,,,,,,,,,,,,,,,,,,,,0,31,31,31,,,,,,,,,,,,,,,,,,,,,,,,,,,,,,,,,,,,,,,,,,,,,,,,,,,,,,,,,,,,,,,,,,,,,,,,,1.115740751226743,0.9280325999716297,403.28047450003214,None,ScrollDown,정답입니다,403.28047450003214,None,403.28047450003214,None,403.28047450003214,None,403.28047450003214,None,404.1106683999533,None,404.1106683999533,404.61063639994245,,,,,,,,,,,,,,,,028,2022-05-23_11h18.23.695,FishGame,2022.1.1,60.02487431563846,
,33,나를 데려가줘,6,Orange,B,0,0,ScrollDown,ScrollUp,Orange.png,3,NonTarget,NonTarget,,,,,0,0,0,0,,,,,,,,,,,,,,,,,,,,,0,32,32,32,,,,,,,,,,,,,,,,,,,,,,,,,,,,,,,,,,,,,,,,,,,,,,,,,,,,,,,,,,,,,,,,,,,,,,,,,1,1.3615440999856219,405.232100800029,None,ScrollDown,정답입니다,405.232100800029,None,405.232100800029,None,405.232100800029,None,405.232100800029,None,406.4938886000309,None,406.4938886000309,406.9939512000419,,,,,,,,,,,,,,,,028,2022-05-23_11h18.23.695,FishGame,2022.1.1,60.02487431563846,
,34,넌 쾌활해,1,Green,A,5.541666666666666,5.733333333333333,ScrollDown,ScrollUp,Green.png,3,Positive,Congruent,,,,,0,0,0,0,,,,,,,,,,,,,,,,,,,,,0,33,33,33,,,,,,,,,,,,,,,,,,,,,,,,,,,,,,,,,,,,,,,,,,,,,,,,,,,,,,,,,,,,,,,,,,,,,,,,,1,0.8929873000597581,407.61651600000914,None,ScrollDown,정답입니다,407.61651600000914,None,407.61651600000914,None,407.61651600000914,None,407.61651600000914,None,408.41058639995754,None,408.41058639995754,408.9128363999771,,,,,,,,,,,,,,,,028,2022-05-23_11h18.23.695,FishGame,2022.1.1,60.02487431563846,
,35,나를 보내줘,6,Green,A,0,0,ScrollUp,ScrollDown,Green.png,3,NonTarget,NonTarget,,,,,0,0,0,0,,,,,,,,,,,,,,,,,,,,,0,34,34,34,,,,,,,,,,,,,,,,,,,,,,,,,,,,,,,,,,,,,,,,,,,,,,,,,,,,,,,,,,,,,,,,,,,,,,,,,1.6250000049670539,0.9428129000589252,409.53272689995356,None,ScrollUp,정답입니다,409.53272689995356,None,409.53272689995356,None,409.53272689995356,None,409.53272689995356,None,410.3794058000203,None,410.3794058000203,410.8772033000132,,,,,,,,,,,,,,,,028,2022-05-23_11h18.23.695,FishGame,2022.1.1,60.02487431563846,
,36,넌 명랑해,1,Orange,B,5.739130434782609,5.666666666666667,ScrollUp,ScrollDown,Orange.png,3,Positive,Incongruent,,,,,0,0,0,0,,,,,,,,,,,,,,,,,,,,,0,35,35,35,,,,,,,,,,,,,,,,,,,,,,,,,,,,,,,,,,,,,,,,,,,,,,,,,,,,,,,,,,,,,,,,,,,,,,,,,1.7962963034709294,0.8948385999538004,411.51778470003046,None,ScrollUp,정답입니다,411.51778470003046,None,411.51778470003046,None,411.51778470003046,None,411.51778470003046,None,412.31047120003495,None,412.31047120003495,412.81266079994384,,,,,,,,,,,,,,,,028,2022-05-23_11h18.23.695,FishGame,2022.1.1,60.02487431563846,
,37,넌 멍해,4,Green,A,2.833333333333333,3.4,ScrollDown,ScrollUp,Green.png,3,Negative,Incongruent,,,,,0,0,0,0,,,,,,,,,,,,,,,,,,,,,0,36,36,36,,,,,,,,,,,,,,,,,,,,,,,,,,,,,,,,,,,,,,,,,,,,,,,,,,,,,,,,,,,,,,,,,,,,,,,,,1.0416666567325592,0.8423159000230953,413.44777159998193,None,ScrollDown,정답입니다,413.44777159998193,None,413.44777159998193,None,413.44777159998193,None,413.44777159998193,None,414.17681159998756,None,414.17681159998756,414.67689929995686,,,,,,,,,,,,,,,,028,2022-05-23_11h18.23.695,FishGame,2022.1.1,60.02487431563846,
,38,나를 데려가줘,6,Orange,B,0,0,ScrollDown,ScrollUp,Orange.png,3,NonTarget,NonTarget,,,,,0,0,0,0,,,,,,,,,,,,,,,,,,,,,0,37,37,37,,,,,,,,,,,,,,,,,,,,,,,,,,,,,,,,,,,,,,,,,,,,,,,,,,,,,,,,,,,,,,,,,,,,,,,,,1,1.0115011000307277,415.30220799997915,None,ScrollDown,정답입니다,415.30220799997915,None,415.30220799997915,None,415.30220799997915,None,415.30220799997915,None,416.2101501999423,None,416.2101501999423,416.71293859998696,,,,,,,,,,,,,,,,028,2022-05-23_11h18.23.695,FishGame,2022.1.1,60.02487431563846,
,39,넌 현명해,2,Green,A,6.541666666666666,4.533333333333333,ScrollDown,ScrollUp,Green.png,3,Positive,Congruent,,,,,0,0,0,0,,,,,,,,,,,,,,,,,,,,,0,38,38,38,,,,,,,,,,,,,,,,,,,,,,,,,,,,,,,,,,,,,,,,,,,,,,,,,,,,,,,,,,,,,,,,,,,,,,,,,1.0570987462997437,0.9259641000535339,417.33309420000296,None,ScrollDown,정답입니다,417.33309420000296,None,417.33309420000296,None,417.33309420000296,None,417.33309420000296,None,418.1627703999402,None,418.1627703999402,418.6658499999903,,,,,,,,,,,,,,,,028,2022-05-23_11h18.23.695,FishGame,2022.1.1,60.02487431563846,
,40,넌 수줍어,3,Orange,B,3.541666666666666,4.366666666666666,ScrollUp,ScrollDown,Orange.png,3,Neutral,Neutral,,,,,0,0,0,0,,,,,,,,,,,,,,,,,,,,,0,39,39,39,,,,,,,,,,,,,,,,,,,,,,,,,,,,,,,,,,,,,,,,,,,,,,,,,,,,,,,,,,,,,,,,,,,,,,,,,1.89969136317571,1.0091622999170795,419.2921919999644,None,ScrollUp,정답입니다,419.2921919999644,None,419.2921919999644,None,419.2921919999644,None,419.2921919999644,None,420.1936679999344,None,420.1936679999344,420.69595610001124,,,,,,,,,,,,,,,,028,2022-05-23_11h18.23.695,FishGame,2022.1.1,60.02487431563846,
,41,나를 데려가줘,6,Orange,B,0,0,ScrollDown,ScrollUp,Orange.png,3,NonTarget,NonTarget,,,,,0,0,0,0,,,,,,,,,,,,,,,,,,,,,0,40,40,40,,,,,,,,,,,,,,,,,,,,,,,,,,,,,,,,,,,,,,,,,,,,,,,,,,,,,,,,,,,,,,,,,,,,,,,,,1.126543199022611,0.8598408000543714,421.3168822999578,None,ScrollDown,정답입니다,421.3168822999578,None,421.3168822999578,None,421.3168822999578,None,421.3168822999578,None,422.076979400008,None,422.076979400008,422.5791693000356,,,,,,,,,,,,,,,,028,2022-05-23_11h18.23.695,FishGame,2022.1.1,60.02487431563846,
,42,넌 성숙해,2,Orange,B,5.833333333333333,4.533333333333333,ScrollUp,ScrollDown,Orange.png,3,Positive,Incongruent,,,,,0,0,0,0,,,,,,,,,,,,,,,,,,,,,0,41,41,41,,,,,,,,,,,,,,,,,,,,,,,,,,,,,,,,,,,,,,,,,,,,,,,,,,,,,,,,,,,,,,,,,,,,,,,,,1.8410493830839794,0.9593194000190124,423.204104000004,None,ScrollUp,정답입니다,423.204104000004,None,423.204104000004,None,423.204104000004,None,423.204104000004,None,424.05995739996433,None,424.05995739996433,424.56002930004615,,,,,,,,,,,,,,,,028,2022-05-23_11h18.23.695,FishGame,2022.1.1,60.02487431563846,
,1,넌 매력적이야,2,Orange,B,6.125,4.666666666666667,ScrollUp,ScrollDown,Orange.png,4,Positive,Incongruent,,,,,0,0,0,0,,,,,,,,,,,,,,,,,,,,,,,,,0,0,0,0,,,,,,,,,,,,,,,,,,,,,,,,,,,,456.62622229999397,458.128742699977,458.1619893000461,459.11194400000386,459.16193149995524,460.1287764000008,460.1095611000201,None,,,,,,,,,,,,,,,,,,,,,,,,,,,,,,,,,,1.8225308656692505,1.2577010999666527,461.2204428999685,None,ScrollUp,정답입니다,461.2204428999685,None,461.2204428999685,None,461.2204428999685,None,461.2204428999685,None,462.3761747999815,None,462.3761747999815,462.8817732000025,425.06000499997754,None,425.06000499997754,None,0.058333334,-0.098148145,1,0,0,0.016046470031142235,None,455.05988570000045,None,,,028,2022-05-23_11h18.23.695,FishGame,2022.1.1,60.02487431563846,
,2,나를 보내줘,6,Green,A,0,0,ScrollUp,ScrollDown,Green.png,4,NonTarget,NonTarget,,,,,0,0,0,0,,,,,,,,,,,,,,,,,,,,,,,,,0,1,1,1,,,,,,,,,,,,,,,,,,,,,,,,,,,,,,,,,,,,,,,,,,,,,,,,,,,,,,,,,,,,,,,,,,,,,1.584876542290052,1.045170999947004,463.5011245999485,None,ScrollUp,정답입니다,463.5011245999485,None,463.5011245999485,None,463.5011245999485,None,463.5011245999485,None,464.4449567999691,None,464.4449567999691,464.9594605000457,,,,,,,,,,,,,,,,028,2022-05-23_11h18.23.695,FishGame,2022.1.1,60.02487431563846,
,3,넌 조심스러워,3,Green,A,4.791666666666666,4.666666666666667,ScrollDown,ScrollUp,Green.png,4,Neutral,Neutral,,,,,0,0,0,0,,,,,,,,,,,,,,,,,,,,,,,,,0,2,2,2,,,,,,,,,,,,,,,,,,,,,,,,,,,,,,,,,,,,,,,,,,,,,,,,,,,,,,,,,,,,,,,,,,,,,1.0586419602235158,1.0094940999988467,465.56793489994016,None,ScrollDown,정답입니다,465.56793489994016,None,465.56793489994016,None,465.56793489994016,None,465.56793489994016,None,466.47613369999453,None,466.47613369999453,466.97825649997685,,,,,,,,,,,,,,,,028,2022-05-23_11h18.23.695,FishGame,2022.1.1,60.02487431563846,
,4,넌 철학적이야,3,Orange,B,4.5,4.266666666666667,ScrollUp,ScrollDown,Orange.png,4,Neutral,Neutral,,,,,0,0,0,0,,,,,,,,,,,,,,,,,,,,,,,,,0,3,3,3,,,,,,,,,,,,,,,,,,,,,,,,,,,,,,,,,,,,,,,,,,,,,,,,,,,,,,,,,,,,,,,,,,,,,1.8225308656692505,0.8921711000148207,467.60399029997643,None,ScrollUp,정답입니다,467.60399029997643,None,467.60399029997643,None,467.60399029997643,None,467.60399029997643,None,468.3924212999409,None,468.3924212999409,468.8925006999634,,,,,,,,,,,,,,,,028,2022-05-23_11h18.23.695,FishGame,2022.1.1,60.02487431563846,
,5,넌 쩨쩨해,5,Green,A,2.375,2.133333333333333,ScrollDown,ScrollUp,Green.png,4,Negative,Incongruent,,,,,0,0,0,0,,,,,,,,,,,,,,,,,,,,,,,,,0,4,4,4,,,,,,,,,,,,,,,,,,,,,,,,,,,,,,,,,,,,,,,,,,,,,,,,,,,,,,,,,,,,,,,,,,,,,1.1111111094554265,0.8782618000404909,469.51962429995183,None,ScrollDown,정답입니다,469.51962429995183,None,469.51962429995183,None,469.51962429995183,None,469.51962429995183,None,470.2924354999559,None,470.2924354999559,470.7949422999518,,,,,,,,,,,,,,,,028,2022-05-23_11h18.23.695,FishGame,2022.1.1,60.02487431563846,
,6,나를 데려가줘,6,Orange,B,0,0,ScrollDown,ScrollUp,Orange.png,4,NonTarget,NonTarget,,,,,0,0,0,0,,,,,,,,,,,,,,,,,,,,,,,,,0,5,5,5,,,,,,,,,,,,,,,,,,,,,,,,,,,,,,,,,,,,,,,,,,,,,,,,,,,,,,,,,,,,,,,,,,,,,1,1.1264398000203073,471.42015819996595,None,ScrollDown,정답입니다,471.42015819996595,None,471.42015819996595,None,471.42015819996595,None,471.42015819996595,None,472.44490360002965,None,472.44490360002965,472.9615202000132,,,,,,,,,,,,,,,,028,2022-05-23_11h18.23.695,FishGame,2022.1.1,60.02487431563846,
,7,넌 고집불통이야,5,Orange,B,2.875,2,ScrollUp,ScrollDown,Orange.png,4,Negative,Congruent,,,,,0,0,0,0,,,,,,,,,,,,,,,,,,,,,,,,,0,6,6,6,,,,,,,,,,,,,,,,,,,,,,,,,,,,,,,,,,,,,,,,,,,,,,,,,,,,,,,,,,,,,,,,,,,,,1.787037044763565,1.092870800057426,473.5886013000272,None,ScrollUp,정답입니다,473.5886013000272,None,473.5886013000272,None,473.5886013000272,None,473.5886013000272,None,474.57592750003096,None,474.57592750003096,475.07818780001253,,,,,,,,,,,,,,,,028,2022-05-23_11h18.23.695,FishGame,2022.1.1,60.02487431563846,
,8,넌 무심해,4,Green,A,2.875,3.2,ScrollDown,ScrollUp,Green.png,4,Negative,Incongruent,,,,,0,0,0,0,,,,,,,,,,,,,,,,,,,,,,,,,0,7,7,7,,,,,,,,,,,,,,,,,,,,,,,,,,,,,,,,,,,,,,,,,,,,,,,,,,,,,,,,,,,,,,,,,,,,,1.2067901243766148,0.8590241000056267,475.6974322999595,None,ScrollDown,정답입니다,475.6974322999595,None,475.6974322999595,None,475.6974322999595,None,475.6974322999595,None,476.4591675000265,None,476.4591675000265,476.9613614999689,,,,,,,,,,,,,,,,028,2022-05-23_11h18.23.695,FishGame,2022.1.1,60.02487431563846,
,9,넌 정겨워,1,Green,A,5.791666666666667,5.666666666666667,ScrollDown,ScrollUp,Green.png,4,Positive,Congruent,,,,,0,0,0,0,,,,,,,,,,,,,,,,,,,,,,,,,0,8,8,8,,,,,,,,,,,,,,,,,,,,,,,,,,,,,,,,,,,,,,,,,,,,,,,,,,,,,,,,,,,,,,,,,,,,,1.0493827263514202,0.9949881000211462,477.58603799995035,None,ScrollDown,정답입니다,477.58603799995035,None,477.58603799995035,None,477.58603799995035,None,477.58603799995035,None,478.475825099973,None,478.475825099973,478.9780308000045,,,,,,,,,,,,,,,,028,2022-05-23_11h18.23.695,FishGame,2022.1.1,60.02487431563846,
,10,나를 데려가줘,6,Orange,B,0,0,ScrollDown,ScrollUp,Orange.png,4,NonTarget,NonTarget,,,,,0,0,0,0,,,,,,,,,,,,,,,,,,,,,,,,,0,9,9,9,,,,,,,,,,,,,,,,,,,,,,,,,,,,,,,,,,,,,,,,,,,,,,,,,,,,,,,,,,,,,,,,,,,,,1.1064814925193787,0.9613404999254271,479.5991888999706,None,ScrollDown,정답입니다,479.5991888999706,None,479.5991888999706,None,479.5991888999706,None,479.5991888999706,None,480.4614199999487,None,480.4614199999487,480.961405799957,,,,,,,,,,,,,,,,028,2022-05-23_11h18.23.695,FishGame,2022.1.1,60.02487431563846,
,11,넌 체제순응적이야,4,Orange,B,3,3.6,ScrollUp,ScrollDown,Orange.png,4,Negative,Congruent,,,,,0,0,0,0,,,,,,,,,,,,,,,,,,,,,,,,,0,10,10,10,,,,,,,,,,,,,,,,,,,,,,,,,,,,,,,,,,,,,,,,,,,,,,,,,,,,,,,,,,,,,,,,,,,,,1.7962963034709294,1.0260815999936312,481.5939631999936,None,ScrollUp,정답입니다,481.5939631999936,None,481.5939631999936,None,481.5939631999936,None,481.5939631999936,None,482.5088104000315,None,482.5088104000315,483.00888219999615,,,,,,,,,,,,,,,,028,2022-05-23_11h18.23.695,FishGame,2022.1.1,60.02487431563846,
,12,나를 보내줘,6,Green,A,0,0,ScrollUp,ScrollDown,Green.png,4,NonTarget,NonTarget,,,,,0,0,0,0,,,,,,,,,,,,,,,,,,,,,,,,,0,11,11,11,,,,,,,,,,,,,,,,,,,,,,,,,,,,,,,,,,,,,,,,,,,,,,,,,,,,,,,,,,,,,,,,,,,,,1.7283950646718345,1.028411899926141,483.6280656999443,None,ScrollUp,정답입니다,483.6280656999443,None,483.6280656999443,None,483.6280656999443,None,483.6280656999443,None,484.558863400016,None,484.558863400016,485.05889820004813,,,,,,,,,,,,,,,,028,2022-05-23_11h18.23.695,FishGame,2022.1.1,60.02487431563846,
,13,넌 박식해,2,Green,A,5.625,3.933333333333333,ScrollDown,ScrollUp,Green.png,4,Positive,Congruent,,,,,0,0,0,0,,,,,,,,,,,,,,,,,,,,,,,,,0,12,12,12,,,,,,,,,,,,,,,,,,,,,,,,,,,,,,,,,,,,,,,,,,,,,,,,,,,,,,,,,,,,,,,,,,,,,1.1388888855775197,1.0783802000805736,485.688112600008,None,ScrollDown,정답입니다,485.688112600008,None,485.688112600008,None,485.688112600008,None,485.688112600008,None,486.65919519995805,None,486.65919519995805,487.1614204000216,,,,,,,,,,,,,,,,028,2022-05-23_11h18.23.695,FishGame,2022.1.1,60.02487431563846,
,14,나를 보내줘,6,Green,A,0,0,ScrollUp,ScrollDown,Green.png,4,NonTarget,NonTarget,,,,,0,0,0,0,,,,,,,,,,,,,,,,,,,,,,,,,0,13,13,13,,,,,,,,,,,,,,,,,,,,,,,,,,,,,,,,,,,,,,,,,,,,,,,,,,,,,,,,,,,,,,,,,,,,,1.7422839403152466,1.0903955000685528,487.7878243000014,None,ScrollUp,정답입니다,487.7878243000014,None,487.7878243000014,None,487.7878243000014,None,487.7878243000014,None,488.77535579993855,None,488.77535579993855,489.27542459999677,,,,,,,,,,,,,,,,028,2022-05-23_11h18.23.695,FishGame,2022.1.1,60.02487431563846,
,15,넌 침착해,1,Orange,B,5.458333333333333,5.566666666666666,ScrollUp,ScrollDown,Orange.png,4,Positive,Incongruent,,,,,0,0,0,0,,,,,,,,,,,,,,,,,,,,,,,,,0,14,14,14,,,,,,,,,,,,,,,,,,,,,,,,,,,,,,,,,,,,,,,,,,,,,,,,,,,,,,,,,,,,,,,,,,,,,1.7345678955316544,0.9643138999817893,489.90439529996365,None,ScrollUp,정답입니다,489.90439529996365,None,489.90439529996365,None,489.90439529996365,None,489.90439529996365,None,490.75903229997493,None,490.75903229997493,491.26130959996954,,,,,,,,,,,,,,,,028,2022-05-23_11h18.23.695,FishGame,2022.1.1,60.02487431563846,
,16,나를 데려가줘,6,Orange,B,0,0,ScrollDown,ScrollUp,Orange.png,4,NonTarget,NonTarget,,,,,0,0,0,0,,,,,,,,,,,,,,,,,,,,,,,,,0,15,15,15,,,,,,,,,,,,,,,,,,,,,,,,,,,,,,,,,,,,,,,,,,,,,,,,,,,,,,,,,,,,,,,,,,,,,1.1512345721324284,1.1092657999834046,491.8846602999838,None,ScrollDown,정답입니다,491.8846602999838,None,491.8846602999838,None,491.8846602999838,None,491.8846602999838,None,492.89451410004403,None,492.89451410004403,493.41113579995,,,,,,,,,,,,,,,,028,2022-05-23_11h18.23.695,FishGame,2022.1.1,60.02487431563846,
,17,넌 행복해,1,Green,A,6.416666666666666,6.166666666666667,ScrollDown,ScrollUp,Green.png,4,Positive,Congruent,,,,,0,0,0,0,,,,,,,,,,,,,,,,,,,,,,,,,0,16,16,16,,,,,,,,,,,,,,,,,,,,,,,,,,,,,,,,,,,,,,,,,,,,,,,,,,,,,,,,,,,,,,,,,,,,,1.0154321193695068,1.0592487999238074,494.02388989995234,None,ScrollDown,정답입니다,494.02388989995234,None,494.02388989995234,None,494.02388989995234,None,494.02388989995234,None,494.9755179999629,None,494.9755179999629,495.4777825999772,,,,,,,,,,,,,,,,028,2022-05-23_11h18.23.695,FishGame,2022.1.1,60.02487431563846,
,18,넌 겸손해,2,Orange,B,5.791666666666667,4.766666666666667,ScrollUp,ScrollDown,Orange.png,4,Positive,Incongruent,,,,,0,0,0,0,,,,,,,,,,,,,,,,,,,,,,,,,0,17,17,17,,,,,,,,,,,,,,,,,,,,,,,,,,,,,,,,,,,,,,,,,,,,,,,,,,,,,,,,,,,,,,,,,,,,,1.9351851840813954,0.8924737999914214,496.1075769000454,None,ScrollUp,정답입니다,496.1075769000454,None,496.1075769000454,None,496.1075769000454,None,496.1075769000454,None,496.891891199979,None,496.891891199979,497.392043299973,,,,,,,,,,,,,,,,028,2022-05-23_11h18.23.695,FishGame,2022.1.1,60.02487431563846,
,19,나를 보내줘,6,Green,A,0,0,ScrollUp,ScrollDown,Green.png,4,NonTarget,NonTarget,,,,,0,0,0,0,,,,,,,,,,,,,,,,,,,,,,,,,0,18,18,18,,,,,,,,,,,,,,,,,,,,,,,,,,,,,,,,,,,,,,,,,,,,,,,,,,,,,,,,,,,,,,,,,,,,,1.702160490055879,0.9612863999791443,498.0120897999732,None,ScrollUp,정답입니다,498.0120897999732,None,498.0120897999732,None,498.0120897999732,None,498.0120897999732,None,498.8752357000485,None,498.8752357000485,499.37775770004373,,,,,,,,,,,,,,,,028,2022-05-23_11h18.23.695,FishGame,2022.1.1,60.02487431563846,
,20,넌 의심없어,3,Green,A,4.166666666666667,4.6,ScrollDown,ScrollUp,Green.png,4,Neutral,Neutral,,,,,0,0,0,0,,,,,,,,,,,,,,,,,,,,,,,,,0,19,19,19,,,,,,,,,,,,,,,,,,,,,,,,,,,,,,,,,,,,,,,,,,,,,,,,,,,,,,,,,,,,,,,,,,,,,1,1.0794777000555769,499.99315809994005,None,ScrollDown,정답입니다,499.99315809994005,None,499.99315809994005,None,499.99315809994005,None,499.99315809994005,None,500.98080130002927,None,500.98080130002927,501.4943319000304,,,,,,,,,,,,,,,,028,2022-05-23_11h18.23.695,FishGame,2022.1.1,60.02487431563846,
,21,넌 시시해,4,Green,A,2.666666666666667,2.966666666666667,ScrollDown,ScrollUp,Green.png,4,Negative,Incongruent,,,,,0,0,0,0,,,,,,,,,,,,,,,,,,,,,,,,,0,20,20,20,,,,,,,,,,,,,,,,,,,,,,,,,,,,,,,,,,,,,,,,,,,,,,,,,,,,,,,,,,,,,,,,,,,,,1.060185174147288,0.9427264999831095,502.11254530004226,None,ScrollDown,정답입니다,502.11254530004226,None,502.11254530004226,None,502.11254530004226,None,502.11254530004226,None,502.9609925999539,None,502.9609925999539,503.4609289999353,,,,,,,,,,,,,,,,028,2022-05-23_11h18.23.695,FishGame,2022.1.1,60.02487431563846,
,22,나를 데려가줘,6,Orange,B,0,0,ScrollDown,ScrollUp,Orange.png,4,NonTarget,NonTarget,,,,,0,0,0,0,,,,,,,,,,,,,,,,,,,,,,,,,0,21,21,21,,,,,,,,,,,,,,,,,,,,,,,,,,,,,,,,,,,,,,,,,,,,,,,,,,,,,,,,,,,,,,,,,,,,,1,1.0765344999963418,504.08209349995013,None,ScrollDown,정답입니다,504.08209349995013,None,504.08209349995013,None,504.08209349995013,None,504.08209349995013,None,505.0586173000047,None,505.0586173000047,505.5587080999976,,,,,,,,,,,,,,,,028,2022-05-23_11h18.23.695,FishGame,2022.1.1,60.02487431563846,
,23,넌 무정해,5,Green,A,2.5,2.2,ScrollDown,ScrollUp,Green.png,4,Negative,Incongruent,,,,,0,0,0,0,,,,,,,,,,,,,,,,,,,,,,,,,0,22,22,22,,,,,,,,,,,,,,,,,,,,,,,,,,,,,,,,,,,,,,,,,,,,,,,,,,,,,,,,,,,,,,,,,,,,,1.1064814925193787,0.9797820000676438,506.1772492999444,None,ScrollDown,정답입니다,506.1772492999444,None,506.1772492999444,None,506.1772492999444,None,506.1772492999444,None,507.05864379997365,None,507.05864379997365,507.55868240003474,,,,,,,,,,,,,,,,028,2022-05-23_11h18.23.695,FishGame,2022.1.1,60.02487431563846,
,24,넌 긍정적이야,1,Orange,B,6.041666666666667,6.066666666666666,ScrollUp,ScrollDown,Orange.png,4,Positive,Incongruent,,,,,0,0,0,0,,,,,,,,,,,,,,,,,,,,,,,,,0,23,23,23,,,,,,,,,,,,,,,,,,,,,,,,,,,,,,,,,,,,,,,,,,,,,,,,,,,,,,,,,,,,,,,,,,,,,1.8240740795930226,0.9255034000379965,508.189378799987,None,ScrollUp,정답입니다,508.189378799987,None,508.189378799987,None,508.189378799987,None,508.189378799987,None,509.00830470002256,None,509.00830470002256,509.50837119994685,,,,,,,,,,,,,,,,028,2022-05-23_11h18.23.695,FishGame,2022.1.1,60.02487431563846,
,25,나를 보내줘,6,Green,A,0,0,ScrollUp,ScrollDown,Green.png,4,NonTarget,NonTarget,,,,,0,0,0,0,,,,,,,,,,,,,,,,,,,,,,,,,0,24,24,24,,,,,,,,,,,,,,,,,,,,,,,,,,,,,,,,,,,,,,,,,,,,,,,,,,,,,,,,,,,,,,,,,,,,,1.7592592686414719,0.9448580000316724,510.1299066999927,None,ScrollUp,정답입니다,510.1299066999927,None,510.1299066999927,None,510.1299066999927,None,510.1299066999927,None,510.9749786000466,None,510.9749786000466,511.47750259994064,,,,,,,,,,,,,,,,028,2022-05-23_11h18.23.695,FishGame,2022.1.1,60.02487431563846,
,26,넌 시기심이 많아,5,Orange,B,2.458333333333333,2.233333333333333,ScrollUp,ScrollDown,Orange.png,4,Negative,Congruent,,,,,0,0,0,0,,,,,,,,,,,,,,,,,,,,,,,,,0,25,25,25,,,,,,,,,,,,,,,,,,,,,,,,,,,,,,,,,,,,,,,,,,,,,,,,,,,,,,,,,,,,,,,,,,,,,1.7006172885497413,0.9467677000211552,512.104195300024,None,ScrollUp,정답입니다,512.104195300024,None,512.104195300024,None,512.104195300024,None,512.104195300024,None,512.9441296999576,None,512.9441296999576,513.458540600026,,,,,,,,,,,,,,,,028,2022-05-23_11h18.23.695,FishGame,2022.1.1,60.02487431563846,
,27,넌 탁월해,2,Green,A,5.708333333333334,4.5,ScrollDown,ScrollUp,Green.png,4,Positive,Congruent,,,,,0,0,0,0,,,,,,,,,,,,,,,,,,,,,,,,,0,26,26,26,,,,,,,,,,,,,,,,,,,,,,,,,,,,,,,,,,,,,,,,,,,,,,,,,,,,,,,,,,,,,,,,,,,,,1.0385802288850148,0.9095056999940425,514.0680564999348,None,ScrollDown,정답입니다,514.0680564999348,None,514.0680564999348,None,514.0680564999348,None,514.0680564999348,None,514.875145399943,None,514.875145399943,515.3773784999503,,,,,,,,,,,,,,,,028,2022-05-23_11h18.23.695,FishGame,2022.1.1,60.02487431563846,
,28,나를 데려가줘,6,Orange,B,0,0,ScrollDown,ScrollUp,Orange.png,4,NonTarget,NonTarget,,,,,0,0,0,0,,,,,,,,,,,,,,,,,,,,,,,,,0,27,27,27,,,,,,,,,,,,,,,,,,,,,,,,,,,,,,,,,,,,,,,,,,,,,,,,,,,,,,,,,,,,,,,,,,,,,1.040123442808787,1.1112645999528468,516.0046616999898,None,ScrollDown,정답입니다,516.0046616999898,None,516.0046616999898,None,516.0046616999898,None,516.0046616999898,None,517.0081472999882,None,517.0081472999882,517.5082131000236,,,,,,,,,,,,,,,,028,2022-05-23_11h18.23.695,FishGame,2022.1.1,60.02487431563846,
,29,넌 조용해,3,Orange,B,4.333333333333333,4.166666666666667,ScrollUp,ScrollDown,Orange.png,4,Neutral,Neutral,,,,,0,0,0,0,,,,,,,,,,,,,,,,,,,,,,,,,0,28,28,28,,,,,,,,,,,,,,,,,,,,,,,,,,,,,,,,,,,,,,,,,,,,,,,,,,,,,,,,,,,,,,,,,,,,,1.8410493830839794,0.9143246000166982,518.134546999936,None,ScrollUp,정답입니다,518.134546999936,None,518.134546999936,None,518.134546999936,None,518.134546999936,None,518.9439783999696,None,518.9439783999696,519.4439938999712,,,,,,,,,,,,,,,,028,2022-05-23_11h18.23.695,FishGame,2022.1.1,60.02487431563846,
,30,넌 다정해,1,Green,A,5.833333333333334,5.7,ScrollDown,ScrollUp,Green.png,4,Positive,Congruent,,,,,0,0,0,0,,,,,,,,,,,,,,,,,,,,,,,,,0,29,29,29,,,,,,,,,,,,,,,,,,,,,,,,,,,,,,,,,,,,,,,,,,,,,,,,,,,,,,,,,,,,,,,,,,,,,1.0987654229005177,0.842800399987027,520.0663328999653,None,ScrollDown,정답입니다,520.0663328999653,None,520.0663328999653,None,520.0663328999653,None,520.0663328999653,None,520.810710699996,None,520.810710699996,521.308429799974,,,,,,,,,,,,,,,,028,2022-05-23_11h18.23.695,FishGame,2022.1.1,60.02487431563846,
,31,넌 능력있어,2,Orange,B,6.166666666666666,4.6,ScrollUp,ScrollDown,Orange.png,4,Positive,Incongruent,,,,,0,0,0,0,,,,,,,,,,,,,,,,,,,,,,,,,0,30,30,30,,,,,,,,,,,,,,,,,,,,,,,,,,,,,,,,,,,,,,,,,,,,,,,,,,,,,,,,,,,,,,,,,,,,,1.8209876517454784,1.0776811999967322,521.9451846999582,None,ScrollUp,정답입니다,521.9451846999582,None,521.9451846999582,None,521.9451846999582,None,521.9451846999582,None,522.9250184999546,None,522.9250184999546,523.4251450999873,,,,,,,,,,,,,,,,028,2022-05-23_11h18.23.695,FishGame,2022.1.1,60.02487431563846,
,32,넌 불쾌해,5,Green,A,2.125,1.933333333333333,ScrollDown,ScrollUp,Green.png,4,Negative,Incongruent,,,,,0,0,0,0,,,,,,,,,,,,,,,,,,,,,,,,,0,31,31,31,,,,,,,,,,,,,,,,,,,,,,,,,,,,,,,,,,,,,,,,,,,,,,,,,,,,,,,,,,,,,,,,,,,,,1.1358024577299755,0.8606807000469416,524.0451474000001,None,ScrollDown,정답입니다,524.0451474000001,None,524.0451474000001,None,524.0451474000001,None,524.0451474000001,None,524.8082983000204,None,524.8082983000204,525.3083946999395,,,,,,,,,,,,,,,,028,2022-05-23_11h18.23.695,FishGame,2022.1.1,60.02487431563846,
,33,나를 데려가줘,6,Orange,B,0,0,ScrollDown,ScrollUp,Orange.png,4,NonTarget,NonTarget,,,,,0,0,0,0,,,,,,,,,,,,,,,,,,,,,,,,,0,32,32,32,,,,,,,,,,,,,,,,,,,,,,,,,,,,,,,,,,,,,,,,,,,,,,,,,,,,,,,,,,,,,,,,,,,,,1.2746913631757102,0.9877714000176638,525.9322541999863,None,ScrollDown,정답입니다,525.9322541999863,None,525.9322541999863,None,525.9322541999863,None,525.9322541999863,None,526.8082495999988,None,526.8082495999988,527.3083216999657,,,,,,,,,,,,,,,,028,2022-05-23_11h18.23.695,FishGame,2022.1.1,60.02487431563846,
,34,넌 유순해,3,Green,A,4.458333333333333,5,ScrollDown,ScrollUp,Green.png,4,Neutral,Neutral,,,,,0,0,0,0,,,,,,,,,,,,,,,,,,,,,,,,,0,33,33,33,,,,,,,,,,,,,,,,,,,,,,,,,,,,,,,,,,,,,,,,,,,,,,,,,,,,,,,,,,,,,,,,,,,,,1.1527777860562007,0.9112831000238657,527.9277488000225,None,ScrollDown,정답입니다,527.9277488000225,None,527.9277488000225,None,527.9277488000225,None,527.9277488000225,None,528.7437413999578,None,528.7437413999578,529.2436964999652,,,,,,,,,,,,,,,,028,2022-05-23_11h18.23.695,FishGame,2022.1.1,60.02487431563846,
,35,넌 근심스러워,4,Orange,B,2.708333333333333,3.133333333333333,ScrollUp,ScrollDown,Orange.png,4,Negative,Congruent,,,,,0,0,0,0,,,,,,,,,,,,,,,,,,,,,,,,,0,34,34,34,,,,,,,,,,,,,,,,,,,,,,,,,,,,,,,,,,,,,,,,,,,,,,,,,,,,,,,,,,,,,,,,,,,,,1.71913580596447,0.8430942000122741,529.8685762999812,None,ScrollUp,정답입니다,529.8685762999812,None,529.8685762999812,None,529.8685762999812,None,529.8685762999812,None,530.6081560000312,None,530.6081560000312,531.1102987000486,,,,,,,,,,,,,,,,028,2022-05-23_11h18.23.695,FishGame,2022.1.1,60.02487431563846,
,36,넌 세련되었어,2,Green,A,5.5,4.6,ScrollDown,ScrollUp,Green.png,4,Positive,Congruent,,,,,0,0,0,0,,,,,,,,,,,,,,,,,,,,,,,,,0,35,35,35,,,,,,,,,,,,,,,,,,,,,,,,,,,,,,,,,,,,,,,,,,,,,,,,,,,,,,,,,,,,,,,,,,,,,1.2268518557151158,0.8258945000125095,531.7426907999907,None,ScrollDown,정답입니다,531.7426907999907,None,531.7426907999907,None,531.7426907999907,None,531.7426907999907,None,532.4581928999396,None,532.4581928999396,532.9581393999979,,,,,,,,,,,,,,,,028,2022-05-23_11h18.23.695,FishGame,2022.1.1,60.02487431563846,
,37,나를 보내줘,6,Green,A,0,0,ScrollUp,ScrollDown,Green.png,4,NonTarget,NonTarget,,,,,0,0,0,0,,,,,,,,,,,,,,,,,,,,,,,,,0,36,36,36,,,,,,,,,,,,,,,,,,,,,,,,,,,,,,,,,,,,,,,,,,,,,,,,,,,,,,,,,,,,,,,,,,,,,1.7268518507480621,0.9279641000321135,533.5793585999636,None,ScrollUp,정답입니다,533.5793585999636,None,533.5793585999636,None,533.5793585999636,None,533.5793585999636,None,534.4103064000374,None,534.4103064000374,534.9081441999879,,,,,,,,,,,,,,,,028,2022-05-23_11h18.23.695,FishGame,2022.1.1,60.02487431563846,
,38,넌 확고해,3,Orange,B,4.708333333333334,4.566666666666666,ScrollUp,ScrollDown,Orange.png,4,Neutral,Neutral,,,,,0,0,0,0,,,,,,,,,,,,,,,,,,,,,,,,,0,37,37,37,,,,,,,,,,,,,,,,,,,,,,,,,,,,,,,,,,,,,,,,,,,,,,,,,,,,,,,,,,,,,,,,,,,,,1.6805555572112403,0.9257444000104442,535.5348096999805,None,ScrollUp,정답입니다,535.5348096999805,None,535.5348096999805,None,535.5348096999805,None,535.5348096999805,None,536.3580733999843,None,536.3580733999843,536.8603452999378,,,,,,,,,,,,,,,,028,2022-05-23_11h18.23.695,FishGame,2022.1.1,60.02487431563846,
,39,넌 이해심이 많아,1,Orange,B,6.041666666666668,5.533333333333333,ScrollUp,ScrollDown,Orange.png,4,Positive,Incongruent,,,,,0,0,0,0,,,,,,,,,,,,,,,,,,,,,,,,,0,38,38,38,,,,,,,,,,,,,,,,,,,,,,,,,,,,,,,,,,,,,,,,,,,,,,,,,,,,,,,,,,,,,,,,,,,,,1.6280864203969636,0.8440619999310002,537.4865595999872,None,ScrollUp,정답입니다,537.4865595999872,None,537.4865595999872,None,537.4865595999872,None,537.4865595999872,None,538.2246149999555,None,538.2246149999555,538.7246949999826,,,,,,,,,,,,,,,,028,2022-05-23_11h18.23.695,FishGame,2022.1.1,60.02487431563846,
,40,나를 보내줘,6,Green,A,0,0,ScrollUp,ScrollDown,Green.png,4,NonTarget,NonTarget,,,,,0,0,0,0,,,,,,,,,,,,,,,,,,,,,,,,,0,39,39,39,,,,,,,,,,,,,,,,,,,,,,,,,,,,,,,,,,,,,,,,,,,,,,,,,,,,,,,,,,,,,,,,,,,,,1.8935185074806213,0.9614162999205291,539.3436339000473,None,ScrollUp,정답입니다,539.3436339000473,None,539.3436339000473,None,539.3436339000473,None,539.3436339000473,None,540.2080015999964,None,540.2080015999964,540.7102331999922,,,,,,,,,,,,,,,,028,2022-05-23_11h18.23.695,FishGame,2022.1.1,60.02487431563846,
,41,넌 거칠어,4,Green,A,2.625,3.033333333333333,ScrollDown,ScrollUp,Green.png,4,Negative,Incongruent,,,,,0,0,0,0,,,,,,,,,,,,,,,,,,,,,,,,,0,40,40,40,,,,,,,,,,,,,,,,,,,,,,,,,,,,,,,,,,,,,,,,,,,,,,,,,,,,,,,,,,,,,,,,,,,,,1.2191358109315236,0.9757631999673322,541.343487199978,None,ScrollDown,정답입니다,541.343487199978,None,541.343487199978,None,541.343487199978,None,541.343487199978,None,542.207980099949,None,542.207980099949,542.7081743000308,,,,,,,,,,,,,,,,028,2022-05-23_11h18.23.695,FishGame,2022.1.1,60.02487431563846,
,42,넌 변덕맞아,5,Orange,B,2.75,2.166666666666667,ScrollUp,ScrollDown,Orange.png,4,Negative,Congruent,,,,,0,0,0,0,,,,,,,,,,,,,,,,,,,,,,,,,0,41,41,41,,,,,,,,,,,,,,,,,,,,,,,,,,,,,,,,,,,,,,,,,,,,,,,,,,,,,,,,,,,,,,,,,,,,,1.8533950696388881,0.9448461000574753,543.3347132999916,None,ScrollUp,정답입니다,543.3347132999916,None,543.3347132999916,None,543.3347132999916,None,543.3347132999916,None,544.174532199977,None,544.174532199977,544.67467019998,,,,,,,,,,,,,,,,028,2022-05-23_11h18.23.695,FishGame,2022.1.1,60.02487431563846,
,43,나를 데려가줘,6,Orange,B,0,0,ScrollDown,ScrollUp,Orange.png,4,NonTarget,NonTarget,,,,,0,0,0,0,,,,,,,,,,,,,,,,,,,,,,,,,0,42,42,42,,,,,,,,,,,,,,,,,,,,,,,,,,,,,,,,,,,,,,,,,,,,,,,,,,,,,,,,,,,,,,,,,,,,,1.0216049253940582,0.9427713999757543,545.2968249999685,None,ScrollDown,정답입니다,545.2968249999685,None,545.2968249999685,None,545.2968249999685,None,545.2968249999685,None,546.1412186999805,None,546.1412186999805,546.6434938999591,,,,,,,,,,,,,,,,028,2022-05-23_11h18.23.695,FishGame,2022.1.1,60.02487431563846,
,44,넌 외로워,4,Orange,B,2.833333333333333,3.3,ScrollUp,ScrollDown,Orange.png,4,Negative,Congruent,,,,,0,0,0,0,,,,,,,,,,,,,,,,,,,,,,,,,0,43,43,43,,,,,,,,,,,,,,,,,,,,,,,,,,,,,,,,,,,,,,,,,,,,,,,,,,,,,,,,,,,,,,,,,,,,,1.7777777860562007,1.1092200999846682,547.2681167999981,None,ScrollUp,정답입니다,547.2681167999981,None,547.2681167999981,None,547.2681167999981,None,547.2681167999981,None,548.274453299935,None,548.274453299935,548.7766368000302,,,,,,,,,,,,,,,,028,2022-05-23_11h18.23.695,FishGame,2022.1.1,60.02487431563846,
,1,넌 불평스러워,5,Green,A,2.25,2.066666666666667,ScrollDown,ScrollUp,Green.png,5,Negative,Incongruent,,,,,0,0,0,0,,,,,,,,,,,,,,,,,,,,,,,,,,,,,0,0,0,0,,,,,,,,,,,,,,,,,,,,,,,,580.7738231000258,582.2762321999762,582.3096428000135,583.2594752999721,583.3072114000097,584.2594721999485,584.2594721999485,None,,,,,,,,,,,,,,,,,,,,,,,,,,,,,,,,,,1.1527777860562007,1.109522799961269,585.3604845999507,None,ScrollDown,정답입니다,585.3604845999507,None,585.3604845999507,None,585.3604845999507,None,585.3604845999507,None,586.3737664000364,None,586.3737664000364,586.8759693000466,549.2766571999528,None,549.2766571999528,None,0.053703703,-0.1,1,0,0,0.01630637003108859,None,579.2906300999457,None,,,028,2022-05-23_11h18.23.695,FishGame,2022.1.1,60.02487431563846,
,2,나를 보내줘,6,Green,A,0,0,ScrollUp,ScrollDown,Green.png,5,NonTarget,NonTarget,,,,,0,0,0,0,,,,,,,,,,,,,,,,,,,,,,,,,,,,,0,1,1,1,,,,,,,,,,,,,,,,,,,,,,,,,,,,,,,,,,,,,,,,,,,,,,,,,,,,,,,,,,,,,,,,,1.743827154239019,1.0277765999780968,587.4905438999413,None,ScrollUp,정답입니다,587.4905438999413,None,587.4905438999413,None,587.4905438999413,None,587.4905438999413,None,588.4237004000461,None,588.4237004000461,588.9237779999385,,,,,,,,,,,,,,,,028,2022-05-23_11h18.23.695,FishGame,2022.1.1,60.02487431563846,
,3,넌 다재다능해,2,Orange,B,6.208333333333333,4.5,ScrollUp,ScrollDown,Orange.png,5,Positive,Incongruent,,,,,0,0,0,0,,,,,,,,,,,,,,,,,,,,,,,,,,,,,0,2,2,2,,,,,,,,,,,,,,,,,,,,,,,,,,,,,,,,,,,,,,,,,,,,,,,,,,,,,,,,,,,,,,,,,1.805555562178294,0.8765460000140592,589.5484631999861,None,ScrollUp,정답입니다,589.5484631999861,None,589.5484631999861,None,589.5484631999861,None,589.5484631999861,None,590.3236875999719,None,590.3236875999719,590.8259596000426,,,,,,,,,,,,,,,,028,2022-05-23_11h18.23.695,FishGame,2022.1.1,60.02487431563846,
,4,넌 과감해,3,Green,A,4.833333333333334,4.6,ScrollDown,ScrollUp,Green.png,5,Neutral,Neutral,,,,,0,0,0,0,,,,,,,,,,,,,,,,,,,,,,,,,,,,,0,3,3,3,,,,,,,,,,,,,,,,,,,,,,,,,,,,,,,,,,,,,,,,,,,,,,,,,,,,,,,,,,,,,,,,,1.0709876716136932,0.8259542000014335,591.4480940999929,None,ScrollDown,정답입니다,591.4480940999929,None,591.4480940999929,None,591.4480940999929,None,591.4480940999929,None,592.1735792999389,None,592.1735792999389,592.6736542000435,,,,,,,,,,,,,,,,028,2022-05-23_11h18.23.695,FishGame,2022.1.1,60.02487431563846,
,5,넌 고분고분해,3,Orange,B,3.75,4.033333333333333,ScrollUp,ScrollDown,Orange.png,5,Neutral,Neutral,,,,,0,0,0,0,,,,,,,,,,,,,,,,,,,,,,,,,,,,,0,4,4,4,,,,,,,,,,,,,,,,,,,,,,,,,,,,,,,,,,,,,,,,,,,,,,,,,,,,,,,,,,,,,,,,,1.839506169160207,0.862031500088051,593.2992006000131,None,ScrollUp,정답입니다,593.2992006000131,None,593.2992006000131,None,593.2992006000131,None,593.2992006000131,None,594.0569109000498,None,594.0569109000498,594.5590938000241,,,,,,,,,,,,,,,,028,2022-05-23_11h18.23.695,FishGame,2022.1.1,60.02487431563846,
,6,나를 보내줘,6,Green,A,0,0,ScrollUp,ScrollDown,Green.png,5,NonTarget,NonTarget,,,,,0,0,0,0,,,,,,,,,,,,,,,,,,,,,,,,,,,,,0,5,5,5,,,,,,,,,,,,,,,,,,,,,,,,,,,,,,,,,,,,,,,,,,,,,,,,,,,,,,,,,,,,,,,,,1.8287036965290706,1.059491900028661,595.1797649000073,None,ScrollUp,정답입니다,595.1797649000073,None,595.1797649000073,None,595.1797649000073,None,595.1797649000073,None,596.1424133999972,None,596.1424133999972,596.6592633000109,,,,,,,,,,,,,,,,028,2022-05-23_11h18.23.695,FishGame,2022.1.1,60.02487431563846,
,7,넌 잘 잊어,4,Green,A,3,3.7,ScrollDown,ScrollUp,Green.png,5,Negative,Incongruent,,,,,0,0,0,0,,,,,,,,,,,,,,,,,,,,,,,,,,,,,0,6,6,6,,,,,,,,,,,,,,,,,,,,,,,,,,,,,,,,,,,,,,,,,,,,,,,,,,,,,,,,,,,,,,,,,1,0.9105253999587148,597.2679473999888,None,ScrollDown,정답입니다,597.2679473999888,None,597.2679473999888,None,597.2679473999888,None,597.2679473999888,None,598.0735850000056,None,598.0735850000056,598.5756600999739,,,,,,,,,,,,,,,,028,2022-05-23_11h18.23.695,FishGame,2022.1.1,60.02487431563846,
,8,넌 탐구심이없어,4,Orange,B,2.833333333333333,3.066666666666667,ScrollUp,ScrollDown,Orange.png,5,Negative,Congruent,,,,,0,0,0,0,,,,,,,,,,,,,,,,,,,,,,,,,,,,,0,7,7,7,,,,,,,,,,,,,,,,,,,,,,,,,,,,,,,,,,,,,,,,,,,,,,,,,,,,,,,,,,,,,,,,,1.8765432039896648,0.9617161999922246,599.2043452999787,None,ScrollUp,정답입니다,599.2043452999787,None,599.2043452999787,None,599.2043452999787,None,599.2043452999787,None,600.056503299973,None,600.056503299973,600.5566277999897,,,,,,,,,,,,,,,,028,2022-05-23_11h18.23.695,FishGame,2022.1.1,60.02487431563846,
,9,나를 데려가줘,6,Orange,B,0,0,ScrollDown,ScrollUp,Orange.png,5,NonTarget,NonTarget,,,,,0,0,0,0,,,,,,,,,,,,,,,,,,,,,,,,,,,,,0,8,8,8,,,,,,,,,,,,,,,,,,,,,,,,,,,,,,,,,,,,,,,,,,,,,,,,,,,,,,,,,,,,,,,,,1.1851851791143417,0.9279403000837192,601.1810242000502,None,ScrollDown,정답입니다,601.1810242000502,None,601.1810242000502,None,601.1810242000502,None,601.1810242000502,None,602.0065538999625,None,602.0065538999625,602.5091197999427,,,,,,,,,,,,,,,,028,2022-05-23_11h18.23.695,FishGame,2022.1.1,60.02487431563846,
,10,넌 참되어,2,Green,A,6.041666666666664,4.733333333333333,ScrollDown,ScrollUp,Green.png,5,Positive,Congruent,,,,,0,0,0,0,,,,,,,,,,,,,,,,,,,,,,,,,,,,,0,9,9,9,,,,,,,,,,,,,,,,,,,,,,,,,,,,,,,,,,,,,,,,,,,,,,,,,,,,,,,,,,,,,,,,,1.1172839403152466,0.9952439999906346,603.1310723000206,None,ScrollDown,정답입니다,603.1310723000206,None,603.1310723000206,None,603.1310723000206,None,603.1310723000206,None,604.0257228999399,None,604.0257228999399,604.5288317999803,,,,,,,,,,,,,,,,028,2022-05-23_11h18.23.695,FishGame,2022.1.1,60.02487431563846,
,11,넌 생기있어,1,Orange,B,5.875,5.633333333333334,ScrollUp,ScrollDown,Orange.png,5,Positive,Incongruent,,,,,0,0,0,0,,,,,,,,,,,,,,,,,,,,,,,,,,,,,0,10,10,10,,,,,,,,,,,,,,,,,,,,,,,,,,,,,,,,,,,,,,,,,,,,,,,,,,,,,,,,,,,,,,,,,1.7484567960103354,0.8923757000593469,605.150970299961,None,ScrollUp,정답입니다,605.150970299961,None,605.150970299961,None,605.150970299961,None,605.150970299961,None,605.9400305999443,None,605.9400305999443,606.4399444999872,,,,,,,,,,,,,,,,028,2022-05-23_11h18.23.695,FishGame,2022.1.1,60.02487431563846,
,12,넌 비사교적이야,4,Orange,B,2.875,2.9,ScrollUp,ScrollDown,Orange.png,5,Negative,Congruent,,,,,0,0,0,0,,,,,,,,,,,,,,,,,,,,,,,,,,,,,0,11,11,11,,,,,,,,,,,,,,,,,,,,,,,,,,,,,,,,,,,,,,,,,,,,,,,,,,,,,,,,,,,,,,,,,1.743827154239019,0.9776497000129893,607.0730431999546,None,ScrollUp,정답입니다,607.0730431999546,None,607.0730431999546,None,607.0730431999546,None,607.0730431999546,None,607.9396951999515,None,607.9396951999515,608.4397888999665,,,,,,,,,,,,,,,,028,2022-05-23_11h18.23.695,FishGame,2022.1.1,60.02487431563846,
,13,나를 데려가줘,6,Orange,B,0,0,ScrollDown,ScrollUp,Orange.png,5,NonTarget,NonTarget,,,,,0,0,0,0,,,,,,,,,,,,,,,,,,,,,,,,,,,,,0,12,12,12,,,,,,,,,,,,,,,,,,,,,,,,,,,,,,,,,,,,,,,,,,,,,,,,,,,,,,,,,,,,,,,,,1.0817901194095612,0.9949260000139475,609.063197899959,None,ScrollDown,정답입니다,609.063197899959,None,609.063197899959,None,609.063197899959,None,609.063197899959,None,609.9564001000253,None,609.9564001000253,610.4592333999462,,,,,,,,,,,,,,,,028,2022-05-23_11h18.23.695,FishGame,2022.1.1,60.02487431563846,
,14,넌 고독해,4,Green,A,2.916666666666667,3.233333333333333,ScrollDown,ScrollUp,Green.png,5,Negative,Incongruent,,,,,0,0,0,0,,,,,,,,,,,,,,,,,,,,,,,,,,,,,0,13,13,13,,,,,,,,,,,,,,,,,,,,,,,,,,,,,,,,,,,,,,,,,,,,,,,,,,,,,,,,,,,,,,,,,1.141975313425064,0.9116590999765322,611.0741679000203,None,ScrollDown,정답입니다,611.0741679000203,None,611.0741679000203,None,611.0741679000203,None,611.0741679000203,None,611.8923322999617,None,611.8923322999617,612.3957236999413,,,,,,,,,,,,,,,,028,2022-05-23_11h18.23.695,FishGame,2022.1.1,60.02487431563846,
,15,넌 신경질적이야,5,Orange,B,2.375,2.233333333333333,ScrollUp,ScrollDown,Orange.png,5,Negative,Congruent,,,,,0,0,0,0,,,,,,,,,,,,,,,,,,,,,,,,,,,,,0,14,14,14,,,,,,,,,,,,,,,,,,,,,,,,,,,,,,,,,,,,,,,,,,,,,,,,,,,,,,,,,,,,,,,,,1.7638888855775197,0.8948855000780895,613.0315388999879,None,ScrollUp,정답입니다,613.0315388999879,None,613.0315388999879,None,613.0315388999879,None,613.0315388999879,None,613.8232094999403,None,613.8232094999403,614.3256210000254,,,,,,,,,,,,,,,,028,2022-05-23_11h18.23.695,FishGame,2022.1.1,60.02487431563846,
,16,넌 똑똑해,2,Orange,B,5.666666666666667,3.966666666666667,ScrollUp,ScrollDown,Orange.png,5,Positive,Incongruent,,,,,0,0,0,0,,,,,,,,,,,,,,,,,,,,,,,,,,,,,0,15,15,15,,,,,,,,,,,,,,,,,,,,,,,,,,,,,,,,,,,,,,,,,,,,,,,,,,,,,,,,,,,,,,,,,1.71296297510465,0.8768717999337241,614.9475061999401,None,ScrollUp,정답입니다,614.9475061999401,None,614.9475061999401,None,614.9475061999401,None,614.9475061999401,None,615.7231041999767,None,615.7231041999767,616.2232698999578,,,,,,,,,,,,,,,,028,2022-05-23_11h18.23.695,FishGame,2022.1.1,60.02487431563846,
,17,나를 보내줘,6,Green,A,0,0,ScrollUp,ScrollDown,Green.png,5,NonTarget,NonTarget,,,,,0,0,0,0,,,,,,,,,,,,,,,,,,,,,,,,,,,,,0,16,16,16,,,,,,,,,,,,,,,,,,,,,,,,,,,,,,,,,,,,,,,,,,,,,,,,,,,,,,,,,,,,,,,,,1.7731481442848842,0.9947731000138447,616.8430817000335,None,ScrollUp,정답입니다,616.8430817000335,None,616.8430817000335,None,616.8430817000335,None,616.8430817000335,None,617.7419832999585,None,617.7419832999585,618.2565379999578,,,,,,,,,,,,,,,,028,2022-05-23_11h18.23.695,FishGame,2022.1.1,60.02487431563846,
,18,넌 협조적이야,1,Green,A,5.625,5.666666666666667,ScrollDown,ScrollUp,Green.png,5,Positive,Congruent,,,,,0,0,0,0,,,,,,,,,,,,,,,,,,,,,,,,,,,,,0,17,17,17,,,,,,,,,,,,,,,,,,,,,,,,,,,,,,,,,,,,,,,,,,,,,,,,,,,,,,,,,,,,,,,,,1.120370368162791,1.0107566999504343,618.8630913000088,None,ScrollDown,정답입니다,618.8630913000088,None,618.8630913000088,None,618.8630913000088,None,618.8630913000088,None,619.773135400028,None,619.773135400028,620.2731820000336,,,,,,,,,,,,,,,,028,2022-05-23_11h18.23.695,FishGame,2022.1.1,60.02487431563846,
,19,나를 데려가줘,6,Orange,B,0,0,ScrollDown,ScrollUp,Orange.png,5,NonTarget,NonTarget,,,,,0,0,0,0,,,,,,,,,,,,,,,,,,,,,,,,,,,,,0,18,18,18,,,,,,,,,,,,,,,,,,,,,,,,,,,,,,,,,,,,,,,,,,,,,,,,,,,,,,,,,,,,,,,,,1.1141975373029709,1.0258130000438541,620.9026989999693,None,ScrollDown,정답입니다,620.9026989999693,None,620.9026989999693,None,620.9026989999693,None,620.9026989999693,None,621.8227775000269,None,621.8227775000269,622.3228436999489,,,,,,,,,,,,,,,,028,2022-05-23_11h18.23.695,FishGame,2022.1.1,60.02487431563846,
,20,넌 몰인정해,5,Orange,B,2.541666666666667,2.066666666666667,ScrollUp,ScrollDown,Orange.png,5,Negative,Congruent,,,,,0,0,0,0,,,,,,,,,,,,,,,,,,,,,,,,,,,,,0,19,19,19,,,,,,,,,,,,,,,,,,,,,,,,,,,,,,,,,,,,,,,,,,,,,,,,,,,,,,,,,,,,,,,,,1.7577160547176998,0.9452549999114126,622.949102899991,None,ScrollUp,정답입니다,622.949102899991,None,622.949102899991,None,622.949102899991,None,622.949102899991,None,623.791994499974,None,623.791994499974,624.2919964999892,,,,,,,,,,,,,,,,028,2022-05-23_11h18.23.695,FishGame,2022.1.1,60.02487431563846,
,21,나를 데려가줘,6,Orange,B,0,0,ScrollDown,ScrollUp,Orange.png,5,NonTarget,NonTarget,,,,,0,0,0,0,,,,,,,,,,,,,,,,,,,,,,,,,,,,,0,20,20,20,,,,,,,,,,,,,,,,,,,,,,,,,,,,,,,,,,,,,,,,,,,,,,,,,,,,,,,,,,,,,,,,,1.1682098756233852,0.9296397999860346,624.9096565999789,None,ScrollDown,정답입니다,624.9096565999789,None,624.9096565999789,None,624.9096565999789,None,624.9096565999789,None,625.7419500999385,None,625.7419500999385,626.2454201999353,,,,,,,,,,,,,,,,028,2022-05-23_11h18.23.695,FishGame,2022.1.1,60.02487431563846,
