name,TrialNum,Word,WordCategory,FishType,WordList,WordValence,WordReputation,CorrectResp,IncorrectResp,FishTypeFile,Round,WordType,Condition,LoopforOrange.thisRepN,LoopforOrange.thisTrialN,LoopforOrange.thisN,LoopforOrange.thisIndex,OrangeInstLoop.thisRepN,OrangeInstLoop.thisTrialN,OrangeInstLoop.thisN,OrangeInstLoop.thisIndex,OrangePrac.thisRepN,OrangePrac.thisTrialN,OrangePrac.thisN,OrangePrac.thisIndex,temp1.thisRepN,temp1.thisTrialN,temp1.thisN,temp1.thisIndex,OrangeRound1.thisRepN,OrangeRound1.thisTrialN,OrangeRound1.thisN,OrangeRound1.thisIndex,OrangeRound2.thisRepN,OrangeRound2.thisTrialN,OrangeRound2.thisN,OrangeRound2.thisIndex,OrangeRound3.thisRepN,OrangeRound3.thisTrialN,OrangeRound3.thisN,OrangeRound3.thisIndex,OrangeRound4.thisRepN,OrangeRound4.thisTrialN,OrangeRound4.thisN,OrangeRound4.thisIndex,OrangeRound5.thisRepN,OrangeRound5.thisTrialN,OrangeRound5.thisN,OrangeRound5.thisIndex,LoopForGreen.thisRepN,LoopForGreen.thisTrialN,LoopForGreen.thisN,LoopForGreen.thisIndex,text_2.started,text_2.stopped,text_3.started,text_3.stopped,key_resp.keys,key_resp.rt,key_resp.started,key_resp.stopped,PassI_2.started,PassI_2.stopped,PassInst_2.keys,PassInst_2.rt,PassInst_2.started,PassInst_2.stopped,mouse_2.x,mouse_2.y,mouse_2.leftButton,mouse_2.midButton,mouse_2.rightButton,mouse_2.started,mouse_2.stopped,image.started,image.stopped,text_5.started,text_5.stopped,text_6.started,text_6.stopped,text_7.started,text_7.stopped,text_8.started,text_8.stopped,slider_2.response,slider_2.rt,slider_2.started,slider_2.stopped,Response_2,Feedback_2,BackGround_2.started,BackGround_2.stopped,Fish_2.started,Fish_2.stopped,WordBox_2.started,WordBox_2.stopped,Words_2.started,Words_2.stopped,BackGround_Feedback_2.started,BackGround_Feedback_2.stopped,Feedbacks_2.started,Feedbacks_2.stopped,Continue_or_not.keys,Continue_or_not.rt,Continue_or_not.started,Continue_or_not.stopped,image_3.started,image_3.stopped,mouse_3.x,mouse_3.y,mouse_3.leftButton,mouse_3.midButton,mouse_3.rightButton,mouse_3.started,mouse_3.stopped,startmain.started,startmain.stopped,slider.response,slider.rt,slider.started,slider.stopped,Response,Feedback,BackGround.started,BackGround.stopped,Fish.started,Fish.stopped,WordBox.started,WordBox.stopped,Words.started,Words.stopped,BackGround_Feedback.started,BackGround_Feedback.stopped,Feedbacks.started,Feedbacks.stopped,text.started,text.stopped,break_interval.started,break_interval.stopped,mouse.x,mouse.y,mouse.leftButton,mouse.midButton,mouse.rightButton,mouse.started,mouse.stopped,stratnextround.started,stratnextround.stopped,endgame.started,endgame.stopped,participant,date,expName,psychopyVersion,frameRate,
,,,,,,,,,,,,,,,,,,,,,,,,,,,,,,,,,,,,,,,,,,,,,,,,,,,,,,17.11844370001927,None,17.11844370001927,None,space,5.741049599950202,17.610678000026383,None,,,,,,,,,,,,,,,,,,,,,,,,,,,,,,,,,,,,,,,,,,,,,,,,,,,,,,,,,,,,,,,,,,,,,,,,,,,,,,,,,,,,,,,,,,029,2022-05-25_20h00.01.316,FishGame,2022.1.1,61.09496846472064,
물고기과제_instruction(참가자용)OrangeVersion.mp4,,,,,,,,,,,,,,0,0,0,0,0,0,0,0,,,,,,,,,,,,,,,,,,,,,,,,,,,,,,,,,,,,,,,,,95.70585430006031,None,n,1.2297196000581607,95.70585430006031,None,,,,,,,,,,,,,,,,,,,,,,,,,,,,,,,,,,,,,,,,,,,,,,,,,,,,,,,,,,,,,,,,,,,,,,,,,,,,,,,,,,,,029,2022-05-25_20h00.01.316,FishGame,2022.1.1,61.09496846472064,
,1,넌 교활해,5,Green,B,2.333333333333333,2.133333333333333,ScrollUp,ScrollDown,Green.png,practice,,,0,0,0,0,,,,,0,0,0,0,0,0,0,0,,,,,,,,,,,,,,,,,,,,,,,,,,,,,,,,,,,,,,,-0.16203703,-0.16296296,1,0,0,0.5144037299323827,None,96.95352660003118,None,100.3921766000567,101.9057015000144,101.92240160005167,102.87248050002381,102.9224631000543,103.87246520002373,103.87246520002373,None,2,2.3266881000017747,105.17209610005375,None,ScrollUp,정답입니다,105.17209610005375,None,105.17209610005375,None,105.17209610005375,None,105.17209610005375,None,107.20302350004204,None,107.20302350004204,107.70306830003392,,,,,,,,,,,,,,,,,,,,,,,,,,,,,,,,,,,,,,,,,,,,,,,,,029,2022-05-25_20h00.01.316,FishGame,2022.1.1,61.09496846472064,
,2,넌 슬기로워,2,Orange,A,6.166666666666667,4.1,ScrollDown,ScrollUp,Orange.png,practice,,,0,0,0,0,,,,,0,0,0,0,0,1,1,1,,,,,,,,,,,,,,,,,,,,,,,,,,,,,,,,,,,,,,,,,,,,,,,,,,,,,,,,1,1.3612761000404134,108.34354490006808,None,ScrollDown,정답입니다,108.34354490006808,None,108.34354490006808,None,108.34354490006808,None,108.34354490006808,None,109.5863493999932,None,109.5863493999932,110.08887049998157,,,,,,,,,,,,,,,,,,,,,,,,,,,,,,,,,,,,,,,,,,,,,,,,,029,2022-05-25_20h00.01.316,FishGame,2022.1.1,61.09496846472064,
,3,나를 보내줘,6,Orange,A,0,0,ScrollUp,ScrollDown,Orange.png,practice,,,0,0,0,0,,,,,0,0,0,0,0,2,2,2,,,,,,,,,,,,,,,,,,,,,,,,,,,,,,,,,,,,,,,,,,,,,,,,,,,,,,,,1.7824074029922485,1.4089336999459192,110.71676710003521,None,ScrollUp,정답입니다,110.71676710003521,None,110.71676710003521,None,110.71676710003521,None,110.71676710003521,None,112.02203220000956,None,112.02203220000956,112.522040400072,,,,,,,,,,,,,,,,,,,,,,,,,,,,,,,,,,,,,,,,,,,,,,,,,029,2022-05-25_20h00.01.316,FishGame,2022.1.1,61.09496846472064,
,4,나를 데려가줘,6,Green,B,0,0,ScrollDown,ScrollUp,Green.png,practice,,,0,0,0,0,,,,,0,0,0,0,0,3,3,3,,,,,,,,,,,,,,,,,,,,,,,,,,,,,,,,,,,,,,,,,,,,,,,,,,,,,,,,1.140432099501292,1.0276752000208944,113.14500790007878,None,ScrollDown,정답입니다,113.14500790007878,None,113.14500790007878,None,113.14500790007878,None,113.14500790007878,None,114.06952410005033,None,114.06952410005033,114.56957819999661,,,,,,,,,,,,,,,,,,,,,,,,,,,,,,,,,,,,,,,,,,,,,,,,,029,2022-05-25_20h00.01.316,FishGame,2022.1.1,61.09496846472064,
,1,넌 교활해,5,Green,B,2.333333333333333,2.133333333333333,ScrollUp,ScrollDown,Green.png,practice,,,0,0,0,0,,,,,0,0,0,0,,,,,,,,,,,,,,,,,,,,,,,,,,,,,,,,,,,,,,,,,,,,,,,,,,,,,,,,,,,,,,,,,,,,,,,,,,,,,,n,7.65761469991412,115.06959269999061,None,115.06959269999061,None,,,,,,,,,,,,,,,,,,,,,,,,,,,,,,,,,,,,,,,,,,,029,2022-05-25_20h00.01.316,FishGame,2022.1.1,61.09496846472064,
,1,넌 따뜻해,1,Green,B,6.083333333333333,5.6,ScrollUp,ScrollDown,Green.png,1,Positive,Incongruent,0,0,0,0,,,,,,,,,,,,,0,0,0,0,,,,,,,,,,,,,,,,,,,,,,,,,,,,,,,,,,,,,,,,,,,,123.95315210008994,125.45533030002844,125.4886682999786,126.44173850002699,126.49168029997963,127.45522130001336,127.43620650004596,None,,,,,,,,,,,,,,,,,,,,,,,,,0.02037037,-0.10462963,1,0,0,0.31176803004927933,None,122.75505700008944,None,1.9799382885297139,1.3909681000513956,128.75677019997966,None,ScrollUp,정답입니다,128.75677019997966,None,128.75677019997966,None,128.75677019997966,None,128.75677019997966,None,129.83587970002554,None,129.83587970002554,130.33594100002665,,,,,,,,,,,,,,,,029,2022-05-25_20h00.01.316,FishGame,2022.1.1,61.09496846472064,
,2,넌 기품있어,2,Green,B,5.791666666666668,4.5,ScrollUp,ScrollDown,Green.png,1,Positive,Incongruent,0,0,0,0,,,,,,,,,,,,,0,1,1,1,,,,,,,,,,,,,,,,,,,,,,,,,,,,,,,,,,,,,,,,,,,,,,,,,,,,,,,,,,,,,,,,,,,,,,,,,,,,,,,,,,,,,2,1.0965911999810487,130.96709050005302,None,ScrollUp,정답입니다,130.96709050005302,None,130.96709050005302,None,130.96709050005302,None,130.96709050005302,None,131.95512950001284,None,131.95512950001284,132.45513070002198,,,,,,,,,,,,,,,,029,2022-05-25_20h00.01.316,FishGame,2022.1.1,61.09496846472064,
,3,나를 보내줘,6,Orange,A,0,0,ScrollUp,ScrollDown,Orange.png,1,NonTarget,NonTarget,0,0,0,0,,,,,,,,,,,,,0,2,2,2,,,,,,,,,,,,,,,,,,,,,,,,,,,,,,,,,,,,,,,,,,,,,,,,,,,,,,,,,,,,,,,,,,,,,,,,,,,,,,,,,,,,,1.9259259502092998,1.127711599925533,133.08904580003582,None,ScrollUp,정답입니다,133.08904580003582,None,133.08904580003582,None,133.08904580003582,None,133.08904580003582,None,134.10478300007526,None,134.10478300007526,134.6049146000296,,,,,,,,,,,,,,,,029,2022-05-25_20h00.01.316,FishGame,2022.1.1,61.09496846472064,
,4,넌 수동적이야,4,Orange,A,2.833333333333333,2.933333333333333,ScrollDown,ScrollUp,Orange.png,1,Negative,Incongruent,0,0,0,0,,,,,,,,,,,,,0,3,3,3,,,,,,,,,,,,,,,,,,,,,,,,,,,,,,,,,,,,,,,,,,,,,,,,,,,,,,,,,,,,,,,,,,,,,,,,,,,,,,,,,,,,,1.040123442808787,1.0423974000150338,135.24376179999672,None,ScrollDown,정답입니다,135.24376179999672,None,135.24376179999672,None,135.24376179999672,None,135.24376179999672,None,136.17155269999057,None,136.17155269999057,136.67155950004235,,,,,,,,,,,,,,,,029,2022-05-25_20h00.01.316,FishGame,2022.1.1,61.09496846472064,
,5,넌 사심이 없어,3,Green,B,4.916666666666666,4.333333333333333,ScrollUp,ScrollDown,Green.png,1,Neutral,Neutral,0,0,0,0,,,,,,,,,,,,,0,4,4,4,,,,,,,,,,,,,,,,,,,,,,,,,,,,,,,,,,,,,,,,,,,,,,,,,,,,,,,,,,,,,,,,,,,,,,,,,,,,,,,,,,,,,1.7361111094554267,1.3442057999782264,137.29897500004154,None,ScrollUp,정답입니다,137.29897500004154,None,137.29897500004154,None,137.29897500004154,None,137.29897500004154,None,138.53803440008778,None,138.53803440008778,139.05479600001127,,,,,,,,,,,,,,,,029,2022-05-25_20h00.01.316,FishGame,2022.1.1,61.09496846472064,
,6,넌 헤퍼,5,Orange,A,2.458333333333334,2.233333333333333,ScrollDown,ScrollUp,Orange.png,1,Negative,Incongruent,0,0,0,0,,,,,,,,,,,,,0,5,5,5,,,,,,,,,,,,,,,,,,,,,,,,,,,,,,,,,,,,,,,,,,,,,,,,,,,,,,,,,,,,,,,,,,,,,,,,,,,,,,,,,,,,,1.2175925970077515,0.9131513999309391,139.66082160000224,None,ScrollDown,정답입니다,139.66082160000224,None,139.66082160000224,None,139.66082160000224,None,139.66082160000224,None,140.47138350002933,None,140.47138350002933,140.9714643000625,,,,,,,,,,,,,,,,029,2022-05-25_20h00.01.316,FishGame,2022.1.1,61.09496846472064,
,7,넌 말쑥해,3,Orange,A,4.833333333333334,4.333333333333333,ScrollDown,ScrollUp,Orange.png,1,Neutral,Neutral,0,0,0,0,,,,,,,,,,,,,0,6,6,6,,,,,,,,,,,,,,,,,,,,,,,,,,,,,,,,,,,,,,,,,,,,,,,,,,,,,,,,,,,,,,,,,,,,,,,,,,,,,,,,,,,,,1.233024686574936,0.9796404999215156,141.5943231000565,None,ScrollDown,정답입니다,141.5943231000565,None,141.5943231000565,None,141.5943231000565,None,141.5943231000565,None,142.46923120005522,None,142.46923120005522,142.96921970008407,,,,,,,,,,,,,,,,029,2022-05-25_20h00.01.316,FishGame,2022.1.1,61.09496846472064,
,8,넌 투덜거려,5,Green,B,2.541666666666667,2.266666666666667,ScrollUp,ScrollDown,Green.png,1,Negative,Congruent,0,0,0,0,,,,,,,,,,,,,0,7,7,7,,,,,,,,,,,,,,,,,,,,,,,,,,,,,,,,,,,,,,,,,,,,,,,,,,,,,,,,,,,,,,,,,,,,,,,,,,,,,,,,,,,,,1.7561728407939274,1.0468075999524444,143.59758260007948,None,ScrollUp,정답입니다,143.59758260007948,None,143.59758260007948,None,143.59758260007948,None,143.59758260007948,None,144.53797360009048,None,144.53797360009048,145.0380496000871,,,,,,,,,,,,,,,,029,2022-05-25_20h00.01.316,FishGame,2022.1.1,61.09496846472064,
,9,넌 적극적이야,1,Orange,A,5.708333333333333,5.533333333333333,ScrollDown,ScrollUp,Orange.png,1,Positive,Congruent,0,0,0,0,,,,,,,,,,,,,0,8,8,8,,,,,,,,,,,,,,,,,,,,,,,,,,,,,,,,,,,,,,,,,,,,,,,,,,,,,,,,,,,,,,,,,,,,,,,,,,,,,,,,,,,,,1.2731481492519379,1.0130315999267623,145.66049859998748,None,ScrollDown,정답입니다,145.66049859998748,None,145.66049859998748,None,145.66049859998748,None,145.66049859998748,None,146.56914250005502,None,146.56914250005502,147.07445980003104,,,,,,,,,,,,,,,,029,2022-05-25_20h00.01.316,FishGame,2022.1.1,61.09496846472064,
,10,넌 재미없어,4,Green,B,2.625,2.966666666666667,ScrollUp,ScrollDown,Green.png,1,Negative,Congruent,0,0,0,0,,,,,,,,,,,,,0,9,9,9,,,,,,,,,,,,,,,,,,,,,,,,,,,,,,,,,,,,,,,,,,,,,,,,,,,,,,,,,,,,,,,,,,,,,,,,,,,,,,,,,,,,,1.679012343287468,0.894237200031057,147.6953335000435,None,ScrollUp,정답입니다,147.6953335000435,None,147.6953335000435,None,147.6953335000435,None,147.6953335000435,None,148.4856895999983,None,148.4856895999983,148.98798780003563,,,,,,,,,,,,,,,,029,2022-05-25_20h00.01.316,FishGame,2022.1.1,61.09496846472064,
,11,넌 명석해,2,Orange,A,5.875,4.033333333333333,ScrollDown,ScrollUp,Orange.png,1,Positive,Congruent,0,0,0,0,,,,,,,,,,,,,0,10,10,10,,,,,,,,,,,,,,,,,,,,,,,,,,,,,,,,,,,,,,,,,,,,,,,,,,,,,,,,,,,,,,,,,,,,,,,,,,,,,,,,,,,,,1.2515432039896646,0.8923752999398857,149.61593349999748,None,ScrollDown,정답입니다,149.61593349999748,None,149.61593349999748,None,149.61593349999748,None,149.61593349999748,None,150.40237630007323,None,150.40237630007323,150.90456350008026,,,,,,,,,,,,,,,,029,2022-05-25_20h00.01.316,FishGame,2022.1.1,61.09496846472064,
,12,나를 데려가줘,6,Green,B,0,0,ScrollDown,ScrollUp,Green.png,1,NonTarget,NonTarget,0,0,0,0,,,,,,,,,,,,,0,11,11,11,,,,,,,,,,,,,,,,,,,,,,,,,,,,,,,,,,,,,,,,,,,,,,,,,,,,,,,,,,,,,,,,,,,,,,,,,,,,,,,,,,,,,1.2222222139437993,0.8774809000315145,151.53181760001462,None,ScrollDown,정답입니다,151.53181760001462,None,151.53181760001462,None,151.53181760001462,None,151.53181760001462,None,152.3023137000855,None,152.3023137000855,152.80453239998315,,,,,,,,,,,,,,,,029,2022-05-25_20h00.01.316,FishGame,2022.1.1,61.09496846472064,
,13,넌 소심해,4,Orange,A,3,3.1,ScrollDown,ScrollUp,Orange.png,1,Negative,Incongruent,0,0,0,0,,,,,,,,,,,,,0,12,12,12,,,,,,,,,,,,,,,,,,,,,,,,,,,,,,,,,,,,,,,,,,,,,,,,,,,,,,,,,,,,,,,,,,,,,,,,,,,,,,,,,,,,,1.2067901243766148,0.8795697999885306,153.42660600005183,None,ScrollDown,정답입니다,153.42660600005183,None,153.42660600005183,None,153.42660600005183,None,153.42660600005183,None,154.20224220003,None,154.20224220003,154.70446270005777,,,,,,,,,,,,,,,,029,2022-05-25_20h00.01.316,FishGame,2022.1.1,61.09496846472064,
,14,넌 합리적이야,2,Orange,A,5.583333333333333,4.733333333333333,ScrollDown,ScrollUp,Orange.png,1,Positive,Congruent,0,0,0,0,,,,,,,,,,,,,0,13,13,13,,,,,,,,,,,,,,,,,,,,,,,,,,,,,,,,,,,,,,,,,,,,,,,,,,,,,,,,,,,,,,,,,,,,,,,,,,,,,,,,,,,,,1.3271604999899864,0.9109281999990344,155.341581900022,None,ScrollDown,정답입니다,155.341581900022,None,155.341581900022,None,155.341581900022,None,155.341581900022,None,156.1377868000418,None,156.1377868000418,156.6378018000396,,,,,,,,,,,,,,,,029,2022-05-25_20h00.01.316,FishGame,2022.1.1,61.09496846472064,
,15,넌 무자비해,5,Green,B,2.333333333333333,2.1,ScrollUp,ScrollDown,Green.png,1,Negative,Congruent,0,0,0,0,,,,,,,,,,,,,0,14,14,14,,,,,,,,,,,,,,,,,,,,,,,,,,,,,,,,,,,,,,,,,,,,,,,,,,,,,,,,,,,,,,,,,,,,,,,,,,,,,,,,,,,,,1.7932098756233852,0.9274699999950826,157.2685463000089,None,ScrollUp,정답입니다,157.2685463000089,None,157.2685463000089,None,157.2685463000089,None,157.2685463000089,None,158.08554280002136,None,158.08554280002136,158.58556939999107,,,,,,,,,,,,,,,,029,2022-05-25_20h00.01.316,FishGame,2022.1.1,61.09496846472064,
,16,나를 보내줘,6,Orange,A,0,0,ScrollUp,ScrollDown,Orange.png,1,NonTarget,NonTarget,0,0,0,0,,,,,,,,,,,,,0,15,15,15,,,,,,,,,,,,,,,,,,,,,,,,,,,,,,,,,,,,,,,,,,,,,,,,,,,,,,,,,,,,,,,,,,,,,,,,,,,,,,,,,,,,,1.7808641890684764,1.1277470000786707,159.21152110002004,None,ScrollUp,정답입니다,159.21152110002004,None,159.21152110002004,None,159.21152110002004,None,159.21152110002004,None,160.23534220003057,None,160.23534220003057,160.7376541000558,,,,,,,,,,,,,,,,029,2022-05-25_20h00.01.316,FishGame,2022.1.1,61.09496846472064,
,17,넌 현실적이야,3,Green,B,4.608695652173913,4.766666666666667,ScrollUp,ScrollDown,Green.png,1,Neutral,Neutral,0,0,0,0,,,,,,,,,,,,,0,16,16,16,,,,,,,,,,,,,,,,,,,,,,,,,,,,,,,,,,,,,,,,,,,,,,,,,,,,,,,,,,,,,,,,,,,,,,,,,,,,,,,,,,,,,1.8410493830839794,1.0108058999758214,161.36142109998036,None,ScrollUp,정답입니다,161.36142109998036,None,161.36142109998036,None,161.36142109998036,None,161.36142109998036,None,162.27101310004946,None,162.27101310004946,162.7709959000349,,,,,,,,,,,,,,,,029,2022-05-25_20h00.01.316,FishGame,2022.1.1,61.09496846472064,
,18,넌 의리있어,1,Green,B,5.833333333333334,5.633333333333334,ScrollUp,ScrollDown,Green.png,1,Positive,Incongruent,0,0,0,0,,,,,,,,,,,,,0,17,17,17,,,,,,,,,,,,,,,,,,,,,,,,,,,,,,,,,,,,,,,,,,,,,,,,,,,,,,,,,,,,,,,,,,,,,,,,,,,,,,,,,,,,,1.5725308619439602,0.8425627000397071,163.41749590006657,None,ScrollUp,정답입니다,163.41749590006657,None,163.41749590006657,None,163.41749590006657,None,163.41749590006657,None,164.15203260001726,None,164.15203260001726,164.6541903000325,,,,,,,,,,,,,,,,029,2022-05-25_20h00.01.316,FishGame,2022.1.1,61.09496846472064,
,19,넌 신경과민이야,5,Orange,A,2.541666666666667,2.166666666666667,ScrollDown,ScrollUp,Orange.png,1,Negative,Incongruent,0,0,0,0,,,,,,,,,,,,,0,18,18,18,,,,,,,,,,,,,,,,,,,,,,,,,,,,,,,,,,,,,,,,,,,,,,,,,,,,,,,,,,,,,,,,,,,,,,,,,,,,,,,,,,,,,1.2577160596847534,0.8264797000447288,165.28139160003047,None,ScrollDown,정답입니다,165.28139160003047,None,165.28139160003047,None,165.28139160003047,None,165.28139160003047,None,166.0021498000715,None,166.0021498000715,166.5042495999951,,,,,,,,,,,,,,,,029,2022-05-25_20h00.01.316,FishGame,2022.1.1,61.09496846472064,
,20,넌 편안해,1,Orange,A,5.916666666666666,5.866666666666666,ScrollDown,ScrollUp,Orange.png,1,Positive,Congruent,0,0,0,0,,,,,,,,,,,,,0,19,19,19,,,,,,,,,,,,,,,,,,,,,,,,,,,,,,,,,,,,,,,,,,,,,,,,,,,,,,,,,,,,,,,,,,,,,,,,,,,,,,,,,,,,,1.2685185074806213,0.877219499903731,167.13884170004167,None,ScrollDown,정답입니다,167.13884170004167,None,167.13884170004167,None,167.13884170004167,None,167.13884170004167,None,167.9017171000596,None,167.9017171000596,168.4018103000708,,,,,,,,,,,,,,,,029,2022-05-25_20h00.01.316,FishGame,2022.1.1,61.09496846472064,
,21,넌 품위있어,2,Green,B,5.291666666666666,4.466666666666667,ScrollUp,ScrollDown,Green.png,1,Positive,Incongruent,0,0,0,0,,,,,,,,,,,,,0,20,20,20,,,,,,,,,,,,,,,,,,,,,,,,,,,,,,,,,,,,,,,,,,,,,,,,,,,,,,,,,,,,,,,,,,,,,,,,,,,,,,,,,,,,,1.537037037933866,0.878203299944289,169.0220836000517,None,NoResponse,무응답입니다,169.0220836000517,None,169.0220836000517,None,169.0220836000517,None,169.0220836000517,None,169.80173710000236,None,169.80173710000236,170.30432180000935,,,,,,,,,,,,,,,,029,2022-05-25_20h00.01.316,FishGame,2022.1.1,61.09496846472064,
,22,넌 빈틈없어,3,Orange,A,4.833333333333333,3.966666666666667,ScrollDown,ScrollUp,Orange.png,1,Neutral,Neutral,0,0,0,0,,,,,,,,,,,,,0,21,21,21,,,,,,,,,,,,,,,,,,,,,,,,,,,,,,,,,,,,,,,,,,,,,,,,,,,,,,,,,,,,,,,,,,,,,,,,,,,,,,,,,,,,,1.2608024626970291,0.7649801999796182,170.9267035999801,None,ScrollDown,정답입니다,170.9267035999801,None,170.9267035999801,None,170.9267035999801,None,170.9267035999801,None,171.58753660006914,None,171.58753660006914,172.08756320003886,,,,,,,,,,,,,,,,029,2022-05-25_20h00.01.316,FishGame,2022.1.1,61.09496846472064,
,23,넌 상상력없어,4,Green,B,2.833333333333333,3.133333333333333,ScrollUp,ScrollDown,Green.png,1,Negative,Congruent,0,0,0,0,,,,,,,,,,,,,0,22,22,22,,,,,,,,,,,,,,,,,,,,,,,,,,,,,,,,,,,,,,,,,,,,,,,,,,,,,,,,,,,,,,,,,,,,,,,,,,,,,,,,,,,,,1.7777777860562007,1.0611229999922216,172.73691279999912,None,ScrollUp,정답입니다,172.73691279999912,None,172.73691279999912,None,172.73691279999912,None,172.73691279999912,None,173.68520700000226,None,173.68520700000226,174.18749100004788,,,,,,,,,,,,,,,,029,2022-05-25_20h00.01.316,FishGame,2022.1.1,61.09496846472064,
,24,넌 지혜로워,2,Green,B,6.333333333333334,4.633333333333334,ScrollUp,ScrollDown,Green.png,1,Positive,Incongruent,0,0,0,0,,,,,,,,,,,,,0,23,23,23,,,,,,,,,,,,,,,,,,,,,,,,,,,,,,,,,,,,,,,,,,,,,,,,,,,,,,,,,,,,,,,,,,,,,,,,,,,,,,,,,,,,,1.634259263674418,0.8293801000108942,174.82603390002623,None,ScrollUp,정답입니다,174.82603390002623,None,174.82603390002623,None,174.82603390002623,None,174.82603390002623,None,175.53512880008202,None,175.53512880008202,176.0373870000476,,,,,,,,,,,,,,,,029,2022-05-25_20h00.01.316,FishGame,2022.1.1,61.09496846472064,
,25,넌 시끄러워,4,Orange,A,2.833333333333333,3.033333333333333,ScrollDown,ScrollUp,Orange.png,1,Negative,Incongruent,0,0,0,0,,,,,,,,,,,,,0,24,24,24,,,,,,,,,,,,,,,,,,,,,,,,,,,,,,,,,,,,,,,,,,,,,,,,,,,,,,,,,,,,,,,,,,,,,,,,,,,,,,,,,,,,,1.297839509944121,1.0608423000667244,176.66446620004717,None,ScrollDown,정답입니다,176.66446620004717,None,176.66446620004717,None,176.66446620004717,None,176.66446620004717,None,177.61847530002706,None,177.61847530002706,178.12070249998942,,,,,,,,,,,,,,,,029,2022-05-25_20h00.01.316,FishGame,2022.1.1,61.09496846472064,
,26,넌 만사태평이야,3,Green,B,4,4.333333333333333,ScrollUp,ScrollDown,Green.png,1,Neutral,Neutral,0,0,0,0,,,,,,,,,,,,,0,25,25,25,,,,,,,,,,,,,,,,,,,,,,,,,,,,,,,,,,,,,,,,,,,,,,,,,,,,,,,,,,,,,,,,,,,,,,,,,,,,,,,,,,,,,1.7052469179034233,0.9420563000021502,178.74676350003574,None,ScrollUp,정답입니다,178.74676350003574,None,178.74676350003574,None,178.74676350003574,None,178.74676350003574,None,179.58483419998083,None,179.58483419998083,180.08490230003372,,,,,,,,,,,,,,,,029,2022-05-25_20h00.01.316,FishGame,2022.1.1,61.09496846472064,
,27,넌 붙임성있어,1,Orange,A,5.708333333333333,5.633333333333334,ScrollDown,ScrollUp,Orange.png,1,Positive,Congruent,0,0,0,0,,,,,,,,,,,,,0,26,26,26,,,,,,,,,,,,,,,,,,,,,,,,,,,,,,,,,,,,,,,,,,,,,,,,,,,,,,,,,,,,,,,,,,,,,,,,,,,,,,,,,,,,,1.2407407313585281,0.9630781000014395,180.71293030004017,None,ScrollDown,정답입니다,180.71293030004017,None,180.71293030004017,None,180.71293030004017,None,180.71293030004017,None,181.56814160000067,None,181.56814160000067,182.07072509999853,,,,,,,,,,,,,,,,029,2022-05-25_20h00.01.316,FishGame,2022.1.1,61.09496846472064,
,28,넌 영리해,2,Orange,A,6,4.033333333333333,ScrollDown,ScrollUp,Orange.png,1,Positive,Congruent,0,0,0,0,,,,,,,,,,,,,0,27,27,27,,,,,,,,,,,,,,,,,,,,,,,,,,,,,,,,,,,,,,,,,,,,,,,,,,,,,,,,,,,,,,,,,,,,,,,,,,,,,,,,,,,,,1.2376543283462524,0.8962561999214813,182.69317059998866,None,ScrollDown,정답입니다,182.69317059998866,None,182.69317059998866,None,182.69317059998866,None,182.69317059998866,None,183.48512409999967,None,183.48512409999967,183.99047970003448,,,,,,,,,,,,,,,,029,2022-05-25_20h00.01.316,FishGame,2022.1.1,61.09496846472064,
,29,넌 열심이야,1,Green,B,6.041666666666667,5.833333333333333,ScrollUp,ScrollDown,Green.png,1,Positive,Incongruent,0,0,0,0,,,,,,,,,,,,,0,28,28,28,,,,,,,,,,,,,,,,,,,,,,,,,,,,,,,,,,,,,,,,,,,,,,,,,,,,,,,,,,,,,,,,,,,,,,,,,,,,,,,,,,,,,1.5462962966412306,0.8940568000543863,184.61005330004264,None,NoResponse,무응답입니다,184.61005330004264,None,184.61005330004264,None,184.61005330004264,None,184.61005330004264,None,185.4016222000355,None,185.4016222000355,185.90383179998025,,,,,,,,,,,,,,,,029,2022-05-25_20h00.01.316,FishGame,2022.1.1,61.09496846472064,
,30,넌 인기없어,4,Green,B,3,3.3,ScrollUp,ScrollDown,Green.png,1,Negative,Congruent,0,0,0,0,,,,,,,,,,,,,0,29,29,29,,,,,,,,,,,,,,,,,,,,,,,,,,,,,,,,,,,,,,,,,,,,,,,,,,,,,,,,,,,,,,,,,,,,,,,,,,,,,,,,,,,,,2,1.6079616000643,186.53278730006423,None,ScrollUp,정답입니다,186.53278730006423,None,186.53278730006423,None,186.53278730006423,None,186.53278730006423,None,188.0349168999819,None,188.0349168999819,188.5371565000387,,,,,,,,,,,,,,,,029,2022-05-25_20h00.01.316,FishGame,2022.1.1,61.09496846472064,
,31,넌 익살스러워,3,Orange,A,4.708333333333334,4.833333333333333,ScrollDown,ScrollUp,Orange.png,1,Neutral,Neutral,0,0,0,0,,,,,,,,,,,,,0,30,30,30,,,,,,,,,,,,,,,,,,,,,,,,,,,,,,,,,,,,,,,,,,,,,,,,,,,,,,,,,,,,,,,,,,,,,,,,,,,,,,,,,,,,,1.0015431940555573,1.1454229999799281,189.16238420002628,None,ScrollDown,정답입니다,189.16238420002628,None,189.16238420002628,None,189.16238420002628,None,189.16238420002628,None,190.20126540004276,None,190.20126540004276,190.70134390005842,,,,,,,,,,,,,,,,029,2022-05-25_20h00.01.316,FishGame,2022.1.1,61.09496846472064,
,32,넌 이기적이야,5,Green,B,2.291666666666667,2.333333333333333,ScrollUp,ScrollDown,Green.png,1,Negative,Congruent,0,0,0,0,,,,,,,,,,,,,0,31,31,31,,,,,,,,,,,,,,,,,,,,,,,,,,,,,,,,,,,,,,,,,,,,,,,,,,,,,,,,,,,,,,,,,,,,,,,,,,,,,,,,,,,,,1.9691357910633087,1.0280473000602797,191.3221171000041,None,ScrollUp,정답입니다,191.3221171000041,None,191.3221171000041,None,191.3221171000041,None,191.3221171000041,None,192.25126609997824,None,192.25126609997824,192.75381070002913,,,,,,,,,,,,,,,,029,2022-05-25_20h00.01.316,FishGame,2022.1.1,61.09496846472064,
,33,나를 데려가줘,6,Green,B,0,0,ScrollDown,ScrollUp,Green.png,1,NonTarget,NonTarget,0,0,0,0,,,,,,,,,,,,,0,32,32,32,,,,,,,,,,,,,,,,,,,,,,,,,,,,,,,,,,,,,,,,,,,,,,,,,,,,,,,,,,,,,,,,,,,,,,,,,,,,,,,,,,,,,1.3796296243866284,1.5211911000078544,193.37588940002024,None,ScrollDown,정답입니다,193.37588940002024,None,193.37588940002024,None,193.37588940002024,None,193.37588940002024,None,194.796821200056,None,194.796821200056,195.30364040005952,,,,,,,,,,,,,,,,029,2022-05-25_20h00.01.316,FishGame,2022.1.1,61.09496846472064,
,34,넌 기회주의자야,5,Orange,A,2.875,2.133333333333333,ScrollDown,ScrollUp,Orange.png,1,Negative,Incongruent,0,0,0,0,,,,,,,,,,,,,0,33,33,33,,,,,,,,,,,,,,,,,,,,,,,,,,,,,,,,,,,,,,,,,,,,,,,,,,,,,,,,,,,,,,,,,,,,,,,,,,,,,,,,,,,,,1.1574074029922485,1.3094002000289038,195.933755200007,None,ScrollDown,정답입니다,195.933755200007,None,195.933755200007,None,195.933755200007,None,195.933755200007,None,197.13459260005038,None,197.13459260005038,197.63699110003654,,,,,,,,,,,,,,,,029,2022-05-25_20h00.01.316,FishGame,2022.1.1,61.09496846472064,
,1,넌 미성숙해,4,Orange,A,3,3.2,ScrollDown,ScrollUp,Orange.png,2,Negative,Incongruent,0,0,0,0,,,,,,,,,,,,,,,,,0,0,0,0,,,,,,,,,,,,,,,,,,,,,,,,,,,,,,,,,,,,,,,,230.0007484999951,231.5031089000404,231.5365327000618,232.4840825999854,232.5363551999908,233.486313899979,233.486313899979,None,,,,,,,,,,,,,,,,,,,,,,,,,,,,,,,,,,1.2299382835626602,1.0629693999653682,234.5924375000177,None,ScrollDown,정답입니다,234.5924375000177,None,234.5924375000177,None,234.5924375000177,None,234.5924375000177,None,235.55273730005138,None,235.55273730005138,236.0559941000538,198.13694820005912,None,198.13694820005912,None,-0.03888889,-0.08055556,1,0,0,0.015859830076806247,None,228.13622290000785,None,,,029,2022-05-25_20h00.01.316,FishGame,2022.1.1,61.09496846472064,
,2,넌 반사회적이야,5,Green,B,2.416666666666667,2.033333333333333,ScrollUp,ScrollDown,Green.png,2,Negative,Congruent,0,0,0,0,,,,,,,,,,,,,,,,,0,1,1,1,,,,,,,,,,,,,,,,,,,,,,,,,,,,,,,,,,,,,,,,,,,,,,,,,,,,,,,,,,,,,,,,,,,,,,,,,,,,,,,,,2,1.1773487000027671,236.67518959997687,None,ScrollUp,정답입니다,236.67518959997687,None,236.67518959997687,None,236.67518959997687,None,236.67518959997687,None,237.75053850002587,None,237.75053850002587,238.25059230008628,,,,,,,,,,,,,,,,029,2022-05-25_20h00.01.316,FishGame,2022.1.1,61.09496846472064,
,3,넌 유능해,2,Orange,A,6.208333333333333,4.433333333333334,ScrollDown,ScrollUp,Orange.png,2,Positive,Congruent,0,0,0,0,,,,,,,,,,,,,,,,,0,2,2,2,,,,,,,,,,,,,,,,,,,,,,,,,,,,,,,,,,,,,,,,,,,,,,,,,,,,,,,,,,,,,,,,,,,,,,,,,,,,,,,,,1,0.9963024000171572,238.88069530006032,None,ScrollDown,정답입니다,238.88069530006032,None,238.88069530006032,None,238.88069530006032,None,238.88069530006032,None,239.76938220008742,None,239.76938220008742,240.26942540006712,,,,,,,,,,,,,,,,029,2022-05-25_20h00.01.316,FishGame,2022.1.1,61.09496846472064,
,4,넌 능숙해,2,Green,B,5.666666666666667,4.733333333333333,ScrollUp,ScrollDown,Green.png,2,Positive,Incongruent,0,0,0,0,,,,,,,,,,,,,,,,,0,3,3,3,,,,,,,,,,,,,,,,,,,,,,,,,,,,,,,,,,,,,,,,,,,,,,,,,,,,,,,,,,,,,,,,,,,,,,,,,,,,,,,,,2,1.0596391999861225,240.88825000007637,None,ScrollUp,정답입니다,240.88825000007637,None,240.88825000007637,None,240.88825000007637,None,240.88825000007637,None,241.850204700022,None,241.850204700022,242.35026820003986,,,,,,,,,,,,,,,,029,2022-05-25_20h00.01.316,FishGame,2022.1.1,61.09496846472064,
,5,넌 진부해,4,Green,B,2.458333333333333,3.166666666666667,ScrollUp,ScrollDown,Green.png,2,Negative,Congruent,0,0,0,0,,,,,,,,,,,,,,,,,0,4,4,4,,,,,,,,,,,,,,,,,,,,,,,,,,,,,,,,,,,,,,,,,,,,,,,,,,,,,,,,,,,,,,,,,,,,,,,,,,,,,,,,,2,1.1323380999965593,242.97499510005582,None,ScrollUp,정답입니다,242.97499510005582,None,242.97499510005582,None,242.97499510005582,None,242.97499510005582,None,244.00272420002148,None,244.00272420002148,244.5028284,,,,,,,,,,,,,,,,029,2022-05-25_20h00.01.316,FishGame,2022.1.1,61.09496846472064,
,6,나를 보내줘,6,Orange,A,0,0,ScrollUp,ScrollDown,Orange.png,2,NonTarget,NonTarget,0,0,0,0,,,,,,,,,,,,,,,,,0,5,5,5,,,,,,,,,,,,,,,,,,,,,,,,,,,,,,,,,,,,,,,,,,,,,,,,,,,,,,,,,,,,,,,,,,,,,,,,,,,,,,,,,2,1.1630152000579983,245.12307840003632,None,ScrollUp,정답입니다,245.12307840003632,None,245.12307840003632,None,245.12307840003632,None,245.12307840003632,None,246.18368270003702,None,246.18368270003702,246.68585690006148,,,,,,,,,,,,,,,,029,2022-05-25_20h00.01.316,FishGame,2022.1.1,61.09496846472064,
,7,넌 엄격해,3,Orange,A,4.166666666666666,4.1,ScrollDown,ScrollUp,Orange.png,2,Neutral,Neutral,0,0,0,0,,,,,,,,,,,,,,,,,0,6,6,6,,,,,,,,,,,,,,,,,,,,,,,,,,,,,,,,,,,,,,,,,,,,,,,,,,,,,,,,,,,,,,,,,,,,,,,,,,,,,,,,,1,1.042434399947524,247.3118857999798,None,ScrollDown,정답입니다,247.3118857999798,None,247.3118857999798,None,247.3118857999798,None,247.3118857999798,None,248.25251979997847,None,248.25251979997847,248.75257620005868,,,,,,,,,,,,,,,,029,2022-05-25_20h00.01.316,FishGame,2022.1.1,61.09496846472064,
,8,나를 보내줘,6,Orange,A,0,0,ScrollUp,ScrollDown,Orange.png,2,NonTarget,NonTarget,0,0,0,0,,,,,,,,,,,,,,,,,0,7,7,7,,,,,,,,,,,,,,,,,,,,,,,,,,,,,,,,,,,,,,,,,,,,,,,,,,,,,,,,,,,,,,,,,,,,,,,,,,,,,,,,,1.7746913582086563,1.159711999935098,249.3788532000035,None,ScrollUp,정답입니다,249.3788532000035,None,249.3788532000035,None,249.3788532000035,None,249.3788532000035,None,250.43335589999333,None,250.43335589999333,250.9334186000051,,,,,,,,,,,,,,,,029,2022-05-25_20h00.01.316,FishGame,2022.1.1,61.09496846472064,
,9,넌 대담해,3,Green,B,4.875,4.866666666666666,ScrollUp,ScrollDown,Green.png,2,Neutral,Neutral,0,0,0,0,,,,,,,,,,,,,,,,,0,8,8,8,,,,,,,,,,,,,,,,,,,,,,,,,,,,,,,,,,,,,,,,,,,,,,,,,,,,,,,,,,,,,,,,,,,,,,,,,,,,,,,,,2,1.1471442999318242,251.55625700007658,None,ScrollUp,정답입니다,251.55625700007658,None,251.55625700007658,None,251.55625700007658,None,251.55625700007658,None,252.6025364000816,None,252.6025364000816,253.10252880002372,,,,,,,,,,,,,,,,029,2022-05-25_20h00.01.316,FishGame,2022.1.1,61.09496846472064,
,10,넌 꾸준해,1,Orange,A,5.916666666666668,5.8,ScrollDown,ScrollUp,Orange.png,2,Positive,Congruent,0,0,0,0,,,,,,,,,,,,,,,,,0,9,9,9,,,,,,,,,,,,,,,,,,,,,,,,,,,,,,,,,,,,,,,,,,,,,,,,,,,,,,,,,,,,,,,,,,,,,,,,,,,,,,,,,1,1.1052275999682024,253.72879389999434,None,ScrollDown,정답입니다,253.72879389999434,None,253.72879389999434,None,253.72879389999434,None,253.72879389999434,None,254.72886500007007,None,254.72886500007007,255.23568990000058,,,,,,,,,,,,,,,,029,2022-05-25_20h00.01.316,FishGame,2022.1.1,61.09496846472064,
,11,나를 데려가줘,6,Green,B,0,0,ScrollDown,ScrollUp,Green.png,2,NonTarget,NonTarget,0,0,0,0,,,,,,,,,,,,,,,,,0,10,10,10,,,,,,,,,,,,,,,,,,,,,,,,,,,,,,,,,,,,,,,,,,,,,,,,,,,,,,,,,,,,,,,,,,,,,,,,,,,,,,,,,1,1.1279150999616832,255.8569070000667,None,ScrollDown,정답입니다,255.8569070000667,None,255.8569070000667,None,255.8569070000667,None,255.8569070000667,None,256.8856650000671,None,256.8856650000671,257.3857398000546,,,,,,,,,,,,,,,,029,2022-05-25_20h00.01.316,FishGame,2022.1.1,61.09496846472064,
,12,넌 독선적이야,5,Orange,A,2.458333333333333,1.933333333333333,ScrollDown,ScrollUp,Orange.png,2,Negative,Incongruent,0,0,0,0,,,,,,,,,,,,,,,,,0,11,11,11,,,,,,,,,,,,,,,,,,,,,,,,,,,,,,,,,,,,,,,,,,,,,,,,,,,,,,,,,,,,,,,,,,,,,,,,,,,,,,,,,1,1.3271092000650242,258.0322536000749,None,ScrollDown,정답입니다,258.0322536000749,None,258.0322536000749,None,258.0322536000749,None,258.0322536000749,None,259.249811100075,None,259.249811100075,259.74989530001767,,,,,,,,,,,,,,,,029,2022-05-25_20h00.01.316,FishGame,2022.1.1,61.09496846472064,
,13,나를 보내줘,6,Orange,A,0,0,ScrollUp,ScrollDown,Orange.png,2,NonTarget,NonTarget,0,0,0,0,,,,,,,,,,,,,,,,,0,12,12,12,,,,,,,,,,,,,,,,,,,,,,,,,,,,,,,,,,,,,,,,,,,,,,,,,,,,,,,,,,,,,,,,,,,,,,,,,,,,,,,,,1.9984568059444427,1.1636367000173777,260.37355940009,None,ScrollUp,정답입니다,260.37355940009,None,260.37355940009,None,260.37355940009,None,260.37355940009,None,261.4357044000644,None,261.4357044000644,261.93573620007373,,,,,,,,,,,,,,,,029,2022-05-25_20h00.01.316,FishGame,2022.1.1,61.09496846472064,
,14,넌 책임감있어,1,Green,B,6.347826086956522,6,ScrollUp,ScrollDown,Green.png,2,Positive,Incongruent,0,0,0,0,,,,,,,,,,,,,,,,,0,13,13,13,,,,,,,,,,,,,,,,,,,,,,,,,,,,,,,,,,,,,,,,,,,,,,,,,,,,,,,,,,,,,,,,,,,,,,,,,,,,,,,,,2,1.1960448999889195,262.5696866000071,None,ScrollUp,정답입니다,262.5696866000071,None,262.5696866000071,None,262.5696866000071,None,262.5696866000071,None,263.6521601000568,None,263.6521601000568,264.1522868000902,,,,,,,,,,,,,,,,029,2022-05-25_20h00.01.316,FishGame,2022.1.1,61.09496846472064,
,15,넌 문학적이야,3,Orange,A,4.708333333333334,4.333333333333333,ScrollDown,ScrollUp,Orange.png,2,Neutral,Neutral,0,0,0,0,,,,,,,,,,,,,,,,,0,14,14,14,,,,,,,,,,,,,,,,,,,,,,,,,,,,,,,,,,,,,,,,,,,,,,,,,,,,,,,,,,,,,,,,,,,,,,,,,,,,,,,,,1.0617283880710602,1.128908499958925,264.7767647000728,None,ScrollDown,정답입니다,264.7767647000728,None,264.7767647000728,None,264.7767647000728,None,264.7767647000728,None,265.8021584000671,None,265.8021584000671,266.30219820002094,,,,,,,,,,,,,,,,029,2022-05-25_20h00.01.316,FishGame,2022.1.1,61.09496846472064,
,16,넌 재미있어,1,Green,B,5.875,5.7,ScrollUp,ScrollDown,Green.png,2,Positive,Incongruent,0,0,0,0,,,,,,,,,,,,,,,,,0,15,15,15,,,,,,,,,,,,,,,,,,,,,,,,,,,,,,,,,,,,,,,,,,,,,,,,,,,,,,,,,,,,,,,,,,,,,,,,,,,,,,,,,2,1.3611231000395492,266.94474369997624,None,ScrollUp,정답입니다,266.94474369997624,None,266.94474369997624,None,266.94474369997624,None,266.94474369997624,None,268.1998949000845,None,268.1998949000845,268.70213009999134,,,,,,,,,,,,,,,,029,2022-05-25_20h00.01.316,FishGame,2022.1.1,61.09496846472064,
,17,나를 데려가줘,6,Green,B,0,0,ScrollDown,ScrollUp,Green.png,2,NonTarget,NonTarget,0,0,0,0,,,,,,,,,,,,,,,,,0,16,16,16,,,,,,,,,,,,,,,,,,,,,,,,,,,,,,,,,,,,,,,,,,,,,,,,,,,,,,,,,,,,,,,,,,,,,,,,,,,,,,,,,1,1.0777613000245765,269.3245222000405,None,ScrollDown,정답입니다,269.3245222000405,None,269.3245222000405,None,269.3245222000405,None,269.3245222000405,None,270.3020770000294,None,270.3020770000294,270.8020912000211,,,,,,,,,,,,,,,,029,2022-05-25_20h00.01.316,FishGame,2022.1.1,61.09496846472064,
,18,넌 협력적이야,1,Orange,A,5.625,5.633333333333334,ScrollDown,ScrollUp,Orange.png,2,Positive,Congruent,0,0,0,0,,,,,,,,,,,,,,,,,0,17,17,17,,,,,,,,,,,,,,,,,,,,,,,,,,,,,,,,,,,,,,,,,,,,,,,,,,,,,,,,,,,,,,,,,,,,,,,,,,,,,,,,,1,1.2289814000250772,271.4316658000462,None,ScrollDown,정답입니다,271.4316658000462,None,271.4316658000462,None,271.4316658000462,None,271.4316658000462,None,272.55200650007464,None,272.55200650007464,273.05193090008106,,,,,,,,,,,,,,,,029,2022-05-25_20h00.01.316,FishGame,2022.1.1,61.09496846472064,
,19,넌 평범해,3,Green,B,4.333333333333332,4.233333333333333,ScrollUp,ScrollDown,Green.png,2,Neutral,Neutral,0,0,0,0,,,,,,,,,,,,,,,,,0,18,18,18,,,,,,,,,,,,,,,,,,,,,,,,,,,,,,,,,,,,,,,,,,,,,,,,,,,,,,,,,,,,,,,,,,,,,,,,,,,,,,,,,2,1.1257642999989912,273.6768915000139,None,ScrollUp,정답입니다,273.6768915000139,None,273.6768915000139,None,273.6768915000139,None,273.6768915000139,None,274.70189590007067,None,274.70189590007067,275.2186308000237,,,,,,,,,,,,,,,,029,2022-05-25_20h00.01.316,FishGame,2022.1.1,61.09496846472064,
,20,넌 오만해,5,Orange,A,2.333333333333333,2,ScrollDown,ScrollUp,Orange.png,2,Negative,Incongruent,0,0,0,0,,,,,,,,,,,,,,,,,0,19,19,19,,,,,,,,,,,,,,,,,,,,,,,,,,,,,,,,,,,,,,,,,,,,,,,,,,,,,,,,,,,,,,,,,,,,,,,,,,,,,,,,,1,0.9495763999875635,275.8275780000258,None,ScrollDown,정답입니다,275.8275780000258,None,275.8275780000258,None,275.8275780000258,None,275.8275780000258,None,276.672347499989,None,276.672347499989,277.18518250004854,,,,,,,,,,,,,,,,029,2022-05-25_20h00.01.316,FishGame,2022.1.1,61.09496846472064,
,21,넌 운이없어,4,Green,B,3,3.466666666666667,ScrollUp,ScrollDown,Green.png,2,Negative,Congruent,0,0,0,0,,,,,,,,,,,,,,,,,0,20,20,20,,,,,,,,,,,,,,,,,,,,,,,,,,,,,,,,,,,,,,,,,,,,,,,,,,,,,,,,,,,,,,,,,,,,,,,,,,,,,,,,,2,1.0779263000003994,277.80688400007784,None,ScrollUp,정답입니다,277.80688400007784,None,277.80688400007784,None,277.80688400007784,None,277.80688400007784,None,278.7830104000168,None,278.7830104000168,279.2851977000246,,,,,,,,,,,,,,,,029,2022-05-25_20h00.01.316,FishGame,2022.1.1,61.09496846472064,
,22,넌 창조적이야,2,Green,B,6.125,4.633333333333334,ScrollUp,ScrollDown,Green.png,2,Positive,Incongruent,0,0,0,0,,,,,,,,,,,,,,,,,0,21,21,21,,,,,,,,,,,,,,,,,,,,,,,,,,,,,,,,,,,,,,,,,,,,,,,,,,,,,,,,,,,,,,,,,,,,,,,,,,,,,,,,,2,1.195486200042069,279.90748549997807,None,ScrollUp,정답입니다,279.90748549997807,None,279.90748549997807,None,279.90748549997807,None,279.90748549997807,None,281.0018285000697,None,281.0018285000697,281.50189040007535,,,,,,,,,,,,,,,,029,2022-05-25_20h00.01.316,FishGame,2022.1.1,61.09496846472064,
,23,나를 보내줘,6,Orange,A,0,0,ScrollUp,ScrollDown,Orange.png,2,NonTarget,NonTarget,0,0,0,0,,,,,,,,,,,,,,,,,0,22,22,22,,,,,,,,,,,,,,,,,,,,,,,,,,,,,,,,,,,,,,,,,,,,,,,,,,,,,,,,,,,,,,,,,,,,,,,,,,,,,,,,,2,1.3123994000488892,282.1281521000201,None,ScrollUp,정답입니다,282.1281521000201,None,282.1281521000201,None,282.1281521000201,None,282.1281521000201,None,283.33503289998043,None,283.33503289998043,283.8496428000508,,,,,,,,,,,,,,,,029,2022-05-25_20h00.01.316,FishGame,2022.1.1,61.09496846472064,
,24,넌 통찰력있어,2,Orange,A,6.5,4.8,ScrollDown,ScrollUp,Orange.png,2,Positive,Congruent,0,0,0,0,,,,,,,,,,,,,,,,,0,23,23,23,,,,,,,,,,,,,,,,,,,,,,,,,,,,,,,,,,,,,,,,,,,,,,,,,,,,,,,,,,,,,,,,,,,,,,,,,,,,,,,,,1,1.0609015999361873,284.46497299999464,None,ScrollDown,정답입니다,284.46497299999464,None,284.46497299999464,None,284.46497299999464,None,284.46497299999464,None,285.4184035999933,None,285.4184035999933,285.91847989999224,,,,,,,,,,,,,,,,029,2022-05-25_20h00.01.316,FishGame,2022.1.1,61.09496846472064,
,25,넌 경솔해,5,Green,B,2.458333333333333,2.266666666666667,ScrollUp,ScrollDown,Green.png,2,Negative,Congruent,0,0,0,0,,,,,,,,,,,,,,,,,0,24,24,24,,,,,,,,,,,,,,,,,,,,,,,,,,,,,,,,,,,,,,,,,,,,,,,,,,,,,,,,,,,,,,,,,,,,,,,,,,,,,,,,,2,1.1439143000170588,286.545458800043,None,ScrollUp,정답입니다,286.545458800043,None,286.545458800043,None,286.545458800043,None,286.545458800043,None,287.58258560008835,None,287.58258560008835,288.0826398000354,,,,,,,,,,,,,,,,029,2022-05-25_20h00.01.316,FishGame,2022.1.1,61.09496846472064,
,26,넌 초조해,4,Orange,A,2.916666666666667,3.133333333333333,ScrollDown,ScrollUp,Orange.png,2,Negative,Incongruent,0,0,0,0,,,,,,,,,,,,,,,,,0,25,25,25,,,,,,,,,,,,,,,,,,,,,,,,,,,,,,,,,,,,,,,,,,,,,,,,,,,,,,,,,,,,,,,,,,,,,,,,,,,,,,,,,1,1.096489599905908,288.7076643999899,None,ScrollDown,정답입니다,288.7076643999899,None,288.7076643999899,None,288.7076643999899,None,288.7076643999899,None,289.70174170006067,None,289.70174170006067,290.2018448000308,,,,,,,,,,,,,,,,029,2022-05-25_20h00.01.316,FishGame,2022.1.1,61.09496846472064,
,27,넌 무관심해,4,Green,B,2.833333333333333,2.9,ScrollUp,ScrollDown,Green.png,2,Negative,Congruent,0,0,0,0,,,,,,,,,,,,,,,,,0,26,26,26,,,,,,,,,,,,,,,,,,,,,,,,,,,,,,,,,,,,,,,,,,,,,,,,,,,,,,,,,,,,,,,,,,,,,,,,,,,,,,,,,2,1.0666552999755368,290.82077079999726,None,ScrollUp,정답입니다,290.82077079999726,None,290.82077079999726,None,290.82077079999726,None,290.82077079999726,None,291.7850694999797,None,291.7850694999797,292.28508810000494,,,,,,,,,,,,,,,,029,2022-05-25_20h00.01.316,FishGame,2022.1.1,61.09496846472064,
,28,넌 감성적이야,3,Green,B,4.125,4.166666666666667,ScrollUp,ScrollDown,Green.png,2,Neutral,Neutral,0,0,0,0,,,,,,,,,,,,,,,,,0,27,27,27,,,,,,,,,,,,,,,,,,,,,,,,,,,,,,,,,,,,,,,,,,,,,,,,,,,,,,,,,,,,,,,,,,,,,,,,,,,,,,,,,2,1.1907132000196725,292.92806509998627,None,ScrollUp,정답입니다,292.92806509998627,None,292.92806509998627,None,292.92806509998627,None,292.92806509998627,None,294.0157900999766,None,294.0157900999766,294.5158467000583,,,,,,,,,,,,,,,,029,2022-05-25_20h00.01.316,FishGame,2022.1.1,61.09496846472064,
,29,넌 배려심있어,1,Orange,A,6.083333333333333,5.5,ScrollDown,ScrollUp,Orange.png,2,Positive,Congruent,0,0,0,0,,,,,,,,,,,,,,,,,0,28,28,28,,,,,,,,,,,,,,,,,,,,,,,,,,,,,,,,,,,,,,,,,,,,,,,,,,,,,,,,,,,,,,,,,,,,,,,,,,,,,,,,,1,1.0798555999062955,295.1467820000835,None,ScrollDown,정답입니다,295.1467820000835,None,295.1467820000835,None,295.1467820000835,None,295.1467820000835,None,296.1182578000007,None,296.1182578000007,296.6183049000101,,,,,,,,,,,,,,,,029,2022-05-25_20h00.01.316,FishGame,2022.1.1,61.09496846472064,
,30,넌 숨김없어,3,Orange,A,4.5,4.933333333333334,ScrollDown,ScrollUp,Orange.png,2,Neutral,Neutral,0,0,0,0,,,,,,,,,,,,,,,,,0,29,29,29,,,,,,,,,,,,,,,,,,,,,,,,,,,,,,,,,,,,,,,,,,,,,,,,,,,,,,,,,,,,,,,,,,,,,,,,,,,,,,,,,1,1.0784303999971598,297.244509799988,None,ScrollDown,정답입니다,297.244509799988,None,297.244509799988,None,297.244509799988,None,297.244509799988,None,298.2159429000458,None,298.2159429000458,298.71811970009,,,,,,,,,,,,,,,,029,2022-05-25_20h00.01.316,FishGame,2022.1.1,61.09496846472064,
,31,넌 훌륭해,2,Green,B,5.916666666666667,4.033333333333333,ScrollUp,ScrollDown,Green.png,2,Positive,Incongruent,0,0,0,0,,,,,,,,,,,,,,,,,0,30,30,30,,,,,,,,,,,,,,,,,,,,,,,,,,,,,,,,,,,,,,,,,,,,,,,,,,,,,,,,,,,,,,,,,,,,,,,,,,,,,,,,,2,1.1090839999960735,299.3430030000163,None,ScrollUp,정답입니다,299.3430030000163,None,299.3430030000163,None,299.3430030000163,None,299.3430030000163,None,300.34929719998036,None,300.34929719998036,300.85469320008997,,,,,,,,,,,,,,,,029,2022-05-25_20h00.01.316,FishGame,2022.1.1,61.09496846472064,
,32,넌 슬기로워,2,Orange,A,6.166666666666667,4.1,ScrollDown,ScrollUp,Orange.png,2,Positive,Congruent,0,0,0,0,,,,,,,,,,,,,,,,,0,31,31,31,,,,,,,,,,,,,,,,,,,,,,,,,,,,,,,,,,,,,,,,,,,,,,,,,,,,,,,,,,,,,,,,,,,,,,,,,,,,,,,,,1,1.0775321000255644,301.4765440999763,None,ScrollDown,정답입니다,301.4765440999763,None,301.4765440999763,None,301.4765440999763,None,301.4765440999763,None,302.44914100004826,None,302.44914100004826,302.9514091000892,,,,,,,,,,,,,,,,029,2022-05-25_20h00.01.316,FishGame,2022.1.1,61.09496846472064,
,33,넌 냉혹해,5,Orange,A,2.583333333333333,2.1,ScrollDown,ScrollUp,Orange.png,2,Negative,Incongruent,0,0,0,0,,,,,,,,,,,,,,,,,0,32,32,32,,,,,,,,,,,,,,,,,,,,,,,,,,,,,,,,,,,,,,,,,,,,,,,,,,,,,,,,,,,,,,,,,,,,,,,,,,,,,,,,,1,1.0608020999934524,303.5780626999913,None,ScrollDown,정답입니다,303.5780626999913,None,303.5780626999913,None,303.5780626999913,None,303.5780626999913,None,304.5346820000559,None,304.5346820000559,305.03475410002284,,,,,,,,,,,,,,,,029,2022-05-25_20h00.01.316,FishGame,2022.1.1,61.09496846472064,
,34,나를 데려가줘,6,Green,B,0,0,ScrollDown,ScrollUp,Green.png,2,NonTarget,NonTarget,0,0,0,0,,,,,,,,,,,,,,,,,0,33,33,33,,,,,,,,,,,,,,,,,,,,,,,,,,,,,,,,,,,,,,,,,,,,,,,,,,,,,,,,,,,,,,,,,,,,,,,,,,,,,,,,,1,1.1255511998897418,305.65681180008687,None,ScrollDown,정답입니다,305.65681180008687,None,305.65681180008687,None,305.65681180008687,None,305.65681180008687,None,306.6845684000291,None,306.6845684000291,307.18247960007284,,,,,,,,,,,,,,,,029,2022-05-25_20h00.01.316,FishGame,2022.1.1,61.09496846472064,
,35,넌 편파적이야,5,Green,B,2.125,2,ScrollUp,ScrollDown,Green.png,2,Negative,Congruent,0,0,0,0,,,,,,,,,,,,,,,,,0,34,34,34,,,,,,,,,,,,,,,,,,,,,,,,,,,,,,,,,,,,,,,,,,,,,,,,,,,,,,,,,,,,,,,,,,,,,,,,,,,,,,,,,2,1.1268593999557197,307.80648450006265,None,ScrollUp,정답입니다,307.80648450006265,None,307.80648450006265,None,307.80648450006265,None,307.80648450006265,None,308.8324023000896,None,308.8324023000896,309.3345828000456,,,,,,,,,,,,,,,,029,2022-05-25_20h00.01.316,FishGame,2022.1.1,61.09496846472064,
,36,넌 슬퍼,4,Orange,A,2.583333333333333,3.066666666666667,ScrollDown,ScrollUp,Orange.png,2,Negative,Incongruent,0,0,0,0,,,,,,,,,,,,,,,,,0,35,35,35,,,,,,,,,,,,,,,,,,,,,,,,,,,,,,,,,,,,,,,,,,,,,,,,,,,,,,,,,,,,,,,,,,,,,,,,,,,,,,,,,1,1.007060500094667,309.9653796000639,None,ScrollDown,정답입니다,309.9653796000639,None,309.9653796000639,None,309.9653796000639,None,309.9653796000639,None,310.86096810002346,None,310.86096810002346,311.36549530003686,,,,,,,,,,,,,,,,029,2022-05-25_20h00.01.316,FishGame,2022.1.1,61.09496846472064,
,37,나를 데려가줘,6,Green,B,0,0,ScrollDown,ScrollUp,Green.png,2,NonTarget,NonTarget,0,0,0,0,,,,,,,,,,,,,,,,,0,36,36,36,,,,,,,,,,,,,,,,,,,,,,,,,,,,,,,,,,,,,,,,,,,,,,,,,,,,,,,,,,,,,,,,,,,,,,,,,,,,,,,,,1,1.1114489999599755,311.98486100009177,None,ScrollDown,정답입니다,311.98486100009177,None,311.98486100009177,None,311.98486100009177,None,311.98486100009177,None,312.9987480000127,None,312.9987480000127,313.50134840002283,,,,,,,,,,,,,,,,029,2022-05-25_20h00.01.316,FishGame,2022.1.1,61.09496846472064,
,38,넌 친절해,1,Green,B,6.041666666666667,5.533333333333333,ScrollUp,ScrollDown,Green.png,2,Positive,Incongruent,0,0,0,0,,,,,,,,,,,,,,,,,0,37,37,37,,,,,,,,,,,,,,,,,,,,,,,,,,,,,,,,,,,,,,,,,,,,,,,,,,,,,,,,,,,,,,,,,,,,,,,,,,,,,,,,,2,1.3641860999632627,314.1239803000353,None,ScrollUp,정답입니다,314.1239803000353,None,314.1239803000353,None,314.1239803000353,None,314.1239803000353,None,315.38453060004395,None,315.38453060004395,315.88769250002224,,,,,,,,,,,,,,,,029,2022-05-25_20h00.01.316,FishGame,2022.1.1,61.09496846472064,
,1,넌 엉성해,4,Orange,A,3,3.3,ScrollDown,ScrollUp,Orange.png,3,Negative,Incongruent,0,0,0,0,,,,,,,,,,,,,,,,,,,,,0,0,0,0,,,,,,,,,,,,,,,,,,,,,,,,,,,,,,,,,,,,348.4316968000494,349.933875799994,349.9672403000295,350.9203385000583,350.97036070004106,351.931526600034,351.91726000001654,None,,,,,,,,,,,,,,,,,,,,,,,,,,,,,,,,,,1,1.005126600037329,353.03348790004384,None,ScrollDown,정답입니다,353.03348790004384,None,353.03348790004384,None,353.03348790004384,None,353.03348790004384,None,353.93119829997886,None,353.93119829997886,354.43125350004993,316.38447160006035,None,316.38447160006035,None,-0.096296296,-0.15,1,0,0,0.015938329976052046,None,346.3836912000552,None,,,029,2022-05-25_20h00.01.316,FishGame,2022.1.1,61.09496846472064,
,2,나를 보내줘,6,Orange,A,0,0,ScrollUp,ScrollDown,Orange.png,3,NonTarget,NonTarget,0,0,0,0,,,,,,,,,,,,,,,,,,,,,0,1,1,1,,,,,,,,,,,,,,,,,,,,,,,,,,,,,,,,,,,,,,,,,,,,,,,,,,,,,,,,,,,,,,,,,,,,,,,,,,,,,2,1.0613193000899628,355.05237340007443,None,ScrollUp,정답입니다,355.05237340007443,None,355.05237340007443,None,355.05237340007443,None,355.05237340007443,None,356.0170278000878,None,356.0170278000878,356.5170568000758,,,,,,,,,,,,,,,,029,2022-05-25_20h00.01.316,FishGame,2022.1.1,61.09496846472064,
,3,넌 활발해,1,Green,B,5.666666666666667,5.6,ScrollUp,ScrollDown,Green.png,3,Positive,Incongruent,0,0,0,0,,,,,,,,,,,,,,,,,,,,,0,2,2,2,,,,,,,,,,,,,,,,,,,,,,,,,,,,,,,,,,,,,,,,,,,,,,,,,,,,,,,,,,,,,,,,,,,,,,,,,,,,,2,1.2431638999842107,357.1404038000619,None,ScrollUp,정답입니다,357.1404038000619,None,357.1404038000619,None,357.1404038000619,None,357.1404038000619,None,358.27667639998253,None,358.27667639998253,358.781177100027,,,,,,,,,,,,,,,,029,2022-05-25_20h00.01.316,FishGame,2022.1.1,61.09496846472064,
,4,넌 논리적이야,2,Orange,A,5.666666666666666,4.633333333333334,ScrollDown,ScrollUp,Orange.png,3,Positive,Congruent,0,0,0,0,,,,,,,,,,,,,,,,,,,,,0,3,3,3,,,,,,,,,,,,,,,,,,,,,,,,,,,,,,,,,,,,,,,,,,,,,,,,,,,,,,,,,,,,,,,,,,,,,,,,,,,,,1,1.044506200007163,359.40535240003373,None,ScrollDown,정답입니다,359.40535240003373,None,359.40535240003373,None,359.40535240003373,None,359.40535240003373,None,360.3477750000311,None,360.3477750000311,360.85036610008683,,,,,,,,,,,,,,,,029,2022-05-25_20h00.01.316,FishGame,2022.1.1,61.09496846472064,
,5,넌 과묵해,3,Orange,A,3.875,4.4,ScrollDown,ScrollUp,Orange.png,3,Neutral,Neutral,0,0,0,0,,,,,,,,,,,,,,,,,,,,,0,4,4,4,,,,,,,,,,,,,,,,,,,,,,,,,,,,,,,,,,,,,,,,,,,,,,,,,,,,,,,,,,,,,,,,,,,,,,,,,,,,,1,1.030109400046058,361.47600020002574,None,ScrollDown,정답입니다,361.47600020002574,None,361.47600020002574,None,361.47600020002574,None,361.47600020002574,None,362.4002249999903,None,362.4002249999903,362.90031140006613,,,,,,,,,,,,,,,,029,2022-05-25_20h00.01.316,FishGame,2022.1.1,61.09496846472064,
,6,나를 데려가줘,6,Green,B,0,0,ScrollDown,ScrollUp,Green.png,3,NonTarget,NonTarget,0,0,0,0,,,,,,,,,,,,,,,,,,,,,0,5,5,5,,,,,,,,,,,,,,,,,,,,,,,,,,,,,,,,,,,,,,,,,,,,,,,,,,,,,,,,,,,,,,,,,,,,,,,,,,,,,1,1.1106271999888122,363.52252900006715,None,ScrollDown,정답입니다,363.52252900006715,None,363.52252900006715,None,363.52252900006715,None,363.52252900006715,None,364.5334321000846,None,364.5334321000846,365.03344000002835,,,,,,,,,,,,,,,,029,2022-05-25_20h00.01.316,FishGame,2022.1.1,61.09496846472064,
,7,넌 미숙해,4,Green,B,3,3,ScrollUp,ScrollDown,Green.png,3,Negative,Congruent,0,0,0,0,,,,,,,,,,,,,,,,,,,,,0,6,6,6,,,,,,,,,,,,,,,,,,,,,,,,,,,,,,,,,,,,,,,,,,,,,,,,,,,,,,,,,,,,,,,,,,,,,,,,,,,,,2,1.4942807999905199,365.6594526000554,None,ScrollUp,정답입니다,365.6594526000554,None,365.6594526000554,None,365.6594526000554,None,365.6594526000554,None,367.0478400000138,None,367.0478400000138,367.54999490000773,,,,,,,,,,,,,,,,029,2022-05-25_20h00.01.316,FishGame,2022.1.1,61.09496846472064,
,8,나를 보내줘,6,Orange,A,0,0,ScrollUp,ScrollDown,Orange.png,3,NonTarget,NonTarget,0,0,0,0,,,,,,,,,,,,,,,,,,,,,0,7,7,7,,,,,,,,,,,,,,,,,,,,,,,,,,,,,,,,,,,,,,,,,,,,,,,,,,,,,,,,,,,,,,,,,,,,,,,,,,,,,2,1.1631457000039518,368.17610120004974,None,ScrollUp,정답입니다,368.17610120004974,None,368.17610120004974,None,368.17610120004974,None,368.17610120004974,None,369.2333475999767,None,369.2333475999767,369.73339579999447,,,,,,,,,,,,,,,,029,2022-05-25_20h00.01.316,FishGame,2022.1.1,61.09496846472064,
,9,넌 자신만만해,3,Green,B,4.833333333333334,4.333333333333333,ScrollUp,ScrollDown,Green.png,3,Neutral,Neutral,0,0,0,0,,,,,,,,,,,,,,,,,,,,,0,8,8,8,,,,,,,,,,,,,,,,,,,,,,,,,,,,,,,,,,,,,,,,,,,,,,,,,,,,,,,,,,,,,,,,,,,,,,,,,,,,,2,1.2943017999641597,370.3530942000216,None,ScrollUp,정답입니다,370.3530942000216,None,370.3530942000216,None,370.3530942000216,None,370.3530942000216,None,371.5476979999803,None,371.5476979999803,372.0499562000623,,,,,,,,,,,,,,,,029,2022-05-25_20h00.01.316,FishGame,2022.1.1,61.09496846472064,
,10,넌 탐욕스러워,5,Orange,A,2.25,2.1,ScrollDown,ScrollUp,Orange.png,3,Negative,Incongruent,0,0,0,0,,,,,,,,,,,,,,,,,,,,,0,9,9,9,,,,,,,,,,,,,,,,,,,,,,,,,,,,,,,,,,,,,,,,,,,,,,,,,,,,,,,,,,,,,,,,,,,,,,,,,,,,,1,1.0109391999430954,372.6794616000261,None,ScrollDown,정답입니다,372.6794616000261,None,372.6794616000261,None,372.6794616000261,None,372.6794616000261,None,373.58322210004553,None,373.58322210004553,374.09993140003644,,,,,,,,,,,,,,,,029,2022-05-25_20h00.01.316,FishGame,2022.1.1,61.09496846472064,
,11,넌 인기있어,2,Orange,A,5.458333333333333,4.5,ScrollDown,ScrollUp,Orange.png,3,Positive,Congruent,0,0,0,0,,,,,,,,,,,,,,,,,,,,,0,10,10,10,,,,,,,,,,,,,,,,,,,,,,,,,,,,,,,,,,,,,,,,,,,,,,,,,,,,,,,,,,,,,,,,,,,,,,,,,,,,,1,1.0604410000378266,374.70918940007687,None,ScrollDown,정답입니다,374.70918940007687,None,374.70918940007687,None,374.70918940007687,None,374.70918940007687,None,375.66427140007727,None,375.66427140007727,376.1665090000024,,,,,,,,,,,,,,,,029,2022-05-25_20h00.01.316,FishGame,2022.1.1,61.09496846472064,
,12,나를 데려가줘,6,Green,B,0,0,ScrollDown,ScrollUp,Green.png,3,NonTarget,NonTarget,0,0,0,0,,,,,,,,,,,,,,,,,,,,,0,11,11,11,,,,,,,,,,,,,,,,,,,,,,,,,,,,,,,,,,,,,,,,,,,,,,,,,,,,,,,,,,,,,,,,,,,,,,,,,,,,,1,1.048562900046818,376.79053009999916,None,ScrollDown,정답입니다,376.79053009999916,None,376.79053009999916,None,376.79053009999916,None,376.79053009999916,None,377.73097550007515,None,377.73097550007515,378.2331790000899,,,,,,,,,,,,,,,,029,2022-05-25_20h00.01.316,FishGame,2022.1.1,61.09496846472064,
,13,넌 뛰어나,2,Green,B,6.166666666666667,4,ScrollUp,ScrollDown,Green.png,3,Positive,Incongruent,0,0,0,0,,,,,,,,,,,,,,,,,,,,,0,12,12,12,,,,,,,,,,,,,,,,,,,,,,,,,,,,,,,,,,,,,,,,,,,,,,,,,,,,,,,,,,,,,,,,,,,,,,,,,,,,,2,1.0776297999545932,378.8571349000558,None,ScrollUp,정답입니다,378.8571349000558,None,378.8571349000558,None,378.8571349000558,None,378.8571349000558,None,379.8331217999803,None,379.8331217999803,380.33064669999294,,,,,,,,,,,,,,,,029,2022-05-25_20h00.01.316,FishGame,2022.1.1,61.09496846472064,
,14,넌 낙관적이야,1,Orange,A,5.75,5.8,ScrollDown,ScrollUp,Orange.png,3,Positive,Congruent,0,0,0,0,,,,,,,,,,,,,,,,,,,,,0,13,13,13,,,,,,,,,,,,,,,,,,,,,,,,,,,,,,,,,,,,,,,,,,,,,,,,,,,,,,,,,,,,,,,,,,,,,,,,,,,,,1,1.1277266999240965,380.9755851000082,None,ScrollDown,정답입니다,380.9755851000082,None,380.9755851000082,None,380.9755851000082,None,380.9755851000082,None,381.9975310000591,None,381.9975310000591,382.4996750000864,,,,,,,,,,,,,,,,029,2022-05-25_20h00.01.316,FishGame,2022.1.1,61.09496846472064,
,15,넌 산만해,4,Green,B,2.695652173913043,3.033333333333333,ScrollUp,ScrollDown,Green.png,3,Negative,Congruent,0,0,0,0,,,,,,,,,,,,,,,,,,,,,0,14,14,14,,,,,,,,,,,,,,,,,,,,,,,,,,,,,,,,,,,,,,,,,,,,,,,,,,,,,,,,,,,,,,,,,,,,,,,,,,,,,2,1.0593157999683172,383.12112750008237,None,ScrollUp,정답입니다,383.12112750008237,None,383.12112750008237,None,383.12112750008237,None,383.12112750008237,None,384.08301970001776,None,384.08301970001776,384.58306189998984,,,,,,,,,,,,,,,,029,2022-05-25_20h00.01.316,FishGame,2022.1.1,61.09496846472064,
,16,나를 보내줘,6,Orange,A,0,0,ScrollUp,ScrollDown,Orange.png,3,NonTarget,NonTarget,0,0,0,0,,,,,,,,,,,,,,,,,,,,,0,15,15,15,,,,,,,,,,,,,,,,,,,,,,,,,,,,,,,,,,,,,,,,,,,,,,,,,,,,,,,,,,,,,,,,,,,,,,,,,,,,,2,1.1622664999449626,385.2089723000536,None,ScrollUp,정답입니다,385.2089723000536,None,385.2089723000536,None,385.2089723000536,None,385.2089723000536,None,386.2640982000157,None,386.2640982000157,386.76627820008434,,,,,,,,,,,,,,,,029,2022-05-25_20h00.01.316,FishGame,2022.1.1,61.09496846472064,
,17,넌 교활해,5,Green,B,2.333333333333333,2.133333333333333,ScrollUp,ScrollDown,Green.png,3,Negative,Congruent,0,0,0,0,,,,,,,,,,,,,,,,,,,,,0,16,16,16,,,,,,,,,,,,,,,,,,,,,,,,,,,,,,,,,,,,,,,,,,,,,,,,,,,,,,,,,,,,,,,,,,,,,,,,,,,,,2,1.1258114000083879,387.3913368000649,None,ScrollUp,정답입니다,387.3913368000649,None,387.3913368000649,None,387.3913368000649,None,387.3913368000649,None,388.41625850007404,None,388.41625850007404,388.9162806000095,,,,,,,,,,,,,,,,029,2022-05-25_20h00.01.316,FishGame,2022.1.1,61.09496846472064,
,18,나를 보내줘,6,Orange,A,0,0,ScrollUp,ScrollDown,Orange.png,3,NonTarget,NonTarget,0,0,0,0,,,,,,,,,,,,,,,,,,,,,0,17,17,17,,,,,,,,,,,,,,,,,,,,,,,,,,,,,,,,,,,,,,,,,,,,,,,,,,,,,,,,,,,,,,,,,,,,,,,,,,,,,1.983024666706721,1.1108981999568641,389.5392834000522,None,ScrollUp,정답입니다,389.5392834000522,None,389.5392834000522,None,389.5392834000522,None,389.5392834000522,None,390.549609699985,None,390.549609699985,391.0640226000687,,,,,,,,,,,,,,,,029,2022-05-25_20h00.01.316,FishGame,2022.1.1,61.09496846472064,
,19,넌 불친절해,5,Green,B,2.208333333333333,2.033333333333333,ScrollUp,ScrollDown,Green.png,3,Negative,Congruent,0,0,0,0,,,,,,,,,,,,,,,,,,,,,0,18,18,18,,,,,,,,,,,,,,,,,,,,,,,,,,,,,,,,,,,,,,,,,,,,,,,,,,,,,,,,,,,,,,,,,,,,,,,,,,,,,2,1.1929964000592008,391.6720507000573,None,ScrollUp,정답입니다,391.6720507000573,None,391.6720507000573,None,391.6720507000573,None,391.6720507000573,None,392.76393410004675,None,392.76393410004675,393.266147700022,,,,,,,,,,,,,,,,029,2022-05-25_20h00.01.316,FishGame,2022.1.1,61.09496846472064,
,20,넌 지적이야,2,Green,B,5.75,4.366666666666666,ScrollUp,ScrollDown,Green.png,3,Positive,Incongruent,0,0,0,0,,,,,,,,,,,,,,,,,,,,,0,19,19,19,,,,,,,,,,,,,,,,,,,,,,,,,,,,,,,,,,,,,,,,,,,,,,,,,,,,,,,,,,,,,,,,,,,,,,,,,,,,,1.9814815024534862,1.0276755000231788,393.8868424000684,None,ScrollUp,정답입니다,393.8868424000684,None,393.8868424000684,None,393.8868424000684,None,393.8868424000684,None,394.8161419000244,None,394.8161419000244,395.3161444000434,,,,,,,,,,,,,,,,029,2022-05-25_20h00.01.316,FishGame,2022.1.1,61.09496846472064,
,21,넌 우유부단해,4,Orange,A,2.666666666666667,3.166666666666667,ScrollDown,ScrollUp,Orange.png,3,Negative,Incongruent,0,0,0,0,,,,,,,,,,,,,,,,,,,,,0,20,20,20,,,,,,,,,,,,,,,,,,,,,,,,,,,,,,,,,,,,,,,,,,,,,,,,,,,,,,,,,,,,,,,,,,,,,,,,,,,,,1,1.1090431999182329,395.95035390008707,None,ScrollDown,정답입니다,395.95035390008707,None,395.95035390008707,None,395.95035390008707,None,395.95035390008707,None,396.9472178000724,None,396.9472178000724,397.4494457000401,,,,,,,,,,,,,,,,029,2022-05-25_20h00.01.316,FishGame,2022.1.1,61.09496846472064,
,22,나를 데려가줘,6,Green,B,0,0,ScrollDown,ScrollUp,Green.png,3,NonTarget,NonTarget,0,0,0,0,,,,,,,,,,,,,,,,,,,,,0,21,21,21,,,,,,,,,,,,,,,,,,,,,,,,,,,,,,,,,,,,,,,,,,,,,,,,,,,,,,,,,,,,,,,,,,,,,,,,,,,,,1,1.1942714001052082,398.07076650008094,None,ScrollDown,정답입니다,398.07076650008094,None,398.07076650008094,None,398.07076650008094,None,398.07076650008094,None,399.16608480003197,None,399.16608480003197,399.669231900014,,,,,,,,,,,,,,,,029,2022-05-25_20h00.01.316,FishGame,2022.1.1,61.09496846472064,
,23,넌 성실해,1,Green,B,6.041666666666666,5.7,ScrollUp,ScrollDown,Green.png,3,Positive,Incongruent,0,0,0,0,,,,,,,,,,,,,,,,,,,,,0,22,22,22,,,,,,,,,,,,,,,,,,,,,,,,,,,,,,,,,,,,,,,,,,,,,,,,,,,,,,,,,,,,,,,,,,,,,,,,,,,,,2,1.2109115999192,400.28900470002554,None,ScrollUp,정답입니다,400.28900470002554,None,400.28900470002554,None,400.28900470002554,None,400.28900470002554,None,401.3993174000643,None,401.3993174000643,401.899310400011,,,,,,,,,,,,,,,,029,2022-05-25_20h00.01.316,FishGame,2022.1.1,61.09496846472064,
,24,넌 현실주의적이야,3,Orange,A,4.625,4.4,ScrollDown,ScrollUp,Orange.png,3,Neutral,Neutral,0,0,0,0,,,,,,,,,,,,,,,,,,,,,0,23,23,23,,,,,,,,,,,,,,,,,,,,,,,,,,,,,,,,,,,,,,,,,,,,,,,,,,,,,,,,,,,,,,,,,,,,,,,,,,,,,1,1.044102399959229,402.52638549997937,None,ScrollDown,정답입니다,402.52638549997937,None,402.52638549997937,None,402.52638549997937,None,402.52638549997937,None,403.46590880001895,None,403.46590880001895,403.9659522000002,,,,,,,,,,,,,,,,029,2022-05-25_20h00.01.316,FishGame,2022.1.1,61.09496846472064,
,25,넌 진실돼,1,Orange,A,6.625,5.566666666666666,ScrollDown,ScrollUp,Orange.png,3,Positive,Congruent,0,0,0,0,,,,,,,,,,,,,,,,,,,,,0,24,24,24,,,,,,,,,,,,,,,,,,,,,,,,,,,,,,,,,,,,,,,,,,,,,,,,,,,,,,,,,,,,,,,,,,,,,,,,,,,,,1,0.9935562000609934,404.5932719000848,None,ScrollDown,정답입니다,404.5932719000848,None,404.5932719000848,None,404.5932719000848,None,404.5932719000848,None,405.48040240001865,None,405.48040240001865,405.98258399998304,,,,,,,,,,,,,,,,029,2022-05-25_20h00.01.316,FishGame,2022.1.1,61.09496846472064,
,26,넌 천진난만해,3,Green,B,4.958333333333334,4.833333333333333,ScrollUp,ScrollDown,Green.png,3,Neutral,Neutral,0,0,0,0,,,,,,,,,,,,,,,,,,,,,0,25,25,25,,,,,,,,,,,,,,,,,,,,,,,,,,,,,,,,,,,,,,,,,,,,,,,,,,,,,,,,,,,,,,,,,,,,,,,,,,,,,2,1.5464802000205964,406.6150885000825,None,ScrollUp,정답입니다,406.6150885000825,None,406.6150885000825,None,406.6150885000825,None,406.6150885000825,None,408.0470618000254,None,408.0470618000254,408.5492436999921,,,,,,,,,,,,,,,,029,2022-05-25_20h00.01.316,FishGame,2022.1.1,61.09496846472064,
,27,넌 교양없어,5,Orange,A,2.416666666666667,2.2,ScrollDown,ScrollUp,Orange.png,3,Negative,Incongruent,0,0,0,0,,,,,,,,,,,,,,,,,,,,,0,26,26,26,,,,,,,,,,,,,,,,,,,,,,,,,,,,,,,,,,,,,,,,,,,,,,,,,,,,,,,,,,,,,,,,,,,,,,,,,,,,,1,1.0938431000104174,409.18144050007686,None,ScrollDown,정답입니다,409.18144050007686,None,409.18144050007686,None,409.18144050007686,None,409.18144050007686,None,410.16335110005457,None,410.16335110005457,410.663431800087,,,,,,,,,,,,,,,,029,2022-05-25_20h00.01.316,FishGame,2022.1.1,61.09496846472064,
,28,나를 보내줘,6,Orange,A,0,0,ScrollUp,ScrollDown,Orange.png,3,NonTarget,NonTarget,0,0,0,0,,,,,,,,,,,,,,,,,,,,,0,27,27,27,,,,,,,,,,,,,,,,,,,,,,,,,,,,,,,,,,,,,,,,,,,,,,,,,,,,,,,,,,,,,,,,,,,,,,,,,,,,,2,1.1488496999954805,411.2871166000841,None,ScrollUp,정답입니다,411.2871166000841,None,411.2871166000841,None,411.2871166000841,None,411.2871166000841,None,412.33252809999976,None,412.33252809999976,412.83259570004884,,,,,,,,,,,,,,,,029,2022-05-25_20h00.01.316,FishGame,2022.1.1,61.09496846472064,
,29,넌 엉뚱스러워,3,Orange,A,4.166666666666667,4.133333333333334,ScrollDown,ScrollUp,Orange.png,3,Neutral,Neutral,0,0,0,0,,,,,,,,,,,,,,,,,,,,,0,28,28,28,,,,,,,,,,,,,,,,,,,,,,,,,,,,,,,,,,,,,,,,,,,,,,,,,,,,,,,,,,,,,,,,,,,,,,,,,,,,,1,1.044725799933076,413.46228920004796,None,ScrollDown,정답입니다,413.46228920004796,None,413.46228920004796,None,413.46228920004796,None,413.46228920004796,None,414.39688320003916,None,414.39688320003916,414.89910570008215,,,,,,,,,,,,,,,,029,2022-05-25_20h00.01.316,FishGame,2022.1.1,61.09496846472064,
,30,넌 무지해,4,Green,B,2.541666666666667,3.066666666666667,ScrollUp,ScrollDown,Green.png,3,Negative,Congruent,0,0,0,0,,,,,,,,,,,,,,,,,,,,,0,29,29,29,,,,,,,,,,,,,,,,,,,,,,,,,,,,,,,,,,,,,,,,,,,,,,,,,,,,,,,,,,,,,,,,,,,,,,,,,,,,,2,1.0269571000244468,415.51884989999235,None,ScrollUp,정답입니다,415.51884989999235,None,415.51884989999235,None,415.51884989999235,None,415.51884989999235,None,416.44894720008597,None,416.44894720008597,416.9490633000387,,,,,,,,,,,,,,,,029,2022-05-25_20h00.01.316,FishGame,2022.1.1,61.09496846472064,
,31,넌 음울해,5,Green,B,2.25,2.233333333333333,ScrollUp,ScrollDown,Green.png,3,Negative,Congruent,0,0,0,0,,,,,,,,,,,,,,,,,,,,,0,30,30,30,,,,,,,,,,,,,,,,,,,,,,,,,,,,,,,,,,,,,,,,,,,,,,,,,,,,,,,,,,,,,,,,,,,,,,,,,,,,,2,0.9608792000217363,417.5746945000719,None,ScrollUp,정답입니다,417.5746945000719,None,417.5746945000719,None,417.5746945000719,None,417.5746945000719,None,418.4300634000683,None,418.4300634000683,418.9322542999871,,,,,,,,,,,,,,,,029,2022-05-25_20h00.01.316,FishGame,2022.1.1,61.09496846472064,
,32,넌 냉소적이야,5,Orange,A,2.916666666666667,2.4,ScrollDown,ScrollUp,Orange.png,3,Negative,Incongruent,0,0,0,0,,,,,,,,,,,,,,,,,,,,,0,31,31,31,,,,,,,,,,,,,,,,,,,,,,,,,,,,,,,,,,,,,,,,,,,,,,,,,,,,,,,,,,,,,,,,,,,,,,,,,,,,,1.0231481393178303,0.9610053999349475,419.55483979999553,None,ScrollDown,정답입니다,419.55483979999553,None,419.55483979999553,None,419.55483979999553,None,419.55483979999553,None,420.41558710008394,None,420.41558710008394,420.9156030000886,,,,,,,,,,,,,,,,029,2022-05-25_20h00.01.316,FishGame,2022.1.1,61.09496846472064,
,33,나를 데려가줘,6,Green,B,0,0,ScrollDown,ScrollUp,Green.png,3,NonTarget,NonTarget,0,0,0,0,,,,,,,,,,,,,,,,,,,,,0,32,32,32,,,,,,,,,,,,,,,,,,,,,,,,,,,,,,,,,,,,,,,,,,,,,,,,,,,,,,,,,,,,,,,,,,,,,,,,,,,,,1.0833333333333333,0.8932604999281466,421.5396636000369,None,ScrollDown,정답입니다,421.5396636000369,None,421.5396636000369,None,421.5396636000369,None,421.5396636000369,None,422.3299997000722,None,422.3299997000722,422.8300998000195,,,,,,,,,,,,,,,,029,2022-05-25_20h00.01.316,FishGame,2022.1.1,61.09496846472064,
,34,넌 쾌활해,1,Orange,A,5.541666666666666,5.733333333333333,ScrollDown,ScrollUp,Orange.png,3,Positive,Congruent,0,0,0,0,,,,,,,,,,,,,,,,,,,,,0,33,33,33,,,,,,,,,,,,,,,,,,,,,,,,,,,,,,,,,,,,,,,,,,,,,,,,,,,,,,,,,,,,,,,,,,,,,,,,,,,,,1,1.1445394000038505,423.4568149000406,None,ScrollDown,정답입니다,423.4568149000406,None,423.4568149000406,None,423.4568149000406,None,423.4568149000406,None,424.4988415000262,None,424.4988415000262,424.99889180005994,,,,,,,,,,,,,,,,029,2022-05-25_20h00.01.316,FishGame,2022.1.1,61.09496846472064,
,35,나를 보내줘,6,Orange,A,0,0,ScrollUp,ScrollDown,Orange.png,3,NonTarget,NonTarget,0,0,0,0,,,,,,,,,,,,,,,,,,,,,0,34,34,34,,,,,,,,,,,,,,,,,,,,,,,,,,,,,,,,,,,,,,,,,,,,,,,,,,,,,,,,,,,,,,,,,,,,,,,,,,,,,2,1.3605242000194266,425.6251772000687,None,ScrollUp,정답입니다,425.6251772000687,None,425.6251772000687,None,425.6251772000687,None,425.6251772000687,None,426.8797219999833,None,426.8797219999833,427.3797414000146,,,,,,,,,,,,,,,,029,2022-05-25_20h00.01.316,FishGame,2022.1.1,61.09496846472064,
,36,넌 명랑해,1,Green,B,5.739130434782609,5.666666666666667,ScrollUp,ScrollDown,Green.png,3,Positive,Incongruent,0,0,0,0,,,,,,,,,,,,,,,,,,,,,0,35,35,35,,,,,,,,,,,,,,,,,,,,,,,,,,,,,,,,,,,,,,,,,,,,,,,,,,,,,,,,,,,,,,,,,,,,,,,,,,,,,1.9459876318772633,1.0661796999629587,428.00086839997675,None,ScrollUp,정답입니다,428.00086839997675,None,428.00086839997675,None,428.00086839997675,None,428.00086839997675,None,428.9655475000618,None,428.9655475000618,429.4655442000367,,,,,,,,,,,,,,,,029,2022-05-25_20h00.01.316,FishGame,2022.1.1,61.09496846472064,
,37,넌 멍해,4,Orange,A,2.833333333333333,3.4,ScrollDown,ScrollUp,Orange.png,3,Negative,Incongruent,0,0,0,0,,,,,,,,,,,,,,,,,,,,,0,36,36,36,,,,,,,,,,,,,,,,,,,,,,,,,,,,,,,,,,,,,,,,,,,,,,,,,,,,,,,,,,,,,,,,,,,,,,,,,,,,,1,1.0190240999218076,430.0884294999996,None,ScrollDown,정답입니다,430.0884294999996,None,430.0884294999996,None,430.0884294999996,None,430.0884294999996,None,430.9965225000633,None,430.9965225000633,431.49873500003014,,,,,,,,,,,,,,,,029,2022-05-25_20h00.01.316,FishGame,2022.1.1,61.09496846472064,
,38,나를 데려가줘,6,Green,B,0,0,ScrollDown,ScrollUp,Green.png,3,NonTarget,NonTarget,0,0,0,0,,,,,,,,,,,,,,,,,,,,,0,37,37,37,,,,,,,,,,,,,,,,,,,,,,,,,,,,,,,,,,,,,,,,,,,,,,,,,,,,,,,,,,,,,,,,,,,,,,,,,,,,,1.0138889054457347,1.0442856000736356,432.1208505000686,None,ScrollDown,정답입니다,432.1208505000686,None,432.1208505000686,None,432.1208505000686,None,432.1208505000686,None,433.0653489000397,None,433.0653489000397,433.5654241000302,,,,,,,,,,,,,,,,029,2022-05-25_20h00.01.316,FishGame,2022.1.1,61.09496846472064,
,39,넌 현명해,2,Orange,A,6.541666666666666,4.533333333333333,ScrollDown,ScrollUp,Orange.png,3,Positive,Congruent,0,0,0,0,,,,,,,,,,,,,,,,,,,,,0,38,38,38,,,,,,,,,,,,,,,,,,,,,,,,,,,,,,,,,,,,,,,,,,,,,,,,,,,,,,,,,,,,,,,,,,,,,,,,,,,,,1,0.9961540999356657,434.20642850000877,None,ScrollDown,정답입니다,434.20642850000877,None,434.20642850000877,None,434.20642850000877,None,434.20642850000877,None,435.0963865000522,None,435.0963865000522,435.5985872000456,,,,,,,,,,,,,,,,029,2022-05-25_20h00.01.316,FishGame,2022.1.1,61.09496846472064,
,40,넌 수줍어,3,Green,B,3.541666666666666,4.366666666666666,ScrollUp,ScrollDown,Green.png,3,Neutral,Neutral,0,0,0,0,,,,,,,,,,,,,,,,,,,,,0,39,39,39,,,,,,,,,,,,,,,,,,,,,,,,,,,,,,,,,,,,,,,,,,,,,,,,,,,,,,,,,,,,,,,,,,,,,,,,,,,,,2,1.1111466999864206,436.22064200008754,None,ScrollUp,정답입니다,436.22064200008754,None,436.22064200008754,None,436.22064200008754,None,436.22064200008754,None,437.23189990001265,None,437.23189990001265,437.7319391000783,,,,,,,,,,,,,,,,029,2022-05-25_20h00.01.316,FishGame,2022.1.1,61.09496846472064,
,41,나를 데려가줘,6,Green,B,0,0,ScrollDown,ScrollUp,Green.png,3,NonTarget,NonTarget,0,0,0,0,,,,,,,,,,,,,,,,,,,,,0,40,40,40,,,,,,,,,,,,,,,,,,,,,,,,,,,,,,,,,,,,,,,,,,,,,,,,,,,,,,,,,,,,,,,,,,,,,,,,,,,,,1.10030863682429,1.2944865999743342,438.3501874000067,None,ScrollDown,정답입니다,438.3501874000067,None,438.3501874000067,None,438.3501874000067,None,438.3501874000067,None,439.54609459999483,None,439.54609459999483,440.0461517000804,,,,,,,,,,,,,,,,029,2022-05-25_20h00.01.316,FishGame,2022.1.1,61.09496846472064,
,42,넌 성숙해,2,Green,B,5.833333333333333,4.533333333333333,ScrollUp,ScrollDown,Green.png,3,Positive,Incongruent,0,0,0,0,,,,,,,,,,,,,,,,,,,,,0,41,41,41,,,,,,,,,,,,,,,,,,,,,,,,,,,,,,,,,,,,,,,,,,,,,,,,,,,,,,,,,,,,,,,,,,,,,,,,,,,,,2,1.0156439000274986,440.66947209998034,None,ScrollUp,정답입니다,440.66947209998034,None,440.66947209998034,None,440.66947209998034,None,440.66947209998034,None,441.58194699999876,None,441.58194699999876,442.081965600024,,,,,,,,,,,,,,,,029,2022-05-25_20h00.01.316,FishGame,2022.1.1,61.09496846472064,
,1,넌 매력적이야,2,Green,B,6.125,4.666666666666667,ScrollUp,ScrollDown,Green.png,4,Positive,Incongruent,0,0,0,0,,,,,,,,,,,,,,,,,,,,,,,,,0,0,0,0,,,,,,,,,,,,,,,,,,,,,,,,,,,,,,,,473.79570540005807,475.29803990002256,475.33131450007204,476.2814007999841,476.331320199999,477.2843902000459,477.2843902000459,None,,,,,,,,,,,,,,,,,,,,,,,,,,,,,,,,,,2,1.2082115999655798,478.4084262000397,None,ScrollUp,정답입니다,478.4084262000397,None,478.4084262000397,None,478.4084262000397,None,478.4084262000397,None,479.51220009999815,None,479.51220009999815,480.01760260004085,442.58199440001044,None,442.58199440001044,None,0.11296296,-0.15462963,1,0,0,0.01606782991439104,None,472.57901800004765,None,,,029,2022-05-25_20h00.01.316,FishGame,2022.1.1,61.09496846472064,
,2,나를 보내줘,6,Orange,A,0,0,ScrollUp,ScrollDown,Orange.png,4,NonTarget,NonTarget,0,0,0,0,,,,,,,,,,,,,,,,,,,,,,,,,0,1,1,1,,,,,,,,,,,,,,,,,,,,,,,,,,,,,,,,,,,,,,,,,,,,,,,,,,,,,,,,,,,,,,,,,,,,,,,,,2,1.1610063000116497,480.6358973000897,None,ScrollUp,정답입니다,480.6358973000897,None,480.6358973000897,None,480.6358973000897,None,480.6358973000897,None,481.6976217000047,None,481.6976217000047,482.19762820005417,,,,,,,,,,,,,,,,029,2022-05-25_20h00.01.316,FishGame,2022.1.1,61.09496846472064,
,3,넌 조심스러워,3,Orange,A,4.791666666666666,4.666666666666667,ScrollDown,ScrollUp,Orange.png,4,Neutral,Neutral,0,0,0,0,,,,,,,,,,,,,,,,,,,,,,,,,0,2,2,2,,,,,,,,,,,,,,,,,,,,,,,,,,,,,,,,,,,,,,,,,,,,,,,,,,,,,,,,,,,,,,,,,,,,,,,,,1,0.9775585999013856,482.8237699000165,None,ScrollDown,정답입니다,482.8237699000165,None,482.8237699000165,None,482.8237699000165,None,482.8237699000165,None,483.69759330002125,None,483.69759330002125,484.19766110007185,,,,,,,,,,,,,,,,029,2022-05-25_20h00.01.316,FishGame,2022.1.1,61.09496846472064,
,4,넌 철학적이야,3,Green,B,4.5,4.266666666666667,ScrollUp,ScrollDown,Green.png,4,Neutral,Neutral,0,0,0,0,,,,,,,,,,,,,,,,,,,,,,,,,0,3,3,3,,,,,,,,,,,,,,,,,,,,,,,,,,,,,,,,,,,,,,,,,,,,,,,,,,,,,,,,,,,,,,,,,,,,,,,,,2,0.9773668999550864,484.8218962000683,None,ScrollUp,정답입니다,484.8218962000683,None,484.8218962000683,None,484.8218962000683,None,484.8218962000683,None,485.6975284999935,None,485.6975284999935,486.19760389998555,,,,,,,,,,,,,,,,029,2022-05-25_20h00.01.316,FishGame,2022.1.1,61.09496846472064,
,5,넌 쩨쩨해,5,Orange,A,2.375,2.133333333333333,ScrollDown,ScrollUp,Orange.png,4,Negative,Incongruent,0,0,0,0,,,,,,,,,,,,,,,,,,,,,,,,,0,4,4,4,,,,,,,,,,,,,,,,,,,,,,,,,,,,,,,,,,,,,,,,,,,,,,,,,,,,,,,,,,,,,,,,,,,,,,,,,1,1.0447763000847772,486.84185309999157,None,ScrollDown,정답입니다,486.84185309999157,None,486.84185309999157,None,486.84185309999157,None,486.84185309999157,None,487.7808212999953,None,487.7808212999953,488.28089960000943,,,,,,,,,,,,,,,,029,2022-05-25_20h00.01.316,FishGame,2022.1.1,61.09496846472064,
,6,나를 데려가줘,6,Green,B,0,0,ScrollDown,ScrollUp,Green.png,4,NonTarget,NonTarget,0,0,0,0,,,,,,,,,,,,,,,,,,,,,,,,,0,5,5,5,,,,,,,,,,,,,,,,,,,,,,,,,,,,,,,,,,,,,,,,,,,,,,,,,,,,,,,,,,,,,,,,,,,,,,,,,1,1.0601597999921069,488.8992103000637,None,ScrollDown,정답입니다,488.8992103000637,None,488.8992103000637,None,488.8992103000637,None,488.8992103000637,None,489.8641371000558,None,489.8641371000558,490.380792299984,,,,,,,,,,,,,,,,029,2022-05-25_20h00.01.316,FishGame,2022.1.1,61.09496846472064,
,7,넌 고집불통이야,5,Green,B,2.875,2,ScrollUp,ScrollDown,Green.png,4,Negative,Congruent,0,0,0,0,,,,,,,,,,,,,,,,,,,,,,,,,0,6,6,6,,,,,,,,,,,,,,,,,,,,,,,,,,,,,,,,,,,,,,,,,,,,,,,,,,,,,,,,,,,,,,,,,,,,,,,,,2,1.1467301999218762,491.0023037000792,None,ScrollUp,정답입니다,491.0023037000792,None,491.0023037000792,None,491.0023037000792,None,491.0023037000792,None,492.0452308000531,None,492.0452308000531,492.5474387999857,,,,,,,,,,,,,,,,029,2022-05-25_20h00.01.316,FishGame,2022.1.1,61.09496846472064,
,8,넌 무심해,4,Orange,A,2.875,3.2,ScrollDown,ScrollUp,Orange.png,4,Negative,Incongruent,0,0,0,0,,,,,,,,,,,,,,,,,,,,,,,,,0,7,7,7,,,,,,,,,,,,,,,,,,,,,,,,,,,,,,,,,,,,,,,,,,,,,,,,,,,,,,,,,,,,,,,,,,,,,,,,,1,0.8941707999911159,493.1716859000735,None,ScrollDown,정답입니다,493.1716859000735,None,493.1716859000735,None,493.1716859000735,None,493.1716859000735,None,493.96192000003066,None,493.96192000003066,494.46411150007043,,,,,,,,,,,,,,,,029,2022-05-25_20h00.01.316,FishGame,2022.1.1,61.09496846472064,
,9,넌 정겨워,1,Orange,A,5.791666666666667,5.666666666666667,ScrollDown,ScrollUp,Orange.png,4,Positive,Congruent,0,0,0,0,,,,,,,,,,,,,,,,,,,,,,,,,0,8,8,8,,,,,,,,,,,,,,,,,,,,,,,,,,,,,,,,,,,,,,,,,,,,,,,,,,,,,,,,,,,,,,,,,,,,,,,,,1,1.009115400025621,495.09981849999167,None,ScrollDown,정답입니다,495.09981849999167,None,495.09981849999167,None,495.09981849999167,None,495.09981849999167,None,495.99519540008623,None,495.99519540008623,496.4973874000134,,,,,,,,,,,,,,,,029,2022-05-25_20h00.01.316,FishGame,2022.1.1,61.09496846472064,
,10,나를 데려가줘,6,Green,B,0,0,ScrollDown,ScrollUp,Green.png,4,NonTarget,NonTarget,0,0,0,0,,,,,,,,,,,,,,,,,,,,,,,,,0,9,9,9,,,,,,,,,,,,,,,,,,,,,,,,,,,,,,,,,,,,,,,,,,,,,,,,,,,,,,,,,,,,,,,,,,,,,,,,,1,0.9634059999370947,497.1163699000608,None,ScrollDown,정답입니다,497.1163699000608,None,497.1163699000608,None,497.1163699000608,None,497.1163699000608,None,497.9784779000329,None,497.9784779000329,498.4785400000401,,,,,,,,,,,,,,,,029,2022-05-25_20h00.01.316,FishGame,2022.1.1,61.09496846472064,
,11,넌 체제순응적이야,4,Green,B,3,3.6,ScrollUp,ScrollDown,Green.png,4,Negative,Congruent,0,0,0,0,,,,,,,,,,,,,,,,,,,,,,,,,0,10,10,10,,,,,,,,,,,,,,,,,,,,,,,,,,,,,,,,,,,,,,,,,,,,,,,,,,,,,,,,,,,,,,,,,,,,,,,,,2,1.0140676000155509,499.11328659998253,None,ScrollUp,정답입니다,499.11328659998253,None,499.11328659998253,None,499.11328659998253,None,499.11328659998253,None,500.01396700006444,None,500.01396700006444,500.51718660001643,,,,,,,,,,,,,,,,029,2022-05-25_20h00.01.316,FishGame,2022.1.1,61.09496846472064,
,12,나를 보내줘,6,Orange,A,0,0,ScrollUp,ScrollDown,Orange.png,4,NonTarget,NonTarget,0,0,0,0,,,,,,,,,,,,,,,,,,,,,,,,,0,11,11,11,,,,,,,,,,,,,,,,,,,,,,,,,,,,,,,,,,,,,,,,,,,,,,,,,,,,,,,,,,,,,,,,,,,,,,,,,2,1.0947706999722868,501.1520120999776,None,ScrollUp,정답입니다,501.1520120999776,None,501.1520120999776,None,501.1520120999776,None,501.1520120999776,None,502.14715430000797,None,502.14715430000797,502.6472431999864,,,,,,,,,,,,,,,,029,2022-05-25_20h00.01.316,FishGame,2022.1.1,61.09496846472064,
,13,넌 박식해,2,Orange,A,5.625,3.933333333333333,ScrollDown,ScrollUp,Orange.png,4,Positive,Congruent,0,0,0,0,,,,,,,,,,,,,,,,,,,,,,,,,0,12,12,12,,,,,,,,,,,,,,,,,,,,,,,,,,,,,,,,,,,,,,,,,,,,,,,,,,,,,,,,,,,,,,,,,,,,,,,,,1,0.9299707999452949,503.2731463999953,None,ScrollDown,정답입니다,503.2731463999953,None,503.2731463999953,None,503.2731463999953,None,503.2731463999953,None,504.09721759997774,None,504.09721759997774,504.5972802999895,,,,,,,,,,,,,,,,029,2022-05-25_20h00.01.316,FishGame,2022.1.1,61.09496846472064,
,14,나를 보내줘,6,Orange,A,0,0,ScrollUp,ScrollDown,Orange.png,4,NonTarget,NonTarget,0,0,0,0,,,,,,,,,,,,,,,,,,,,,,,,,0,13,13,13,,,,,,,,,,,,,,,,,,,,,,,,,,,,,,,,,,,,,,,,,,,,,,,,,,,,,,,,,,,,,,,,,,,,,,,,,2,1.2104555999394506,505.2229984999867,None,ScrollUp,정답입니다,505.2229984999867,None,505.2229984999867,None,505.2229984999867,None,505.2229984999867,None,506.3280157999834,None,506.3280157999834,506.8281051000813,,,,,,,,,,,,,,,,029,2022-05-25_20h00.01.316,FishGame,2022.1.1,61.09496846472064,
,15,넌 침착해,1,Green,B,5.458333333333333,5.566666666666666,ScrollUp,ScrollDown,Green.png,4,Positive,Incongruent,0,0,0,0,,,,,,,,,,,,,,,,,,,,,,,,,0,14,14,14,,,,,,,,,,,,,,,,,,,,,,,,,,,,,,,,,,,,,,,,,,,,,,,,,,,,,,,,,,,,,,,,,,,,,,,,,2,1.2656854999950156,507.45373730000574,None,ScrollUp,정답입니다,507.45373730000574,None,507.45373730000574,None,507.45373730000574,None,507.45373730000574,None,508.61390280001797,None,508.61390280001797,509.11397320008837,,,,,,,,,,,,,,,,029,2022-05-25_20h00.01.316,FishGame,2022.1.1,61.09496846472064,
,16,나를 데려가줘,6,Green,B,0,0,ScrollDown,ScrollUp,Green.png,4,NonTarget,NonTarget,0,0,0,0,,,,,,,,,,,,,,,,,,,,,,,,,0,15,15,15,,,,,,,,,,,,,,,,,,,,,,,,,,,,,,,,,,,,,,,,,,,,,,,,,,,,,,,,,,,,,,,,,,,,,,,,,1,1.0780736999586225,509.7333680000156,None,ScrollDown,정답입니다,509.7333680000156,None,509.7333680000156,None,509.7333680000156,None,509.7333680000156,None,510.7137269000523,None,510.7137269000523,511.21374590008054,,,,,,,,,,,,,,,,029,2022-05-25_20h00.01.316,FishGame,2022.1.1,61.09496846472064,
,17,넌 행복해,1,Orange,A,6.416666666666666,6.166666666666667,ScrollDown,ScrollUp,Orange.png,4,Positive,Congruent,0,0,0,0,,,,,,,,,,,,,,,,,,,,,,,,,0,16,16,16,,,,,,,,,,,,,,,,,,,,,,,,,,,,,,,,,,,,,,,,,,,,,,,,,,,,,,,,,,,,,,,,,,,,,,,,,1,1.0613726999145001,511.8377470000414,None,ScrollDown,정답입니다,511.8377470000414,None,511.8377470000414,None,511.8377470000414,None,511.8377470000414,None,512.7970567999873,None,512.7970567999873,513.3168806000613,,,,,,,,,,,,,,,,029,2022-05-25_20h00.01.316,FishGame,2022.1.1,61.09496846472064,
,18,넌 겸손해,2,Green,B,5.791666666666667,4.766666666666667,ScrollUp,ScrollDown,Green.png,4,Positive,Incongruent,0,0,0,0,,,,,,,,,,,,,,,,,,,,,,,,,0,17,17,17,,,,,,,,,,,,,,,,,,,,,,,,,,,,,,,,,,,,,,,,,,,,,,,,,,,,,,,,,,,,,,,,,,,,,,,,,2,1.2108704999554902,513.9198432000121,None,ScrollUp,정답입니다,513.9198432000121,None,513.9198432000121,None,513.9198432000121,None,513.9198432000121,None,515.0280623000581,None,515.0280623000581,515.5303077000426,,,,,,,,,,,,,,,,029,2022-05-25_20h00.01.316,FishGame,2022.1.1,61.09496846472064,
,19,나를 보내줘,6,Orange,A,0,0,ScrollUp,ScrollDown,Orange.png,4,NonTarget,NonTarget,0,0,0,0,,,,,,,,,,,,,,,,,,,,,,,,,0,18,18,18,,,,,,,,,,,,,,,,,,,,,,,,,,,,,,,,,,,,,,,,,,,,,,,,,,,,,,,,,,,,,,,,,,,,,,,,,2,1.1608363999985158,516.1529966000235,None,ScrollUp,정답입니다,516.1529966000235,None,516.1529966000235,None,516.1529966000235,None,516.1529966000235,None,517.2135793999769,None,517.2135793999769,517.7113082000287,,,,,,,,,,,,,,,,029,2022-05-25_20h00.01.316,FishGame,2022.1.1,61.09496846472064,
,20,넌 의심없어,3,Orange,A,4.166666666666667,4.6,ScrollDown,ScrollUp,Orange.png,4,Neutral,Neutral,0,0,0,0,,,,,,,,,,,,,,,,,,,,,,,,,0,19,19,19,,,,,,,,,,,,,,,,,,,,,,,,,,,,,,,,,,,,,,,,,,,,,,,,,,,,,,,,,,,,,,,,,,,,,,,,,1,1.2439507999224588,518.3445801000344,None,ScrollDown,정답입니다,518.3445801000344,None,518.3445801000344,None,518.3445801000344,None,518.3445801000344,None,519.4777678999817,None,519.4777678999817,519.9778349000262,,,,,,,,,,,,,,,,029,2022-05-25_20h00.01.316,FishGame,2022.1.1,61.09496846472064,
,21,넌 시시해,4,Orange,A,2.666666666666667,2.966666666666667,ScrollDown,ScrollUp,Orange.png,4,Negative,Incongruent,0,0,0,0,,,,,,,,,,,,,,,,,,,,,,,,,0,20,20,20,,,,,,,,,,,,,,,,,,,,,,,,,,,,,,,,,,,,,,,,,,,,,,,,,,,,,,,,,,,,,,,,,,,,,,,,,1,1.1969531000358984,520.604312099982,None,ScrollDown,정답입니다,520.604312099982,None,520.604312099982,None,520.604312099982,None,520.604312099982,None,521.6969455999788,None,521.6969455999788,522.1969343000092,,,,,,,,,,,,,,,,029,2022-05-25_20h00.01.316,FishGame,2022.1.1,61.09496846472064,
,22,나를 데려가줘,6,Green,B,0,0,ScrollDown,ScrollUp,Green.png,4,NonTarget,NonTarget,0,0,0,0,,,,,,,,,,,,,,,,,,,,,,,,,0,21,21,21,,,,,,,,,,,,,,,,,,,,,,,,,,,,,,,,,,,,,,,,,,,,,,,,,,,,,,,,,,,,,,,,,,,,,,,,,1,1.1445747000398114,522.8146614000434,None,ScrollDown,정답입니다,522.8146614000434,None,522.8146614000434,None,522.8146614000434,None,522.8146614000434,None,523.8634374000831,None,523.8634374000831,524.3634564999957,,,,,,,,,,,,,,,,029,2022-05-25_20h00.01.316,FishGame,2022.1.1,61.09496846472064,
,23,넌 무정해,5,Orange,A,2.5,2.2,ScrollDown,ScrollUp,Orange.png,4,Negative,Incongruent,0,0,0,0,,,,,,,,,,,,,,,,,,,,,,,,,0,22,22,22,,,,,,,,,,,,,,,,,,,,,,,,,,,,,,,,,,,,,,,,,,,,,,,,,,,,,,,,,,,,,,,,,,,,,,,,,1,1.2258053999394178,524.9877028000774,None,ScrollDown,정답입니다,524.9877028000774,None,524.9877028000774,None,524.9877028000774,None,524.9877028000774,None,526.11345360009,None,526.11345360009,526.613493300043,,,,,,,,,,,,,,,,029,2022-05-25_20h00.01.316,FishGame,2022.1.1,61.09496846472064,
,24,넌 긍정적이야,1,Green,B,6.041666666666667,6.066666666666666,ScrollUp,ScrollDown,Green.png,4,Positive,Incongruent,0,0,0,0,,,,,,,,,,,,,,,,,,,,,,,,,0,23,23,23,,,,,,,,,,,,,,,,,,,,,,,,,,,,,,,,,,,,,,,,,,,,,,,,,,,,,,,,,,,,,,,,,,,,,,,,,2,1.22611509996932,527.2401518999832,None,ScrollUp,정답입니다,527.2401518999832,None,527.2401518999832,None,527.2401518999832,None,527.2401518999832,None,528.3611366000259,None,528.3611366000259,528.8612171000568,,,,,,,,,,,,,,,,029,2022-05-25_20h00.01.316,FishGame,2022.1.1,61.09496846472064,
,25,나를 보내줘,6,Orange,A,0,0,ScrollUp,ScrollDown,Orange.png,4,NonTarget,NonTarget,0,0,0,0,,,,,,,,,,,,,,,,,,,,,,,,,0,24,24,24,,,,,,,,,,,,,,,,,,,,,,,,,,,,,,,,,,,,,,,,,,,,,,,,,,,,,,,,,,,,,,,,,,,,,,,,,2,1.1945391000481322,529.4867693000706,None,ScrollUp,정답입니다,529.4867693000706,None,529.4867693000706,None,529.4867693000706,None,529.4867693000706,None,530.5778184999945,None,530.5778184999945,531.0800441000611,,,,,,,,,,,,,,,,029,2022-05-25_20h00.01.316,FishGame,2022.1.1,61.09496846472064,
,26,넌 시기심이 많아,5,Green,B,2.458333333333333,2.233333333333333,ScrollUp,ScrollDown,Green.png,4,Negative,Congruent,0,0,0,0,,,,,,,,,,,,,,,,,,,,,,,,,0,25,25,25,,,,,,,,,,,,,,,,,,,,,,,,,,,,,,,,,,,,,,,,,,,,,,,,,,,,,,,,,,,,,,,,,,,,,,,,,2,1.1754975999938324,531.7159153000684,None,ScrollUp,정답입니다,531.7159153000684,None,531.7159153000684,None,531.7159153000684,None,531.7159153000684,None,532.7774942000397,None,532.7774942000397,533.2775489999913,,,,,,,,,,,,,,,,029,2022-05-25_20h00.01.316,FishGame,2022.1.1,61.09496846472064,
,27,넌 탁월해,2,Orange,A,5.708333333333334,4.5,ScrollDown,ScrollUp,Orange.png,4,Positive,Congruent,0,0,0,0,,,,,,,,,,,,,,,,,,,,,,,,,0,26,26,26,,,,,,,,,,,,,,,,,,,,,,,,,,,,,,,,,,,,,,,,,,,,,,,,,,,,,,,,,,,,,,,,,,,,,,,,,1,1.0467744000488892,533.9031687000534,None,ScrollDown,정답입니다,533.9031687000534,None,533.9031687000534,None,533.9031687000534,None,533.9031687000534,None,534.8466769000515,None,534.8466769000515,535.3467017000075,,,,,,,,,,,,,,,,029,2022-05-25_20h00.01.316,FishGame,2022.1.1,61.09496846472064,
,28,나를 데려가줘,6,Green,B,0,0,ScrollDown,ScrollUp,Green.png,4,NonTarget,NonTarget,0,0,0,0,,,,,,,,,,,,,,,,,,,,,,,,,0,27,27,27,,,,,,,,,,,,,,,,,,,,,,,,,,,,,,,,,,,,,,,,,,,,,,,,,,,,,,,,,,,,,,,,,,,,,,,,,1,1.1815801999764517,535.963424900081,None,ScrollDown,정답입니다,535.963424900081,None,535.963424900081,None,535.963424900081,None,535.963424900081,None,537.0466447999934,None,537.0466447999934,537.5466426999774,,,,,,,,,,,,,,,,029,2022-05-25_20h00.01.316,FishGame,2022.1.1,61.09496846472064,
,29,넌 조용해,3,Green,B,4.333333333333333,4.166666666666667,ScrollUp,ScrollDown,Green.png,4,Neutral,Neutral,0,0,0,0,,,,,,,,,,,,,,,,,,,,,,,,,0,28,28,28,,,,,,,,,,,,,,,,,,,,,,,,,,,,,,,,,,,,,,,,,,,,,,,,,,,,,,,,,,,,,,,,,,,,,,,,,2,1.392852200078778,538.1724269000115,None,ScrollUp,정답입니다,538.1724269000115,None,538.1724269000115,None,538.1724269000115,None,538.1724269000115,None,539.4609841000056,None,539.4609841000056,539.963122199988,,,,,,,,,,,,,,,,029,2022-05-25_20h00.01.316,FishGame,2022.1.1,61.09496846472064,
,30,넌 다정해,1,Orange,A,5.833333333333334,5.7,ScrollDown,ScrollUp,Orange.png,4,Positive,Congruent,0,0,0,0,,,,,,,,,,,,,,,,,,,,,,,,,0,29,29,29,,,,,,,,,,,,,,,,,,,,,,,,,,,,,,,,,,,,,,,,,,,,,,,,,,,,,,,,,,,,,,,,,,,,,,,,,1,1.0962477000430226,540.5934715000913,None,ScrollDown,정답입니다,540.5934715000913,None,540.5934715000913,None,540.5934715000913,None,540.5934715000913,None,541.5796952000819,None,541.5796952000819,542.0797530000564,,,,,,,,,,,,,,,,029,2022-05-25_20h00.01.316,FishGame,2022.1.1,61.09496846472064,
,31,넌 능력있어,2,Green,B,6.166666666666666,4.6,ScrollUp,ScrollDown,Green.png,4,Positive,Incongruent,0,0,0,0,,,,,,,,,,,,,,,,,,,,,,,,,0,30,30,30,,,,,,,,,,,,,,,,,,,,,,,,,,,,,,,,,,,,,,,,,,,,,,,,,,,,,,,,,,,,,,,,,,,,,,,,,2,1.0757091999985278,542.7011322000762,None,ScrollUp,정답입니다,542.7011322000762,None,542.7011322000762,None,542.7011322000762,None,542.7011322000762,None,543.6772539999802,None,543.6772539999802,544.177334500011,,,,,,,,,,,,,,,,029,2022-05-25_20h00.01.316,FishGame,2022.1.1,61.09496846472064,
,32,넌 불쾌해,5,Orange,A,2.125,1.933333333333333,ScrollDown,ScrollUp,Orange.png,4,Negative,Incongruent,0,0,0,0,,,,,,,,,,,,,,,,,,,,,,,,,0,31,31,31,,,,,,,,,,,,,,,,,,,,,,,,,,,,,,,,,,,,,,,,,,,,,,,,,,,,,,,,,,,,,,,,,,,,,,,,,1,1.127853300073184,544.8004703000188,None,ScrollDown,정답입니다,544.8004703000188,None,544.8004703000188,None,544.8004703000188,None,544.8004703000188,None,545.8272607000545,None,545.8272607000545,546.3298022000818,,,,,,,,,,,,,,,,029,2022-05-25_20h00.01.316,FishGame,2022.1.1,61.09496846472064,
,33,나를 데려가줘,6,Green,B,0,0,ScrollDown,ScrollUp,Green.png,4,NonTarget,NonTarget,0,0,0,0,,,,,,,,,,,,,,,,,,,,,,,,,0,32,32,32,,,,,,,,,,,,,,,,,,,,,,,,,,,,,,,,,,,,,,,,,,,,,,,,,,,,,,,,,,,,,,,,,,,,,,,,,1,0.9793955000350252,546.9470152000431,None,ScrollDown,정답입니다,546.9470152000431,None,546.9470152000431,None,546.9470152000431,None,546.9470152000431,None,547.8297465000069,None,547.8297465000069,548.3328999000369,,,,,,,,,,,,,,,,029,2022-05-25_20h00.01.316,FishGame,2022.1.1,61.09496846472064,
,34,넌 유순해,3,Orange,A,4.458333333333333,5,ScrollDown,ScrollUp,Orange.png,4,Neutral,Neutral,0,0,0,0,,,,,,,,,,,,,,,,,,,,,,,,,0,33,33,33,,,,,,,,,,,,,,,,,,,,,,,,,,,,,,,,,,,,,,,,,,,,,,,,,,,,,,,,,,,,,,,,,,,,,,,,,1,1.0275208000093699,548.9550421000458,None,ScrollDown,정답입니다,548.9550421000458,None,548.9550421000458,None,548.9550421000458,None,548.9550421000458,None,549.8795375999762,None,549.8795375999762,550.3796231000451,,,,,,,,,,,,,,,,029,2022-05-25_20h00.01.316,FishGame,2022.1.1,61.09496846472064,
,35,넌 근심스러워,4,Green,B,2.708333333333333,3.133333333333333,ScrollUp,ScrollDown,Green.png,4,Negative,Congruent,0,0,0,0,,,,,,,,,,,,,,,,,,,,,,,,,0,34,34,34,,,,,,,,,,,,,,,,,,,,,,,,,,,,,,,,,,,,,,,,,,,,,,,,,,,,,,,,,,,,,,,,,,,,,,,,,2,0.977644000086002,551.0063025000272,None,ScrollUp,정답입니다,551.0063025000272,None,551.0063025000272,None,551.0063025000272,None,551.0063025000272,None,551.8770788999973,None,551.8770788999973,552.3771672000876,,,,,,,,,,,,,,,,029,2022-05-25_20h00.01.316,FishGame,2022.1.1,61.09496846472064,
,36,넌 세련되었어,2,Orange,A,5.5,4.6,ScrollDown,ScrollUp,Orange.png,4,Positive,Congruent,0,0,0,0,,,,,,,,,,,,,,,,,,,,,,,,,0,35,35,35,,,,,,,,,,,,,,,,,,,,,,,,,,,,,,,,,,,,,,,,,,,,,,,,,,,,,,,,,,,,,,,,,,,,,,,,,1,0.9296809999505058,553.010643400019,None,ScrollDown,정답입니다,553.010643400019,None,553.010643400019,None,553.010643400019,None,553.010643400019,None,553.827079800074,None,553.827079800074,554.3296263000229,,,,,,,,,,,,,,,,029,2022-05-25_20h00.01.316,FishGame,2022.1.1,61.09496846472064,
,37,나를 보내줘,6,Orange,A,0,0,ScrollUp,ScrollDown,Orange.png,4,NonTarget,NonTarget,0,0,0,0,,,,,,,,,,,,,,,,,,,,,,,,,0,36,36,36,,,,,,,,,,,,,,,,,,,,,,,,,,,,,,,,,,,,,,,,,,,,,,,,,,,,,,,,,,,,,,,,,,,,,,,,,2,1.2122055999934673,554.9532623999985,None,ScrollUp,정답입니다,554.9532623999985,None,554.9532623999985,None,554.9532623999985,None,554.9532623999985,None,556.0661052999785,None,556.0661052999785,556.5772699000081,,,,,,,,,,,,,,,,029,2022-05-25_20h00.01.316,FishGame,2022.1.1,61.09496846472064,
,38,넌 확고해,3,Green,B,4.708333333333334,4.566666666666666,ScrollUp,ScrollDown,Green.png,4,Neutral,Neutral,0,0,0,0,,,,,,,,,,,,,,,,,,,,,,,,,0,37,37,37,,,,,,,,,,,,,,,,,,,,,,,,,,,,,,,,,,,,,,,,,,,,,,,,,,,,,,,,,,,,,,,,,,,,,,,,,2,1.228017900022678,557.2045137999812,None,ScrollUp,정답입니다,557.2045137999812,None,557.2045137999812,None,557.2045137999812,None,557.2045137999812,None,558.329435300082,None,558.329435300082,558.8294026000658,,,,,,,,,,,,,,,,029,2022-05-25_20h00.01.316,FishGame,2022.1.1,61.09496846472064,
,39,넌 이해심이 많아,1,Green,B,6.041666666666668,5.533333333333333,ScrollUp,ScrollDown,Green.png,4,Positive,Incongruent,0,0,0,0,,,,,,,,,,,,,,,,,,,,,,,,,0,38,38,38,,,,,,,,,,,,,,,,,,,,,,,,,,,,,,,,,,,,,,,,,,,,,,,,,,,,,,,,,,,,,,,,,,,,,,,,,2,1.1923678000457585,559.4528900000732,None,ScrollUp,정답입니다,559.4528900000732,None,559.4528900000732,None,559.4528900000732,None,559.4528900000732,None,560.5438299999805,None,560.5438299999805,561.0460924999788,,,,,,,,,,,,,,,,029,2022-05-25_20h00.01.316,FishGame,2022.1.1,61.09496846472064,
,40,나를 보내줘,6,Orange,A,0,0,ScrollUp,ScrollDown,Orange.png,4,NonTarget,NonTarget,0,0,0,0,,,,,,,,,,,,,,,,,,,,,,,,,0,39,39,39,,,,,,,,,,,,,,,,,,,,,,,,,,,,,,,,,,,,,,,,,,,,,,,,,,,,,,,,,,,,,,,,,,,,,,,,,2,1.162577599985525,561.6658216000069,None,ScrollUp,정답입니다,561.6658216000069,None,561.6658216000069,None,561.6658216000069,None,561.6658216000069,None,562.7271355000557,None,562.7271355000557,563.2293566000881,,,,,,,,,,,,,,,,029,2022-05-25_20h00.01.316,FishGame,2022.1.1,61.09496846472064,
,41,넌 거칠어,4,Orange,A,2.625,3.033333333333333,ScrollDown,ScrollUp,Orange.png,4,Negative,Incongruent,0,0,0,0,,,,,,,,,,,,,,,,,,,,,,,,,0,40,40,40,,,,,,,,,,,,,,,,,,,,,,,,,,,,,,,,,,,,,,,,,,,,,,,,,,,,,,,,,,,,,,,,,,,,,,,,,1.0879629751046498,1.6104349999222904,563.8540345000802,None,ScrollDown,정답입니다,563.8540345000802,None,563.8540345000802,None,563.8540345000802,None,563.8540345000802,None,565.3603967999807,None,565.3603967999807,565.860447700019,,,,,,,,,,,,,,,,029,2022-05-25_20h00.01.316,FishGame,2022.1.1,61.09496846472064,
,42,넌 변덕맞아,5,Green,B,2.75,2.166666666666667,ScrollUp,ScrollDown,Green.png,4,Negative,Congruent,0,0,0,0,,,,,,,,,,,,,,,,,,,,,,,,,0,41,41,41,,,,,,,,,,,,,,,,,,,,,,,,,,,,,,,,,,,,,,,,,,,,,,,,,,,,,,,,,,,,,,,,,,,,,,,,,2,1.1442680999170989,566.4845068000723,None,ScrollUp,정답입니다,566.4845068000723,None,566.4845068000723,None,566.4845068000723,None,566.4845068000723,None,567.5292236000532,None,567.5292236000532,568.0292910999851,,,,,,,,,,,,,,,,029,2022-05-25_20h00.01.316,FishGame,2022.1.1,61.09496846472064,
,43,나를 데려가줘,6,Green,B,0,0,ScrollDown,ScrollUp,Green.png,4,NonTarget,NonTarget,0,0,0,0,,,,,,,,,,,,,,,,,,,,,,,,,0,42,42,42,,,,,,,,,,,,,,,,,,,,,,,,,,,,,,,,,,,,,,,,,,,,,,,,,,,,,,,,,,,,,,,,,,,,,,,,,1,1.1588803000049666,568.6505772999953,None,ScrollDown,정답입니다,568.6505772999953,None,568.6505772999953,None,568.6505772999953,None,568.6505772999953,None,569.7100573000498,None,569.7100573000498,570.210124000092,,,,,,,,,,,,,,,,029,2022-05-25_20h00.01.316,FishGame,2022.1.1,61.09496846472064,
,44,넌 외로워,4,Green,B,2.833333333333333,3.3,ScrollUp,ScrollDown,Green.png,4,Negative,Congruent,0,0,0,0,,,,,,,,,,,,,,,,,,,,,,,,,0,43,43,43,,,,,,,,,,,,,,,,,,,,,,,,,,,,,,,,,,,,,,,,,,,,,,,,,,,,,,,,,,,,,,,,,,,,,,,,,2,1.1831410999875516,570.8315535000293,None,ScrollUp,정답입니다,570.8315535000293,None,570.8315535000293,None,570.8315535000293,None,570.8315535000293,None,571.9125335999997,None,571.9125335999997,572.4125703000464,,,,,,,,,,,,,,,,029,2022-05-25_20h00.01.316,FishGame,2022.1.1,61.09496846472064,
,1,넌 불평스러워,5,Orange,A,2.25,2.066666666666667,ScrollDown,ScrollUp,Orange.png,5,Negative,Incongruent,0,0,0,0,,,,,,,,,,,,,,,,,,,,,,,,,,,,,0,0,0,0,,,,,,,,,,,,,,,,,,,,,,,,,,,,604.1429630999919,605.6452756000217,605.6786410000641,606.6286057999823,606.6785961000714,607.6316806999967,607.6316806999967,None,,,,,,,,,,,,,,,,,,,,,,,,,,,,,,,,,,1,0.9918555000331253,608.7509089000523,None,ScrollDown,정답입니다,608.7509089000523,None,608.7509089000523,None,608.7509089000523,None,608.7509089000523,None,609.6428661000682,None,609.6428661000682,610.1449672000017,572.9126063000876,None,572.9126063000876,None,-0.3074074,-0.1037037,1,0,0,0.01594113011378795,None,602.9096572999842,None,,,029,2022-05-25_20h00.01.316,FishGame,2022.1.1,61.09496846472064,
,2,나를 보내줘,6,Orange,A,0,0,ScrollUp,ScrollDown,Orange.png,5,NonTarget,NonTarget,0,0,0,0,,,,,,,,,,,,,,,,,,,,,,,,,,,,,0,1,1,1,,,,,,,,,,,,,,,,,,,,,,,,,,,,,,,,,,,,,,,,,,,,,,,,,,,,,,,,,,,,,,,,,,,,,2,1.0941685000434518,610.7706556000048,None,ScrollUp,정답입니다,610.7706556000048,None,610.7706556000048,None,610.7706556000048,None,610.7706556000048,None,611.7594229000388,None,611.7594229000388,612.2616106000496,,,,,,,,,,,,,,,,029,2022-05-25_20h00.01.316,FishGame,2022.1.1,61.09496846472064,
,3,넌 다재다능해,2,Green,B,6.208333333333333,4.5,ScrollUp,ScrollDown,Green.png,5,Positive,Incongruent,0,0,0,0,,,,,,,,,,,,,,,,,,,,,,,,,,,,,0,2,2,2,,,,,,,,,,,,,,,,,,,,,,,,,,,,,,,,,,,,,,,,,,,,,,,,,,,,,,,,,,,,,,,,,,,,,2,1.244298500008881,612.8840780000901,None,ScrollUp,정답입니다,612.8840780000901,None,612.8840780000901,None,612.8840780000901,None,612.8840780000901,None,614.0282919000601,None,614.0282919000601,614.5282769000623,,,,,,,,,,,,,,,,029,2022-05-25_20h00.01.316,FishGame,2022.1.1,61.09496846472064,
,4,넌 과감해,3,Orange,A,4.833333333333334,4.6,ScrollDown,ScrollUp,Orange.png,5,Neutral,Neutral,0,0,0,0,,,,,,,,,,,,,,,,,,,,,,,,,,,,,0,3,3,3,,,,,,,,,,,,,,,,,,,,,,,,,,,,,,,,,,,,,,,,,,,,,,,,,,,,,,,,,,,,,,,,,,,,,1,1.0256857000058517,615.1532454000553,None,ScrollDown,정답입니다,615.1532454000553,None,615.1532454000553,None,615.1532454000553,None,615.1532454000553,None,616.0757668000879,None,616.0757668000879,616.5758163999999,,,,,,,,,,,,,,,,029,2022-05-25_20h00.01.316,FishGame,2022.1.1,61.09496846472064,
,5,넌 고분고분해,3,Green,B,3.75,4.033333333333333,ScrollUp,ScrollDown,Green.png,5,Neutral,Neutral,0,0,0,0,,,,,,,,,,,,,,,,,,,,,,,,,,,,,0,4,4,4,,,,,,,,,,,,,,,,,,,,,,,,,,,,,,,,,,,,,,,,,,,,,,,,,,,,,,,,,,,,,,,,,,,,,2,1.0300695999758318,617.2044203000842,None,ScrollUp,정답입니다,617.2044203000842,None,617.2044203000842,None,617.2044203000842,None,617.2044203000842,None,618.1282771000406,None,618.1282771000406,618.6283641000045,,,,,,,,,,,,,,,,029,2022-05-25_20h00.01.316,FishGame,2022.1.1,61.09496846472064,
,6,나를 보내줘,6,Orange,A,0,0,ScrollUp,ScrollDown,Orange.png,5,NonTarget,NonTarget,0,0,0,0,,,,,,,,,,,,,,,,,,,,,,,,,,,,,0,5,5,5,,,,,,,,,,,,,,,,,,,,,,,,,,,,,,,,,,,,,,,,,,,,,,,,,,,,,,,,,,,,,,,,,,,,,2,1.0631400999845937,619.2493484000443,None,ScrollUp,정답입니다,619.2493484000443,None,619.2493484000443,None,619.2493484000443,None,619.2493484000443,None,620.2147885999875,None,620.2147885999875,620.7281011000741,,,,,,,,,,,,,,,,029,2022-05-25_20h00.01.316,FishGame,2022.1.1,61.09496846472064,
,7,넌 잘 잊어,4,Orange,A,3,3.7,ScrollDown,ScrollUp,Orange.png,5,Negative,Incongruent,0,0,0,0,,,,,,,,,,,,,,,,,,,,,,,,,,,,,0,6,6,6,,,,,,,,,,,,,,,,,,,,,,,,,,,,,,,,,,,,,,,,,,,,,,,,,,,,,,,,,,,,,,,,,,,,,1,1.0444681999506429,621.3620516000083,None,ScrollDown,정답입니다,621.3620516000083,None,621.3620516000083,None,621.3620516000083,None,621.3620516000083,None,622.2947910000803,None,622.2947910000803,622.7948036000598,,,,,,,,,,,,,,,,029,2022-05-25_20h00.01.316,FishGame,2022.1.1,61.09496846472064,
,8,넌 탐구심이없어,4,Green,B,2.833333333333333,3.066666666666667,ScrollUp,ScrollDown,Green.png,5,Negative,Congruent,0,0,0,0,,,,,,,,,,,,,,,,,,,,,,,,,,,,,0,7,7,7,,,,,,,,,,,,,,,,,,,,,,,,,,,,,,,,,,,,,,,,,,,,,,,,,,,,,,,,,,,,,,,,,,,,,2,1.1611651999410242,623.4220684000757,None,ScrollUp,정답입니다,623.4220684000757,None,623.4220684000757,None,623.4220684000757,None,623.4220684000757,None,624.4755703000119,None,624.4755703000119,624.975658899988,,,,,,,,,,,,,,,,029,2022-05-25_20h00.01.316,FishGame,2022.1.1,61.09496846472064,
,9,나를 데려가줘,6,Green,B,0,0,ScrollDown,ScrollUp,Green.png,5,NonTarget,NonTarget,0,0,0,0,,,,,,,,,,,,,,,,,,,,,,,,,,,,,0,8,8,8,,,,,,,,,,,,,,,,,,,,,,,,,,,,,,,,,,,,,,,,,,,,,,,,,,,,,,,,,,,,,,,,,,,,,1,1.0808668000390753,625.5952429000754,None,ScrollDown,정답입니다,625.5952429000754,None,625.5952429000754,None,625.5952429000754,None,625.5952429000754,None,626.578067000024,None,626.578067000024,627.0780926999869,,,,,,,,,,,,,,,,029,2022-05-25_20h00.01.316,FishGame,2022.1.1,61.09496846472064,
,10,넌 참되어,2,Orange,A,6.041666666666664,4.733333333333333,ScrollDown,ScrollUp,Orange.png,5,Positive,Congruent,0,0,0,0,,,,,,,,,,,,,,,,,,,,,,,,,,,,,0,9,9,9,,,,,,,,,,,,,,,,,,,,,,,,,,,,,,,,,,,,,,,,,,,,,,,,,,,,,,,,,,,,,,,,,,,,,1,0.9809832000173628,627.6990062000696,None,ScrollDown,정답입니다,627.6990062000696,None,627.6990062000696,None,627.6990062000696,None,627.6990062000696,None,628.5778938999865,None,628.5778938999865,629.0779230000917,,,,,,,,,,,,,,,,029,2022-05-25_20h00.01.316,FishGame,2022.1.1,61.09496846472064,
,11,넌 생기있어,1,Green,B,5.875,5.633333333333334,ScrollUp,ScrollDown,Green.png,5,Positive,Incongruent,0,0,0,0,,,,,,,,,,,,,,,,,,,,,,,,,,,,,0,10,10,10,,,,,,,,,,,,,,,,,,,,,,,,,,,,,,,,,,,,,,,,,,,,,,,,,,,,,,,,,,,,,,,,,,,,,2,1.1608353001065552,629.7026398000307,None,ScrollUp,정답입니다,629.7026398000307,None,629.7026398000307,None,629.7026398000307,None,629.7026398000307,None,630.7611892999848,None,630.7611892999848,631.2612621000735,,,,,,,,,,,,,,,,029,2022-05-25_20h00.01.316,FishGame,2022.1.1,61.09496846472064,
,12,넌 비사교적이야,4,Green,B,2.875,2.9,ScrollUp,ScrollDown,Green.png,5,Negative,Congruent,0,0,0,0,,,,,,,,,,,,,,,,,,,,,,,,,,,,,0,11,11,11,,,,,,,,,,,,,,,,,,,,,,,,,,,,,,,,,,,,,,,,,,,,,,,,,,,,,,,,,,,,,,,,,,,,,2,1.1269345000619069,631.8791774000274,None,ScrollUp,정답입니다,631.8791774000274,None,631.8791774000274,None,631.8791774000274,None,631.8791774000274,None,632.9039845999796,None,632.9039845999796,633.4088152999757,,,,,,,,,,,,,,,,029,2022-05-25_20h00.01.316,FishGame,2022.1.1,61.09496846472064,
,13,나를 데려가줘,6,Green,B,0,0,ScrollDown,ScrollUp,Green.png,5,NonTarget,NonTarget,0,0,0,0,,,,,,,,,,,,,,,,,,,,,,,,,,,,,0,12,12,12,,,,,,,,,,,,,,,,,,,,,,,,,,,,,,,,,,,,,,,,,,,,,,,,,,,,,,,,,,,,,,,,,,,,,1,0.9612373999552801,634.0416939000133,None,ScrollDown,정답입니다,634.0416939000133,None,634.0416939000133,None,634.0416939000133,None,634.0416939000133,None,634.8920788000105,None,634.8920788000105,635.3921631000703,,,,,,,,,,,,,,,,029,2022-05-25_20h00.01.316,FishGame,2022.1.1,61.09496846472064,
,14,넌 고독해,4,Orange,A,2.916666666666667,3.233333333333333,ScrollDown,ScrollUp,Orange.png,5,Negative,Incongruent,0,0,0,0,,,,,,,,,,,,,,,,,,,,,,,,,,,,,0,13,13,13,,,,,,,,,,,,,,,,,,,,,,,,,,,,,,,,,,,,,,,,,,,,,,,,,,,,,,,,,,,,,,,,,,,,,1,1.3110128999687731,636.0183984000469,None,ScrollDown,정답입니다,636.0183984000469,None,636.0183984000469,None,636.0183984000469,None,636.0183984000469,None,637.2278768999968,None,637.2278768999968,637.7314253000077,,,,,,,,,,,,,,,,029,2022-05-25_20h00.01.316,FishGame,2022.1.1,61.09496846472064,
,15,넌 신경질적이야,5,Green,B,2.375,2.233333333333333,ScrollUp,ScrollDown,Green.png,5,Negative,Congruent,0,0,0,0,,,,,,,,,,,,,,,,,,,,,,,,,,,,,0,14,14,14,,,,,,,,,,,,,,,,,,,,,,,,,,,,,,,,,,,,,,,,,,,,,,,,,,,,,,,,,,,,,,,,,,,,,2,1.1125308000482619,638.3485605000751,None,ScrollUp,정답입니다,638.3485605000751,None,638.3485605000751,None,638.3485605000751,None,638.3485605000751,None,639.3610363000771,None,639.3610363000771,639.861081100069,,,,,,,,,,,,,,,,029,2022-05-25_20h00.01.316,FishGame,2022.1.1,61.09496846472064,
,16,넌 똑똑해,2,Green,B,5.666666666666667,3.966666666666667,ScrollUp,ScrollDown,Green.png,5,Positive,Incongruent,0,0,0,0,,,,,,,,,,,,,,,,,,,,,,,,,,,,,0,15,15,15,,,,,,,,,,,,,,,,,,,,,,,,,,,,,,,,,,,,,,,,,,,,,,,,,,,,,,,,,,,,,,,,,,,,,2,1.1275215999921784,640.4936450000387,None,ScrollUp,정답입니다,640.4936450000387,None,640.4936450000387,None,640.4936450000387,None,640.4936450000387,None,641.5087690000655,None,641.5087690000655,642.0109675000422,,,,,,,,,,,,,,,,029,2022-05-25_20h00.01.316,FishGame,2022.1.1,61.09496846472064,
,17,나를 보내줘,6,Orange,A,0,0,ScrollUp,ScrollDown,Orange.png,5,NonTarget,NonTarget,0,0,0,0,,,,,,,,,,,,,,,,,,,,,,,,,,,,,0,16,16,16,,,,,,,,,,,,,,,,,,,,,,,,,,,,,,,,,,,,,,,,,,,,,,,,,,,,,,,,,,,,,,,,,,,,,2,1.1776613999390975,642.6335166000063,None,ScrollUp,정답입니다,642.6335166000063,None,642.6335166000063,None,642.6335166000063,None,642.6335166000063,None,643.7108802000294,None,643.7108802000294,644.2110288999975,,,,,,,,,,,,,,,,029,2022-05-25_20h00.01.316,FishGame,2022.1.1,61.09496846472064,
,18,넌 협조적이야,1,Orange,A,5.625,5.666666666666667,ScrollDown,ScrollUp,Orange.png,5,Positive,Congruent,0,0,0,0,,,,,,,,,,,,,,,,,,,,,,,,,,,,,0,17,17,17,,,,,,,,,,,,,,,,,,,,,,,,,,,,,,,,,,,,,,,,,,,,,,,,,,,,,,,,,,,,,,,,,,,,,1.192901223897934,0.9108370000030845,644.8367857000558,None,ScrollDown,정답입니다,644.8367857000558,None,644.8367857000558,None,644.8367857000558,None,644.8367857000558,None,645.6420296999859,None,645.6420296999859,646.1443014000542,,,,,,,,,,,,,,,,029,2022-05-25_20h00.01.316,FishGame,2022.1.1,61.09496846472064,
,19,나를 데려가줘,6,Green,B,0,0,ScrollDown,ScrollUp,Green.png,5,NonTarget,NonTarget,0,0,0,0,,,,,,,,,,,,,,,,,,,,,,,,,,,,,0,18,18,18,,,,,,,,,,,,,,,,,,,,,,,,,,,,,,,,,,,,,,,,,,,,,,,,,,,,,,,,,,,,,,,,,,,,,1.1172839403152466,0.9611160999629647,646.7678825000767,None,ScrollDown,정답입니다,646.7678825000767,None,646.7678825000767,None,646.7678825000767,None,646.7678825000767,None,647.6274910999928,None,647.6274910999928,648.1275508999825,,,,,,,,,,,,,,,,029,2022-05-25_20h00.01.316,FishGame,2022.1.1,61.09496846472064,
,20,넌 몰인정해,5,Green,B,2.541666666666667,2.066666666666667,ScrollUp,ScrollDown,Green.png,5,Negative,Congruent,0,0,0,0,,,,,,,,,,,,,,,,,,,,,,,,,,,,,0,19,19,19,,,,,,,,,,,,,,,,,,,,,,,,,,,,,,,,,,,,,,,,,,,,,,,,,,,,,,,,,,,,,,,,,,,,,2,1.1465786000480875,648.7519696999807,None,ScrollUp,정답입니다,648.7519696999807,None,648.7519696999807,None,648.7519696999807,None,648.7519696999807,None,649.7941725000273,None,649.7941725000273,650.2942263000878,,,,,,,,,,,,,,,,029,2022-05-25_20h00.01.316,FishGame,2022.1.1,61.09496846472064,
,21,나를 데려가줘,6,Green,B,0,0,ScrollDown,ScrollUp,Green.png,5,NonTarget,NonTarget,0,0,0,0,,,,,,,,,,,,,,,,,,,,,,,,,,,,,0,20,20,20,,,,,,,,,,,,,,,,,,,,,,,,,,,,,,,,,,,,,,,,,,,,,,,,,,,,,,,,,,,,,,,,,,,,,1.0617283880710602,0.9597123999847099,650.9175451999763,None,ScrollDown,정답입니다,650.9175451999763,None,650.9175451999763,None,650.9175451999763,None,650.9175451999763,None,651.7773975000018,None,651.7773975000018,652.2753314999864,,,,,,,,,,,,,,,,029,2022-05-25_20h00.01.316,FishGame,2022.1.1,61.09496846472064,
,22,넌 순진해,3,Green,B,4.125,4.166666666666667,ScrollUp,ScrollDown,Green.png,5,Neutral,Neutral,0,0,0,0,,,,,,,,,,,,,,,,,,,,,,,,,,,,,0,21,21,21,,,,,,,,,,,,,,,,,,,,,,,,,,,,,,,,,,,,,,,,,,,,,,,,,,,,,,,,,,,,,,,,,,,,,2,1.2281364999944344,652.8946502000326,None,ScrollUp,정답입니다,652.8946502000326,None,652.8946502000326,None,652.8946502000326,None,652.8946502000326,None,654.0273776000831,None,654.0273776000831,654.5274963000556,,,,,,,,,,,,,,,,029,2022-05-25_20h00.01.316,FishGame,2022.1.1,61.09496846472064,
,23,넌 신뢰할만해,1,Orange,A,6.625,5.533333333333333,ScrollDown,ScrollUp,Orange.png,5,Positive,Congruent,0,0,0,0,,,,,,,,,,,,,,,,,,,,,,,,,,,,,0,22,22,22,,,,,,,,,,,,,,,,,,,,,,,,,,,,,,,,,,,,,,,,,,,,,,,,,,,,,,,,,,,,,,,,,,,,,1,1.0113179999170825,655.1585240000859,None,ScrollDown,정답입니다,655.1585240000859,None,655.1585240000859,None,655.1585240000859,None,655.1585240000859,None,656.0606550000375,None,656.0606550000375,656.5607487000525,,,,,,,,,,,,,,,,029,2022-05-25_20h00.01.316,FishGame,2022.1.1,61.09496846472064,
,24,나를 보내줘,6,Orange,A,0,0,ScrollUp,ScrollDown,Orange.png,5,NonTarget,NonTarget,0,0,0,0,,,,,,,,,,,,,,,,,,,,,,,,,,,,,0,23,23,23,,,,,,,,,,,,,,,,,,,,,,,,,,,,,,,,,,,,,,,,,,,,,,,,,,,,,,,,,,,,,,,,,,,,,2,1.1613599000265822,657.1867636999814,None,ScrollUp,정답입니다,657.1867636999814,None,657.1867636999814,None,657.1867636999814,None,657.1867636999814,None,658.2439866000786,None,658.2439866000786,658.7440144000575,,,,,,,,,,,,,,,,029,2022-05-25_20h00.01.316,FishGame,2022.1.1,61.09496846472064,
,25,넌 인색해,5,Orange,A,2.625,2.233333333333333,ScrollDown,ScrollUp,Orange.png,5,Negative,Incongruent,0,0,0,0,,,,,,,,,,,,,,,,,,,,,,,,,,,,,0,24,24,24,,,,,,,,,,,,,,,,,,,,,,,,,,,,,,,,,,,,,,,,,,,,,,,,,,,,,,,,,,,,,,,,,,,,,1,1.0609148000366986,659.3778968000552,None,ScrollDown,정답입니다,659.3778968000552,None,659.3778968000552,None,659.3778968000552,None,659.3778968000552,None,660.327219100087,None,660.327219100087,660.8272943000775,,,,,,,,,,,,,,,,029,2022-05-25_20h00.01.316,FishGame,2022.1.1,61.09496846472064,
