name,TrialNum,Word,WordCategory,FishType,WordList,WordValence,WordReputation,CorrectResp,IncorrectResp,FishTypeFile,Round,WordType,Condition,LoopforOrange.thisRepN,LoopforOrange.thisTrialN,LoopforOrange.thisN,LoopforOrange.thisIndex,LoopForGreen.thisRepN,LoopForGreen.thisTrialN,LoopForGreen.thisN,LoopForGreen.thisIndex,GreenInstLoop.thisRepN,GreenInstLoop.thisTrialN,GreenInstLoop.thisN,GreenInstLoop.thisIndex,GreenPrac.thisRepN,GreenPrac.thisTrialN,GreenPrac.thisN,GreenPrac.thisIndex,trials_2.thisRepN,trials_2.thisTrialN,trials_2.thisN,trials_2.thisIndex,GreenRound1.thisRepN,GreenRound1.thisTrialN,GreenRound1.thisN,GreenRound1.thisIndex,GreenRound2.thisRepN,GreenRound2.thisTrialN,GreenRound2.thisN,GreenRound2.thisIndex,GreenRound3.thisRepN,GreenRound3.thisTrialN,GreenRound3.thisN,GreenRound3.thisIndex,GreenRound4.thisRepN,GreenRound4.thisTrialN,GreenRound4.thisN,GreenRound4.thisIndex,GreenRound5.thisRepN,GreenRound5.thisTrialN,GreenRound5.thisN,GreenRound5.thisIndex,text_2.started,text_2.stopped,text_3.started,text_3.stopped,key_resp.keys,key_resp.rt,key_resp.started,key_resp.stopped,PassI.started,PassI.stopped,PassInst.keys,PassInst.rt,PassInst.started,PassInst.stopped,mouse_2.x,mouse_2.y,mouse_2.leftButton,mouse_2.midButton,mouse_2.rightButton,mouse_2.started,mouse_2.stopped,image.started,image.stopped,text_5.started,text_5.stopped,text_6.started,text_6.stopped,text_7.started,text_7.stopped,text_8.started,text_8.stopped,slider_3.response,slider_3.rt,slider_3.started,slider_3.stopped,Response_3,Feedback_3,BackGround_3.started,BackGround_3.stopped,Fish_3.started,Fish_3.stopped,WordBox_3.started,WordBox_3.stopped,Words_3.started,Words_3.stopped,BackGround_Feedback_3.started,BackGround_Feedback_3.stopped,Feedbacks_3.started,Feedbacks_3.stopped,Continue_or_not_2.keys,Continue_or_not_2.rt,Continue_or_not_2.started,Continue_or_not_2.stopped,image_4.started,image_4.stopped,mouse_3.x,mouse_3.y,mouse_3.leftButton,mouse_3.midButton,mouse_3.rightButton,mouse_3.started,mouse_3.stopped,startmain.started,startmain.stopped,slider_4.response,slider_4.rt,slider_4.started,slider_4.stopped,Response_4,Feedback_4,BackGround_4.started,BackGround_4.stopped,Fish_4.started,Fish_4.stopped,WordBox_4.started,WordBox_4.stopped,Words_4.started,Words_4.stopped,BackGround_Feedback_4.started,BackGround_Feedback_4.stopped,Feedbacks_4.started,Feedbacks_4.stopped,text.started,text.stopped,break_interval.started,break_interval.stopped,mouse.x,mouse.y,mouse.leftButton,mouse.midButton,mouse.rightButton,mouse.started,mouse.stopped,stratnextround.started,stratnextround.stopped,endgame.started,endgame.stopped,participant,date,expName,psychopyVersion,frameRate,
,,,,,,,,,,,,,,,,,,,,,,,,,,,,,,,,,,,,,,,,,,,,,,,,,,,,,,16.701065100030974,None,16.701065100030974,None,space,1.382693100022152,17.200422400026582,None,,,,,,,,,,,,,,,,,,,,,,,,,,,,,,,,,,,,,,,,,,,,,,,,,,,,,,,,,,,,,,,,,,,,,,,,,,,,,,,,,,,,,,,,,,030,2022-05-26_10h54.15.192,FishGame,2022.1.1,59.857013550375726,
물고기과제_instruction(참가자용)GreenVersion.mp4,,,,,,,,,,,,,,,,,,0,0,0,0,0,0,0,0,,,,,,,,,,,,,,,,,,,,,,,,,,,,,,,,,,,,,91.64349460008088,None,n,1.5012730000307783,91.64349460008088,None,,,,,,,,,,,,,,,,,,,,,,,,,,,,,,,,,,,,,,,,,,,,,,,,,,,,,,,,,,,,,,,,,,,,,,,,,,,,,,,,,,,,030,2022-05-26_10h54.15.192,FishGame,2022.1.1,59.857013550375726,
,1,넌 교활해,5,Orange,B,2.333333333333333,2.133333333333333,ScrollUp,ScrollDown,Orange.png,practice,,,,,,,0,0,0,0,,,,,0,0,0,0,0,0,0,0,,,,,,,,,,,,,,,,,,,,,,,,,,,,,,,,,,,0.028703704,-0.23981482,1,0,0,0.5104916801210493,None,93.16015880007762,None,96.76033910003025,98.26017040002625,98.29563670000061,99.24885630002245,99.29877980006859,100.26233749999665,100.24325709999539,None,1.9228395223617554,1.9534416000824422,101.54851440002676,None,ScrollUp,정답입니다,101.54851440002676,None,101.54851440002676,None,101.54851440002676,None,101.54851440002676,None,103.20957770000678,None,103.20957770000678,103.70973660005257,,,,,,,,,,,,,,,,,,,,,,,,,,,,,,,,,,,,,,,,,,,,,,,,,030,2022-05-26_10h54.15.192,FishGame,2022.1.1,59.857013550375726,
,2,넌 슬기로워,2,Green,A,6.166666666666667,4.1,ScrollDown,ScrollUp,Green.png,practice,,,,,,,0,0,0,0,,,,,0,0,0,0,0,1,1,1,,,,,,,,,,,,,,,,,,,,,,,,,,,,,,,,,,,,,,,,,,,,,,,,,,,,1,1.1283986000344157,104.3391311999876,None,ScrollDown,정답입니다,104.3391311999876,None,104.3391311999876,None,104.3391311999876,None,104.3391311999876,None,105.36218260007445,None,105.36218260007445,105.86218430008739,,,,,,,,,,,,,,,,,,,,,,,,,,,,,,,,,,,,,,,,,,,,,,,,,030,2022-05-26_10h54.15.192,FishGame,2022.1.1,59.857013550375726,
,3,나를 보내줘,6,Green,A,0,0,ScrollUp,ScrollDown,Green.png,practice,,,,,,,0,0,0,0,,,,,0,0,0,0,0,2,2,2,,,,,,,,,,,,,,,,,,,,,,,,,,,,,,,,,,,,,,,,,,,,,,,,,,,,1.6867284004886947,1.3461818000068888,106.47695620008744,None,ScrollUp,정답입니다,106.47695620008744,None,106.47695620008744,None,106.47695620008744,None,106.47695620008744,None,107.72641930007376,None,107.72641930007376,108.22644670004956,,,,,,,,,,,,,,,,,,,,,,,,,,,,,,,,,,,,,,,,,,,,,,,,,030,2022-05-26_10h54.15.192,FishGame,2022.1.1,59.857013550375726,
,4,나를 데려가줘,6,Orange,B,0,0,ScrollDown,ScrollUp,Orange.png,practice,,,,,,,0,0,0,0,,,,,0,0,0,0,0,3,3,3,,,,,,,,,,,,,,,,,,,,,,,,,,,,,,,,,,,,,,,,,,,,,,,,,,,,1.0756172637144725,1.1451439999509603,108.84506970003713,None,ScrollDown,정답입니다,108.84506970003713,None,108.84506970003713,None,108.84506970003713,None,108.84506970003713,None,109.89527960005216,None,109.89527960005216,110.3984885000391,,,,,,,,,,,,,,,,,,,,,,,,,,,,,,,,,,,,,,,,,,,,,,,,,030,2022-05-26_10h54.15.192,FishGame,2022.1.1,59.857013550375726,
,1,넌 교활해,5,Orange,B,2.333333333333333,2.133333333333333,ScrollUp,ScrollDown,Orange.png,practice,,,,,,,0,0,0,0,,,,,0,0,0,0,,,,,,,,,,,,,,,,,,,,,,,,,,,,,,,,,,,,,,,,,,,,,,,,,,,,,,,,,,,,,,,,,,,,,,,,,,n,7.042335500009358,110.89300080004614,None,110.89300080004614,None,,,,,,,,,,,,,,,,,,,,,,,,,,,,,,,,,,,,,,,,,,,030,2022-05-26_10h54.15.192,FishGame,2022.1.1,59.857013550375726,
,1,넌 따뜻해,1,Orange,B,6.083333333333333,5.6,ScrollUp,ScrollDown,Orange.png,1,Positive,Incongruent,,,,,0,0,0,0,,,,,,,,,,,,,0,0,0,0,,,,,,,,,,,,,,,,,,,,,,,,,,,,,,,,,,,,,,,,119.25990539998747,120.75934890005738,120.79287630005274,121.74289180000778,121.79527670005336,122.76181590009946,122.74522230005823,None,,,,,,,,,,,,,,,,,,,,,,,,,-0.04074074,-0.18981482,1,0,0,0.31505208008456975,None,117.95958590006921,None,1.7700617164373398,1.4704385999357328,124.05538590007927,None,ScrollUp,정답입니다,124.05538590007927,None,124.05538590007927,None,124.05538590007927,None,124.05538590007927,None,125.22609130002093,None,125.22609130002093,125.72833810001612,,,,,,,,,,,,,,,,030,2022-05-26_10h54.15.192,FishGame,2022.1.1,59.857013550375726,
,2,넌 기품있어,2,Orange,B,5.791666666666668,4.5,ScrollUp,ScrollDown,Orange.png,1,Positive,Incongruent,,,,,0,0,0,0,,,,,,,,,,,,,0,1,1,1,,,,,,,,,,,,,,,,,,,,,,,,,,,,,,,,,,,,,,,,,,,,,,,,,,,,,,,,,,,,,,,,,,,,,,,,,,,,,,,,,1.7098765472571054,1.0761845000088215,126.35245430003852,None,ScrollUp,정답입니다,126.35245430003852,None,126.35245430003852,None,126.35245430003852,None,126.35245430003852,None,127.32599919999484,None,127.32599919999484,127.82627080008388,,,,,,,,,,,,,,,,030,2022-05-26_10h54.15.192,FishGame,2022.1.1,59.857013550375726,
,3,나를 보내줘,6,Green,A,0,0,ScrollUp,ScrollDown,Green.png,1,NonTarget,NonTarget,,,,,0,0,0,0,,,,,,,,,,,,,0,2,2,2,,,,,,,,,,,,,,,,,,,,,,,,,,,,,,,,,,,,,,,,,,,,,,,,,,,,,,,,,,,,,,,,,,,,,,,,,,,,,,,,,2,1.6445093000074849,128.45795579999685,None,ScrollUp,정답입니다,128.45795579999685,None,128.45795579999685,None,128.45795579999685,None,128.45795579999685,None,129.99267800000962,None,129.99267800000962,130.49487940000836,,,,,,,,,,,,,,,,030,2022-05-26_10h54.15.192,FishGame,2022.1.1,59.857013550375726,
,4,넌 수동적이야,4,Green,A,2.833333333333333,2.933333333333333,ScrollDown,ScrollUp,Green.png,1,Negative,Incongruent,,,,,0,0,0,0,,,,,,,,,,,,,0,3,3,3,,,,,,,,,,,,,,,,,,,,,,,,,,,,,,,,,,,,,,,,,,,,,,,,,,,,,,,,,,,,,,,,,,,,,,,,,,,,,,,,,1.0416666567325592,1.6259013001108542,131.12697420001496,None,ScrollDown,정답입니다,131.12697420001496,None,131.12697420001496,None,131.12697420001496,None,131.12697420001496,None,132.64257950009778,None,132.64257950009778,133.1426382000791,,,,,,,,,,,,,,,,030,2022-05-26_10h54.15.192,FishGame,2022.1.1,59.857013550375726,
,5,넌 사심이 없어,3,Orange,B,4.916666666666666,4.333333333333333,ScrollUp,ScrollDown,Orange.png,1,Neutral,Neutral,,,,,0,0,0,0,,,,,,,,,,,,,0,4,4,4,,,,,,,,,,,,,,,,,,,,,,,,,,,,,,,,,,,,,,,,,,,,,,,,,,,,,,,,,,,,,,,,,,,,,,,,,,,,,,,,,1.7500000099341075,1.1840042000403628,133.77357120008674,None,ScrollUp,정답입니다,133.77357120008674,None,133.77357120008674,None,133.77357120008674,None,133.77357120008674,None,134.8352511000121,None,134.8352511000121,135.3479815000901,,,,,,,,,,,,,,,,030,2022-05-26_10h54.15.192,FishGame,2022.1.1,59.857013550375726,
,6,넌 헤퍼,5,Green,A,2.458333333333334,2.233333333333333,ScrollDown,ScrollUp,Green.png,1,Negative,Incongruent,,,,,0,0,0,0,,,,,,,,,,,,,0,5,5,5,,,,,,,,,,,,,,,,,,,,,,,,,,,,,,,,,,,,,,,,,,,,,,,,,,,,,,,,,,,,,,,,,,,,,,,,,,,,,,,,,1.1512345721324284,1.2927553999470547,135.96551290003117,None,ScrollDown,정답입니다,135.96551290003117,None,135.96551290003117,None,135.96551290003117,None,135.96551290003117,None,137.1591252000071,None,137.1591252000071,137.65926380001474,,,,,,,,,,,,,,,,030,2022-05-26_10h54.15.192,FishGame,2022.1.1,59.857013550375726,
,7,넌 말쑥해,3,Green,A,4.833333333333334,4.333333333333333,ScrollDown,ScrollUp,Green.png,1,Neutral,Neutral,,,,,0,0,0,0,,,,,,,,,,,,,0,6,6,6,,,,,,,,,,,,,,,,,,,,,,,,,,,,,,,,,,,,,,,,,,,,,,,,,,,,,,,,,,,,,,,,,,,,,,,,,,,,,,,,,1.0509259402751923,1.0759636999573559,138.28565060009714,None,ScrollDown,정답입니다,138.28565060009714,None,138.28565060009714,None,138.28565060009714,None,138.28565060009714,None,139.25919430004433,None,139.25919430004433,139.76141330006067,,,,,,,,,,,,,,,,030,2022-05-26_10h54.15.192,FishGame,2022.1.1,59.857013550375726,
,8,넌 투덜거려,5,Orange,B,2.541666666666667,2.266666666666667,ScrollUp,ScrollDown,Orange.png,1,Negative,Congruent,,,,,0,0,0,0,,,,,,,,,,,,,0,7,7,7,,,,,,,,,,,,,,,,,,,,,,,,,,,,,,,,,,,,,,,,,,,,,,,,,,,,,,,,,,,,,,,,,,,,,,,,,,,,,,,,,1.9089506218830745,1.192259500036016,140.39522380009294,None,ScrollUp,정답입니다,140.39522380009294,None,140.39522380009294,None,140.39522380009294,None,140.39522380009294,None,141.47580660006497,None,141.47580660006497,141.97599710000213,,,,,,,,,,,,,,,,030,2022-05-26_10h54.15.192,FishGame,2022.1.1,59.857013550375726,
,9,넌 적극적이야,1,Green,A,5.708333333333333,5.533333333333333,ScrollDown,ScrollUp,Green.png,1,Positive,Congruent,,,,,0,0,0,0,,,,,,,,,,,,,0,8,8,8,,,,,,,,,,,,,,,,,,,,,,,,,,,,,,,,,,,,,,,,,,,,,,,,,,,,,,,,,,,,,,,,,,,,,,,,,,,,,,,,,1.060185174147288,1.1949775000102818,142.59554050001316,None,ScrollDown,정답입니다,142.59554050001316,None,142.59554050001316,None,142.59554050001316,None,142.59554050001316,None,143.69237840001006,None,143.69237840001006,144.194575700094,,,,,,,,,,,,,,,,030,2022-05-26_10h54.15.192,FishGame,2022.1.1,59.857013550375726,
,10,넌 재미없어,4,Orange,B,2.625,2.966666666666667,ScrollUp,ScrollDown,Orange.png,1,Negative,Congruent,,,,,0,0,0,0,,,,,,,,,,,,,0,9,9,9,,,,,,,,,,,,,,,,,,,,,,,,,,,,,,,,,,,,,,,,,,,,,,,,,,,,,,,,,,,,,,,,,,,,,,,,,,,,,,,,,1.9274691144625347,1.0589632999617606,144.82476850005332,None,ScrollUp,정답입니다,144.82476850005332,None,144.82476850005332,None,144.82476850005332,None,144.82476850005332,None,145.77562329999637,None,145.77562329999637,146.27571100008208,,,,,,,,,,,,,,,,030,2022-05-26_10h54.15.192,FishGame,2022.1.1,59.857013550375726,
,11,넌 명석해,2,Green,A,5.875,4.033333333333333,ScrollDown,ScrollUp,Green.png,1,Positive,Congruent,,,,,0,0,0,0,,,,,,,,,,,,,0,10,10,10,,,,,,,,,,,,,,,,,,,,,,,,,,,,,,,,,,,,,,,,,,,,,,,,,,,,,,,,,,,,,,,,,,,,,,,,,,,,,,,,,1.016975333293279,1.027735099894926,146.9058975999942,None,ScrollDown,정답입니다,146.9058975999942,None,146.9058975999942,None,146.9058975999942,None,146.9058975999942,None,147.82777540001553,None,147.82777540001553,148.32782480004244,,,,,,,,,,,,,,,,030,2022-05-26_10h54.15.192,FishGame,2022.1.1,59.857013550375726,
,12,나를 데려가줘,6,Orange,B,0,0,ScrollDown,ScrollUp,Orange.png,1,NonTarget,NonTarget,,,,,0,0,0,0,,,,,,,,,,,,,0,11,11,11,,,,,,,,,,,,,,,,,,,,,,,,,,,,,,,,,,,,,,,,,,,,,,,,,,,,,,,,,,,,,,,,,,,,,,,,,,,,,,,,,1.120370368162791,1.3587138999719173,148.95482780004386,None,ScrollDown,정답입니다,148.95482780004386,None,148.95482780004386,None,148.95482780004386,None,148.95482780004386,None,150.2086285999976,None,150.2086285999976,150.70874260005075,,,,,,,,,,,,,,,,030,2022-05-26_10h54.15.192,FishGame,2022.1.1,59.857013550375726,
,13,넌 소심해,4,Green,A,3,3.1,ScrollDown,ScrollUp,Green.png,1,Negative,Incongruent,,,,,0,0,0,0,,,,,,,,,,,,,0,12,12,12,,,,,,,,,,,,,,,,,,,,,,,,,,,,,,,,,,,,,,,,,,,,,,,,,,,,,,,,,,,,,,,,,,,,,,,,,,,,,,,,,1,1.2615809000562876,151.33100580004975,None,ScrollDown,정답입니다,151.33100580004975,None,151.33100580004975,None,151.33100580004975,None,151.33100580004975,None,152.49450320005417,None,152.49450320005417,152.99460129998624,,,,,,,,,,,,,,,,030,2022-05-26_10h54.15.192,FishGame,2022.1.1,59.857013550375726,
,14,넌 합리적이야,2,Green,A,5.583333333333333,4.733333333333333,ScrollDown,ScrollUp,Green.png,1,Positive,Congruent,,,,,0,0,0,0,,,,,,,,,,,,,0,13,13,13,,,,,,,,,,,,,,,,,,,,,,,,,,,,,,,,,,,,,,,,,,,,,,,,,,,,,,,,,,,,,,,,,,,,,,,,,,,,,,,,,1,1.1591231999918818,153.61792039999273,None,ScrollDown,정답입니다,153.61792039999273,None,153.61792039999273,None,153.61792039999273,None,153.61792039999273,None,154.68088780005928,None,154.68088780005928,155.19431060005445,,,,,,,,,,,,,,,,030,2022-05-26_10h54.15.192,FishGame,2022.1.1,59.857013550375726,
,15,넌 무자비해,5,Orange,B,2.333333333333333,2.1,ScrollUp,ScrollDown,Orange.png,1,Negative,Congruent,,,,,0,0,0,0,,,,,,,,,,,,,0,14,14,14,,,,,,,,,,,,,,,,,,,,,,,,,,,,,,,,,,,,,,,,,,,,,,,,,,,,,,,,,,,,,,,,,,,,,,,,,,,,,,,,,1.614197532335917,1.0454874999122694,155.81535580009222,None,ScrollUp,정답입니다,155.81535580009222,None,155.81535580009222,None,155.81535580009222,None,155.81535580009222,None,156.7610224999953,None,156.7610224999953,157.26106759998947,,,,,,,,,,,,,,,,030,2022-05-26_10h54.15.192,FishGame,2022.1.1,59.857013550375726,
,16,나를 보내줘,6,Green,A,0,0,ScrollUp,ScrollDown,Green.png,1,NonTarget,NonTarget,,,,,0,0,0,0,,,,,,,,,,,,,0,15,15,15,,,,,,,,,,,,,,,,,,,,,,,,,,,,,,,,,,,,,,,,,,,,,,,,,,,,,,,,,,,,,,,,,,,,,,,,,,,,,,,,,1.6682098706563315,1.2446912999730557,157.89753110008314,None,ScrollUp,정답입니다,157.89753110008314,None,157.89753110008314,None,157.89753110008314,None,157.89753110008314,None,159.04177830007393,None,159.04177830007393,159.54185740009416,,,,,,,,,,,,,,,,030,2022-05-26_10h54.15.192,FishGame,2022.1.1,59.857013550375726,
,17,넌 현실적이야,3,Orange,B,4.608695652173913,4.766666666666667,ScrollUp,ScrollDown,Orange.png,1,Neutral,Neutral,,,,,0,0,0,0,,,,,,,,,,,,,0,16,16,16,,,,,,,,,,,,,,,,,,,,,,,,,,,,,,,,,,,,,,,,,,,,,,,,,,,,,,,,,,,,,,,,,,,,,,,,,,,,,,,,,1.7098765472571054,1.4127900999737903,160.1640788000077,None,ScrollUp,정답입니다,160.1640788000077,None,160.1640788000077,None,160.1640788000077,None,160.1640788000077,None,161.4777025000658,None,161.4777025000658,161.9944211000111,,,,,,,,,,,,,,,,030,2022-05-26_10h54.15.192,FishGame,2022.1.1,59.857013550375726,
,18,넌 의리있어,1,Orange,B,5.833333333333334,5.633333333333334,ScrollUp,ScrollDown,Orange.png,1,Positive,Incongruent,,,,,0,0,0,0,,,,,,,,,,,,,0,17,17,17,,,,,,,,,,,,,,,,,,,,,,,,,,,,,,,,,,,,,,,,,,,,,,,,,,,,,,,,,,,,,,,,,,,,,,,,,,,,,,,,,1.5740740758677325,0.975802700035274,162.60318930004723,None,ScrollUp,정답입니다,162.60318930004723,None,162.60318930004723,None,162.60318930004723,None,162.60318930004723,None,163.47529390000273,None,163.47529390000273,163.97540400002617,,,,,,,,,,,,,,,,030,2022-05-26_10h54.15.192,FishGame,2022.1.1,59.857013550375726,
,19,넌 신경과민이야,5,Green,A,2.541666666666667,2.166666666666667,ScrollDown,ScrollUp,Green.png,1,Negative,Incongruent,,,,,0,0,0,0,,,,,,,,,,,,,0,18,18,18,,,,,,,,,,,,,,,,,,,,,,,,,,,,,,,,,,,,,,,,,,,,,,,,,,,,,,,,,,,,,,,,,,,,,,,,,,,,,,,,,1.253086417913437,1.0761989000020549,164.6015892000869,None,ScrollDown,정답입니다,164.6015892000869,None,164.6015892000869,None,164.6015892000869,None,164.6015892000869,None,165.57527470006607,None,165.57527470006607,166.07745370001066,,,,,,,,,,,,,,,,030,2022-05-26_10h54.15.192,FishGame,2022.1.1,59.857013550375726,
,20,넌 편안해,1,Green,A,5.916666666666666,5.866666666666666,ScrollDown,ScrollUp,Green.png,1,Positive,Congruent,,,,,0,0,0,0,,,,,,,,,,,,,0,19,19,19,,,,,,,,,,,,,,,,,,,,,,,,,,,,,,,,,,,,,,,,,,,,,,,,,,,,,,,,,,,,,,,,,,,,,,,,,,,,,,,,,1.345679017404715,0.9092150999931619,166.6992646000581,None,ScrollDown,정답입니다,166.6992646000581,None,166.6992646000581,None,166.6992646000581,None,166.6992646000581,None,167.50850320002064,None,167.50850320002064,168.00868480000645,,,,,,,,,,,,,,,,030,2022-05-26_10h54.15.192,FishGame,2022.1.1,59.857013550375726,
,21,넌 품위있어,2,Orange,B,5.291666666666666,4.466666666666667,ScrollUp,ScrollDown,Orange.png,1,Positive,Incongruent,,,,,0,0,0,0,,,,,,,,,,,,,0,20,20,20,,,,,,,,,,,,,,,,,,,,,,,,,,,,,,,,,,,,,,,,,,,,,,,,,,,,,,,,,,,,,,,,,,,,,,,,,,,,,,,,,1.6234567910432816,1.309533999999985,168.63456700008828,None,ScrollUp,정답입니다,168.63456700008828,None,168.63456700008828,None,168.63456700008828,None,168.63456700008828,None,169.84185399999842,None,169.84185399999842,170.34189760009758,,,,,,,,,,,,,,,,030,2022-05-26_10h54.15.192,FishGame,2022.1.1,59.857013550375726,
,22,넌 빈틈없어,3,Green,A,4.833333333333333,3.966666666666667,ScrollDown,ScrollUp,Green.png,1,Neutral,Neutral,,,,,0,0,0,0,,,,,,,,,,,,,0,21,21,21,,,,,,,,,,,,,,,,,,,,,,,,,,,,,,,,,,,,,,,,,,,,,,,,,,,,,,,,,,,,,,,,,,,,,,,,,,,,,,,,,1.3271604999899864,1.0271454999456182,170.96369910007343,None,ScrollDown,정답입니다,170.96369910007343,None,170.96369910007343,None,170.96369910007343,None,170.96369910007343,None,171.8917558999965,None,171.8917558999965,172.39407809998374,,,,,,,,,,,,,,,,030,2022-05-26_10h54.15.192,FishGame,2022.1.1,59.857013550375726,
,23,넌 상상력없어,4,Orange,B,2.833333333333333,3.133333333333333,ScrollUp,ScrollDown,Orange.png,1,Negative,Congruent,,,,,0,0,0,0,,,,,,,,,,,,,0,22,22,22,,,,,,,,,,,,,,,,,,,,,,,,,,,,,,,,,,,,,,,,,,,,,,,,,,,,,,,,,,,,,,,,,,,,,,,,,,,,,,,,,1.9691357910633087,1.62555140000768,173.01832260005176,None,ScrollUp,정답입니다,173.01832260005176,None,173.01832260005176,None,173.01832260005176,None,173.01832260005176,None,174.54178460000549,None,174.54178460000549,175.04390620009508,,,,,,,,,,,,,,,,030,2022-05-26_10h54.15.192,FishGame,2022.1.1,59.857013550375726,
,24,넌 지혜로워,2,Orange,B,6.333333333333334,4.633333333333334,ScrollUp,ScrollDown,Orange.png,1,Positive,Incongruent,,,,,0,0,0,0,,,,,,,,,,,,,0,23,23,23,,,,,,,,,,,,,,,,,,,,,,,,,,,,,,,,,,,,,,,,,,,,,,,,,,,,,,,,,,,,,,,,,,,,,,,,,,,,,,,,,1.5771604912976422,1.0588654999155551,175.67131700005848,None,ScrollUp,정답입니다,175.67131700005848,None,175.67131700005848,None,175.67131700005848,None,175.67131700005848,None,176.62505550007336,None,176.62505550007336,177.12725600006524,,,,,,,,,,,,,,,,030,2022-05-26_10h54.15.192,FishGame,2022.1.1,59.857013550375726,
,25,넌 시끄러워,4,Green,A,2.833333333333333,3.033333333333333,ScrollDown,ScrollUp,Green.png,1,Negative,Incongruent,,,,,0,0,0,0,,,,,,,,,,,,,0,24,24,24,,,,,,,,,,,,,,,,,,,,,,,,,,,,,,,,,,,,,,,,,,,,,,,,,,,,,,,,,,,,,,,,,,,,,,,,,,,,,,,,,1.1080246816078823,1.2593242999864742,177.75665270001628,None,ScrollDown,정답입니다,177.75665270001628,None,177.75665270001628,None,177.75665270001628,None,177.75665270001628,None,178.9083211000543,None,178.9083211000543,179.40829920000397,,,,,,,,,,,,,,,,030,2022-05-26_10h54.15.192,FishGame,2022.1.1,59.857013550375726,
,26,넌 만사태평이야,3,Orange,B,4,4.333333333333333,ScrollUp,ScrollDown,Orange.png,1,Neutral,Neutral,,,,,0,0,0,0,,,,,,,,,,,,,0,25,25,25,,,,,,,,,,,,,,,,,,,,,,,,,,,,,,,,,,,,,,,,,,,,,,,,,,,,,,,,,,,,,,,,,,,,,,,,,,,,,,,,,1.8688271592060726,1.142403900041245,180.03762419999111,None,ScrollUp,정답입니다,180.03762419999111,None,180.03762419999111,None,180.03762419999111,None,180.03762419999111,None,181.07491590001155,None,181.07491590001155,181.57498190004844,,,,,,,,,,,,,,,,030,2022-05-26_10h54.15.192,FishGame,2022.1.1,59.857013550375726,
,27,넌 붙임성있어,1,Green,A,5.708333333333333,5.633333333333334,ScrollDown,ScrollUp,Green.png,1,Positive,Congruent,,,,,0,0,0,0,,,,,,,,,,,,,0,26,26,26,,,,,,,,,,,,,,,,,,,,,,,,,,,,,,,,,,,,,,,,,,,,,,,,,,,,,,,,,,,,,,,,,,,,,,,,,,,,,,,,,1,1.0444037999259308,182.1971857000608,None,ScrollDown,정답입니다,182.1971857000608,None,182.1971857000608,None,182.1971857000608,None,182.1971857000608,None,183.14157410000917,None,183.14157410000917,183.64161270007025,,,,,,,,,,,,,,,,030,2022-05-26_10h54.15.192,FishGame,2022.1.1,59.857013550375726,
,28,넌 영리해,2,Green,A,6,4.033333333333333,ScrollDown,ScrollUp,Green.png,1,Positive,Congruent,,,,,0,0,0,0,,,,,,,,,,,,,0,27,27,27,,,,,,,,,,,,,,,,,,,,,,,,,,,,,,,,,,,,,,,,,,,,,,,,,,,,,,,,,,,,,,,,,,,,,,,,,,,,,,,,,1.0817901194095612,1.0058628999395296,184.26428840006702,None,ScrollDown,정답입니다,184.26428840006702,None,184.26428840006702,None,184.26428840006702,None,184.26428840006702,None,185.1579074000474,None,185.1579074000474,185.65802960004658,,,,,,,,,,,,,,,,030,2022-05-26_10h54.15.192,FishGame,2022.1.1,59.857013550375726,
,29,넌 열심이야,1,Orange,B,6.041666666666667,5.833333333333333,ScrollUp,ScrollDown,Orange.png,1,Positive,Incongruent,,,,,0,0,0,0,,,,,,,,,,,,,0,28,28,28,,,,,,,,,,,,,,,,,,,,,,,,,,,,,,,,,,,,,,,,,,,,,,,,,,,,,,,,,,,,,,,,,,,,,,,,,,,,,,,,,1.8101851791143417,1.1793916000751778,186.27625930006616,None,ScrollUp,정답입니다,186.27625930006616,None,186.27625930006616,None,186.27625930006616,None,186.27625930006616,None,187.35792960005347,None,187.35792960005347,187.86096499999985,,,,,,,,,,,,,,,,030,2022-05-26_10h54.15.192,FishGame,2022.1.1,59.857013550375726,
,30,넌 인기없어,4,Orange,B,3,3.3,ScrollUp,ScrollDown,Orange.png,1,Negative,Congruent,,,,,0,0,0,0,,,,,,,,,,,,,0,29,29,29,,,,,,,,,,,,,,,,,,,,,,,,,,,,,,,,,,,,,,,,,,,,,,,,,,,,,,,,,,,,,,,,,,,,,,,,,,,,,,,,,1.7962963034709294,0.9929999000160024,188.4820434000576,None,ScrollUp,정답입니다,188.4820434000576,None,188.4820434000576,None,188.4820434000576,None,188.4820434000576,None,189.3770675000269,None,189.3770675000269,189.8801958000986,,,,,,,,,,,,,,,,030,2022-05-26_10h54.15.192,FishGame,2022.1.1,59.857013550375726,
,31,넌 익살스러워,3,Green,A,4.708333333333334,4.833333333333333,ScrollDown,ScrollUp,Green.png,1,Neutral,Neutral,,,,,0,0,0,0,,,,,,,,,,,,,0,30,30,30,,,,,,,,,,,,,,,,,,,,,,,,,,,,,,,,,,,,,,,,,,,,,,,,,,,,,,,,,,,,,,,,,,,,,,,,,,,,,,,,,1.1126543233791988,1.8259272000286728,190.5021104000043,None,ScrollDown,정답입니다,190.5021104000043,None,190.5021104000043,None,190.5021104000043,None,190.5021104000043,None,192.2247367000673,None,192.2247367000673,192.72477400000207,,,,,,,,,,,,,,,,030,2022-05-26_10h54.15.192,FishGame,2022.1.1,59.857013550375726,
,32,넌 이기적이야,5,Orange,B,2.291666666666667,2.333333333333333,ScrollUp,ScrollDown,Orange.png,1,Negative,Congruent,,,,,0,0,0,0,,,,,,,,,,,,,0,31,31,31,,,,,,,,,,,,,,,,,,,,,,,,,,,,,,,,,,,,,,,,,,,,,,,,,,,,,,,,,,,,,,,,,,,,,,,,,,,,,,,,,1.8117283930381138,1.0757033999543637,193.35067290009465,None,ScrollUp,정답입니다,193.35067290009465,None,193.35067290009465,None,193.35067290009465,None,193.35067290009465,None,194.3246827000985,None,194.3246827000985,194.82695080002304,,,,,,,,,,,,,,,,030,2022-05-26_10h54.15.192,FishGame,2022.1.1,59.857013550375726,
,33,나를 데려가줘,6,Orange,B,0,0,ScrollDown,ScrollUp,Orange.png,1,NonTarget,NonTarget,,,,,0,0,0,0,,,,,,,,,,,,,0,32,32,32,,,,,,,,,,,,,,,,,,,,,,,,,,,,,,,,,,,,,,,,,,,,,,,,,,,,,,,,,,,,,,,,,,,,,,,,,,,,,,,,,1.0864197611808777,1.328583399998024,195.44926660007332,None,ScrollDown,정답입니다,195.44926660007332,None,195.44926660007332,None,195.44926660007332,None,195.44926660007332,None,196.67464550002478,None,196.67464550002478,197.17468510009348,,,,,,,,,,,,,,,,030,2022-05-26_10h54.15.192,FishGame,2022.1.1,59.857013550375726,
,34,넌 기회주의자야,5,Green,A,2.875,2.133333333333333,ScrollDown,ScrollUp,Green.png,1,Negative,Incongruent,,,,,0,0,0,0,,,,,,,,,,,,,0,33,33,33,,,,,,,,,,,,,,,,,,,,,,,,,,,,,,,,,,,,,,,,,,,,,,,,,,,,,,,,,,,,,,,,,,,,,,,,,,,,,,,,,1.1543209999799728,1.8765843000728637,197.79776159999892,None,ScrollDown,정답입니다,197.79776159999892,None,197.79776159999892,None,197.79776159999892,None,197.79776159999892,None,199.57452660007402,None,199.57452660007402,200.0767177999951,,,,,,,,,,,,,,,,030,2022-05-26_10h54.15.192,FishGame,2022.1.1,59.857013550375726,
,1,넌 미성숙해,4,Green,A,3,3.2,ScrollDown,ScrollUp,Green.png,2,Negative,Incongruent,,,,,0,0,0,0,,,,,,,,,,,,,,,,,0,0,0,0,,,,,,,,,,,,,,,,,,,,,,,,,,,,,,,,,,,,231.97406410006806,233.47394380008336,233.50735700002406,234.4573363000527,234.5096575000789,235.45720579999033,235.45720579999033,None,,,,,,,,,,,,,,,,,,,,,,,,,,,,,,,,,,1.1358024577299755,1.3680857999715954,236.56665560009424,None,ScrollDown,정답입니다,236.56665560009424,None,236.56665560009424,None,236.56665560009424,None,236.56665560009424,None,237.82608170004096,None,237.82608170004096,238.32913130009547,200.57676120009273,None,200.57676120009273,None,0.17777778,-0.16574074,1,0,0,0.015761079965159297,None,230.57396410009824,None,,,030,2022-05-26_10h54.15.192,FishGame,2022.1.1,59.857013550375726,
,2,넌 반사회적이야,5,Orange,B,2.416666666666667,2.033333333333333,ScrollUp,ScrollDown,Orange.png,2,Negative,Congruent,,,,,0,0,0,0,,,,,,,,,,,,,,,,,0,1,1,1,,,,,,,,,,,,,,,,,,,,,,,,,,,,,,,,,,,,,,,,,,,,,,,,,,,,,,,,,,,,,,,,,,,,,,,,,,,,,1.6759259278575578,1.0756587999640033,238.9526896000607,None,ScrollUp,정답입니다,238.9526896000607,None,238.9526896000607,None,238.9526896000607,None,238.9526896000607,None,239.92370510008186,None,239.92370510008186,240.42596510006115,,,,,,,,,,,,,,,,030,2022-05-26_10h54.15.192,FishGame,2022.1.1,59.857013550375726,
,3,넌 유능해,2,Green,A,6.208333333333333,4.433333333333334,ScrollDown,ScrollUp,Green.png,2,Positive,Congruent,,,,,0,0,0,0,,,,,,,,,,,,,,,,,0,2,2,2,,,,,,,,,,,,,,,,,,,,,,,,,,,,,,,,,,,,,,,,,,,,,,,,,,,,,,,,,,,,,,,,,,,,,,,,,,,,,1.200617293516795,0.909520799992606,241.05077780003194,None,ScrollDown,정답입니다,241.05077780003194,None,241.05077780003194,None,241.05077780003194,None,241.05077780003194,None,241.857063600095,None,241.857063600095,242.3571458000224,,,,,,,,,,,,,,,,030,2022-05-26_10h54.15.192,FishGame,2022.1.1,59.857013550375726,
,4,넌 능숙해,2,Orange,B,5.666666666666667,4.733333333333333,ScrollUp,ScrollDown,Orange.png,2,Positive,Incongruent,,,,,0,0,0,0,,,,,,,,,,,,,,,,,0,3,3,3,,,,,,,,,,,,,,,,,,,,,,,,,,,,,,,,,,,,,,,,,,,,,,,,,,,,,,,,,,,,,,,,,,,,,,,,,,,,,1.4459876554707687,0.994491400080733,242.97695600008592,None,ScrollDown,오답입니다,242.97695600008592,None,242.97695600008592,None,242.97695600008592,None,242.97695600008592,None,243.87363190006,None,243.87363190006,244.37391339999158,,,,,,,,,,,,,,,,030,2022-05-26_10h54.15.192,FishGame,2022.1.1,59.857013550375726,
,5,넌 진부해,4,Orange,B,2.458333333333333,3.166666666666667,ScrollUp,ScrollDown,Orange.png,2,Negative,Congruent,,,,,0,0,0,0,,,,,,,,,,,,,,,,,0,4,4,4,,,,,,,,,,,,,,,,,,,,,,,,,,,,,,,,,,,,,,,,,,,,,,,,,,,,,,,,,,,,,,,,,,,,,,,,,,,,,2,1.0427242000587285,244.99987410008907,None,ScrollUp,정답입니다,244.99987410008907,None,244.99987410008907,None,244.99987410008907,None,244.99987410008907,None,245.94030390004627,None,245.94030390004627,246.44033500005025,,,,,,,,,,,,,,,,030,2022-05-26_10h54.15.192,FishGame,2022.1.1,59.857013550375726,
,6,나를 보내줘,6,Green,A,0,0,ScrollUp,ScrollDown,Green.png,2,NonTarget,NonTarget,,,,,0,0,0,0,,,,,,,,,,,,,,,,,0,5,5,5,,,,,,,,,,,,,,,,,,,,,,,,,,,,,,,,,,,,,,,,,,,,,,,,,,,,,,,,,,,,,,,,,,,,,,,,,,,,,1.9459876318772633,1.411245199968107,247.06169550004415,None,ScrollUp,정답입니다,247.06169550004415,None,247.06169550004415,None,247.06169550004415,None,247.06169550004415,None,248.37352780008223,None,248.37352780008223,248.87349740008358,,,,,,,,,,,,,,,,030,2022-05-26_10h54.15.192,FishGame,2022.1.1,59.857013550375726,
,7,넌 엄격해,3,Green,A,4.166666666666666,4.1,ScrollDown,ScrollUp,Green.png,2,Neutral,Neutral,,,,,0,0,0,0,,,,,,,,,,,,,,,,,0,6,6,6,,,,,,,,,,,,,,,,,,,,,,,,,,,,,,,,,,,,,,,,,,,,,,,,,,,,,,,,,,,,,,,,,,,,,,,,,,,,,1.0570987462997437,1.0760660000378266,249.4979936000891,None,ScrollDown,정답입니다,249.4979936000891,None,249.4979936000891,None,249.4979936000891,None,249.4979936000891,None,250.47353379998822,None,250.47353379998822,250.97352830006275,,,,,,,,,,,,,,,,030,2022-05-26_10h54.15.192,FishGame,2022.1.1,59.857013550375726,
,8,나를 보내줘,6,Green,A,0,0,ScrollUp,ScrollDown,Green.png,2,NonTarget,NonTarget,,,,,0,0,0,0,,,,,,,,,,,,,,,,,0,7,7,7,,,,,,,,,,,,,,,,,,,,,,,,,,,,,,,,,,,,,,,,,,,,,,,,,,,,,,,,,,,,,,,,,,,,,,,,,,,,,1.7592592686414719,0.9927981999935582,251.59508700005244,None,ScrollUp,정답입니다,251.59508700005244,None,251.59508700005244,None,251.59508700005244,None,251.59508700005244,None,252.49019390007015,None,252.49019390007015,252.99026059999596,,,,,,,,,,,,,,,,030,2022-05-26_10h54.15.192,FishGame,2022.1.1,59.857013550375726,
,9,넌 대담해,3,Orange,B,4.875,4.866666666666666,ScrollUp,ScrollDown,Orange.png,2,Neutral,Neutral,,,,,0,0,0,0,,,,,,,,,,,,,,,,,0,8,8,8,,,,,,,,,,,,,,,,,,,,,,,,,,,,,,,,,,,,,,,,,,,,,,,,,,,,,,,,,,,,,,,,,,,,,,,,,,,,,1.8456790000200272,1.2767045999644324,253.6190884000389,None,ScrollUp,정답입니다,253.6190884000389,None,253.6190884000389,None,253.6190884000389,None,253.6190884000389,None,254.79010530002415,None,254.79010530002415,255.29232340003364,,,,,,,,,,,,,,,,030,2022-05-26_10h54.15.192,FishGame,2022.1.1,59.857013550375726,
,10,넌 꾸준해,1,Green,A,5.916666666666668,5.8,ScrollDown,ScrollUp,Green.png,2,Positive,Congruent,,,,,0,0,0,0,,,,,,,,,,,,,,,,,0,9,9,9,,,,,,,,,,,,,,,,,,,,,,,,,,,,,,,,,,,,,,,,,,,,,,,,,,,,,,,,,,,,,,,,,,,,,,,,,,,,,1,1.1759327000472695,255.91634490003344,None,ScrollDown,정답입니다,255.91634490003344,None,255.91634490003344,None,255.91634490003344,None,255.91634490003344,None,256.9900835000444,None,256.9900835000444,257.49230380007066,,,,,,,,,,,,,,,,030,2022-05-26_10h54.15.192,FishGame,2022.1.1,59.857013550375726,
,11,나를 데려가줘,6,Orange,B,0,0,ScrollDown,ScrollUp,Orange.png,2,NonTarget,NonTarget,,,,,0,0,0,0,,,,,,,,,,,,,,,,,0,10,10,10,,,,,,,,,,,,,,,,,,,,,,,,,,,,,,,,,,,,,,,,,,,,,,,,,,,,,,,,,,,,,,,,,,,,,,,,,,,,,1,1.3444367999909446,258.1153684000019,None,ScrollDown,정답입니다,258.1153684000019,None,258.1153684000019,None,258.1153684000019,None,258.1153684000019,None,259.3564470000565,None,259.3564470000565,259.85759150004014,,,,,,,,,,,,,,,,030,2022-05-26_10h54.15.192,FishGame,2022.1.1,59.857013550375726,
,12,넌 독선적이야,5,Green,A,2.458333333333333,1.933333333333333,ScrollDown,ScrollUp,Green.png,2,Negative,Incongruent,,,,,0,0,0,0,,,,,,,,,,,,,,,,,0,11,11,11,,,,,,,,,,,,,,,,,,,,,,,,,,,,,,,,,,,,,,,,,,,,,,,,,,,,,,,,,,,,,,,,,,,,,,,,,,,,,1.0123456915219624,1.0783387999981642,260.47961200005375,None,ScrollDown,정답입니다,260.47961200005375,None,260.47961200005375,None,260.47961200005375,None,260.47961200005375,None,261.45884790003765,None,261.45884790003765,261.95895860006567,,,,,,,,,,,,,,,,030,2022-05-26_10h54.15.192,FishGame,2022.1.1,59.857013550375726,
,13,나를 보내줘,6,Green,A,0,0,ScrollUp,ScrollDown,Green.png,2,NonTarget,NonTarget,,,,,0,0,0,0,,,,,,,,,,,,,,,,,0,12,12,12,,,,,,,,,,,,,,,,,,,,,,,,,,,,,,,,,,,,,,,,,,,,,,,,,,,,,,,,,,,,,,,,,,,,,,,,,,,,,1.9984568059444427,1.110746999969706,262.5760545000667,None,ScrollUp,정답입니다,262.5760545000667,None,262.5760545000667,None,262.5760545000667,None,262.5760545000667,None,263.5922816999955,None,263.5922816999955,264.10664560005534,,,,,,,,,,,,,,,,030,2022-05-26_10h54.15.192,FishGame,2022.1.1,59.857013550375726,
,14,넌 책임감있어,1,Orange,B,6.347826086956522,6,ScrollUp,ScrollDown,Orange.png,2,Positive,Incongruent,,,,,0,0,0,0,,,,,,,,,,,,,,,,,0,13,13,13,,,,,,,,,,,,,,,,,,,,,,,,,,,,,,,,,,,,,,,,,,,,,,,,,,,,,,,,,,,,,,,,,,,,,,,,,,,,,1.8611111144224803,2.5604320999700576,264.73104220000096,None,ScrollUp,정답입니다,264.73104220000096,None,264.73104220000096,None,264.73104220000096,None,264.73104220000096,None,267.1898795000743,None,267.1898795000743,267.6920705999946,,,,,,,,,,,,,,,,030,2022-05-26_10h54.15.192,FishGame,2022.1.1,59.857013550375726,
,15,넌 문학적이야,3,Green,A,4.708333333333334,4.333333333333333,ScrollDown,ScrollUp,Green.png,2,Neutral,Neutral,,,,,0,0,0,0,,,,,,,,,,,,,,,,,0,14,14,14,,,,,,,,,,,,,,,,,,,,,,,,,,,,,,,,,,,,,,,,,,,,,,,,,,,,,,,,,,,,,,,,,,,,,,,,,,,,,1,1.394826199975796,268.31658149999566,None,ScrollDown,정답입니다,268.31658149999566,None,268.31658149999566,None,268.31658149999566,None,268.31658149999566,None,269.60655430005863,None,269.60655430005863,270.1066518999869,,,,,,,,,,,,,,,,030,2022-05-26_10h54.15.192,FishGame,2022.1.1,59.857013550375726,
,16,넌 재미있어,1,Orange,B,5.875,5.7,ScrollUp,ScrollDown,Orange.png,2,Positive,Incongruent,,,,,0,0,0,0,,,,,,,,,,,,,,,,,0,15,15,15,,,,,,,,,,,,,,,,,,,,,,,,,,,,,,,,,,,,,,,,,,,,,,,,,,,,,,,,,,,,,,,,,,,,,,,,,,,,,1.8811728457609813,1.1606755000539124,270.726421300089,None,ScrollUp,정답입니다,270.726421300089,None,270.726421300089,None,270.726421300089,None,270.726421300089,None,271.78979609999806,None,271.78979609999806,272.2920479000313,,,,,,,,,,,,,,,,030,2022-05-26_10h54.15.192,FishGame,2022.1.1,59.857013550375726,
,17,나를 데려가줘,6,Orange,B,0,0,ScrollDown,ScrollUp,Orange.png,2,NonTarget,NonTarget,,,,,0,0,0,0,,,,,,,,,,,,,,,,,0,16,16,16,,,,,,,,,,,,,,,,,,,,,,,,,,,,,,,,,,,,,,,,,,,,,,,,,,,,,,,,,,,,,,,,,,,,,,,,,,,,,1,1.1920926000457257,272.9183969000587,None,ScrollDown,정답입니다,272.9183969000587,None,272.9183969000587,None,272.9183969000587,None,272.9183969000587,None,274.00609030004125,None,274.00609030004125,274.5061830000486,,,,,,,,,,,,,,,,030,2022-05-26_10h54.15.192,FishGame,2022.1.1,59.857013550375726,
,18,넌 협력적이야,1,Green,A,5.625,5.633333333333334,ScrollDown,ScrollUp,Green.png,2,Positive,Congruent,,,,,0,0,0,0,,,,,,,,,,,,,,,,,0,17,17,17,,,,,,,,,,,,,,,,,,,,,,,,,,,,,,,,,,,,,,,,,,,,,,,,,,,,,,,,,,,,,,,,,,,,,,,,,,,,,1.180555562178294,1.095184599980712,275.1321792000672,None,ScrollDown,정답입니다,275.1321792000672,None,275.1321792000672,None,275.1321792000672,None,275.1321792000672,None,276.12535510002635,None,276.12535510002635,276.6420804000227,,,,,,,,,,,,,,,,030,2022-05-26_10h54.15.192,FishGame,2022.1.1,59.857013550375726,
,19,넌 평범해,3,Orange,B,4.333333333333332,4.233333333333333,ScrollUp,ScrollDown,Orange.png,2,Neutral,Neutral,,,,,0,0,0,0,,,,,,,,,,,,,,,,,0,18,18,18,,,,,,,,,,,,,,,,,,,,,,,,,,,,,,,,,,,,,,,,,,,,,,,,,,,,,,,,,,,,,,,,,,,,,,,,,,,,,2,1.2088529000757262,277.24952950002626,None,ScrollUp,정답입니다,277.24952950002626,None,277.24952950002626,None,277.24952950002626,None,277.24952950002626,None,278.35627430002205,None,278.35627430002205,278.85841370001435,,,,,,,,,,,,,,,,030,2022-05-26_10h54.15.192,FishGame,2022.1.1,59.857013550375726,
,20,넌 오만해,5,Green,A,2.333333333333333,2,ScrollDown,ScrollUp,Green.png,2,Negative,Incongruent,,,,,0,0,0,0,,,,,,,,,,,,,,,,,0,19,19,19,,,,,,,,,,,,,,,,,,,,,,,,,,,,,,,,,,,,,,,,,,,,,,,,,,,,,,,,,,,,,,,,,,,,,,,,,,,,,1.1728395173947017,1.575902899960056,279.48086010001134,None,ScrollDown,정답입니다,279.48086010001134,None,279.48086010001134,None,279.48086010001134,None,279.48086010001134,None,280.9584687000606,None,280.9584687000606,281.45619960001204,,,,,,,,,,,,,,,,030,2022-05-26_10h54.15.192,FishGame,2022.1.1,59.857013550375726,
,21,넌 운이없어,4,Orange,B,3,3.466666666666667,ScrollUp,ScrollDown,Orange.png,2,Negative,Congruent,,,,,0,0,0,0,,,,,,,,,,,,,,,,,0,20,20,20,,,,,,,,,,,,,,,,,,,,,,,,,,,,,,,,,,,,,,,,,,,,,,,,,,,,,,,,,,,,,,,,,,,,,,,,,,,,,2,1.0617524000117555,282.09555060009006,None,ScrollUp,정답입니다,282.09555060009006,None,282.09555060009006,None,282.09555060009006,None,282.09555060009006,None,283.0561711000046,None,283.0561711000046,283.55625890009105,,,,,,,,,,,,,,,,030,2022-05-26_10h54.15.192,FishGame,2022.1.1,59.857013550375726,
,22,넌 창조적이야,2,Orange,B,6.125,4.633333333333334,ScrollUp,ScrollDown,Orange.png,2,Positive,Incongruent,,,,,0,0,0,0,,,,,,,,,,,,,,,,,0,21,21,21,,,,,,,,,,,,,,,,,,,,,,,,,,,,,,,,,,,,,,,,,,,,,,,,,,,,,,,,,,,,,,,,,,,,,,,,,,,,,1.8904321044683456,1.0255330000072718,284.1825009000022,None,ScrollUp,정답입니다,284.1825009000022,None,284.1825009000022,None,284.1825009000022,None,284.1825009000022,None,285.1062004000414,None,285.1062004000414,285.6063807000173,,,,,,,,,,,,,,,,030,2022-05-26_10h54.15.192,FishGame,2022.1.1,59.857013550375726,
,23,나를 보내줘,6,Green,A,0,0,ScrollUp,ScrollDown,Green.png,2,NonTarget,NonTarget,,,,,0,0,0,0,,,,,,,,,,,,,,,,,0,22,22,22,,,,,,,,,,,,,,,,,,,,,,,,,,,,,,,,,,,,,,,,,,,,,,,,,,,,,,,,,,,,,,,,,,,,,,,,,,,,,1.7314814925193787,1.1942250999854878,286.23369520006236,None,ScrollUp,정답입니다,286.23369520006236,None,286.23369520006236,None,286.23369520006236,None,286.23369520006236,None,287.3225378000643,None,287.3225378000643,287.82257000007667,,,,,,,,,,,,,,,,030,2022-05-26_10h54.15.192,FishGame,2022.1.1,59.857013550375726,
,24,넌 통찰력있어,2,Green,A,6.5,4.8,ScrollDown,ScrollUp,Green.png,2,Positive,Congruent,,,,,0,0,0,0,,,,,,,,,,,,,,,,,0,23,23,23,,,,,,,,,,,,,,,,,,,,,,,,,,,,,,,,,,,,,,,,,,,,,,,,,,,,,,,,,,,,,,,,,,,,,,,,,,,,,1,1.0457120999926701,288.44273990008514,None,ScrollDown,정답입니다,288.44273990008514,None,288.44273990008514,None,288.44273990008514,None,288.44273990008514,None,289.38950980000664,None,289.38950980000664,289.8917644000612,,,,,,,,,,,,,,,,030,2022-05-26_10h54.15.192,FishGame,2022.1.1,59.857013550375726,
,25,넌 경솔해,5,Orange,B,2.458333333333333,2.266666666666667,ScrollUp,ScrollDown,Orange.png,2,Negative,Congruent,,,,,0,0,0,0,,,,,,,,,,,,,,,,,0,24,24,24,,,,,,,,,,,,,,,,,,,,,,,,,,,,,,,,,,,,,,,,,,,,,,,,,,,,,,,,,,,,,,,,,,,,,,,,,,,,,1.799382706483205,0.9274505999637768,290.51201489998493,None,ScrollUp,정답입니다,290.51201489998493,None,290.51201489998493,None,290.51201489998493,None,290.51201489998493,None,291.3416059000883,None,291.3416059000883,291.8416079999879,,,,,,,,,,,,,,,,030,2022-05-26_10h54.15.192,FishGame,2022.1.1,59.857013550375726,
,26,넌 초조해,4,Green,A,2.916666666666667,3.133333333333333,ScrollDown,ScrollUp,Green.png,2,Negative,Incongruent,,,,,0,0,0,0,,,,,,,,,,,,,,,,,0,25,25,25,,,,,,,,,,,,,,,,,,,,,,,,,,,,,,,,,,,,,,,,,,,,,,,,,,,,,,,,,,,,,,,,,,,,,,,,,,,,,1.2623456766208014,0.9431016999296844,292.4646375000011,None,ScrollDown,정답입니다,292.4646375000011,None,292.4646375000011,None,292.4646375000011,None,292.4646375000011,None,293.30601440009195,None,293.30601440009195,293.8082879000576,,,,,,,,,,,,,,,,030,2022-05-26_10h54.15.192,FishGame,2022.1.1,59.857013550375726,
,27,넌 무관심해,4,Orange,B,2.833333333333333,2.9,ScrollUp,ScrollDown,Orange.png,2,Negative,Congruent,,,,,0,0,0,0,,,,,,,,,,,,,,,,,0,26,26,26,,,,,,,,,,,,,,,,,,,,,,,,,,,,,,,,,,,,,,,,,,,,,,,,,,,,,,,,,,,,,,,,,,,,,,,,,,,,,1.674382713933786,0.9936848999932408,294.4283773000352,None,ScrollUp,정답입니다,294.4283773000352,None,294.4283773000352,None,294.4283773000352,None,294.4283773000352,None,295.32256900006905,None,295.32256900006905,295.82267430005595,,,,,,,,,,,,,,,,030,2022-05-26_10h54.15.192,FishGame,2022.1.1,59.857013550375726,
,28,넌 감성적이야,3,Orange,B,4.125,4.166666666666667,ScrollUp,ScrollDown,Orange.png,2,Neutral,Neutral,,,,,0,0,0,0,,,,,,,,,,,,,,,,,0,27,27,27,,,,,,,,,,,,,,,,,,,,,,,,,,,,,,,,,,,,,,,,,,,,,,,,,,,,,,,,,,,,,,,,,,,,,,,,,,,,,1.6496913532416024,0.878412300022319,296.4452709000325,None,ScrollUp,정답입니다,296.4452709000325,None,296.4452709000325,None,296.4452709000325,None,296.4452709000325,None,297.2225976000773,None,297.2225976000773,297.7225755000254,,,,,,,,,,,,,,,,030,2022-05-26_10h54.15.192,FishGame,2022.1.1,59.857013550375726,
,29,넌 배려심있어,1,Green,A,6.083333333333333,5.5,ScrollDown,ScrollUp,Green.png,2,Positive,Congruent,,,,,0,0,0,0,,,,,,,,,,,,,,,,,0,28,28,28,,,,,,,,,,,,,,,,,,,,,,,,,,,,,,,,,,,,,,,,,,,,,,,,,,,,,,,,,,,,,,,,,,,,,,,,,,,,,1.234567900498708,1.6277930000796914,298.3428011999931,None,ScrollDown,정답입니다,298.3428011999931,None,298.3428011999931,None,298.3428011999931,None,298.3428011999931,None,299.87247699999716,None,299.87247699999716,300.37253060005605,,,,,,,,,,,,,,,,030,2022-05-26_10h54.15.192,FishGame,2022.1.1,59.857013550375726,
,30,넌 숨김없어,3,Green,A,4.5,4.933333333333334,ScrollDown,ScrollUp,Green.png,2,Neutral,Neutral,,,,,0,0,0,0,,,,,,,,,,,,,,,,,0,29,29,29,,,,,,,,,,,,,,,,,,,,,,,,,,,,,,,,,,,,,,,,,,,,,,,,,,,,,,,,,,,,,,,,,,,,,,,,,,,,,1.3765432089567184,0.8759779999963939,300.9954544000793,None,ScrollDown,정답입니다,300.9954544000793,None,300.9954544000793,None,300.9954544000793,None,300.9954544000793,None,301.7724947000388,None,301.7724947000388,302.27252490003593,,,,,,,,,,,,,,,,030,2022-05-26_10h54.15.192,FishGame,2022.1.1,59.857013550375726,
,31,넌 훌륭해,2,Orange,B,5.916666666666667,4.033333333333333,ScrollUp,ScrollDown,Orange.png,2,Positive,Incongruent,,,,,0,0,0,0,,,,,,,,,,,,,,,,,0,30,30,30,,,,,,,,,,,,,,,,,,,,,,,,,,,,,,,,,,,,,,,,,,,,,,,,,,,,,,,,,,,,,,,,,,,,,,,,,,,,,1.4722222207734983,1.0093384999781847,302.9032788000768,None,NoResponse,무응답입니다,302.9032788000768,None,302.9032788000768,None,302.9032788000768,None,302.9032788000768,None,303.8058215000201,None,303.8058215000201,304.3115667999955,,,,,,,,,,,,,,,,030,2022-05-26_10h54.15.192,FishGame,2022.1.1,59.857013550375726,
,32,넌 슬기로워,2,Green,A,6.166666666666667,4.1,ScrollDown,ScrollUp,Green.png,2,Positive,Congruent,,,,,0,0,0,0,,,,,,,,,,,,,,,,,0,31,31,31,,,,,,,,,,,,,,,,,,,,,,,,,,,,,,,,,,,,,,,,,,,,,,,,,,,,,,,,,,,,,,,,,,,,,,,,,,,,,1.320987656712532,1.1282652000663802,304.924620600068,None,ScrollDown,정답입니다,304.924620600068,None,304.924620600068,None,304.924620600068,None,304.924620600068,None,305.95568030001596,None,305.95568030001596,306.456058000098,,,,,,,,,,,,,,,,030,2022-05-26_10h54.15.192,FishGame,2022.1.1,59.857013550375726,
,33,넌 냉혹해,5,Green,A,2.583333333333333,2.1,ScrollDown,ScrollUp,Green.png,2,Negative,Incongruent,,,,,0,0,0,0,,,,,,,,,,,,,,,,,0,32,32,32,,,,,,,,,,,,,,,,,,,,,,,,,,,,,,,,,,,,,,,,,,,,,,,,,,,,,,,,,,,,,,,,,,,,,,,,,,,,,1,1.7261250000447035,307.0813213000074,None,ScrollDown,정답입니다,307.0813213000074,None,307.0813213000074,None,307.0813213000074,None,307.0813213000074,None,308.7078369000228,None,308.7078369000228,309.2078977000201,,,,,,,,,,,,,,,,030,2022-05-26_10h54.15.192,FishGame,2022.1.1,59.857013550375726,
,34,나를 데려가줘,6,Orange,B,0,0,ScrollDown,ScrollUp,Orange.png,2,NonTarget,NonTarget,,,,,0,0,0,0,,,,,,,,,,,,,,,,,0,33,33,33,,,,,,,,,,,,,,,,,,,,,,,,,,,,,,,,,,,,,,,,,,,,,,,,,,,,,,,,,,,,,,,,,,,,,,,,,,,,,1.160493830839793,1.0589865000220016,309.834511400084,None,ScrollDown,정답입니다,309.834511400084,None,309.834511400084,None,309.834511400084,None,309.834511400084,None,310.78868340002373,None,310.78868340002373,311.28878220007755,,,,,,,,,,,,,,,,030,2022-05-26_10h54.15.192,FishGame,2022.1.1,59.857013550375726,
,35,넌 편파적이야,5,Orange,B,2.125,2,ScrollUp,ScrollDown,Orange.png,2,Negative,Congruent,,,,,0,0,0,0,,,,,,,,,,,,,,,,,0,34,34,34,,,,,,,,,,,,,,,,,,,,,,,,,,,,,,,,,,,,,,,,,,,,,,,,,,,,,,,,,,,,,,,,,,,,,,,,,,,,,1.8657407313585281,1.0785786000778899,311.91365050000604,None,ScrollUp,정답입니다,311.91365050000604,None,311.91365050000604,None,311.91365050000604,None,311.91365050000604,None,312.891287400038,None,312.891287400038,313.3911764000077,,,,,,,,,,,,,,,,030,2022-05-26_10h54.15.192,FishGame,2022.1.1,59.857013550375726,
,36,넌 슬퍼,4,Green,A,2.583333333333333,3.066666666666667,ScrollDown,ScrollUp,Green.png,2,Negative,Incongruent,,,,,0,0,0,0,,,,,,,,,,,,,,,,,0,35,35,35,,,,,,,,,,,,,,,,,,,,,,,,,,,,,,,,,,,,,,,,,,,,,,,,,,,,,,,,,,,,,,,,,,,,,,,,,,,,,1.141975313425064,0.9612904000096023,314.00985969998874,None,ScrollDown,정답입니다,314.00985969998874,None,314.00985969998874,None,314.00985969998874,None,314.00985969998874,None,314.8746603000909,None,314.8746603000909,315.37459370004945,,,,,,,,,,,,,,,,030,2022-05-26_10h54.15.192,FishGame,2022.1.1,59.857013550375726,
,37,나를 데려가줘,6,Orange,B,0,0,ScrollDown,ScrollUp,Orange.png,2,NonTarget,NonTarget,,,,,0,0,0,0,,,,,,,,,,,,,,,,,0,36,36,36,,,,,,,,,,,,,,,,,,,,,,,,,,,,,,,,,,,,,,,,,,,,,,,,,,,,,,,,,,,,,,,,,,,,,,,,,,,,,1.2222222139437993,1.127580799977295,316.00912539998535,None,ScrollDown,정답입니다,316.00912539998535,None,316.00912539998535,None,316.00912539998535,None,316.00912539998535,None,317.03884270007256,None,317.03884270007256,317.540995700052,,,,,,,,,,,,,,,,030,2022-05-26_10h54.15.192,FishGame,2022.1.1,59.857013550375726,
,38,넌 친절해,1,Orange,B,6.041666666666667,5.533333333333333,ScrollUp,ScrollDown,Orange.png,2,Positive,Incongruent,,,,,0,0,0,0,,,,,,,,,,,,,,,,,0,37,37,37,,,,,,,,,,,,,,,,,,,,,,,,,,,,,,,,,,,,,,,,,,,,,,,,,,,,,,,,,,,,,,,,,,,,,,,,,,,,,2,1.726221000077203,318.163654700038,None,ScrollUp,정답입니다,318.163654700038,None,318.163654700038,None,318.163654700038,None,318.163654700038,None,319.788767100079,None,319.788767100079,320.2910136000719,,,,,,,,,,,,,,,,030,2022-05-26_10h54.15.192,FishGame,2022.1.1,59.857013550375726,
,1,넌 엉성해,4,Green,A,3,3.3,ScrollDown,ScrollUp,Green.png,3,Negative,Incongruent,,,,,0,0,0,0,,,,,,,,,,,,,,,,,,,,,0,0,0,0,,,,,,,,,,,,,,,,,,,,,,,,,,,,,,,,352.1214888000395,353.6238298000535,353.6547908000648,354.6071336000459,354.65721030009445,355.6215884000994,355.6048413000535,None,,,,,,,,,,,,,,,,,,,,,,,,,,,,,,,,,,1.0509259402751923,1.2008446999825537,356.70404260000214,None,ScrollDown,정답입니다,356.70404260000214,None,356.70404260000214,None,356.70404260000214,None,356.70404260000214,None,357.80472340004053,None,357.80472340004053,358.3046880000038,320.7888318999903,None,320.7888318999903,None,0.37592593,-0.10925926,1,0,0,0.01598308002576232,None,350.7934471000917,None,,,030,2022-05-26_10h54.15.192,FishGame,2022.1.1,59.857013550375726,
,2,나를 보내줘,6,Green,A,0,0,ScrollUp,ScrollDown,Green.png,3,NonTarget,NonTarget,,,,,0,0,0,0,,,,,,,,,,,,,,,,,,,,,0,1,1,1,,,,,,,,,,,,,,,,,,,,,,,,,,,,,,,,,,,,,,,,,,,,,,,,,,,,,,,,,,,,,,,,,,,,,,,,,2,1.1935096000088379,358.922266800073,None,ScrollUp,정답입니다,358.922266800073,None,358.922266800073,None,358.922266800073,None,358.922266800073,None,360.02127570006996,None,360.02127570006996,360.52349350007717,,,,,,,,,,,,,,,,030,2022-05-26_10h54.15.192,FishGame,2022.1.1,59.857013550375726,
,3,넌 활발해,1,Orange,B,5.666666666666667,5.6,ScrollUp,ScrollDown,Orange.png,3,Positive,Incongruent,,,,,0,0,0,0,,,,,,,,,,,,,,,,,,,,,0,2,2,2,,,,,,,,,,,,,,,,,,,,,,,,,,,,,,,,,,,,,,,,,,,,,,,,,,,,,,,,,,,,,,,,,,,,,,,,,2,1.3445958000374958,361.15153510007076,None,ScrollUp,정답입니다,361.15153510007076,None,361.15153510007076,None,361.15153510007076,None,361.15153510007076,None,362.3879278000677,None,362.3879278000677,362.89017630007584,,,,,,,,,,,,,,,,030,2022-05-26_10h54.15.192,FishGame,2022.1.1,59.857013550375726,
,4,넌 논리적이야,2,Green,A,5.666666666666666,4.633333333333334,ScrollDown,ScrollUp,Green.png,3,Positive,Congruent,,,,,0,0,0,0,,,,,,,,,,,,,,,,,,,,,0,3,3,3,,,,,,,,,,,,,,,,,,,,,,,,,,,,,,,,,,,,,,,,,,,,,,,,,,,,,,,,,,,,,,,,,,,,,,,,,1,1.109665900003165,363.5144388000481,None,ScrollDown,정답입니다,363.5144388000481,None,363.5144388000481,None,363.5144388000481,None,363.5144388000481,None,364.52093210001476,None,364.52093210001476,365.02100870001595,,,,,,,,,,,,,,,,030,2022-05-26_10h54.15.192,FishGame,2022.1.1,59.857013550375726,
,5,넌 과묵해,3,Green,A,3.875,4.4,ScrollDown,ScrollUp,Green.png,3,Neutral,Neutral,,,,,0,0,0,0,,,,,,,,,,,,,,,,,,,,,0,4,4,4,,,,,,,,,,,,,,,,,,,,,,,,,,,,,,,,,,,,,,,,,,,,,,,,,,,,,,,,,,,,,,,,,,,,,,,,,1,1.128280199947767,365.64184010005556,None,ScrollDown,정답입니다,365.64184010005556,None,365.64184010005556,None,365.64184010005556,None,365.64184010005556,None,366.67346499999985,None,366.67346499999985,367.17344869999215,,,,,,,,,,,,,,,,030,2022-05-26_10h54.15.192,FishGame,2022.1.1,59.857013550375726,
,6,나를 데려가줘,6,Orange,B,0,0,ScrollDown,ScrollUp,Orange.png,3,NonTarget,NonTarget,,,,,0,0,0,0,,,,,,,,,,,,,,,,,,,,,0,5,5,5,,,,,,,,,,,,,,,,,,,,,,,,,,,,,,,,,,,,,,,,,,,,,,,,,,,,,,,,,,,,,,,,,,,,,,,,,1,1.26043889997527,367.7916728000855,None,ScrollDown,정답입니다,367.7916728000855,None,367.7916728000855,None,367.7916728000855,None,367.7916728000855,None,368.95444900006987,None,368.95444900006987,369.45448300009593,,,,,,,,,,,,,,,,030,2022-05-26_10h54.15.192,FishGame,2022.1.1,59.857013550375726,
,7,넌 미숙해,4,Orange,B,3,3,ScrollUp,ScrollDown,Orange.png,3,Negative,Congruent,,,,,0,0,0,0,,,,,,,,,,,,,,,,,,,,,0,6,6,6,,,,,,,,,,,,,,,,,,,,,,,,,,,,,,,,,,,,,,,,,,,,,,,,,,,,,,,,,,,,,,,,,,,,,,,,,2,1.0761711000232026,370.0792996000964,None,ScrollUp,정답입니다,370.0792996000964,None,370.0792996000964,None,370.0792996000964,None,370.0792996000964,None,371.0544405000983,None,371.0544405000983,371.5543551000301,,,,,,,,,,,,,,,,030,2022-05-26_10h54.15.192,FishGame,2022.1.1,59.857013550375726,
,8,나를 보내줘,6,Green,A,0,0,ScrollUp,ScrollDown,Green.png,3,NonTarget,NonTarget,,,,,0,0,0,0,,,,,,,,,,,,,,,,,,,,,0,7,7,7,,,,,,,,,,,,,,,,,,,,,,,,,,,,,,,,,,,,,,,,,,,,,,,,,,,,,,,,,,,,,,,,,,,,,,,,,1.879629631837209,1.228119399980642,372.1761883000145,None,ScrollUp,정답입니다,372.1761883000145,None,372.1761883000145,None,372.1761883000145,None,372.1761883000145,None,373.30430890002754,None,373.30430890002754,373.8043458000757,,,,,,,,,,,,,,,,030,2022-05-26_10h54.15.192,FishGame,2022.1.1,59.857013550375726,
,9,넌 자신만만해,3,Orange,B,4.833333333333334,4.333333333333333,ScrollUp,ScrollDown,Orange.png,3,Neutral,Neutral,,,,,0,0,0,0,,,,,,,,,,,,,,,,,,,,,0,8,8,8,,,,,,,,,,,,,,,,,,,,,,,,,,,,,,,,,,,,,,,,,,,,,,,,,,,,,,,,,,,,,,,,,,,,,,,,,1.7561728407939274,1.2947231999132782,374.42872210009955,None,ScrollUp,정답입니다,374.42872210009955,None,374.42872210009955,None,374.42872210009955,None,374.42872210009955,None,375.62317590008024,None,375.62317590008024,376.12113300000783,,,,,,,,,,,,,,,,030,2022-05-26_10h54.15.192,FishGame,2022.1.1,59.857013550375726,
,10,넌 탐욕스러워,5,Green,A,2.25,2.1,ScrollDown,ScrollUp,Green.png,3,Negative,Incongruent,,,,,0,0,0,0,,,,,,,,,,,,,,,,,,,,,0,9,9,9,,,,,,,,,,,,,,,,,,,,,,,,,,,,,,,,,,,,,,,,,,,,,,,,,,,,,,,,,,,,,,,,,,,,,,,,,1.2175925970077515,1.0424507999559864,376.75295480003115,None,ScrollDown,정답입니다,376.75295480003115,None,376.75295480003115,None,376.75295480003115,None,376.75295480003115,None,377.68755190004595,None,377.68755190004595,378.18972880009096,,,,,,,,,,,,,,,,030,2022-05-26_10h54.15.192,FishGame,2022.1.1,59.857013550375726,
,11,넌 인기있어,2,Green,A,5.458333333333333,4.5,ScrollDown,ScrollUp,Green.png,3,Positive,Congruent,,,,,0,0,0,0,,,,,,,,,,,,,,,,,,,,,0,10,10,10,,,,,,,,,,,,,,,,,,,,,,,,,,,,,,,,,,,,,,,,,,,,,,,,,,,,,,,,,,,,,,,,,,,,,,,,,1.1481481442848842,1.3426709999330342,378.8090436999919,None,ScrollDown,정답입니다,378.8090436999919,None,378.8090436999919,None,378.8090436999919,None,378.8090436999919,None,380.05422990000807,None,380.05422990000807,380.55426730006,,,,,,,,,,,,,,,,030,2022-05-26_10h54.15.192,FishGame,2022.1.1,59.857013550375726,
,12,나를 데려가줘,6,Orange,B,0,0,ScrollDown,ScrollUp,Orange.png,3,NonTarget,NonTarget,,,,,0,0,0,0,,,,,,,,,,,,,,,,,,,,,0,11,11,11,,,,,,,,,,,,,,,,,,,,,,,,,,,,,,,,,,,,,,,,,,,,,,,,,,,,,,,,,,,,,,,,,,,,,,,,,1.1558641890684764,1.209143100073561,381.18030570005067,None,ScrollDown,정답입니다,381.18030570005067,None,381.18030570005067,None,381.18030570005067,None,381.18030570005067,None,382.2874700000975,None,382.2874700000975,382.7875358000165,,,,,,,,,,,,,,,,030,2022-05-26_10h54.15.192,FishGame,2022.1.1,59.857013550375726,
,13,넌 뛰어나,2,Orange,B,6.166666666666667,4,ScrollUp,ScrollDown,Orange.png,3,Positive,Incongruent,,,,,0,0,0,0,,,,,,,,,,,,,,,,,,,,,0,12,12,12,,,,,,,,,,,,,,,,,,,,,,,,,,,,,,,,,,,,,,,,,,,,,,,,,,,,,,,,,,,,,,,,,,,,,,,,,1.7500000099341075,0.9954669000580907,383.41386940004304,None,ScrollUp,정답입니다,383.41386940004304,None,383.41386940004304,None,383.41386940004304,None,383.41386940004304,None,384.3041437000502,None,384.3041437000502,384.8041605000617,,,,,,,,,,,,,,,,030,2022-05-26_10h54.15.192,FishGame,2022.1.1,59.857013550375726,
,14,넌 낙관적이야,1,Green,A,5.75,5.8,ScrollDown,ScrollUp,Green.png,3,Positive,Congruent,,,,,0,0,0,0,,,,,,,,,,,,,,,,,,,,,0,13,13,13,,,,,,,,,,,,,,,,,,,,,,,,,,,,,,,,,,,,,,,,,,,,,,,,,,,,,,,,,,,,,,,,,,,,,,,,,1.28703702489535,0.9757513999938965,385.42807600006927,None,ScrollDown,정답입니다,385.42807600006927,None,385.42807600006927,None,385.42807600006927,None,385.42807600006927,None,386.3061686999863,None,386.3061686999863,386.804091900005,,,,,,,,,,,,,,,,030,2022-05-26_10h54.15.192,FishGame,2022.1.1,59.857013550375726,
,15,넌 산만해,4,Orange,B,2.695652173913043,3.033333333333333,ScrollUp,ScrollDown,Orange.png,3,Negative,Congruent,,,,,0,0,0,0,,,,,,,,,,,,,,,,,,,,,0,14,14,14,,,,,,,,,,,,,,,,,,,,,,,,,,,,,,,,,,,,,,,,,,,,,,,,,,,,,,,,,,,,,,,,,,,,,,,,,1.7114197611808777,1.092885300051421,387.4267773000756,None,ScrollUp,정답입니다,387.4267773000756,None,387.4267773000756,None,387.4267773000756,None,387.4267773000756,None,388.4207679000683,None,388.4207679000683,388.92285750003066,,,,,,,,,,,,,,,,030,2022-05-26_10h54.15.192,FishGame,2022.1.1,59.857013550375726,
,16,나를 보내줘,6,Green,A,0,0,ScrollUp,ScrollDown,Green.png,3,NonTarget,NonTarget,,,,,0,0,0,0,,,,,,,,,,,,,,,,,,,,,0,15,15,15,,,,,,,,,,,,,,,,,,,,,,,,,,,,,,,,,,,,,,,,,,,,,,,,,,,,,,,,,,,,,,,,,,,,,,,,,1.807098776102066,1.1629142999881878,389.53845780005213,None,ScrollUp,정답입니다,389.53845780005213,None,389.53845780005213,None,389.53845780005213,None,389.53845780005213,None,390.6040248000063,None,390.6040248000063,391.10406560008414,,,,,,,,,,,,,,,,030,2022-05-26_10h54.15.192,FishGame,2022.1.1,59.857013550375726,
,17,넌 교활해,5,Orange,B,2.333333333333333,2.133333333333333,ScrollUp,ScrollDown,Orange.png,3,Negative,Congruent,,,,,0,0,0,0,,,,,,,,,,,,,,,,,,,,,0,16,16,16,,,,,,,,,,,,,,,,,,,,,,,,,,,,,,,,,,,,,,,,,,,,,,,,,,,,,,,,,,,,,,,,,,,,,,,,,1.3179012288649878,1.1423933000769466,391.73729930003174,None,ScrollDown,오답입니다,391.73729930003174,None,391.73729930003174,None,391.73729930003174,None,391.73729930003174,None,392.7703395000426,None,392.7703395000426,393.2704546999885,,,,,,,,,,,,,,,,030,2022-05-26_10h54.15.192,FishGame,2022.1.1,59.857013550375726,
,18,나를 보내줘,6,Green,A,0,0,ScrollUp,ScrollDown,Green.png,3,NonTarget,NonTarget,,,,,0,0,0,0,,,,,,,,,,,,,,,,,,,,,0,17,17,17,,,,,,,,,,,,,,,,,,,,,,,,,,,,,,,,,,,,,,,,,,,,,,,,,,,,,,,,,,,,,,,,,,,,,,,,,1.8333333383003871,1.1280634000431746,393.8872507000342,None,ScrollUp,정답입니다,393.8872507000342,None,393.8872507000342,None,393.8872507000342,None,393.8872507000342,None,394.9229536000639,None,394.9229536000639,395.42295140004717,,,,,,,,,,,,,,,,030,2022-05-26_10h54.15.192,FishGame,2022.1.1,59.857013550375726,
,19,넌 불친절해,5,Orange,B,2.208333333333333,2.033333333333333,ScrollUp,ScrollDown,Orange.png,3,Negative,Congruent,,,,,0,0,0,0,,,,,,,,,,,,,,,,,,,,,0,18,18,18,,,,,,,,,,,,,,,,,,,,,,,,,,,,,,,,,,,,,,,,,,,,,,,,,,,,,,,,,,,,,,,,,,,,,,,,,1.7608024577299755,1.041548499953933,396.0464955000207,None,ScrollUp,정답입니다,396.0464955000207,None,396.0464955000207,None,396.0464955000207,None,396.0464955000207,None,396.9799223000882,None,396.9799223000882,397.48723800003063,,,,,,,,,,,,,,,,030,2022-05-26_10h54.15.192,FishGame,2022.1.1,59.857013550375726,
,20,넌 지적이야,2,Orange,B,5.75,4.366666666666666,ScrollUp,ScrollDown,Orange.png,3,Positive,Incongruent,,,,,0,0,0,0,,,,,,,,,,,,,,,,,,,,,0,19,19,19,,,,,,,,,,,,,,,,,,,,,,,,,,,,,,,,,,,,,,,,,,,,,,,,,,,,,,,,,,,,,,,,,,,,,,,,,1.663580241302649,0.9954044999321923,398.10575400001835,None,ScrollUp,정답입니다,398.10575400001835,None,398.10575400001835,None,398.10575400001835,None,398.10575400001835,None,399.00383960001636,None,399.00383960001636,399.5060989999911,,,,,,,,,,,,,,,,030,2022-05-26_10h54.15.192,FishGame,2022.1.1,59.857013550375726,
,21,넌 우유부단해,4,Green,A,2.666666666666667,3.166666666666667,ScrollDown,ScrollUp,Green.png,3,Negative,Incongruent,,,,,0,0,0,0,,,,,,,,,,,,,,,,,,,,,0,20,20,20,,,,,,,,,,,,,,,,,,,,,,,,,,,,,,,,,,,,,,,,,,,,,,,,,,,,,,,,,,,,,,,,,,,,,,,,,1.28703702489535,1.0925504999468103,400.1346903000958,None,ScrollDown,정답입니다,400.1346903000958,None,400.1346903000958,None,400.1346903000958,None,400.1346903000958,None,401.1203964999877,None,401.1203964999877,401.62051800009795,,,,,,,,,,,,,,,,030,2022-05-26_10h54.15.192,FishGame,2022.1.1,59.857013550375726,
,22,나를 데려가줘,6,Orange,B,0,0,ScrollDown,ScrollUp,Orange.png,3,NonTarget,NonTarget,,,,,0,0,0,0,,,,,,,,,,,,,,,,,,,,,0,21,21,21,,,,,,,,,,,,,,,,,,,,,,,,,,,,,,,,,,,,,,,,,,,,,,,,,,,,,,,,,,,,,,,,,,,,,,,,,1.1882716069618862,1.1427304999670014,402.24362750002183,None,ScrollDown,정답입니다,402.24362750002183,None,402.24362750002183,None,402.24362750002183,None,402.24362750002183,None,403.2871153000742,None,403.2871153000742,403.789221300045,,,,,,,,,,,,,,,,030,2022-05-26_10h54.15.192,FishGame,2022.1.1,59.857013550375726,
,23,넌 성실해,1,Orange,B,6.041666666666666,5.7,ScrollUp,ScrollDown,Orange.png,3,Positive,Incongruent,,,,,0,0,0,0,,,,,,,,,,,,,,,,,,,,,0,22,22,22,,,,,,,,,,,,,,,,,,,,,,,,,,,,,,,,,,,,,,,,,,,,,,,,,,,,,,,,,,,,,,,,,,,,,,,,,1.8364197413126628,1.379137499956414,404.40511590009555,None,ScrollUp,정답입니다,404.40511590009555,None,404.40511590009555,None,404.40511590009555,None,404.40511590009555,None,405.6892659000587,None,405.6892659000587,406.2058690000558,,,,,,,,,,,,,,,,030,2022-05-26_10h54.15.192,FishGame,2022.1.1,59.857013550375726,
,24,넌 현실주의적이야,3,Green,A,4.625,4.4,ScrollDown,ScrollUp,Green.png,3,Neutral,Neutral,,,,,0,0,0,0,,,,,,,,,,,,,,,,,,,,,0,23,23,23,,,,,,,,,,,,,,,,,,,,,,,,,,,,,,,,,,,,,,,,,,,,,,,,,,,,,,,,,,,,,,,,,,,,,,,,,1.256172845760981,0.9922606999753043,406.8124323000666,None,ScrollDown,정답입니다,406.8124323000666,None,406.8124323000666,None,406.8124323000666,None,406.8124323000666,None,407.70338700001594,None,407.70338700001594,408.2034710000735,,,,,,,,,,,,,,,,030,2022-05-26_10h54.15.192,FishGame,2022.1.1,59.857013550375726,
,25,넌 진실돼,1,Green,A,6.625,5.566666666666666,ScrollDown,ScrollUp,Green.png,3,Positive,Congruent,,,,,0,0,0,0,,,,,,,,,,,,,,,,,,,,,0,24,24,24,,,,,,,,,,,,,,,,,,,,,,,,,,,,,,,,,,,,,,,,,,,,,,,,,,,,,,,,,,,,,,,,,,,,,,,,,1.2191358109315236,0.9953310999553651,408.82323360000737,None,ScrollDown,정답입니다,408.82323360000737,None,408.82323360000737,None,408.82323360000737,None,408.82323360000737,None,409.72258500009775,None,409.72258500009775,410.22254570003133,,,,,,,,,,,,,,,,030,2022-05-26_10h54.15.192,FishGame,2022.1.1,59.857013550375726,
,26,넌 천진난만해,3,Orange,B,4.958333333333334,4.833333333333333,ScrollUp,ScrollDown,Orange.png,3,Neutral,Neutral,,,,,0,0,0,0,,,,,,,,,,,,,,,,,,,,,0,25,25,25,,,,,,,,,,,,,,,,,,,,,,,,,,,,,,,,,,,,,,,,,,,,,,,,,,,,,,,,,,,,,,,,,,,,,,,,,1.8117283930381138,0.9960990999825299,410.8437226000242,None,ScrollUp,정답입니다,410.8437226000242,None,410.8437226000242,None,410.8437226000242,None,410.8437226000242,None,411.7370230000233,None,411.7370230000233,412.23921100003645,,,,,,,,,,,,,,,,030,2022-05-26_10h54.15.192,FishGame,2022.1.1,59.857013550375726,
,27,넌 교양없어,5,Green,A,2.416666666666667,2.2,ScrollDown,ScrollUp,Green.png,3,Negative,Incongruent,,,,,0,0,0,0,,,,,,,,,,,,,,,,,,,,,0,26,26,26,,,,,,,,,,,,,,,,,,,,,,,,,,,,,,,,,,,,,,,,,,,,,,,,,,,,,,,,,,,,,,,,,,,,,,,,,1.2160493830839794,1.544553800020367,412.86664380005095,None,ScrollDown,정답입니다,412.86664380005095,None,412.86664380005095,None,412.86664380005095,None,412.86664380005095,None,414.3035387999844,None,414.3035387999844,414.80356630007736,,,,,,,,,,,,,,,,030,2022-05-26_10h54.15.192,FishGame,2022.1.1,59.857013550375726,
,28,나를 보내줘,6,Green,A,0,0,ScrollUp,ScrollDown,Green.png,3,NonTarget,NonTarget,,,,,0,0,0,0,,,,,,,,,,,,,,,,,,,,,0,27,27,27,,,,,,,,,,,,,,,,,,,,,,,,,,,,,,,,,,,,,,,,,,,,,,,,,,,,,,,,,,,,,,,,,,,,,,,,,1.8101851791143417,1.0764859999762848,415.4217391000129,None,ScrollUp,정답입니다,415.4217391000129,None,415.4217391000129,None,415.4217391000129,None,415.4217391000129,None,416.40346030006185,None,416.40346030006185,416.9034765000688,,,,,,,,,,,,,,,,030,2022-05-26_10h54.15.192,FishGame,2022.1.1,59.857013550375726,
,29,넌 엉뚱스러워,3,Green,A,4.166666666666667,4.133333333333334,ScrollDown,ScrollUp,Green.png,3,Neutral,Neutral,,,,,0,0,0,0,,,,,,,,,,,,,,,,,,,,,0,28,28,28,,,,,,,,,,,,,,,,,,,,,,,,,,,,,,,,,,,,,,,,,,,,,,,,,,,,,,,,,,,,,,,,,,,,,,,,,1.2700617214043937,1.0258682999992743,417.541676199995,None,ScrollDown,정답입니다,417.541676199995,None,417.541676199995,None,417.541676199995,None,417.541676199995,None,418.4534578000894,None,418.4534578000894,418.9555465000449,,,,,,,,,,,,,,,,030,2022-05-26_10h54.15.192,FishGame,2022.1.1,59.857013550375726,
,30,넌 무지해,4,Orange,B,2.541666666666667,3.066666666666667,ScrollUp,ScrollDown,Orange.png,3,Negative,Congruent,,,,,0,0,0,0,,,,,,,,,,,,,,,,,,,,,0,29,29,29,,,,,,,,,,,,,,,,,,,,,,,,,,,,,,,,,,,,,,,,,,,,,,,,,,,,,,,,,,,,,,,,,,,,,,,,,1.6496913532416024,1.044886999996379,419.57976049999706,None,ScrollUp,정답입니다,419.57976049999706,None,419.57976049999706,None,419.57976049999706,None,419.57976049999706,None,420.51999510009773,None,420.51999510009773,421.0200896000024,,,,,,,,,,,,,,,,030,2022-05-26_10h54.15.192,FishGame,2022.1.1,59.857013550375726,
,31,넌 음울해,5,Orange,B,2.25,2.233333333333333,ScrollUp,ScrollDown,Orange.png,3,Negative,Congruent,,,,,0,0,0,0,,,,,,,,,,,,,,,,,,,,,0,30,30,30,,,,,,,,,,,,,,,,,,,,,,,,,,,,,,,,,,,,,,,,,,,,,,,,,,,,,,,,,,,,,,,,,,,,,,,,,1.9151234527428944,0.8944931000005454,421.64697070000693,None,ScrollUp,정답입니다,421.64697070000693,None,421.64697070000693,None,421.64697070000693,None,421.64697070000693,None,422.4366801000433,None,422.4366801000433,422.93894770008046,,,,,,,,,,,,,,,,030,2022-05-26_10h54.15.192,FishGame,2022.1.1,59.857013550375726,
,32,넌 냉소적이야,5,Green,A,2.916666666666667,2.4,ScrollDown,ScrollUp,Green.png,3,Negative,Incongruent,,,,,0,0,0,0,,,,,,,,,,,,,,,,,,,,,0,31,31,31,,,,,,,,,,,,,,,,,,,,,,,,,,,,,,,,,,,,,,,,,,,,,,,,,,,,,,,,,,,,,,,,,,,,,,,,,1.1790123482545216,1.0590941000264138,423.5570368000772,None,ScrollDown,정답입니다,423.5570368000772,None,423.5570368000772,None,423.5570368000772,None,423.5570368000772,None,424.51991820009425,None,424.51991820009425,425.0221957000904,,,,,,,,,,,,,,,,030,2022-05-26_10h54.15.192,FishGame,2022.1.1,59.857013550375726,
,33,나를 데려가줘,6,Orange,B,0,0,ScrollDown,ScrollUp,Orange.png,3,NonTarget,NonTarget,,,,,0,0,0,0,,,,,,,,,,,,,,,,,,,,,0,32,32,32,,,,,,,,,,,,,,,,,,,,,,,,,,,,,,,,,,,,,,,,,,,,,,,,,,,,,,,,,,,,,,,,,,,,,,,,,1.2469135870536168,1.0446442998945713,425.6417181000579,None,ScrollDown,정답입니다,425.6417181000579,None,425.6417181000579,None,425.6417181000579,None,425.6417181000579,None,426.5866270000115,None,426.5866270000115,427.088763799984,,,,,,,,,,,,,,,,030,2022-05-26_10h54.15.192,FishGame,2022.1.1,59.857013550375726,
,34,넌 쾌활해,1,Green,A,5.541666666666666,5.733333333333333,ScrollDown,ScrollUp,Green.png,3,Positive,Congruent,,,,,0,0,0,0,,,,,,,,,,,,,,,,,,,,,0,33,33,33,,,,,,,,,,,,,,,,,,,,,,,,,,,,,,,,,,,,,,,,,,,,,,,,,,,,,,,,,,,,,,,,,,,,,,,,,1.2932098805904388,0.9282180999871343,427.7097632000223,None,ScrollDown,정답입니다,427.7097632000223,None,427.7097632000223,None,427.7097632000223,None,427.7097632000223,None,428.53658449999057,None,428.53658449999057,429.03660470002797,,,,,,,,,,,,,,,,030,2022-05-26_10h54.15.192,FishGame,2022.1.1,59.857013550375726,
,35,나를 보내줘,6,Green,A,0,0,ScrollUp,ScrollDown,Green.png,3,NonTarget,NonTarget,,,,,0,0,0,0,,,,,,,,,,,,,,,,,,,,,0,34,34,34,,,,,,,,,,,,,,,,,,,,,,,,,,,,,,,,,,,,,,,,,,,,,,,,,,,,,,,,,,,,,,,,,,,,,,,,,1.6697530845801034,0.9756356999278069,429.6604958000826,None,ScrollUp,정답입니다,429.6604958000826,None,429.6604958000826,None,429.6604958000826,None,429.6604958000826,None,430.5362488999963,None,430.5362488999963,431.03629840002395,,,,,,,,,,,,,,,,030,2022-05-26_10h54.15.192,FishGame,2022.1.1,59.857013550375726,
,36,넌 명랑해,1,Orange,B,5.739130434782609,5.666666666666667,ScrollUp,ScrollDown,Orange.png,3,Positive,Incongruent,,,,,0,0,0,0,,,,,,,,,,,,,,,,,,,,,0,35,35,35,,,,,,,,,,,,,,,,,,,,,,,,,,,,,,,,,,,,,,,,,,,,,,,,,,,,,,,,,,,,,,,,,,,,,,,,,1.609567902982235,0.978316800086759,431.6572865000926,None,ScrollUp,정답입니다,431.6572865000926,None,431.6572865000926,None,431.6572865000926,None,431.6572865000926,None,432.5388436000794,None,432.5388436000794,433.03887839999516,,,,,,,,,,,,,,,,030,2022-05-26_10h54.15.192,FishGame,2022.1.1,59.857013550375726,
,37,넌 멍해,4,Green,A,2.833333333333333,3.4,ScrollDown,ScrollUp,Green.png,3,Negative,Incongruent,,,,,0,0,0,0,,,,,,,,,,,,,,,,,,,,,0,36,36,36,,,,,,,,,,,,,,,,,,,,,,,,,,,,,,,,,,,,,,,,,,,,,,,,,,,,,,,,,,,,,,,,,,,,,,,,,1.234567900498708,1.5942705000052229,433.6557090000715,None,ScrollDown,정답입니다,433.6557090000715,None,433.6557090000715,None,433.6557090000715,None,433.6557090000715,None,435.1528001000406,None,435.1528001000406,435.6528503000736,,,,,,,,,,,,,,,,030,2022-05-26_10h54.15.192,FishGame,2022.1.1,59.857013550375726,
,38,나를 데려가줘,6,Orange,B,0,0,ScrollDown,ScrollUp,Orange.png,3,NonTarget,NonTarget,,,,,0,0,0,0,,,,,,,,,,,,,,,,,,,,,0,37,37,37,,,,,,,,,,,,,,,,,,,,,,,,,,,,,,,,,,,,,,,,,,,,,,,,,,,,,,,,,,,,,,,,,,,,,,,,,1.297839509944121,0.9782746999990195,436.27336990006734,None,ScrollDown,정답입니다,436.27336990006734,None,436.27336990006734,None,436.27336990006734,None,436.27336990006734,None,437.1528193000704,None,437.1528193000704,437.6528772000456,,,,,,,,,,,,,,,,030,2022-05-26_10h54.15.192,FishGame,2022.1.1,59.857013550375726,
,39,넌 현명해,2,Green,A,6.541666666666666,4.533333333333333,ScrollDown,ScrollUp,Green.png,3,Positive,Congruent,,,,,0,0,0,0,,,,,,,,,,,,,,,,,,,,,0,38,38,38,,,,,,,,,,,,,,,,,,,,,,,,,,,,,,,,,,,,,,,,,,,,,,,,,,,,,,,,,,,,,,,,,,,,,,,,,1,1.027461800025776,438.2767771000508,None,ScrollDown,정답입니다,438.2767771000508,None,438.2767771000508,None,438.2767771000508,None,438.2767771000508,None,439.2053011000389,None,439.2053011000389,439.70540420000907,,,,,,,,,,,,,,,,030,2022-05-26_10h54.15.192,FishGame,2022.1.1,59.857013550375726,
,40,넌 수줍어,3,Orange,B,3.541666666666666,4.366666666666666,ScrollUp,ScrollDown,Orange.png,3,Neutral,Neutral,,,,,0,0,0,0,,,,,,,,,,,,,,,,,,,,,0,39,39,39,,,,,,,,,,,,,,,,,,,,,,,,,,,,,,,,,,,,,,,,,,,,,,,,,,,,,,,,,,,,,,,,,,,,,,,,,1.6157407462596893,1.4092433999758214,440.3410042000469,None,ScrollUp,정답입니다,440.3410042000469,None,440.3410042000469,None,440.3410042000469,None,440.3410042000469,None,441.6362738000462,None,441.6362738000462,442.1363400000846,,,,,,,,,,,,,,,,030,2022-05-26_10h54.15.192,FishGame,2022.1.1,59.857013550375726,
,41,나를 데려가줘,6,Orange,B,0,0,ScrollDown,ScrollUp,Orange.png,3,NonTarget,NonTarget,,,,,0,0,0,0,,,,,,,,,,,,,,,,,,,,,0,40,40,40,,,,,,,,,,,,,,,,,,,,,,,,,,,,,,,,,,,,,,,,,,,,,,,,,,,,,,,,,,,,,,,,,,,,,,,,,1.3271604999899864,1.095055100042373,442.76084050000645,None,ScrollDown,정답입니다,442.76084050000645,None,442.76084050000645,None,442.76084050000645,None,442.76084050000645,None,443.7550703000743,None,443.7550703000743,444.27185660006944,,,,,,,,,,,,,,,,030,2022-05-26_10h54.15.192,FishGame,2022.1.1,59.857013550375726,
,42,넌 성숙해,2,Orange,B,5.833333333333333,4.533333333333333,ScrollUp,ScrollDown,Orange.png,3,Positive,Incongruent,,,,,0,0,0,0,,,,,,,,,,,,,,,,,,,,,0,41,41,41,,,,,,,,,,,,,,,,,,,,,,,,,,,,,,,,,,,,,,,,,,,,,,,,,,,,,,,,,,,,,,,,,,,,,,,,,1.5833333345750966,1.2756405000109226,444.8735897000879,None,ScrollUp,정답입니다,444.8735897000879,None,444.8735897000879,None,444.8735897000879,None,444.8735897000879,None,446.05281660007313,None,446.05281660007313,446.5528578000376,,,,,,,,,,,,,,,,030,2022-05-26_10h54.15.192,FishGame,2022.1.1,59.857013550375726,
,1,넌 매력적이야,2,Orange,B,6.125,4.666666666666667,ScrollUp,ScrollDown,Orange.png,4,Positive,Incongruent,,,,,0,0,0,0,,,,,,,,,,,,,,,,,,,,,,,,,0,0,0,0,,,,,,,,,,,,,,,,,,,,,,,,,,,,478.968910500058,480.4691234000493,480.502559900051,481.45222040009685,481.5021505000768,482.4521882000845,482.4521882000845,None,,,,,,,,,,,,,,,,,,,,,,,,,,,,,,,,,,1.7932098756233852,1.2040343000553548,483.5477053000359,None,ScrollUp,정답입니다,483.5477053000359,None,483.5477053000359,None,483.5477053000359,None,483.5477053000359,None,484.6520762,None,484.6520762,485.1542826000368,447.0528333000839,None,447.0528333000839,None,0.29907408,-0.32037038,1,0,0,0.016011579893529415,None,477.0544264999917,None,,,030,2022-05-26_10h54.15.192,FishGame,2022.1.1,59.857013550375726,
,2,나를 보내줘,6,Green,A,0,0,ScrollUp,ScrollDown,Green.png,4,NonTarget,NonTarget,,,,,0,0,0,0,,,,,,,,,,,,,,,,,,,,,,,,,0,1,1,1,,,,,,,,,,,,,,,,,,,,,,,,,,,,,,,,,,,,,,,,,,,,,,,,,,,,,,,,,,,,,,,,,,,,,1.6311728358268738,1.1086262000026181,485.7791533001,None,ScrollUp,정답입니다,485.7791533001,None,485.7791533001,None,485.7791533001,None,485.7791533001,None,486.78529140003957,None,486.78529140003957,487.28536520001944,,,,,,,,,,,,,,,,030,2022-05-26_10h54.15.192,FishGame,2022.1.1,59.857013550375726,
,3,넌 조심스러워,3,Green,A,4.791666666666666,4.666666666666667,ScrollDown,ScrollUp,Green.png,4,Neutral,Neutral,,,,,0,0,0,0,,,,,,,,,,,,,,,,,,,,,,,,,0,2,2,2,,,,,,,,,,,,,,,,,,,,,,,,,,,,,,,,,,,,,,,,,,,,,,,,,,,,,,,,,,,,,,,,,,,,,1.0817901194095612,1.0424858999904245,487.9064601000864,None,ScrollDown,정답입니다,487.9064601000864,None,487.9064601000864,None,487.9064601000864,None,487.9064601000864,None,488.8519948000321,None,488.8519948000321,489.3543045000406,,,,,,,,,,,,,,,,030,2022-05-26_10h54.15.192,FishGame,2022.1.1,59.857013550375726,
,4,넌 철학적이야,3,Orange,B,4.5,4.266666666666667,ScrollUp,ScrollDown,Orange.png,4,Neutral,Neutral,,,,,0,0,0,0,,,,,,,,,,,,,,,,,,,,,,,,,0,3,3,3,,,,,,,,,,,,,,,,,,,,,,,,,,,,,,,,,,,,,,,,,,,,,,,,,,,,,,,,,,,,,,,,,,,,,1.7824074029922485,0.9215325000695884,489.97924950008746,None,ScrollUp,정답입니다,489.97924950008746,None,489.97924950008746,None,489.97924950008746,None,489.97924950008746,None,490.7964401000645,None,490.7964401000645,491.30174310004804,,,,,,,,,,,,,,,,030,2022-05-26_10h54.15.192,FishGame,2022.1.1,59.857013550375726,
,5,넌 쩨쩨해,5,Green,A,2.375,2.133333333333333,ScrollDown,ScrollUp,Green.png,4,Negative,Incongruent,,,,,0,0,0,0,,,,,,,,,,,,,,,,,,,,,,,,,0,4,4,4,,,,,,,,,,,,,,,,,,,,,,,,,,,,,,,,,,,,,,,,,,,,,,,,,,,,,,,,,,,,,,,,,,,,,1.1188271542390187,0.9452843000181019,491.92291830002796,None,ScrollDown,정답입니다,491.92291830002796,None,491.92291830002796,None,491.92291830002796,None,491.92291830002796,None,492.7683430000907,None,492.7683430000907,493.2685541000683,,,,,,,,,,,,,,,,030,2022-05-26_10h54.15.192,FishGame,2022.1.1,59.857013550375726,
,6,나를 데려가줘,6,Orange,B,0,0,ScrollDown,ScrollUp,Orange.png,4,NonTarget,NonTarget,,,,,0,0,0,0,,,,,,,,,,,,,,,,,,,,,,,,,0,5,5,5,,,,,,,,,,,,,,,,,,,,,,,,,,,,,,,,,,,,,,,,,,,,,,,,,,,,,,,,,,,,,,,,,,,,,1,1.1960088999476284,493.8873954000883,None,ScrollDown,정답입니다,493.8873954000883,None,493.8873954000883,None,493.8873954000883,None,493.8873954000883,None,494.98756780009717,None,494.98756780009717,495.4906667000614,,,,,,,,,,,,,,,,030,2022-05-26_10h54.15.192,FishGame,2022.1.1,59.857013550375726,
,7,넌 고집불통이야,5,Orange,B,2.875,2,ScrollUp,ScrollDown,Orange.png,4,Negative,Congruent,,,,,0,0,0,0,,,,,,,,,,,,,,,,,,,,,,,,,0,6,6,6,,,,,,,,,,,,,,,,,,,,,,,,,,,,,,,,,,,,,,,,,,,,,,,,,,,,,,,,,,,,,,,,,,,,,1.9444444676240284,1.2424108000705019,496.1143082000781,None,ScrollUp,정답입니다,496.1143082000781,None,496.1143082000781,None,496.1143082000781,None,496.1143082000781,None,497.25182080001105,None,497.25182080001105,497.75182830006815,,,,,,,,,,,,,,,,030,2022-05-26_10h54.15.192,FishGame,2022.1.1,59.857013550375726,
,8,넌 무심해,4,Green,A,2.875,3.2,ScrollDown,ScrollUp,Green.png,4,Negative,Incongruent,,,,,0,0,0,0,,,,,,,,,,,,,,,,,,,,,,,,,0,7,7,7,,,,,,,,,,,,,,,,,,,,,,,,,,,,,,,,,,,,,,,,,,,,,,,,,,,,,,,,,,,,,,,,,,,,,1,1.2558190000709146,498.37972630001605,None,ScrollDown,정답입니다,498.37972630001605,None,498.37972630001605,None,498.37972630001605,None,498.37972630001605,None,499.53481800004374,None,499.53481800004374,500.03489170002285,,,,,,,,,,,,,,,,030,2022-05-26_10h54.15.192,FishGame,2022.1.1,59.857013550375726,
,9,넌 정겨워,1,Green,A,5.791666666666667,5.666666666666667,ScrollDown,ScrollUp,Green.png,4,Positive,Congruent,,,,,0,0,0,0,,,,,,,,,,,,,,,,,,,,,,,,,0,8,8,8,,,,,,,,,,,,,,,,,,,,,,,,,,,,,,,,,,,,,,,,,,,,,,,,,,,,,,,,,,,,,,,,,,,,,1,0.9802842999342829,500.6567266000202,None,ScrollDown,정답입니다,500.6567266000202,None,500.6567266000202,None,500.6567266000202,None,500.6567266000202,None,501.5373655000003,None,501.5373655000003,502.0374784000451,,,,,,,,,,,,,,,,030,2022-05-26_10h54.15.192,FishGame,2022.1.1,59.857013550375726,
,10,나를 데려가줘,6,Orange,B,0,0,ScrollDown,ScrollUp,Orange.png,4,NonTarget,NonTarget,,,,,0,0,0,0,,,,,,,,,,,,,,,,,,,,,,,,,0,9,9,9,,,,,,,,,,,,,,,,,,,,,,,,,,,,,,,,,,,,,,,,,,,,,,,,,,,,,,,,,,,,,,,,,,,,,1,1.3937680999515578,502.65600050007924,None,ScrollDown,정답입니다,502.65600050007924,None,502.65600050007924,None,502.65600050007924,None,502.65600050007924,None,503.95397140004206,None,503.95397140004206,504.45448630000465,,,,,,,,,,,,,,,,030,2022-05-26_10h54.15.192,FishGame,2022.1.1,59.857013550375726,
,11,넌 체제순응적이야,4,Orange,B,3,3.6,ScrollUp,ScrollDown,Orange.png,4,Negative,Congruent,,,,,0,0,0,0,,,,,,,,,,,,,,,,,,,,,,,,,0,10,10,10,,,,,,,,,,,,,,,,,,,,,,,,,,,,,,,,,,,,,,,,,,,,,,,,,,,,,,,,,,,,,,,,,,,,,1.699074074625969,0.9777336999541149,505.0781094999984,None,ScrollUp,정답입니다,505.0781094999984,None,505.0781094999984,None,505.0781094999984,None,505.0781094999984,None,505.95164240000304,None,505.95164240000304,506.4537452000659,,,,,,,,,,,,,,,,030,2022-05-26_10h54.15.192,FishGame,2022.1.1,59.857013550375726,
,12,나를 보내줘,6,Green,A,0,0,ScrollUp,ScrollDown,Green.png,4,NonTarget,NonTarget,,,,,0,0,0,0,,,,,,,,,,,,,,,,,,,,,,,,,0,11,11,11,,,,,,,,,,,,,,,,,,,,,,,,,,,,,,,,,,,,,,,,,,,,,,,,,,,,,,,,,,,,,,,,,,,,,1.6697530845801034,0.9758410999784246,507.07401680003386,None,ScrollUp,정답입니다,507.07401680003386,None,507.07401680003386,None,507.07401680003386,None,507.07401680003386,None,507.9515953999944,None,507.9515953999944,508.45161160000134,,,,,,,,,,,,,,,,030,2022-05-26_10h54.15.192,FishGame,2022.1.1,59.857013550375726,
,13,넌 박식해,2,Green,A,5.625,3.933333333333333,ScrollDown,ScrollUp,Green.png,4,Positive,Congruent,,,,,0,0,0,0,,,,,,,,,,,,,,,,,,,,,,,,,0,12,12,12,,,,,,,,,,,,,,,,,,,,,,,,,,,,,,,,,,,,,,,,,,,,,,,,,,,,,,,,,,,,,,,,,,,,,1,1.0783689999952912,509.07894889998715,None,ScrollDown,정답입니다,509.07894889998715,None,509.07894889998715,None,509.07894889998715,None,509.07894889998715,None,510.05155040009413,None,510.05155040009413,510.55385610007215,,,,,,,,,,,,,,,,030,2022-05-26_10h54.15.192,FishGame,2022.1.1,59.857013550375726,
,14,나를 보내줘,6,Green,A,0,0,ScrollUp,ScrollDown,Green.png,4,NonTarget,NonTarget,,,,,0,0,0,0,,,,,,,,,,,,,,,,,,,,,,,,,0,13,13,13,,,,,,,,,,,,,,,,,,,,,,,,,,,,,,,,,,,,,,,,,,,,,,,,,,,,,,,,,,,,,,,,,,,,,1.7932098756233852,1.2759038999211043,511.1717073000036,None,ScrollUp,정답입니다,511.1717073000036,None,511.1717073000036,None,511.1717073000036,None,511.1717073000036,None,512.3537016999908,None,512.3537016999908,512.8685015999945,,,,,,,,,,,,,,,,030,2022-05-26_10h54.15.192,FishGame,2022.1.1,59.857013550375726,
,15,넌 침착해,1,Orange,B,5.458333333333333,5.566666666666666,ScrollUp,ScrollDown,Orange.png,4,Positive,Incongruent,,,,,0,0,0,0,,,,,,,,,,,,,,,,,,,,,,,,,0,14,14,14,,,,,,,,,,,,,,,,,,,,,,,,,,,,,,,,,,,,,,,,,,,,,,,,,,,,,,,,,,,,,,,,,,,,,1.5138888896132507,1.3102134999353439,513.4750148000894,None,NoResponse,무응답입니다,513.4750148000894,None,513.4750148000894,None,513.4750148000894,None,513.4750148000894,None,514.6849145999877,None,514.6849145999877,515.1869973000139,,,,,,,,,,,,,,,,030,2022-05-26_10h54.15.192,FishGame,2022.1.1,59.857013550375726,
,16,나를 데려가줘,6,Orange,B,0,0,ScrollDown,ScrollUp,Orange.png,4,NonTarget,NonTarget,,,,,0,0,0,0,,,,,,,,,,,,,,,,,,,,,,,,,0,15,15,15,,,,,,,,,,,,,,,,,,,,,,,,,,,,,,,,,,,,,,,,,,,,,,,,,,,,,,,,,,,,,,,,,,,,,1.1064814925193787,1.1091942000202835,515.8155547000933,None,ScrollDown,정답입니다,515.8155547000933,None,515.8155547000933,None,515.8155547000933,None,515.8155547000933,None,516.8178379000165,None,516.8178379000165,517.3179052000633,,,,,,,,,,,,,,,,030,2022-05-26_10h54.15.192,FishGame,2022.1.1,59.857013550375726,
,17,넌 행복해,1,Green,A,6.416666666666666,6.166666666666667,ScrollDown,ScrollUp,Green.png,4,Positive,Congruent,,,,,0,0,0,0,,,,,,,,,,,,,,,,,,,,,,,,,0,16,16,16,,,,,,,,,,,,,,,,,,,,,,,,,,,,,,,,,,,,,,,,,,,,,,,,,,,,,,,,,,,,,,,,,,,,,1.0246913532416027,1.1949500000337139,517.9395317999879,None,ScrollDown,정답입니다,517.9395317999879,None,517.9395317999879,None,517.9395317999879,None,517.9395317999879,None,519.0370909000048,None,519.0370909000048,519.5370406000875,,,,,,,,,,,,,,,,030,2022-05-26_10h54.15.192,FishGame,2022.1.1,59.857013550375726,
,18,넌 겸손해,2,Orange,B,5.791666666666667,4.766666666666667,ScrollUp,ScrollDown,Orange.png,4,Positive,Incongruent,,,,,0,0,0,0,,,,,,,,,,,,,,,,,,,,,,,,,0,17,17,17,,,,,,,,,,,,,,,,,,,,,,,,,,,,,,,,,,,,,,,,,,,,,,,,,,,,,,,,,,,,,,,,,,,,,1.8811728457609813,1.0103374999016523,520.1601773999864,None,ScrollUp,정답입니다,520.1601773999864,None,520.1601773999864,None,520.1601773999864,None,520.1601773999864,None,521.0680119000608,None,521.0680119000608,521.568044600077,,,,,,,,,,,,,,,,030,2022-05-26_10h54.15.192,FishGame,2022.1.1,59.857013550375726,
,19,나를 보내줘,6,Green,A,0,0,ScrollUp,ScrollDown,Green.png,4,NonTarget,NonTarget,,,,,0,0,0,0,,,,,,,,,,,,,,,,,,,,,,,,,0,18,18,18,,,,,,,,,,,,,,,,,,,,,,,,,,,,,,,,,,,,,,,,,,,,,,,,,,,,,,,,,,,,,,,,,,,,,1.8132716069618862,1.061370400013402,522.1847670000279,None,ScrollUp,정답입니다,522.1847670000279,None,522.1847670000279,None,522.1847670000279,None,522.1847670000279,None,523.1513171000406,None,523.1513171000406,523.651218199986,,,,,,,,,,,,,,,,030,2022-05-26_10h54.15.192,FishGame,2022.1.1,59.857013550375726,
,20,넌 의심없어,3,Green,A,4.166666666666667,4.6,ScrollDown,ScrollUp,Green.png,4,Neutral,Neutral,,,,,0,0,0,0,,,,,,,,,,,,,,,,,,,,,,,,,0,19,19,19,,,,,,,,,,,,,,,,,,,,,,,,,,,,,,,,,,,,,,,,,,,,,,,,,,,,,,,,,,,,,,,,,,,,,1,1.2283684000140056,524.2676818000618,None,ScrollDown,정답입니다,524.2676818000618,None,524.2676818000618,None,524.2676818000618,None,524.2676818000618,None,525.401253900025,None,525.401253900025,525.903457700042,,,,,,,,,,,,,,,,030,2022-05-26_10h54.15.192,FishGame,2022.1.1,59.857013550375726,
,21,넌 시시해,4,Green,A,2.666666666666667,2.966666666666667,ScrollDown,ScrollUp,Green.png,4,Negative,Incongruent,,,,,0,0,0,0,,,,,,,,,,,,,,,,,,,,,,,,,0,20,20,20,,,,,,,,,,,,,,,,,,,,,,,,,,,,,,,,,,,,,,,,,,,,,,,,,,,,,,,,,,,,,,,,,,,,,1,1.0602667999919504,526.5285582999932,None,ScrollDown,정답입니다,526.5285582999932,None,526.5285582999932,None,526.5285582999932,None,526.5285582999932,None,527.4844835000113,None,527.4844835000113,527.9845423999941,,,,,,,,,,,,,,,,030,2022-05-26_10h54.15.192,FishGame,2022.1.1,59.857013550375726,
,22,나를 데려가줘,6,Orange,B,0,0,ScrollDown,ScrollUp,Orange.png,4,NonTarget,NonTarget,,,,,0,0,0,0,,,,,,,,,,,,,,,,,,,,,,,,,0,21,21,21,,,,,,,,,,,,,,,,,,,,,,,,,,,,,,,,,,,,,,,,,,,,,,,,,,,,,,,,,,,,,,,,,,,,,1.0709876716136932,1.1446290999883786,528.6045200000517,None,ScrollDown,정답입니다,528.6045200000517,None,528.6045200000517,None,528.6045200000517,None,528.6045200000517,None,529.6511740999995,None,529.6511740999995,530.1512107000453,,,,,,,,,,,,,,,,030,2022-05-26_10h54.15.192,FishGame,2022.1.1,59.857013550375726,
,23,넌 무정해,5,Green,A,2.5,2.2,ScrollDown,ScrollUp,Green.png,4,Negative,Incongruent,,,,,0,0,0,0,,,,,,,,,,,,,,,,,,,,,,,,,0,22,22,22,,,,,,,,,,,,,,,,,,,,,,,,,,,,,,,,,,,,,,,,,,,,,,,,,,,,,,,,,,,,,,,,,,,,,1.1481481442848842,0.9259948000544682,530.7779815000249,None,ScrollDown,정답입니다,530.7779815000249,None,530.7779815000249,None,530.7779815000249,None,530.7779815000249,None,531.6010834000772,None,531.6010834000772,532.1011313000927,,,,,,,,,,,,,,,,030,2022-05-26_10h54.15.192,FishGame,2022.1.1,59.857013550375726,
,24,넌 긍정적이야,1,Orange,B,6.041666666666667,6.066666666666666,ScrollUp,ScrollDown,Orange.png,4,Positive,Incongruent,,,,,0,0,0,0,,,,,,,,,,,,,,,,,,,,,,,,,0,23,23,23,,,,,,,,,,,,,,,,,,,,,,,,,,,,,,,,,,,,,,,,,,,,,,,,,,,,,,,,,,,,,,,,,,,,,1.9413580397764842,1.2427919000620022,532.7289946000092,None,ScrollUp,정답입니다,532.7289946000092,None,532.7289946000092,None,532.7289946000092,None,532.7289946000092,None,533.8677529999986,None,533.8677529999986,534.3677874000277,,,,,,,,,,,,,,,,030,2022-05-26_10h54.15.192,FishGame,2022.1.1,59.857013550375726,
,25,나를 보내줘,6,Green,A,0,0,ScrollUp,ScrollDown,Green.png,4,NonTarget,NonTarget,,,,,0,0,0,0,,,,,,,,,,,,,,,,,,,,,,,,,0,24,24,24,,,,,,,,,,,,,,,,,,,,,,,,,,,,,,,,,,,,,,,,,,,,,,,,,,,,,,,,,,,,,,,,,,,,,2,1.1280848000897095,534.9879989000037,None,ScrollUp,정답입니다,534.9879989000037,None,534.9879989000037,None,534.9879989000037,None,534.9879989000037,None,536.0176425999962,None,536.0176425999962,536.5177215000149,,,,,,,,,,,,,,,,030,2022-05-26_10h54.15.192,FishGame,2022.1.1,59.857013550375726,
,26,넌 시기심이 많아,5,Orange,B,2.458333333333333,2.233333333333333,ScrollUp,ScrollDown,Orange.png,4,Negative,Congruent,,,,,0,0,0,0,,,,,,,,,,,,,,,,,,,,,,,,,0,25,25,25,,,,,,,,,,,,,,,,,,,,,,,,,,,,,,,,,,,,,,,,,,,,,,,,,,,,,,,,,,,,,,,,,,,,,1.90586419403553,1.3261158000677824,537.1577109000646,None,ScrollUp,정답입니다,537.1577109000646,None,537.1577109000646,None,537.1577109000646,None,537.1577109000646,None,538.3698169999989,None,538.3698169999989,538.8699141000398,,,,,,,,,,,,,,,,030,2022-05-26_10h54.15.192,FishGame,2022.1.1,59.857013550375726,
,27,넌 탁월해,2,Green,A,5.708333333333334,4.5,ScrollDown,ScrollUp,Green.png,4,Positive,Congruent,,,,,0,0,0,0,,,,,,,,,,,,,,,,,,,,,,,,,0,26,26,26,,,,,,,,,,,,,,,,,,,,,,,,,,,,,,,,,,,,,,,,,,,,,,,,,,,,,,,,,,,,,,,,,,,,,1.0648148159186046,1.1258662999607623,539.4924045000225,None,ScrollDown,정답입니다,539.4924045000225,None,539.4924045000225,None,539.4924045000225,None,539.4924045000225,None,540.5175480000908,None,540.5175480000908,541.0176325000357,,,,,,,,,,,,,,,,030,2022-05-26_10h54.15.192,FishGame,2022.1.1,59.857013550375726,
,28,나를 데려가줘,6,Orange,B,0,0,ScrollDown,ScrollUp,Orange.png,4,NonTarget,NonTarget,,,,,0,0,0,0,,,,,,,,,,,,,,,,,,,,,,,,,0,27,27,27,,,,,,,,,,,,,,,,,,,,,,,,,,,,,,,,,,,,,,,,,,,,,,,,,,,,,,,,,,,,,,,,,,,,,1,1.3281244999961928,541.6428984000813,None,ScrollDown,정답입니다,541.6428984000813,None,541.6428984000813,None,541.6428984000813,None,541.6428984000813,None,542.8675535999937,None,542.8675535999937,543.36989490001,,,,,,,,,,,,,,,,030,2022-05-26_10h54.15.192,FishGame,2022.1.1,59.857013550375726,
,29,넌 조용해,3,Orange,B,4.333333333333333,4.166666666666667,ScrollUp,ScrollDown,Orange.png,4,Neutral,Neutral,,,,,0,0,0,0,,,,,,,,,,,,,,,,,,,,,,,,,0,28,28,28,,,,,,,,,,,,,,,,,,,,,,,,,,,,,,,,,,,,,,,,,,,,,,,,,,,,,,,,,,,,,,,,,,,,,1.9413580397764842,1.2447184000629932,543.9995378000895,None,ScrollUp,정답입니다,543.9995378000895,None,543.9995378000895,None,543.9995378000895,None,543.9995378000895,None,545.1341184000485,None,545.1341184000485,545.6341703000944,,,,,,,,,,,,,,,,030,2022-05-26_10h54.15.192,FishGame,2022.1.1,59.857013550375726,
,30,넌 다정해,1,Green,A,5.833333333333334,5.7,ScrollDown,ScrollUp,Green.png,4,Positive,Congruent,,,,,0,0,0,0,,,,,,,,,,,,,,,,,,,,,,,,,0,29,29,29,,,,,,,,,,,,,,,,,,,,,,,,,,,,,,,,,,,,,,,,,,,,,,,,,,,,,,,,,,,,,,,,,,,,,1.0339506367842357,0.9094365000491962,546.2710939000826,None,ScrollDown,정답입니다,546.2710939000826,None,546.2710939000826,None,546.2710939000826,None,546.2710939000826,None,547.0696255000075,None,547.0696255000075,547.5674550000113,,,,,,,,,,,,,,,,030,2022-05-26_10h54.15.192,FishGame,2022.1.1,59.857013550375726,
,31,넌 능력있어,2,Orange,B,6.166666666666666,4.6,ScrollUp,ScrollDown,Orange.png,4,Positive,Incongruent,,,,,0,0,0,0,,,,,,,,,,,,,,,,,,,,,,,,,0,30,30,30,,,,,,,,,,,,,,,,,,,,,,,,,,,,,,,,,,,,,,,,,,,,,,,,,,,,,,,,,,,,,,,,,,,,,1.8966049353281658,1.3594390000216663,548.2071437000996,None,ScrollUp,정답입니다,548.2071437000996,None,548.2071437000996,None,548.2071437000996,None,548.2071437000996,None,549.4671349000419,None,549.4671349000419,549.9683304000646,,,,,,,,,,,,,,,,030,2022-05-26_10h54.15.192,FishGame,2022.1.1,59.857013550375726,
,32,넌 불쾌해,5,Green,A,2.125,1.933333333333333,ScrollDown,ScrollUp,Green.png,4,Negative,Incongruent,,,,,0,0,0,0,,,,,,,,,,,,,,,,,,,,,,,,,0,31,31,31,,,,,,,,,,,,,,,,,,,,,,,,,,,,,,,,,,,,,,,,,,,,,,,,,,,,,,,,,,,,,,,,,,,,,1.0663580298423767,0.978225399972871,550.5857578000287,None,ScrollDown,정답입니다,550.5857578000287,None,550.5857578000287,None,550.5857578000287,None,550.5857578000287,None,551.4671451000031,None,551.4671451000031,551.9696714000311,,,,,,,,,,,,,,,,030,2022-05-26_10h54.15.192,FishGame,2022.1.1,59.857013550375726,
,33,나를 데려가줘,6,Orange,B,0,0,ScrollDown,ScrollUp,Orange.png,4,NonTarget,NonTarget,,,,,0,0,0,0,,,,,,,,,,,,,,,,,,,,,,,,,0,32,32,32,,,,,,,,,,,,,,,,,,,,,,,,,,,,,,,,,,,,,,,,,,,,,,,,,,,,,,,,,,,,,,,,,,,,,1.0864197611808777,1.209516300004907,552.5894097000128,None,ScrollDown,정답입니다,552.5894097000128,None,552.5894097000128,None,552.5894097000128,None,552.5894097000128,None,553.7029446000233,None,553.7029446000233,554.2060603999998,,,,,,,,,,,,,,,,030,2022-05-26_10h54.15.192,FishGame,2022.1.1,59.857013550375726,
,34,넌 유순해,3,Green,A,4.458333333333333,5,ScrollDown,ScrollUp,Green.png,4,Neutral,Neutral,,,,,0,0,0,0,,,,,,,,,,,,,,,,,,,,,,,,,0,33,33,33,,,,,,,,,,,,,,,,,,,,,,,,,,,,,,,,,,,,,,,,,,,,,,,,,,,,,,,,,,,,,,,,,,,,,1,1.0930844999384135,554.8242570000002,None,ScrollDown,정답입니다,554.8242570000002,None,554.8242570000002,None,554.8242570000002,None,554.8242570000002,None,555.8193880000617,None,555.8193880000617,556.3175913000014,,,,,,,,,,,,,,,,030,2022-05-26_10h54.15.192,FishGame,2022.1.1,59.857013550375726,
,35,넌 근심스러워,4,Orange,B,2.708333333333333,3.133333333333333,ScrollUp,ScrollDown,Orange.png,4,Negative,Congruent,,,,,0,0,0,0,,,,,,,,,,,,,,,,,,,,,,,,,0,34,34,34,,,,,,,,,,,,,,,,,,,,,,,,,,,,,,,,,,,,,,,,,,,,,,,,,,,,,,,,,,,,,,,,,,,,,2,1.1094264999264851,556.9456655000104,None,ScrollUp,정답입니다,556.9456655000104,None,556.9456655000104,None,556.9456655000104,None,556.9456655000104,None,557.9502890000585,None,557.9502890000585,558.4503927000333,,,,,,,,,,,,,,,,030,2022-05-26_10h54.15.192,FishGame,2022.1.1,59.857013550375726,
,36,넌 세련되었어,2,Green,A,5.5,4.6,ScrollDown,ScrollUp,Green.png,4,Positive,Congruent,,,,,0,0,0,0,,,,,,,,,,,,,,,,,,,,,,,,,0,35,35,35,,,,,,,,,,,,,,,,,,,,,,,,,,,,,,,,,,,,,,,,,,,,,,,,,,,,,,,,,,,,,,,,,,,,,1,1.0455041999230161,559.0797288999893,None,ScrollDown,정답입니다,559.0797288999893,None,559.0797288999893,None,559.0797288999893,None,559.0797288999893,None,560.0195705000078,None,560.0195705000078,560.5362295000814,,,,,,,,,,,,,,,,030,2022-05-26_10h54.15.192,FishGame,2022.1.1,59.857013550375726,
,37,나를 보내줘,6,Green,A,0,0,ScrollUp,ScrollDown,Green.png,4,NonTarget,NonTarget,,,,,0,0,0,0,,,,,,,,,,,,,,,,,,,,,,,,,0,36,36,36,,,,,,,,,,,,,,,,,,,,,,,,,,,,,,,,,,,,,,,,,,,,,,,,,,,,,,,,,,,,,,,,,,,,,1.8348765522241592,1.3257991999853402,561.1532859000145,None,ScrollUp,정답입니다,561.1532859000145,None,561.1532859000145,None,561.1532859000145,None,561.1532859000145,None,562.3837977000512,None,562.3837977000512,562.8838138000574,,,,,,,,,,,,,,,,030,2022-05-26_10h54.15.192,FishGame,2022.1.1,59.857013550375726,
,38,넌 확고해,3,Orange,B,4.708333333333334,4.566666666666666,ScrollUp,ScrollDown,Orange.png,4,Neutral,Neutral,,,,,0,0,0,0,,,,,,,,,,,,,,,,,,,,,,,,,0,37,37,37,,,,,,,,,,,,,,,,,,,,,,,,,,,,,,,,,,,,,,,,,,,,,,,,,,,,,,,,,,,,,,,,,,,,,1.8132716069618862,1.428342800005339,563.5079199000029,None,ScrollUp,정답입니다,563.5079199000029,None,563.5079199000029,None,563.5079199000029,None,563.5079199000029,None,564.8337812999962,None,564.8337812999962,565.3360301000066,,,,,,,,,,,,,,,,030,2022-05-26_10h54.15.192,FishGame,2022.1.1,59.857013550375726,
,39,넌 이해심이 많아,1,Orange,B,6.041666666666668,5.533333333333333,ScrollUp,ScrollDown,Orange.png,4,Positive,Incongruent,,,,,0,0,0,0,,,,,,,,,,,,,,,,,,,,,,,,,0,38,38,38,,,,,,,,,,,,,,,,,,,,,,,,,,,,,,,,,,,,,,,,,,,,,,,,,,,,,,,,,,,,,,,,,,,,,1.8719135870536168,1.4800466999877244,565.9531682000961,None,ScrollUp,정답입니다,565.9531682000961,None,565.9531682000961,None,565.9531682000961,None,565.9531682000961,None,567.333675700007,None,567.333675700007,567.8336391000776,,,,,,,,,,,,,,,,030,2022-05-26_10h54.15.192,FishGame,2022.1.1,59.857013550375726,
,40,나를 보내줘,6,Green,A,0,0,ScrollUp,ScrollDown,Green.png,4,NonTarget,NonTarget,,,,,0,0,0,0,,,,,,,,,,,,,,,,,,,,,,,,,0,39,39,39,,,,,,,,,,,,,,,,,,,,,,,,,,,,,,,,,,,,,,,,,,,,,,,,,,,,,,,,,,,,,,,,,,,,,1.8225308656692505,1.0258893999271095,568.4550401000306,None,ScrollUp,정답입니다,568.4550401000306,None,568.4550401000306,None,568.4550401000306,None,568.4550401000306,None,569.3836731000338,None,569.3836731000338,569.8837189000333,,,,,,,,,,,,,,,,030,2022-05-26_10h54.15.192,FishGame,2022.1.1,59.857013550375726,
,41,넌 거칠어,4,Green,A,2.625,3.033333333333333,ScrollDown,ScrollUp,Green.png,4,Negative,Incongruent,,,,,0,0,0,0,,,,,,,,,,,,,,,,,,,,,,,,,0,40,40,40,,,,,,,,,,,,,,,,,,,,,,,,,,,,,,,,,,,,,,,,,,,,,,,,,,,,,,,,,,,,,,,,,,,,,1.0416666567325592,1.0925593000138178,570.5096298999852,None,ScrollDown,정답입니다,570.5096298999852,None,570.5096298999852,None,570.5096298999852,None,570.5096298999852,None,571.5002377000637,None,571.5002377000637,572.0024490000214,,,,,,,,,,,,,,,,030,2022-05-26_10h54.15.192,FishGame,2022.1.1,59.857013550375726,
,42,넌 변덕맞아,5,Orange,B,2.75,2.166666666666667,ScrollUp,ScrollDown,Orange.png,4,Negative,Congruent,,,,,0,0,0,0,,,,,,,,,,,,,,,,,,,,,,,,,0,41,41,41,,,,,,,,,,,,,,,,,,,,,,,,,,,,,,,,,,,,,,,,,,,,,,,,,,,,,,,,,,,,,,,,,,,,,1.6728395000100136,1.2933941999217495,572.6413241000846,None,ScrollUp,정답입니다,572.6413241000846,None,572.6413241000846,None,572.6413241000846,None,572.6413241000846,None,573.8169006000971,None,573.8169006000971,574.316970200045,,,,,,,,,,,,,,,,030,2022-05-26_10h54.15.192,FishGame,2022.1.1,59.857013550375726,
,43,나를 데려가줘,6,Orange,B,0,0,ScrollDown,ScrollUp,Orange.png,4,NonTarget,NonTarget,,,,,0,0,0,0,,,,,,,,,,,,,,,,,,,,,,,,,0,42,42,42,,,,,,,,,,,,,,,,,,,,,,,,,,,,,,,,,,,,,,,,,,,,,,,,,,,,,,,,,,,,,,,,,,,,,1.0154321193695068,1.3591593999881297,574.9395918000955,None,ScrollDown,정답입니다,574.9395918000955,None,574.9395918000955,None,574.9395918000955,None,574.9395918000955,None,576.200230000075,None,576.200230000075,576.7001391000813,,,,,,,,,,,,,,,,030,2022-05-26_10h54.15.192,FishGame,2022.1.1,59.857013550375726,
,44,넌 외로워,4,Orange,B,2.833333333333333,3.3,ScrollUp,ScrollDown,Orange.png,4,Negative,Congruent,,,,,0,0,0,0,,,,,,,,,,,,,,,,,,,,,,,,,0,43,43,43,,,,,,,,,,,,,,,,,,,,,,,,,,,,,,,,,,,,,,,,,,,,,,,,,,,,,,,,,,,,,,,,,,,,,1.7623456716537476,1.192653700010851,577.3251845000777,None,ScrollUp,정답입니다,577.3251845000777,None,577.3251845000777,None,577.3251845000777,None,577.3251845000777,None,578.4168477000203,None,578.4168477000203,578.9167083000066,,,,,,,,,,,,,,,,030,2022-05-26_10h54.15.192,FishGame,2022.1.1,59.857013550375726,
,1,넌 불평스러워,5,Green,A,2.25,2.066666666666667,ScrollDown,ScrollUp,Green.png,5,Negative,Incongruent,,,,,0,0,0,0,,,,,,,,,,,,,,,,,,,,,,,,,,,,,0,0,0,0,,,,,,,,,,,,,,,,,,,,,,,,610.6829797000391,612.1852067,612.2185479000909,613.168478500098,613.2184103000909,614.1827386000659,614.1660851000343,None,,,,,,,,,,,,,,,,,,,,,,,,,,,,,,,,,,1.1450617164373398,1.2228334000101313,615.2554307000246,None,ScrollDown,정답입니다,615.2554307000246,None,615.2554307000246,None,615.2554307000246,None,615.2554307000246,None,616.3827070000116,None,616.3827070000116,616.8827603000682,579.4168824000517,None,579.4168824000517,None,0.46203703,-0.2712963,1,0,0,0.01606557995546609,None,609.4162530000322,None,,,030,2022-05-26_10h54.15.192,FishGame,2022.1.1,59.857013550375726,
,2,나를 보내줘,6,Green,A,0,0,ScrollUp,ScrollDown,Green.png,5,NonTarget,NonTarget,,,,,0,0,0,0,,,,,,,,,,,,,,,,,,,,,,,,,,,,,0,1,1,1,,,,,,,,,,,,,,,,,,,,,,,,,,,,,,,,,,,,,,,,,,,,,,,,,,,,,,,,,,,,,,,,,1.9212963084379833,1.1256985999643803,617.5099288000492,None,ScrollUp,정답입니다,617.5099288000492,None,617.5099288000492,None,617.5099288000492,None,617.5099288000492,None,618.532715999987,None,618.532715999987,619.0326812000712,,,,,,,,,,,,,,,,030,2022-05-26_10h54.15.192,FishGame,2022.1.1,59.857013550375726,
,3,넌 다재다능해,2,Orange,B,6.208333333333333,4.5,ScrollUp,ScrollDown,Orange.png,5,Positive,Incongruent,,,,,0,0,0,0,,,,,,,,,,,,,,,,,,,,,,,,,,,,,0,2,2,2,,,,,,,,,,,,,,,,,,,,,,,,,,,,,,,,,,,,,,,,,,,,,,,,,,,,,,,,,,,,,,,,,2,1.2426500999135897,619.6545429000398,None,ScrollUp,정답입니다,619.6545429000398,None,619.6545429000398,None,619.6545429000398,None,619.6545429000398,None,620.7992926000152,None,620.7992926000152,621.3014872000786,,,,,,,,,,,,,,,,030,2022-05-26_10h54.15.192,FishGame,2022.1.1,59.857013550375726,
,4,넌 과감해,3,Green,A,4.833333333333334,4.6,ScrollDown,ScrollUp,Green.png,5,Neutral,Neutral,,,,,0,0,0,0,,,,,,,,,,,,,,,,,,,,,,,,,,,,,0,3,3,3,,,,,,,,,,,,,,,,,,,,,,,,,,,,,,,,,,,,,,,,,,,,,,,,,,,,,,,,,,,,,,,,,1,1.1427338999928907,621.922583000036,None,ScrollDown,정답입니다,621.922583000036,None,621.922583000036,None,621.922583000036,None,621.922583000036,None,622.9656161000021,None,622.9656161000021,623.4668014000636,,,,,,,,,,,,,,,,030,2022-05-26_10h54.15.192,FishGame,2022.1.1,59.857013550375726,
,5,넌 고분고분해,3,Orange,B,3.75,4.033333333333333,ScrollUp,ScrollDown,Orange.png,5,Neutral,Neutral,,,,,0,0,0,0,,,,,,,,,,,,,,,,,,,,,,,,,,,,,0,4,4,4,,,,,,,,,,,,,,,,,,,,,,,,,,,,,,,,,,,,,,,,,,,,,,,,,,,,,,,,,,,,,,,,,1.837962955236435,0.9639388000359759,624.0924380000215,None,ScrollUp,정답입니다,624.0924380000215,None,624.0924380000215,None,624.0924380000215,None,624.0924380000215,None,624.9514518000651,None,624.9514518000651,625.4518635000568,,,,,,,,,,,,,,,,030,2022-05-26_10h54.15.192,FishGame,2022.1.1,59.857013550375726,
,6,나를 보내줘,6,Green,A,0,0,ScrollUp,ScrollDown,Green.png,5,NonTarget,NonTarget,,,,,0,0,0,0,,,,,,,,,,,,,,,,,,,,,,,,,,,,,0,5,5,5,,,,,,,,,,,,,,,,,,,,,,,,,,,,,,,,,,,,,,,,,,,,,,,,,,,,,,,,,,,,,,,,,1.919753094514211,1.060904899961315,626.084725700086,None,ScrollUp,정답입니다,626.084725700086,None,626.084725700086,None,626.084725700086,None,626.084725700086,None,627.0491433000425,None,627.0491433000425,627.5517018000828,,,,,,,,,,,,,,,,030,2022-05-26_10h54.15.192,FishGame,2022.1.1,59.857013550375726,
,7,넌 잘 잊어,4,Green,A,3,3.7,ScrollDown,ScrollUp,Green.png,5,Negative,Incongruent,,,,,0,0,0,0,,,,,,,,,,,,,,,,,,,,,,,,,,,,,0,6,6,6,,,,,,,,,,,,,,,,,,,,,,,,,,,,,,,,,,,,,,,,,,,,,,,,,,,,,,,,,,,,,,,,,1,0.9760543999727815,628.1734668000136,None,ScrollDown,정답입니다,628.1734668000136,None,628.1734668000136,None,628.1734668000136,None,628.1734668000136,None,629.0491228000028,None,629.0491228000028,629.5513187000761,,,,,,,,,,,,,,,,030,2022-05-26_10h54.15.192,FishGame,2022.1.1,59.857013550375726,
,8,넌 탐구심이없어,4,Orange,B,2.833333333333333,3.066666666666667,ScrollUp,ScrollDown,Orange.png,5,Negative,Congruent,,,,,0,0,0,0,,,,,,,,,,,,,,,,,,,,,,,,,,,,,0,7,7,7,,,,,,,,,,,,,,,,,,,,,,,,,,,,,,,,,,,,,,,,,,,,,,,,,,,,,,,,,,,,,,,,,1.6080246890584626,0.8612220999784768,630.1773508000188,None,ScrollUp,정답입니다,630.1773508000188,None,630.1773508000188,None,630.1773508000188,None,630.1773508000188,None,630.9321765000932,None,630.9321765000932,631.4321966000134,,,,,,,,,,,,,,,,030,2022-05-26_10h54.15.192,FishGame,2022.1.1,59.857013550375726,
,9,나를 데려가줘,6,Orange,B,0,0,ScrollDown,ScrollUp,Orange.png,5,NonTarget,NonTarget,,,,,0,0,0,0,,,,,,,,,,,,,,,,,,,,,,,,,,,,,0,8,8,8,,,,,,,,,,,,,,,,,,,,,,,,,,,,,,,,,,,,,,,,,,,,,,,,,,,,,,,,,,,,,,,,,1,1.4949258000124246,632.0537662000861,None,ScrollDown,정답입니다,632.0537662000861,None,632.0537662000861,None,632.0537662000861,None,632.0537662000861,None,633.4513793000951,None,633.4513793000951,633.9493958000094,,,,,,,,,,,,,,,,030,2022-05-26_10h54.15.192,FishGame,2022.1.1,59.857013550375726,
,10,넌 참되어,2,Green,A,6.041666666666664,4.733333333333333,ScrollDown,ScrollUp,Green.png,5,Positive,Congruent,,,,,0,0,0,0,,,,,,,,,,,,,,,,,,,,,,,,,,,,,0,9,9,9,,,,,,,,,,,,,,,,,,,,,,,,,,,,,,,,,,,,,,,,,,,,,,,,,,,,,,,,,,,,,,,,,1,0.9405319000361487,634.5881515000947,None,ScrollDown,정답입니다,634.5881515000947,None,634.5881515000947,None,634.5881515000947,None,634.5881515000947,None,635.4110007000854,None,635.4110007000854,635.9154201000929,,,,,,,,,,,,,,,,030,2022-05-26_10h54.15.192,FishGame,2022.1.1,59.857013550375726,
,11,넌 생기있어,1,Orange,B,5.875,5.633333333333334,ScrollUp,ScrollDown,Orange.png,5,Positive,Incongruent,,,,,0,0,0,0,,,,,,,,,,,,,,,,,,,,,,,,,,,,,0,10,10,10,,,,,,,,,,,,,,,,,,,,,,,,,,,,,,,,,,,,,,,,,,,,,,,,,,,,,,,,,,,,,,,,,1.858024686574936,1.311807900085114,636.5391390000004,None,ScrollUp,정답입니다,636.5391390000004,None,636.5391390000004,None,636.5391390000004,None,636.5391390000004,None,637.7487056000391,None,637.7487056000391,638.2512778000673,,,,,,,,,,,,,,,,030,2022-05-26_10h54.15.192,FishGame,2022.1.1,59.857013550375726,
,12,넌 비사교적이야,4,Orange,B,2.875,2.9,ScrollUp,ScrollDown,Orange.png,5,Negative,Congruent,,,,,0,0,0,0,,,,,,,,,,,,,,,,,,,,,,,,,,,,,0,11,11,11,,,,,,,,,,,,,,,,,,,,,,,,,,,,,,,,,,,,,,,,,,,,,,,,,,,,,,,,,,,,,,,,,1.8271604826052983,1.00979559996631,638.8732228000881,None,ScrollUp,정답입니다,638.8732228000881,None,638.8732228000881,None,638.8732228000881,None,638.8732228000881,None,639.7844927000115,None,639.7844927000115,640.2822507000528,,,,,,,,,,,,,,,,030,2022-05-26_10h54.15.192,FishGame,2022.1.1,59.857013550375726,
,13,나를 데려가줘,6,Orange,B,0,0,ScrollDown,ScrollUp,Orange.png,5,NonTarget,NonTarget,,,,,0,0,0,0,,,,,,,,,,,,,,,,,,,,,,,,,,,,,0,12,12,12,,,,,,,,,,,,,,,,,,,,,,,,,,,,,,,,,,,,,,,,,,,,,,,,,,,,,,,,,,,,,,,,,1.0262345671653748,1.2258801000425592,640.9084646000993,None,ScrollDown,정답입니다,640.9084646000993,None,640.9084646000993,None,640.9084646000993,None,640.9084646000993,None,642.0321701000212,None,642.0321701000212,642.5344406000804,,,,,,,,,,,,,,,,030,2022-05-26_10h54.15.192,FishGame,2022.1.1,59.857013550375726,
,14,넌 고독해,4,Green,A,2.916666666666667,3.233333333333333,ScrollDown,ScrollUp,Green.png,5,Negative,Incongruent,,,,,0,0,0,0,,,,,,,,,,,,,,,,,,,,,,,,,,,,,0,13,13,13,,,,,,,,,,,,,,,,,,,,,,,,,,,,,,,,,,,,,,,,,,,,,,,,,,,,,,,,,,,,,,,,,1.1790123482545216,1.0596338999457657,643.1539698000997,None,ScrollDown,정답입니다,643.1539698000997,None,643.1539698000997,None,643.1539698000997,None,643.1539698000997,None,644.1154229000676,None,644.1154229000676,644.6154489000328,,,,,,,,,,,,,,,,030,2022-05-26_10h54.15.192,FishGame,2022.1.1,59.857013550375726,
,15,넌 신경질적이야,5,Orange,B,2.375,2.233333333333333,ScrollUp,ScrollDown,Orange.png,5,Negative,Congruent,,,,,0,0,0,0,,,,,,,,,,,,,,,,,,,,,,,,,,,,,0,14,14,14,,,,,,,,,,,,,,,,,,,,,,,,,,,,,,,,,,,,,,,,,,,,,,,,,,,,,,,,,,,,,,,,,1.4907407405165334,1.1279033001046628,645.249584000092,None,NoResponse,무응답입니다,645.249584000092,None,645.249584000092,None,645.249584000092,None,645.249584000092,None,646.2655098000541,None,646.2655098000541,646.7676077000797,,,,,,,,,,,,,,,,030,2022-05-26_10h54.15.192,FishGame,2022.1.1,59.857013550375726,
,16,넌 똑똑해,2,Orange,B,5.666666666666667,3.966666666666667,ScrollUp,ScrollDown,Orange.png,5,Positive,Incongruent,,,,,0,0,0,0,,,,,,,,,,,,,,,,,,,,,,,,,,,,,0,15,15,15,,,,,,,,,,,,,,,,,,,,,,,,,,,,,,,,,,,,,,,,,,,,,,,,,,,,,,,,,,,,,,,,,1.8858024626970291,0.992718999972567,647.391138200066,None,ScrollUp,정답입니다,647.391138200066,None,647.391138200066,None,647.391138200066,None,647.391138200066,None,648.2842775000026,None,648.2842775000026,648.7987276000204,,,,,,,,,,,,,,,,030,2022-05-26_10h54.15.192,FishGame,2022.1.1,59.857013550375726,
,17,나를 보내줘,6,Green,A,0,0,ScrollUp,ScrollDown,Green.png,5,NonTarget,NonTarget,,,,,0,0,0,0,,,,,,,,,,,,,,,,,,,,,,,,,,,,,0,16,16,16,,,,,,,,,,,,,,,,,,,,,,,,,,,,,,,,,,,,,,,,,,,,,,,,,,,,,,,,,,,,,,,,,1.878086417913437,1.126297700102441,649.4213619000511,None,ScrollUp,정답입니다,649.4213619000511,None,649.4213619000511,None,649.4213619000511,None,649.4213619000511,None,650.4486486000242,None,650.4486486000242,650.9487143000588,,,,,,,,,,,,,,,,030,2022-05-26_10h54.15.192,FishGame,2022.1.1,59.857013550375726,
,18,넌 협조적이야,1,Green,A,5.625,5.666666666666667,ScrollDown,ScrollUp,Green.png,5,Positive,Congruent,,,,,0,0,0,0,,,,,,,,,,,,,,,,,,,,,,,,,,,,,0,17,17,17,,,,,,,,,,,,,,,,,,,,,,,,,,,,,,,,,,,,,,,,,,,,,,,,,,,,,,,,,,,,,,,,,1.2731481492519379,1.292570500052534,651.5705189000582,None,ScrollDown,정답입니다,651.5705189000582,None,651.5705189000582,None,651.5705189000582,None,651.5705189000582,None,652.765460900031,None,652.765460900031,653.2653017000994,,,,,,,,,,,,,,,,030,2022-05-26_10h54.15.192,FishGame,2022.1.1,59.857013550375726,
,19,나를 데려가줘,6,Orange,B,0,0,ScrollDown,ScrollUp,Orange.png,5,NonTarget,NonTarget,,,,,0,0,0,0,,,,,,,,,,,,,,,,,,,,,,,,,,,,,0,18,18,18,,,,,,,,,,,,,,,,,,,,,,,,,,,,,,,,,,,,,,,,,,,,,,,,,,,,,,,,,,,,,,,,,1.2098765522241592,1.0606405000435188,653.896734500071,None,ScrollDown,정답입니다,653.896734500071,None,653.896734500071,None,653.896734500071,None,653.896734500071,None,654.848292300012,None,654.848292300012,655.3483972999966,,,,,,,,,,,,,,,,030,2022-05-26_10h54.15.192,FishGame,2022.1.1,59.857013550375726,
,20,넌 몰인정해,5,Orange,B,2.541666666666667,2.066666666666667,ScrollUp,ScrollDown,Orange.png,5,Negative,Congruent,,,,,0,0,0,0,,,,,,,,,,,,,,,,,,,,,,,,,,,,,0,19,19,19,,,,,,,,,,,,,,,,,,,,,,,,,,,,,,,,,,,,,,,,,,,,,,,,,,,,,,,,,,,,,,,,,1.6311728358268738,1.0954302001046017,655.9714369000867,None,ScrollUp,정답입니다,655.9714369000867,None,655.9714369000867,None,655.9714369000867,None,655.9714369000867,None,656.9653811000753,None,656.9653811000753,657.4675307000289,,,,,,,,,,,,,,,,030,2022-05-26_10h54.15.192,FishGame,2022.1.1,59.857013550375726,
,21,나를 데려가줘,6,Orange,B,0,0,ScrollDown,ScrollUp,Orange.png,5,NonTarget,NonTarget,,,,,0,0,0,0,,,,,,,,,,,,,,,,,,,,,,,,,,,,,0,20,20,20,,,,,,,,,,,,,,,,,,,,,,,,,,,,,,,,,,,,,,,,,,,,,,,,,,,,,,,,,,,,,,,,,1.1759259204069774,1.1293633999302983,658.0837542000227,None,ScrollDown,정답입니다,658.0837542000227,None,658.0837542000227,None,658.0837542000227,None,658.0837542000227,None,659.1174407000653,None,659.1174407000653,659.6151469000615,,,,,,,,,,,,,,,,030,2022-05-26_10h54.15.192,FishGame,2022.1.1,59.857013550375726,
,22,넌 순진해,3,Orange,B,4.125,4.166666666666667,ScrollUp,ScrollDown,Orange.png,5,Neutral,Neutral,,,,,0,0,0,0,,,,,,,,,,,,,,,,,,,,,,,,,,,,,0,21,21,21,,,,,,,,,,,,,,,,,,,,,,,,,,,,,,,,,,,,,,,,,,,,,,,,,,,,,,,,,,,,,,,,,1.6697530845801034,1.395073499996215,660.2544646000024,None,ScrollUp,정답입니다,660.2544646000024,None,660.2544646000024,None,660.2544646000024,None,660.2544646000024,None,661.5484499000013,None,661.5484499000013,662.0485039000632,,,,,,,,,,,,,,,,030,2022-05-26_10h54.15.192,FishGame,2022.1.1,59.857013550375726,
