name,TrialNum,Word,WordCategory,FishType,WordList,WordValence,WordReputation,CorrectResp,IncorrectResp,FishTypeFile,Round,WordType,Condition,LoopforOrange.thisRepN,LoopforOrange.thisTrialN,LoopforOrange.thisN,LoopforOrange.thisIndex,OrangeInstLoop.thisRepN,OrangeInstLoop.thisTrialN,OrangeInstLoop.thisN,OrangeInstLoop.thisIndex,OrangePrac.thisRepN,OrangePrac.thisTrialN,OrangePrac.thisN,OrangePrac.thisIndex,temp1.thisRepN,temp1.thisTrialN,temp1.thisN,temp1.thisIndex,OrangeRound1.thisRepN,OrangeRound1.thisTrialN,OrangeRound1.thisN,OrangeRound1.thisIndex,OrangeRound2.thisRepN,OrangeRound2.thisTrialN,OrangeRound2.thisN,OrangeRound2.thisIndex,OrangeRound3.thisRepN,OrangeRound3.thisTrialN,OrangeRound3.thisN,OrangeRound3.thisIndex,OrangeRound4.thisRepN,OrangeRound4.thisTrialN,OrangeRound4.thisN,OrangeRound4.thisIndex,OrangeRound5.thisRepN,OrangeRound5.thisTrialN,OrangeRound5.thisN,OrangeRound5.thisIndex,LoopForGreen.thisRepN,LoopForGreen.thisTrialN,LoopForGreen.thisN,LoopForGreen.thisIndex,text_2.started,text_2.stopped,text_3.started,text_3.stopped,key_resp.keys,key_resp.rt,key_resp.started,key_resp.stopped,PassI_2.started,PassI_2.stopped,PassInst_2.keys,PassInst_2.rt,PassInst_2.started,PassInst_2.stopped,mouse_2.x,mouse_2.y,mouse_2.leftButton,mouse_2.midButton,mouse_2.rightButton,mouse_2.started,mouse_2.stopped,image.started,image.stopped,text_5.started,text_5.stopped,text_6.started,text_6.stopped,text_7.started,text_7.stopped,text_8.started,text_8.stopped,slider_2.response,slider_2.rt,slider_2.started,slider_2.stopped,Response_2,Feedback_2,BackGround_2.started,BackGround_2.stopped,Fish_2.started,Fish_2.stopped,WordBox_2.started,WordBox_2.stopped,Words_2.started,Words_2.stopped,BackGround_Feedback_2.started,BackGround_Feedback_2.stopped,Feedbacks_2.started,Feedbacks_2.stopped,Continue_or_not.keys,Continue_or_not.rt,Continue_or_not.started,Continue_or_not.stopped,image_3.started,image_3.stopped,mouse_3.x,mouse_3.y,mouse_3.leftButton,mouse_3.midButton,mouse_3.rightButton,mouse_3.started,mouse_3.stopped,startmain.started,startmain.stopped,slider.response,slider.rt,slider.started,slider.stopped,Response,Feedback,BackGround.started,BackGround.stopped,Fish.started,Fish.stopped,WordBox.started,WordBox.stopped,Words.started,Words.stopped,BackGround_Feedback.started,BackGround_Feedback.stopped,Feedbacks.started,Feedbacks.stopped,text.started,text.stopped,break_interval.started,break_interval.stopped,mouse.x,mouse.y,mouse.leftButton,mouse.midButton,mouse.rightButton,mouse.started,mouse.stopped,stratnextround.started,stratnextround.stopped,endgame.started,endgame.stopped,participant,date,expName,psychopyVersion,frameRate,
,,,,,,,,,,,,,,,,,,,,,,,,,,,,,,,,,,,,,,,,,,,,,,,,,,,,,,16.76434400002472,None,16.76434400002472,None,space,0.5879850999917835,17.253334400011227,None,,,,,,,,,,,,,,,,,,,,,,,,,,,,,,,,,,,,,,,,,,,,,,,,,,,,,,,,,,,,,,,,,,,,,,,,,,,,,,,,,,,,,,,,,,031,2022-05-26_20h28.42.647,FishGame,2022.1.1,60.01759715373957,
물고기과제_instruction(참가자용)OrangeVersion.mp4,,,,,,,,,,,,,,0,0,0,0,0,0,0,0,,,,,,,,,,,,,,,,,,,,,,,,,,,,,,,,,,,,,,,,,90.14643870003056,None,n,1.2622959000291303,90.14643870003056,None,,,,,,,,,,,,,,,,,,,,,,,,,,,,,,,,,,,,,,,,,,,,,,,,,,,,,,,,,,,,,,,,,,,,,,,,,,,,,,,,,,,,031,2022-05-26_20h28.42.647,FishGame,2022.1.1,60.01759715373957,
,1,넌 교활해,5,Green,B,2.333333333333333,2.133333333333333,ScrollUp,ScrollDown,Green.png,practice,,,0,0,0,0,,,,,0,0,0,0,0,0,0,0,,,,,,,,,,,,,,,,,,,,,,,,,,,,,,,,,,,,,,,0.060185187,-0.22777778,1,0,0,0.5081616600509733,None,91.43508460000157,None,95.29835349996574,96.81519530003425,96.82957419997547,97.78190709999762,97.83189350005705,98.78191849996801,98.78191849996801,None,1.663580241302649,1.8473336000461131,100.07876830000896,None,ScrollUp,정답입니다,100.07876830000896,None,100.07876830000896,None,100.07876830000896,None,100.07876830000896,None,101.62940239999443,None,101.62940239999443,102.13170939998236,,,,,,,,,,,,,,,,,,,,,,,,,,,,,,,,,,,,,,,,,,,,,,,,,031,2022-05-26_20h28.42.647,FishGame,2022.1.1,60.01759715373957,
,2,넌 슬기로워,2,Orange,A,6.166666666666667,4.1,ScrollDown,ScrollUp,Orange.png,practice,,,0,0,0,0,,,,,0,0,0,0,0,1,1,1,,,,,,,,,,,,,,,,,,,,,,,,,,,,,,,,,,,,,,,,,,,,,,,,,,,,,,,,1.1574074029922485,1.8726534999441355,102.75993619998917,None,ScrollDown,정답입니다,102.75993619998917,None,102.75993619998917,None,102.75993619998917,None,102.75993619998917,None,104.524714600062,None,104.524714600062,105.02917350002099,,,,,,,,,,,,,,,,,,,,,,,,,,,,,,,,,,,,,,,,,,,,,,,,,031,2022-05-26_20h28.42.647,FishGame,2022.1.1,60.01759715373957,
,3,나를 보내줘,6,Orange,A,0,0,ScrollUp,ScrollDown,Orange.png,practice,,,0,0,0,0,,,,,0,0,0,0,0,2,2,2,,,,,,,,,,,,,,,,,,,,,,,,,,,,,,,,,,,,,,,,,,,,,,,,,,,,,,,,1.8611111144224803,1.6783943999325857,105.64835150004365,None,ScrollUp,정답입니다,105.64835150004365,None,105.64835150004365,None,105.64835150004365,None,105.64835150004365,None,107.23163980001118,None,107.23163980001118,107.7316307000583,,,,,,,,,,,,,,,,,,,,,,,,,,,,,,,,,,,,,,,,,,,,,,,,,031,2022-05-26_20h28.42.647,FishGame,2022.1.1,60.01759715373957,
,4,나를 데려가줘,6,Green,B,0,0,ScrollDown,ScrollUp,Green.png,practice,,,0,0,0,0,,,,,0,0,0,0,0,3,3,3,,,,,,,,,,,,,,,,,,,,,,,,,,,,,,,,,,,,,,,,,,,,,,,,,,,,,,,,1.0617283880710602,2.2771882999222726,108.34946769999806,None,ScrollDown,정답입니다,108.34946769999806,None,108.34946769999806,None,108.34946769999806,None,108.34946769999806,None,110.52922320005018,None,110.52922320005018,111.02932600001805,,,,,,,,,,,,,,,,,,,,,,,,,,,,,,,,,,,,,,,,,,,,,,,,,031,2022-05-26_20h28.42.647,FishGame,2022.1.1,60.01759715373957,
,1,넌 교활해,5,Green,B,2.333333333333333,2.133333333333333,ScrollUp,ScrollDown,Green.png,practice,,,0,0,0,0,,,,,0,0,0,0,,,,,,,,,,,,,,,,,,,,,,,,,,,,,,,,,,,,,,,,,,,,,,,,,,,,,,,,,,,,,,,,,,,,,,,,,,,,,,n,5.896737199975178,111.5292418000754,None,111.5292418000754,None,,,,,,,,,,,,,,,,,,,,,,,,,,,,,,,,,,,,,,,,,,,031,2022-05-26_20h28.42.647,FishGame,2022.1.1,60.01759715373957,
,1,넌 따뜻해,1,Green,B,6.083333333333333,5.6,ScrollUp,ScrollDown,Green.png,1,Positive,Incongruent,0,0,0,0,,,,,,,,,,,,,0,0,0,0,,,,,,,,,,,,,,,,,,,,,,,,,,,,,,,,,,,,,,,,,,,,118.74575750005897,120.24808689998463,120.28143149998505,121.23142229998484,121.2814073000336,122.2313849000493,122.2313849000493,None,,,,,,,,,,,,,,,,,,,,,,,,,0.053703703,-0.1712963,1,0,0,0.3137596598826349,None,117.44783940003254,None,1.1759259204069774,2.6207586999516934,123.52293600002304,None,ScrollDown,오답입니다,123.52293600002304,None,123.52293600002304,None,123.52293600002304,None,123.52293600002304,None,125.85094060003757,None,125.85094060003757,126.36449399997946,,,,,,,,,,,,,,,,031,2022-05-26_20h28.42.647,FishGame,2022.1.1,60.01759715373957,
,2,넌 기품있어,2,Green,B,5.791666666666668,4.5,ScrollUp,ScrollDown,Green.png,1,Positive,Incongruent,0,0,0,0,,,,,,,,,,,,,0,1,1,1,,,,,,,,,,,,,,,,,,,,,,,,,,,,,,,,,,,,,,,,,,,,,,,,,,,,,,,,,,,,,,,,,,,,,,,,,,,,,,,,,,,,,1.766975313425064,1.3105324999196455,126.98583740007598,None,ScrollUp,정답입니다,126.98583740007598,None,126.98583740007598,None,126.98583740007598,None,126.98583740007598,None,128.19551660004072,None,128.19551660004072,128.69557740003802,,,,,,,,,,,,,,,,031,2022-05-26_20h28.42.647,FishGame,2022.1.1,60.01759715373957,
,3,나를 보내줘,6,Orange,A,0,0,ScrollUp,ScrollDown,Orange.png,1,NonTarget,NonTarget,0,0,0,0,,,,,,,,,,,,,0,2,2,2,,,,,,,,,,,,,,,,,,,,,,,,,,,,,,,,,,,,,,,,,,,,,,,,,,,,,,,,,,,,,,,,,,,,,,,,,,,,,,,,,,,,,1.7067901194095612,1.4760001000249758,129.3261755000567,None,ScrollUp,정답입니다,129.3261755000567,None,129.3261755000567,None,129.3261755000567,None,129.3261755000567,None,130.69551970006432,None,130.69551970006432,131.19772619998548,,,,,,,,,,,,,,,,031,2022-05-26_20h28.42.647,FishGame,2022.1.1,60.01759715373957,
,4,넌 수동적이야,4,Orange,A,2.833333333333333,2.933333333333333,ScrollDown,ScrollUp,Orange.png,1,Negative,Incongruent,0,0,0,0,,,,,,,,,,,,,0,3,3,3,,,,,,,,,,,,,,,,,,,,,,,,,,,,,,,,,,,,,,,,,,,,,,,,,,,,,,,,,,,,,,,,,,,,,,,,,,,,,,,,,,,,,1.1033950646718342,2.1441284000175074,131.8233947000699,None,ScrollDown,정답입니다,131.8233947000699,None,131.8233947000699,None,131.8233947000699,None,131.8233947000699,None,133.86203509999905,None,133.86203509999905,134.3621341000544,,,,,,,,,,,,,,,,031,2022-05-26_20h28.42.647,FishGame,2022.1.1,60.01759715373957,
,5,넌 사심이 없어,3,Green,B,4.916666666666666,4.333333333333333,ScrollUp,ScrollDown,Green.png,1,Neutral,Neutral,0,0,0,0,,,,,,,,,,,,,0,4,4,4,,,,,,,,,,,,,,,,,,,,,,,,,,,,,,,,,,,,,,,,,,,,,,,,,,,,,,,,,,,,,,,,,,,,,,,,,,,,,,,,,,,,,1.6558641965190568,1.4590176000492647,134.9980411999859,None,ScrollUp,정답입니다,134.9980411999859,None,134.9980411999859,None,134.9980411999859,None,134.9980411999859,None,136.34540600003675,None,136.34540600003675,136.84763980004936,,,,,,,,,,,,,,,,031,2022-05-26_20h28.42.647,FishGame,2022.1.1,60.01759715373957,
,6,넌 헤퍼,5,Orange,A,2.458333333333334,2.233333333333333,ScrollDown,ScrollUp,Orange.png,1,Negative,Incongruent,0,0,0,0,,,,,,,,,,,,,0,5,5,5,,,,,,,,,,,,,,,,,,,,,,,,,,,,,,,,,,,,,,,,,,,,,,,,,,,,,,,,,,,,,,,,,,,,,,,,,,,,,,,,,,,,,1.1172839403152466,1.7093058000318706,137.47065849998035,None,ScrollDown,정답입니다,137.47065849998035,None,137.47065849998035,None,137.47065849998035,None,137.47065849998035,None,139.07861750002485,None,139.07861750002485,139.58088700007647,,,,,,,,,,,,,,,,031,2022-05-26_20h28.42.647,FishGame,2022.1.1,60.01759715373957,
,7,넌 말쑥해,3,Orange,A,4.833333333333334,4.333333333333333,ScrollDown,ScrollUp,Orange.png,1,Neutral,Neutral,0,0,0,0,,,,,,,,,,,,,0,6,6,6,,,,,,,,,,,,,,,,,,,,,,,,,,,,,,,,,,,,,,,,,,,,,,,,,,,,,,,,,,,,,,,,,,,,,,,,,,,,,,,,,,,,,1.1033950646718342,1.0438305001007393,140.20202510000672,None,ScrollDown,정답입니다,140.20202510000672,None,140.20202510000672,None,140.20202510000672,None,140.20202510000672,None,141.14530129998457,None,141.14530129998457,141.64751999999862,,,,,,,,,,,,,,,,031,2022-05-26_20h28.42.647,FishGame,2022.1.1,60.01759715373957,
,8,넌 투덜거려,5,Green,B,2.541666666666667,2.266666666666667,ScrollUp,ScrollDown,Green.png,1,Negative,Congruent,0,0,0,0,,,,,,,,,,,,,0,7,7,7,,,,,,,,,,,,,,,,,,,,,,,,,,,,,,,,,,,,,,,,,,,,,,,,,,,,,,,,,,,,,,,,,,,,,,,,,,,,,,,,,,,,,1.7592592686414719,1.0589253000216559,142.27093650004826,None,ScrollUp,정답입니다,142.27093650004826,None,142.27093650004826,None,142.27093650004826,None,142.27093650004826,None,143.22886300005484,None,143.22886300005484,143.7285982000176,,,,,,,,,,,,,,,,031,2022-05-26_20h28.42.647,FishGame,2022.1.1,60.01759715373957,
,9,넌 적극적이야,1,Orange,A,5.708333333333333,5.533333333333333,ScrollDown,ScrollUp,Orange.png,1,Positive,Congruent,0,0,0,0,,,,,,,,,,,,,0,8,8,8,,,,,,,,,,,,,,,,,,,,,,,,,,,,,,,,,,,,,,,,,,,,,,,,,,,,,,,,,,,,,,,,,,,,,,,,,,,,,,,,,,,,,1.0586419602235158,1.0782709999475628,144.35276719997637,None,ScrollDown,정답입니다,144.35276719997637,None,144.35276719997637,None,144.35276719997637,None,144.35276719997637,None,145.3285368999932,None,145.3285368999932,145.83074950007722,,,,,,,,,,,,,,,,031,2022-05-26_20h28.42.647,FishGame,2022.1.1,60.01759715373957,
,10,넌 재미없어,4,Green,B,2.625,2.966666666666667,ScrollUp,ScrollDown,Green.png,1,Negative,Congruent,0,0,0,0,,,,,,,,,,,,,0,9,9,9,,,,,,,,,,,,,,,,,,,,,,,,,,,,,,,,,,,,,,,,,,,,,,,,,,,,,,,,,,,,,,,,,,,,,,,,,,,,,,,,,,,,,1.7530864129463832,1.0421621999703348,146.4610550000798,None,ScrollUp,정답입니다,146.4610550000798,None,146.4610550000798,None,146.4610550000798,None,146.4610550000798,None,147.39511350006796,None,147.39511350006796,147.8951600000728,,,,,,,,,,,,,,,,031,2022-05-26_20h28.42.647,FishGame,2022.1.1,60.01759715373957,
,11,넌 명석해,2,Orange,A,5.875,4.033333333333333,ScrollDown,ScrollUp,Orange.png,1,Positive,Congruent,0,0,0,0,,,,,,,,,,,,,0,10,10,10,,,,,,,,,,,,,,,,,,,,,,,,,,,,,,,,,,,,,,,,,,,,,,,,,,,,,,,,,,,,,,,,,,,,,,,,,,,,,,,,,,,,,1.1666666616996129,1.2999842000426725,148.52092619996984,None,ScrollDown,정답입니다,148.52092619996984,None,148.52092619996984,None,148.52092619996984,None,148.52092619996984,None,149.70005790004507,None,149.70005790004507,150.21393490000628,,,,,,,,,,,,,,,,031,2022-05-26_20h28.42.647,FishGame,2022.1.1,60.01759715373957,
,12,나를 데려가줘,6,Green,B,0,0,ScrollDown,ScrollUp,Green.png,1,NonTarget,NonTarget,0,0,0,0,,,,,,,,,,,,,0,11,11,11,,,,,,,,,,,,,,,,,,,,,,,,,,,,,,,,,,,,,,,,,,,,,,,,,,,,,,,,,,,,,,,,,,,,,,,,,,,,,,,,,,,,,1.0895061641931534,1.5928787000011653,150.8338270999957,None,ScrollDown,정답입니다,150.8338270999957,None,150.8338270999957,None,150.8338270999957,None,150.8338270999957,None,152.3284176000161,None,152.3284176000161,152.83065320004243,,,,,,,,,,,,,,,,031,2022-05-26_20h28.42.647,FishGame,2022.1.1,60.01759715373957,
,13,넌 소심해,4,Orange,A,3,3.1,ScrollDown,ScrollUp,Orange.png,1,Negative,Incongruent,0,0,0,0,,,,,,,,,,,,,0,12,12,12,,,,,,,,,,,,,,,,,,,,,,,,,,,,,,,,,,,,,,,,,,,,,,,,,,,,,,,,,,,,,,,,,,,,,,,,,,,,,,,,,,,,,1.1188271542390187,1.3794870000565425,153.45156570000108,None,ScrollDown,정답입니다,153.45156570000108,None,153.45156570000108,None,153.45156570000108,None,153.45156570000108,None,154.72836359997746,None,154.72836359997746,155.2283723000437,,,,,,,,,,,,,,,,031,2022-05-26_20h28.42.647,FishGame,2022.1.1,60.01759715373957,
,14,넌 합리적이야,2,Orange,A,5.583333333333333,4.733333333333333,ScrollDown,ScrollUp,Orange.png,1,Positive,Congruent,0,0,0,0,,,,,,,,,,,,,0,13,13,13,,,,,,,,,,,,,,,,,,,,,,,,,,,,,,,,,,,,,,,,,,,,,,,,,,,,,,,,,,,,,,,,,,,,,,,,,,,,,,,,,,,,,1.1095678955316544,1.0091805999400094,155.85684969997965,None,ScrollDown,정답입니다,155.85684969997965,None,155.85684969997965,None,155.85684969997965,None,155.85684969997965,None,156.7616317999782,None,156.7616317999782,157.26396080001723,,,,,,,,,,,,,,,,031,2022-05-26_20h28.42.647,FishGame,2022.1.1,60.01759715373957,
,15,넌 무자비해,5,Green,B,2.333333333333333,2.1,ScrollUp,ScrollDown,Green.png,1,Negative,Congruent,0,0,0,0,,,,,,,,,,,,,0,14,14,14,,,,,,,,,,,,,,,,,,,,,,,,,,,,,,,,,,,,,,,,,,,,,,,,,,,,,,,,,,,,,,,,,,,,,,,,,,,,,,,,,,,,,1.839506169160207,2.14415690000169,157.8840989000164,None,ScrollUp,정답입니다,157.8840989000164,None,157.8840989000164,None,157.8840989000164,None,157.8840989000164,None,159.92803870001808,None,159.92803870001808,160.43037219997495,,,,,,,,,,,,,,,,031,2022-05-26_20h28.42.647,FishGame,2022.1.1,60.01759715373957,
,16,나를 보내줘,6,Orange,A,0,0,ScrollUp,ScrollDown,Orange.png,1,NonTarget,NonTarget,0,0,0,0,,,,,,,,,,,,,0,15,15,15,,,,,,,,,,,,,,,,,,,,,,,,,,,,,,,,,,,,,,,,,,,,,,,,,,,,,,,,,,,,,,,,,,,,,,,,,,,,,,,,,,,,,1.8904321044683456,1.6598519999533892,161.04850879998412,None,ScrollUp,정답입니다,161.04850879998412,None,161.04850879998412,None,161.04850879998412,None,161.04850879998412,None,162.61367099999916,None,162.61367099999916,163.1138079999946,,,,,,,,,,,,,,,,031,2022-05-26_20h28.42.647,FishGame,2022.1.1,60.01759715373957,
,17,넌 현실적이야,3,Green,B,4.608695652173913,4.766666666666667,ScrollUp,ScrollDown,Green.png,1,Neutral,Neutral,0,0,0,0,,,,,,,,,,,,,0,16,16,16,,,,,,,,,,,,,,,,,,,,,,,,,,,,,,,,,,,,,,,,,,,,,,,,,,,,,,,,,,,,,,,,,,,,,,,,,,,,,,,,,,,,,1.7546296268701553,2.025919899926521,163.73990420007613,None,ScrollUp,정답입니다,163.73990420007613,None,163.73990420007613,None,163.73990420007613,None,163.73990420007613,None,165.66114059998654,None,165.66114059998654,166.16128420003224,,,,,,,,,,,,,,,,031,2022-05-26_20h28.42.647,FishGame,2022.1.1,60.01759715373957,
,18,넌 의리있어,1,Green,B,5.833333333333334,5.633333333333334,ScrollUp,ScrollDown,Green.png,1,Positive,Incongruent,0,0,0,0,,,,,,,,,,,,,0,17,17,17,,,,,,,,,,,,,,,,,,,,,,,,,,,,,,,,,,,,,,,,,,,,,,,,,,,,,,,,,,,,,,,,,,,,,,,,,,,,,,,,,,,,,1.8086419651905696,1.044836499961093,166.781647900003,None,ScrollUp,정답입니다,166.781647900003,None,166.781647900003,None,166.781647900003,None,166.781647900003,None,167.72847640002146,None,167.72847640002146,168.2304393000668,,,,,,,,,,,,,,,,031,2022-05-26_20h28.42.647,FishGame,2022.1.1,60.01759715373957,
,19,넌 신경과민이야,5,Orange,A,2.541666666666667,2.166666666666667,ScrollDown,ScrollUp,Orange.png,1,Negative,Incongruent,0,0,0,0,,,,,,,,,,,,,0,18,18,18,,,,,,,,,,,,,,,,,,,,,,,,,,,,,,,,,,,,,,,,,,,,,,,,,,,,,,,,,,,,,,,,,,,,,,,,,,,,,,,,,,,,,1.1959876517454784,1.0939560000551865,168.8544332999736,None,ScrollDown,정답입니다,168.8544332999736,None,168.8544332999736,None,168.8544332999736,None,168.8544332999736,None,169.846799400053,None,169.846799400053,170.34686030005105,,,,,,,,,,,,,,,,031,2022-05-26_20h28.42.647,FishGame,2022.1.1,60.01759715373957,
,20,넌 편안해,1,Orange,A,5.916666666666666,5.866666666666666,ScrollDown,ScrollUp,Orange.png,1,Positive,Congruent,0,0,0,0,,,,,,,,,,,,,0,19,19,19,,,,,,,,,,,,,,,,,,,,,,,,,,,,,,,,,,,,,,,,,,,,,,,,,,,,,,,,,,,,,,,,,,,,,,,,,,,,,,,,,,,,,1.234567900498708,1.0442934000166133,170.97526149998885,None,ScrollDown,정답입니다,170.97526149998885,None,170.97526149998885,None,170.97526149998885,None,170.97526149998885,None,171.91122230002657,None,171.91122230002657,172.41133150004316,,,,,,,,,,,,,,,,031,2022-05-26_20h28.42.647,FishGame,2022.1.1,60.01759715373957,
,21,넌 품위있어,2,Green,B,5.291666666666666,4.466666666666667,ScrollUp,ScrollDown,Green.png,1,Positive,Incongruent,0,0,0,0,,,,,,,,,,,,,0,20,20,20,,,,,,,,,,,,,,,,,,,,,,,,,,,,,,,,,,,,,,,,,,,,,,,,,,,,,,,,,,,,,,,,,,,,,,,,,,,,,,,,,,,,,1.7500000099341075,1.3761672000400722,173.0382550000213,None,ScrollUp,정답입니다,173.0382550000213,None,173.0382550000213,None,173.0382550000213,None,173.0382550000213,None,174.31124970002566,None,174.31124970002566,174.81346630002372,,,,,,,,,,,,,,,,031,2022-05-26_20h28.42.647,FishGame,2022.1.1,60.01759715373957,
,22,넌 빈틈없어,3,Orange,A,4.833333333333333,3.966666666666667,ScrollDown,ScrollUp,Orange.png,1,Neutral,Neutral,0,0,0,0,,,,,,,,,,,,,0,21,21,21,,,,,,,,,,,,,,,,,,,,,,,,,,,,,,,,,,,,,,,,,,,,,,,,,,,,,,,,,,,,,,,,,,,,,,,,,,,,,,,,,,,,,1.1327160547176998,1.2110243999632075,175.43861209996976,None,ScrollDown,정답입니다,175.43861209996976,None,175.43861209996976,None,175.43861209996976,None,175.43861209996976,None,176.5446034000488,None,176.5446034000488,177.0445708000334,,,,,,,,,,,,,,,,031,2022-05-26_20h28.42.647,FishGame,2022.1.1,60.01759715373957,
,23,넌 상상력없어,4,Green,B,2.833333333333333,3.133333333333333,ScrollUp,ScrollDown,Green.png,1,Negative,Congruent,0,0,0,0,,,,,,,,,,,,,0,22,22,22,,,,,,,,,,,,,,,,,,,,,,,,,,,,,,,,,,,,,,,,,,,,,,,,,,,,,,,,,,,,,,,,,,,,,,,,,,,,,,,,,,,,,1.7762345721324284,0.844778599916026,177.6666345000267,None,ScrollUp,정답입니다,177.6666345000267,None,177.6666345000267,None,177.6666345000267,None,177.6666345000267,None,178.41112220007926,None,178.41112220007926,178.91341250005644,,,,,,,,,,,,,,,,031,2022-05-26_20h28.42.647,FishGame,2022.1.1,60.01759715373957,
,24,넌 지혜로워,2,Green,B,6.333333333333334,4.633333333333334,ScrollUp,ScrollDown,Green.png,1,Positive,Incongruent,0,0,0,0,,,,,,,,,,,,,0,23,23,23,,,,,,,,,,,,,,,,,,,,,,,,,,,,,,,,,,,,,,,,,,,,,,,,,,,,,,,,,,,,,,,,,,,,,,,,,,,,,,,,,,,,,1.8456790000200272,1.0449725999496877,179.53367310005706,None,ScrollUp,정답입니다,179.53367310005706,None,179.53367310005706,None,179.53367310005706,None,179.53367310005706,None,180.47780600003898,None,180.47780600003898,180.97793930000626,,,,,,,,,,,,,,,,031,2022-05-26_20h28.42.647,FishGame,2022.1.1,60.01759715373957,
,25,넌 시끄러워,4,Orange,A,2.833333333333333,3.033333333333333,ScrollDown,ScrollUp,Orange.png,1,Negative,Incongruent,0,0,0,0,,,,,,,,,,,,,0,24,24,24,,,,,,,,,,,,,,,,,,,,,,,,,,,,,,,,,,,,,,,,,,,,,,,,,,,,,,,,,,,,,,,,,,,,,,,,,,,,,,,,,,,,,1.1496913582086563,1.2780997999943793,181.61092930007726,None,ScrollDown,정답입니다,181.61092930007726,None,181.61092930007726,None,181.61092930007726,None,181.61092930007726,None,182.77744279999752,None,182.77744279999752,183.2775298000779,,,,,,,,,,,,,,,,031,2022-05-26_20h28.42.647,FishGame,2022.1.1,60.01759715373957,
,26,넌 만사태평이야,3,Green,B,4,4.333333333333333,ScrollUp,ScrollDown,Green.png,1,Neutral,Neutral,0,0,0,0,,,,,,,,,,,,,0,25,25,25,,,,,,,,,,,,,,,,,,,,,,,,,,,,,,,,,,,,,,,,,,,,,,,,,,,,,,,,,,,,,,,,,,,,,,,,,,,,,,,,,,,,,1.8163580348094304,0.9614721999969333,183.91322750004474,None,ScrollUp,정답입니다,183.91322750004474,None,183.91322750004474,None,183.91322750004474,None,183.91322750004474,None,184.76340290007647,None,184.76340290007647,185.26335979998112,,,,,,,,,,,,,,,,031,2022-05-26_20h28.42.647,FishGame,2022.1.1,60.01759715373957,
,27,넌 붙임성있어,1,Orange,A,5.708333333333333,5.633333333333334,ScrollDown,ScrollUp,Orange.png,1,Positive,Congruent,0,0,0,0,,,,,,,,,,,,,0,26,26,26,,,,,,,,,,,,,,,,,,,,,,,,,,,,,,,,,,,,,,,,,,,,,,,,,,,,,,,,,,,,,,,,,,,,,,,,,,,,,,,,,,,,,1.3040123408039412,1.1459588999859989,185.88391239999328,None,ScrollDown,정답입니다,185.88391239999328,None,185.88391239999328,None,185.88391239999328,None,185.88391239999328,None,186.92764390003867,None,186.92764390003867,187.42985499999486,,,,,,,,,,,,,,,,031,2022-05-26_20h28.42.647,FishGame,2022.1.1,60.01759715373957,
,28,넌 영리해,2,Orange,A,6,4.033333333333333,ScrollDown,ScrollUp,Orange.png,1,Positive,Congruent,0,0,0,0,,,,,,,,,,,,,0,27,27,27,,,,,,,,,,,,,,,,,,,,,,,,,,,,,,,,,,,,,,,,,,,,,,,,,,,,,,,,,,,,,,,,,,,,,,,,,,,,,,,,,,,,,1.253086417913437,0.9932344000553712,188.05086109996773,None,ScrollDown,정답입니다,188.05086109996773,None,188.05086109996773,None,188.05086109996773,None,188.05086109996773,None,188.94428860000335,None,188.94428860000335,189.446435400052,,,,,,,,,,,,,,,,031,2022-05-26_20h28.42.647,FishGame,2022.1.1,60.01759715373957,
,29,넌 열심이야,1,Green,B,6.041666666666667,5.833333333333333,ScrollUp,ScrollDown,Green.png,1,Positive,Incongruent,0,0,0,0,,,,,,,,,,,,,0,28,28,28,,,,,,,,,,,,,,,,,,,,,,,,,,,,,,,,,,,,,,,,,,,,,,,,,,,,,,,,,,,,,,,,,,,,,,,,,,,,,,,,,,,,,1.6064814875523248,1.0950158999767154,190.0680333999917,None,ScrollUp,정답입니다,190.0680333999917,None,190.0680333999917,None,190.0680333999917,None,190.0680333999917,None,191.06087719998322,None,191.06087719998322,191.5630731000565,,,,,,,,,,,,,,,,031,2022-05-26_20h28.42.647,FishGame,2022.1.1,60.01759715373957,
,30,넌 인기없어,4,Green,B,3,3.3,ScrollUp,ScrollDown,Green.png,1,Negative,Congruent,0,0,0,0,,,,,,,,,,,,,0,29,29,29,,,,,,,,,,,,,,,,,,,,,,,,,,,,,,,,,,,,,,,,,,,,,,,,,,,,,,,,,,,,,,,,,,,,,,,,,,,,,,,,,,,,,1.6820987711350122,1.4230695000151172,192.18524919997435,None,ScrollUp,정답입니다,192.18524919997435,None,192.18524919997435,None,192.18524919997435,None,192.18524919997435,None,193.50616840005387,None,193.50616840005387,194.0106535999803,,,,,,,,,,,,,,,,031,2022-05-26_20h28.42.647,FishGame,2022.1.1,60.01759715373957,
,31,넌 익살스러워,3,Orange,A,4.708333333333334,4.833333333333333,ScrollDown,ScrollUp,Orange.png,1,Neutral,Neutral,0,0,0,0,,,,,,,,,,,,,0,30,30,30,,,,,,,,,,,,,,,,,,,,,,,,,,,,,,,,,,,,,,,,,,,,,,,,,,,,,,,,,,,,,,,,,,,,,,,,,,,,,,,,,,,,,1.3271604999899864,1.0281371999299154,194.63408640003763,None,ScrollDown,정답입니다,194.63408640003763,None,194.63408640003763,None,194.63408640003763,None,194.63408640003763,None,195.56059290003031,None,195.56059290003031,196.06063880003057,,,,,,,,,,,,,,,,031,2022-05-26_20h28.42.647,FishGame,2022.1.1,60.01759715373957,
,32,넌 이기적이야,5,Green,B,2.291666666666667,2.333333333333333,ScrollUp,ScrollDown,Green.png,1,Negative,Congruent,0,0,0,0,,,,,,,,,,,,,0,31,31,31,,,,,,,,,,,,,,,,,,,,,,,,,,,,,,,,,,,,,,,,,,,,,,,,,,,,,,,,,,,,,,,,,,,,,,,,,,,,,,,,,,,,,1.9737654328346252,0.9642702999990433,196.68098299996927,None,ScrollUp,정답입니다,196.68098299996927,None,196.68098299996927,None,196.68098299996927,None,196.68098299996927,None,197.5465175000718,None,197.5465175000718,198.046464700019,,,,,,,,,,,,,,,,031,2022-05-26_20h28.42.647,FishGame,2022.1.1,60.01759715373957,
,33,나를 데려가줘,6,Green,B,0,0,ScrollDown,ScrollUp,Green.png,1,NonTarget,NonTarget,0,0,0,0,,,,,,,,,,,,,0,32,32,32,,,,,,,,,,,,,,,,,,,,,,,,,,,,,,,,,,,,,,,,,,,,,,,,,,,,,,,,,,,,,,,,,,,,,,,,,,,,,,,,,,,,,1.7947530895471573,0.8464395999908447,198.663587499992,None,ScrollUp,오답입니다,198.663587499992,None,198.663587499992,None,198.663587499992,None,198.663587499992,None,199.4131632000208,None,199.4131632000208,199.91618599998765,,,,,,,,,,,,,,,,031,2022-05-26_20h28.42.647,FishGame,2022.1.1,60.01759715373957,
,34,넌 기회주의자야,5,Orange,A,2.875,2.133333333333333,ScrollDown,ScrollUp,Orange.png,1,Negative,Incongruent,0,0,0,0,,,,,,,,,,,,,0,33,33,33,,,,,,,,,,,,,,,,,,,,,,,,,,,,,,,,,,,,,,,,,,,,,,,,,,,,,,,,,,,,,,,,,,,,,,,,,,,,,,,,,,,,,1.347222218910853,1.1114196000853553,200.5335951000452,None,ScrollDown,정답입니다,200.5335951000452,None,200.5335951000452,None,200.5335951000452,None,200.5335951000452,None,201.54401589999907,None,201.54401589999907,202.04627489997074,,,,,,,,,,,,,,,,031,2022-05-26_20h28.42.647,FishGame,2022.1.1,60.01759715373957,
,1,넌 미성숙해,4,Orange,A,3,3.2,ScrollDown,ScrollUp,Orange.png,2,Negative,Incongruent,0,0,0,0,,,,,,,,,,,,,,,,,0,0,0,0,,,,,,,,,,,,,,,,,,,,,,,,,,,,,,,,,,,,,,,,236.89352450007573,238.39556860004086,238.42895490000956,239.37894289998803,239.42659330007154,240.37899750005454,240.37899750005454,None,,,,,,,,,,,,,,,,,,,,,,,,,,,,,,,,,,1.0339506367842357,2.5806917999871075,241.47932639997452,None,ScrollDown,정답입니다,241.47932639997452,None,241.47932639997452,None,241.47932639997452,None,241.47932639997452,None,243.95976890006568,None,243.95976890006568,244.45968880003784,202.54626249999274,None,202.54626249999274,None,0.10277778,-0.09259259,1,0,0,0.015903460094705224,None,232.5455014000181,None,,,031,2022-05-26_20h28.42.647,FishGame,2022.1.1,60.01759715373957,
,2,넌 반사회적이야,5,Green,B,2.416666666666667,2.033333333333333,ScrollUp,ScrollDown,Green.png,2,Negative,Congruent,0,0,0,0,,,,,,,,,,,,,,,,,0,1,1,1,,,,,,,,,,,,,,,,,,,,,,,,,,,,,,,,,,,,,,,,,,,,,,,,,,,,,,,,,,,,,,,,,,,,,,,,,,,,,,,,,1.8364197413126628,1.7277926000533625,245.07997089996934,None,ScrollUp,정답입니다,245.07997089996934,None,245.07997089996934,None,245.07997089996934,None,245.07997089996934,None,246.71195889997762,None,246.71195889997762,247.21208229998592,,,,,,,,,,,,,,,,031,2022-05-26_20h28.42.647,FishGame,2022.1.1,60.01759715373957,
,3,넌 유능해,2,Orange,A,6.208333333333333,4.433333333333334,ScrollDown,ScrollUp,Orange.png,2,Positive,Congruent,0,0,0,0,,,,,,,,,,,,,,,,,0,2,2,2,,,,,,,,,,,,,,,,,,,,,,,,,,,,,,,,,,,,,,,,,,,,,,,,,,,,,,,,,,,,,,,,,,,,,,,,,,,,,,,,,1.1558641890684764,1.256180200027302,247.8689760999987,None,ScrollDown,정답입니다,247.8689760999987,None,247.8689760999987,None,247.8689760999987,None,247.8689760999987,None,249.0094289999688,None,249.0094289999688,249.5094968000194,,,,,,,,,,,,,,,,031,2022-05-26_20h28.42.647,FishGame,2022.1.1,60.01759715373957,
,4,넌 능숙해,2,Green,B,5.666666666666667,4.733333333333333,ScrollUp,ScrollDown,Green.png,2,Positive,Incongruent,0,0,0,0,,,,,,,,,,,,,,,,,0,3,3,3,,,,,,,,,,,,,,,,,,,,,,,,,,,,,,,,,,,,,,,,,,,,,,,,,,,,,,,,,,,,,,,,,,,,,,,,,,,,,,,,,1.7561728407939274,1.1617882000282407,250.12851589999627,None,ScrollUp,정답입니다,250.12851589999627,None,250.12851589999627,None,250.12851589999627,None,250.12851589999627,None,251.19525099999737,None,251.19525099999737,251.69531049998477,,,,,,,,,,,,,,,,031,2022-05-26_20h28.42.647,FishGame,2022.1.1,60.01759715373957,
,5,넌 진부해,4,Green,B,2.458333333333333,3.166666666666667,ScrollUp,ScrollDown,Green.png,2,Negative,Congruent,0,0,0,0,,,,,,,,,,,,,,,,,0,4,4,4,,,,,,,,,,,,,,,,,,,,,,,,,,,,,,,,,,,,,,,,,,,,,,,,,,,,,,,,,,,,,,,,,,,,,,,,,,,,,,,,,1.9274691144625347,1.1099717000033706,252.31193249998614,None,ScrollUp,정답입니다,252.31193249998614,None,252.31193249998614,None,252.31193249998614,None,252.31193249998614,None,253.3215973000042,None,253.3215973000042,253.82631709997077,,,,,,,,,,,,,,,,031,2022-05-26_20h28.42.647,FishGame,2022.1.1,60.01759715373957,
,6,나를 보내줘,6,Orange,A,0,0,ScrollUp,ScrollDown,Orange.png,2,NonTarget,NonTarget,0,0,0,0,,,,,,,,,,,,,,,,,0,5,5,5,,,,,,,,,,,,,,,,,,,,,,,,,,,,,,,,,,,,,,,,,,,,,,,,,,,,,,,,,,,,,,,,,,,,,,,,,,,,,,,,,1.9259259502092998,1.3430033000186086,254.4496552000055,None,ScrollUp,정답입니다,254.4496552000055,None,254.4496552000055,None,254.4496552000055,None,254.4496552000055,None,255.6929228999652,None,255.6929228999652,256.1950924000703,,,,,,,,,,,,,,,,031,2022-05-26_20h28.42.647,FishGame,2022.1.1,60.01759715373957,
,7,넌 엄격해,3,Orange,A,4.166666666666666,4.1,ScrollDown,ScrollUp,Orange.png,2,Neutral,Neutral,0,0,0,0,,,,,,,,,,,,,,,,,0,6,6,6,,,,,,,,,,,,,,,,,,,,,,,,,,,,,,,,,,,,,,,,,,,,,,,,,,,,,,,,,,,,,,,,,,,,,,,,,,,,,,,,,1.2854938358068466,1.2091387000400573,256.8360722999787,None,ScrollDown,정답입니다,256.8360722999787,None,256.8360722999787,None,256.8360722999787,None,256.8360722999787,None,257.92616949998774,None,257.92616949998774,258.4283142000204,,,,,,,,,,,,,,,,031,2022-05-26_20h28.42.647,FishGame,2022.1.1,60.01759715373957,
,8,나를 보내줘,6,Orange,A,0,0,ScrollUp,ScrollDown,Orange.png,2,NonTarget,NonTarget,0,0,0,0,,,,,,,,,,,,,,,,,0,7,7,7,,,,,,,,,,,,,,,,,,,,,,,,,,,,,,,,,,,,,,,,,,,,,,,,,,,,,,,,,,,,,,,,,,,,,,,,,,,,,,,,,1.5679012325902781,1.1946568000130355,259.04552380007226,None,ScrollUp,정답입니다,259.04552380007226,None,259.04552380007226,None,259.04552380007226,None,259.04552380007226,None,260.14281270001084,None,260.14281270001084,260.6451466999715,,,,,,,,,,,,,,,,031,2022-05-26_20h28.42.647,FishGame,2022.1.1,60.01759715373957,
,9,넌 대담해,3,Green,B,4.875,4.866666666666666,ScrollUp,ScrollDown,Green.png,2,Neutral,Neutral,0,0,0,0,,,,,,,,,,,,,,,,,0,8,8,8,,,,,,,,,,,,,,,,,,,,,,,,,,,,,,,,,,,,,,,,,,,,,,,,,,,,,,,,,,,,,,,,,,,,,,,,,,,,,,,,,1.9074074079593022,1.7262350000673905,261.2644522000337,None,ScrollUp,정답입니다,261.2644522000337,None,261.2644522000337,None,261.2644522000337,None,261.2644522000337,None,262.89491999999154,None,262.89491999999154,263.4094604999991,,,,,,,,,,,,,,,,031,2022-05-26_20h28.42.647,FishGame,2022.1.1,60.01759715373957,
,10,넌 꾸준해,1,Orange,A,5.916666666666668,5.8,ScrollDown,ScrollUp,Orange.png,2,Positive,Congruent,0,0,0,0,,,,,,,,,,,,,,,,,0,9,9,9,,,,,,,,,,,,,,,,,,,,,,,,,,,,,,,,,,,,,,,,,,,,,,,,,,,,,,,,,,,,,,,,,,,,,,,,,,,,,,,,,1.3070987686514854,1.359342599986121,264.0211704999674,None,ScrollDown,정답입니다,264.0211704999674,None,264.0211704999674,None,264.0211704999674,None,264.0211704999674,None,265.2761208000593,None,265.2761208000593,265.7783126999857,,,,,,,,,,,,,,,,031,2022-05-26_20h28.42.647,FishGame,2022.1.1,60.01759715373957,
,11,나를 데려가줘,6,Green,B,0,0,ScrollDown,ScrollUp,Green.png,2,NonTarget,NonTarget,0,0,0,0,,,,,,,,,,,,,,,,,0,10,10,10,,,,,,,,,,,,,,,,,,,,,,,,,,,,,,,,,,,,,,,,,,,,,,,,,,,,,,,,,,,,,,,,,,,,,,,,,,,,,,,,,1.2654321044683456,1.3622349000070244,266.39537040004507,None,ScrollDown,정답입니다,266.39537040004507,None,266.39537040004507,None,266.39537040004507,None,266.39537040004507,None,267.6595955999801,None,267.6595955999801,268.16146029997617,,,,,,,,,,,,,,,,031,2022-05-26_20h28.42.647,FishGame,2022.1.1,60.01759715373957,
,12,넌 독선적이야,5,Orange,A,2.458333333333333,1.933333333333333,ScrollDown,ScrollUp,Orange.png,2,Negative,Incongruent,0,0,0,0,,,,,,,,,,,,,,,,,0,11,11,11,,,,,,,,,,,,,,,,,,,,,,,,,,,,,,,,,,,,,,,,,,,,,,,,,,,,,,,,,,,,,,,,,,,,,,,,,,,,,,,,,1.345679017404715,1.3439881999511272,268.78329150006175,None,ScrollDown,정답입니다,268.78329150006175,None,268.78329150006175,None,268.78329150006175,None,268.78329150006175,None,270.02595989999827,None,270.02595989999827,270.52820110006724,,,,,,,,,,,,,,,,031,2022-05-26_20h28.42.647,FishGame,2022.1.1,60.01759715373957,
,13,나를 보내줘,6,Orange,A,0,0,ScrollUp,ScrollDown,Orange.png,2,NonTarget,NonTarget,0,0,0,0,,,,,,,,,,,,,,,,,0,12,12,12,,,,,,,,,,,,,,,,,,,,,,,,,,,,,,,,,,,,,,,,,,,,,,,,,,,,,,,,,,,,,,,,,,,,,,,,,,,,,,,,,1.8271604826052983,1.2921874999301508,271.15306879999116,None,ScrollUp,정답입니다,271.15306879999116,None,271.15306879999116,None,271.15306879999116,None,271.15306879999116,None,272.3424946999876,None,272.3424946999876,272.84471670002677,,,,,,,,,,,,,,,,031,2022-05-26_20h28.42.647,FishGame,2022.1.1,60.01759715373957,
,14,넌 책임감있어,1,Green,B,6.347826086956522,6,ScrollUp,ScrollDown,Green.png,2,Positive,Incongruent,0,0,0,0,,,,,,,,,,,,,,,,,0,13,13,13,,,,,,,,,,,,,,,,,,,,,,,,,,,,,,,,,,,,,,,,,,,,,,,,,,,,,,,,,,,,,,,,,,,,,,,,,,,,,,,,,1.6311728358268738,1.3922177000204101,273.46968600002583,None,ScrollUp,정답입니다,273.46968600002583,None,273.46968600002583,None,273.46968600002583,None,273.46968600002583,None,274.75919660006184,None,274.75919660006184,275.26137920003384,,,,,,,,,,,,,,,,031,2022-05-26_20h28.42.647,FishGame,2022.1.1,60.01759715373957,
,15,넌 문학적이야,3,Orange,A,4.708333333333334,4.333333333333333,ScrollDown,ScrollUp,Orange.png,2,Neutral,Neutral,0,0,0,0,,,,,,,,,,,,,,,,,0,14,14,14,,,,,,,,,,,,,,,,,,,,,,,,,,,,,,,,,,,,,,,,,,,,,,,,,,,,,,,,,,,,,,,,,,,,,,,,,,,,,,,,,1.3641975348194442,1.2760834998916835,275.88802539999597,None,ScrollDown,정답입니다,275.88802539999597,None,275.88802539999597,None,275.88802539999597,None,275.88802539999597,None,277.05908879998606,None,277.05908879998606,277.55916569998953,,,,,,,,,,,,,,,,031,2022-05-26_20h28.42.647,FishGame,2022.1.1,60.01759715373957,
,16,넌 재미있어,1,Green,B,5.875,5.7,ScrollUp,ScrollDown,Green.png,2,Positive,Incongruent,0,0,0,0,,,,,,,,,,,,,,,,,0,15,15,15,,,,,,,,,,,,,,,,,,,,,,,,,,,,,,,,,,,,,,,,,,,,,,,,,,,,,,,,,,,,,,,,,,,,,,,,,,,,,,,,,1.6033950597047806,1.275988999987021,278.17971270007547,None,ScrollUp,정답입니다,278.17971270007547,None,278.17971270007547,None,278.17971270007547,None,278.17971270007547,None,279.3590881000273,None,279.3590881000273,279.8613290999783,,,,,,,,,,,,,,,,031,2022-05-26_20h28.42.647,FishGame,2022.1.1,60.01759715373957,
,17,나를 데려가줘,6,Green,B,0,0,ScrollDown,ScrollUp,Green.png,2,NonTarget,NonTarget,0,0,0,0,,,,,,,,,,,,,,,,,0,16,16,16,,,,,,,,,,,,,,,,,,,,,,,,,,,,,,,,,,,,,,,,,,,,,,,,,,,,,,,,,,,,,,,,,,,,,,,,,,,,,,,,,1.200617293516795,1.2272551999194548,280.47729050007183,None,ScrollDown,정답입니다,280.47729050007183,None,280.47729050007183,None,280.47729050007183,None,280.47729050007183,None,281.6090024000732,None,281.6090024000732,282.10906310006976,,,,,,,,,,,,,,,,031,2022-05-26_20h28.42.647,FishGame,2022.1.1,60.01759715373957,
,18,넌 협력적이야,1,Orange,A,5.625,5.633333333333334,ScrollDown,ScrollUp,Orange.png,2,Positive,Congruent,0,0,0,0,,,,,,,,,,,,,,,,,0,17,17,17,,,,,,,,,,,,,,,,,,,,,,,,,,,,,,,,,,,,,,,,,,,,,,,,,,,,,,,,,,,,,,,,,,,,,,,,,,,,,,,,,1.410493828356266,1.6276317000156268,282.73100390005857,None,ScrollDown,정답입니다,282.73100390005857,None,282.73100390005857,None,282.73100390005857,None,282.73100390005857,None,284.2589969000546,None,284.2589969000546,284.7590425000526,,,,,,,,,,,,,,,,031,2022-05-26_20h28.42.647,FishGame,2022.1.1,60.01759715373957,
,19,넌 평범해,3,Green,B,4.333333333333332,4.233333333333333,ScrollUp,ScrollDown,Green.png,2,Neutral,Neutral,0,0,0,0,,,,,,,,,,,,,,,,,0,18,18,18,,,,,,,,,,,,,,,,,,,,,,,,,,,,,,,,,,,,,,,,,,,,,,,,,,,,,,,,,,,,,,,,,,,,,,,,,,,,,,,,,1.6728395000100136,1.5590553000802174,285.3816594000673,None,ScrollUp,정답입니다,285.3816594000673,None,285.3816594000673,None,285.3816594000673,None,285.3816594000673,None,286.8419834000524,None,286.8419834000524,287.34204869996756,,,,,,,,,,,,,,,,031,2022-05-26_20h28.42.647,FishGame,2022.1.1,60.01759715373957,
,20,넌 오만해,5,Orange,A,2.333333333333333,2,ScrollDown,ScrollUp,Orange.png,2,Negative,Incongruent,0,0,0,0,,,,,,,,,,,,,,,,,0,19,19,19,,,,,,,,,,,,,,,,,,,,,,,,,,,,,,,,,,,,,,,,,,,,,,,,,,,,,,,,,,,,,,,,,,,,,,,,,,,,,,,,,1.2638888905445733,1.2949125000741333,287.96612150000874,None,ScrollDown,정답입니다,287.96612150000874,None,287.96612150000874,None,287.96612150000874,None,287.96612150000874,None,289.1611764000263,None,289.1611764000263,289.66128310002387,,,,,,,,,,,,,,,,031,2022-05-26_20h28.42.647,FishGame,2022.1.1,60.01759715373957,
,21,넌 운이없어,4,Green,B,3,3.466666666666667,ScrollUp,ScrollDown,Green.png,2,Negative,Congruent,0,0,0,0,,,,,,,,,,,,,,,,,0,20,20,20,,,,,,,,,,,,,,,,,,,,,,,,,,,,,,,,,,,,,,,,,,,,,,,,,,,,,,,,,,,,,,,,,,,,,,,,,,,,,,,,,1.766975313425064,1.4271724000573158,290.2859276999952,None,ScrollUp,정답입니다,290.2859276999952,None,290.2859276999952,None,290.2859276999952,None,290.2859276999952,None,291.6085447999649,None,291.6085447999649,292.108612800017,,,,,,,,,,,,,,,,031,2022-05-26_20h28.42.647,FishGame,2022.1.1,60.01759715373957,
,22,넌 창조적이야,2,Green,B,6.125,4.633333333333334,ScrollUp,ScrollDown,Green.png,2,Positive,Incongruent,0,0,0,0,,,,,,,,,,,,,,,,,0,21,21,21,,,,,,,,,,,,,,,,,,,,,,,,,,,,,,,,,,,,,,,,,,,,,,,,,,,,,,,,,,,,,,,,,,,,,,,,,,,,,,,,,1.8009259204069774,1.3615979999303818,292.7319290000014,None,ScrollUp,정답입니다,292.7319290000014,None,292.7319290000014,None,292.7319290000014,None,292.7319290000014,None,293.99443750001956,None,293.99443750001956,294.49452910001855,,,,,,,,,,,,,,,,031,2022-05-26_20h28.42.647,FishGame,2022.1.1,60.01759715373957,
,23,나를 보내줘,6,Orange,A,0,0,ScrollUp,ScrollDown,Orange.png,2,NonTarget,NonTarget,0,0,0,0,,,,,,,,,,,,,,,,,0,22,22,22,,,,,,,,,,,,,,,,,,,,,,,,,,,,,,,,,,,,,,,,,,,,,,,,,,,,,,,,,,,,,,,,,,,,,,,,,,,,,,,,,1.6033950597047806,1.1790484000230208,295.1103956999723,None,ScrollUp,정답입니다,295.1103956999723,None,295.1103956999723,None,295.1103956999723,None,295.1103956999723,None,296.1917816000059,None,296.1917816000059,296.69185010006186,,,,,,,,,,,,,,,,031,2022-05-26_20h28.42.647,FishGame,2022.1.1,60.01759715373957,
,24,넌 통찰력있어,2,Orange,A,6.5,4.8,ScrollDown,ScrollUp,Orange.png,2,Positive,Congruent,0,0,0,0,,,,,,,,,,,,,,,,,0,23,23,23,,,,,,,,,,,,,,,,,,,,,,,,,,,,,,,,,,,,,,,,,,,,,,,,,,,,,,,,,,,,,,,,,,,,,,,,,,,,,,,,,1.3688271641731262,0.9949441000353545,297.32123090000823,None,ScrollDown,정답입니다,297.32123090000823,None,297.32123090000823,None,297.32123090000823,None,297.32123090000823,None,298.2084545000689,None,298.2084545000689,298.7110720999772,,,,,,,,,,,,,,,,031,2022-05-26_20h28.42.647,FishGame,2022.1.1,60.01759715373957,
,25,넌 경솔해,5,Green,B,2.458333333333333,2.266666666666667,ScrollUp,ScrollDown,Green.png,2,Negative,Congruent,0,0,0,0,,,,,,,,,,,,,,,,,0,24,24,24,,,,,,,,,,,,,,,,,,,,,,,,,,,,,,,,,,,,,,,,,,,,,,,,,,,,,,,,,,,,,,,,,,,,,,,,,,,,,,,,,1.785493830839793,1.1832993000280112,299.33717359998263,None,ScrollUp,정답입니다,299.33717359998263,None,299.33717359998263,None,299.33717359998263,None,299.33717359998263,None,300.4156097000232,None,300.4156097000232,300.9253463000059,,,,,,,,,,,,,,,,031,2022-05-26_20h28.42.647,FishGame,2022.1.1,60.01759715373957,
,26,넌 초조해,4,Orange,A,2.916666666666667,3.133333333333333,ScrollDown,ScrollUp,Orange.png,2,Negative,Incongruent,0,0,0,0,,,,,,,,,,,,,,,,,0,25,25,25,,,,,,,,,,,,,,,,,,,,,,,,,,,,,,,,,,,,,,,,,,,,,,,,,,,,,,,,,,,,,,,,,,,,,,,,,,,,,,,,,1.3981481480101745,0.9949900000356138,301.5495402000379,None,ScrollDown,정답입니다,301.5495402000379,None,301.5495402000379,None,301.5495402000379,None,301.5495402000379,None,302.44190470001195,None,302.44190470001195,302.9441703000339,,,,,,,,,,,,,,,,031,2022-05-26_20h28.42.647,FishGame,2022.1.1,60.01759715373957,
,27,넌 무관심해,4,Green,B,2.833333333333333,2.9,ScrollUp,ScrollDown,Green.png,2,Negative,Congruent,0,0,0,0,,,,,,,,,,,,,,,,,0,26,26,26,,,,,,,,,,,,,,,,,,,,,,,,,,,,,,,,,,,,,,,,,,,,,,,,,,,,,,,,,,,,,,,,,,,,,,,,,,,,,,,,,1.9953703780968983,1.0590630000224337,303.56342590006534,None,ScrollUp,정답입니다,303.56342590006534,None,303.56342590006534,None,303.56342590006534,None,303.56342590006534,None,304.52736950002145,None,304.52736950002145,305.02749420003965,,,,,,,,,,,,,,,,031,2022-05-26_20h28.42.647,FishGame,2022.1.1,60.01759715373957,
,28,넌 감성적이야,3,Green,B,4.125,4.166666666666667,ScrollUp,ScrollDown,Green.png,2,Neutral,Neutral,0,0,0,0,,,,,,,,,,,,,,,,,0,27,27,27,,,,,,,,,,,,,,,,,,,,,,,,,,,,,,,,,,,,,,,,,,,,,,,,,,,,,,,,,,,,,,,,,,,,,,,,,,,,,,,,,1.6604938258727393,0.9259320999262854,305.6448518000543,None,ScrollUp,정답입니다,305.6448518000543,None,305.6448518000543,None,305.6448518000543,None,305.6448518000543,None,306.4751168000512,None,306.4751168000512,306.97521229996346,,,,,,,,,,,,,,,,031,2022-05-26_20h28.42.647,FishGame,2022.1.1,60.01759715373957,
,29,넌 배려심있어,1,Orange,A,6.083333333333333,5.5,ScrollDown,ScrollUp,Orange.png,2,Positive,Congruent,0,0,0,0,,,,,,,,,,,,,,,,,0,28,28,28,,,,,,,,,,,,,,,,,,,,,,,,,,,,,,,,,,,,,,,,,,,,,,,,,,,,,,,,,,,,,,,,,,,,,,,,,,,,,,,,,1.0709876716136932,1.7094149000477046,307.5997812000569,None,ScrollDown,정답입니다,307.5997812000569,None,307.5997812000569,None,307.5997812000569,None,307.5997812000569,None,309.2083143000491,None,309.2083143000491,309.7106829000404,,,,,,,,,,,,,,,,031,2022-05-26_20h28.42.647,FishGame,2022.1.1,60.01759715373957,
,30,넌 숨김없어,3,Orange,A,4.5,4.933333333333334,ScrollDown,ScrollUp,Orange.png,2,Neutral,Neutral,0,0,0,0,,,,,,,,,,,,,,,,,0,29,29,29,,,,,,,,,,,,,,,,,,,,,,,,,,,,,,,,,,,,,,,,,,,,,,,,,,,,,,,,,,,,,,,,,,,,,,,,,,,,,,,,,1.3348765447735786,1.0610811000224203,310.3321116999723,None,ScrollDown,정답입니다,310.3321116999723,None,310.3321116999723,None,310.3321116999723,None,310.3321116999723,None,311.29170110006817,None,311.29170110006817,311.79392850003205,,,,,,,,,,,,,,,,031,2022-05-26_20h28.42.647,FishGame,2022.1.1,60.01759715373957,
,31,넌 훌륭해,2,Green,B,5.916666666666667,4.033333333333333,ScrollUp,ScrollDown,Green.png,2,Positive,Incongruent,0,0,0,0,,,,,,,,,,,,,,,,,0,30,30,30,,,,,,,,,,,,,,,,,,,,,,,,,,,,,,,,,,,,,,,,,,,,,,,,,,,,,,,,,,,,,,,,,,,,,,,,,,,,,,,,,1.652777781089147,0.8930740000214428,312.4133939000312,None,ScrollUp,정답입니다,312.4133939000312,None,312.4133939000312,None,312.4133939000312,None,312.4133939000312,None,313.2084275999805,None,313.2084275999805,313.71056579996366,,,,,,,,,,,,,,,,031,2022-05-26_20h28.42.647,FishGame,2022.1.1,60.01759715373957,
,32,넌 슬기로워,2,Orange,A,6.166666666666667,4.1,ScrollDown,ScrollUp,Orange.png,2,Positive,Congruent,0,0,0,0,,,,,,,,,,,,,,,,,0,31,31,31,,,,,,,,,,,,,,,,,,,,,,,,,,,,,,,,,,,,,,,,,,,,,,,,,,,,,,,,,,,,,,,,,,,,,,,,,,,,,,,,,1.3348765447735786,1.075898400042206,314.33331600006204,None,ScrollDown,정답입니다,314.33331600006204,None,314.33331600006204,None,314.33331600006204,None,314.33331600006204,None,315.3083756000269,None,315.3083756000269,315.8083769000368,,,,,,,,,,,,,,,,031,2022-05-26_20h28.42.647,FishGame,2022.1.1,60.01759715373957,
,33,넌 냉혹해,5,Orange,A,2.583333333333333,2.1,ScrollDown,ScrollUp,Orange.png,2,Negative,Incongruent,0,0,0,0,,,,,,,,,,,,,,,,,0,32,32,32,,,,,,,,,,,,,,,,,,,,,,,,,,,,,,,,,,,,,,,,,,,,,,,,,,,,,,,,,,,,,,,,,,,,,,,,,,,,,,,,,1.2052469104528427,0.9758936000289395,316.4386132999789,None,ScrollDown,정답입니다,316.4386132999789,None,316.4386132999789,None,316.4386132999789,None,316.4386132999789,None,317.310490700067,None,317.310490700067,317.8105288000079,,,,,,,,,,,,,,,,031,2022-05-26_20h28.42.647,FishGame,2022.1.1,60.01759715373957,
,34,나를 데려가줘,6,Green,B,0,0,ScrollDown,ScrollUp,Green.png,2,NonTarget,NonTarget,0,0,0,0,,,,,,,,,,,,,,,,,0,33,33,33,,,,,,,,,,,,,,,,,,,,,,,,,,,,,,,,,,,,,,,,,,,,,,,,,,,,,,,,,,,,,,,,,,,,,,,,,,,,,,,,,1.3981481480101745,0.9102948000654578,318.4291019999655,None,ScrollDown,정답입니다,318.4291019999655,None,318.4291019999655,None,318.4291019999655,None,318.4291019999655,None,319.2416032999754,None,319.2416032999754,319.7438363999827,,,,,,,,,,,,,,,,031,2022-05-26_20h28.42.647,FishGame,2022.1.1,60.01759715373957,
,35,넌 편파적이야,5,Green,B,2.125,2,ScrollUp,ScrollDown,Green.png,2,Negative,Congruent,0,0,0,0,,,,,,,,,,,,,,,,,0,34,34,34,,,,,,,,,,,,,,,,,,,,,,,,,,,,,,,,,,,,,,,,,,,,,,,,,,,,,,,,,,,,,,,,,,,,,,,,,,,,,,,,,1.7885802586873372,1.1263647000305355,320.3673538999865,None,ScrollUp,정답입니다,320.3673538999865,None,320.3673538999865,None,320.3673538999865,None,320.3673538999865,None,321.3915658000624,None,321.3915658000624,321.89154750003945,,,,,,,,,,,,,,,,031,2022-05-26_20h28.42.647,FishGame,2022.1.1,60.01759715373957,
,36,넌 슬퍼,4,Orange,A,2.583333333333333,3.066666666666667,ScrollDown,ScrollUp,Orange.png,2,Negative,Incongruent,0,0,0,0,,,,,,,,,,,,,,,,,0,35,35,35,,,,,,,,,,,,,,,,,,,,,,,,,,,,,,,,,,,,,,,,,,,,,,,,,,,,,,,,,,,,,,,,,,,,,,,,,,,,,,,,,1.3271604999899864,1.3593592999968678,322.5171961999731,None,ScrollDown,정답입니다,322.5171961999731,None,322.5171961999731,None,322.5171961999731,None,322.5171961999731,None,323.7748792000348,None,323.7748792000348,324.2770561000798,,,,,,,,,,,,,,,,031,2022-05-26_20h28.42.647,FishGame,2022.1.1,60.01759715373957,
,37,나를 데려가줘,6,Green,B,0,0,ScrollDown,ScrollUp,Green.png,2,NonTarget,NonTarget,0,0,0,0,,,,,,,,,,,,,,,,,0,36,36,36,,,,,,,,,,,,,,,,,,,,,,,,,,,,,,,,,,,,,,,,,,,,,,,,,,,,,,,,,,,,,,,,,,,,,,,,,,,,,,,,,1.387345681587855,1.326996500021778,324.8932688999921,None,ScrollDown,정답입니다,324.8932688999921,None,324.8932688999921,None,324.8932688999921,None,324.8932688999921,None,326.1245022000512,None,326.1245022000512,326.6245707999915,,,,,,,,,,,,,,,,031,2022-05-26_20h28.42.647,FishGame,2022.1.1,60.01759715373957,
,38,넌 친절해,1,Green,B,6.041666666666667,5.533333333333333,ScrollUp,ScrollDown,Green.png,2,Positive,Incongruent,0,0,0,0,,,,,,,,,,,,,,,,,0,37,37,37,,,,,,,,,,,,,,,,,,,,,,,,,,,,,,,,,,,,,,,,,,,,,,,,,,,,,,,,,,,,,,,,,,,,,,,,,,,,,,,,,1.6712962985038757,1.3118770000291988,327.24733060004655,None,ScrollUp,정답입니다,327.24733060004655,None,327.24733060004655,None,327.24733060004655,None,327.24733060004655,None,328.4582056000363,None,328.4582056000363,328.9603934000479,,,,,,,,,,,,,,,,031,2022-05-26_20h28.42.647,FishGame,2022.1.1,60.01759715373957,
,1,넌 엉성해,4,Orange,A,3,3.3,ScrollDown,ScrollUp,Orange.png,3,Negative,Incongruent,0,0,0,0,,,,,,,,,,,,,,,,,,,,,0,0,0,0,,,,,,,,,,,,,,,,,,,,,,,,,,,,,,,,,,,,371.6094470999669,373.10955960000865,373.14290269999765,374.0928762999829,374.14289630006533,375.10947759996634,375.0927480000537,None,,,,,,,,,,,,,,,,,,,,,,,,,,,,,,,,,,1.0879629751046498,1.595722600002773,376.1940968000563,None,ScrollDown,정답입니다,376.1940968000563,None,376.1940968000563,None,376.1940968000563,None,376.1940968000563,None,377.6926032999763,None,377.6926032999763,378.19265730003826,329.4604887000751,None,329.4604887000751,None,0.10092592,-0.108333334,1,0,0,0.016219260054640472,None,359.47411479998846,None,,,031,2022-05-26_20h28.42.647,FishGame,2022.1.1,60.01759715373957,
,2,나를 보내줘,6,Orange,A,0,0,ScrollUp,ScrollDown,Orange.png,3,NonTarget,NonTarget,0,0,0,0,,,,,,,,,,,,,,,,,,,,,0,1,1,1,,,,,,,,,,,,,,,,,,,,,,,,,,,,,,,,,,,,,,,,,,,,,,,,,,,,,,,,,,,,,,,,,,,,,,,,,,,,,1.6712962985038757,1.1422475000144914,378.81721260002814,None,ScrollUp,정답입니다,378.81721260002814,None,378.81721260002814,None,378.81721260002814,None,378.81721260002814,None,379.8569639000343,None,379.8569639000343,380.3591768000042,,,,,,,,,,,,,,,,031,2022-05-26_20h28.42.647,FishGame,2022.1.1,60.01759715373957,
,3,넌 활발해,1,Green,B,5.666666666666667,5.6,ScrollUp,ScrollDown,Green.png,3,Positive,Incongruent,0,0,0,0,,,,,,,,,,,,,,,,,,,,,0,2,2,2,,,,,,,,,,,,,,,,,,,,,,,,,,,,,,,,,,,,,,,,,,,,,,,,,,,,,,,,,,,,,,,,,,,,,,,,,,,,,1.9490740597248077,1.5338003999786451,380.9731926000677,None,ScrollUp,정답입니다,380.9731926000677,None,380.9731926000677,None,380.9731926000677,None,380.9731926000677,None,382.40916699997615,None,382.40916699997615,382.9092497000238,,,,,,,,,,,,,,,,031,2022-05-26_20h28.42.647,FishGame,2022.1.1,60.01759715373957,
,4,넌 논리적이야,2,Orange,A,5.666666666666666,4.633333333333334,ScrollDown,ScrollUp,Orange.png,3,Positive,Congruent,0,0,0,0,,,,,,,,,,,,,,,,,,,,,0,3,3,3,,,,,,,,,,,,,,,,,,,,,,,,,,,,,,,,,,,,,,,,,,,,,,,,,,,,,,,,,,,,,,,,,,,,,,,,,,,,,1.266975318392118,1.0264608000870794,383.5302140000276,None,ScrollDown,정답입니다,383.5302140000276,None,383.5302140000276,None,383.5302140000276,None,383.5302140000276,None,384.4569480000064,None,384.4569480000064,384.95925119996537,,,,,,,,,,,,,,,,031,2022-05-26_20h28.42.647,FishGame,2022.1.1,60.01759715373957,
,5,넌 과묵해,3,Orange,A,3.875,4.4,ScrollDown,ScrollUp,Orange.png,3,Neutral,Neutral,0,0,0,0,,,,,,,,,,,,,,,,,,,,,0,4,4,4,,,,,,,,,,,,,,,,,,,,,,,,,,,,,,,,,,,,,,,,,,,,,,,,,,,,,,,,,,,,,,,,,,,,,,,,,,,,,1.1898148208856583,1.1931100999936461,385.5799009000184,None,ScrollDown,정답입니다,385.5799009000184,None,385.5799009000184,None,385.5799009000184,None,385.5799009000184,None,386.67571310000494,None,386.67571310000494,387.17578709998634,,,,,,,,,,,,,,,,031,2022-05-26_20h28.42.647,FishGame,2022.1.1,60.01759715373957,
,6,나를 데려가줘,6,Green,B,0,0,ScrollDown,ScrollUp,Green.png,3,NonTarget,NonTarget,0,0,0,0,,,,,,,,,,,,,,,,,,,,,0,5,5,5,,,,,,,,,,,,,,,,,,,,,,,,,,,,,,,,,,,,,,,,,,,,,,,,,,,,,,,,,,,,,,,,,,,,,,,,,,,,,1.2716049353281655,1.2592759999679402,387.8010484999977,None,ScrollDown,정답입니다,387.8010484999977,None,387.8010484999977,None,387.8010484999977,None,387.8010484999977,None,388.9589580000611,None,388.9589580000611,389.459225300001,,,,,,,,,,,,,,,,031,2022-05-26_20h28.42.647,FishGame,2022.1.1,60.01759715373957,
,7,넌 미숙해,4,Green,B,3,3,ScrollUp,ScrollDown,Green.png,3,Negative,Congruent,0,0,0,0,,,,,,,,,,,,,,,,,,,,,0,6,6,6,,,,,,,,,,,,,,,,,,,,,,,,,,,,,,,,,,,,,,,,,,,,,,,,,,,,,,,,,,,,,,,,,,,,,,,,,,,,,1.7762345721324284,1.1259622999932617,390.08319619996473,None,ScrollUp,정답입니다,390.08319619996473,None,390.08319619996473,None,390.08319619996473,None,390.08319619996473,None,391.1067647000309,None,391.1067647000309,391.60679150000215,,,,,,,,,,,,,,,,031,2022-05-26_20h28.42.647,FishGame,2022.1.1,60.01759715373957,
,8,나를 보내줘,6,Orange,A,0,0,ScrollUp,ScrollDown,Orange.png,3,NonTarget,NonTarget,0,0,0,0,,,,,,,,,,,,,,,,,,,,,0,7,7,7,,,,,,,,,,,,,,,,,,,,,,,,,,,,,,,,,,,,,,,,,,,,,,,,,,,,,,,,,,,,,,,,,,,,,,,,,,,,,1.825617293516795,1.3427865999983624,392.22775930003263,None,ScrollUp,정답입니다,392.22775930003263,None,392.22775930003263,None,392.22775930003263,None,392.22775930003263,None,393.4733711000299,None,393.4733711000299,393.9755884000333,,,,,,,,,,,,,,,,031,2022-05-26_20h28.42.647,FishGame,2022.1.1,60.01759715373957,
,9,넌 자신만만해,3,Green,B,4.833333333333334,4.333333333333333,ScrollUp,ScrollDown,Green.png,3,Neutral,Neutral,0,0,0,0,,,,,,,,,,,,,,,,,,,,,0,8,8,8,,,,,,,,,,,,,,,,,,,,,,,,,,,,,,,,,,,,,,,,,,,,,,,,,,,,,,,,,,,,,,,,,,,,,,,,,,,,,1.387345681587855,1.059473400004208,394.5934318000218,None,ScrollDown,오답입니다,394.5934318000218,None,394.5934318000218,None,394.5934318000218,None,394.5934318000218,None,395.5567484999774,None,395.5567484999774,396.05900939996354,,,,,,,,,,,,,,,,031,2022-05-26_20h28.42.647,FishGame,2022.1.1,60.01759715373957,
,10,넌 탐욕스러워,5,Orange,A,2.25,2.1,ScrollDown,ScrollUp,Orange.png,3,Negative,Incongruent,0,0,0,0,,,,,,,,,,,,,,,,,,,,,0,9,9,9,,,,,,,,,,,,,,,,,,,,,,,,,,,,,,,,,,,,,,,,,,,,,,,,,,,,,,,,,,,,,,,,,,,,,,,,,,,,,1.325617286066214,1.1257785999914631,396.6879068000708,None,ScrollDown,정답입니다,396.6879068000708,None,396.6879068000708,None,396.6879068000708,None,396.6879068000708,None,397.70662439998705,None,397.70662439998705,398.20878710004035,,,,,,,,,,,,,,,,031,2022-05-26_20h28.42.647,FishGame,2022.1.1,60.01759715373957,
,11,넌 인기있어,2,Orange,A,5.458333333333333,4.5,ScrollDown,ScrollUp,Orange.png,3,Positive,Congruent,0,0,0,0,,,,,,,,,,,,,,,,,,,,,0,10,10,10,,,,,,,,,,,,,,,,,,,,,,,,,,,,,,,,,,,,,,,,,,,,,,,,,,,,,,,,,,,,,,,,,,,,,,,,,,,,,1.296296296020349,0.9922046000137925,398.8278013999807,None,ScrollDown,정답입니다,398.8278013999807,None,398.8278013999807,None,398.8278013999807,None,398.8278013999807,None,399.7229717000155,None,399.7229717000155,400.2230410000775,,,,,,,,,,,,,,,,031,2022-05-26_20h28.42.647,FishGame,2022.1.1,60.01759715373957,
,12,나를 데려가줘,6,Green,B,0,0,ScrollDown,ScrollUp,Green.png,3,NonTarget,NonTarget,0,0,0,0,,,,,,,,,,,,,,,,,,,,,0,11,11,11,,,,,,,,,,,,,,,,,,,,,,,,,,,,,,,,,,,,,,,,,,,,,,,,,,,,,,,,,,,,,,,,,,,,,,,,,,,,,1.3348765447735786,1.2112691999645904,400.8425762000261,None,ScrollDown,정답입니다,400.8425762000261,None,400.8425762000261,None,400.8425762000261,None,400.8425762000261,None,401.95629380003083,None,401.95629380003083,402.45636830001604,,,,,,,,,,,,,,,,031,2022-05-26_20h28.42.647,FishGame,2022.1.1,60.01759715373957,
,13,넌 뛰어나,2,Green,B,6.166666666666667,4,ScrollUp,ScrollDown,Green.png,3,Positive,Incongruent,0,0,0,0,,,,,,,,,,,,,,,,,,,,,0,12,12,12,,,,,,,,,,,,,,,,,,,,,,,,,,,,,,,,,,,,,,,,,,,,,,,,,,,,,,,,,,,,,,,,,,,,,,,,,,,,,1.859567900498708,1.3952590000117198,403.0805317000486,None,ScrollUp,정답입니다,403.0805317000486,None,403.0805317000486,None,403.0805317000486,None,403.0805317000486,None,404.3754993000766,None,404.3754993000766,404.8754255999811,,,,,,,,,,,,,,,,031,2022-05-26_20h28.42.647,FishGame,2022.1.1,60.01759715373957,
,14,넌 낙관적이야,1,Orange,A,5.75,5.8,ScrollDown,ScrollUp,Orange.png,3,Positive,Congruent,0,0,0,0,,,,,,,,,,,,,,,,,,,,,0,13,13,13,,,,,,,,,,,,,,,,,,,,,,,,,,,,,,,,,,,,,,,,,,,,,,,,,,,,,,,,,,,,,,,,,,,,,,,,,,,,,1.2608024626970291,1.2935137000167742,405.5136211999925,None,ScrollDown,정답입니다,405.5136211999925,None,405.5136211999925,None,405.5136211999925,None,405.5136211999925,None,406.6898046999704,None,406.6898046999704,407.192025700002,,,,,,,,,,,,,,,,031,2022-05-26_20h28.42.647,FishGame,2022.1.1,60.01759715373957,
,15,넌 산만해,4,Green,B,2.695652173913043,3.033333333333333,ScrollUp,ScrollDown,Green.png,3,Negative,Congruent,0,0,0,0,,,,,,,,,,,,,,,,,,,,,0,14,14,14,,,,,,,,,,,,,,,,,,,,,,,,,,,,,,,,,,,,,,,,,,,,,,,,,,,,,,,,,,,,,,,,,,,,,,,,,,,,,1.7916666616996129,1.1780047999927774,407.8155691999709,None,ScrollUp,정답입니다,407.8155691999709,None,407.8155691999709,None,407.8155691999709,None,407.8155691999709,None,408.88942390005104,None,408.88942390005104,409.3895185000729,,,,,,,,,,,,,,,,031,2022-05-26_20h28.42.647,FishGame,2022.1.1,60.01759715373957,
,16,나를 보내줘,6,Orange,A,0,0,ScrollUp,ScrollDown,Orange.png,3,NonTarget,NonTarget,0,0,0,0,,,,,,,,,,,,,,,,,,,,,0,15,15,15,,,,,,,,,,,,,,,,,,,,,,,,,,,,,,,,,,,,,,,,,,,,,,,,,,,,,,,,,,,,,,,,,,,,,,,,,,,,,1.6574074104428291,1.2949561999412253,410.015643700026,None,ScrollUp,정답입니다,410.015643700026,None,410.015643700026,None,410.015643700026,None,410.015643700026,None,411.20643090002704,None,411.20643090002704,411.70881610002834,,,,,,,,,,,,,,,,031,2022-05-26_20h28.42.647,FishGame,2022.1.1,60.01759715373957,
,17,넌 교활해,5,Green,B,2.333333333333333,2.133333333333333,ScrollUp,ScrollDown,Green.png,3,Negative,Congruent,0,0,0,0,,,,,,,,,,,,,,,,,,,,,0,16,16,16,,,,,,,,,,,,,,,,,,,,,,,,,,,,,,,,,,,,,,,,,,,,,,,,,,,,,,,,,,,,,,,,,,,,,,,,,,,,,1.6188271616895995,1.3607428999384865,412.3266634000465,None,ScrollUp,정답입니다,412.3266634000465,None,412.3266634000465,None,412.3266634000465,None,412.3266634000465,None,413.5896402000217,None,413.5896402000217,414.0919043000322,,,,,,,,,,,,,,,,031,2022-05-26_20h28.42.647,FishGame,2022.1.1,60.01759715373957,
,18,나를 보내줘,6,Orange,A,0,0,ScrollUp,ScrollDown,Orange.png,3,NonTarget,NonTarget,0,0,0,0,,,,,,,,,,,,,,,,,,,,,0,17,17,17,,,,,,,,,,,,,,,,,,,,,,,,,,,,,,,,,,,,,,,,,,,,,,,,,,,,,,,,,,,,,,,,,,,,,,,,,,,,,1.6466049378116927,1.4257282000035048,414.71228900004644,None,ScrollUp,정답입니다,414.71228900004644,None,414.71228900004644,None,414.71228900004644,None,414.71228900004644,None,416.0397077000234,None,416.0397077000234,416.539501799969,,,,,,,,,,,,,,,,031,2022-05-26_20h28.42.647,FishGame,2022.1.1,60.01759715373957,
,19,넌 불친절해,5,Green,B,2.208333333333333,2.033333333333333,ScrollUp,ScrollDown,Green.png,3,Negative,Congruent,0,0,0,0,,,,,,,,,,,,,,,,,,,,,0,18,18,18,,,,,,,,,,,,,,,,,,,,,,,,,,,,,,,,,,,,,,,,,,,,,,,,,,,,,,,,,,,,,,,,,,,,,,,,,,,,,1.6126543184121451,1.2449094000039622,417.15877300000284,None,ScrollUp,정답입니다,417.15877300000284,None,417.15877300000284,None,417.15877300000284,None,417.15877300000284,None,418.3061918000458,None,418.3061918000458,418.8083268000046,,,,,,,,,,,,,,,,031,2022-05-26_20h28.42.647,FishGame,2022.1.1,60.01759715373957,
,20,넌 지적이야,2,Green,B,5.75,4.366666666666666,ScrollUp,ScrollDown,Green.png,3,Positive,Incongruent,0,0,0,0,,,,,,,,,,,,,,,,,,,,,0,19,19,19,,,,,,,,,,,,,,,,,,,,,,,,,,,,,,,,,,,,,,,,,,,,,,,,,,,,,,,,,,,,,,,,,,,,,,,,,,,,,1.8317901243766148,0.926171200000681,419.42948150006123,None,ScrollUp,정답입니다,419.42948150006123,None,419.42948150006123,None,419.42948150006123,None,419.42948150006123,None,420.2561610999983,None,420.2561610999983,420.75844600005075,,,,,,,,,,,,,,,,031,2022-05-26_20h28.42.647,FishGame,2022.1.1,60.01759715373957,
,21,넌 우유부단해,4,Orange,A,2.666666666666667,3.166666666666667,ScrollDown,ScrollUp,Orange.png,3,Negative,Incongruent,0,0,0,0,,,,,,,,,,,,,,,,,,,,,0,20,20,20,,,,,,,,,,,,,,,,,,,,,,,,,,,,,,,,,,,,,,,,,,,,,,,,,,,,,,,,,,,,,,,,,,,,,,,,,,,,,1.248456800977389,1.2782403000164777,421.37847410002723,None,ScrollDown,정답입니다,421.37847410002723,None,421.37847410002723,None,421.37847410002723,None,421.37847410002723,None,422.556064400007,None,422.556064400007,423.05824899999425,,,,,,,,,,,,,,,,031,2022-05-26_20h28.42.647,FishGame,2022.1.1,60.01759715373957,
,22,나를 데려가줘,6,Green,B,0,0,ScrollDown,ScrollUp,Green.png,3,NonTarget,NonTarget,0,0,0,0,,,,,,,,,,,,,,,,,,,,,0,21,21,21,,,,,,,,,,,,,,,,,,,,,,,,,,,,,,,,,,,,,,,,,,,,,,,,,,,,,,,,,,,,,,,,,,,,,,,,,,,,,1.2932098805904388,1.2945941999787465,423.6765638999641,None,ScrollDown,정답입니다,423.6765638999641,None,423.6765638999641,None,423.6765638999641,None,423.6765638999641,None,424.87273090006784,None,424.87273090006784,425.3749273000285,,,,,,,,,,,,,,,,031,2022-05-26_20h28.42.647,FishGame,2022.1.1,60.01759715373957,
,23,넌 성실해,1,Green,B,6.041666666666666,5.7,ScrollUp,ScrollDown,Green.png,3,Positive,Incongruent,0,0,0,0,,,,,,,,,,,,,,,,,,,,,0,22,22,22,,,,,,,,,,,,,,,,,,,,,,,,,,,,,,,,,,,,,,,,,,,,,,,,,,,,,,,,,,,,,,,,,,,,,,,,,,,,,1.8487654278675716,1.2362649000715464,425.99102590000257,None,ScrollUp,정답입니다,425.99102590000257,None,425.99102590000257,None,425.99102590000257,None,425.99102590000257,None,427.13461259996984,None,427.13461259996984,427.63914390001446,,,,,,,,,,,,,,,,031,2022-05-26_20h28.42.647,FishGame,2022.1.1,60.01759715373957,
,24,넌 현실주의적이야,3,Orange,A,4.625,4.4,ScrollDown,ScrollUp,Orange.png,3,Neutral,Neutral,0,0,0,0,,,,,,,,,,,,,,,,,,,,,0,23,23,23,,,,,,,,,,,,,,,,,,,,,,,,,,,,,,,,,,,,,,,,,,,,,,,,,,,,,,,,,,,,,,,,,,,,,,,,,,,,,1.300925925374031,1.9955299999564886,428.2624698000727,None,ScrollDown,정답입니다,428.2624698000727,None,428.2624698000727,None,428.2624698000727,None,428.2624698000727,None,430.15860820002854,None,430.15860820002854,430.6583856000798,,,,,,,,,,,,,,,,031,2022-05-26_20h28.42.647,FishGame,2022.1.1,60.01759715373957,
,25,넌 진실돼,1,Orange,A,6.625,5.566666666666666,ScrollDown,ScrollUp,Orange.png,3,Positive,Congruent,0,0,0,0,,,,,,,,,,,,,,,,,,,,,0,24,24,24,,,,,,,,,,,,,,,,,,,,,,,,,,,,,,,,,,,,,,,,,,,,,,,,,,,,,,,,,,,,,,,,,,,,,,,,,,,,,1.1697530895471573,0.9795170000288635,431.2771190999774,None,ScrollDown,정답입니다,431.2771190999774,None,431.2771190999774,None,431.2771190999774,None,431.2771190999774,None,432.1558944999706,None,432.1558944999706,432.65807800006587,,,,,,,,,,,,,,,,031,2022-05-26_20h28.42.647,FishGame,2022.1.1,60.01759715373957,
,26,넌 천진난만해,3,Green,B,4.958333333333334,4.833333333333333,ScrollUp,ScrollDown,Green.png,3,Neutral,Neutral,0,0,0,0,,,,,,,,,,,,,,,,,,,,,0,25,25,25,,,,,,,,,,,,,,,,,,,,,,,,,,,,,,,,,,,,,,,,,,,,,,,,,,,,,,,,,,,,,,,,,,,,,,,,,,,,,1.6805555572112403,1.0259136999957263,433.28056630003266,None,ScrollUp,정답입니다,433.28056630003266,None,433.28056630003266,None,433.28056630003266,None,433.28056630003266,None,434.20594810007606,None,434.20594810007606,434.7081712000072,,,,,,,,,,,,,,,,031,2022-05-26_20h28.42.647,FishGame,2022.1.1,60.01759715373957,
,27,넌 교양없어,5,Orange,A,2.416666666666667,2.2,ScrollDown,ScrollUp,Orange.png,3,Negative,Incongruent,0,0,0,0,,,,,,,,,,,,,,,,,,,,,0,26,26,26,,,,,,,,,,,,,,,,,,,,,,,,,,,,,,,,,,,,,,,,,,,,,,,,,,,,,,,,,,,,,,,,,,,,,,,,,,,,,1.0771604776382446,1.529145900043659,435.3390151000349,None,ScrollDown,정답입니다,435.3390151000349,None,435.3390151000349,None,435.3390151000349,None,435.3390151000349,None,436.7555411000503,None,436.7555411000503,437.2556138000218,,,,,,,,,,,,,,,,031,2022-05-26_20h28.42.647,FishGame,2022.1.1,60.01759715373957,
,28,나를 보내줘,6,Orange,A,0,0,ScrollUp,ScrollDown,Orange.png,3,NonTarget,NonTarget,0,0,0,0,,,,,,,,,,,,,,,,,,,,,0,27,27,27,,,,,,,,,,,,,,,,,,,,,,,,,,,,,,,,,,,,,,,,,,,,,,,,,,,,,,,,,,,,,,,,,,,,,,,,,,,,,1.6651234552264214,1.4288537999382243,437.8720397000434,None,ScrollUp,정답입니다,437.8720397000434,None,437.8720397000434,None,437.8720397000434,None,437.8720397000434,None,439.20586039999034,None,439.20586039999034,439.7082288999809,,,,,,,,,,,,,,,,031,2022-05-26_20h28.42.647,FishGame,2022.1.1,60.01759715373957,
,29,넌 엉뚱스러워,3,Orange,A,4.166666666666667,4.133333333333334,ScrollDown,ScrollUp,Orange.png,3,Neutral,Neutral,0,0,0,0,,,,,,,,,,,,,,,,,,,,,0,28,28,28,,,,,,,,,,,,,,,,,,,,,,,,,,,,,,,,,,,,,,,,,,,,,,,,,,,,,,,,,,,,,,,,,,,,,,,,,,,,,1.2854938358068466,1.1094035999849439,440.3399954000488,None,ScrollDown,정답입니다,440.3399954000488,None,440.3399954000488,None,440.3399954000488,None,440.3399954000488,None,441.3413368000183,None,441.3413368000183,441.84142569999676,,,,,,,,,,,,,,,,031,2022-05-26_20h28.42.647,FishGame,2022.1.1,60.01759715373957,
,30,넌 무지해,4,Green,B,2.541666666666667,3.066666666666667,ScrollUp,ScrollDown,Green.png,3,Negative,Congruent,0,0,0,0,,,,,,,,,,,,,,,,,,,,,0,29,29,29,,,,,,,,,,,,,,,,,,,,,,,,,,,,,,,,,,,,,,,,,,,,,,,,,,,,,,,,,,,,,,,,,,,,,,,,,,,,,1.9706790049870808,1.30946249992121,442.4590136000188,None,ScrollUp,정답입니다,442.4590136000188,None,442.4590136000188,None,442.4590136000188,None,442.4590136000188,None,443.6723536000354,None,443.6723536000354,444.1745970000047,,,,,,,,,,,,,,,,031,2022-05-26_20h28.42.647,FishGame,2022.1.1,60.01759715373957,
,31,넌 음울해,5,Green,B,2.25,2.233333333333333,ScrollUp,ScrollDown,Green.png,3,Negative,Congruent,0,0,0,0,,,,,,,,,,,,,,,,,,,,,0,30,30,30,,,,,,,,,,,,,,,,,,,,,,,,,,,,,,,,,,,,,,,,,,,,,,,,,,,,,,,,,,,,,,,,,,,,,,,,,,,,,1.7222222338120141,1.1756471000844613,444.8133305000374,None,ScrollUp,정답입니다,444.8133305000374,None,444.8133305000374,None,444.8133305000374,None,444.8133305000374,None,445.87202170002274,None,445.87202170002274,446.3721061999677,,,,,,,,,,,,,,,,031,2022-05-26_20h28.42.647,FishGame,2022.1.1,60.01759715373957,
,32,넌 냉소적이야,5,Orange,A,2.916666666666667,2.4,ScrollDown,ScrollUp,Orange.png,3,Negative,Incongruent,0,0,0,0,,,,,,,,,,,,,,,,,,,,,0,31,31,31,,,,,,,,,,,,,,,,,,,,,,,,,,,,,,,,,,,,,,,,,,,,,,,,,,,,,,,,,,,,,,,,,,,,,,,,,,,,,1.1651234477758408,2.130426499992609,446.99261319998186,None,ScrollDown,정답입니다,446.99261319998186,None,446.99261319998186,None,446.99261319998186,None,446.99261319998186,None,449.0244926000014,None,449.0244926000014,449.5245717000216,,,,,,,,,,,,,,,,031,2022-05-26_20h28.42.647,FishGame,2022.1.1,60.01759715373957,
,33,나를 데려가줘,6,Green,B,0,0,ScrollDown,ScrollUp,Green.png,3,NonTarget,NonTarget,0,0,0,0,,,,,,,,,,,,,,,,,,,,,0,32,32,32,,,,,,,,,,,,,,,,,,,,,,,,,,,,,,,,,,,,,,,,,,,,,,,,,,,,,,,,,,,,,,,,,,,,,,,,,,,,,1.0061728358268738,1.3431423000292853,450.1398838000605,None,ScrollDown,정답입니다,450.1398838000605,None,450.1398838000605,None,450.1398838000605,None,450.1398838000605,None,451.38884200004395,None,451.38884200004395,451.89107530005276,,,,,,,,,,,,,,,,031,2022-05-26_20h28.42.647,FishGame,2022.1.1,60.01759715373957,
,34,넌 쾌활해,1,Orange,A,5.541666666666666,5.733333333333333,ScrollDown,ScrollUp,Orange.png,3,Positive,Congruent,0,0,0,0,,,,,,,,,,,,,,,,,,,,,0,33,33,33,,,,,,,,,,,,,,,,,,,,,,,,,,,,,,,,,,,,,,,,,,,,,,,,,,,,,,,,,,,,,,,,,,,,,,,,,,,,,1.1250000099341075,1.2757494000252336,452.51568750001024,None,ScrollDown,정답입니다,452.51568750001024,None,452.51568750001024,None,452.51568750001024,None,452.51568750001024,None,453.6888470000122,None,453.6888470000122,454.1890303000109,,,,,,,,,,,,,,,,031,2022-05-26_20h28.42.647,FishGame,2022.1.1,60.01759715373957,
,35,나를 보내줘,6,Orange,A,0,0,ScrollUp,ScrollDown,Orange.png,3,NonTarget,NonTarget,0,0,0,0,,,,,,,,,,,,,,,,,,,,,0,34,34,34,,,,,,,,,,,,,,,,,,,,,,,,,,,,,,,,,,,,,,,,,,,,,,,,,,,,,,,,,,,,,,,,,,,,,,,,,,,,,1.7685185273488362,1.0935455000726506,454.80905699997675,None,ScrollUp,정답입니다,454.80905699997675,None,454.80905699997675,None,454.80905699997675,None,454.80905699997675,None,455.8054676000029,None,455.8054676000029,456.3076377999969,,,,,,,,,,,,,,,,031,2022-05-26_20h28.42.647,FishGame,2022.1.1,60.01759715373957,
,36,넌 명랑해,1,Green,B,5.739130434782609,5.666666666666667,ScrollUp,ScrollDown,Green.png,3,Positive,Incongruent,0,0,0,0,,,,,,,,,,,,,,,,,,,,,0,35,35,35,,,,,,,,,,,,,,,,,,,,,,,,,,,,,,,,,,,,,,,,,,,,,,,,,,,,,,,,,,,,,,,,,,,,,,,,,,,,,1.8240740795930226,1.461422299966216,456.9231642000377,None,ScrollUp,정답입니다,456.9231642000377,None,456.9231642000377,None,456.9231642000377,None,456.9231642000377,None,458.29083770001307,None,458.29083770001307,458.8076469000662,,,,,,,,,,,,,,,,031,2022-05-26_20h28.42.647,FishGame,2022.1.1,60.01759715373957,
,37,넌 멍해,4,Orange,A,2.833333333333333,3.4,ScrollDown,ScrollUp,Orange.png,3,Negative,Incongruent,0,0,0,0,,,,,,,,,,,,,,,,,,,,,0,36,36,36,,,,,,,,,,,,,,,,,,,,,,,,,,,,,,,,,,,,,,,,,,,,,,,,,,,,,,,,,,,,,,,,,,,,,,,,,,,,,1.2746913631757102,1.1426877999911085,459.4105910999933,None,ScrollDown,정답입니다,459.4105910999933,None,459.4105910999933,None,459.4105910999933,None,459.4105910999933,None,460.4575035000453,None,460.4575035000453,460.9575979000656,,,,,,,,,,,,,,,,031,2022-05-26_20h28.42.647,FishGame,2022.1.1,60.01759715373957,
,38,나를 데려가줘,6,Green,B,0,0,ScrollDown,ScrollUp,Green.png,3,NonTarget,NonTarget,0,0,0,0,,,,,,,,,,,,,,,,,,,,,0,37,37,37,,,,,,,,,,,,,,,,,,,,,,,,,,,,,,,,,,,,,,,,,,,,,,,,,,,,,,,,,,,,,,,,,,,,,,,,,,,,,1.2206790000200272,1.0596353999571875,461.57411980000325,None,ScrollDown,정답입니다,461.57411980000325,None,461.57411980000325,None,461.57411980000325,None,461.57411980000325,None,462.53861679998226,None,462.53861679998226,463.0408331999788,,,,,,,,,,,,,,,,031,2022-05-26_20h28.42.647,FishGame,2022.1.1,60.01759715373957,
,39,넌 현명해,2,Orange,A,6.541666666666666,4.533333333333333,ScrollDown,ScrollUp,Orange.png,3,Positive,Congruent,0,0,0,0,,,,,,,,,,,,,,,,,,,,,0,38,38,38,,,,,,,,,,,,,,,,,,,,,,,,,,,,,,,,,,,,,,,,,,,,,,,,,,,,,,,,,,,,,,,,,,,,,,,,,,,,,1.2885802388191223,1.3426629999885336,463.6595984000014,None,ScrollDown,정답입니다,463.6595984000014,None,463.6595984000014,None,463.6595984000014,None,463.6595984000014,None,464.90567320003174,None,464.90567320003174,465.40527470002417,,,,,,,,,,,,,,,,031,2022-05-26_20h28.42.647,FishGame,2022.1.1,60.01759715373957,
,40,넌 수줍어,3,Green,B,3.541666666666666,4.366666666666666,ScrollUp,ScrollDown,Green.png,3,Neutral,Neutral,0,0,0,0,,,,,,,,,,,,,,,,,,,,,0,39,39,39,,,,,,,,,,,,,,,,,,,,,,,,,,,,,,,,,,,,,,,,,,,,,,,,,,,,,,,,,,,,,,,,,,,,,,,,,,,,,1.6682098706563315,1.1261885000858456,466.02635190007277,None,ScrollUp,정답입니다,466.02635190007277,None,466.02635190007277,None,466.02635190007277,None,466.02635190007277,None,467.0551859000698,None,467.0551859000698,467.55743919999804,,,,,,,,,,,,,,,,031,2022-05-26_20h28.42.647,FishGame,2022.1.1,60.01759715373957,
,41,나를 데려가줘,6,Green,B,0,0,ScrollDown,ScrollUp,Green.png,3,NonTarget,NonTarget,0,0,0,0,,,,,,,,,,,,,,,,,,,,,0,40,40,40,,,,,,,,,,,,,,,,,,,,,,,,,,,,,,,,,,,,,,,,,,,,,,,,,,,,,,,,,,,,,,,,,,,,,,,,,,,,,1.212962955236435,1.1454620999284089,468.1703964000335,None,ScrollDown,정답입니다,468.1703964000335,None,468.1703964000335,None,468.1703964000335,None,468.1703964000335,None,469.2215396000538,None,469.2215396000538,469.7215988000389,,,,,,,,,,,,,,,,031,2022-05-26_20h28.42.647,FishGame,2022.1.1,60.01759715373957,
,42,넌 성숙해,2,Green,B,5.833333333333333,4.533333333333333,ScrollUp,ScrollDown,Green.png,3,Positive,Incongruent,0,0,0,0,,,,,,,,,,,,,,,,,,,,,0,41,41,41,,,,,,,,,,,,,,,,,,,,,,,,,,,,,,,,,,,,,,,,,,,,,,,,,,,,,,,,,,,,,,,,,,,,,,,,,,,,,1.7916666616996129,1.1472723999759182,470.34168650000356,None,ScrollUp,정답입니다,470.34168650000356,None,470.34168650000356,None,470.34168650000356,None,470.34168650000356,None,471.39078660006635,None,471.39078660006635,471.8907497000182,,,,,,,,,,,,,,,,031,2022-05-26_20h28.42.647,FishGame,2022.1.1,60.01759715373957,
,1,넌 매력적이야,2,Green,B,6.125,4.666666666666667,ScrollUp,ScrollDown,Green.png,4,Positive,Incongruent,0,0,0,0,,,,,,,,,,,,,,,,,,,,,,,,,0,0,0,0,,,,,,,,,,,,,,,,,,,,,,,,,,,,,,,,503.621313599986,505.1234479000559,505.1567973999772,506.10674540000036,506.15680019999854,507.1098800000036,507.1098800000036,None,,,,,,,,,,,,,,,,,,,,,,,,,,,,,,,,,,1.7716049303611119,1.462844599969685,508.22327990003396,None,ScrollUp,정답입니다,508.22327990003396,None,508.22327990003396,None,508.22327990003396,None,508.22327990003396,None,509.58769640000537,None,509.58769640000537,510.0876296000788,472.3908341000788,None,472.3908341000788,None,0.094444446,-0.10277778,1,0,0,0.016215960029512644,None,502.40652520000003,None,,,031,2022-05-26_20h28.42.647,FishGame,2022.1.1,60.01759715373957,
,2,나를 보내줘,6,Orange,A,0,0,ScrollUp,ScrollDown,Orange.png,4,NonTarget,NonTarget,0,0,0,0,,,,,,,,,,,,,,,,,,,,,,,,,0,1,1,1,,,,,,,,,,,,,,,,,,,,,,,,,,,,,,,,,,,,,,,,,,,,,,,,,,,,,,,,,,,,,,,,,,,,,,,,,1.9722222189108531,1.225517600076273,510.7105432000244,None,ScrollUp,정답입니다,510.7105432000244,None,510.7105432000244,None,510.7105432000244,None,510.7105432000244,None,511.83756610006094,None,511.83756610006094,512.3397265999811,,,,,,,,,,,,,,,,031,2022-05-26_20h28.42.647,FishGame,2022.1.1,60.01759715373957,
,3,넌 조심스러워,3,Orange,A,4.791666666666666,4.666666666666667,ScrollDown,ScrollUp,Orange.png,4,Neutral,Neutral,0,0,0,0,,,,,,,,,,,,,,,,,,,,,,,,,0,2,2,2,,,,,,,,,,,,,,,,,,,,,,,,,,,,,,,,,,,,,,,,,,,,,,,,,,,,,,,,,,,,,,,,,,,,,,,,,1.095679019888242,1.0761100000236183,512.9612927000271,None,ScrollDown,정답입니다,512.9612927000271,None,512.9612927000271,None,512.9612927000271,None,512.9612927000271,None,513.9397905999795,None,513.9397905999795,514.4398674999829,,,,,,,,,,,,,,,,031,2022-05-26_20h28.42.647,FishGame,2022.1.1,60.01759715373957,
,4,넌 철학적이야,3,Green,B,4.5,4.266666666666667,ScrollUp,ScrollDown,Green.png,4,Neutral,Neutral,0,0,0,0,,,,,,,,,,,,,,,,,,,,,,,,,0,3,3,3,,,,,,,,,,,,,,,,,,,,,,,,,,,,,,,,,,,,,,,,,,,,,,,,,,,,,,,,,,,,,,,,,,,,,,,,,1.8657407313585281,1.176136999973096,515.0641773999669,None,ScrollUp,정답입니다,515.0641773999669,None,515.0641773999669,None,515.0641773999669,None,515.0641773999669,None,516.1374898999929,None,516.1374898999929,516.6375402000267,,,,,,,,,,,,,,,,031,2022-05-26_20h28.42.647,FishGame,2022.1.1,60.01759715373957,
,5,넌 쩨쩨해,5,Orange,A,2.375,2.133333333333333,ScrollDown,ScrollUp,Orange.png,4,Negative,Incongruent,0,0,0,0,,,,,,,,,,,,,,,,,,,,,,,,,0,4,4,4,,,,,,,,,,,,,,,,,,,,,,,,,,,,,,,,,,,,,,,,,,,,,,,,,,,,,,,,,,,,,,,,,,,,,,,,,1.1759259204069774,1.0257205999223515,517.2620354000246,None,ScrollDown,정답입니다,517.2620354000246,None,517.2620354000246,None,517.2620354000246,None,517.2620354000246,None,518.1875056000426,None,518.1875056000426,518.6897551000584,,,,,,,,,,,,,,,,031,2022-05-26_20h28.42.647,FishGame,2022.1.1,60.01759715373957,
,6,나를 데려가줘,6,Green,B,0,0,ScrollDown,ScrollUp,Green.png,4,NonTarget,NonTarget,0,0,0,0,,,,,,,,,,,,,,,,,,,,,,,,,0,5,5,5,,,,,,,,,,,,,,,,,,,,,,,,,,,,,,,,,,,,,,,,,,,,,,,,,,,,,,,,,,,,,,,,,,,,,,,,,1.1342592686414719,1.3281718000071123,519.3077898999909,None,ScrollDown,정답입니다,519.3077898999909,None,519.3077898999909,None,519.3077898999909,None,519.3077898999909,None,520.5373892000644,None,520.5373892000644,521.0395891000517,,,,,,,,,,,,,,,,031,2022-05-26_20h28.42.647,FishGame,2022.1.1,60.01759715373957,
,7,넌 고집불통이야,5,Green,B,2.875,2,ScrollUp,ScrollDown,Green.png,4,Negative,Congruent,0,0,0,0,,,,,,,,,,,,,,,,,,,,,,,,,0,6,6,6,,,,,,,,,,,,,,,,,,,,,,,,,,,,,,,,,,,,,,,,,,,,,,,,,,,,,,,,,,,,,,,,,,,,,,,,,1.663580241302649,1.009425500058569,521.6617344999686,None,ScrollUp,정답입니다,521.6617344999686,None,521.6617344999686,None,521.6617344999686,None,521.6617344999686,None,522.5707413000055,None,522.5707413000055,523.0729190000566,,,,,,,,,,,,,,,,031,2022-05-26_20h28.42.647,FishGame,2022.1.1,60.01759715373957,
,8,넌 무심해,4,Orange,A,2.875,3.2,ScrollDown,ScrollUp,Orange.png,4,Negative,Incongruent,0,0,0,0,,,,,,,,,,,,,,,,,,,,,,,,,0,7,7,7,,,,,,,,,,,,,,,,,,,,,,,,,,,,,,,,,,,,,,,,,,,,,,,,,,,,,,,,,,,,,,,,,,,,,,,,,1.0478395124276478,1.1776236000005156,523.6952460000757,None,ScrollDown,정답입니다,523.6952460000757,None,523.6952460000757,None,523.6952460000757,None,523.6952460000757,None,524.7703522000229,None,524.7703522000229,525.2704321000492,,,,,,,,,,,,,,,,031,2022-05-26_20h28.42.647,FishGame,2022.1.1,60.01759715373957,
,9,넌 정겨워,1,Orange,A,5.791666666666667,5.666666666666667,ScrollDown,ScrollUp,Orange.png,4,Positive,Congruent,0,0,0,0,,,,,,,,,,,,,,,,,,,,,,,,,0,8,8,8,,,,,,,,,,,,,,,,,,,,,,,,,,,,,,,,,,,,,,,,,,,,,,,,,,,,,,,,,,,,,,,,,,,,,,,,,1.1126543233791988,1.1284423999022692,525.9024063000688,None,ScrollDown,정답입니다,525.9024063000688,None,525.9024063000688,None,525.9024063000688,None,525.9024063000688,None,526.9228759000544,None,526.9228759000544,527.4229138999945,,,,,,,,,,,,,,,,031,2022-05-26_20h28.42.647,FishGame,2022.1.1,60.01759715373957,
,10,나를 데려가줘,6,Green,B,0,0,ScrollDown,ScrollUp,Green.png,4,NonTarget,NonTarget,0,0,0,0,,,,,,,,,,,,,,,,,,,,,,,,,0,9,9,9,,,,,,,,,,,,,,,,,,,,,,,,,,,,,,,,,,,,,,,,,,,,,,,,,,,,,,,,,,,,,,,,,,,,,,,,,1.060185174147288,1.8612909000366926,528.038033699966,None,ScrollDown,정답입니다,528.038033699966,None,528.038033699966,None,528.038033699966,None,528.038033699966,None,529.8060277000768,None,529.8060277000768,530.3060433000792,,,,,,,,,,,,,,,,031,2022-05-26_20h28.42.647,FishGame,2022.1.1,60.01759715373957,
,11,넌 체제순응적이야,4,Green,B,3,3.6,ScrollUp,ScrollDown,Green.png,4,Negative,Congruent,0,0,0,0,,,,,,,,,,,,,,,,,,,,,,,,,0,10,10,10,,,,,,,,,,,,,,,,,,,,,,,,,,,,,,,,,,,,,,,,,,,,,,,,,,,,,,,,,,,,,,,,,,,,,,,,,1.787037044763565,1.1088217999786139,530.9391072000144,None,ScrollUp,정답입니다,530.9391072000144,None,530.9391072000144,None,530.9391072000144,None,530.9391072000144,None,531.9369099000469,None,531.9369099000469,532.436987800058,,,,,,,,,,,,,,,,031,2022-05-26_20h28.42.647,FishGame,2022.1.1,60.01759715373957,
,12,나를 보내줘,6,Orange,A,0,0,ScrollUp,ScrollDown,Orange.png,4,NonTarget,NonTarget,0,0,0,0,,,,,,,,,,,,,,,,,,,,,,,,,0,11,11,11,,,,,,,,,,,,,,,,,,,,,,,,,,,,,,,,,,,,,,,,,,,,,,,,,,,,,,,,,,,,,,,,,,,,,,,,,1.7561728407939274,1.3321858999552205,533.0641125000548,None,ScrollUp,정답입니다,533.0641125000548,None,533.0641125000548,None,533.0641125000548,None,533.0641125000548,None,534.2894312000135,None,534.2894312000135,534.7894884999841,,,,,,,,,,,,,,,,031,2022-05-26_20h28.42.647,FishGame,2022.1.1,60.01759715373957,
,13,넌 박식해,2,Orange,A,5.625,3.933333333333333,ScrollDown,ScrollUp,Orange.png,4,Positive,Congruent,0,0,0,0,,,,,,,,,,,,,,,,,,,,,,,,,0,12,12,12,,,,,,,,,,,,,,,,,,,,,,,,,,,,,,,,,,,,,,,,,,,,,,,,,,,,,,,,,,,,,,,,,,,,,,,,,1.1311728407939274,1.1796770999208093,535.4090301999822,None,ScrollDown,정답입니다,535.4090301999822,None,535.4090301999822,None,535.4090301999822,None,535.4090301999822,None,536.4871067000786,None,536.4871067000786,536.9892669999972,,,,,,,,,,,,,,,,031,2022-05-26_20h28.42.647,FishGame,2022.1.1,60.01759715373957,
,14,나를 보내줘,6,Orange,A,0,0,ScrollUp,ScrollDown,Orange.png,4,NonTarget,NonTarget,0,0,0,0,,,,,,,,,,,,,,,,,,,,,,,,,0,13,13,13,,,,,,,,,,,,,,,,,,,,,,,,,,,,,,,,,,,,,,,,,,,,,,,,,,,,,,,,,,,,,,,,,,,,,,,,,1.7932098756233852,1.092324799974449,537.6071305000223,None,ScrollUp,정답입니다,537.6071305000223,None,537.6071305000223,None,537.6071305000223,None,537.6071305000223,None,538.6036755000241,None,538.6036755000241,539.1037671000231,,,,,,,,,,,,,,,,031,2022-05-26_20h28.42.647,FishGame,2022.1.1,60.01759715373957,
,15,넌 침착해,1,Green,B,5.458333333333333,5.566666666666666,ScrollUp,ScrollDown,Green.png,4,Positive,Incongruent,0,0,0,0,,,,,,,,,,,,,,,,,,,,,,,,,0,14,14,14,,,,,,,,,,,,,,,,,,,,,,,,,,,,,,,,,,,,,,,,,,,,,,,,,,,,,,,,,,,,,,,,,,,,,,,,,1.703703703979651,1.0771123999729753,539.7223919000244,None,ScrollUp,정답입니다,539.7223919000244,None,539.7223919000244,None,539.7223919000244,None,539.7223919000244,None,540.7036347000394,None,540.7036347000394,541.2058611999964,,,,,,,,,,,,,,,,031,2022-05-26_20h28.42.647,FishGame,2022.1.1,60.01759715373957,
,16,나를 데려가줘,6,Green,B,0,0,ScrollDown,ScrollUp,Green.png,4,NonTarget,NonTarget,0,0,0,0,,,,,,,,,,,,,,,,,,,,,,,,,0,15,15,15,,,,,,,,,,,,,,,,,,,,,,,,,,,,,,,,,,,,,,,,,,,,,,,,,,,,,,,,,,,,,,,,,,,,,,,,,1.1018518507480621,1.3765878999838606,541.8222567000194,None,ScrollDown,정답입니다,541.8222567000194,None,541.8222567000194,None,541.8222567000194,None,541.8222567000194,None,543.1036537999753,None,543.1036537999753,543.6058892000001,,,,,,,,,,,,,,,,031,2022-05-26_20h28.42.647,FishGame,2022.1.1,60.01759715373957,
,17,넌 행복해,1,Orange,A,6.416666666666666,6.166666666666667,ScrollDown,ScrollUp,Orange.png,4,Positive,Congruent,0,0,0,0,,,,,,,,,,,,,,,,,,,,,,,,,0,16,16,16,,,,,,,,,,,,,,,,,,,,,,,,,,,,,,,,,,,,,,,,,,,,,,,,,,,,,,,,,,,,,,,,,,,,,,,,,1.1589506169160206,1.22599970002193,544.231365900021,None,ScrollDown,정답입니다,544.231365900021,None,544.231365900021,None,544.231365900021,None,544.231365900021,None,545.3532572999829,None,545.3532572999829,545.8533673000056,,,,,,,,,,,,,,,,031,2022-05-26_20h28.42.647,FishGame,2022.1.1,60.01759715373957,
,18,넌 겸손해,2,Green,B,5.791666666666667,4.766666666666667,ScrollUp,ScrollDown,Green.png,4,Positive,Incongruent,0,0,0,0,,,,,,,,,,,,,,,,,,,,,,,,,0,17,17,17,,,,,,,,,,,,,,,,,,,,,,,,,,,,,,,,,,,,,,,,,,,,,,,,,,,,,,,,,,,,,,,,,,,,,,,,,1.819444437821706,1.0118197000119835,546.4724686000263,None,ScrollUp,정답입니다,546.4724686000263,None,546.4724686000263,None,546.4724686000263,None,546.4724686000263,None,547.3891619000351,None,547.3891619000351,547.8891956000589,,,,,,,,,,,,,,,,031,2022-05-26_20h28.42.647,FishGame,2022.1.1,60.01759715373957,
,19,나를 보내줘,6,Orange,A,0,0,ScrollUp,ScrollDown,Orange.png,4,NonTarget,NonTarget,0,0,0,0,,,,,,,,,,,,,,,,,,,,,,,,,0,18,18,18,,,,,,,,,,,,,,,,,,,,,,,,,,,,,,,,,,,,,,,,,,,,,,,,,,,,,,,,,,,,,,,,,,,,,,,,,1.743827154239019,1.1462067998945713,548.5086055999855,None,ScrollUp,정답입니다,548.5086055999855,None,548.5086055999855,None,548.5086055999855,None,548.5086055999855,None,549.5557776000351,None,549.5557776000351,550.0557647000533,,,,,,,,,,,,,,,,031,2022-05-26_20h28.42.647,FishGame,2022.1.1,60.01759715373957,
,20,넌 의심없어,3,Orange,A,4.166666666666667,4.6,ScrollDown,ScrollUp,Orange.png,4,Neutral,Neutral,0,0,0,0,,,,,,,,,,,,,,,,,,,,,,,,,0,19,19,19,,,,,,,,,,,,,,,,,,,,,,,,,,,,,,,,,,,,,,,,,,,,,,,,,,,,,,,,,,,,,,,,,,,,,,,,,1.2160493830839794,1.31096949998755,550.6729052000446,None,ScrollDown,정답입니다,550.6729052000446,None,550.6729052000446,None,550.6729052000446,None,550.6729052000446,None,551.8868042000104,None,551.8868042000104,552.3891090999823,,,,,,,,,,,,,,,,031,2022-05-26_20h28.42.647,FishGame,2022.1.1,60.01759715373957,
,21,넌 시시해,4,Orange,A,2.666666666666667,2.966666666666667,ScrollDown,ScrollUp,Orange.png,4,Negative,Incongruent,0,0,0,0,,,,,,,,,,,,,,,,,,,,,,,,,0,20,20,20,,,,,,,,,,,,,,,,,,,,,,,,,,,,,,,,,,,,,,,,,,,,,,,,,,,,,,,,,,,,,,,,,,,,,,,,,1.1033950646718342,1.0930089999455959,553.0104518000735,None,ScrollDown,정답입니다,553.0104518000735,None,553.0104518000735,None,553.0104518000735,None,553.0104518000735,None,554.0033644000068,None,554.0033644000068,554.50564019999,,,,,,,,,,,,,,,,031,2022-05-26_20h28.42.647,FishGame,2022.1.1,60.01759715373957,
,22,나를 데려가줘,6,Green,B,0,0,ScrollDown,ScrollUp,Green.png,4,NonTarget,NonTarget,0,0,0,0,,,,,,,,,,,,,,,,,,,,,,,,,0,21,21,21,,,,,,,,,,,,,,,,,,,,,,,,,,,,,,,,,,,,,,,,,,,,,,,,,,,,,,,,,,,,,,,,,,,,,,,,,1.121913582086563,1.3591504000360146,555.12623970001,None,ScrollDown,정답입니다,555.12623970001,None,555.12623970001,None,555.12623970001,None,555.12623970001,None,556.3888845000183,None,556.3888845000183,556.8890269000549,,,,,,,,,,,,,,,,031,2022-05-26_20h28.42.647,FishGame,2022.1.1,60.01759715373957,
,23,넌 무정해,5,Orange,A,2.5,2.2,ScrollDown,ScrollUp,Orange.png,4,Negative,Incongruent,0,0,0,0,,,,,,,,,,,,,,,,,,,,,,,,,0,22,22,22,,,,,,,,,,,,,,,,,,,,,,,,,,,,,,,,,,,,,,,,,,,,,,,,,,,,,,,,,,,,,,,,,,,,,,,,,1.1435185273488362,1.0762220999458805,557.5119960000739,None,ScrollDown,정답입니다,557.5119960000739,None,557.5119960000739,None,557.5119960000739,None,557.5119960000739,None,558.486357799964,None,558.486357799964,558.986439100001,,,,,,,,,,,,,,,,031,2022-05-26_20h28.42.647,FishGame,2022.1.1,60.01759715373957,
,24,넌 긍정적이야,1,Green,B,6.041666666666667,6.066666666666666,ScrollUp,ScrollDown,Green.png,4,Positive,Incongruent,0,0,0,0,,,,,,,,,,,,,,,,,,,,,,,,,0,23,23,23,,,,,,,,,,,,,,,,,,,,,,,,,,,,,,,,,,,,,,,,,,,,,,,,,,,,,,,,,,,,,,,,,,,,,,,,,1.632716049750646,1.0307492000283673,559.6095954000484,None,ScrollUp,정답입니다,559.6095954000484,None,559.6095954000484,None,559.6095954000484,None,559.6095954000484,None,560.5368432999821,None,560.5368432999821,561.0388920999831,,,,,,,,,,,,,,,,031,2022-05-26_20h28.42.647,FishGame,2022.1.1,60.01759715373957,
,25,나를 보내줘,6,Orange,A,0,0,ScrollUp,ScrollDown,Orange.png,4,NonTarget,NonTarget,0,0,0,0,,,,,,,,,,,,,,,,,,,,,,,,,0,24,24,24,,,,,,,,,,,,,,,,,,,,,,,,,,,,,,,,,,,,,,,,,,,,,,,,,,,,,,,,,,,,,,,,,,,,,,,,,1.6358024651805558,1.0961051000049338,561.6590704000555,None,ScrollUp,정답입니다,561.6590704000555,None,561.6590704000555,None,561.6590704000555,None,561.6590704000555,None,562.6555073000491,None,562.6555073000491,563.1555315000005,,,,,,,,,,,,,,,,031,2022-05-26_20h28.42.647,FishGame,2022.1.1,60.01759715373957,
,26,넌 시기심이 많아,5,Green,B,2.458333333333333,2.233333333333333,ScrollUp,ScrollDown,Green.png,4,Negative,Congruent,0,0,0,0,,,,,,,,,,,,,,,,,,,,,,,,,0,25,25,25,,,,,,,,,,,,,,,,,,,,,,,,,,,,,,,,,,,,,,,,,,,,,,,,,,,,,,,,,,,,,,,,,,,,,,,,,1.496913580301528,1.2924879000056535,563.788554299972,None,NoResponse,무응답입니다,563.788554299972,None,563.788554299972,None,563.788554299972,None,563.788554299972,None,564.969567000051,None,564.969567000051,565.4696270000422,,,,,,,,,,,,,,,,031,2022-05-26_20h28.42.647,FishGame,2022.1.1,60.01759715373957,
,27,넌 탁월해,2,Orange,A,5.708333333333334,4.5,ScrollDown,ScrollUp,Orange.png,4,Positive,Congruent,0,0,0,0,,,,,,,,,,,,,,,,,,,,,,,,,0,26,26,26,,,,,,,,,,,,,,,,,,,,,,,,,,,,,,,,,,,,,,,,,,,,,,,,,,,,,,,,,,,,,,,,,,,,,,,,,1.1913580348094304,1.2951171000022441,566.0942094000056,None,ScrollDown,정답입니다,566.0942094000056,None,566.0942094000056,None,566.0942094000056,None,566.0942094000056,None,567.2888473999919,None,567.2888473999919,567.7887726000044,,,,,,,,,,,,,,,,031,2022-05-26_20h28.42.647,FishGame,2022.1.1,60.01759715373957,
,28,나를 데려가줘,6,Green,B,0,0,ScrollDown,ScrollUp,Green.png,4,NonTarget,NonTarget,0,0,0,0,,,,,,,,,,,,,,,,,,,,,,,,,0,27,27,27,,,,,,,,,,,,,,,,,,,,,,,,,,,,,,,,,,,,,,,,,,,,,,,,,,,,,,,,,,,,,,,,,,,,,,,,,1.1790123482545216,1.343830999918282,568.4068204000359,None,ScrollDown,정답입니다,568.4068204000359,None,568.4068204000359,None,568.4068204000359,None,568.4068204000359,None,569.653059400036,None,569.653059400036,570.153119500028,,,,,,,,,,,,,,,,031,2022-05-26_20h28.42.647,FishGame,2022.1.1,60.01759715373957,
,29,넌 조용해,3,Green,B,4.333333333333333,4.166666666666667,ScrollUp,ScrollDown,Green.png,4,Neutral,Neutral,0,0,0,0,,,,,,,,,,,,,,,,,,,,,,,,,0,28,28,28,,,,,,,,,,,,,,,,,,,,,,,,,,,,,,,,,,,,,,,,,,,,,,,,,,,,,,,,,,,,,,,,,,,,,,,,,1.723765422900518,1.0933764999499545,570.7739080999745,None,ScrollUp,정답입니다,570.7739080999745,None,570.7739080999745,None,570.7739080999745,None,570.7739080999745,None,571.7693880000152,None,571.7693880000152,572.2694901999785,,,,,,,,,,,,,,,,031,2022-05-26_20h28.42.647,FishGame,2022.1.1,60.01759715373957,
,30,넌 다정해,1,Orange,A,5.833333333333334,5.7,ScrollDown,ScrollUp,Orange.png,4,Positive,Congruent,0,0,0,0,,,,,,,,,,,,,,,,,,,,,,,,,0,29,29,29,,,,,,,,,,,,,,,,,,,,,,,,,,,,,,,,,,,,,,,,,,,,,,,,,,,,,,,,,,,,,,,,,,,,,,,,,1.1682098756233852,1.0643662000074983,572.8895290000364,None,ScrollDown,정답입니다,572.8895290000364,None,572.8895290000364,None,572.8895290000364,None,572.8895290000364,None,573.8552520000376,None,573.8552520000376,574.3552976000356,,,,,,,,,,,,,,,,031,2022-05-26_20h28.42.647,FishGame,2022.1.1,60.01759715373957,
,31,넌 능력있어,2,Green,B,6.166666666666666,4.6,ScrollUp,ScrollDown,Green.png,4,Positive,Incongruent,0,0,0,0,,,,,,,,,,,,,,,,,,,,,,,,,0,30,30,30,,,,,,,,,,,,,,,,,,,,,,,,,,,,,,,,,,,,,,,,,,,,,,,,,,,,,,,,,,,,,,,,,,,,,,,,,1.6820987711350122,1.00768329994753,574.968569300021,None,ScrollUp,정답입니다,574.968569300021,None,574.968569300021,None,574.968569300021,None,574.968569300021,None,575.8751768000657,None,575.8751768000657,576.3884298000485,,,,,,,,,,,,,,,,031,2022-05-26_20h28.42.647,FishGame,2022.1.1,60.01759715373957,
,32,넌 불쾌해,5,Orange,A,2.125,1.933333333333333,ScrollDown,ScrollUp,Orange.png,4,Negative,Incongruent,0,0,0,0,,,,,,,,,,,,,,,,,,,,,,,,,0,31,31,31,,,,,,,,,,,,,,,,,,,,,,,,,,,,,,,,,,,,,,,,,,,,,,,,,,,,,,,,,,,,,,,,,,,,,,,,,1.141975313425064,1.3428429999621585,577.0080960000632,None,ScrollDown,정답입니다,577.0080960000632,None,577.0080960000632,None,577.0080960000632,None,577.0080960000632,None,578.2551919000689,None,578.2551919000689,578.7552372000646,,,,,,,,,,,,,,,,031,2022-05-26_20h28.42.647,FishGame,2022.1.1,60.01759715373957,
,33,나를 데려가줘,6,Green,B,0,0,ScrollDown,ScrollUp,Green.png,4,NonTarget,NonTarget,0,0,0,0,,,,,,,,,,,,,,,,,,,,,,,,,0,32,32,32,,,,,,,,,,,,,,,,,,,,,,,,,,,,,,,,,,,,,,,,,,,,,,,,,,,,,,,,,,,,,,,,,,,,,,,,,1.1697530895471573,1.3106019000988454,579.376655900036,None,ScrollDown,정답입니다,579.376655900036,None,579.376655900036,None,579.376655900036,None,579.376655900036,None,580.5861620000796,None,580.5861620000796,581.0883346999763,,,,,,,,,,,,,,,,031,2022-05-26_20h28.42.647,FishGame,2022.1.1,60.01759715373957,
,34,넌 유순해,3,Orange,A,4.458333333333333,5,ScrollDown,ScrollUp,Orange.png,4,Neutral,Neutral,0,0,0,0,,,,,,,,,,,,,,,,,,,,,,,,,0,33,33,33,,,,,,,,,,,,,,,,,,,,,,,,,,,,,,,,,,,,,,,,,,,,,,,,,,,,,,,,,,,,,,,,,,,,,,,,,1.1327160547176998,1.1094532000133768,581.7067409000592,None,ScrollDown,정답입니다,581.7067409000592,None,581.7067409000592,None,581.7067409000592,None,581.7067409000592,None,582.7217269999674,None,582.7217269999674,583.2251041000709,,,,,,,,,,,,,,,,031,2022-05-26_20h28.42.647,FishGame,2022.1.1,60.01759715373957,
,35,넌 근심스러워,4,Green,B,2.708333333333333,3.133333333333333,ScrollUp,ScrollDown,Green.png,4,Negative,Congruent,0,0,0,0,,,,,,,,,,,,,,,,,,,,,,,,,0,34,34,34,,,,,,,,,,,,,,,,,,,,,,,,,,,,,,,,,,,,,,,,,,,,,,,,,,,,,,,,,,,,,,,,,,,,,,,,,1.6064814875523248,1.2107842999976128,583.8397067000624,None,ScrollUp,정답입니다,583.8397067000624,None,583.8397067000624,None,583.8397067000624,None,583.8397067000624,None,584.9526990000159,None,584.9526990000159,585.4548762000632,,,,,,,,,,,,,,,,031,2022-05-26_20h28.42.647,FishGame,2022.1.1,60.01759715373957,
,36,넌 세련되었어,2,Orange,A,5.5,4.6,ScrollDown,ScrollUp,Orange.png,4,Positive,Congruent,0,0,0,0,,,,,,,,,,,,,,,,,,,,,,,,,0,35,35,35,,,,,,,,,,,,,,,,,,,,,,,,,,,,,,,,,,,,,,,,,,,,,,,,,,,,,,,,,,,,,,,,,,,,,,,,,1.1481481442848842,1.0095055000856519,586.0799198000459,None,ScrollDown,정답입니다,586.0799198000459,None,586.0799198000459,None,586.0799198000459,None,586.0799198000459,None,586.9881659999955,None,586.9881659999955,587.4882157000247,,,,,,,,,,,,,,,,031,2022-05-26_20h28.42.647,FishGame,2022.1.1,60.01759715373957,
,37,나를 보내줘,6,Orange,A,0,0,ScrollUp,ScrollDown,Orange.png,4,NonTarget,NonTarget,0,0,0,0,,,,,,,,,,,,,,,,,,,,,,,,,0,36,36,36,,,,,,,,,,,,,,,,,,,,,,,,,,,,,,,,,,,,,,,,,,,,,,,,,,,,,,,,,,,,,,,,,,,,,,,,,1.5879629639287791,1.0592201000545174,588.1100093000568,None,ScrollUp,정답입니다,588.1100093000568,None,588.1100093000568,None,588.1100093000568,None,588.1100093000568,None,589.069327400066,None,589.069327400066,589.5693350000074,,,,,,,,,,,,,,,,031,2022-05-26_20h28.42.647,FishGame,2022.1.1,60.01759715373957,
,38,넌 확고해,3,Green,B,4.708333333333334,4.566666666666666,ScrollUp,ScrollDown,Green.png,4,Neutral,Neutral,0,0,0,0,,,,,,,,,,,,,,,,,,,,,,,,,0,37,37,37,,,,,,,,,,,,,,,,,,,,,,,,,,,,,,,,,,,,,,,,,,,,,,,,,,,,,,,,,,,,,,,,,,,,,,,,,1.6003086442748704,1.027964000008069,590.1927751000039,None,ScrollUp,정답입니다,590.1927751000039,None,590.1927751000039,None,590.1927751000039,None,590.1927751000039,None,591.1193093999755,None,591.1193093999755,591.6215087000746,,,,,,,,,,,,,,,,031,2022-05-26_20h28.42.647,FishGame,2022.1.1,60.01759715373957,
,39,넌 이해심이 많아,1,Green,B,6.041666666666668,5.533333333333333,ScrollUp,ScrollDown,Green.png,4,Positive,Incongruent,0,0,0,0,,,,,,,,,,,,,,,,,,,,,,,,,0,38,38,38,,,,,,,,,,,,,,,,,,,,,,,,,,,,,,,,,,,,,,,,,,,,,,,,,,,,,,,,,,,,,,,,,,,,,,,,,1.4984567901507642,1.1102391999447718,592.2364109000191,None,NoResponse,무응답입니다,592.2364109000191,None,592.2364109000191,None,592.2364109000191,None,592.2364109000191,None,593.2525469000684,None,593.2525469000684,593.7547257000115,,,,,,,,,,,,,,,,031,2022-05-26_20h28.42.647,FishGame,2022.1.1,60.01759715373957,
,40,나를 보내줘,6,Orange,A,0,0,ScrollUp,ScrollDown,Orange.png,4,NonTarget,NonTarget,0,0,0,0,,,,,,,,,,,,,,,,,,,,,,,,,0,39,39,39,,,,,,,,,,,,,,,,,,,,,,,,,,,,,,,,,,,,,,,,,,,,,,,,,,,,,,,,,,,,,,,,,,,,,,,,,1.7407407512267432,1.2948936000466347,594.3731721000513,None,ScrollUp,정답입니다,594.3731721000513,None,594.3731721000513,None,594.3731721000513,None,594.3731721000513,None,595.5691925999708,None,595.5691925999708,596.0714943000348,,,,,,,,,,,,,,,,031,2022-05-26_20h28.42.647,FishGame,2022.1.1,60.01759715373957,
,41,넌 거칠어,4,Orange,A,2.625,3.033333333333333,ScrollDown,ScrollUp,Orange.png,4,Negative,Incongruent,0,0,0,0,,,,,,,,,,,,,,,,,,,,,,,,,0,40,40,40,,,,,,,,,,,,,,,,,,,,,,,,,,,,,,,,,,,,,,,,,,,,,,,,,,,,,,,,,,,,,,,,,,,,,,,,,1.1682098756233852,1.5758889999706298,596.6948582000332,None,ScrollDown,정답입니다,596.6948582000332,None,596.6948582000332,None,596.6948582000332,None,596.6948582000332,None,598.1688716000644,None,598.1688716000644,598.6689397000009,,,,,,,,,,,,,,,,031,2022-05-26_20h28.42.647,FishGame,2022.1.1,60.01759715373957,
,42,넌 변덕맞아,5,Green,B,2.75,2.166666666666667,ScrollUp,ScrollDown,Green.png,4,Negative,Congruent,0,0,0,0,,,,,,,,,,,,,,,,,,,,,,,,,0,41,41,41,,,,,,,,,,,,,,,,,,,,,,,,,,,,,,,,,,,,,,,,,,,,,,,,,,,,,,,,,,,,,,,,,,,,,,,,,1.540123456468185,0.9953590000513941,599.2889006000478,None,NoResponse,무응답입니다,599.2889006000478,None,599.2889006000478,None,599.2889006000478,None,599.2889006000478,None,600.18800189998,None,600.18800189998,600.7048314000713,,,,,,,,,,,,,,,,031,2022-05-26_20h28.42.647,FishGame,2022.1.1,60.01759715373957,
,43,나를 데려가줘,6,Green,B,0,0,ScrollDown,ScrollUp,Green.png,4,NonTarget,NonTarget,0,0,0,0,,,,,,,,,,,,,,,,,,,,,,,,,0,42,42,42,,,,,,,,,,,,,,,,,,,,,,,,,,,,,,,,,,,,,,,,,,,,,,,,,,,,,,,,,,,,,,,,,,,,,,,,,1.6929012313485146,1.0608097000513226,601.3034286000766,None,ScrollUp,오답입니다,601.3034286000766,None,601.3034286000766,None,601.3034286000766,None,601.3034286000766,None,602.2690690000309,None,602.2690690000309,602.7712479999755,,,,,,,,,,,,,,,,031,2022-05-26_20h28.42.647,FishGame,2022.1.1,60.01759715373957,
,44,넌 외로워,4,Green,B,2.833333333333333,3.3,ScrollUp,ScrollDown,Green.png,4,Negative,Congruent,0,0,0,0,,,,,,,,,,,,,,,,,,,,,,,,,0,43,43,43,,,,,,,,,,,,,,,,,,,,,,,,,,,,,,,,,,,,,,,,,,,,,,,,,,,,,,,,,,,,,,,,,,,,,,,,,1.5787037052214146,1.1757768000243232,603.4035737999948,None,ScrollUp,정답입니다,603.4035737999948,None,603.4035737999948,None,603.4035737999948,None,603.4035737999948,None,604.4690488000633,None,604.4690488000633,604.9713289999636,,,,,,,,,,,,,,,,031,2022-05-26_20h28.42.647,FishGame,2022.1.1,60.01759715373957,
,1,넌 불평스러워,5,Orange,A,2.25,2.066666666666667,ScrollDown,ScrollUp,Orange.png,5,Negative,Incongruent,0,0,0,0,,,,,,,,,,,,,,,,,,,,,,,,,,,,,0,0,0,0,,,,,,,,,,,,,,,,,,,,,,,,,,,,640.7683893999783,642.2682809999678,642.3038950000191,643.2705869000638,643.3039625000674,644.2539600000018,644.2539600000018,None,,,,,,,,,,,,,,,,,,,,,,,,,,,,,,,,,,1,1.5072854000609368,645.3796422000742,None,ScrollDown,정답입니다,645.3796422000742,None,645.3796422000742,None,645.3796422000742,None,645.3796422000742,None,646.7870037000393,None,646.7870037000393,647.2904755000491,605.4690412000054,None,605.4690412000054,None,0.12037037,-0.098148145,1,0,0,0.01604596001561731,None,635.4705958999693,None,,,031,2022-05-26_20h28.42.647,FishGame,2022.1.1,60.01759715373957,
,2,나를 보내줘,6,Orange,A,0,0,ScrollUp,ScrollDown,Orange.png,5,NonTarget,NonTarget,0,0,0,0,,,,,,,,,,,,,,,,,,,,,,,,,,,,,0,1,1,1,,,,,,,,,,,,,,,,,,,,,,,,,,,,,,,,,,,,,,,,,,,,,,,,,,,,,,,,,,,,,,,,,,,,,1.6882716019948325,1.127437899936922,647.9046807000414,None,ScrollUp,정답입니다,647.9046807000414,None,647.9046807000414,None,647.9046807000414,None,647.9046807000414,None,648.9347257000627,None,648.9347257000627,649.4348030000692,,,,,,,,,,,,,,,,031,2022-05-26_20h28.42.647,FishGame,2022.1.1,60.01759715373957,
,3,넌 다재다능해,2,Green,B,6.208333333333333,4.5,ScrollUp,ScrollDown,Green.png,5,Positive,Incongruent,0,0,0,0,,,,,,,,,,,,,,,,,,,,,,,,,,,,,0,2,2,2,,,,,,,,,,,,,,,,,,,,,,,,,,,,,,,,,,,,,,,,,,,,,,,,,,,,,,,,,,,,,,,,,,,,,1.7762345721324284,1.076004899921827,650.0554702000227,None,ScrollUp,정답입니다,650.0554702000227,None,650.0554702000227,None,650.0554702000227,None,650.0554702000227,None,651.0347278000554,None,651.0347278000554,651.5347948999843,,,,,,,,,,,,,,,,031,2022-05-26_20h28.42.647,FishGame,2022.1.1,60.01759715373957,
,4,넌 과감해,3,Orange,A,4.833333333333334,4.6,ScrollDown,ScrollUp,Orange.png,5,Neutral,Neutral,0,0,0,0,,,,,,,,,,,,,,,,,,,,,,,,,,,,,0,3,3,3,,,,,,,,,,,,,,,,,,,,,,,,,,,,,,,,,,,,,,,,,,,,,,,,,,,,,,,,,,,,,,,,,,,,,1.1450617164373398,0.9939228999428451,652.1574895000085,None,ScrollDown,정답입니다,652.1574895000085,None,652.1574895000085,None,652.1574895000085,None,652.1574895000085,None,653.0510796000017,None,653.0510796000017,653.551146700047,,,,,,,,,,,,,,,,031,2022-05-26_20h28.42.647,FishGame,2022.1.1,60.01759715373957,
,5,넌 고분고분해,3,Green,B,3.75,4.033333333333333,ScrollUp,ScrollDown,Green.png,5,Neutral,Neutral,0,0,0,0,,,,,,,,,,,,,,,,,,,,,,,,,,,,,0,4,4,4,,,,,,,,,,,,,,,,,,,,,,,,,,,,,,,,,,,,,,,,,,,,,,,,,,,,,,,,,,,,,,,,,,,,,1.6651234552264214,1.1137736999662593,654.1738901999779,None,ScrollUp,정답입니다,654.1738901999779,None,654.1738901999779,None,654.1738901999779,None,654.1738901999779,None,655.1869075000286,None,655.1869075000286,655.6870324000483,,,,,,,,,,,,,,,,031,2022-05-26_20h28.42.647,FishGame,2022.1.1,60.01759715373957,
,6,나를 보내줘,6,Orange,A,0,0,ScrollUp,ScrollDown,Orange.png,5,NonTarget,NonTarget,0,0,0,0,,,,,,,,,,,,,,,,,,,,,,,,,,,,,0,5,5,5,,,,,,,,,,,,,,,,,,,,,,,,,,,,,,,,,,,,,,,,,,,,,,,,,,,,,,,,,,,,,,,,,,,,,1.6604938258727393,1.1151202999753878,656.3028432000428,None,ScrollUp,정답입니다,656.3028432000428,None,656.3028432000428,None,656.3028432000428,None,656.3028432000428,None,657.3201853000792,None,657.3201853000792,657.8200799999759,,,,,,,,,,,,,,,,031,2022-05-26_20h28.42.647,FishGame,2022.1.1,60.01759715373957,
,7,넌 잘 잊어,4,Orange,A,3,3.7,ScrollDown,ScrollUp,Orange.png,5,Negative,Incongruent,0,0,0,0,,,,,,,,,,,,,,,,,,,,,,,,,,,,,0,6,6,6,,,,,,,,,,,,,,,,,,,,,,,,,,,,,,,,,,,,,,,,,,,,,,,,,,,,,,,,,,,,,,,,,,,,,1.2391975422700245,1.0760071999393404,658.4465569000458,None,ScrollDown,정답입니다,658.4465569000458,None,658.4465569000458,None,658.4465569000458,None,658.4465569000458,None,659.4178930000635,None,659.4178930000635,659.9201336000115,,,,,,,,,,,,,,,,031,2022-05-26_20h28.42.647,FishGame,2022.1.1,60.01759715373957,
,8,넌 탐구심이없어,4,Green,B,2.833333333333333,3.066666666666667,ScrollUp,ScrollDown,Green.png,5,Negative,Congruent,0,0,0,0,,,,,,,,,,,,,,,,,,,,,,,,,,,,,0,7,7,7,,,,,,,,,,,,,,,,,,,,,,,,,,,,,,,,,,,,,,,,,,,,,,,,,,,,,,,,,,,,,,,,,,,,,1.5679012325902781,1.1936653999146074,660.559865300078,None,ScrollUp,정답입니다,660.559865300078,None,660.559865300078,None,660.559865300078,None,660.559865300078,None,661.6342319999821,None,661.6342319999821,662.1342995000305,,,,,,,,,,,,,,,,031,2022-05-26_20h28.42.647,FishGame,2022.1.1,60.01759715373957,
,9,나를 데려가줘,6,Green,B,0,0,ScrollDown,ScrollUp,Green.png,5,NonTarget,NonTarget,0,0,0,0,,,,,,,,,,,,,,,,,,,,,,,,,,,,,0,8,8,8,,,,,,,,,,,,,,,,,,,,,,,,,,,,,,,,,,,,,,,,,,,,,,,,,,,,,,,,,,,,,,,,,,,,,1.1836419651905696,1.4621763000031933,662.7503575000446,None,ScrollDown,정답입니다,662.7503575000446,None,662.7503575000446,None,662.7503575000446,None,662.7503575000446,None,664.1201899000444,None,664.1201899000444,664.6201755000511,,,,,,,,,,,,,,,,031,2022-05-26_20h28.42.647,FishGame,2022.1.1,60.01759715373957,
,10,넌 참되어,2,Orange,A,6.041666666666664,4.733333333333333,ScrollDown,ScrollUp,Orange.png,5,Positive,Congruent,0,0,0,0,,,,,,,,,,,,,,,,,,,,,,,,,,,,,0,9,9,9,,,,,,,,,,,,,,,,,,,,,,,,,,,,,,,,,,,,,,,,,,,,,,,,,,,,,,,,,,,,,,,,,,,,,1.1018518507480621,1.426075299968943,665.2423033000669,None,ScrollDown,정답입니다,665.2423033000669,None,665.2423033000669,None,665.2423033000669,None,665.2423033000669,None,666.5677639000351,None,666.5677639000351,667.0699852000689,,,,,,,,,,,,,,,,031,2022-05-26_20h28.42.647,FishGame,2022.1.1,60.01759715373957,
,11,넌 생기있어,1,Green,B,5.875,5.633333333333334,ScrollUp,ScrollDown,Green.png,5,Positive,Incongruent,0,0,0,0,,,,,,,,,,,,,,,,,,,,,,,,,,,,,0,10,10,10,,,,,,,,,,,,,,,,,,,,,,,,,,,,,,,,,,,,,,,,,,,,,,,,,,,,,,,,,,,,,,,,,,,,,1.5709876542290053,1.2263298999750987,667.6909080999903,None,ScrollUp,정답입니다,667.6909080999903,None,667.6909080999903,None,667.6909080999903,None,667.6909080999903,None,668.8174156000605,None,668.8174156000605,669.3174809999764,,,,,,,,,,,,,,,,031,2022-05-26_20h28.42.647,FishGame,2022.1.1,60.01759715373957,
,12,넌 비사교적이야,4,Green,B,2.875,2.9,ScrollUp,ScrollDown,Green.png,5,Negative,Congruent,0,0,0,0,,,,,,,,,,,,,,,,,,,,,,,,,,,,,0,11,11,11,,,,,,,,,,,,,,,,,,,,,,,,,,,,,,,,,,,,,,,,,,,,,,,,,,,,,,,,,,,,,,,,,,,,,1.5570987661679587,1.1948283999226987,669.9450955999782,None,ScrollUp,정답입니다,669.9450955999782,None,669.9450955999782,None,669.9450955999782,None,669.9450955999782,None,671.0345323999645,None,671.0345323999645,671.536706999992,,,,,,,,,,,,,,,,031,2022-05-26_20h28.42.647,FishGame,2022.1.1,60.01759715373957,
,13,나를 데려가줘,6,Green,B,0,0,ScrollDown,ScrollUp,Green.png,5,NonTarget,NonTarget,0,0,0,0,,,,,,,,,,,,,,,,,,,,,,,,,,,,,0,12,12,12,,,,,,,,,,,,,,,,,,,,,,,,,,,,,,,,,,,,,,,,,,,,,,,,,,,,,,,,,,,,,,,,,,,,,1.1450617164373398,1.1592819000361487,672.1618925000075,None,ScrollDown,정답입니다,672.1618925000075,None,672.1618925000075,None,672.1618925000075,None,672.1618925000075,None,673.2175827000756,None,673.2175827000756,673.7198059000075,,,,,,,,,,,,,,,,031,2022-05-26_20h28.42.647,FishGame,2022.1.1,60.01759715373957,
,14,넌 고독해,4,Orange,A,2.916666666666667,3.233333333333333,ScrollDown,ScrollUp,Orange.png,5,Negative,Incongruent,0,0,0,0,,,,,,,,,,,,,,,,,,,,,,,,,,,,,0,13,13,13,,,,,,,,,,,,,,,,,,,,,,,,,,,,,,,,,,,,,,,,,,,,,,,,,,,,,,,,,,,,,,,,,,,,,1.1959876517454784,1.109347700024955,674.3456971000414,None,ScrollDown,정답입니다,674.3456971000414,None,674.3456971000414,None,674.3456971000414,None,674.3456971000414,None,675.3509037999902,None,675.3509037999902,675.8531011000741,,,,,,,,,,,,,,,,031,2022-05-26_20h28.42.647,FishGame,2022.1.1,60.01759715373957,
,15,넌 신경질적이야,5,Green,B,2.375,2.233333333333333,ScrollUp,ScrollDown,Green.png,5,Negative,Congruent,0,0,0,0,,,,,,,,,,,,,,,,,,,,,,,,,,,,,0,14,14,14,,,,,,,,,,,,,,,,,,,,,,,,,,,,,,,,,,,,,,,,,,,,,,,,,,,,,,,,,,,,,,,,,,,,,1.743827154239019,1.1927673000609502,676.4826109000714,None,ScrollUp,정답입니다,676.4826109000714,None,676.4826109000714,None,676.4826109000714,None,676.4826109000714,None,677.5696098000044,None,677.5696098000044,678.0696363999741,,,,,,,,,,,,,,,,031,2022-05-26_20h28.42.647,FishGame,2022.1.1,60.01759715373957,
,16,넌 똑똑해,2,Green,B,5.666666666666667,3.966666666666667,ScrollUp,ScrollDown,Green.png,5,Positive,Incongruent,0,0,0,0,,,,,,,,,,,,,,,,,,,,,,,,,,,,,0,15,15,15,,,,,,,,,,,,,,,,,,,,,,,,,,,,,,,,,,,,,,,,,,,,,,,,,,,,,,,,,,,,,,,,,,,,,1.6682098706563315,1.0760980999330059,678.6927173000295,None,ScrollUp,정답입니다,678.6927173000295,None,678.6927173000295,None,678.6927173000295,None,678.6927173000295,None,679.6674817000749,None,679.6674817000749,680.1673716000514,,,,,,,,,,,,,,,,031,2022-05-26_20h28.42.647,FishGame,2022.1.1,60.01759715373957,
,17,나를 보내줘,6,Orange,A,0,0,ScrollUp,ScrollDown,Orange.png,5,NonTarget,NonTarget,0,0,0,0,,,,,,,,,,,,,,,,,,,,,,,,,,,,,0,16,16,16,,,,,,,,,,,,,,,,,,,,,,,,,,,,,,,,,,,,,,,,,,,,,,,,,,,,,,,,,,,,,,,,,,,,,1.9212963084379833,1.7422970000188798,680.8002220999915,None,ScrollUp,정답입니다,680.8002220999915,None,680.8002220999915,None,680.8002220999915,None,680.8002220999915,None,682.433798699989,None,682.433798699989,682.9339307000628,,,,,,,,,,,,,,,,031,2022-05-26_20h28.42.647,FishGame,2022.1.1,60.01759715373957,
,18,넌 협조적이야,1,Orange,A,5.625,5.666666666666667,ScrollDown,ScrollUp,Orange.png,5,Positive,Congruent,0,0,0,0,,,,,,,,,,,,,,,,,,,,,,,,,,,,,0,17,17,17,,,,,,,,,,,,,,,,,,,,,,,,,,,,,,,,,,,,,,,,,,,,,,,,,,,,,,,,,,,,,,,,,,,,,1.2299382835626602,1.1284730000188574,683.5527737999801,None,ScrollDown,정답입니다,683.5527737999801,None,683.5527737999801,None,683.5527737999801,None,683.5527737999801,None,684.5863068000181,None,684.5863068000181,685.0864062000765,,,,,,,,,,,,,,,,031,2022-05-26_20h28.42.647,FishGame,2022.1.1,60.01759715373957,
,19,나를 데려가줘,6,Green,B,0,0,ScrollDown,ScrollUp,Green.png,5,NonTarget,NonTarget,0,0,0,0,,,,,,,,,,,,,,,,,,,,,,,,,,,,,0,18,18,18,,,,,,,,,,,,,,,,,,,,,,,,,,,,,,,,,,,,,,,,,,,,,,,,,,,,,,,,,,,,,,,,,,,,,1.160493830839793,1.1445313000585884,685.7016315000365,None,ScrollDown,정답입니다,685.7016315000365,None,685.7016315000365,None,685.7016315000365,None,685.7016315000365,None,686.7529245000333,None,686.7529245000333,687.2695111000212,,,,,,,,,,,,,,,,031,2022-05-26_20h28.42.647,FishGame,2022.1.1,60.01759715373957,
,20,넌 몰인정해,5,Green,B,2.541666666666667,2.066666666666667,ScrollUp,ScrollDown,Green.png,5,Negative,Congruent,0,0,0,0,,,,,,,,,,,,,,,,,,,,,,,,,,,,,0,19,19,19,,,,,,,,,,,,,,,,,,,,,,,,,,,,,,,,,,,,,,,,,,,,,,,,,,,,,,,,,,,,,,,,,,,,,1.652777781089147,1.1430493000661954,687.8948875999777,None,ScrollUp,정답입니다,687.8948875999777,None,687.8948875999777,None,687.8948875999777,None,687.8948875999777,None,688.9339236000087,None,688.9339236000087,689.4360584999667,,,,,,,,,,,,,,,,031,2022-05-26_20h28.42.647,FishGame,2022.1.1,60.01759715373957,
,21,나를 데려가줘,6,Green,B,0,0,ScrollDown,ScrollUp,Green.png,5,NonTarget,NonTarget,0,0,0,0,,,,,,,,,,,,,,,,,,,,,,,,,,,,,0,20,20,20,,,,,,,,,,,,,,,,,,,,,,,,,,,,,,,,,,,,,,,,,,,,,,,,,,,,,,,,,,,,,,,,,,,,,1.1867283930381138,0.9935154999839142,690.0560689000413,None,ScrollDown,정답입니다,690.0560689000413,None,690.0560689000413,None,690.0560689000413,None,690.0560689000413,None,690.9505980999675,None,690.9505980999675,691.4528372000204,,,,,,,,,,,,,,,,031,2022-05-26_20h28.42.647,FishGame,2022.1.1,60.01759715373957,
