name,TrialNum,Word,WordCategory,FishType,WordList,WordValence,WordReputation,CorrectResp,IncorrectResp,FishTypeFile,Round,WordType,Condition,LoopforOrange.thisRepN,LoopforOrange.thisTrialN,LoopforOrange.thisN,LoopforOrange.thisIndex,LoopForGreen.thisRepN,LoopForGreen.thisTrialN,LoopForGreen.thisN,LoopForGreen.thisIndex,GreenInstLoop.thisRepN,GreenInstLoop.thisTrialN,GreenInstLoop.thisN,GreenInstLoop.thisIndex,GreenPrac.thisRepN,GreenPrac.thisTrialN,GreenPrac.thisN,GreenPrac.thisIndex,trials_2.thisRepN,trials_2.thisTrialN,trials_2.thisN,trials_2.thisIndex,GreenRound1.thisRepN,GreenRound1.thisTrialN,GreenRound1.thisN,GreenRound1.thisIndex,GreenRound2.thisRepN,GreenRound2.thisTrialN,GreenRound2.thisN,GreenRound2.thisIndex,GreenRound3.thisRepN,GreenRound3.thisTrialN,GreenRound3.thisN,GreenRound3.thisIndex,GreenRound4.thisRepN,GreenRound4.thisTrialN,GreenRound4.thisN,GreenRound4.thisIndex,GreenRound5.thisRepN,GreenRound5.thisTrialN,GreenRound5.thisN,GreenRound5.thisIndex,text_2.started,text_2.stopped,text_3.started,text_3.stopped,key_resp.keys,key_resp.rt,key_resp.started,key_resp.stopped,PassI.started,PassI.stopped,PassInst.keys,PassInst.rt,PassInst.started,PassInst.stopped,mouse_2.x,mouse_2.y,mouse_2.leftButton,mouse_2.midButton,mouse_2.rightButton,mouse_2.started,mouse_2.stopped,image.started,image.stopped,text_5.started,text_5.stopped,text_6.started,text_6.stopped,text_7.started,text_7.stopped,text_8.started,text_8.stopped,slider_3.response,slider_3.rt,slider_3.started,slider_3.stopped,Response_3,Feedback_3,BackGround_3.started,BackGround_3.stopped,Fish_3.started,Fish_3.stopped,WordBox_3.started,WordBox_3.stopped,Words_3.started,Words_3.stopped,BackGround_Feedback_3.started,BackGround_Feedback_3.stopped,Feedbacks_3.started,Feedbacks_3.stopped,Continue_or_not_2.keys,Continue_or_not_2.rt,Continue_or_not_2.started,Continue_or_not_2.stopped,image_4.started,image_4.stopped,mouse_3.x,mouse_3.y,mouse_3.leftButton,mouse_3.midButton,mouse_3.rightButton,mouse_3.started,mouse_3.stopped,startmain.started,startmain.stopped,slider_4.response,slider_4.rt,slider_4.started,slider_4.stopped,Response_4,Feedback_4,BackGround_4.started,BackGround_4.stopped,Fish_4.started,Fish_4.stopped,WordBox_4.started,WordBox_4.stopped,Words_4.started,Words_4.stopped,BackGround_Feedback_4.started,BackGround_Feedback_4.stopped,Feedbacks_4.started,Feedbacks_4.stopped,text.started,text.stopped,break_interval.started,break_interval.stopped,mouse.x,mouse.y,mouse.leftButton,mouse.midButton,mouse.rightButton,mouse.started,mouse.stopped,stratnextround.started,stratnextround.stopped,endgame.started,endgame.stopped,participant,date,expName,psychopyVersion,frameRate,
,,,,,,,,,,,,,,,,,,,,,,,,,,,,,,,,,,,,,,,,,,,,,,,,,,,,,,18.39280560007319,None,18.39280560007319,None,space,1.033392300014384,18.891108800075017,None,,,,,,,,,,,,,,,,,,,,,,,,,,,,,,,,,,,,,,,,,,,,,,,,,,,,,,,,,,,,,,,,,,,,,,,,,,,,,,,,,,,,,,,,,,032,2022-05-27_10h56.53.584,FishGame,2022.1.1,61.17132070045122,
물고기과제_instruction(참가자용)GreenVersion.mp4,,,,,,,,,,,,,,,,,,0,0,0,0,0,0,0,0,,,,,,,,,,,,,,,,,,,,,,,,,,,,,,,,,,,,,92.88648450002074,None,n,4.566662100027315,92.88648450002074,None,,,,,,,,,,,,,,,,,,,,,,,,,,,,,,,,,,,,,,,,,,,,,,,,,,,,,,,,,,,,,,,,,,,,,,,,,,,,,,,,,,,,032,2022-05-27_10h56.53.584,FishGame,2022.1.1,61.17132070045122,
,1,넌 교활해,5,Orange,B,2.333333333333333,2.133333333333333,ScrollUp,ScrollDown,Orange.png,practice,,,,,,,0,0,0,0,,,,,0,0,0,0,0,0,0,0,,,,,,,,,,,,,,,,,,,,,,,,,,,,,,,,,,,0.03425926,-0.21944444,1,0,0,0.5129739500116557,None,97.48406360007357,None,101.66931240004487,103.16967640002258,103.20294330001343,104.15294490009546,104.20289300009608,105.15290740004275,105.15290740004275,None,1.7114197611808777,2.071921999915503,106.43870380008593,None,ScrollUp,정답입니다,106.43870380008593,None,106.43870380008593,None,106.43870380008593,None,106.43870380008593,None,108.21690040000249,None,108.21690040000249,108.71695430006366,,,,,,,,,,,,,,,,,,,,,,,,,,,,,,,,,,,,,,,,,,,,,,,,,032,2022-05-27_10h56.53.584,FishGame,2022.1.1,61.17132070045122,
,2,넌 슬기로워,2,Green,A,6.166666666666667,4.1,ScrollDown,ScrollUp,Green.png,practice,,,,,,,0,0,0,0,,,,,0,0,0,0,0,1,1,1,,,,,,,,,,,,,,,,,,,,,,,,,,,,,,,,,,,,,,,,,,,,,,,,,,,,1.0648148159186046,1.3283789999550208,109.33897170005366,None,ScrollDown,정답입니다,109.33897170005366,None,109.33897170005366,None,109.33897170005366,None,109.33897170005366,None,110.56938460003585,None,110.56938460003585,111.06938310002442,,,,,,,,,,,,,,,,,,,,,,,,,,,,,,,,,,,,,,,,,,,,,,,,,032,2022-05-27_10h56.53.584,FishGame,2022.1.1,61.17132070045122,
,3,나를 보내줘,6,Green,A,0,0,ScrollUp,ScrollDown,Green.png,practice,,,,,,,0,0,0,0,,,,,0,0,0,0,0,2,2,2,,,,,,,,,,,,,,,,,,,,,,,,,,,,,,,,,,,,,,,,,,,,,,,,,,,,1.7299382785956063,1.6258198000723496,111.69098350009881,None,ScrollUp,정답입니다,111.69098350009881,None,111.69098350009881,None,111.69098350009881,None,111.69098350009881,None,113.21705199999269,None,113.21705199999269,113.71929460007232,,,,,,,,,,,,,,,,,,,,,,,,,,,,,,,,,,,,,,,,,,,,,,,,,032,2022-05-27_10h56.53.584,FishGame,2022.1.1,61.17132070045122,
,4,나를 데려가줘,6,Orange,B,0,0,ScrollDown,ScrollUp,Orange.png,practice,,,,,,,0,0,0,0,,,,,0,0,0,0,0,3,3,3,,,,,,,,,,,,,,,,,,,,,,,,,,,,,,,,,,,,,,,,,,,,,,,,,,,,1.0354938507080078,1.359903399948962,114.33715949999169,None,ScrollDown,정답입니다,114.33715949999169,None,114.33715949999169,None,114.33715949999169,None,114.33715949999169,None,115.60028720006812,None,115.60028720006812,116.1026004999876,,,,,,,,,,,,,,,,,,,,,,,,,,,,,,,,,,,,,,,,,,,,,,,,,032,2022-05-27_10h56.53.584,FishGame,2022.1.1,61.17132070045122,
,1,넌 교활해,5,Orange,B,2.333333333333333,2.133333333333333,ScrollUp,ScrollDown,Orange.png,practice,,,,,,,0,0,0,0,,,,,0,0,0,0,,,,,,,,,,,,,,,,,,,,,,,,,,,,,,,,,,,,,,,,,,,,,,,,,,,,,,,,,,,,,,,,,,,,,,,,,,n,7.9784898000070825,116.60252449999098,None,116.60252449999098,None,,,,,,,,,,,,,,,,,,,,,,,,,,,,,,,,,,,,,,,,,,,032,2022-05-27_10h56.53.584,FishGame,2022.1.1,61.17132070045122,
,1,넌 따뜻해,1,Orange,B,6.083333333333333,5.6,ScrollUp,ScrollDown,Orange.png,1,Positive,Incongruent,,,,,0,0,0,0,,,,,,,,,,,,,0,0,0,0,,,,,,,,,,,,,,,,,,,,,,,,,,,,,,,,,,,,,,,,128.13533720001578,129.65236579999328,129.6667529999977,130.61905490001664,130.66908090002835,131.61673530004919,131.61673530004919,None,,,,,,,,,,,,,,,,,,,,,,,,,0.02962963,-0.12592593,1,0,0,0.31360905000474304,None,124.60219270002563,None,1.7067901194095612,1.6545171999605373,132.9112313000951,None,ScrollUp,정답입니다,132.9112313000951,None,132.9112313000951,None,132.9112313000951,None,132.9112313000951,None,134.26881500007585,None,134.26881500007585,134.7664692000253,,,,,,,,,,,,,,,,032,2022-05-27_10h56.53.584,FishGame,2022.1.1,61.17132070045122,
,2,넌 기품있어,2,Orange,B,5.791666666666668,4.5,ScrollUp,ScrollDown,Orange.png,1,Positive,Incongruent,,,,,0,0,0,0,,,,,,,,,,,,,0,1,1,1,,,,,,,,,,,,,,,,,,,,,,,,,,,,,,,,,,,,,,,,,,,,,,,,,,,,,,,,,,,,,,,,,,,,,,,,,,,,,,,,,1.71296297510465,1.278165000025183,135.41177000000607,None,ScrollUp,정답입니다,135.41177000000607,None,135.41177000000607,None,135.41177000000607,None,135.41177000000607,None,136.58547640009783,None,136.58547640009783,137.08545560005587,,,,,,,,,,,,,,,,032,2022-05-27_10h56.53.584,FishGame,2022.1.1,61.17132070045122,
,3,나를 보내줘,6,Green,A,0,0,ScrollUp,ScrollDown,Green.png,1,NonTarget,NonTarget,,,,,0,0,0,0,,,,,,,,,,,,,0,2,2,2,,,,,,,,,,,,,,,,,,,,,,,,,,,,,,,,,,,,,,,,,,,,,,,,,,,,,,,,,,,,,,,,,,,,,,,,,,,,,,,,,1.7500000099341075,1.5255179000087082,137.72036979999393,None,ScrollUp,정답입니다,137.72036979999393,None,137.72036979999393,None,137.72036979999393,None,137.72036979999393,None,139.13320770009886,None,139.13320770009886,139.63559110008646,,,,,,,,,,,,,,,,032,2022-05-27_10h56.53.584,FishGame,2022.1.1,61.17132070045122,
,4,넌 수동적이야,4,Green,A,2.833333333333333,2.933333333333333,ScrollDown,ScrollUp,Green.png,1,Negative,Incongruent,,,,,0,0,0,0,,,,,,,,,,,,,0,3,3,3,,,,,,,,,,,,,,,,,,,,,,,,,,,,,,,,,,,,,,,,,,,,,,,,,,,,,,,,,,,,,,,,,,,,,,,,,,,,,,,,,1.1358024577299755,1.7926477000582963,140.271661600098,None,ScrollDown,정답입니다,140.271661600098,None,140.271661600098,None,140.271661600098,None,140.271661600098,None,141.94974290009122,None,141.94974290009122,142.45195680006873,,,,,,,,,,,,,,,,032,2022-05-27_10h56.53.584,FishGame,2022.1.1,61.17132070045122,
,5,넌 사심이 없어,3,Orange,B,4.916666666666666,4.333333333333333,ScrollUp,ScrollDown,Orange.png,1,Neutral,Neutral,,,,,0,0,0,0,,,,,,,,,,,,,0,4,4,4,,,,,,,,,,,,,,,,,,,,,,,,,,,,,,,,,,,,,,,,,,,,,,,,,,,,,,,,,,,,,,,,,,,,,,,,,,,,,,,,,1.6466049378116927,1.559068499947898,143.07821810001042,None,ScrollUp,정답입니다,143.07821810001042,None,143.07821810001042,None,143.07821810001042,None,143.07821810001042,None,144.53308250010014,None,144.53308250010014,145.03526350005995,,,,,,,,,,,,,,,,032,2022-05-27_10h56.53.584,FishGame,2022.1.1,61.17132070045122,
,6,넌 헤퍼,5,Green,A,2.458333333333334,2.233333333333333,ScrollDown,ScrollUp,Green.png,1,Negative,Incongruent,,,,,0,0,0,0,,,,,,,,,,,,,0,5,5,5,,,,,,,,,,,,,,,,,,,,,,,,,,,,,,,,,,,,,,,,,,,,,,,,,,,,,,,,,,,,,,,,,,,,,,,,,,,,,,,,,1.1311728407939274,1.625285500078462,145.66242830001283,None,ScrollDown,정답입니다,145.66242830001283,None,145.66242830001283,None,145.66242830001283,None,145.66242830001283,None,147.1827317000134,None,147.1827317000134,147.6828466000734,,,,,,,,,,,,,,,,032,2022-05-27_10h56.53.584,FishGame,2022.1.1,61.17132070045122,
,7,넌 말쑥해,3,Green,A,4.833333333333334,4.333333333333333,ScrollDown,ScrollUp,Green.png,1,Neutral,Neutral,,,,,0,0,0,0,,,,,,,,,,,,,0,6,6,6,,,,,,,,,,,,,,,,,,,,,,,,,,,,,,,,,,,,,,,,,,,,,,,,,,,,,,,,,,,,,,,,,,,,,,,,,,,,,,,,,1,1.3304349000100046,148.30655870004557,None,ScrollDown,정답입니다,148.30655870004557,None,148.30655870004557,None,148.30655870004557,None,148.30655870004557,None,149.5352913000388,None,149.5352913000388,150.03526370006148,,,,,,,,,,,,,,,,032,2022-05-27_10h56.53.584,FishGame,2022.1.1,61.17132070045122,
,8,넌 투덜거려,5,Orange,B,2.541666666666667,2.266666666666667,ScrollUp,ScrollDown,Orange.png,1,Negative,Congruent,,,,,0,0,0,0,,,,,,,,,,,,,0,7,7,7,,,,,,,,,,,,,,,,,,,,,,,,,,,,,,,,,,,,,,,,,,,,,,,,,,,,,,,,,,,,,,,,,,,,,,,,,,,,,,,,,1.8827160596847534,1.8112498000264168,150.66050390002783,None,ScrollUp,정답입니다,150.66050390002783,None,150.66050390002783,None,150.66050390002783,None,150.66050390002783,None,152.36624480003957,None,152.36624480003957,152.86631800001487,,,,,,,,,,,,,,,,032,2022-05-27_10h56.53.584,FishGame,2022.1.1,61.17132070045122,
,9,넌 적극적이야,1,Green,A,5.708333333333333,5.533333333333333,ScrollDown,ScrollUp,Green.png,1,Positive,Congruent,,,,,0,0,0,0,,,,,,,,,,,,,0,8,8,8,,,,,,,,,,,,,,,,,,,,,,,,,,,,,,,,,,,,,,,,,,,,,,,,,,,,,,,,,,,,,,,,,,,,,,,,,,,,,,,,,1.1342592686414719,1.393128800089471,153.48744450008962,None,ScrollDown,정답입니다,153.48744450008962,None,153.48744450008962,None,153.48744450008962,None,153.48744450008962,None,154.78281160001643,None,154.78281160001643,155.28288160008378,,,,,,,,,,,,,,,,032,2022-05-27_10h56.53.584,FishGame,2022.1.1,61.17132070045122,
,10,넌 재미없어,4,Orange,B,2.625,2.966666666666667,ScrollUp,ScrollDown,Orange.png,1,Negative,Congruent,,,,,0,0,0,0,,,,,,,,,,,,,0,9,9,9,,,,,,,,,,,,,,,,,,,,,,,,,,,,,,,,,,,,,,,,,,,,,,,,,,,,,,,,,,,,,,,,,,,,,,,,,,,,,,,,,1.8317901243766148,1.5106650999514386,155.90585460001603,None,ScrollUp,정답입니다,155.90585460001603,None,155.90585460001603,None,155.90585460001603,None,155.90585460001603,None,157.31830580008682,None,157.31830580008682,157.81832880002912,,,,,,,,,,,,,,,,032,2022-05-27_10h56.53.584,FishGame,2022.1.1,61.17132070045122,
,11,넌 명석해,2,Green,A,5.875,4.033333333333333,ScrollDown,ScrollUp,Green.png,1,Positive,Congruent,,,,,0,0,0,0,,,,,,,,,,,,,0,10,10,10,,,,,,,,,,,,,,,,,,,,,,,,,,,,,,,,,,,,,,,,,,,,,,,,,,,,,,,,,,,,,,,,,,,,,,,,,,,,,,,,,1,1.3262910000048578,158.43787640007213,None,ScrollDown,정답입니다,158.43787640007213,None,158.43787640007213,None,158.43787640007213,None,158.43787640007213,None,159.66583410010207,None,159.66583410010207,160.1658930000849,,,,,,,,,,,,,,,,032,2022-05-27_10h56.53.584,FishGame,2022.1.1,61.17132070045122,
,12,나를 데려가줘,6,Orange,B,0,0,ScrollDown,ScrollUp,Orange.png,1,NonTarget,NonTarget,,,,,0,0,0,0,,,,,,,,,,,,,0,11,11,11,,,,,,,,,,,,,,,,,,,,,,,,,,,,,,,,,,,,,,,,,,,,,,,,,,,,,,,,,,,,,,,,,,,,,,,,,,,,,,,,,1.1188271542390187,1.5950826000189409,160.7919693000149,None,ScrollDown,정답입니다,160.7919693000149,None,160.7919693000149,None,160.7919693000149,None,160.7919693000149,None,162.2850176000502,None,162.2850176000502,162.78502680000383,,,,,,,,,,,,,,,,032,2022-05-27_10h56.53.584,FishGame,2022.1.1,61.17132070045122,
,13,넌 소심해,4,Green,A,3,3.1,ScrollDown,ScrollUp,Green.png,1,Negative,Incongruent,,,,,0,0,0,0,,,,,,,,,,,,,0,12,12,12,,,,,,,,,,,,,,,,,,,,,,,,,,,,,,,,,,,,,,,,,,,,,,,,,,,,,,,,,,,,,,,,,,,,,,,,,,,,,,,,,1.0447530845801036,1.7818239000625908,163.40282950003166,None,ScrollDown,정답입니다,163.40282950003166,None,163.40282950003166,None,163.40282950003166,None,163.40282950003166,None,165.07099899998866,None,165.07099899998866,165.58481350005604,,,,,,,,,,,,,,,,032,2022-05-27_10h56.53.584,FishGame,2022.1.1,61.17132070045122,
,14,넌 합리적이야,2,Green,A,5.583333333333333,4.733333333333333,ScrollDown,ScrollUp,Green.png,1,Positive,Congruent,,,,,0,0,0,0,,,,,,,,,,,,,0,13,13,13,,,,,,,,,,,,,,,,,,,,,,,,,,,,,,,,,,,,,,,,,,,,,,,,,,,,,,,,,,,,,,,,,,,,,,,,,,,,,,,,,1.0493827263514202,1.5259751999983564,166.20608130004257,None,ScrollDown,정답입니다,166.20608130004257,None,166.20608130004257,None,166.20608130004257,None,166.20608130004257,None,167.63480120000895,None,167.63480120000895,168.14928010001313,,,,,,,,,,,,,,,,032,2022-05-27_10h56.53.584,FishGame,2022.1.1,61.17132070045122,
,15,넌 무자비해,5,Orange,B,2.333333333333333,2.1,ScrollUp,ScrollDown,Orange.png,1,Negative,Congruent,,,,,0,0,0,0,,,,,,,,,,,,,0,14,14,14,,,,,,,,,,,,,,,,,,,,,,,,,,,,,,,,,,,,,,,,,,,,,,,,,,,,,,,,,,,,,,,,,,,,,,,,,,,,,,,,,1.9104938358068466,1.55919369996991,168.7621573000215,None,ScrollUp,정답입니다,168.7621573000215,None,168.7621573000215,None,168.7621573000215,None,168.7621573000215,None,170.21588760009035,None,170.21588760009035,170.71812480001245,,,,,,,,,,,,,,,,032,2022-05-27_10h56.53.584,FishGame,2022.1.1,61.17132070045122,
,16,나를 보내줘,6,Green,A,0,0,ScrollUp,ScrollDown,Green.png,1,NonTarget,NonTarget,,,,,0,0,0,0,,,,,,,,,,,,,0,15,15,15,,,,,,,,,,,,,,,,,,,,,,,,,,,,,,,,,,,,,,,,,,,,,,,,,,,,,,,,,,,,,,,,,,,,,,,,,,,,,,,,,2,1.4765067000407726,171.33905559999403,None,ScrollUp,정답입니다,171.33905559999403,None,171.33905559999403,None,171.33905559999403,None,171.33905559999403,None,172.71577920007985,None,172.71577920007985,173.21791470004246,,,,,,,,,,,,,,,,032,2022-05-27_10h56.53.584,FishGame,2022.1.1,61.17132070045122,
,17,넌 현실적이야,3,Orange,B,4.608695652173913,4.766666666666667,ScrollUp,ScrollDown,Orange.png,1,Neutral,Neutral,,,,,0,0,0,0,,,,,,,,,,,,,0,16,16,16,,,,,,,,,,,,,,,,,,,,,,,,,,,,,,,,,,,,,,,,,,,,,,,,,,,,,,,,,,,,,,,,,,,,,,,,,,,,,,,,,1.9012345770994823,1.9590627000434324,173.8425749000162,None,ScrollUp,정답입니다,173.8425749000162,None,173.8425749000162,None,173.8425749000162,None,173.8425749000162,None,175.69911829999182,None,175.69911829999182,176.20138030010276,,,,,,,,,,,,,,,,032,2022-05-27_10h56.53.584,FishGame,2022.1.1,61.17132070045122,
,18,넌 의리있어,1,Orange,B,5.833333333333334,5.633333333333334,ScrollUp,ScrollDown,Orange.png,1,Positive,Incongruent,,,,,0,0,0,0,,,,,,,,,,,,,0,17,17,17,,,,,,,,,,,,,,,,,,,,,,,,,,,,,,,,,,,,,,,,,,,,,,,,,,,,,,,,,,,,,,,,,,,,,,,,,,,,,,,,,2,1.8112191999098286,176.83153020008467,None,ScrollUp,정답입니다,176.83153020008467,None,176.83153020008467,None,176.83153020008467,None,176.83153020008467,None,178.53222480008844,None,178.53222480008844,179.03455590002704,,,,,,,,,,,,,,,,032,2022-05-27_10h56.53.584,FishGame,2022.1.1,61.17132070045122,
,19,넌 신경과민이야,5,Green,A,2.541666666666667,2.166666666666667,ScrollDown,ScrollUp,Green.png,1,Negative,Incongruent,,,,,0,0,0,0,,,,,,,,,,,,,0,18,18,18,,,,,,,,,,,,,,,,,,,,,,,,,,,,,,,,,,,,,,,,,,,,,,,,,,,,,,,,,,,,,,,,,,,,,,,,,,,,,,,,,1,1.6093188000377268,179.66766150004696,None,ScrollDown,정답입니다,179.66766150004696,None,179.66766150004696,None,179.66766150004696,None,179.66766150004696,None,181.1678368001012,None,181.1678368001012,181.6678803000832,,,,,,,,,,,,,,,,032,2022-05-27_10h56.53.584,FishGame,2022.1.1,61.17132070045122,
,20,넌 편안해,1,Green,A,5.916666666666666,5.866666666666666,ScrollDown,ScrollUp,Green.png,1,Positive,Congruent,,,,,0,0,0,0,,,,,,,,,,,,,0,19,19,19,,,,,,,,,,,,,,,,,,,,,,,,,,,,,,,,,,,,,,,,,,,,,,,,,,,,,,,,,,,,,,,,,,,,,,,,,,,,,,,,,1,1.8929373000282794,182.29211820010096,None,ScrollDown,정답입니다,182.29211820010096,None,182.29211820010096,None,182.29211820010096,None,182.29211820010096,None,184.0819803000195,None,184.0819803000195,184.5820804000832,,,,,,,,,,,,,,,,032,2022-05-27_10h56.53.584,FishGame,2022.1.1,61.17132070045122,
,21,넌 품위있어,2,Orange,B,5.291666666666666,4.466666666666667,ScrollUp,ScrollDown,Orange.png,1,Positive,Incongruent,,,,,0,0,0,0,,,,,,,,,,,,,0,20,20,20,,,,,,,,,,,,,,,,,,,,,,,,,,,,,,,,,,,,,,,,,,,,,,,,,,,,,,,,,,,,,,,,,,,,,,,,,,,,,,,,,1.9027777661879857,1.70964020001702,185.208584100008,None,ScrollUp,정답입니다,185.208584100008,None,185.208584100008,None,185.208584100008,None,185.208584100008,None,186.81782490003388,None,186.81782490003388,187.31781999999657,,,,,,,,,,,,,,,,032,2022-05-27_10h56.53.584,FishGame,2022.1.1,61.17132070045122,
,22,넌 빈틈없어,3,Green,A,4.833333333333333,3.966666666666667,ScrollDown,ScrollUp,Green.png,1,Neutral,Neutral,,,,,0,0,0,0,,,,,,,,,,,,,0,21,21,21,,,,,,,,,,,,,,,,,,,,,,,,,,,,,,,,,,,,,,,,,,,,,,,,,,,,,,,,,,,,,,,,,,,,,,,,,,,,,,,,,1,1.709643799928017,187.93789180007298,None,ScrollDown,정답입니다,187.93789180007298,None,187.93789180007298,None,187.93789180007298,None,187.93789180007298,None,189.55094510002527,None,189.55094510002527,190.05102770007215,,,,,,,,,,,,,,,,032,2022-05-27_10h56.53.584,FishGame,2022.1.1,61.17132070045122,
,23,넌 상상력없어,4,Orange,B,2.833333333333333,3.133333333333333,ScrollUp,ScrollDown,Orange.png,1,Negative,Congruent,,,,,0,0,0,0,,,,,,,,,,,,,0,22,22,22,,,,,,,,,,,,,,,,,,,,,,,,,,,,,,,,,,,,,,,,,,,,,,,,,,,,,,,,,,,,,,,,,,,,,,,,,,,,,,,,,1.8641975422700245,1.7258689999580383,190.6778705000179,None,ScrollUp,정답입니다,190.6778705000179,None,190.6778705000179,None,190.6778705000179,None,190.6778705000179,None,192.29869910003617,None,192.29869910003617,192.8009487000527,,,,,,,,,,,,,,,,032,2022-05-27_10h56.53.584,FishGame,2022.1.1,61.17132070045122,
,24,넌 지혜로워,2,Orange,B,6.333333333333334,4.633333333333334,ScrollUp,ScrollDown,Orange.png,1,Positive,Incongruent,,,,,0,0,0,0,,,,,,,,,,,,,0,23,23,23,,,,,,,,,,,,,,,,,,,,,,,,,,,,,,,,,,,,,,,,,,,,,,,,,,,,,,,,,,,,,,,,,,,,,,,,,,,,,,,,,2,1.6112554999999702,193.43692500004545,None,ScrollUp,정답입니다,193.43692500004545,None,193.43692500004545,None,193.43692500004545,None,193.43692500004545,None,194.9342067000689,None,194.9342067000689,195.43424349999987,,,,,,,,,,,,,,,,032,2022-05-27_10h56.53.584,FishGame,2022.1.1,61.17132070045122,
,25,넌 시끄러워,4,Green,A,2.833333333333333,3.033333333333333,ScrollDown,ScrollUp,Green.png,1,Negative,Incongruent,,,,,0,0,0,0,,,,,,,,,,,,,0,24,24,24,,,,,,,,,,,,,,,,,,,,,,,,,,,,,,,,,,,,,,,,,,,,,,,,,,,,,,,,,,,,,,,,,,,,,,,,,,,,,,,,,1,1.4256813999963924,196.05715920007788,None,ScrollDown,정답입니다,196.05715920007788,None,196.05715920007788,None,196.05715920007788,None,196.05715920007788,None,197.38192710001022,None,197.38192710001022,197.88200770004187,,,,,,,,,,,,,,,,032,2022-05-27_10h56.53.584,FishGame,2022.1.1,61.17132070045122,
,26,넌 만사태평이야,3,Orange,B,4,4.333333333333333,ScrollUp,ScrollDown,Orange.png,1,Neutral,Neutral,,,,,0,0,0,0,,,,,,,,,,,,,0,25,25,25,,,,,,,,,,,,,,,,,,,,,,,,,,,,,,,,,,,,,,,,,,,,,,,,,,,,,,,,,,,,,,,,,,,,,,,,,,,,,,,,,1.9552469154198964,1.5273684000130743,198.50726620003115,None,ScrollUp,정답입니다,198.50726620003115,None,198.50726620003115,None,198.50726620003115,None,198.50726620003115,None,199.93417920009233,None,199.93417920009233,200.43410180008505,,,,,,,,,,,,,,,,032,2022-05-27_10h56.53.584,FishGame,2022.1.1,61.17132070045122,
,27,넌 붙임성있어,1,Green,A,5.708333333333333,5.633333333333334,ScrollDown,ScrollUp,Green.png,1,Positive,Congruent,,,,,0,0,0,0,,,,,,,,,,,,,0,26,26,26,,,,,,,,,,,,,,,,,,,,,,,,,,,,,,,,,,,,,,,,,,,,,,,,,,,,,,,,,,,,,,,,,,,,,,,,,,,,,,,,,1,1.7767413000110537,201.05487750004977,None,ScrollDown,정답입니다,201.05487750004977,None,201.05487750004977,None,201.05487750004977,None,201.05487750004977,None,202.731844700058,None,202.731844700058,203.2318968999898,,,,,,,,,,,,,,,,032,2022-05-27_10h56.53.584,FishGame,2022.1.1,61.17132070045122,
,28,넌 영리해,2,Green,A,6,4.033333333333333,ScrollDown,ScrollUp,Green.png,1,Positive,Congruent,,,,,0,0,0,0,,,,,,,,,,,,,0,27,27,27,,,,,,,,,,,,,,,,,,,,,,,,,,,,,,,,,,,,,,,,,,,,,,,,,,,,,,,,,,,,,,,,,,,,,,,,,,,,,,,,,1,1.5593727000523359,203.85415410005953,None,ScrollDown,정답입니다,203.85415410005953,None,203.85415410005953,None,203.85415410005953,None,203.85415410005953,None,205.31738800008316,None,205.31738800008316,205.81734790001065,,,,,,,,,,,,,,,,032,2022-05-27_10h56.53.584,FishGame,2022.1.1,61.17132070045122,
,29,넌 열심이야,1,Orange,B,6.041666666666667,5.833333333333333,ScrollUp,ScrollDown,Orange.png,1,Positive,Incongruent,,,,,0,0,0,0,,,,,,,,,,,,,0,28,28,28,,,,,,,,,,,,,,,,,,,,,,,,,,,,,,,,,,,,,,,,,,,,,,,,,,,,,,,,,,,,,,,,,,,,,,,,,,,,,,,,,2,1.5263208000687882,206.44325570005458,None,ScrollUp,정답입니다,206.44325570005458,None,206.44325570005458,None,206.44325570005458,None,206.44325570005458,None,207.8650595000945,None,207.8650595000945,208.36514090001583,,,,,,,,,,,,,,,,032,2022-05-27_10h56.53.584,FishGame,2022.1.1,61.17132070045122,
,30,넌 인기없어,4,Orange,B,3,3.3,ScrollUp,ScrollDown,Orange.png,1,Negative,Congruent,,,,,0,0,0,0,,,,,,,,,,,,,0,29,29,29,,,,,,,,,,,,,,,,,,,,,,,,,,,,,,,,,,,,,,,,,,,,,,,,,,,,,,,,,,,,,,,,,,,,,,,,,,,,,,,,,2,1.7427746000466868,208.98881870007608,None,ScrollUp,정답입니다,208.98881870007608,None,208.98881870007608,None,208.98881870007608,None,208.98881870007608,None,210.63391840003897,None,210.63391840003897,211.13709480001125,,,,,,,,,,,,,,,,032,2022-05-27_10h56.53.584,FishGame,2022.1.1,61.17132070045122,
,31,넌 익살스러워,3,Green,A,4.708333333333334,4.833333333333333,ScrollDown,ScrollUp,Green.png,1,Neutral,Neutral,,,,,0,0,0,0,,,,,,,,,,,,,0,30,30,30,,,,,,,,,,,,,,,,,,,,,,,,,,,,,,,,,,,,,,,,,,,,,,,,,,,,,,,,,,,,,,,,,,,,,,,,,,,,,,,,,1,1.458996000001207,211.75896580005065,None,ScrollDown,정답입니다,211.75896580005065,None,211.75896580005065,None,211.75896580005065,None,211.75896580005065,None,213.11494680005126,None,213.11494680005126,213.61719180003274,,,,,,,,,,,,,,,,032,2022-05-27_10h56.53.584,FishGame,2022.1.1,61.17132070045122,
,32,넌 이기적이야,5,Orange,B,2.291666666666667,2.333333333333333,ScrollUp,ScrollDown,Orange.png,1,Negative,Congruent,,,,,0,0,0,0,,,,,,,,,,,,,0,31,31,31,,,,,,,,,,,,,,,,,,,,,,,,,,,,,,,,,,,,,,,,,,,,,,,,,,,,,,,,,,,,,,,,,,,,,,,,,,,,,,,,,2,1.5760935000143945,214.23636300000362,None,ScrollUp,정답입니다,214.23636300000362,None,214.23636300000362,None,214.23636300000362,None,214.23636300000362,None,215.71496500005014,None,215.71496500005014,216.21723320009187,,,,,,,,,,,,,,,,032,2022-05-27_10h56.53.584,FishGame,2022.1.1,61.17132070045122,
,33,나를 데려가줘,6,Orange,B,0,0,ScrollDown,ScrollUp,Orange.png,1,NonTarget,NonTarget,,,,,0,0,0,0,,,,,,,,,,,,,0,32,32,32,,,,,,,,,,,,,,,,,,,,,,,,,,,,,,,,,,,,,,,,,,,,,,,,,,,,,,,,,,,,,,,,,,,,,,,,,,,,,,,,,1,1.675892599974759,216.844472900033,None,ScrollDown,정답입니다,216.844472900033,None,216.844472900033,None,216.844472900033,None,216.844472900033,None,218.4146053000586,None,218.4146053000586,218.91471810010262,,,,,,,,,,,,,,,,032,2022-05-27_10h56.53.584,FishGame,2022.1.1,61.17132070045122,
,34,넌 기회주의자야,5,Green,A,2.875,2.133333333333333,ScrollDown,ScrollUp,Green.png,1,Negative,Incongruent,,,,,0,0,0,0,,,,,,,,,,,,,0,33,33,33,,,,,,,,,,,,,,,,,,,,,,,,,,,,,,,,,,,,,,,,,,,,,,,,,,,,,,,,,,,,,,,,,,,,,,,,,,,,,,,,,1,1.6806181999854743,219.54016199999023,None,ScrollDown,정답입니다,219.54016199999023,None,219.54016199999023,None,219.54016199999023,None,219.54016199999023,None,221.11717089999001,None,221.11717089999001,221.61712690000422,,,,,,,,,,,,,,,,032,2022-05-27_10h56.53.584,FishGame,2022.1.1,61.17132070045122,
,1,넌 미성숙해,4,Green,A,3,3.2,ScrollDown,ScrollUp,Green.png,2,Negative,Incongruent,,,,,0,0,0,0,,,,,,,,,,,,,,,,,0,0,0,0,,,,,,,,,,,,,,,,,,,,,,,,,,,,,,,,,,,,254.99959220003802,256.49976240005344,256.5331080000615,257.4862053000834,257.5195615000557,258.4830659000436,258.4830659000436,None,,,,,,,,,,,,,,,,,,,,,,,,,,,,,,,,,,1,1.7889004000462592,259.59323940007016,None,ScrollDown,정답입니다,259.59323940007016,None,259.59323940007016,None,259.59323940007016,None,259.59323940007016,None,261.2803867000621,None,261.2803867000621,261.7804814000847,222.11721719999332,None,222.11721719999332,None,0.119444445,-0.10555556,1,0,0,0.01607935002539307,None,252.1308607000392,None,,,032,2022-05-27_10h56.53.584,FishGame,2022.1.1,61.17132070045122,
,2,넌 반사회적이야,5,Orange,B,2.416666666666667,2.033333333333333,ScrollUp,ScrollDown,Orange.png,2,Negative,Congruent,,,,,0,0,0,0,,,,,,,,,,,,,,,,,0,1,1,1,,,,,,,,,,,,,,,,,,,,,,,,,,,,,,,,,,,,,,,,,,,,,,,,,,,,,,,,,,,,,,,,,,,,,,,,,,,,,2,1.7282493999227881,262.40330400003586,None,ScrollUp,정답입니다,262.40330400003586,None,262.40330400003586,None,262.40330400003586,None,262.40330400003586,None,264.0328750000335,None,264.0328750000335,264.5329845000524,,,,,,,,,,,,,,,,032,2022-05-27_10h56.53.584,FishGame,2022.1.1,61.17132070045122,
,3,넌 유능해,2,Green,A,6.208333333333333,4.433333333333334,ScrollDown,ScrollUp,Green.png,2,Positive,Congruent,,,,,0,0,0,0,,,,,,,,,,,,,,,,,0,2,2,2,,,,,,,,,,,,,,,,,,,,,,,,,,,,,,,,,,,,,,,,,,,,,,,,,,,,,,,,,,,,,,,,,,,,,,,,,,,,,1,1.6105470000766218,265.1630123000359,None,ScrollDown,정답입니다,265.1630123000359,None,265.1630123000359,None,265.1630123000359,None,265.1630123000359,None,266.66390560008585,None,266.66390560008585,267.1661247999873,,,,,,,,,,,,,,,,032,2022-05-27_10h56.53.584,FishGame,2022.1.1,61.17132070045122,
,4,넌 능숙해,2,Orange,B,5.666666666666667,4.733333333333333,ScrollUp,ScrollDown,Orange.png,2,Positive,Incongruent,,,,,0,0,0,0,,,,,,,,,,,,,,,,,0,3,3,3,,,,,,,,,,,,,,,,,,,,,,,,,,,,,,,,,,,,,,,,,,,,,,,,,,,,,,,,,,,,,,,,,,,,,,,,,,,,,2,1.5610089000547305,267.7904283000389,None,ScrollUp,정답입니다,267.7904283000389,None,267.7904283000389,None,267.7904283000389,None,267.7904283000389,None,269.247126000002,None,269.247126000002,269.74939210002776,,,,,,,,,,,,,,,,032,2022-05-27_10h56.53.584,FishGame,2022.1.1,61.17132070045122,
,5,넌 진부해,4,Orange,B,2.458333333333333,3.166666666666667,ScrollUp,ScrollDown,Orange.png,2,Negative,Congruent,,,,,0,0,0,0,,,,,,,,,,,,,,,,,0,4,4,4,,,,,,,,,,,,,,,,,,,,,,,,,,,,,,,,,,,,,,,,,,,,,,,,,,,,,,,,,,,,,,,,,,,,,,,,,,,,,2,1.7126744999550283,270.3701344000874,None,ScrollUp,정답입니다,270.3701344000874,None,270.3701344000874,None,270.3701344000874,None,270.3701344000874,None,271.98264480009675,None,271.98264480009675,272.4858511000639,,,,,,,,,,,,,,,,032,2022-05-27_10h56.53.584,FishGame,2022.1.1,61.17132070045122,
,6,나를 보내줘,6,Green,A,0,0,ScrollUp,ScrollDown,Green.png,2,NonTarget,NonTarget,,,,,0,0,0,0,,,,,,,,,,,,,,,,,0,5,5,5,,,,,,,,,,,,,,,,,,,,,,,,,,,,,,,,,,,,,,,,,,,,,,,,,,,,,,,,,,,,,,,,,,,,,,,,,,,,,2,1.6261111999629065,273.1190170000773,None,ScrollUp,정답입니다,273.1190170000773,None,273.1190170000773,None,273.1190170000773,None,273.1190170000773,None,274.647025900078,None,274.647025900078,275.14925940008834,,,,,,,,,,,,,,,,032,2022-05-27_10h56.53.584,FishGame,2022.1.1,61.17132070045122,
,7,넌 엄격해,3,Green,A,4.166666666666666,4.1,ScrollDown,ScrollUp,Green.png,2,Neutral,Neutral,,,,,0,0,0,0,,,,,,,,,,,,,,,,,0,6,6,6,,,,,,,,,,,,,,,,,,,,,,,,,,,,,,,,,,,,,,,,,,,,,,,,,,,,,,,,,,,,,,,,,,,,,,,,,,,,,1,1.7106203000294045,275.7679249000503,None,ScrollDown,정답입니다,275.7679249000503,None,275.7679249000503,None,275.7679249000503,None,275.7679249000503,None,277.38034000003245,None,277.38034000003245,277.88265070004854,,,,,,,,,,,,,,,,032,2022-05-27_10h56.53.584,FishGame,2022.1.1,61.17132070045122,
,8,나를 보내줘,6,Green,A,0,0,ScrollUp,ScrollDown,Green.png,2,NonTarget,NonTarget,,,,,0,0,0,0,,,,,,,,,,,,,,,,,0,7,7,7,,,,,,,,,,,,,,,,,,,,,,,,,,,,,,,,,,,,,,,,,,,,,,,,,,,,,,,,,,,,,,,,,,,,,,,,,,,,,2,1.4612412999849766,278.50108010007534,None,ScrollUp,정답입니다,278.50108010007534,None,278.50108010007534,None,278.50108010007534,None,278.50108010007534,None,279.8636039000703,None,279.8636039000703,280.3636619000463,,,,,,,,,,,,,,,,032,2022-05-27_10h56.53.584,FishGame,2022.1.1,61.17132070045122,
,9,넌 대담해,3,Orange,B,4.875,4.866666666666666,ScrollUp,ScrollDown,Orange.png,2,Neutral,Neutral,,,,,0,0,0,0,,,,,,,,,,,,,,,,,0,8,8,8,,,,,,,,,,,,,,,,,,,,,,,,,,,,,,,,,,,,,,,,,,,,,,,,,,,,,,,,,,,,,,,,,,,,,,,,,,,,,2,1.5797832000534981,280.99688690004405,None,ScrollUp,정답입니다,280.99688690004405,None,280.99688690004405,None,280.99688690004405,None,280.99688690004405,None,282.4635563000338,None,282.4635563000338,282.9657433000393,,,,,,,,,,,,,,,,032,2022-05-27_10h56.53.584,FishGame,2022.1.1,61.17132070045122,
,10,넌 꾸준해,1,Green,A,5.916666666666668,5.8,ScrollDown,ScrollUp,Green.png,2,Positive,Congruent,,,,,0,0,0,0,,,,,,,,,,,,,,,,,0,9,9,9,,,,,,,,,,,,,,,,,,,,,,,,,,,,,,,,,,,,,,,,,,,,,,,,,,,,,,,,,,,,,,,,,,,,,,,,,,,,,1,1.727787800016813,283.59302470006514,None,ScrollDown,정답입니다,283.59302470006514,None,283.59302470006514,None,283.59302470006514,None,283.59302470006514,None,285.2132265000837,None,285.2132265000837,285.71332930005156,,,,,,,,,,,,,,,,032,2022-05-27_10h56.53.584,FishGame,2022.1.1,61.17132070045122,
,11,나를 데려가줘,6,Orange,B,0,0,ScrollDown,ScrollUp,Orange.png,2,NonTarget,NonTarget,,,,,0,0,0,0,,,,,,,,,,,,,,,,,0,10,10,10,,,,,,,,,,,,,,,,,,,,,,,,,,,,,,,,,,,,,,,,,,,,,,,,,,,,,,,,,,,,,,,,,,,,,,,,,,,,,1,1.644956599920988,286.33643310004845,None,ScrollDown,정답입니다,286.33643310004845,None,286.33643310004845,None,286.33643310004845,None,286.33643310004845,None,287.8823698000051,None,287.8823698000051,288.3824058000464,,,,,,,,,,,,,,,,032,2022-05-27_10h56.53.584,FishGame,2022.1.1,61.17132070045122,
,12,넌 독선적이야,5,Green,A,2.458333333333333,1.933333333333333,ScrollDown,ScrollUp,Green.png,2,Negative,Incongruent,,,,,0,0,0,0,,,,,,,,,,,,,,,,,0,11,11,11,,,,,,,,,,,,,,,,,,,,,,,,,,,,,,,,,,,,,,,,,,,,,,,,,,,,,,,,,,,,,,,,,,,,,,,,,,,,,1,1.6262611000565812,289.0036079999991,None,ScrollDown,정답입니다,289.0036079999991,None,289.0036079999991,None,289.0036079999991,None,289.0036079999991,None,290.5322347000474,None,290.5322347000474,291.03228350006975,,,,,,,,,,,,,,,,032,2022-05-27_10h56.53.584,FishGame,2022.1.1,61.17132070045122,
,13,나를 보내줘,6,Green,A,0,0,ScrollUp,ScrollDown,Green.png,2,NonTarget,NonTarget,,,,,0,0,0,0,,,,,,,,,,,,,,,,,0,12,12,12,,,,,,,,,,,,,,,,,,,,,,,,,,,,,,,,,,,,,,,,,,,,,,,,,,,,,,,,,,,,,,,,,,,,,,,,,,,,,2,1.4611512999981642,291.6633456000127,None,ScrollUp,정답입니다,291.6633456000127,None,291.6633456000127,None,291.6633456000127,None,291.6633456000127,None,293.029946600087,None,293.029946600087,293.5299011000898,,,,,,,,,,,,,,,,032,2022-05-27_10h56.53.584,FishGame,2022.1.1,61.17132070045122,
,14,넌 책임감있어,1,Orange,B,6.347826086956522,6,ScrollUp,ScrollDown,Orange.png,2,Positive,Incongruent,,,,,0,0,0,0,,,,,,,,,,,,,,,,,0,13,13,13,,,,,,,,,,,,,,,,,,,,,,,,,,,,,,,,,,,,,,,,,,,,,,,,,,,,,,,,,,,,,,,,,,,,,,,,,,,,,2,1.9090771999908611,294.1577316999901,None,ScrollUp,정답입니다,294.1577316999901,None,294.1577316999901,None,294.1577316999901,None,294.1577316999901,None,295.9633010000689,None,295.9633010000689,296.4654841000447,,,,,,,,,,,,,,,,032,2022-05-27_10h56.53.584,FishGame,2022.1.1,61.17132070045122,
,15,넌 문학적이야,3,Green,A,4.708333333333334,4.333333333333333,ScrollDown,ScrollUp,Green.png,2,Neutral,Neutral,,,,,0,0,0,0,,,,,,,,,,,,,,,,,0,14,14,14,,,,,,,,,,,,,,,,,,,,,,,,,,,,,,,,,,,,,,,,,,,,,,,,,,,,,,,,,,,,,,,,,,,,,,,,,,,,,1,1.7294276000466198,297.0831122000236,None,ScrollDown,정답입니다,297.0831122000236,None,297.0831122000236,None,297.0831122000236,None,297.0831122000236,None,298.71532800002024,None,298.71532800002024,299.23202100000344,,,,,,,,,,,,,,,,032,2022-05-27_10h56.53.584,FishGame,2022.1.1,61.17132070045122,
,16,넌 재미있어,1,Orange,B,5.875,5.7,ScrollUp,ScrollDown,Orange.png,2,Positive,Incongruent,,,,,0,0,0,0,,,,,,,,,,,,,,,,,0,15,15,15,,,,,,,,,,,,,,,,,,,,,,,,,,,,,,,,,,,,,,,,,,,,,,,,,,,,,,,,,,,,,,,,,,,,,,,,,,,,,2,1.6258396999910474,299.83739190001506,None,ScrollUp,정답입니다,299.83739190001506,None,299.83739190001506,None,299.83739190001506,None,299.83739190001506,None,301.36537010001484,None,301.36537010001484,301.86547170009,,,,,,,,,,,,,,,,032,2022-05-27_10h56.53.584,FishGame,2022.1.1,61.17132070045122,
,17,나를 데려가줘,6,Orange,B,0,0,ScrollDown,ScrollUp,Orange.png,2,NonTarget,NonTarget,,,,,0,0,0,0,,,,,,,,,,,,,,,,,0,16,16,16,,,,,,,,,,,,,,,,,,,,,,,,,,,,,,,,,,,,,,,,,,,,,,,,,,,,,,,,,,,,,,,,,,,,,,,,,,,,,1,1.5611066999845207,302.48301240010187,None,ScrollDown,정답입니다,302.48301240010187,None,302.48301240010187,None,302.48301240010187,None,302.48301240010187,None,303.94851390004624,None,303.94851390004624,304.44861940003466,,,,,,,,,,,,,,,,032,2022-05-27_10h56.53.584,FishGame,2022.1.1,61.17132070045122,
,18,넌 협력적이야,1,Green,A,5.625,5.633333333333334,ScrollDown,ScrollUp,Green.png,2,Positive,Congruent,,,,,0,0,0,0,,,,,,,,,,,,,,,,,0,17,17,17,,,,,,,,,,,,,,,,,,,,,,,,,,,,,,,,,,,,,,,,,,,,,,,,,,,,,,,,,,,,,,,,,,,,,,,,,,,,,1,1.625883899978362,305.0718025000533,None,ScrollDown,정답입니다,305.0718025000533,None,305.0718025000533,None,305.0718025000533,None,305.0718025000533,None,306.5964271000121,None,306.5964271000121,307.098609900102,,,,,,,,,,,,,,,,032,2022-05-27_10h56.53.584,FishGame,2022.1.1,61.17132070045122,
,19,넌 평범해,3,Orange,B,4.333333333333332,4.233333333333333,ScrollUp,ScrollDown,Orange.png,2,Neutral,Neutral,,,,,0,0,0,0,,,,,,,,,,,,,,,,,0,18,18,18,,,,,,,,,,,,,,,,,,,,,,,,,,,,,,,,,,,,,,,,,,,,,,,,,,,,,,,,,,,,,,,,,,,,,,,,,,,,,2,1.5120407999493182,307.7193720000796,None,ScrollUp,정답입니다,307.7193720000796,None,307.7193720000796,None,307.7193720000796,None,307.7193720000796,None,309.1296873000683,None,309.1296873000683,309.6319450000301,,,,,,,,,,,,,,,,032,2022-05-27_10h56.53.584,FishGame,2022.1.1,61.17132070045122,
,20,넌 오만해,5,Green,A,2.333333333333333,2,ScrollDown,ScrollUp,Green.png,2,Negative,Incongruent,,,,,0,0,0,0,,,,,,,,,,,,,,,,,0,19,19,19,,,,,,,,,,,,,,,,,,,,,,,,,,,,,,,,,,,,,,,,,,,,,,,,,,,,,,,,,,,,,,,,,,,,,,,,,,,,,1,1.7130321000004187,310.24951140000485,None,ScrollDown,정답입니다,310.24951140000485,None,310.24951140000485,None,310.24951140000485,None,310.24951140000485,None,311.8628908999963,None,311.8628908999963,312.3651790000731,,,,,,,,,,,,,,,,032,2022-05-27_10h56.53.584,FishGame,2022.1.1,61.17132070045122,
,21,넌 운이없어,4,Orange,B,3,3.466666666666667,ScrollUp,ScrollDown,Orange.png,2,Negative,Congruent,,,,,0,0,0,0,,,,,,,,,,,,,,,,,0,20,20,20,,,,,,,,,,,,,,,,,,,,,,,,,,,,,,,,,,,,,,,,,,,,,,,,,,,,,,,,,,,,,,,,,,,,,,,,,,,,,2,1.7438809999730438,312.98548870009836,None,ScrollUp,정답입니다,312.98548870009836,None,312.98548870009836,None,312.98548870009836,None,312.98548870009836,None,314.6318056000164,None,314.6318056000164,315.13176690007094,,,,,,,,,,,,,,,,032,2022-05-27_10h56.53.584,FishGame,2022.1.1,61.17132070045122,
,22,넌 창조적이야,2,Orange,B,6.125,4.633333333333334,ScrollUp,ScrollDown,Orange.png,2,Positive,Incongruent,,,,,0,0,0,0,,,,,,,,,,,,,,,,,0,21,21,21,,,,,,,,,,,,,,,,,,,,,,,,,,,,,,,,,,,,,,,,,,,,,,,,,,,,,,,,,,,,,,,,,,,,,,,,,,,,,2,1.7258590999990702,315.75711280002724,None,ScrollUp,정답입니다,315.75711280002724,None,315.75711280002724,None,315.75711280002724,None,315.75711280002724,None,317.37946810002904,None,317.37946810002904,317.8816705000354,,,,,,,,,,,,,,,,032,2022-05-27_10h56.53.584,FishGame,2022.1.1,61.17132070045122,
,23,나를 보내줘,6,Green,A,0,0,ScrollUp,ScrollDown,Green.png,2,NonTarget,NonTarget,,,,,0,0,0,0,,,,,,,,,,,,,,,,,0,22,22,22,,,,,,,,,,,,,,,,,,,,,,,,,,,,,,,,,,,,,,,,,,,,,,,,,,,,,,,,,,,,,,,,,,,,,,,,,,,,,2,1.8592868999112397,318.49813580000773,None,ScrollUp,정답입니다,318.49813580000773,None,318.49813580000773,None,318.49813580000773,None,318.49813580000773,None,320.2649992000079,None,320.2649992000079,320.7626483000349,,,,,,,,,,,,,,,,032,2022-05-27_10h56.53.584,FishGame,2022.1.1,61.17132070045122,
,24,넌 통찰력있어,2,Green,A,6.5,4.8,ScrollDown,ScrollUp,Green.png,2,Positive,Congruent,,,,,0,0,0,0,,,,,,,,,,,,,,,,,0,23,23,23,,,,,,,,,,,,,,,,,,,,,,,,,,,,,,,,,,,,,,,,,,,,,,,,,,,,,,,,,,,,,,,,,,,,,,,,,,,,,1,1.8118506000610068,321.4053484000033,None,ScrollDown,정답입니다,321.4053484000033,None,321.4053484000033,None,321.4053484000033,None,321.4053484000033,None,323.11268220003694,None,323.11268220003694,323.61494790005963,,,,,,,,,,,,,,,,032,2022-05-27_10h56.53.584,FishGame,2022.1.1,61.17132070045122,
,25,넌 경솔해,5,Orange,B,2.458333333333333,2.266666666666667,ScrollUp,ScrollDown,Orange.png,2,Negative,Congruent,,,,,0,0,0,0,,,,,,,,,,,,,,,,,0,24,24,24,,,,,,,,,,,,,,,,,,,,,,,,,,,,,,,,,,,,,,,,,,,,,,,,,,,,,,,,,,,,,,,,,,,,,,,,,,,,,2,1.6110450000269338,324.2343947000336,None,ScrollUp,정답입니다,324.2343947000336,None,324.2343947000336,None,324.2343947000336,None,324.2343947000336,None,325.7482066000812,None,325.7482066000812,326.2482891000109,,,,,,,,,,,,,,,,032,2022-05-27_10h56.53.584,FishGame,2022.1.1,61.17132070045122,
,26,넌 초조해,4,Green,A,2.916666666666667,3.133333333333333,ScrollDown,ScrollUp,Green.png,2,Negative,Incongruent,,,,,0,0,0,0,,,,,,,,,,,,,,,,,0,25,25,25,,,,,,,,,,,,,,,,,,,,,,,,,,,,,,,,,,,,,,,,,,,,,,,,,,,,,,,,,,,,,,,,,,,,,,,,,,,,,1,1.7761520000640303,326.8712666000938,None,ScrollDown,정답입니다,326.8712666000938,None,326.8712666000938,None,326.8712666000938,None,326.8712666000938,None,328.54586380010005,None,328.54586380010005,329.0480929000769,,,,,,,,,,,,,,,,032,2022-05-27_10h56.53.584,FishGame,2022.1.1,61.17132070045122,
,27,넌 무관심해,4,Orange,B,2.833333333333333,2.9,ScrollUp,ScrollDown,Orange.png,2,Negative,Congruent,,,,,0,0,0,0,,,,,,,,,,,,,,,,,0,26,26,26,,,,,,,,,,,,,,,,,,,,,,,,,,,,,,,,,,,,,,,,,,,,,,,,,,,,,,,,,,,,,,,,,,,,,,,,,,,,,2,1.809218000038527,329.67287170002237,None,ScrollUp,정답입니다,329.67287170002237,None,329.67287170002237,None,329.67287170002237,None,329.67287170002237,None,331.3792124000611,None,331.3792124000611,331.8814152000705,,,,,,,,,,,,,,,,032,2022-05-27_10h56.53.584,FishGame,2022.1.1,61.17132070045122,
,28,넌 감성적이야,3,Orange,B,4.125,4.166666666666667,ScrollUp,ScrollDown,Orange.png,2,Neutral,Neutral,,,,,0,0,0,0,,,,,,,,,,,,,,,,,0,27,27,27,,,,,,,,,,,,,,,,,,,,,,,,,,,,,,,,,,,,,,,,,,,,,,,,,,,,,,,,,,,,,,,,,,,,,,,,,,,,,2,1.6759897000156343,332.50987539999187,None,ScrollUp,정답입니다,332.50987539999187,None,332.50987539999187,None,332.50987539999187,None,332.50987539999187,None,334.079214300029,None,334.079214300029,334.5791763000889,,,,,,,,,,,,,,,,032,2022-05-27_10h56.53.584,FishGame,2022.1.1,61.17132070045122,
,29,넌 배려심있어,1,Green,A,6.083333333333333,5.5,ScrollDown,ScrollUp,Green.png,2,Positive,Congruent,,,,,0,0,0,0,,,,,,,,,,,,,,,,,0,28,28,28,,,,,,,,,,,,,,,,,,,,,,,,,,,,,,,,,,,,,,,,,,,,,,,,,,,,,,,,,,,,,,,,,,,,,,,,,,,,,1,1.80924309999682,335.2054346000077,None,ScrollDown,정답입니다,335.2054346000077,None,335.2054346000077,None,335.2054346000077,None,335.2054346000077,None,336.91243290004786,None,336.91243290004786,337.4146454000147,,,,,,,,,,,,,,,,032,2022-05-27_10h56.53.584,FishGame,2022.1.1,61.17132070045122,
,30,넌 숨김없어,3,Green,A,4.5,4.933333333333334,ScrollDown,ScrollUp,Green.png,2,Neutral,Neutral,,,,,0,0,0,0,,,,,,,,,,,,,,,,,0,29,29,29,,,,,,,,,,,,,,,,,,,,,,,,,,,,,,,,,,,,,,,,,,,,,,,,,,,,,,,,,,,,,,,,,,,,,,,,,,,,,1,1.8935857999604195,338.03450930002145,None,ScrollDown,정답입니다,338.03450930002145,None,338.03450930002145,None,338.03450930002145,None,338.03450930002145,None,339.82874170003925,None,339.82874170003925,340.32887060008943,,,,,,,,,,,,,,,,032,2022-05-27_10h56.53.584,FishGame,2022.1.1,61.17132070045122,
,31,넌 훌륭해,2,Orange,B,5.916666666666667,4.033333333333333,ScrollUp,ScrollDown,Orange.png,2,Positive,Incongruent,,,,,0,0,0,0,,,,,,,,,,,,,,,,,0,30,30,30,,,,,,,,,,,,,,,,,,,,,,,,,,,,,,,,,,,,,,,,,,,,,,,,,,,,,,,,,,,,,,,,,,,,,,,,,,,,,2,1.6641862000105903,340.9553622000385,None,ScrollUp,정답입니다,340.9553622000385,None,340.9553622000385,None,340.9553622000385,None,340.9553622000385,None,342.51465160003863,None,342.51465160003863,343.01460290001705,,,,,,,,,,,,,,,,032,2022-05-27_10h56.53.584,FishGame,2022.1.1,61.17132070045122,
,32,넌 슬기로워,2,Green,A,6.166666666666667,4.1,ScrollDown,ScrollUp,Green.png,2,Positive,Congruent,,,,,0,0,0,0,,,,,,,,,,,,,,,,,0,31,31,31,,,,,,,,,,,,,,,,,,,,,,,,,,,,,,,,,,,,,,,,,,,,,,,,,,,,,,,,,,,,,,,,,,,,,,,,,,,,,1,1.6925694000674412,343.64004640001804,None,ScrollDown,정답입니다,343.64004640001804,None,343.64004640001804,None,343.64004640001804,None,343.64004640001804,None,345.2289353000233,None,345.2289353000233,345.73112550005317,,,,,,,,,,,,,,,,032,2022-05-27_10h56.53.584,FishGame,2022.1.1,61.17132070045122,
,33,넌 냉혹해,5,Green,A,2.583333333333333,2.1,ScrollDown,ScrollUp,Green.png,2,Negative,Incongruent,,,,,0,0,0,0,,,,,,,,,,,,,,,,,0,32,32,32,,,,,,,,,,,,,,,,,,,,,,,,,,,,,,,,,,,,,,,,,,,,,,,,,,,,,,,,,,,,,,,,,,,,,,,,,,,,,1,1.7431325999787077,346.3559588000644,None,ScrollDown,정답입니다,346.3559588000644,None,346.3559588000644,None,346.3559588000644,None,346.3559588000644,None,347.9952260000864,None,347.9952260000864,348.4953779000789,,,,,,,,,,,,,,,,032,2022-05-27_10h56.53.584,FishGame,2022.1.1,61.17132070045122,
,34,나를 데려가줘,6,Orange,B,0,0,ScrollDown,ScrollUp,Orange.png,2,NonTarget,NonTarget,,,,,0,0,0,0,,,,,,,,,,,,,,,,,0,33,33,33,,,,,,,,,,,,,,,,,,,,,,,,,,,,,,,,,,,,,,,,,,,,,,,,,,,,,,,,,,,,,,,,,,,,,,,,,,,,,1,1.6306956999469548,349.115732400096,None,ScrollDown,정답입니다,349.115732400096,None,349.115732400096,None,349.115732400096,None,349.115732400096,None,350.6477331999922,None,350.6477331999922,351.1477790999925,,,,,,,,,,,,,,,,032,2022-05-27_10h56.53.584,FishGame,2022.1.1,61.17132070045122,
,35,넌 편파적이야,5,Orange,B,2.125,2,ScrollUp,ScrollDown,Orange.png,2,Negative,Congruent,,,,,0,0,0,0,,,,,,,,,,,,,,,,,0,34,34,34,,,,,,,,,,,,,,,,,,,,,,,,,,,,,,,,,,,,,,,,,,,,,,,,,,,,,,,,,,,,,,,,,,,,,,,,,,,,,2,1.6558995000086725,351.77715370000806,None,ScrollUp,정답입니다,351.77715370000806,None,351.77715370000806,None,351.77715370000806,None,351.77715370000806,None,353.328481500037,None,353.328481500037,353.828520799987,,,,,,,,,,,,,,,,032,2022-05-27_10h56.53.584,FishGame,2022.1.1,61.17132070045122,
,36,넌 슬퍼,4,Green,A,2.583333333333333,3.066666666666667,ScrollDown,ScrollUp,Green.png,2,Negative,Incongruent,,,,,0,0,0,0,,,,,,,,,,,,,,,,,0,35,35,35,,,,,,,,,,,,,,,,,,,,,,,,,,,,,,,,,,,,,,,,,,,,,,,,,,,,,,,,,,,,,,,,,,,,,,,,,,,,,1,1.6952141999499872,354.44892190000974,None,ScrollDown,정답입니다,354.44892190000974,None,354.44892190000974,None,354.44892190000974,None,354.44892190000974,None,356.0476642000722,None,356.0476642000722,356.5476550000021,,,,,,,,,,,,,,,,032,2022-05-27_10h56.53.584,FishGame,2022.1.1,61.17132070045122,
,37,나를 데려가줘,6,Orange,B,0,0,ScrollDown,ScrollUp,Orange.png,2,NonTarget,NonTarget,,,,,0,0,0,0,,,,,,,,,,,,,,,,,0,36,36,36,,,,,,,,,,,,,,,,,,,,,,,,,,,,,,,,,,,,,,,,,,,,,,,,,,,,,,,,,,,,,,,,,,,,,,,,,,,,,1,1.609231400070712,357.1731621000217,None,ScrollDown,정답입니다,357.1731621000217,None,357.1731621000217,None,357.1731621000217,None,357.1731621000217,None,358.6783546000952,None,358.6783546000952,359.1784236000385,,,,,,,,,,,,,,,,032,2022-05-27_10h56.53.584,FishGame,2022.1.1,61.17132070045122,
,38,넌 친절해,1,Orange,B,6.041666666666667,5.533333333333333,ScrollUp,ScrollDown,Orange.png,2,Positive,Incongruent,,,,,0,0,0,0,,,,,,,,,,,,,,,,,0,37,37,37,,,,,,,,,,,,,,,,,,,,,,,,,,,,,,,,,,,,,,,,,,,,,,,,,,,,,,,,,,,,,,,,,,,,,,,,,,,,,2,1.6795056000119075,359.8000115000177,None,ScrollUp,정답입니다,359.8000115000177,None,359.8000115000177,None,359.8000115000177,None,359.8000115000177,None,361.38087220001034,None,361.38087220001034,361.8808666000841,,,,,,,,,,,,,,,,032,2022-05-27_10h56.53.584,FishGame,2022.1.1,61.17132070045122,
,1,넌 엉성해,4,Green,A,3,3.3,ScrollDown,ScrollUp,Green.png,3,Negative,Incongruent,,,,,0,0,0,0,,,,,,,,,,,,,,,,,,,,,0,0,0,0,,,,,,,,,,,,,,,,,,,,,,,,,,,,,,,,394.5779224000871,396.07790939998813,396.1112074000994,397.066688299994,397.1000187000027,398.0635298000416,398.0635298000416,None,,,,,,,,,,,,,,,,,,,,,,,,,,,,,,,,,,1,1.6683785000350326,399.1609917000169,None,ScrollDown,정답입니다,399.1609917000169,None,399.1609917000169,None,399.1609917000169,None,399.1609917000169,None,400.72749820002355,None,400.72749820002355,401.2275449000299,362.3808615000453,None,362.3808615000453,None,0.108333334,-0.10555556,1,0,0,0.016262049903161824,None,392.3946433000965,None,,,032,2022-05-27_10h56.53.584,FishGame,2022.1.1,61.17132070045122,
,2,나를 보내줘,6,Green,A,0,0,ScrollUp,ScrollDown,Green.png,3,NonTarget,NonTarget,,,,,0,0,0,0,,,,,,,,,,,,,,,,,,,,,0,1,1,1,,,,,,,,,,,,,,,,,,,,,,,,,,,,,,,,,,,,,,,,,,,,,,,,,,,,,,,,,,,,,,,,,,,,,,,,,2,1.5782757999841124,401.84845950000454,None,ScrollUp,정답입니다,401.84845950000454,None,401.84845950000454,None,401.84845950000454,None,401.84845950000454,None,403.32999780005775,None,403.32999780005775,403.83000970003195,,,,,,,,,,,,,,,,032,2022-05-27_10h56.53.584,FishGame,2022.1.1,61.17132070045122,
,3,넌 활발해,1,Orange,B,5.666666666666667,5.6,ScrollUp,ScrollDown,Orange.png,3,Positive,Incongruent,,,,,0,0,0,0,,,,,,,,,,,,,,,,,,,,,0,2,2,2,,,,,,,,,,,,,,,,,,,,,,,,,,,,,,,,,,,,,,,,,,,,,,,,,,,,,,,,,,,,,,,,,,,,,,,,,2,1.6094007000792772,404.4562704000855,None,ScrollUp,정답입니다,404.4562704000855,None,404.4562704000855,None,404.4562704000855,None,404.4562704000855,None,405.96070040005725,None,405.96070040005725,406.4607872000197,,,,,,,,,,,,,,,,032,2022-05-27_10h56.53.584,FishGame,2022.1.1,61.17132070045122,
,4,넌 논리적이야,2,Green,A,5.666666666666666,4.633333333333334,ScrollDown,ScrollUp,Green.png,3,Positive,Congruent,,,,,0,0,0,0,,,,,,,,,,,,,,,,,,,,,0,3,3,3,,,,,,,,,,,,,,,,,,,,,,,,,,,,,,,,,,,,,,,,,,,,,,,,,,,,,,,,,,,,,,,,,,,,,,,,,1,1.6805086999665946,407.0837712000357,None,ScrollDown,정답입니다,407.0837712000357,None,407.0837712000357,None,407.0837712000357,None,407.0837712000357,None,408.66338140005246,None,408.66338140005246,409.16332300007343,,,,,,,,,,,,,,,,032,2022-05-27_10h56.53.584,FishGame,2022.1.1,61.17132070045122,
,5,넌 과묵해,3,Green,A,3.875,4.4,ScrollDown,ScrollUp,Green.png,3,Neutral,Neutral,,,,,0,0,0,0,,,,,,,,,,,,,,,,,,,,,0,4,4,4,,,,,,,,,,,,,,,,,,,,,,,,,,,,,,,,,,,,,,,,,,,,,,,,,,,,,,,,,,,,,,,,,,,,,,,,,1,1.5940393999917433,409.7974895000225,None,ScrollDown,정답입니다,409.7974895000225,None,409.7974895000225,None,409.7974895000225,None,409.7974895000225,None,411.27760780008975,None,411.27760780008975,411.7776099999901,,,,,,,,,,,,,,,,032,2022-05-27_10h56.53.584,FishGame,2022.1.1,61.17132070045122,
,6,나를 데려가줘,6,Orange,B,0,0,ScrollDown,ScrollUp,Orange.png,3,NonTarget,NonTarget,,,,,0,0,0,0,,,,,,,,,,,,,,,,,,,,,0,5,5,5,,,,,,,,,,,,,,,,,,,,,,,,,,,,,,,,,,,,,,,,,,,,,,,,,,,,,,,,,,,,,,,,,,,,,,,,,1,1.5258136000484228,412.4002809000667,None,ScrollDown,정답입니다,412.4002809000667,None,412.4002809000667,None,412.4002809000667,None,412.4002809000667,None,413.8296799000818,None,413.8296799000818,414.3296970000956,,,,,,,,,,,,,,,,032,2022-05-27_10h56.53.584,FishGame,2022.1.1,61.17132070045122,
,7,넌 미숙해,4,Orange,B,3,3,ScrollUp,ScrollDown,Orange.png,3,Negative,Congruent,,,,,0,0,0,0,,,,,,,,,,,,,,,,,,,,,0,6,6,6,,,,,,,,,,,,,,,,,,,,,,,,,,,,,,,,,,,,,,,,,,,,,,,,,,,,,,,,,,,,,,,,,,,,,,,,,2,1.5093282000161707,414.94933760003187,None,ScrollUp,정답입니다,414.94933760003187,None,414.94933760003187,None,414.94933760003187,None,414.94933760003187,None,416.3607284000609,None,416.3607284000609,416.8607848000247,,,,,,,,,,,,,,,,032,2022-05-27_10h56.53.584,FishGame,2022.1.1,61.17132070045122,
,8,나를 보내줘,6,Green,A,0,0,ScrollUp,ScrollDown,Green.png,3,NonTarget,NonTarget,,,,,0,0,0,0,,,,,,,,,,,,,,,,,,,,,0,7,7,7,,,,,,,,,,,,,,,,,,,,,,,,,,,,,,,,,,,,,,,,,,,,,,,,,,,,,,,,,,,,,,,,,,,,,,,,,2,1.908945499919355,417.48105900001246,None,ScrollUp,정답입니다,417.48105900001246,None,417.48105900001246,None,417.48105900001246,None,417.48105900001246,None,419.2940599001013,None,419.2940599001013,419.7963014000561,,,,,,,,,,,,,,,,032,2022-05-27_10h56.53.584,FishGame,2022.1.1,61.17132070045122,
,9,넌 자신만만해,3,Orange,B,4.833333333333334,4.333333333333333,ScrollUp,ScrollDown,Orange.png,3,Neutral,Neutral,,,,,0,0,0,0,,,,,,,,,,,,,,,,,,,,,0,8,8,8,,,,,,,,,,,,,,,,,,,,,,,,,,,,,,,,,,,,,,,,,,,,,,,,,,,,,,,,,,,,,,,,,,,,,,,,,2,1.8937677999492735,420.42217909998726,None,ScrollUp,정답입니다,420.42217909998726,None,420.42217909998726,None,420.42217909998726,None,420.42217909998726,None,422.2103634000523,None,422.2103634000523,422.7105104000075,,,,,,,,,,,,,,,,032,2022-05-27_10h56.53.584,FishGame,2022.1.1,61.17132070045122,
,10,넌 탐욕스러워,5,Green,A,2.25,2.1,ScrollDown,ScrollUp,Green.png,3,Negative,Incongruent,,,,,0,0,0,0,,,,,,,,,,,,,,,,,,,,,0,9,9,9,,,,,,,,,,,,,,,,,,,,,,,,,,,,,,,,,,,,,,,,,,,,,,,,,,,,,,,,,,,,,,,,,,,,,,,,,1,1.692573899985291,423.33894869999494,None,ScrollDown,정답입니다,423.33894869999494,None,423.33894869999494,None,423.33894869999494,None,423.33894869999494,None,424.92953890003264,None,424.92953890003264,425.4296335000545,,,,,,,,,,,,,,,,032,2022-05-27_10h56.53.584,FishGame,2022.1.1,61.17132070045122,
,11,넌 인기있어,2,Green,A,5.458333333333333,4.5,ScrollDown,ScrollUp,Green.png,3,Positive,Congruent,,,,,0,0,0,0,,,,,,,,,,,,,,,,,,,,,0,10,10,10,,,,,,,,,,,,,,,,,,,,,,,,,,,,,,,,,,,,,,,,,,,,,,,,,,,,,,,,,,,,,,,,,,,,,,,,,1,1.6760453000897542,426.0473257000558,None,ScrollDown,정답입니다,426.0473257000558,None,426.0473257000558,None,426.0473257000558,None,426.0473257000558,None,427.6272176000057,None,427.6272176000057,428.129409300047,,,,,,,,,,,,,,,,032,2022-05-27_10h56.53.584,FishGame,2022.1.1,61.17132070045122,
,12,나를 데려가줘,6,Orange,B,0,0,ScrollDown,ScrollUp,Orange.png,3,NonTarget,NonTarget,,,,,0,0,0,0,,,,,,,,,,,,,,,,,,,,,0,11,11,11,,,,,,,,,,,,,,,,,,,,,,,,,,,,,,,,,,,,,,,,,,,,,,,,,,,,,,,,,,,,,,,,,,,,,,,,,1,1.6274229999398813,428.7533312999876,None,ScrollDown,정답입니다,428.7533312999876,None,428.7533312999876,None,428.7533312999876,None,428.7533312999876,None,430.27718560001813,None,430.27718560001813,430.7771956000943,,,,,,,,,,,,,,,,032,2022-05-27_10h56.53.584,FishGame,2022.1.1,61.17132070045122,
,13,넌 뛰어나,2,Orange,B,6.166666666666667,4,ScrollUp,ScrollDown,Orange.png,3,Positive,Incongruent,,,,,0,0,0,0,,,,,,,,,,,,,,,,,,,,,0,12,12,12,,,,,,,,,,,,,,,,,,,,,,,,,,,,,,,,,,,,,,,,,,,,,,,,,,,,,,,,,,,,,,,,,,,,,,,,,2,1.6387464000144973,431.40409160009585,None,ScrollUp,정답입니다,431.40409160009585,None,431.40409160009585,None,431.40409160009585,None,431.40409160009585,None,432.9436104000779,None,432.9436104000779,433.44355560000986,,,,,,,,,,,,,,,,032,2022-05-27_10h56.53.584,FishGame,2022.1.1,61.17132070045122,
,14,넌 낙관적이야,1,Green,A,5.75,5.8,ScrollDown,ScrollUp,Green.png,3,Positive,Congruent,,,,,0,0,0,0,,,,,,,,,,,,,,,,,,,,,0,13,13,13,,,,,,,,,,,,,,,,,,,,,,,,,,,,,,,,,,,,,,,,,,,,,,,,,,,,,,,,,,,,,,,,,,,,,,,,,1,1.5949446000158787,434.06691040005535,None,ScrollDown,정답입니다,434.06691040005535,None,434.06691040005535,None,434.06691040005535,None,434.06691040005535,None,435.56014010007493,None,435.56014010007493,436.0602205999894,,,,,,,,,,,,,,,,032,2022-05-27_10h56.53.584,FishGame,2022.1.1,61.17132070045122,
,15,넌 산만해,4,Orange,B,2.695652173913043,3.033333333333333,ScrollUp,ScrollDown,Orange.png,3,Negative,Congruent,,,,,0,0,0,0,,,,,,,,,,,,,,,,,,,,,0,14,14,14,,,,,,,,,,,,,,,,,,,,,,,,,,,,,,,,,,,,,,,,,,,,,,,,,,,,,,,,,,,,,,,,,,,,,,,,,2,1.5304255000082776,436.6846239999868,None,ScrollUp,정답입니다,436.6846239999868,None,436.6846239999868,None,436.6846239999868,None,436.6846239999868,None,438.1126181000145,None,438.1126181000145,438.61265680007637,,,,,,,,,,,,,,,,032,2022-05-27_10h56.53.584,FishGame,2022.1.1,61.17132070045122,
,16,나를 보내줘,6,Green,A,0,0,ScrollUp,ScrollDown,Green.png,3,NonTarget,NonTarget,,,,,0,0,0,0,,,,,,,,,,,,,,,,,,,,,0,15,15,15,,,,,,,,,,,,,,,,,,,,,,,,,,,,,,,,,,,,,,,,,,,,,,,,,,,,,,,,,,,,,,,,,,,,,,,,,2,1.6438233000226319,439.229843200068,None,ScrollUp,정답입니다,439.229843200068,None,439.229843200068,None,439.229843200068,None,439.229843200068,None,440.7769458000548,None,440.7769458000548,441.2769733000314,,,,,,,,,,,,,,,,032,2022-05-27_10h56.53.584,FishGame,2022.1.1,61.17132070045122,
,17,넌 교활해,5,Orange,B,2.333333333333333,2.133333333333333,ScrollUp,ScrollDown,Orange.png,3,Negative,Congruent,,,,,0,0,0,0,,,,,,,,,,,,,,,,,,,,,0,16,16,16,,,,,,,,,,,,,,,,,,,,,,,,,,,,,,,,,,,,,,,,,,,,,,,,,,,,,,,,,,,,,,,,,,,,,,,,,2,1.7257003999548033,441.9076076000929,None,ScrollUp,정답입니다,441.9076076000929,None,441.9076076000929,None,441.9076076000929,None,441.9076076000929,None,443.5265982000856,None,443.5265982000856,444.02670869999565,,,,,,,,,,,,,,,,032,2022-05-27_10h56.53.584,FishGame,2022.1.1,61.17132070045122,
,18,나를 보내줘,6,Green,A,0,0,ScrollUp,ScrollDown,Green.png,3,NonTarget,NonTarget,,,,,0,0,0,0,,,,,,,,,,,,,,,,,,,,,0,17,17,17,,,,,,,,,,,,,,,,,,,,,,,,,,,,,,,,,,,,,,,,,,,,,,,,,,,,,,,,,,,,,,,,,,,,,,,,,2,1.7782593999290839,444.6456666000886,None,ScrollUp,정답입니다,444.6456666000886,None,444.6456666000886,None,444.6456666000886,None,444.6456666000886,None,446.32925990002695,None,446.32925990002695,446.82918900006916,,,,,,,,,,,,,,,,032,2022-05-27_10h56.53.584,FishGame,2022.1.1,61.17132070045122,
,19,넌 불친절해,5,Orange,B,2.208333333333333,2.033333333333333,ScrollUp,ScrollDown,Orange.png,3,Negative,Congruent,,,,,0,0,0,0,,,,,,,,,,,,,,,,,,,,,0,18,18,18,,,,,,,,,,,,,,,,,,,,,,,,,,,,,,,,,,,,,,,,,,,,,,,,,,,,,,,,,,,,,,,,,,,,,,,,,2,1.776022999896668,447.45517349999864,None,ScrollUp,정답입니다,447.45517349999864,None,447.45517349999864,None,447.45517349999864,None,447.45517349999864,None,449.1267663000617,None,449.1267663000617,449.62897990003694,,,,,,,,,,,,,,,,032,2022-05-27_10h56.53.584,FishGame,2022.1.1,61.17132070045122,
,20,넌 지적이야,2,Orange,B,5.75,4.366666666666666,ScrollUp,ScrollDown,Orange.png,3,Positive,Incongruent,,,,,0,0,0,0,,,,,,,,,,,,,,,,,,,,,0,19,19,19,,,,,,,,,,,,,,,,,,,,,,,,,,,,,,,,,,,,,,,,,,,,,,,,,,,,,,,,,,,,,,,,,,,,,,,,,2,1.6768807999324054,450.2510887000244,None,ScrollUp,정답입니다,450.2510887000244,None,450.2510887000244,None,450.2510887000244,None,450.2510887000244,None,451.826427699998,None,451.826427699998,452.32653650001157,,,,,,,,,,,,,,,,032,2022-05-27_10h56.53.584,FishGame,2022.1.1,61.17132070045122,
,21,넌 우유부단해,4,Green,A,2.666666666666667,3.166666666666667,ScrollDown,ScrollUp,Green.png,3,Negative,Incongruent,,,,,0,0,0,0,,,,,,,,,,,,,,,,,,,,,0,20,20,20,,,,,,,,,,,,,,,,,,,,,,,,,,,,,,,,,,,,,,,,,,,,,,,,,,,,,,,,,,,,,,,,,,,,,,,,,1,1.728430400020443,452.9473554000724,None,ScrollDown,정답입니다,452.9473554000724,None,452.9473554000724,None,452.9473554000724,None,452.9473554000724,None,454.5789261000464,None,454.5789261000464,455.0789545000298,,,,,,,,,,,,,,,,032,2022-05-27_10h56.53.584,FishGame,2022.1.1,61.17132070045122,
,22,나를 데려가줘,6,Orange,B,0,0,ScrollDown,ScrollUp,Orange.png,3,NonTarget,NonTarget,,,,,0,0,0,0,,,,,,,,,,,,,,,,,,,,,0,21,21,21,,,,,,,,,,,,,,,,,,,,,,,,,,,,,,,,,,,,,,,,,,,,,,,,,,,,,,,,,,,,,,,,,,,,,,,,,1,1.6603709000628442,455.70611970010214,None,ScrollDown,정답입니다,455.70611970010214,None,455.70611970010214,None,455.70611970010214,None,455.70611970010214,None,457.2596533000469,None,457.2596533000469,457.7597806000849,,,,,,,,,,,,,,,,032,2022-05-27_10h56.53.584,FishGame,2022.1.1,61.17132070045122,
,23,넌 성실해,1,Orange,B,6.041666666666666,5.7,ScrollUp,ScrollDown,Orange.png,3,Positive,Incongruent,,,,,0,0,0,0,,,,,,,,,,,,,,,,,,,,,0,22,22,22,,,,,,,,,,,,,,,,,,,,,,,,,,,,,,,,,,,,,,,,,,,,,,,,,,,,,,,,,,,,,,,,,,,,,,,,,2,1.5470528000732884,458.38439760007896,None,ScrollUp,정답입니다,458.38439760007896,None,458.38439760007896,None,458.38439760007896,None,458.38439760007896,None,459.82879290007986,None,459.82879290007986,460.32883640006185,,,,,,,,,,,,,,,,032,2022-05-27_10h56.53.584,FishGame,2022.1.1,61.17132070045122,
,24,넌 현실주의적이야,3,Green,A,4.625,4.4,ScrollDown,ScrollUp,Green.png,3,Neutral,Neutral,,,,,0,0,0,0,,,,,,,,,,,,,,,,,,,,,0,23,23,23,,,,,,,,,,,,,,,,,,,,,,,,,,,,,,,,,,,,,,,,,,,,,,,,,,,,,,,,,,,,,,,,,,,,,,,,,1,1.7272223000181839,460.9478426000569,None,ScrollDown,정답입니다,460.9478426000569,None,460.9478426000569,None,460.9478426000569,None,460.9478426000569,None,462.5786914000055,None,462.5786914000055,463.07875490002334,,,,,,,,,,,,,,,,032,2022-05-27_10h56.53.584,FishGame,2022.1.1,61.17132070045122,
,25,넌 진실돼,1,Green,A,6.625,5.566666666666666,ScrollDown,ScrollUp,Green.png,3,Positive,Congruent,,,,,0,0,0,0,,,,,,,,,,,,,,,,,,,,,0,24,24,24,,,,,,,,,,,,,,,,,,,,,,,,,,,,,,,,,,,,,,,,,,,,,,,,,,,,,,,,,,,,,,,,,,,,,,,,,1,1.6094520000042394,463.72036670008674,None,ScrollDown,정답입니다,463.72036670008674,None,463.72036670008674,None,463.72036670008674,None,463.72036670008674,None,465.2264960000757,None,465.2264960000757,465.72864250000566,,,,,,,,,,,,,,,,032,2022-05-27_10h56.53.584,FishGame,2022.1.1,61.17132070045122,
,26,넌 천진난만해,3,Orange,B,4.958333333333334,4.833333333333333,ScrollUp,ScrollDown,Orange.png,3,Neutral,Neutral,,,,,0,0,0,0,,,,,,,,,,,,,,,,,,,,,0,25,25,25,,,,,,,,,,,,,,,,,,,,,,,,,,,,,,,,,,,,,,,,,,,,,,,,,,,,,,,,,,,,,,,,,,,,,,,,,2,1.6593245000112802,466.3545395000838,None,ScrollUp,정답입니다,466.3545395000838,None,466.3545395000838,None,466.3545395000838,None,466.3545395000838,None,467.9097216000082,None,467.9097216000082,468.41191470006015,,,,,,,,,,,,,,,,032,2022-05-27_10h56.53.584,FishGame,2022.1.1,61.17132070045122,
,27,넌 교양없어,5,Green,A,2.416666666666667,2.2,ScrollDown,ScrollUp,Green.png,3,Negative,Incongruent,,,,,0,0,0,0,,,,,,,,,,,,,,,,,,,,,0,26,26,26,,,,,,,,,,,,,,,,,,,,,,,,,,,,,,,,,,,,,,,,,,,,,,,,,,,,,,,,,,,,,,,,,,,,,,,,,1,1.6097319999244064,469.03179530007765,None,ScrollDown,정답입니다,469.03179530007765,None,469.03179530007765,None,469.03179530007765,None,469.03179530007765,None,470.54301880009007,None,470.54301880009007,471.0429786000168,,,,,,,,,,,,,,,,032,2022-05-27_10h56.53.584,FishGame,2022.1.1,61.17132070045122,
,28,나를 보내줘,6,Green,A,0,0,ScrollUp,ScrollDown,Green.png,3,NonTarget,NonTarget,,,,,0,0,0,0,,,,,,,,,,,,,,,,,,,,,0,27,27,27,,,,,,,,,,,,,,,,,,,,,,,,,,,,,,,,,,,,,,,,,,,,,,,,,,,,,,,,,,,,,,,,,,,,,,,,,2,1.6614031000062823,471.66195660002995,None,ScrollUp,정답입니다,471.66195660002995,None,471.66195660002995,None,471.66195660002995,None,471.66195660002995,None,473.228414000012,None,473.228414000012,473.7285271000583,,,,,,,,,,,,,,,,032,2022-05-27_10h56.53.584,FishGame,2022.1.1,61.17132070045122,
,29,넌 엉뚱스러워,3,Green,A,4.166666666666667,4.133333333333334,ScrollDown,ScrollUp,Green.png,3,Neutral,Neutral,,,,,0,0,0,0,,,,,,,,,,,,,,,,,,,,,0,28,28,28,,,,,,,,,,,,,,,,,,,,,,,,,,,,,,,,,,,,,,,,,,,,,,,,,,,,,,,,,,,,,,,,,,,,,,,,,1,1.5427177000092342,474.35065380006563,None,ScrollDown,정답입니다,474.35065380006563,None,474.35065380006563,None,474.35065380006563,None,474.35065380006563,None,475.79291580000427,None,475.79291580000427,476.29286050004885,,,,,,,,,,,,,,,,032,2022-05-27_10h56.53.584,FishGame,2022.1.1,61.17132070045122,
,30,넌 무지해,4,Orange,B,2.541666666666667,3.066666666666667,ScrollUp,ScrollDown,Orange.png,3,Negative,Congruent,,,,,0,0,0,0,,,,,,,,,,,,,,,,,,,,,0,29,29,29,,,,,,,,,,,,,,,,,,,,,,,,,,,,,,,,,,,,,,,,,,,,,,,,,,,,,,,,,,,,,,,,,,,,,,,,,2,1.7445253001060337,476.9181931000203,None,ScrollUp,정답입니다,476.9181931000203,None,476.9181931000203,None,476.9181931000203,None,476.9181931000203,None,478.5594639000483,None,478.5594639000483,479.05951080005616,,,,,,,,,,,,,,,,032,2022-05-27_10h56.53.584,FishGame,2022.1.1,61.17132070045122,
,31,넌 음울해,5,Orange,B,2.25,2.233333333333333,ScrollUp,ScrollDown,Orange.png,3,Negative,Congruent,,,,,0,0,0,0,,,,,,,,,,,,,,,,,,,,,0,30,30,30,,,,,,,,,,,,,,,,,,,,,,,,,,,,,,,,,,,,,,,,,,,,,,,,,,,,,,,,,,,,,,,,,,,,,,,,,2,2.25896299991291,479.6886300999904,None,ScrollUp,정답입니다,479.6886300999904,None,479.6886300999904,None,479.6886300999904,None,479.6886300999904,None,481.8449789000442,None,481.8449789000442,482.34809470002074,,,,,,,,,,,,,,,,032,2022-05-27_10h56.53.584,FishGame,2022.1.1,61.17132070045122,
,32,넌 냉소적이야,5,Green,A,2.916666666666667,2.4,ScrollDown,ScrollUp,Green.png,3,Negative,Incongruent,,,,,0,0,0,0,,,,,,,,,,,,,,,,,,,,,0,31,31,31,,,,,,,,,,,,,,,,,,,,,,,,,,,,,,,,,,,,,,,,,,,,,,,,,,,,,,,,,,,,,,,,,,,,,,,,,1,1.8440921999281272,482.9607952000806,None,ScrollDown,정답입니다,482.9607952000806,None,482.9607952000806,None,482.9607952000806,None,482.9607952000806,None,484.709348400007,None,484.709348400007,485.2115804000059,,,,,,,,,,,,,,,,032,2022-05-27_10h56.53.584,FishGame,2022.1.1,61.17132070045122,
,33,나를 데려가줘,6,Orange,B,0,0,ScrollDown,ScrollUp,Orange.png,3,NonTarget,NonTarget,,,,,0,0,0,0,,,,,,,,,,,,,,,,,,,,,0,32,32,32,,,,,,,,,,,,,,,,,,,,,,,,,,,,,,,,,,,,,,,,,,,,,,,,,,,,,,,,,,,,,,,,,,,,,,,,,1,1.7093496000161394,485.8353872000007,None,ScrollDown,정답입니다,485.8353872000007,None,485.8353872000007,None,485.8353872000007,None,485.8353872000007,None,487.442669400014,None,487.442669400014,487.94803960004356,,,,,,,,,,,,,,,,032,2022-05-27_10h56.53.584,FishGame,2022.1.1,61.17132070045122,
,34,넌 쾌활해,1,Green,A,5.541666666666666,5.733333333333333,ScrollDown,ScrollUp,Green.png,3,Positive,Congruent,,,,,0,0,0,0,,,,,,,,,,,,,,,,,,,,,0,33,33,33,,,,,,,,,,,,,,,,,,,,,,,,,,,,,,,,,,,,,,,,,,,,,,,,,,,,,,,,,,,,,,,,,,,,,,,,,1,1.7777873000595719,488.56574140000157,None,ScrollDown,정답입니다,488.56574140000157,None,488.56574140000157,None,488.56574140000157,None,488.56574140000157,None,490.24480000010226,None,490.24480000010226,490.7446671000216,,,,,,,,,,,,,,,,032,2022-05-27_10h56.53.584,FishGame,2022.1.1,61.17132070045122,
,35,나를 보내줘,6,Green,A,0,0,ScrollUp,ScrollDown,Green.png,3,NonTarget,NonTarget,,,,,0,0,0,0,,,,,,,,,,,,,,,,,,,,,0,34,34,34,,,,,,,,,,,,,,,,,,,,,,,,,,,,,,,,,,,,,,,,,,,,,,,,,,,,,,,,,,,,,,,,,,,,,,,,,2,1.7110095999669284,491.3601178000681,None,ScrollUp,정답입니다,491.3601178000681,None,491.3601178000681,None,491.3601178000681,None,491.3601178000681,None,492.9758803000441,None,492.9758803000441,493.4781643000897,,,,,,,,,,,,,,,,032,2022-05-27_10h56.53.584,FishGame,2022.1.1,61.17132070045122,
,36,넌 명랑해,1,Orange,B,5.739130434782609,5.666666666666667,ScrollUp,ScrollDown,Orange.png,3,Positive,Incongruent,,,,,0,0,0,0,,,,,,,,,,,,,,,,,,,,,0,35,35,35,,,,,,,,,,,,,,,,,,,,,,,,,,,,,,,,,,,,,,,,,,,,,,,,,,,,,,,,,,,,,,,,,,,,,,,,,2,1.6760226999176666,494.103206400061,None,ScrollUp,정답입니다,494.103206400061,None,494.103206400061,None,494.103206400061,None,494.103206400061,None,495.6758332999889,None,495.6758332999889,496.17797080008313,,,,,,,,,,,,,,,,032,2022-05-27_10h56.53.584,FishGame,2022.1.1,61.17132070045122,
,37,넌 멍해,4,Green,A,2.833333333333333,3.4,ScrollDown,ScrollUp,Green.png,3,Negative,Incongruent,,,,,0,0,0,0,,,,,,,,,,,,,,,,,,,,,0,36,36,36,,,,,,,,,,,,,,,,,,,,,,,,,,,,,,,,,,,,,,,,,,,,,,,,,,,,,,,,,,,,,,,,,,,,,,,,,1,1.5261373999528587,496.80101759999525,None,ScrollDown,정답입니다,496.80101759999525,None,496.80101759999525,None,496.80101759999525,None,496.80101759999525,None,498.2257600000594,None,498.2257600000594,498.7279958000872,,,,,,,,,,,,,,,,032,2022-05-27_10h56.53.584,FishGame,2022.1.1,61.17132070045122,
,38,나를 데려가줘,6,Orange,B,0,0,ScrollDown,ScrollUp,Orange.png,3,NonTarget,NonTarget,,,,,0,0,0,0,,,,,,,,,,,,,,,,,,,,,0,37,37,37,,,,,,,,,,,,,,,,,,,,,,,,,,,,,,,,,,,,,,,,,,,,,,,,,,,,,,,,,,,,,,,,,,,,,,,,,1,1.49263319990132,499.3508001000155,None,ScrollDown,정답입니다,499.3508001000155,None,499.3508001000155,None,499.3508001000155,None,499.3508001000155,None,500.7423195000738,None,500.7423195000738,501.24452830001246,,,,,,,,,,,,,,,,032,2022-05-27_10h56.53.584,FishGame,2022.1.1,61.17132070045122,
,39,넌 현명해,2,Green,A,6.541666666666666,4.533333333333333,ScrollDown,ScrollUp,Green.png,3,Positive,Congruent,,,,,0,0,0,0,,,,,,,,,,,,,,,,,,,,,0,38,38,38,,,,,,,,,,,,,,,,,,,,,,,,,,,,,,,,,,,,,,,,,,,,,,,,,,,,,,,,,,,,,,,,,,,,,,,,,1,1.5128142000176013,501.86057170003187,None,ScrollDown,정답입니다,501.86057170003187,None,501.86057170003187,None,501.86057170003187,None,501.86057170003187,None,503.27784400002565,None,503.27784400002565,503.77795530005824,,,,,,,,,,,,,,,,032,2022-05-27_10h56.53.584,FishGame,2022.1.1,61.17132070045122,
,40,넌 수줍어,3,Orange,B,3.541666666666666,4.366666666666666,ScrollUp,ScrollDown,Orange.png,3,Neutral,Neutral,,,,,0,0,0,0,,,,,,,,,,,,,,,,,,,,,0,39,39,39,,,,,,,,,,,,,,,,,,,,,,,,,,,,,,,,,,,,,,,,,,,,,,,,,,,,,,,,,,,,,,,,,,,,,,,,,2,1.9116888999706134,504.4028216000879,None,ScrollUp,정답입니다,504.4028216000879,None,504.4028216000879,None,504.4028216000879,None,504.4028216000879,None,506.2089143000776,None,506.2089143000776,506.7142070000991,,,,,,,,,,,,,,,,032,2022-05-27_10h56.53.584,FishGame,2022.1.1,61.17132070045122,
,41,나를 데려가줘,6,Orange,B,0,0,ScrollDown,ScrollUp,Orange.png,3,NonTarget,NonTarget,,,,,0,0,0,0,,,,,,,,,,,,,,,,,,,,,0,40,40,40,,,,,,,,,,,,,,,,,,,,,,,,,,,,,,,,,,,,,,,,,,,,,,,,,,,,,,,,,,,,,,,,,,,,,,,,,1,1.8590469000628218,507.33342210005503,None,ScrollDown,정답입니다,507.33342210005503,None,507.33342210005503,None,507.33342210005503,None,507.33342210005503,None,509.09216390002985,None,509.09216390002985,509.59433049999643,,,,,,,,,,,,,,,,032,2022-05-27_10h56.53.584,FishGame,2022.1.1,61.17132070045122,
,42,넌 성숙해,2,Orange,B,5.833333333333333,4.533333333333333,ScrollUp,ScrollDown,Orange.png,3,Positive,Incongruent,,,,,0,0,0,0,,,,,,,,,,,,,,,,,,,,,0,41,41,41,,,,,,,,,,,,,,,,,,,,,,,,,,,,,,,,,,,,,,,,,,,,,,,,,,,,,,,,,,,,,,,,,,,,,,,,,2,2.009175800019875,510.2146569000324,None,ScrollUp,정답입니다,510.2146569000324,None,510.2146569000324,None,510.2146569000324,None,510.2146569000324,None,512.1276429001009,None,512.1276429001009,512.6277524000034,,,,,,,,,,,,,,,,032,2022-05-27_10h56.53.584,FishGame,2022.1.1,61.17132070045122,
,1,넌 매력적이야,2,Orange,B,6.125,4.666666666666667,ScrollUp,ScrollDown,Orange.png,4,Positive,Incongruent,,,,,0,0,0,0,,,,,,,,,,,,,,,,,,,,,,,,,0,0,0,0,,,,,,,,,,,,,,,,,,,,,,,,,,,,545.2601065000053,546.7604589000111,546.7937654000707,547.7437849000562,547.7938626999967,548.7468580000568,548.7301804000745,None,,,,,,,,,,,,,,,,,,,,,,,,,,,,,,,,,,2,1.8541382999392226,549.907289099996,None,ScrollUp,정답입니다,549.907289099996,None,549.907289099996,None,549.907289099996,None,549.907289099996,None,551.6602195000742,None,551.6602195000742,552.1746631000424,513.1254535000771,None,513.1254535000771,None,0.06666667,-0.11574074,1,0,0,0.016097650048322976,None,543.1270903000841,None,,,032,2022-05-27_10h56.53.584,FishGame,2022.1.1,61.17132070045122,
,2,나를 보내줘,6,Green,A,0,0,ScrollUp,ScrollDown,Green.png,4,NonTarget,NonTarget,,,,,0,0,0,0,,,,,,,,,,,,,,,,,,,,,,,,,0,1,1,1,,,,,,,,,,,,,,,,,,,,,,,,,,,,,,,,,,,,,,,,,,,,,,,,,,,,,,,,,,,,,,,,,,,,,2,1.6595913000637665,552.7954129000427,None,ScrollUp,정답입니다,552.7954129000427,None,552.7954129000427,None,552.7954129000427,None,552.7954129000427,None,554.3579053001013,None,554.3579053001013,554.8600534000434,,,,,,,,,,,,,,,,032,2022-05-27_10h56.53.584,FishGame,2022.1.1,61.17132070045122,
,3,넌 조심스러워,3,Green,A,4.791666666666666,4.666666666666667,ScrollDown,ScrollUp,Green.png,4,Neutral,Neutral,,,,,0,0,0,0,,,,,,,,,,,,,,,,,,,,,,,,,0,2,2,2,,,,,,,,,,,,,,,,,,,,,,,,,,,,,,,,,,,,,,,,,,,,,,,,,,,,,,,,,,,,,,,,,,,,,1,1.4096210999414325,555.4807512999978,None,ScrollDown,정답입니다,555.4807512999978,None,555.4807512999978,None,555.4807512999978,None,555.4807512999978,None,556.7912229000358,None,556.7912229000358,557.2934570000507,,,,,,,,,,,,,,,,032,2022-05-27_10h56.53.584,FishGame,2022.1.1,61.17132070045122,
,4,넌 철학적이야,3,Orange,B,4.5,4.266666666666667,ScrollUp,ScrollDown,Orange.png,4,Neutral,Neutral,,,,,0,0,0,0,,,,,,,,,,,,,,,,,,,,,,,,,0,3,3,3,,,,,,,,,,,,,,,,,,,,,,,,,,,,,,,,,,,,,,,,,,,,,,,,,,,,,,,,,,,,,,,,,,,,,2,1.6762972000287846,557.9150739000179,None,ScrollUp,정답입니다,557.9150739000179,None,557.9150739000179,None,557.9150739000179,None,557.9150739000179,None,559.491092500044,None,559.491092500044,559.9910639000591,,,,,,,,,,,,,,,,032,2022-05-27_10h56.53.584,FishGame,2022.1.1,61.17132070045122,
,5,넌 쩨쩨해,5,Green,A,2.375,2.133333333333333,ScrollDown,ScrollUp,Green.png,4,Negative,Incongruent,,,,,0,0,0,0,,,,,,,,,,,,,,,,,,,,,,,,,0,4,4,4,,,,,,,,,,,,,,,,,,,,,,,,,,,,,,,,,,,,,,,,,,,,,,,,,,,,,,,,,,,,,,,,,,,,,1,1.5759957000846043,560.6141092000762,None,ScrollDown,정답입니다,560.6141092000762,None,560.6141092000762,None,560.6141092000762,None,560.6141092000762,None,562.0911000000779,None,562.0911000000779,562.5933305000653,,,,,,,,,,,,,,,,032,2022-05-27_10h56.53.584,FishGame,2022.1.1,61.17132070045122,
,6,나를 데려가줘,6,Orange,B,0,0,ScrollDown,ScrollUp,Orange.png,4,NonTarget,NonTarget,,,,,0,0,0,0,,,,,,,,,,,,,,,,,,,,,,,,,0,5,5,5,,,,,,,,,,,,,,,,,,,,,,,,,,,,,,,,,,,,,,,,,,,,,,,,,,,,,,,,,,,,,,,,,,,,,1,1.6093395999632776,563.2183050999884,None,ScrollDown,정답입니다,563.2183050999884,None,563.2183050999884,None,563.2183050999884,None,563.2183050999884,None,564.7240809000796,None,564.7240809000796,565.2241670000367,,,,,,,,,,,,,,,,032,2022-05-27_10h56.53.584,FishGame,2022.1.1,61.17132070045122,
,7,넌 고집불통이야,5,Orange,B,2.875,2,ScrollUp,ScrollDown,Orange.png,4,Negative,Congruent,,,,,0,0,0,0,,,,,,,,,,,,,,,,,,,,,,,,,0,6,6,6,,,,,,,,,,,,,,,,,,,,,,,,,,,,,,,,,,,,,,,,,,,,,,,,,,,,,,,,,,,,,,,,,,,,,2,1.628346599987708,565.8508062000619,None,ScrollUp,정답입니다,565.8508062000619,None,565.8508062000619,None,565.8508062000619,None,565.8508062000619,None,567.3766551000299,None,567.3766551000299,567.8765995000722,,,,,,,,,,,,,,,,032,2022-05-27_10h56.53.584,FishGame,2022.1.1,61.17132070045122,
,8,넌 무심해,4,Green,A,2.875,3.2,ScrollDown,ScrollUp,Green.png,4,Negative,Incongruent,,,,,0,0,0,0,,,,,,,,,,,,,,,,,,,,,,,,,0,7,7,7,,,,,,,,,,,,,,,,,,,,,,,,,,,,,,,,,,,,,,,,,,,,,,,,,,,,,,,,,,,,,,,,,,,,,1,1.659660100005567,568.4986573000206,None,ScrollDown,정답입니다,568.4986573000206,None,568.4986573000206,None,568.4986573000206,None,568.4986573000206,None,570.059776200098,None,570.059776200098,570.5597899000859,,,,,,,,,,,,,,,,032,2022-05-27_10h56.53.584,FishGame,2022.1.1,61.17132070045122,
,9,넌 정겨워,1,Green,A,5.791666666666667,5.666666666666667,ScrollDown,ScrollUp,Green.png,4,Positive,Congruent,,,,,0,0,0,0,,,,,,,,,,,,,,,,,,,,,,,,,0,8,8,8,,,,,,,,,,,,,,,,,,,,,,,,,,,,,,,,,,,,,,,,,,,,,,,,,,,,,,,,,,,,,,,,,,,,,1,1.6100848000496626,571.179387900047,None,ScrollDown,정답입니다,571.179387900047,None,571.179387900047,None,571.179387900047,None,571.179387900047,None,572.6905848000897,None,572.6905848000897,573.1906694000354,,,,,,,,,,,,,,,,032,2022-05-27_10h56.53.584,FishGame,2022.1.1,61.17132070045122,
,10,나를 데려가줘,6,Orange,B,0,0,ScrollDown,ScrollUp,Orange.png,4,NonTarget,NonTarget,,,,,0,0,0,0,,,,,,,,,,,,,,,,,,,,,,,,,0,9,9,9,,,,,,,,,,,,,,,,,,,,,,,,,,,,,,,,,,,,,,,,,,,,,,,,,,,,,,,,,,,,,,,,,,,,,1,1.5805093999952078,573.8127378000645,None,ScrollDown,정답입니다,573.8127378000645,None,573.8127378000645,None,573.8127378000645,None,573.8127378000645,None,575.2931160000153,None,575.2931160000153,575.7931586999912,,,,,,,,,,,,,,,,032,2022-05-27_10h56.53.584,FishGame,2022.1.1,61.17132070045122,
,11,넌 체제순응적이야,4,Orange,B,3,3.6,ScrollUp,ScrollDown,Orange.png,4,Negative,Congruent,,,,,0,0,0,0,,,,,,,,,,,,,,,,,,,,,,,,,0,10,10,10,,,,,,,,,,,,,,,,,,,,,,,,,,,,,,,,,,,,,,,,,,,,,,,,,,,,,,,,,,,,,,,,,,,,,2,1.7293206000467762,576.4232036999892,None,ScrollUp,정답입니다,576.4232036999892,None,576.4232036999892,None,576.4232036999892,None,576.4232036999892,None,578.0407496000407,None,578.0407496000407,578.5429418000858,,,,,,,,,,,,,,,,032,2022-05-27_10h56.53.584,FishGame,2022.1.1,61.17132070045122,
,12,나를 보내줘,6,Green,A,0,0,ScrollUp,ScrollDown,Green.png,4,NonTarget,NonTarget,,,,,0,0,0,0,,,,,,,,,,,,,,,,,,,,,,,,,0,11,11,11,,,,,,,,,,,,,,,,,,,,,,,,,,,,,,,,,,,,,,,,,,,,,,,,,,,,,,,,,,,,,,,,,,,,,2,1.7090863999910653,579.1687461000402,None,ScrollUp,정답입니다,579.1687461000402,None,579.1687461000402,None,579.1687461000402,None,579.1687461000402,None,580.7737666000612,None,580.7737666000612,581.2738876000512,,,,,,,,,,,,,,,,032,2022-05-27_10h56.53.584,FishGame,2022.1.1,61.17132070045122,
,13,넌 박식해,2,Green,A,5.625,3.933333333333333,ScrollDown,ScrollUp,Green.png,4,Positive,Congruent,,,,,0,0,0,0,,,,,,,,,,,,,,,,,,,,,,,,,0,12,12,12,,,,,,,,,,,,,,,,,,,,,,,,,,,,,,,,,,,,,,,,,,,,,,,,,,,,,,,,,,,,,,,,,,,,,1,1.8617530999472365,581.8983433000976,None,ScrollDown,정답입니다,581.8983433000976,None,581.8983433000976,None,581.8983433000976,None,581.8983433000976,None,583.6595879000379,None,583.6595879000379,584.1595822999952,,,,,,,,,,,,,,,,032,2022-05-27_10h56.53.584,FishGame,2022.1.1,61.17132070045122,
,14,나를 보내줘,6,Green,A,0,0,ScrollUp,ScrollDown,Green.png,4,NonTarget,NonTarget,,,,,0,0,0,0,,,,,,,,,,,,,,,,,,,,,,,,,0,13,13,13,,,,,,,,,,,,,,,,,,,,,,,,,,,,,,,,,,,,,,,,,,,,,,,,,,,,,,,,,,,,,,,,,,,,,2,1.6927812999347225,584.7816644000122,None,ScrollUp,정답입니다,584.7816644000122,None,584.7816644000122,None,584.7816644000122,None,584.7816644000122,None,586.373642200022,None,586.373642200022,586.8737732000882,,,,,,,,,,,,,,,,032,2022-05-27_10h56.53.584,FishGame,2022.1.1,61.17132070045122,
,15,넌 침착해,1,Orange,B,5.458333333333333,5.566666666666666,ScrollUp,ScrollDown,Orange.png,4,Positive,Incongruent,,,,,0,0,0,0,,,,,,,,,,,,,,,,,,,,,,,,,0,14,14,14,,,,,,,,,,,,,,,,,,,,,,,,,,,,,,,,,,,,,,,,,,,,,,,,,,,,,,,,,,,,,,,,,,,,,2,1.730929399956949,587.4988054001005,None,ScrollUp,정답입니다,587.4988054001005,None,587.4988054001005,None,587.4988054001005,None,587.4988054001005,None,589.1261991000501,None,589.1261991000501,589.6262064999901,,,,,,,,,,,,,,,,032,2022-05-27_10h56.53.584,FishGame,2022.1.1,61.17132070045122,
,16,나를 데려가줘,6,Orange,B,0,0,ScrollDown,ScrollUp,Orange.png,4,NonTarget,NonTarget,,,,,0,0,0,0,,,,,,,,,,,,,,,,,,,,,,,,,0,15,15,15,,,,,,,,,,,,,,,,,,,,,,,,,,,,,,,,,,,,,,,,,,,,,,,,,,,,,,,,,,,,,,,,,,,,,1,1.642537200008519,590.257385600009,None,ScrollDown,정답입니다,590.257385600009,None,590.257385600009,None,590.257385600009,None,590.257385600009,None,591.7901991000399,None,591.7901991000399,592.29031880002,,,,,,,,,,,,,,,,032,2022-05-27_10h56.53.584,FishGame,2022.1.1,61.17132070045122,
,17,넌 행복해,1,Green,A,6.416666666666666,6.166666666666667,ScrollDown,ScrollUp,Green.png,4,Positive,Congruent,,,,,0,0,0,0,,,,,,,,,,,,,,,,,,,,,,,,,0,16,16,16,,,,,,,,,,,,,,,,,,,,,,,,,,,,,,,,,,,,,,,,,,,,,,,,,,,,,,,,,,,,,,,,,,,,,1,1.6473076000111178,592.9117455000523,None,ScrollDown,정답입니다,592.9117455000523,None,592.9117455000523,None,592.9117455000523,None,592.9117455000523,None,594.459388700081,None,594.459388700081,594.9593653000193,,,,,,,,,,,,,,,,032,2022-05-27_10h56.53.584,FishGame,2022.1.1,61.17132070045122,
,18,넌 겸손해,2,Orange,B,5.791666666666667,4.766666666666667,ScrollUp,ScrollDown,Orange.png,4,Positive,Incongruent,,,,,0,0,0,0,,,,,,,,,,,,,,,,,,,,,,,,,0,17,17,17,,,,,,,,,,,,,,,,,,,,,,,,,,,,,,,,,,,,,,,,,,,,,,,,,,,,,,,,,,,,,,,,,,,,,2,1.6960431999759749,595.5835235000122,None,ScrollUp,정답입니다,595.5835235000122,None,595.5835235000122,None,595.5835235000122,None,595.5835235000122,None,597.1734254000476,None,597.1734254000476,597.6735387000954,,,,,,,,,,,,,,,,032,2022-05-27_10h56.53.584,FishGame,2022.1.1,61.17132070045122,
,19,나를 보내줘,6,Green,A,0,0,ScrollUp,ScrollDown,Green.png,4,NonTarget,NonTarget,,,,,0,0,0,0,,,,,,,,,,,,,,,,,,,,,,,,,0,18,18,18,,,,,,,,,,,,,,,,,,,,,,,,,,,,,,,,,,,,,,,,,,,,,,,,,,,,,,,,,,,,,,,,,,,,,2,1.7638928000815213,598.2936666000169,None,ScrollUp,정답입니다,598.2936666000169,None,598.2936666000169,None,598.2936666000169,None,598.2936666000169,None,599.95927760005,None,599.95927760005,600.4593155999901,,,,,,,,,,,,,,,,032,2022-05-27_10h56.53.584,FishGame,2022.1.1,61.17132070045122,
,20,넌 의심없어,3,Green,A,4.166666666666667,4.6,ScrollDown,ScrollUp,Green.png,4,Neutral,Neutral,,,,,0,0,0,0,,,,,,,,,,,,,,,,,,,,,,,,,0,19,19,19,,,,,,,,,,,,,,,,,,,,,,,,,,,,,,,,,,,,,,,,,,,,,,,,,,,,,,,,,,,,,,,,,,,,,1,1.3926472999155521,601.080901300069,None,ScrollDown,정답입니다,601.080901300069,None,601.080901300069,None,601.080901300069,None,601.080901300069,None,602.3732877000002,None,602.3732877000002,602.8733801000053,,,,,,,,,,,,,,,,032,2022-05-27_10h56.53.584,FishGame,2022.1.1,61.17132070045122,
,21,넌 시시해,4,Green,A,2.666666666666667,2.966666666666667,ScrollDown,ScrollUp,Green.png,4,Negative,Incongruent,,,,,0,0,0,0,,,,,,,,,,,,,,,,,,,,,,,,,0,20,20,20,,,,,,,,,,,,,,,,,,,,,,,,,,,,,,,,,,,,,,,,,,,,,,,,,,,,,,,,,,,,,,,,,,,,,1,1.8952797999372706,603.4917336000362,None,ScrollDown,정답입니다,603.4917336000362,None,603.4917336000362,None,603.4917336000362,None,603.4917336000362,None,605.2925339000067,None,605.2925339000067,605.7925834000343,,,,,,,,,,,,,,,,032,2022-05-27_10h56.53.584,FishGame,2022.1.1,61.17132070045122,
,22,나를 데려가줘,6,Orange,B,0,0,ScrollDown,ScrollUp,Orange.png,4,NonTarget,NonTarget,,,,,0,0,0,0,,,,,,,,,,,,,,,,,,,,,,,,,0,21,21,21,,,,,,,,,,,,,,,,,,,,,,,,,,,,,,,,,,,,,,,,,,,,,,,,,,,,,,,,,,,,,,,,,,,,,1,1.6929326000390574,606.4115554000018,None,ScrollDown,정답입니다,606.4115554000018,None,606.4115554000018,None,606.4115554000018,None,606.4115554000018,None,608.0067940000445,None,608.0067940000445,608.5090024000965,,,,,,,,,,,,,,,,032,2022-05-27_10h56.53.584,FishGame,2022.1.1,61.17132070045122,
,23,넌 무정해,5,Green,A,2.5,2.2,ScrollDown,ScrollUp,Green.png,4,Negative,Incongruent,,,,,0,0,0,0,,,,,,,,,,,,,,,,,,,,,,,,,0,22,22,22,,,,,,,,,,,,,,,,,,,,,,,,,,,,,,,,,,,,,,,,,,,,,,,,,,,,,,,,,,,,,,,,,,,,,1,1.5791739999549463,609.1249801000813,None,ScrollDown,정답입니다,609.1249801000813,None,609.1249801000813,None,609.1249801000813,None,609.1249801000813,None,610.6090499000857,None,610.6090499000857,611.1090362000978,,,,,,,,,,,,,,,,032,2022-05-27_10h56.53.584,FishGame,2022.1.1,61.17132070045122,
,24,넌 긍정적이야,1,Orange,B,6.041666666666667,6.066666666666666,ScrollUp,ScrollDown,Orange.png,4,Positive,Incongruent,,,,,0,0,0,0,,,,,,,,,,,,,,,,,,,,,,,,,0,23,23,23,,,,,,,,,,,,,,,,,,,,,,,,,,,,,,,,,,,,,,,,,,,,,,,,,,,,,,,,,,,,,,,,,,,,,2,1.5958840000675991,611.7284026000416,None,ScrollUp,정답입니다,611.7284026000416,None,611.7284026000416,None,611.7284026000416,None,611.7284026000416,None,613.2232971000485,None,613.2232971000485,613.7255886000348,,,,,,,,,,,,,,,,032,2022-05-27_10h56.53.584,FishGame,2022.1.1,61.17132070045122,
,25,나를 보내줘,6,Green,A,0,0,ScrollUp,ScrollDown,Green.png,4,NonTarget,NonTarget,,,,,0,0,0,0,,,,,,,,,,,,,,,,,,,,,,,,,0,24,24,24,,,,,,,,,,,,,,,,,,,,,,,,,,,,,,,,,,,,,,,,,,,,,,,,,,,,,,,,,,,,,,,,,,,,,2,1.6427234000293538,614.342927300022,None,ScrollUp,정답입니다,614.342927300022,None,614.342927300022,None,614.342927300022,None,614.342927300022,None,615.8900176000316,None,615.8900176000316,616.3922661000397,,,,,,,,,,,,,,,,032,2022-05-27_10h56.53.584,FishGame,2022.1.1,61.17132070045122,
,26,넌 시기심이 많아,5,Orange,B,2.458333333333333,2.233333333333333,ScrollUp,ScrollDown,Orange.png,4,Negative,Congruent,,,,,0,0,0,0,,,,,,,,,,,,,,,,,,,,,,,,,0,25,25,25,,,,,,,,,,,,,,,,,,,,,,,,,,,,,,,,,,,,,,,,,,,,,,,,,,,,,,,,,,,,,,,,,,,,,2,1.8929431999567896,617.0203730000649,None,ScrollUp,정답입니다,617.0203730000649,None,617.0203730000649,None,617.0203730000649,None,617.0203730000649,None,618.8062899000943,None,618.8062899000943,619.3064314000076,,,,,,,,,,,,,,,,032,2022-05-27_10h56.53.584,FishGame,2022.1.1,61.17132070045122,
,27,넌 탁월해,2,Green,A,5.708333333333334,4.5,ScrollDown,ScrollUp,Green.png,4,Positive,Congruent,,,,,0,0,0,0,,,,,,,,,,,,,,,,,,,,,,,,,0,26,26,26,,,,,,,,,,,,,,,,,,,,,,,,,,,,,,,,,,,,,,,,,,,,,,,,,,,,,,,,,,,,,,,,,,,,,1,1.7131029999582097,619.9283524000784,None,ScrollDown,정답입니다,619.9283524000784,None,619.9283524000784,None,619.9283524000784,None,619.9283524000784,None,621.5421492999885,None,621.5421492999885,622.0421207000036,,,,,,,,,,,,,,,,032,2022-05-27_10h56.53.584,FishGame,2022.1.1,61.17132070045122,
,28,나를 데려가줘,6,Orange,B,0,0,ScrollDown,ScrollUp,Orange.png,4,NonTarget,NonTarget,,,,,0,0,0,0,,,,,,,,,,,,,,,,,,,,,,,,,0,27,27,27,,,,,,,,,,,,,,,,,,,,,,,,,,,,,,,,,,,,,,,,,,,,,,,,,,,,,,,,,,,,,,,,,,,,,1,1.5091133000096306,622.6652914000442,None,ScrollDown,정답입니다,622.6652914000442,None,622.6652914000442,None,622.6652914000442,None,622.6652914000442,None,624.0753064000746,None,624.0753064000746,624.5754088000394,,,,,,,,,,,,,,,,032,2022-05-27_10h56.53.584,FishGame,2022.1.1,61.17132070045122,
,29,넌 조용해,3,Orange,B,4.333333333333333,4.166666666666667,ScrollUp,ScrollDown,Orange.png,4,Neutral,Neutral,,,,,0,0,0,0,,,,,,,,,,,,,,,,,,,,,,,,,0,28,28,28,,,,,,,,,,,,,,,,,,,,,,,,,,,,,,,,,,,,,,,,,,,,,,,,,,,,,,,,,,,,,,,,,,,,,2,1.7941733000334352,625.2197205000557,None,ScrollUp,정답입니다,625.2197205000557,None,625.2197205000557,None,625.2197205000557,None,625.2197205000557,None,626.8894581000786,None,626.8894581000786,627.3895986001007,,,,,,,,,,,,,,,,032,2022-05-27_10h56.53.584,FishGame,2022.1.1,61.17132070045122,
,30,넌 다정해,1,Green,A,5.833333333333334,5.7,ScrollDown,ScrollUp,Green.png,4,Positive,Congruent,,,,,0,0,0,0,,,,,,,,,,,,,,,,,,,,,,,,,0,29,29,29,,,,,,,,,,,,,,,,,,,,,,,,,,,,,,,,,,,,,,,,,,,,,,,,,,,,,,,,,,,,,,,,,,,,,1,1.6641213999828324,628.0079050000058,None,ScrollDown,정답입니다,628.0079050000058,None,628.0079050000058,None,628.0079050000058,None,628.0079050000058,None,629.5754470000975,None,629.5754470000975,630.0753496000543,,,,,,,,,,,,,,,,032,2022-05-27_10h56.53.584,FishGame,2022.1.1,61.17132070045122,
,31,넌 능력있어,2,Orange,B,6.166666666666666,4.6,ScrollUp,ScrollDown,Orange.png,4,Positive,Incongruent,,,,,0,0,0,0,,,,,,,,,,,,,,,,,,,,,,,,,0,30,30,30,,,,,,,,,,,,,,,,,,,,,,,,,,,,,,,,,,,,,,,,,,,,,,,,,,,,,,,,,,,,,,,,,,,,,2,1.6961538000032306,630.6915024000918,None,ScrollUp,정답입니다,630.6915024000918,None,630.6915024000918,None,630.6915024000918,None,630.6915024000918,None,632.2896138000069,None,632.2896138000069,632.7918366000522,,,,,,,,,,,,,,,,032,2022-05-27_10h56.53.584,FishGame,2022.1.1,61.17132070045122,
,32,넌 불쾌해,5,Green,A,2.125,1.933333333333333,ScrollDown,ScrollUp,Green.png,4,Negative,Incongruent,,,,,0,0,0,0,,,,,,,,,,,,,,,,,,,,,,,,,0,31,31,31,,,,,,,,,,,,,,,,,,,,,,,,,,,,,,,,,,,,,,,,,,,,,,,,,,,,,,,,,,,,,,,,,,,,,1,1.6926290999399498,633.4088663000148,None,ScrollDown,정답입니다,633.4088663000148,None,633.4088663000148,None,633.4088663000148,None,633.4088663000148,None,635.0062589000445,None,635.0062589000445,635.5085367000429,,,,,,,,,,,,,,,,032,2022-05-27_10h56.53.584,FishGame,2022.1.1,61.17132070045122,
,33,나를 데려가줘,6,Orange,B,0,0,ScrollDown,ScrollUp,Orange.png,4,NonTarget,NonTarget,,,,,0,0,0,0,,,,,,,,,,,,,,,,,,,,,,,,,0,32,32,32,,,,,,,,,,,,,,,,,,,,,,,,,,,,,,,,,,,,,,,,,,,,,,,,,,,,,,,,,,,,,,,,,,,,,1,1.596106500015594,636.1245986000868,None,ScrollDown,정답입니다,636.1245986000868,None,636.1245986000868,None,636.1245986000868,None,636.1245986000868,None,637.6228106000926,None,637.6228106000926,638.1250467000064,,,,,,,,,,,,,,,,032,2022-05-27_10h56.53.584,FishGame,2022.1.1,61.17132070045122,
,34,넌 유순해,3,Green,A,4.458333333333333,5,ScrollDown,ScrollUp,Green.png,4,Neutral,Neutral,,,,,0,0,0,0,,,,,,,,,,,,,,,,,,,,,,,,,0,33,33,33,,,,,,,,,,,,,,,,,,,,,,,,,,,,,,,,,,,,,,,,,,,,,,,,,,,,,,,,,,,,,,,,,,,,,1,1.3424793999874964,638.7447945000604,None,ScrollDown,정답입니다,638.7447945000604,None,638.7447945000604,None,638.7447945000604,None,638.7447945000604,None,639.9917184000369,None,639.9917184000369,640.4916837000055,,,,,,,,,,,,,,,,032,2022-05-27_10h56.53.584,FishGame,2022.1.1,61.17132070045122,
,35,넌 근심스러워,4,Orange,B,2.708333333333333,3.133333333333333,ScrollUp,ScrollDown,Orange.png,4,Negative,Congruent,,,,,0,0,0,0,,,,,,,,,,,,,,,,,,,,,,,,,0,34,34,34,,,,,,,,,,,,,,,,,,,,,,,,,,,,,,,,,,,,,,,,,,,,,,,,,,,,,,,,,,,,,,,,,,,,,2,1.492714500054717,641.1238261000253,None,ScrollUp,정답입니다,641.1238261000253,None,641.1238261000253,None,641.1238261000253,None,641.1238261000253,None,642.5061210000422,None,642.5061210000422,643.0083296000957,,,,,,,,,,,,,,,,032,2022-05-27_10h56.53.584,FishGame,2022.1.1,61.17132070045122,
,36,넌 세련되었어,2,Green,A,5.5,4.6,ScrollDown,ScrollUp,Green.png,4,Positive,Congruent,,,,,0,0,0,0,,,,,,,,,,,,,,,,,,,,,,,,,0,35,35,35,,,,,,,,,,,,,,,,,,,,,,,,,,,,,,,,,,,,,,,,,,,,,,,,,,,,,,,,,,,,,,,,,,,,,1,1.6281789999920875,643.6370305999881,None,ScrollDown,정답입니다,643.6370305999881,None,643.6370305999881,None,643.6370305999881,None,643.6370305999881,None,645.1559883999871,None,645.1559883999871,645.6582120000385,,,,,,,,,,,,,,,,032,2022-05-27_10h56.53.584,FishGame,2022.1.1,61.17132070045122,
,37,나를 보내줘,6,Green,A,0,0,ScrollUp,ScrollDown,Green.png,4,NonTarget,NonTarget,,,,,0,0,0,0,,,,,,,,,,,,,,,,,,,,,,,,,0,36,36,36,,,,,,,,,,,,,,,,,,,,,,,,,,,,,,,,,,,,,,,,,,,,,,,,,,,,,,,,,,,,,,,,,,,,,2,1.7427884000353515,646.2760130000534,None,ScrollUp,정답입니다,646.2760130000534,None,646.2760130000534,None,646.2760130000534,None,646.2760130000534,None,647.9226687999908,None,647.9226687999908,648.4249422000721,,,,,,,,,,,,,,,,032,2022-05-27_10h56.53.584,FishGame,2022.1.1,61.17132070045122,
,38,넌 확고해,3,Orange,B,4.708333333333334,4.566666666666666,ScrollUp,ScrollDown,Orange.png,4,Neutral,Neutral,,,,,0,0,0,0,,,,,,,,,,,,,,,,,,,,,,,,,0,37,37,37,,,,,,,,,,,,,,,,,,,,,,,,,,,,,,,,,,,,,,,,,,,,,,,,,,,,,,,,,,,,,,,,,,,,,2,1.9150246999925002,649.0408574000467,None,ScrollUp,정답입니다,649.0408574000467,None,649.0408574000467,None,649.0408574000467,None,649.0408574000467,None,650.8558904000092,None,650.8558904000092,651.3581398000242,,,,,,,,,,,,,,,,032,2022-05-27_10h56.53.584,FishGame,2022.1.1,61.17132070045122,
,39,넌 이해심이 많아,1,Orange,B,6.041666666666668,5.533333333333333,ScrollUp,ScrollDown,Orange.png,4,Positive,Incongruent,,,,,0,0,0,0,,,,,,,,,,,,,,,,,,,,,,,,,0,38,38,38,,,,,,,,,,,,,,,,,,,,,,,,,,,,,,,,,,,,,,,,,,,,,,,,,,,,,,,,,,,,,,,,,,,,,2,2.0280356999719515,651.979986499995,None,ScrollUp,정답입니다,651.979986499995,None,651.979986499995,None,651.979986499995,None,651.979986499995,None,653.9058721000329,None,653.9058721000329,654.4080787000712,,,,,,,,,,,,,,,,032,2022-05-27_10h56.53.584,FishGame,2022.1.1,61.17132070045122,
,40,나를 보내줘,6,Green,A,0,0,ScrollUp,ScrollDown,Green.png,4,NonTarget,NonTarget,,,,,0,0,0,0,,,,,,,,,,,,,,,,,,,,,,,,,0,39,39,39,,,,,,,,,,,,,,,,,,,,,,,,,,,,,,,,,,,,,,,,,,,,,,,,,,,,,,,,,,,,,,,,,,,,,2,1.8102422000374645,655.0235967000481,None,ScrollUp,정답입니다,655.0235967000481,None,655.0235967000481,None,655.0235967000481,None,655.0235967000481,None,656.7390996000031,None,656.7390996000031,657.2413454999914,,,,,,,,,,,,,,,,032,2022-05-27_10h56.53.584,FishGame,2022.1.1,61.17132070045122,
,41,넌 거칠어,4,Green,A,2.625,3.033333333333333,ScrollDown,ScrollUp,Green.png,4,Negative,Incongruent,,,,,0,0,0,0,,,,,,,,,,,,,,,,,,,,,,,,,0,40,40,40,,,,,,,,,,,,,,,,,,,,,,,,,,,,,,,,,,,,,,,,,,,,,,,,,,,,,,,,,,,,,,,,,,,,,1,1.7095670000417158,657.8593799000373,None,ScrollDown,정답입니다,657.8593799000373,None,657.8593799000373,None,657.8593799000373,None,657.8593799000373,None,659.4746804999886,None,659.4746804999886,659.974640200031,,,,,,,,,,,,,,,,032,2022-05-27_10h56.53.584,FishGame,2022.1.1,61.17132070045122,
,42,넌 변덕맞아,5,Orange,B,2.75,2.166666666666667,ScrollUp,ScrollDown,Orange.png,4,Negative,Congruent,,,,,0,0,0,0,,,,,,,,,,,,,,,,,,,,,,,,,0,41,41,41,,,,,,,,,,,,,,,,,,,,,,,,,,,,,,,,,,,,,,,,,,,,,,,,,,,,,,,,,,,,,,,,,,,,,2,1.9948815000243485,660.6173740000231,None,ScrollUp,정답입니다,660.6173740000231,None,660.6173740000231,None,660.6173740000231,None,660.6173740000231,None,662.5078248000937,None,662.5078248000937,663.0078465000261,,,,,,,,,,,,,,,,032,2022-05-27_10h56.53.584,FishGame,2022.1.1,61.17132070045122,
,43,나를 데려가줘,6,Orange,B,0,0,ScrollDown,ScrollUp,Orange.png,4,NonTarget,NonTarget,,,,,0,0,0,0,,,,,,,,,,,,,,,,,,,,,,,,,0,42,42,42,,,,,,,,,,,,,,,,,,,,,,,,,,,,,,,,,,,,,,,,,,,,,,,,,,,,,,,,,,,,,,,,,,,,,1,1.6424099000869319,663.6308398999972,None,ScrollDown,정답입니다,663.6308398999972,None,663.6308398999972,None,663.6308398999972,None,663.6308398999972,None,665.1744253000943,None,665.1744253000943,665.6745907000732,,,,,,,,,,,,,,,,032,2022-05-27_10h56.53.584,FishGame,2022.1.1,61.17132070045122,
,44,넌 외로워,4,Orange,B,2.833333333333333,3.3,ScrollUp,ScrollDown,Orange.png,4,Negative,Congruent,,,,,0,0,0,0,,,,,,,,,,,,,,,,,,,,,,,,,0,43,43,43,,,,,,,,,,,,,,,,,,,,,,,,,,,,,,,,,,,,,,,,,,,,,,,,,,,,,,,,,,,,,,,,,,,,,2,1.7127043000655249,666.3155888000038,None,ScrollUp,정답입니다,666.3155888000038,None,666.3155888000038,None,666.3155888000038,None,666.3155888000038,None,667.922210299992,None,667.922210299992,668.4244387000799,,,,,,,,,,,,,,,,032,2022-05-27_10h56.53.584,FishGame,2022.1.1,61.17132070045122,
,1,넌 불평스러워,5,Green,A,2.25,2.066666666666667,ScrollDown,ScrollUp,Green.png,5,Negative,Incongruent,,,,,0,0,0,0,,,,,,,,,,,,,,,,,,,,,,,,,,,,,0,0,0,0,,,,,,,,,,,,,,,,,,,,,,,,701.6383429000853,703.1406160000479,703.1572818000568,704.1072558000451,704.1571719000349,705.1071416999912,705.1071416999912,None,,,,,,,,,,,,,,,,,,,,,,,,,,,,,,,,,,1,1.7719958000816405,706.2108249000739,None,ScrollDown,정답입니다,706.2108249000739,None,706.2108249000739,None,706.2108249000739,None,706.2108249000739,None,707.8902807000559,None,707.8902807000559,708.3903245000402,668.9244049000554,None,668.9244049000554,None,0.05277778,-0.107407406,1,0,0,0.015992549946531653,None,698.9216617000056,None,,,032,2022-05-27_10h56.53.584,FishGame,2022.1.1,61.17132070045122,
,2,나를 보내줘,6,Green,A,0,0,ScrollUp,ScrollDown,Green.png,5,NonTarget,NonTarget,,,,,0,0,0,0,,,,,,,,,,,,,,,,,,,,,,,,,,,,,0,1,1,1,,,,,,,,,,,,,,,,,,,,,,,,,,,,,,,,,,,,,,,,,,,,,,,,,,,,,,,,,,,,,,,,,2,1.5593192999949679,709.0079220000189,None,ScrollUp,정답입니다,709.0079220000189,None,709.0079220000189,None,709.0079220000189,None,709.0079220000189,None,710.4713208000176,None,710.4713208000176,710.9714042000705,,,,,,,,,,,,,,,,032,2022-05-27_10h56.53.584,FishGame,2022.1.1,61.17132070045122,
,3,넌 다재다능해,2,Orange,B,6.208333333333333,4.5,ScrollUp,ScrollDown,Orange.png,5,Positive,Incongruent,,,,,0,0,0,0,,,,,,,,,,,,,,,,,,,,,,,,,,,,,0,2,2,2,,,,,,,,,,,,,,,,,,,,,,,,,,,,,,,,,,,,,,,,,,,,,,,,,,,,,,,,,,,,,,,,,2,1.627229299978353,711.5912630000385,None,ScrollUp,정답입니다,711.5912630000385,None,711.5912630000385,None,711.5912630000385,None,711.5912630000385,None,713.1235104000662,None,713.1235104000662,713.6235420000739,,,,,,,,,,,,,,,,032,2022-05-27_10h56.53.584,FishGame,2022.1.1,61.17132070045122,
,4,넌 과감해,3,Green,A,4.833333333333334,4.6,ScrollDown,ScrollUp,Green.png,5,Neutral,Neutral,,,,,0,0,0,0,,,,,,,,,,,,,,,,,,,,,,,,,,,,,0,3,3,3,,,,,,,,,,,,,,,,,,,,,,,,,,,,,,,,,,,,,,,,,,,,,,,,,,,,,,,,,,,,,,,,,1,1.6117121999850497,714.2561279000947,None,ScrollDown,정답입니다,714.2561279000947,None,714.2561279000947,None,714.2561279000947,None,714.2561279000947,None,715.7712159000803,None,715.7712159000803,716.2733988000546,,,,,,,,,,,,,,,,032,2022-05-27_10h56.53.584,FishGame,2022.1.1,61.17132070045122,
,5,넌 고분고분해,3,Orange,B,3.75,4.033333333333333,ScrollUp,ScrollDown,Orange.png,5,Neutral,Neutral,,,,,0,0,0,0,,,,,,,,,,,,,,,,,,,,,,,,,,,,,0,4,4,4,,,,,,,,,,,,,,,,,,,,,,,,,,,,,,,,,,,,,,,,,,,,,,,,,,,,,,,,,,,,,,,,,2,1.642673800000921,716.8998486000346,None,ScrollUp,정답입니다,716.8998486000346,None,716.8998486000346,None,716.8998486000346,None,716.8998486000346,None,718.4378736000508,None,718.4378736000508,718.9400704000145,,,,,,,,,,,,,,,,032,2022-05-27_10h56.53.584,FishGame,2022.1.1,61.17132070045122,
,6,나를 보내줘,6,Green,A,0,0,ScrollUp,ScrollDown,Green.png,5,NonTarget,NonTarget,,,,,0,0,0,0,,,,,,,,,,,,,,,,,,,,,,,,,,,,,0,5,5,5,,,,,,,,,,,,,,,,,,,,,,,,,,,,,,,,,,,,,,,,,,,,,,,,,,,,,,,,,,,,,,,,,2,1.609527200111188,719.5610388000496,None,ScrollUp,정답입니다,719.5610388000496,None,719.5610388000496,None,719.5610388000496,None,719.5610388000496,None,721.0708549000556,None,721.0708549000556,721.5709621000569,,,,,,,,,,,,,,,,032,2022-05-27_10h56.53.584,FishGame,2022.1.1,61.17132070045122,
,7,넌 잘 잊어,4,Green,A,3,3.7,ScrollDown,ScrollUp,Green.png,5,Negative,Incongruent,,,,,0,0,0,0,,,,,,,,,,,,,,,,,,,,,,,,,,,,,0,6,6,6,,,,,,,,,,,,,,,,,,,,,,,,,,,,,,,,,,,,,,,,,,,,,,,,,,,,,,,,,,,,,,,,,1,1.5807725000195205,722.1940196000505,None,ScrollDown,정답입니다,722.1940196000505,None,722.1940196000505,None,722.1940196000505,None,722.1940196000505,None,723.6733918000245,None,723.6733918000245,724.1734506000066,,,,,,,,,,,,,,,,032,2022-05-27_10h56.53.584,FishGame,2022.1.1,61.17132070045122,
,8,넌 탐구심이없어,4,Orange,B,2.833333333333333,3.066666666666667,ScrollUp,ScrollDown,Orange.png,5,Negative,Congruent,,,,,0,0,0,0,,,,,,,,,,,,,,,,,,,,,,,,,,,,,0,7,7,7,,,,,,,,,,,,,,,,,,,,,,,,,,,,,,,,,,,,,,,,,,,,,,,,,,,,,,,,,,,,,,,,,2,1.8792536999098957,724.7928933000658,None,ScrollUp,정답입니다,724.7928933000658,None,724.7928933000658,None,724.7928933000658,None,724.7928933000658,None,726.573237100034,None,726.573237100034,727.0898985000094,,,,,,,,,,,,,,,,032,2022-05-27_10h56.53.584,FishGame,2022.1.1,61.17132070045122,
,9,나를 데려가줘,6,Orange,B,0,0,ScrollDown,ScrollUp,Orange.png,5,NonTarget,NonTarget,,,,,0,0,0,0,,,,,,,,,,,,,,,,,,,,,,,,,,,,,0,8,8,8,,,,,,,,,,,,,,,,,,,,,,,,,,,,,,,,,,,,,,,,,,,,,,,,,,,,,,,,,,,,,,,,,1,1.4763262000633404,727.6920439000241,None,ScrollDown,정답입니다,727.6920439000241,None,727.6920439000241,None,727.6920439000241,None,727.6920439000241,None,729.0709361000918,None,729.0709361000918,729.5732109000674,,,,,,,,,,,,,,,,032,2022-05-27_10h56.53.584,FishGame,2022.1.1,61.17132070045122,
,10,넌 참되어,2,Green,A,6.041666666666664,4.733333333333333,ScrollDown,ScrollUp,Green.png,5,Positive,Congruent,,,,,0,0,0,0,,,,,,,,,,,,,,,,,,,,,,,,,,,,,0,9,9,9,,,,,,,,,,,,,,,,,,,,,,,,,,,,,,,,,,,,,,,,,,,,,,,,,,,,,,,,,,,,,,,,,1,1.4946532999165356,730.2123817000538,None,ScrollDown,정답입니다,730.2123817000538,None,730.2123817000538,None,730.2123817000538,None,730.2123817000538,None,731.5898349999916,None,731.5898349999916,732.1042570000282,,,,,,,,,,,,,,,,032,2022-05-27_10h56.53.584,FishGame,2022.1.1,61.17132070045122,
,11,넌 생기있어,1,Orange,B,5.875,5.633333333333334,ScrollUp,ScrollDown,Orange.png,5,Positive,Incongruent,,,,,0,0,0,0,,,,,,,,,,,,,,,,,,,,,,,,,,,,,0,10,10,10,,,,,,,,,,,,,,,,,,,,,,,,,,,,,,,,,,,,,,,,,,,,,,,,,,,,,,,,,,,,,,,,,2,1.5448451000265777,732.726742100087,None,ScrollUp,정답입니다,732.726742100087,None,732.726742100087,None,732.726742100087,None,732.726742100087,None,734.1730306000682,None,734.1730306000682,734.6730019000825,,,,,,,,,,,,,,,,032,2022-05-27_10h56.53.584,FishGame,2022.1.1,61.17132070045122,
,12,넌 비사교적이야,4,Orange,B,2.875,2.9,ScrollUp,ScrollDown,Orange.png,5,Negative,Congruent,,,,,0,0,0,0,,,,,,,,,,,,,,,,,,,,,,,,,,,,,0,11,11,11,,,,,,,,,,,,,,,,,,,,,,,,,,,,,,,,,,,,,,,,,,,,,,,,,,,,,,,,,,,,,,,,,2,1.7095784000121057,735.2918564000865,None,ScrollUp,정답입니다,735.2918564000865,None,735.2918564000865,None,735.2918564000865,None,735.2918564000865,None,736.9041617000476,None,736.9041617000476,737.4064407000551,,,,,,,,,,,,,,,,032,2022-05-27_10h56.53.584,FishGame,2022.1.1,61.17132070045122,
,13,나를 데려가줘,6,Orange,B,0,0,ScrollDown,ScrollUp,Orange.png,5,NonTarget,NonTarget,,,,,0,0,0,0,,,,,,,,,,,,,,,,,,,,,,,,,,,,,0,12,12,12,,,,,,,,,,,,,,,,,,,,,,,,,,,,,,,,,,,,,,,,,,,,,,,,,,,,,,,,,,,,,,,,,1,1.281854800065048,738.0193285000278,None,ScrollDown,정답입니다,738.0193285000278,None,738.0193285000278,None,738.0193285000278,None,738.0193285000278,None,739.2040312000317,None,739.2040312000317,739.706302100094,,,,,,,,,,,,,,,,032,2022-05-27_10h56.53.584,FishGame,2022.1.1,61.17132070045122,
,14,넌 고독해,4,Green,A,2.916666666666667,3.233333333333333,ScrollDown,ScrollUp,Green.png,5,Negative,Incongruent,,,,,0,0,0,0,,,,,,,,,,,,,,,,,,,,,,,,,,,,,0,13,13,13,,,,,,,,,,,,,,,,,,,,,,,,,,,,,,,,,,,,,,,,,,,,,,,,,,,,,,,,,,,,,,,,,1,1.5280483999522403,740.325683800038,None,ScrollDown,정답입니다,740.325683800038,None,740.325683800038,None,740.325683800038,None,740.325683800038,None,741.7562716000248,None,741.7562716000248,742.2562872000271,,,,,,,,,,,,,,,,032,2022-05-27_10h56.53.584,FishGame,2022.1.1,61.17132070045122,
,15,넌 신경질적이야,5,Orange,B,2.375,2.233333333333333,ScrollUp,ScrollDown,Orange.png,5,Negative,Congruent,,,,,0,0,0,0,,,,,,,,,,,,,,,,,,,,,,,,,,,,,0,14,14,14,,,,,,,,,,,,,,,,,,,,,,,,,,,,,,,,,,,,,,,,,,,,,,,,,,,,,,,,,,,,,,,,,2,1.7891303999349475,742.8878253001021,None,ScrollUp,정답입니다,742.8878253001021,None,742.8878253001021,None,742.8878253001021,None,742.8878253001021,None,744.5703704000916,None,744.5703704000916,745.0704895000672,,,,,,,,,,,,,,,,032,2022-05-27_10h56.53.584,FishGame,2022.1.1,61.17132070045122,
,16,넌 똑똑해,2,Orange,B,5.666666666666667,3.966666666666667,ScrollUp,ScrollDown,Orange.png,5,Positive,Incongruent,,,,,0,0,0,0,,,,,,,,,,,,,,,,,,,,,,,,,,,,,0,15,15,15,,,,,,,,,,,,,,,,,,,,,,,,,,,,,,,,,,,,,,,,,,,,,,,,,,,,,,,,,,,,,,,,,2,1.878377400105819,745.6966548000928,None,ScrollUp,정답입니다,745.6966548000928,None,745.6966548000928,None,745.6966548000928,None,745.6966548000928,None,747.4728740000864,None,747.4728740000864,747.9759689000202,,,,,,,,,,,,,,,,032,2022-05-27_10h56.53.584,FishGame,2022.1.1,61.17132070045122,
,17,나를 보내줘,6,Green,A,0,0,ScrollUp,ScrollDown,Green.png,5,NonTarget,NonTarget,,,,,0,0,0,0,,,,,,,,,,,,,,,,,,,,,,,,,,,,,0,16,16,16,,,,,,,,,,,,,,,,,,,,,,,,,,,,,,,,,,,,,,,,,,,,,,,,,,,,,,,,,,,,,,,,,2,1.6923910999903455,748.591184400022,None,ScrollUp,정답입니다,748.591184400022,None,748.591184400022,None,748.591184400022,None,748.591184400022,None,750.1894007000374,None,750.1894007000374,750.6894518000772,,,,,,,,,,,,,,,,032,2022-05-27_10h56.53.584,FishGame,2022.1.1,61.17132070045122,
,18,넌 협조적이야,1,Green,A,5.625,5.666666666666667,ScrollDown,ScrollUp,Green.png,5,Positive,Congruent,,,,,0,0,0,0,,,,,,,,,,,,,,,,,,,,,,,,,,,,,0,17,17,17,,,,,,,,,,,,,,,,,,,,,,,,,,,,,,,,,,,,,,,,,,,,,,,,,,,,,,,,,,,,,,,,,1,1.5594089000951499,751.3233216000954,None,ScrollDown,정답입니다,751.3233216000954,None,751.3233216000954,None,751.3233216000954,None,751.3233216000954,None,752.7870970000513,None,752.7870970000513,753.2892668000422,,,,,,,,,,,,,,,,032,2022-05-27_10h56.53.584,FishGame,2022.1.1,61.17132070045122,
,19,나를 데려가줘,6,Orange,B,0,0,ScrollDown,ScrollUp,Orange.png,5,NonTarget,NonTarget,,,,,0,0,0,0,,,,,,,,,,,,,,,,,,,,,,,,,,,,,0,18,18,18,,,,,,,,,,,,,,,,,,,,,,,,,,,,,,,,,,,,,,,,,,,,,,,,,,,,,,,,,,,,,,,,,1,1.3939710999839008,753.9103246000595,None,ScrollDown,정답입니다,753.9103246000595,None,753.9103246000595,None,753.9103246000595,None,753.9103246000595,None,755.2058994000545,None,755.2058994000545,755.7060097000794,,,,,,,,,,,,,,,,032,2022-05-27_10h56.53.584,FishGame,2022.1.1,61.17132070045122,
,20,넌 몰인정해,5,Orange,B,2.541666666666667,2.066666666666667,ScrollUp,ScrollDown,Orange.png,5,Negative,Congruent,,,,,0,0,0,0,,,,,,,,,,,,,,,,,,,,,,,,,,,,,0,19,19,19,,,,,,,,,,,,,,,,,,,,,,,,,,,,,,,,,,,,,,,,,,,,,,,,,,,,,,,,,,,,,,,,,2,1.5614924000110477,756.3294320000568,None,ScrollUp,정답입니다,756.3294320000568,None,756.3294320000568,None,756.3294320000568,None,756.3294320000568,None,757.7870235000737,None,757.7870235000737,758.2892215000466,,,,,,,,,,,,,,,,032,2022-05-27_10h56.53.584,FishGame,2022.1.1,61.17132070045122,
,21,나를 데려가줘,6,Orange,B,0,0,ScrollDown,ScrollUp,Orange.png,5,NonTarget,NonTarget,,,,,0,0,0,0,,,,,,,,,,,,,,,,,,,,,,,,,,,,,0,20,20,20,,,,,,,,,,,,,,,,,,,,,,,,,,,,,,,,,,,,,,,,,,,,,,,,,,,,,,,,,,,,,,,,,1,1.6590639000060037,758.9155975000467,None,ScrollDown,정답입니다,758.9155975000467,None,758.9155975000467,None,758.9155975000467,None,758.9155975000467,None,760.4724496999988,None,760.4724496999988,760.9703455000417,,,,,,,,,,,,,,,,032,2022-05-27_10h56.53.584,FishGame,2022.1.1,61.17132070045122,
,22,넌 순진해,3,Orange,B,4.125,4.166666666666667,ScrollUp,ScrollDown,Orange.png,5,Neutral,Neutral,,,,,0,0,0,0,,,,,,,,,,,,,,,,,,,,,,,,,,,,,0,21,21,21,,,,,,,,,,,,,,,,,,,,,,,,,,,,,,,,,,,,,,,,,,,,,,,,,,,,,,,,,,,,,,,,,2,1.9760760000208393,761.595284900046,None,ScrollUp,정답입니다,761.595284900046,None,761.595284900046,None,761.595284900046,None,761.595284900046,None,763.4702594000846,None,763.4702594000846,763.9725346000632,,,,,,,,,,,,,,,,032,2022-05-27_10h56.53.584,FishGame,2022.1.1,61.17132070045122,
,23,넌 신뢰할만해,1,Green,A,6.625,5.533333333333333,ScrollDown,ScrollUp,Green.png,5,Positive,Congruent,,,,,0,0,0,0,,,,,,,,,,,,,,,,,,,,,,,,,,,,,0,22,22,22,,,,,,,,,,,,,,,,,,,,,,,,,,,,,,,,,,,,,,,,,,,,,,,,,,,,,,,,,,,,,,,,,1,1.64290729991626,764.5932248000754,None,ScrollDown,정답입니다,764.5932248000754,None,764.5932248000754,None,764.5932248000754,None,764.5932248000754,None,766.1368556000525,None,766.1368556000525,766.6390876000514,,,,,,,,,,,,,,,,032,2022-05-27_10h56.53.584,FishGame,2022.1.1,61.17132070045122,
,24,나를 보내줘,6,Green,A,0,0,ScrollUp,ScrollDown,Green.png,5,NonTarget,NonTarget,,,,,0,0,0,0,,,,,,,,,,,,,,,,,,,,,,,,,,,,,0,23,23,23,,,,,,,,,,,,,,,,,,,,,,,,,,,,,,,,,,,,,,,,,,,,,,,,,,,,,,,,,,,,,,,,,2,1.4780002000043169,767.2591018000385,None,ScrollUp,정답입니다,767.2591018000385,None,767.2591018000385,None,767.2591018000385,None,767.2591018000385,None,768.6368217000272,None,768.6368217000272,769.1390654999996,,,,,,,,,,,,,,,,032,2022-05-27_10h56.53.584,FishGame,2022.1.1,61.17132070045122,
,25,넌 인색해,5,Green,A,2.625,2.233333333333333,ScrollDown,ScrollUp,Green.png,5,Negative,Incongruent,,,,,0,0,0,0,,,,,,,,,,,,,,,,,,,,,,,,,,,,,0,24,24,24,,,,,,,,,,,,,,,,,,,,,,,,,,,,,,,,,,,,,,,,,,,,,,,,,,,,,,,,,,,,,,,,,1,1.8279104999965057,769.7610559000168,None,ScrollDown,정답입니다,769.7610559000168,None,769.7610559000168,None,769.7610559000168,None,769.7610559000168,None,771.4889394000638,None,771.4889394000638,772.0056443000212,,,,,,,,,,,,,,,,032,2022-05-27_10h56.53.584,FishGame,2022.1.1,61.17132070045122,
,26,넌 유쾌해,1,Orange,B,5.833333333333333,5.766666666666667,ScrollUp,ScrollDown,Orange.png,5,Positive,Incongruent,,,,,0,0,0,0,,,,,,,,,,,,,,,,,,,,,,,,,,,,,0,25,25,25,,,,,,,,,,,,,,,,,,,,,,,,,,,,,,,,,,,,,,,,,,,,,,,,,,,,,,,,,,,,,,,,,2,2.2922348000574857,772.6089078000514,None,ScrollUp,정답입니다,772.6089078000514,None,772.6089078000514,None,772.6089078000514,None,772.6089078000514,None,774.805570900091,None,774.805570900091,775.3221497000195,,,,,,,,,,,,,,,,032,2022-05-27_10h56.53.584,FishGame,2022.1.1,61.17132070045122,
