name,TrialNum,Word,WordCategory,FishType,WordList,WordValence,WordReputation,CorrectResp,IncorrectResp,FishTypeFile,Round,WordType,Condition,LoopforOrange.thisRepN,LoopforOrange.thisTrialN,LoopforOrange.thisN,LoopforOrange.thisIndex,OrangeInstLoop.thisRepN,OrangeInstLoop.thisTrialN,OrangeInstLoop.thisN,OrangeInstLoop.thisIndex,OrangePrac.thisRepN,OrangePrac.thisTrialN,OrangePrac.thisN,OrangePrac.thisIndex,temp1.thisRepN,temp1.thisTrialN,temp1.thisN,temp1.thisIndex,OrangeRound1.thisRepN,OrangeRound1.thisTrialN,OrangeRound1.thisN,OrangeRound1.thisIndex,OrangeRound2.thisRepN,OrangeRound2.thisTrialN,OrangeRound2.thisN,OrangeRound2.thisIndex,OrangeRound3.thisRepN,OrangeRound3.thisTrialN,OrangeRound3.thisN,OrangeRound3.thisIndex,OrangeRound4.thisRepN,OrangeRound4.thisTrialN,OrangeRound4.thisN,OrangeRound4.thisIndex,OrangeRound5.thisRepN,OrangeRound5.thisTrialN,OrangeRound5.thisN,OrangeRound5.thisIndex,LoopForGreen.thisRepN,LoopForGreen.thisTrialN,LoopForGreen.thisN,LoopForGreen.thisIndex,text_2.started,text_2.stopped,text_3.started,text_3.stopped,key_resp.keys,key_resp.rt,key_resp.started,key_resp.stopped,PassI_2.started,PassI_2.stopped,PassInst_2.keys,PassInst_2.rt,PassInst_2.started,PassInst_2.stopped,mouse_2.x,mouse_2.y,mouse_2.leftButton,mouse_2.midButton,mouse_2.rightButton,mouse_2.started,mouse_2.stopped,image.started,image.stopped,text_5.started,text_5.stopped,text_6.started,text_6.stopped,text_7.started,text_7.stopped,text_8.started,text_8.stopped,slider_2.response,slider_2.rt,slider_2.started,slider_2.stopped,Response_2,Feedback_2,BackGround_2.started,BackGround_2.stopped,Fish_2.started,Fish_2.stopped,WordBox_2.started,WordBox_2.stopped,Words_2.started,Words_2.stopped,BackGround_Feedback_2.started,BackGround_Feedback_2.stopped,Feedbacks_2.started,Feedbacks_2.stopped,Continue_or_not.keys,Continue_or_not.rt,Continue_or_not.started,Continue_or_not.stopped,image_3.started,image_3.stopped,mouse_3.x,mouse_3.y,mouse_3.leftButton,mouse_3.midButton,mouse_3.rightButton,mouse_3.started,mouse_3.stopped,startmain.started,startmain.stopped,slider.response,slider.rt,slider.started,slider.stopped,Response,Feedback,BackGround.started,BackGround.stopped,Fish.started,Fish.stopped,WordBox.started,WordBox.stopped,Words.started,Words.stopped,BackGround_Feedback.started,BackGround_Feedback.stopped,Feedbacks.started,Feedbacks.stopped,text.started,text.stopped,break_interval.started,break_interval.stopped,mouse.x,mouse.y,mouse.leftButton,mouse.midButton,mouse.rightButton,mouse.started,mouse.stopped,stratnextround.started,stratnextround.stopped,endgame.started,endgame.stopped,participant,date,expName,psychopyVersion,frameRate,
,,,,,,,,,,,,,,,,,,,,,,,,,,,,,,,,,,,,,,,,,,,,,,,,,,,,,,17.335984000004828,None,17.335984000004828,None,space,0.31240829988382757,17.82614089990966,None,,,,,,,,,,,,,,,,,,,,,,,,,,,,,,,,,,,,,,,,,,,,,,,,,,,,,,,,,,,,,,,,,,,,,,,,,,,,,,,,,,,,,,,,,,033,2022-05-30_20h26.35.321,FishGame,2022.1.1,60.00538842711367,
물고기과제_instruction(참가자용)OrangeVersion.mp4,,,,,,,,,,,,,,0,0,0,0,0,0,0,0,,,,,,,,,,,,,,,,,,,,,,,,,,,,,,,,,,,,,,,,,88.0049472998362,None,n,2.461614599917084,88.0049472998362,None,,,,,,,,,,,,,,,,,,,,,,,,,,,,,,,,,,,,,,,,,,,,,,,,,,,,,,,,,,,,,,,,,,,,,,,,,,,,,,,,,,,,033,2022-05-30_20h26.35.321,FishGame,2022.1.1,60.00538842711367,
,1,넌 교활해,5,Green,B,2.333333333333333,2.133333333333333,ScrollUp,ScrollDown,Green.png,practice,,,0,0,0,0,,,,,0,0,0,0,0,0,0,0,,,,,,,,,,,,,,,,,,,,,,,,,,,,,,,,,,,,,,,0.036111113,-0.23796296,1,0,0,0.5123801997397095,None,90.48585419985466,None,93.57099999999627,95.08803129987791,95.1047095998656,96.05473780003376,96.10475569986738,97.05471109994687,97.05471109994687,None,1.6944444452722869,2.4343473000917584,98.3437633998692,None,ScrollUp,정답입니다,98.3437633998692,None,98.3437633998692,None,98.3437633998692,None,98.3437633998692,None,100.48793830000795,None,100.48793830000795,101.00230209995061,,,,,,,,,,,,,,,,,,,,,,,,,,,,,,,,,,,,,,,,,,,,,,,,,033,2022-05-30_20h26.35.321,FishGame,2022.1.1,60.00538842711367,
,2,넌 슬기로워,2,Orange,A,6.166666666666667,4.1,ScrollDown,ScrollUp,Orange.png,practice,,,0,0,0,0,,,,,0,0,0,0,0,1,1,1,,,,,,,,,,,,,,,,,,,,,,,,,,,,,,,,,,,,,,,,,,,,,,,,,,,,,,,,1.2993827114502587,1.0940048000775278,101.61536829988472,None,ScrollDown,정답입니다,101.61536829988472,None,101.61536829988472,None,101.61536829988472,None,101.61536829988472,None,102.60215489985421,None,102.60215489985421,103.10437219985761,,,,,,,,,,,,,,,,,,,,,,,,,,,,,,,,,,,,,,,,,,,,,,,,,033,2022-05-30_20h26.35.321,FishGame,2022.1.1,60.00538842711367,
,3,나를 보내줘,6,Orange,A,0,0,ScrollUp,ScrollDown,Orange.png,practice,,,0,0,0,0,,,,,0,0,0,0,0,2,2,2,,,,,,,,,,,,,,,,,,,,,,,,,,,,,,,,,,,,,,,,,,,,,,,,,,,,,,,,1.5632716032365956,1.9421401000581682,103.72446419997141,None,ScrollUp,정답입니다,103.72446419997141,None,103.72446419997141,None,103.72446419997141,None,103.72446419997141,None,105.56890599988401,None,105.56890599988401,106.07105919998139,,,,,,,,,,,,,,,,,,,,,,,,,,,,,,,,,,,,,,,,,,,,,,,,,033,2022-05-30_20h26.35.321,FishGame,2022.1.1,60.00538842711367,
,4,나를 데려가줘,6,Green,B,0,0,ScrollDown,ScrollUp,Green.png,practice,,,0,0,0,0,,,,,0,0,0,0,0,3,3,3,,,,,,,,,,,,,,,,,,,,,,,,,,,,,,,,,,,,,,,,,,,,,,,,,,,,,,,,1.2608024626970291,2.012938000028953,106.68683100002818,None,ScrollDown,정답입니다,106.68683100002818,None,106.68683100002818,None,106.68683100002818,None,106.68683100002818,None,108.60423489985988,None,108.60423489985988,109.10431409999728,,,,,,,,,,,,,,,,,,,,,,,,,,,,,,,,,,,,,,,,,,,,,,,,,033,2022-05-30_20h26.35.321,FishGame,2022.1.1,60.00538842711367,
,1,넌 교활해,5,Green,B,2.333333333333333,2.133333333333333,ScrollUp,ScrollDown,Green.png,practice,,,0,0,0,0,,,,,0,0,0,0,,,,,,,,,,,,,,,,,,,,,,,,,,,,,,,,,,,,,,,,,,,,,,,,,,,,,,,,,,,,,,,,,,,,,,,,,,,,,,n,4.454167099902406,109.60432529984973,None,109.60432529984973,None,,,,,,,,,,,,,,,,,,,,,,,,,,,,,,,,,,,,,,,,,,,033,2022-05-30_20h26.35.321,FishGame,2022.1.1,60.00538842711367,
,1,넌 따뜻해,1,Green,B,6.083333333333333,5.6,ScrollUp,ScrollDown,Green.png,1,Positive,Incongruent,0,0,0,0,,,,,,,,,,,,,0,0,0,0,,,,,,,,,,,,,,,,,,,,,,,,,,,,,,,,,,,,,,,,,,,,115.87059679999948,117.37102319998667,117.40434799995273,118.35427509993315,118.40431050001644,119.35425930004567,119.35425930004567,None,,,,,,,,,,,,,,,,,,,,,,,,,0.0055555557,-0.14444445,1,0,0,0.31387760024517775,None,114.08537909993902,None,1.5864197500050068,1.5974874999374151,120.65291139995679,None,ScrollUp,정답입니다,120.65291139995679,None,120.65291139995679,None,120.65291139995679,None,120.65291139995679,None,121.95172560005449,None,121.95172560005449,122.45394250005484,,,,,,,,,,,,,,,,033,2022-05-30_20h26.35.321,FishGame,2022.1.1,60.00538842711367,
,2,넌 기품있어,2,Green,B,5.791666666666668,4.5,ScrollUp,ScrollDown,Green.png,1,Positive,Incongruent,0,0,0,0,,,,,,,,,,,,,0,1,1,1,,,,,,,,,,,,,,,,,,,,,,,,,,,,,,,,,,,,,,,,,,,,,,,,,,,,,,,,,,,,,,,,,,,,,,,,,,,,,,,,,,,,,1.4629629620661337,1.9440460000187159,123.07646470004693,None,NoResponse,무응답입니다,123.07646470004693,None,123.07646470004693,None,123.07646470004693,None,123.07646470004693,None,124.92122539994307,None,124.92122539994307,125.42063629999757,,,,,,,,,,,,,,,,033,2022-05-30_20h26.35.321,FishGame,2022.1.1,60.00538842711367,
,3,나를 보내줘,6,Orange,A,0,0,ScrollUp,ScrollDown,Orange.png,1,NonTarget,NonTarget,0,0,0,0,,,,,,,,,,,,,0,2,2,2,,,,,,,,,,,,,,,,,,,,,,,,,,,,,,,,,,,,,,,,,,,,,,,,,,,,,,,,,,,,,,,,,,,,,,,,,,,,,,,,,,,,,2,2.1270533001516014,126.0484561000485,None,ScrollUp,정답입니다,126.0484561000485,None,126.0484561000485,None,126.0484561000485,None,126.0484561000485,None,128.068105999846,None,128.068105999846,128.56816979986615,,,,,,,,,,,,,,,,033,2022-05-30_20h26.35.321,FishGame,2022.1.1,60.00538842711367,
,4,넌 수동적이야,4,Orange,A,2.833333333333333,2.933333333333333,ScrollDown,ScrollUp,Orange.png,1,Negative,Incongruent,0,0,0,0,,,,,,,,,,,,,0,3,3,3,,,,,,,,,,,,,,,,,,,,,,,,,,,,,,,,,,,,,,,,,,,,,,,,,,,,,,,,,,,,,,,,,,,,,,,,,,,,,,,,,,,,,1.2592592487732568,1.2278730000834912,129.19595339987427,None,ScrollDown,정답입니다,129.19595339987427,None,129.19595339987427,None,129.19595339987427,None,129.19595339987427,None,130.31808779994026,None,130.31808779994026,130.82062439993024,,,,,,,,,,,,,,,,033,2022-05-30_20h26.35.321,FishGame,2022.1.1,60.00538842711367,
,5,넌 사심이 없어,3,Green,B,4.916666666666666,4.333333333333333,ScrollUp,ScrollDown,Green.png,1,Neutral,Neutral,0,0,0,0,,,,,,,,,,,,,0,4,4,4,,,,,,,,,,,,,,,,,,,,,,,,,,,,,,,,,,,,,,,,,,,,,,,,,,,,,,,,,,,,,,,,,,,,,,,,,,,,,,,,,,,,,1.805555562178294,1.6573334999848157,131.4437613999471,None,ScrollUp,정답입니다,131.4437613999471,None,131.4437613999471,None,131.4437613999471,None,131.4437613999471,None,132.9968979000114,None,132.9968979000114,133.50373720005155,,,,,,,,,,,,,,,,033,2022-05-30_20h26.35.321,FishGame,2022.1.1,60.00538842711367,
,6,넌 헤퍼,5,Orange,A,2.458333333333334,2.233333333333333,ScrollDown,ScrollUp,Orange.png,1,Negative,Incongruent,0,0,0,0,,,,,,,,,,,,,0,5,5,5,,,,,,,,,,,,,,,,,,,,,,,,,,,,,,,,,,,,,,,,,,,,,,,,,,,,,,,,,,,,,,,,,,,,,,,,,,,,,,,,,,,,,1.0046296219031017,1.1781030998099595,134.13087680004537,None,ScrollDown,정답입니다,134.13087680004537,None,134.13087680004537,None,134.13087680004537,None,134.13087680004537,None,135.20379829988815,None,135.20379829988815,135.71840519993566,,,,,,,,,,,,,,,,033,2022-05-30_20h26.35.321,FishGame,2022.1.1,60.00538842711367,
,7,넌 말쑥해,3,Orange,A,4.833333333333334,4.333333333333333,ScrollDown,ScrollUp,Orange.png,1,Neutral,Neutral,0,0,0,0,,,,,,,,,,,,,0,6,6,6,,,,,,,,,,,,,,,,,,,,,,,,,,,,,,,,,,,,,,,,,,,,,,,,,,,,,,,,,,,,,,,,,,,,,,,,,,,,,,,,,,,,,1.1774691343307495,1.1610828000120819,136.3287247000262,None,ScrollDown,정답입니다,136.3287247000262,None,136.3287247000262,None,136.3287247000262,None,136.3287247000262,None,137.38483239989728,None,137.38483239989728,137.88705309992656,,,,,,,,,,,,,,,,033,2022-05-30_20h26.35.321,FishGame,2022.1.1,60.00538842711367,
,8,넌 투덜거려,5,Green,B,2.541666666666667,2.266666666666667,ScrollUp,ScrollDown,Green.png,1,Negative,Congruent,0,0,0,0,,,,,,,,,,,,,0,7,7,7,,,,,,,,,,,,,,,,,,,,,,,,,,,,,,,,,,,,,,,,,,,,,,,,,,,,,,,,,,,,,,,,,,,,,,,,,,,,,,,,,,,,,2,2.0463295001536608,138.51027649990283,None,ScrollUp,정답입니다,138.51027649990283,None,138.51027649990283,None,138.51027649990283,None,138.51027649990283,None,140.45375570002943,None,140.45375570002943,140.97026089997962,,,,,,,,,,,,,,,,033,2022-05-30_20h26.35.321,FishGame,2022.1.1,60.00538842711367,
,9,넌 적극적이야,1,Orange,A,5.708333333333333,5.533333333333333,ScrollDown,ScrollUp,Orange.png,1,Positive,Congruent,0,0,0,0,,,,,,,,,,,,,0,8,8,8,,,,,,,,,,,,,,,,,,,,,,,,,,,,,,,,,,,,,,,,,,,,,,,,,,,,,,,,,,,,,,,,,,,,,,,,,,,,,,,,,,,,,1.0864197611808777,1.0794458000455052,141.57279379991814,None,ScrollDown,정답입니다,141.57279379991814,None,141.57279379991814,None,141.57279379991814,None,141.57279379991814,None,142.55139419995248,None,142.55139419995248,143.05365629983135,,,,,,,,,,,,,,,,033,2022-05-30_20h26.35.321,FishGame,2022.1.1,60.00538842711367,
,10,넌 재미없어,4,Green,B,2.625,2.966666666666667,ScrollUp,ScrollDown,Green.png,1,Negative,Congruent,0,0,0,0,,,,,,,,,,,,,0,9,9,9,,,,,,,,,,,,,,,,,,,,,,,,,,,,,,,,,,,,,,,,,,,,,,,,,,,,,,,,,,,,,,,,,,,,,,,,,,,,,,,,,,,,,2,1.3608939999248832,143.68038839986548,None,ScrollUp,정답입니다,143.68038839986548,None,143.68038839986548,None,143.68038839986548,None,143.68038839986548,None,144.93695120001212,None,144.93695120001212,145.43692700006068,,,,,,,,,,,,,,,,033,2022-05-30_20h26.35.321,FishGame,2022.1.1,60.00538842711367,
,11,넌 명석해,2,Orange,A,5.875,4.033333333333333,ScrollDown,ScrollUp,Orange.png,1,Positive,Congruent,0,0,0,0,,,,,,,,,,,,,0,10,10,10,,,,,,,,,,,,,,,,,,,,,,,,,,,,,,,,,,,,,,,,,,,,,,,,,,,,,,,,,,,,,,,,,,,,,,,,,,,,,,,,,,,,,1.1697530895471573,0.8780074999667704,146.05825680005364,None,ScrollDown,정답입니다,146.05825680005364,None,146.05825680005364,None,146.05825680005364,None,146.05825680005364,None,146.83465870004147,None,146.83465870004147,147.3346934998408,,,,,,,,,,,,,,,,033,2022-05-30_20h26.35.321,FishGame,2022.1.1,60.00538842711367,
,12,나를 데려가줘,6,Green,B,0,0,ScrollDown,ScrollUp,Green.png,1,NonTarget,NonTarget,0,0,0,0,,,,,,,,,,,,,0,11,11,11,,,,,,,,,,,,,,,,,,,,,,,,,,,,,,,,,,,,,,,,,,,,,,,,,,,,,,,,,,,,,,,,,,,,,,,,,,,,,,,,,,,,,1,1.9277320001274347,147.95764809986576,None,ScrollDown,정답입니다,147.95764809986576,None,147.95764809986576,None,147.95764809986576,None,147.95764809986576,None,149.78675029985607,None,149.78675029985607,150.28688539983705,,,,,,,,,,,,,,,,033,2022-05-30_20h26.35.321,FishGame,2022.1.1,60.00538842711367,
,13,넌 소심해,4,Orange,A,3,3.1,ScrollDown,ScrollUp,Orange.png,1,Negative,Incongruent,0,0,0,0,,,,,,,,,,,,,0,12,12,12,,,,,,,,,,,,,,,,,,,,,,,,,,,,,,,,,,,,,,,,,,,,,,,,,,,,,,,,,,,,,,,,,,,,,,,,,,,,,,,,,,,,,1,1.5423248999286443,150.92034139996395,None,ScrollDown,정답입니다,150.92034139996395,None,150.92034139996395,None,150.92034139996395,None,150.92034139996395,None,152.3534221998416,None,152.3534221998416,152.86796119995415,,,,,,,,,,,,,,,,033,2022-05-30_20h26.35.321,FishGame,2022.1.1,60.00538842711367,
,14,넌 합리적이야,2,Orange,A,5.583333333333333,4.733333333333333,ScrollDown,ScrollUp,Orange.png,1,Positive,Congruent,0,0,0,0,,,,,,,,,,,,,0,13,13,13,,,,,,,,,,,,,,,,,,,,,,,,,,,,,,,,,,,,,,,,,,,,,,,,,,,,,,,,,,,,,,,,,,,,,,,,,,,,,,,,,,,,,1,1.2298959998879582,153.49322359985672,None,ScrollDown,정답입니다,153.49322359985672,None,153.49322359985672,None,153.49322359985672,None,153.49322359985672,None,154.61777909984812,None,154.61777909984812,155.11998219997622,,,,,,,,,,,,,,,,033,2022-05-30_20h26.35.321,FishGame,2022.1.1,60.00538842711367,
,15,넌 무자비해,5,Green,B,2.333333333333333,2.1,ScrollUp,ScrollDown,Green.png,1,Negative,Congruent,0,0,0,0,,,,,,,,,,,,,0,14,14,14,,,,,,,,,,,,,,,,,,,,,,,,,,,,,,,,,,,,,,,,,,,,,,,,,,,,,,,,,,,,,,,,,,,,,,,,,,,,,,,,,,,,,1.9274691144625347,1.2442412001546472,155.74302130006254,None,ScrollUp,정답입니다,155.74302130006254,None,155.74302130006254,None,155.74302130006254,None,155.74302130006254,None,156.88663730002008,None,156.88663730002008,157.38667019992135,,,,,,,,,,,,,,,,033,2022-05-30_20h26.35.321,FishGame,2022.1.1,60.00538842711367,
,16,나를 보내줘,6,Orange,A,0,0,ScrollUp,ScrollDown,Orange.png,1,NonTarget,NonTarget,0,0,0,0,,,,,,,,,,,,,0,15,15,15,,,,,,,,,,,,,,,,,,,,,,,,,,,,,,,,,,,,,,,,,,,,,,,,,,,,,,,,,,,,,,,,,,,,,,,,,,,,,,,,,,,,,1.8302469104528427,1.4776893998496234,158.01000220002607,None,ScrollUp,정답입니다,158.01000220002607,None,158.01000220002607,None,158.01000220002607,None,158.01000220002607,None,159.38413270004094,None,159.38413270004094,159.88419699994847,,,,,,,,,,,,,,,,033,2022-05-30_20h26.35.321,FishGame,2022.1.1,60.00538842711367,
,17,넌 현실적이야,3,Green,B,4.608695652173913,4.766666666666667,ScrollUp,ScrollDown,Green.png,1,Neutral,Neutral,0,0,0,0,,,,,,,,,,,,,0,16,16,16,,,,,,,,,,,,,,,,,,,,,,,,,,,,,,,,,,,,,,,,,,,,,,,,,,,,,,,,,,,,,,,,,,,,,,,,,,,,,,,,,,,,,1.7762345721324284,1.046680900035426,160.5090899998322,None,ScrollUp,정답입니다,160.5090899998322,None,160.5090899998322,None,160.5090899998322,None,160.5090899998322,None,161.45338950003497,None,161.45338950003497,161.95334189990535,,,,,,,,,,,,,,,,033,2022-05-30_20h26.35.321,FishGame,2022.1.1,60.00538842711367,
,18,넌 의리있어,1,Green,B,5.833333333333334,5.633333333333334,ScrollUp,ScrollDown,Green.png,1,Positive,Incongruent,0,0,0,0,,,,,,,,,,,,,0,17,17,17,,,,,,,,,,,,,,,,,,,,,,,,,,,,,,,,,,,,,,,,,,,,,,,,,,,,,,,,,,,,,,,,,,,,,,,,,,,,,,,,,,,,,1.751543199022611,0.9609022999648005,162.57057289988734,None,ScrollUp,정답입니다,162.57057289988734,None,162.57057289988734,None,162.57057289988734,None,162.57057289988734,None,163.43404769990593,None,163.43404769990593,163.93411769997329,,,,,,,,,,,,,,,,033,2022-05-30_20h26.35.321,FishGame,2022.1.1,60.00538842711367,
,19,넌 신경과민이야,5,Orange,A,2.541666666666667,2.166666666666667,ScrollDown,ScrollUp,Orange.png,1,Negative,Incongruent,0,0,0,0,,,,,,,,,,,,,0,18,18,18,,,,,,,,,,,,,,,,,,,,,,,,,,,,,,,,,,,,,,,,,,,,,,,,,,,,,,,,,,,,,,,,,,,,,,,,,,,,,,,,,,,,,1.1651234477758408,1.1297285000327975,164.5623816999141,None,ScrollDown,정답입니다,164.5623816999141,None,164.5623816999141,None,164.5623816999141,None,164.5623816999141,None,165.5840241999831,None,165.5840241999831,166.0841057000216,,,,,,,,,,,,,,,,033,2022-05-30_20h26.35.321,FishGame,2022.1.1,60.00538842711367,
,20,넌 편안해,1,Orange,A,5.916666666666666,5.866666666666666,ScrollDown,ScrollUp,Orange.png,1,Positive,Congruent,0,0,0,0,,,,,,,,,,,,,0,19,19,19,,,,,,,,,,,,,,,,,,,,,,,,,,,,,,,,,,,,,,,,,,,,,,,,,,,,,,,,,,,,,,,,,,,,,,,,,,,,,,,,,,,,,1.2916666666666665,0.9655041000805795,166.70906699984334,None,ScrollDown,정답입니다,166.70906699984334,None,166.70906699984334,None,166.70906699984334,None,166.70906699984334,None,167.5699114999734,None,167.5699114999734,168.06990520004183,,,,,,,,,,,,,,,,033,2022-05-30_20h26.35.321,FishGame,2022.1.1,60.00538842711367,
,21,넌 품위있어,2,Green,B,5.291666666666666,4.466666666666667,ScrollUp,ScrollDown,Green.png,1,Positive,Incongruent,0,0,0,0,,,,,,,,,,,,,0,20,20,20,,,,,,,,,,,,,,,,,,,,,,,,,,,,,,,,,,,,,,,,,,,,,,,,,,,,,,,,,,,,,,,,,,,,,,,,,,,,,,,,,,,,,1.634259263674418,1.0978376001585275,168.68621159996837,None,ScrollUp,정답입니다,168.68621159996837,None,168.68621159996837,None,168.68621159996837,None,168.68621159996837,None,169.6843333998695,None,169.6843333998695,170.18643829994835,,,,,,,,,,,,,,,,033,2022-05-30_20h26.35.321,FishGame,2022.1.1,60.00538842711367,
,22,넌 빈틈없어,3,Orange,A,4.833333333333333,3.966666666666667,ScrollDown,ScrollUp,Orange.png,1,Neutral,Neutral,0,0,0,0,,,,,,,,,,,,,0,21,21,21,,,,,,,,,,,,,,,,,,,,,,,,,,,,,,,,,,,,,,,,,,,,,,,,,,,,,,,,,,,,,,,,,,,,,,,,,,,,,,,,,,,,,1.2577160596847534,0.8956625999417156,170.8091641999781,None,ScrollDown,정답입니다,170.8091641999781,None,170.8091641999781,None,170.8091641999781,None,170.8091641999781,None,171.6008077999577,None,171.6008077999577,172.10315169999376,,,,,,,,,,,,,,,,033,2022-05-30_20h26.35.321,FishGame,2022.1.1,60.00538842711367,
,23,넌 상상력없어,4,Green,B,2.833333333333333,3.133333333333333,ScrollUp,ScrollDown,Green.png,1,Negative,Congruent,0,0,0,0,,,,,,,,,,,,,0,22,22,22,,,,,,,,,,,,,,,,,,,,,,,,,,,,,,,,,,,,,,,,,,,,,,,,,,,,,,,,,,,,,,,,,,,,,,,,,,,,,,,,,,,,,1.7716049303611119,0.8757549000438303,172.7273209998384,None,ScrollUp,정답입니다,172.7273209998384,None,172.7273209998384,None,172.7273209998384,None,172.7273209998384,None,173.5005342999939,None,173.5005342999939,174.00057190004736,,,,,,,,,,,,,,,,033,2022-05-30_20h26.35.321,FishGame,2022.1.1,60.00538842711367,
,24,넌 지혜로워,2,Green,B,6.333333333333334,4.633333333333334,ScrollUp,ScrollDown,Green.png,1,Positive,Incongruent,0,0,0,0,,,,,,,,,,,,,0,23,23,23,,,,,,,,,,,,,,,,,,,,,,,,,,,,,,,,,,,,,,,,,,,,,,,,,,,,,,,,,,,,,,,,,,,,,,,,,,,,,,,,,,,,,1.6712962985038757,0.8780921001452953,174.63689289987087,None,ScrollUp,정답입니다,174.63689289987087,None,174.63689289987087,None,174.63689289987087,None,174.63689289987087,None,175.40052529983222,None,175.40052529983222,175.9031348999124,,,,,,,,,,,,,,,,033,2022-05-30_20h26.35.321,FishGame,2022.1.1,60.00538842711367,
,25,넌 시끄러워,4,Orange,A,2.833333333333333,3.033333333333333,ScrollDown,ScrollUp,Orange.png,1,Negative,Incongruent,0,0,0,0,,,,,,,,,,,,,0,24,24,24,,,,,,,,,,,,,,,,,,,,,,,,,,,,,,,,,,,,,,,,,,,,,,,,,,,,,,,,,,,,,,,,,,,,,,,,,,,,,,,,,,,,,1.2083333383003871,0.9650218999013305,176.52372359996662,None,ScrollDown,정답입니다,176.52372359996662,None,176.52372359996662,None,176.52372359996662,None,176.52372359996662,None,177.38631929992698,None,177.38631929992698,177.88627219991758,,,,,,,,,,,,,,,,033,2022-05-30_20h26.35.321,FishGame,2022.1.1,60.00538842711367,
,26,넌 만사태평이야,3,Green,B,4,4.333333333333333,ScrollUp,ScrollDown,Green.png,1,Neutral,Neutral,0,0,0,0,,,,,,,,,,,,,0,25,25,25,,,,,,,,,,,,,,,,,,,,,,,,,,,,,,,,,,,,,,,,,,,,,,,,,,,,,,,,,,,,,,,,,,,,,,,,,,,,,,,,,,,,,1.7592592686414719,0.9442487999331206,178.51393929985352,None,ScrollUp,정답입니다,178.51393929985352,None,178.51393929985352,None,178.51393929985352,None,178.51393929985352,None,179.3528306998778,None,179.3528306998778,179.85292809992097,,,,,,,,,,,,,,,,033,2022-05-30_20h26.35.321,FishGame,2022.1.1,60.00538842711367,
,27,넌 붙임성있어,1,Orange,A,5.708333333333333,5.633333333333334,ScrollDown,ScrollUp,Orange.png,1,Positive,Congruent,0,0,0,0,,,,,,,,,,,,,0,26,26,26,,,,,,,,,,,,,,,,,,,,,,,,,,,,,,,,,,,,,,,,,,,,,,,,,,,,,,,,,,,,,,,,,,,,,,,,,,,,,,,,,,,,,1.182098776102066,1.0089237000793219,180.47714159986936,None,ScrollDown,정답입니다,180.47714159986936,None,180.47714159986936,None,180.47714159986936,None,180.47714159986936,None,181.38618979998864,None,181.38618979998864,181.88616309990175,,,,,,,,,,,,,,,,033,2022-05-30_20h26.35.321,FishGame,2022.1.1,60.00538842711367,
,28,넌 영리해,2,Orange,A,6,4.033333333333333,ScrollDown,ScrollUp,Orange.png,1,Positive,Congruent,0,0,0,0,,,,,,,,,,,,,0,27,27,27,,,,,,,,,,,,,,,,,,,,,,,,,,,,,,,,,,,,,,,,,,,,,,,,,,,,,,,,,,,,,,,,,,,,,,,,,,,,,,,,,,,,,1.2916666666666665,1.4090269000735134,182.51348389987834,None,ScrollDown,정답입니다,182.51348389987834,None,182.51348389987834,None,182.51348389987834,None,182.51348389987834,None,183.81938789994456,None,183.81938789994456,184.3194335999433,,,,,,,,,,,,,,,,033,2022-05-30_20h26.35.321,FishGame,2022.1.1,60.00538842711367,
,29,넌 열심이야,1,Green,B,6.041666666666667,5.833333333333333,ScrollUp,ScrollDown,Green.png,1,Positive,Incongruent,0,0,0,0,,,,,,,,,,,,,0,28,28,28,,,,,,,,,,,,,,,,,,,,,,,,,,,,,,,,,,,,,,,,,,,,,,,,,,,,,,,,,,,,,,,,,,,,,,,,,,,,,,,,,,,,,1.9135802388191223,1.0116564000491053,184.93619539984502,None,ScrollUp,정답입니다,184.93619539984502,None,184.93619539984502,None,184.93619539984502,None,184.93619539984502,None,185.85046499990858,None,185.85046499990858,186.35054989997298,,,,,,,,,,,,,,,,033,2022-05-30_20h26.35.321,FishGame,2022.1.1,60.00538842711367,
,30,넌 인기없어,4,Green,B,3,3.3,ScrollUp,ScrollDown,Green.png,1,Negative,Congruent,0,0,0,0,,,,,,,,,,,,,0,29,29,29,,,,,,,,,,,,,,,,,,,,,,,,,,,,,,,,,,,,,,,,,,,,,,,,,,,,,,,,,,,,,,,,,,,,,,,,,,,,,,,,,,,,,1.8287036965290706,0.9806828999426216,186.97131409985013,None,ScrollUp,정답입니다,186.97131409985013,None,186.97131409985013,None,186.97131409985013,None,186.97131409985013,None,187.85046059987508,None,187.85046059987508,188.35270309983753,,,,,,,,,,,,,,,,033,2022-05-30_20h26.35.321,FishGame,2022.1.1,60.00538842711367,
,31,넌 익살스러워,3,Orange,A,4.708333333333334,4.833333333333333,ScrollDown,ScrollUp,Orange.png,1,Neutral,Neutral,0,0,0,0,,,,,,,,,,,,,0,30,30,30,,,,,,,,,,,,,,,,,,,,,,,,,,,,,,,,,,,,,,,,,,,,,,,,,,,,,,,,,,,,,,,,,,,,,,,,,,,,,,,,,,,,,1.1836419651905696,1.0627624997869134,188.97513859998435,None,ScrollDown,정답입니다,188.97513859998435,None,188.97513859998435,None,188.97513859998435,None,188.97513859998435,None,189.93377560004592,None,189.93377560004592,190.4360883999616,,,,,,,,,,,,,,,,033,2022-05-30_20h26.35.321,FishGame,2022.1.1,60.00538842711367,
,32,넌 이기적이야,5,Green,B,2.291666666666667,2.333333333333333,ScrollUp,ScrollDown,Green.png,1,Negative,Congruent,0,0,0,0,,,,,,,,,,,,,0,31,31,31,,,,,,,,,,,,,,,,,,,,,,,,,,,,,,,,,,,,,,,,,,,,,,,,,,,,,,,,,,,,,,,,,,,,,,,,,,,,,,,,,,,,,1.8240740795930226,1.0592012000270188,191.05221779993735,None,ScrollUp,정답입니다,191.05221779993735,None,191.05221779993735,None,191.05221779993735,None,191.05221779993735,None,192.01705589983612,None,192.01705589983612,192.51918819989078,,,,,,,,,,,,,,,,033,2022-05-30_20h26.35.321,FishGame,2022.1.1,60.00538842711367,
,33,나를 데려가줘,6,Green,B,0,0,ScrollDown,ScrollUp,Green.png,1,NonTarget,NonTarget,0,0,0,0,,,,,,,,,,,,,0,32,32,32,,,,,,,,,,,,,,,,,,,,,,,,,,,,,,,,,,,,,,,,,,,,,,,,,,,,,,,,,,,,,,,,,,,,,,,,,,,,,,,,,,,,,1.0740740497907002,1.363025899976492,193.1345404998865,None,ScrollDown,정답입니다,193.1345404998865,None,193.1345404998865,None,193.1345404998865,None,193.1345404998865,None,194.40034829988144,None,194.40034829988144,194.900421399856,,,,,,,,,,,,,,,,033,2022-05-30_20h26.35.321,FishGame,2022.1.1,60.00538842711367,
,34,넌 기회주의자야,5,Orange,A,2.875,2.133333333333333,ScrollDown,ScrollUp,Orange.png,1,Negative,Incongruent,0,0,0,0,,,,,,,,,,,,,0,33,33,33,,,,,,,,,,,,,,,,,,,,,,,,,,,,,,,,,,,,,,,,,,,,,,,,,,,,,,,,,,,,,,,,,,,,,,,,,,,,,,,,,,,,,1.1666666616996129,0.9560305001214147,195.52553329989314,None,ScrollDown,정답입니다,195.52553329989314,None,195.52553329989314,None,195.52553329989314,None,195.52553329989314,None,196.3716891000513,None,196.3716891000513,196.88578559993766,,,,,,,,,,,,,,,,033,2022-05-30_20h26.35.321,FishGame,2022.1.1,60.00538842711367,
,1,넌 미성숙해,4,Orange,A,3,3.2,ScrollDown,ScrollUp,Orange.png,2,Negative,Incongruent,0,0,0,0,,,,,,,,,,,,,,,,,0,0,0,0,,,,,,,,,,,,,,,,,,,,,,,,,,,,,,,,,,,,,,,,229.26842610002495,230.76865209988318,230.80206419993192,231.75195549987257,231.8019493999891,232.7519632000476,232.7519632000476,None,,,,,,,,,,,,,,,,,,,,,,,,,,,,,,,,,,1.300925925374031,1.2073321000207216,233.858353999909,None,ScrollDown,정답입니다,233.858353999909,None,233.858353999909,None,233.858353999909,None,233.858353999909,None,234.9684130998794,None,234.9684130998794,235.4717371999286,197.38358769984916,None,197.38358769984916,None,0.20555556,-0.106481485,1,0,0,0.0160584996920079,None,227.38305369997397,None,,,033,2022-05-30_20h26.35.321,FishGame,2022.1.1,60.00538842711367,
,2,넌 반사회적이야,5,Green,B,2.416666666666667,2.033333333333333,ScrollUp,ScrollDown,Green.png,2,Negative,Congruent,0,0,0,0,,,,,,,,,,,,,,,,,0,1,1,1,,,,,,,,,,,,,,,,,,,,,,,,,,,,,,,,,,,,,,,,,,,,,,,,,,,,,,,,,,,,,,,,,,,,,,,,,,,,,,,,,1.7500000099341075,1.2283213001210243,236.08604480000213,None,ScrollUp,정답입니다,236.08604480000213,None,236.08604480000213,None,236.08604480000213,None,236.08604480000213,None,237.21608449984342,None,237.21608449984342,237.71835980005562,,,,,,,,,,,,,,,,033,2022-05-30_20h26.35.321,FishGame,2022.1.1,60.00538842711367,
,3,넌 유능해,2,Orange,A,6.208333333333333,4.433333333333334,ScrollDown,ScrollUp,Orange.png,2,Positive,Congruent,0,0,0,0,,,,,,,,,,,,,,,,,0,2,2,2,,,,,,,,,,,,,,,,,,,,,,,,,,,,,,,,,,,,,,,,,,,,,,,,,,,,,,,,,,,,,,,,,,,,,,,,,,,,,,,,,1.387345681587855,0.7965029999613762,238.3397125999909,None,ScrollDown,정답입니다,238.3397125999909,None,238.3397125999909,None,238.3397125999909,None,238.3397125999909,None,239.03277459996752,None,239.03277459996752,239.53508899989538,,,,,,,,,,,,,,,,033,2022-05-30_20h26.35.321,FishGame,2022.1.1,60.00538842711367,
,4,넌 능숙해,2,Green,B,5.666666666666667,4.733333333333333,ScrollUp,ScrollDown,Green.png,2,Positive,Incongruent,0,0,0,0,,,,,,,,,,,,,,,,,0,3,3,3,,,,,,,,,,,,,,,,,,,,,,,,,,,,,,,,,,,,,,,,,,,,,,,,,,,,,,,,,,,,,,,,,,,,,,,,,,,,,,,,,1.819444437821706,0.9586620999034494,240.15614490001462,None,ScrollUp,정답입니다,240.15614490001462,None,240.15614490001462,None,240.15614490001462,None,240.15614490001462,None,241.01577469985932,None,241.01577469985932,241.51585139986128,,,,,,,,,,,,,,,,033,2022-05-30_20h26.35.321,FishGame,2022.1.1,60.00538842711367,
,5,넌 진부해,4,Green,B,2.458333333333333,3.166666666666667,ScrollUp,ScrollDown,Green.png,2,Negative,Congruent,0,0,0,0,,,,,,,,,,,,,,,,,0,4,4,4,,,,,,,,,,,,,,,,,,,,,,,,,,,,,,,,,,,,,,,,,,,,,,,,,,,,,,,,,,,,,,,,,,,,,,,,,,,,,,,,,1.8827160596847534,0.863260000012815,242.13692880002782,None,ScrollUp,정답입니다,242.13692880002782,None,242.13692880002782,None,242.13692880002782,None,242.13692880002782,None,242.90167609998025,None,242.90167609998025,243.40166580001824,,,,,,,,,,,,,,,,033,2022-05-30_20h26.35.321,FishGame,2022.1.1,60.00538842711367,
,6,나를 보내줘,6,Orange,A,0,0,ScrollUp,ScrollDown,Orange.png,2,NonTarget,NonTarget,0,0,0,0,,,,,,,,,,,,,,,,,0,5,5,5,,,,,,,,,,,,,,,,,,,,,,,,,,,,,,,,,,,,,,,,,,,,,,,,,,,,,,,,,,,,,,,,,,,,,,,,,,,,,,,,,1.7067901194095612,1.1315313000231981,244.02064109989442,None,ScrollUp,정답입니다,244.02064109989442,None,244.02064109989442,None,244.02064109989442,None,244.02064109989442,None,245.05152889993042,None,245.05152889993042,245.55484199989587,,,,,,,,,,,,,,,,033,2022-05-30_20h26.35.321,FishGame,2022.1.1,60.00538842711367,
,7,넌 엄격해,3,Orange,A,4.166666666666666,4.1,ScrollDown,ScrollUp,Orange.png,2,Neutral,Neutral,0,0,0,0,,,,,,,,,,,,,,,,,0,6,6,6,,,,,,,,,,,,,,,,,,,,,,,,,,,,,,,,,,,,,,,,,,,,,,,,,,,,,,,,,,,,,,,,,,,,,,,,,,,,,,,,,1.214506169160207,0.92903559980914,246.17495390004478,None,ScrollDown,정답입니다,246.17495390004478,None,246.17495390004478,None,246.17495390004478,None,246.17495390004478,None,247.0014622998424,None,247.0014622998424,247.50153929996304,,,,,,,,,,,,,,,,033,2022-05-30_20h26.35.321,FishGame,2022.1.1,60.00538842711367,
,8,나를 보내줘,6,Orange,A,0,0,ScrollUp,ScrollDown,Orange.png,2,NonTarget,NonTarget,0,0,0,0,,,,,,,,,,,,,,,,,0,7,7,7,,,,,,,,,,,,,,,,,,,,,,,,,,,,,,,,,,,,,,,,,,,,,,,,,,,,,,,,,,,,,,,,,,,,,,,,,,,,,,,,,1.7638888855775197,1.3131250999867916,248.1381667999085,None,ScrollUp,정답입니다,248.1381667999085,None,248.1381667999085,None,248.1381667999085,None,248.1381667999085,None,249.35134789999574,None,249.35134789999574,249.85143759986386,,,,,,,,,,,,,,,,033,2022-05-30_20h26.35.321,FishGame,2022.1.1,60.00538842711367,
,9,넌 대담해,3,Green,B,4.875,4.866666666666666,ScrollUp,ScrollDown,Green.png,2,Neutral,Neutral,0,0,0,0,,,,,,,,,,,,,,,,,0,8,8,8,,,,,,,,,,,,,,,,,,,,,,,,,,,,,,,,,,,,,,,,,,,,,,,,,,,,,,,,,,,,,,,,,,,,,,,,,,,,,,,,,1.9799382885297139,1.0934234000742435,250.46986459987238,None,ScrollUp,정답입니다,250.46986459987238,None,250.46986459987238,None,250.46986459987238,None,250.46986459987238,None,251.46804199996404,None,251.46804199996404,251.9681108999066,,,,,,,,,,,,,,,,033,2022-05-30_20h26.35.321,FishGame,2022.1.1,60.00538842711367,
,10,넌 꾸준해,1,Orange,A,5.916666666666668,5.8,ScrollDown,ScrollUp,Orange.png,2,Positive,Congruent,0,0,0,0,,,,,,,,,,,,,,,,,0,9,9,9,,,,,,,,,,,,,,,,,,,,,,,,,,,,,,,,,,,,,,,,,,,,,,,,,,,,,,,,,,,,,,,,,,,,,,,,,,,,,,,,,1.2546296318372092,1.0276252999901772,252.58819789998233,None,ScrollDown,정답입니다,252.58819789998233,None,252.58819789998233,None,252.58819789998233,None,252.58819789998233,None,253.5157780998852,None,253.5157780998852,254.01792829995975,,,,,,,,,,,,,,,,033,2022-05-30_20h26.35.321,FishGame,2022.1.1,60.00538842711367,
,11,나를 데려가줘,6,Green,B,0,0,ScrollDown,ScrollUp,Green.png,2,NonTarget,NonTarget,0,0,0,0,,,,,,,,,,,,,,,,,0,10,10,10,,,,,,,,,,,,,,,,,,,,,,,,,,,,,,,,,,,,,,,,,,,,,,,,,,,,,,,,,,,,,,,,,,,,,,,,,,,,,,,,,1.3086419701576233,1.0797096998430789,254.6347735999152,None,ScrollDown,정답입니다,254.6347735999152,None,254.6347735999152,None,254.6347735999152,None,254.6347735999152,None,255.61577699985355,None,255.61577699985355,256.11577829997987,,,,,,,,,,,,,,,,033,2022-05-30_20h26.35.321,FishGame,2022.1.1,60.00538842711367,
,12,넌 독선적이야,5,Orange,A,2.458333333333333,1.933333333333333,ScrollDown,ScrollUp,Orange.png,2,Negative,Incongruent,0,0,0,0,,,,,,,,,,,,,,,,,0,11,11,11,,,,,,,,,,,,,,,,,,,,,,,,,,,,,,,,,,,,,,,,,,,,,,,,,,,,,,,,,,,,,,,,,,,,,,,,,,,,,,,,,1.325617286066214,0.9438370000571012,256.74039079993963,None,ScrollDown,정답입니다,256.74039079993963,None,256.74039079993963,None,256.74039079993963,None,256.74039079993963,None,257.5824374000076,None,257.5824374000076,258.082426100038,,,,,,,,,,,,,,,,033,2022-05-30_20h26.35.321,FishGame,2022.1.1,60.00538842711367,
,13,나를 보내줘,6,Orange,A,0,0,ScrollUp,ScrollDown,Orange.png,2,NonTarget,NonTarget,0,0,0,0,,,,,,,,,,,,,,,,,0,12,12,12,,,,,,,,,,,,,,,,,,,,,,,,,,,,,,,,,,,,,,,,,,,,,,,,,,,,,,,,,,,,,,,,,,,,,,,,,,,,,,,,,1.8564814726511638,1.0756242999341339,258.7028608999681,None,ScrollUp,정답입니다,258.7028608999681,None,258.7028608999681,None,258.7028608999681,None,258.7028608999681,None,259.6822891999036,None,259.6822891999036,260.18451160006225,,,,,,,,,,,,,,,,033,2022-05-30_20h26.35.321,FishGame,2022.1.1,60.00538842711367,
,14,넌 책임감있어,1,Green,B,6.347826086956522,6,ScrollUp,ScrollDown,Green.png,2,Positive,Incongruent,0,0,0,0,,,,,,,,,,,,,,,,,0,13,13,13,,,,,,,,,,,,,,,,,,,,,,,,,,,,,,,,,,,,,,,,,,,,,,,,,,,,,,,,,,,,,,,,,,,,,,,,,,,,,,,,,1.6728395000100136,0.9449229999445379,260.80490679992363,None,ScrollUp,정답입니다,260.80490679992363,None,260.80490679992363,None,260.80490679992363,None,260.80490679992363,None,261.65115269995295,None,261.65115269995295,262.1512009999715,,,,,,,,,,,,,,,,033,2022-05-30_20h26.35.321,FishGame,2022.1.1,60.00538842711367,
,15,넌 문학적이야,3,Orange,A,4.708333333333334,4.333333333333333,ScrollDown,ScrollUp,Orange.png,2,Neutral,Neutral,0,0,0,0,,,,,,,,,,,,,,,,,0,14,14,14,,,,,,,,,,,,,,,,,,,,,,,,,,,,,,,,,,,,,,,,,,,,,,,,,,,,,,,,,,,,,,,,,,,,,,,,,,,,,,,,,1.2222222139437993,1.7607124999631196,262.7819232000038,None,ScrollDown,정답입니다,262.7819232000038,None,262.7819232000038,None,262.7819232000038,None,262.7819232000038,None,264.43198459991254,None,264.43198459991254,264.93210899992846,,,,,,,,,,,,,,,,033,2022-05-30_20h26.35.321,FishGame,2022.1.1,60.00538842711367,
,16,넌 재미있어,1,Green,B,5.875,5.7,ScrollUp,ScrollDown,Green.png,2,Positive,Incongruent,0,0,0,0,,,,,,,,,,,,,,,,,0,15,15,15,,,,,,,,,,,,,,,,,,,,,,,,,,,,,,,,,,,,,,,,,,,,,,,,,,,,,,,,,,,,,,,,,,,,,,,,,,,,,,,,,1.9320987562338512,1.5447211998980492,265.5528507998679,None,ScrollUp,정답입니다,265.5528507998679,None,265.5528507998679,None,265.5528507998679,None,265.5528507998679,None,267.00119569990784,None,267.00119569990784,267.50118019990623,,,,,,,,,,,,,,,,033,2022-05-30_20h26.35.321,FishGame,2022.1.1,60.00538842711367,
,17,나를 데려가줘,6,Green,B,0,0,ScrollDown,ScrollUp,Green.png,2,NonTarget,NonTarget,0,0,0,0,,,,,,,,,,,,,,,,,0,16,16,16,,,,,,,,,,,,,,,,,,,,,,,,,,,,,,,,,,,,,,,,,,,,,,,,,,,,,,,,,,,,,,,,,,,,,,,,,,,,,,,,,1.192901223897934,1.0445727999322116,268.1190241998993,None,ScrollDown,정답입니다,268.1190241998993,None,268.1190241998993,None,268.1190241998993,None,268.1190241998993,None,269.065503800055,None,269.065503800055,269.5677676999476,,,,,,,,,,,,,,,,033,2022-05-30_20h26.35.321,FishGame,2022.1.1,60.00538842711367,
,18,넌 협력적이야,1,Orange,A,5.625,5.633333333333334,ScrollDown,ScrollUp,Orange.png,2,Positive,Congruent,0,0,0,0,,,,,,,,,,,,,,,,,0,17,17,17,,,,,,,,,,,,,,,,,,,,,,,,,,,,,,,,,,,,,,,,,,,,,,,,,,,,,,,,,,,,,,,,,,,,,,,,,,,,,,,,,1.367283950249354,0.964369400171563,270.1895443999674,None,ScrollDown,정답입니다,270.1895443999674,None,270.1895443999674,None,270.1895443999674,None,270.1895443999674,None,271.0487478999421,None,271.0487478999421,271.5488038000185,,,,,,,,,,,,,,,,033,2022-05-30_20h26.35.321,FishGame,2022.1.1,60.00538842711367,
,19,넌 평범해,3,Green,B,4.333333333333332,4.233333333333333,ScrollUp,ScrollDown,Green.png,2,Neutral,Neutral,0,0,0,0,,,,,,,,,,,,,,,,,0,18,18,18,,,,,,,,,,,,,,,,,,,,,,,,,,,,,,,,,,,,,,,,,,,,,,,,,,,,,,,,,,,,,,,,,,,,,,,,,,,,,,,,,1.5432098750025034,0.9108116999268532,272.17145500006154,None,NoResponse,무응답입니다,272.17145500006154,None,272.17145500006154,None,272.17145500006154,None,272.17145500006154,None,272.9820830000099,None,272.9820830000099,273.4821266999934,,,,,,,,,,,,,,,,033,2022-05-30_20h26.35.321,FishGame,2022.1.1,60.00538842711367,
,20,넌 오만해,5,Orange,A,2.333333333333333,2,ScrollDown,ScrollUp,Orange.png,2,Negative,Incongruent,0,0,0,0,,,,,,,,,,,,,,,,,0,19,19,19,,,,,,,,,,,,,,,,,,,,,,,,,,,,,,,,,,,,,,,,,,,,,,,,,,,,,,,,,,,,,,,,,,,,,,,,,,,,,,,,,1.3487654328346252,0.8088559000752866,274.11123449984007,None,ScrollDown,정답입니다,274.11123449984007,None,274.11123449984007,None,274.11123449984007,None,274.11123449984007,None,274.81538669997826,None,274.81538669997826,275.3208149999846,,,,,,,,,,,,,,,,033,2022-05-30_20h26.35.321,FishGame,2022.1.1,60.00538842711367,
,21,넌 운이없어,4,Green,B,3,3.466666666666667,ScrollUp,ScrollDown,Green.png,2,Negative,Congruent,0,0,0,0,,,,,,,,,,,,,,,,,0,20,20,20,,,,,,,,,,,,,,,,,,,,,,,,,,,,,,,,,,,,,,,,,,,,,,,,,,,,,,,,,,,,,,,,,,,,,,,,,,,,,,,,,1.6805555572112403,1.1107994997873902,275.9373693000525,None,ScrollUp,정답입니다,275.9373693000525,None,275.9373693000525,None,275.9373693000525,None,275.9373693000525,None,276.9487288000528,None,276.9487288000528,277.45088319992647,,,,,,,,,,,,,,,,033,2022-05-30_20h26.35.321,FishGame,2022.1.1,60.00538842711367,
,22,넌 창조적이야,2,Green,B,6.125,4.633333333333334,ScrollUp,ScrollDown,Green.png,2,Positive,Incongruent,0,0,0,0,,,,,,,,,,,,,,,,,0,21,21,21,,,,,,,,,,,,,,,,,,,,,,,,,,,,,,,,,,,,,,,,,,,,,,,,,,,,,,,,,,,,,,,,,,,,,,,,,,,,,,,,,1.6805555572112403,0.8118103998713195,278.07045309990644,None,ScrollUp,정답입니다,278.07045309990644,None,278.07045309990644,None,278.07045309990644,None,278.07045309990644,None,278.78198980004527,None,278.78198980004527,279.28186820005067,,,,,,,,,,,,,,,,033,2022-05-30_20h26.35.321,FishGame,2022.1.1,60.00538842711367,
,23,나를 보내줘,6,Orange,A,0,0,ScrollUp,ScrollDown,Orange.png,2,NonTarget,NonTarget,0,0,0,0,,,,,,,,,,,,,,,,,0,22,22,22,,,,,,,,,,,,,,,,,,,,,,,,,,,,,,,,,,,,,,,,,,,,,,,,,,,,,,,,,,,,,,,,,,,,,,,,,,,,,,,,,1.8271604826052983,1.5254595000296831,279.91252580005676,None,ScrollUp,정답입니다,279.91252580005676,None,279.91252580005676,None,279.91252580005676,None,279.91252580005676,None,281.3316369999666,None,281.3316369999666,281.8317050000187,,,,,,,,,,,,,,,,033,2022-05-30_20h26.35.321,FishGame,2022.1.1,60.00538842711367,
,24,넌 통찰력있어,2,Orange,A,6.5,4.8,ScrollDown,ScrollUp,Orange.png,2,Positive,Congruent,0,0,0,0,,,,,,,,,,,,,,,,,0,23,23,23,,,,,,,,,,,,,,,,,,,,,,,,,,,,,,,,,,,,,,,,,,,,,,,,,,,,,,,,,,,,,,,,,,,,,,,,,,,,,,,,,1.2546296318372092,1.1994934000540525,282.4537670998834,None,ScrollDown,정답입니다,282.4537670998834,None,282.4537670998834,None,282.4537670998834,None,282.4537670998834,None,283.5508761999663,None,283.5508761999663,284.0508461999707,,,,,,,,,,,,,,,,033,2022-05-30_20h26.35.321,FishGame,2022.1.1,60.00538842711367,
,25,넌 경솔해,5,Green,B,2.458333333333333,2.266666666666667,ScrollUp,ScrollDown,Green.png,2,Negative,Congruent,0,0,0,0,,,,,,,,,,,,,,,,,0,24,24,24,,,,,,,,,,,,,,,,,,,,,,,,,,,,,,,,,,,,,,,,,,,,,,,,,,,,,,,,,,,,,,,,,,,,,,,,,,,,,,,,,1.4598765435318153,0.8896700998302549,284.666827699868,None,NoResponse,무응답입니다,284.666827699868,None,284.666827699868,None,284.666827699868,None,284.666827699868,None,285.4606556999497,None,285.4606556999497,285.9673029000405,,,,,,,,,,,,,,,,033,2022-05-30_20h26.35.321,FishGame,2022.1.1,60.00538842711367,
,26,넌 초조해,4,Orange,A,2.916666666666667,3.133333333333333,ScrollDown,ScrollUp,Orange.png,2,Negative,Incongruent,0,0,0,0,,,,,,,,,,,,,,,,,0,25,25,25,,,,,,,,,,,,,,,,,,,,,,,,,,,,,,,,,,,,,,,,,,,,,,,,,,,,,,,,,,,,,,,,,,,,,,,,,,,,,,,,,1.200617293516795,1.244664000114426,286.5894460999407,None,ScrollDown,정답입니다,286.5894460999407,None,286.5894460999407,None,286.5894460999407,None,286.5894460999407,None,287.7339003998786,None,287.7339003998786,288.23403900000267,,,,,,,,,,,,,,,,033,2022-05-30_20h26.35.321,FishGame,2022.1.1,60.00538842711367,
,27,넌 무관심해,4,Green,B,2.833333333333333,2.9,ScrollUp,ScrollDown,Green.png,2,Negative,Congruent,0,0,0,0,,,,,,,,,,,,,,,,,0,26,26,26,,,,,,,,,,,,,,,,,,,,,,,,,,,,,,,,,,,,,,,,,,,,,,,,,,,,,,,,,,,,,,,,,,,,,,,,,,,,,,,,,1.8101851791143417,1.3588664999697357,288.8576302998699,None,ScrollUp,정답입니다,288.8576302998699,None,288.8576302998699,None,288.8576302998699,None,288.8576302998699,None,290.11507739988156,None,290.11507739988156,290.61726780002937,,,,,,,,,,,,,,,,033,2022-05-30_20h26.35.321,FishGame,2022.1.1,60.00538842711367,
,28,넌 감성적이야,3,Green,B,4.125,4.166666666666667,ScrollUp,ScrollDown,Green.png,2,Neutral,Neutral,0,0,0,0,,,,,,,,,,,,,,,,,0,27,27,27,,,,,,,,,,,,,,,,,,,,,,,,,,,,,,,,,,,,,,,,,,,,,,,,,,,,,,,,,,,,,,,,,,,,,,,,,,,,,,,,,1.9336419701576233,0.778942700009793,291.2393817000557,None,ScrollUp,정답입니다,291.2393817000557,None,291.2393817000557,None,291.2393817000557,None,291.2393817000557,None,291.9149996000342,None,291.9149996000342,292.41505900002085,,,,,,,,,,,,,,,,033,2022-05-30_20h26.35.321,FishGame,2022.1.1,60.00538842711367,
,29,넌 배려심있어,1,Orange,A,6.083333333333333,5.5,ScrollDown,ScrollUp,Orange.png,2,Positive,Congruent,0,0,0,0,,,,,,,,,,,,,,,,,0,28,28,28,,,,,,,,,,,,,,,,,,,,,,,,,,,,,,,,,,,,,,,,,,,,,,,,,,,,,,,,,,,,,,,,,,,,,,,,,,,,,,,,,1.2685185074806213,0.7612907001748681,293.039680799935,None,ScrollDown,정답입니다,293.039680799935,None,293.039680799935,None,293.039680799935,None,293.039680799935,None,293.69833220005967,None,293.69833220005967,294.1984140998684,,,,,,,,,,,,,,,,033,2022-05-30_20h26.35.321,FishGame,2022.1.1,60.00538842711367,
,30,넌 숨김없어,3,Orange,A,4.5,4.933333333333334,ScrollDown,ScrollUp,Orange.png,2,Neutral,Neutral,0,0,0,0,,,,,,,,,,,,,,,,,0,29,29,29,,,,,,,,,,,,,,,,,,,,,,,,,,,,,,,,,,,,,,,,,,,,,,,,,,,,,,,,,,,,,,,,,,,,,,,,,,,,,,,,,1.1141975373029709,0.8779416000470519,294.82323940005153,None,ScrollDown,정답입니다,294.82323940005153,None,294.82323940005153,None,294.82323940005153,None,294.82323940005153,None,295.6005573000293,None,295.6005573000293,296.103674700018,,,,,,,,,,,,,,,,033,2022-05-30_20h26.35.321,FishGame,2022.1.1,60.00538842711367,
,31,넌 훌륭해,2,Green,B,5.916666666666667,4.033333333333333,ScrollUp,ScrollDown,Green.png,2,Positive,Incongruent,0,0,0,0,,,,,,,,,,,,,,,,,0,30,30,30,,,,,,,,,,,,,,,,,,,,,,,,,,,,,,,,,,,,,,,,,,,,,,,,,,,,,,,,,,,,,,,,,,,,,,,,,,,,,,,,,1.9753086467583973,1.144596999976784,296.7235638999846,None,ScrollUp,정답입니다,296.7235638999846,None,296.7235638999846,None,296.7235638999846,None,296.7235638999846,None,297.7648648999166,None,297.7648648999166,298.2670603999868,,,,,,,,,,,,,,,,033,2022-05-30_20h26.35.321,FishGame,2022.1.1,60.00538842711367,
,32,넌 슬기로워,2,Orange,A,6.166666666666667,4.1,ScrollDown,ScrollUp,Orange.png,2,Positive,Congruent,0,0,0,0,,,,,,,,,,,,,,,,,0,31,31,31,,,,,,,,,,,,,,,,,,,,,,,,,,,,,,,,,,,,,,,,,,,,,,,,,,,,,,,,,,,,,,,,,,,,,,,,,,,,,,,,,1.1836419651905696,1.311343900160864,298.88923239987344,None,ScrollDown,정답입니다,298.88923239987344,None,298.88923239987344,None,298.88923239987344,None,298.88923239987344,None,300.1003777999431,None,300.1003777999431,300.6004445999861,,,,,,,,,,,,,,,,033,2022-05-30_20h26.35.321,FishGame,2022.1.1,60.00538842711367,
,33,넌 냉혹해,5,Orange,A,2.583333333333333,2.1,ScrollDown,ScrollUp,Orange.png,2,Negative,Incongruent,0,0,0,0,,,,,,,,,,,,,,,,,0,32,32,32,,,,,,,,,,,,,,,,,,,,,,,,,,,,,,,,,,,,,,,,,,,,,,,,,,,,,,,,,,,,,,,,,,,,,,,,,,,,,,,,,1.1975308656692505,0.994084200123325,301.2303144999314,None,ScrollDown,정답입니다,301.2303144999314,None,301.2303144999314,None,301.2303144999314,None,301.2303144999314,None,302.114781399956,None,302.114781399956,302.61482569994405,,,,,,,,,,,,,,,,033,2022-05-30_20h26.35.321,FishGame,2022.1.1,60.00538842711367,
,34,나를 데려가줘,6,Green,B,0,0,ScrollDown,ScrollUp,Green.png,2,NonTarget,NonTarget,0,0,0,0,,,,,,,,,,,,,,,,,0,33,33,33,,,,,,,,,,,,,,,,,,,,,,,,,,,,,,,,,,,,,,,,,,,,,,,,,,,,,,,,,,,,,,,,,,,,,,,,,,,,,,,,,1.0987654229005177,1.26085520000197,303.238692099927,None,ScrollDown,정답입니다,303.238692099927,None,303.238692099927,None,303.238692099927,None,303.238692099927,None,304.4002616999205,None,304.4002616999205,304.91698649991304,,,,,,,,,,,,,,,,033,2022-05-30_20h26.35.321,FishGame,2022.1.1,60.00538842711367,
,35,넌 편파적이야,5,Green,B,2.125,2,ScrollUp,ScrollDown,Green.png,2,Negative,Congruent,0,0,0,0,,,,,,,,,,,,,,,,,0,34,34,34,,,,,,,,,,,,,,,,,,,,,,,,,,,,,,,,,,,,,,,,,,,,,,,,,,,,,,,,,,,,,,,,,,,,,,,,,,,,,,,,,1.8888888905445735,0.8781975999008864,305.52511729998514,None,ScrollUp,정답입니다,305.52511729998514,None,305.52511729998514,None,305.52511729998514,None,305.52511729998514,None,306.30026779999025,None,306.30026779999025,306.8168975999579,,,,,,,,,,,,,,,,033,2022-05-30_20h26.35.321,FishGame,2022.1.1,60.00538842711367,
,36,넌 슬퍼,4,Orange,A,2.583333333333333,3.066666666666667,ScrollDown,ScrollUp,Orange.png,2,Negative,Incongruent,0,0,0,0,,,,,,,,,,,,,,,,,0,35,35,35,,,,,,,,,,,,,,,,,,,,,,,,,,,,,,,,,,,,,,,,,,,,,,,,,,,,,,,,,,,,,,,,,,,,,,,,,,,,,,,,,1.192901223897934,1.2922489000484347,307.4206407999154,None,ScrollDown,정답입니다,307.4206407999154,None,307.4206407999154,None,307.4206407999154,None,307.4206407999154,None,308.614679899998,None,308.614679899998,309.1146606998518,,,,,,,,,,,,,,,,033,2022-05-30_20h26.35.321,FishGame,2022.1.1,60.00538842711367,
,37,나를 데려가줘,6,Green,B,0,0,ScrollDown,ScrollUp,Green.png,2,NonTarget,NonTarget,0,0,0,0,,,,,,,,,,,,,,,,,0,36,36,36,,,,,,,,,,,,,,,,,,,,,,,,,,,,,,,,,,,,,,,,,,,,,,,,,,,,,,,,,,,,,,,,,,,,,,,,,,,,,,,,,1.1697530895471573,1.0955708001274616,309.73304139985703,None,ScrollDown,정답입니다,309.73304139985703,None,309.73304139985703,None,309.73304139985703,None,309.73304139985703,None,310.7313126998488,None,310.7313126998488,311.23355209990405,,,,,,,,,,,,,,,,033,2022-05-30_20h26.35.321,FishGame,2022.1.1,60.00538842711367,
,38,넌 친절해,1,Green,B,6.041666666666667,5.533333333333333,ScrollUp,ScrollDown,Green.png,2,Positive,Incongruent,0,0,0,0,,,,,,,,,,,,,,,,,0,37,37,37,,,,,,,,,,,,,,,,,,,,,,,,,,,,,,,,,,,,,,,,,,,,,,,,,,,,,,,,,,,,,,,,,,,,,,,,,,,,,,,,,1.8317901243766148,0.945035699987784,311.86221619998105,None,ScrollUp,정답입니다,311.86221619998105,None,311.86221619998105,None,311.86221619998105,None,311.86221619998105,None,312.6979298000224,None,312.6979298000224,313.2001179999206,,,,,,,,,,,,,,,,033,2022-05-30_20h26.35.321,FishGame,2022.1.1,60.00538842711367,
,1,넌 엉성해,4,Orange,A,3,3.3,ScrollDown,ScrollUp,Orange.png,3,Negative,Incongruent,0,0,0,0,,,,,,,,,,,,,,,,,,,,,0,0,0,0,,,,,,,,,,,,,,,,,,,,,,,,,,,,,,,,,,,,346.6138990998734,348.116233299952,348.14955900004134,349.09951329999603,349.1495232998859,350.1026651998982,350.08602100005373,None,,,,,,,,,,,,,,,,,,,,,,,,,,,,,,,,,,1.2499999900658925,1.0875574999954551,351.1938997998368,None,ScrollDown,정답입니다,351.1938997998368,None,351.1938997998368,None,351.1938997998368,None,351.1938997998368,None,352.1826233000029,None,352.1826233000029,352.6858486998826,313.7001012999099,None,313.7001012999099,None,0.27314815,-0.09351852,1,0,0,0.01607659994624555,None,343.69958520005457,None,,,033,2022-05-30_20h26.35.321,FishGame,2022.1.1,60.00538842711367,
,2,나를 보내줘,6,Orange,A,0,0,ScrollUp,ScrollDown,Orange.png,3,NonTarget,NonTarget,0,0,0,0,,,,,,,,,,,,,,,,,,,,,0,1,1,1,,,,,,,,,,,,,,,,,,,,,,,,,,,,,,,,,,,,,,,,,,,,,,,,,,,,,,,,,,,,,,,,,,,,,,,,,,,,,1.787037044763565,1.077357499860227,353.3077946000267,None,ScrollUp,정답입니다,353.3077946000267,None,353.3077946000267,None,353.3077946000267,None,353.3077946000267,None,354.2825900998432,None,354.2825900998432,354.78258119989187,,,,,,,,,,,,,,,,033,2022-05-30_20h26.35.321,FishGame,2022.1.1,60.00538842711367,
,3,넌 활발해,1,Green,B,5.666666666666667,5.6,ScrollUp,ScrollDown,Green.png,3,Positive,Incongruent,0,0,0,0,,,,,,,,,,,,,,,,,,,,,0,2,2,2,,,,,,,,,,,,,,,,,,,,,,,,,,,,,,,,,,,,,,,,,,,,,,,,,,,,,,,,,,,,,,,,,,,,,,,,,,,,,1.663580241302649,1.1759446000214666,355.40954909985885,None,ScrollUp,정답입니다,355.40954909985885,None,355.40954909985885,None,355.40954909985885,None,355.40954909985885,None,356.48037909995764,None,356.48037909995764,356.9826227000449,,,,,,,,,,,,,,,,033,2022-05-30_20h26.35.321,FishGame,2022.1.1,60.00538842711367,
,4,넌 논리적이야,2,Orange,A,5.666666666666666,4.633333333333334,ScrollDown,ScrollUp,Orange.png,3,Positive,Congruent,0,0,0,0,,,,,,,,,,,,,,,,,,,,,0,3,3,3,,,,,,,,,,,,,,,,,,,,,,,,,,,,,,,,,,,,,,,,,,,,,,,,,,,,,,,,,,,,,,,,,,,,,,,,,,,,,1.3611111069718995,0.7766948000062257,357.6073843999766,None,ScrollDown,정답입니다,357.6073843999766,None,357.6073843999766,None,357.6073843999766,None,357.6073843999766,None,358.2800608999096,None,358.2800608999096,358.7800978999585,,,,,,,,,,,,,,,,033,2022-05-30_20h26.35.321,FishGame,2022.1.1,60.00538842711367,
,5,넌 과묵해,3,Orange,A,3.875,4.4,ScrollDown,ScrollUp,Orange.png,3,Neutral,Neutral,0,0,0,0,,,,,,,,,,,,,,,,,,,,,0,4,4,4,,,,,,,,,,,,,,,,,,,,,,,,,,,,,,,,,,,,,,,,,,,,,,,,,,,,,,,,,,,,,,,,,,,,,,,,,,,,,1.3395061741272607,0.8451668999623507,359.3988236000296,None,ScrollDown,정답입니다,359.3988236000296,None,359.3988236000296,None,359.3988236000296,None,359.3988236000296,None,360.14674029988237,None,360.14674029988237,360.649273699848,,,,,,,,,,,,,,,,033,2022-05-30_20h26.35.321,FishGame,2022.1.1,60.00538842711367,
,6,나를 데려가줘,6,Green,B,0,0,ScrollDown,ScrollUp,Green.png,3,NonTarget,NonTarget,0,0,0,0,,,,,,,,,,,,,,,,,,,,,0,5,5,5,,,,,,,,,,,,,,,,,,,,,,,,,,,,,,,,,,,,,,,,,,,,,,,,,,,,,,,,,,,,,,,,,,,,,,,,,,,,,1.2253086417913437,1.4819251999724656,361.2624351999257,None,ScrollDown,정답입니다,361.2624351999257,None,361.2624351999257,None,361.2624351999257,None,361.2624351999257,None,362.6492268999573,None,362.6492268999573,363.1490638998803,,,,,,,,,,,,,,,,033,2022-05-30_20h26.35.321,FishGame,2022.1.1,60.00538842711367,
,7,넌 미숙해,4,Green,B,3,3,ScrollUp,ScrollDown,Green.png,3,Negative,Congruent,0,0,0,0,,,,,,,,,,,,,,,,,,,,,0,6,6,6,,,,,,,,,,,,,,,,,,,,,,,,,,,,,,,,,,,,,,,,,,,,,,,,,,,,,,,,,,,,,,,,,,,,,,,,,,,,,1.799382706483205,0.9134383001364768,363.76338590006344,None,ScrollUp,정답입니다,363.76338590006344,None,363.76338590006344,None,363.76338590006344,None,363.76338590006344,None,364.58019290002994,None,364.58019290002994,365.0824515998829,,,,,,,,,,,,,,,,033,2022-05-30_20h26.35.321,FishGame,2022.1.1,60.00538842711367,
,8,나를 보내줘,6,Orange,A,0,0,ScrollUp,ScrollDown,Orange.png,3,NonTarget,NonTarget,0,0,0,0,,,,,,,,,,,,,,,,,,,,,0,7,7,7,,,,,,,,,,,,,,,,,,,,,,,,,,,,,,,,,,,,,,,,,,,,,,,,,,,,,,,,,,,,,,,,,,,,,,,,,,,,,1.2098765522241592,1.1940419001039118,365.70531779993325,None,ScrollDown,오답입니다,365.70531779993325,None,365.70531779993325,None,365.70531779993325,None,365.70531779993325,None,366.7989048999734,None,366.7989048999734,367.31563199986704,,,,,,,,,,,,,,,,033,2022-05-30_20h26.35.321,FishGame,2022.1.1,60.00538842711367,
,9,넌 자신만만해,3,Green,B,4.833333333333334,4.333333333333333,ScrollUp,ScrollDown,Green.png,3,Neutral,Neutral,0,0,0,0,,,,,,,,,,,,,,,,,,,,,0,8,8,8,,,,,,,,,,,,,,,,,,,,,,,,,,,,,,,,,,,,,,,,,,,,,,,,,,,,,,,,,,,,,,,,,,,,,,,,,,,,,1.67746914178133,1.109391300007701,367.916141099995,None,ScrollUp,정답입니다,367.916141099995,None,367.916141099995,None,367.916141099995,None,367.916141099995,None,368.9302669998724,None,368.9302669998724,369.43242600001395,,,,,,,,,,,,,,,,033,2022-05-30_20h26.35.321,FishGame,2022.1.1,60.00538842711367,
,10,넌 탐욕스러워,5,Orange,A,2.25,2.1,ScrollDown,ScrollUp,Orange.png,3,Negative,Incongruent,0,0,0,0,,,,,,,,,,,,,,,,,,,,,0,9,9,9,,,,,,,,,,,,,,,,,,,,,,,,,,,,,,,,,,,,,,,,,,,,,,,,,,,,,,,,,,,,,,,,,,,,,,,,,,,,,1.3348765447735786,1.4770220001228154,370.05395879992284,None,ScrollDown,정답입니다,370.05395879992284,None,370.05395879992284,None,370.05395879992284,None,370.05395879992284,None,371.4300458000507,None,371.4300458000507,371.93218169989996,,,,,,,,,,,,,,,,033,2022-05-30_20h26.35.321,FishGame,2022.1.1,60.00538842711367,
,11,넌 인기있어,2,Orange,A,5.458333333333333,4.5,ScrollDown,ScrollUp,Orange.png,3,Positive,Congruent,0,0,0,0,,,,,,,,,,,,,,,,,,,,,0,10,10,10,,,,,,,,,,,,,,,,,,,,,,,,,,,,,,,,,,,,,,,,,,,,,,,,,,,,,,,,,,,,,,,,,,,,,,,,,,,,,1.32253085821867,1.310719900066033,372.5521283999551,None,ScrollDown,정답입니다,372.5521283999551,None,372.5521283999551,None,372.5521283999551,None,372.5521283999551,None,373.76336099999025,None,373.76336099999025,374.26553540001623,,,,,,,,,,,,,,,,033,2022-05-30_20h26.35.321,FishGame,2022.1.1,60.00538842711367,
,12,나를 데려가줘,6,Green,B,0,0,ScrollDown,ScrollUp,Green.png,3,NonTarget,NonTarget,0,0,0,0,,,,,,,,,,,,,,,,,,,,,0,11,11,11,,,,,,,,,,,,,,,,,,,,,,,,,,,,,,,,,,,,,,,,,,,,,,,,,,,,,,,,,,,,,,,,,,,,,,,,,,,,,1,1.1787812002003193,374.88412539986894,None,ScrollDown,정답입니다,374.88412539986894,None,374.88412539986894,None,374.88412539986894,None,374.88412539986894,None,375.96308839996345,None,375.96308839996345,376.4630781998858,,,,,,,,,,,,,,,,033,2022-05-30_20h26.35.321,FishGame,2022.1.1,60.00538842711367,
,13,넌 뛰어나,2,Green,B,6.166666666666667,4,ScrollUp,ScrollDown,Green.png,3,Positive,Incongruent,0,0,0,0,,,,,,,,,,,,,,,,,,,,,0,12,12,12,,,,,,,,,,,,,,,,,,,,,,,,,,,,,,,,,,,,,,,,,,,,,,,,,,,,,,,,,,,,,,,,,,,,,,,,,,,,,1.825617293516795,1.0450055000837892,377.0814743998926,None,ScrollUp,정답입니다,377.0814743998926,None,377.0814743998926,None,377.0814743998926,None,377.0814743998926,None,378.0323534999043,None,378.0323534999043,378.532295800047,,,,,,,,,,,,,,,,033,2022-05-30_20h26.35.321,FishGame,2022.1.1,60.00538842711367,
,14,넌 낙관적이야,1,Orange,A,5.75,5.8,ScrollDown,ScrollUp,Orange.png,3,Positive,Congruent,0,0,0,0,,,,,,,,,,,,,,,,,,,,,0,13,13,13,,,,,,,,,,,,,,,,,,,,,,,,,,,,,,,,,,,,,,,,,,,,,,,,,,,,,,,,,,,,,,,,,,,,,,,,,,,,,1.1728395173947017,0.8310979001689702,379.1508440999314,None,ScrollDown,정답입니다,379.1508440999314,None,379.1508440999314,None,379.1508440999314,None,379.1508440999314,None,379.8822842000518,None,379.8822842000518,380.38526479993016,,,,,,,,,,,,,,,,033,2022-05-30_20h26.35.321,FishGame,2022.1.1,60.00538842711367,
,15,넌 산만해,4,Green,B,2.695652173913043,3.033333333333333,ScrollUp,ScrollDown,Green.png,3,Negative,Congruent,0,0,0,0,,,,,,,,,,,,,,,,,,,,,0,14,14,14,,,,,,,,,,,,,,,,,,,,,,,,,,,,,,,,,,,,,,,,,,,,,,,,,,,,,,,,,,,,,,,,,,,,,,,,,,,,,1.7716049303611119,0.9309272000100464,380.9997312000487,None,ScrollUp,정답입니다,380.9997312000487,None,380.9997312000487,None,380.9997312000487,None,380.9997312000487,None,381.82987280003726,None,381.82987280003726,382.3320780999493,,,,,,,,,,,,,,,,033,2022-05-30_20h26.35.321,FishGame,2022.1.1,60.00538842711367,
,16,나를 보내줘,6,Orange,A,0,0,ScrollUp,ScrollDown,Orange.png,3,NonTarget,NonTarget,0,0,0,0,,,,,,,,,,,,,,,,,,,,,0,15,15,15,,,,,,,,,,,,,,,,,,,,,,,,,,,,,,,,,,,,,,,,,,,,,,,,,,,,,,,,,,,,,,,,,,,,,,,,,,,,,1.9629629850387573,2.027043000096455,382.9501364000607,None,ScrollUp,정답입니다,382.9501364000607,None,382.9501364000607,None,382.9501364000607,None,382.9501364000607,None,384.87981349998154,None,384.87981349998154,385.3798249999527,,,,,,,,,,,,,,,,033,2022-05-30_20h26.35.321,FishGame,2022.1.1,60.00538842711367,
,17,넌 교활해,5,Green,B,2.333333333333333,2.133333333333333,ScrollUp,ScrollDown,Green.png,3,Negative,Congruent,0,0,0,0,,,,,,,,,,,,,,,,,,,,,0,16,16,16,,,,,,,,,,,,,,,,,,,,,,,,,,,,,,,,,,,,,,,,,,,,,,,,,,,,,,,,,,,,,,,,,,,,,,,,,,,,,1.8564814726511638,1.0966181999538094,386.00352449994534,None,ScrollUp,정답입니다,386.00352449994534,None,386.00352449994534,None,386.00352449994534,None,386.00352449994534,None,386.99857189995237,None,386.99857189995237,387.4986482998356,,,,,,,,,,,,,,,,033,2022-05-30_20h26.35.321,FishGame,2022.1.1,60.00538842711367,
,18,나를 보내줘,6,Orange,A,0,0,ScrollUp,ScrollDown,Orange.png,3,NonTarget,NonTarget,0,0,0,0,,,,,,,,,,,,,,,,,,,,,0,17,17,17,,,,,,,,,,,,,,,,,,,,,,,,,,,,,,,,,,,,,,,,,,,,,,,,,,,,,,,,,,,,,,,,,,,,,,,,,,,,,1.7638888855775197,1.227887799963355,388.1244190998841,None,ScrollUp,정답입니다,388.1244190998841,None,388.1244190998841,None,388.1244190998841,None,388.1244190998841,None,389.24860009993427,None,389.24860009993427,389.7630721000023,,,,,,,,,,,,,,,,033,2022-05-30_20h26.35.321,FishGame,2022.1.1,60.00538842711367,
,19,넌 불친절해,5,Green,B,2.208333333333333,2.033333333333333,ScrollUp,ScrollDown,Green.png,3,Negative,Congruent,0,0,0,0,,,,,,,,,,,,,,,,,,,,,0,18,18,18,,,,,,,,,,,,,,,,,,,,,,,,,,,,,,,,,,,,,,,,,,,,,,,,,,,,,,,,,,,,,,,,,,,,,,,,,,,,,1.6111111169060073,1.0795020998921245,390.3860632998403,None,ScrollUp,정답입니다,390.3860632998403,None,390.3860632998403,None,390.3860632998403,None,390.3860632998403,None,391.3652102998458,None,391.3652102998458,391.8684384999797,,,,,,,,,,,,,,,,033,2022-05-30_20h26.35.321,FishGame,2022.1.1,60.00538842711367,
,20,넌 지적이야,2,Green,B,5.75,4.366666666666666,ScrollUp,ScrollDown,Green.png,3,Positive,Incongruent,0,0,0,0,,,,,,,,,,,,,,,,,,,,,0,19,19,19,,,,,,,,,,,,,,,,,,,,,,,,,,,,,,,,,,,,,,,,,,,,,,,,,,,,,,,,,,,,,,,,,,,,,,,,,,,,,1.6219135771195092,1.0798772000707686,392.4984238999896,None,ScrollUp,정답입니다,392.4984238999896,None,392.4984238999896,None,392.4984238999896,None,392.4984238999896,None,393.481713199988,None,393.481713199988,393.97965519991703,,,,,,,,,,,,,,,,033,2022-05-30_20h26.35.321,FishGame,2022.1.1,60.00538842711367,
,21,넌 우유부단해,4,Orange,A,2.666666666666667,3.166666666666667,ScrollDown,ScrollUp,Orange.png,3,Negative,Incongruent,0,0,0,0,,,,,,,,,,,,,,,,,,,,,0,20,20,20,,,,,,,,,,,,,,,,,,,,,,,,,,,,,,,,,,,,,,,,,,,,,,,,,,,,,,,,,,,,,,,,,,,,,,,,,,,,,1.3194444427887597,0.9089379000943154,394.6059971000068,None,ScrollDown,정답입니다,394.6059971000068,None,394.6059971000068,None,394.6059971000068,None,394.6059971000068,None,395.4129834000487,None,395.4129834000487,395.91522329999134,,,,,,,,,,,,,,,,033,2022-05-30_20h26.35.321,FishGame,2022.1.1,60.00538842711367,
,22,나를 데려가줘,6,Green,B,0,0,ScrollDown,ScrollUp,Green.png,3,NonTarget,NonTarget,0,0,0,0,,,,,,,,,,,,,,,,,,,,,0,21,21,21,,,,,,,,,,,,,,,,,,,,,,,,,,,,,,,,,,,,,,,,,,,,,,,,,,,,,,,,,,,,,,,,,,,,,,,,,,,,,1.2638888905445733,1.06214279984124,396.54487619991414,None,ScrollDown,정답입니다,396.54487619991414,None,396.54487619991414,None,396.54487619991414,None,396.54487619991414,None,397.4959309999831,None,397.4959309999831,397.99598619993776,,,,,,,,,,,,,,,,033,2022-05-30_20h26.35.321,FishGame,2022.1.1,60.00538842711367,
,23,넌 성실해,1,Green,B,6.041666666666666,5.7,ScrollUp,ScrollDown,Green.png,3,Positive,Incongruent,0,0,0,0,,,,,,,,,,,,,,,,,,,,,0,22,22,22,,,,,,,,,,,,,,,,,,,,,,,,,,,,,,,,,,,,,,,,,,,,,,,,,,,,,,,,,,,,,,,,,,,,,,,,,,,,,1.7145061641931534,0.8637118001934141,398.6164275999181,None,ScrollUp,정답입니다,398.6164275999181,None,398.6164275999181,None,398.6164275999181,None,398.6164275999181,None,399.3817300000228,None,399.3817300000228,399.8818804998882,,,,,,,,,,,,,,,,033,2022-05-30_20h26.35.321,FishGame,2022.1.1,60.00538842711367,
,24,넌 현실주의적이야,3,Orange,A,4.625,4.4,ScrollDown,ScrollUp,Orange.png,3,Neutral,Neutral,0,0,0,0,,,,,,,,,,,,,,,,,,,,,0,23,23,23,,,,,,,,,,,,,,,,,,,,,,,,,,,,,,,,,,,,,,,,,,,,,,,,,,,,,,,,,,,,,,,,,,,,,,,,,,,,,1.2716049353281655,1.1120229000225663,400.5011068000458,None,ScrollDown,정답입니다,400.5011068000458,None,400.5011068000458,None,400.5011068000458,None,400.5011068000458,None,401.51506599993445,None,401.51506599993445,402.0150068998337,,,,,,,,,,,,,,,,033,2022-05-30_20h26.35.321,FishGame,2022.1.1,60.00538842711367,
,25,넌 진실돼,1,Orange,A,6.625,5.566666666666666,ScrollDown,ScrollUp,Orange.png,3,Positive,Congruent,0,0,0,0,,,,,,,,,,,,,,,,,,,,,0,24,24,24,,,,,,,,,,,,,,,,,,,,,,,,,,,,,,,,,,,,,,,,,,,,,,,,,,,,,,,,,,,,,,,,,,,,,,,,,,,,,1.3580246915419898,0.8442816999740899,402.6379104000516,None,ScrollDown,정답입니다,402.6379104000516,None,402.6379104000516,None,402.6379104000516,None,402.6379104000516,None,403.37939629983157,None,403.37939629983157,403.88172339997254,,,,,,,,,,,,,,,,033,2022-05-30_20h26.35.321,FishGame,2022.1.1,60.00538842711367,
,26,넌 천진난만해,3,Green,B,4.958333333333334,4.833333333333333,ScrollUp,ScrollDown,Green.png,3,Neutral,Neutral,0,0,0,0,,,,,,,,,,,,,,,,,,,,,0,25,25,25,,,,,,,,,,,,,,,,,,,,,,,,,,,,,,,,,,,,,,,,,,,,,,,,,,,,,,,,,,,,,,,,,,,,,,,,,,,,,1.604938273628553,0.9271511000115424,404.5023439999204,None,ScrollUp,정답입니다,404.5023439999204,None,404.5023439999204,None,404.5023439999204,None,404.5023439999204,None,405.3290721999947,None,405.3290721999947,405.8291698999237,,,,,,,,,,,,,,,,033,2022-05-30_20h26.35.321,FishGame,2022.1.1,60.00538842711367,
,27,넌 교양없어,5,Orange,A,2.416666666666667,2.2,ScrollDown,ScrollUp,Orange.png,3,Negative,Incongruent,0,0,0,0,,,,,,,,,,,,,,,,,,,,,0,26,26,26,,,,,,,,,,,,,,,,,,,,,,,,,,,,,,,,,,,,,,,,,,,,,,,,,,,,,,,,,,,,,,,,,,,,,,,,,,,,,1.3240740721424422,0.8968430000822991,406.4577530999668,None,ScrollDown,정답입니다,406.4577530999668,None,406.4577530999668,None,406.4577530999668,None,406.4577530999668,None,407.24610879994,None,407.24610879994,407.7483568000607,,,,,,,,,,,,,,,,033,2022-05-30_20h26.35.321,FishGame,2022.1.1,60.00538842711367,
,28,나를 보내줘,6,Orange,A,0,0,ScrollUp,ScrollDown,Orange.png,3,NonTarget,NonTarget,0,0,0,0,,,,,,,,,,,,,,,,,,,,,0,27,27,27,,,,,,,,,,,,,,,,,,,,,,,,,,,,,,,,,,,,,,,,,,,,,,,,,,,,,,,,,,,,,,,,,,,,,,,,,,,,,1.3595679054657617,1.2190602000337094,408.3703538000118,None,ScrollDown,오답입니다,408.3703538000118,None,408.3703538000118,None,408.3703538000118,None,408.3703538000118,None,409.4912047998514,None,409.4912047998514,409.99600299983285,,,,,,,,,,,,,,,,033,2022-05-30_20h26.35.321,FishGame,2022.1.1,60.00538842711367,
,29,넌 엉뚱스러워,3,Orange,A,4.166666666666667,4.133333333333334,ScrollDown,ScrollUp,Orange.png,3,Neutral,Neutral,0,0,0,0,,,,,,,,,,,,,,,,,,,,,0,28,28,28,,,,,,,,,,,,,,,,,,,,,,,,,,,,,,,,,,,,,,,,,,,,,,,,,,,,,,,,,,,,,,,,,,,,,,,,,,,,,1.141975313425064,1.1777995999436826,410.6303762998432,None,ScrollDown,정답입니다,410.6303762998432,None,410.6303762998432,None,410.6303762998432,None,410.6303762998432,None,411.69811280001886,None,411.69811280001886,412.19821859989315,,,,,,,,,,,,,,,,033,2022-05-30_20h26.35.321,FishGame,2022.1.1,60.00538842711367,
,30,넌 무지해,4,Green,B,2.541666666666667,3.066666666666667,ScrollUp,ScrollDown,Green.png,3,Negative,Congruent,0,0,0,0,,,,,,,,,,,,,,,,,,,,,0,29,29,29,,,,,,,,,,,,,,,,,,,,,,,,,,,,,,,,,,,,,,,,,,,,,,,,,,,,,,,,,,,,,,,,,,,,,,,,,,,,,1.7422839403152466,0.8789534999523312,412.817163300002,None,ScrollUp,정답입니다,412.817163300002,None,412.817163300002,None,412.817163300002,None,412.817163300002,None,413.59580209990963,None,413.59580209990963,414.0980129998643,,,,,,,,,,,,,,,,033,2022-05-30_20h26.35.321,FishGame,2022.1.1,60.00538842711367,
,31,넌 음울해,5,Green,B,2.25,2.233333333333333,ScrollUp,ScrollDown,Green.png,3,Negative,Congruent,0,0,0,0,,,,,,,,,,,,,,,,,,,,,0,30,30,30,,,,,,,,,,,,,,,,,,,,,,,,,,,,,,,,,,,,,,,,,,,,,,,,,,,,,,,,,,,,,,,,,,,,,,,,,,,,,1.7839506169160206,0.9276022000703961,414.71847800002433,None,ScrollUp,정답입니다,414.71847800002433,None,414.71847800002433,None,414.71847800002433,None,414.71847800002433,None,415.5458372000139,None,415.5458372000139,416.0480539998971,,,,,,,,,,,,,,,,033,2022-05-30_20h26.35.321,FishGame,2022.1.1,60.00538842711367,
,32,넌 냉소적이야,5,Orange,A,2.916666666666667,2.4,ScrollDown,ScrollUp,Orange.png,3,Negative,Incongruent,0,0,0,0,,,,,,,,,,,,,,,,,,,,,0,31,31,31,,,,,,,,,,,,,,,,,,,,,,,,,,,,,,,,,,,,,,,,,,,,,,,,,,,,,,,,,,,,,,,,,,,,,,,,,,,,,1.2700617214043937,0.9425761001184583,416.668077299837,None,ScrollDown,정답입니다,416.668077299837,None,416.668077299837,None,416.668077299837,None,416.668077299837,None,417.5145952999592,None,417.5145952999592,418.0146965999156,,,,,,,,,,,,,,,,033,2022-05-30_20h26.35.321,FishGame,2022.1.1,60.00538842711367,
,33,나를 데려가줘,6,Green,B,0,0,ScrollDown,ScrollUp,Green.png,3,NonTarget,NonTarget,0,0,0,0,,,,,,,,,,,,,,,,,,,,,0,32,32,32,,,,,,,,,,,,,,,,,,,,,,,,,,,,,,,,,,,,,,,,,,,,,,,,,,,,,,,,,,,,,,,,,,,,,,,,,,,,,1.2268518557151158,1.295640700031072,418.6310375998728,None,ScrollDown,정답입니다,418.6310375998728,None,418.6310375998728,None,418.6310375998728,None,418.6310375998728,None,419.83114649984054,None,419.83114649984054,420.3312863998581,,,,,,,,,,,,,,,,033,2022-05-30_20h26.35.321,FishGame,2022.1.1,60.00538842711367,
,34,넌 쾌활해,1,Orange,A,5.541666666666666,5.733333333333333,ScrollDown,ScrollUp,Orange.png,3,Positive,Congruent,0,0,0,0,,,,,,,,,,,,,,,,,,,,,0,33,33,33,,,,,,,,,,,,,,,,,,,,,,,,,,,,,,,,,,,,,,,,,,,,,,,,,,,,,,,,,,,,,,,,,,,,,,,,,,,,,1.2453703731298447,0.9421025000046939,420.9587144998368,None,ScrollDown,정답입니다,420.9587144998368,None,420.9587144998368,None,420.9587144998368,None,420.9587144998368,None,421.79569919989444,None,421.79569919989444,422.2978839999996,,,,,,,,,,,,,,,,033,2022-05-30_20h26.35.321,FishGame,2022.1.1,60.00538842711367,
,35,나를 보내줘,6,Orange,A,0,0,ScrollUp,ScrollDown,Orange.png,3,NonTarget,NonTarget,0,0,0,0,,,,,,,,,,,,,,,,,,,,,0,34,34,34,,,,,,,,,,,,,,,,,,,,,,,,,,,,,,,,,,,,,,,,,,,,,,,,,,,,,,,,,,,,,,,,,,,,,,,,,,,,,1.7206790198882422,1.1756290001794696,422.91978230001405,None,ScrollUp,정답입니다,422.91978230001405,None,422.91978230001405,None,422.91978230001405,None,422.91978230001405,None,423.99564710003324,None,423.99564710003324,424.4956781999208,,,,,,,,,,,,,,,,033,2022-05-30_20h26.35.321,FishGame,2022.1.1,60.00538842711367,
,36,넌 명랑해,1,Green,B,5.739130434782609,5.666666666666667,ScrollUp,ScrollDown,Green.png,3,Positive,Incongruent,0,0,0,0,,,,,,,,,,,,,,,,,,,,,0,35,35,35,,,,,,,,,,,,,,,,,,,,,,,,,,,,,,,,,,,,,,,,,,,,,,,,,,,,,,,,,,,,,,,,,,,,,,,,,,,,,1.6851851865649223,0.9793346000369638,425.1152345999144,None,ScrollUp,정답입니다,425.1152345999144,None,425.1152345999144,None,425.1152345999144,None,425.1152345999144,None,425.9956805999391,None,425.9956805999391,426.4977762999479,,,,,,,,,,,,,,,,033,2022-05-30_20h26.35.321,FishGame,2022.1.1,60.00538842711367,
,37,넌 멍해,4,Orange,A,2.833333333333333,3.4,ScrollDown,ScrollUp,Orange.png,3,Negative,Incongruent,0,0,0,0,,,,,,,,,,,,,,,,,,,,,0,36,36,36,,,,,,,,,,,,,,,,,,,,,,,,,,,,,,,,,,,,,,,,,,,,,,,,,,,,,,,,,,,,,,,,,,,,,,,,,,,,,1.2114197413126628,0.9589900998398662,427.1213107998483,None,ScrollDown,정답입니다,427.1213107998483,None,427.1213107998483,None,427.1213107998483,None,427.1213107998483,None,427.9810629999265,None,427.9810629999265,428.48110800003633,,,,,,,,,,,,,,,,033,2022-05-30_20h26.35.321,FishGame,2022.1.1,60.00538842711367,
,38,나를 데려가줘,6,Green,B,0,0,ScrollDown,ScrollUp,Green.png,3,NonTarget,NonTarget,0,0,0,0,,,,,,,,,,,,,,,,,,,,,0,37,37,37,,,,,,,,,,,,,,,,,,,,,,,,,,,,,,,,,,,,,,,,,,,,,,,,,,,,,,,,,,,,,,,,,,,,,,,,,,,,,1.28086419403553,0.7940666999202222,429.1000983999111,None,ScrollDown,정답입니다,429.1000983999111,None,429.1000983999111,None,429.1000983999111,None,429.1000983999111,None,429.79556240001693,None,429.79556240001693,430.29560369998217,,,,,,,,,,,,,,,,033,2022-05-30_20h26.35.321,FishGame,2022.1.1,60.00538842711367,
,39,넌 현명해,2,Orange,A,6.541666666666666,4.533333333333333,ScrollDown,ScrollUp,Orange.png,3,Positive,Congruent,0,0,0,0,,,,,,,,,,,,,,,,,,,,,0,38,38,38,,,,,,,,,,,,,,,,,,,,,,,,,,,,,,,,,,,,,,,,,,,,,,,,,,,,,,,,,,,,,,,,,,,,,,,,,,,,,1.3333333308498063,1.1277578000444919,430.92018310003914,None,ScrollDown,정답입니다,430.92018310003914,None,430.92018310003914,None,430.92018310003914,None,430.92018310003914,None,431.9455128000118,None,431.9455128000118,432.44766109995544,,,,,,,,,,,,,,,,033,2022-05-30_20h26.35.321,FishGame,2022.1.1,60.00538842711367,
,40,넌 수줍어,3,Green,B,3.541666666666666,4.366666666666666,ScrollUp,ScrollDown,Green.png,3,Neutral,Neutral,0,0,0,0,,,,,,,,,,,,,,,,,,,,,0,39,39,39,,,,,,,,,,,,,,,,,,,,,,,,,,,,,,,,,,,,,,,,,,,,,,,,,,,,,,,,,,,,,,,,,,,,,,,,,,,,,1.6574074104428291,0.8291845999192446,433.06489229993895,None,ScrollUp,정답입니다,433.06489229993895,None,433.06489229993895,None,433.06489229993895,None,433.06489229993895,None,433.7954557999037,None,433.7954557999037,434.2977964000311,,,,,,,,,,,,,,,,033,2022-05-30_20h26.35.321,FishGame,2022.1.1,60.00538842711367,
,41,나를 데려가줘,6,Green,B,0,0,ScrollDown,ScrollUp,Green.png,3,NonTarget,NonTarget,0,0,0,0,,,,,,,,,,,,,,,,,,,,,0,40,40,40,,,,,,,,,,,,,,,,,,,,,,,,,,,,,,,,,,,,,,,,,,,,,,,,,,,,,,,,,,,,,,,,,,,,,,,,,,,,,1.3040123408039412,1.0752308000810444,434.9182994000148,None,ScrollDown,정답입니다,434.9182994000148,None,434.9182994000148,None,434.9182994000148,None,434.9182994000148,None,435.89512069988996,None,435.89512069988996,436.39520639996044,,,,,,,,,,,,,,,,033,2022-05-30_20h26.35.321,FishGame,2022.1.1,60.00538842711367,
,42,넌 성숙해,2,Green,B,5.833333333333333,4.533333333333333,ScrollUp,ScrollDown,Green.png,3,Positive,Incongruent,0,0,0,0,,,,,,,,,,,,,,,,,,,,,0,41,41,41,,,,,,,,,,,,,,,,,,,,,,,,,,,,,,,,,,,,,,,,,,,,,,,,,,,,,,,,,,,,,,,,,,,,,,,,,,,,,1.5756172835826874,0.8778037999290973,437.01460909983143,None,ScrollUp,정답입니다,437.01460909983143,None,437.01460909983143,None,437.01460909983143,None,437.01460909983143,None,437.79513949994,None,437.79513949994,438.29767689993605,,,,,,,,,,,,,,,,033,2022-05-30_20h26.35.321,FishGame,2022.1.1,60.00538842711367,
,1,넌 매력적이야,2,Green,B,6.125,4.666666666666667,ScrollUp,ScrollDown,Green.png,4,Positive,Incongruent,0,0,0,0,,,,,,,,,,,,,,,,,,,,,,,,,0,0,0,0,,,,,,,,,,,,,,,,,,,,,,,,,,,,,,,,470.91342119988985,472.4136862999294,472.447011299897,473.3970361999236,473.4469965000171,474.39470519986935,474.39470519986935,None,,,,,,,,,,,,,,,,,,,,,,,,,,,,,,,,,,1.5524691368142762,0.8640976999886334,475.49816749989986,None,ScrollUp,정답입니다,475.49816749989986,None,475.49816749989986,None,475.49816749989986,None,475.49816749989986,None,476.2634147000499,None,476.2634147000499,476.7666932998691,438.79776440002024,None,438.79776440002024,None,0.275,-0.10277778,1,0,0,0.016238699899986386,None,468.81143520004116,None,,,033,2022-05-30_20h26.35.321,FishGame,2022.1.1,60.00538842711367,
,2,나를 보내줘,6,Orange,A,0,0,ScrollUp,ScrollDown,Orange.png,4,NonTarget,NonTarget,0,0,0,0,,,,,,,,,,,,,,,,,,,,,,,,,0,1,1,1,,,,,,,,,,,,,,,,,,,,,,,,,,,,,,,,,,,,,,,,,,,,,,,,,,,,,,,,,,,,,,,,,,,,,,,,,1.544753085821867,1.0606867999304086,477.3850326000247,None,NoResponse,무응답입니다,477.3850326000247,None,477.3850326000247,None,477.3850326000247,None,477.3850326000247,None,478.34451860003173,None,478.34451860003173,478.8466773000546,,,,,,,,,,,,,,,,033,2022-05-30_20h26.35.321,FishGame,2022.1.1,60.00538842711367,
,3,넌 조심스러워,3,Orange,A,4.791666666666666,4.666666666666667,ScrollDown,ScrollUp,Orange.png,4,Neutral,Neutral,0,0,0,0,,,,,,,,,,,,,,,,,,,,,,,,,0,2,2,2,,,,,,,,,,,,,,,,,,,,,,,,,,,,,,,,,,,,,,,,,,,,,,,,,,,,,,,,,,,,,,,,,,,,,,,,,1.347222218910853,1.625527299940586,479.4698777999729,None,ScrollDown,정답입니다,479.4698777999729,None,479.4698777999729,None,479.4698777999729,None,479.4698777999729,None,480.9945169000421,None,480.9945169000421,481.4967660000548,,,,,,,,,,,,,,,,033,2022-05-30_20h26.35.321,FishGame,2022.1.1,60.00538842711367,
,4,넌 철학적이야,3,Green,B,4.5,4.266666666666667,ScrollUp,ScrollDown,Green.png,4,Neutral,Neutral,0,0,0,0,,,,,,,,,,,,,,,,,,,,,,,,,0,3,3,3,,,,,,,,,,,,,,,,,,,,,,,,,,,,,,,,,,,,,,,,,,,,,,,,,,,,,,,,,,,,,,,,,,,,,,,,,1.5,1.0616844000760466,482.12002300005406,None,NoResponse,무응답입니다,482.12002300005406,None,482.12002300005406,None,482.12002300005406,None,482.12002300005406,None,483.07779859984294,None,483.07779859984294,483.57998250005767,,,,,,,,,,,,,,,,033,2022-05-30_20h26.35.321,FishGame,2022.1.1,60.00538842711367,
,5,넌 쩨쩨해,5,Orange,A,2.375,2.133333333333333,ScrollDown,ScrollUp,Orange.png,4,Negative,Incongruent,0,0,0,0,,,,,,,,,,,,,,,,,,,,,,,,,0,4,4,4,,,,,,,,,,,,,,,,,,,,,,,,,,,,,,,,,,,,,,,,,,,,,,,,,,,,,,,,,,,,,,,,,,,,,,,,,1.3533950621883073,1.0108577001374215,484.2099899998866,None,ScrollDown,정답입니다,484.2099899998866,None,484.2099899998866,None,484.2099899998866,None,484.2099899998866,None,485.1132483999245,None,485.1132483999245,485.6133314999752,,,,,,,,,,,,,,,,033,2022-05-30_20h26.35.321,FishGame,2022.1.1,60.00538842711367,
,6,나를 데려가줘,6,Green,B,0,0,ScrollDown,ScrollUp,Green.png,4,NonTarget,NonTarget,0,0,0,0,,,,,,,,,,,,,,,,,,,,,,,,,0,5,5,5,,,,,,,,,,,,,,,,,,,,,,,,,,,,,,,,,,,,,,,,,,,,,,,,,,,,,,,,,,,,,,,,,,,,,,,,,1.1790123482545216,1.2728371999692172,486.25512699992396,None,ScrollDown,정답입니다,486.25512699992396,None,486.25512699992396,None,486.25512699992396,None,486.25512699992396,None,487.42742319987155,None,487.42742319987155,487.9274915999267,,,,,,,,,,,,,,,,033,2022-05-30_20h26.35.321,FishGame,2022.1.1,60.00538842711367,
,7,넌 고집불통이야,5,Green,B,2.875,2,ScrollUp,ScrollDown,Green.png,4,Negative,Congruent,0,0,0,0,,,,,,,,,,,,,,,,,,,,,,,,,0,6,6,6,,,,,,,,,,,,,,,,,,,,,,,,,,,,,,,,,,,,,,,,,,,,,,,,,,,,,,,,,,,,,,,,,,,,,,,,,1.8024691343307495,1.3967375999782234,488.55449849995784,None,ScrollUp,정답입니다,488.55449849995784,None,488.55449849995784,None,488.55449849995784,None,488.55449849995784,None,489.84661079989746,None,489.84661079989746,490.34661989985034,,,,,,,,,,,,,,,,033,2022-05-30_20h26.35.321,FishGame,2022.1.1,60.00538842711367,
,8,넌 무심해,4,Orange,A,2.875,3.2,ScrollDown,ScrollUp,Orange.png,4,Negative,Incongruent,0,0,0,0,,,,,,,,,,,,,,,,,,,,,,,,,0,7,7,7,,,,,,,,,,,,,,,,,,,,,,,,,,,,,,,,,,,,,,,,,,,,,,,,,,,,,,,,,,,,,,,,,,,,,,,,,1.2932098805904388,0.9125006999820471,490.9622822999954,None,ScrollDown,정답입니다,490.9622822999954,None,490.9622822999954,None,490.9622822999954,None,490.9622822999954,None,491.77760310005397,None,491.77760310005397,492.2798100998625,,,,,,,,,,,,,,,,033,2022-05-30_20h26.35.321,FishGame,2022.1.1,60.00538842711367,
,9,넌 정겨워,1,Orange,A,5.791666666666667,5.666666666666667,ScrollDown,ScrollUp,Orange.png,4,Positive,Congruent,0,0,0,0,,,,,,,,,,,,,,,,,,,,,,,,,0,8,8,8,,,,,,,,,,,,,,,,,,,,,,,,,,,,,,,,,,,,,,,,,,,,,,,,,,,,,,,,,,,,,,,,,,,,,,,,,1.3132715995113053,0.9279712000861764,492.9019369999878,None,ScrollDown,정답입니다,492.9019369999878,None,492.9019369999878,None,492.9019369999878,None,492.9019369999878,None,493.72757939994335,None,493.72757939994335,494.2298003998585,,,,,,,,,,,,,,,,033,2022-05-30_20h26.35.321,FishGame,2022.1.1,60.00538842711367,
,10,나를 데려가줘,6,Green,B,0,0,ScrollDown,ScrollUp,Green.png,4,NonTarget,NonTarget,0,0,0,0,,,,,,,,,,,,,,,,,,,,,,,,,0,9,9,9,,,,,,,,,,,,,,,,,,,,,,,,,,,,,,,,,,,,,,,,,,,,,,,,,,,,,,,,,,,,,,,,,,,,,,,,,1.3827160522341728,1.108909900067374,494.846773999976,None,ScrollDown,정답입니다,494.846773999976,None,494.846773999976,None,494.846773999976,None,494.846773999976,None,495.8608061999548,None,495.8608061999548,496.3629832000006,,,,,,,,,,,,,,,,033,2022-05-30_20h26.35.321,FishGame,2022.1.1,60.00538842711367,
,11,넌 체제순응적이야,4,Green,B,3,3.6,ScrollUp,ScrollDown,Green.png,4,Negative,Congruent,0,0,0,0,,,,,,,,,,,,,,,,,,,,,,,,,0,10,10,10,,,,,,,,,,,,,,,,,,,,,,,,,,,,,,,,,,,,,,,,,,,,,,,,,,,,,,,,,,,,,,,,,,,,,,,,,1.4984567901507642,0.8440388001035899,496.9850144998636,None,NoResponse,무응답입니다,496.9850144998636,None,496.9850144998636,None,496.9850144998636,None,496.9850144998636,None,497.72961499984376,None,497.72961499984376,498.2297634999268,,,,,,,,,,,,,,,,033,2022-05-30_20h26.35.321,FishGame,2022.1.1,60.00538842711367,
,12,나를 보내줘,6,Orange,A,0,0,ScrollUp,ScrollDown,Orange.png,4,NonTarget,NonTarget,0,0,0,0,,,,,,,,,,,,,,,,,,,,,,,,,0,11,11,11,,,,,,,,,,,,,,,,,,,,,,,,,,,,,,,,,,,,,,,,,,,,,,,,,,,,,,,,,,,,,,,,,,,,,,,,,1.7916666616996129,1.7937123000156134,498.8544645998627,None,ScrollUp,정답입니다,498.8544645998627,None,498.8544645998627,None,498.8544645998627,None,498.8544645998627,None,500.5462120999582,None,500.5462120999582,501.04410859989,,,,,,,,,,,,,,,,033,2022-05-30_20h26.35.321,FishGame,2022.1.1,60.00538842711367,
,13,넌 박식해,2,Orange,A,5.625,3.933333333333333,ScrollDown,ScrollUp,Orange.png,4,Positive,Congruent,0,0,0,0,,,,,,,,,,,,,,,,,,,,,,,,,0,12,12,12,,,,,,,,,,,,,,,,,,,,,,,,,,,,,,,,,,,,,,,,,,,,,,,,,,,,,,,,,,,,,,,,,,,,,,,,,1.276234577099482,2.144239600049332,501.6724286999088,None,ScrollDown,정답입니다,501.6724286999088,None,501.6724286999088,None,501.6724286999088,None,501.6724286999088,None,503.7129174999427,None,503.7129174999427,504.212943200022,,,,,,,,,,,,,,,,033,2022-05-30_20h26.35.321,FishGame,2022.1.1,60.00538842711367,
,14,나를 보내줘,6,Orange,A,0,0,ScrollUp,ScrollDown,Orange.png,4,NonTarget,NonTarget,0,0,0,0,,,,,,,,,,,,,,,,,,,,,,,,,0,13,13,13,,,,,,,,,,,,,,,,,,,,,,,,,,,,,,,,,,,,,,,,,,,,,,,,,,,,,,,,,,,,,,,,,,,,,,,,,1.878086417913437,1.2442943998612463,504.83480819989927,None,ScrollUp,정답입니다,504.83480819989927,None,504.83480819989927,None,504.83480819989927,None,504.83480819989927,None,505.9772894999478,None,505.9772894999478,506.47949599986896,,,,,,,,,,,,,,,,033,2022-05-30_20h26.35.321,FishGame,2022.1.1,60.00538842711367,
,15,넌 침착해,1,Green,B,5.458333333333333,5.566666666666666,ScrollUp,ScrollDown,Green.png,4,Positive,Incongruent,0,0,0,0,,,,,,,,,,,,,,,,,,,,,,,,,0,14,14,14,,,,,,,,,,,,,,,,,,,,,,,,,,,,,,,,,,,,,,,,,,,,,,,,,,,,,,,,,,,,,,,,,,,,,,,,,1.9182098805904388,0.9941940000280738,507.1023043000605,None,ScrollUp,정답입니다,507.1023043000605,None,507.1023043000605,None,507.1023043000605,None,507.1023043000605,None,507.9961268999614,None,507.9961268999614,508.49617019994184,,,,,,,,,,,,,,,,033,2022-05-30_20h26.35.321,FishGame,2022.1.1,60.00538842711367,
,16,나를 데려가줘,6,Green,B,0,0,ScrollDown,ScrollUp,Green.png,4,NonTarget,NonTarget,0,0,0,0,,,,,,,,,,,,,,,,,,,,,,,,,0,15,15,15,,,,,,,,,,,,,,,,,,,,,,,,,,,,,,,,,,,,,,,,,,,,,,,,,,,,,,,,,,,,,,,,,,,,,,,,,1.1450617164373398,1.2768771999981254,509.1187752999831,None,ScrollDown,정답입니다,509.1187752999831,None,509.1187752999831,None,509.1187752999831,None,509.1187752999831,None,510.2936255999375,None,510.2936255999375,510.79366969992407,,,,,,,,,,,,,,,,033,2022-05-30_20h26.35.321,FishGame,2022.1.1,60.00538842711367,
,17,넌 행복해,1,Orange,A,6.416666666666666,6.166666666666667,ScrollDown,ScrollUp,Orange.png,4,Positive,Congruent,0,0,0,0,,,,,,,,,,,,,,,,,,,,,,,,,0,16,16,16,,,,,,,,,,,,,,,,,,,,,,,,,,,,,,,,,,,,,,,,,,,,,,,,,,,,,,,,,,,,,,,,,,,,,,,,,1.320987656712532,1.979952499968931,511.4211140999105,None,ScrollDown,정답입니다,511.4211140999105,None,511.4211140999105,None,511.4211140999105,None,511.4211140999105,None,513.2961446000263,None,513.2961446000263,513.7962163998745,,,,,,,,,,,,,,,,033,2022-05-30_20h26.35.321,FishGame,2022.1.1,60.00538842711367,
,18,넌 겸손해,2,Green,B,5.791666666666667,4.766666666666667,ScrollUp,ScrollDown,Green.png,4,Positive,Incongruent,0,0,0,0,,,,,,,,,,,,,,,,,,,,,,,,,0,17,17,17,,,,,,,,,,,,,,,,,,,,,,,,,,,,,,,,,,,,,,,,,,,,,,,,,,,,,,,,,,,,,,,,,,,,,,,,,1.7098765472571054,0.9096309000160545,514.4161199999508,None,ScrollUp,정답입니다,514.4161199999508,None,514.4161199999508,None,514.4161199999508,None,514.4161199999508,None,515.2293344000354,None,515.2293344000354,515.7293177000247,,,,,,,,,,,,,,,,033,2022-05-30_20h26.35.321,FishGame,2022.1.1,60.00538842711367,
,19,나를 보내줘,6,Orange,A,0,0,ScrollUp,ScrollDown,Orange.png,4,NonTarget,NonTarget,0,0,0,0,,,,,,,,,,,,,,,,,,,,,,,,,0,18,18,18,,,,,,,,,,,,,,,,,,,,,,,,,,,,,,,,,,,,,,,,,,,,,,,,,,,,,,,,,,,,,,,,,,,,,,,,,1.7638888855775197,1.0777424999978393,516.3532823999412,None,ScrollUp,정답입니다,516.3532823999412,None,516.3532823999412,None,516.3532823999412,None,516.3532823999412,None,517.3267920999788,None,517.3267920999788,517.826879600063,,,,,,,,,,,,,,,,033,2022-05-30_20h26.35.321,FishGame,2022.1.1,60.00538842711367,
,20,넌 의심없어,3,Orange,A,4.166666666666667,4.6,ScrollDown,ScrollUp,Orange.png,4,Neutral,Neutral,0,0,0,0,,,,,,,,,,,,,,,,,,,,,,,,,0,19,19,19,,,,,,,,,,,,,,,,,,,,,,,,,,,,,,,,,,,,,,,,,,,,,,,,,,,,,,,,,,,,,,,,,,,,,,,,,1.200617293516795,1.0456580999307334,518.4452905999497,None,ScrollDown,정답입니다,518.4452905999497,None,518.4452905999497,None,518.4452905999497,None,518.4452905999497,None,519.3959474000148,None,519.3959474000148,519.896022999892,,,,,,,,,,,,,,,,033,2022-05-30_20h26.35.321,FishGame,2022.1.1,60.00538842711367,
,21,넌 시시해,4,Orange,A,2.666666666666667,2.966666666666667,ScrollDown,ScrollUp,Orange.png,4,Negative,Incongruent,0,0,0,0,,,,,,,,,,,,,,,,,,,,,,,,,0,20,20,20,,,,,,,,,,,,,,,,,,,,,,,,,,,,,,,,,,,,,,,,,,,,,,,,,,,,,,,,,,,,,,,,,,,,,,,,,1.3317901293436685,1.2971706001553684,520.5117037999444,None,ScrollDown,정답입니다,520.5117037999444,None,520.5117037999444,None,520.5117037999444,None,520.5117037999444,None,521.7103265000042,None,521.7103265000042,522.2124848999083,,,,,,,,,,,,,,,,033,2022-05-30_20h26.35.321,FishGame,2022.1.1,60.00538842711367,
,22,나를 데려가줘,6,Green,B,0,0,ScrollDown,ScrollUp,Green.png,4,NonTarget,NonTarget,0,0,0,0,,,,,,,,,,,,,,,,,,,,,,,,,0,21,21,21,,,,,,,,,,,,,,,,,,,,,,,,,,,,,,,,,,,,,,,,,,,,,,,,,,,,,,,,,,,,,,,,,,,,,,,,,1.3842592537403107,1.009111599996686,522.8324541999027,None,ScrollDown,정답입니다,522.8324541999027,None,522.8324541999027,None,522.8324541999027,None,522.8324541999027,None,523.7436130000278,None,523.7436130000278,524.2459025999997,,,,,,,,,,,,,,,,033,2022-05-30_20h26.35.321,FishGame,2022.1.1,60.00538842711367,
,23,넌 무정해,5,Orange,A,2.5,2.2,ScrollDown,ScrollUp,Orange.png,4,Negative,Incongruent,0,0,0,0,,,,,,,,,,,,,,,,,,,,,,,,,0,22,22,22,,,,,,,,,,,,,,,,,,,,,,,,,,,,,,,,,,,,,,,,,,,,,,,,,,,,,,,,,,,,,,,,,,,,,,,,,1.296296296020349,0.9444980998523533,524.8690734000411,None,ScrollDown,정답입니다,524.8690734000411,None,524.8690734000411,None,524.8690734000411,None,524.8690734000411,None,525.7124009998515,None,525.7124009998515,526.2123869999778,,,,,,,,,,,,,,,,033,2022-05-30_20h26.35.321,FishGame,2022.1.1,60.00538842711367,
,24,넌 긍정적이야,1,Green,B,6.041666666666667,6.066666666666666,ScrollUp,ScrollDown,Green.png,4,Positive,Incongruent,0,0,0,0,,,,,,,,,,,,,,,,,,,,,,,,,0,23,23,23,,,,,,,,,,,,,,,,,,,,,,,,,,,,,,,,,,,,,,,,,,,,,,,,,,,,,,,,,,,,,,,,,,,,,,,,,1.9861110945542653,1.3956951999571174,526.8318560998887,None,ScrollUp,정답입니다,526.8318560998887,None,526.8318560998887,None,526.8318560998887,None,526.8318560998887,None,528.1289448000025,None,528.1289448000025,528.6290660998784,,,,,,,,,,,,,,,,033,2022-05-30_20h26.35.321,FishGame,2022.1.1,60.00538842711367,
,25,나를 보내줘,6,Orange,A,0,0,ScrollUp,ScrollDown,Orange.png,4,NonTarget,NonTarget,0,0,0,0,,,,,,,,,,,,,,,,,,,,,,,,,0,24,24,24,,,,,,,,,,,,,,,,,,,,,,,,,,,,,,,,,,,,,,,,,,,,,,,,,,,,,,,,,,,,,,,,,,,,,,,,,1.8271604826052983,1.344119600020349,529.255045699887,None,ScrollUp,정답입니다,529.255045699887,None,529.255045699887,None,529.255045699887,None,529.255045699887,None,530.4932029999327,None,530.4932029999327,530.9932778000366,,,,,,,,,,,,,,,,033,2022-05-30_20h26.35.321,FishGame,2022.1.1,60.00538842711367,
,26,넌 시기심이 많아,5,Green,B,2.458333333333333,2.233333333333333,ScrollUp,ScrollDown,Green.png,4,Negative,Congruent,0,0,0,0,,,,,,,,,,,,,,,,,,,,,,,,,0,25,25,25,,,,,,,,,,,,,,,,,,,,,,,,,,,,,,,,,,,,,,,,,,,,,,,,,,,,,,,,,,,,,,,,,,,,,,,,,1.9182098805904388,1.1301482999697328,531.614240600029,None,ScrollUp,정답입니다,531.614240600029,None,531.614240600029,None,531.614240600029,None,531.614240600029,None,532.6458332999609,None,532.6458332999609,533.1457448999863,,,,,,,,,,,,,,,,033,2022-05-30_20h26.35.321,FishGame,2022.1.1,60.00538842711367,
,27,넌 탁월해,2,Orange,A,5.708333333333334,4.5,ScrollDown,ScrollUp,Orange.png,4,Positive,Congruent,0,0,0,0,,,,,,,,,,,,,,,,,,,,,,,,,0,26,26,26,,,,,,,,,,,,,,,,,,,,,,,,,,,,,,,,,,,,,,,,,,,,,,,,,,,,,,,,,,,,,,,,,,,,,,,,,1.3240740721424422,0.8644742998294532,533.7697217999958,None,ScrollDown,정답입니다,533.7697217999958,None,533.7697217999958,None,533.7697217999958,None,533.7697217999958,None,534.5159823000431,None,534.5159823000431,535.0290601998568,,,,,,,,,,,,,,,,033,2022-05-30_20h26.35.321,FishGame,2022.1.1,60.00538842711367,
,28,나를 데려가줘,6,Green,B,0,0,ScrollDown,ScrollUp,Green.png,4,NonTarget,NonTarget,0,0,0,0,,,,,,,,,,,,,,,,,,,,,,,,,0,27,27,27,,,,,,,,,,,,,,,,,,,,,,,,,,,,,,,,,,,,,,,,,,,,,,,,,,,,,,,,,,,,,,,,,,,,,,,,,1.3070987686514854,1.5319984999950975,535.63965739985,None,ScrollDown,정답입니다,535.63965739985,None,535.63965739985,None,535.63965739985,None,535.63965739985,None,537.0766987998504,None,537.0766987998504,537.5789309998509,,,,,,,,,,,,,,,,033,2022-05-30_20h26.35.321,FishGame,2022.1.1,60.00538842711367,
,29,넌 조용해,3,Green,B,4.333333333333333,4.166666666666667,ScrollUp,ScrollDown,Green.png,4,Neutral,Neutral,0,0,0,0,,,,,,,,,,,,,,,,,,,,,,,,,0,28,28,28,,,,,,,,,,,,,,,,,,,,,,,,,,,,,,,,,,,,,,,,,,,,,,,,,,,,,,,,,,,,,,,,,,,,,,,,,1.8888888905445735,1.0444300998933613,538.2028707000427,None,ScrollUp,정답입니다,538.2028707000427,None,538.2028707000427,None,538.2028707000427,None,538.2028707000427,None,539.1433001998812,None,539.1433001998812,539.6454994999804,,,,,,,,,,,,,,,,033,2022-05-30_20h26.35.321,FishGame,2022.1.1,60.00538842711367,
,30,넌 다정해,1,Orange,A,5.833333333333334,5.7,ScrollDown,ScrollUp,Orange.png,4,Positive,Congruent,0,0,0,0,,,,,,,,,,,,,,,,,,,,,,,,,0,29,29,29,,,,,,,,,,,,,,,,,,,,,,,,,,,,,,,,,,,,,,,,,,,,,,,,,,,,,,,,,,,,,,,,,,,,,,,,,1.3101851840813956,0.9722144999541342,540.271201999858,None,ScrollDown,정답입니다,540.271201999858,None,540.271201999858,None,540.271201999858,None,540.271201999858,None,541.1387507999316,None,541.1387507999316,541.6432938999496,,,,,,,,,,,,,,,,033,2022-05-30_20h26.35.321,FishGame,2022.1.1,60.00538842711367,
,31,넌 능력있어,2,Green,B,6.166666666666666,4.6,ScrollUp,ScrollDown,Green.png,4,Positive,Incongruent,0,0,0,0,,,,,,,,,,,,,,,,,,,,,,,,,0,30,30,30,,,,,,,,,,,,,,,,,,,,,,,,,,,,,,,,,,,,,,,,,,,,,,,,,,,,,,,,,,,,,,,,,,,,,,,,,2,1.1948848001193255,542.2643454000354,None,ScrollUp,정답입니다,542.2643454000354,None,542.2643454000354,None,542.2643454000354,None,542.2643454000354,None,543.3620376999024,None,543.3620376999024,543.8620201998856,,,,,,,,,,,,,,,,033,2022-05-30_20h26.35.321,FishGame,2022.1.1,60.00538842711367,
,32,넌 불쾌해,5,Orange,A,2.125,1.933333333333333,ScrollDown,ScrollUp,Orange.png,4,Negative,Incongruent,0,0,0,0,,,,,,,,,,,,,,,,,,,,,,,,,0,31,31,31,,,,,,,,,,,,,,,,,,,,,,,,,,,,,,,,,,,,,,,,,,,,,,,,,,,,,,,,,,,,,,,,,,,,,,,,,1.1666666616996129,1.0279893998522311,544.4813908999786,None,ScrollDown,정답입니다,544.4813908999786,None,544.4813908999786,None,544.4813908999786,None,544.4813908999786,None,545.4119758999441,None,545.4119758999441,545.9120789000299,,,,,,,,,,,,,,,,033,2022-05-30_20h26.35.321,FishGame,2022.1.1,60.00538842711367,
,33,나를 데려가줘,6,Green,B,0,0,ScrollDown,ScrollUp,Green.png,4,NonTarget,NonTarget,0,0,0,0,,,,,,,,,,,,,,,,,,,,,,,,,0,32,32,32,,,,,,,,,,,,,,,,,,,,,,,,,,,,,,,,,,,,,,,,,,,,,,,,,,,,,,,,,,,,,,,,,,,,,,,,,1.0154321193695068,1.2060733002144843,546.5375898999628,None,ScrollDown,정답입니다,546.5375898999628,None,546.5375898999628,None,546.5375898999628,None,546.5375898999628,None,547.6428516998421,None,547.6428516998421,548.142927199835,,,,,,,,,,,,,,,,033,2022-05-30_20h26.35.321,FishGame,2022.1.1,60.00538842711367,
,34,넌 유순해,3,Orange,A,4.458333333333333,5,ScrollDown,ScrollUp,Orange.png,4,Neutral,Neutral,0,0,0,0,,,,,,,,,,,,,,,,,,,,,,,,,0,33,33,33,,,,,,,,,,,,,,,,,,,,,,,,,,,,,,,,,,,,,,,,,,,,,,,,,,,,,,,,,,,,,,,,,,,,,,,,,1,1.0804882999509573,548.7715785000473,None,ScrollDown,정답입니다,548.7715785000473,None,548.7715785000473,None,548.7715785000473,None,548.7715785000473,None,549.7454369000625,None,549.7454369000625,550.2453997998964,,,,,,,,,,,,,,,,033,2022-05-30_20h26.35.321,FishGame,2022.1.1,60.00538842711367,
,35,넌 근심스러워,4,Green,B,2.708333333333333,3.133333333333333,ScrollUp,ScrollDown,Green.png,4,Negative,Congruent,0,0,0,0,,,,,,,,,,,,,,,,,,,,,,,,,0,34,34,34,,,,,,,,,,,,,,,,,,,,,,,,,,,,,,,,,,,,,,,,,,,,,,,,,,,,,,,,,,,,,,,,,,,,,,,,,1.817901223897934,1.0593704001512378,550.8622424998321,None,ScrollUp,정답입니다,550.8622424998321,None,550.8622424998321,None,550.8622424998321,None,550.8622424998321,None,551.8213867000304,None,551.8213867000304,552.3261722999159,,,,,,,,,,,,,,,,033,2022-05-30_20h26.35.321,FishGame,2022.1.1,60.00538842711367,
,36,넌 세련되었어,2,Orange,A,5.5,4.6,ScrollDown,ScrollUp,Orange.png,4,Positive,Congruent,0,0,0,0,,,,,,,,,,,,,,,,,,,,,,,,,0,35,35,35,,,,,,,,,,,,,,,,,,,,,,,,,,,,,,,,,,,,,,,,,,,,,,,,,,,,,,,,,,,,,,,,,,,,,,,,,1.1126543233791988,1.1307562000583857,552.9487664999906,None,ScrollDown,정답입니다,552.9487664999906,None,552.9487664999906,None,552.9487664999906,None,552.9487664999906,None,553.9761138998438,None,553.9761138998438,554.4787449999712,,,,,,,,,,,,,,,,033,2022-05-30_20h26.35.321,FishGame,2022.1.1,60.00538842711367,
,37,나를 보내줘,6,Orange,A,0,0,ScrollUp,ScrollDown,Orange.png,4,NonTarget,NonTarget,0,0,0,0,,,,,,,,,,,,,,,,,,,,,,,,,0,36,36,36,,,,,,,,,,,,,,,,,,,,,,,,,,,,,,,,,,,,,,,,,,,,,,,,,,,,,,,,,,,,,,,,,,,,,,,,,2,1.360577299958095,555.0980245999526,None,ScrollUp,정답입니다,555.0980245999526,None,555.0980245999526,None,555.0980245999526,None,555.0980245999526,None,556.3620009999722,None,556.3620009999722,556.8620297999587,,,,,,,,,,,,,,,,033,2022-05-30_20h26.35.321,FishGame,2022.1.1,60.00538842711367,
,38,넌 확고해,3,Green,B,4.708333333333334,4.566666666666666,ScrollUp,ScrollDown,Green.png,4,Neutral,Neutral,0,0,0,0,,,,,,,,,,,,,,,,,,,,,,,,,0,37,37,37,,,,,,,,,,,,,,,,,,,,,,,,,,,,,,,,,,,,,,,,,,,,,,,,,,,,,,,,,,,,,,,,,,,,,,,,,1.825617293516795,0.9773999999742955,557.4816977998707,None,ScrollUp,정답입니다,557.4816977998707,None,557.4816977998707,None,557.4816977998707,None,557.4816977998707,None,558.3617483999114,None,558.3617483999114,558.8618266000412,,,,,,,,,,,,,,,,033,2022-05-30_20h26.35.321,FishGame,2022.1.1,60.00538842711367,
,39,넌 이해심이 많아,1,Green,B,6.041666666666668,5.533333333333333,ScrollUp,ScrollDown,Green.png,4,Positive,Incongruent,0,0,0,0,,,,,,,,,,,,,,,,,,,,,,,,,0,38,38,38,,,,,,,,,,,,,,,,,,,,,,,,,,,,,,,,,,,,,,,,,,,,,,,,,,,,,,,,,,,,,,,,,,,,,,,,,1.8441358109315236,0.9450507001020014,559.484080699971,None,ScrollUp,정답입니다,559.484080699971,None,559.484080699971,None,559.484080699971,None,559.484080699971,None,560.3258948000148,None,560.3258948000148,560.826000199886,,,,,,,,,,,,,,,,033,2022-05-30_20h26.35.321,FishGame,2022.1.1,60.00538842711367,
,40,나를 보내줘,6,Orange,A,0,0,ScrollUp,ScrollDown,Orange.png,4,NonTarget,NonTarget,0,0,0,0,,,,,,,,,,,,,,,,,,,,,,,,,0,39,39,39,,,,,,,,,,,,,,,,,,,,,,,,,,,,,,,,,,,,,,,,,,,,,,,,,,,,,,,,,,,,,,,,,,,,,,,,,1.7376543233791986,1.6114805999677628,561.4439882999286,None,ScrollUp,정답입니다,561.4439882999286,None,561.4439882999286,None,561.4439882999286,None,561.4439882999286,None,562.961763399886,None,562.961763399886,563.4618185998406,,,,,,,,,,,,,,,,033,2022-05-30_20h26.35.321,FishGame,2022.1.1,60.00538842711367,
,41,넌 거칠어,4,Orange,A,2.625,3.033333333333333,ScrollDown,ScrollUp,Orange.png,4,Negative,Incongruent,0,0,0,0,,,,,,,,,,,,,,,,,,,,,,,,,0,40,40,40,,,,,,,,,,,,,,,,,,,,,,,,,,,,,,,,,,,,,,,,,,,,,,,,,,,,,,,,,,,,,,,,,,,,,,,,,1.0092592636744182,1.3129799000453204,564.0844205999747,None,ScrollDown,정답입니다,564.0844205999747,None,564.0844205999747,None,564.0844205999747,None,564.0844205999747,None,565.295134200016,None,565.295134200016,565.7950265000109,,,,,,,,,,,,,,,,033,2022-05-30_20h26.35.321,FishGame,2022.1.1,60.00538842711367,
,42,넌 변덕맞아,5,Green,B,2.75,2.166666666666667,ScrollUp,ScrollDown,Green.png,4,Negative,Congruent,0,0,0,0,,,,,,,,,,,,,,,,,,,,,,,,,0,41,41,41,,,,,,,,,,,,,,,,,,,,,,,,,,,,,,,,,,,,,,,,,,,,,,,,,,,,,,,,,,,,,,,,,,,,,,,,,1.6558641965190568,1.0114619000814855,566.415992599912,None,ScrollUp,정답입니다,566.415992599912,None,566.415992599912,None,566.415992599912,None,566.415992599912,None,567.3282118998468,None,567.3282118998468,567.82830929989,,,,,,,,,,,,,,,,033,2022-05-30_20h26.35.321,FishGame,2022.1.1,60.00538842711367,
,43,나를 데려가줘,6,Green,B,0,0,ScrollDown,ScrollUp,Green.png,4,NonTarget,NonTarget,0,0,0,0,,,,,,,,,,,,,,,,,,,,,,,,,0,42,42,42,,,,,,,,,,,,,,,,,,,,,,,,,,,,,,,,,,,,,,,,,,,,,,,,,,,,,,,,,,,,,,,,,,,,,,,,,1,1.2103928001597524,568.4505510998424,None,ScrollDown,정답입니다,568.4505510998424,None,568.4505510998424,None,568.4505510998424,None,568.4505510998424,None,569.5614897999913,None,569.5614897999913,570.0615288999397,,,,,,,,,,,,,,,,033,2022-05-30_20h26.35.321,FishGame,2022.1.1,60.00538842711367,
,44,넌 외로워,4,Green,B,2.833333333333333,3.3,ScrollUp,ScrollDown,Green.png,4,Negative,Congruent,0,0,0,0,,,,,,,,,,,,,,,,,,,,,,,,,0,43,43,43,,,,,,,,,,,,,,,,,,,,,,,,,,,,,,,,,,,,,,,,,,,,,,,,,,,,,,,,,,,,,,,,,,,,,,,,,1.807098776102066,0.9954856000840664,570.6858738998417,None,ScrollUp,정답입니다,570.6858738998417,None,570.6858738998417,None,570.6858738998417,None,570.6858738998417,None,571.5756729999557,None,571.5756729999557,572.0757659999654,,,,,,,,,,,,,,,,033,2022-05-30_20h26.35.321,FishGame,2022.1.1,60.00538842711367,
,1,넌 불평스러워,5,Orange,A,2.25,2.066666666666667,ScrollDown,ScrollUp,Orange.png,5,Negative,Incongruent,0,0,0,0,,,,,,,,,,,,,,,,,,,,,,,,,,,,,0,0,0,0,,,,,,,,,,,,,,,,,,,,,,,,,,,,604.3106334998738,605.8109782000538,605.8419856999535,606.791985000018,606.8419351000339,607.7943019999657,607.7943019999657,None,,,,,,,,,,,,,,,,,,,,,,,,,,,,,,,,,,1.1635802586873372,1.0806748000904918,608.8932225999888,None,ScrollDown,정답입니다,608.8932225999888,None,608.8932225999888,None,608.8932225999888,None,608.8932225999888,None,609.877398399869,None,609.877398399869,610.3775092998985,572.5757587999105,None,572.5757587999105,None,0.24351852,-0.072222225,1,0,0,0.015976700000464916,None,602.5775069999509,None,,,033,2022-05-30_20h26.35.321,FishGame,2022.1.1,60.00538842711367,
,2,나를 보내줘,6,Orange,A,0,0,ScrollUp,ScrollDown,Orange.png,5,NonTarget,NonTarget,0,0,0,0,,,,,,,,,,,,,,,,,,,,,,,,,,,,,0,1,1,1,,,,,,,,,,,,,,,,,,,,,,,,,,,,,,,,,,,,,,,,,,,,,,,,,,,,,,,,,,,,,,,,,,,,,1.7746913582086563,1.1289693999569863,611.0093272998929,None,ScrollUp,정답입니다,611.0093272998929,None,611.0093272998929,None,611.0093272998929,None,611.0093272998929,None,612.0417867000215,None,612.0417867000215,612.5439603000414,,,,,,,,,,,,,,,,033,2022-05-30_20h26.35.321,FishGame,2022.1.1,60.00538842711367,
,3,넌 다재다능해,2,Green,B,6.208333333333333,4.5,ScrollUp,ScrollDown,Green.png,5,Positive,Incongruent,0,0,0,0,,,,,,,,,,,,,,,,,,,,,,,,,,,,,0,2,2,2,,,,,,,,,,,,,,,,,,,,,,,,,,,,,,,,,,,,,,,,,,,,,,,,,,,,,,,,,,,,,,,,,,,,,1.7160493781169257,0.9112154999747872,613.1630388000049,None,ScrollUp,정답입니다,613.1630388000049,None,613.1630388000049,None,613.1630388000049,None,613.1630388000049,None,613.9751338998321,None,613.9751338998321,614.4773591000121,,,,,,,,,,,,,,,,033,2022-05-30_20h26.35.321,FishGame,2022.1.1,60.00538842711367,
,4,넌 과감해,3,Orange,A,4.833333333333334,4.6,ScrollDown,ScrollUp,Orange.png,5,Neutral,Neutral,0,0,0,0,,,,,,,,,,,,,,,,,,,,,,,,,,,,,0,3,3,3,,,,,,,,,,,,,,,,,,,,,,,,,,,,,,,,,,,,,,,,,,,,,,,,,,,,,,,,,,,,,,,,,,,,,1.2453703731298447,0.9087545000948012,615.0992425999139,None,ScrollDown,정답입니다,615.0992425999139,None,615.0992425999139,None,615.0992425999139,None,615.0992425999139,None,615.908415599959,None,615.908415599959,616.4084367998876,,,,,,,,,,,,,,,,033,2022-05-30_20h26.35.321,FishGame,2022.1.1,60.00538842711367,
,5,넌 고분고분해,3,Green,B,3.75,4.033333333333333,ScrollUp,ScrollDown,Green.png,5,Neutral,Neutral,0,0,0,0,,,,,,,,,,,,,,,,,,,,,,,,,,,,,0,4,4,4,,,,,,,,,,,,,,,,,,,,,,,,,,,,,,,,,,,,,,,,,,,,,,,,,,,,,,,,,,,,,,,,,,,,,1.7175925920406976,0.9295465000905097,617.0330692999996,None,ScrollUp,정답입니다,617.0330692999996,None,617.0330692999996,None,617.0330692999996,None,617.0330692999996,None,617.8583308998495,None,617.8583308998495,618.360591399949,,,,,,,,,,,,,,,,033,2022-05-30_20h26.35.321,FishGame,2022.1.1,60.00538842711367,
,6,나를 보내줘,6,Orange,A,0,0,ScrollUp,ScrollDown,Orange.png,5,NonTarget,NonTarget,0,0,0,0,,,,,,,,,,,,,,,,,,,,,,,,,,,,,0,5,5,5,,,,,,,,,,,,,,,,,,,,,,,,,,,,,,,,,,,,,,,,,,,,,,,,,,,,,,,,,,,,,,,,,,,,,1.8472222139437993,1.3755665000062436,618.984101699898,None,ScrollUp,정답입니다,618.984101699898,None,618.984101699898,None,618.984101699898,None,618.984101699898,None,620.2605516000185,None,620.2605516000185,620.7604423998855,,,,,,,,,,,,,,,,033,2022-05-30_20h26.35.321,FishGame,2022.1.1,60.00538842711367,
,7,넌 잘 잊어,4,Orange,A,3,3.7,ScrollDown,ScrollUp,Orange.png,5,Negative,Incongruent,0,0,0,0,,,,,,,,,,,,,,,,,,,,,,,,,,,,,0,6,6,6,,,,,,,,,,,,,,,,,,,,,,,,,,,,,,,,,,,,,,,,,,,,,,,,,,,,,,,,,,,,,,,,,,,,,1.3487654328346252,0.8427768000401556,621.3871802999638,None,ScrollDown,정답입니다,621.3871802999638,None,621.3871802999638,None,621.3871802999638,None,621.3871802999638,None,622.1248882999644,None,622.1248882999644,622.6271644998342,,,,,,,,,,,,,,,,033,2022-05-30_20h26.35.321,FishGame,2022.1.1,60.00538842711367,
,8,넌 탐구심이없어,4,Green,B,2.833333333333333,3.066666666666667,ScrollUp,ScrollDown,Green.png,5,Negative,Congruent,0,0,0,0,,,,,,,,,,,,,,,,,,,,,,,,,,,,,0,7,7,7,,,,,,,,,,,,,,,,,,,,,,,,,,,,,,,,,,,,,,,,,,,,,,,,,,,,,,,,,,,,,,,,,,,,,1.6203703756133714,0.9754949000198394,623.248065300053,None,ScrollUp,정답입니다,623.248065300053,None,623.248065300053,None,623.248065300053,None,623.248065300053,None,624.1249208999798,None,624.1249208999798,624.6270820999052,,,,,,,,,,,,,,,,033,2022-05-30_20h26.35.321,FishGame,2022.1.1,60.00538842711367,
,9,나를 데려가줘,6,Green,B,0,0,ScrollDown,ScrollUp,Green.png,5,NonTarget,NonTarget,0,0,0,0,,,,,,,,,,,,,,,,,,,,,,,,,,,,,0,8,8,8,,,,,,,,,,,,,,,,,,,,,,,,,,,,,,,,,,,,,,,,,,,,,,,,,,,,,,,,,,,,,,,,,,,,,1.2654321044683456,1.043044799938798,625.248008799972,None,ScrollDown,정답입니다,625.248008799972,None,625.248008799972,None,625.248008799972,None,625.248008799972,None,626.1912386999466,None,626.1912386999466,626.6913129000459,,,,,,,,,,,,,,,,033,2022-05-30_20h26.35.321,FishGame,2022.1.1,60.00538842711367,
,10,넌 참되어,2,Orange,A,6.041666666666664,4.733333333333333,ScrollDown,ScrollUp,Orange.png,5,Positive,Congruent,0,0,0,0,,,,,,,,,,,,,,,,,,,,,,,,,,,,,0,9,9,9,,,,,,,,,,,,,,,,,,,,,,,,,,,,,,,,,,,,,,,,,,,,,,,,,,,,,,,,,,,,,,,,,,,,,1.388888883093993,1.1967737001832575,627.3289693000261,None,ScrollDown,정답입니다,627.3289693000261,None,627.3289693000261,None,627.3289693000261,None,627.3289693000261,None,628.4104402000085,None,628.4104402000085,628.9104500999674,,,,,,,,,,,,,,,,033,2022-05-30_20h26.35.321,FishGame,2022.1.1,60.00538842711367,
,11,넌 생기있어,1,Green,B,5.875,5.633333333333334,ScrollUp,ScrollDown,Green.png,5,Positive,Incongruent,0,0,0,0,,,,,,,,,,,,,,,,,,,,,,,,,,,,,0,10,10,10,,,,,,,,,,,,,,,,,,,,,,,,,,,,,,,,,,,,,,,,,,,,,,,,,,,,,,,,,,,,,,,,,,,,,1.527777779226502,0.9035899001173675,629.5268254999537,None,NoResponse,무응답입니다,629.5268254999537,None,629.5268254999537,None,629.5268254999537,None,629.5268254999537,None,630.336766500026,None,630.336766500026,630.8435935999732,,,,,,,,,,,,,,,,033,2022-05-30_20h26.35.321,FishGame,2022.1.1,60.00538842711367,
,12,넌 비사교적이야,4,Green,B,2.875,2.9,ScrollUp,ScrollDown,Green.png,5,Negative,Congruent,0,0,0,0,,,,,,,,,,,,,,,,,,,,,,,,,,,,,0,11,11,11,,,,,,,,,,,,,,,,,,,,,,,,,,,,,,,,,,,,,,,,,,,,,,,,,,,,,,,,,,,,,,,,,,,,,1.9135802388191223,1.1590215000323951,631.467314099893,None,ScrollUp,정답입니다,631.467314099893,None,631.467314099893,None,631.467314099893,None,631.467314099893,None,632.5268708998337,None,632.5268708998337,633.0269772000611,,,,,,,,,,,,,,,,033,2022-05-30_20h26.35.321,FishGame,2022.1.1,60.00538842711367,
,13,나를 데려가줘,6,Green,B,0,0,ScrollDown,ScrollUp,Green.png,5,NonTarget,NonTarget,0,0,0,0,,,,,,,,,,,,,,,,,,,,,,,,,,,,,0,12,12,12,,,,,,,,,,,,,,,,,,,,,,,,,,,,,,,,,,,,,,,,,,,,,,,,,,,,,,,,,,,,,,,,,,,,,1.1975308656692505,1.1770570001099259,633.6508150999434,None,ScrollDown,정답입니다,633.6508150999434,None,633.6508150999434,None,633.6508150999434,None,633.6508150999434,None,634.7244048998691,None,634.7244048998691,635.2244702000171,,,,,,,,,,,,,,,,033,2022-05-30_20h26.35.321,FishGame,2022.1.1,60.00538842711367,
,14,넌 고독해,4,Orange,A,2.916666666666667,3.233333333333333,ScrollDown,ScrollUp,Orange.png,5,Negative,Incongruent,0,0,0,0,,,,,,,,,,,,,,,,,,,,,,,,,,,,,0,13,13,13,,,,,,,,,,,,,,,,,,,,,,,,,,,,,,,,,,,,,,,,,,,,,,,,,,,,,,,,,,,,,,,,,,,,,1.2932098805904388,0.9449038999155164,635.845360700041,None,ScrollDown,정답입니다,635.845360700041,None,635.845360700041,None,635.845360700041,None,635.845360700041,None,636.6936029999051,None,636.6936029999051,637.193697599927,,,,,,,,,,,,,,,,033,2022-05-30_20h26.35.321,FishGame,2022.1.1,60.00538842711367,
,15,넌 신경질적이야,5,Green,B,2.375,2.233333333333333,ScrollUp,ScrollDown,Green.png,5,Negative,Congruent,0,0,0,0,,,,,,,,,,,,,,,,,,,,,,,,,,,,,0,14,14,14,,,,,,,,,,,,,,,,,,,,,,,,,,,,,,,,,,,,,,,,,,,,,,,,,,,,,,,,,,,,,,,,,,,,,1.7268518507480621,1.2233164999634027,637.8153877998702,None,ScrollUp,정답입니다,637.8153877998702,None,637.8153877998702,None,637.8153877998702,None,637.8153877998702,None,638.9366246999707,None,638.9366246999707,639.4410587998573,,,,,,,,,,,,,,,,033,2022-05-30_20h26.35.321,FishGame,2022.1.1,60.00538842711367,
,16,넌 똑똑해,2,Green,B,5.666666666666667,3.966666666666667,ScrollUp,ScrollDown,Green.png,5,Positive,Incongruent,0,0,0,0,,,,,,,,,,,,,,,,,,,,,,,,,,,,,0,15,15,15,,,,,,,,,,,,,,,,,,,,,,,,,,,,,,,,,,,,,,,,,,,,,,,,,,,,,,,,,,,,,,,,,,,,,1.6172839477658272,0.9466444998979568,640.0585832998622,None,ScrollUp,정답입니다,640.0585832998622,None,640.0585832998622,None,640.0585832998622,None,640.0585832998622,None,640.9077055000234,None,640.9077055000234,641.4077395999338,,,,,,,,,,,,,,,,033,2022-05-30_20h26.35.321,FishGame,2022.1.1,60.00538842711367,
,17,나를 보내줘,6,Orange,A,0,0,ScrollUp,ScrollDown,Orange.png,5,NonTarget,NonTarget,0,0,0,0,,,,,,,,,,,,,,,,,,,,,,,,,,,,,0,16,16,16,,,,,,,,,,,,,,,,,,,,,,,,,,,,,,,,,,,,,,,,,,,,,,,,,,,,,,,,,,,,,,,,,,,,,1.7746913582086563,1.3613031001295894,642.0289006000385,None,ScrollUp,정답입니다,642.0289006000385,None,642.0289006000385,None,642.0289006000385,None,642.0289006000385,None,643.293490699958,None,643.293490699958,643.8100318999495,,,,,,,,,,,,,,,,033,2022-05-30_20h26.35.321,FishGame,2022.1.1,60.00538842711367,
,18,넌 협조적이야,1,Orange,A,5.625,5.666666666666667,ScrollDown,ScrollUp,Orange.png,5,Positive,Congruent,0,0,0,0,,,,,,,,,,,,,,,,,,,,,,,,,,,,,0,17,17,17,,,,,,,,,,,,,,,,,,,,,,,,,,,,,,,,,,,,,,,,,,,,,,,,,,,,,,,,,,,,,,,,,,,,,1.2685185074806213,1.075674699852243,644.4130323999561,None,ScrollDown,정답입니다,644.4130323999561,None,644.4130323999561,None,644.4130323999561,None,644.4130323999561,None,645.3911404998507,None,645.3911404998507,645.8933470000047,,,,,,,,,,,,,,,,033,2022-05-30_20h26.35.321,FishGame,2022.1.1,60.00538842711367,
,19,나를 데려가줘,6,Green,B,0,0,ScrollDown,ScrollUp,Green.png,5,NonTarget,NonTarget,0,0,0,0,,,,,,,,,,,,,,,,,,,,,,,,,,,,,0,18,18,18,,,,,,,,,,,,,,,,,,,,,,,,,,,,,,,,,,,,,,,,,,,,,,,,,,,,,,,,,,,,,,,,,,,,,1.2746913631757102,1.1424163000192493,646.5168116998393,None,ScrollDown,정답입니다,646.5168116998393,None,646.5168116998393,None,646.5168116998393,None,646.5168116998393,None,647.557474100031,None,647.557474100031,648.057548499899,,,,,,,,,,,,,,,,033,2022-05-30_20h26.35.321,FishGame,2022.1.1,60.00538842711367,
,20,넌 몰인정해,5,Green,B,2.541666666666667,2.066666666666667,ScrollUp,ScrollDown,Green.png,5,Negative,Congruent,0,0,0,0,,,,,,,,,,,,,,,,,,,,,,,,,,,,,0,19,19,19,,,,,,,,,,,,,,,,,,,,,,,,,,,,,,,,,,,,,,,,,,,,,,,,,,,,,,,,,,,,,,,,,,,,,1.7422839403152466,1.1323496999684721,648.6820365998428,None,ScrollUp,정답입니다,648.6820365998428,None,648.6820365998428,None,648.6820365998428,None,648.6820365998428,None,649.7101147000212,None,649.7101147000212,650.2100672998931,,,,,,,,,,,,,,,,033,2022-05-30_20h26.35.321,FishGame,2022.1.1,60.00538842711367,
,21,나를 데려가줘,6,Green,B,0,0,ScrollDown,ScrollUp,Green.png,5,NonTarget,NonTarget,0,0,0,0,,,,,,,,,,,,,,,,,,,,,,,,,,,,,0,20,20,20,,,,,,,,,,,,,,,,,,,,,,,,,,,,,,,,,,,,,,,,,,,,,,,,,,,,,,,,,,,,,,,,,,,,,1.3580246915419898,1.0291399001143873,650.8234096998349,None,ScrollDown,정답입니다,650.8234096998349,None,650.8234096998349,None,650.8234096998349,None,650.8234096998349,None,651.7576716998592,None,651.7576716998592,652.259825399844,,,,,,,,,,,,,,,,033,2022-05-30_20h26.35.321,FishGame,2022.1.1,60.00538842711367,
