name,TrialNum,Word,WordCategory,FishType,WordList,WordValence,WordReputation,CorrectResp,IncorrectResp,FishTypeFile,Round,WordType,Condition,LoopforOrange.thisRepN,LoopforOrange.thisTrialN,LoopforOrange.thisN,LoopforOrange.thisIndex,LoopForGreen.thisRepN,LoopForGreen.thisTrialN,LoopForGreen.thisN,LoopForGreen.thisIndex,GreenInstLoop.thisRepN,GreenInstLoop.thisTrialN,GreenInstLoop.thisN,GreenInstLoop.thisIndex,GreenPrac.thisRepN,GreenPrac.thisTrialN,GreenPrac.thisN,GreenPrac.thisIndex,trials_2.thisRepN,trials_2.thisTrialN,trials_2.thisN,trials_2.thisIndex,GreenRound1.thisRepN,GreenRound1.thisTrialN,GreenRound1.thisN,GreenRound1.thisIndex,GreenRound2.thisRepN,GreenRound2.thisTrialN,GreenRound2.thisN,GreenRound2.thisIndex,GreenRound3.thisRepN,GreenRound3.thisTrialN,GreenRound3.thisN,GreenRound3.thisIndex,GreenRound4.thisRepN,GreenRound4.thisTrialN,GreenRound4.thisN,GreenRound4.thisIndex,GreenRound5.thisRepN,GreenRound5.thisTrialN,GreenRound5.thisN,GreenRound5.thisIndex,text_2.started,text_2.stopped,text_3.started,text_3.stopped,key_resp.keys,key_resp.rt,key_resp.started,key_resp.stopped,PassI.started,PassI.stopped,PassInst.keys,PassInst.rt,PassInst.started,PassInst.stopped,mouse_2.x,mouse_2.y,mouse_2.leftButton,mouse_2.midButton,mouse_2.rightButton,mouse_2.started,mouse_2.stopped,image.started,image.stopped,text_5.started,text_5.stopped,text_6.started,text_6.stopped,text_7.started,text_7.stopped,text_8.started,text_8.stopped,slider_3.response,slider_3.rt,slider_3.started,slider_3.stopped,Response_3,Feedback_3,BackGround_3.started,BackGround_3.stopped,Fish_3.started,Fish_3.stopped,WordBox_3.started,WordBox_3.stopped,Words_3.started,Words_3.stopped,BackGround_Feedback_3.started,BackGround_Feedback_3.stopped,Feedbacks_3.started,Feedbacks_3.stopped,Continue_or_not_2.keys,Continue_or_not_2.rt,Continue_or_not_2.started,Continue_or_not_2.stopped,image_4.started,image_4.stopped,mouse_3.x,mouse_3.y,mouse_3.leftButton,mouse_3.midButton,mouse_3.rightButton,mouse_3.started,mouse_3.stopped,startmain.started,startmain.stopped,slider_4.response,slider_4.rt,slider_4.started,slider_4.stopped,Response_4,Feedback_4,BackGround_4.started,BackGround_4.stopped,Fish_4.started,Fish_4.stopped,WordBox_4.started,WordBox_4.stopped,Words_4.started,Words_4.stopped,BackGround_Feedback_4.started,BackGround_Feedback_4.stopped,Feedbacks_4.started,Feedbacks_4.stopped,text.started,text.stopped,break_interval.started,break_interval.stopped,mouse.x,mouse.y,mouse.leftButton,mouse.midButton,mouse.rightButton,mouse.started,mouse.stopped,stratnextround.started,stratnextround.stopped,endgame.started,endgame.stopped,participant,date,expName,psychopyVersion,frameRate,
,,,,,,,,,,,,,,,,,,,,,,,,,,,,,,,,,,,,,,,,,,,,,,,,,,,,,,18.09424760006368,None,18.09424760006368,None,space,0.43274590000510216,18.569789200089872,None,,,,,,,,,,,,,,,,,,,,,,,,,,,,,,,,,,,,,,,,,,,,,,,,,,,,,,,,,,,,,,,,,,,,,,,,,,,,,,,,,,,,,,,,,,034,2022-06-01_18h07.39.709,FishGame,2022.1.1,61.173378803564795,
물고기과제_instruction(참가자용)GreenVersion.mp4,,,,,,,,,,,,,,,,,,0,0,0,0,0,0,0,0,,,,,,,,,,,,,,,,,,,,,,,,,,,,,,,,,,,,,90.45183150004596,None,n,2.3438294001389295,90.45183150004596,None,,,,,,,,,,,,,,,,,,,,,,,,,,,,,,,,,,,,,,,,,,,,,,,,,,,,,,,,,,,,,,,,,,,,,,,,,,,,,,,,,,,,034,2022-06-01_18h07.39.709,FishGame,2022.1.1,61.173378803564795,
,1,넌 교활해,5,Orange,B,2.333333333333333,2.133333333333333,ScrollUp,ScrollDown,Orange.png,practice,,,,,,,0,0,0,0,,,,,0,0,0,0,0,0,0,0,,,,,,,,,,,,,,,,,,,,,,,,,,,,,,,,,,,0.019444445,-0.2212963,1,0,0,0.5126515096053481,None,92.81817439990118,None,95.96841119998135,97.47070350009017,97.50399100012146,98.46834359993227,98.50394610012881,99.45707149989903,99.45707149989903,None,2,1.9046697998419404,100.75736270006746,None,ScrollUp,정답입니다,100.75736270006746,None,100.75736270006746,None,100.75736270006746,None,100.75736270006746,None,102.36812920006923,None,102.36812920006923,102.86818740004674,,,,,,,,,,,,,,,,,,,,,,,,,,,,,,,,,,,,,,,,,,,,,,,,,034,2022-06-01_18h07.39.709,FishGame,2022.1.1,61.173378803564795,
,2,넌 슬기로워,2,Green,A,6.166666666666667,4.1,ScrollDown,ScrollUp,Green.png,practice,,,,,,,0,0,0,0,,,,,0,0,0,0,0,1,1,1,,,,,,,,,,,,,,,,,,,,,,,,,,,,,,,,,,,,,,,,,,,,,,,,,,,,1,1.427941899979487,103.48922819993459,None,ScrollDown,정답입니다,103.48922819993459,None,103.48922819993459,None,103.48922819993459,None,103.48922819993459,None,104.81813909998164,None,104.81813909998164,105.32030000002123,,,,,,,,,,,,,,,,,,,,,,,,,,,,,,,,,,,,,,,,,,,,,,,,,034,2022-06-01_18h07.39.709,FishGame,2022.1.1,61.173378803564795,
,3,나를 보내줘,6,Green,A,0,0,ScrollUp,ScrollDown,Green.png,practice,,,,,,,0,0,0,0,,,,,0,0,0,0,0,2,2,2,,,,,,,,,,,,,,,,,,,,,,,,,,,,,,,,,,,,,,,,,,,,,,,,,,,,2,1.261230800068006,105.93869929993525,None,ScrollUp,정답입니다,105.93869929993525,None,105.93869929993525,None,105.93869929993525,None,105.93869929993525,None,107.10134349996224,None,107.10134349996224,107.60354829998687,,,,,,,,,,,,,,,,,,,,,,,,,,,,,,,,,,,,,,,,,,,,,,,,,034,2022-06-01_18h07.39.709,FishGame,2022.1.1,61.173378803564795,
,4,나를 데려가줘,6,Orange,B,0,0,ScrollDown,ScrollUp,Orange.png,practice,,,,,,,0,0,0,0,,,,,0,0,0,0,0,3,3,3,,,,,,,,,,,,,,,,,,,,,,,,,,,,,,,,,,,,,,,,,,,,,,,,,,,,1,1.444488399894908,108.22719240002334,None,ScrollDown,정답입니다,108.22719240002334,None,108.22719240002334,None,108.22719240002334,None,108.22719240002334,None,109.56807980011217,None,109.56807980011217,110.07030209992081,,,,,,,,,,,,,,,,,,,,,,,,,,,,,,,,,,,,,,,,,,,,,,,,,034,2022-06-01_18h07.39.709,FishGame,2022.1.1,61.173378803564795,
,1,넌 교활해,5,Orange,B,2.333333333333333,2.133333333333333,ScrollUp,ScrollDown,Orange.png,practice,,,,,,,0,0,0,0,,,,,0,0,0,0,,,,,,,,,,,,,,,,,,,,,,,,,,,,,,,,,,,,,,,,,,,,,,,,,,,,,,,,,,,,,,,,,,,,,,,,,,n,7.680803600000218,110.57026379997842,None,110.57026379997842,None,,,,,,,,,,,,,,,,,,,,,,,,,,,,,,,,,,,,,,,,,,,034,2022-06-01_18h07.39.709,FishGame,2022.1.1,61.173378803564795,
,1,넌 따뜻해,1,Orange,B,6.083333333333333,5.6,ScrollUp,ScrollDown,Orange.png,1,Positive,Incongruent,,,,,0,0,0,0,,,,,,,,,,,,,0,0,0,0,,,,,,,,,,,,,,,,,,,,,,,,,,,,,,,,,,,,,,,,119.9396786999423,121.45345779997297,121.46785299992189,122.41780870012008,122.47017040010542,123.43688259995542,123.42012570006773,None,,,,,,,,,,,,,,,,,,,,,,,,,0.011111111,-0.12407407,1,0,0,0.3136316097807139,None,118.26787109998986,None,2,1.6802271001506597,124.72697399999015,None,ScrollUp,정답입니다,124.72697399999015,None,124.72697399999015,None,124.72697399999015,None,124.72697399999015,None,126.10079910000786,None,126.10079910000786,126.60103920008987,,,,,,,,,,,,,,,,034,2022-06-01_18h07.39.709,FishGame,2022.1.1,61.173378803564795,
,2,넌 기품있어,2,Orange,B,5.791666666666668,4.5,ScrollUp,ScrollDown,Orange.png,1,Positive,Incongruent,,,,,0,0,0,0,,,,,,,,,,,,,0,1,1,1,,,,,,,,,,,,,,,,,,,,,,,,,,,,,,,,,,,,,,,,,,,,,,,,,,,,,,,,,,,,,,,,,,,,,,,,,,,,,,,,,2,1.210856799967587,127.23420420009643,None,ScrollUp,정답입니다,127.23420420009643,None,127.23420420009643,None,127.23420420009643,None,127.23420420009643,None,128.33428780012764,None,128.33428780012764,128.83649799996056,,,,,,,,,,,,,,,,034,2022-06-01_18h07.39.709,FishGame,2022.1.1,61.173378803564795,
,3,나를 보내줘,6,Green,A,0,0,ScrollUp,ScrollDown,Green.png,1,NonTarget,NonTarget,,,,,0,0,0,0,,,,,,,,,,,,,0,2,2,2,,,,,,,,,,,,,,,,,,,,,,,,,,,,,,,,,,,,,,,,,,,,,,,,,,,,,,,,,,,,,,,,,,,,,,,,,,,,,,,,,2,1.4453290000092238,129.46279629995115,None,ScrollUp,정답입니다,129.46279629995115,None,129.46279629995115,None,129.46279629995115,None,129.46279629995115,None,130.80093579995446,None,130.80093579995446,131.30100800003856,,,,,,,,,,,,,,,,034,2022-06-01_18h07.39.709,FishGame,2022.1.1,61.173378803564795,
,4,넌 수동적이야,4,Green,A,2.833333333333333,2.933333333333333,ScrollDown,ScrollUp,Green.png,1,Negative,Incongruent,,,,,0,0,0,0,,,,,,,,,,,,,0,3,3,3,,,,,,,,,,,,,,,,,,,,,,,,,,,,,,,,,,,,,,,,,,,,,,,,,,,,,,,,,,,,,,,,,,,,,,,,,,,,,,,,,1,1.4423289000988007,131.9341831000056,None,ScrollDown,정답입니다,131.9341831000056,None,131.9341831000056,None,131.9341831000056,None,131.9341831000056,None,133.26751179993153,None,133.26751179993153,133.76766199991107,,,,,,,,,,,,,,,,034,2022-06-01_18h07.39.709,FishGame,2022.1.1,61.173378803564795,
,5,넌 사심이 없어,3,Orange,B,4.916666666666666,4.333333333333333,ScrollUp,ScrollDown,Orange.png,1,Neutral,Neutral,,,,,0,0,0,0,,,,,,,,,,,,,0,4,4,4,,,,,,,,,,,,,,,,,,,,,,,,,,,,,,,,,,,,,,,,,,,,,,,,,,,,,,,,,,,,,,,,,,,,,,,,,,,,,,,,,2,1.0973829999566078,134.40036540012807,None,ScrollUp,정답입니다,134.40036540012807,None,134.40036540012807,None,134.40036540012807,None,134.40036540012807,None,135.38637760002166,None,135.38637760002166,135.9008975001052,,,,,,,,,,,,,,,,034,2022-06-01_18h07.39.709,FishGame,2022.1.1,61.173378803564795,
,6,넌 헤퍼,5,Green,A,2.458333333333334,2.233333333333333,ScrollDown,ScrollUp,Green.png,1,Negative,Incongruent,,,,,0,0,0,0,,,,,,,,,,,,,0,5,5,5,,,,,,,,,,,,,,,,,,,,,,,,,,,,,,,,,,,,,,,,,,,,,,,,,,,,,,,,,,,,,,,,,,,,,,,,,,,,,,,,,1,1.542198499897495,136.50958650000393,None,ScrollDown,정답입니다,136.50958650000393,None,136.50958650000393,None,136.50958650000393,None,136.50958650000393,None,137.95075440010987,None,137.95075440010987,138.4508243999444,,,,,,,,,,,,,,,,034,2022-06-01_18h07.39.709,FishGame,2022.1.1,61.173378803564795,
,7,넌 말쑥해,3,Green,A,4.833333333333334,4.333333333333333,ScrollDown,ScrollUp,Green.png,1,Neutral,Neutral,,,,,0,0,0,0,,,,,,,,,,,,,0,6,6,6,,,,,,,,,,,,,,,,,,,,,,,,,,,,,,,,,,,,,,,,,,,,,,,,,,,,,,,,,,,,,,,,,,,,,,,,,,,,,,,,,1,1.1266072001308203,139.07449589995667,None,ScrollDown,정답입니다,139.07449589995667,None,139.07449589995667,None,139.07449589995667,None,139.07449589995667,None,140.10077219991945,None,140.10077219991945,140.6008544000797,,,,,,,,,,,,,,,,034,2022-06-01_18h07.39.709,FishGame,2022.1.1,61.173378803564795,
,8,넌 투덜거려,5,Orange,B,2.541666666666667,2.266666666666667,ScrollUp,ScrollDown,Orange.png,1,Negative,Congruent,,,,,0,0,0,0,,,,,,,,,,,,,0,7,7,7,,,,,,,,,,,,,,,,,,,,,,,,,,,,,,,,,,,,,,,,,,,,,,,,,,,,,,,,,,,,,,,,,,,,,,,,,,,,,,,,,2,1.2590441000647843,141.23501110007055,None,ScrollUp,정답입니다,141.23501110007055,None,141.23501110007055,None,141.23501110007055,None,141.23501110007055,None,142.38398519996554,None,142.38398519996554,142.88405789993703,,,,,,,,,,,,,,,,034,2022-06-01_18h07.39.709,FishGame,2022.1.1,61.173378803564795,
,9,넌 적극적이야,1,Green,A,5.708333333333333,5.533333333333333,ScrollDown,ScrollUp,Green.png,1,Positive,Congruent,,,,,0,0,0,0,,,,,,,,,,,,,0,8,8,8,,,,,,,,,,,,,,,,,,,,,,,,,,,,,,,,,,,,,,,,,,,,,,,,,,,,,,,,,,,,,,,,,,,,,,,,,,,,,,,,,1,0.9783050999976695,143.50839390000328,None,ScrollDown,정답입니다,143.50839390000328,None,143.50839390000328,None,143.50839390000328,None,143.50839390000328,None,144.38398599997163,None,144.38398599997163,144.88405869994313,,,,,,,,,,,,,,,,034,2022-06-01_18h07.39.709,FishGame,2022.1.1,61.173378803564795,
,10,넌 재미없어,4,Orange,B,2.625,2.966666666666667,ScrollUp,ScrollDown,Orange.png,1,Negative,Congruent,,,,,0,0,0,0,,,,,,,,,,,,,0,9,9,9,,,,,,,,,,,,,,,,,,,,,,,,,,,,,,,,,,,,,,,,,,,,,,,,,,,,,,,,,,,,,,,,,,,,,,,,,,,,,,,,,2,1.0923130000010133,145.5115177000407,None,ScrollUp,정답입니다,145.5115177000407,None,145.5115177000407,None,145.5115177000407,None,145.5115177000407,None,146.50284119998105,None,146.50284119998105,147.00292219989933,,,,,,,,,,,,,,,,034,2022-06-01_18h07.39.709,FishGame,2022.1.1,61.173378803564795,
,11,넌 명석해,2,Green,A,5.875,4.033333333333333,ScrollDown,ScrollUp,Green.png,1,Positive,Congruent,,,,,0,0,0,0,,,,,,,,,,,,,0,10,10,10,,,,,,,,,,,,,,,,,,,,,,,,,,,,,,,,,,,,,,,,,,,,,,,,,,,,,,,,,,,,,,,,,,,,,,,,,,,,,,,,,1.0138889054457347,1.0920949999708682,147.6297311000526,None,ScrollDown,정답입니다,147.6297311000526,None,147.6297311000526,None,147.6297311000526,None,147.6297311000526,None,148.61694650002755,None,148.61694650002755,149.1170284000691,,,,,,,,,,,,,,,,034,2022-06-01_18h07.39.709,FishGame,2022.1.1,61.173378803564795,
,12,나를 데려가줘,6,Orange,B,0,0,ScrollDown,ScrollUp,Orange.png,1,NonTarget,NonTarget,,,,,0,0,0,0,,,,,,,,,,,,,0,11,11,11,,,,,,,,,,,,,,,,,,,,,,,,,,,,,,,,,,,,,,,,,,,,,,,,,,,,,,,,,,,,,,,,,,,,,,,,,,,,,,,,,1,1.1447309001814574,149.74300960008986,None,ScrollDown,정답입니다,149.74300960008986,None,149.74300960008986,None,149.74300960008986,None,149.74300960008986,None,150.7862486001104,None,150.7862486001104,151.28618260007352,,,,,,,,,,,,,,,,034,2022-06-01_18h07.39.709,FishGame,2022.1.1,61.173378803564795,
,13,넌 소심해,4,Green,A,3,3.1,ScrollDown,ScrollUp,Green.png,1,Negative,Incongruent,,,,,0,0,0,0,,,,,,,,,,,,,0,12,12,12,,,,,,,,,,,,,,,,,,,,,,,,,,,,,,,,,,,,,,,,,,,,,,,,,,,,,,,,,,,,,,,,,,,,,,,,,,,,,,,,,1,1.4605507000815123,151.9212414000649,None,ScrollDown,정답입니다,151.9212414000649,None,151.9212414000649,None,151.9212414000649,None,151.9212414000649,None,153.2671374999918,None,153.2671374999918,153.76728349993937,,,,,,,,,,,,,,,,034,2022-06-01_18h07.39.709,FishGame,2022.1.1,61.173378803564795,
,14,넌 합리적이야,2,Green,A,5.583333333333333,4.733333333333333,ScrollDown,ScrollUp,Green.png,1,Positive,Congruent,,,,,0,0,0,0,,,,,,,,,,,,,0,13,13,13,,,,,,,,,,,,,,,,,,,,,,,,,,,,,,,,,,,,,,,,,,,,,,,,,,,,,,,,,,,,,,,,,,,,,,,,,,,,,,,,,1,0.997593600070104,154.389848300023,None,ScrollDown,정답입니다,154.389848300023,None,154.389848300023,None,154.389848300023,None,154.389848300023,None,155.28372070007026,None,155.28372070007026,155.78378619998693,,,,,,,,,,,,,,,,034,2022-06-01_18h07.39.709,FishGame,2022.1.1,61.173378803564795,
,15,넌 무자비해,5,Orange,B,2.333333333333333,2.1,ScrollUp,ScrollDown,Orange.png,1,Negative,Congruent,,,,,0,0,0,0,,,,,,,,,,,,,0,14,14,14,,,,,,,,,,,,,,,,,,,,,,,,,,,,,,,,,,,,,,,,,,,,,,,,,,,,,,,,,,,,,,,,,,,,,,,,,,,,,,,,,2,0.9781037999782711,156.41356300003827,None,ScrollUp,정답입니다,156.41356300003827,None,156.41356300003827,None,156.41356300003827,None,156.41356300003827,None,157.28372770012356,None,157.28372770012356,157.78593829995953,,,,,,,,,,,,,,,,034,2022-06-01_18h07.39.709,FishGame,2022.1.1,61.173378803564795,
,16,나를 보내줘,6,Green,A,0,0,ScrollUp,ScrollDown,Green.png,1,NonTarget,NonTarget,,,,,0,0,0,0,,,,,,,,,,,,,0,15,15,15,,,,,,,,,,,,,,,,,,,,,,,,,,,,,,,,,,,,,,,,,,,,,,,,,,,,,,,,,,,,,,,,,,,,,,,,,,,,,,,,,2,1.2922628000378609,158.40558989997953,None,ScrollUp,정답입니다,158.40558989997953,None,158.40558989997953,None,158.40558989997953,None,158.40558989997953,None,159.600398800103,None,159.600398800103,160.10263140010647,,,,,,,,,,,,,,,,034,2022-06-01_18h07.39.709,FishGame,2022.1.1,61.173378803564795,
,17,넌 현실적이야,3,Orange,B,4.608695652173913,4.766666666666667,ScrollUp,ScrollDown,Orange.png,1,Neutral,Neutral,,,,,0,0,0,0,,,,,,,,,,,,,0,16,16,16,,,,,,,,,,,,,,,,,,,,,,,,,,,,,,,,,,,,,,,,,,,,,,,,,,,,,,,,,,,,,,,,,,,,,,,,,,,,,,,,,2,1.4263103001285344,160.72917239996605,None,ScrollUp,정답입니다,160.72917239996605,None,160.72917239996605,None,160.72917239996605,None,160.72917239996605,None,162.05026339995675,None,162.05026339995675,162.55032539996319,,,,,,,,,,,,,,,,034,2022-06-01_18h07.39.709,FishGame,2022.1.1,61.173378803564795,
,18,넌 의리있어,1,Orange,B,5.833333333333334,5.633333333333334,ScrollUp,ScrollDown,Orange.png,1,Positive,Incongruent,,,,,0,0,0,0,,,,,,,,,,,,,0,17,17,17,,,,,,,,,,,,,,,,,,,,,,,,,,,,,,,,,,,,,,,,,,,,,,,,,,,,,,,,,,,,,,,,,,,,,,,,,,,,,,,,,2,0.9927039998583496,163.17811540002003,None,ScrollUp,정답입니다,163.17811540002003,None,163.17811540002003,None,163.17811540002003,None,163.17811540002003,None,164.06697869999334,None,164.06697869999334,164.56700069992803,,,,,,,,,,,,,,,,034,2022-06-01_18h07.39.709,FishGame,2022.1.1,61.173378803564795,
,19,넌 신경과민이야,5,Green,A,2.541666666666667,2.166666666666667,ScrollDown,ScrollUp,Green.png,1,Negative,Incongruent,,,,,0,0,0,0,,,,,,,,,,,,,0,18,18,18,,,,,,,,,,,,,,,,,,,,,,,,,,,,,,,,,,,,,,,,,,,,,,,,,,,,,,,,,,,,,,,,,,,,,,,,,,,,,,,,,1,0.9453413998708129,165.19341520010494,None,ScrollDown,정답입니다,165.19341520010494,None,165.19341520010494,None,165.19341520010494,None,165.19341520010494,None,166.03350859996863,None,166.03350859996863,166.53358749998733,,,,,,,,,,,,,,,,034,2022-06-01_18h07.39.709,FishGame,2022.1.1,61.173378803564795,
,20,넌 편안해,1,Green,A,5.916666666666666,5.866666666666666,ScrollDown,ScrollUp,Green.png,1,Positive,Congruent,,,,,0,0,0,0,,,,,,,,,,,,,0,19,19,19,,,,,,,,,,,,,,,,,,,,,,,,,,,,,,,,,,,,,,,,,,,,,,,,,,,,,,,,,,,,,,,,,,,,,,,,,,,,,,,,,1,0.9785783002153039,167.156312600011,None,ScrollDown,정답입니다,167.156312600011,None,167.156312600011,None,167.156312600011,None,167.156312600011,None,168.03359010000713,None,168.03359010000713,168.53357840003446,,,,,,,,,,,,,,,,034,2022-06-01_18h07.39.709,FishGame,2022.1.1,61.173378803564795,
,21,넌 품위있어,2,Orange,B,5.291666666666666,4.466666666666667,ScrollUp,ScrollDown,Orange.png,1,Positive,Incongruent,,,,,0,0,0,0,,,,,,,,,,,,,0,20,20,20,,,,,,,,,,,,,,,,,,,,,,,,,,,,,,,,,,,,,,,,,,,,,,,,,,,,,,,,,,,,,,,,,,,,,,,,,,,,,,,,,2,1.0590043999254704,169.16284639993683,None,ScrollUp,정답입니다,169.16284639993683,None,169.16284639993683,None,169.16284639993683,None,169.16284639993683,None,170.1167693999596,None,170.1167693999596,170.6189673000481,,,,,,,,,,,,,,,,034,2022-06-01_18h07.39.709,FishGame,2022.1.1,61.173378803564795,
,22,넌 빈틈없어,3,Green,A,4.833333333333333,3.966666666666667,ScrollDown,ScrollUp,Green.png,1,Neutral,Neutral,,,,,0,0,0,0,,,,,,,,,,,,,0,21,21,21,,,,,,,,,,,,,,,,,,,,,,,,,,,,,,,,,,,,,,,,,,,,,,,,,,,,,,,,,,,,,,,,,,,,,,,,,,,,,,,,,1,0.9926914998795837,171.2451238001231,None,ScrollDown,정답입니다,171.2451238001231,None,171.2451238001231,None,171.2451238001231,None,171.2451238001231,None,172.1334309000522,None,172.1334309000522,172.6334979000967,,,,,,,,,,,,,,,,034,2022-06-01_18h07.39.709,FishGame,2022.1.1,61.173378803564795,
,23,넌 상상력없어,4,Orange,B,2.833333333333333,3.133333333333333,ScrollUp,ScrollDown,Orange.png,1,Negative,Congruent,,,,,0,0,0,0,,,,,,,,,,,,,0,22,22,22,,,,,,,,,,,,,,,,,,,,,,,,,,,,,,,,,,,,,,,,,,,,,,,,,,,,,,,,,,,,,,,,,,,,,,,,,,,,,,,,,1.9768518606821697,0.9090581000782549,173.261939200107,None,ScrollUp,정답입니다,173.261939200107,None,173.261939200107,None,173.261939200107,None,173.261939200107,None,174.0667362001259,None,174.0667362001259,174.56896540010348,,,,,,,,,,,,,,,,034,2022-06-01_18h07.39.709,FishGame,2022.1.1,61.173378803564795,
,24,넌 지혜로워,2,Orange,B,6.333333333333334,4.633333333333334,ScrollUp,ScrollDown,Orange.png,1,Positive,Incongruent,,,,,0,0,0,0,,,,,,,,,,,,,0,23,23,23,,,,,,,,,,,,,,,,,,,,,,,,,,,,,,,,,,,,,,,,,,,,,,,,,,,,,,,,,,,,,,,,,,,,,,,,,,,,,,,,,2,0.9089702998753637,175.20618250011466,None,ScrollUp,정답입니다,175.20618250011466,None,175.20618250011466,None,175.20618250011466,None,175.20618250011466,None,176.00006560003385,None,176.00006560003385,176.50007500010543,,,,,,,,,,,,,,,,034,2022-06-01_18h07.39.709,FishGame,2022.1.1,61.173378803564795,
,25,넌 시끄러워,4,Green,A,2.833333333333333,3.033333333333333,ScrollDown,ScrollUp,Green.png,1,Negative,Incongruent,,,,,0,0,0,0,,,,,,,,,,,,,0,24,24,24,,,,,,,,,,,,,,,,,,,,,,,,,,,,,,,,,,,,,,,,,,,,,,,,,,,,,,,,,,,,,,,,,,,,,,,,,,,,,,,,,1.0524691541989644,1.0779969999566674,177.1279146000743,None,ScrollDown,정답입니다,177.1279146000743,None,177.1279146000743,None,177.1279146000743,None,177.1279146000743,None,178.10002049989998,None,178.10002049989998,178.6053697001189,,,,,,,,,,,,,,,,034,2022-06-01_18h07.39.709,FishGame,2022.1.1,61.173378803564795,
,26,넌 만사태평이야,3,Orange,B,4,4.333333333333333,ScrollUp,ScrollDown,Orange.png,1,Neutral,Neutral,,,,,0,0,0,0,,,,,,,,,,,,,0,25,25,25,,,,,,,,,,,,,,,,,,,,,,,,,,,,,,,,,,,,,,,,,,,,,,,,,,,,,,,,,,,,,,,,,,,,,,,,,,,,,,,,,1.9814815024534862,0.9946257001720369,179.23740689991973,None,ScrollUp,정답입니다,179.23740689991973,None,179.23740689991973,None,179.23740689991973,None,179.23740689991973,None,180.1165865000803,None,180.1165865000803,180.61672060005367,,,,,,,,,,,,,,,,034,2022-06-01_18h07.39.709,FishGame,2022.1.1,61.173378803564795,
,27,넌 붙임성있어,1,Green,A,5.708333333333333,5.633333333333334,ScrollDown,ScrollUp,Green.png,1,Positive,Congruent,,,,,0,0,0,0,,,,,,,,,,,,,0,26,26,26,,,,,,,,,,,,,,,,,,,,,,,,,,,,,,,,,,,,,,,,,,,,,,,,,,,,,,,,,,,,,,,,,,,,,,,,,,,,,,,,,1.0339506367842357,0.9434458999894559,181.2423735000193,None,ScrollDown,정답입니다,181.2423735000193,None,181.2423735000193,None,181.2423735000193,None,181.2423735000193,None,182.0832893999759,None,182.0832893999759,182.58554810006171,,,,,,,,,,,,,,,,034,2022-06-01_18h07.39.709,FishGame,2022.1.1,61.173378803564795,
,28,넌 영리해,2,Green,A,6,4.033333333333333,ScrollDown,ScrollUp,Green.png,1,Positive,Congruent,,,,,0,0,0,0,,,,,,,,,,,,,0,27,27,27,,,,,,,,,,,,,,,,,,,,,,,,,,,,,,,,,,,,,,,,,,,,,,,,,,,,,,,,,,,,,,,,,,,,,,,,,,,,,,,,,1.0493827263514202,1.0105832000263035,183.2112797999289,None,ScrollDown,정답입니다,183.2112797999289,None,183.2112797999289,None,183.2112797999289,None,183.2112797999289,None,184.1162869001273,None,184.1162869001273,184.61633069999516,,,,,,,,,,,,,,,,034,2022-06-01_18h07.39.709,FishGame,2022.1.1,61.173378803564795,
,29,넌 열심이야,1,Orange,B,6.041666666666667,5.833333333333333,ScrollUp,ScrollDown,Orange.png,1,Positive,Incongruent,,,,,0,0,0,0,,,,,,,,,,,,,0,28,28,28,,,,,,,,,,,,,,,,,,,,,,,,,,,,,,,,,,,,,,,,,,,,,,,,,,,,,,,,,,,,,,,,,,,,,,,,,,,,,,,,,2,1.061604700051248,185.2437166001182,None,ScrollUp,정답입니다,185.2437166001182,None,185.2437166001182,None,185.2437166001182,None,185.2437166001182,None,186.20225559989922,None,186.20225559989922,186.70216210000217,,,,,,,,,,,,,,,,034,2022-06-01_18h07.39.709,FishGame,2022.1.1,61.173378803564795,
,30,넌 인기없어,4,Orange,B,3,3.3,ScrollUp,ScrollDown,Orange.png,1,Negative,Congruent,,,,,0,0,0,0,,,,,,,,,,,,,0,29,29,29,,,,,,,,,,,,,,,,,,,,,,,,,,,,,,,,,,,,,,,,,,,,,,,,,,,,,,,,,,,,,,,,,,,,,,,,,,,,,,,,,1.9953703780968983,0.8424747998360544,187.32862689998,None,ScrollUp,정답입니다,187.32862689998,None,187.32862689998,None,187.32862689998,None,187.32862689998,None,188.06691189995036,None,188.06691189995036,188.56659030006267,,,,,,,,,,,,,,,,034,2022-06-01_18h07.39.709,FishGame,2022.1.1,61.173378803564795,
,31,넌 익살스러워,3,Green,A,4.708333333333334,4.833333333333333,ScrollDown,ScrollUp,Green.png,1,Neutral,Neutral,,,,,0,0,0,0,,,,,,,,,,,,,0,30,30,30,,,,,,,,,,,,,,,,,,,,,,,,,,,,,,,,,,,,,,,,,,,,,,,,,,,,,,,,,,,,,,,,,,,,,,,,,,,,,,,,,1.1589506169160206,0.8932588999159634,189.19133009994403,None,ScrollDown,정답입니다,189.19133009994403,None,189.19133009994403,None,189.19133009994403,None,189.19133009994403,None,189.983081900049,None,189.983081900049,190.48317130003124,,,,,,,,,,,,,,,,034,2022-06-01_18h07.39.709,FishGame,2022.1.1,61.173378803564795,
,32,넌 이기적이야,5,Orange,B,2.291666666666667,2.333333333333333,ScrollUp,ScrollDown,Orange.png,1,Negative,Congruent,,,,,0,0,0,0,,,,,,,,,,,,,0,31,31,31,,,,,,,,,,,,,,,,,,,,,,,,,,,,,,,,,,,,,,,,,,,,,,,,,,,,,,,,,,,,,,,,,,,,,,,,,,,,,,,,,1.9614197711149852,0.9923125999048352,191.1115786000155,None,ScrollUp,정답입니다,191.1115786000155,None,191.1115786000155,None,191.1115786000155,None,191.1115786000155,None,191.99968610005453,None,191.99968610005453,192.49972310010344,,,,,,,,,,,,,,,,034,2022-06-01_18h07.39.709,FishGame,2022.1.1,61.173378803564795,
,33,나를 데려가줘,6,Orange,B,0,0,ScrollDown,ScrollUp,Orange.png,1,NonTarget,NonTarget,,,,,0,0,0,0,,,,,,,,,,,,,0,32,32,32,,,,,,,,,,,,,,,,,,,,,,,,,,,,,,,,,,,,,,,,,,,,,,,,,,,,,,,,,,,,,,,,,,,,,,,,,,,,,,,,,1.1651234477758408,1.0280972002074122,193.126185500063,None,ScrollDown,정답입니다,193.126185500063,None,193.126185500063,None,193.126185500063,None,193.126185500063,None,194.04969049990177,None,194.04969049990177,194.5519523001276,,,,,,,,,,,,,,,,034,2022-06-01_18h07.39.709,FishGame,2022.1.1,61.173378803564795,
,34,넌 기회주의자야,5,Green,A,2.875,2.133333333333333,ScrollDown,ScrollUp,Green.png,1,Negative,Incongruent,,,,,0,0,0,0,,,,,,,,,,,,,0,33,33,33,,,,,,,,,,,,,,,,,,,,,,,,,,,,,,,,,,,,,,,,,,,,,,,,,,,,,,,,,,,,,,,,,,,,,,,,,,,,,,,,,1.1543209999799728,0.9260541000403464,195.17532219993882,None,ScrollDown,정답입니다,195.17532219993882,None,195.17532219993882,None,195.17532219993882,None,195.17532219993882,None,195.99958529998548,None,195.99958529998548,196.5017923999112,,,,,,,,,,,,,,,,034,2022-06-01_18h07.39.709,FishGame,2022.1.1,61.173378803564795,
,1,넌 미성숙해,4,Green,A,3,3.2,ScrollDown,ScrollUp,Green.png,2,Negative,Incongruent,,,,,0,0,0,0,,,,,,,,,,,,,,,,,0,0,0,0,,,,,,,,,,,,,,,,,,,,,,,,,,,,,,,,,,,,229.68229250004515,231.1823352999054,231.21804210008122,232.18468030006625,232.21798219997436,233.16556999995373,233.16556999995373,None,,,,,,,,,,,,,,,,,,,,,,,,,,,,,,,,,,1.0586419602235158,0.893960899906233,234.27996780001558,None,ScrollDown,정답입니다,234.27996780001558,None,234.27996780001558,None,234.27996780001558,None,234.27996780001558,None,235.06773469992913,None,235.06773469992913,235.58223740011454,196.99956679996103,None,196.99956679996103,None,0.08611111,-0.097222224,1,0,0,0.016109109856188297,None,226.99904559995048,None,,,034,2022-06-01_18h07.39.709,FishGame,2022.1.1,61.173378803564795,
,2,넌 반사회적이야,5,Orange,B,2.416666666666667,2.033333333333333,ScrollUp,ScrollDown,Orange.png,2,Negative,Congruent,,,,,0,0,0,0,,,,,,,,,,,,,,,,,0,1,1,1,,,,,,,,,,,,,,,,,,,,,,,,,,,,,,,,,,,,,,,,,,,,,,,,,,,,,,,,,,,,,,,,,,,,,,,,,,,,,1.9413580397764842,1.0090563998091966,236.2000392000191,None,ScrollUp,정답입니다,236.2000392000191,None,236.2000392000191,None,236.2000392000191,None,236.2000392000191,None,237.0988428001292,None,237.0988428001292,237.59884290001355,,,,,,,,,,,,,,,,034,2022-06-01_18h07.39.709,FishGame,2022.1.1,61.173378803564795,
,3,넌 유능해,2,Green,A,6.208333333333333,4.433333333333334,ScrollDown,ScrollUp,Green.png,2,Positive,Congruent,,,,,0,0,0,0,,,,,,,,,,,,,,,,,0,2,2,2,,,,,,,,,,,,,,,,,,,,,,,,,,,,,,,,,,,,,,,,,,,,,,,,,,,,,,,,,,,,,,,,,,,,,,,,,,,,,1.0740740497907002,0.8780072000809014,238.22319100005552,None,ScrollDown,정답입니다,238.22319100005552,None,238.22319100005552,None,238.22319100005552,None,238.22319100005552,None,238.99878100003116,None,238.99878100003116,239.50105560012162,,,,,,,,,,,,,,,,034,2022-06-01_18h07.39.709,FishGame,2022.1.1,61.173378803564795,
,4,넌 능숙해,2,Orange,B,5.666666666666667,4.733333333333333,ScrollUp,ScrollDown,Orange.png,2,Positive,Incongruent,,,,,0,0,0,0,,,,,,,,,,,,,,,,,0,3,3,3,,,,,,,,,,,,,,,,,,,,,,,,,,,,,,,,,,,,,,,,,,,,,,,,,,,,,,,,,,,,,,,,,,,,,,,,,,,,,1.8487654278675716,1.10914870002307,240.1252286999952,None,ScrollUp,정답입니다,240.1252286999952,None,240.1252286999952,None,240.1252286999952,None,240.1252286999952,None,241.1320158999879,None,241.1320158999879,241.6320815999061,,,,,,,,,,,,,,,,034,2022-06-01_18h07.39.709,FishGame,2022.1.1,61.173378803564795,
,5,넌 진부해,4,Orange,B,2.458333333333333,3.166666666666667,ScrollUp,ScrollDown,Orange.png,2,Negative,Congruent,,,,,0,0,0,0,,,,,,,,,,,,,,,,,0,4,4,4,,,,,,,,,,,,,,,,,,,,,,,,,,,,,,,,,,,,,,,,,,,,,,,,,,,,,,,,,,,,,,,,,,,,,,,,,,,,,1.7762345721324284,0.8947147999424487,242.2654844999779,None,ScrollUp,정답입니다,242.2654844999779,None,242.2654844999779,None,242.2654844999779,None,242.2654844999779,None,243.0486721000634,None,243.0486721000634,243.54875140008517,,,,,,,,,,,,,,,,034,2022-06-01_18h07.39.709,FishGame,2022.1.1,61.173378803564795,
,6,나를 보내줘,6,Green,A,0,0,ScrollUp,ScrollDown,Green.png,2,NonTarget,NonTarget,,,,,0,0,0,0,,,,,,,,,,,,,,,,,0,5,5,5,,,,,,,,,,,,,,,,,,,,,,,,,,,,,,,,,,,,,,,,,,,,,,,,,,,,,,,,,,,,,,,,,,,,,,,,,,,,,1.7700617164373398,1.0260047998744994,244.17310280003585,None,ScrollUp,정답입니다,244.17310280003585,None,244.17310280003585,None,244.17310280003585,None,244.17310280003585,None,245.09867760003544,None,245.09867760003544,245.6009563000407,,,,,,,,,,,,,,,,034,2022-06-01_18h07.39.709,FishGame,2022.1.1,61.173378803564795,
,7,넌 엄격해,3,Green,A,4.166666666666666,4.1,ScrollDown,ScrollUp,Green.png,2,Neutral,Neutral,,,,,0,0,0,0,,,,,,,,,,,,,,,,,0,6,6,6,,,,,,,,,,,,,,,,,,,,,,,,,,,,,,,,,,,,,,,,,,,,,,,,,,,,,,,,,,,,,,,,,,,,,,,,,,,,,1.1682098756233852,0.9781561999116093,246.22073750011623,None,ScrollDown,정답입니다,246.22073750011623,None,246.22073750011623,None,246.22073750011623,None,246.22073750011623,None,247.09855649992824,None,247.09855649992824,247.5986363000702,,,,,,,,,,,,,,,,034,2022-06-01_18h07.39.709,FishGame,2022.1.1,61.173378803564795,
,8,나를 보내줘,6,Green,A,0,0,ScrollUp,ScrollDown,Green.png,2,NonTarget,NonTarget,,,,,0,0,0,0,,,,,,,,,,,,,,,,,0,7,7,7,,,,,,,,,,,,,,,,,,,,,,,,,,,,,,,,,,,,,,,,,,,,,,,,,,,,,,,,,,,,,,,,,,,,,,,,,,,,,1.7793209999799728,1.009412799961865,248.22179639991373,None,ScrollUp,정답입니다,248.22179639991373,None,248.22179639991373,None,248.22179639991373,None,248.22179639991373,None,249.13416619994678,None,249.13416619994678,249.64863350009546,,,,,,,,,,,,,,,,034,2022-06-01_18h07.39.709,FishGame,2022.1.1,61.173378803564795,
,9,넌 대담해,3,Orange,B,4.875,4.866666666666666,ScrollUp,ScrollDown,Orange.png,2,Neutral,Neutral,,,,,0,0,0,0,,,,,,,,,,,,,,,,,0,8,8,8,,,,,,,,,,,,,,,,,,,,,,,,,,,,,,,,,,,,,,,,,,,,,,,,,,,,,,,,,,,,,,,,,,,,,,,,,,,,,1.7947530895471573,0.8075587002094835,250.25781890004873,None,ScrollUp,정답입니다,250.25781890004873,None,250.25781890004873,None,250.25781890004873,None,250.25781890004873,None,250.96048250002787,None,250.96048250002787,251.46499240002595,,,,,,,,,,,,,,,,034,2022-06-01_18h07.39.709,FishGame,2022.1.1,61.173378803564795,
,10,넌 꾸준해,1,Green,A,5.916666666666668,5.8,ScrollDown,ScrollUp,Green.png,2,Positive,Congruent,,,,,0,0,0,0,,,,,,,,,,,,,,,,,0,9,9,9,,,,,,,,,,,,,,,,,,,,,,,,,,,,,,,,,,,,,,,,,,,,,,,,,,,,,,,,,,,,,,,,,,,,,,,,,,,,,1.1867283930381138,0.9780201001558453,252.09324380010366,None,ScrollDown,정답입니다,252.09324380010366,None,252.09324380010366,None,252.09324380010366,None,252.09324380010366,None,252.96493589994498,None,252.96493589994498,253.46753229992464,,,,,,,,,,,,,,,,034,2022-06-01_18h07.39.709,FishGame,2022.1.1,61.173378803564795,
,11,나를 데려가줘,6,Orange,B,0,0,ScrollDown,ScrollUp,Orange.png,2,NonTarget,NonTarget,,,,,0,0,0,0,,,,,,,,,,,,,,,,,0,10,10,10,,,,,,,,,,,,,,,,,,,,,,,,,,,,,,,,,,,,,,,,,,,,,,,,,,,,,,,,,,,,,,,,,,,,,,,,,,,,,1.1018518507480621,1.1092711000237614,254.09154759999365,None,ScrollDown,정답입니다,254.09154759999365,None,254.09154759999365,None,254.09154759999365,None,254.09154759999365,None,255.10075620003045,None,255.10075620003045,255.60075700003654,,,,,,,,,,,,,,,,034,2022-06-01_18h07.39.709,FishGame,2022.1.1,61.173378803564795,
,12,넌 독선적이야,5,Green,A,2.458333333333333,1.933333333333333,ScrollDown,ScrollUp,Green.png,2,Negative,Incongruent,,,,,0,0,0,0,,,,,,,,,,,,,,,,,0,11,11,11,,,,,,,,,,,,,,,,,,,,,,,,,,,,,,,,,,,,,,,,,,,,,,,,,,,,,,,,,,,,,,,,,,,,,,,,,,,,,1.28086419403553,0.861241800012067,256.22756649996154,None,ScrollDown,정답입니다,256.22756649996154,None,256.22756649996154,None,256.22756649996154,None,256.22756649996154,None,256.98145919991657,None,256.98145919991657,257.4816270999145,,,,,,,,,,,,,,,,034,2022-06-01_18h07.39.709,FishGame,2022.1.1,61.173378803564795,
,13,나를 보내줘,6,Green,A,0,0,ScrollUp,ScrollDown,Green.png,2,NonTarget,NonTarget,,,,,0,0,0,0,,,,,,,,,,,,,,,,,0,12,12,12,,,,,,,,,,,,,,,,,,,,,,,,,,,,,,,,,,,,,,,,,,,,,,,,,,,,,,,,,,,,,,,,,,,,,,,,,,,,,1.884259248773257,0.9947529998607934,258.103038799949,None,ScrollUp,정답입니다,258.103038799949,None,258.103038799949,None,258.103038799949,None,258.103038799949,None,259.00068569998257,None,259.00068569998257,259.5152948999312,,,,,,,,,,,,,,,,034,2022-06-01_18h07.39.709,FishGame,2022.1.1,61.173378803564795,
,14,넌 책임감있어,1,Orange,B,6.347826086956522,6,ScrollUp,ScrollDown,Orange.png,2,Positive,Incongruent,,,,,0,0,0,0,,,,,,,,,,,,,,,,,0,13,13,13,,,,,,,,,,,,,,,,,,,,,,,,,,,,,,,,,,,,,,,,,,,,,,,,,,,,,,,,,,,,,,,,,,,,,,,,,,,,,1.7314814925193787,0.9620314000640064,260.12600419996306,None,ScrollUp,정답입니다,260.12600419996306,None,260.12600419996306,None,260.12600419996306,None,260.12600419996306,None,260.98402770003304,None,260.98402770003304,261.48704829998314,,,,,,,,,,,,,,,,034,2022-06-01_18h07.39.709,FishGame,2022.1.1,61.173378803564795,
,15,넌 문학적이야,3,Green,A,4.708333333333334,4.333333333333333,ScrollDown,ScrollUp,Green.png,2,Neutral,Neutral,,,,,0,0,0,0,,,,,,,,,,,,,,,,,0,14,14,14,,,,,,,,,,,,,,,,,,,,,,,,,,,,,,,,,,,,,,,,,,,,,,,,,,,,,,,,,,,,,,,,,,,,,,,,,,,,,1.1080246816078823,0.7789762001484632,262.1212981999852,None,ScrollDown,정답입니다,262.1212981999852,None,262.1212981999852,None,262.1212981999852,None,262.1212981999852,None,262.79841189994477,None,262.79841189994477,263.2983858999796,,,,,,,,,,,,,,,,034,2022-06-01_18h07.39.709,FishGame,2022.1.1,61.173378803564795,
,16,넌 재미있어,1,Orange,B,5.875,5.7,ScrollUp,ScrollDown,Orange.png,2,Positive,Incongruent,,,,,0,0,0,0,,,,,,,,,,,,,,,,,0,15,15,15,,,,,,,,,,,,,,,,,,,,,,,,,,,,,,,,,,,,,,,,,,,,,,,,,,,,,,,,,,,,,,,,,,,,,,,,,,,,,1.8549382835626602,1.0273229000158608,263.93399800010957,None,ScrollUp,정답입니다,263.93399800010957,None,263.93399800010957,None,263.93399800010957,None,263.93399800010957,None,264.84821470011957,None,264.84821470011957,265.34829539991915,,,,,,,,,,,,,,,,034,2022-06-01_18h07.39.709,FishGame,2022.1.1,61.173378803564795,
,17,나를 데려가줘,6,Orange,B,0,0,ScrollDown,ScrollUp,Orange.png,2,NonTarget,NonTarget,,,,,0,0,0,0,,,,,,,,,,,,,,,,,0,16,16,16,,,,,,,,,,,,,,,,,,,,,,,,,,,,,,,,,,,,,,,,,,,,,,,,,,,,,,,,,,,,,,,,,,,,,,,,,,,,,1.1296296268701553,1.0094049000181258,265.97260230011307,None,ScrollDown,정답입니다,265.97260230011307,None,265.97260230011307,None,265.97260230011307,None,265.97260230011307,None,266.8815800999291,None,266.8815800999291,267.3837778000161,,,,,,,,,,,,,,,,034,2022-06-01_18h07.39.709,FishGame,2022.1.1,61.173378803564795,
,18,넌 협력적이야,1,Green,A,5.625,5.633333333333334,ScrollDown,ScrollUp,Green.png,2,Positive,Congruent,,,,,0,0,0,0,,,,,,,,,,,,,,,,,0,17,17,17,,,,,,,,,,,,,,,,,,,,,,,,,,,,,,,,,,,,,,,,,,,,,,,,,,,,,,,,,,,,,,,,,,,,,,,,,,,,,1.1790123482545216,0.9259166999254376,268.00951820006594,None,ScrollDown,정답입니다,268.00951820006594,None,268.00951820006594,None,268.00951820006594,None,268.00951820006594,None,268.831462000031,None,268.831462000031,269.33152040001005,,,,,,,,,,,,,,,,034,2022-06-01_18h07.39.709,FishGame,2022.1.1,61.173378803564795,
,19,넌 평범해,3,Orange,B,4.333333333333332,4.233333333333333,ScrollUp,ScrollDown,Orange.png,2,Neutral,Neutral,,,,,0,0,0,0,,,,,,,,,,,,,,,,,0,18,18,18,,,,,,,,,,,,,,,,,,,,,,,,,,,,,,,,,,,,,,,,,,,,,,,,,,,,,,,,,,,,,,,,,,,,,,,,,,,,,1.9552469154198964,0.9091039001941681,269.9605533001013,None,ScrollUp,정답입니다,269.9605533001013,None,269.9605533001013,None,269.9605533001013,None,269.9605533001013,None,270.7648116000928,None,270.7648116000928,271.26484360010363,,,,,,,,,,,,,,,,034,2022-06-01_18h07.39.709,FishGame,2022.1.1,61.173378803564795,
,20,넌 오만해,5,Green,A,2.333333333333333,2,ScrollDown,ScrollUp,Green.png,2,Negative,Incongruent,,,,,0,0,0,0,,,,,,,,,,,,,,,,,0,19,19,19,,,,,,,,,,,,,,,,,,,,,,,,,,,,,,,,,,,,,,,,,,,,,,,,,,,,,,,,,,,,,,,,,,,,,,,,,,,,,1.2314814726511638,0.8593582999892533,271.8923577000387,None,ScrollDown,정답입니다,271.8923577000387,None,271.8923577000387,None,271.8923577000387,None,271.8923577000387,None,272.6481218999252,None,272.6481218999252,273.1503342001233,,,,,,,,,,,,,,,,034,2022-06-01_18h07.39.709,FishGame,2022.1.1,61.173378803564795,
,21,넌 운이없어,4,Orange,B,3,3.466666666666667,ScrollUp,ScrollDown,Orange.png,2,Negative,Congruent,,,,,0,0,0,0,,,,,,,,,,,,,,,,,0,20,20,20,,,,,,,,,,,,,,,,,,,,,,,,,,,,,,,,,,,,,,,,,,,,,,,,,,,,,,,,,,,,,,,,,,,,,,,,,,,,,1.7391975373029709,0.7923975999001414,273.77814069995657,None,ScrollUp,정답입니다,273.77814069995657,None,273.77814069995657,None,273.77814069995657,None,273.77814069995657,None,274.4644595000427,None,274.4644595000427,274.9645227000583,,,,,,,,,,,,,,,,034,2022-06-01_18h07.39.709,FishGame,2022.1.1,61.173378803564795,
,22,넌 창조적이야,2,Orange,B,6.125,4.633333333333334,ScrollUp,ScrollDown,Orange.png,2,Positive,Incongruent,,,,,0,0,0,0,,,,,,,,,,,,,,,,,0,21,21,21,,,,,,,,,,,,,,,,,,,,,,,,,,,,,,,,,,,,,,,,,,,,,,,,,,,,,,,,,,,,,,,,,,,,,,,,,,,,,1.7453703681627908,0.9947213002014905,275.595408000052,None,ScrollUp,정답입니다,275.595408000052,None,275.595408000052,None,275.595408000052,None,275.595408000052,None,276.4811370000243,None,276.4811370000243,276.9836478000507,,,,,,,,,,,,,,,,034,2022-06-01_18h07.39.709,FishGame,2022.1.1,61.173378803564795,
,23,나를 보내줘,6,Green,A,0,0,ScrollUp,ScrollDown,Green.png,2,NonTarget,NonTarget,,,,,0,0,0,0,,,,,,,,,,,,,,,,,0,22,22,22,,,,,,,,,,,,,,,,,,,,,,,,,,,,,,,,,,,,,,,,,,,,,,,,,,,,,,,,,,,,,,,,,,,,,,,,,,,,,1.7175925920406976,1.0151317999698222,277.59967270004563,None,ScrollUp,정답입니다,277.59967270004563,None,277.59967270004563,None,277.59967270004563,None,277.59967270004563,None,278.51701089995913,None,278.51701089995913,279.02006020001136,,,,,,,,,,,,,,,,034,2022-06-01_18h07.39.709,FishGame,2022.1.1,61.173378803564795,
,24,넌 통찰력있어,2,Green,A,6.5,4.8,ScrollDown,ScrollUp,Green.png,2,Positive,Congruent,,,,,0,0,0,0,,,,,,,,,,,,,,,,,0,23,23,23,,,,,,,,,,,,,,,,,,,,,,,,,,,,,,,,,,,,,,,,,,,,,,,,,,,,,,,,,,,,,,,,,,,,,,,,,,,,,1.0679012437661488,1.109277999959886,279.6402227000799,None,ScrollDown,정답입니다,279.6402227000799,None,279.6402227000799,None,279.6402227000799,None,279.6402227000799,None,280.650162700098,None,280.650162700098,281.1500905000139,,,,,,,,,,,,,,,,034,2022-06-01_18h07.39.709,FishGame,2022.1.1,61.173378803564795,
,25,넌 경솔해,5,Orange,B,2.458333333333333,2.266666666666667,ScrollUp,ScrollDown,Orange.png,2,Negative,Congruent,,,,,0,0,0,0,,,,,,,,,,,,,,,,,0,24,24,24,,,,,,,,,,,,,,,,,,,,,,,,,,,,,,,,,,,,,,,,,,,,,,,,,,,,,,,,,,,,,,,,,,,,,,,,,,,,,1.7006172885497413,0.8775442000478506,281.7728981000837,None,ScrollUp,정답입니다,281.7728981000837,None,281.7728981000837,None,281.7728981000837,None,281.7728981000837,None,282.54793999996036,None,282.54793999996036,283.0479971000459,,,,,,,,,,,,,,,,034,2022-06-01_18h07.39.709,FishGame,2022.1.1,61.173378803564795,
,26,넌 초조해,4,Green,A,2.916666666666667,3.133333333333333,ScrollDown,ScrollUp,Green.png,2,Negative,Incongruent,,,,,0,0,0,0,,,,,,,,,,,,,,,,,0,25,25,25,,,,,,,,,,,,,,,,,,,,,,,,,,,,,,,,,,,,,,,,,,,,,,,,,,,,,,,,,,,,,,,,,,,,,,,,,,,,,1.0833333333333333,0.9112715001683682,283.6708490001038,None,ScrollDown,정답입니다,283.6708490001038,None,283.6708490001038,None,283.6708490001038,None,283.6708490001038,None,284.4811807000078,None,284.4811807000078,284.98127839993685,,,,,,,,,,,,,,,,034,2022-06-01_18h07.39.709,FishGame,2022.1.1,61.173378803564795,
,27,넌 무관심해,4,Orange,B,2.833333333333333,2.9,ScrollUp,ScrollDown,Orange.png,2,Negative,Congruent,,,,,0,0,0,0,,,,,,,,,,,,,,,,,0,26,26,26,,,,,,,,,,,,,,,,,,,,,,,,,,,,,,,,,,,,,,,,,,,,,,,,,,,,,,,,,,,,,,,,,,,,,,,,,,,,,1.7962963034709294,0.8613604998681694,285.6077825999819,None,ScrollUp,정답입니다,285.6077825999819,None,285.6077825999819,None,285.6077825999819,None,285.6077825999819,None,286.3645085999742,None,286.3645085999742,286.8667274999898,,,,,,,,,,,,,,,,034,2022-06-01_18h07.39.709,FishGame,2022.1.1,61.173378803564795,
,28,넌 감성적이야,3,Orange,B,4.125,4.166666666666667,ScrollUp,ScrollDown,Orange.png,2,Neutral,Neutral,,,,,0,0,0,0,,,,,,,,,,,,,,,,,0,27,27,27,,,,,,,,,,,,,,,,,,,,,,,,,,,,,,,,,,,,,,,,,,,,,,,,,,,,,,,,,,,,,,,,,,,,,,,,,,,,,1.7561728407939274,0.7759255000855774,287.4933027999941,None,ScrollUp,정답입니다,287.4933027999941,None,287.4933027999941,None,287.4933027999941,None,287.4933027999941,None,288.16453139996156,None,288.16453139996156,288.6645533000119,,,,,,,,,,,,,,,,034,2022-06-01_18h07.39.709,FishGame,2022.1.1,61.173378803564795,
,29,넌 배려심있어,1,Green,A,6.083333333333333,5.5,ScrollDown,ScrollUp,Green.png,2,Positive,Congruent,,,,,0,0,0,0,,,,,,,,,,,,,,,,,0,28,28,28,,,,,,,,,,,,,,,,,,,,,,,,,,,,,,,,,,,,,,,,,,,,,,,,,,,,,,,,,,,,,,,,,,,,,,,,,,,,,1.180555562178294,0.7945222000125796,289.291282299906,None,ScrollDown,정답입니다,289.291282299906,None,289.291282299906,None,289.291282299906,None,289.291282299906,None,289.98112110001966,None,289.98112110001966,290.48328229994513,,,,,,,,,,,,,,,,034,2022-06-01_18h07.39.709,FishGame,2022.1.1,61.173378803564795,
,30,넌 숨김없어,3,Green,A,4.5,4.933333333333334,ScrollDown,ScrollUp,Green.png,2,Neutral,Neutral,,,,,0,0,0,0,,,,,,,,,,,,,,,,,0,29,29,29,,,,,,,,,,,,,,,,,,,,,,,,,,,,,,,,,,,,,,,,,,,,,,,,,,,,,,,,,,,,,,,,,,,,,,,,,,,,,1.1867283930381138,0.728180899983272,291.1096282999497,None,ScrollDown,정답입니다,291.1096282999497,None,291.1096282999497,None,291.1096282999497,None,291.1096282999497,None,291.73151469998993,None,291.73151469998993,292.2310822000727,,,,,,,,,,,,,,,,034,2022-06-01_18h07.39.709,FishGame,2022.1.1,61.173378803564795,
,31,넌 훌륭해,2,Orange,B,5.916666666666667,4.033333333333333,ScrollUp,ScrollDown,Orange.png,2,Positive,Incongruent,,,,,0,0,0,0,,,,,,,,,,,,,,,,,0,30,30,30,,,,,,,,,,,,,,,,,,,,,,,,,,,,,,,,,,,,,,,,,,,,,,,,,,,,,,,,,,,,,,,,,,,,,,,,,,,,,1.679012343287468,0.7281001000665128,292.85629009990953,None,ScrollUp,정답입니다,292.85629009990953,None,292.85629009990953,None,292.85629009990953,None,292.85629009990953,None,293.4809900999535,None,293.4809900999535,293.9810035000555,,,,,,,,,,,,,,,,034,2022-06-01_18h07.39.709,FishGame,2022.1.1,61.173378803564795,
,32,넌 슬기로워,2,Green,A,6.166666666666667,4.1,ScrollDown,ScrollUp,Green.png,2,Positive,Congruent,,,,,0,0,0,0,,,,,,,,,,,,,,,,,0,31,31,31,,,,,,,,,,,,,,,,,,,,,,,,,,,,,,,,,,,,,,,,,,,,,,,,,,,,,,,,,,,,,,,,,,,,,,,,,,,,,1.3749999950329461,0.7947454999666661,294.60454989993013,None,ScrollDown,정답입니다,294.60454989993013,None,294.60454989993013,None,294.60454989993013,None,294.60454989993013,None,295.29765719990246,None,295.29765719990246,295.79769610008225,,,,,,,,,,,,,,,,034,2022-06-01_18h07.39.709,FishGame,2022.1.1,61.173378803564795,
,33,넌 냉혹해,5,Green,A,2.583333333333333,2.1,ScrollDown,ScrollUp,Green.png,2,Negative,Incongruent,,,,,0,0,0,0,,,,,,,,,,,,,,,,,0,32,32,32,,,,,,,,,,,,,,,,,,,,,,,,,,,,,,,,,,,,,,,,,,,,,,,,,,,,,,,,,,,,,,,,,,,,,,,,,,,,,1.2916666666666665,0.7282574998680502,296.4219408999197,None,ScrollDown,정답입니다,296.4219408999197,None,296.4219408999197,None,296.4219408999197,None,296.4219408999197,None,297.0477118000854,None,297.0477118000854,297.5498635999393,,,,,,,,,,,,,,,,034,2022-06-01_18h07.39.709,FishGame,2022.1.1,61.173378803564795,
,34,나를 데려가줘,6,Orange,B,0,0,ScrollDown,ScrollUp,Orange.png,2,NonTarget,NonTarget,,,,,0,0,0,0,,,,,,,,,,,,,,,,,0,33,33,33,,,,,,,,,,,,,,,,,,,,,,,,,,,,,,,,,,,,,,,,,,,,,,,,,,,,,,,,,,,,,,,,,,,,,,,,,,,,,1.1311728407939274,0.9767010000068694,298.1795320000965,None,ScrollDown,정답입니다,298.1795320000965,None,298.1795320000965,None,298.1795320000965,None,298.1795320000965,None,299.04727869993076,None,299.04727869993076,299.54736849991605,,,,,,,,,,,,,,,,034,2022-06-01_18h07.39.709,FishGame,2022.1.1,61.173378803564795,
,35,넌 편파적이야,5,Orange,B,2.125,2,ScrollUp,ScrollDown,Orange.png,2,Negative,Congruent,,,,,0,0,0,0,,,,,,,,,,,,,,,,,0,34,34,34,,,,,,,,,,,,,,,,,,,,,,,,,,,,,,,,,,,,,,,,,,,,,,,,,,,,,,,,,,,,,,,,,,,,,,,,,,,,,1.8564814726511638,0.8617595999967307,300.1717783000786,None,ScrollUp,정답입니다,300.1717783000786,None,300.1717783000786,None,300.1717783000786,None,300.1717783000786,None,300.9331889001187,None,300.9331889001187,301.44994789990596,,,,,,,,,,,,,,,,034,2022-06-01_18h07.39.709,FishGame,2022.1.1,61.173378803564795,
,36,넌 슬퍼,4,Green,A,2.583333333333333,3.066666666666667,ScrollDown,ScrollUp,Green.png,2,Negative,Incongruent,,,,,0,0,0,0,,,,,,,,,,,,,,,,,0,35,35,35,,,,,,,,,,,,,,,,,,,,,,,,,,,,,,,,,,,,,,,,,,,,,,,,,,,,,,,,,,,,,,,,,,,,,,,,,,,,,1.300925925374031,0.7126825999002904,302.0491275000386,None,ScrollDown,정답입니다,302.0491275000386,None,302.0491275000386,None,302.0491275000386,None,302.0491275000386,None,302.66652259998955,None,302.66652259998955,303.1665406001266,,,,,,,,,,,,,,,,034,2022-06-01_18h07.39.709,FishGame,2022.1.1,61.173378803564795,
,37,나를 데려가줘,6,Orange,B,0,0,ScrollDown,ScrollUp,Orange.png,2,NonTarget,NonTarget,,,,,0,0,0,0,,,,,,,,,,,,,,,,,0,36,36,36,,,,,,,,,,,,,,,,,,,,,,,,,,,,,,,,,,,,,,,,,,,,,,,,,,,,,,,,,,,,,,,,,,,,,,,,,,,,,1.253086417913437,0.9262480998877436,303.7876116000116,None,ScrollDown,정답입니다,303.7876116000116,None,303.7876116000116,None,303.7876116000116,None,303.7876116000116,None,304.6163983999286,None,304.6163983999286,305.1329940999858,,,,,,,,,,,,,,,,034,2022-06-01_18h07.39.709,FishGame,2022.1.1,61.173378803564795,
,38,넌 친절해,1,Orange,B,6.041666666666667,5.533333333333333,ScrollUp,ScrollDown,Orange.png,2,Positive,Incongruent,,,,,0,0,0,0,,,,,,,,,,,,,,,,,0,37,37,37,,,,,,,,,,,,,,,,,,,,,,,,,,,,,,,,,,,,,,,,,,,,,,,,,,,,,,,,,,,,,,,,,,,,,,,,,,,,,1.6512345671653748,1.0092002998571843,305.74289339990355,None,ScrollUp,정답입니다,305.74289339990355,None,305.74289339990355,None,305.74289339990355,None,305.74289339990355,None,306.6476517999545,None,306.6476517999545,307.14737970009446,,,,,,,,,,,,,,,,034,2022-06-01_18h07.39.709,FishGame,2022.1.1,61.173378803564795,
,1,넌 엉성해,4,Green,A,3,3.3,ScrollDown,ScrollUp,Green.png,3,Negative,Incongruent,,,,,0,0,0,0,,,,,,,,,,,,,,,,,,,,,0,0,0,0,,,,,,,,,,,,,,,,,,,,,,,,,,,,,,,,338.98005019989796,340.48596499999985,340.50224870000966,341.46588240005076,341.51364429993555,342.4690185999498,342.4523253000807,None,,,,,,,,,,,,,,,,,,,,,,,,,,,,,,,,,,1.1141975373029709,0.8819830999709666,343.56464860006236,None,ScrollDown,정답입니다,343.56464860006236,None,343.56464860006236,None,343.56464860006236,None,343.56464860006236,None,344.3466847001109,None,344.3466847001109,344.84676819993183,307.64747460000217,None,307.64747460000217,None,0.09351852,-0.083333336,1,0,0,0.01600311021320522,None,337.6468468999956,None,,,034,2022-06-01_18h07.39.709,FishGame,2022.1.1,61.173378803564795,
,2,나를 보내줘,6,Green,A,0,0,ScrollUp,ScrollDown,Green.png,3,NonTarget,NonTarget,,,,,0,0,0,0,,,,,,,,,,,,,,,,,,,,,0,1,1,1,,,,,,,,,,,,,,,,,,,,,,,,,,,,,,,,,,,,,,,,,,,,,,,,,,,,,,,,,,,,,,,,,,,,,,,,,1.7314814925193787,0.8607406998053193,345.473740800051,None,ScrollUp,정답입니다,345.473740800051,None,345.473740800051,None,345.473740800051,None,345.473740800051,None,346.2299492000602,None,346.2299492000602,346.7300013001077,,,,,,,,,,,,,,,,034,2022-06-01_18h07.39.709,FishGame,2022.1.1,61.173378803564795,
,3,넌 활발해,1,Orange,B,5.666666666666667,5.6,ScrollUp,ScrollDown,Orange.png,3,Positive,Incongruent,,,,,0,0,0,0,,,,,,,,,,,,,,,,,,,,,0,2,2,2,,,,,,,,,,,,,,,,,,,,,,,,,,,,,,,,,,,,,,,,,,,,,,,,,,,,,,,,,,,,,,,,,,,,,,,,,1.733024681607882,0.625921200029552,347.36143800010905,None,ScrollUp,정답입니다,347.36143800010905,None,347.36143800010905,None,347.36143800010905,None,347.36143800010905,None,347.87995940004475,None,347.87995940004475,348.3800111999735,,,,,,,,,,,,,,,,034,2022-06-01_18h07.39.709,FishGame,2022.1.1,61.173378803564795,
,4,넌 논리적이야,2,Green,A,5.666666666666666,4.633333333333334,ScrollDown,ScrollUp,Green.png,3,Positive,Congruent,,,,,0,0,0,0,,,,,,,,,,,,,,,,,,,,,0,3,3,3,,,,,,,,,,,,,,,,,,,,,,,,,,,,,,,,,,,,,,,,,,,,,,,,,,,,,,,,,,,,,,,,,,,,,,,,,1.2916666666666665,0.712832499993965,349.0009200000204,None,ScrollDown,정답입니다,349.0009200000204,None,349.0009200000204,None,349.0009200000204,None,349.0009200000204,None,349.6132938999217,None,349.6132938999217,350.1132624000311,,,,,,,,,,,,,,,,034,2022-06-01_18h07.39.709,FishGame,2022.1.1,61.173378803564795,
,5,넌 과묵해,3,Green,A,3.875,4.4,ScrollDown,ScrollUp,Green.png,3,Neutral,Neutral,,,,,0,0,0,0,,,,,,,,,,,,,,,,,,,,,0,4,4,4,,,,,,,,,,,,,,,,,,,,,,,,,,,,,,,,,,,,,,,,,,,,,,,,,,,,,,,,,,,,,,,,,,,,,,,,,1.2854938358068466,0.7112076999619603,350.73643000004813,None,ScrollDown,정답입니다,350.73643000004813,None,350.73643000004813,None,350.73643000004813,None,350.73643000004813,None,351.346517900005,None,351.346517900005,351.8487122000661,,,,,,,,,,,,,,,,034,2022-06-01_18h07.39.709,FishGame,2022.1.1,61.173378803564795,
,6,나를 데려가줘,6,Orange,B,0,0,ScrollDown,ScrollUp,Orange.png,3,NonTarget,NonTarget,,,,,0,0,0,0,,,,,,,,,,,,,,,,,,,,,0,5,5,5,,,,,,,,,,,,,,,,,,,,,,,,,,,,,,,,,,,,,,,,,,,,,,,,,,,,,,,,,,,,,,,,,,,,,,,,,1.3194444427887597,0.8759188998956233,352.47429160005413,None,ScrollDown,정답입니다,352.47429160005413,None,352.47429160005413,None,352.47429160005413,None,352.47429160005413,None,353.2467000000179,None,353.2467000000179,353.74875849997625,,,,,,,,,,,,,,,,034,2022-06-01_18h07.39.709,FishGame,2022.1.1,61.173378803564795,
,7,넌 미숙해,4,Orange,B,3,3,ScrollUp,ScrollDown,Orange.png,3,Negative,Congruent,,,,,0,0,0,0,,,,,,,,,,,,,,,,,,,,,0,6,6,6,,,,,,,,,,,,,,,,,,,,,,,,,,,,,,,,,,,,,,,,,,,,,,,,,,,,,,,,,,,,,,,,,,,,,,,,,1.8749999900658925,0.7596267000772059,354.369910400128,None,ScrollUp,정답입니다,354.369910400128,None,354.369910400128,None,354.369910400128,None,354.369910400128,None,355.0297703000251,None,355.0297703000251,355.52983650006354,,,,,,,,,,,,,,,,034,2022-06-01_18h07.39.709,FishGame,2022.1.1,61.173378803564795,
,8,나를 보내줘,6,Green,A,0,0,ScrollUp,ScrollDown,Green.png,3,NonTarget,NonTarget,,,,,0,0,0,0,,,,,,,,,,,,,,,,,,,,,0,7,7,7,,,,,,,,,,,,,,,,,,,,,,,,,,,,,,,,,,,,,,,,,,,,,,,,,,,,,,,,,,,,,,,,,,,,,,,,,1.6712962985038757,0.9594452001620084,356.1510177999735,None,ScrollUp,정답입니다,356.1510177999735,None,356.1510177999735,None,356.1510177999735,None,356.1510177999735,None,357.01310149999335,None,357.01310149999335,357.5134831999894,,,,,,,,,,,,,,,,034,2022-06-01_18h07.39.709,FishGame,2022.1.1,61.173378803564795,
,9,넌 자신만만해,3,Orange,B,4.833333333333334,4.333333333333333,ScrollUp,ScrollDown,Orange.png,3,Neutral,Neutral,,,,,0,0,0,0,,,,,,,,,,,,,,,,,,,,,0,8,8,8,,,,,,,,,,,,,,,,,,,,,,,,,,,,,,,,,,,,,,,,,,,,,,,,,,,,,,,,,,,,,,,,,,,,,,,,,1.7299382785956063,0.7945417000446469,358.14001609990373,None,ScrollUp,정답입니다,358.14001609990373,None,358.14001609990373,None,358.14001609990373,None,358.14001609990373,None,358.82971010007896,None,358.82971010007896,359.32978280005045,,,,,,,,,,,,,,,,034,2022-06-01_18h07.39.709,FishGame,2022.1.1,61.173378803564795,
,10,넌 탐욕스러워,5,Green,A,2.25,2.1,ScrollDown,ScrollUp,Green.png,3,Negative,Incongruent,,,,,0,0,0,0,,,,,,,,,,,,,,,,,,,,,0,9,9,9,,,,,,,,,,,,,,,,,,,,,,,,,,,,,,,,,,,,,,,,,,,,,,,,,,,,,,,,,,,,,,,,,,,,,,,,,1.0540123681227367,0.9462172999046743,359.9516813000664,None,ScrollDown,정답입니다,359.9516813000664,None,359.9516813000664,None,359.9516813000664,None,359.9516813000664,None,360.7963459000457,None,360.7963459000457,361.2986649000086,,,,,,,,,,,,,,,,034,2022-06-01_18h07.39.709,FishGame,2022.1.1,61.173378803564795,
,11,넌 인기있어,2,Green,A,5.458333333333333,4.5,ScrollDown,ScrollUp,Green.png,3,Positive,Congruent,,,,,0,0,0,0,,,,,,,,,,,,,,,,,,,,,0,10,10,10,,,,,,,,,,,,,,,,,,,,,,,,,,,,,,,,,,,,,,,,,,,,,,,,,,,,,,,,,,,,,,,,,,,,,,,,,1.2037036965290706,1.0146318001206964,361.9120149000082,None,ScrollDown,정답입니다,361.9120149000082,None,361.9120149000082,None,361.9120149000082,None,361.9120149000082,None,362.8318722001277,None,362.8318722001277,363.331877599936,,,,,,,,,,,,,,,,034,2022-06-01_18h07.39.709,FishGame,2022.1.1,61.173378803564795,
,12,나를 데려가줘,6,Orange,B,0,0,ScrollDown,ScrollUp,Orange.png,3,NonTarget,NonTarget,,,,,0,0,0,0,,,,,,,,,,,,,,,,,,,,,0,11,11,11,,,,,,,,,,,,,,,,,,,,,,,,,,,,,,,,,,,,,,,,,,,,,,,,,,,,,,,,,,,,,,,,,,,,,,,,,1.0833333333333333,0.9782273001037538,363.96747589996085,None,ScrollDown,정답입니다,363.96747589996085,None,363.96747589996085,None,363.96747589996085,None,363.96747589996085,None,364.84622670011595,None,364.84622670011595,365.34628330008127,,,,,,,,,,,,,,,,034,2022-06-01_18h07.39.709,FishGame,2022.1.1,61.173378803564795,
,13,넌 뛰어나,2,Orange,B,6.166666666666667,4,ScrollUp,ScrollDown,Orange.png,3,Positive,Incongruent,,,,,0,0,0,0,,,,,,,,,,,,,,,,,,,,,0,12,12,12,,,,,,,,,,,,,,,,,,,,,,,,,,,,,,,,,,,,,,,,,,,,,,,,,,,,,,,,,,,,,,,,,,,,,,,,,1.8040123482545216,0.8600849001668394,365.9764926000498,None,ScrollUp,정답입니다,365.9764926000498,None,365.9764926000498,None,365.9764926000498,None,365.9764926000498,None,366.72957929992117,None,366.72957929992117,367.22961949999444,,,,,,,,,,,,,,,,034,2022-06-01_18h07.39.709,FishGame,2022.1.1,61.173378803564795,
,14,넌 낙관적이야,1,Green,A,5.75,5.8,ScrollDown,ScrollUp,Green.png,3,Positive,Congruent,,,,,0,0,0,0,,,,,,,,,,,,,,,,,,,,,0,13,13,13,,,,,,,,,,,,,,,,,,,,,,,,,,,,,,,,,,,,,,,,,,,,,,,,,,,,,,,,,,,,,,,,,,,,,,,,,1.1543209999799728,0.8755572999361902,367.86287799989805,None,ScrollDown,정답입니다,367.86287799989805,None,367.86287799989805,None,367.86287799989805,None,367.86287799989805,None,368.6292562999297,None,368.6292562999297,369.12931190012023,,,,,,,,,,,,,,,,034,2022-06-01_18h07.39.709,FishGame,2022.1.1,61.173378803564795,
,15,넌 산만해,4,Orange,B,2.695652173913043,3.033333333333333,ScrollUp,ScrollDown,Orange.png,3,Negative,Congruent,,,,,0,0,0,0,,,,,,,,,,,,,,,,,,,,,0,14,14,14,,,,,,,,,,,,,,,,,,,,,,,,,,,,,,,,,,,,,,,,,,,,,,,,,,,,,,,,,,,,,,,,,,,,,,,,,1.7592592686414719,0.8616326998453587,369.7537616000045,None,ScrollUp,정답입니다,369.7537616000045,None,369.7537616000045,None,369.7537616000045,None,369.7537616000045,None,370.51258819992654,None,370.51258819992654,371.01319910003804,,,,,,,,,,,,,,,,034,2022-06-01_18h07.39.709,FishGame,2022.1.1,61.173378803564795,
,16,나를 보내줘,6,Green,A,0,0,ScrollUp,ScrollDown,Green.png,3,NonTarget,NonTarget,,,,,0,0,0,0,,,,,,,,,,,,,,,,,,,,,0,15,15,15,,,,,,,,,,,,,,,,,,,,,,,,,,,,,,,,,,,,,,,,,,,,,,,,,,,,,,,,,,,,,,,,,,,,,,,,,1.7361111094554267,1.0440040999092162,371.6329828999005,None,ScrollUp,정답입니다,371.6329828999005,None,371.6329828999005,None,371.6329828999005,None,371.6329828999005,None,372.5819101999514,None,372.5819101999514,373.08200319996104,,,,,,,,,,,,,,,,034,2022-06-01_18h07.39.709,FishGame,2022.1.1,61.173378803564795,
,17,넌 교활해,5,Orange,B,2.333333333333333,2.133333333333333,ScrollUp,ScrollDown,Orange.png,3,Negative,Congruent,,,,,0,0,0,0,,,,,,,,,,,,,,,,,,,,,0,16,16,16,,,,,,,,,,,,,,,,,,,,,,,,,,,,,,,,,,,,,,,,,,,,,,,,,,,,,,,,,,,,,,,,,,,,,,,,,1.8657407313585281,1.029160700039938,373.70246460009366,None,ScrollUp,정답입니다,373.70246460009366,None,373.70246460009366,None,373.70246460009366,None,373.70246460009366,None,374.6295753000304,None,374.6295753000304,375.12975910003297,,,,,,,,,,,,,,,,034,2022-06-01_18h07.39.709,FishGame,2022.1.1,61.173378803564795,
,18,나를 보내줘,6,Green,A,0,0,ScrollUp,ScrollDown,Green.png,3,NonTarget,NonTarget,,,,,0,0,0,0,,,,,,,,,,,,,,,,,,,,,0,17,17,17,,,,,,,,,,,,,,,,,,,,,,,,,,,,,,,,,,,,,,,,,,,,,,,,,,,,,,,,,,,,,,,,,,,,,,,,,1.7638888855775197,0.911054200027138,375.7520097999368,None,ScrollUp,정답입니다,375.7520097999368,None,375.7520097999368,None,375.7520097999368,None,375.7520097999368,None,376.5627292001154,None,376.5627292001154,377.06275920011103,,,,,,,,,,,,,,,,034,2022-06-01_18h07.39.709,FishGame,2022.1.1,61.173378803564795,
,19,넌 불친절해,5,Orange,B,2.208333333333333,2.033333333333333,ScrollUp,ScrollDown,Orange.png,3,Negative,Congruent,,,,,0,0,0,0,,,,,,,,,,,,,,,,,,,,,0,18,18,18,,,,,,,,,,,,,,,,,,,,,,,,,,,,,,,,,,,,,,,,,,,,,,,,,,,,,,,,,,,,,,,,,,,,,,,,,1.7592592686414719,0.9615122999530286,377.6925085000694,None,ScrollUp,정답입니다,377.6925085000694,None,377.6925085000694,None,377.6925085000694,None,377.6925085000694,None,378.5459672999568,None,378.5459672999568,379.0482226999011,,,,,,,,,,,,,,,,034,2022-06-01_18h07.39.709,FishGame,2022.1.1,61.173378803564795,
,20,넌 지적이야,2,Orange,B,5.75,4.366666666666666,ScrollUp,ScrollDown,Orange.png,3,Positive,Incongruent,,,,,0,0,0,0,,,,,,,,,,,,,,,,,,,,,0,19,19,19,,,,,,,,,,,,,,,,,,,,,,,,,,,,,,,,,,,,,,,,,,,,,,,,,,,,,,,,,,,,,,,,,,,,,,,,,1.8811728457609813,0.7446546000428498,379.6706896000542,None,ScrollUp,정답입니다,379.6706896000542,None,379.6706896000542,None,379.6706896000542,None,379.6706896000542,None,380.3126513999887,None,380.3126513999887,380.8126507999841,,,,,,,,,,,,,,,,034,2022-06-01_18h07.39.709,FishGame,2022.1.1,61.173378803564795,
,21,넌 우유부단해,4,Green,A,2.666666666666667,3.166666666666667,ScrollDown,ScrollUp,Green.png,3,Negative,Incongruent,,,,,0,0,0,0,,,,,,,,,,,,,,,,,,,,,0,20,20,20,,,,,,,,,,,,,,,,,,,,,,,,,,,,,,,,,,,,,,,,,,,,,,,,,,,,,,,,,,,,,,,,,,,,,,,,,1.253086417913437,0.7928047000896186,381.44129620003514,None,ScrollDown,정답입니다,381.44129620003514,None,381.44129620003514,None,381.44129620003514,None,381.44129620003514,None,382.12957830005325,None,382.12957830005325,382.62956089992076,,,,,,,,,,,,,,,,034,2022-06-01_18h07.39.709,FishGame,2022.1.1,61.173378803564795,
,22,나를 데려가줘,6,Orange,B,0,0,ScrollDown,ScrollUp,Orange.png,3,NonTarget,NonTarget,,,,,0,0,0,0,,,,,,,,,,,,,,,,,,,,,0,21,21,21,,,,,,,,,,,,,,,,,,,,,,,,,,,,,,,,,,,,,,,,,,,,,,,,,,,,,,,,,,,,,,,,,,,,,,,,,1.0987654229005177,1.059364799875766,383.2556104999967,None,ScrollDown,정답입니다,383.2556104999967,None,383.2556104999967,None,383.2556104999967,None,383.2556104999967,None,384.212537500076,None,384.212537500076,384.7124896000605,,,,,,,,,,,,,,,,034,2022-06-01_18h07.39.709,FishGame,2022.1.1,61.173378803564795,
,23,넌 성실해,1,Orange,B,6.041666666666666,5.7,ScrollUp,ScrollDown,Orange.png,3,Positive,Incongruent,,,,,0,0,0,0,,,,,,,,,,,,,,,,,,,,,0,22,22,22,,,,,,,,,,,,,,,,,,,,,,,,,,,,,,,,,,,,,,,,,,,,,,,,,,,,,,,,,,,,,,,,,,,,,,,,,1.7623456716537476,1.0114122000522912,385.34271649993025,None,ScrollUp,정답입니다,385.34271649993025,None,385.34271649993025,None,385.34271649993025,None,385.34271649993025,None,386.2458454000298,None,386.2458454000298,386.74815819994546,,,,,,,,,,,,,,,,034,2022-06-01_18h07.39.709,FishGame,2022.1.1,61.173378803564795,
,24,넌 현실주의적이야,3,Green,A,4.625,4.4,ScrollDown,ScrollUp,Green.png,3,Neutral,Neutral,,,,,0,0,0,0,,,,,,,,,,,,,,,,,,,,,0,23,23,23,,,,,,,,,,,,,,,,,,,,,,,,,,,,,,,,,,,,,,,,,,,,,,,,,,,,,,,,,,,,,,,,,,,,,,,,,1.2422839452823002,0.7932315999642015,387.37236450007185,None,ScrollDown,정답입니다,387.37236450007185,None,387.37236450007185,None,387.37236450007185,None,387.37236450007185,None,388.06227659992874,None,388.06227659992874,388.56226840009913,,,,,,,,,,,,,,,,034,2022-06-01_18h07.39.709,FishGame,2022.1.1,61.173378803564795,
,25,넌 진실돼,1,Green,A,6.625,5.566666666666666,ScrollDown,ScrollUp,Green.png,3,Positive,Congruent,,,,,0,0,0,0,,,,,,,,,,,,,,,,,,,,,0,24,24,24,,,,,,,,,,,,,,,,,,,,,,,,,,,,,,,,,,,,,,,,,,,,,,,,,,,,,,,,,,,,,,,,,,,,,,,,,1.3055555547277131,0.8613512001466006,389.1866995000746,None,ScrollDown,정답입니다,389.1866995000746,None,389.1866995000746,None,389.1866995000746,None,389.1866995000746,None,389.9455192000605,None,389.9455192000605,390.44620010000654,,,,,,,,,,,,,,,,034,2022-06-01_18h07.39.709,FishGame,2022.1.1,61.173378803564795,
,26,넌 천진난만해,3,Orange,B,4.958333333333334,4.833333333333333,ScrollUp,ScrollDown,Orange.png,3,Neutral,Neutral,,,,,0,0,0,0,,,,,,,,,,,,,,,,,,,,,0,25,25,25,,,,,,,,,,,,,,,,,,,,,,,,,,,,,,,,,,,,,,,,,,,,,,,,,,,,,,,,,,,,,,,,,,,,,,,,,1.5709876542290053,0.7629681001417339,391.0701041999273,None,ScrollUp,정답입니다,391.0701041999273,None,391.0701041999273,None,391.0701041999273,None,391.0701041999273,None,391.731355200056,None,391.731355200056,392.2344696999062,,,,,,,,,,,,,,,,034,2022-06-01_18h07.39.709,FishGame,2022.1.1,61.173378803564795,
,27,넌 교양없어,5,Green,A,2.416666666666667,2.2,ScrollDown,ScrollUp,Green.png,3,Negative,Incongruent,,,,,0,0,0,0,,,,,,,,,,,,,,,,,,,,,0,26,26,26,,,,,,,,,,,,,,,,,,,,,,,,,,,,,,,,,,,,,,,,,,,,,,,,,,,,,,,,,,,,,,,,,,,,,,,,,1.2453703731298447,0.8450847999192774,392.87047159997746,None,ScrollDown,정답입니다,392.87047159997746,None,392.87047159997746,None,392.87047159997746,None,392.87047159997746,None,393.61235819989815,None,393.61235819989815,394.1128231000621,,,,,,,,,,,,,,,,034,2022-06-01_18h07.39.709,FishGame,2022.1.1,61.173378803564795,
,28,나를 보내줘,6,Green,A,0,0,ScrollUp,ScrollDown,Green.png,3,NonTarget,NonTarget,,,,,0,0,0,0,,,,,,,,,,,,,,,,,,,,,0,27,27,27,,,,,,,,,,,,,,,,,,,,,,,,,,,,,,,,,,,,,,,,,,,,,,,,,,,,,,,,,,,,,,,,,,,,,,,,,1.7407407512267432,0.9274414000101388,394.7327161000576,None,ScrollUp,정답입니다,394.7327161000576,None,394.7327161000576,None,394.7327161000576,None,394.7327161000576,None,395.5622783000581,None,395.5622783000581,396.0623095999472,,,,,,,,,,,,,,,,034,2022-06-01_18h07.39.709,FishGame,2022.1.1,61.173378803564795,
,29,넌 엉뚱스러워,3,Green,A,4.166666666666667,4.133333333333334,ScrollDown,ScrollUp,Green.png,3,Neutral,Neutral,,,,,0,0,0,0,,,,,,,,,,,,,,,,,,,,,0,28,28,28,,,,,,,,,,,,,,,,,,,,,,,,,,,,,,,,,,,,,,,,,,,,,,,,,,,,,,,,,,,,,,,,,,,,,,,,,1.3117283980051675,0.9614575000014156,396.69030030001886,None,ScrollDown,정답입니다,396.69030030001886,None,396.69030030001886,None,396.69030030001886,None,396.69030030001886,None,397.54561770008877,None,397.54561770008877,398.0456328999717,,,,,,,,,,,,,,,,034,2022-06-01_18h07.39.709,FishGame,2022.1.1,61.173378803564795,
,30,넌 무지해,4,Orange,B,2.541666666666667,3.066666666666667,ScrollUp,ScrollDown,Orange.png,3,Negative,Congruent,,,,,0,0,0,0,,,,,,,,,,,,,,,,,,,,,0,29,29,29,,,,,,,,,,,,,,,,,,,,,,,,,,,,,,,,,,,,,,,,,,,,,,,,,,,,,,,,,,,,,,,,,,,,,,,,,1.5864197500050068,0.6757126001175493,398.6735115000047,None,ScrollUp,정답입니다,398.6735115000047,None,398.6735115000047,None,398.6735115000047,None,398.6735115000047,None,399.24596039997414,None,399.24596039997414,399.745617199922,,,,,,,,,,,,,,,,034,2022-06-01_18h07.39.709,FishGame,2022.1.1,61.173378803564795,
,31,넌 음울해,5,Orange,B,2.25,2.233333333333333,ScrollUp,ScrollDown,Orange.png,3,Negative,Congruent,,,,,0,0,0,0,,,,,,,,,,,,,,,,,,,,,0,30,30,30,,,,,,,,,,,,,,,,,,,,,,,,,,,,,,,,,,,,,,,,,,,,,,,,,,,,,,,,,,,,,,,,,,,,,,,,,1.7206790198882422,0.7612588999327272,400.3797015999444,None,ScrollUp,정답입니다,400.3797015999444,None,400.3797015999444,None,400.3797015999444,None,400.3797015999444,None,401.02883339999244,None,401.02883339999244,401.52889880002476,,,,,,,,,,,,,,,,034,2022-06-01_18h07.39.709,FishGame,2022.1.1,61.173378803564795,
,32,넌 냉소적이야,5,Green,A,2.916666666666667,2.4,ScrollDown,ScrollUp,Green.png,3,Negative,Incongruent,,,,,0,0,0,0,,,,,,,,,,,,,,,,,,,,,0,31,31,31,,,,,,,,,,,,,,,,,,,,,,,,,,,,,,,,,,,,,,,,,,,,,,,,,,,,,,,,,,,,,,,,,,,,,,,,,1.141975313425064,0.7423175000585616,402.1520205999259,None,ScrollDown,정답입니다,402.1520205999259,None,402.1520205999259,None,402.1520205999259,None,402.1520205999259,None,402.79551269998774,None,402.79551269998774,403.29552659997717,,,,,,,,,,,,,,,,034,2022-06-01_18h07.39.709,FishGame,2022.1.1,61.173378803564795,
,33,나를 데려가줘,6,Orange,B,0,0,ScrollDown,ScrollUp,Orange.png,3,NonTarget,NonTarget,,,,,0,0,0,0,,,,,,,,,,,,,,,,,,,,,0,32,32,32,,,,,,,,,,,,,,,,,,,,,,,,,,,,,,,,,,,,,,,,,,,,,,,,,,,,,,,,,,,,,,,,,,,,,,,,,1,1.1421271997969598,403.9239741000347,None,ScrollDown,정답입니다,403.9239741000347,None,403.9239741000347,None,403.9239741000347,None,403.9239741000347,None,404.96182690002024,None,404.96182690002024,405.4619575000834,,,,,,,,,,,,,,,,034,2022-06-01_18h07.39.709,FishGame,2022.1.1,61.173378803564795,
,34,넌 쾌활해,1,Green,A,5.541666666666666,5.733333333333333,ScrollDown,ScrollUp,Green.png,3,Positive,Congruent,,,,,0,0,0,0,,,,,,,,,,,,,,,,,,,,,0,33,33,33,,,,,,,,,,,,,,,,,,,,,,,,,,,,,,,,,,,,,,,,,,,,,,,,,,,,,,,,,,,,,,,,,,,,,,,,,1.1450617164373398,0.8113935000728816,406.08328179991804,None,ScrollDown,정답입니다,406.08328179991804,None,406.08328179991804,None,406.08328179991804,None,406.08328179991804,None,406.79521639994346,None,406.79521639994346,407.29787250002846,,,,,,,,,,,,,,,,034,2022-06-01_18h07.39.709,FishGame,2022.1.1,61.173378803564795,
,35,나를 보내줘,6,Green,A,0,0,ScrollUp,ScrollDown,Green.png,3,NonTarget,NonTarget,,,,,0,0,0,0,,,,,,,,,,,,,,,,,,,,,0,34,34,34,,,,,,,,,,,,,,,,,,,,,,,,,,,,,,,,,,,,,,,,,,,,,,,,,,,,,,,,,,,,,,,,,,,,,,,,,1.7793209999799728,0.8594960998743773,407.91573560005054,None,ScrollUp,정답입니다,407.91573560005054,None,407.91573560005054,None,407.91573560005054,None,407.91573560005054,None,408.6788224999327,None,408.6788224999327,409.1810735000763,,,,,,,,,,,,,,,,034,2022-06-01_18h07.39.709,FishGame,2022.1.1,61.173378803564795,
,36,넌 명랑해,1,Orange,B,5.739130434782609,5.666666666666667,ScrollUp,ScrollDown,Orange.png,3,Positive,Incongruent,,,,,0,0,0,0,,,,,,,,,,,,,,,,,,,,,0,35,35,35,,,,,,,,,,,,,,,,,,,,,,,,,,,,,,,,,,,,,,,,,,,,,,,,,,,,,,,,,,,,,,,,,,,,,,,,,1.7083333333333335,0.77947419998236,409.80433630011976,None,ScrollUp,정답입니다,409.80433630011976,None,409.80433630011976,None,409.80433630011976,None,409.80433630011976,None,410.47885400010273,None,410.47885400010273,410.9809983999003,,,,,,,,,,,,,,,,034,2022-06-01_18h07.39.709,FishGame,2022.1.1,61.173378803564795,
,37,넌 멍해,4,Green,A,2.833333333333333,3.4,ScrollDown,ScrollUp,Green.png,3,Negative,Incongruent,,,,,0,0,0,0,,,,,,,,,,,,,,,,,,,,,0,36,36,36,,,,,,,,,,,,,,,,,,,,,,,,,,,,,,,,,,,,,,,,,,,,,,,,,,,,,,,,,,,,,,,,,,,,,,,,,1.1759259204069774,0.8257573998998851,411.60528940008953,None,ScrollDown,정답입니다,411.60528940008953,None,411.60528940008953,None,411.60528940008953,None,411.60528940008953,None,412.32866870006546,None,412.32866870006546,412.82867570011877,,,,,,,,,,,,,,,,034,2022-06-01_18h07.39.709,FishGame,2022.1.1,61.173378803564795,
,38,나를 데려가줘,6,Orange,B,0,0,ScrollDown,ScrollUp,Orange.png,3,NonTarget,NonTarget,,,,,0,0,0,0,,,,,,,,,,,,,,,,,,,,,0,37,37,37,,,,,,,,,,,,,,,,,,,,,,,,,,,,,,,,,,,,,,,,,,,,,,,,,,,,,,,,,,,,,,,,,,,,,,,,,1.1882716069618862,0.9948082000482827,413.4517383000348,None,ScrollDown,정답입니다,413.4517383000348,None,413.4517383000348,None,413.4517383000348,None,413.4517383000348,None,414.3452685000375,None,414.3452685000375,414.8453063000925,,,,,,,,,,,,,,,,034,2022-06-01_18h07.39.709,FishGame,2022.1.1,61.173378803564795,
,39,넌 현명해,2,Green,A,6.541666666666666,4.533333333333333,ScrollDown,ScrollUp,Green.png,3,Positive,Congruent,,,,,0,0,0,0,,,,,,,,,,,,,,,,,,,,,0,38,38,38,,,,,,,,,,,,,,,,,,,,,,,,,,,,,,,,,,,,,,,,,,,,,,,,,,,,,,,,,,,,,,,,,,,,,,,,,1.1280864129463832,0.9757014999631792,415.47071069991216,None,ScrollDown,정답입니다,415.47071069991216,None,415.47071069991216,None,415.47071069991216,None,415.47071069991216,None,416.3452486000024,None,416.3452486000024,416.8452580999583,,,,,,,,,,,,,,,,034,2022-06-01_18h07.39.709,FishGame,2022.1.1,61.173378803564795,
,40,넌 수줍어,3,Orange,B,3.541666666666666,4.366666666666666,ScrollUp,ScrollDown,Orange.png,3,Neutral,Neutral,,,,,0,0,0,0,,,,,,,,,,,,,,,,,,,,,0,39,39,39,,,,,,,,,,,,,,,,,,,,,,,,,,,,,,,,,,,,,,,,,,,,,,,,,,,,,,,,,,,,,,,,,,,,,,,,,1.9490740597248077,1.1264616001863033,417.4691105999518,None,ScrollUp,정답입니다,417.4691105999518,None,417.4691105999518,None,417.4691105999518,None,417.4691105999518,None,418.4951816999819,None,418.4951816999819,418.99738340009935,,,,,,,,,,,,,,,,034,2022-06-01_18h07.39.709,FishGame,2022.1.1,61.173378803564795,
,41,나를 데려가줘,6,Orange,B,0,0,ScrollDown,ScrollUp,Orange.png,3,NonTarget,NonTarget,,,,,0,0,0,0,,,,,,,,,,,,,,,,,,,,,0,40,40,40,,,,,,,,,,,,,,,,,,,,,,,,,,,,,,,,,,,,,,,,,,,,,,,,,,,,,,,,,,,,,,,,,,,,,,,,,1.2268518557151158,0.9095966999884695,419.61952059995383,None,ScrollDown,정답입니다,419.61952059995383,None,419.61952059995383,None,419.61952059995383,None,419.61952059995383,None,420.4285208999645,None,420.4285208999645,420.9306654999964,,,,,,,,,,,,,,,,034,2022-06-01_18h07.39.709,FishGame,2022.1.1,61.173378803564795,
,42,넌 성숙해,2,Orange,B,5.833333333333333,4.533333333333333,ScrollUp,ScrollDown,Orange.png,3,Positive,Incongruent,,,,,0,0,0,0,,,,,,,,,,,,,,,,,,,,,0,41,41,41,,,,,,,,,,,,,,,,,,,,,,,,,,,,,,,,,,,,,,,,,,,,,,,,,,,,,,,,,,,,,,,,,,,,,,,,,1.6944444452722869,0.8426979000214487,421.5525851000566,None,ScrollUp,정답입니다,421.5525851000566,None,421.5525851000566,None,421.5525851000566,None,421.5525851000566,None,422.2950927000493,None,422.2950927000493,422.7974485999439,,,,,,,,,,,,,,,,034,2022-06-01_18h07.39.709,FishGame,2022.1.1,61.173378803564795,
,1,넌 매력적이야,2,Orange,B,6.125,4.666666666666667,ScrollUp,ScrollDown,Orange.png,4,Positive,Incongruent,,,,,0,0,0,0,,,,,,,,,,,,,,,,,,,,,,,,,0,0,0,0,,,,,,,,,,,,,,,,,,,,,,,,,,,,453.31328199990094,454.8301721001044,454.8444656000938,455.79448939999565,455.84683110006154,456.794424300082,456.794424300082,None,,,,,,,,,,,,,,,,,,,,,,,,,,,,,,,,,,1.8811728457609813,0.8651028999593109,457.89813240012154,None,ScrollUp,정답입니다,457.89813240012154,None,457.89813240012154,None,457.89813240012154,None,457.89813240012154,None,458.6611260001082,None,458.6611260001082,459.1633101000916,423.29522909992374,None,423.29522909992374,None,0.11666667,-0.20092593,1,0,0,0.015993810025975108,None,453.29457950009964,None,,,034,2022-06-01_18h07.39.709,FishGame,2022.1.1,61.173378803564795,
,2,나를 보내줘,6,Green,A,0,0,ScrollUp,ScrollDown,Green.png,4,NonTarget,NonTarget,,,,,0,0,0,0,,,,,,,,,,,,,,,,,,,,,,,,,0,1,1,1,,,,,,,,,,,,,,,,,,,,,,,,,,,,,,,,,,,,,,,,,,,,,,,,,,,,,,,,,,,,,,,,,,,,,1.6574074104428291,1.0556018000934273,459.79422889999114,None,ScrollUp,정답입니다,459.79422889999114,None,459.79422889999114,None,459.79422889999114,None,459.79422889999114,None,460.74437030008994,None,460.74437030008994,461.2443671999499,,,,,,,,,,,,,,,,034,2022-06-01_18h07.39.709,FishGame,2022.1.1,61.173378803564795,
,3,넌 조심스러워,3,Green,A,4.791666666666666,4.666666666666667,ScrollDown,ScrollUp,Green.png,4,Neutral,Neutral,,,,,0,0,0,0,,,,,,,,,,,,,,,,,,,,,,,,,0,2,2,2,,,,,,,,,,,,,,,,,,,,,,,,,,,,,,,,,,,,,,,,,,,,,,,,,,,,,,,,,,,,,,,,,,,,,1.276234577099482,0.7949511001352221,461.86763829994015,None,ScrollDown,정답입니다,461.86763829994015,None,461.86763829994015,None,461.86763829994015,None,461.86763829994015,None,462.56094680004753,None,462.56094680004753,463.06103960005566,,,,,,,,,,,,,,,,034,2022-06-01_18h07.39.709,FishGame,2022.1.1,61.173378803564795,
,4,넌 철학적이야,3,Orange,B,4.5,4.266666666666667,ScrollUp,ScrollDown,Orange.png,4,Neutral,Neutral,,,,,0,0,0,0,,,,,,,,,,,,,,,,,,,,,,,,,0,3,3,3,,,,,,,,,,,,,,,,,,,,,,,,,,,,,,,,,,,,,,,,,,,,,,,,,,,,,,,,,,,,,,,,,,,,,1.7500000099341075,0.961657099891454,463.68828459992073,None,ScrollUp,정답입니다,463.68828459992073,None,463.68828459992073,None,463.68828459992073,None,463.68828459992073,None,464.544307500124,None,464.544307500124,465.050005099969,,,,,,,,,,,,,,,,034,2022-06-01_18h07.39.709,FishGame,2022.1.1,61.173378803564795,
,5,넌 쩨쩨해,5,Green,A,2.375,2.133333333333333,ScrollDown,ScrollUp,Green.png,4,Negative,Incongruent,,,,,0,0,0,0,,,,,,,,,,,,,,,,,,,,,,,,,0,4,4,4,,,,,,,,,,,,,,,,,,,,,,,,,,,,,,,,,,,,,,,,,,,,,,,,,,,,,,,,,,,,,,,,,,,,,1.2175925970077515,0.909614099888131,465.67561120004393,None,ScrollDown,정답입니다,465.67561120004393,None,465.67561120004393,None,465.67561120004393,None,465.67561120004393,None,466.47799489996396,None,466.47799489996396,466.9776610999834,,,,,,,,,,,,,,,,034,2022-06-01_18h07.39.709,FishGame,2022.1.1,61.173378803564795,
,6,나를 데려가줘,6,Orange,B,0,0,ScrollDown,ScrollUp,Orange.png,4,NonTarget,NonTarget,,,,,0,0,0,0,,,,,,,,,,,,,,,,,,,,,,,,,0,5,5,5,,,,,,,,,,,,,,,,,,,,,,,,,,,,,,,,,,,,,,,,,,,,,,,,,,,,,,,,,,,,,,,,,,,,,1.0787036915620167,0.9284101999364793,467.6018354999833,None,ScrollDown,정답입니다,467.6018354999833,None,467.6018354999833,None,467.6018354999833,None,467.6018354999833,None,468.42795110004954,None,468.42795110004954,468.92770499992184,,,,,,,,,,,,,,,,034,2022-06-01_18h07.39.709,FishGame,2022.1.1,61.173378803564795,
,7,넌 고집불통이야,5,Orange,B,2.875,2,ScrollUp,ScrollDown,Orange.png,4,Negative,Congruent,,,,,0,0,0,0,,,,,,,,,,,,,,,,,,,,,,,,,0,6,6,6,,,,,,,,,,,,,,,,,,,,,,,,,,,,,,,,,,,,,,,,,,,,,,,,,,,,,,,,,,,,,,,,,,,,,1.6975308607021966,0.7758318998385221,469.5623234999366,None,ScrollUp,정답입니다,469.5623234999366,None,469.5623234999366,None,469.5623234999366,None,469.5623234999366,None,470.22748239990324,None,470.22748239990324,470.7275024999399,,,,,,,,,,,,,,,,034,2022-06-01_18h07.39.709,FishGame,2022.1.1,61.173378803564795,
,8,넌 무심해,4,Green,A,2.875,3.2,ScrollDown,ScrollUp,Green.png,4,Negative,Incongruent,,,,,0,0,0,0,,,,,,,,,,,,,,,,,,,,,,,,,0,7,7,7,,,,,,,,,,,,,,,,,,,,,,,,,,,,,,,,,,,,,,,,,,,,,,,,,,,,,,,,,,,,,,,,,,,,,1.200617293516795,0.8471420998685062,471.3481540000066,None,ScrollDown,정답입니다,471.3481540000066,None,471.3481540000066,None,471.3481540000066,None,471.3481540000066,None,472.0941145999823,None,472.0941145999823,472.596285100095,,,,,,,,,,,,,,,,034,2022-06-01_18h07.39.709,FishGame,2022.1.1,61.173378803564795,
,9,넌 정겨워,1,Green,A,5.791666666666667,5.666666666666667,ScrollDown,ScrollUp,Green.png,4,Positive,Congruent,,,,,0,0,0,0,,,,,,,,,,,,,,,,,,,,,,,,,0,8,8,8,,,,,,,,,,,,,,,,,,,,,,,,,,,,,,,,,,,,,,,,,,,,,,,,,,,,,,,,,,,,,,,,,,,,,1.1327160547176998,0.9277108998503536,473.2172411000356,None,ScrollDown,정답입니다,473.2172411000356,None,473.2172411000356,None,473.2172411000356,None,473.2172411000356,None,474.0441044999752,None,474.0441044999752,474.54412119998597,,,,,,,,,,,,,,,,034,2022-06-01_18h07.39.709,FishGame,2022.1.1,61.173378803564795,
,10,나를 데려가줘,6,Orange,B,0,0,ScrollDown,ScrollUp,Orange.png,4,NonTarget,NonTarget,,,,,0,0,0,0,,,,,,,,,,,,,,,,,,,,,,,,,0,9,9,9,,,,,,,,,,,,,,,,,,,,,,,,,,,,,,,,,,,,,,,,,,,,,,,,,,,,,,,,,,,,,,,,,,,,,1.1049382785956066,1.009186000097543,475.1682951000985,None,ScrollDown,정답입니다,475.1682951000985,None,475.1682951000985,None,475.1682951000985,None,475.1682951000985,None,476.0773744001053,None,476.0773744001053,476.5774827999994,,,,,,,,,,,,,,,,034,2022-06-01_18h07.39.709,FishGame,2022.1.1,61.173378803564795,
,11,넌 체제순응적이야,4,Orange,B,3,3.6,ScrollUp,ScrollDown,Orange.png,4,Negative,Congruent,,,,,0,0,0,0,,,,,,,,,,,,,,,,,,,,,,,,,0,10,10,10,,,,,,,,,,,,,,,,,,,,,,,,,,,,,,,,,,,,,,,,,,,,,,,,,,,,,,,,,,,,,,,,,,,,,1.5709876542290053,0.9091831999830902,477.21530240005814,None,ScrollUp,정답입니다,477.21530240005814,None,477.21530240005814,None,477.21530240005814,None,477.21530240005814,None,478.01066950010136,None,478.01066950010136,478.5107273000758,,,,,,,,,,,,,,,,034,2022-06-01_18h07.39.709,FishGame,2022.1.1,61.173378803564795,
,12,나를 보내줘,6,Green,A,0,0,ScrollUp,ScrollDown,Green.png,4,NonTarget,NonTarget,,,,,0,0,0,0,,,,,,,,,,,,,,,,,,,,,,,,,0,11,11,11,,,,,,,,,,,,,,,,,,,,,,,,,,,,,,,,,,,,,,,,,,,,,,,,,,,,,,,,,,,,,,,,,,,,,1.6898148159186044,1.025916599901393,479.1322415000759,None,ScrollUp,정답입니다,479.1322415000759,None,479.1322415000759,None,479.1322415000759,None,479.1322415000759,None,480.0628537000157,None,480.0628537000157,480.5628422999289,,,,,,,,,,,,,,,,034,2022-06-01_18h07.39.709,FishGame,2022.1.1,61.173378803564795,
,13,넌 박식해,2,Green,A,5.625,3.933333333333333,ScrollDown,ScrollUp,Green.png,4,Positive,Congruent,,,,,0,0,0,0,,,,,,,,,,,,,,,,,,,,,,,,,0,12,12,12,,,,,,,,,,,,,,,,,,,,,,,,,,,,,,,,,,,,,,,,,,,,,,,,,,,,,,,,,,,,,,,,,,,,,1.233024686574936,0.8117068000137806,481.2011722999159,None,ScrollDown,정답입니다,481.2011722999159,None,481.2011722999159,None,481.2011722999159,None,481.2011722999159,None,481.9105640000198,None,481.9105640000198,482.4105754001066,,,,,,,,,,,,,,,,034,2022-06-01_18h07.39.709,FishGame,2022.1.1,61.173378803564795,
,14,나를 보내줘,6,Green,A,0,0,ScrollUp,ScrollDown,Green.png,4,NonTarget,NonTarget,,,,,0,0,0,0,,,,,,,,,,,,,,,,,,,,,,,,,0,13,13,13,,,,,,,,,,,,,,,,,,,,,,,,,,,,,,,,,,,,,,,,,,,,,,,,,,,,,,,,,,,,,,,,,,,,,1.5987654303510985,0.9284348001237959,483.0368041000329,None,ScrollUp,정답입니다,483.0368041000329,None,483.0368041000329,None,483.0368041000329,None,483.0368041000329,None,483.860639099963,None,483.860639099963,484.3628255999647,,,,,,,,,,,,,,,,034,2022-06-01_18h07.39.709,FishGame,2022.1.1,61.173378803564795,
,15,넌 침착해,1,Orange,B,5.458333333333333,5.566666666666666,ScrollUp,ScrollDown,Orange.png,4,Positive,Incongruent,,,,,0,0,0,0,,,,,,,,,,,,,,,,,,,,,,,,,0,14,14,14,,,,,,,,,,,,,,,,,,,,,,,,,,,,,,,,,,,,,,,,,,,,,,,,,,,,,,,,,,,,,,,,,,,,,1.8317901243766148,1.0760661999229342,484.9896970000118,None,ScrollUp,정답입니다,484.9896970000118,None,484.9896970000118,None,484.9896970000118,None,484.9896970000118,None,485.96057299990207,None,485.96057299990207,486.4605511999689,,,,,,,,,,,,,,,,034,2022-06-01_18h07.39.709,FishGame,2022.1.1,61.173378803564795,
,16,나를 데려가줘,6,Orange,B,0,0,ScrollDown,ScrollUp,Orange.png,4,NonTarget,NonTarget,,,,,0,0,0,0,,,,,,,,,,,,,,,,,,,,,,,,,0,15,15,15,,,,,,,,,,,,,,,,,,,,,,,,,,,,,,,,,,,,,,,,,,,,,,,,,,,,,,,,,,,,,,,,,,,,,1.233024686574936,0.9926179000176489,487.0849647000432,None,ScrollDown,정답입니다,487.0849647000432,None,487.0849647000432,None,487.0849647000432,None,487.0849647000432,None,487.97710960009135,None,487.97710960009135,488.47719030012377,,,,,,,,,,,,,,,,034,2022-06-01_18h07.39.709,FishGame,2022.1.1,61.173378803564795,
,17,넌 행복해,1,Green,A,6.416666666666666,6.166666666666667,ScrollDown,ScrollUp,Green.png,4,Positive,Congruent,,,,,0,0,0,0,,,,,,,,,,,,,,,,,,,,,,,,,0,16,16,16,,,,,,,,,,,,,,,,,,,,,,,,,,,,,,,,,,,,,,,,,,,,,,,,,,,,,,,,,,,,,,,,,,,,,1.3101851840813956,0.7934451000764966,489.1040940999519,None,ScrollDown,정답입니다,489.1040940999519,None,489.1040940999519,None,489.1040940999519,None,489.1040940999519,None,489.7937767000403,None,489.7937767000403,490.2938226000406,,,,,,,,,,,,,,,,034,2022-06-01_18h07.39.709,FishGame,2022.1.1,61.173378803564795,
,18,넌 겸손해,2,Orange,B,5.791666666666667,4.766666666666667,ScrollUp,ScrollDown,Orange.png,4,Positive,Incongruent,,,,,0,0,0,0,,,,,,,,,,,,,,,,,,,,,,,,,0,17,17,17,,,,,,,,,,,,,,,,,,,,,,,,,,,,,,,,,,,,,,,,,,,,,,,,,,,,,,,,,,,,,,,,,,,,,1.7592592686414719,0.9944712000433356,490.91917939996347,None,ScrollUp,정답입니다,490.91917939996347,None,490.91917939996347,None,490.91917939996347,None,490.91917939996347,None,491.81034719990566,None,491.81034719990566,492.3104059000034,,,,,,,,,,,,,,,,034,2022-06-01_18h07.39.709,FishGame,2022.1.1,61.173378803564795,
,19,나를 보내줘,6,Green,A,0,0,ScrollUp,ScrollDown,Green.png,4,NonTarget,NonTarget,,,,,0,0,0,0,,,,,,,,,,,,,,,,,,,,,,,,,0,18,18,18,,,,,,,,,,,,,,,,,,,,,,,,,,,,,,,,,,,,,,,,,,,,,,,,,,,,,,,,,,,,,,,,,,,,,1.6203703756133714,0.9450277001596987,492.93111740006134,None,ScrollUp,정답입니다,492.93111740006134,None,492.93111740006134,None,492.93111740006134,None,492.93111740006134,None,493.7770374000538,None,493.7770374000538,494.2770746999886,,,,,,,,,,,,,,,,034,2022-06-01_18h07.39.709,FishGame,2022.1.1,61.173378803564795,
,20,넌 의심없어,3,Green,A,4.166666666666667,4.6,ScrollDown,ScrollUp,Green.png,4,Neutral,Neutral,,,,,0,0,0,0,,,,,,,,,,,,,,,,,,,,,,,,,0,19,19,19,,,,,,,,,,,,,,,,,,,,,,,,,,,,,,,,,,,,,,,,,,,,,,,,,,,,,,,,,,,,,,,,,,,,,1.1898148208856583,0.9926872001960874,494.89970490010455,None,ScrollDown,정답입니다,494.89970490010455,None,494.89970490010455,None,494.89970490010455,None,494.89970490010455,None,495.7936958000064,None,495.7936958000064,496.29372929991223,,,,,,,,,,,,,,,,034,2022-06-01_18h07.39.709,FishGame,2022.1.1,61.173378803564795,
,21,넌 시시해,4,Green,A,2.666666666666667,2.966666666666667,ScrollDown,ScrollUp,Green.png,4,Negative,Incongruent,,,,,0,0,0,0,,,,,,,,,,,,,,,,,,,,,,,,,0,20,20,20,,,,,,,,,,,,,,,,,,,,,,,,,,,,,,,,,,,,,,,,,,,,,,,,,,,,,,,,,,,,,,,,,,,,,1.1172839403152466,0.8948435999918729,496.91746590007097,None,ScrollDown,정답입니다,496.91746590007097,None,496.91746590007097,None,496.91746590007097,None,496.91746590007097,None,497.7103297000285,None,497.7103297000285,498.21039039990865,,,,,,,,,,,,,,,,034,2022-06-01_18h07.39.709,FishGame,2022.1.1,61.173378803564795,
,22,나를 데려가줘,6,Orange,B,0,0,ScrollDown,ScrollUp,Orange.png,4,NonTarget,NonTarget,,,,,0,0,0,0,,,,,,,,,,,,,,,,,,,,,,,,,0,21,21,21,,,,,,,,,,,,,,,,,,,,,,,,,,,,,,,,,,,,,,,,,,,,,,,,,,,,,,,,,,,,,,,,,,,,,1.1651234477758408,0.9428384997881949,498.83950309990905,None,ScrollDown,정답입니다,498.83950309990905,None,498.83950309990905,None,498.83950309990905,None,498.83950309990905,None,499.67690349998884,None,499.67690349998884,500.1790895999875,,,,,,,,,,,,,,,,034,2022-06-01_18h07.39.709,FishGame,2022.1.1,61.173378803564795,
,23,넌 무정해,5,Green,A,2.5,2.2,ScrollDown,ScrollUp,Green.png,4,Negative,Incongruent,,,,,0,0,0,0,,,,,,,,,,,,,,,,,,,,,,,,,0,22,22,22,,,,,,,,,,,,,,,,,,,,,,,,,,,,,,,,,,,,,,,,,,,,,,,,,,,,,,,,,,,,,,,,,,,,,1.1682098756233852,1.1101328998338431,500.79716440010816,None,ScrollDown,정답입니다,500.79716440010816,None,500.79716440010816,None,500.79716440010816,None,500.79716440010816,None,501.8101492000278,None,501.8101492000278,502.31020989990793,,,,,,,,,,,,,,,,034,2022-06-01_18h07.39.709,FishGame,2022.1.1,61.173378803564795,
,24,넌 긍정적이야,1,Orange,B,6.041666666666667,6.066666666666666,ScrollUp,ScrollDown,Orange.png,4,Positive,Incongruent,,,,,0,0,0,0,,,,,,,,,,,,,,,,,,,,,,,,,0,23,23,23,,,,,,,,,,,,,,,,,,,,,,,,,,,,,,,,,,,,,,,,,,,,,,,,,,,,,,,,,,,,,,,,,,,,,1.5972222226361432,0.9116392999421805,502.9408233000431,None,ScrollUp,정답입니다,502.9408233000431,None,502.9408233000431,None,502.9408233000431,None,502.9408233000431,None,503.7435735000763,None,503.7435735000763,504.24357799999416,,,,,,,,,,,,,,,,034,2022-06-01_18h07.39.709,FishGame,2022.1.1,61.173378803564795,
,25,나를 보내줘,6,Green,A,0,0,ScrollUp,ScrollDown,Green.png,4,NonTarget,NonTarget,,,,,0,0,0,0,,,,,,,,,,,,,,,,,,,,,,,,,0,24,24,24,,,,,,,,,,,,,,,,,,,,,,,,,,,,,,,,,,,,,,,,,,,,,,,,,,,,,,,,,,,,,,,,,,,,,1.5987654303510985,0.8969372999854386,504.86354609997943,None,ScrollUp,정답입니다,504.86354609997943,None,504.86354609997943,None,504.86354609997943,None,504.86354609997943,None,505.6601653001271,None,505.6601653001271,506.1601662999019,,,,,,,,,,,,,,,,034,2022-06-01_18h07.39.709,FishGame,2022.1.1,61.173378803564795,
,26,넌 시기심이 많아,5,Orange,B,2.458333333333333,2.233333333333333,ScrollUp,ScrollDown,Orange.png,4,Negative,Congruent,,,,,0,0,0,0,,,,,,,,,,,,,,,,,,,,,,,,,0,25,25,25,,,,,,,,,,,,,,,,,,,,,,,,,,,,,,,,,,,,,,,,,,,,,,,,,,,,,,,,,,,,,,,,,,,,,1.9984568059444427,0.9097789998631924,506.78711310005747,None,ScrollUp,정답입니다,506.78711310005747,None,506.78711310005747,None,506.78711310005747,None,506.78711310005747,None,507.5933735000435,None,507.5933735000435,508.0934276001062,,,,,,,,,,,,,,,,034,2022-06-01_18h07.39.709,FishGame,2022.1.1,61.173378803564795,
,27,넌 탁월해,2,Green,A,5.708333333333334,4.5,ScrollDown,ScrollUp,Green.png,4,Positive,Congruent,,,,,0,0,0,0,,,,,,,,,,,,,,,,,,,,,,,,,0,26,26,26,,,,,,,,,,,,,,,,,,,,,,,,,,,,,,,,,,,,,,,,,,,,,,,,,,,,,,,,,,,,,,,,,,,,,1.2253086417913437,1.692586500197649,508.7181659999769,None,ScrollDown,정답입니다,508.7181659999769,None,508.7181659999769,None,508.7181659999769,None,508.7181659999769,None,510.3100093000103,None,510.3100093000103,510.8099301001057,,,,,,,,,,,,,,,,034,2022-06-01_18h07.39.709,FishGame,2022.1.1,61.173378803564795,
,28,나를 데려가줘,6,Orange,B,0,0,ScrollDown,ScrollUp,Orange.png,4,NonTarget,NonTarget,,,,,0,0,0,0,,,,,,,,,,,,,,,,,,,,,,,,,0,27,27,27,,,,,,,,,,,,,,,,,,,,,,,,,,,,,,,,,,,,,,,,,,,,,,,,,,,,,,,,,,,,,,,,,,,,,1.1635802586873372,1.0314203999005258,511.4293102999218,None,ScrollDown,정답입니다,511.4293102999218,None,511.4293102999218,None,511.4293102999218,None,511.4293102999218,None,512.3600085000508,None,512.3600085000508,512.8622028001118,,,,,,,,,,,,,,,,034,2022-06-01_18h07.39.709,FishGame,2022.1.1,61.173378803564795,
,29,넌 조용해,3,Orange,B,4.333333333333333,4.166666666666667,ScrollUp,ScrollDown,Orange.png,4,Neutral,Neutral,,,,,0,0,0,0,,,,,,,,,,,,,,,,,,,,,,,,,0,28,28,28,,,,,,,,,,,,,,,,,,,,,,,,,,,,,,,,,,,,,,,,,,,,,,,,,,,,,,,,,,,,,,,,,,,,,1.90586419403553,1.1594613001216203,513.4901030000765,None,ScrollUp,정답입니다,513.4901030000765,None,513.4901030000765,None,513.4901030000765,None,513.4901030000765,None,514.5432281999383,None,514.5432281999383,515.0433435000014,,,,,,,,,,,,,,,,034,2022-06-01_18h07.39.709,FishGame,2022.1.1,61.173378803564795,
,30,넌 다정해,1,Green,A,5.833333333333334,5.7,ScrollDown,ScrollUp,Green.png,4,Positive,Congruent,,,,,0,0,0,0,,,,,,,,,,,,,,,,,,,,,,,,,0,29,29,29,,,,,,,,,,,,,,,,,,,,,,,,,,,,,,,,,,,,,,,,,,,,,,,,,,,,,,,,,,,,,,,,,,,,,1.32253085821867,0.9120368999429047,515.6690644999035,None,ScrollDown,정답입니다,515.6690644999035,None,515.6690644999035,None,515.6690644999035,None,515.6690644999035,None,516.4765981000382,None,516.4765981000382,516.9787755000871,,,,,,,,,,,,,,,,034,2022-06-01_18h07.39.709,FishGame,2022.1.1,61.173378803564795,
,31,넌 능력있어,2,Orange,B,6.166666666666666,4.6,ScrollUp,ScrollDown,Orange.png,4,Positive,Incongruent,,,,,0,0,0,0,,,,,,,,,,,,,,,,,,,,,,,,,0,30,30,30,,,,,,,,,,,,,,,,,,,,,,,,,,,,,,,,,,,,,,,,,,,,,,,,,,,,,,,,,,,,,,,,,,,,,1.7345678955316544,0.8603821001015604,517.5996691000182,None,ScrollUp,정답입니다,517.5996691000182,None,517.5996691000182,None,517.5996691000182,None,517.5996691000182,None,518.3598684000317,None,518.3598684000317,518.8598462999798,,,,,,,,,,,,,,,,034,2022-06-01_18h07.39.709,FishGame,2022.1.1,61.173378803564795,
,32,넌 불쾌해,5,Green,A,2.125,1.933333333333333,ScrollDown,ScrollUp,Green.png,4,Negative,Incongruent,,,,,0,0,0,0,,,,,,,,,,,,,,,,,,,,,,,,,0,31,31,31,,,,,,,,,,,,,,,,,,,,,,,,,,,,,,,,,,,,,,,,,,,,,,,,,,,,,,,,,,,,,,,,,,,,,1.2515432039896646,1.210917699849233,519.4828266999684,None,ScrollDown,정답입니다,519.4828266999684,None,519.4828266999684,None,519.4828266999684,None,519.4828266999684,None,520.5931394000072,None,520.5931394000072,521.0932001001202,,,,,,,,,,,,,,,,034,2022-06-01_18h07.39.709,FishGame,2022.1.1,61.173378803564795,
,33,나를 데려가줘,6,Orange,B,0,0,ScrollDown,ScrollUp,Orange.png,4,NonTarget,NonTarget,,,,,0,0,0,0,,,,,,,,,,,,,,,,,,,,,,,,,0,32,32,32,,,,,,,,,,,,,,,,,,,,,,,,,,,,,,,,,,,,,,,,,,,,,,,,,,,,,,,,,,,,,,,,,,,,,1.0987654229005177,1.0264441999606788,521.7196377001237,None,ScrollDown,정답입니다,521.7196377001237,None,521.7196377001237,None,521.7196377001237,None,521.7196377001237,None,522.6431815000251,None,522.6431815000251,523.1431750999764,,,,,,,,,,,,,,,,034,2022-06-01_18h07.39.709,FishGame,2022.1.1,61.173378803564795,
,34,넌 유순해,3,Green,A,4.458333333333333,5,ScrollDown,ScrollUp,Green.png,4,Neutral,Neutral,,,,,0,0,0,0,,,,,,,,,,,,,,,,,,,,,,,,,0,33,33,33,,,,,,,,,,,,,,,,,,,,,,,,,,,,,,,,,,,,,,,,,,,,,,,,,,,,,,,,,,,,,,,,,,,,,1.1574074029922485,0.7938443999737501,523.7674465000164,None,ScrollDown,정답입니다,523.7674465000164,None,523.7674465000164,None,523.7674465000164,None,523.7674465000164,None,524.4594503999688,None,524.4594503999688,524.9595802999102,,,,,,,,,,,,,,,,034,2022-06-01_18h07.39.709,FishGame,2022.1.1,61.173378803564795,
,35,넌 근심스러워,4,Orange,B,2.708333333333333,3.133333333333333,ScrollUp,ScrollDown,Orange.png,4,Negative,Congruent,,,,,0,0,0,0,,,,,,,,,,,,,,,,,,,,,,,,,0,34,34,34,,,,,,,,,,,,,,,,,,,,,,,,,,,,,,,,,,,,,,,,,,,,,,,,,,,,,,,,,,,,,,,,,,,,,1.8564814726511638,0.8626459999941289,525.5873243999667,None,ScrollUp,정답입니다,525.5873243999667,None,525.5873243999667,None,525.5873243999667,None,525.5873243999667,None,526.3427907000296,None,526.3427907000296,526.845365599962,,,,,,,,,,,,,,,,034,2022-06-01_18h07.39.709,FishGame,2022.1.1,61.173378803564795,
,36,넌 세련되었어,2,Green,A,5.5,4.6,ScrollDown,ScrollUp,Green.png,4,Positive,Congruent,,,,,0,0,0,0,,,,,,,,,,,,,,,,,,,,,,,,,0,35,35,35,,,,,,,,,,,,,,,,,,,,,,,,,,,,,,,,,,,,,,,,,,,,,,,,,,,,,,,,,,,,,,,,,,,,,1.121913582086563,0.9296786999329925,527.4655532001052,None,ScrollDown,정답입니다,527.4655532001052,None,527.4655532001052,None,527.4655532001052,None,527.4655532001052,None,528.2953224999364,None,528.2953224999364,528.795298299985,,,,,,,,,,,,,,,,034,2022-06-01_18h07.39.709,FishGame,2022.1.1,61.173378803564795,
,37,나를 보내줘,6,Green,A,0,0,ScrollUp,ScrollDown,Green.png,4,NonTarget,NonTarget,,,,,0,0,0,0,,,,,,,,,,,,,,,,,,,,,,,,,0,36,36,36,,,,,,,,,,,,,,,,,,,,,,,,,,,,,,,,,,,,,,,,,,,,,,,,,,,,,,,,,,,,,,,,,,,,,1.9583333432674408,0.9282173998653889,529.4294438001234,None,ScrollUp,정답입니다,529.4294438001234,None,529.4294438001234,None,529.4294438001234,None,529.4294438001234,None,530.2596277000848,None,530.2596277000848,530.7596945001278,,,,,,,,,,,,,,,,034,2022-06-01_18h07.39.709,FishGame,2022.1.1,61.173378803564795,
,38,넌 확고해,3,Orange,B,4.708333333333334,4.566666666666666,ScrollUp,ScrollDown,Orange.png,4,Neutral,Neutral,,,,,0,0,0,0,,,,,,,,,,,,,,,,,,,,,,,,,0,37,37,37,,,,,,,,,,,,,,,,,,,,,,,,,,,,,,,,,,,,,,,,,,,,,,,,,,,,,,,,,,,,,,,,,,,,,1.8503086417913437,0.9601640999317169,531.3862644999754,None,ScrollUp,정답입니다,531.3862644999754,None,531.3862644999754,None,531.3862644999754,None,531.3862644999754,None,532.2426219000481,None,532.2426219000481,532.7426998000592,,,,,,,,,,,,,,,,034,2022-06-01_18h07.39.709,FishGame,2022.1.1,61.173378803564795,
,39,넌 이해심이 많아,1,Orange,B,6.041666666666668,5.533333333333333,ScrollUp,ScrollDown,Orange.png,4,Positive,Incongruent,,,,,0,0,0,0,,,,,,,,,,,,,,,,,,,,,,,,,0,38,38,38,,,,,,,,,,,,,,,,,,,,,,,,,,,,,,,,,,,,,,,,,,,,,,,,,,,,,,,,,,,,,,,,,,,,,1.8626543283462524,0.8121774001047015,533.3608762000222,None,ScrollUp,정답입니다,533.3608762000222,None,533.3608762000222,None,533.3608762000222,None,533.3608762000222,None,534.0759586000349,None,534.0759586000349,534.5785521001089,,,,,,,,,,,,,,,,034,2022-06-01_18h07.39.709,FishGame,2022.1.1,61.173378803564795,
,40,나를 보내줘,6,Green,A,0,0,ScrollUp,ScrollDown,Green.png,4,NonTarget,NonTarget,,,,,0,0,0,0,,,,,,,,,,,,,,,,,,,,,,,,,0,39,39,39,,,,,,,,,,,,,,,,,,,,,,,,,,,,,,,,,,,,,,,,,,,,,,,,,,,,,,,,,,,,,,,,,,,,,1.6280864203969636,1.0106494000647217,535.1979237000924,None,ScrollUp,정답입니다,535.1979237000924,None,535.1979237000924,None,535.1979237000924,None,535.1979237000924,None,536.1096123000607,None,536.1096123000607,536.6118077998981,,,,,,,,,,,,,,,,034,2022-06-01_18h07.39.709,FishGame,2022.1.1,61.173378803564795,
,41,넌 거칠어,4,Green,A,2.625,3.033333333333333,ScrollDown,ScrollUp,Green.png,4,Negative,Incongruent,,,,,0,0,0,0,,,,,,,,,,,,,,,,,,,,,,,,,0,40,40,40,,,,,,,,,,,,,,,,,,,,,,,,,,,,,,,,,,,,,,,,,,,,,,,,,,,,,,,,,,,,,,,,,,,,,1.296296296020349,0.831139899790287,537.2306725000963,None,ScrollDown,정답입니다,537.2306725000963,None,537.2306725000963,None,537.2306725000963,None,537.2306725000963,None,537.9591659998987,None,537.9591659998987,538.4592548001092,,,,,,,,,,,,,,,,034,2022-06-01_18h07.39.709,FishGame,2022.1.1,61.173378803564795,
,42,넌 변덕맞아,5,Orange,B,2.75,2.166666666666667,ScrollUp,ScrollDown,Orange.png,4,Negative,Congruent,,,,,0,0,0,0,,,,,,,,,,,,,,,,,,,,,,,,,0,41,41,41,,,,,,,,,,,,,,,,,,,,,,,,,,,,,,,,,,,,,,,,,,,,,,,,,,,,,,,,,,,,,,,,,,,,,1.7530864129463832,1.2288202999625355,539.0913394999225,None,ScrollUp,정답입니다,539.0913394999225,None,539.0913394999225,None,539.0913394999225,None,539.0913394999225,None,540.209161600098,None,540.209161600098,540.709267700091,,,,,,,,,,,,,,,,034,2022-06-01_18h07.39.709,FishGame,2022.1.1,61.173378803564795,
,43,나를 데려가줘,6,Orange,B,0,0,ScrollDown,ScrollUp,Orange.png,4,NonTarget,NonTarget,,,,,0,0,0,0,,,,,,,,,,,,,,,,,,,,,,,,,0,42,42,42,,,,,,,,,,,,,,,,,,,,,,,,,,,,,,,,,,,,,,,,,,,,,,,,,,,,,,,,,,,,,,,,,,,,,1.3302469154198966,0.8619520000647753,541.3364597999025,None,ScrollDown,정답입니다,541.3364597999025,None,541.3364597999025,None,541.3364597999025,None,541.3364597999025,None,542.0950597999617,None,542.0950597999617,542.5950541000348,,,,,,,,,,,,,,,,034,2022-06-01_18h07.39.709,FishGame,2022.1.1,61.173378803564795,
,44,넌 외로워,4,Orange,B,2.833333333333333,3.3,ScrollUp,ScrollDown,Orange.png,4,Negative,Congruent,,,,,0,0,0,0,,,,,,,,,,,,,,,,,,,,,,,,,0,43,43,43,,,,,,,,,,,,,,,,,,,,,,,,,,,,,,,,,,,,,,,,,,,,,,,,,,,,,,,,,,,,,,,,,,,,,1.8302469104528427,0.8625778998248279,543.2132250999566,None,ScrollUp,정답입니다,543.2132250999566,None,543.2132250999566,None,543.2132250999566,None,543.2132250999566,None,543.9760126001202,None,543.9760126001202,544.478235000046,,,,,,,,,,,,,,,,034,2022-06-01_18h07.39.709,FishGame,2022.1.1,61.173378803564795,
,1,넌 불평스러워,5,Green,A,2.25,2.066666666666667,ScrollDown,ScrollUp,Green.png,5,Negative,Incongruent,,,,,0,0,0,0,,,,,,,,,,,,,,,,,,,,,,,,,,,,,0,0,0,0,,,,,,,,,,,,,,,,,,,,,,,,575.7586946000811,577.2585420000833,577.291878100019,578.2444909000769,578.2778541999869,579.2253618999384,579.2253618999384,None,,,,,,,,,,,,,,,,,,,,,,,,,,,,,,,,,,1.1712963034709294,0.8576342000160366,580.3151736999862,None,ScrollDown,정답입니다,580.3151736999862,None,580.3151736999862,None,580.3151736999862,None,580.3151736999862,None,581.0752574000508,None,581.0752574000508,581.5753417999949,544.9782920998987,None,544.9782920998987,None,0.17685185,-0.11666667,1,0,0,0.01633291016332805,None,574.9807438000571,None,,,034,2022-06-01_18h07.39.709,FishGame,2022.1.1,61.173378803564795,
,2,나를 보내줘,6,Green,A,0,0,ScrollUp,ScrollDown,Green.png,5,NonTarget,NonTarget,,,,,0,0,0,0,,,,,,,,,,,,,,,,,,,,,,,,,,,,,0,1,1,1,,,,,,,,,,,,,,,,,,,,,,,,,,,,,,,,,,,,,,,,,,,,,,,,,,,,,,,,,,,,,,,,,1.604938273628553,0.86134840012528,582.196942599956,None,ScrollUp,정답입니다,582.196942599956,None,582.196942599956,None,582.196942599956,None,582.196942599956,None,582.958568100119,None,582.958568100119,583.4585609999485,,,,,,,,,,,,,,,,034,2022-06-01_18h07.39.709,FishGame,2022.1.1,61.173378803564795,
,3,넌 다재다능해,2,Orange,B,6.208333333333333,4.5,ScrollUp,ScrollDown,Orange.png,5,Positive,Incongruent,,,,,0,0,0,0,,,,,,,,,,,,,,,,,,,,,,,,,,,,,0,2,2,2,,,,,,,,,,,,,,,,,,,,,,,,,,,,,,,,,,,,,,,,,,,,,,,,,,,,,,,,,,,,,,,,,1.5200617282340922,0.6941854001488537,584.0785652999766,None,NoResponse,무응답입니다,584.0785652999766,None,584.0785652999766,None,584.0785652999766,None,584.0785652999766,None,584.67522189999,None,584.67522189999,585.1774095001165,,,,,,,,,,,,,,,,034,2022-06-01_18h07.39.709,FishGame,2022.1.1,61.173378803564795,
,4,넌 과감해,3,Green,A,4.833333333333334,4.6,ScrollDown,ScrollUp,Green.png,5,Neutral,Neutral,,,,,0,0,0,0,,,,,,,,,,,,,,,,,,,,,,,,,,,,,0,3,3,3,,,,,,,,,,,,,,,,,,,,,,,,,,,,,,,,,,,,,,,,,,,,,,,,,,,,,,,,,,,,,,,,,1.0509259402751923,1.4758323000278324,585.7982467000838,None,ScrollDown,정답입니다,585.7982467000838,None,585.7982467000838,None,585.7982467000838,None,585.7982467000838,None,587.175213099923,None,587.175213099923,587.6773143999744,,,,,,,,,,,,,,,,034,2022-06-01_18h07.39.709,FishGame,2022.1.1,61.173378803564795,
,5,넌 고분고분해,3,Orange,B,3.75,4.033333333333333,ScrollUp,ScrollDown,Orange.png,5,Neutral,Neutral,,,,,0,0,0,0,,,,,,,,,,,,,,,,,,,,,,,,,,,,,0,4,4,4,,,,,,,,,,,,,,,,,,,,,,,,,,,,,,,,,,,,,,,,,,,,,,,,,,,,,,,,,,,,,,,,,1.7947530895471573,0.8778467997908592,588.3120778000448,None,ScrollUp,정답입니다,588.3120778000448,None,588.3120778000448,None,588.3120778000448,None,588.3120778000448,None,589.0751120999921,None,589.0751120999921,589.575259400066,,,,,,,,,,,,,,,,034,2022-06-01_18h07.39.709,FishGame,2022.1.1,61.173378803564795,
,6,나를 보내줘,6,Green,A,0,0,ScrollUp,ScrollDown,Green.png,5,NonTarget,NonTarget,,,,,0,0,0,0,,,,,,,,,,,,,,,,,,,,,,,,,,,,,0,5,5,5,,,,,,,,,,,,,,,,,,,,,,,,,,,,,,,,,,,,,,,,,,,,,,,,,,,,,,,,,,,,,,,,,1.7608024577299755,1.0338469999842346,590.194460199913,None,ScrollUp,정답입니다,590.194460199913,None,590.194460199913,None,590.194460199913,None,590.194460199913,None,591.1303777000867,None,591.1303777000867,591.6417074999772,,,,,,,,,,,,,,,,034,2022-06-01_18h07.39.709,FishGame,2022.1.1,61.173378803564795,
,7,넌 잘 잊어,4,Green,A,3,3.7,ScrollDown,ScrollUp,Green.png,5,Negative,Incongruent,,,,,0,0,0,0,,,,,,,,,,,,,,,,,,,,,,,,,,,,,0,6,6,6,,,,,,,,,,,,,,,,,,,,,,,,,,,,,,,,,,,,,,,,,,,,,,,,,,,,,,,,,,,,,,,,,1.1574074029922485,0.9118698998354375,592.2700096999761,None,ScrollDown,정답입니다,592.2700096999761,None,592.2700096999761,None,592.2700096999761,None,592.2700096999761,None,593.074965900043,None,593.074965900043,593.5771977999248,,,,,,,,,,,,,,,,034,2022-06-01_18h07.39.709,FishGame,2022.1.1,61.173378803564795,
,8,넌 탐구심이없어,4,Orange,B,2.833333333333333,3.066666666666667,ScrollUp,ScrollDown,Orange.png,5,Negative,Congruent,,,,,0,0,0,0,,,,,,,,,,,,,,,,,,,,,,,,,,,,,0,7,7,7,,,,,,,,,,,,,,,,,,,,,,,,,,,,,,,,,,,,,,,,,,,,,,,,,,,,,,,,,,,,,,,,,1.8641975422700245,0.8626888000871986,594.2023239999544,None,ScrollUp,정답입니다,594.2023239999544,None,594.2023239999544,None,594.2023239999544,None,594.2023239999544,None,594.9583437000401,None,594.9583437000401,595.4583811999764,,,,,,,,,,,,,,,,034,2022-06-01_18h07.39.709,FishGame,2022.1.1,61.173378803564795,
,9,나를 데려가줘,6,Orange,B,0,0,ScrollDown,ScrollUp,Orange.png,5,NonTarget,NonTarget,,,,,0,0,0,0,,,,,,,,,,,,,,,,,,,,,,,,,,,,,0,8,8,8,,,,,,,,,,,,,,,,,,,,,,,,,,,,,,,,,,,,,,,,,,,,,,,,,,,,,,,,,,,,,,,,,1.0864197611808777,0.9108182999771088,596.080189100001,None,ScrollDown,정답입니다,596.080189100001,None,596.080189100001,None,596.080189100001,None,596.080189100001,None,596.8915752999019,None,596.8915752999019,597.393789099995,,,,,,,,,,,,,,,,034,2022-06-01_18h07.39.709,FishGame,2022.1.1,61.173378803564795,
,10,넌 참되어,2,Green,A,6.041666666666664,4.733333333333333,ScrollDown,ScrollUp,Green.png,5,Positive,Congruent,,,,,0,0,0,0,,,,,,,,,,,,,,,,,,,,,,,,,,,,,0,9,9,9,,,,,,,,,,,,,,,,,,,,,,,,,,,,,,,,,,,,,,,,,,,,,,,,,,,,,,,,,,,,,,,,,1,0.8781914000865072,598.0149850000162,None,ScrollDown,정답입니다,598.0149850000162,None,598.0149850000162,None,598.0149850000162,None,598.0149850000162,None,598.7915493000764,None,598.7915493000764,599.2916399999522,,,,,,,,,,,,,,,,034,2022-06-01_18h07.39.709,FishGame,2022.1.1,61.173378803564795,
,11,넌 생기있어,1,Orange,B,5.875,5.633333333333334,ScrollUp,ScrollDown,Orange.png,5,Positive,Incongruent,,,,,0,0,0,0,,,,,,,,,,,,,,,,,,,,,,,,,,,,,0,10,10,10,,,,,,,,,,,,,,,,,,,,,,,,,,,,,,,,,,,,,,,,,,,,,,,,,,,,,,,,,,,,,,,,,1.9290123283863068,0.7923725999426097,599.9224199000746,None,ScrollUp,정답입니다,599.9224199000746,None,599.9224199000746,None,599.9224199000746,None,599.9224199000746,None,600.6082164000254,None,600.6082164000254,601.1104055000469,,,,,,,,,,,,,,,,034,2022-06-01_18h07.39.709,FishGame,2022.1.1,61.173378803564795,
,12,넌 비사교적이야,4,Orange,B,2.875,2.9,ScrollUp,ScrollDown,Orange.png,5,Negative,Congruent,,,,,0,0,0,0,,,,,,,,,,,,,,,,,,,,,,,,,,,,,0,11,11,11,,,,,,,,,,,,,,,,,,,,,,,,,,,,,,,,,,,,,,,,,,,,,,,,,,,,,,,,,,,,,,,,,1.7083333333333335,0.827593999914825,601.7336128999013,None,ScrollUp,정답입니다,601.7336128999013,None,601.7336128999013,None,601.7336128999013,None,601.7336128999013,None,602.4582366000395,None,602.4582366000395,602.9582122000866,,,,,,,,,,,,,,,,034,2022-06-01_18h07.39.709,FishGame,2022.1.1,61.173378803564795,
,13,나를 데려가줘,6,Orange,B,0,0,ScrollDown,ScrollUp,Orange.png,5,NonTarget,NonTarget,,,,,0,0,0,0,,,,,,,,,,,,,,,,,,,,,,,,,,,,,0,12,12,12,,,,,,,,,,,,,,,,,,,,,,,,,,,,,,,,,,,,,,,,,,,,,,,,,,,,,,,,,,,,,,,,,1.2268518557151158,0.862157299881801,603.5840777999256,None,ScrollDown,정답입니다,603.5840777999256,None,603.5840777999256,None,603.5840777999256,None,603.5840777999256,None,604.34144930006,None,604.34144930006,604.843654199969,,,,,,,,,,,,,,,,034,2022-06-01_18h07.39.709,FishGame,2022.1.1,61.173378803564795,
,14,넌 고독해,4,Green,A,2.916666666666667,3.233333333333333,ScrollDown,ScrollUp,Green.png,5,Negative,Incongruent,,,,,0,0,0,0,,,,,,,,,,,,,,,,,,,,,,,,,,,,,0,13,13,13,,,,,,,,,,,,,,,,,,,,,,,,,,,,,,,,,,,,,,,,,,,,,,,,,,,,,,,,,,,,,,,,,1.0817901194095612,0.8424613000825047,605.4632786998991,None,ScrollDown,정답입니다,605.4632786998991,None,605.4632786998991,None,605.4632786998991,None,605.4632786998991,None,606.2103395999875,None,606.2103395999875,606.724846499972,,,,,,,,,,,,,,,,034,2022-06-01_18h07.39.709,FishGame,2022.1.1,61.173378803564795,
,15,넌 신경질적이야,5,Orange,B,2.375,2.233333333333333,ScrollUp,ScrollDown,Orange.png,5,Negative,Congruent,,,,,0,0,0,0,,,,,,,,,,,,,,,,,,,,,,,,,,,,,0,14,14,14,,,,,,,,,,,,,,,,,,,,,,,,,,,,,,,,,,,,,,,,,,,,,,,,,,,,,,,,,,,,,,,,,1.8657407313585281,0.7937749999109656,607.3363119000569,None,ScrollUp,정답입니다,607.3363119000569,None,607.3363119000569,None,607.3363119000569,None,607.3363119000569,None,608.0247967999894,None,608.0247967999894,608.5248781000264,,,,,,,,,,,,,,,,034,2022-06-01_18h07.39.709,FishGame,2022.1.1,61.173378803564795,
,16,넌 똑똑해,2,Orange,B,5.666666666666667,3.966666666666667,ScrollUp,ScrollDown,Orange.png,5,Positive,Incongruent,,,,,0,0,0,0,,,,,,,,,,,,,,,,,,,,,,,,,,,,,0,15,15,15,,,,,,,,,,,,,,,,,,,,,,,,,,,,,,,,,,,,,,,,,,,,,,,,,,,,,,,,,,,,,,,,,1.8533950696388881,0.8615667000412941,609.1538571999408,None,ScrollUp,정답입니다,609.1538571999408,None,609.1538571999408,None,609.1538571999408,None,609.1538571999408,None,609.9102243001107,None,609.9102243001107,610.4081011000089,,,,,,,,,,,,,,,,034,2022-06-01_18h07.39.709,FishGame,2022.1.1,61.173378803564795,
,17,나를 보내줘,6,Green,A,0,0,ScrollUp,ScrollDown,Green.png,5,NonTarget,NonTarget,,,,,0,0,0,0,,,,,,,,,,,,,,,,,,,,,,,,,,,,,0,16,16,16,,,,,,,,,,,,,,,,,,,,,,,,,,,,,,,,,,,,,,,,,,,,,,,,,,,,,,,,,,,,,,,,,1.859567900498708,1.0759050999768078,611.0297109999228,None,ScrollUp,정답입니다,611.0297109999228,None,611.0297109999228,None,611.0297109999228,None,611.0297109999228,None,612.0080355000682,None,612.0080355000682,612.5102170999162,,,,,,,,,,,,,,,,034,2022-06-01_18h07.39.709,FishGame,2022.1.1,61.173378803564795,
,18,넌 협조적이야,1,Green,A,5.625,5.666666666666667,ScrollDown,ScrollUp,Green.png,5,Positive,Congruent,,,,,0,0,0,0,,,,,,,,,,,,,,,,,,,,,,,,,,,,,0,17,17,17,,,,,,,,,,,,,,,,,,,,,,,,,,,,,,,,,,,,,,,,,,,,,,,,,,,,,,,,,,,,,,,,,1.28086419403553,1.059095700038597,613.1339519000612,None,ScrollDown,정답입니다,613.1339519000612,None,613.1339519000612,None,613.1339519000612,None,613.1339519000612,None,614.0912443001289,None,614.0912443001289,614.5912768000271,,,,,,,,,,,,,,,,034,2022-06-01_18h07.39.709,FishGame,2022.1.1,61.173378803564795,
,19,나를 데려가줘,6,Orange,B,0,0,ScrollDown,ScrollUp,Orange.png,5,NonTarget,NonTarget,,,,,0,0,0,0,,,,,,,,,,,,,,,,,,,,,,,,,,,,,0,18,18,18,,,,,,,,,,,,,,,,,,,,,,,,,,,,,,,,,,,,,,,,,,,,,,,,,,,,,,,,,,,,,,,,,1.2592592487732568,0.9425599998794496,615.214774900116,None,ScrollDown,정답입니다,615.214774900116,None,615.214774900116,None,615.214774900116,None,615.214774900116,None,616.0579206000548,None,616.0579206000548,616.557966100052,,,,,,,,,,,,,,,,034,2022-06-01_18h07.39.709,FishGame,2022.1.1,61.173378803564795,
,20,넌 몰인정해,5,Orange,B,2.541666666666667,2.066666666666667,ScrollUp,ScrollDown,Orange.png,5,Negative,Congruent,,,,,0,0,0,0,,,,,,,,,,,,,,,,,,,,,,,,,,,,,0,19,19,19,,,,,,,,,,,,,,,,,,,,,,,,,,,,,,,,,,,,,,,,,,,,,,,,,,,,,,,,,,,,,,,,,1.8919753183921177,1.4592184000648558,617.1983161000535,None,ScrollUp,정답입니다,617.1983161000535,None,617.1983161000535,None,617.1983161000535,None,617.1983161000535,None,618.5411809999496,None,618.5411809999496,619.0412194000091,,,,,,,,,,,,,,,,034,2022-06-01_18h07.39.709,FishGame,2022.1.1,61.173378803564795,
,21,나를 데려가줘,6,Orange,B,0,0,ScrollDown,ScrollUp,Orange.png,5,NonTarget,NonTarget,,,,,0,0,0,0,,,,,,,,,,,,,,,,,,,,,,,,,,,,,0,20,20,20,,,,,,,,,,,,,,,,,,,,,,,,,,,,,,,,,,,,,,,,,,,,,,,,,,,,,,,,,,,,,,,,,1.1188271542390187,0.9427565999794751,619.6687076000962,None,ScrollDown,정답입니다,619.6687076000962,None,619.6687076000962,None,619.6687076000962,None,619.6687076000962,None,620.5078620000277,None,620.5078620000277,621.0078292000107,,,,,,,,,,,,,,,,034,2022-06-01_18h07.39.709,FishGame,2022.1.1,61.173378803564795,
