name,TrialNum,Word,WordCategory,FishType,WordList,WordValence,WordReputation,CorrectResp,IncorrectResp,FishTypeFile,Round,WordType,Condition,LoopforOrange.thisRepN,LoopforOrange.thisTrialN,LoopforOrange.thisN,LoopforOrange.thisIndex,OrangeInstLoop.thisRepN,OrangeInstLoop.thisTrialN,OrangeInstLoop.thisN,OrangeInstLoop.thisIndex,OrangePrac.thisRepN,OrangePrac.thisTrialN,OrangePrac.thisN,OrangePrac.thisIndex,temp1.thisRepN,temp1.thisTrialN,temp1.thisN,temp1.thisIndex,OrangeRound1.thisRepN,OrangeRound1.thisTrialN,OrangeRound1.thisN,OrangeRound1.thisIndex,OrangeRound2.thisRepN,OrangeRound2.thisTrialN,OrangeRound2.thisN,OrangeRound2.thisIndex,OrangeRound3.thisRepN,OrangeRound3.thisTrialN,OrangeRound3.thisN,OrangeRound3.thisIndex,OrangeRound4.thisRepN,OrangeRound4.thisTrialN,OrangeRound4.thisN,OrangeRound4.thisIndex,OrangeRound5.thisRepN,OrangeRound5.thisTrialN,OrangeRound5.thisN,OrangeRound5.thisIndex,LoopForGreen.thisRepN,LoopForGreen.thisTrialN,LoopForGreen.thisN,LoopForGreen.thisIndex,text_2.started,text_2.stopped,text_3.started,text_3.stopped,key_resp.keys,key_resp.rt,key_resp.started,key_resp.stopped,PassI_2.started,PassI_2.stopped,PassInst_2.keys,PassInst_2.rt,PassInst_2.started,PassInst_2.stopped,mouse_2.x,mouse_2.y,mouse_2.leftButton,mouse_2.midButton,mouse_2.rightButton,mouse_2.started,mouse_2.stopped,image.started,image.stopped,text_5.started,text_5.stopped,text_6.started,text_6.stopped,text_7.started,text_7.stopped,text_8.started,text_8.stopped,slider_2.response,slider_2.rt,slider_2.started,slider_2.stopped,Response_2,Feedback_2,BackGround_2.started,BackGround_2.stopped,Fish_2.started,Fish_2.stopped,WordBox_2.started,WordBox_2.stopped,Words_2.started,Words_2.stopped,BackGround_Feedback_2.started,BackGround_Feedback_2.stopped,Feedbacks_2.started,Feedbacks_2.stopped,Continue_or_not.keys,Continue_or_not.rt,Continue_or_not.started,Continue_or_not.stopped,image_3.started,image_3.stopped,mouse_3.x,mouse_3.y,mouse_3.leftButton,mouse_3.midButton,mouse_3.rightButton,mouse_3.started,mouse_3.stopped,startmain.started,startmain.stopped,slider.response,slider.rt,slider.started,slider.stopped,Response,Feedback,BackGround.started,BackGround.stopped,Fish.started,Fish.stopped,WordBox.started,WordBox.stopped,Words.started,Words.stopped,BackGround_Feedback.started,BackGround_Feedback.stopped,Feedbacks.started,Feedbacks.stopped,text.started,text.stopped,break_interval.started,break_interval.stopped,mouse.x,mouse.y,mouse.leftButton,mouse.midButton,mouse.rightButton,mouse.started,mouse.stopped,stratnextround.started,stratnextround.stopped,endgame.started,endgame.stopped,participant,date,expName,psychopyVersion,frameRate,
,,,,,,,,,,,,,,,,,,,,,,,,,,,,,,,,,,,,,,,,,,,,,,,,,,,,,,18.975500999949872,None,18.975500999949872,None,space,1.5020131999626756,19.474146999884397,None,,,,,,,,,,,,,,,,,,,,,,,,,,,,,,,,,,,,,,,,,,,,,,,,,,,,,,,,,,,,,,,,,,,,,,,,,,,,,,,,,,,,,,,,,,035,2022-06-02_10h41.17.424,FishGame,2022.1.1,59.98681486752809,
물고기과제_instruction(참가자용)OrangeVersion.mp4,,,,,,,,,,,,,,0,0,0,0,0,0,0,0,,,,,,,,,,,,,,,,,,,,,,,,,,,,,,,,,,,,,,,,,93.15592889999971,None,n,1.1804914001841098,93.15592889999971,None,,,,,,,,,,,,,,,,,,,,,,,,,,,,,,,,,,,,,,,,,,,,,,,,,,,,,,,,,,,,,,,,,,,,,,,,,,,,,,,,,,,,035,2022-06-02_10h41.17.424,FishGame,2022.1.1,59.98681486752809,
,1,넌 교활해,5,Green,B,2.333333333333333,2.133333333333333,ScrollUp,ScrollDown,Green.png,practice,,,0,0,0,0,,,,,0,0,0,0,0,0,0,0,,,,,,,,,,,,,,,,,,,,,,,,,,,,,,,,,,,,,,,-0.021296296,-0.23888889,1,0,0,0.5126007399521768,None,94.36929449997842,None,97.71709039993584,99.21933220000938,99.2503295999486,100.20264589996077,100.25267499987967,101.20027879998088,101.20027879998088,None,2,2.290631900075823,102.49106259993277,None,ScrollUp,정답입니다,102.49106259993277,None,102.49106259993277,None,102.49106259993277,None,102.49106259993277,None,104.48355309991166,None,104.48355309991166,104.98355400003493,,,,,,,,,,,,,,,,,,,,,,,,,,,,,,,,,,,,,,,,,,,,,,,,,035,2022-06-02_10h41.17.424,FishGame,2022.1.1,59.98681486752809,
,2,넌 슬기로워,2,Orange,A,6.166666666666667,4.1,ScrollDown,ScrollUp,Orange.png,practice,,,0,0,0,0,,,,,0,0,0,0,0,1,1,1,,,,,,,,,,,,,,,,,,,,,,,,,,,,,,,,,,,,,,,,,,,,,,,,,,,,,,,,1.141975313425064,0.9289867000188679,105.60892100003548,None,ScrollDown,정답입니다,105.60892100003548,None,105.60892100003548,None,105.60892100003548,None,105.60892100003548,None,106.43349039996974,None,106.43349039996974,106.9357020999305,,,,,,,,,,,,,,,,,,,,,,,,,,,,,,,,,,,,,,,,,,,,,,,,,035,2022-06-02_10h41.17.424,FishGame,2022.1.1,59.98681486752809,
,3,나를 보내줘,6,Orange,A,0,0,ScrollUp,ScrollDown,Orange.png,practice,,,0,0,0,0,,,,,0,0,0,0,0,2,2,2,,,,,,,,,,,,,,,,,,,,,,,,,,,,,,,,,,,,,,,,,,,,,,,,,,,,,,,,1.2608024626970291,1.2595142999198288,107.56043710000813,None,ScrollDown,오답입니다,107.56043710000813,None,107.56043710000813,None,107.56043710000813,None,107.56043710000813,None,108.71679249987938,None,108.71679249987938,109.21898310002871,,,,,,,,,,,,,,,,,,,,,,,,,,,,,,,,,,,,,,,,,,,,,,,,,035,2022-06-02_10h41.17.424,FishGame,2022.1.1,59.98681486752809,
,4,나를 데려가줘,6,Green,B,0,0,ScrollDown,ScrollUp,Green.png,practice,,,0,0,0,0,,,,,0,0,0,0,0,3,3,3,,,,,,,,,,,,,,,,,,,,,,,,,,,,,,,,,,,,,,,,,,,,,,,,,,,,,,,,1.1033950646718342,1.7089676999021322,109.84486499987543,None,ScrollDown,정답입니다,109.84486499987543,None,109.84486499987543,None,109.84486499987543,None,109.84486499987543,None,111.44977649999782,None,111.44977649999782,111.94990190002136,,,,,,,,,,,,,,,,,,,,,,,,,,,,,,,,,,,,,,,,,,,,,,,,,035,2022-06-02_10h41.17.424,FishGame,2022.1.1,59.98681486752809,
,1,넌 교활해,5,Green,B,2.333333333333333,2.133333333333333,ScrollUp,ScrollDown,Green.png,practice,,,0,0,0,0,,,,,0,0,0,0,,,,,,,,,,,,,,,,,,,,,,,,,,,,,,,,,,,,,,,,,,,,,,,,,,,,,,,,,,,,,,,,,,,,,,,,,,,,,,n,6.17404119996354,112.44988640001975,None,112.44988640001975,None,,,,,,,,,,,,,,,,,,,,,,,,,,,,,,,,,,,,,,,,,,,035,2022-06-02_10h41.17.424,FishGame,2022.1.1,59.98681486752809,
,1,넌 따뜻해,1,Green,B,6.083333333333333,5.6,ScrollUp,ScrollDown,Green.png,1,Positive,Incongruent,0,0,0,0,,,,,,,,,,,,,0,0,0,0,,,,,,,,,,,,,,,,,,,,,,,,,,,,,,,,,,,,,,,,,,,,119.7022593000438,121.2022059999872,121.23557579983026,122.18563309987076,122.23558129998855,123.18552759988233,123.18552759988233,None,,,,,,,,,,,,,,,,,,,,,,,,,-0.19166666,-0.1388889,1,0,0,0.2990660397335887,None,118.6499566999264,None,1.9953703780968983,1.3241910000797361,124.49399659992196,None,ScrollUp,정답입니다,124.49399659992196,None,124.49399659992196,None,124.49399659992196,None,124.49399659992196,None,125.49949710001238,None,125.49949710001238,125.9995559998788,,,,,,,,,,,,,,,,035,2022-06-02_10h41.17.424,FishGame,2022.1.1,59.98681486752809,
,2,넌 기품있어,2,Green,B,5.791666666666668,4.5,ScrollUp,ScrollDown,Green.png,1,Positive,Incongruent,0,0,0,0,,,,,,,,,,,,,0,1,1,1,,,,,,,,,,,,,,,,,,,,,,,,,,,,,,,,,,,,,,,,,,,,,,,,,,,,,,,,,,,,,,,,,,,,,,,,,,,,,,,,,,,,,1.873456800977389,1.0305982001591474,126.62565089995041,None,ScrollUp,정답입니다,126.62565089995041,None,126.62565089995041,None,126.62565089995041,None,126.62565089995041,None,127.55207199999131,None,127.55207199999131,128.05199349997565,,,,,,,,,,,,,,,,035,2022-06-02_10h41.17.424,FishGame,2022.1.1,59.98681486752809,
,3,나를 보내줘,6,Orange,A,0,0,ScrollUp,ScrollDown,Orange.png,1,NonTarget,NonTarget,0,0,0,0,,,,,,,,,,,,,0,2,2,2,,,,,,,,,,,,,,,,,,,,,,,,,,,,,,,,,,,,,,,,,,,,,,,,,,,,,,,,,,,,,,,,,,,,,,,,,,,,,,,,,,,,,1,0.9784677000716329,128.67784599983133,None,ScrollDown,오답입니다,128.67784599983133,None,128.67784599983133,None,128.67784599983133,None,128.67784599983133,None,129.5497818000149,None,129.5497818000149,130.05181269999593,,,,,,,,,,,,,,,,035,2022-06-02_10h41.17.424,FishGame,2022.1.1,59.98681486752809,
,4,넌 수동적이야,4,Orange,A,2.833333333333333,2.933333333333333,ScrollDown,ScrollUp,Orange.png,1,Negative,Incongruent,0,0,0,0,,,,,,,,,,,,,0,3,3,3,,,,,,,,,,,,,,,,,,,,,,,,,,,,,,,,,,,,,,,,,,,,,,,,,,,,,,,,,,,,,,,,,,,,,,,,,,,,,,,,,,,,,1.1651234477758408,1.1257844001520425,130.68870359985158,None,ScrollDown,정답입니다,130.68870359985158,None,130.68870359985158,None,130.68870359985158,None,130.68870359985158,None,131.69947069999762,None,131.69947069999762,132.2018820999656,,,,,,,,,,,,,,,,035,2022-06-02_10h41.17.424,FishGame,2022.1.1,59.98681486752809,
,5,넌 사심이 없어,3,Green,B,4.916666666666666,4.333333333333333,ScrollUp,ScrollDown,Green.png,1,Neutral,Neutral,0,0,0,0,,,,,,,,,,,,,0,4,4,4,,,,,,,,,,,,,,,,,,,,,,,,,,,,,,,,,,,,,,,,,,,,,,,,,,,,,,,,,,,,,,,,,,,,,,,,,,,,,,,,,,,,,1.9367283980051677,1.1590042000170797,132.82623739982955,None,ScrollUp,정답입니다,132.82623739982955,None,132.82623739982955,None,132.82623739982955,None,132.82623739982955,None,133.88286849996075,None,133.88286849996075,134.3829252999276,,,,,,,,,,,,,,,,035,2022-06-02_10h41.17.424,FishGame,2022.1.1,59.98681486752809,
,6,넌 헤퍼,5,Orange,A,2.458333333333334,2.233333333333333,ScrollDown,ScrollUp,Orange.png,1,Negative,Incongruent,0,0,0,0,,,,,,,,,,,,,0,5,5,5,,,,,,,,,,,,,,,,,,,,,,,,,,,,,,,,,,,,,,,,,,,,,,,,,,,,,,,,,,,,,,,,,,,,,,,,,,,,,,,,,,,,,1.1358024577299755,1.1760676999110729,135.01254629995674,None,ScrollDown,정답입니다,135.01254629995674,None,135.01254629995674,None,135.01254629995674,None,135.01254629995674,None,136.08287009992637,None,136.08287009992637,136.58287759986706,,,,,,,,,,,,,,,,035,2022-06-02_10h41.17.424,FishGame,2022.1.1,59.98681486752809,
,7,넌 말쑥해,3,Orange,A,4.833333333333334,4.333333333333333,ScrollDown,ScrollUp,Orange.png,1,Neutral,Neutral,0,0,0,0,,,,,,,,,,,,,0,6,6,6,,,,,,,,,,,,,,,,,,,,,,,,,,,,,,,,,,,,,,,,,,,,,,,,,,,,,,,,,,,,,,,,,,,,,,,,,,,,,,,,,,,,,1,1.1202680999413133,137.20878939982504,None,ScrollDown,정답입니다,137.20878939982504,None,137.20878939982504,None,137.20878939982504,None,137.20878939982504,None,138.22849170002155,None,138.22849170002155,138.7326282998547,,,,,,,,,,,,,,,,035,2022-06-02_10h41.17.424,FishGame,2022.1.1,59.98681486752809,
,8,넌 투덜거려,5,Green,B,2.541666666666667,2.266666666666667,ScrollUp,ScrollDown,Green.png,1,Negative,Congruent,0,0,0,0,,,,,,,,,,,,,0,7,7,7,,,,,,,,,,,,,,,,,,,,,,,,,,,,,,,,,,,,,,,,,,,,,,,,,,,,,,,,,,,,,,,,,,,,,,,,,,,,,,,,,,,,,1.8904321044683456,1.1668763000052422,139.36143899988383,None,ScrollUp,정답입니다,139.36143899988383,None,139.36143899988383,None,139.36143899988383,None,139.36143899988383,None,140.40688370005228,None,140.40688370005228,140.91595419985242,,,,,,,,,,,,,,,,035,2022-06-02_10h41.17.424,FishGame,2022.1.1,59.98681486752809,
,9,넌 적극적이야,1,Orange,A,5.708333333333333,5.533333333333333,ScrollDown,ScrollUp,Orange.png,1,Positive,Congruent,0,0,0,0,,,,,,,,,,,,,0,8,8,8,,,,,,,,,,,,,,,,,,,,,,,,,,,,,,,,,,,,,,,,,,,,,,,,,,,,,,,,,,,,,,,,,,,,,,,,,,,,,,,,,,,,,1.0910493781169255,0.9100897000171244,141.54138209996745,None,ScrollDown,정답입니다,141.54138209996745,None,141.54138209996745,None,141.54138209996745,None,141.54138209996745,None,142.3517248998396,None,142.3517248998396,142.85172349982895,,,,,,,,,,,,,,,,035,2022-06-02_10h41.17.424,FishGame,2022.1.1,59.98681486752809,
,10,넌 재미없어,4,Green,B,2.625,2.966666666666667,ScrollUp,ScrollDown,Green.png,1,Negative,Congruent,0,0,0,0,,,,,,,,,,,,,0,9,9,9,,,,,,,,,,,,,,,,,,,,,,,,,,,,,,,,,,,,,,,,,,,,,,,,,,,,,,,,,,,,,,,,,,,,,,,,,,,,,,,,,,,,,1.8688271592060726,1.4772485001012683,143.47364800004289,None,ScrollUp,정답입니다,143.47364800004289,None,143.47364800004289,None,143.47364800004289,None,143.47364800004289,None,144.849363300018,None,144.849363300018,145.35155979986303,,,,,,,,,,,,,,,,035,2022-06-02_10h41.17.424,FishGame,2022.1.1,59.98681486752809,
,11,넌 명석해,2,Orange,A,5.875,4.033333333333333,ScrollDown,ScrollUp,Orange.png,1,Positive,Congruent,0,0,0,0,,,,,,,,,,,,,0,10,10,10,,,,,,,,,,,,,,,,,,,,,,,,,,,,,,,,,,,,,,,,,,,,,,,,,,,,,,,,,,,,,,,,,,,,,,,,,,,,,,,,,,,,,1,1.0727245998568833,145.9859972000122,None,ScrollDown,정답입니다,145.9859972000122,None,145.9859972000122,None,145.9859972000122,None,145.9859972000122,None,146.94903180003166,None,146.94903180003166,147.44910950004123,,,,,,,,,,,,,,,,035,2022-06-02_10h41.17.424,FishGame,2022.1.1,59.98681486752809,
,12,나를 데려가줘,6,Green,B,0,0,ScrollDown,ScrollUp,Green.png,1,NonTarget,NonTarget,0,0,0,0,,,,,,,,,,,,,0,11,11,11,,,,,,,,,,,,,,,,,,,,,,,,,,,,,,,,,,,,,,,,,,,,,,,,,,,,,,,,,,,,,,,,,,,,,,,,,,,,,,,,,,,,,1.0339506367842357,1.7951128999702632,148.0756953000091,None,ScrollDown,정답입니다,148.0756953000091,None,148.0756953000091,None,148.0756953000091,None,148.0756953000091,None,149.76820869999938,None,149.76820869999938,150.26816239999607,,,,,,,,,,,,,,,,035,2022-06-02_10h41.17.424,FishGame,2022.1.1,59.98681486752809,
,13,넌 소심해,4,Orange,A,3,3.1,ScrollDown,ScrollUp,Orange.png,1,Negative,Incongruent,0,0,0,0,,,,,,,,,,,,,0,12,12,12,,,,,,,,,,,,,,,,,,,,,,,,,,,,,,,,,,,,,,,,,,,,,,,,,,,,,,,,,,,,,,,,,,,,,,,,,,,,,,,,,,,,,1.0108024775981903,1.5773442001082003,150.89788239984773,None,ScrollDown,정답입니다,150.89788239984773,None,150.89788239984773,None,150.89788239984773,None,150.89788239984773,None,152.36591960000806,None,152.36591960000806,152.86803989997134,,,,,,,,,,,,,,,,035,2022-06-02_10h41.17.424,FishGame,2022.1.1,59.98681486752809,
,14,넌 합리적이야,2,Orange,A,5.583333333333333,4.733333333333333,ScrollDown,ScrollUp,Orange.png,1,Positive,Congruent,0,0,0,0,,,,,,,,,,,,,0,13,13,13,,,,,,,,,,,,,,,,,,,,,,,,,,,,,,,,,,,,,,,,,,,,,,,,,,,,,,,,,,,,,,,,,,,,,,,,,,,,,,,,,,,,,1.0756172637144725,1.5260499001014978,153.49586199992336,None,ScrollDown,정답입니다,153.49586199992336,None,153.49586199992336,None,153.49586199992336,None,153.49586199992336,None,154.91584090003744,None,154.91584090003744,155.41796709992923,,,,,,,,,,,,,,,,035,2022-06-02_10h41.17.424,FishGame,2022.1.1,59.98681486752809,
,15,넌 무자비해,5,Green,B,2.333333333333333,2.1,ScrollUp,ScrollDown,Green.png,1,Negative,Congruent,0,0,0,0,,,,,,,,,,,,,0,14,14,14,,,,,,,,,,,,,,,,,,,,,,,,,,,,,,,,,,,,,,,,,,,,,,,,,,,,,,,,,,,,,,,,,,,,,,,,,,,,,,,,,,,,,1.878086417913437,1.2092349000740796,156.0429862998426,None,ScrollUp,정답입니다,156.0429862998426,None,156.0429862998426,None,156.0429862998426,None,156.0429862998426,None,157.14907219982706,None,157.14907219982706,157.6513739998918,,,,,,,,,,,,,,,,035,2022-06-02_10h41.17.424,FishGame,2022.1.1,59.98681486752809,
,16,나를 보내줘,6,Orange,A,0,0,ScrollUp,ScrollDown,Orange.png,1,NonTarget,NonTarget,0,0,0,0,,,,,,,,,,,,,0,15,15,15,,,,,,,,,,,,,,,,,,,,,,,,,,,,,,,,,,,,,,,,,,,,,,,,,,,,,,,,,,,,,,,,,,,,,,,,,,,,,,,,,,,,,1.9660493632157643,1.6096499999985099,158.27443109988235,None,ScrollUp,정답입니다,158.27443109988235,None,158.27443109988235,None,158.27443109988235,None,158.27443109988235,None,159.7824303000234,None,159.7824303000234,160.28463819995522,,,,,,,,,,,,,,,,035,2022-06-02_10h41.17.424,FishGame,2022.1.1,59.98681486752809,
,17,넌 현실적이야,3,Green,B,4.608695652173913,4.766666666666667,ScrollUp,ScrollDown,Green.png,1,Neutral,Neutral,0,0,0,0,,,,,,,,,,,,,0,16,16,16,,,,,,,,,,,,,,,,,,,,,,,,,,,,,,,,,,,,,,,,,,,,,,,,,,,,,,,,,,,,,,,,,,,,,,,,,,,,,,,,,,,,,1.9305555423100789,1.579464599955827,160.90430159983225,None,ScrollUp,정답입니다,160.90430159983225,None,160.90430159983225,None,160.90430159983225,None,160.90430159983225,None,162.3822864999529,None,162.3822864999529,162.88450149982236,,,,,,,,,,,,,,,,035,2022-06-02_10h41.17.424,FishGame,2022.1.1,59.98681486752809,
,18,넌 의리있어,1,Green,B,5.833333333333334,5.633333333333334,ScrollUp,ScrollDown,Green.png,1,Positive,Incongruent,0,0,0,0,,,,,,,,,,,,,0,17,17,17,,,,,,,,,,,,,,,,,,,,,,,,,,,,,,,,,,,,,,,,,,,,,,,,,,,,,,,,,,,,,,,,,,,,,,,,,,,,,,,,,,,,,2,1.8283790999557823,163.5084015999455,None,ScrollUp,정답입니다,163.5084015999455,None,163.5084015999455,None,163.5084015999455,None,163.5084015999455,None,165.23229389986955,None,165.23229389986955,165.73449279996566,,,,,,,,,,,,,,,,035,2022-06-02_10h41.17.424,FishGame,2022.1.1,59.98681486752809,
,19,넌 신경과민이야,5,Orange,A,2.541666666666667,2.166666666666667,ScrollDown,ScrollUp,Orange.png,1,Negative,Incongruent,0,0,0,0,,,,,,,,,,,,,0,18,18,18,,,,,,,,,,,,,,,,,,,,,,,,,,,,,,,,,,,,,,,,,,,,,,,,,,,,,,,,,,,,,,,,,,,,,,,,,,,,,,,,,,,,,1,1.1292195999994874,166.35830339998938,None,ScrollDown,정답입니다,166.35830339998938,None,166.35830339998938,None,166.35830339998938,None,166.35830339998938,None,167.38216789998114,None,167.38216789998114,167.88224179996178,,,,,,,,,,,,,,,,035,2022-06-02_10h41.17.424,FishGame,2022.1.1,59.98681486752809,
,20,넌 편안해,1,Orange,A,5.916666666666666,5.866666666666666,ScrollDown,ScrollUp,Orange.png,1,Positive,Congruent,0,0,0,0,,,,,,,,,,,,,0,19,19,19,,,,,,,,,,,,,,,,,,,,,,,,,,,,,,,,,,,,,,,,,,,,,,,,,,,,,,,,,,,,,,,,,,,,,,,,,,,,,,,,,,,,,1,1.0760486999060959,168.51057819998823,None,ScrollDown,정답입니다,168.51057819998823,None,168.51057819998823,None,168.51057819998823,None,168.51057819998823,None,169.48218419984914,None,169.48218419984914,169.9843702998478,,,,,,,,,,,,,,,,035,2022-06-02_10h41.17.424,FishGame,2022.1.1,59.98681486752809,
,21,넌 품위있어,2,Green,B,5.291666666666666,4.466666666666667,ScrollUp,ScrollDown,Green.png,1,Positive,Incongruent,0,0,0,0,,,,,,,,,,,,,0,20,20,20,,,,,,,,,,,,,,,,,,,,,,,,,,,,,,,,,,,,,,,,,,,,,,,,,,,,,,,,,,,,,,,,,,,,,,,,,,,,,,,,,,,,,1.799382706483205,1.009305999847129,170.61307419999503,None,ScrollUp,정답입니다,170.61307419999503,None,170.61307419999503,None,170.61307419999503,None,170.61307419999503,None,171.51542119984515,None,171.51542119984515,172.01550249988213,,,,,,,,,,,,,,,,035,2022-06-02_10h41.17.424,FishGame,2022.1.1,59.98681486752809,
,22,넌 빈틈없어,3,Orange,A,4.833333333333333,3.966666666666667,ScrollDown,ScrollUp,Orange.png,1,Neutral,Neutral,0,0,0,0,,,,,,,,,,,,,0,21,21,21,,,,,,,,,,,,,,,,,,,,,,,,,,,,,,,,,,,,,,,,,,,,,,,,,,,,,,,,,,,,,,,,,,,,,,,,,,,,,,,,,,,,,1.1450617164373398,0.9612865999806672,172.64581279992126,None,ScrollDown,정답입니다,172.64581279992126,None,172.64581279992126,None,172.64581279992126,None,172.64581279992126,None,173.49876109999605,None,173.49876109999605,173.99880099995062,,,,,,,,,,,,,,,,035,2022-06-02_10h41.17.424,FishGame,2022.1.1,59.98681486752809,
,23,넌 상상력없어,4,Green,B,2.833333333333333,3.133333333333333,ScrollUp,ScrollDown,Green.png,1,Negative,Congruent,0,0,0,0,,,,,,,,,,,,,0,22,22,22,,,,,,,,,,,,,,,,,,,,,,,,,,,,,,,,,,,,,,,,,,,,,,,,,,,,,,,,,,,,,,,,,,,,,,,,,,,,,,,,,,,,,1.8302469104528427,0.9092192000243813,174.6260187998414,None,ScrollUp,정답입니다,174.6260187998414,None,174.6260187998414,None,174.6260187998414,None,174.6260187998414,None,175.432090499904,None,175.432090499904,175.9341460999567,,,,,,,,,,,,,,,,035,2022-06-02_10h41.17.424,FishGame,2022.1.1,59.98681486752809,
,24,넌 지혜로워,2,Green,B,6.333333333333334,4.633333333333334,ScrollUp,ScrollDown,Green.png,1,Positive,Incongruent,0,0,0,0,,,,,,,,,,,,,0,23,23,23,,,,,,,,,,,,,,,,,,,,,,,,,,,,,,,,,,,,,,,,,,,,,,,,,,,,,,,,,,,,,,,,,,,,,,,,,,,,,,,,,,,,,1.4135802499949932,1.1762598000932485,176.5623810000252,None,ScrollDown,오답입니다,176.5623810000252,None,176.5623810000252,None,176.5623810000252,None,176.5623810000252,None,177.6319873998873,None,177.6319873998873,178.1342641999945,,,,,,,,,,,,,,,,035,2022-06-02_10h41.17.424,FishGame,2022.1.1,59.98681486752809,
,25,넌 시끄러워,4,Orange,A,2.833333333333333,3.033333333333333,ScrollDown,ScrollUp,Orange.png,1,Negative,Incongruent,0,0,0,0,,,,,,,,,,,,,0,24,24,24,,,,,,,,,,,,,,,,,,,,,,,,,,,,,,,,,,,,,,,,,,,,,,,,,,,,,,,,,,,,,,,,,,,,,,,,,,,,,,,,,,,,,1.0848765472571056,1.176462900126353,178.75998550001532,None,ScrollDown,정답입니다,178.75998550001532,None,178.75998550001532,None,178.75998550001532,None,178.75998550001532,None,179.83196559990756,None,179.83196559990756,180.33421269990504,,,,,,,,,,,,,,,,035,2022-06-02_10h41.17.424,FishGame,2022.1.1,59.98681486752809,
,26,넌 만사태평이야,3,Green,B,4,4.333333333333333,ScrollUp,ScrollDown,Green.png,1,Neutral,Neutral,0,0,0,0,,,,,,,,,,,,,0,25,25,25,,,,,,,,,,,,,,,,,,,,,,,,,,,,,,,,,,,,,,,,,,,,,,,,,,,,,,,,,,,,,,,,,,,,,,,,,,,,,,,,,,,,,1.9290123283863068,1.0422022000420839,180.96472970000468,None,ScrollUp,정답입니다,180.96472970000468,None,180.96472970000468,None,180.96472970000468,None,180.96472970000468,None,181.8983219000511,None,181.8983219000511,182.39837519987486,,,,,,,,,,,,,,,,035,2022-06-02_10h41.17.424,FishGame,2022.1.1,59.98681486752809,
,27,넌 붙임성있어,1,Orange,A,5.708333333333333,5.633333333333334,ScrollDown,ScrollUp,Orange.png,1,Positive,Congruent,0,0,0,0,,,,,,,,,,,,,0,26,26,26,,,,,,,,,,,,,,,,,,,,,,,,,,,,,,,,,,,,,,,,,,,,,,,,,,,,,,,,,,,,,,,,,,,,,,,,,,,,,,,,,,,,,1.141975313425064,1.0114540997892618,183.02862849994563,None,ScrollDown,정답입니다,183.02862849994563,None,183.02862849994563,None,183.02862849994563,None,183.02862849994563,None,183.93415559991263,None,183.93415559991263,184.43420260003768,,,,,,,,,,,,,,,,035,2022-06-02_10h41.17.424,FishGame,2022.1.1,59.98681486752809,
,28,넌 영리해,2,Orange,A,6,4.033333333333333,ScrollDown,ScrollUp,Orange.png,1,Positive,Congruent,0,0,0,0,,,,,,,,,,,,,0,27,27,27,,,,,,,,,,,,,,,,,,,,,,,,,,,,,,,,,,,,,,,,,,,,,,,,,,,,,,,,,,,,,,,,,,,,,,,,,,,,,,,,,,,,,1.1388888855775197,1.3625546998810023,185.05458469991572,None,ScrollDown,정답입니다,185.05458469991572,None,185.05458469991572,None,185.05458469991572,None,185.05458469991572,None,186.31513939984143,None,186.31513939984143,186.8173598998692,,,,,,,,,,,,,,,,035,2022-06-02_10h41.17.424,FishGame,2022.1.1,59.98681486752809,
,29,넌 열심이야,1,Green,B,6.041666666666667,5.833333333333333,ScrollUp,ScrollDown,Green.png,1,Positive,Incongruent,0,0,0,0,,,,,,,,,,,,,0,28,28,28,,,,,,,,,,,,,,,,,,,,,,,,,,,,,,,,,,,,,,,,,,,,,,,,,,,,,,,,,,,,,,,,,,,,,,,,,,,,,,,,,,,,,2,1.1093683000653982,187.43942109984346,None,ScrollUp,정답입니다,187.43942109984346,None,187.43942109984346,None,187.43942109984346,None,187.43942109984346,None,188.4484753999859,None,188.4484753999859,188.9506683999207,,,,,,,,,,,,,,,,035,2022-06-02_10h41.17.424,FishGame,2022.1.1,59.98681486752809,
,30,넌 인기없어,4,Green,B,3,3.3,ScrollUp,ScrollDown,Green.png,1,Negative,Congruent,0,0,0,0,,,,,,,,,,,,,0,29,29,29,,,,,,,,,,,,,,,,,,,,,,,,,,,,,,,,,,,,,,,,,,,,,,,,,,,,,,,,,,,,,,,,,,,,,,,,,,,,,,,,,,,,,1.9212963084379833,1.093968299916014,189.57040610001422,None,ScrollUp,정답입니다,189.57040610001422,None,189.57040610001422,None,189.57040610001422,None,189.57040610001422,None,190.56501619983464,None,190.56501619983464,191.067233099835,,,,,,,,,,,,,,,,035,2022-06-02_10h41.17.424,FishGame,2022.1.1,59.98681486752809,
,31,넌 익살스러워,3,Orange,A,4.708333333333334,4.833333333333333,ScrollDown,ScrollUp,Orange.png,1,Neutral,Neutral,0,0,0,0,,,,,,,,,,,,,0,30,30,30,,,,,,,,,,,,,,,,,,,,,,,,,,,,,,,,,,,,,,,,,,,,,,,,,,,,,,,,,,,,,,,,,,,,,,,,,,,,,,,,,,,,,1.0416666567325592,1.0281604998745024,191.696192599833,None,ScrollDown,정답입니다,191.696192599833,None,191.696192599833,None,191.696192599833,None,191.696192599833,None,192.6150270998478,None,192.6150270998478,193.11505899997428,,,,,,,,,,,,,,,,035,2022-06-02_10h41.17.424,FishGame,2022.1.1,59.98681486752809,
,32,넌 이기적이야,5,Green,B,2.291666666666667,2.333333333333333,ScrollUp,ScrollDown,Green.png,1,Negative,Congruent,0,0,0,0,,,,,,,,,,,,,0,31,31,31,,,,,,,,,,,,,,,,,,,,,,,,,,,,,,,,,,,,,,,,,,,,,,,,,,,,,,,,,,,,,,,,,,,,,,,,,,,,,,,,,,,,,2,1.2754526000935584,193.73622399987653,None,ScrollUp,정답입니다,193.73622399987653,None,193.73622399987653,None,193.73622399987653,None,193.73622399987653,None,194.91471039992757,None,194.91471039992757,195.4147746998351,,,,,,,,,,,,,,,,035,2022-06-02_10h41.17.424,FishGame,2022.1.1,59.98681486752809,
,33,나를 데려가줘,6,Green,B,0,0,ScrollDown,ScrollUp,Green.png,1,NonTarget,NonTarget,0,0,0,0,,,,,,,,,,,,,0,32,32,32,,,,,,,,,,,,,,,,,,,,,,,,,,,,,,,,,,,,,,,,,,,,,,,,,,,,,,,,,,,,,,,,,,,,,,,,,,,,,,,,,,,,,1.0740740497907002,1.4319205998908728,196.03001359989867,None,ScrollDown,정답입니다,196.03001359989867,None,196.03001359989867,None,196.03001359989867,None,196.03001359989867,None,197.36727149994113,None,197.36727149994113,197.86723109986633,,,,,,,,,,,,,,,,035,2022-06-02_10h41.17.424,FishGame,2022.1.1,59.98681486752809,
,34,넌 기회주의자야,5,Orange,A,2.875,2.133333333333333,ScrollDown,ScrollUp,Orange.png,1,Negative,Incongruent,0,0,0,0,,,,,,,,,,,,,0,33,33,33,,,,,,,,,,,,,,,,,,,,,,,,,,,,,,,,,,,,,,,,,,,,,,,,,,,,,,,,,,,,,,,,,,,,,,,,,,,,,,,,,,,,,1.0648148159186046,1.2108007001224905,198.49308589985594,None,ScrollDown,정답입니다,198.49308589985594,None,198.49308589985594,None,198.49308589985594,None,198.49308589985594,None,199.60056239995174,None,199.60056239995174,200.11491189990193,,,,,,,,,,,,,,,,035,2022-06-02_10h41.17.424,FishGame,2022.1.1,59.98681486752809,
,1,넌 미성숙해,4,Orange,A,3,3.2,ScrollDown,ScrollUp,Orange.png,2,Negative,Incongruent,0,0,0,0,,,,,,,,,,,,,,,,,0,0,0,0,,,,,,,,,,,,,,,,,,,,,,,,,,,,,,,,,,,,,,,,232.13089939998463,233.6332377998624,233.66657849983312,234.61651189997792,234.66648979997262,235.6164919999428,235.6164919999428,None,,,,,,,,,,,,,,,,,,,,,,,,,,,,,,,,,,1,1.0852051998954266,236.71538509987295,None,ScrollDown,정답입니다,236.71538509987295,None,236.71538509987295,None,236.71538509987295,None,236.71538509987295,None,237.69959069998004,None,237.69959069998004,238.21627380000427,200.6004537998233,None,200.6004537998233,None,-0.24537037,-0.06481481,1,0,0,0.015792239923030138,None,230.59969039983116,None,,,035,2022-06-02_10h41.17.424,FishGame,2022.1.1,59.98681486752809,
,2,넌 반사회적이야,5,Green,B,2.416666666666667,2.033333333333333,ScrollUp,ScrollDown,Green.png,2,Negative,Congruent,0,0,0,0,,,,,,,,,,,,,,,,,0,1,1,1,,,,,,,,,,,,,,,,,,,,,,,,,,,,,,,,,,,,,,,,,,,,,,,,,,,,,,,,,,,,,,,,,,,,,,,,,,,,,,,,,1.9907407363255818,1.0116161999758333,238.83910860004835,None,ScrollUp,정답입니다,238.83910860004835,None,238.83910860004835,None,238.83910860004835,None,238.83910860004835,None,239.74741159984842,None,239.74741159984842,240.24727259995416,,,,,,,,,,,,,,,,035,2022-06-02_10h41.17.424,FishGame,2022.1.1,59.98681486752809,
,3,넌 유능해,2,Orange,A,6.208333333333333,4.433333333333334,ScrollDown,ScrollUp,Orange.png,2,Positive,Congruent,0,0,0,0,,,,,,,,,,,,,,,,,0,2,2,2,,,,,,,,,,,,,,,,,,,,,,,,,,,,,,,,,,,,,,,,,,,,,,,,,,,,,,,,,,,,,,,,,,,,,,,,,,,,,,,,,1,0.9598455999512225,240.87409489997663,None,ScrollDown,정답입니다,240.87409489997663,None,240.87409489997663,None,240.87409489997663,None,240.87409489997663,None,241.73068359983154,None,241.73068359983154,242.2328409999609,,,,,,,,,,,,,,,,035,2022-06-02_10h41.17.424,FishGame,2022.1.1,59.98681486752809,
,4,넌 능숙해,2,Green,B,5.666666666666667,4.733333333333333,ScrollUp,ScrollDown,Green.png,2,Positive,Incongruent,0,0,0,0,,,,,,,,,,,,,,,,,0,3,3,3,,,,,,,,,,,,,,,,,,,,,,,,,,,,,,,,,,,,,,,,,,,,,,,,,,,,,,,,,,,,,,,,,,,,,,,,,,,,,,,,,2,1.009107399964705,242.85610269987956,None,ScrollUp,정답입니다,242.85610269987956,None,242.85610269987956,None,242.85610269987956,None,242.85610269987956,None,243.7639309000224,None,243.7639309000224,244.26397149986587,,,,,,,,,,,,,,,,035,2022-06-02_10h41.17.424,FishGame,2022.1.1,59.98681486752809,
,5,넌 진부해,4,Green,B,2.458333333333333,3.166666666666667,ScrollUp,ScrollDown,Green.png,2,Negative,Congruent,0,0,0,0,,,,,,,,,,,,,,,,,0,4,4,4,,,,,,,,,,,,,,,,,,,,,,,,,,,,,,,,,,,,,,,,,,,,,,,,,,,,,,,,,,,,,,,,,,,,,,,,,,,,,,,,,1.8827160596847534,1.1279768999665976,244.88779309997335,None,ScrollUp,정답입니다,244.88779309997335,None,244.88779309997335,None,244.88779309997335,None,244.88779309997335,None,245.91391279990785,None,245.91391279990785,246.41610160004348,,,,,,,,,,,,,,,,035,2022-06-02_10h41.17.424,FishGame,2022.1.1,59.98681486752809,
,6,나를 보내줘,6,Orange,A,0,0,ScrollUp,ScrollDown,Orange.png,2,NonTarget,NonTarget,0,0,0,0,,,,,,,,,,,,,,,,,0,5,5,5,,,,,,,,,,,,,,,,,,,,,,,,,,,,,,,,,,,,,,,,,,,,,,,,,,,,,,,,,,,,,,,,,,,,,,,,,,,,,,,,,1.9722222189108531,1.8947813999839127,247.0344889999833,None,ScrollUp,정답입니다,247.0344889999833,None,247.0344889999833,None,247.0344889999833,None,247.0344889999833,None,248.83047409984283,None,248.83047409984283,249.33266939991154,,,,,,,,,,,,,,,,035,2022-06-02_10h41.17.424,FishGame,2022.1.1,59.98681486752809,
,7,넌 엄격해,3,Orange,A,4.166666666666666,4.1,ScrollDown,ScrollUp,Orange.png,2,Neutral,Neutral,0,0,0,0,,,,,,,,,,,,,,,,,0,6,6,6,,,,,,,,,,,,,,,,,,,,,,,,,,,,,,,,,,,,,,,,,,,,,,,,,,,,,,,,,,,,,,,,,,,,,,,,,,,,,,,,,1,1.0940249999985099,249.95940000005066,None,ScrollDown,정답입니다,249.95940000005066,None,249.95940000005066,None,249.95940000005066,None,249.95940000005066,None,250.94931899989024,None,250.94931899989024,251.44718559994362,,,,,,,,,,,,,,,,035,2022-06-02_10h41.17.424,FishGame,2022.1.1,59.98681486752809,
,8,나를 보내줘,6,Orange,A,0,0,ScrollUp,ScrollDown,Orange.png,2,NonTarget,NonTarget,0,0,0,0,,,,,,,,,,,,,,,,,0,7,7,7,,,,,,,,,,,,,,,,,,,,,,,,,,,,,,,,,,,,,,,,,,,,,,,,,,,,,,,,,,,,,,,,,,,,,,,,,,,,,,,,,1.9012345770994823,1.5088422999251634,252.07184510002844,None,ScrollUp,정답입니다,252.07184510002844,None,252.07184510002844,None,252.07184510002844,None,252.07184510002844,None,253.48014470003545,None,253.48014470003545,253.98021900001913,,,,,,,,,,,,,,,,035,2022-06-02_10h41.17.424,FishGame,2022.1.1,59.98681486752809,
,9,넌 대담해,3,Green,B,4.875,4.866666666666666,ScrollUp,ScrollDown,Green.png,2,Neutral,Neutral,0,0,0,0,,,,,,,,,,,,,,,,,0,8,8,8,,,,,,,,,,,,,,,,,,,,,,,,,,,,,,,,,,,,,,,,,,,,,,,,,,,,,,,,,,,,,,,,,,,,,,,,,,,,,,,,,1.9459876318772633,1.5951357998419553,254.6033874999266,None,ScrollUp,정답입니다,254.6033874999266,None,254.6033874999266,None,254.6033874999266,None,254.6033874999266,None,256.0993526999373,None,256.0993526999373,256.5993406998459,,,,,,,,,,,,,,,,035,2022-06-02_10h41.17.424,FishGame,2022.1.1,59.98681486752809,
,10,넌 꾸준해,1,Orange,A,5.916666666666668,5.8,ScrollDown,ScrollUp,Orange.png,2,Positive,Congruent,0,0,0,0,,,,,,,,,,,,,,,,,0,9,9,9,,,,,,,,,,,,,,,,,,,,,,,,,,,,,,,,,,,,,,,,,,,,,,,,,,,,,,,,,,,,,,,,,,,,,,,,,,,,,,,,,1,1.0485515999607742,257.22063659993,None,ScrollDown,정답입니다,257.22063659993,None,257.22063659993,None,257.22063659993,None,257.22063659993,None,258.1659676998388,None,258.1659676998388,258.6691521999892,,,,,,,,,,,,,,,,035,2022-06-02_10h41.17.424,FishGame,2022.1.1,59.98681486752809,
,11,나를 데려가줘,6,Green,B,0,0,ScrollDown,ScrollUp,Green.png,2,NonTarget,NonTarget,0,0,0,0,,,,,,,,,,,,,,,,,0,10,10,10,,,,,,,,,,,,,,,,,,,,,,,,,,,,,,,,,,,,,,,,,,,,,,,,,,,,,,,,,,,,,,,,,,,,,,,,,,,,,,,,,1,1.4094125998672098,259.2854179998394,None,ScrollDown,정답입니다,259.2854179998394,None,259.2854179998394,None,259.2854179998394,None,259.2854179998394,None,260.59694489999674,None,260.59694489999674,261.0991557999514,,,,,,,,,,,,,,,,035,2022-06-02_10h41.17.424,FishGame,2022.1.1,59.98681486752809,
,12,넌 독선적이야,5,Orange,A,2.458333333333333,1.933333333333333,ScrollDown,ScrollUp,Orange.png,2,Negative,Incongruent,0,0,0,0,,,,,,,,,,,,,,,,,0,11,11,11,,,,,,,,,,,,,,,,,,,,,,,,,,,,,,,,,,,,,,,,,,,,,,,,,,,,,,,,,,,,,,,,,,,,,,,,,,,,,,,,,1.1188271542390187,1.793018399970606,261.7237327999901,None,ScrollDown,정답입니다,261.7237327999901,None,261.7237327999901,None,261.7237327999901,None,261.7237327999901,None,263.41352840000764,None,263.41352840000764,263.9157681998331,,,,,,,,,,,,,,,,035,2022-06-02_10h41.17.424,FishGame,2022.1.1,59.98681486752809,
,13,나를 보내줘,6,Orange,A,0,0,ScrollUp,ScrollDown,Orange.png,2,NonTarget,NonTarget,0,0,0,0,,,,,,,,,,,,,,,,,0,12,12,12,,,,,,,,,,,,,,,,,,,,,,,,,,,,,,,,,,,,,,,,,,,,,,,,,,,,,,,,,,,,,,,,,,,,,,,,,,,,,,,,,2,1.3925075000151992,264.53788439999335,None,ScrollUp,정답입니다,264.53788439999335,None,264.53788439999335,None,264.53788439999335,None,264.53788439999335,None,265.8299020999111,None,265.8299020999111,266.32996389991604,,,,,,,,,,,,,,,,035,2022-06-02_10h41.17.424,FishGame,2022.1.1,59.98681486752809,
,14,넌 책임감있어,1,Green,B,6.347826086956522,6,ScrollUp,ScrollDown,Green.png,2,Positive,Incongruent,0,0,0,0,,,,,,,,,,,,,,,,,0,13,13,13,,,,,,,,,,,,,,,,,,,,,,,,,,,,,,,,,,,,,,,,,,,,,,,,,,,,,,,,,,,,,,,,,,,,,,,,,,,,,,,,,1.8410493830839794,1.3118056999519467,266.9534895999823,None,ScrollUp,정답입니다,266.9534895999823,None,266.9534895999823,None,266.9534895999823,None,266.9534895999823,None,268.16574299987406,None,268.16574299987406,268.66577770002186,,,,,,,,,,,,,,,,035,2022-06-02_10h41.17.424,FishGame,2022.1.1,59.98681486752809,
,15,넌 문학적이야,3,Orange,A,4.708333333333334,4.333333333333333,ScrollDown,ScrollUp,Orange.png,2,Neutral,Neutral,0,0,0,0,,,,,,,,,,,,,,,,,0,14,14,14,,,,,,,,,,,,,,,,,,,,,,,,,,,,,,,,,,,,,,,,,,,,,,,,,,,,,,,,,,,,,,,,,,,,,,,,,,,,,,,,,1,1.2295232000760734,269.2877650000155,None,ScrollDown,정답입니다,269.2877650000155,None,269.2877650000155,None,269.2877650000155,None,269.2877650000155,None,270.4157381998375,None,270.4157381998375,270.9131381998304,,,,,,,,,,,,,,,,035,2022-06-02_10h41.17.424,FishGame,2022.1.1,59.98681486752809,
,16,넌 재미있어,1,Green,B,5.875,5.7,ScrollUp,ScrollDown,Green.png,2,Positive,Incongruent,0,0,0,0,,,,,,,,,,,,,,,,,0,15,15,15,,,,,,,,,,,,,,,,,,,,,,,,,,,,,,,,,,,,,,,,,,,,,,,,,,,,,,,,,,,,,,,,,,,,,,,,,,,,,,,,,2,1.2429210001137108,271.5367359998636,None,ScrollUp,정답입니다,271.5367359998636,None,271.5367359998636,None,271.5367359998636,None,271.5367359998636,None,272.68002630001865,None,272.68002630001865,273.1800383999944,,,,,,,,,,,,,,,,035,2022-06-02_10h41.17.424,FishGame,2022.1.1,59.98681486752809,
,17,나를 데려가줘,6,Green,B,0,0,ScrollDown,ScrollUp,Green.png,2,NonTarget,NonTarget,0,0,0,0,,,,,,,,,,,,,,,,,0,16,16,16,,,,,,,,,,,,,,,,,,,,,,,,,,,,,,,,,,,,,,,,,,,,,,,,,,,,,,,,,,,,,,,,,,,,,,,,,,,,,,,,,1.0092592636744182,1.2098344000987709,273.80035989987664,None,ScrollDown,정답입니다,273.80035989987664,None,273.80035989987664,None,273.80035989987664,None,273.80035989987664,None,274.91333629982546,None,274.91333629982546,275.4155019999016,,,,,,,,,,,,,,,,035,2022-06-02_10h41.17.424,FishGame,2022.1.1,59.98681486752809,
,18,넌 협력적이야,1,Orange,A,5.625,5.633333333333334,ScrollDown,ScrollUp,Orange.png,2,Positive,Congruent,0,0,0,0,,,,,,,,,,,,,,,,,0,17,17,17,,,,,,,,,,,,,,,,,,,,,,,,,,,,,,,,,,,,,,,,,,,,,,,,,,,,,,,,,,,,,,,,,,,,,,,,,,,,,,,,,1,1.1256963000632823,276.0469219000079,None,ScrollDown,정답입니다,276.0469219000079,None,276.0469219000079,None,276.0469219000079,None,276.0469219000079,None,277.065451100003,None,277.065451100003,277.5821181999054,,,,,,,,,,,,,,,,035,2022-06-02_10h41.17.424,FishGame,2022.1.1,59.98681486752809,
,19,넌 평범해,3,Green,B,4.333333333333332,4.233333333333333,ScrollUp,ScrollDown,Green.png,2,Neutral,Neutral,0,0,0,0,,,,,,,,,,,,,,,,,0,18,18,18,,,,,,,,,,,,,,,,,,,,,,,,,,,,,,,,,,,,,,,,,,,,,,,,,,,,,,,,,,,,,,,,,,,,,,,,,,,,,,,,,2,1.3423461001366377,278.19165579997934,None,ScrollUp,정답입니다,278.19165579997934,None,278.19165579997934,None,278.19165579997934,None,278.19165579997934,None,279.42958700004965,None,279.42958700004965,279.9296794999391,,,,,,,,,,,,,,,,035,2022-06-02_10h41.17.424,FishGame,2022.1.1,59.98681486752809,
,20,넌 오만해,5,Orange,A,2.333333333333333,2,ScrollDown,ScrollUp,Orange.png,2,Negative,Incongruent,0,0,0,0,,,,,,,,,,,,,,,,,0,19,19,19,,,,,,,,,,,,,,,,,,,,,,,,,,,,,,,,,,,,,,,,,,,,,,,,,,,,,,,,,,,,,,,,,,,,,,,,,,,,,,,,,1.0354938507080078,1.061736400006339,280.55594679992646,None,ScrollDown,정답입니다,280.55594679992646,None,280.55594679992646,None,280.55594679992646,None,280.55594679992646,None,281.5154450999107,None,281.5154450999107,282.0155543999281,,,,,,,,,,,,,,,,035,2022-06-02_10h41.17.424,FishGame,2022.1.1,59.98681486752809,
,21,넌 운이없어,4,Green,B,3,3.466666666666667,ScrollUp,ScrollDown,Green.png,2,Negative,Congruent,0,0,0,0,,,,,,,,,,,,,,,,,0,20,20,20,,,,,,,,,,,,,,,,,,,,,,,,,,,,,,,,,,,,,,,,,,,,,,,,,,,,,,,,,,,,,,,,,,,,,,,,,,,,,,,,,1.939814825852712,1.2607341001275927,282.63835999998264,None,ScrollUp,정답입니다,282.63835999998264,None,282.63835999998264,None,282.63835999998264,None,282.63835999998264,None,283.79868389992043,None,283.79868389992043,284.2987483998295,,,,,,,,,,,,,,,,035,2022-06-02_10h41.17.424,FishGame,2022.1.1,59.98681486752809,
,22,넌 창조적이야,2,Green,B,6.125,4.633333333333334,ScrollUp,ScrollDown,Green.png,2,Positive,Incongruent,0,0,0,0,,,,,,,,,,,,,,,,,0,21,21,21,,,,,,,,,,,,,,,,,,,,,,,,,,,,,,,,,,,,,,,,,,,,,,,,,,,,,,,,,,,,,,,,,,,,,,,,,,,,,,,,,2,1.1926259999163449,284.92733790003695,None,ScrollUp,정답입니다,284.92733790003695,None,284.92733790003695,None,284.92733790003695,None,284.92733790003695,None,286.01520519983023,None,286.01520519983023,286.51526189991273,,,,,,,,,,,,,,,,035,2022-06-02_10h41.17.424,FishGame,2022.1.1,59.98681486752809,
,23,나를 보내줘,6,Orange,A,0,0,ScrollUp,ScrollDown,Orange.png,2,NonTarget,NonTarget,0,0,0,0,,,,,,,,,,,,,,,,,0,22,22,22,,,,,,,,,,,,,,,,,,,,,,,,,,,,,,,,,,,,,,,,,,,,,,,,,,,,,,,,,,,,,,,,,,,,,,,,,,,,,,,,,1.8981481492519379,2.142477900022641,287.1491253999993,None,ScrollUp,정답입니다,287.1491253999993,None,287.1491253999993,None,287.1491253999993,None,287.1491253999993,None,289.17939219996333,None,289.17939219996333,289.67951369984075,,,,,,,,,,,,,,,,035,2022-06-02_10h41.17.424,FishGame,2022.1.1,59.98681486752809,
,24,넌 통찰력있어,2,Orange,A,6.5,4.8,ScrollDown,ScrollUp,Orange.png,2,Positive,Congruent,0,0,0,0,,,,,,,,,,,,,,,,,0,23,23,23,,,,,,,,,,,,,,,,,,,,,,,,,,,,,,,,,,,,,,,,,,,,,,,,,,,,,,,,,,,,,,,,,,,,,,,,,,,,,,,,,1.0262345671653748,1.079739199951291,290.30385939986445,None,ScrollDown,정답입니다,290.30385939986445,None,290.30385939986445,None,290.30385939986445,None,290.30385939986445,None,291.28191919997334,None,291.28191919997334,291.78193079982884,,,,,,,,,,,,,,,,035,2022-06-02_10h41.17.424,FishGame,2022.1.1,59.98681486752809,
,25,넌 경솔해,5,Green,B,2.458333333333333,2.266666666666667,ScrollUp,ScrollDown,Green.png,2,Negative,Congruent,0,0,0,0,,,,,,,,,,,,,,,,,0,24,24,24,,,,,,,,,,,,,,,,,,,,,,,,,,,,,,,,,,,,,,,,,,,,,,,,,,,,,,,,,,,,,,,,,,,,,,,,,,,,,,,,,2,1.4271019999869168,292.4044116998557,None,ScrollUp,정답입니다,292.4044116998557,None,292.4044116998557,None,292.4044116998557,None,292.4044116998557,None,293.729612799827,None,293.729612799827,294.2317857998423,,,,,,,,,,,,,,,,035,2022-06-02_10h41.17.424,FishGame,2022.1.1,59.98681486752809,
,26,넌 초조해,4,Orange,A,2.916666666666667,3.133333333333333,ScrollDown,ScrollUp,Orange.png,2,Negative,Incongruent,0,0,0,0,,,,,,,,,,,,,,,,,0,25,25,25,,,,,,,,,,,,,,,,,,,,,,,,,,,,,,,,,,,,,,,,,,,,,,,,,,,,,,,,,,,,,,,,,,,,,,,,,,,,,,,,,1,1.1128005001228303,294.8525815999601,None,ScrollDown,정답입니다,294.8525815999601,None,294.8525815999601,None,294.8525815999601,None,294.8525815999601,None,295.8628389998339,None,295.8628389998339,296.3629142998252,,,,,,,,,,,,,,,,035,2022-06-02_10h41.17.424,FishGame,2022.1.1,59.98681486752809,
,27,넌 무관심해,4,Green,B,2.833333333333333,2.9,ScrollUp,ScrollDown,Green.png,2,Negative,Congruent,0,0,0,0,,,,,,,,,,,,,,,,,0,26,26,26,,,,,,,,,,,,,,,,,,,,,,,,,,,,,,,,,,,,,,,,,,,,,,,,,,,,,,,,,,,,,,,,,,,,,,,,,,,,,,,,,2,1.2603572998195887,296.988325699931,None,ScrollUp,정답입니다,296.988325699931,None,296.988325699931,None,296.988325699931,None,296.988325699931,None,298.14619289990515,None,298.14619289990515,298.64839700004086,,,,,,,,,,,,,,,,035,2022-06-02_10h41.17.424,FishGame,2022.1.1,59.98681486752809,
,28,넌 감성적이야,3,Green,B,4.125,4.166666666666667,ScrollUp,ScrollDown,Green.png,2,Neutral,Neutral,0,0,0,0,,,,,,,,,,,,,,,,,0,27,27,27,,,,,,,,,,,,,,,,,,,,,,,,,,,,,,,,,,,,,,,,,,,,,,,,,,,,,,,,,,,,,,,,,,,,,,,,,,,,,,,,,2,1.2925340000074357,299.27207949990407,None,ScrollUp,정답입니다,299.27207949990407,None,299.27207949990407,None,299.27207949990407,None,299.27207949990407,None,300.4627200998366,None,300.4627200998366,300.9627647998277,,,,,,,,,,,,,,,,035,2022-06-02_10h41.17.424,FishGame,2022.1.1,59.98681486752809,
,29,넌 배려심있어,1,Orange,A,6.083333333333333,5.5,ScrollDown,ScrollUp,Orange.png,2,Positive,Congruent,0,0,0,0,,,,,,,,,,,,,,,,,0,28,28,28,,,,,,,,,,,,,,,,,,,,,,,,,,,,,,,,,,,,,,,,,,,,,,,,,,,,,,,,,,,,,,,,,,,,,,,,,,,,,,,,,1,1.1260118999052793,301.5897697999608,None,ScrollDown,정답입니다,301.5897697999608,None,301.5897697999608,None,301.5897697999608,None,301.5897697999608,None,302.61272799992,None,302.61272799992,303.1149059999734,,,,,,,,,,,,,,,,035,2022-06-02_10h41.17.424,FishGame,2022.1.1,59.98681486752809,
,30,넌 숨김없어,3,Orange,A,4.5,4.933333333333334,ScrollDown,ScrollUp,Orange.png,2,Neutral,Neutral,0,0,0,0,,,,,,,,,,,,,,,,,0,29,29,29,,,,,,,,,,,,,,,,,,,,,,,,,,,,,,,,,,,,,,,,,,,,,,,,,,,,,,,,,,,,,,,,,,,,,,,,,,,,,,,,,1,1.0605166000314057,303.7387985000387,None,ScrollDown,정답입니다,303.7387985000387,None,303.7387985000387,None,303.7387985000387,None,303.7387985000387,None,304.6960572998505,None,304.6960572998505,305.19604939990677,,,,,,,,,,,,,,,,035,2022-06-02_10h41.17.424,FishGame,2022.1.1,59.98681486752809,
,31,넌 훌륭해,2,Green,B,5.916666666666667,4.033333333333333,ScrollUp,ScrollDown,Green.png,2,Positive,Incongruent,0,0,0,0,,,,,,,,,,,,,,,,,0,30,30,30,,,,,,,,,,,,,,,,,,,,,,,,,,,,,,,,,,,,,,,,,,,,,,,,,,,,,,,,,,,,,,,,,,,,,,,,,,,,,,,,,2,1.078232100000605,305.8188495999202,None,ScrollUp,정답입니다,305.8188495999202,None,305.8188495999202,None,305.8188495999202,None,305.8188495999202,None,306.79813200002536,None,306.79813200002536,307.2981978999451,,,,,,,,,,,,,,,,035,2022-06-02_10h41.17.424,FishGame,2022.1.1,59.98681486752809,
,32,넌 슬기로워,2,Orange,A,6.166666666666667,4.1,ScrollDown,ScrollUp,Orange.png,2,Positive,Congruent,0,0,0,0,,,,,,,,,,,,,,,,,0,31,31,31,,,,,,,,,,,,,,,,,,,,,,,,,,,,,,,,,,,,,,,,,,,,,,,,,,,,,,,,,,,,,,,,,,,,,,,,,,,,,,,,,1,1.1260095001198351,307.92083479999565,None,ScrollDown,정답입니다,307.92083479999565,None,307.92083479999565,None,307.92083479999565,None,307.92083479999565,None,308.94593869987875,None,308.94593869987875,309.44599099992774,,,,,,,,,,,,,,,,035,2022-06-02_10h41.17.424,FishGame,2022.1.1,59.98681486752809,
,33,넌 냉혹해,5,Orange,A,2.583333333333333,2.1,ScrollDown,ScrollUp,Orange.png,2,Negative,Incongruent,0,0,0,0,,,,,,,,,,,,,,,,,0,32,32,32,,,,,,,,,,,,,,,,,,,,,,,,,,,,,,,,,,,,,,,,,,,,,,,,,,,,,,,,,,,,,,,,,,,,,,,,,,,,,,,,,1.0138889054457347,1.8926582999993116,310.0819780998863,None,ScrollDown,정답입니다,310.0819780998863,None,310.0819780998863,None,310.0819780998863,None,310.0819780998863,None,311.8624930998776,None,311.8624930998776,312.3647602000274,,,,,,,,,,,,,,,,035,2022-06-02_10h41.17.424,FishGame,2022.1.1,59.98681486752809,
,34,나를 데려가줘,6,Green,B,0,0,ScrollDown,ScrollUp,Green.png,2,NonTarget,NonTarget,0,0,0,0,,,,,,,,,,,,,,,,,0,33,33,33,,,,,,,,,,,,,,,,,,,,,,,,,,,,,,,,,,,,,,,,,,,,,,,,,,,,,,,,,,,,,,,,,,,,,,,,,,,,,,,,,1.0216049253940582,1.2925480001140386,312.9853898999281,None,ScrollDown,정답입니다,312.9853898999281,None,312.9853898999281,None,312.9853898999281,None,312.9853898999281,None,314.18134159990586,None,314.18134159990586,314.68139699986205,,,,,,,,,,,,,,,,035,2022-06-02_10h41.17.424,FishGame,2022.1.1,59.98681486752809,
,35,넌 편파적이야,5,Green,B,2.125,2,ScrollUp,ScrollDown,Green.png,2,Negative,Congruent,0,0,0,0,,,,,,,,,,,,,,,,,0,34,34,34,,,,,,,,,,,,,,,,,,,,,,,,,,,,,,,,,,,,,,,,,,,,,,,,,,,,,,,,,,,,,,,,,,,,,,,,,,,,,,,,,1.6373456791043282,1.194178800098598,315.3059197999537,None,ScrollUp,정답입니다,315.3059197999537,None,315.3059197999537,None,315.3059197999537,None,315.3059197999537,None,316.39551079995,None,316.39551079995,316.89555749995634,,,,,,,,,,,,,,,,035,2022-06-02_10h41.17.424,FishGame,2022.1.1,59.98681486752809,
,36,넌 슬퍼,4,Orange,A,2.583333333333333,3.066666666666667,ScrollDown,ScrollUp,Orange.png,2,Negative,Incongruent,0,0,0,0,,,,,,,,,,,,,,,,,0,35,35,35,,,,,,,,,,,,,,,,,,,,,,,,,,,,,,,,,,,,,,,,,,,,,,,,,,,,,,,,,,,,,,,,,,,,,,,,,,,,,,,,,1.0478395124276478,0.9133721000980586,317.5171268999111,None,ScrollDown,정답입니다,317.5171268999111,None,317.5171268999111,None,317.5171268999111,None,317.5171268999111,None,318.3313354998827,None,318.3313354998827,318.83135919994675,,,,,,,,,,,,,,,,035,2022-06-02_10h41.17.424,FishGame,2022.1.1,59.98681486752809,
,37,나를 데려가줘,6,Green,B,0,0,ScrollDown,ScrollUp,Green.png,2,NonTarget,NonTarget,0,0,0,0,,,,,,,,,,,,,,,,,0,36,36,36,,,,,,,,,,,,,,,,,,,,,,,,,,,,,,,,,,,,,,,,,,,,,,,,,,,,,,,,,,,,,,,,,,,,,,,,,,,,,,,,,1.0648148159186046,1.36041110008955,319.45050909998827,None,ScrollDown,정답입니다,319.45050909998827,None,319.45050909998827,None,319.45050909998827,None,319.45050909998827,None,320.71450829994865,None,320.71450829994865,321.21458150004037,,,,,,,,,,,,,,,,035,2022-06-02_10h41.17.424,FishGame,2022.1.1,59.98681486752809,
,38,넌 친절해,1,Green,B,6.041666666666667,5.533333333333333,ScrollUp,ScrollDown,Green.png,2,Positive,Incongruent,0,0,0,0,,,,,,,,,,,,,,,,,0,37,37,37,,,,,,,,,,,,,,,,,,,,,,,,,,,,,,,,,,,,,,,,,,,,,,,,,,,,,,,,,,,,,,,,,,,,,,,,,,,,,,,,,1.983024666706721,1.2090592999011278,321.8390046998393,None,ScrollUp,정답입니다,321.8390046998393,None,321.8390046998393,None,321.8390046998393,None,321.8390046998393,None,322.9478616998531,None,322.9478616998531,323.4645598998759,,,,,,,,,,,,,,,,035,2022-06-02_10h41.17.424,FishGame,2022.1.1,59.98681486752809,
,1,넌 엉성해,4,Orange,A,3,3.3,ScrollDown,ScrollUp,Orange.png,3,Negative,Incongruent,0,0,0,0,,,,,,,,,,,,,,,,,,,,,0,0,0,0,,,,,,,,,,,,,,,,,,,,,,,,,,,,,,,,,,,,355.2450458998792,356.74728400004096,356.7806106999051,357.72829919983633,357.7806222999934,358.7305900999345,358.7305900999345,None,,,,,,,,,,,,,,,,,,,,,,,,,,,,,,,,,,1,1.156260299962014,359.8252977000084,None,ScrollDown,정답입니다,359.8252977000084,None,359.8252977000084,None,359.8252977000084,None,359.8252977000084,None,360.87806160002947,None,360.87806160002947,361.3782164999284,323.96223980002105,None,323.96223980002105,None,-0.21481481,-0.07962963,1,0,0,0.01624773978255689,None,353.963727499824,None,,,035,2022-06-02_10h41.17.424,FishGame,2022.1.1,59.98681486752809,
,2,나를 보내줘,6,Orange,A,0,0,ScrollUp,ScrollDown,Orange.png,3,NonTarget,NonTarget,0,0,0,0,,,,,,,,,,,,,,,,,,,,,0,1,1,1,,,,,,,,,,,,,,,,,,,,,,,,,,,,,,,,,,,,,,,,,,,,,,,,,,,,,,,,,,,,,,,,,,,,,,,,,,,,,1.8564814726511638,1.5780001999810338,362.0025629999582,None,ScrollUp,정답입니다,362.0025629999582,None,362.0025629999582,None,362.0025629999582,None,362.0025629999582,None,363.4781100999098,None,363.4781100999098,363.98035239987075,,,,,,,,,,,,,,,,035,2022-06-02_10h41.17.424,FishGame,2022.1.1,59.98681486752809,
,3,넌 활발해,1,Green,B,5.666666666666667,5.6,ScrollUp,ScrollDown,Green.png,3,Positive,Incongruent,0,0,0,0,,,,,,,,,,,,,,,,,,,,,0,2,2,2,,,,,,,,,,,,,,,,,,,,,,,,,,,,,,,,,,,,,,,,,,,,,,,,,,,,,,,,,,,,,,,,,,,,,,,,,,,,,1.71296297510465,1.261668600142002,364.603791099973,None,ScrollUp,정답입니다,364.603791099973,None,364.603791099973,None,364.603791099973,None,364.603791099973,None,365.7614304998424,None,365.7614304998424,366.2636445998214,,,,,,,,,,,,,,,,035,2022-06-02_10h41.17.424,FishGame,2022.1.1,59.98681486752809,
,4,넌 논리적이야,2,Orange,A,5.666666666666666,4.633333333333334,ScrollDown,ScrollUp,Orange.png,3,Positive,Congruent,0,0,0,0,,,,,,,,,,,,,,,,,,,,,0,3,3,3,,,,,,,,,,,,,,,,,,,,,,,,,,,,,,,,,,,,,,,,,,,,,,,,,,,,,,,,,,,,,,,,,,,,,,,,,,,,,1,1.6649501000065356,366.881544200005,None,ScrollDown,정답입니다,366.881544200005,None,366.881544200005,None,366.881544200005,None,366.881544200005,None,368.4446399998851,None,368.4446399998851,368.94690039986745,,,,,,,,,,,,,,,,035,2022-06-02_10h41.17.424,FishGame,2022.1.1,59.98681486752809,
,5,넌 과묵해,3,Orange,A,3.875,4.4,ScrollDown,ScrollUp,Orange.png,3,Neutral,Neutral,0,0,0,0,,,,,,,,,,,,,,,,,,,,,0,4,4,4,,,,,,,,,,,,,,,,,,,,,,,,,,,,,,,,,,,,,,,,,,,,,,,,,,,,,,,,,,,,,,,,,,,,,,,,,,,,,1,1.1590404999442399,369.56999389990233,None,ScrollDown,정답입니다,369.56999389990233,None,369.56999389990233,None,369.56999389990233,None,369.56999389990233,None,370.6279968000017,None,370.6279968000017,371.1301720999181,,,,,,,,,,,,,,,,035,2022-06-02_10h41.17.424,FishGame,2022.1.1,59.98681486752809,
,6,나를 데려가줘,6,Green,B,0,0,ScrollDown,ScrollUp,Green.png,3,NonTarget,NonTarget,0,0,0,0,,,,,,,,,,,,,,,,,,,,,0,5,5,5,,,,,,,,,,,,,,,,,,,,,,,,,,,,,,,,,,,,,,,,,,,,,,,,,,,,,,,,,,,,,,,,,,,,,,,,,,,,,1,1.3090518999379128,371.7528466999065,None,ScrollDown,정답입니다,371.7528466999065,None,371.7528466999065,None,371.7528466999065,None,371.7528466999065,None,372.96123000001535,None,372.96123000001535,373.4612830998376,,,,,,,,,,,,,,,,035,2022-06-02_10h41.17.424,FishGame,2022.1.1,59.98681486752809,
,7,넌 미숙해,4,Green,B,3,3,ScrollUp,ScrollDown,Green.png,3,Negative,Congruent,0,0,0,0,,,,,,,,,,,,,,,,,,,,,0,6,6,6,,,,,,,,,,,,,,,,,,,,,,,,,,,,,,,,,,,,,,,,,,,,,,,,,,,,,,,,,,,,,,,,,,,,,,,,,,,,,2,1.2433834001421928,374.08111939998344,None,ScrollUp,정답입니다,374.08111939998344,None,374.08111939998344,None,374.08111939998344,None,374.08111939998344,None,375.2279017998371,None,375.2279017998371,375.7300599999726,,,,,,,,,,,,,,,,035,2022-06-02_10h41.17.424,FishGame,2022.1.1,59.98681486752809,
,8,나를 보내줘,6,Orange,A,0,0,ScrollUp,ScrollDown,Orange.png,3,NonTarget,NonTarget,0,0,0,0,,,,,,,,,,,,,,,,,,,,,0,7,7,7,,,,,,,,,,,,,,,,,,,,,,,,,,,,,,,,,,,,,,,,,,,,,,,,,,,,,,,,,,,,,,,,,,,,,,,,,,,,,1.8287036965290706,1.2438957998529077,376.34945630002767,None,ScrollUp,정답입니다,376.34945630002767,None,376.34945630002767,None,376.34945630002767,None,376.34945630002767,None,377.49444140004925,None,377.49444140004925,377.9966628998518,,,,,,,,,,,,,,,,035,2022-06-02_10h41.17.424,FishGame,2022.1.1,59.98681486752809,
,9,넌 자신만만해,3,Green,B,4.833333333333334,4.333333333333333,ScrollUp,ScrollDown,Green.png,3,Neutral,Neutral,0,0,0,0,,,,,,,,,,,,,,,,,,,,,0,8,8,8,,,,,,,,,,,,,,,,,,,,,,,,,,,,,,,,,,,,,,,,,,,,,,,,,,,,,,,,,,,,,,,,,,,,,,,,,,,,,1.9490740597248077,1.1789519998710603,378.6187416999601,None,ScrollUp,정답입니다,378.6187416999601,None,378.6187416999601,None,378.6187416999601,None,378.6187416999601,None,379.69444560003467,None,379.69444560003467,380.19659979990683,,,,,,,,,,,,,,,,035,2022-06-02_10h41.17.424,FishGame,2022.1.1,59.98681486752809,
,10,넌 탐욕스러워,5,Orange,A,2.25,2.1,ScrollDown,ScrollUp,Orange.png,3,Negative,Incongruent,0,0,0,0,,,,,,,,,,,,,,,,,,,,,0,9,9,9,,,,,,,,,,,,,,,,,,,,,,,,,,,,,,,,,,,,,,,,,,,,,,,,,,,,,,,,,,,,,,,,,,,,,,,,,,,,,1,1.1927005001343787,380.82881670002826,None,ScrollDown,정답입니다,380.82881670002826,None,380.82881670002826,None,380.82881670002826,None,380.82881670002826,None,381.9132978999987,None,381.9132978999987,382.41328749991953,,,,,,,,,,,,,,,,035,2022-06-02_10h41.17.424,FishGame,2022.1.1,59.98681486752809,
,11,넌 인기있어,2,Orange,A,5.458333333333333,4.5,ScrollDown,ScrollUp,Orange.png,3,Positive,Congruent,0,0,0,0,,,,,,,,,,,,,,,,,,,,,0,10,10,10,,,,,,,,,,,,,,,,,,,,,,,,,,,,,,,,,,,,,,,,,,,,,,,,,,,,,,,,,,,,,,,,,,,,,,,,,,,,,1,1.2395739001221955,383.04139679996297,None,ScrollDown,정답입니다,383.04139679996297,None,383.04139679996297,None,383.04139679996297,None,383.04139679996297,None,384.1774283000268,None,384.1774283000268,384.6774889999069,,,,,,,,,,,,,,,,035,2022-06-02_10h41.17.424,FishGame,2022.1.1,59.98681486752809,
,12,나를 데려가줘,6,Green,B,0,0,ScrollDown,ScrollUp,Green.png,3,NonTarget,NonTarget,0,0,0,0,,,,,,,,,,,,,,,,,,,,,0,11,11,11,,,,,,,,,,,,,,,,,,,,,,,,,,,,,,,,,,,,,,,,,,,,,,,,,,,,,,,,,,,,,,,,,,,,,,,,,,,,,1,1.228287700098008,385.2983327000402,None,ScrollDown,정답입니다,385.2983327000402,None,385.2983327000402,None,385.2983327000402,None,385.2983327000402,None,386.4299130998552,None,386.4299130998552,386.9301177999005,,,,,,,,,,,,,,,,035,2022-06-02_10h41.17.424,FishGame,2022.1.1,59.98681486752809,
,13,넌 뛰어나,2,Green,B,6.166666666666667,4,ScrollUp,ScrollDown,Green.png,3,Positive,Incongruent,0,0,0,0,,,,,,,,,,,,,,,,,,,,,0,12,12,12,,,,,,,,,,,,,,,,,,,,,,,,,,,,,,,,,,,,,,,,,,,,,,,,,,,,,,,,,,,,,,,,,,,,,,,,,,,,,2,1.1104774998966604,387.5515157999471,None,ScrollUp,정답입니다,387.5515157999471,None,387.5515157999471,None,387.5515157999471,None,387.5515157999471,None,388.5609412000049,None,388.5609412000049,389.06312019983307,,,,,,,,,,,,,,,,035,2022-06-02_10h41.17.424,FishGame,2022.1.1,59.98681486752809,
,14,넌 낙관적이야,1,Orange,A,5.75,5.8,ScrollDown,ScrollUp,Orange.png,3,Positive,Congruent,0,0,0,0,,,,,,,,,,,,,,,,,,,,,0,13,13,13,,,,,,,,,,,,,,,,,,,,,,,,,,,,,,,,,,,,,,,,,,,,,,,,,,,,,,,,,,,,,,,,,,,,,,,,,,,,,1,1.026435500010848,389.68720119982027,None,ScrollDown,정답입니다,389.68720119982027,None,389.68720119982027,None,389.68720119982027,None,389.68720119982027,None,390.6109203998931,None,390.6109203998931,391.1109056000132,,,,,,,,,,,,,,,,035,2022-06-02_10h41.17.424,FishGame,2022.1.1,59.98681486752809,
,15,넌 산만해,4,Green,B,2.695652173913043,3.033333333333333,ScrollUp,ScrollDown,Green.png,3,Negative,Congruent,0,0,0,0,,,,,,,,,,,,,,,,,,,,,0,14,14,14,,,,,,,,,,,,,,,,,,,,,,,,,,,,,,,,,,,,,,,,,,,,,,,,,,,,,,,,,,,,,,,,,,,,,,,,,,,,,2,1.1780758001841605,391.73423999990337,None,ScrollUp,정답입니다,391.73423999990337,None,391.73423999990337,None,391.73423999990337,None,391.73423999990337,None,392.81303199985996,None,392.81303199985996,393.3130041998811,,,,,,,,,,,,,,,,035,2022-06-02_10h41.17.424,FishGame,2022.1.1,59.98681486752809,
,16,나를 보내줘,6,Orange,A,0,0,ScrollUp,ScrollDown,Orange.png,3,NonTarget,NonTarget,0,0,0,0,,,,,,,,,,,,,,,,,,,,,0,15,15,15,,,,,,,,,,,,,,,,,,,,,,,,,,,,,,,,,,,,,,,,,,,,,,,,,,,,,,,,,,,,,,,,,,,,,,,,,,,,,2,1.3593871998600662,393.9385790999513,None,ScrollUp,정답입니다,393.9385790999513,None,393.9385790999513,None,393.9385790999513,None,393.9385790999513,None,395.19639669987373,None,395.19639669987373,395.7108668999281,,,,,,,,,,,,,,,,035,2022-06-02_10h41.17.424,FishGame,2022.1.1,59.98681486752809,
,17,넌 교활해,5,Green,B,2.333333333333333,2.133333333333333,ScrollUp,ScrollDown,Green.png,3,Negative,Congruent,0,0,0,0,,,,,,,,,,,,,,,,,,,,,0,16,16,16,,,,,,,,,,,,,,,,,,,,,,,,,,,,,,,,,,,,,,,,,,,,,,,,,,,,,,,,,,,,,,,,,,,,,,,,,,,,,1.9259259502092998,1.095633199904114,396.320337299956,None,ScrollUp,정답입니다,396.320337299956,None,396.320337299956,None,396.320337299956,None,396.320337299956,None,397.31046859989874,None,397.31046859989874,397.81053689983673,,,,,,,,,,,,,,,,035,2022-06-02_10h41.17.424,FishGame,2022.1.1,59.98681486752809,
,18,나를 보내줘,6,Orange,A,0,0,ScrollUp,ScrollDown,Orange.png,3,NonTarget,NonTarget,0,0,0,0,,,,,,,,,,,,,,,,,,,,,0,17,17,17,,,,,,,,,,,,,,,,,,,,,,,,,,,,,,,,,,,,,,,,,,,,,,,,,,,,,,,,,,,,,,,,,,,,,,,,,,,,,2,1.5969869999680668,398.43714019982144,None,ScrollUp,정답입니다,398.43714019982144,None,398.43714019982144,None,398.43714019982144,None,398.43714019982144,None,399.92963019991294,None,399.92963019991294,400.4463967999909,,,,,,,,,,,,,,,,035,2022-06-02_10h41.17.424,FishGame,2022.1.1,59.98681486752809,
,19,넌 불친절해,5,Green,B,2.208333333333333,2.033333333333333,ScrollUp,ScrollDown,Green.png,3,Negative,Congruent,0,0,0,0,,,,,,,,,,,,,,,,,,,,,0,18,18,18,,,,,,,,,,,,,,,,,,,,,,,,,,,,,,,,,,,,,,,,,,,,,,,,,,,,,,,,,,,,,,,,,,,,,,,,,,,,,2,1.109336300054565,401.0529646000359,None,ScrollUp,정답입니다,401.0529646000359,None,401.0529646000359,None,401.0529646000359,None,401.0529646000359,None,402.0606800999958,None,402.0606800999958,402.5628657999914,,,,,,,,,,,,,,,,035,2022-06-02_10h41.17.424,FishGame,2022.1.1,59.98681486752809,
,20,넌 지적이야,2,Green,B,5.75,4.366666666666666,ScrollUp,ScrollDown,Green.png,3,Positive,Incongruent,0,0,0,0,,,,,,,,,,,,,,,,,,,,,0,19,19,19,,,,,,,,,,,,,,,,,,,,,,,,,,,,,,,,,,,,,,,,,,,,,,,,,,,,,,,,,,,,,,,,,,,,,,,,,,,,,1.9413580397764842,1.3097133000846952,403.1810693999287,None,ScrollUp,정답입니다,403.1810693999287,None,403.1810693999287,None,403.1810693999287,None,403.1810693999287,None,404.393963099923,None,404.393963099923,404.8939650999382,,,,,,,,,,,,,,,,035,2022-06-02_10h41.17.424,FishGame,2022.1.1,59.98681486752809,
,21,넌 우유부단해,4,Orange,A,2.666666666666667,3.166666666666667,ScrollDown,ScrollUp,Orange.png,3,Negative,Incongruent,0,0,0,0,,,,,,,,,,,,,,,,,,,,,0,20,20,20,,,,,,,,,,,,,,,,,,,,,,,,,,,,,,,,,,,,,,,,,,,,,,,,,,,,,,,,,,,,,,,,,,,,,,,,,,,,,1,1.1945653997827321,405.52207720000297,None,ScrollDown,정답입니다,405.52207720000297,None,405.52207720000297,None,405.52207720000297,None,405.52207720000297,None,406.61269590002485,None,406.61269590002485,407.1127021999564,,,,,,,,,,,,,,,,035,2022-06-02_10h41.17.424,FishGame,2022.1.1,59.98681486752809,
,22,나를 데려가줘,6,Green,B,0,0,ScrollDown,ScrollUp,Green.png,3,NonTarget,NonTarget,0,0,0,0,,,,,,,,,,,,,,,,,,,,,0,21,21,21,,,,,,,,,,,,,,,,,,,,,,,,,,,,,,,,,,,,,,,,,,,,,,,,,,,,,,,,,,,,,,,,,,,,,,,,,,,,,1,1.2426111998502165,407.736325699836,None,ScrollDown,정답입니다,407.736325699836,None,407.736325699836,None,407.736325699836,None,407.736325699836,None,408.8772082000505,None,408.8772082000505,409.37943259999156,,,,,,,,,,,,,,,,035,2022-06-02_10h41.17.424,FishGame,2022.1.1,59.98681486752809,
,23,넌 성실해,1,Green,B,6.041666666666666,5.7,ScrollUp,ScrollDown,Green.png,3,Positive,Incongruent,0,0,0,0,,,,,,,,,,,,,,,,,,,,,0,22,22,22,,,,,,,,,,,,,,,,,,,,,,,,,,,,,,,,,,,,,,,,,,,,,,,,,,,,,,,,,,,,,,,,,,,,,,,,,,,,,2,1.2284768000245094,409.9974002998788,None,ScrollUp,정답입니다,409.9974002998788,None,409.9974002998788,None,409.9974002998788,None,409.9974002998788,None,411.12710449984297,None,411.12710449984297,411.62924909987487,,,,,,,,,,,,,,,,035,2022-06-02_10h41.17.424,FishGame,2022.1.1,59.98681486752809,
,24,넌 현실주의적이야,3,Orange,A,4.625,4.4,ScrollDown,ScrollUp,Orange.png,3,Neutral,Neutral,0,0,0,0,,,,,,,,,,,,,,,,,,,,,0,23,23,23,,,,,,,,,,,,,,,,,,,,,,,,,,,,,,,,,,,,,,,,,,,,,,,,,,,,,,,,,,,,,,,,,,,,,,,,,,,,,1,1.0926256000529975,412.2549284999259,None,ScrollDown,정답입니다,412.2549284999259,None,412.2549284999259,None,412.2549284999259,None,412.2549284999259,None,413.2437841000501,None,413.2437841000501,413.74909479985945,,,,,,,,,,,,,,,,035,2022-06-02_10h41.17.424,FishGame,2022.1.1,59.98681486752809,
,25,넌 진실돼,1,Orange,A,6.625,5.566666666666666,ScrollDown,ScrollUp,Orange.png,3,Positive,Congruent,0,0,0,0,,,,,,,,,,,,,,,,,,,,,0,24,24,24,,,,,,,,,,,,,,,,,,,,,,,,,,,,,,,,,,,,,,,,,,,,,,,,,,,,,,,,,,,,,,,,,,,,,,,,,,,,,1,1.0446510000620037,414.37143559986725,None,ScrollDown,정답입니다,414.37143559986725,None,414.37143559986725,None,414.37143559986725,None,414.37143559986725,None,415.3103346999269,None,415.3103346999269,415.8125433998648,,,,,,,,,,,,,,,,035,2022-06-02_10h41.17.424,FishGame,2022.1.1,59.98681486752809,
,26,넌 천진난만해,3,Green,B,4.958333333333334,4.833333333333333,ScrollUp,ScrollDown,Green.png,3,Neutral,Neutral,0,0,0,0,,,,,,,,,,,,,,,,,,,,,0,25,25,25,,,,,,,,,,,,,,,,,,,,,,,,,,,,,,,,,,,,,,,,,,,,,,,,,,,,,,,,,,,,,,,,,,,,,,,,,,,,,2,1.0757883000187576,416.4392688998487,None,ScrollUp,정답입니다,416.4392688998487,None,416.4392688998487,None,416.4392688998487,None,416.4392688998487,None,417.41034679999575,None,417.41034679999575,417.91251719999127,,,,,,,,,,,,,,,,035,2022-06-02_10h41.17.424,FishGame,2022.1.1,59.98681486752809,
,27,넌 교양없어,5,Orange,A,2.416666666666667,2.2,ScrollDown,ScrollUp,Orange.png,3,Negative,Incongruent,0,0,0,0,,,,,,,,,,,,,,,,,,,,,0,26,26,26,,,,,,,,,,,,,,,,,,,,,,,,,,,,,,,,,,,,,,,,,,,,,,,,,,,,,,,,,,,,,,,,,,,,,,,,,,,,,1,1.025863400194794,418.54056610004045,None,ScrollDown,정답입니다,418.54056610004045,None,418.54056610004045,None,418.54056610004045,None,418.54056610004045,None,419.4603307999205,None,419.4603307999205,419.9603023000527,,,,,,,,,,,,,,,,035,2022-06-02_10h41.17.424,FishGame,2022.1.1,59.98681486752809,
,28,나를 보내줘,6,Orange,A,0,0,ScrollUp,ScrollDown,Orange.png,3,NonTarget,NonTarget,0,0,0,0,,,,,,,,,,,,,,,,,,,,,0,27,27,27,,,,,,,,,,,,,,,,,,,,,,,,,,,,,,,,,,,,,,,,,,,,,,,,,,,,,,,,,,,,,,,,,,,,,,,,,,,,,2,1.4763197998981923,420.5830709999427,None,ScrollUp,정답입니다,420.5830709999427,None,420.5830709999427,None,420.5830709999427,None,420.5830709999427,None,421.96243069996126,None,421.96243069996126,422.4624789999798,,,,,,,,,,,,,,,,035,2022-06-02_10h41.17.424,FishGame,2022.1.1,59.98681486752809,
,29,넌 엉뚱스러워,3,Orange,A,4.166666666666667,4.133333333333334,ScrollDown,ScrollUp,Orange.png,3,Neutral,Neutral,0,0,0,0,,,,,,,,,,,,,,,,,,,,,0,28,28,28,,,,,,,,,,,,,,,,,,,,,,,,,,,,,,,,,,,,,,,,,,,,,,,,,,,,,,,,,,,,,,,,,,,,,,,,,,,,,1,1.0591758000664413,423.09253919986077,None,ScrollDown,정답입니다,423.09253919986077,None,423.09253919986077,None,423.09253919986077,None,423.09253919986077,None,424.0435031999368,None,424.0435031999368,424.5456401000265,,,,,,,,,,,,,,,,035,2022-06-02_10h41.17.424,FishGame,2022.1.1,59.98681486752809,
,30,넌 무지해,4,Green,B,2.541666666666667,3.066666666666667,ScrollUp,ScrollDown,Green.png,3,Negative,Congruent,0,0,0,0,,,,,,,,,,,,,,,,,,,,,0,29,29,29,,,,,,,,,,,,,,,,,,,,,,,,,,,,,,,,,,,,,,,,,,,,,,,,,,,,,,,,,,,,,,,,,,,,,,,,,,,,,1.9629629850387573,1.3095817000139505,425.16740799997933,None,ScrollUp,정답입니다,425.16740799997933,None,425.16740799997933,None,425.16740799997933,None,425.16740799997933,None,426.37683569989167,None,426.37683569989167,426.8790645999834,,,,,,,,,,,,,,,,035,2022-06-02_10h41.17.424,FishGame,2022.1.1,59.98681486752809,
,31,넌 음울해,5,Green,B,2.25,2.233333333333333,ScrollUp,ScrollDown,Green.png,3,Negative,Congruent,0,0,0,0,,,,,,,,,,,,,,,,,,,,,0,30,30,30,,,,,,,,,,,,,,,,,,,,,,,,,,,,,,,,,,,,,,,,,,,,,,,,,,,,,,,,,,,,,,,,,,,,,,,,,,,,,1.90586419403553,1.0114559000357985,427.50470789987594,None,ScrollUp,정답입니다,427.50470789987594,None,427.50470789987594,None,427.50470789987594,None,427.50470789987594,None,428.410060999915,None,428.410060999915,428.91013780003414,,,,,,,,,,,,,,,,035,2022-06-02_10h41.17.424,FishGame,2022.1.1,59.98681486752809,
,32,넌 냉소적이야,5,Orange,A,2.916666666666667,2.4,ScrollDown,ScrollUp,Orange.png,3,Negative,Incongruent,0,0,0,0,,,,,,,,,,,,,,,,,,,,,0,31,31,31,,,,,,,,,,,,,,,,,,,,,,,,,,,,,,,,,,,,,,,,,,,,,,,,,,,,,,,,,,,,,,,,,,,,,,,,,,,,,1,1.042650100076571,429.53581180004403,None,ScrollDown,정답입니다,429.53581180004403,None,429.53581180004403,None,429.53581180004403,None,429.53581180004403,None,430.478920500027,None,430.478920500027,430.9789358000271,,,,,,,,,,,,,,,,035,2022-06-02_10h41.17.424,FishGame,2022.1.1,59.98681486752809,
,33,나를 데려가줘,6,Green,B,0,0,ScrollDown,ScrollUp,Green.png,3,NonTarget,NonTarget,0,0,0,0,,,,,,,,,,,,,,,,,,,,,0,32,32,32,,,,,,,,,,,,,,,,,,,,,,,,,,,,,,,,,,,,,,,,,,,,,,,,,,,,,,,,,,,,,,,,,,,,,,,,,,,,,1,1.1592991000507027,431.60161539982073,None,ScrollDown,정답입니다,431.60161539982073,None,431.60161539982073,None,431.60161539982073,None,431.60161539982073,None,432.6600084998645,None,432.6600084998645,433.16215859982185,,,,,,,,,,,,,,,,035,2022-06-02_10h41.17.424,FishGame,2022.1.1,59.98681486752809,
,34,넌 쾌활해,1,Orange,A,5.541666666666666,5.733333333333333,ScrollDown,ScrollUp,Orange.png,3,Positive,Congruent,0,0,0,0,,,,,,,,,,,,,,,,,,,,,0,33,33,33,,,,,,,,,,,,,,,,,,,,,,,,,,,,,,,,,,,,,,,,,,,,,,,,,,,,,,,,,,,,,,,,,,,,,,,,,,,,,1,1.0594005000311881,433.7859626999125,None,ScrollDown,정답입니다,433.7859626999125,None,433.7859626999125,None,433.7859626999125,None,433.7859626999125,None,434.74330529989675,None,434.74330529989675,435.2433233000338,,,,,,,,,,,,,,,,035,2022-06-02_10h41.17.424,FishGame,2022.1.1,59.98681486752809,
,35,나를 보내줘,6,Orange,A,0,0,ScrollUp,ScrollDown,Orange.png,3,NonTarget,NonTarget,0,0,0,0,,,,,,,,,,,,,,,,,,,,,0,34,34,34,,,,,,,,,,,,,,,,,,,,,,,,,,,,,,,,,,,,,,,,,,,,,,,,,,,,,,,,,,,,,,,,,,,,,,,,,,,,,1.8487654278675716,1.3117908001877367,435.86633479990996,None,ScrollUp,정답입니다,435.86633479990996,None,435.86633479990996,None,435.86633479990996,None,435.86633479990996,None,437.07662920001894,None,437.07662920001894,437.57872919994406,,,,,,,,,,,,,,,,035,2022-06-02_10h41.17.424,FishGame,2022.1.1,59.98681486752809,
,36,넌 명랑해,1,Green,B,5.739130434782609,5.666666666666667,ScrollUp,ScrollDown,Green.png,3,Positive,Incongruent,0,0,0,0,,,,,,,,,,,,,,,,,,,,,0,35,35,35,,,,,,,,,,,,,,,,,,,,,,,,,,,,,,,,,,,,,,,,,,,,,,,,,,,,,,,,,,,,,,,,,,,,,,,,,,,,,2,1.0946077001281083,438.205229899846,None,ScrollUp,정답입니다,438.205229899846,None,438.205229899846,None,438.205229899846,None,438.205229899846,None,439.19321589986794,None,439.19321589986794,439.69545879983343,,,,,,,,,,,,,,,,035,2022-06-02_10h41.17.424,FishGame,2022.1.1,59.98681486752809,
,37,넌 멍해,4,Orange,A,2.833333333333333,3.4,ScrollDown,ScrollUp,Orange.png,3,Negative,Incongruent,0,0,0,0,,,,,,,,,,,,,,,,,,,,,0,36,36,36,,,,,,,,,,,,,,,,,,,,,,,,,,,,,,,,,,,,,,,,,,,,,,,,,,,,,,,,,,,,,,,,,,,,,,,,,,,,,1,1.0425579000730067,440.3219419999514,None,ScrollDown,정답입니다,440.3219419999514,None,440.3219419999514,None,440.3219419999514,None,440.3219419999514,None,441.2598545998335,None,441.2598545998335,441.76203350001015,,,,,,,,,,,,,,,,035,2022-06-02_10h41.17.424,FishGame,2022.1.1,59.98681486752809,
,38,나를 데려가줘,6,Green,B,0,0,ScrollDown,ScrollUp,Green.png,3,NonTarget,NonTarget,0,0,0,0,,,,,,,,,,,,,,,,,,,,,0,37,37,37,,,,,,,,,,,,,,,,,,,,,,,,,,,,,,,,,,,,,,,,,,,,,,,,,,,,,,,,,,,,,,,,,,,,,,,,,,,,,1,1.4281849001999944,442.37884809984826,None,ScrollDown,정답입니다,442.37884809984826,None,442.37884809984826,None,442.37884809984826,None,442.37884809984826,None,443.70951669989154,None,443.70951669989154,444.2095645000227,,,,,,,,,,,,,,,,035,2022-06-02_10h41.17.424,FishGame,2022.1.1,59.98681486752809,
,39,넌 현명해,2,Orange,A,6.541666666666666,4.533333333333333,ScrollDown,ScrollUp,Orange.png,3,Positive,Congruent,0,0,0,0,,,,,,,,,,,,,,,,,,,,,0,38,38,38,,,,,,,,,,,,,,,,,,,,,,,,,,,,,,,,,,,,,,,,,,,,,,,,,,,,,,,,,,,,,,,,,,,,,,,,,,,,,1,1.0449509001336992,444.83411689987406,None,ScrollDown,정답입니다,444.83411689987406,None,444.83411689987406,None,444.83411689987406,None,444.83411689987406,None,445.77869959990494,None,445.77869959990494,446.27871169988066,,,,,,,,,,,,,,,,035,2022-06-02_10h41.17.424,FishGame,2022.1.1,59.98681486752809,
,40,넌 수줍어,3,Green,B,3.541666666666666,4.366666666666666,ScrollUp,ScrollDown,Green.png,3,Neutral,Neutral,0,0,0,0,,,,,,,,,,,,,,,,,,,,,0,39,39,39,,,,,,,,,,,,,,,,,,,,,,,,,,,,,,,,,,,,,,,,,,,,,,,,,,,,,,,,,,,,,,,,,,,,,,,,,,,,,2,1.22728560003452,446.90170069993474,None,ScrollUp,정답입니다,446.90170069993474,None,446.90170069993474,None,446.90170069993474,None,446.90170069993474,None,448.0285276998766,None,448.0285276998766,448.5284998000134,,,,,,,,,,,,,,,,035,2022-06-02_10h41.17.424,FishGame,2022.1.1,59.98681486752809,
,41,나를 데려가줘,6,Green,B,0,0,ScrollDown,ScrollUp,Green.png,3,NonTarget,NonTarget,0,0,0,0,,,,,,,,,,,,,,,,,,,,,0,40,40,40,,,,,,,,,,,,,,,,,,,,,,,,,,,,,,,,,,,,,,,,,,,,,,,,,,,,,,,,,,,,,,,,,,,,,,,,,,,,,1,1.261479299981147,449.15292779984884,None,ScrollDown,정답입니다,449.15292779984884,None,449.15292779984884,None,449.15292779984884,None,449.15292779984884,None,450.31184870004654,None,450.31184870004654,450.811864499934,,,,,,,,,,,,,,,,035,2022-06-02_10h41.17.424,FishGame,2022.1.1,59.98681486752809,
,42,넌 성숙해,2,Green,B,5.833333333333333,4.533333333333333,ScrollUp,ScrollDown,Green.png,3,Positive,Incongruent,0,0,0,0,,,,,,,,,,,,,,,,,,,,,0,41,41,41,,,,,,,,,,,,,,,,,,,,,,,,,,,,,,,,,,,,,,,,,,,,,,,,,,,,,,,,,,,,,,,,,,,,,,,,,,,,,1.9521604875723522,1.046602400019765,451.44545749993995,None,ScrollUp,정답입니다,451.44545749993995,None,451.44545749993995,None,451.44545749993995,None,451.44545749993995,None,452.39287710003555,None,452.39287710003555,452.89295129990205,,,,,,,,,,,,,,,,035,2022-06-02_10h41.17.424,FishGame,2022.1.1,59.98681486752809,
,1,넌 매력적이야,2,Green,B,6.125,4.666666666666667,ScrollUp,ScrollDown,Green.png,4,Positive,Incongruent,0,0,0,0,,,,,,,,,,,,,,,,,,,,,,,,,0,0,0,0,,,,,,,,,,,,,,,,,,,,,,,,,,,,,,,,484.59234629990533,486.0946655999869,486.12793199997395,487.0810855999589,487.1310626999475,488.0945945000276,488.0755413000006,None,,,,,,,,,,,,,,,,,,,,,,,,,,,,,,,,,,2,1.0487167001701891,489.17809389997274,None,ScrollUp,정답입니다,489.17809389997274,None,489.17809389997274,None,489.17809389997274,None,489.17809389997274,None,490.12765359994955,None,490.12765359994955,490.627638499951,453.39509429992177,None,453.39509429992177,None,-0.17037037,-0.094444446,1,0,0,0.01599193993024528,None,483.3945132999215,None,,,035,2022-06-02_10h41.17.424,FishGame,2022.1.1,59.98681486752809,
,2,나를 보내줘,6,Orange,A,0,0,ScrollUp,ScrollDown,Orange.png,4,NonTarget,NonTarget,0,0,0,0,,,,,,,,,,,,,,,,,,,,,,,,,0,1,1,1,,,,,,,,,,,,,,,,,,,,,,,,,,,,,,,,,,,,,,,,,,,,,,,,,,,,,,,,,,,,,,,,,,,,,,,,,1.8935185074806213,1.3919049999676645,491.2538260000292,None,ScrollUp,정답입니다,491.2538260000292,None,491.2538260000292,None,491.2538260000292,None,491.2538260000292,None,492.5418088999577,None,492.5418088999577,493.041894499911,,,,,,,,,,,,,,,,035,2022-06-02_10h41.17.424,FishGame,2022.1.1,59.98681486752809,
,3,넌 조심스러워,3,Orange,A,4.791666666666666,4.666666666666667,ScrollDown,ScrollUp,Orange.png,4,Neutral,Neutral,0,0,0,0,,,,,,,,,,,,,,,,,,,,,,,,,0,2,2,2,,,,,,,,,,,,,,,,,,,,,,,,,,,,,,,,,,,,,,,,,,,,,,,,,,,,,,,,,,,,,,,,,,,,,,,,,1,0.9619251999538392,493.663949099835,None,ScrollDown,정답입니다,493.663949099835,None,493.663949099835,None,493.663949099835,None,493.663949099835,None,494.52769419993274,None,494.52769419993274,495.0276929999236,,,,,,,,,,,,,,,,035,2022-06-02_10h41.17.424,FishGame,2022.1.1,59.98681486752809,
,4,넌 철학적이야,3,Green,B,4.5,4.266666666666667,ScrollUp,ScrollDown,Green.png,4,Neutral,Neutral,0,0,0,0,,,,,,,,,,,,,,,,,,,,,,,,,0,3,3,3,,,,,,,,,,,,,,,,,,,,,,,,,,,,,,,,,,,,,,,,,,,,,,,,,,,,,,,,,,,,,,,,,,,,,,,,,1.819444437821706,0.9457437999080867,495.6467605000362,None,ScrollUp,정답입니다,495.6467605000362,None,495.6467605000362,None,495.6467605000362,None,495.6467605000362,None,496.492030599853,None,496.492030599853,496.99419949995354,,,,,,,,,,,,,,,,035,2022-06-02_10h41.17.424,FishGame,2022.1.1,59.98681486752809,
,5,넌 쩨쩨해,5,Orange,A,2.375,2.133333333333333,ScrollDown,ScrollUp,Orange.png,4,Negative,Incongruent,0,0,0,0,,,,,,,,,,,,,,,,,,,,,,,,,0,4,4,4,,,,,,,,,,,,,,,,,,,,,,,,,,,,,,,,,,,,,,,,,,,,,,,,,,,,,,,,,,,,,,,,,,,,,,,,,1.0432098706563313,0.9261219000909477,497.6218796998728,None,ScrollDown,정답입니다,497.6218796998728,None,497.6218796998728,None,497.6218796998728,None,497.6218796998728,None,498.44419359997846,None,498.44419359997846,498.96079529984854,,,,,,,,,,,,,,,,035,2022-06-02_10h41.17.424,FishGame,2022.1.1,59.98681486752809,
,6,나를 데려가줘,6,Green,B,0,0,ScrollDown,ScrollUp,Green.png,4,NonTarget,NonTarget,0,0,0,0,,,,,,,,,,,,,,,,,,,,,,,,,0,5,5,5,,,,,,,,,,,,,,,,,,,,,,,,,,,,,,,,,,,,,,,,,,,,,,,,,,,,,,,,,,,,,,,,,,,,,,,,,1,1.092763700056821,499.5663594000507,None,ScrollDown,정답입니다,499.5663594000507,None,499.5663594000507,None,499.5663594000507,None,499.5663594000507,None,500.5585781999398,None,500.5585781999398,501.06071899994276,,,,,,,,,,,,,,,,035,2022-06-02_10h41.17.424,FishGame,2022.1.1,59.98681486752809,
,7,넌 고집불통이야,5,Green,B,2.875,2,ScrollUp,ScrollDown,Green.png,4,Negative,Congruent,0,0,0,0,,,,,,,,,,,,,,,,,,,,,,,,,0,6,6,6,,,,,,,,,,,,,,,,,,,,,,,,,,,,,,,,,,,,,,,,,,,,,,,,,,,,,,,,,,,,,,,,,,,,,,,,,2,1.0091371000744402,501.6872810998466,None,ScrollUp,정답입니다,501.6872810998466,None,501.6872810998466,None,501.6872810998466,None,501.6872810998466,None,502.5940862998832,None,502.5940862998832,503.0941118998453,,,,,,,,,,,,,,,,035,2022-06-02_10h41.17.424,FishGame,2022.1.1,59.98681486752809,
,8,넌 무심해,4,Orange,A,2.875,3.2,ScrollDown,ScrollUp,Orange.png,4,Negative,Incongruent,0,0,0,0,,,,,,,,,,,,,,,,,,,,,,,,,0,7,7,7,,,,,,,,,,,,,,,,,,,,,,,,,,,,,,,,,,,,,,,,,,,,,,,,,,,,,,,,,,,,,,,,,,,,,,,,,1,1.0759260000195354,503.71980279986747,None,ScrollDown,정답입니다,503.71980279986747,None,503.71980279986747,None,503.71980279986747,None,503.71980279986747,None,504.6915490999818,None,504.6915490999818,505.19162860000506,,,,,,,,,,,,,,,,035,2022-06-02_10h41.17.424,FishGame,2022.1.1,59.98681486752809,
,9,넌 정겨워,1,Orange,A,5.791666666666667,5.666666666666667,ScrollDown,ScrollUp,Orange.png,4,Positive,Congruent,0,0,0,0,,,,,,,,,,,,,,,,,,,,,,,,,0,8,8,8,,,,,,,,,,,,,,,,,,,,,,,,,,,,,,,,,,,,,,,,,,,,,,,,,,,,,,,,,,,,,,,,,,,,,,,,,1,0.9616829000879079,505.81435279990546,None,ScrollDown,정답입니다,505.81435279990546,None,505.81435279990546,None,505.81435279990546,None,505.81435279990546,None,506.6749088000506,None,506.6749088000506,507.1774712000042,,,,,,,,,,,,,,,,035,2022-06-02_10h41.17.424,FishGame,2022.1.1,59.98681486752809,
,10,나를 데려가줘,6,Green,B,0,0,ScrollDown,ScrollUp,Green.png,4,NonTarget,NonTarget,0,0,0,0,,,,,,,,,,,,,,,,,,,,,,,,,0,9,9,9,,,,,,,,,,,,,,,,,,,,,,,,,,,,,,,,,,,,,,,,,,,,,,,,,,,,,,,,,,,,,,,,,,,,,,,,,1,1.0274441000074148,507.79939749999903,None,ScrollDown,정답입니다,507.79939749999903,None,507.79939749999903,None,507.79939749999903,None,507.79939749999903,None,508.7274149998557,None,508.7274149998557,509.2274523000233,,,,,,,,,,,,,,,,035,2022-06-02_10h41.17.424,FishGame,2022.1.1,59.98681486752809,
,11,넌 체제순응적이야,4,Green,B,3,3.6,ScrollUp,ScrollDown,Green.png,4,Negative,Congruent,0,0,0,0,,,,,,,,,,,,,,,,,,,,,,,,,0,10,10,10,,,,,,,,,,,,,,,,,,,,,,,,,,,,,,,,,,,,,,,,,,,,,,,,,,,,,,,,,,,,,,,,,,,,,,,,,1.959876557191213,1.0125567999202758,509.85465619992465,None,ScrollUp,정답입니다,509.85465619992465,None,509.85465619992465,None,509.85465619992465,None,509.85465619992465,None,510.75811559986323,None,510.75811559986323,511.2581779998727,,,,,,,,,,,,,,,,035,2022-06-02_10h41.17.424,FishGame,2022.1.1,59.98681486752809,
,12,나를 보내줘,6,Orange,A,0,0,ScrollUp,ScrollDown,Orange.png,4,NonTarget,NonTarget,0,0,0,0,,,,,,,,,,,,,,,,,,,,,,,,,0,11,11,11,,,,,,,,,,,,,,,,,,,,,,,,,,,,,,,,,,,,,,,,,,,,,,,,,,,,,,,,,,,,,,,,,,,,,,,,,1.9243827362855275,1.2798590001184493,511.8811139999889,None,ScrollUp,정답입니다,511.8811139999889,None,511.8811139999889,None,511.8811139999889,None,511.8811139999889,None,513.0605975999497,None,513.0605975999497,513.5607477000449,,,,,,,,,,,,,,,,035,2022-06-02_10h41.17.424,FishGame,2022.1.1,59.98681486752809,
,13,넌 박식해,2,Orange,A,5.625,3.933333333333333,ScrollDown,ScrollUp,Orange.png,4,Positive,Congruent,0,0,0,0,,,,,,,,,,,,,,,,,,,,,,,,,0,12,12,12,,,,,,,,,,,,,,,,,,,,,,,,,,,,,,,,,,,,,,,,,,,,,,,,,,,,,,,,,,,,,,,,,,,,,,,,,1,1.0441944000776857,514.1853157998994,None,ScrollDown,정답입니다,514.1853157998994,None,514.1853157998994,None,514.1853157998994,None,514.1853157998994,None,515.1272825999185,None,515.1272825999185,515.6249514999799,,,,,,,,,,,,,,,,035,2022-06-02_10h41.17.424,FishGame,2022.1.1,59.98681486752809,
,14,나를 보내줘,6,Orange,A,0,0,ScrollUp,ScrollDown,Orange.png,4,NonTarget,NonTarget,0,0,0,0,,,,,,,,,,,,,,,,,,,,,,,,,0,13,13,13,,,,,,,,,,,,,,,,,,,,,,,,,,,,,,,,,,,,,,,,,,,,,,,,,,,,,,,,,,,,,,,,,,,,,,,,,1.9984568059444427,1.1090373999904841,516.2506863998715,None,ScrollUp,정답입니다,516.2506863998715,None,516.2506863998715,None,516.2506863998715,None,516.2506863998715,None,517.2582645998336,None,517.2582645998336,517.7605619998649,,,,,,,,,,,,,,,,035,2022-06-02_10h41.17.424,FishGame,2022.1.1,59.98681486752809,
,15,넌 침착해,1,Green,B,5.458333333333333,5.566666666666666,ScrollUp,ScrollDown,Green.png,4,Positive,Incongruent,0,0,0,0,,,,,,,,,,,,,,,,,,,,,,,,,0,14,14,14,,,,,,,,,,,,,,,,,,,,,,,,,,,,,,,,,,,,,,,,,,,,,,,,,,,,,,,,,,,,,,,,,,,,,,,,,1.90586419403553,1.1483436000999063,518.3776597999968,None,ScrollUp,정답입니다,518.3776597999968,None,518.3776597999968,None,518.3776597999968,None,518.3776597999968,None,519.4248231998645,None,519.4248231998645,519.9270048998296,,,,,,,,,,,,,,,,035,2022-06-02_10h41.17.424,FishGame,2022.1.1,59.98681486752809,
,16,나를 데려가줘,6,Green,B,0,0,ScrollDown,ScrollUp,Green.png,4,NonTarget,NonTarget,0,0,0,0,,,,,,,,,,,,,,,,,,,,,,,,,0,15,15,15,,,,,,,,,,,,,,,,,,,,,,,,,,,,,,,,,,,,,,,,,,,,,,,,,,,,,,,,,,,,,,,,,,,,,,,,,1,1.0482966001145542,520.5439102998935,None,ScrollDown,정답입니다,520.5439102998935,None,520.5439102998935,None,520.5439102998935,None,520.5439102998935,None,521.4915193000343,None,521.4915193000343,521.9937880998477,,,,,,,,,,,,,,,,035,2022-06-02_10h41.17.424,FishGame,2022.1.1,59.98681486752809,
,17,넌 행복해,1,Orange,A,6.416666666666666,6.166666666666667,ScrollDown,ScrollUp,Orange.png,4,Positive,Congruent,0,0,0,0,,,,,,,,,,,,,,,,,,,,,,,,,0,16,16,16,,,,,,,,,,,,,,,,,,,,,,,,,,,,,,,,,,,,,,,,,,,,,,,,,,,,,,,,,,,,,,,,,,,,,,,,,1,0.9100719001144171,522.6178401999641,None,ScrollDown,정답입니다,522.6178401999641,None,522.6178401999641,None,522.6178401999641,None,522.6178401999641,None,523.4268932999112,None,523.4268932999112,523.9414561998565,,,,,,,,,,,,,,,,035,2022-06-02_10h41.17.424,FishGame,2022.1.1,59.98681486752809,
,18,넌 겸손해,2,Green,B,5.791666666666667,4.766666666666667,ScrollUp,ScrollDown,Green.png,4,Positive,Incongruent,0,0,0,0,,,,,,,,,,,,,,,,,,,,,,,,,0,17,17,17,,,,,,,,,,,,,,,,,,,,,,,,,,,,,,,,,,,,,,,,,,,,,,,,,,,,,,,,,,,,,,,,,,,,,,,,,1.9351851840813954,1.6116830999962986,524.5643088999204,None,ScrollUp,정답입니다,524.5643088999204,None,524.5643088999204,None,524.5643088999204,None,524.5643088999204,None,526.0769026998896,None,526.0769026998896,526.5769843999296,,,,,,,,,,,,,,,,035,2022-06-02_10h41.17.424,FishGame,2022.1.1,59.98681486752809,
,19,나를 보내줘,6,Orange,A,0,0,ScrollUp,ScrollDown,Orange.png,4,NonTarget,NonTarget,0,0,0,0,,,,,,,,,,,,,,,,,,,,,,,,,0,18,18,18,,,,,,,,,,,,,,,,,,,,,,,,,,,,,,,,,,,,,,,,,,,,,,,,,,,,,,,,,,,,,,,,,,,,,,,,,1.9259259502092998,1.1424730001017451,527.2048203998711,None,ScrollUp,정답입니다,527.2048203998711,None,527.2048203998711,None,527.2048203998711,None,527.2048203998711,None,528.241384799825,None,528.241384799825,528.7435461999848,,,,,,,,,,,,,,,,035,2022-06-02_10h41.17.424,FishGame,2022.1.1,59.98681486752809,
,20,넌 의심없어,3,Orange,A,4.166666666666667,4.6,ScrollDown,ScrollUp,Orange.png,4,Neutral,Neutral,0,0,0,0,,,,,,,,,,,,,,,,,,,,,,,,,0,19,19,19,,,,,,,,,,,,,,,,,,,,,,,,,,,,,,,,,,,,,,,,,,,,,,,,,,,,,,,,,,,,,,,,,,,,,,,,,1,0.9786453999113292,529.3641919000074,None,ScrollDown,정답입니다,529.3641919000074,None,529.3641919000074,None,529.3641919000074,None,529.3641919000074,None,530.2434647998307,None,530.2434647998307,530.7466303999536,,,,,,,,,,,,,,,,035,2022-06-02_10h41.17.424,FishGame,2022.1.1,59.98681486752809,
,21,넌 시시해,4,Orange,A,2.666666666666667,2.966666666666667,ScrollDown,ScrollUp,Orange.png,4,Negative,Incongruent,0,0,0,0,,,,,,,,,,,,,,,,,,,,,,,,,0,20,20,20,,,,,,,,,,,,,,,,,,,,,,,,,,,,,,,,,,,,,,,,,,,,,,,,,,,,,,,,,,,,,,,,,,,,,,,,,1,1.0269170000683516,531.3743638999294,None,ScrollDown,정답입니다,531.3743638999294,None,531.3743638999294,None,531.3743638999294,None,531.3743638999294,None,532.2912271998357,None,532.2912271998357,532.7934830000158,,,,,,,,,,,,,,,,035,2022-06-02_10h41.17.424,FishGame,2022.1.1,59.98681486752809,
,22,나를 데려가줘,6,Green,B,0,0,ScrollDown,ScrollUp,Green.png,4,NonTarget,NonTarget,0,0,0,0,,,,,,,,,,,,,,,,,,,,,,,,,0,21,21,21,,,,,,,,,,,,,,,,,,,,,,,,,,,,,,,,,,,,,,,,,,,,,,,,,,,,,,,,,,,,,,,,,,,,,,,,,1,1.3761946000158787,533.4147744998336,None,ScrollDown,정답입니다,533.4147744998336,None,533.4147744998336,None,533.4147744998336,None,533.4147744998336,None,534.6912354999222,None,534.6912354999222,535.1934405998327,,,,,,,,,,,,,,,,035,2022-06-02_10h41.17.424,FishGame,2022.1.1,59.98681486752809,
,23,넌 무정해,5,Orange,A,2.5,2.2,ScrollDown,ScrollUp,Orange.png,4,Negative,Incongruent,0,0,0,0,,,,,,,,,,,,,,,,,,,,,,,,,0,22,22,22,,,,,,,,,,,,,,,,,,,,,,,,,,,,,,,,,,,,,,,,,,,,,,,,,,,,,,,,,,,,,,,,,,,,,,,,,1,0.9925635000690818,535.818267100025,None,ScrollDown,정답입니다,535.818267100025,None,535.818267100025,None,535.818267100025,None,535.818267100025,None,536.7075574998744,None,536.7075574998744,537.2076355000027,,,,,,,,,,,,,,,,035,2022-06-02_10h41.17.424,FishGame,2022.1.1,59.98681486752809,
,24,넌 긍정적이야,1,Green,B,6.041666666666667,6.066666666666666,ScrollUp,ScrollDown,Green.png,4,Positive,Incongruent,0,0,0,0,,,,,,,,,,,,,,,,,,,,,,,,,0,23,23,23,,,,,,,,,,,,,,,,,,,,,,,,,,,,,,,,,,,,,,,,,,,,,,,,,,,,,,,,,,,,,,,,,,,,,,,,,2,1.0627026001457125,537.8338323999196,None,ScrollUp,정답입니다,537.8338323999196,None,537.8338323999196,None,537.8338323999196,None,537.8338323999196,None,538.7934319998603,None,538.7934319998603,539.2933960000519,,,,,,,,,,,,,,,,035,2022-06-02_10h41.17.424,FishGame,2022.1.1,59.98681486752809,
,25,나를 보내줘,6,Orange,A,0,0,ScrollUp,ScrollDown,Orange.png,4,NonTarget,NonTarget,0,0,0,0,,,,,,,,,,,,,,,,,,,,,,,,,0,24,24,24,,,,,,,,,,,,,,,,,,,,,,,,,,,,,,,,,,,,,,,,,,,,,,,,,,,,,,,,,,,,,,,,,,,,,,,,,1.9845678806304932,1.1774662001989782,539.9169483999722,None,ScrollUp,정답입니다,539.9169483999722,None,539.9169483999722,None,539.9169483999722,None,539.9169483999722,None,540.9933813998941,None,540.9933813998941,541.5098949000239,,,,,,,,,,,,,,,,035,2022-06-02_10h41.17.424,FishGame,2022.1.1,59.98681486752809,
,26,넌 시기심이 많아,5,Green,B,2.458333333333333,2.233333333333333,ScrollUp,ScrollDown,Green.png,4,Negative,Congruent,0,0,0,0,,,,,,,,,,,,,,,,,,,,,,,,,0,25,25,25,,,,,,,,,,,,,,,,,,,,,,,,,,,,,,,,,,,,,,,,,,,,,,,,,,,,,,,,,,,,,,,,,,,,,,,,,1.8456790000200272,1.192868399899453,542.1158346999437,None,ScrollUp,정답입니다,542.1158346999437,None,542.1158346999437,None,542.1158346999437,None,542.1158346999437,None,543.2077247998677,None,543.2077247998677,543.7099297998939,,,,,,,,,,,,,,,,035,2022-06-02_10h41.17.424,FishGame,2022.1.1,59.98681486752809,
,27,넌 탁월해,2,Orange,A,5.708333333333334,4.5,ScrollDown,ScrollUp,Orange.png,4,Positive,Congruent,0,0,0,0,,,,,,,,,,,,,,,,,,,,,,,,,0,26,26,26,,,,,,,,,,,,,,,,,,,,,,,,,,,,,,,,,,,,,,,,,,,,,,,,,,,,,,,,,,,,,,,,,,,,,,,,,1,0.9762373000849038,544.3342393999919,None,ScrollDown,정답입니다,544.3342393999919,None,544.3342393999919,None,544.3342393999919,None,544.3342393999919,None,545.2076802998781,None,545.2076802998781,545.7098548000213,,,,,,,,,,,,,,,,035,2022-06-02_10h41.17.424,FishGame,2022.1.1,59.98681486752809,
,28,나를 데려가줘,6,Green,B,0,0,ScrollDown,ScrollUp,Green.png,4,NonTarget,NonTarget,0,0,0,0,,,,,,,,,,,,,,,,,,,,,,,,,0,27,27,27,,,,,,,,,,,,,,,,,,,,,,,,,,,,,,,,,,,,,,,,,,,,,,,,,,,,,,,,,,,,,,,,,,,,,,,,,1.0524691541989644,1.159781799884513,546.3335249000229,None,ScrollDown,정답입니다,546.3335249000229,None,546.3335249000229,None,546.3335249000229,None,546.3335249000229,None,547.3909118999727,None,547.3909118999727,547.893086399883,,,,,,,,,,,,,,,,035,2022-06-02_10h41.17.424,FishGame,2022.1.1,59.98681486752809,
,29,넌 조용해,3,Green,B,4.333333333333333,4.166666666666667,ScrollUp,ScrollDown,Green.png,4,Neutral,Neutral,0,0,0,0,,,,,,,,,,,,,,,,,,,,,,,,,0,28,28,28,,,,,,,,,,,,,,,,,,,,,,,,,,,,,,,,,,,,,,,,,,,,,,,,,,,,,,,,,,,,,,,,,,,,,,,,,1.89969136317571,0.9927668999880552,548.516984899994,None,ScrollUp,정답입니다,548.516984899994,None,548.516984899994,None,548.516984899994,None,548.516984899994,None,549.4075966998935,None,549.4075966998935,549.9098081998527,,,,,,,,,,,,,,,,035,2022-06-02_10h41.17.424,FishGame,2022.1.1,59.98681486752809,
,30,넌 다정해,1,Orange,A,5.833333333333334,5.7,ScrollDown,ScrollUp,Orange.png,4,Positive,Congruent,0,0,0,0,,,,,,,,,,,,,,,,,,,,,,,,,0,29,29,29,,,,,,,,,,,,,,,,,,,,,,,,,,,,,,,,,,,,,,,,,,,,,,,,,,,,,,,,,,,,,,,,,,,,,,,,,1.0740740497907002,0.9433979000896215,550.5452256998979,None,ScrollDown,정답입니다,550.5452256998979,None,550.5452256998979,None,550.5452256998979,None,550.5452256998979,None,551.3739181000274,None,551.3739181000274,551.8739970000461,,,,,,,,,,,,,,,,035,2022-06-02_10h41.17.424,FishGame,2022.1.1,59.98681486752809,
,31,넌 능력있어,2,Green,B,6.166666666666666,4.6,ScrollUp,ScrollDown,Green.png,4,Positive,Incongruent,0,0,0,0,,,,,,,,,,,,,,,,,,,,,,,,,0,30,30,30,,,,,,,,,,,,,,,,,,,,,,,,,,,,,,,,,,,,,,,,,,,,,,,,,,,,,,,,,,,,,,,,,,,,,,,,,2,1.1453916998580098,552.4956679998431,None,ScrollUp,정답입니다,552.4956679998431,None,552.4956679998431,None,552.4956679998431,None,552.4956679998431,None,553.5430918999482,None,553.5430918999482,554.0431845998392,,,,,,,,,,,,,,,,035,2022-06-02_10h41.17.424,FishGame,2022.1.1,59.98681486752809,
,32,넌 불쾌해,5,Orange,A,2.125,1.933333333333333,ScrollDown,ScrollUp,Orange.png,4,Negative,Incongruent,0,0,0,0,,,,,,,,,,,,,,,,,,,,,,,,,0,31,31,31,,,,,,,,,,,,,,,,,,,,,,,,,,,,,,,,,,,,,,,,,,,,,,,,,,,,,,,,,,,,,,,,,,,,,,,,,1.0478395124276478,1.0783424000255764,554.6660833000205,None,ScrollDown,정답입니다,554.6660833000205,None,554.6660833000205,None,554.6660833000205,None,554.6660833000205,None,555.6430770999286,None,555.6430770999286,556.142965799896,,,,,,,,,,,,,,,,035,2022-06-02_10h41.17.424,FishGame,2022.1.1,59.98681486752809,
,33,나를 데려가줘,6,Green,B,0,0,ScrollDown,ScrollUp,Green.png,4,NonTarget,NonTarget,0,0,0,0,,,,,,,,,,,,,,,,,,,,,,,,,0,32,32,32,,,,,,,,,,,,,,,,,,,,,,,,,,,,,,,,,,,,,,,,,,,,,,,,,,,,,,,,,,,,,,,,,,,,,,,,,1.0138889054457347,1.1759312998037785,556.7638346999884,None,ScrollDown,정답입니다,556.7638346999884,None,556.7638346999884,None,556.7638346999884,None,556.7638346999884,None,557.8407459999435,None,557.8407459999435,558.3407423000317,,,,,,,,,,,,,,,,035,2022-06-02_10h41.17.424,FishGame,2022.1.1,59.98681486752809,
,34,넌 유순해,3,Orange,A,4.458333333333333,5,ScrollDown,ScrollUp,Orange.png,4,Neutral,Neutral,0,0,0,0,,,,,,,,,,,,,,,,,,,,,,,,,0,33,33,33,,,,,,,,,,,,,,,,,,,,,,,,,,,,,,,,,,,,,,,,,,,,,,,,,,,,,,,,,,,,,,,,,,,,,,,,,1,1.009398000082001,558.9676446998492,None,ScrollDown,정답입니다,558.9676446998492,None,558.9676446998492,None,558.9676446998492,None,558.9676446998492,None,559.8737393999472,None,559.8737393999472,560.3738176999614,,,,,,,,,,,,,,,,035,2022-06-02_10h41.17.424,FishGame,2022.1.1,59.98681486752809,
,35,넌 근심스러워,4,Green,B,2.708333333333333,3.133333333333333,ScrollUp,ScrollDown,Green.png,4,Negative,Congruent,0,0,0,0,,,,,,,,,,,,,,,,,,,,,,,,,0,34,34,34,,,,,,,,,,,,,,,,,,,,,,,,,,,,,,,,,,,,,,,,,,,,,,,,,,,,,,,,,,,,,,,,,,,,,,,,,1.9861110945542653,1.1617886999156326,560.9981006998569,None,ScrollUp,정답입니다,560.9981006998569,None,560.9981006998569,None,560.9981006998569,None,560.9981006998569,None,562.0596099998802,None,562.0596099998802,562.5595943999942,,,,,,,,,,,,,,,,035,2022-06-02_10h41.17.424,FishGame,2022.1.1,59.98681486752809,
,36,넌 세련되었어,2,Orange,A,5.5,4.6,ScrollDown,ScrollUp,Orange.png,4,Positive,Congruent,0,0,0,0,,,,,,,,,,,,,,,,,,,,,,,,,0,35,35,35,,,,,,,,,,,,,,,,,,,,,,,,,,,,,,,,,,,,,,,,,,,,,,,,,,,,,,,,,,,,,,,,,,,,,,,,,1.0493827263514202,1.0481730999890715,563.1841284998227,None,ScrollDown,정답입니다,563.1841284998227,None,563.1841284998227,None,563.1841284998227,None,563.1841284998227,None,564.1262153999414,None,564.1262153999414,564.6261141998693,,,,,,,,,,,,,,,,035,2022-06-02_10h41.17.424,FishGame,2022.1.1,59.98681486752809,
,37,나를 보내줘,6,Orange,A,0,0,ScrollUp,ScrollDown,Orange.png,4,NonTarget,NonTarget,0,0,0,0,,,,,,,,,,,,,,,,,,,,,,,,,0,36,36,36,,,,,,,,,,,,,,,,,,,,,,,,,,,,,,,,,,,,,,,,,,,,,,,,,,,,,,,,,,,,,,,,,,,,,,,,,1.873456800977389,1.4774416000582278,565.2454613998998,None,ScrollUp,정답입니다,565.2454613998998,None,565.2454613998998,None,565.2454613998998,None,565.2454613998998,None,566.6239042000379,None,566.6239042000379,567.1261171000078,,,,,,,,,,,,,,,,035,2022-06-02_10h41.17.424,FishGame,2022.1.1,59.98681486752809,
,38,넌 확고해,3,Green,B,4.708333333333334,4.566666666666666,ScrollUp,ScrollDown,Green.png,4,Neutral,Neutral,0,0,0,0,,,,,,,,,,,,,,,,,,,,,,,,,0,37,37,37,,,,,,,,,,,,,,,,,,,,,,,,,,,,,,,,,,,,,,,,,,,,,,,,,,,,,,,,,,,,,,,,,,,,,,,,,1.8503086417913437,0.9613522998988628,567.7467024999205,None,ScrollUp,정답입니다,567.7467024999205,None,567.7467024999205,None,567.7467024999205,None,567.7467024999205,None,568.607139499858,None,568.607139499858,569.1072096999269,,,,,,,,,,,,,,,,035,2022-06-02_10h41.17.424,FishGame,2022.1.1,59.98681486752809,
,39,넌 이해심이 많아,1,Green,B,6.041666666666668,5.533333333333333,ScrollUp,ScrollDown,Green.png,4,Positive,Incongruent,0,0,0,0,,,,,,,,,,,,,,,,,,,,,,,,,0,38,38,38,,,,,,,,,,,,,,,,,,,,,,,,,,,,,,,,,,,,,,,,,,,,,,,,,,,,,,,,,,,,,,,,,,,,,,,,,1.859567900498708,0.9605139000341296,569.7273587000091,None,ScrollUp,정답입니다,569.7273587000091,None,569.7273587000091,None,569.7273587000091,None,569.7273587000091,None,570.5904782998841,None,570.5904782998841,571.0926469999831,,,,,,,,,,,,,,,,035,2022-06-02_10h41.17.424,FishGame,2022.1.1,59.98681486752809,
,40,나를 보내줘,6,Orange,A,0,0,ScrollUp,ScrollDown,Orange.png,4,NonTarget,NonTarget,0,0,0,0,,,,,,,,,,,,,,,,,,,,,,,,,0,39,39,39,,,,,,,,,,,,,,,,,,,,,,,,,,,,,,,,,,,,,,,,,,,,,,,,,,,,,,,,,,,,,,,,,,,,,,,,,1.8101851791143417,1.4922971001360565,571.7225862999912,None,ScrollUp,정답입니다,571.7225862999912,None,571.7225862999912,None,571.7225862999912,None,571.7225862999912,None,573.1068138999399,None,573.1068138999399,573.6068761998322,,,,,,,,,,,,,,,,035,2022-06-02_10h41.17.424,FishGame,2022.1.1,59.98681486752809,
,41,넌 거칠어,4,Orange,A,2.625,3.033333333333333,ScrollDown,ScrollUp,Orange.png,4,Negative,Incongruent,0,0,0,0,,,,,,,,,,,,,,,,,,,,,,,,,0,40,40,40,,,,,,,,,,,,,,,,,,,,,,,,,,,,,,,,,,,,,,,,,,,,,,,,,,,,,,,,,,,,,,,,,,,,,,,,,1.0663580298423767,0.9464115998707712,574.2315844998229,None,ScrollDown,정답입니다,574.2315844998229,None,574.2315844998229,None,574.2315844998229,None,574.2315844998229,None,575.0760389999487,None,575.0760389999487,575.5760376998223,,,,,,,,,,,,,,,,035,2022-06-02_10h41.17.424,FishGame,2022.1.1,59.98681486752809,
,42,넌 변덕맞아,5,Green,B,2.75,2.166666666666667,ScrollUp,ScrollDown,Green.png,4,Negative,Congruent,0,0,0,0,,,,,,,,,,,,,,,,,,,,,,,,,0,41,41,41,,,,,,,,,,,,,,,,,,,,,,,,,,,,,,,,,,,,,,,,,,,,,,,,,,,,,,,,,,,,,,,,,,,,,,,,,1.8302469104528427,0.9293772999662906,576.1967278998345,None,ScrollUp,정답입니다,576.1967278998345,None,576.1967278998345,None,576.1967278998345,None,576.1967278998345,None,577.0236770999618,None,577.0236770999618,577.5258616998326,,,,,,,,,,,,,,,,035,2022-06-02_10h41.17.424,FishGame,2022.1.1,59.98681486752809,
,43,나를 데려가줘,6,Green,B,0,0,ScrollDown,ScrollUp,Green.png,4,NonTarget,NonTarget,0,0,0,0,,,,,,,,,,,,,,,,,,,,,,,,,0,42,42,42,,,,,,,,,,,,,,,,,,,,,,,,,,,,,,,,,,,,,,,,,,,,,,,,,,,,,,,,,,,,,,,,,,,,,,,,,1.0061728358268738,1.0943102000746876,578.1436761999503,None,ScrollDown,정답입니다,578.1436761999503,None,578.1436761999503,None,578.1436761999503,None,578.1436761999503,None,579.1425274000503,None,579.1425274000503,579.6457217999268,,,,,,,,,,,,,,,,035,2022-06-02_10h41.17.424,FishGame,2022.1.1,59.98681486752809,
,44,넌 외로워,4,Green,B,2.833333333333333,3.3,ScrollUp,ScrollDown,Green.png,4,Negative,Congruent,0,0,0,0,,,,,,,,,,,,,,,,,,,,,,,,,0,43,43,43,,,,,,,,,,,,,,,,,,,,,,,,,,,,,,,,,,,,,,,,,,,,,,,,,,,,,,,,,,,,,,,,,,,,,,,,,1.8086419651905696,0.9595653999131173,580.26797419996,None,ScrollUp,정답입니다,580.26797419996,None,580.26797419996,None,580.26797419996,None,580.26797419996,None,581.1235154999886,None,581.1235154999886,581.6257286998443,,,,,,,,,,,,,,,,035,2022-06-02_10h41.17.424,FishGame,2022.1.1,59.98681486752809,
,1,넌 불평스러워,5,Orange,A,2.25,2.066666666666667,ScrollDown,ScrollUp,Orange.png,5,Negative,Incongruent,0,0,0,0,,,,,,,,,,,,,,,,,,,,,,,,,,,,,0,0,0,0,,,,,,,,,,,,,,,,,,,,,,,,,,,,613.3562763000373,614.858565799892,614.8919609999284,615.8450398999266,615.8785147999879,616.8418679998722,616.8418679998722,None,,,,,,,,,,,,,,,,,,,,,,,,,,,,,,,,,,1.120370368162791,0.9514893998857588,617.9596098000184,None,ScrollDown,정답입니다,617.9596098000184,None,617.9596098000184,None,617.9596098000184,None,617.9596098000184,None,618.8061170999426,None,618.8061170999426,619.3083269000053,582.1258180998266,None,582.1258180998266,None,-0.18240741,-0.08425926,1,0,0,0.016327539924532175,None,612.1417186998297,None,,,035,2022-06-02_10h41.17.424,FishGame,2022.1.1,59.98681486752809,
,2,나를 보내줘,6,Orange,A,0,0,ScrollUp,ScrollDown,Orange.png,5,NonTarget,NonTarget,0,0,0,0,,,,,,,,,,,,,,,,,,,,,,,,,,,,,0,1,1,1,,,,,,,,,,,,,,,,,,,,,,,,,,,,,,,,,,,,,,,,,,,,,,,,,,,,,,,,,,,,,,,,,,,,,1.4799382717659075,1.159999500028789,619.9310532999225,None,NoResponse,무응답입니다,619.9310532999225,None,619.9310532999225,None,619.9310532999225,None,619.9310532999225,None,620.9895220999606,None,620.9895220999606,621.4916719999164,,,,,,,,,,,,,,,,035,2022-06-02_10h41.17.424,FishGame,2022.1.1,59.98681486752809,
,3,넌 다재다능해,2,Green,B,6.208333333333333,4.5,ScrollUp,ScrollDown,Green.png,5,Positive,Incongruent,0,0,0,0,,,,,,,,,,,,,,,,,,,,,,,,,,,,,0,2,2,2,,,,,,,,,,,,,,,,,,,,,,,,,,,,,,,,,,,,,,,,,,,,,,,,,,,,,,,,,,,,,,,,,,,,,1.4753086424122255,0.8758638999424875,622.114946299931,None,NoResponse,무응답입니다,622.114946299931,None,622.114946299931,None,622.114946299931,None,622.114946299931,None,622.8890807998832,None,622.8890807998832,623.3891668999568,,,,,,,,,,,,,,,,035,2022-06-02_10h41.17.424,FishGame,2022.1.1,59.98681486752809,
,4,넌 과감해,3,Orange,A,4.833333333333334,4.6,ScrollDown,ScrollUp,Orange.png,5,Neutral,Neutral,0,0,0,0,,,,,,,,,,,,,,,,,,,,,,,,,,,,,0,3,3,3,,,,,,,,,,,,,,,,,,,,,,,,,,,,,,,,,,,,,,,,,,,,,,,,,,,,,,,,,,,,,,,,,,,,,1,1.0115728999953717,624.009476199979,None,ScrollDown,정답입니다,624.009476199979,None,624.009476199979,None,624.009476199979,None,624.009476199979,None,624.922445599921,None,624.922445599921,625.4249587999657,,,,,,,,,,,,,,,,035,2022-06-02_10h41.17.424,FishGame,2022.1.1,59.98681486752809,
,5,넌 고분고분해,3,Green,B,3.75,4.033333333333333,ScrollUp,ScrollDown,Green.png,5,Neutral,Neutral,0,0,0,0,,,,,,,,,,,,,,,,,,,,,,,,,,,,,0,4,4,4,,,,,,,,,,,,,,,,,,,,,,,,,,,,,,,,,,,,,,,,,,,,,,,,,,,,,,,,,,,,,,,,,,,,,2,1.1274900999851525,626.0477362000383,None,ScrollUp,정답입니다,626.0477362000383,None,626.0477362000383,None,626.0477362000383,None,626.0477362000383,None,627.0749134998769,None,627.0749134998769,627.5914380999748,,,,,,,,,,,,,,,,035,2022-06-02_10h41.17.424,FishGame,2022.1.1,59.98681486752809,
,6,나를 보내줘,6,Orange,A,0,0,ScrollUp,ScrollDown,Orange.png,5,NonTarget,NonTarget,0,0,0,0,,,,,,,,,,,,,,,,,,,,,,,,,,,,,0,5,5,5,,,,,,,,,,,,,,,,,,,,,,,,,,,,,,,,,,,,,,,,,,,,,,,,,,,,,,,,,,,,,,,,,,,,,2,1.3595795000437647,628.196522800019,None,ScrollUp,정답입니다,628.196522800019,None,628.196522800019,None,628.196522800019,None,628.196522800019,None,629.4559263000265,None,629.4559263000265,629.9559688000008,,,,,,,,,,,,,,,,035,2022-06-02_10h41.17.424,FishGame,2022.1.1,59.98681486752809,
,7,넌 잘 잊어,4,Orange,A,3,3.7,ScrollDown,ScrollUp,Orange.png,5,Negative,Incongruent,0,0,0,0,,,,,,,,,,,,,,,,,,,,,,,,,,,,,0,6,6,6,,,,,,,,,,,,,,,,,,,,,,,,,,,,,,,,,,,,,,,,,,,,,,,,,,,,,,,,,,,,,,,,,,,,,1,1.0259546998422593,630.586782499915,None,ScrollDown,정답입니다,630.586782499915,None,630.586782499915,None,630.586782499915,None,630.586782499915,None,631.5055851999205,None,631.5055851999205,632.0056532998569,,,,,,,,,,,,,,,,035,2022-06-02_10h41.17.424,FishGame,2022.1.1,59.98681486752809,
,8,넌 탐구심이없어,4,Green,B,2.833333333333333,3.066666666666667,ScrollUp,ScrollDown,Green.png,5,Negative,Congruent,0,0,0,0,,,,,,,,,,,,,,,,,,,,,,,,,,,,,0,7,7,7,,,,,,,,,,,,,,,,,,,,,,,,,,,,,,,,,,,,,,,,,,,,,,,,,,,,,,,,,,,,,,,,,,,,,2,1.0804490000009537,632.6427617999725,None,ScrollUp,정답입니다,632.6427617999725,None,632.6427617999725,None,632.6427617999725,None,632.6427617999725,None,633.6081049998756,None,633.6081049998756,634.1081308999564,,,,,,,,,,,,,,,,035,2022-06-02_10h41.17.424,FishGame,2022.1.1,59.98681486752809,
,9,나를 데려가줘,6,Green,B,0,0,ScrollDown,ScrollUp,Green.png,5,NonTarget,NonTarget,0,0,0,0,,,,,,,,,,,,,,,,,,,,,,,,,,,,,0,8,8,8,,,,,,,,,,,,,,,,,,,,,,,,,,,,,,,,,,,,,,,,,,,,,,,,,,,,,,,,,,,,,,,,,,,,,1,1.1730947000905871,634.7323969998397,None,ScrollDown,정답입니다,634.7323969998397,None,634.7323969998397,None,634.7323969998397,None,634.7323969998397,None,635.8010872998275,None,635.8010872998275,636.3055624000262,,,,,,,,,,,,,,,,035,2022-06-02_10h41.17.424,FishGame,2022.1.1,59.98681486752809,
,10,넌 참되어,2,Orange,A,6.041666666666664,4.733333333333333,ScrollDown,ScrollUp,Orange.png,5,Positive,Congruent,0,0,0,0,,,,,,,,,,,,,,,,,,,,,,,,,,,,,0,9,9,9,,,,,,,,,,,,,,,,,,,,,,,,,,,,,,,,,,,,,,,,,,,,,,,,,,,,,,,,,,,,,,,,,,,,,1,1.0784187000244856,636.9283175000455,None,ScrollDown,정답입니다,636.9283175000455,None,636.9283175000455,None,636.9283175000455,None,636.9283175000455,None,637.9054860000033,None,637.9054860000033,638.4080808998551,,,,,,,,,,,,,,,,035,2022-06-02_10h41.17.424,FishGame,2022.1.1,59.98681486752809,
,11,넌 생기있어,1,Green,B,5.875,5.633333333333334,ScrollUp,ScrollDown,Green.png,5,Positive,Incongruent,0,0,0,0,,,,,,,,,,,,,,,,,,,,,,,,,,,,,0,10,10,10,,,,,,,,,,,,,,,,,,,,,,,,,,,,,,,,,,,,,,,,,,,,,,,,,,,,,,,,,,,,,,,,,,,,,2,1.428533900063485,639.02987139998,None,ScrollUp,정답입니다,639.02987139998,None,639.02987139998,None,639.02987139998,None,639.02987139998,None,640.3579608998261,None,640.3579608998261,640.8579930998385,,,,,,,,,,,,,,,,035,2022-06-02_10h41.17.424,FishGame,2022.1.1,59.98681486752809,
,12,넌 비사교적이야,4,Green,B,2.875,2.9,ScrollUp,ScrollDown,Green.png,5,Negative,Congruent,0,0,0,0,,,,,,,,,,,,,,,,,,,,,,,,,,,,,0,11,11,11,,,,,,,,,,,,,,,,,,,,,,,,,,,,,,,,,,,,,,,,,,,,,,,,,,,,,,,,,,,,,,,,,,,,,2,1.2426384000573307,641.4812022999395,None,ScrollUp,정답입니다,641.4812022999395,None,641.4812022999395,None,641.4812022999395,None,641.4812022999395,None,642.6222902999725,None,642.6222902999725,643.1245196999516,,,,,,,,,,,,,,,,035,2022-06-02_10h41.17.424,FishGame,2022.1.1,59.98681486752809,
,13,나를 데려가줘,6,Green,B,0,0,ScrollDown,ScrollUp,Green.png,5,NonTarget,NonTarget,0,0,0,0,,,,,,,,,,,,,,,,,,,,,,,,,,,,,0,12,12,12,,,,,,,,,,,,,,,,,,,,,,,,,,,,,,,,,,,,,,,,,,,,,,,,,,,,,,,,,,,,,,,,,,,,,1,1.1597053001169115,643.7480529998429,None,ScrollDown,정답입니다,643.7480529998429,None,643.7480529998429,None,643.7480529998429,None,643.7480529998429,None,644.8056292999536,None,644.8056292999536,645.3077199999243,,,,,,,,,,,,,,,,035,2022-06-02_10h41.17.424,FishGame,2022.1.1,59.98681486752809,
,14,넌 고독해,4,Orange,A,2.916666666666667,3.233333333333333,ScrollDown,ScrollUp,Orange.png,5,Negative,Incongruent,0,0,0,0,,,,,,,,,,,,,,,,,,,,,,,,,,,,,0,13,13,13,,,,,,,,,,,,,,,,,,,,,,,,,,,,,,,,,,,,,,,,,,,,,,,,,,,,,,,,,,,,,,,,,,,,,1,1.0761114999186248,645.9280362999998,None,ScrollDown,정답입니다,645.9280362999998,None,645.9280362999998,None,645.9280362999998,None,645.9280362999998,None,646.9077316999901,None,646.9077316999901,647.4077347998973,,,,,,,,,,,,,,,,035,2022-06-02_10h41.17.424,FishGame,2022.1.1,59.98681486752809,
,15,넌 신경질적이야,5,Green,B,2.375,2.233333333333333,ScrollUp,ScrollDown,Green.png,5,Negative,Congruent,0,0,0,0,,,,,,,,,,,,,,,,,,,,,,,,,,,,,0,14,14,14,,,,,,,,,,,,,,,,,,,,,,,,,,,,,,,,,,,,,,,,,,,,,,,,,,,,,,,,,,,,,,,,,,,,,2,1.242951599881053,648.0319270000327,None,ScrollUp,정답입니다,648.0319270000327,None,648.0319270000327,None,648.0319270000327,None,648.0319270000327,None,649.1718899998814,None,649.1718899998814,649.6719583999366,,,,,,,,,,,,,,,,035,2022-06-02_10h41.17.424,FishGame,2022.1.1,59.98681486752809,
,16,넌 똑똑해,2,Green,B,5.666666666666667,3.966666666666667,ScrollUp,ScrollDown,Green.png,5,Positive,Incongruent,0,0,0,0,,,,,,,,,,,,,,,,,,,,,,,,,,,,,0,15,15,15,,,,,,,,,,,,,,,,,,,,,,,,,,,,,,,,,,,,,,,,,,,,,,,,,,,,,,,,,,,,,,,,,,,,,2,0.9974031001329422,650.2938999999315,None,ScrollUp,정답입니다,650.2938999999315,None,650.2938999999315,None,650.2938999999315,None,650.2938999999315,None,651.1911311999429,None,651.1911311999429,651.6911392000038,,,,,,,,,,,,,,,,035,2022-06-02_10h41.17.424,FishGame,2022.1.1,59.98681486752809,
,17,나를 보내줘,6,Orange,A,0,0,ScrollUp,ScrollDown,Orange.png,5,NonTarget,NonTarget,0,0,0,0,,,,,,,,,,,,,,,,,,,,,,,,,,,,,0,16,16,16,,,,,,,,,,,,,,,,,,,,,,,,,,,,,,,,,,,,,,,,,,,,,,,,,,,,,,,,,,,,,,,,,,,,,2,1.3622103000525385,652.3092853999697,None,ScrollUp,정답입니다,652.3092853999697,None,652.3092853999697,None,652.3092853999697,None,652.3092853999697,None,653.5742675999645,None,653.5742675999645,654.0744250998832,,,,,,,,,,,,,,,,035,2022-06-02_10h41.17.424,FishGame,2022.1.1,59.98681486752809,
,18,넌 협조적이야,1,Orange,A,5.625,5.666666666666667,ScrollDown,ScrollUp,Orange.png,5,Positive,Congruent,0,0,0,0,,,,,,,,,,,,,,,,,,,,,,,,,,,,,0,17,17,17,,,,,,,,,,,,,,,,,,,,,,,,,,,,,,,,,,,,,,,,,,,,,,,,,,,,,,,,,,,,,,,,,,,,,1,1.1089708001818508,654.7078227999154,None,ScrollDown,정답입니다,654.7078227999154,None,654.7078227999154,None,654.7078227999154,None,654.7078227999154,None,655.7050848999061,None,655.7050848999061,656.2051464000251,,,,,,,,,,,,,,,,035,2022-06-02_10h41.17.424,FishGame,2022.1.1,59.98681486752809,
,19,나를 데려가줘,6,Green,B,0,0,ScrollDown,ScrollUp,Green.png,5,NonTarget,NonTarget,0,0,0,0,,,,,,,,,,,,,,,,,,,,,,,,,,,,,0,18,18,18,,,,,,,,,,,,,,,,,,,,,,,,,,,,,,,,,,,,,,,,,,,,,,,,,,,,,,,,,,,,,,,,,,,,,1,1.145194600103423,656.8276253000367,None,ScrollDown,정답입니다,656.8276253000367,None,656.8276253000367,None,656.8276253000367,None,656.8276253000367,None,657.874259499833,None,657.874259499833,658.3743634000421,,,,,,,,,,,,,,,,035,2022-06-02_10h41.17.424,FishGame,2022.1.1,59.98681486752809,
,20,넌 몰인정해,5,Green,B,2.541666666666667,2.066666666666667,ScrollUp,ScrollDown,Green.png,5,Negative,Congruent,0,0,0,0,,,,,,,,,,,,,,,,,,,,,,,,,,,,,0,19,19,19,,,,,,,,,,,,,,,,,,,,,,,,,,,,,,,,,,,,,,,,,,,,,,,,,,,,,,,,,,,,,,,,,,,,,2,1.2126027001067996,658.9931407999247,None,ScrollUp,정답입니다,658.9931407999247,None,658.9931407999247,None,658.9931407999247,None,658.9931407999247,None,660.1052488000132,None,660.1052488000132,660.6078440998681,,,,,,,,,,,,,,,,035,2022-06-02_10h41.17.424,FishGame,2022.1.1,59.98681486752809,
,21,나를 데려가줘,6,Green,B,0,0,ScrollDown,ScrollUp,Green.png,5,NonTarget,NonTarget,0,0,0,0,,,,,,,,,,,,,,,,,,,,,,,,,,,,,0,20,20,20,,,,,,,,,,,,,,,,,,,,,,,,,,,,,,,,,,,,,,,,,,,,,,,,,,,,,,,,,,,,,,,,,,,,,1,1.1449423001613468,661.2262663999572,None,ScrollDown,정답입니다,661.2262663999572,None,661.2262663999572,None,661.2262663999572,None,661.2262663999572,None,662.2718966999091,None,662.2718966999091,662.7740797000006,,,,,,,,,,,,,,,,035,2022-06-02_10h41.17.424,FishGame,2022.1.1,59.98681486752809,
,22,넌 순진해,3,Green,B,4.125,4.166666666666667,ScrollUp,ScrollDown,Green.png,5,Neutral,Neutral,0,0,0,0,,,,,,,,,,,,,,,,,,,,,,,,,,,,,0,21,21,21,,,,,,,,,,,,,,,,,,,,,,,,,,,,,,,,,,,,,,,,,,,,,,,,,,,,,,,,,,,,,,,,,,,,,2,1.009194599930197,663.3959154998884,None,ScrollUp,정답입니다,663.3959154998884,None,663.3959154998884,None,663.3959154998884,None,663.3959154998884,None,664.3051295999903,None,664.3051295999903,664.805195099907,,,,,,,,,,,,,,,,035,2022-06-02_10h41.17.424,FishGame,2022.1.1,59.98681486752809,
,23,넌 신뢰할만해,1,Orange,A,6.625,5.533333333333333,ScrollDown,ScrollUp,Orange.png,5,Positive,Congruent,0,0,0,0,,,,,,,,,,,,,,,,,,,,,,,,,,,,,0,22,22,22,,,,,,,,,,,,,,,,,,,,,,,,,,,,,,,,,,,,,,,,,,,,,,,,,,,,,,,,,,,,,,,,,,,,,1,1.161402199883014,665.4321228000335,None,ScrollDown,정답입니다,665.4321228000335,None,665.4321228000335,None,665.4321228000335,None,665.4321228000335,None,666.4906770000234,None,666.4906770000234,666.9884915000293,,,,,,,,,,,,,,,,035,2022-06-02_10h41.17.424,FishGame,2022.1.1,59.98681486752809,
,24,나를 보내줘,6,Orange,A,0,0,ScrollUp,ScrollDown,Orange.png,5,NonTarget,NonTarget,0,0,0,0,,,,,,,,,,,,,,,,,,,,,,,,,,,,,0,23,23,23,,,,,,,,,,,,,,,,,,,,,,,,,,,,,,,,,,,,,,,,,,,,,,,,,,,,,,,,,,,,,,,,,,,,,2,1.109273999929428,667.614125299966,None,ScrollUp,정답입니다,667.614125299966,None,667.614125299966,None,667.614125299966,None,667.614125299966,None,668.621672899928,None,668.621672899928,669.1217632000335,,,,,,,,,,,,,,,,035,2022-06-02_10h41.17.424,FishGame,2022.1.1,59.98681486752809,
