name,TrialNum,Word,WordCategory,FishType,WordList,WordValence,WordReputation,CorrectResp,IncorrectResp,FishTypeFile,Round,WordType,Condition,LoopforOrange.thisRepN,LoopforOrange.thisTrialN,LoopforOrange.thisN,LoopforOrange.thisIndex,LoopForGreen.thisRepN,LoopForGreen.thisTrialN,LoopForGreen.thisN,LoopForGreen.thisIndex,GreenInstLoop.thisRepN,GreenInstLoop.thisTrialN,GreenInstLoop.thisN,GreenInstLoop.thisIndex,GreenPrac.thisRepN,GreenPrac.thisTrialN,GreenPrac.thisN,GreenPrac.thisIndex,trials_2.thisRepN,trials_2.thisTrialN,trials_2.thisN,trials_2.thisIndex,GreenRound1.thisRepN,GreenRound1.thisTrialN,GreenRound1.thisN,GreenRound1.thisIndex,GreenRound2.thisRepN,GreenRound2.thisTrialN,GreenRound2.thisN,GreenRound2.thisIndex,GreenRound3.thisRepN,GreenRound3.thisTrialN,GreenRound3.thisN,GreenRound3.thisIndex,GreenRound4.thisRepN,GreenRound4.thisTrialN,GreenRound4.thisN,GreenRound4.thisIndex,GreenRound5.thisRepN,GreenRound5.thisTrialN,GreenRound5.thisN,GreenRound5.thisIndex,text_2.started,text_2.stopped,text_3.started,text_3.stopped,key_resp.keys,key_resp.rt,key_resp.started,key_resp.stopped,PassI.started,PassI.stopped,PassInst.keys,PassInst.rt,PassInst.started,PassInst.stopped,mouse_2.x,mouse_2.y,mouse_2.leftButton,mouse_2.midButton,mouse_2.rightButton,mouse_2.started,mouse_2.stopped,image.started,image.stopped,text_5.started,text_5.stopped,text_6.started,text_6.stopped,text_7.started,text_7.stopped,text_8.started,text_8.stopped,slider_3.response,slider_3.rt,slider_3.started,slider_3.stopped,Response_3,Feedback_3,BackGround_3.started,BackGround_3.stopped,Fish_3.started,Fish_3.stopped,WordBox_3.started,WordBox_3.stopped,Words_3.started,Words_3.stopped,BackGround_Feedback_3.started,BackGround_Feedback_3.stopped,Feedbacks_3.started,Feedbacks_3.stopped,Continue_or_not_2.keys,Continue_or_not_2.rt,Continue_or_not_2.started,Continue_or_not_2.stopped,image_4.started,image_4.stopped,mouse_3.x,mouse_3.y,mouse_3.leftButton,mouse_3.midButton,mouse_3.rightButton,mouse_3.started,mouse_3.stopped,startmain.started,startmain.stopped,slider_4.response,slider_4.rt,slider_4.started,slider_4.stopped,Response_4,Feedback_4,BackGround_4.started,BackGround_4.stopped,Fish_4.started,Fish_4.stopped,WordBox_4.started,WordBox_4.stopped,Words_4.started,Words_4.stopped,BackGround_Feedback_4.started,BackGround_Feedback_4.stopped,Feedbacks_4.started,Feedbacks_4.stopped,text.started,text.stopped,break_interval.started,break_interval.stopped,mouse.x,mouse.y,mouse.leftButton,mouse.midButton,mouse.rightButton,mouse.started,mouse.stopped,stratnextround.started,stratnextround.stopped,endgame.started,endgame.stopped,participant,date,expName,psychopyVersion,frameRate,
,,,,,,,,,,,,,,,,,,,,,,,,,,,,,,,,,,,,,,,,,,,,,,,,,,,,,,28.330405799999426,None,28.330405799999426,None,space,26.44479539999884,28.791061800002353,None,,,,,,,,,,,,,,,,,,,,,,,,,,,,,,,,,,,,,,,,,,,,,,,,,,,,,,,,,,,,,,,,,,,,,,,,,,,,,,,,,,,,,,,,,,102,2022-04-28_09h25.53.530,FishGame,2022.1.1,60.07864294357168,
물고기과제_instruction(참가자용)GreenVersion.mp4,,,,,,,,,,,,,,,,,,0,0,0,0,0,0,0,0,,,,,,,,,,,,,,,,,,,,,,,,,,,,,,,,,,,,,122.32405560000188,None,n,21.643861599994125,122.32405560000188,None,,,,,,,,,,,,,,,,,,,,,,,,,,,,,,,,,,,,,,,,,,,,,,,,,,,,,,,,,,,,,,,,,,,,,,,,,,,,,,,,,,,,102,2022-04-28_09h25.53.530,FishGame,2022.1.1,60.07864294357168,
,1,넌 교활해,5,Orange,B,2.333333333333333,2.133333333333333,ScrollUp,ScrollDown,Orange.png,practice,,,,,,,0,0,0,0,,,,,0,0,0,0,0,0,0,0,,,,,,,,,,,,,,,,,,,,,,,,,,,,,,,,,,,0.047222223,-0.23055555,1,0,0,0.513901629994507,None,143.99287760000152,None,150.05956800000422,151.55996089999826,151.59293530000286,152.5427933000028,152.59301440000127,153.54281369999808,153.54281369999808,None,1.859567900498708,14.194346399999631,154.72629559999768,None,ScrollUp,정답입니다,154.72629559999768,None,154.72629559999768,None,154.72629559999768,None,154.72629559999768,None,168.73519079999824,None,168.73519079999824,169.2432975999982,,,,,,,,,,,,,,,,,,,,,,,,,,,,,,,,,,,,,,,,,,,,,,,,,102,2022-04-28_09h25.53.530,FishGame,2022.1.1,60.07864294357168,
,2,넌 슬기로워,2,Green,A,6.166666666666667,4.1,ScrollDown,ScrollUp,Green.png,practice,,,,,,,0,0,0,0,,,,,0,0,0,0,0,1,1,1,,,,,,,,,,,,,,,,,,,,,,,,,,,,,,,,,,,,,,,,,,,,,,,,,,,,1.2932098805904388,1.4237337999948068,169.93473059999815,None,ScrollDown,정답입니다,169.93473059999815,None,169.93473059999815,None,169.93473059999815,None,169.93473059999815,None,171.19330450000416,None,171.19330450000416,171.6932958000034,,,,,,,,,,,,,,,,,,,,,,,,,,,,,,,,,,,,,,,,,,,,,,,,,102,2022-04-28_09h25.53.530,FishGame,2022.1.1,60.07864294357168,
,3,나를 보내줘,6,Green,A,0,0,ScrollUp,ScrollDown,Green.png,practice,,,,,,,0,0,0,0,,,,,0,0,0,0,0,2,2,2,,,,,,,,,,,,,,,,,,,,,,,,,,,,,,,,,,,,,,,,,,,,,,,,,,,,1.7407407512267432,1.545646400001715,172.32394529999874,None,ScrollUp,정답입니다,172.32394529999874,None,172.32394529999874,None,172.32394529999874,None,172.32394529999874,None,173.76368260000163,None,173.76368260000163,174.2767937000026,,,,,,,,,,,,,,,,,,,,,,,,,,,,,,,,,,,,,,,,,,,,,,,,,102,2022-04-28_09h25.53.530,FishGame,2022.1.1,60.07864294357168,
,4,나를 데려가줘,6,Orange,B,0,0,ScrollDown,ScrollUp,Orange.png,practice,,,,,,,0,0,0,0,,,,,0,0,0,0,0,3,3,3,,,,,,,,,,,,,,,,,,,,,,,,,,,,,,,,,,,,,,,,,,,,,,,,,,,,1.4876543212061126,2.037210000002233,174.9113645000034,None,NoResponse,무응답입니다,174.9113645000034,None,174.9113645000034,None,174.9113645000034,None,174.9113645000034,None,176.83673110000382,None,176.83673110000382,177.34335940000165,,,,,,,,,,,,,,,,,,,,,,,,,,,,,,,,,,,,,,,,,,,,,,,,,102,2022-04-28_09h25.53.530,FishGame,2022.1.1,60.07864294357168,
,1,넌 교활해,5,Orange,B,2.333333333333333,2.133333333333333,ScrollUp,ScrollDown,Orange.png,practice,,,,,,,0,0,0,0,,,,,0,0,0,0,,,,,,,,,,,,,,,,,,,,,,,,,,,,,,,,,,,,,,,,,,,,,,,,,,,,,,,,,,,,,,,,,,,,,,,,,,n,29.78418260000035,177.84374709999975,None,177.84374709999975,None,,,,,,,,,,,,,,,,,,,,,,,,,,,,,,,,,,,,,,,,,,,102,2022-04-28_09h25.53.530,FishGame,2022.1.1,60.07864294357168,
,1,넌 따뜻해,1,Orange,B,6.083333333333333,5.6,ScrollUp,ScrollDown,Orange.png,1,Positive,Incongruent,,,,,0,0,0,0,,,,,,,,,,,,,0,0,0,0,,,,,,,,,,,,,,,,,,,,,,,,,,,,,,,,,,,,,,,,230.92750610000076,232.42807999999786,232.46174260000407,233.41136559999723,233.46144289999938,234.4113101999974,234.4113101999974,None,,,,,,,,,,,,,,,,,,,,,,,,,0.05277778,-0.125,1,0,0,0.3143504299951019,None,207.660721500004,None,1.8533950696388881,1.5875907000008738,235.60032859999774,None,ScrollUp,정답입니다,235.60032859999774,None,235.60032859999774,None,235.60032859999774,None,235.60032859999774,None,236.99806849999732,None,236.99806849999732,237.5113444000017,,,,,,,,,,,,,,,,102,2022-04-28_09h25.53.530,FishGame,2022.1.1,60.07864294357168,
,2,넌 기품있어,2,Orange,B,5.791666666666668,4.5,ScrollUp,ScrollDown,Orange.png,1,Positive,Incongruent,,,,,0,0,0,0,,,,,,,,,,,,,0,1,1,1,,,,,,,,,,,,,,,,,,,,,,,,,,,,,,,,,,,,,,,,,,,,,,,,,,,,,,,,,,,,,,,,,,,,,,,,,,,,,,,,,1.8749999900658925,1.0895483000058448,238.15775820000272,None,ScrollUp,정답입니다,238.15775820000272,None,238.15775820000272,None,238.15775820000272,None,238.15775820000272,None,239.1112673000025,None,239.1112673000025,239.6114063999994,,,,,,,,,,,,,,,,102,2022-04-28_09h25.53.530,FishGame,2022.1.1,60.07864294357168,
,3,나를 보내줘,6,Green,A,0,0,ScrollUp,ScrollDown,Green.png,1,NonTarget,NonTarget,,,,,0,0,0,0,,,,,,,,,,,,,0,2,2,2,,,,,,,,,,,,,,,,,,,,,,,,,,,,,,,,,,,,,,,,,,,,,,,,,,,,,,,,,,,,,,,,,,,,,,,,,,,,,,,,,1.7962963034709294,1.2559838000015588,240.25958360000368,None,ScrollUp,정답입니다,240.25958360000368,None,240.25958360000368,None,240.25958360000368,None,240.25958360000368,None,241.39479649999703,None,241.39479649999703,241.89507679999952,,,,,,,,,,,,,,,,102,2022-04-28_09h25.53.530,FishGame,2022.1.1,60.07864294357168,
,4,넌 수동적이야,4,Green,A,2.833333333333333,2.933333333333333,ScrollDown,ScrollUp,Green.png,1,Negative,Incongruent,,,,,0,0,0,0,,,,,,,,,,,,,0,3,3,3,,,,,,,,,,,,,,,,,,,,,,,,,,,,,,,,,,,,,,,,,,,,,,,,,,,,,,,,,,,,,,,,,,,,,,,,,,,,,,,,,1.214506169160207,1.3429791000016849,242.5492860000013,None,ScrollDown,정답입니다,242.5492860000013,None,242.5492860000013,None,242.5492860000013,None,242.5492860000013,None,243.7609902999975,None,243.7609902999975,244.26159709999774,,,,,,,,,,,,,,,,102,2022-04-28_09h25.53.530,FishGame,2022.1.1,60.07864294357168,
,5,넌 사심이 없어,3,Orange,B,4.916666666666666,4.333333333333333,ScrollUp,ScrollDown,Orange.png,1,Neutral,Neutral,,,,,0,0,0,0,,,,,,,,,,,,,0,4,4,4,,,,,,,,,,,,,,,,,,,,,,,,,,,,,,,,,,,,,,,,,,,,,,,,,,,,,,,,,,,,,,,,,,,,,,,,,,,,,,,,,1.7098765472571054,1.0120259999966947,244.90991190000204,None,ScrollUp,정답입니다,244.90991190000204,None,244.90991190000204,None,244.90991190000204,None,244.90991190000204,None,245.79968580000423,None,245.79968580000423,246.3115226000009,,,,,,,,,,,,,,,,102,2022-04-28_09h25.53.530,FishGame,2022.1.1,60.07864294357168,
,6,넌 헤퍼,5,Green,A,2.458333333333334,2.233333333333333,ScrollDown,ScrollUp,Green.png,1,Negative,Incongruent,,,,,0,0,0,0,,,,,,,,,,,,,0,5,5,5,,,,,,,,,,,,,,,,,,,,,,,,,,,,,,,,,,,,,,,,,,,,,,,,,,,,,,,,,,,,,,,,,,,,,,,,,,,,,,,,,1.162037044763565,1.0894770000013523,246.94474340000306,None,ScrollDown,정답입니다,246.94474340000306,None,246.94474340000306,None,246.94474340000306,None,246.94474340000306,None,247.92823289999797,None,247.92823289999797,248.4276544000022,,,,,,,,,,,,,,,,102,2022-04-28_09h25.53.530,FishGame,2022.1.1,60.07864294357168,
,7,넌 말쑥해,3,Green,A,4.833333333333334,4.333333333333333,ScrollDown,ScrollUp,Green.png,1,Neutral,Neutral,,,,,0,0,0,0,,,,,,,,,,,,,0,6,6,6,,,,,,,,,,,,,,,,,,,,,,,,,,,,,,,,,,,,,,,,,,,,,,,,,,,,,,,,,,,,,,,,,,,,,,,,,,,,,,,,,1.0725308855374653,0.9657959000032861,249.07162940000126,None,ScrollDown,정답입니다,249.07162940000126,None,249.07162940000126,None,249.07162940000126,None,249.07162940000126,None,249.9160034000015,None,249.9160034000015,250.42820029999712,,,,,,,,,,,,,,,,102,2022-04-28_09h25.53.530,FishGame,2022.1.1,60.07864294357168,
,8,넌 투덜거려,5,Orange,B,2.541666666666667,2.266666666666667,ScrollUp,ScrollDown,Orange.png,1,Negative,Congruent,,,,,0,0,0,0,,,,,,,,,,,,,0,7,7,7,,,,,,,,,,,,,,,,,,,,,,,,,,,,,,,,,,,,,,,,,,,,,,,,,,,,,,,,,,,,,,,,,,,,,,,,,,,,,,,,,1.7083333333333335,0.9559599999993225,251.0863404999982,None,ScrollUp,정답입니다,251.0863404999982,None,251.0863404999982,None,251.0863404999982,None,251.0863404999982,None,251.91161250000005,None,251.91161250000005,252.41179620000185,,,,,,,,,,,,,,,,102,2022-04-28_09h25.53.530,FishGame,2022.1.1,60.07864294357168,
,9,넌 적극적이야,1,Green,A,5.708333333333333,5.533333333333333,ScrollDown,ScrollUp,Green.png,1,Positive,Congruent,,,,,0,0,0,0,,,,,,,,,,,,,0,8,8,8,,,,,,,,,,,,,,,,,,,,,,,,,,,,,,,,,,,,,,,,,,,,,,,,,,,,,,,,,,,,,,,,,,,,,,,,,,,,,,,,,1.2268518557151158,0.9865547000008519,253.044991499999,None,ScrollDown,정답입니다,253.044991499999,None,253.044991499999,None,253.044991499999,None,253.044991499999,None,253.92476349999924,None,253.92476349999924,254.42851920000248,,,,,,,,,,,,,,,,102,2022-04-28_09h25.53.530,FishGame,2022.1.1,60.07864294357168,
,10,넌 재미없어,4,Orange,B,2.625,2.966666666666667,ScrollUp,ScrollDown,Orange.png,1,Negative,Congruent,,,,,0,0,0,0,,,,,,,,,,,,,0,9,9,9,,,,,,,,,,,,,,,,,,,,,,,,,,,,,,,,,,,,,,,,,,,,,,,,,,,,,,,,,,,,,,,,,,,,,,,,,,,,,,,,,1.6851851865649223,1.0079345000049216,255.0708586000037,None,ScrollUp,정답입니다,255.0708586000037,None,255.0708586000037,None,255.0708586000037,None,255.0708586000037,None,255.96143680000387,None,255.96143680000387,256.461455800003,,,,,,,,,,,,,,,,102,2022-04-28_09h25.53.530,FishGame,2022.1.1,60.07864294357168,
,11,넌 명석해,2,Green,A,5.875,4.033333333333333,ScrollDown,ScrollUp,Green.png,1,Positive,Congruent,,,,,0,0,0,0,,,,,,,,,,,,,0,10,10,10,,,,,,,,,,,,,,,,,,,,,,,,,,,,,,,,,,,,,,,,,,,,,,,,,,,,,,,,,,,,,,,,,,,,,,,,,,,,,,,,,1.0354938507080078,1.0176427000042167,257.10624010000174,None,ScrollDown,정답입니다,257.10624010000174,None,257.10624010000174,None,257.10624010000174,None,257.10624010000174,None,258.0079975999979,None,258.0079975999979,258.5118150999988,,,,,,,,,,,,,,,,102,2022-04-28_09h25.53.530,FishGame,2022.1.1,60.07864294357168,
,12,나를 데려가줘,6,Orange,B,0,0,ScrollDown,ScrollUp,Orange.png,1,NonTarget,NonTarget,,,,,0,0,0,0,,,,,,,,,,,,,0,11,11,11,,,,,,,,,,,,,,,,,,,,,,,,,,,,,,,,,,,,,,,,,,,,,,,,,,,,,,,,,,,,,,,,,,,,,,,,,,,,,,,,,1.200617293516795,1.2316356000010273,259.15631179999764,None,ScrollDown,정답입니다,259.15631179999764,None,259.15631179999764,None,259.15631179999764,None,259.15631179999764,None,260.267502900002,None,260.267502900002,260.7784664999999,,,,,,,,,,,,,,,,102,2022-04-28_09h25.53.530,FishGame,2022.1.1,60.07864294357168,
,13,넌 소심해,4,Green,A,3,3.1,ScrollDown,ScrollUp,Green.png,1,Negative,Incongruent,,,,,0,0,0,0,,,,,,,,,,,,,0,12,12,12,,,,,,,,,,,,,,,,,,,,,,,,,,,,,,,,,,,,,,,,,,,,,,,,,,,,,,,,,,,,,,,,,,,,,,,,,,,,,,,,,1.320987656712532,1.0140831000026083,261.414325800004,None,ScrollDown,정답입니다,261.414325800004,None,261.414325800004,None,261.414325800004,None,261.414325800004,None,262.31609729999764,None,262.31609729999764,262.82861989999947,,,,,,,,,,,,,,,,102,2022-04-28_09h25.53.530,FishGame,2022.1.1,60.07864294357168,
,14,넌 합리적이야,2,Green,A,5.583333333333333,4.733333333333333,ScrollDown,ScrollUp,Green.png,1,Positive,Congruent,,,,,0,0,0,0,,,,,,,,,,,,,0,13,13,13,,,,,,,,,,,,,,,,,,,,,,,,,,,,,,,,,,,,,,,,,,,,,,,,,,,,,,,,,,,,,,,,,,,,,,,,,,,,,,,,,1.3626543208956718,0.9412908000012976,263.46897549999994,None,ScrollDown,정답입니다,263.46897549999994,None,263.46897549999994,None,263.46897549999994,None,263.46897549999994,None,264.29510599999776,None,264.29510599999776,264.795329499997,,,,,,,,,,,,,,,,102,2022-04-28_09h25.53.530,FishGame,2022.1.1,60.07864294357168,
,15,넌 무자비해,5,Orange,B,2.333333333333333,2.1,ScrollUp,ScrollDown,Orange.png,1,Negative,Congruent,,,,,0,0,0,0,,,,,,,,,,,,,0,14,14,14,,,,,,,,,,,,,,,,,,,,,,,,,,,,,,,,,,,,,,,,,,,,,,,,,,,,,,,,,,,,,,,,,,,,,,,,,,,,,,,,,1.8765432039896648,0.9050629000048502,265.449031199998,None,ScrollUp,정답입니다,265.449031199998,None,265.449031199998,None,265.449031199998,None,265.449031199998,None,266.2248655000003,None,266.2248655000003,266.7286571000004,,,,,,,,,,,,,,,,102,2022-04-28_09h25.53.530,FishGame,2022.1.1,60.07864294357168,
,16,나를 보내줘,6,Green,A,0,0,ScrollUp,ScrollDown,Green.png,1,NonTarget,NonTarget,,,,,0,0,0,0,,,,,,,,,,,,,0,15,15,15,,,,,,,,,,,,,,,,,,,,,,,,,,,,,,,,,,,,,,,,,,,,,,,,,,,,,,,,,,,,,,,,,,,,,,,,,,,,,,,,,1.766975313425064,1.1176237000036053,267.3654583000025,None,ScrollUp,정답입니다,267.3654583000025,None,267.3654583000025,None,267.3654583000025,None,267.3654583000025,None,268.36635430000024,None,268.36635430000024,268.87895489999937,,,,,,,,,,,,,,,,102,2022-04-28_09h25.53.530,FishGame,2022.1.1,60.07864294357168,
,17,넌 현실적이야,3,Orange,B,4.608695652173913,4.766666666666667,ScrollUp,ScrollDown,Orange.png,1,Neutral,Neutral,,,,,0,0,0,0,,,,,,,,,,,,,0,16,16,16,,,,,,,,,,,,,,,,,,,,,,,,,,,,,,,,,,,,,,,,,,,,,,,,,,,,,,,,,,,,,,,,,,,,,,,,,,,,,,,,,1.6157407462596893,1.0829776999962633,269.5245092000041,None,ScrollUp,정답입니다,269.5245092000041,None,269.5245092000041,None,269.5245092000041,None,269.5245092000041,None,270.48313000000053,None,270.48313000000053,270.9956665999998,,,,,,,,,,,,,,,,102,2022-04-28_09h25.53.530,FishGame,2022.1.1,60.07864294357168,
,18,넌 의리있어,1,Orange,B,5.833333333333334,5.633333333333334,ScrollUp,ScrollDown,Orange.png,1,Positive,Incongruent,,,,,0,0,0,0,,,,,,,,,,,,,0,17,17,17,,,,,,,,,,,,,,,,,,,,,,,,,,,,,,,,,,,,,,,,,,,,,,,,,,,,,,,,,,,,,,,,,,,,,,,,,,,,,,,,,1.6898148159186044,0.979242699999304,271.638248700001,None,ScrollUp,정답입니다,271.638248700001,None,271.638248700001,None,271.638248700001,None,271.638248700001,None,272.49994600000355,None,272.49994600000355,273.01205769999797,,,,,,,,,,,,,,,,102,2022-04-28_09h25.53.530,FishGame,2022.1.1,60.07864294357168,
,19,넌 신경과민이야,5,Green,A,2.541666666666667,2.166666666666667,ScrollDown,ScrollUp,Green.png,1,Negative,Incongruent,,,,,0,0,0,0,,,,,,,,,,,,,0,18,18,18,,,,,,,,,,,,,,,,,,,,,,,,,,,,,,,,,,,,,,,,,,,,,,,,,,,,,,,,,,,,,,,,,,,,,,,,,,,,,,,,,1.1836419651905696,1.0121569999973872,273.6724114000026,None,ScrollDown,정답입니다,273.6724114000026,None,273.6724114000026,None,273.6724114000026,None,273.6724114000026,None,274.5491075000027,None,274.5491075000027,275.06223570000293,,,,,,,,,,,,,,,,102,2022-04-28_09h25.53.530,FishGame,2022.1.1,60.07864294357168,
,20,넌 편안해,1,Green,A,5.916666666666666,5.866666666666666,ScrollDown,ScrollUp,Green.png,1,Positive,Congruent,,,,,0,0,0,0,,,,,,,,,,,,,0,19,19,19,,,,,,,,,,,,,,,,,,,,,,,,,,,,,,,,,,,,,,,,,,,,,,,,,,,,,,,,,,,,,,,,,,,,,,,,,,,,,,,,,1.435185182839632,0.9543742000023485,275.6986113000021,None,ScrollDown,정답입니다,275.6986113000021,None,275.6986113000021,None,275.6986113000021,None,275.6986113000021,None,276.54514310000377,None,276.54514310000377,277.04541289999906,,,,,,,,,,,,,,,,102,2022-04-28_09h25.53.530,FishGame,2022.1.1,60.07864294357168,
,21,넌 품위있어,2,Orange,B,5.291666666666666,4.466666666666667,ScrollUp,ScrollDown,Orange.png,1,Positive,Incongruent,,,,,0,0,0,0,,,,,,,,,,,,,0,20,20,20,,,,,,,,,,,,,,,,,,,,,,,,,,,,,,,,,,,,,,,,,,,,,,,,,,,,,,,,,,,,,,,,,,,,,,,,,,,,,,,,,1.5308641977608204,0.8200347000019974,277.6833716999972,None,NoResponse,무응답입니다,277.6833716999972,None,277.6833716999972,None,277.6833716999972,None,277.6833716999972,None,278.38937879999867,None,278.38937879999867,278.8956025000007,,,,,,,,,,,,,,,,102,2022-04-28_09h25.53.530,FishGame,2022.1.1,60.07864294357168,
,22,넌 빈틈없어,3,Green,A,4.833333333333333,3.966666666666667,ScrollDown,ScrollUp,Green.png,1,Neutral,Neutral,,,,,0,0,0,0,,,,,,,,,,,,,0,21,21,21,,,,,,,,,,,,,,,,,,,,,,,,,,,,,,,,,,,,,,,,,,,,,,,,,,,,,,,,,,,,,,,,,,,,,,,,,,,,,,,,,1.0339506367842357,1.5411164999968605,279.5415009999997,None,ScrollDown,정답입니다,279.5415009999997,None,279.5415009999997,None,279.5415009999997,None,279.5415009999997,None,280.96183929999825,None,280.96183929999825,281.46225050000066,,,,,,,,,,,,,,,,102,2022-04-28_09h25.53.530,FishGame,2022.1.1,60.07864294357168,
,23,넌 상상력없어,4,Orange,B,2.833333333333333,3.133333333333333,ScrollUp,ScrollDown,Orange.png,1,Negative,Congruent,,,,,0,0,0,0,,,,,,,,,,,,,0,22,22,22,,,,,,,,,,,,,,,,,,,,,,,,,,,,,,,,,,,,,,,,,,,,,,,,,,,,,,,,,,,,,,,,,,,,,,,,,,,,,,,,,1.7638888855775197,0.9245872999963467,282.1141302000033,None,ScrollUp,정답입니다,282.1141302000033,None,282.1141302000033,None,282.1141302000033,None,282.1141302000033,None,282.912181300002,None,282.912181300002,283.4123869000032,,,,,,,,,,,,,,,,102,2022-04-28_09h25.53.530,FishGame,2022.1.1,60.07864294357168,
,24,넌 지혜로워,2,Orange,B,6.333333333333334,4.633333333333334,ScrollUp,ScrollDown,Orange.png,1,Positive,Incongruent,,,,,0,0,0,0,,,,,,,,,,,,,0,23,23,23,,,,,,,,,,,,,,,,,,,,,,,,,,,,,,,,,,,,,,,,,,,,,,,,,,,,,,,,,,,,,,,,,,,,,,,,,,,,,,,,,2,0.873722700001963,284.0668164000017,None,ScrollUp,정답입니다,284.0668164000017,None,284.0668164000017,None,284.0668164000017,None,284.0668164000017,None,284.8124142000015,None,284.8124142000015,285.3126497999983,,,,,,,,,,,,,,,,102,2022-04-28_09h25.53.530,FishGame,2022.1.1,60.07864294357168,
,25,넌 시끄러워,4,Green,A,2.833333333333333,3.033333333333333,ScrollDown,ScrollUp,Green.png,1,Negative,Incongruent,,,,,0,0,0,0,,,,,,,,,,,,,0,24,24,24,,,,,,,,,,,,,,,,,,,,,,,,,,,,,,,,,,,,,,,,,,,,,,,,,,,,,,,,,,,,,,,,,,,,,,,,,,,,,,,,,1,0.9979251000040676,285.9655335999996,None,ScrollDown,정답입니다,285.9655335999996,None,285.9655335999996,None,285.9655335999996,None,285.9655335999996,None,286.8332994000011,None,286.8332994000011,287.345639799998,,,,,,,,,,,,,,,,102,2022-04-28_09h25.53.530,FishGame,2022.1.1,60.07864294357168,
,26,넌 만사태평이야,3,Orange,B,4,4.333333333333333,ScrollUp,ScrollDown,Orange.png,1,Neutral,Neutral,,,,,0,0,0,0,,,,,,,,,,,,,0,25,25,25,,,,,,,,,,,,,,,,,,,,,,,,,,,,,,,,,,,,,,,,,,,,,,,,,,,,,,,,,,,,,,,,,,,,,,,,,,,,,,,,,2,0.9243515999987721,287.9955315999978,None,ScrollUp,정답입니다,287.9955315999978,None,287.9955315999978,None,287.9955315999978,None,287.9955315999978,None,288.79550530000415,None,288.79550530000415,289.2957185999985,,,,,,,,,,,,,,,,102,2022-04-28_09h25.53.530,FishGame,2022.1.1,60.07864294357168,
,27,넌 붙임성있어,1,Green,A,5.708333333333333,5.633333333333334,ScrollDown,ScrollUp,Green.png,1,Positive,Congruent,,,,,0,0,0,0,,,,,,,,,,,,,0,26,26,26,,,,,,,,,,,,,,,,,,,,,,,,,,,,,,,,,,,,,,,,,,,,,,,,,,,,,,,,,,,,,,,,,,,,,,,,,,,,,,,,,1,0.9327867000029073,289.93947299999854,None,ScrollDown,정답입니다,289.93947299999854,None,289.93947299999854,None,289.93947299999854,None,289.93947299999854,None,290.7501975999985,None,290.7501975999985,291.2623042999985,,,,,,,,,,,,,,,,102,2022-04-28_09h25.53.530,FishGame,2022.1.1,60.07864294357168,
,28,넌 영리해,2,Green,A,6,4.033333333333333,ScrollDown,ScrollUp,Green.png,1,Positive,Congruent,,,,,0,0,0,0,,,,,,,,,,,,,0,27,27,27,,,,,,,,,,,,,,,,,,,,,,,,,,,,,,,,,,,,,,,,,,,,,,,,,,,,,,,,,,,,,,,,,,,,,,,,,,,,,,,,,1.0509259402751923,0.9392789999983506,291.90414939999755,None,ScrollDown,정답입니다,291.90414939999755,None,291.90414939999755,None,291.90414939999755,None,291.90414939999755,None,292.7289651000028,None,292.7289651000028,293.2289228000009,,,,,,,,,,,,,,,,102,2022-04-28_09h25.53.530,FishGame,2022.1.1,60.07864294357168,
,29,넌 열심이야,1,Orange,B,6.041666666666667,5.833333333333333,ScrollUp,ScrollDown,Orange.png,1,Positive,Incongruent,,,,,0,0,0,0,,,,,,,,,,,,,0,28,28,28,,,,,,,,,,,,,,,,,,,,,,,,,,,,,,,,,,,,,,,,,,,,,,,,,,,,,,,,,,,,,,,,,,,,,,,,,,,,,,,,,2,0.8673860999988392,293.8847253999993,None,ScrollUp,정답입니다,293.8847253999993,None,293.8847253999993,None,293.8847253999993,None,293.8847253999993,None,294.62558040000295,None,294.62558040000295,295.1293693999978,,,,,,,,,,,,,,,,102,2022-04-28_09h25.53.530,FishGame,2022.1.1,60.07864294357168,
,30,넌 인기없어,4,Orange,B,3,3.3,ScrollUp,ScrollDown,Orange.png,1,Negative,Congruent,,,,,0,0,0,0,,,,,,,,,,,,,0,29,29,29,,,,,,,,,,,,,,,,,,,,,,,,,,,,,,,,,,,,,,,,,,,,,,,,,,,,,,,,,,,,,,,,,,,,,,,,,,,,,,,,,2,0.7895329000020865,295.78049420000025,None,ScrollUp,정답입니다,295.78049420000025,None,295.78049420000025,None,295.78049420000025,None,295.78049420000025,None,296.4456436000037,None,296.4456436000037,296.945876400001,,,,,,,,,,,,,,,,102,2022-04-28_09h25.53.530,FishGame,2022.1.1,60.07864294357168,
,31,넌 익살스러워,3,Green,A,4.708333333333334,4.833333333333333,ScrollDown,ScrollUp,Green.png,1,Neutral,Neutral,,,,,0,0,0,0,,,,,,,,,,,,,0,30,30,30,,,,,,,,,,,,,,,,,,,,,,,,,,,,,,,,,,,,,,,,,,,,,,,,,,,,,,,,,,,,,,,,,,,,,,,,,,,,,,,,,1,0.9556449999945471,297.59852110000065,None,ScrollDown,정답입니다,297.59852110000065,None,297.59852110000065,None,297.59852110000065,None,297.59852110000065,None,298.42911350000213,None,298.42911350000213,298.9291615999973,,,,,,,,,,,,,,,,102,2022-04-28_09h25.53.530,FishGame,2022.1.1,60.07864294357168,
,32,넌 이기적이야,5,Orange,B,2.291666666666667,2.333333333333333,ScrollUp,ScrollDown,Orange.png,1,Negative,Congruent,,,,,0,0,0,0,,,,,,,,,,,,,0,31,31,31,,,,,,,,,,,,,,,,,,,,,,,,,,,,,,,,,,,,,,,,,,,,,,,,,,,,,,,,,,,,,,,,,,,,,,,,,,,,,,,,,1.9166666666666667,0.9553655999989132,299.5699233999985,None,ScrollUp,정답입니다,299.5699233999985,None,299.5699233999985,None,299.5699233999985,None,299.5699233999985,None,300.4124870000014,None,300.4124870000014,300.91274110000086,,,,,,,,,,,,,,,,102,2022-04-28_09h25.53.530,FishGame,2022.1.1,60.07864294357168,
,33,나를 데려가줘,6,Orange,B,0,0,ScrollDown,ScrollUp,Orange.png,1,NonTarget,NonTarget,,,,,0,0,0,0,,,,,,,,,,,,,0,32,32,32,,,,,,,,,,,,,,,,,,,,,,,,,,,,,,,,,,,,,,,,,,,,,,,,,,,,,,,,,,,,,,,,,,,,,,,,,,,,,,,,,1,1.0137940999993589,301.54819940000016,None,ScrollDown,정답입니다,301.54819940000016,None,301.54819940000016,None,301.54819940000016,None,301.54819940000016,None,302.45029030000296,None,302.45029030000296,302.9628847999993,,,,,,,,,,,,,,,,102,2022-04-28_09h25.53.530,FishGame,2022.1.1,60.07864294357168,
,34,넌 기회주의자야,5,Green,A,2.875,2.133333333333333,ScrollDown,ScrollUp,Green.png,1,Negative,Incongruent,,,,,0,0,0,0,,,,,,,,,,,,,0,33,33,33,,,,,,,,,,,,,,,,,,,,,,,,,,,,,,,,,,,,,,,,,,,,,,,,,,,,,,,,,,,,,,,,,,,,,,,,,,,,,,,,,1.1682098756233852,1.0154704000015045,303.60369869999704,None,ScrollDown,정답입니다,303.60369869999704,None,303.60369869999704,None,303.60369869999704,None,303.60369869999704,None,304.50077830000373,None,304.50077830000373,305.0125104000035,,,,,,,,,,,,,,,,102,2022-04-28_09h25.53.530,FishGame,2022.1.1,60.07864294357168,
,1,넌 미성숙해,4,Green,A,3,3.2,ScrollDown,ScrollUp,Green.png,2,Negative,Incongruent,,,,,0,0,0,0,,,,,,,,,,,,,,,,,0,0,0,0,,,,,,,,,,,,,,,,,,,,,,,,,,,,,,,,,,,,347.69686399999773,349.19700459999876,349.2303405999992,350.1802877000009,350.2302901000003,351.18036589999974,351.18036589999974,None,,,,,,,,,,,,,,,,,,,,,,,,,,,,,,,,,,1.1836419651905696,1.1238300999975763,352.3279014,None,ScrollDown,정답입니다,352.3279014,None,352.3279014,None,352.3279014,None,352.3279014,None,353.29666610000277,None,353.29666610000277,353.7969348999977,305.51284190000297,None,305.51284190000297,None,0.21574074,-0.10185185,1,0,0,0.016238830001384486,None,335.51329010000336,None,,,102,2022-04-28_09h25.53.530,FishGame,2022.1.1,60.07864294357168,
,2,넌 반사회적이야,5,Orange,B,2.416666666666667,2.033333333333333,ScrollUp,ScrollDown,Orange.png,2,Negative,Congruent,,,,,0,0,0,0,,,,,,,,,,,,,,,,,0,1,1,1,,,,,,,,,,,,,,,,,,,,,,,,,,,,,,,,,,,,,,,,,,,,,,,,,,,,,,,,,,,,,,,,,,,,,,,,,,,,,1.9135802388191223,0.9901342000011937,354.44346110000333,None,ScrollUp,정답입니다,354.44346110000333,None,354.44346110000333,None,354.44346110000333,None,354.44346110000333,None,355.31359050000174,None,355.31359050000174,355.8135629000026,,,,,,,,,,,,,,,,102,2022-04-28_09h25.53.530,FishGame,2022.1.1,60.07864294357168,
,3,넌 유능해,2,Green,A,6.208333333333333,4.433333333333334,ScrollDown,ScrollUp,Green.png,2,Positive,Congruent,,,,,0,0,0,0,,,,,,,,,,,,,,,,,0,2,2,2,,,,,,,,,,,,,,,,,,,,,,,,,,,,,,,,,,,,,,,,,,,,,,,,,,,,,,,,,,,,,,,,,,,,,,,,,,,,,1.2052469104528427,0.8273065000030329,356.4508657000042,None,ScrollDown,정답입니다,356.4508657000042,None,356.4508657000042,None,356.4508657000042,None,356.4508657000042,None,357.16594199999963,None,357.16594199999963,357.68067690000316,,,,,,,,,,,,,,,,102,2022-04-28_09h25.53.530,FishGame,2022.1.1,60.07864294357168,
,4,넌 능숙해,2,Orange,B,5.666666666666667,4.733333333333333,ScrollUp,ScrollDown,Orange.png,2,Positive,Incongruent,,,,,0,0,0,0,,,,,,,,,,,,,,,,,0,3,3,3,,,,,,,,,,,,,,,,,,,,,,,,,,,,,,,,,,,,,,,,,,,,,,,,,,,,,,,,,,,,,,,,,,,,,,,,,,,,,1.5725308619439602,0.8311888999960502,358.3121403000041,None,ScrollUp,정답입니다,358.3121403000041,None,358.3121403000041,None,358.3121403000041,None,358.3121403000041,None,359.0348845999979,None,359.0348845999979,359.54716899999767,,,,,,,,,,,,,,,,102,2022-04-28_09h25.53.530,FishGame,2022.1.1,60.07864294357168,
,5,넌 진부해,4,Orange,B,2.458333333333333,3.166666666666667,ScrollUp,ScrollDown,Orange.png,2,Negative,Congruent,,,,,0,0,0,0,,,,,,,,,,,,,,,,,0,4,4,4,,,,,,,,,,,,,,,,,,,,,,,,,,,,,,,,,,,,,,,,,,,,,,,,,,,,,,,,,,,,,,,,,,,,,,,,,,,,,1.6404320945342383,0.8199156999980914,360.19741590000194,None,ScrollUp,정답입니다,360.19741590000194,None,360.19741590000194,None,360.19741590000194,None,360.19741590000194,None,360.8960134000008,None,360.8960134000008,361.39702979999856,,,,,,,,,,,,,,,,102,2022-04-28_09h25.53.530,FishGame,2022.1.1,60.07864294357168,
,6,나를 보내줘,6,Green,A,0,0,ScrollUp,ScrollDown,Green.png,2,NonTarget,NonTarget,,,,,0,0,0,0,,,,,,,,,,,,,,,,,0,5,5,5,,,,,,,,,,,,,,,,,,,,,,,,,,,,,,,,,,,,,,,,,,,,,,,,,,,,,,,,,,,,,,,,,,,,,,,,,,,,,1.6280864203969636,1.0664659000030952,362.0308684999982,None,ScrollUp,정답입니다,362.0308684999982,None,362.0308684999982,None,362.0308684999982,None,362.0308684999982,None,362.98484969999845,None,362.98484969999845,363.4975145999997,,,,,,,,,,,,,,,,102,2022-04-28_09h25.53.530,FishGame,2022.1.1,60.07864294357168,
,7,넌 엄격해,3,Green,A,4.166666666666666,4.1,ScrollDown,ScrollUp,Green.png,2,Neutral,Neutral,,,,,0,0,0,0,,,,,,,,,,,,,,,,,0,6,6,6,,,,,,,,,,,,,,,,,,,,,,,,,,,,,,,,,,,,,,,,,,,,,,,,,,,,,,,,,,,,,,,,,,,,,,,,,,,,,1.0416666567325592,0.847882900001423,364.1367543000015,None,ScrollDown,정답입니다,364.1367543000015,None,364.1367543000015,None,364.1367543000015,None,364.1367543000015,None,364.8685258999976,None,364.8685258999976,365.38041710000107,,,,,,,,,,,,,,,,102,2022-04-28_09h25.53.530,FishGame,2022.1.1,60.07864294357168,
,8,나를 보내줘,6,Green,A,0,0,ScrollUp,ScrollDown,Green.png,2,NonTarget,NonTarget,,,,,0,0,0,0,,,,,,,,,,,,,,,,,0,7,7,7,,,,,,,,,,,,,,,,,,,,,,,,,,,,,,,,,,,,,,,,,,,,,,,,,,,,,,,,,,,,,,,,,,,,,,,,,,,,,1.7407407512267432,0.8988572000016575,366.01304489999893,None,ScrollUp,정답입니다,366.01304489999893,None,366.01304489999893,None,366.01304489999893,None,366.01304489999893,None,366.8020780000006,None,366.8020780000006,367.31376479999744,,,,,,,,,,,,,,,,102,2022-04-28_09h25.53.530,FishGame,2022.1.1,60.07864294357168,
,9,넌 대담해,3,Orange,B,4.875,4.866666666666666,ScrollUp,ScrollDown,Orange.png,2,Neutral,Neutral,,,,,0,0,0,0,,,,,,,,,,,,,,,,,0,8,8,8,,,,,,,,,,,,,,,,,,,,,,,,,,,,,,,,,,,,,,,,,,,,,,,,,,,,,,,,,,,,,,,,,,,,,,,,,,,,,1.6280864203969636,0.9229609000030905,367.95971329999884,None,ScrollUp,정답입니다,367.95971329999884,None,367.95971329999884,None,367.95971329999884,None,367.95971329999884,None,368.7572996000017,None,368.7572996000017,369.2637190000023,,,,,,,,,,,,,,,,102,2022-04-28_09h25.53.530,FishGame,2022.1.1,60.07864294357168,
,10,넌 꾸준해,1,Green,A,5.916666666666668,5.8,ScrollDown,ScrollUp,Green.png,2,Positive,Congruent,,,,,0,0,0,0,,,,,,,,,,,,,,,,,0,9,9,9,,,,,,,,,,,,,,,,,,,,,,,,,,,,,,,,,,,,,,,,,,,,,,,,,,,,,,,,,,,,,,,,,,,,,,,,,,,,,1.1095678955316544,0.8127123000012944,369.90719920000265,None,ScrollDown,정답입니다,369.90719920000265,None,369.90719920000265,None,369.90719920000265,None,369.90719920000265,None,370.60206489999837,None,370.60206489999837,371.1138987000013,,,,,,,,,,,,,,,,102,2022-04-28_09h25.53.530,FishGame,2022.1.1,60.07864294357168,
,11,나를 데려가줘,6,Orange,B,0,0,ScrollDown,ScrollUp,Orange.png,2,NonTarget,NonTarget,,,,,0,0,0,0,,,,,,,,,,,,,,,,,0,10,10,10,,,,,,,,,,,,,,,,,,,,,,,,,,,,,,,,,,,,,,,,,,,,,,,,,,,,,,,,,,,,,,,,,,,,,,,,,,,,,1.2546296318372092,1.140286499998183,371.7517186000041,None,ScrollDown,정답입니다,371.7517186000041,None,371.7517186000041,None,371.7517186000041,None,371.7517186000041,None,372.78008489999775,None,372.78008489999775,373.2808475999991,,,,,,,,,,,,,,,,102,2022-04-28_09h25.53.530,FishGame,2022.1.1,60.07864294357168,
,12,넌 독선적이야,5,Green,A,2.458333333333333,1.933333333333333,ScrollDown,ScrollUp,Green.png,2,Negative,Incongruent,,,,,0,0,0,0,,,,,,,,,,,,,,,,,0,11,11,11,,,,,,,,,,,,,,,,,,,,,,,,,,,,,,,,,,,,,,,,,,,,,,,,,,,,,,,,,,,,,,,,,,,,,,,,,,,,,1.162037044763565,1.0317693000033614,373.922928400003,None,ScrollDown,정답입니다,373.922928400003,None,373.922928400003,None,373.922928400003,None,373.922928400003,None,374.83514280000236,None,374.83514280000236,375.3473258000013,,,,,,,,,,,,,,,,102,2022-04-28_09h25.53.530,FishGame,2022.1.1,60.07864294357168,
,13,나를 보내줘,6,Green,A,0,0,ScrollUp,ScrollDown,Green.png,2,NonTarget,NonTarget,,,,,0,0,0,0,,,,,,,,,,,,,,,,,0,12,12,12,,,,,,,,,,,,,,,,,,,,,,,,,,,,,,,,,,,,,,,,,,,,,,,,,,,,,,,,,,,,,,,,,,,,,,,,,,,,,1.6558641965190568,0.9093600999985938,375.97691150000173,None,ScrollUp,정답입니다,375.97691150000173,None,375.97691150000173,None,375.97691150000173,None,375.97691150000173,None,376.78074650000053,None,376.78074650000053,377.2807613999976,,,,,,,,,,,,,,,,102,2022-04-28_09h25.53.530,FishGame,2022.1.1,60.07864294357168,
,14,넌 책임감있어,1,Orange,B,6.347826086956522,6,ScrollUp,ScrollDown,Orange.png,2,Positive,Incongruent,,,,,0,0,0,0,,,,,,,,,,,,,,,,,0,13,13,13,,,,,,,,,,,,,,,,,,,,,,,,,,,,,,,,,,,,,,,,,,,,,,,,,,,,,,,,,,,,,,,,,,,,,,,,,,,,,1.6728395000100136,0.9589345999993384,377.9237834000014,None,ScrollUp,정답입니다,377.9237834000014,None,377.9237834000014,None,377.9237834000014,None,377.9237834000014,None,378.76396199999726,None,378.76396199999726,379.2635936000006,,,,,,,,,,,,,,,,102,2022-04-28_09h25.53.530,FishGame,2022.1.1,60.07864294357168,
,15,넌 문학적이야,3,Green,A,4.708333333333334,4.333333333333333,ScrollDown,ScrollUp,Green.png,2,Neutral,Neutral,,,,,0,0,0,0,,,,,,,,,,,,,,,,,0,14,14,14,,,,,,,,,,,,,,,,,,,,,,,,,,,,,,,,,,,,,,,,,,,,,,,,,,,,,,,,,,,,,,,,,,,,,,,,,,,,,1,0.8539260999968974,379.90097380000225,None,ScrollDown,정답입니다,379.90097380000225,None,379.90097380000225,None,379.90097380000225,None,379.90097380000225,None,380.64382710000064,None,380.64382710000064,381.14792760000273,,,,,,,,,,,,,,,,102,2022-04-28_09h25.53.530,FishGame,2022.1.1,60.07864294357168,
,16,넌 재미있어,1,Orange,B,5.875,5.7,ScrollUp,ScrollDown,Orange.png,2,Positive,Incongruent,,,,,0,0,0,0,,,,,,,,,,,,,,,,,0,15,15,15,,,,,,,,,,,,,,,,,,,,,,,,,,,,,,,,,,,,,,,,,,,,,,,,,,,,,,,,,,,,,,,,,,,,,,,,,,,,,1.7916666616996129,0.7979995999994571,381.78331849999813,None,ScrollUp,정답입니다,381.78331849999813,None,381.78331849999813,None,381.78331849999813,None,381.78331849999813,None,382.46840189999784,None,382.46840189999784,382.9807326000009,,,,,,,,,,,,,,,,102,2022-04-28_09h25.53.530,FishGame,2022.1.1,60.07864294357168,
,17,나를 데려가줘,6,Orange,B,0,0,ScrollDown,ScrollUp,Orange.png,2,NonTarget,NonTarget,,,,,0,0,0,0,,,,,,,,,,,,,,,,,0,16,16,16,,,,,,,,,,,,,,,,,,,,,,,,,,,,,,,,,,,,,,,,,,,,,,,,,,,,,,,,,,,,,,,,,,,,,,,,,,,,,1.080246905485789,1.0425882999988971,383.61495920000016,None,ScrollDown,정답입니다,383.61495920000016,None,383.61495920000016,None,383.61495920000016,None,383.61495920000016,None,384.54757830000017,None,384.54757830000017,385.0479384999999,,,,,,,,,,,,,,,,102,2022-04-28_09h25.53.530,FishGame,2022.1.1,60.07864294357168,
,18,넌 협력적이야,1,Green,A,5.625,5.633333333333334,ScrollDown,ScrollUp,Green.png,2,Positive,Congruent,,,,,0,0,0,0,,,,,,,,,,,,,,,,,0,17,17,17,,,,,,,,,,,,,,,,,,,,,,,,,,,,,,,,,,,,,,,,,,,,,,,,,,,,,,,,,,,,,,,,,,,,,,,,,,,,,1,0.9725082000004477,385.6864392999996,None,ScrollDown,정답입니다,385.6864392999996,None,385.6864392999996,None,385.6864392999996,None,385.6864392999996,None,386.547198500004,None,386.547198500004,387.0474940999993,,,,,,,,,,,,,,,,102,2022-04-28_09h25.53.530,FishGame,2022.1.1,60.07864294357168,
,19,넌 평범해,3,Orange,B,4.333333333333332,4.233333333333333,ScrollUp,ScrollDown,Orange.png,2,Neutral,Neutral,,,,,0,0,0,0,,,,,,,,,,,,,,,,,0,18,18,18,,,,,,,,,,,,,,,,,,,,,,,,,,,,,,,,,,,,,,,,,,,,,,,,,,,,,,,,,,,,,,,,,,,,,,,,,,,,,1.5925925932824612,0.8634041999976034,387.6974279999995,None,ScrollUp,정답입니다,387.6974279999995,None,387.6974279999995,None,387.6974279999995,None,387.6974279999995,None,388.4355940000023,None,388.4355940000023,388.9475336000032,,,,,,,,,,,,,,,,102,2022-04-28_09h25.53.530,FishGame,2022.1.1,60.07864294357168,
,20,넌 오만해,5,Green,A,2.333333333333333,2,ScrollDown,ScrollUp,Green.png,2,Negative,Incongruent,,,,,0,0,0,0,,,,,,,,,,,,,,,,,0,19,19,19,,,,,,,,,,,,,,,,,,,,,,,,,,,,,,,,,,,,,,,,,,,,,,,,,,,,,,,,,,,,,,,,,,,,,,,,,,,,,1.1913580348094304,0.8722005000017816,389.5956045999992,None,ScrollDown,정답입니다,389.5956045999992,None,389.5956045999992,None,389.5956045999992,None,389.5956045999992,None,390.34773660000064,None,390.34773660000064,390.84822079999867,,,,,,,,,,,,,,,,102,2022-04-28_09h25.53.530,FishGame,2022.1.1,60.07864294357168,
,21,넌 운이없어,4,Orange,B,3,3.466666666666667,ScrollUp,ScrollDown,Orange.png,2,Negative,Congruent,,,,,0,0,0,0,,,,,,,,,,,,,,,,,0,20,20,20,,,,,,,,,,,,,,,,,,,,,,,,,,,,,,,,,,,,,,,,,,,,,,,,,,,,,,,,,,,,,,,,,,,,,,,,,,,,,1.674382713933786,1.5524071000036201,391.49020980000205,None,ScrollUp,정답입니다,391.49020980000205,None,391.49020980000205,None,391.49020980000205,None,391.49020980000205,None,392.9275282000017,None,392.9275282000017,393.4311944000001,,,,,,,,,,,,,,,,102,2022-04-28_09h25.53.530,FishGame,2022.1.1,60.07864294357168,
,22,넌 창조적이야,2,Orange,B,6.125,4.633333333333334,ScrollUp,ScrollDown,Orange.png,2,Positive,Incongruent,,,,,0,0,0,0,,,,,,,,,,,,,,,,,0,21,21,21,,,,,,,,,,,,,,,,,,,,,,,,,,,,,,,,,,,,,,,,,,,,,,,,,,,,,,,,,,,,,,,,,,,,,,,,,,,,,1.5432098750025034,0.8983613999953377,394.0800328999976,None,NoResponse,무응답입니다,394.0800328999976,None,394.0800328999976,None,394.0800328999976,None,394.0800328999976,None,394.85380550000264,None,394.85380550000264,395.3645252999995,,,,,,,,,,,,,,,,102,2022-04-28_09h25.53.530,FishGame,2022.1.1,60.07864294357168,
,23,나를 보내줘,6,Green,A,0,0,ScrollUp,ScrollDown,Green.png,2,NonTarget,NonTarget,,,,,0,0,0,0,,,,,,,,,,,,,,,,,0,22,22,22,,,,,,,,,,,,,,,,,,,,,,,,,,,,,,,,,,,,,,,,,,,,,,,,,,,,,,,,,,,,,,,,,,,,,,,,,,,,,1.9490740597248077,0.9902416999975685,395.9929956999986,None,ScrollUp,정답입니다,395.9929956999986,None,395.9929956999986,None,395.9929956999986,None,395.9929956999986,None,396.8746775999971,None,396.8746775999971,397.38161599999876,,,,,,,,,,,,,,,,102,2022-04-28_09h25.53.530,FishGame,2022.1.1,60.07864294357168,
,24,넌 통찰력있어,2,Green,A,6.5,4.8,ScrollDown,ScrollUp,Green.png,2,Positive,Congruent,,,,,0,0,0,0,,,,,,,,,,,,,,,,,0,23,23,23,,,,,,,,,,,,,,,,,,,,,,,,,,,,,,,,,,,,,,,,,,,,,,,,,,,,,,,,,,,,,,,,,,,,,,,,,,,,,1.180555562178294,0.9248836999977357,398.02039779999905,None,ScrollDown,정답입니다,398.02039779999905,None,398.02039779999905,None,398.02039779999905,None,398.02039779999905,None,398.83115530000214,None,398.83115530000214,399.33135890000267,,,,,,,,,,,,,,,,102,2022-04-28_09h25.53.530,FishGame,2022.1.1,60.07864294357168,
,25,넌 경솔해,5,Orange,B,2.458333333333333,2.266666666666667,ScrollUp,ScrollDown,Orange.png,2,Negative,Congruent,,,,,0,0,0,0,,,,,,,,,,,,,,,,,0,24,24,24,,,,,,,,,,,,,,,,,,,,,,,,,,,,,,,,,,,,,,,,,,,,,,,,,,,,,,,,,,,,,,,,,,,,,,,,,,,,,1.723765422900518,0.8078983999948832,399.9787756000005,None,ScrollUp,정답입니다,399.9787756000005,None,399.9787756000005,None,399.9787756000005,None,399.9787756000005,None,400.6645901000011,None,400.6645901000011,401.1649622000041,,,,,,,,,,,,,,,,102,2022-04-28_09h25.53.530,FishGame,2022.1.1,60.07864294357168,
,26,넌 초조해,4,Green,A,2.916666666666667,3.133333333333333,ScrollDown,ScrollUp,Green.png,2,Negative,Incongruent,,,,,0,0,0,0,,,,,,,,,,,,,,,,,0,25,25,25,,,,,,,,,,,,,,,,,,,,,,,,,,,,,,,,,,,,,,,,,,,,,,,,,,,,,,,,,,,,,,,,,,,,,,,,,,,,,1,0.8672650000007707,401.7993869999991,None,ScrollDown,정답입니다,401.7993869999991,None,401.7993869999991,None,401.7993869999991,None,401.7993869999991,None,402.56114030000026,None,402.56114030000026,403.06459319999703,,,,,,,,,,,,,,,,102,2022-04-28_09h25.53.530,FishGame,2022.1.1,60.07864294357168,
,27,넌 무관심해,4,Orange,B,2.833333333333333,2.9,ScrollUp,ScrollDown,Orange.png,2,Negative,Congruent,,,,,0,0,0,0,,,,,,,,,,,,,,,,,0,26,26,26,,,,,,,,,,,,,,,,,,,,,,,,,,,,,,,,,,,,,,,,,,,,,,,,,,,,,,,,,,,,,,,,,,,,,,,,,,,,,1.8919753183921177,0.7149258999997983,403.7067575999972,None,ScrollUp,정답입니다,403.7067575999972,None,403.7067575999972,None,403.7067575999972,None,403.7067575999972,None,404.3023844999989,None,404.3023844999989,404.81453789999796,,,,,,,,,,,,,,,,102,2022-04-28_09h25.53.530,FishGame,2022.1.1,60.07864294357168,
,28,넌 감성적이야,3,Orange,B,4.125,4.166666666666667,ScrollUp,ScrollDown,Orange.png,2,Neutral,Neutral,,,,,0,0,0,0,,,,,,,,,,,,,,,,,0,27,27,27,,,,,,,,,,,,,,,,,,,,,,,,,,,,,,,,,,,,,,,,,,,,,,,,,,,,,,,,,,,,,,,,,,,,,,,,,,,,,2,0.8389062000060221,405.4511801999979,None,ScrollUp,정답입니다,405.4511801999979,None,405.4511801999979,None,405.4511801999979,None,405.4511801999979,None,406.18130889999884,None,406.18130889999884,406.6814844000037,,,,,,,,,,,,,,,,102,2022-04-28_09h25.53.530,FishGame,2022.1.1,60.07864294357168,
,29,넌 배려심있어,1,Green,A,6.083333333333333,5.5,ScrollDown,ScrollUp,Green.png,2,Positive,Congruent,,,,,0,0,0,0,,,,,,,,,,,,,,,,,0,28,28,28,,,,,,,,,,,,,,,,,,,,,,,,,,,,,,,,,,,,,,,,,,,,,,,,,,,,,,,,,,,,,,,,,,,,,,,,,,,,,1.0262345671653748,0.7983620000013616,407.31644329999835,None,ScrollDown,정답입니다,407.31644329999835,None,407.31644329999835,None,407.31644329999835,None,407.31644329999835,None,408.0024164999995,None,408.0024164999995,408.51468269999896,,,,,,,,,,,,,,,,102,2022-04-28_09h25.53.530,FishGame,2022.1.1,60.07864294357168,
,30,넌 숨김없어,3,Green,A,4.5,4.933333333333334,ScrollDown,ScrollUp,Green.png,2,Neutral,Neutral,,,,,0,0,0,0,,,,,,,,,,,,,,,,,0,29,29,29,,,,,,,,,,,,,,,,,,,,,,,,,,,,,,,,,,,,,,,,,,,,,,,,,,,,,,,,,,,,,,,,,,,,,,,,,,,,,1,0.8251147999981185,409.16375600000174,None,ScrollDown,정답입니다,409.16375600000174,None,409.16375600000174,None,409.16375600000174,None,409.16375600000174,None,409.8644537,None,409.8644537,410.36458760000096,,,,,,,,,,,,,,,,102,2022-04-28_09h25.53.530,FishGame,2022.1.1,60.07864294357168,
,31,넌 훌륭해,2,Orange,B,5.916666666666667,4.033333333333333,ScrollUp,ScrollDown,Orange.png,2,Positive,Incongruent,,,,,0,0,0,0,,,,,,,,,,,,,,,,,0,30,30,30,,,,,,,,,,,,,,,,,,,,,,,,,,,,,,,,,,,,,,,,,,,,,,,,,,,,,,,,,,,,,,,,,,,,,,,,,,,,,2,0.8228302999996231,411.0090737999999,None,ScrollUp,정답입니다,411.0090737999999,None,411.0090737999999,None,411.0090737999999,None,411.0090737999999,None,411.71420170000056,None,411.71420170000056,412.21536639999977,,,,,,,,,,,,,,,,102,2022-04-28_09h25.53.530,FishGame,2022.1.1,60.07864294357168,
,32,넌 슬기로워,2,Green,A,6.166666666666667,4.1,ScrollDown,ScrollUp,Green.png,2,Positive,Congruent,,,,,0,0,0,0,,,,,,,,,,,,,,,,,0,31,31,31,,,,,,,,,,,,,,,,,,,,,,,,,,,,,,,,,,,,,,,,,,,,,,,,,,,,,,,,,,,,,,,,,,,,,,,,,,,,,1,0.7983706999948481,412.8462225999974,None,ScrollDown,정답입니다,412.8462225999974,None,412.8462225999974,None,412.8462225999974,None,412.8462225999974,None,413.53628050000407,None,413.53628050000407,414.0481484999982,,,,,,,,,,,,,,,,102,2022-04-28_09h25.53.530,FishGame,2022.1.1,60.07864294357168,
,33,넌 냉혹해,5,Green,A,2.583333333333333,2.1,ScrollDown,ScrollUp,Green.png,2,Negative,Incongruent,,,,,0,0,0,0,,,,,,,,,,,,,,,,,0,32,32,32,,,,,,,,,,,,,,,,,,,,,,,,,,,,,,,,,,,,,,,,,,,,,,,,,,,,,,,,,,,,,,,,,,,,,,,,,,,,,1,0.793364199998905,414.6946265000006,None,ScrollDown,정답입니다,414.6946265000006,None,414.6946265000006,None,414.6946265000006,None,414.6946265000006,None,415.36799849999807,None,415.36799849999807,415.8814691000007,,,,,,,,,,,,,,,,102,2022-04-28_09h25.53.530,FishGame,2022.1.1,60.07864294357168,
,34,나를 데려가줘,6,Orange,B,0,0,ScrollDown,ScrollUp,Orange.png,2,NonTarget,NonTarget,,,,,0,0,0,0,,,,,,,,,,,,,,,,,0,33,33,33,,,,,,,,,,,,,,,,,,,,,,,,,,,,,,,,,,,,,,,,,,,,,,,,,,,,,,,,,,,,,,,,,,,,,,,,,,,,,1.0154321193695068,1.0634913999965647,416.5175507000022,None,ScrollDown,정답입니다,416.5175507000022,None,416.5175507000022,None,416.5175507000022,None,416.5175507000022,None,417.46931349999795,None,417.46931349999795,417.9818077000018,,,,,,,,,,,,,,,,102,2022-04-28_09h25.53.530,FishGame,2022.1.1,60.07864294357168,
,35,넌 편파적이야,5,Orange,B,2.125,2,ScrollUp,ScrollDown,Orange.png,2,Negative,Congruent,,,,,0,0,0,0,,,,,,,,,,,,,,,,,0,34,34,34,,,,,,,,,,,,,,,,,,,,,,,,,,,,,,,,,,,,,,,,,,,,,,,,,,,,,,,,,,,,,,,,,,,,,,,,,,,,,1.7160493781169257,1.202857700001914,418.623322200001,None,ScrollUp,정답입니다,418.623322200001,None,418.623322200001,None,418.623322200001,None,418.623322200001,None,419.704147299999,None,419.704147299999,420.2147238000034,,,,,,,,,,,,,,,,102,2022-04-28_09h25.53.530,FishGame,2022.1.1,60.07864294357168,
,36,넌 슬퍼,4,Green,A,2.583333333333333,3.066666666666667,ScrollDown,ScrollUp,Green.png,2,Negative,Incongruent,,,,,0,0,0,0,,,,,,,,,,,,,,,,,0,35,35,35,,,,,,,,,,,,,,,,,,,,,,,,,,,,,,,,,,,,,,,,,,,,,,,,,,,,,,,,,,,,,,,,,,,,,,,,,,,,,1,0.9529885999945691,420.84442590000253,None,ScrollDown,정답입니다,420.84442590000253,None,420.84442590000253,None,420.84442590000253,None,420.84442590000253,None,421.6948965999982,None,421.6948965999982,422.19832499999757,,,,,,,,,,,,,,,,102,2022-04-28_09h25.53.530,FishGame,2022.1.1,60.07864294357168,
,37,나를 데려가줘,6,Orange,B,0,0,ScrollDown,ScrollUp,Orange.png,2,NonTarget,NonTarget,,,,,0,0,0,0,,,,,,,,,,,,,,,,,0,36,36,36,,,,,,,,,,,,,,,,,,,,,,,,,,,,,,,,,,,,,,,,,,,,,,,,,,,,,,,,,,,,,,,,,,,,,,,,,,,,,1,0.9726292999985162,422.8340634999986,None,ScrollDown,정답입니다,422.8340634999986,None,422.8340634999986,None,422.8340634999986,None,422.8340634999986,None,423.69847239999945,None,423.69847239999945,424.1981766000026,,,,,,,,,,,,,,,,102,2022-04-28_09h25.53.530,FishGame,2022.1.1,60.07864294357168,
,38,넌 친절해,1,Orange,B,6.041666666666667,5.533333333333333,ScrollUp,ScrollDown,Orange.png,2,Positive,Incongruent,,,,,0,0,0,0,,,,,,,,,,,,,,,,,0,37,37,37,,,,,,,,,,,,,,,,,,,,,,,,,,,,,,,,,,,,,,,,,,,,,,,,,,,,,,,,,,,,,,,,,,,,,,,,,,,,,1.9243827362855275,1.3049262999993516,424.85253589999775,None,ScrollUp,정답입니다,424.85253589999775,None,424.85253589999775,None,424.85253589999775,None,424.85253589999775,None,426.02847309999925,None,426.02847309999925,426.5316234999991,,,,,,,,,,,,,,,,102,2022-04-28_09h25.53.530,FishGame,2022.1.1,60.07864294357168,
,1,넌 엉성해,4,Green,A,3,3.3,ScrollDown,ScrollUp,Green.png,3,Negative,Incongruent,,,,,0,0,0,0,,,,,,,,,,,,,,,,,,,,,0,0,0,0,,,,,,,,,,,,,,,,,,,,,,,,,,,,,,,,459.4319336999979,460.932510300001,460.96632469999895,461.9157675000024,461.96559620000335,462.91576910000003,462.91576910000003,None,,,,,,,,,,,,,,,,,,,,,,,,,,,,,,,,,,1.0817901194095612,1.3012841000017943,464.0753199000028,None,ScrollDown,정답입니다,464.0753199000028,None,464.0753199000028,None,464.0753199000028,None,464.0753199000028,None,465.2157492000042,None,465.2157492000042,465.71611459999986,427.0317925999989,None,427.0317925999989,None,0.21018519,-0.09166667,1,0,0,0.016375529994547833,None,457.0324535000036,None,,,102,2022-04-28_09h25.53.530,FishGame,2022.1.1,60.07864294357168,
,2,나를 보내줘,6,Green,A,0,0,ScrollUp,ScrollDown,Green.png,3,NonTarget,NonTarget,,,,,0,0,0,0,,,,,,,,,,,,,,,,,,,,,0,1,1,1,,,,,,,,,,,,,,,,,,,,,,,,,,,,,,,,,,,,,,,,,,,,,,,,,,,,,,,,,,,,,,,,,,,,,,,,,1.9783950746059418,0.9713974000042072,466.3445783999996,None,ScrollUp,정답입니다,466.3445783999996,None,466.3445783999996,None,466.3445783999996,None,466.3445783999996,None,467.2156260999982,None,467.2156260999982,467.71587230000296,,,,,,,,,,,,,,,,102,2022-04-28_09h25.53.530,FishGame,2022.1.1,60.07864294357168,
,3,넌 활발해,1,Orange,B,5.666666666666667,5.6,ScrollUp,ScrollDown,Orange.png,3,Positive,Incongruent,,,,,0,0,0,0,,,,,,,,,,,,,,,,,,,,,0,2,2,2,,,,,,,,,,,,,,,,,,,,,,,,,,,,,,,,,,,,,,,,,,,,,,,,,,,,,,,,,,,,,,,,,,,,,,,,,1.8441358109315236,0.8767786000025808,468.3665542000017,None,ScrollUp,정답입니다,468.3665542000017,None,468.3665542000017,None,468.3665542000017,None,468.3665542000017,None,469.11579840000195,None,469.11579840000195,469.61623430000327,,,,,,,,,,,,,,,,102,2022-04-28_09h25.53.530,FishGame,2022.1.1,60.07864294357168,
,4,넌 논리적이야,2,Green,A,5.666666666666666,4.633333333333334,ScrollDown,ScrollUp,Green.png,3,Positive,Congruent,,,,,0,0,0,0,,,,,,,,,,,,,,,,,,,,,0,3,3,3,,,,,,,,,,,,,,,,,,,,,,,,,,,,,,,,,,,,,,,,,,,,,,,,,,,,,,,,,,,,,,,,,,,,,,,,,1.1080246816078823,0.8742263000021921,470.258339400003,None,ScrollDown,정답입니다,470.258339400003,None,470.258339400003,None,470.258339400003,None,470.258339400003,None,471.0155739999973,None,471.0155739999973,471.5162586000006,,,,,,,,,,,,,,,,102,2022-04-28_09h25.53.530,FishGame,2022.1.1,60.07864294357168,
,5,넌 과묵해,3,Green,A,3.875,4.4,ScrollDown,ScrollUp,Green.png,3,Neutral,Neutral,,,,,0,0,0,0,,,,,,,,,,,,,,,,,,,,,0,4,4,4,,,,,,,,,,,,,,,,,,,,,,,,,,,,,,,,,,,,,,,,,,,,,,,,,,,,,,,,,,,,,,,,,,,,,,,,,1.2114197413126628,0.7530308999994304,472.1569193000032,None,ScrollDown,정답입니다,472.1569193000032,None,472.1569193000032,None,472.1569193000032,None,472.1569193000032,None,472.7954727000033,None,472.7954727000033,473.2987856000036,,,,,,,,,,,,,,,,102,2022-04-28_09h25.53.530,FishGame,2022.1.1,60.07864294357168,
,6,나를 데려가줘,6,Orange,B,0,0,ScrollDown,ScrollUp,Orange.png,3,NonTarget,NonTarget,,,,,0,0,0,0,,,,,,,,,,,,,,,,,,,,,0,5,5,5,,,,,,,,,,,,,,,,,,,,,,,,,,,,,,,,,,,,,,,,,,,,,,,,,,,,,,,,,,,,,,,,,,,,,,,,,1.0293209950129192,0.8744364000012865,473.9332807000028,None,ScrollDown,정답입니다,473.9332807000028,None,473.9332807000028,None,473.9332807000028,None,473.9332807000028,None,474.6990016999989,None,474.6990016999989,475.199266100004,,,,,,,,,,,,,,,,102,2022-04-28_09h25.53.530,FishGame,2022.1.1,60.07864294357168,
,7,넌 미숙해,4,Orange,B,3,3,ScrollUp,ScrollDown,Orange.png,3,Negative,Congruent,,,,,0,0,0,0,,,,,,,,,,,,,,,,,,,,,0,6,6,6,,,,,,,,,,,,,,,,,,,,,,,,,,,,,,,,,,,,,,,,,,,,,,,,,,,,,,,,,,,,,,,,,,,,,,,,,1.71913580596447,0.8414762999964296,475.83385519999865,None,ScrollUp,정답입니다,475.83385519999865,None,475.83385519999865,None,475.83385519999865,None,475.83385519999865,None,476.5654375000013,None,476.5654375000013,477.0662006999992,,,,,,,,,,,,,,,,102,2022-04-28_09h25.53.530,FishGame,2022.1.1,60.07864294357168,
,8,나를 보내줘,6,Green,A,0,0,ScrollUp,ScrollDown,Green.png,3,NonTarget,NonTarget,,,,,0,0,0,0,,,,,,,,,,,,,,,,,,,,,0,7,7,7,,,,,,,,,,,,,,,,,,,,,,,,,,,,,,,,,,,,,,,,,,,,,,,,,,,,,,,,,,,,,,,,,,,,,,,,,1.766975313425064,0.9632061000011163,477.71074640000006,None,ScrollUp,정답입니다,477.71074640000006,None,477.71074640000006,None,477.71074640000006,None,477.71074640000006,None,478.55358259999775,None,478.55358259999775,479.0666799000028,,,,,,,,,,,,,,,,102,2022-04-28_09h25.53.530,FishGame,2022.1.1,60.07864294357168,
,9,넌 자신만만해,3,Orange,B,4.833333333333334,4.333333333333333,ScrollUp,ScrollDown,Orange.png,3,Neutral,Neutral,,,,,0,0,0,0,,,,,,,,,,,,,,,,,,,,,0,8,8,8,,,,,,,,,,,,,,,,,,,,,,,,,,,,,,,,,,,,,,,,,,,,,,,,,,,,,,,,,,,,,,,,,,,,,,,,,1.9259259502092998,0.8742975999994087,479.702229100003,None,ScrollUp,정답입니다,479.702229100003,None,479.702229100003,None,479.702229100003,None,479.702229100003,None,480.4661425000013,None,480.4661425000013,480.9666798000035,,,,,,,,,,,,,,,,102,2022-04-28_09h25.53.530,FishGame,2022.1.1,60.07864294357168,
,10,넌 탐욕스러워,5,Green,A,2.25,2.1,ScrollDown,ScrollUp,Green.png,3,Negative,Incongruent,,,,,0,0,0,0,,,,,,,,,,,,,,,,,,,,,0,9,9,9,,,,,,,,,,,,,,,,,,,,,,,,,,,,,,,,,,,,,,,,,,,,,,,,,,,,,,,,,,,,,,,,,,,,,,,,,1.1280864129463832,0.8082680000006803,481.60801390000415,None,ScrollDown,정답입니다,481.60801390000415,None,481.60801390000415,None,481.60801390000415,None,481.60801390000415,None,482.29914210000425,None,482.29914210000425,482.80001820000325,,,,,,,,,,,,,,,,102,2022-04-28_09h25.53.530,FishGame,2022.1.1,60.07864294357168,
,11,넌 인기있어,2,Green,A,5.458333333333333,4.5,ScrollDown,ScrollUp,Green.png,3,Positive,Congruent,,,,,0,0,0,0,,,,,,,,,,,,,,,,,,,,,0,10,10,10,,,,,,,,,,,,,,,,,,,,,,,,,,,,,,,,,,,,,,,,,,,,,,,,,,,,,,,,,,,,,,,,,,,,,,,,,1.3395061741272607,0.831421800001408,483.43026539999846,None,ScrollDown,정답입니다,483.43026539999846,None,483.43026539999846,None,483.43026539999846,None,483.43026539999846,None,484.153624700004,None,484.153624700004,484.66622800000187,,,,,,,,,,,,,,,,102,2022-04-28_09h25.53.530,FishGame,2022.1.1,60.07864294357168,
,12,나를 데려가줘,6,Orange,B,0,0,ScrollDown,ScrollUp,Orange.png,3,NonTarget,NonTarget,,,,,0,0,0,0,,,,,,,,,,,,,,,,,,,,,0,11,11,11,,,,,,,,,,,,,,,,,,,,,,,,,,,,,,,,,,,,,,,,,,,,,,,,,,,,,,,,,,,,,,,,,,,,,,,,,1.1466049303611119,0.8670163999995566,485.3004119000034,None,ScrollDown,정답입니다,485.3004119000034,None,485.3004119000034,None,485.3004119000034,None,485.3004119000034,None,486.05403800000204,None,486.05403800000204,486.56635110000207,,,,,,,,,,,,,,,,102,2022-04-28_09h25.53.530,FishGame,2022.1.1,60.07864294357168,
,13,넌 뛰어나,2,Orange,B,6.166666666666667,4,ScrollUp,ScrollDown,Orange.png,3,Positive,Incongruent,,,,,0,0,0,0,,,,,,,,,,,,,,,,,,,,,0,12,12,12,,,,,,,,,,,,,,,,,,,,,,,,,,,,,,,,,,,,,,,,,,,,,,,,,,,,,,,,,,,,,,,,,,,,,,,,,1.878086417913437,0.8667018999985885,487.21099250000407,None,ScrollUp,정답입니다,487.21099250000407,None,487.21099250000407,None,487.21099250000407,None,487.21099250000407,None,487.95396410000103,None,487.95396410000103,488.466250700003,,,,,,,,,,,,,,,,102,2022-04-28_09h25.53.530,FishGame,2022.1.1,60.07864294357168,
,14,넌 낙관적이야,1,Green,A,5.75,5.8,ScrollDown,ScrollUp,Green.png,3,Positive,Congruent,,,,,0,0,0,0,,,,,,,,,,,,,,,,,,,,,0,13,13,13,,,,,,,,,,,,,,,,,,,,,,,,,,,,,,,,,,,,,,,,,,,,,,,,,,,,,,,,,,,,,,,,,,,,,,,,,1.2283950696388881,0.7657021000050008,489.10080330000346,None,ScrollDown,정답입니다,489.10080330000346,None,489.10080330000346,None,489.10080330000346,None,489.10080330000346,None,489.75439870000264,None,489.75439870000264,490.2665877000036,,,,,,,,,,,,,,,,102,2022-04-28_09h25.53.530,FishGame,2022.1.1,60.07864294357168,
,15,넌 산만해,4,Orange,B,2.695652173913043,3.033333333333333,ScrollUp,ScrollDown,Orange.png,3,Negative,Congruent,,,,,0,0,0,0,,,,,,,,,,,,,,,,,,,,,0,14,14,14,,,,,,,,,,,,,,,,,,,,,,,,,,,,,,,,,,,,,,,,,,,,,,,,,,,,,,,,,,,,,,,,,,,,,,,,,1.7885802586873372,0.8219934000007925,490.90396119999787,None,ScrollUp,정답입니다,490.90396119999787,None,490.90396119999787,None,490.90396119999787,None,490.90396119999787,None,491.6161790000042,None,491.6161790000042,492.11590270000306,,,,,,,,,,,,,,,,102,2022-04-28_09h25.53.530,FishGame,2022.1.1,60.07864294357168,
,16,나를 보내줘,6,Green,A,0,0,ScrollUp,ScrollDown,Green.png,3,NonTarget,NonTarget,,,,,0,0,0,0,,,,,,,,,,,,,,,,,,,,,0,15,15,15,,,,,,,,,,,,,,,,,,,,,,,,,,,,,,,,,,,,,,,,,,,,,,,,,,,,,,,,,,,,,,,,,,,,,,,,,1.8209876517454784,0.930885900001158,492.74697939999896,None,ScrollUp,정답입니다,492.74697939999896,None,492.74697939999896,None,492.74697939999896,None,492.74697939999896,None,493.5712291000018,None,493.5712291000018,494.08320220000314,,,,,,,,,,,,,,,,102,2022-04-28_09h25.53.530,FishGame,2022.1.1,60.07864294357168,
,17,넌 교활해,5,Orange,B,2.333333333333333,2.133333333333333,ScrollUp,ScrollDown,Orange.png,3,Negative,Congruent,,,,,0,0,0,0,,,,,,,,,,,,,,,,,,,,,0,16,16,16,,,,,,,,,,,,,,,,,,,,,,,,,,,,,,,,,,,,,,,,,,,,,,,,,,,,,,,,,,,,,,,,,,,,,,,,,1.7561728407939274,0.9588072000042303,494.72651100000076,None,ScrollUp,정답입니다,494.72651100000076,None,494.72651100000076,None,494.72651100000076,None,494.72651100000076,None,495.56601950000186,None,495.56601950000186,496.06659180000133,,,,,,,,,,,,,,,,102,2022-04-28_09h25.53.530,FishGame,2022.1.1,60.07864294357168,
,18,나를 보내줘,6,Green,A,0,0,ScrollUp,ScrollDown,Green.png,3,NonTarget,NonTarget,,,,,0,0,0,0,,,,,,,,,,,,,,,,,,,,,0,17,17,17,,,,,,,,,,,,,,,,,,,,,,,,,,,,,,,,,,,,,,,,,,,,,,,,,,,,,,,,,,,,,,,,,,,,,,,,,1.7793209999799728,0.9037753000011435,496.6974689999988,None,ScrollUp,정답입니다,496.6974689999988,None,496.6974689999988,None,496.6974689999988,None,496.6974689999988,None,497.4966523000039,None,497.4966523000039,497.99977780000336,,,,,,,,,,,,,,,,102,2022-04-28_09h25.53.530,FishGame,2022.1.1,60.07864294357168,
,19,넌 불친절해,5,Orange,B,2.208333333333333,2.033333333333333,ScrollUp,ScrollDown,Orange.png,3,Negative,Congruent,,,,,0,0,0,0,,,,,,,,,,,,,,,,,,,,,0,18,18,18,,,,,,,,,,,,,,,,,,,,,,,,,,,,,,,,,,,,,,,,,,,,,,,,,,,,,,,,,,,,,,,,,,,,,,,,,1.7793209999799728,0.9311664999986533,498.6506673999975,None,ScrollUp,정답입니다,498.6506673999975,None,498.6506673999975,None,498.6506673999975,None,498.6506673999975,None,499.4543948999999,None,499.4543948999999,499.9663834000021,,,,,,,,,,,,,,,,102,2022-04-28_09h25.53.530,FishGame,2022.1.1,60.07864294357168,
,20,넌 지적이야,2,Orange,B,5.75,4.366666666666666,ScrollUp,ScrollDown,Orange.png,3,Positive,Incongruent,,,,,0,0,0,0,,,,,,,,,,,,,,,,,,,,,0,19,19,19,,,,,,,,,,,,,,,,,,,,,,,,,,,,,,,,,,,,,,,,,,,,,,,,,,,,,,,,,,,,,,,,,,,,,,,,,1.9814815024534862,0.8974702999985311,500.60697880000225,None,ScrollUp,정답입니다,500.60697880000225,None,500.60697880000225,None,500.60697880000225,None,500.60697880000225,None,501.38773310000397,None,501.38773310000397,501.90021349999734,,,,,,,,,,,,,,,,102,2022-04-28_09h25.53.530,FishGame,2022.1.1,60.07864294357168,
,21,넌 우유부단해,4,Green,A,2.666666666666667,3.166666666666667,ScrollDown,ScrollUp,Green.png,3,Negative,Incongruent,,,,,0,0,0,0,,,,,,,,,,,,,,,,,,,,,0,20,20,20,,,,,,,,,,,,,,,,,,,,,,,,,,,,,,,,,,,,,,,,,,,,,,,,,,,,,,,,,,,,,,,,,,,,,,,,,1.3765432089567184,0.8237283000053139,502.5522987000004,None,ScrollDown,정답입니다,502.5522987000004,None,502.5522987000004,None,502.5522987000004,None,502.5522987000004,None,503.24473130000115,None,503.24473130000115,503.74993689999974,,,,,,,,,,,,,,,,102,2022-04-28_09h25.53.530,FishGame,2022.1.1,60.07864294357168,
,22,나를 데려가줘,6,Orange,B,0,0,ScrollDown,ScrollUp,Orange.png,3,NonTarget,NonTarget,,,,,0,0,0,0,,,,,,,,,,,,,,,,,,,,,0,21,21,21,,,,,,,,,,,,,,,,,,,,,,,,,,,,,,,,,,,,,,,,,,,,,,,,,,,,,,,,,,,,,,,,,,,,,,,,,1.3086419701576233,1.1261643000034383,504.3846240999992,None,ScrollDown,정답입니다,504.3846240999992,None,504.3846240999992,None,504.3846240999992,None,504.3846240999992,None,505.3998833000005,None,505.3998833000005,505.8999287999977,,,,,,,,,,,,,,,,102,2022-04-28_09h25.53.530,FishGame,2022.1.1,60.07864294357168,
,23,넌 성실해,1,Orange,B,6.041666666666666,5.7,ScrollUp,ScrollDown,Orange.png,3,Positive,Incongruent,,,,,0,0,0,0,,,,,,,,,,,,,,,,,,,,,0,22,22,22,,,,,,,,,,,,,,,,,,,,,,,,,,,,,,,,,,,,,,,,,,,,,,,,,,,,,,,,,,,,,,,,,,,,,,,,,1.7145061641931534,1.1505256000018562,506.54087399999844,None,ScrollUp,정답입니다,506.54087399999844,None,506.54087399999844,None,506.54087399999844,None,506.54087399999844,None,507.57106829999975,None,507.57106829999975,508.0833555999998,,,,,,,,,,,,,,,,102,2022-04-28_09h25.53.530,FishGame,2022.1.1,60.07864294357168,
,24,넌 현실주의적이야,3,Green,A,4.625,4.4,ScrollDown,ScrollUp,Green.png,3,Neutral,Neutral,,,,,0,0,0,0,,,,,,,,,,,,,,,,,,,,,0,23,23,23,,,,,,,,,,,,,,,,,,,,,,,,,,,,,,,,,,,,,,,,,,,,,,,,,,,,,,,,,,,,,,,,,,,,,,,,,1.2746913631757102,0.8596680000046035,508.71535700000095,None,ScrollDown,정답입니다,508.71535700000095,None,508.71535700000095,None,508.71535700000095,None,508.71535700000095,None,509.4689537000013,None,509.4689537000013,509.98342660000344,,,,,,,,,,,,,,,,102,2022-04-28_09h25.53.530,FishGame,2022.1.1,60.07864294357168,
,25,넌 진실돼,1,Green,A,6.625,5.566666666666666,ScrollDown,ScrollUp,Green.png,3,Positive,Congruent,,,,,0,0,0,0,,,,,,,,,,,,,,,,,,,,,0,24,24,24,,,,,,,,,,,,,,,,,,,,,,,,,,,,,,,,,,,,,,,,,,,,,,,,,,,,,,,,,,,,,,,,,,,,,,,,,1.3564814776182175,0.8208358999982011,510.61859939999704,None,ScrollDown,정답입니다,510.61859939999704,None,510.61859939999704,None,510.61859939999704,None,510.61859939999704,None,511.3319384999995,None,511.3319384999995,511.8332397999984,,,,,,,,,,,,,,,,102,2022-04-28_09h25.53.530,FishGame,2022.1.1,60.07864294357168,
,26,넌 천진난만해,3,Orange,B,4.958333333333334,4.833333333333333,ScrollUp,ScrollDown,Orange.png,3,Neutral,Neutral,,,,,0,0,0,0,,,,,,,,,,,,,,,,,,,,,0,25,25,25,,,,,,,,,,,,,,,,,,,,,,,,,,,,,,,,,,,,,,,,,,,,,,,,,,,,,,,,,,,,,,,,,,,,,,,,,1.6419753084580102,1.2837060000019846,512.4827198999992,None,ScrollUp,정답입니다,512.4827198999992,None,512.4827198999992,None,512.4827198999992,None,512.4827198999992,None,513.6378862999991,None,513.6378862999991,514.1502718999982,,,,,,,,,,,,,,,,102,2022-04-28_09h25.53.530,FishGame,2022.1.1,60.07864294357168,
,27,넌 교양없어,5,Green,A,2.416666666666667,2.2,ScrollDown,ScrollUp,Green.png,3,Negative,Incongruent,,,,,0,0,0,0,,,,,,,,,,,,,,,,,,,,,0,26,26,26,,,,,,,,,,,,,,,,,,,,,,,,,,,,,,,,,,,,,,,,,,,,,,,,,,,,,,,,,,,,,,,,,,,,,,,,,1.2175925970077515,0.7900059999956284,514.7884666000027,None,ScrollDown,정답입니다,514.7884666000027,None,514.7884666000027,None,514.7884666000027,None,514.7884666000027,None,515.4668115000022,None,515.4668115000022,515.9670188000018,,,,,,,,,,,,,,,,102,2022-04-28_09h25.53.530,FishGame,2022.1.1,60.07864294357168,
,28,나를 보내줘,6,Green,A,0,0,ScrollUp,ScrollDown,Green.png,3,NonTarget,NonTarget,,,,,0,0,0,0,,,,,,,,,,,,,,,,,,,,,0,27,27,27,,,,,,,,,,,,,,,,,,,,,,,,,,,,,,,,,,,,,,,,,,,,,,,,,,,,,,,,,,,,,,,,,,,,,,,,,1.6898148159186044,0.8086171999966609,516.5936509000021,None,ScrollUp,정답입니다,516.5936509000021,None,516.5936509000021,None,516.5936509000021,None,516.5936509000021,None,517.3000373000032,None,517.3000373000032,517.8002067999987,,,,,,,,,,,,,,,,102,2022-04-28_09h25.53.530,FishGame,2022.1.1,60.07864294357168,
,29,넌 엉뚱스러워,3,Green,A,4.166666666666667,4.133333333333334,ScrollDown,ScrollUp,Green.png,3,Neutral,Neutral,,,,,0,0,0,0,,,,,,,,,,,,,,,,,,,,,0,28,28,28,,,,,,,,,,,,,,,,,,,,,,,,,,,,,,,,,,,,,,,,,,,,,,,,,,,,,,,,,,,,,,,,,,,,,,,,,1.1543209999799728,0.9652111000032164,518.4343064999994,None,ScrollDown,정답입니다,518.4343064999994,None,518.4343064999994,None,518.4343064999994,None,518.4343064999994,None,519.2886751000042,None,519.2886751000042,519.8001747000017,,,,,,,,,,,,,,,,102,2022-04-28_09h25.53.530,FishGame,2022.1.1,60.07864294357168,
,30,넌 무지해,4,Orange,B,2.541666666666667,3.066666666666667,ScrollUp,ScrollDown,Orange.png,3,Negative,Congruent,,,,,0,0,0,0,,,,,,,,,,,,,,,,,,,,,0,29,29,29,,,,,,,,,,,,,,,,,,,,,,,,,,,,,,,,,,,,,,,,,,,,,,,,,,,,,,,,,,,,,,,,,,,,,,,,,1.6666666691501937,0.6911363000035635,520.4351696000012,None,ScrollUp,정답입니다,520.4351696000012,None,520.4351696000012,None,520.4351696000012,None,520.4351696000012,None,521.0163173000037,None,521.0163173000037,521.5168527999995,,,,,,,,,,,,,,,,102,2022-04-28_09h25.53.530,FishGame,2022.1.1,60.07864294357168,
,31,넌 음울해,5,Orange,B,2.25,2.233333333333333,ScrollUp,ScrollDown,Orange.png,3,Negative,Congruent,,,,,0,0,0,0,,,,,,,,,,,,,,,,,,,,,0,30,30,30,,,,,,,,,,,,,,,,,,,,,,,,,,,,,,,,,,,,,,,,,,,,,,,,,,,,,,,,,,,,,,,,,,,,,,,,,1.8441358109315236,0.6955570999998599,522.1610318000021,None,ScrollUp,정답입니다,522.1610318000021,None,522.1610318000021,None,522.1610318000021,None,522.1610318000021,None,522.7379177000039,None,522.7379177000039,523.2507028000036,,,,,,,,,,,,,,,,102,2022-04-28_09h25.53.530,FishGame,2022.1.1,60.07864294357168,
,32,넌 냉소적이야,5,Green,A,2.916666666666667,2.4,ScrollDown,ScrollUp,Green.png,3,Negative,Incongruent,,,,,0,0,0,0,,,,,,,,,,,,,,,,,,,,,0,31,31,31,,,,,,,,,,,,,,,,,,,,,,,,,,,,,,,,,,,,,,,,,,,,,,,,,,,,,,,,,,,,,,,,,,,,,,,,,1.387345681587855,0.688278800000262,523.8793413000021,None,ScrollDown,정답입니다,523.8793413000021,None,523.8793413000021,None,523.8793413000021,None,523.8793413000021,None,524.4668373000022,None,524.4668373000022,524.967527599998,,,,,,,,,,,,,,,,102,2022-04-28_09h25.53.530,FishGame,2022.1.1,60.07864294357168,
,33,나를 데려가줘,6,Orange,B,0,0,ScrollDown,ScrollUp,Orange.png,3,NonTarget,NonTarget,,,,,0,0,0,0,,,,,,,,,,,,,,,,,,,,,0,32,32,32,,,,,,,,,,,,,,,,,,,,,,,,,,,,,,,,,,,,,,,,,,,,,,,,,,,,,,,,,,,,,,,,,,,,,,,,,1.1774691343307495,1.115467899995565,525.5968114999996,None,ScrollDown,정답입니다,525.5968114999996,None,525.5968114999996,None,525.5968114999996,None,525.5968114999996,None,526.6047580000013,None,526.6047580000013,527.1172370999993,,,,,,,,,,,,,,,,102,2022-04-28_09h25.53.530,FishGame,2022.1.1,60.07864294357168,
,34,넌 쾌활해,1,Green,A,5.541666666666666,5.733333333333333,ScrollDown,ScrollUp,Green.png,3,Positive,Congruent,,,,,0,0,0,0,,,,,,,,,,,,,,,,,,,,,0,33,33,33,,,,,,,,,,,,,,,,,,,,,,,,,,,,,,,,,,,,,,,,,,,,,,,,,,,,,,,,,,,,,,,,,,,,,,,,,1.3395061741272607,0.8381435999981477,527.7539239000034,None,ScrollDown,정답입니다,527.7539239000034,None,527.7539239000034,None,527.7539239000034,None,527.7539239000034,None,528.4822730000014,None,528.4822730000014,528.9835877000005,,,,,,,,,,,,,,,,102,2022-04-28_09h25.53.530,FishGame,2022.1.1,60.07864294357168,
,35,나를 보내줘,6,Green,A,0,0,ScrollUp,ScrollDown,Green.png,3,NonTarget,NonTarget,,,,,0,0,0,0,,,,,,,,,,,,,,,,,,,,,0,34,34,34,,,,,,,,,,,,,,,,,,,,,,,,,,,,,,,,,,,,,,,,,,,,,,,,,,,,,,,,,,,,,,,,,,,,,,,,,1.5972222226361432,0.8104458000016166,529.612492799999,None,ScrollUp,정답입니다,529.612492799999,None,529.612492799999,None,529.612492799999,None,529.612492799999,None,530.3210334000032,None,530.3210334000032,530.833924999999,,,,,,,,,,,,,,,,102,2022-04-28_09h25.53.530,FishGame,2022.1.1,60.07864294357168,
,36,넌 명랑해,1,Orange,B,5.739130434782609,5.666666666666667,ScrollUp,ScrollDown,Orange.png,3,Positive,Incongruent,,,,,0,0,0,0,,,,,,,,,,,,,,,,,,,,,0,35,35,35,,,,,,,,,,,,,,,,,,,,,,,,,,,,,,,,,,,,,,,,,,,,,,,,,,,,,,,,,,,,,,,,,,,,,,,,,1.5246913575877747,1.012042599999404,531.4725439000031,None,NoResponse,무응답입니다,531.4725439000031,None,531.4725439000031,None,531.4725439000031,None,531.4725439000031,None,532.3718441000019,None,532.3718441000019,532.8840535999989,,,,,,,,,,,,,,,,102,2022-04-28_09h25.53.530,FishGame,2022.1.1,60.07864294357168,
,37,넌 멍해,4,Green,A,2.833333333333333,3.4,ScrollDown,ScrollUp,Green.png,3,Negative,Incongruent,,,,,0,0,0,0,,,,,,,,,,,,,,,,,,,,,0,36,36,36,,,,,,,,,,,,,,,,,,,,,,,,,,,,,,,,,,,,,,,,,,,,,,,,,,,,,,,,,,,,,,,,,,,,,,,,,1.2422839452823002,0.7797188999975333,533.5134882999992,None,ScrollDown,정답입니다,533.5134882999992,None,533.5134882999992,None,533.5134882999992,None,533.5134882999992,None,534.1891154000041,None,534.1891154000041,534.7004919000028,,,,,,,,,,,,,,,,102,2022-04-28_09h25.53.530,FishGame,2022.1.1,60.07864294357168,
,38,나를 데려가줘,6,Orange,B,0,0,ScrollDown,ScrollUp,Orange.png,3,NonTarget,NonTarget,,,,,0,0,0,0,,,,,,,,,,,,,,,,,,,,,0,37,37,37,,,,,,,,,,,,,,,,,,,,,,,,,,,,,,,,,,,,,,,,,,,,,,,,,,,,,,,,,,,,,,,,,,,,,,,,,1.2253086417913437,0.9416634000008344,535.3406059999979,None,ScrollDown,정답입니다,535.3406059999979,None,535.3406059999979,None,535.3406059999979,None,535.3406059999979,None,536.1672371000022,None,536.1672371000022,536.667646300004,,,,,,,,,,,,,,,,102,2022-04-28_09h25.53.530,FishGame,2022.1.1,60.07864294357168,
,39,넌 현명해,2,Green,A,6.541666666666666,4.533333333333333,ScrollDown,ScrollUp,Green.png,3,Positive,Congruent,,,,,0,0,0,0,,,,,,,,,,,,,,,,,,,,,0,38,38,38,,,,,,,,,,,,,,,,,,,,,,,,,,,,,,,,,,,,,,,,,,,,,,,,,,,,,,,,,,,,,,,,,,,,,,,,,1.162037044763565,0.7524711000005482,537.2960085000013,None,ScrollDown,정답입니다,537.2960085000013,None,537.2960085000013,None,537.2960085000013,None,537.2960085000013,None,537.9473285999993,None,537.9473285999993,538.4508178000033,,,,,,,,,,,,,,,,102,2022-04-28_09h25.53.530,FishGame,2022.1.1,60.07864294357168,
,40,넌 수줍어,3,Orange,B,3.541666666666666,4.366666666666666,ScrollUp,ScrollDown,Orange.png,3,Neutral,Neutral,,,,,0,0,0,0,,,,,,,,,,,,,,,,,,,,,0,39,39,39,,,,,,,,,,,,,,,,,,,,,,,,,,,,,,,,,,,,,,,,,,,,,,,,,,,,,,,,,,,,,,,,,,,,,,,,,2,0.9109596000052989,539.0995714000019,None,ScrollUp,정답입니다,539.0995714000019,None,539.0995714000019,None,539.0995714000019,None,539.0995714000019,None,539.8853993000012,None,539.8853993000012,540.4008566999983,,,,,,,,,,,,,,,,102,2022-04-28_09h25.53.530,FishGame,2022.1.1,60.07864294357168,
,41,나를 데려가줘,6,Orange,B,0,0,ScrollDown,ScrollUp,Orange.png,3,NonTarget,NonTarget,,,,,0,0,0,0,,,,,,,,,,,,,,,,,,,,,0,40,40,40,,,,,,,,,,,,,,,,,,,,,,,,,,,,,,,,,,,,,,,,,,,,,,,,,,,,,,,,,,,,,,,,,,,,,,,,,1.1095678955316544,1.1556170000039856,541.036420700002,None,ScrollDown,정답입니다,541.036420700002,None,541.036420700002,None,541.036420700002,None,541.036420700002,None,542.0804927999998,None,542.0804927999998,542.5842884000012,,,,,,,,,,,,,,,,102,2022-04-28_09h25.53.530,FishGame,2022.1.1,60.07864294357168,
,42,넌 성숙해,2,Orange,B,5.833333333333333,4.533333333333333,ScrollUp,ScrollDown,Orange.png,3,Positive,Incongruent,,,,,0,0,0,0,,,,,,,,,,,,,,,,,,,,,0,41,41,41,,,,,,,,,,,,,,,,,,,,,,,,,,,,,,,,,,,,,,,,,,,,,,,,,,,,,,,,,,,,,,,,,,,,,,,,,2,1.6140019000013126,543.2114734999996,None,ScrollUp,정답입니다,543.2114734999996,None,543.2114734999996,None,543.2114734999996,None,543.2114734999996,None,544.7217238000012,None,544.7217238000012,545.2343144999977,,,,,,,,,,,,,,,,102,2022-04-28_09h25.53.530,FishGame,2022.1.1,60.07864294357168,
,1,넌 매력적이야,2,Orange,B,6.125,4.666666666666667,ScrollUp,ScrollDown,Orange.png,4,Positive,Incongruent,,,,,0,0,0,0,,,,,,,,,,,,,,,,,,,,,,,,,0,0,0,0,,,,,,,,,,,,,,,,,,,,,,,,,,,,577.7012551000007,579.201771400003,579.2347930000033,580.1848317999975,580.2356196999972,581.1848909000037,581.1848909000037,None,,,,,,,,,,,,,,,,,,,,,,,,,,,,,,,,,,1.8302469104528427,1.2004688000015449,582.3502020000014,None,ScrollUp,정답입니다,582.3502020000014,None,582.3502020000014,None,582.3502020000014,None,582.3502020000014,None,583.3815348999997,None,583.3815348999997,583.885239700001,545.734268799999,None,545.734268799999,None,0.19629629,-0.10092592,1,0,0,0.016350329999113455,None,575.734755700003,None,,,102,2022-04-28_09h25.53.530,FishGame,2022.1.1,60.07864294357168,
,2,나를 보내줘,6,Green,A,0,0,ScrollUp,ScrollDown,Green.png,4,NonTarget,NonTarget,,,,,0,0,0,0,,,,,,,,,,,,,,,,,,,,,,,,,0,1,1,1,,,,,,,,,,,,,,,,,,,,,,,,,,,,,,,,,,,,,,,,,,,,,,,,,,,,,,,,,,,,,,,,,,,,,1.8287036965290706,0.8646637999991071,584.5139368000018,None,ScrollUp,정답입니다,584.5139368000018,None,584.5139368000018,None,584.5139368000018,None,584.5139368000018,None,585.2725661000004,None,585.2725661000004,585.7851501999976,,,,,,,,,,,,,,,,102,2022-04-28_09h25.53.530,FishGame,2022.1.1,60.07864294357168,
,3,넌 조심스러워,3,Green,A,4.791666666666666,4.666666666666667,ScrollDown,ScrollUp,Green.png,4,Neutral,Neutral,,,,,0,0,0,0,,,,,,,,,,,,,,,,,,,,,,,,,0,2,2,2,,,,,,,,,,,,,,,,,,,,,,,,,,,,,,,,,,,,,,,,,,,,,,,,,,,,,,,,,,,,,,,,,,,,,1.2469135870536168,0.8572351000038907,586.4216469000021,None,ScrollDown,정답입니다,586.4216469000021,None,586.4216469000021,None,586.4216469000021,None,586.4216469000021,None,587.168367899998,None,587.168367899998,587.668462499998,,,,,,,,,,,,,,,,102,2022-04-28_09h25.53.530,FishGame,2022.1.1,60.07864294357168,
,4,넌 철학적이야,3,Orange,B,4.5,4.266666666666667,ScrollUp,ScrollDown,Orange.png,4,Neutral,Neutral,,,,,0,0,0,0,,,,,,,,,,,,,,,,,,,,,,,,,0,3,3,3,,,,,,,,,,,,,,,,,,,,,,,,,,,,,,,,,,,,,,,,,,,,,,,,,,,,,,,,,,,,,,,,,,,,,1.7947530895471573,0.7667045000052894,588.3118480999983,None,ScrollUp,정답입니다,588.3118480999983,None,588.3118480999983,None,588.3118480999983,None,588.3118480999983,None,588.9562856999983,None,588.9562856999983,589.4686354000005,,,,,,,,,,,,,,,,102,2022-04-28_09h25.53.530,FishGame,2022.1.1,60.07864294357168,
,5,넌 쩨쩨해,5,Green,A,2.375,2.133333333333333,ScrollDown,ScrollUp,Green.png,4,Negative,Incongruent,,,,,0,0,0,0,,,,,,,,,,,,,,,,,,,,,,,,,0,4,4,4,,,,,,,,,,,,,,,,,,,,,,,,,,,,,,,,,,,,,,,,,,,,,,,,,,,,,,,,,,,,,,,,,,,,,1.120370368162791,0.903892000002088,590.1138286999994,None,ScrollDown,정답입니다,590.1138286999994,None,590.1138286999994,None,590.1138286999994,None,590.1138286999994,None,590.8983689000015,None,590.8983689000015,591.4018051000021,,,,,,,,,,,,,,,,102,2022-04-28_09h25.53.530,FishGame,2022.1.1,60.07864294357168,
,6,나를 데려가줘,6,Orange,B,0,0,ScrollDown,ScrollUp,Orange.png,4,NonTarget,NonTarget,,,,,0,0,0,0,,,,,,,,,,,,,,,,,,,,,,,,,0,5,5,5,,,,,,,,,,,,,,,,,,,,,,,,,,,,,,,,,,,,,,,,,,,,,,,,,,,,,,,,,,,,,,,,,,,,,1.1095678955316544,1.133373600001505,592.0403555000012,None,ScrollDown,정답입니다,592.0403555000012,None,592.0403555000012,None,592.0403555000012,None,592.0403555000012,None,593.0560506000038,None,593.0560506000038,593.568336700002,,,,,,,,,,,,,,,,102,2022-04-28_09h25.53.530,FishGame,2022.1.1,60.07864294357168,
,7,넌 고집불통이야,5,Orange,B,2.875,2,ScrollUp,ScrollDown,Orange.png,4,Negative,Congruent,,,,,0,0,0,0,,,,,,,,,,,,,,,,,,,,,,,,,0,6,6,6,,,,,,,,,,,,,,,,,,,,,,,,,,,,,,,,,,,,,,,,,,,,,,,,,,,,,,,,,,,,,,,,,,,,,1.8657407313585281,0.857365399999253,594.2146588000032,None,ScrollUp,정답입니다,594.2146588000032,None,594.2146588000032,None,594.2146588000032,None,594.2146588000032,None,594.951708499997,None,594.951708499997,595.4518814999974,,,,,,,,,,,,,,,,102,2022-04-28_09h25.53.530,FishGame,2022.1.1,60.07864294357168,
,8,넌 무심해,4,Green,A,2.875,3.2,ScrollDown,ScrollUp,Green.png,4,Negative,Incongruent,,,,,0,0,0,0,,,,,,,,,,,,,,,,,,,,,,,,,0,7,7,7,,,,,,,,,,,,,,,,,,,,,,,,,,,,,,,,,,,,,,,,,,,,,,,,,,,,,,,,,,,,,,,,,,,,,1.1790123482545216,0.8323025999998208,596.0793679999988,None,ScrollDown,정답입니다,596.0793679999988,None,596.0793679999988,None,596.0793679999988,None,596.0793679999988,None,596.8059018999993,None,596.8059018999993,597.3184506000034,,,,,,,,,,,,,,,,102,2022-04-28_09h25.53.530,FishGame,2022.1.1,60.07864294357168,
,9,넌 정겨워,1,Green,A,5.791666666666667,5.666666666666667,ScrollDown,ScrollUp,Green.png,4,Positive,Congruent,,,,,0,0,0,0,,,,,,,,,,,,,,,,,,,,,,,,,0,8,8,8,,,,,,,,,,,,,,,,,,,,,,,,,,,,,,,,,,,,,,,,,,,,,,,,,,,,,,,,,,,,,,,,,,,,,1.2793209801117578,0.769717799994396,597.9589873000004,None,ScrollDown,정답입니다,597.9589873000004,None,597.9589873000004,None,597.9589873000004,None,597.9589873000004,None,598.6172646999985,None,598.6172646999985,599.1183754000012,,,,,,,,,,,,,,,,102,2022-04-28_09h25.53.530,FishGame,2022.1.1,60.07864294357168,
,10,나를 데려가줘,6,Orange,B,0,0,ScrollDown,ScrollUp,Orange.png,4,NonTarget,NonTarget,,,,,0,0,0,0,,,,,,,,,,,,,,,,,,,,,,,,,0,9,9,9,,,,,,,,,,,,,,,,,,,,,,,,,,,,,,,,,,,,,,,,,,,,,,,,,,,,,,,,,,,,,,,,,,,,,1.2700617214043937,0.8388239999985672,599.7526777000021,None,ScrollDown,정답입니다,599.7526777000021,None,599.7526777000021,None,599.7526777000021,None,599.7526777000021,None,600.485242900002,None,600.485242900002,600.9853711000032,,,,,,,,,,,,,,,,102,2022-04-28_09h25.53.530,FishGame,2022.1.1,60.07864294357168,
,11,넌 체제순응적이야,4,Orange,B,3,3.6,ScrollUp,ScrollDown,Orange.png,4,Negative,Congruent,,,,,0,0,0,0,,,,,,,,,,,,,,,,,,,,,,,,,0,10,10,10,,,,,,,,,,,,,,,,,,,,,,,,,,,,,,,,,,,,,,,,,,,,,,,,,,,,,,,,,,,,,,,,,,,,,1.7253086368242898,0.7905356000046595,601.6314841999992,None,ScrollUp,정답입니다,601.6314841999992,None,601.6314841999992,None,601.6314841999992,None,601.6314841999992,None,602.3017505000025,None,602.3017505000025,602.8018837999989,,,,,,,,,,,,,,,,102,2022-04-28_09h25.53.530,FishGame,2022.1.1,60.07864294357168,
,12,나를 보내줘,6,Green,A,0,0,ScrollUp,ScrollDown,Green.png,4,NonTarget,NonTarget,,,,,0,0,0,0,,,,,,,,,,,,,,,,,,,,,,,,,0,11,11,11,,,,,,,,,,,,,,,,,,,,,,,,,,,,,,,,,,,,,,,,,,,,,,,,,,,,,,,,,,,,,,,,,,,,,1.6373456791043282,0.9355168000038248,603.4309305999996,None,ScrollUp,정답입니다,603.4309305999996,None,603.4309305999996,None,603.4309305999996,None,603.4309305999996,None,604.2649535000019,None,604.2649535000019,604.768284800004,,,,,,,,,,,,,,,,102,2022-04-28_09h25.53.530,FishGame,2022.1.1,60.07864294357168,
,13,넌 박식해,2,Green,A,5.625,3.933333333333333,ScrollDown,ScrollUp,Green.png,4,Positive,Congruent,,,,,0,0,0,0,,,,,,,,,,,,,,,,,,,,,,,,,0,12,12,12,,,,,,,,,,,,,,,,,,,,,,,,,,,,,,,,,,,,,,,,,,,,,,,,,,,,,,,,,,,,,,,,,,,,,1.1388888855775197,0.9223566000000574,605.4085943000027,None,ScrollDown,정답입니다,605.4085943000027,None,605.4085943000027,None,605.4085943000027,None,605.4085943000027,None,606.2183274999988,None,606.2183274999988,606.7184333000041,,,,,,,,,,,,,,,,102,2022-04-28_09h25.53.530,FishGame,2022.1.1,60.07864294357168,
,14,나를 보내줘,6,Green,A,0,0,ScrollUp,ScrollDown,Green.png,4,NonTarget,NonTarget,,,,,0,0,0,0,,,,,,,,,,,,,,,,,,,,,,,,,0,13,13,13,,,,,,,,,,,,,,,,,,,,,,,,,,,,,,,,,,,,,,,,,,,,,,,,,,,,,,,,,,,,,,,,,,,,,1.67746914178133,0.7833347000050708,607.344162399997,None,ScrollUp,정답입니다,607.344162399997,None,607.344162399997,None,607.344162399997,None,607.344162399997,None,608.0230434000041,None,608.0230434000041,608.535206499997,,,,,,,,,,,,,,,,102,2022-04-28_09h25.53.530,FishGame,2022.1.1,60.07864294357168,
,15,넌 침착해,1,Orange,B,5.458333333333333,5.566666666666666,ScrollUp,ScrollDown,Orange.png,4,Positive,Incongruent,,,,,0,0,0,0,,,,,,,,,,,,,,,,,,,,,,,,,0,14,14,14,,,,,,,,,,,,,,,,,,,,,,,,,,,,,,,,,,,,,,,,,,,,,,,,,,,,,,,,,,,,,,,,,,,,,1.320987656712532,0.7346115000036662,609.1777425999971,None,ScrollDown,오답입니다,609.1777425999971,None,609.1777425999971,None,609.1777425999971,None,609.1777425999971,None,609.7933083000025,None,609.7933083000025,610.3019359000027,,,,,,,,,,,,,,,,102,2022-04-28_09h25.53.530,FishGame,2022.1.1,60.07864294357168,
,16,나를 데려가줘,6,Orange,B,0,0,ScrollDown,ScrollUp,Orange.png,4,NonTarget,NonTarget,,,,,0,0,0,0,,,,,,,,,,,,,,,,,,,,,,,,,0,15,15,15,,,,,,,,,,,,,,,,,,,,,,,,,,,,,,,,,,,,,,,,,,,,,,,,,,,,,,,,,,,,,,,,,,,,,1.1790123482545216,2.143026400000963,610.9358747000006,None,ScrollDown,정답입니다,610.9358747000006,None,610.9358747000006,None,610.9358747000006,None,610.9358747000006,None,612.9711572000015,None,612.9711572000015,613.4855151000011,,,,,,,,,,,,,,,,102,2022-04-28_09h25.53.530,FishGame,2022.1.1,60.07864294357168,
,17,넌 행복해,1,Green,A,6.416666666666666,6.166666666666667,ScrollDown,ScrollUp,Green.png,4,Positive,Congruent,,,,,0,0,0,0,,,,,,,,,,,,,,,,,,,,,,,,,0,16,16,16,,,,,,,,,,,,,,,,,,,,,,,,,,,,,,,,,,,,,,,,,,,,,,,,,,,,,,,,,,,,,,,,,,,,,1.370370365679264,0.8090286000006017,614.1240347999992,None,ScrollDown,정답입니다,614.1240347999992,None,614.1240347999992,None,614.1240347999992,None,614.1240347999992,None,614.8181568,None,614.8181568,615.3184744000027,,,,,,,,,,,,,,,,102,2022-04-28_09h25.53.530,FishGame,2022.1.1,60.07864294357168,
,18,넌 겸손해,2,Orange,B,5.791666666666667,4.766666666666667,ScrollUp,ScrollDown,Orange.png,4,Positive,Incongruent,,,,,0,0,0,0,,,,,,,,,,,,,,,,,,,,,,,,,0,17,17,17,,,,,,,,,,,,,,,,,,,,,,,,,,,,,,,,,,,,,,,,,,,,,,,,,,,,,,,,,,,,,,,,,,,,,1.8117283930381138,0.7812919000061811,615.9626853000009,None,ScrollUp,정답입니다,615.9626853000009,None,615.9626853000009,None,615.9626853000009,None,615.9626853000009,None,616.6232313,None,616.6232313,617.1354970000029,,,,,,,,,,,,,,,,102,2022-04-28_09h25.53.530,FishGame,2022.1.1,60.07864294357168,
,19,나를 보내줘,6,Green,A,0,0,ScrollUp,ScrollDown,Green.png,4,NonTarget,NonTarget,,,,,0,0,0,0,,,,,,,,,,,,,,,,,,,,,,,,,0,18,18,18,,,,,,,,,,,,,,,,,,,,,,,,,,,,,,,,,,,,,,,,,,,,,,,,,,,,,,,,,,,,,,,,,,,,,1.71913580596447,0.9809191999956965,617.762552500004,None,ScrollUp,정답입니다,617.762552500004,None,617.762552500004,None,617.762552500004,None,617.762552500004,None,618.6402780999997,None,618.6402780999997,619.1522889999978,,,,,,,,,,,,,,,,102,2022-04-28_09h25.53.530,FishGame,2022.1.1,60.07864294357168,
,20,넌 의심없어,3,Green,A,4.166666666666667,4.6,ScrollDown,ScrollUp,Green.png,4,Neutral,Neutral,,,,,0,0,0,0,,,,,,,,,,,,,,,,,,,,,,,,,0,19,19,19,,,,,,,,,,,,,,,,,,,,,,,,,,,,,,,,,,,,,,,,,,,,,,,,,,,,,,,,,,,,,,,,,,,,,1.3117283980051675,2.290373100004217,619.7855963000038,None,ScrollDown,정답입니다,619.7855963000038,None,619.7855963000038,None,619.7855963000038,None,619.7855963000038,None,621.9684401999984,None,621.9684401999984,622.4688824000041,,,,,,,,,,,,,,,,102,2022-04-28_09h25.53.530,FishGame,2022.1.1,60.07864294357168,
,21,넌 시시해,4,Green,A,2.666666666666667,2.966666666666667,ScrollDown,ScrollUp,Green.png,4,Negative,Incongruent,,,,,0,0,0,0,,,,,,,,,,,,,,,,,,,,,,,,,0,20,20,20,,,,,,,,,,,,,,,,,,,,,,,,,,,,,,,,,,,,,,,,,,,,,,,,,,,,,,,,,,,,,,,,,,,,,1.1975308656692505,1.170337199997448,623.0973929000029,None,ScrollDown,정답입니다,623.0973929000029,None,623.0973929000029,None,623.0973929000029,None,623.0973929000029,None,624.1653509000025,None,624.1653509000025,624.6692754000032,,,,,,,,,,,,,,,,102,2022-04-28_09h25.53.530,FishGame,2022.1.1,60.07864294357168,
,22,나를 데려가줘,6,Orange,B,0,0,ScrollDown,ScrollUp,Orange.png,4,NonTarget,NonTarget,,,,,0,0,0,0,,,,,,,,,,,,,,,,,,,,,,,,,0,21,21,21,,,,,,,,,,,,,,,,,,,,,,,,,,,,,,,,,,,,,,,,,,,,,,,,,,,,,,,,,,,,,,,,,,,,,1.1697530895471573,0.8653396000008797,625.2993290000013,None,ScrollDown,정답입니다,625.2993290000013,None,625.2993290000013,None,625.2993290000013,None,625.2993290000013,None,626.0564567999972,None,626.0564567999972,626.569270699998,,,,,,,,,,,,,,,,102,2022-04-28_09h25.53.530,FishGame,2022.1.1,60.07864294357168,
,23,넌 무정해,5,Green,A,2.5,2.2,ScrollDown,ScrollUp,Green.png,4,Negative,Incongruent,,,,,0,0,0,0,,,,,,,,,,,,,,,,,,,,,,,,,0,22,22,22,,,,,,,,,,,,,,,,,,,,,,,,,,,,,,,,,,,,,,,,,,,,,,,,,,,,,,,,,,,,,,,,,,,,,1.0108024775981903,0.8367120000038994,627.1966972000009,None,ScrollDown,정답입니다,627.1966972000009,None,627.1966972000009,None,627.1966972000009,None,627.1966972000009,None,627.9319944000017,None,627.9319944000017,628.4357842000027,,,,,,,,,,,,,,,,102,2022-04-28_09h25.53.530,FishGame,2022.1.1,60.07864294357168,
,24,넌 긍정적이야,1,Orange,B,6.041666666666667,6.066666666666666,ScrollUp,ScrollDown,Orange.png,4,Positive,Incongruent,,,,,0,0,0,0,,,,,,,,,,,,,,,,,,,,,,,,,0,23,23,23,,,,,,,,,,,,,,,,,,,,,,,,,,,,,,,,,,,,,,,,,,,,,,,,,,,,,,,,,,,,,,,,,,,,,1.6558641965190568,0.7730288999955519,629.090114700004,None,ScrollUp,정답입니다,629.090114700004,None,629.090114700004,None,629.090114700004,None,629.090114700004,None,629.7353483999977,None,629.7353483999977,630.2358786999976,,,,,,,,,,,,,,,,102,2022-04-28_09h25.53.530,FishGame,2022.1.1,60.07864294357168,
,25,나를 보내줘,6,Green,A,0,0,ScrollUp,ScrollDown,Green.png,4,NonTarget,NonTarget,,,,,0,0,0,0,,,,,,,,,,,,,,,,,,,,,,,,,0,24,24,24,,,,,,,,,,,,,,,,,,,,,,,,,,,,,,,,,,,,,,,,,,,,,,,,,,,,,,,,,,,,,,,,,,,,,1.7716049303611119,0.8430733999994118,630.8663727000021,None,ScrollUp,정답입니다,630.8663727000021,None,630.8663727000021,None,630.8663727000021,None,630.8663727000021,None,631.6022051999971,None,631.6022051999971,632.1028656999988,,,,,,,,,,,,,,,,102,2022-04-28_09h25.53.530,FishGame,2022.1.1,60.07864294357168,
,26,넌 시기심이 많아,5,Orange,B,2.458333333333333,2.233333333333333,ScrollUp,ScrollDown,Orange.png,4,Negative,Congruent,,,,,0,0,0,0,,,,,,,,,,,,,,,,,,,,,,,,,0,25,25,25,,,,,,,,,,,,,,,,,,,,,,,,,,,,,,,,,,,,,,,,,,,,,,,,,,,,,,,,,,,,,,,,,,,,,1.9290123283863068,0.9818597999983467,632.7491334000006,None,ScrollUp,정답입니다,632.7491334000006,None,632.7491334000006,None,632.7491334000006,None,632.7491334000006,None,633.6069257999989,None,633.6069257999989,634.1189467000004,,,,,,,,,,,,,,,,102,2022-04-28_09h25.53.530,FishGame,2022.1.1,60.07864294357168,
,27,넌 탁월해,2,Green,A,5.708333333333334,4.5,ScrollDown,ScrollUp,Green.png,4,Positive,Congruent,,,,,0,0,0,0,,,,,,,,,,,,,,,,,,,,,,,,,0,26,26,26,,,,,,,,,,,,,,,,,,,,,,,,,,,,,,,,,,,,,,,,,,,,,,,,,,,,,,,,,,,,,,,,,,,,,1.0185184975465138,0.9383035999999265,634.7559634999998,None,ScrollDown,정답입니다,634.7559634999998,None,634.7559634999998,None,634.7559634999998,None,634.7559634999998,None,635.5857133000027,None,635.5857133000027,636.085717300004,,,,,,,,,,,,,,,,102,2022-04-28_09h25.53.530,FishGame,2022.1.1,60.07864294357168,
,28,나를 데려가줘,6,Orange,B,0,0,ScrollDown,ScrollUp,Orange.png,4,NonTarget,NonTarget,,,,,0,0,0,0,,,,,,,,,,,,,,,,,,,,,,,,,0,27,27,27,,,,,,,,,,,,,,,,,,,,,,,,,,,,,,,,,,,,,,,,,,,,,,,,,,,,,,,,,,,,,,,,,,,,,1.3086419701576233,1.1609804999970947,636.7224204000013,None,ScrollDown,정답입니다,636.7224204000013,None,636.7224204000013,None,636.7224204000013,None,636.7224204000013,None,637.7729819000015,None,637.7729819000015,638.2858885000023,,,,,,,,,,,,,,,,102,2022-04-28_09h25.53.530,FishGame,2022.1.1,60.07864294357168,
,29,넌 조용해,3,Orange,B,4.333333333333333,4.166666666666667,ScrollUp,ScrollDown,Orange.png,4,Neutral,Neutral,,,,,0,0,0,0,,,,,,,,,,,,,,,,,,,,,,,,,0,28,28,28,,,,,,,,,,,,,,,,,,,,,,,,,,,,,,,,,,,,,,,,,,,,,,,,,,,,,,,,,,,,,,,,,,,,,1.9259259502092998,1.4152049999975134,638.930715800001,None,ScrollUp,정답입니다,638.930715800001,None,638.930715800001,None,638.930715800001,None,638.930715800001,None,640.2236751000019,None,640.2236751000019,640.7359135000006,,,,,,,,,,,,,,,,102,2022-04-28_09h25.53.530,FishGame,2022.1.1,60.07864294357168,
,30,넌 다정해,1,Green,A,5.833333333333334,5.7,ScrollDown,ScrollUp,Green.png,4,Positive,Congruent,,,,,0,0,0,0,,,,,,,,,,,,,,,,,,,,,,,,,0,29,29,29,,,,,,,,,,,,,,,,,,,,,,,,,,,,,,,,,,,,,,,,,,,,,,,,,,,,,,,,,,,,,,,,,,,,,1.1358024577299755,0.87688309999794,641.3750316000005,None,ScrollDown,정답입니다,641.3750316000005,None,641.3750316000005,None,641.3750316000005,None,641.3750316000005,None,642.1394633000018,None,642.1394633000018,642.6525669000039,,,,,,,,,,,,,,,,102,2022-04-28_09h25.53.530,FishGame,2022.1.1,60.07864294357168,
,31,넌 능력있어,2,Orange,B,6.166666666666666,4.6,ScrollUp,ScrollDown,Orange.png,4,Positive,Incongruent,,,,,0,0,0,0,,,,,,,,,,,,,,,,,,,,,,,,,0,30,30,30,,,,,,,,,,,,,,,,,,,,,,,,,,,,,,,,,,,,,,,,,,,,,,,,,,,,,,,,,,,,,,,,,,,,,1.8086419651905696,0.8278150999976788,643.2892552999983,None,ScrollUp,정답입니다,643.2892552999983,None,643.2892552999983,None,643.2892552999983,None,643.2892552999983,None,644.0025851000028,None,644.0025851000028,644.502971300004,,,,,,,,,,,,,,,,102,2022-04-28_09h25.53.530,FishGame,2022.1.1,60.07864294357168,
,32,넌 불쾌해,5,Green,A,2.125,1.933333333333333,ScrollDown,ScrollUp,Green.png,4,Negative,Incongruent,,,,,0,0,0,0,,,,,,,,,,,,,,,,,,,,,,,,,0,31,31,31,,,,,,,,,,,,,,,,,,,,,,,,,,,,,,,,,,,,,,,,,,,,,,,,,,,,,,,,,,,,,,,,,,,,,1.1558641890684764,0.8814866999964579,645.1514676000006,None,ScrollDown,정답입니다,645.1514676000006,None,645.1514676000006,None,645.1514676000006,None,645.1514676000006,None,645.9067384000009,None,645.9067384000009,646.4194503000035,,,,,,,,,,,,,,,,102,2022-04-28_09h25.53.530,FishGame,2022.1.1,60.07864294357168,
,33,나를 데려가줘,6,Orange,B,0,0,ScrollDown,ScrollUp,Orange.png,4,NonTarget,NonTarget,,,,,0,0,0,0,,,,,,,,,,,,,,,,,,,,,,,,,0,32,32,32,,,,,,,,,,,,,,,,,,,,,,,,,,,,,,,,,,,,,,,,,,,,,,,,,,,,,,,,,,,,,,,,,,,,,1.256172845760981,1.0069112999990466,647.0552989999996,None,ScrollDown,정답입니다,647.0552989999996,None,647.0552989999996,None,647.0552989999996,None,647.0552989999996,None,647.9527202000027,None,647.9527202000027,648.4530321999991,,,,,,,,,,,,,,,,102,2022-04-28_09h25.53.530,FishGame,2022.1.1,60.07864294357168,
,34,넌 유순해,3,Green,A,4.458333333333333,5,ScrollDown,ScrollUp,Green.png,4,Neutral,Neutral,,,,,0,0,0,0,,,,,,,,,,,,,,,,,,,,,,,,,0,33,33,33,,,,,,,,,,,,,,,,,,,,,,,,,,,,,,,,,,,,,,,,,,,,,,,,,,,,,,,,,,,,,,,,,,,,,1.3611111069718995,0.7357837000017753,649.0988719000015,None,ScrollDown,정답입니다,649.0988719000015,None,649.0988719000015,None,649.0988719000015,None,649.0988719000015,None,649.7180211000014,None,649.7180211000014,650.2189779000037,,,,,,,,,,,,,,,,102,2022-04-28_09h25.53.530,FishGame,2022.1.1,60.07864294357168,
,35,넌 근심스러워,4,Orange,B,2.708333333333333,3.133333333333333,ScrollUp,ScrollDown,Orange.png,4,Negative,Congruent,,,,,0,0,0,0,,,,,,,,,,,,,,,,,,,,,,,,,0,34,34,34,,,,,,,,,,,,,,,,,,,,,,,,,,,,,,,,,,,,,,,,,,,,,,,,,,,,,,,,,,,,,,,,,,,,,1.7376543233791986,0.8639778000069782,650.8611165999973,None,ScrollUp,정답입니다,650.8611165999973,None,650.8611165999973,None,650.8611165999973,None,650.8611165999973,None,651.6072808000026,None,651.6072808000026,652.1194151000018,,,,,,,,,,,,,,,,102,2022-04-28_09h25.53.530,FishGame,2022.1.1,60.07864294357168,
,36,넌 세련되었어,2,Green,A,5.5,4.6,ScrollDown,ScrollUp,Green.png,4,Positive,Congruent,,,,,0,0,0,0,,,,,,,,,,,,,,,,,,,,,,,,,0,35,35,35,,,,,,,,,,,,,,,,,,,,,,,,,,,,,,,,,,,,,,,,,,,,,,,,,,,,,,,,,,,,,,,,,,,,,1.2268518557151158,0.8447939000034239,652.7762793000002,None,ScrollDown,정답입니다,652.7762793000002,None,652.7762793000002,None,652.7762793000002,None,652.7762793000002,None,653.4900981000028,None,653.4900981000028,654.0027238999974,,,,,,,,,,,,,,,,102,2022-04-28_09h25.53.530,FishGame,2022.1.1,60.07864294357168,
,37,나를 보내줘,6,Green,A,0,0,ScrollUp,ScrollDown,Green.png,4,NonTarget,NonTarget,,,,,0,0,0,0,,,,,,,,,,,,,,,,,,,,,,,,,0,36,36,36,,,,,,,,,,,,,,,,,,,,,,,,,,,,,,,,,,,,,,,,,,,,,,,,,,,,,,,,,,,,,,,,,,,,,2,1.2951255999942077,654.6321892999986,None,ScrollUp,정답입니다,654.6321892999986,None,654.6321892999986,None,654.6321892999986,None,654.6321892999986,None,655.8226905999982,None,655.8226905999982,656.3363909999971,,,,,,,,,,,,,,,,102,2022-04-28_09h25.53.530,FishGame,2022.1.1,60.07864294357168,
,38,넌 확고해,3,Orange,B,4.708333333333334,4.566666666666666,ScrollUp,ScrollDown,Orange.png,4,Neutral,Neutral,,,,,0,0,0,0,,,,,,,,,,,,,,,,,,,,,,,,,0,37,37,37,,,,,,,,,,,,,,,,,,,,,,,,,,,,,,,,,,,,,,,,,,,,,,,,,,,,,,,,,,,,,,,,,,,,,1.8225308656692505,1.0242058000003453,656.9761570999981,None,ScrollUp,정답입니다,656.9761570999981,None,656.9761570999981,None,656.9761570999981,None,656.9761570999981,None,657.8861935000023,None,657.8861935000023,658.3865118000031,,,,,,,,,,,,,,,,102,2022-04-28_09h25.53.530,FishGame,2022.1.1,60.07864294357168,
,39,넌 이해심이 많아,1,Orange,B,6.041666666666668,5.533333333333333,ScrollUp,ScrollDown,Orange.png,4,Positive,Incongruent,,,,,0,0,0,0,,,,,,,,,,,,,,,,,,,,,,,,,0,38,38,38,,,,,,,,,,,,,,,,,,,,,,,,,,,,,,,,,,,,,,,,,,,,,,,,,,,,,,,,,,,,,,,,,,,,,1.7901234477758408,1.0225411999999778,659.0167547000019,None,ScrollUp,정답입니다,659.0167547000019,None,659.0167547000019,None,659.0167547000019,None,659.0167547000019,None,659.9363037000003,None,659.9363037000003,660.4367054000031,,,,,,,,,,,,,,,,102,2022-04-28_09h25.53.530,FishGame,2022.1.1,60.07864294357168,
,40,나를 보내줘,6,Green,A,0,0,ScrollUp,ScrollDown,Green.png,4,NonTarget,NonTarget,,,,,0,0,0,0,,,,,,,,,,,,,,,,,,,,,,,,,0,39,39,39,,,,,,,,,,,,,,,,,,,,,,,,,,,,,,,,,,,,,,,,,,,,,,,,,,,,,,,,,,,,,,,,,,,,,1.7623456716537476,0.83241260000068,661.0699630000017,None,ScrollUp,정답입니다,661.0699630000017,None,661.0699630000017,None,661.0699630000017,None,661.0699630000017,None,661.791376000001,None,661.791376000001,662.3033686999988,,,,,,,,,,,,,,,,102,2022-04-28_09h25.53.530,FishGame,2022.1.1,60.07864294357168,
,41,넌 거칠어,4,Green,A,2.625,3.033333333333333,ScrollDown,ScrollUp,Green.png,4,Negative,Incongruent,,,,,0,0,0,0,,,,,,,,,,,,,,,,,,,,,,,,,0,40,40,40,,,,,,,,,,,,,,,,,,,,,,,,,,,,,,,,,,,,,,,,,,,,,,,,,,,,,,,,,,,,,,,,,,,,,1.1049382785956066,0.8815001999973902,662.9371735000022,None,ScrollDown,정답입니다,662.9371735000022,None,662.9371735000022,None,662.9371735000022,None,662.9371735000022,None,663.7075126999989,None,663.7075126999989,664.2196987999996,,,,,,,,,,,,,,,,102,2022-04-28_09h25.53.530,FishGame,2022.1.1,60.07864294357168,
,42,넌 변덕맞아,5,Orange,B,2.75,2.166666666666667,ScrollUp,ScrollDown,Orange.png,4,Negative,Congruent,,,,,0,0,0,0,,,,,,,,,,,,,,,,,,,,,,,,,0,41,41,41,,,,,,,,,,,,,,,,,,,,,,,,,,,,,,,,,,,,,,,,,,,,,,,,,,,,,,,,,,,,,,,,,,,,,1.8225308656692505,1.188780399999814,664.8673322000031,None,ScrollUp,정답입니다,664.8673322000031,None,664.8673322000031,None,664.8673322000031,None,664.8673322000031,None,665.9347791000037,None,665.9347791000037,666.4364728,,,,,,,,,,,,,,,,102,2022-04-28_09h25.53.530,FishGame,2022.1.1,60.07864294357168,
,43,나를 데려가줘,6,Orange,B,0,0,ScrollDown,ScrollUp,Orange.png,4,NonTarget,NonTarget,,,,,0,0,0,0,,,,,,,,,,,,,,,,,,,,,,,,,0,42,42,42,,,,,,,,,,,,,,,,,,,,,,,,,,,,,,,,,,,,,,,,,,,,,,,,,,,,,,,,,,,,,,,,,,,,,1.2175925970077515,1.0890797000029124,667.0689700000003,None,ScrollDown,정답입니다,667.0689700000003,None,667.0689700000003,None,667.0689700000003,None,667.0689700000003,None,668.0525366000002,None,668.0525366000002,668.5528370000029,,,,,,,,,,,,,,,,102,2022-04-28_09h25.53.530,FishGame,2022.1.1,60.07864294357168,
,44,넌 외로워,4,Orange,B,2.833333333333333,3.3,ScrollUp,ScrollDown,Orange.png,4,Negative,Congruent,,,,,0,0,0,0,,,,,,,,,,,,,,,,,,,,,,,,,0,43,43,43,,,,,,,,,,,,,,,,,,,,,,,,,,,,,,,,,,,,,,,,,,,,,,,,,,,,,,,,,,,,,,,,,,,,,1.7746913582086563,0.8396718000003602,669.1981997000039,None,ScrollUp,정답입니다,669.1981997000039,None,669.1981997000039,None,669.1981997000039,None,669.1981997000039,None,669.9199364000015,None,669.9199364000015,670.4200025000027,,,,,,,,,,,,,,,,102,2022-04-28_09h25.53.530,FishGame,2022.1.1,60.07864294357168,
,1,넌 불평스러워,5,Green,A,2.25,2.066666666666667,ScrollDown,ScrollUp,Green.png,5,Negative,Incongruent,,,,,0,0,0,0,,,,,,,,,,,,,,,,,,,,,,,,,,,,,0,0,0,0,,,,,,,,,,,,,,,,,,,,,,,,711.1210152999993,712.6209463999985,712.6541909000007,713.6037514999989,713.6543868000008,714.6042540999988,714.6042540999988,None,,,,,,,,,,,,,,,,,,,,,,,,,,,,,,,,,,1.0648148159186046,1.5019787999990513,715.7486559000026,None,ScrollDown,정답입니다,715.7486559000026,None,715.7486559000026,None,715.7486559000026,None,715.7486559000026,None,717.1037661000009,None,717.1037661000009,717.6041525999972,670.9200012000001,None,670.9200012000001,None,0.18425927,-0.13055556,1,0,0,0.01637322999886237,None,700.9206756999993,None,,,102,2022-04-28_09h25.53.530,FishGame,2022.1.1,60.07864294357168,
,2,나를 보내줘,6,Green,A,0,0,ScrollUp,ScrollDown,Green.png,5,NonTarget,NonTarget,,,,,0,0,0,0,,,,,,,,,,,,,,,,,,,,,,,,,,,,,0,1,1,1,,,,,,,,,,,,,,,,,,,,,,,,,,,,,,,,,,,,,,,,,,,,,,,,,,,,,,,,,,,,,,,,,1.8641975422700245,0.8947182000047178,718.2320373999974,None,ScrollUp,정답입니다,718.2320373999974,None,718.2320373999974,None,718.2320373999974,None,718.2320373999974,None,719.0247240000026,None,719.0247240000026,719.537696600004,,,,,,,,,,,,,,,,102,2022-04-28_09h25.53.530,FishGame,2022.1.1,60.07864294357168,
,3,넌 다재다능해,2,Orange,B,6.208333333333333,4.5,ScrollUp,ScrollDown,Orange.png,5,Positive,Incongruent,,,,,0,0,0,0,,,,,,,,,,,,,,,,,,,,,,,,,,,,,0,2,2,2,,,,,,,,,,,,,,,,,,,,,,,,,,,,,,,,,,,,,,,,,,,,,,,,,,,,,,,,,,,,,,,,,1.819444437821706,0.9428533999962383,720.1727662999983,None,ScrollUp,정답입니다,720.1727662999983,None,720.1727662999983,None,720.1727662999983,None,720.1727662999983,None,721.0039445000002,None,721.0039445000002,721.5042175999988,,,,,,,,,,,,,,,,102,2022-04-28_09h25.53.530,FishGame,2022.1.1,60.07864294357168,
,4,넌 과감해,3,Green,A,4.833333333333334,4.6,ScrollDown,ScrollUp,Green.png,5,Neutral,Neutral,,,,,0,0,0,0,,,,,,,,,,,,,,,,,,,,,,,,,,,,,0,3,3,3,,,,,,,,,,,,,,,,,,,,,,,,,,,,,,,,,,,,,,,,,,,,,,,,,,,,,,,,,,,,,,,,,1,1.0720792000065558,722.1320794999992,None,ScrollDown,정답입니다,722.1320794999992,None,722.1320794999992,None,722.1320794999992,None,722.1320794999992,None,723.1040214000022,None,723.1040214000022,723.6044655000005,,,,,,,,,,,,,,,,102,2022-04-28_09h25.53.530,FishGame,2022.1.1,60.07864294357168,
,5,넌 고분고분해,3,Orange,B,3.75,4.033333333333333,ScrollUp,ScrollDown,Orange.png,5,Neutral,Neutral,,,,,0,0,0,0,,,,,,,,,,,,,,,,,,,,,,,,,,,,,0,4,4,4,,,,,,,,,,,,,,,,,,,,,,,,,,,,,,,,,,,,,,,,,,,,,,,,,,,,,,,,,,,,,,,,,1.7175925920406976,0.7922917999967467,724.2481501000002,None,ScrollUp,정답입니다,724.2481501000002,None,724.2481501000002,None,724.2481501000002,None,724.2481501000002,None,724.9210315000018,None,724.9210315000018,725.4212776999993,,,,,,,,,,,,,,,,102,2022-04-28_09h25.53.530,FishGame,2022.1.1,60.07864294357168,
,6,나를 보내줘,6,Green,A,0,0,ScrollUp,ScrollDown,Green.png,5,NonTarget,NonTarget,,,,,0,0,0,0,,,,,,,,,,,,,,,,,,,,,,,,,,,,,0,5,5,5,,,,,,,,,,,,,,,,,,,,,,,,,,,,,,,,,,,,,,,,,,,,,,,,,,,,,,,,,,,,,,,,,1.1080246816078823,0.798077800005558,726.051042500003,None,ScrollDown,오답입니다,726.051042500003,None,726.051042500003,None,726.051042500003,None,726.051042500003,None,726.7452765999988,None,726.7452765999988,727.2541240999999,,,,,,,,,,,,,,,,102,2022-04-28_09h25.53.530,FishGame,2022.1.1,60.07864294357168,
,7,넌 잘 잊어,4,Green,A,3,3.7,ScrollDown,ScrollUp,Green.png,5,Negative,Incongruent,,,,,0,0,0,0,,,,,,,,,,,,,,,,,,,,,,,,,,,,,0,6,6,6,,,,,,,,,,,,,,,,,,,,,,,,,,,,,,,,,,,,,,,,,,,,,,,,,,,,,,,,,,,,,,,,,1.1018518507480621,0.9845872000005329,727.8957378999985,None,ScrollDown,정답입니다,727.8957378999985,None,727.8957378999985,None,727.8957378999985,None,727.8957378999985,None,728.7614218000017,None,728.7614218000017,729.2708639999983,,,,,,,,,,,,,,,,102,2022-04-28_09h25.53.530,FishGame,2022.1.1,60.07864294357168,
,8,넌 탐구심이없어,4,Orange,B,2.833333333333333,3.066666666666667,ScrollUp,ScrollDown,Orange.png,5,Negative,Congruent,,,,,0,0,0,0,,,,,,,,,,,,,,,,,,,,,,,,,,,,,0,7,7,7,,,,,,,,,,,,,,,,,,,,,,,,,,,,,,,,,,,,,,,,,,,,,,,,,,,,,,,,,,,,,,,,,1.7901234477758408,0.8498015999939525,729.9199058000013,None,ScrollUp,정답입니다,729.9199058000013,None,729.9199058000013,None,729.9199058000013,None,729.9199058000013,None,730.6420959000025,None,730.6420959000025,731.1543886,,,,,,,,,,,,,,,,102,2022-04-28_09h25.53.530,FishGame,2022.1.1,60.07864294357168,
,9,나를 데려가줘,6,Orange,B,0,0,ScrollDown,ScrollUp,Orange.png,5,NonTarget,NonTarget,,,,,0,0,0,0,,,,,,,,,,,,,,,,,,,,,,,,,,,,,0,8,8,8,,,,,,,,,,,,,,,,,,,,,,,,,,,,,,,,,,,,,,,,,,,,,,,,,,,,,,,,,,,,,,,,,1.1388888855775197,0.9132171000019298,731.7910604999997,None,ScrollDown,정답입니다,731.7910604999997,None,731.7910604999997,None,731.7910604999997,None,731.7910604999997,None,732.5923401999971,None,732.5923401999971,733.1044650999975,,,,,,,,,,,,,,,,102,2022-04-28_09h25.53.530,FishGame,2022.1.1,60.07864294357168,
,10,넌 참되어,2,Green,A,6.041666666666664,4.733333333333333,ScrollDown,ScrollUp,Green.png,5,Positive,Congruent,,,,,0,0,0,0,,,,,,,,,,,,,,,,,,,,,,,,,,,,,0,9,9,9,,,,,,,,,,,,,,,,,,,,,,,,,,,,,,,,,,,,,,,,,,,,,,,,,,,,,,,,,,,,,,,,,1.2608024626970291,0.7724916000006488,733.7347329999975,None,ScrollDown,정답입니다,733.7347329999975,None,733.7347329999975,None,733.7347329999975,None,733.7347329999975,None,734.4043547000038,None,734.4043547000038,734.9044194000016,,,,,,,,,,,,,,,,102,2022-04-28_09h25.53.530,FishGame,2022.1.1,60.07864294357168,
,11,넌 생기있어,1,Orange,B,5.875,5.633333333333334,ScrollUp,ScrollDown,Orange.png,5,Positive,Incongruent,,,,,0,0,0,0,,,,,,,,,,,,,,,,,,,,,,,,,,,,,0,10,10,10,,,,,,,,,,,,,,,,,,,,,,,,,,,,,,,,,,,,,,,,,,,,,,,,,,,,,,,,,,,,,,,,,1.6975308607021966,0.7361420000015642,735.6115953999979,None,ScrollUp,정답입니다,735.6115953999979,None,735.6115953999979,None,735.6115953999979,None,735.6115953999979,None,736.1710445999997,None,736.1710445999997,736.6711050000013,,,,,,,,,,,,,,,,102,2022-04-28_09h25.53.530,FishGame,2022.1.1,60.07864294357168,
,12,넌 비사교적이야,4,Orange,B,2.875,2.9,ScrollUp,ScrollDown,Orange.png,5,Negative,Congruent,,,,,0,0,0,0,,,,,,,,,,,,,,,,,,,,,,,,,,,,,0,11,11,11,,,,,,,,,,,,,,,,,,,,,,,,,,,,,,,,,,,,,,,,,,,,,,,,,,,,,,,,,,,,,,,,,1.7808641890684764,0.7219492000003811,737.306995400002,None,ScrollUp,정답입니다,737.306995400002,None,737.306995400002,None,737.306995400002,None,737.306995400002,None,737.9209130000017,None,737.9209130000017,738.4212377000003,,,,,,,,,,,,,,,,102,2022-04-28_09h25.53.530,FishGame,2022.1.1,60.07864294357168,
,13,나를 데려가줘,6,Orange,B,0,0,ScrollDown,ScrollUp,Orange.png,5,NonTarget,NonTarget,,,,,0,0,0,0,,,,,,,,,,,,,,,,,,,,,,,,,,,,,0,12,12,12,,,,,,,,,,,,,,,,,,,,,,,,,,,,,,,,,,,,,,,,,,,,,,,,,,,,,,,,,,,,,,,,,1.2685185074806213,0.8752451999971527,739.0604937000026,None,ScrollDown,정답입니다,739.0604937000026,None,739.0604937000026,None,739.0604937000026,None,739.0604937000026,None,739.8213146999988,None,739.8213146999988,740.3211488000015,,,,,,,,,,,,,,,,102,2022-04-28_09h25.53.530,FishGame,2022.1.1,60.07864294357168,
,14,넌 고독해,4,Green,A,2.916666666666667,3.233333333333333,ScrollDown,ScrollUp,Green.png,5,Negative,Incongruent,,,,,0,0,0,0,,,,,,,,,,,,,,,,,,,,,,,,,,,,,0,13,13,13,,,,,,,,,,,,,,,,,,,,,,,,,,,,,,,,,,,,,,,,,,,,,,,,,,,,,,,,,,,,,,,,,1.3780864228804905,0.7581176999956369,740.9508851999999,None,ScrollDown,정답입니다,740.9508851999999,None,740.9508851999999,None,740.9508851999999,None,740.9508851999999,None,741.6057828999983,None,741.6057828999983,742.1047753000021,,,,,,,,,,,,,,,,102,2022-04-28_09h25.53.530,FishGame,2022.1.1,60.07864294357168,
,15,넌 신경질적이야,5,Orange,B,2.375,2.233333333333333,ScrollUp,ScrollDown,Orange.png,5,Negative,Congruent,,,,,0,0,0,0,,,,,,,,,,,,,,,,,,,,,,,,,,,,,0,14,14,14,,,,,,,,,,,,,,,,,,,,,,,,,,,,,,,,,,,,,,,,,,,,,,,,,,,,,,,,,,,,,,,,,1.7206790198882422,0.8175039999987348,742.765836999999,None,ScrollUp,정답입니다,742.765836999999,None,742.765836999999,None,742.765836999999,None,742.765836999999,None,743.4694690000033,None,743.4694690000033,743.9712338000027,,,,,,,,,,,,,,,,102,2022-04-28_09h25.53.530,FishGame,2022.1.1,60.07864294357168,
,16,넌 똑똑해,2,Orange,B,5.666666666666667,3.966666666666667,ScrollUp,ScrollDown,Orange.png,5,Positive,Incongruent,,,,,0,0,0,0,,,,,,,,,,,,,,,,,,,,,,,,,,,,,0,15,15,15,,,,,,,,,,,,,,,,,,,,,,,,,,,,,,,,,,,,,,,,,,,,,,,,,,,,,,,,,,,,,,,,,1.7916666616996129,0.8815672999990056,744.6149600999997,None,ScrollUp,정답입니다,744.6149600999997,None,744.6149600999997,None,744.6149600999997,None,744.6149600999997,None,745.3759024000028,None,745.3759024000028,745.8880770000032,,,,,,,,,,,,,,,,102,2022-04-28_09h25.53.530,FishGame,2022.1.1,60.07864294357168,
,17,나를 보내줘,6,Green,A,0,0,ScrollUp,ScrollDown,Green.png,5,NonTarget,NonTarget,,,,,0,0,0,0,,,,,,,,,,,,,,,,,,,,,,,,,,,,,0,16,16,16,,,,,,,,,,,,,,,,,,,,,,,,,,,,,,,,,,,,,,,,,,,,,,,,,,,,,,,,,,,,,,,,,1.7299382785956063,1.0590936000007787,746.5189694000001,None,ScrollUp,정답입니다,746.5189694000001,None,746.5189694000001,None,746.5189694000001,None,746.5189694000001,None,747.4714769999991,None,747.4714769999991,747.9714856999999,,,,,,,,,,,,,,,,102,2022-04-28_09h25.53.530,FishGame,2022.1.1,60.07864294357168,
,18,넌 협조적이야,1,Green,A,5.625,5.666666666666667,ScrollDown,ScrollUp,Green.png,5,Positive,Congruent,,,,,0,0,0,0,,,,,,,,,,,,,,,,,,,,,,,,,,,,,0,17,17,17,,,,,,,,,,,,,,,,,,,,,,,,,,,,,,,,,,,,,,,,,,,,,,,,,,,,,,,,,,,,,,,,,1.1990740795930226,0.9606319999948028,748.6068754000007,None,ScrollDown,정답입니다,748.6068754000007,None,748.6068754000007,None,748.6068754000007,None,748.6068754000007,None,749.4541867000007,None,749.4541867000007,749.9546513000023,,,,,,,,,,,,,,,,102,2022-04-28_09h25.53.530,FishGame,2022.1.1,60.07864294357168,
,19,나를 데려가줘,6,Orange,B,0,0,ScrollDown,ScrollUp,Orange.png,5,NonTarget,NonTarget,,,,,0,0,0,0,,,,,,,,,,,,,,,,,,,,,,,,,,,,,0,18,18,18,,,,,,,,,,,,,,,,,,,,,,,,,,,,,,,,,,,,,,,,,,,,,,,,,,,,,,,,,,,,,,,,,1.2592592487732568,0.8706537000034587,750.5964855999991,None,ScrollDown,정답입니다,750.5964855999991,None,750.5964855999991,None,750.5964855999991,None,750.5964855999991,None,751.351201700003,None,751.351201700003,751.8549764999989,,,,,,,,,,,,,,,,102,2022-04-28_09h25.53.530,FishGame,2022.1.1,60.07864294357168,
,20,넌 몰인정해,5,Orange,B,2.541666666666667,2.066666666666667,ScrollUp,ScrollDown,Orange.png,5,Negative,Congruent,,,,,0,0,0,0,,,,,,,,,,,,,,,,,,,,,,,,,,,,,0,19,19,19,,,,,,,,,,,,,,,,,,,,,,,,,,,,,,,,,,,,,,,,,,,,,,,,,,,,,,,,,,,,,,,,,1.837962955236435,0.9817456000018865,752.4930714000002,None,ScrollUp,정답입니다,752.4930714000002,None,752.4930714000002,None,752.4930714000002,None,752.4930714000002,None,753.3587674000009,None,753.3587674000009,753.8715964000003,,,,,,,,,,,,,,,,102,2022-04-28_09h25.53.530,FishGame,2022.1.1,60.07864294357168,
,21,나를 데려가줘,6,Orange,B,0,0,ScrollDown,ScrollUp,Orange.png,5,NonTarget,NonTarget,,,,,0,0,0,0,,,,,,,,,,,,,,,,,,,,,,,,,,,,,0,20,20,20,,,,,,,,,,,,,,,,,,,,,,,,,,,,,,,,,,,,,,,,,,,,,,,,,,,,,,,,,,,,,,,,,1.3287037014961243,0.9085924999963026,754.5085211000041,None,ScrollDown,정답입니다,754.5085211000041,None,754.5085211000041,None,754.5085211000041,None,754.5085211000041,None,755.3048610999977,None,755.3048610999977,755.8047756000014,,,,,,,,,,,,,,,,102,2022-04-28_09h25.53.530,FishGame,2022.1.1,60.07864294357168,
,22,넌 순진해,3,Orange,B,4.125,4.166666666666667,ScrollUp,ScrollDown,Orange.png,5,Neutral,Neutral,,,,,0,0,0,0,,,,,,,,,,,,,,,,,,,,,,,,,,,,,0,21,21,21,,,,,,,,,,,,,,,,,,,,,,,,,,,,,,,,,,,,,,,,,,,,,,,,,,,,,,,,,,,,,,,,,1.766975313425064,1.0489726999949198,756.4396632999997,None,ScrollUp,정답입니다,756.4396632999997,None,756.4396632999997,None,756.4396632999997,None,756.4396632999997,None,757.3760553000029,None,757.3760553000029,757.8881410000031,,,,,,,,,,,,,,,,102,2022-04-28_09h25.53.530,FishGame,2022.1.1,60.07864294357168,
