name,TrialNum,Word,WordCategory,FishType,WordList,WordValence,WordReputation,CorrectResp,IncorrectResp,FishTypeFile,Round,WordType,Condition,LoopforOrange.thisRepN,LoopforOrange.thisTrialN,LoopforOrange.thisN,LoopforOrange.thisIndex,OrangeInstLoop.thisRepN,OrangeInstLoop.thisTrialN,OrangeInstLoop.thisN,OrangeInstLoop.thisIndex,OrangePrac.thisRepN,OrangePrac.thisTrialN,OrangePrac.thisN,OrangePrac.thisIndex,temp1.thisRepN,temp1.thisTrialN,temp1.thisN,temp1.thisIndex,OrangeRound1.thisRepN,OrangeRound1.thisTrialN,OrangeRound1.thisN,OrangeRound1.thisIndex,OrangeRound2.thisRepN,OrangeRound2.thisTrialN,OrangeRound2.thisN,OrangeRound2.thisIndex,OrangeRound3.thisRepN,OrangeRound3.thisTrialN,OrangeRound3.thisN,OrangeRound3.thisIndex,OrangeRound4.thisRepN,OrangeRound4.thisTrialN,OrangeRound4.thisN,OrangeRound4.thisIndex,OrangeRound5.thisRepN,OrangeRound5.thisTrialN,OrangeRound5.thisN,OrangeRound5.thisIndex,LoopForGreen.thisRepN,LoopForGreen.thisTrialN,LoopForGreen.thisN,LoopForGreen.thisIndex,text_2.started,text_2.stopped,text_3.started,text_3.stopped,key_resp.keys,key_resp.rt,key_resp.started,key_resp.stopped,PassI_2.started,PassI_2.stopped,PassInst_2.keys,PassInst_2.rt,PassInst_2.started,PassInst_2.stopped,mouse_2.x,mouse_2.y,mouse_2.leftButton,mouse_2.midButton,mouse_2.rightButton,mouse_2.started,mouse_2.stopped,image.started,image.stopped,text_5.started,text_5.stopped,text_6.started,text_6.stopped,text_7.started,text_7.stopped,text_8.started,text_8.stopped,slider_2.response,slider_2.rt,slider_2.started,slider_2.stopped,Response_2,Feedback_2,BackGround_2.started,BackGround_2.stopped,Fish_2.started,Fish_2.stopped,WordBox_2.started,WordBox_2.stopped,Words_2.started,Words_2.stopped,BackGround_Feedback_2.started,BackGround_Feedback_2.stopped,Feedbacks_2.started,Feedbacks_2.stopped,Continue_or_not.keys,Continue_or_not.rt,Continue_or_not.started,Continue_or_not.stopped,image_3.started,image_3.stopped,mouse_3.x,mouse_3.y,mouse_3.leftButton,mouse_3.midButton,mouse_3.rightButton,mouse_3.started,mouse_3.stopped,startmain.started,startmain.stopped,slider.response,slider.rt,slider.started,slider.stopped,Response,Feedback,BackGround.started,BackGround.stopped,Fish.started,Fish.stopped,WordBox.started,WordBox.stopped,Words.started,Words.stopped,BackGround_Feedback.started,BackGround_Feedback.stopped,Feedbacks.started,Feedbacks.stopped,text.started,text.stopped,break_interval.started,break_interval.stopped,mouse.x,mouse.y,mouse.leftButton,mouse.midButton,mouse.rightButton,mouse.started,mouse.stopped,stratnextround.started,stratnextround.stopped,endgame.started,endgame.stopped,participant,date,expName,psychopyVersion,frameRate,
,,,,,,,,,,,,,,,,,,,,,,,,,,,,,,,,,,,,,,,,,,,,,,,,,,,,,,24.121510600001784,None,24.121510600001784,None,space,3.485348600006546,24.580477800001972,None,,,,,,,,,,,,,,,,,,,,,,,,,,,,,,,,,,,,,,,,,,,,,,,,,,,,,,,,,,,,,,,,,,,,,,,,,,,,,,,,,,,,,,,,,,103,2022-04-28_15h21.14.841,FishGame,2022.1.1,60.001392028924535,
물고기과제_instruction(참가자용)OrangeVersion.mp4,,,,,,,,,,,,,,0,0,0,0,0,0,0,0,,,,,,,,,,,,,,,,,,,,,,,,,,,,,,,,,,,,,,,,,94.52712790000078,None,n,9.377792600003886,94.52712790000078,None,,,,,,,,,,,,,,,,,,,,,,,,,,,,,,,,,,,,,,,,,,,,,,,,,,,,,,,,,,,,,,,,,,,,,,,,,,,,,,,,,,,,103,2022-04-28_15h21.14.841,FishGame,2022.1.1,60.001392028924535,
,1,넌 교활해,5,Green,B,2.333333333333333,2.133333333333333,ScrollUp,ScrollDown,Green.png,practice,,,0,0,0,0,,,,,0,0,0,0,0,0,0,0,,,,,,,,,,,,,,,,,,,,,,,,,,,,,,,,,,,,,,,0.0787037,-0.24444444,1,0,0,0.5140921300044283,None,103.93193849999807,None,108.34933349999483,109.84884359998978,109.88234430000011,110.83243759999459,110.8824212999898,111.83229429999483,111.83229429999483,None,2,2.0693965000100434,113.00601829998777,None,ScrollUp,정답입니다,113.00601829998777,None,113.00601829998777,None,113.00601829998777,None,113.00601829998777,None,114.89751499998965,None,114.89751499998965,115.3992145999946,,,,,,,,,,,,,,,,,,,,,,,,,,,,,,,,,,,,,,,,,,,,,,,,,103,2022-04-28_15h21.14.841,FishGame,2022.1.1,60.001392028924535,
,2,넌 슬기로워,2,Orange,A,6.166666666666667,4.1,ScrollDown,ScrollUp,Orange.png,practice,,,0,0,0,0,,,,,0,0,0,0,0,1,1,1,,,,,,,,,,,,,,,,,,,,,,,,,,,,,,,,,,,,,,,,,,,,,,,,,,,,,,,,1,1.3855581999960123,116.04280919999292,None,ScrollDown,정답입니다,116.04280919999292,None,116.04280919999292,None,116.04280919999292,None,116.04280919999292,None,117.31235799999558,None,117.31235799999558,117.81574639999599,,,,,,,,,,,,,,,,,,,,,,,,,,,,,,,,,,,,,,,,,,,,,,,,,103,2022-04-28_15h21.14.841,FishGame,2022.1.1,60.001392028924535,
,3,나를 보내줘,6,Orange,A,0,0,ScrollUp,ScrollDown,Orange.png,practice,,,0,0,0,0,,,,,0,0,0,0,0,2,2,2,,,,,,,,,,,,,,,,,,,,,,,,,,,,,,,,,,,,,,,,,,,,,,,,,,,,,,,,2,1.7043867000029422,118.44720699999016,None,ScrollUp,정답입니다,118.44720699999016,None,118.44720699999016,None,118.44720699999016,None,118.44720699999016,None,120.04541520000203,None,120.04541520000203,120.54911799999536,,,,,,,,,,,,,,,,,,,,,,,,,,,,,,,,,,,,,,,,,,,,,,,,,103,2022-04-28_15h21.14.841,FishGame,2022.1.1,60.001392028924535,
,4,나를 데려가줘,6,Green,B,0,0,ScrollDown,ScrollUp,Green.png,practice,,,0,0,0,0,,,,,0,0,0,0,0,3,3,3,,,,,,,,,,,,,,,,,,,,,,,,,,,,,,,,,,,,,,,,,,,,,,,,,,,,,,,,1,1.5524824000021908,121.17710179999995,None,ScrollDown,정답입니다,121.17710179999995,None,121.17710179999995,None,121.17710179999995,None,121.17710179999995,None,122.62888839999505,None,122.62888839999505,123.13265939999837,,,,,,,,,,,,,,,,,,,,,,,,,,,,,,,,,,,,,,,,,,,,,,,,,103,2022-04-28_15h21.14.841,FishGame,2022.1.1,60.001392028924535,
,1,넌 교활해,5,Green,B,2.333333333333333,2.133333333333333,ScrollUp,ScrollDown,Green.png,practice,,,0,0,0,0,,,,,0,0,0,0,,,,,,,,,,,,,,,,,,,,,,,,,,,,,,,,,,,,,,,,,,,,,,,,,,,,,,,,,,,,,,,,,,,,,,,,,,,,,,n,15.829483800000162,123.63258700000006,None,123.63258700000006,None,,,,,,,,,,,,,,,,,,,,,,,,,,,,,,,,,,,,,,,,,,,103,2022-04-28_15h21.14.841,FishGame,2022.1.1,60.001392028924535,
,1,넌 따뜻해,1,Green,B,6.083333333333333,5.6,ScrollUp,ScrollDown,Green.png,1,Positive,Incongruent,0,0,0,0,,,,,,,,,,,,,0,0,0,0,,,,,,,,,,,,,,,,,,,,,,,,,,,,,,,,,,,,,,,,,,,,141.64989609998884,143.14941040000122,143.1831850999879,144.1334293999971,144.18319429999974,145.1330028999946,145.1330028999946,None,,,,,,,,,,,,,,,,,,,,,,,,,0.062962964,-0.14444445,1,0,0,0.314179230001173,None,139.48295209999196,None,2,2.198981100009405,146.30895500000042,None,ScrollUp,정답입니다,146.30895500000042,None,146.30895500000042,None,146.30895500000042,None,146.30895500000042,None,148.32968519999122,None,148.32968519999122,148.83294659999956,,,,,,,,,,,,,,,,103,2022-04-28_15h21.14.841,FishGame,2022.1.1,60.001392028924535,
,2,넌 기품있어,2,Green,B,5.791666666666668,4.5,ScrollUp,ScrollDown,Green.png,1,Positive,Incongruent,0,0,0,0,,,,,,,,,,,,,0,1,1,1,,,,,,,,,,,,,,,,,,,,,,,,,,,,,,,,,,,,,,,,,,,,,,,,,,,,,,,,,,,,,,,,,,,,,,,,,,,,,,,,,,,,,2,1.3883288000070024,149.47656219999772,None,ScrollUp,정답입니다,149.47656219999772,None,149.47656219999772,None,149.47656219999772,None,149.47656219999772,None,150.7461278999981,None,150.7461278999981,151.24969709999277,,,,,,,,,,,,,,,,103,2022-04-28_15h21.14.841,FishGame,2022.1.1,60.001392028924535,
,3,나를 보내줘,6,Orange,A,0,0,ScrollUp,ScrollDown,Orange.png,1,NonTarget,NonTarget,0,0,0,0,,,,,,,,,,,,,0,2,2,2,,,,,,,,,,,,,,,,,,,,,,,,,,,,,,,,,,,,,,,,,,,,,,,,,,,,,,,,,,,,,,,,,,,,,,,,,,,,,,,,,,,,,1.9891975224018097,1.2760910999932094,151.90054799999052,None,ScrollUp,정답입니다,151.90054799999052,None,151.90054799999052,None,151.90054799999052,None,151.90054799999052,None,153.04909309999493,None,153.04909309999493,153.5497342000017,,,,,,,,,,,,,,,,103,2022-04-28_15h21.14.841,FishGame,2022.1.1,60.001392028924535,
,4,넌 수동적이야,4,Orange,A,2.833333333333333,2.933333333333333,ScrollDown,ScrollUp,Orange.png,1,Negative,Incongruent,0,0,0,0,,,,,,,,,,,,,0,3,3,3,,,,,,,,,,,,,,,,,,,,,,,,,,,,,,,,,,,,,,,,,,,,,,,,,,,,,,,,,,,,,,,,,,,,,,,,,,,,,,,,,,,,,1.0972222338120143,1.5469647999998415,154.23294689999602,None,ScrollDown,정답입니다,154.23294689999602,None,154.23294689999602,None,154.23294689999602,None,154.23294689999602,None,155.62148709999747,None,155.62148709999747,156.13305720000062,,,,,,,,,,,,,,,,103,2022-04-28_15h21.14.841,FishGame,2022.1.1,60.001392028924535,
,5,넌 사심이 없어,3,Green,B,4.916666666666666,4.333333333333333,ScrollUp,ScrollDown,Green.png,1,Neutral,Neutral,0,0,0,0,,,,,,,,,,,,,0,4,4,4,,,,,,,,,,,,,,,,,,,,,,,,,,,,,,,,,,,,,,,,,,,,,,,,,,,,,,,,,,,,,,,,,,,,,,,,,,,,,,,,,,,,,1.7268518507480621,2.3928281999978935,156.77928899999824,None,ScrollUp,정답입니다,156.77928899999824,None,156.77928899999824,None,156.77928899999824,None,156.77928899999824,None,159.04957339999964,None,159.04957339999964,159.54975189999095,,,,,,,,,,,,,,,,103,2022-04-28_15h21.14.841,FishGame,2022.1.1,60.001392028924535,
,6,넌 헤퍼,5,Orange,A,2.458333333333334,2.233333333333333,ScrollDown,ScrollUp,Orange.png,1,Negative,Incongruent,0,0,0,0,,,,,,,,,,,,,0,5,5,5,,,,,,,,,,,,,,,,,,,,,,,,,,,,,,,,,,,,,,,,,,,,,,,,,,,,,,,,,,,,,,,,,,,,,,,,,,,,,,,,,,,,,1,1.572199800008093,160.19157349999296,None,ScrollDown,정답입니다,160.19157349999296,None,160.19157349999296,None,160.19157349999296,None,160.19157349999296,None,161.64984499999264,None,161.64984499999264,162.15016289999767,,,,,,,,,,,,,,,,103,2022-04-28_15h21.14.841,FishGame,2022.1.1,60.001392028924535,
,7,넌 말쑥해,3,Orange,A,4.833333333333334,4.333333333333333,ScrollDown,ScrollUp,Orange.png,1,Neutral,Neutral,0,0,0,0,,,,,,,,,,,,,0,6,6,6,,,,,,,,,,,,,,,,,,,,,,,,,,,,,,,,,,,,,,,,,,,,,,,,,,,,,,,,,,,,,,,,,,,,,,,,,,,,,,,,,,,,,1,1.398118600001908,162.78884199999447,None,ScrollDown,정답입니다,162.78884199999447,None,162.78884199999447,None,162.78884199999447,None,162.78884199999447,None,164.07111639999493,None,164.07111639999493,164.58384549999028,,,,,,,,,,,,,,,,103,2022-04-28_15h21.14.841,FishGame,2022.1.1,60.001392028924535,
,8,넌 투덜거려,5,Green,B,2.541666666666667,2.266666666666667,ScrollUp,ScrollDown,Green.png,1,Negative,Congruent,0,0,0,0,,,,,,,,,,,,,0,7,7,7,,,,,,,,,,,,,,,,,,,,,,,,,,,,,,,,,,,,,,,,,,,,,,,,,,,,,,,,,,,,,,,,,,,,,,,,,,,,,,,,,,,,,2,1.2412441999913426,165.22731589998875,None,ScrollUp,정답입니다,165.22731589998875,None,165.22731589998875,None,165.22731589998875,None,165.22731589998875,None,166.34969959998853,None,166.34969959998853,166.85053289998905,,,,,,,,,,,,,,,,103,2022-04-28_15h21.14.841,FishGame,2022.1.1,60.001392028924535,
,9,넌 적극적이야,1,Orange,A,5.708333333333333,5.533333333333333,ScrollDown,ScrollUp,Orange.png,1,Positive,Congruent,0,0,0,0,,,,,,,,,,,,,0,8,8,8,,,,,,,,,,,,,,,,,,,,,,,,,,,,,,,,,,,,,,,,,,,,,,,,,,,,,,,,,,,,,,,,,,,,,,,,,,,,,,,,,,,,,1.080246905485789,1.420390999992378,167.4866708999907,None,ScrollDown,정답입니다,167.4866708999907,None,167.4866708999907,None,167.4866708999907,None,167.4866708999907,None,168.79611659998773,None,168.79611659998773,169.29987259999325,,,,,,,,,,,,,,,,103,2022-04-28_15h21.14.841,FishGame,2022.1.1,60.001392028924535,
,10,넌 재미없어,4,Green,B,2.625,2.966666666666667,ScrollUp,ScrollDown,Green.png,1,Negative,Congruent,0,0,0,0,,,,,,,,,,,,,0,9,9,9,,,,,,,,,,,,,,,,,,,,,,,,,,,,,,,,,,,,,,,,,,,,,,,,,,,,,,,,,,,,,,,,,,,,,,,,,,,,,,,,,,,,,2,1.1891393999976572,169.9408648999961,None,ScrollUp,정답입니다,169.9408648999961,None,169.9408648999961,None,169.9408648999961,None,169.9408648999961,None,171.01329429999168,None,171.01329429999168,171.5168096999987,,,,,,,,,,,,,,,,103,2022-04-28_15h21.14.841,FishGame,2022.1.1,60.001392028924535,
,11,넌 명석해,2,Orange,A,5.875,4.033333333333333,ScrollDown,ScrollUp,Orange.png,1,Positive,Congruent,0,0,0,0,,,,,,,,,,,,,0,10,10,10,,,,,,,,,,,,,,,,,,,,,,,,,,,,,,,,,,,,,,,,,,,,,,,,,,,,,,,,,,,,,,,,,,,,,,,,,,,,,,,,,,,,,1.0030864079793294,1.29993929999182,172.1593481000018,None,ScrollDown,정답입니다,172.1593481000018,None,172.1593481000018,None,172.1593481000018,None,172.1593481000018,None,173.33805549998942,None,173.33805549998942,173.84989829998813,,,,,,,,,,,,,,,,103,2022-04-28_15h21.14.841,FishGame,2022.1.1,60.001392028924535,
,12,나를 데려가줘,6,Green,B,0,0,ScrollDown,ScrollUp,Green.png,1,NonTarget,NonTarget,0,0,0,0,,,,,,,,,,,,,0,11,11,11,,,,,,,,,,,,,,,,,,,,,,,,,,,,,,,,,,,,,,,,,,,,,,,,,,,,,,,,,,,,,,,,,,,,,,,,,,,,,,,,,,,,,1,1.7160229000000982,174.4853843999881,None,ScrollDown,정답입니다,174.4853843999881,None,174.4853843999881,None,174.4853843999881,None,174.4853843999881,None,176.08785939999507,None,176.08785939999507,176.60009729999,,,,,,,,,,,,,,,,103,2022-04-28_15h21.14.841,FishGame,2022.1.1,60.001392028924535,
,13,넌 소심해,4,Orange,A,3,3.1,ScrollDown,ScrollUp,Orange.png,1,Negative,Incongruent,0,0,0,0,,,,,,,,,,,,,0,12,12,12,,,,,,,,,,,,,,,,,,,,,,,,,,,,,,,,,,,,,,,,,,,,,,,,,,,,,,,,,,,,,,,,,,,,,,,,,,,,,,,,,,,,,1,1.3007094000058714,177.2348658999981,None,ScrollDown,정답입니다,177.2348658999981,None,177.2348658999981,None,177.2348658999981,None,177.2348658999981,None,178.4303954999923,None,178.4303954999923,178.9338693999889,,,,,,,,,,,,,,,,103,2022-04-28_15h21.14.841,FishGame,2022.1.1,60.001392028924535,
,14,넌 합리적이야,2,Orange,A,5.583333333333333,4.733333333333333,ScrollDown,ScrollUp,Orange.png,1,Positive,Congruent,0,0,0,0,,,,,,,,,,,,,0,13,13,13,,,,,,,,,,,,,,,,,,,,,,,,,,,,,,,,,,,,,,,,,,,,,,,,,,,,,,,,,,,,,,,,,,,,,,,,,,,,,,,,,,,,,1,1.361660499998834,179.5719323999947,None,ScrollDown,정답입니다,179.5719323999947,None,179.5719323999947,None,179.5719323999947,None,179.5719323999947,None,180.820716000002,None,180.820716000002,181.3337395999988,,,,,,,,,,,,,,,,103,2022-04-28_15h21.14.841,FishGame,2022.1.1,60.001392028924535,
,15,넌 무자비해,5,Green,B,2.333333333333333,2.1,ScrollUp,ScrollDown,Green.png,1,Negative,Congruent,0,0,0,0,,,,,,,,,,,,,0,14,14,14,,,,,,,,,,,,,,,,,,,,,,,,,,,,,,,,,,,,,,,,,,,,,,,,,,,,,,,,,,,,,,,,,,,,,,,,,,,,,,,,,,,,,2,1.3898225000011735,181.97602619999088,None,ScrollUp,정답입니다,181.97602619999088,None,181.97602619999088,None,181.97602619999088,None,181.97602619999088,None,183.24986189999618,None,183.24986189999618,183.75064879999263,,,,,,,,,,,,,,,,103,2022-04-28_15h21.14.841,FishGame,2022.1.1,60.001392028924535,
,16,나를 보내줘,6,Orange,A,0,0,ScrollUp,ScrollDown,Orange.png,1,NonTarget,NonTarget,0,0,0,0,,,,,,,,,,,,,0,15,15,15,,,,,,,,,,,,,,,,,,,,,,,,,,,,,,,,,,,,,,,,,,,,,,,,,,,,,,,,,,,,,,,,,,,,,,,,,,,,,,,,,,,,,2,1.512046999996528,184.3811488999927,None,ScrollUp,정답입니다,184.3811488999927,None,184.3811488999927,None,184.3811488999927,None,184.3811488999927,None,185.78776490000018,None,185.78776490000018,186.2998574999947,,,,,,,,,,,,,,,,103,2022-04-28_15h21.14.841,FishGame,2022.1.1,60.001392028924535,
,17,넌 현실적이야,3,Green,B,4.608695652173913,4.766666666666667,ScrollUp,ScrollDown,Green.png,1,Neutral,Neutral,0,0,0,0,,,,,,,,,,,,,0,16,16,16,,,,,,,,,,,,,,,,,,,,,,,,,,,,,,,,,,,,,,,,,,,,,,,,,,,,,,,,,,,,,,,,,,,,,,,,,,,,,,,,,,,,,2,1.6114409000001615,186.94049300000188,None,ScrollUp,정답입니다,186.94049300000188,None,186.94049300000188,None,186.94049300000188,None,186.94049300000188,None,188.43365189999167,None,188.43365189999167,188.9337647999928,,,,,,,,,,,,,,,,103,2022-04-28_15h21.14.841,FishGame,2022.1.1,60.001392028924535,
,18,넌 의리있어,1,Green,B,5.833333333333334,5.633333333333334,ScrollUp,ScrollDown,Green.png,1,Positive,Incongruent,0,0,0,0,,,,,,,,,,,,,0,17,17,17,,,,,,,,,,,,,,,,,,,,,,,,,,,,,,,,,,,,,,,,,,,,,,,,,,,,,,,,,,,,,,,,,,,,,,,,,,,,,,,,,,,,,1.7453703681627908,1.8832441000122344,189.5729280999949,None,ScrollUp,정답입니다,189.5729280999949,None,189.5729280999949,None,189.5729280999949,None,189.5729280999949,None,191.33830599999055,None,191.33830599999055,191.85011929999746,,,,,,,,,,,,,,,,103,2022-04-28_15h21.14.841,FishGame,2022.1.1,60.001392028924535,
,19,넌 신경과민이야,5,Orange,A,2.541666666666667,2.166666666666667,ScrollDown,ScrollUp,Orange.png,1,Negative,Incongruent,0,0,0,0,,,,,,,,,,,,,0,18,18,18,,,,,,,,,,,,,,,,,,,,,,,,,,,,,,,,,,,,,,,,,,,,,,,,,,,,,,,,,,,,,,,,,,,,,,,,,,,,,,,,,,,,,1,1.461099699998158,192.50356919999467,None,ScrollDown,정답입니다,192.50356919999467,None,192.50356919999467,None,192.50356919999467,None,192.50356919999467,None,193.83342419999826,None,193.83342419999826,194.3335565999878,,,,,,,,,,,,,,,,103,2022-04-28_15h21.14.841,FishGame,2022.1.1,60.001392028924535,
,20,넌 편안해,1,Orange,A,5.916666666666666,5.866666666666666,ScrollDown,ScrollUp,Orange.png,1,Positive,Congruent,0,0,0,0,,,,,,,,,,,,,0,19,19,19,,,,,,,,,,,,,,,,,,,,,,,,,,,,,,,,,,,,,,,,,,,,,,,,,,,,,,,,,,,,,,,,,,,,,,,,,,,,,,,,,,,,,1,1.1294246999896131,194.97836819999793,None,ScrollDown,정답입니다,194.97836819999793,None,194.97836819999793,None,194.97836819999793,None,194.97836819999793,None,195.98921229998814,None,195.98921229998814,196.5004129000008,,,,,,,,,,,,,,,,103,2022-04-28_15h21.14.841,FishGame,2022.1.1,60.001392028924535,
,21,넌 품위있어,2,Green,B,5.291666666666666,4.466666666666667,ScrollUp,ScrollDown,Green.png,1,Positive,Incongruent,0,0,0,0,,,,,,,,,,,,,0,20,20,20,,,,,,,,,,,,,,,,,,,,,,,,,,,,,,,,,,,,,,,,,,,,,,,,,,,,,,,,,,,,,,,,,,,,,,,,,,,,,,,,,,,,,2,1.2109194999939064,197.13014419999672,None,ScrollUp,정답입니다,197.13014419999672,None,197.13014419999672,None,197.13014419999672,None,197.13014419999672,None,198.23539029998938,None,198.23539029998938,198.75038139999378,,,,,,,,,,,,,,,,103,2022-04-28_15h21.14.841,FishGame,2022.1.1,60.001392028924535,
,22,넌 빈틈없어,3,Orange,A,4.833333333333333,3.966666666666667,ScrollDown,ScrollUp,Orange.png,1,Neutral,Neutral,0,0,0,0,,,,,,,,,,,,,0,21,21,21,,,,,,,,,,,,,,,,,,,,,,,,,,,,,,,,,,,,,,,,,,,,,,,,,,,,,,,,,,,,,,,,,,,,,,,,,,,,,,,,,,,,,1.1435185273488362,1.2990034999966156,199.37760709998838,None,ScrollDown,정답입니다,199.37760709998838,None,199.37760709998838,None,199.37760709998838,None,199.37760709998838,None,200.55505169999378,None,200.55505169999378,201.06724509999913,,,,,,,,,,,,,,,,103,2022-04-28_15h21.14.841,FishGame,2022.1.1,60.001392028924535,
,23,넌 상상력없어,4,Green,B,2.833333333333333,3.133333333333333,ScrollUp,ScrollDown,Green.png,1,Negative,Congruent,0,0,0,0,,,,,,,,,,,,,0,22,22,22,,,,,,,,,,,,,,,,,,,,,,,,,,,,,,,,,,,,,,,,,,,,,,,,,,,,,,,,,,,,,,,,,,,,,,,,,,,,,,,,,,,,,1.8672839452823002,1.3152002999995602,201.70024359998934,None,ScrollUp,정답입니다,201.70024359998934,None,201.70024359998934,None,201.70024359998934,None,201.70024359998934,None,202.90484799999103,None,202.90484799999103,203.417403200001,,,,,,,,,,,,,,,,103,2022-04-28_15h21.14.841,FishGame,2022.1.1,60.001392028924535,
,24,넌 지혜로워,2,Green,B,6.333333333333334,4.633333333333334,ScrollUp,ScrollDown,Green.png,1,Positive,Incongruent,0,0,0,0,,,,,,,,,,,,,0,23,23,23,,,,,,,,,,,,,,,,,,,,,,,,,,,,,,,,,,,,,,,,,,,,,,,,,,,,,,,,,,,,,,,,,,,,,,,,,,,,,,,,,,,,,2,1.2926205999974627,204.05886989999271,None,ScrollUp,정답입니다,204.05886989999271,None,204.05886989999271,None,204.05886989999271,None,204.05886989999271,None,205.23395419999724,None,205.23395419999724,205.73422629998822,,,,,,,,,,,,,,,,103,2022-04-28_15h21.14.841,FishGame,2022.1.1,60.001392028924535,
,25,넌 시끄러워,4,Orange,A,2.833333333333333,3.033333333333333,ScrollDown,ScrollUp,Orange.png,1,Negative,Incongruent,0,0,0,0,,,,,,,,,,,,,0,24,24,24,,,,,,,,,,,,,,,,,,,,,,,,,,,,,,,,,,,,,,,,,,,,,,,,,,,,,,,,,,,,,,,,,,,,,,,,,,,,,,,,,,,,,1,1.1466921000101138,206.3799294999917,None,ScrollDown,정답입니다,206.3799294999917,None,206.3799294999917,None,206.3799294999917,None,206.3799294999917,None,207.40594139999303,None,207.40594139999303,207.91753569999128,,,,,,,,,,,,,,,,103,2022-04-28_15h21.14.841,FishGame,2022.1.1,60.001392028924535,
,26,넌 만사태평이야,3,Green,B,4,4.333333333333333,ScrollUp,ScrollDown,Green.png,1,Neutral,Neutral,0,0,0,0,,,,,,,,,,,,,0,25,25,25,,,,,,,,,,,,,,,,,,,,,,,,,,,,,,,,,,,,,,,,,,,,,,,,,,,,,,,,,,,,,,,,,,,,,,,,,,,,,,,,,,,,,1.9645061492919922,1.2502991999936057,208.5564899000019,None,ScrollUp,정답입니다,208.5564899000019,None,208.5564899000019,None,208.5564899000019,None,208.5564899000019,None,209.68846449999546,None,209.68846449999546,210.2010481999896,,,,,,,,,,,,,,,,103,2022-04-28_15h21.14.841,FishGame,2022.1.1,60.001392028924535,
,27,넌 붙임성있어,1,Orange,A,5.708333333333333,5.633333333333334,ScrollDown,ScrollUp,Orange.png,1,Positive,Congruent,0,0,0,0,,,,,,,,,,,,,0,26,26,26,,,,,,,,,,,,,,,,,,,,,,,,,,,,,,,,,,,,,,,,,,,,,,,,,,,,,,,,,,,,,,,,,,,,,,,,,,,,,,,,,,,,,1.0308642089366913,1.1700143999914872,210.84538220000104,None,ScrollDown,정답입니다,210.84538220000104,None,210.84538220000104,None,210.84538220000104,None,210.84538220000104,None,211.89757819999068,None,211.89757819999068,212.4012190999929,,,,,,,,,,,,,,,,103,2022-04-28_15h21.14.841,FishGame,2022.1.1,60.001392028924535,
,28,넌 영리해,2,Orange,A,6,4.033333333333333,ScrollDown,ScrollUp,Orange.png,1,Positive,Congruent,0,0,0,0,,,,,,,,,,,,,0,27,27,27,,,,,,,,,,,,,,,,,,,,,,,,,,,,,,,,,,,,,,,,,,,,,,,,,,,,,,,,,,,,,,,,,,,,,,,,,,,,,,,,,,,,,1,1.0701097999990452,213.0360772999993,None,ScrollDown,정답입니다,213.0360772999993,None,213.0360772999993,None,213.0360772999993,None,213.0360772999993,None,213.99748399999226,None,213.99748399999226,214.5012837999966,,,,,,,,,,,,,,,,103,2022-04-28_15h21.14.841,FishGame,2022.1.1,60.001392028924535,
,29,넌 열심이야,1,Green,B,6.041666666666667,5.833333333333333,ScrollUp,ScrollDown,Green.png,1,Positive,Incongruent,0,0,0,0,,,,,,,,,,,,,0,28,28,28,,,,,,,,,,,,,,,,,,,,,,,,,,,,,,,,,,,,,,,,,,,,,,,,,,,,,,,,,,,,,,,,,,,,,,,,,,,,,,,,,,,,,2,1.0208453999948688,215.13396159998956,None,ScrollUp,정답입니다,215.13396159998956,None,215.13396159998956,None,215.13396159998956,None,215.13396159998956,None,216.04762379999738,None,216.04762379999738,216.55129289999604,,,,,,,,,,,,,,,,103,2022-04-28_15h21.14.841,FishGame,2022.1.1,60.001392028924535,
,30,넌 인기없어,4,Green,B,3,3.3,ScrollUp,ScrollDown,Green.png,1,Negative,Congruent,0,0,0,0,,,,,,,,,,,,,0,29,29,29,,,,,,,,,,,,,,,,,,,,,,,,,,,,,,,,,,,,,,,,,,,,,,,,,,,,,,,,,,,,,,,,,,,,,,,,,,,,,,,,,,,,,1.9336419701576233,1.0425685999944108,217.18212259998836,None,ScrollUp,정답입니다,217.18212259998836,None,217.18212259998836,None,217.18212259998836,None,217.18212259998836,None,218.11724490000051,None,218.11724490000051,218.61779839999508,,,,,,,,,,,,,,,,103,2022-04-28_15h21.14.841,FishGame,2022.1.1,60.001392028924535,
,31,넌 익살스러워,3,Orange,A,4.708333333333334,4.833333333333333,ScrollDown,ScrollUp,Orange.png,1,Neutral,Neutral,0,0,0,0,,,,,,,,,,,,,0,30,30,30,,,,,,,,,,,,,,,,,,,,,,,,,,,,,,,,,,,,,,,,,,,,,,,,,,,,,,,,,,,,,,,,,,,,,,,,,,,,,,,,,,,,,1,1.0644059000042034,219.26569919999747,None,ScrollDown,정답입니다,219.26569919999747,None,219.26569919999747,None,219.26569919999747,None,219.26569919999747,None,220.20536290000018,None,220.20536290000018,220.71761379999225,,,,,,,,,,,,,,,,103,2022-04-28_15h21.14.841,FishGame,2022.1.1,60.001392028924535,
,32,넌 이기적이야,5,Green,B,2.291666666666667,2.333333333333333,ScrollUp,ScrollDown,Green.png,1,Negative,Congruent,0,0,0,0,,,,,,,,,,,,,0,31,31,31,,,,,,,,,,,,,,,,,,,,,,,,,,,,,,,,,,,,,,,,,,,,,,,,,,,,,,,,,,,,,,,,,,,,,,,,,,,,,,,,,,,,,2,1.0396858999883989,221.34485919999133,None,ScrollUp,정답입니다,221.34485919999133,None,221.34485919999133,None,221.34485919999133,None,221.34485919999133,None,222.2841696999967,None,222.2841696999967,222.7847529999999,,,,,,,,,,,,,,,,103,2022-04-28_15h21.14.841,FishGame,2022.1.1,60.001392028924535,
,33,나를 데려가줘,6,Green,B,0,0,ScrollDown,ScrollUp,Green.png,1,NonTarget,NonTarget,0,0,0,0,,,,,,,,,,,,,0,32,32,32,,,,,,,,,,,,,,,,,,,,,,,,,,,,,,,,,,,,,,,,,,,,,,,,,,,,,,,,,,,,,,,,,,,,,,,,,,,,,,,,,,,,,1.016975333293279,1.4718778999958886,223.41302909998922,None,ScrollDown,정답입니다,223.41302909998922,None,223.41302909998922,None,223.41302909998922,None,223.41302909998922,None,224.78398149998975,None,224.78398149998975,225.28382240000064,,,,,,,,,,,,,,,,103,2022-04-28_15h21.14.841,FishGame,2022.1.1,60.001392028924535,
,34,넌 기회주의자야,5,Orange,A,2.875,2.133333333333333,ScrollDown,ScrollUp,Orange.png,1,Negative,Incongruent,0,0,0,0,,,,,,,,,,,,,0,33,33,33,,,,,,,,,,,,,,,,,,,,,,,,,,,,,,,,,,,,,,,,,,,,,,,,,,,,,,,,,,,,,,,,,,,,,,,,,,,,,,,,,,,,,1,1.2427430999960052,225.94020479999017,None,ScrollDown,정답입니다,225.94020479999017,None,225.94020479999017,None,225.94020479999017,None,225.94020479999017,None,227.05083899998863,None,227.05083899998863,227.55113339998934,,,,,,,,,,,,,,,,103,2022-04-28_15h21.14.841,FishGame,2022.1.1,60.001392028924535,
,1,넌 미성숙해,4,Orange,A,3,3.2,ScrollDown,ScrollUp,Orange.png,2,Negative,Incongruent,0,0,0,0,,,,,,,,,,,,,,,,,0,0,0,0,,,,,,,,,,,,,,,,,,,,,,,,,,,,,,,,,,,,,,,,260.40118039998924,261.9016214000003,261.93514779998804,262.8847926000017,262.93512049999845,263.8847875999927,263.8847875999927,None,,,,,,,,,,,,,,,,,,,,,,,,,,,,,,,,,,1.0339506367842357,1.329630600012024,265.05351249998785,None,ScrollDown,정답입니다,265.05351249998785,None,265.05351249998785,None,265.05351249998785,None,265.05351249998785,None,266.20647229999304,None,266.20647229999304,266.7187949999934,228.05090539999946,None,228.05090539999946,None,0.14722222,-0.12407407,1,0,0,0.015730030005215667,None,258.0516435999889,None,,,103,2022-04-28_15h21.14.841,FishGame,2022.1.1,60.001392028924535,
,2,넌 반사회적이야,5,Green,B,2.416666666666667,2.033333333333333,ScrollUp,ScrollDown,Green.png,2,Negative,Congruent,0,0,0,0,,,,,,,,,,,,,,,,,0,1,1,1,,,,,,,,,,,,,,,,,,,,,,,,,,,,,,,,,,,,,,,,,,,,,,,,,,,,,,,,,,,,,,,,,,,,,,,,,,,,,,,,,2,1.20491509999556,267.3525232999964,None,ScrollUp,정답입니다,267.3525232999964,None,267.3525232999964,None,267.3525232999964,None,267.3525232999964,None,268.4486758999992,None,268.4486758999992,268.9519389999914,,,,,,,,,,,,,,,,103,2022-04-28_15h21.14.841,FishGame,2022.1.1,60.001392028924535,
,3,넌 유능해,2,Orange,A,6.208333333333333,4.433333333333334,ScrollDown,ScrollUp,Orange.png,2,Positive,Congruent,0,0,0,0,,,,,,,,,,,,,,,,,0,2,2,2,,,,,,,,,,,,,,,,,,,,,,,,,,,,,,,,,,,,,,,,,,,,,,,,,,,,,,,,,,,,,,,,,,,,,,,,,,,,,,,,,1,1.356219900000724,269.5903738999914,None,ScrollDown,정답입니다,269.5903738999914,None,269.5903738999914,None,269.5903738999914,None,269.5903738999914,None,270.83525279999594,None,270.83525279999594,271.33568899999955,,,,,,,,,,,,,,,,103,2022-04-28_15h21.14.841,FishGame,2022.1.1,60.001392028924535,
,4,넌 능숙해,2,Green,B,5.666666666666667,4.733333333333333,ScrollUp,ScrollDown,Green.png,2,Positive,Incongruent,0,0,0,0,,,,,,,,,,,,,,,,,0,3,3,3,,,,,,,,,,,,,,,,,,,,,,,,,,,,,,,,,,,,,,,,,,,,,,,,,,,,,,,,,,,,,,,,,,,,,,,,,,,,,,,,,1.9074074079593022,1.1013188000069931,271.9630038999894,None,ScrollUp,정답입니다,271.9630038999894,None,271.9630038999894,None,271.9630038999894,None,271.9630038999894,None,272.96529959999316,None,272.96529959999316,273.4686495999922,,,,,,,,,,,,,,,,103,2022-04-28_15h21.14.841,FishGame,2022.1.1,60.001392028924535,
,5,넌 진부해,4,Green,B,2.458333333333333,3.166666666666667,ScrollUp,ScrollDown,Green.png,2,Negative,Congruent,0,0,0,0,,,,,,,,,,,,,,,,,0,4,4,4,,,,,,,,,,,,,,,,,,,,,,,,,,,,,,,,,,,,,,,,,,,,,,,,,,,,,,,,,,,,,,,,,,,,,,,,,,,,,,,,,2,1.0743696999998065,274.1038664999942,None,ScrollUp,정답입니다,274.1038664999942,None,274.1038664999942,None,274.1038664999942,None,274.1038664999942,None,275.06846529999166,None,275.06846529999166,275.5690068999975,,,,,,,,,,,,,,,,103,2022-04-28_15h21.14.841,FishGame,2022.1.1,60.001392028924535,
,6,나를 보내줘,6,Orange,A,0,0,ScrollUp,ScrollDown,Orange.png,2,NonTarget,NonTarget,0,0,0,0,,,,,,,,,,,,,,,,,0,5,5,5,,,,,,,,,,,,,,,,,,,,,,,,,,,,,,,,,,,,,,,,,,,,,,,,,,,,,,,,,,,,,,,,,,,,,,,,,,,,,,,,,1.785493830839793,1.5487894999969285,276.2023845999938,None,ScrollUp,정답입니다,276.2023845999938,None,276.2023845999938,None,276.2023845999938,None,276.2023845999938,None,277.6401264999877,None,277.6401264999877,278.15236500000174,,,,,,,,,,,,,,,,103,2022-04-28_15h21.14.841,FishGame,2022.1.1,60.001392028924535,
,7,넌 엄격해,3,Orange,A,4.166666666666666,4.1,ScrollDown,ScrollUp,Orange.png,2,Neutral,Neutral,0,0,0,0,,,,,,,,,,,,,,,,,0,6,6,6,,,,,,,,,,,,,,,,,,,,,,,,,,,,,,,,,,,,,,,,,,,,,,,,,,,,,,,,,,,,,,,,,,,,,,,,,,,,,,,,,1,1.155769599994528,278.7918321999896,None,ScrollDown,정답입니다,278.7918321999896,None,278.7918321999896,None,278.7918321999896,None,278.7918321999896,None,279.8320020999963,None,279.8320020999963,280.3356005999958,,,,,,,,,,,,,,,,103,2022-04-28_15h21.14.841,FishGame,2022.1.1,60.001392028924535,
,8,나를 보내줘,6,Orange,A,0,0,ScrollUp,ScrollDown,Orange.png,2,NonTarget,NonTarget,0,0,0,0,,,,,,,,,,,,,,,,,0,7,7,7,,,,,,,,,,,,,,,,,,,,,,,,,,,,,,,,,,,,,,,,,,,,,,,,,,,,,,,,,,,,,,,,,,,,,,,,,,,,,,,,,2,1.1043082999967737,280.967485199988,None,ScrollUp,정답입니다,280.967485199988,None,280.967485199988,None,280.967485199988,None,280.967485199988,None,281.9656474999938,None,281.9656474999938,282.46940459999314,,,,,,,,,,,,,,,,103,2022-04-28_15h21.14.841,FishGame,2022.1.1,60.001392028924535,
,9,넌 대담해,3,Green,B,4.875,4.866666666666666,ScrollUp,ScrollDown,Green.png,2,Neutral,Neutral,0,0,0,0,,,,,,,,,,,,,,,,,0,8,8,8,,,,,,,,,,,,,,,,,,,,,,,,,,,,,,,,,,,,,,,,,,,,,,,,,,,,,,,,,,,,,,,,,,,,,,,,,,,,,,,,,2,1.208888900000602,283.10387379999156,None,ScrollUp,정답입니다,283.10387379999156,None,283.10387379999156,None,283.10387379999156,None,283.10387379999156,None,284.2023397000012,None,284.2023397000012,284.7022130999976,,,,,,,,,,,,,,,,103,2022-04-28_15h21.14.841,FishGame,2022.1.1,60.001392028924535,
,10,넌 꾸준해,1,Orange,A,5.916666666666668,5.8,ScrollDown,ScrollUp,Orange.png,2,Positive,Congruent,0,0,0,0,,,,,,,,,,,,,,,,,0,9,9,9,,,,,,,,,,,,,,,,,,,,,,,,,,,,,,,,,,,,,,,,,,,,,,,,,,,,,,,,,,,,,,,,,,,,,,,,,,,,,,,,,1,1.0948517999931937,285.34270860000106,None,ScrollDown,정답입니다,285.34270860000106,None,285.34270860000106,None,285.34270860000106,None,285.34270860000106,None,286.3226355999941,None,286.3226355999941,286.83615329999884,,,,,,,,,,,,,,,,103,2022-04-28_15h21.14.841,FishGame,2022.1.1,60.001392028924535,
,11,나를 데려가줘,6,Green,B,0,0,ScrollDown,ScrollUp,Green.png,2,NonTarget,NonTarget,0,0,0,0,,,,,,,,,,,,,,,,,0,10,10,10,,,,,,,,,,,,,,,,,,,,,,,,,,,,,,,,,,,,,,,,,,,,,,,,,,,,,,,,,,,,,,,,,,,,,,,,,,,,,,,,,1,1.2557978999975603,287.4665060999978,None,ScrollDown,정답입니다,287.4665060999978,None,287.4665060999978,None,287.4665060999978,None,287.4665060999978,None,288.61858159999247,None,288.61858159999247,289.1196646999888,,,,,,,,,,,,,,,,103,2022-04-28_15h21.14.841,FishGame,2022.1.1,60.001392028924535,
,12,넌 독선적이야,5,Orange,A,2.458333333333333,1.933333333333333,ScrollDown,ScrollUp,Orange.png,2,Negative,Incongruent,0,0,0,0,,,,,,,,,,,,,,,,,0,11,11,11,,,,,,,,,,,,,,,,,,,,,,,,,,,,,,,,,,,,,,,,,,,,,,,,,,,,,,,,,,,,,,,,,,,,,,,,,,,,,,,,,1,1.3470767000108026,289.77021709999826,None,ScrollDown,정답입니다,289.77021709999826,None,289.77021709999826,None,289.77021709999826,None,289.77021709999826,None,290.99038579998887,None,290.99038579998887,291.5023516999936,,,,,,,,,,,,,,,,103,2022-04-28_15h21.14.841,FishGame,2022.1.1,60.001392028924535,
,13,나를 보내줘,6,Orange,A,0,0,ScrollUp,ScrollDown,Orange.png,2,NonTarget,NonTarget,0,0,0,0,,,,,,,,,,,,,,,,,0,12,12,12,,,,,,,,,,,,,,,,,,,,,,,,,,,,,,,,,,,,,,,,,,,,,,,,,,,,,,,,,,,,,,,,,,,,,,,,,,,,,,,,,2,1.1310725999937858,292.13764059999085,None,ScrollUp,정답입니다,292.13764059999085,None,292.13764059999085,None,292.13764059999085,None,292.13764059999085,None,293.15678799999296,None,293.15678799999296,293.6692309999926,,,,,,,,,,,,,,,,103,2022-04-28_15h21.14.841,FishGame,2022.1.1,60.001392028924535,
,14,넌 책임감있어,1,Green,B,6.347826086956522,6,ScrollUp,ScrollDown,Green.png,2,Positive,Incongruent,0,0,0,0,,,,,,,,,,,,,,,,,0,13,13,13,,,,,,,,,,,,,,,,,,,,,,,,,,,,,,,,,,,,,,,,,,,,,,,,,,,,,,,,,,,,,,,,,,,,,,,,,,,,,,,,,1.9938271641731262,1.2403224000008777,294.30870709999,None,ScrollUp,정답입니다,294.30870709999,None,294.30870709999,None,294.30870709999,None,294.30870709999,None,295.43586369999684,None,295.43586369999684,295.9357683999988,,,,,,,,,,,,,,,,103,2022-04-28_15h21.14.841,FishGame,2022.1.1,60.001392028924535,
,15,넌 문학적이야,3,Orange,A,4.708333333333334,4.333333333333333,ScrollDown,ScrollUp,Orange.png,2,Neutral,Neutral,0,0,0,0,,,,,,,,,,,,,,,,,0,14,14,14,,,,,,,,,,,,,,,,,,,,,,,,,,,,,,,,,,,,,,,,,,,,,,,,,,,,,,,,,,,,,,,,,,,,,,,,,,,,,,,,,1,1.126305500001763,296.5785032999993,None,ScrollDown,정답입니다,296.5785032999993,None,296.5785032999993,None,296.5785032999993,None,296.5785032999993,None,297.588170499992,None,297.588170499992,298.102819199994,,,,,,,,,,,,,,,,103,2022-04-28_15h21.14.841,FishGame,2022.1.1,60.001392028924535,
,16,넌 재미있어,1,Green,B,5.875,5.7,ScrollUp,ScrollDown,Green.png,2,Positive,Incongruent,0,0,0,0,,,,,,,,,,,,,,,,,0,15,15,15,,,,,,,,,,,,,,,,,,,,,,,,,,,,,,,,,,,,,,,,,,,,,,,,,,,,,,,,,,,,,,,,,,,,,,,,,,,,,,,,,2,1.3678791999991518,298.72773369999777,None,ScrollUp,정답입니다,298.72773369999777,None,298.72773369999777,None,298.72773369999777,None,298.72773369999777,None,299.9994371999928,None,299.9994371999928,300.50229049999325,,,,,,,,,,,,,,,,103,2022-04-28_15h21.14.841,FishGame,2022.1.1,60.001392028924535,
,17,나를 데려가줘,6,Green,B,0,0,ScrollDown,ScrollUp,Green.png,2,NonTarget,NonTarget,0,0,0,0,,,,,,,,,,,,,,,,,0,16,16,16,,,,,,,,,,,,,,,,,,,,,,,,,,,,,,,,,,,,,,,,,,,,,,,,,,,,,,,,,,,,,,,,,,,,,,,,,,,,,,,,,1,2.355317699999432,301.1293505999929,None,ScrollDown,정답입니다,301.1293505999929,None,301.1293505999929,None,301.1293505999929,None,301.1293505999929,None,303.38594659999944,None,303.38594659999944,303.8864781000011,,,,,,,,,,,,,,,,103,2022-04-28_15h21.14.841,FishGame,2022.1.1,60.001392028924535,
,18,넌 협력적이야,1,Orange,A,5.625,5.633333333333334,ScrollDown,ScrollUp,Orange.png,2,Positive,Congruent,0,0,0,0,,,,,,,,,,,,,,,,,0,17,17,17,,,,,,,,,,,,,,,,,,,,,,,,,,,,,,,,,,,,,,,,,,,,,,,,,,,,,,,,,,,,,,,,,,,,,,,,,,,,,,,,,1,1.198537899996154,304.5273499999894,None,ScrollDown,정답입니다,304.5273499999894,None,304.5273499999894,None,304.5273499999894,None,304.5273499999894,None,305.60723899998993,None,305.60723899998993,306.11926510000194,,,,,,,,,,,,,,,,103,2022-04-28_15h21.14.841,FishGame,2022.1.1,60.001392028924535,
,19,넌 평범해,3,Green,B,4.333333333333332,4.233333333333333,ScrollUp,ScrollDown,Green.png,2,Neutral,Neutral,0,0,0,0,,,,,,,,,,,,,,,,,0,18,18,18,,,,,,,,,,,,,,,,,,,,,,,,,,,,,,,,,,,,,,,,,,,,,,,,,,,,,,,,,,,,,,,,,,,,,,,,,,,,,,,,,2,1.210798199987039,306.7496981000004,None,ScrollUp,정답입니다,306.7496981000004,None,306.7496981000004,None,306.7496981000004,None,306.7496981000004,None,307.8549193999934,None,307.8549193999934,308.3690889999998,,,,,,,,,,,,,,,,103,2022-04-28_15h21.14.841,FishGame,2022.1.1,60.001392028924535,
,20,넌 오만해,5,Orange,A,2.333333333333333,2,ScrollDown,ScrollUp,Orange.png,2,Negative,Incongruent,0,0,0,0,,,,,,,,,,,,,,,,,0,19,19,19,,,,,,,,,,,,,,,,,,,,,,,,,,,,,,,,,,,,,,,,,,,,,,,,,,,,,,,,,,,,,,,,,,,,,,,,,,,,,,,,,1,1.1534225000068545,309.00383869999496,None,ScrollDown,정답입니다,309.00383869999496,None,309.00383869999496,None,309.00383869999496,None,309.00383869999496,None,310.04914109999663,None,310.04914109999663,310.5527263999975,,,,,,,,,,,,,,,,103,2022-04-28_15h21.14.841,FishGame,2022.1.1,60.001392028924535,
,21,넌 운이없어,4,Green,B,3,3.466666666666667,ScrollUp,ScrollDown,Green.png,2,Negative,Congruent,0,0,0,0,,,,,,,,,,,,,,,,,0,20,20,20,,,,,,,,,,,,,,,,,,,,,,,,,,,,,,,,,,,,,,,,,,,,,,,,,,,,,,,,,,,,,,,,,,,,,,,,,,,,,,,,,2,2.26985660000355,311.1864435999887,None,ScrollUp,정답입니다,311.1864435999887,None,311.1864435999887,None,311.1864435999887,None,311.1864435999887,None,313.3492075999966,None,313.3492075999966,313.85304560000077,,,,,,,,,,,,,,,,103,2022-04-28_15h21.14.841,FishGame,2022.1.1,60.001392028924535,
,22,넌 창조적이야,2,Green,B,6.125,4.633333333333334,ScrollUp,ScrollDown,Green.png,2,Positive,Incongruent,0,0,0,0,,,,,,,,,,,,,,,,,0,21,21,21,,,,,,,,,,,,,,,,,,,,,,,,,,,,,,,,,,,,,,,,,,,,,,,,,,,,,,,,,,,,,,,,,,,,,,,,,,,,,,,,,2,1.4689789999974892,314.4887313999934,None,ScrollUp,정답입니다,314.4887313999934,None,314.4887313999934,None,314.4887313999934,None,314.4887313999934,None,315.8496432999964,None,315.8496432999964,316.35299400000076,,,,,,,,,,,,,,,,103,2022-04-28_15h21.14.841,FishGame,2022.1.1,60.001392028924535,
,23,나를 보내줘,6,Orange,A,0,0,ScrollUp,ScrollDown,Orange.png,2,NonTarget,NonTarget,0,0,0,0,,,,,,,,,,,,,,,,,0,22,22,22,,,,,,,,,,,,,,,,,,,,,,,,,,,,,,,,,,,,,,,,,,,,,,,,,,,,,,,,,,,,,,,,,,,,,,,,,,,,,,,,,2,1.455254700005753,316.98539190000156,None,ScrollUp,정답입니다,316.98539190000156,None,316.98539190000156,None,316.98539190000156,None,316.98539190000156,None,318.3328829999955,None,318.3328829999955,318.8357251999987,,,,,,,,,,,,,,,,103,2022-04-28_15h21.14.841,FishGame,2022.1.1,60.001392028924535,
,24,넌 통찰력있어,2,Orange,A,6.5,4.8,ScrollDown,ScrollUp,Orange.png,2,Positive,Congruent,0,0,0,0,,,,,,,,,,,,,,,,,0,23,23,23,,,,,,,,,,,,,,,,,,,,,,,,,,,,,,,,,,,,,,,,,,,,,,,,,,,,,,,,,,,,,,,,,,,,,,,,,,,,,,,,,1,1.1024781000014627,319.48217309999745,None,ScrollDown,정답입니다,319.48217309999745,None,319.48217309999745,None,319.48217309999745,None,319.48217309999745,None,320.4656825999991,None,320.4656825999991,320.96983279999404,,,,,,,,,,,,,,,,103,2022-04-28_15h21.14.841,FishGame,2022.1.1,60.001392028924535,
,25,넌 경솔해,5,Green,B,2.458333333333333,2.266666666666667,ScrollUp,ScrollDown,Green.png,2,Negative,Congruent,0,0,0,0,,,,,,,,,,,,,,,,,0,24,24,24,,,,,,,,,,,,,,,,,,,,,,,,,,,,,,,,,,,,,,,,,,,,,,,,,,,,,,,,,,,,,,,,,,,,,,,,,,,,,,,,,2,1.1448777000041446,321.6104561999964,None,ScrollUp,정답입니다,321.6104561999964,None,321.6104561999964,None,321.6104561999964,None,321.6104561999964,None,322.6399387999991,None,322.6399387999991,323.1531498999975,,,,,,,,,,,,,,,,103,2022-04-28_15h21.14.841,FishGame,2022.1.1,60.001392028924535,
,26,넌 초조해,4,Orange,A,2.916666666666667,3.133333333333333,ScrollDown,ScrollUp,Orange.png,2,Negative,Incongruent,0,0,0,0,,,,,,,,,,,,,,,,,0,25,25,25,,,,,,,,,,,,,,,,,,,,,,,,,,,,,,,,,,,,,,,,,,,,,,,,,,,,,,,,,,,,,,,,,,,,,,,,,,,,,,,,,1,1.1401818000013009,323.7898516999994,None,ScrollDown,정답입니다,323.7898516999994,None,323.7898516999994,None,323.7898516999994,None,323.7898516999994,None,324.81959189999907,None,324.81959189999907,325.319439999992,,,,,,,,,,,,,,,,103,2022-04-28_15h21.14.841,FishGame,2022.1.1,60.001392028924535,
,27,넌 무관심해,4,Green,B,2.833333333333333,2.9,ScrollUp,ScrollDown,Green.png,2,Negative,Congruent,0,0,0,0,,,,,,,,,,,,,,,,,0,26,26,26,,,,,,,,,,,,,,,,,,,,,,,,,,,,,,,,,,,,,,,,,,,,,,,,,,,,,,,,,,,,,,,,,,,,,,,,,,,,,,,,,2,1.0805039999977453,325.9498142999946,None,ScrollUp,정답입니다,325.9498142999946,None,325.9498142999946,None,325.9498142999946,None,325.9498142999946,None,326.92534129999694,None,326.92534129999694,327.4366183999955,,,,,,,,,,,,,,,,103,2022-04-28_15h21.14.841,FishGame,2022.1.1,60.001392028924535,
,28,넌 감성적이야,3,Green,B,4.125,4.166666666666667,ScrollUp,ScrollDown,Green.png,2,Neutral,Neutral,0,0,0,0,,,,,,,,,,,,,,,,,0,27,27,27,,,,,,,,,,,,,,,,,,,,,,,,,,,,,,,,,,,,,,,,,,,,,,,,,,,,,,,,,,,,,,,,,,,,,,,,,,,,,,,,,2,1.089655000003404,328.0633974999946,None,ScrollUp,정답입니다,328.0633974999946,None,328.0633974999946,None,328.0633974999946,None,328.0633974999946,None,329.05300400000124,None,329.05300400000124,329.55273929999385,,,,,,,,,,,,,,,,103,2022-04-28_15h21.14.841,FishGame,2022.1.1,60.001392028924535,
,29,넌 배려심있어,1,Orange,A,6.083333333333333,5.5,ScrollDown,ScrollUp,Orange.png,2,Positive,Congruent,0,0,0,0,,,,,,,,,,,,,,,,,0,28,28,28,,,,,,,,,,,,,,,,,,,,,,,,,,,,,,,,,,,,,,,,,,,,,,,,,,,,,,,,,,,,,,,,,,,,,,,,,,,,,,,,,1,1.0150115999858826,330.18960509999306,None,ScrollDown,정답입니다,330.18960509999306,None,330.18960509999306,None,330.18960509999306,None,330.18960509999306,None,331.0916993999999,None,331.0916993999999,331.6025604999886,,,,,,,,,,,,,,,,103,2022-04-28_15h21.14.841,FishGame,2022.1.1,60.001392028924535,
,30,넌 숨김없어,3,Orange,A,4.5,4.933333333333334,ScrollDown,ScrollUp,Orange.png,2,Neutral,Neutral,0,0,0,0,,,,,,,,,,,,,,,,,0,29,29,29,,,,,,,,,,,,,,,,,,,,,,,,,,,,,,,,,,,,,,,,,,,,,,,,,,,,,,,,,,,,,,,,,,,,,,,,,,,,,,,,,1,1.0273468999948818,332.24643410000135,None,ScrollDown,정답입니다,332.24643410000135,None,332.24643410000135,None,332.24643410000135,None,332.24643410000135,None,333.1561847999983,None,333.1561847999983,333.6697181999916,,,,,,,,,,,,,,,,103,2022-04-28_15h21.14.841,FishGame,2022.1.1,60.001392028924535,
,31,넌 훌륭해,2,Green,B,5.916666666666667,4.033333333333333,ScrollUp,ScrollDown,Green.png,2,Positive,Incongruent,0,0,0,0,,,,,,,,,,,,,,,,,0,30,30,30,,,,,,,,,,,,,,,,,,,,,,,,,,,,,,,,,,,,,,,,,,,,,,,,,,,,,,,,,,,,,,,,,,,,,,,,,,,,,,,,,2,1.1953634999954375,334.30332179999095,None,ScrollUp,정답입니다,334.30332179999095,None,334.30332179999095,None,334.30332179999095,None,334.30332179999095,None,335.38886069999717,None,335.38886069999717,335.9036974999908,,,,,,,,,,,,,,,,103,2022-04-28_15h21.14.841,FishGame,2022.1.1,60.001392028924535,
,32,넌 슬기로워,2,Orange,A,6.166666666666667,4.1,ScrollDown,ScrollUp,Orange.png,2,Positive,Congruent,0,0,0,0,,,,,,,,,,,,,,,,,0,31,31,31,,,,,,,,,,,,,,,,,,,,,,,,,,,,,,,,,,,,,,,,,,,,,,,,,,,,,,,,,,,,,,,,,,,,,,,,,,,,,,,,,1,0.948792199997115,336.542203399993,None,ScrollDown,정답입니다,336.542203399993,None,336.542203399993,None,336.542203399993,None,336.542203399993,None,337.37480839999625,None,337.37480839999625,337.8864966999972,,,,,,,,,,,,,,,,103,2022-04-28_15h21.14.841,FishGame,2022.1.1,60.001392028924535,
,33,넌 냉혹해,5,Orange,A,2.583333333333333,2.1,ScrollDown,ScrollUp,Orange.png,2,Negative,Incongruent,0,0,0,0,,,,,,,,,,,,,,,,,0,32,32,32,,,,,,,,,,,,,,,,,,,,,,,,,,,,,,,,,,,,,,,,,,,,,,,,,,,,,,,,,,,,,,,,,,,,,,,,,,,,,,,,,1,1.0207719999889378,338.5308290999965,None,ScrollDown,정답입니다,338.5308290999965,None,338.5308290999965,None,338.5308290999965,None,338.5308290999965,None,339.43291649999446,None,339.43291649999446,339.937024999992,,,,,,,,,,,,,,,,103,2022-04-28_15h21.14.841,FishGame,2022.1.1,60.001392028924535,
,34,나를 데려가줘,6,Green,B,0,0,ScrollDown,ScrollUp,Green.png,2,NonTarget,NonTarget,0,0,0,0,,,,,,,,,,,,,,,,,0,33,33,33,,,,,,,,,,,,,,,,,,,,,,,,,,,,,,,,,,,,,,,,,,,,,,,,,,,,,,,,,,,,,,,,,,,,,,,,,,,,,,,,,1,1.139141199993901,340.5644845999923,None,ScrollDown,정답입니다,340.5644845999923,None,340.5644845999923,None,340.5644845999923,None,340.5644845999923,None,341.6026456999971,None,341.6026456999971,342.10361209999246,,,,,,,,,,,,,,,,103,2022-04-28_15h21.14.841,FishGame,2022.1.1,60.001392028924535,
,35,넌 편파적이야,5,Green,B,2.125,2,ScrollUp,ScrollDown,Green.png,2,Negative,Congruent,0,0,0,0,,,,,,,,,,,,,,,,,0,34,34,34,,,,,,,,,,,,,,,,,,,,,,,,,,,,,,,,,,,,,,,,,,,,,,,,,,,,,,,,,,,,,,,,,,,,,,,,,,,,,,,,,2,0.9885268000070937,342.737509899991,None,ScrollUp,정답입니다,342.737509899991,None,342.737509899991,None,342.737509899991,None,342.737509899991,None,343.6165819000016,None,343.6165819000016,344.11997970000084,,,,,,,,,,,,,,,,103,2022-04-28_15h21.14.841,FishGame,2022.1.1,60.001392028924535,
,36,넌 슬퍼,4,Orange,A,2.583333333333333,3.066666666666667,ScrollDown,ScrollUp,Orange.png,2,Negative,Incongruent,0,0,0,0,,,,,,,,,,,,,,,,,0,35,35,35,,,,,,,,,,,,,,,,,,,,,,,,,,,,,,,,,,,,,,,,,,,,,,,,,,,,,,,,,,,,,,,,,,,,,,,,,,,,,,,,,1,1.1538969000102952,344.74966859999404,None,ScrollDown,정답입니다,344.74966859999404,None,344.74966859999404,None,344.74966859999404,None,344.74966859999404,None,345.80027829999744,None,345.80027829999744,346.30386409998755,,,,,,,,,,,,,,,,103,2022-04-28_15h21.14.841,FishGame,2022.1.1,60.001392028924535,
,37,나를 데려가줘,6,Green,B,0,0,ScrollDown,ScrollUp,Green.png,2,NonTarget,NonTarget,0,0,0,0,,,,,,,,,,,,,,,,,0,36,36,36,,,,,,,,,,,,,,,,,,,,,,,,,,,,,,,,,,,,,,,,,,,,,,,,,,,,,,,,,,,,,,,,,,,,,,,,,,,,,,,,,1,1.1078656000026967,346.93038009999145,None,ScrollDown,정답입니다,346.93038009999145,None,346.93038009999145,None,346.93038009999145,None,346.93038009999145,None,347.93654939999396,None,347.93654939999396,348.43722789999447,,,,,,,,,,,,,,,,103,2022-04-28_15h21.14.841,FishGame,2022.1.1,60.001392028924535,
,38,넌 친절해,1,Green,B,6.041666666666667,5.533333333333333,ScrollUp,ScrollDown,Green.png,2,Positive,Incongruent,0,0,0,0,,,,,,,,,,,,,,,,,0,37,37,37,,,,,,,,,,,,,,,,,,,,,,,,,,,,,,,,,,,,,,,,,,,,,,,,,,,,,,,,,,,,,,,,,,,,,,,,,,,,,,,,,2,1.0910980999906315,349.07978359999834,None,ScrollUp,정답입니다,349.07978359999834,None,349.07978359999834,None,349.07978359999834,None,349.07978359999834,None,350.053697299998,None,350.053697299998,350.553854400001,,,,,,,,,,,,,,,,103,2022-04-28_15h21.14.841,FishGame,2022.1.1,60.001392028924535,
,1,넌 엉성해,4,Orange,A,3,3.3,ScrollDown,ScrollUp,Orange.png,3,Negative,Incongruent,0,0,0,0,,,,,,,,,,,,,,,,,,,,,0,0,0,0,,,,,,,,,,,,,,,,,,,,,,,,,,,,,,,,,,,,383.1710372999951,384.67115029999695,384.7047160999937,385.6546534999943,385.7042970999901,386.6547339999961,386.6547339999961,None,,,,,,,,,,,,,,,,,,,,,,,,,,,,,,,,,,1,1.2360076000040863,387.81047569999646,None,ScrollDown,정답입니다,387.81047569999646,None,387.81047569999646,None,387.81047569999646,None,387.81047569999646,None,388.8875359999947,None,388.8875359999947,389.38804359998903,351.05394699999306,None,351.05394699999306,None,0.18611111,-0.1287037,1,0,0,0.016289229999529198,None,381.0539385000011,None,,,103,2022-04-28_15h21.14.841,FishGame,2022.1.1,60.001392028924535,
,2,나를 보내줘,6,Orange,A,0,0,ScrollUp,ScrollDown,Orange.png,3,NonTarget,NonTarget,0,0,0,0,,,,,,,,,,,,,,,,,,,,,0,1,1,1,,,,,,,,,,,,,,,,,,,,,,,,,,,,,,,,,,,,,,,,,,,,,,,,,,,,,,,,,,,,,,,,,,,,,,,,,,,,,2,1.1880222999898251,390.02410729999247,None,ScrollUp,정답입니다,390.02410729999247,None,390.02410729999247,None,390.02410729999247,None,390.02410729999247,None,391.1041258999903,None,391.1041258999903,391.6040367999958,,,,,,,,,,,,,,,,103,2022-04-28_15h21.14.841,FishGame,2022.1.1,60.001392028924535,
,3,넌 활발해,1,Green,B,5.666666666666667,5.6,ScrollUp,ScrollDown,Green.png,3,Positive,Incongruent,0,0,0,0,,,,,,,,,,,,,,,,,,,,,0,2,2,2,,,,,,,,,,,,,,,,,,,,,,,,,,,,,,,,,,,,,,,,,,,,,,,,,,,,,,,,,,,,,,,,,,,,,,,,,,,,,2,1.097631700002239,392.24241529998835,None,ScrollUp,정답입니다,392.24241529998835,None,392.24241529998835,None,392.24241529998835,None,392.24241529998835,None,393.22581669999636,None,393.22581669999636,393.7381192999892,,,,,,,,,,,,,,,,103,2022-04-28_15h21.14.841,FishGame,2022.1.1,60.001392028924535,
,4,넌 논리적이야,2,Orange,A,5.666666666666666,4.633333333333334,ScrollDown,ScrollUp,Orange.png,3,Positive,Congruent,0,0,0,0,,,,,,,,,,,,,,,,,,,,,0,3,3,3,,,,,,,,,,,,,,,,,,,,,,,,,,,,,,,,,,,,,,,,,,,,,,,,,,,,,,,,,,,,,,,,,,,,,,,,,,,,,1,1.113167200004682,394.3782638999983,None,ScrollDown,정답입니다,394.3782638999983,None,394.3782638999983,None,394.3782638999983,None,394.3782638999983,None,395.3760770999943,None,395.3760770999943,395.8879092999996,,,,,,,,,,,,,,,,103,2022-04-28_15h21.14.841,FishGame,2022.1.1,60.001392028924535,
,5,넌 과묵해,3,Orange,A,3.875,4.4,ScrollDown,ScrollUp,Orange.png,3,Neutral,Neutral,0,0,0,0,,,,,,,,,,,,,,,,,,,,,0,4,4,4,,,,,,,,,,,,,,,,,,,,,,,,,,,,,,,,,,,,,,,,,,,,,,,,,,,,,,,,,,,,,,,,,,,,,,,,,,,,,1.0231481393178303,1.1005711000034353,396.5238440999965,None,ScrollDown,정답입니다,396.5238440999965,None,396.5238440999965,None,396.5238440999965,None,396.5238440999965,None,397.5086158999911,None,397.5086158999911,398.0211616999877,,,,,,,,,,,,,,,,103,2022-04-28_15h21.14.841,FishGame,2022.1.1,60.001392028924535,
,6,나를 데려가줘,6,Green,B,0,0,ScrollDown,ScrollUp,Green.png,3,NonTarget,NonTarget,0,0,0,0,,,,,,,,,,,,,,,,,,,,,0,5,5,5,,,,,,,,,,,,,,,,,,,,,,,,,,,,,,,,,,,,,,,,,,,,,,,,,,,,,,,,,,,,,,,,,,,,,,,,,,,,,1,1.0911577000078978,398.6468961999926,None,ScrollDown,정답입니다,398.6468961999926,None,398.6468961999926,None,398.6468961999926,None,398.6468961999926,None,399.63770159998967,None,399.63770159998967,400.1381267999968,,,,,,,,,,,,,,,,103,2022-04-28_15h21.14.841,FishGame,2022.1.1,60.001392028924535,
,7,넌 미숙해,4,Green,B,3,3,ScrollUp,ScrollDown,Green.png,3,Negative,Congruent,0,0,0,0,,,,,,,,,,,,,,,,,,,,,0,6,6,6,,,,,,,,,,,,,,,,,,,,,,,,,,,,,,,,,,,,,,,,,,,,,,,,,,,,,,,,,,,,,,,,,,,,,,,,,,,,,2,1.1507008000044152,400.76621459999296,None,ScrollUp,정답입니다,400.76621459999296,None,400.76621459999296,None,400.76621459999296,None,400.76621459999296,None,401.817784400002,None,401.817784400002,402.3216947999899,,,,,,,,,,,,,,,,103,2022-04-28_15h21.14.841,FishGame,2022.1.1,60.001392028924535,
,8,나를 보내줘,6,Orange,A,0,0,ScrollUp,ScrollDown,Orange.png,3,NonTarget,NonTarget,0,0,0,0,,,,,,,,,,,,,,,,,,,,,0,7,7,7,,,,,,,,,,,,,,,,,,,,,,,,,,,,,,,,,,,,,,,,,,,,,,,,,,,,,,,,,,,,,,,,,,,,,,,,,,,,,1.9567901293436687,1.0913559000036912,402.95438369999465,None,ScrollUp,정답입니다,402.95438369999465,None,402.95438369999465,None,402.95438369999465,None,402.95438369999465,None,403.9379231999919,None,403.9379231999919,404.438041699992,,,,,,,,,,,,,,,,103,2022-04-28_15h21.14.841,FishGame,2022.1.1,60.001392028924535,
,9,넌 자신만만해,3,Green,B,4.833333333333334,4.333333333333333,ScrollUp,ScrollDown,Green.png,3,Neutral,Neutral,0,0,0,0,,,,,,,,,,,,,,,,,,,,,0,8,8,8,,,,,,,,,,,,,,,,,,,,,,,,,,,,,,,,,,,,,,,,,,,,,,,,,,,,,,,,,,,,,,,,,,,,,,,,,,,,,2,1.271589199997834,405.07151429999794,None,ScrollUp,정답입니다,405.07151429999794,None,405.07151429999794,None,405.07151429999794,None,405.07151429999794,None,406.23449619999155,None,406.23449619999155,406.7382082999975,,,,,,,,,,,,,,,,103,2022-04-28_15h21.14.841,FishGame,2022.1.1,60.001392028924535,
,10,넌 탐욕스러워,5,Orange,A,2.25,2.1,ScrollDown,ScrollUp,Orange.png,3,Negative,Incongruent,0,0,0,0,,,,,,,,,,,,,,,,,,,,,0,9,9,9,,,,,,,,,,,,,,,,,,,,,,,,,,,,,,,,,,,,,,,,,,,,,,,,,,,,,,,,,,,,,,,,,,,,,,,,,,,,,1,1.077873999995063,407.389620499991,None,ScrollDown,정답입니다,407.389620499991,None,407.389620499991,None,407.389620499991,None,407.389620499991,None,408.3397811999894,None,408.3397811999894,408.85501020000083,,,,,,,,,,,,,,,,103,2022-04-28_15h21.14.841,FishGame,2022.1.1,60.001392028924535,
,11,넌 인기있어,2,Orange,A,5.458333333333333,4.5,ScrollDown,ScrollUp,Orange.png,3,Positive,Congruent,0,0,0,0,,,,,,,,,,,,,,,,,,,,,0,10,10,10,,,,,,,,,,,,,,,,,,,,,,,,,,,,,,,,,,,,,,,,,,,,,,,,,,,,,,,,,,,,,,,,,,,,,,,,,,,,,1,1.1412790000031237,409.4867132999934,None,ScrollDown,정답입니다,409.4867132999934,None,409.4867132999934,None,409.4867132999934,None,409.4867132999934,None,410.52154289999453,None,410.52154289999453,411.0215701999987,,,,,,,,,,,,,,,,103,2022-04-28_15h21.14.841,FishGame,2022.1.1,60.001392028924535,
,12,나를 데려가줘,6,Green,B,0,0,ScrollDown,ScrollUp,Green.png,3,NonTarget,NonTarget,0,0,0,0,,,,,,,,,,,,,,,,,,,,,0,11,11,11,,,,,,,,,,,,,,,,,,,,,,,,,,,,,,,,,,,,,,,,,,,,,,,,,,,,,,,,,,,,,,,,,,,,,,,,,,,,,1,1.1409380000113742,411.6537993999955,None,ScrollDown,정답입니다,411.6537993999955,None,411.6537993999955,None,411.6537993999955,None,411.6537993999955,None,412.6879975999909,None,412.6879975999909,413.18823669999256,,,,,,,,,,,,,,,,103,2022-04-28_15h21.14.841,FishGame,2022.1.1,60.001392028924535,
,13,넌 뛰어나,2,Green,B,6.166666666666667,4,ScrollUp,ScrollDown,Green.png,3,Positive,Incongruent,0,0,0,0,,,,,,,,,,,,,,,,,,,,,0,12,12,12,,,,,,,,,,,,,,,,,,,,,,,,,,,,,,,,,,,,,,,,,,,,,,,,,,,,,,,,,,,,,,,,,,,,,,,,,,,,,2,1.2244123999989824,413.82233189999533,None,ScrollUp,정답입니다,413.82233189999533,None,413.82233189999533,None,413.82233189999533,None,413.82233189999533,None,414.9381740999961,None,414.9381740999961,415.43848339999386,,,,,,,,,,,,,,,,103,2022-04-28_15h21.14.841,FishGame,2022.1.1,60.001392028924535,
,14,넌 낙관적이야,1,Orange,A,5.75,5.8,ScrollDown,ScrollUp,Orange.png,3,Positive,Congruent,0,0,0,0,,,,,,,,,,,,,,,,,,,,,0,13,13,13,,,,,,,,,,,,,,,,,,,,,,,,,,,,,,,,,,,,,,,,,,,,,,,,,,,,,,,,,,,,,,,,,,,,,,,,,,,,,1,1.155772000012803,416.0825921999931,None,ScrollDown,정답입니다,416.0825921999931,None,416.0825921999931,None,416.0825921999931,None,416.0825921999931,None,417.12153749998834,None,417.12153749998834,417.62165839999216,,,,,,,,,,,,,,,,103,2022-04-28_15h21.14.841,FishGame,2022.1.1,60.001392028924535,
,15,넌 산만해,4,Green,B,2.695652173913043,3.033333333333333,ScrollUp,ScrollDown,Green.png,3,Negative,Congruent,0,0,0,0,,,,,,,,,,,,,,,,,,,,,0,14,14,14,,,,,,,,,,,,,,,,,,,,,,,,,,,,,,,,,,,,,,,,,,,,,,,,,,,,,,,,,,,,,,,,,,,,,,,,,,,,,2,1.1389429999981076,418.25432919999,None,ScrollUp,정답입니다,418.25432919999,None,418.25432919999,None,418.25432919999,None,418.25432919999,None,419.2882685999939,None,419.2882685999939,419.7888174999971,,,,,,,,,,,,,,,,103,2022-04-28_15h21.14.841,FishGame,2022.1.1,60.001392028924535,
,16,나를 보내줘,6,Orange,A,0,0,ScrollUp,ScrollDown,Orange.png,3,NonTarget,NonTarget,0,0,0,0,,,,,,,,,,,,,,,,,,,,,0,15,15,15,,,,,,,,,,,,,,,,,,,,,,,,,,,,,,,,,,,,,,,,,,,,,,,,,,,,,,,,,,,,,,,,,,,,,,,,,,,,,2,1.5780010000016773,420.4208535999933,None,ScrollUp,정답입니다,420.4208535999933,None,420.4208535999933,None,420.4208535999933,None,420.4208535999933,None,421.8896897999948,None,421.8896897999948,422.40516809999826,,,,,,,,,,,,,,,,103,2022-04-28_15h21.14.841,FishGame,2022.1.1,60.001392028924535,
,17,넌 교활해,5,Green,B,2.333333333333333,2.133333333333333,ScrollUp,ScrollDown,Green.png,3,Negative,Congruent,0,0,0,0,,,,,,,,,,,,,,,,,,,,,0,16,16,16,,,,,,,,,,,,,,,,,,,,,,,,,,,,,,,,,,,,,,,,,,,,,,,,,,,,,,,,,,,,,,,,,,,,,,,,,,,,,2,1.2513124999968568,423.0414202999964,None,ScrollUp,정답입니다,423.0414202999964,None,423.0414202999964,None,423.0414202999964,None,423.0414202999964,None,424.18501200000173,None,424.18501200000173,424.68864019999455,,,,,,,,,,,,,,,,103,2022-04-28_15h21.14.841,FishGame,2022.1.1,60.001392028924535,
,18,나를 보내줘,6,Orange,A,0,0,ScrollUp,ScrollDown,Orange.png,3,NonTarget,NonTarget,0,0,0,0,,,,,,,,,,,,,,,,,,,,,0,17,17,17,,,,,,,,,,,,,,,,,,,,,,,,,,,,,,,,,,,,,,,,,,,,,,,,,,,,,,,,,,,,,,,,,,,,,,,,,,,,,2,1.1945974999980535,425.31817800000135,None,ScrollUp,정답입니다,425.31817800000135,None,425.31817800000135,None,425.31817800000135,None,425.31817800000135,None,426.40479709999636,None,426.40479709999636,426.90559669998765,,,,,,,,,,,,,,,,103,2022-04-28_15h21.14.841,FishGame,2022.1.1,60.001392028924535,
,19,넌 불친절해,5,Green,B,2.208333333333333,2.033333333333333,ScrollUp,ScrollDown,Green.png,3,Negative,Congruent,0,0,0,0,,,,,,,,,,,,,,,,,,,,,0,18,18,18,,,,,,,,,,,,,,,,,,,,,,,,,,,,,,,,,,,,,,,,,,,,,,,,,,,,,,,,,,,,,,,,,,,,,,,,,,,,,1.9953703780968983,1.5384552999894368,427.54230989998905,None,ScrollUp,정답입니다,427.54230989998905,None,427.54230989998905,None,427.54230989998905,None,427.54230989998905,None,428.97157359999255,None,428.97157359999255,429.47154769999906,,,,,,,,,,,,,,,,103,2022-04-28_15h21.14.841,FishGame,2022.1.1,60.001392028924535,
,20,넌 지적이야,2,Green,B,5.75,4.366666666666666,ScrollUp,ScrollDown,Green.png,3,Positive,Incongruent,0,0,0,0,,,,,,,,,,,,,,,,,,,,,0,19,19,19,,,,,,,,,,,,,,,,,,,,,,,,,,,,,,,,,,,,,,,,,,,,,,,,,,,,,,,,,,,,,,,,,,,,,,,,,,,,,2,1.111478699996951,430.10082009999314,None,ScrollUp,정답입니다,430.10082009999314,None,430.10082009999314,None,430.10082009999314,None,430.10082009999314,None,431.1072986999934,None,431.1072986999934,431.62211769999703,,,,,,,,,,,,,,,,103,2022-04-28_15h21.14.841,FishGame,2022.1.1,60.001392028924535,
,21,넌 우유부단해,4,Orange,A,2.666666666666667,3.166666666666667,ScrollDown,ScrollUp,Orange.png,3,Negative,Incongruent,0,0,0,0,,,,,,,,,,,,,,,,,,,,,0,20,20,20,,,,,,,,,,,,,,,,,,,,,,,,,,,,,,,,,,,,,,,,,,,,,,,,,,,,,,,,,,,,,,,,,,,,,,,,,,,,,1,1.072040900005959,432.26842509998824,None,ScrollDown,정답입니다,432.26842509998824,None,432.26842509998824,None,432.26842509998824,None,432.26842509998824,None,433.2186447999993,None,433.2186447999993,433.7222474000009,,,,,,,,,,,,,,,,103,2022-04-28_15h21.14.841,FishGame,2022.1.1,60.001392028924535,
,22,나를 데려가줘,6,Green,B,0,0,ScrollDown,ScrollUp,Green.png,3,NonTarget,NonTarget,0,0,0,0,,,,,,,,,,,,,,,,,,,,,0,21,21,21,,,,,,,,,,,,,,,,,,,,,,,,,,,,,,,,,,,,,,,,,,,,,,,,,,,,,,,,,,,,,,,,,,,,,,,,,,,,,1,1.162791800001287,434.34947079999256,None,ScrollDown,정답입니다,434.34947079999256,None,434.34947079999256,None,434.34947079999256,None,434.34947079999256,None,435.4102720999945,None,435.4102720999945,435.9219252999901,,,,,,,,,,,,,,,,103,2022-04-28_15h21.14.841,FishGame,2022.1.1,60.001392028924535,
,23,넌 성실해,1,Green,B,6.041666666666666,5.7,ScrollUp,ScrollDown,Green.png,3,Positive,Incongruent,0,0,0,0,,,,,,,,,,,,,,,,,,,,,0,22,22,22,,,,,,,,,,,,,,,,,,,,,,,,,,,,,,,,,,,,,,,,,,,,,,,,,,,,,,,,,,,,,,,,,,,,,,,,,,,,,2,1.2115061999938916,436.5489528999897,None,ScrollUp,정답입니다,436.5489528999897,None,436.5489528999897,None,436.5489528999897,None,436.5489528999897,None,437.6571502000006,None,437.6571502000006,438.1723739000008,,,,,,,,,,,,,,,,103,2022-04-28_15h21.14.841,FishGame,2022.1.1,60.001392028924535,
,24,넌 현실주의적이야,3,Orange,A,4.625,4.4,ScrollDown,ScrollUp,Orange.png,3,Neutral,Neutral,0,0,0,0,,,,,,,,,,,,,,,,,,,,,0,23,23,23,,,,,,,,,,,,,,,,,,,,,,,,,,,,,,,,,,,,,,,,,,,,,,,,,,,,,,,,,,,,,,,,,,,,,,,,,,,,,1,1.1167228999984218,438.8047566999885,None,ScrollDown,정답입니다,438.8047566999885,None,438.8047566999885,None,438.8047566999885,None,438.8047566999885,None,439.80996269999014,None,439.80996269999014,440.3219237000012,,,,,,,,,,,,,,,,103,2022-04-28_15h21.14.841,FishGame,2022.1.1,60.001392028924535,
,25,넌 진실돼,1,Orange,A,6.625,5.566666666666666,ScrollDown,ScrollUp,Orange.png,3,Positive,Congruent,0,0,0,0,,,,,,,,,,,,,,,,,,,,,0,24,24,24,,,,,,,,,,,,,,,,,,,,,,,,,,,,,,,,,,,,,,,,,,,,,,,,,,,,,,,,,,,,,,,,,,,,,,,,,,,,,1,1.088058599998476,440.9656604999909,None,ScrollDown,정답입니다,440.9656604999909,None,440.9656604999909,None,440.9656604999909,None,440.9656604999909,None,441.9387671000004,None,441.9387671000004,442.438607899996,,,,,,,,,,,,,,,,103,2022-04-28_15h21.14.841,FishGame,2022.1.1,60.001392028924535,
,26,넌 천진난만해,3,Green,B,4.958333333333334,4.833333333333333,ScrollUp,ScrollDown,Green.png,3,Neutral,Neutral,0,0,0,0,,,,,,,,,,,,,,,,,,,,,0,25,25,25,,,,,,,,,,,,,,,,,,,,,,,,,,,,,,,,,,,,,,,,,,,,,,,,,,,,,,,,,,,,,,,,,,,,,,,,,,,,,2,1.3566797000094084,443.07871269999305,None,ScrollUp,정답입니다,443.07871269999305,None,443.07871269999305,None,443.07871269999305,None,443.07871269999305,None,444.32205879999674,None,444.32205879999674,444.8219362999953,,,,,,,,,,,,,,,,103,2022-04-28_15h21.14.841,FishGame,2022.1.1,60.001392028924535,
,27,넌 교양없어,5,Orange,A,2.416666666666667,2.2,ScrollDown,ScrollUp,Orange.png,3,Negative,Incongruent,0,0,0,0,,,,,,,,,,,,,,,,,,,,,0,26,26,26,,,,,,,,,,,,,,,,,,,,,,,,,,,,,,,,,,,,,,,,,,,,,,,,,,,,,,,,,,,,,,,,,,,,,,,,,,,,,1,1.2360924999957206,445.4584518999909,None,ScrollDown,정답입니다,445.4584518999909,None,445.4584518999909,None,445.4584518999909,None,445.4584518999909,None,446.58542839999427,None,446.58542839999427,447.0890858999919,,,,,,,,,,,,,,,,103,2022-04-28_15h21.14.841,FishGame,2022.1.1,60.001392028924535,
,28,나를 보내줘,6,Orange,A,0,0,ScrollUp,ScrollDown,Orange.png,3,NonTarget,NonTarget,0,0,0,0,,,,,,,,,,,,,,,,,,,,,0,27,27,27,,,,,,,,,,,,,,,,,,,,,,,,,,,,,,,,,,,,,,,,,,,,,,,,,,,,,,,,,,,,,,,,,,,,,,,,,,,,,2,1.2019465000048513,447.71944899999653,None,ScrollUp,정답입니다,447.71944899999653,None,447.71944899999653,None,447.71944899999653,None,447.71944899999653,None,448.81837090000045,None,448.81837090000045,449.3220636999904,,,,,,,,,,,,,,,,103,2022-04-28_15h21.14.841,FishGame,2022.1.1,60.001392028924535,
,29,넌 엉뚱스러워,3,Orange,A,4.166666666666667,4.133333333333334,ScrollDown,ScrollUp,Orange.png,3,Neutral,Neutral,0,0,0,0,,,,,,,,,,,,,,,,,,,,,0,28,28,28,,,,,,,,,,,,,,,,,,,,,,,,,,,,,,,,,,,,,,,,,,,,,,,,,,,,,,,,,,,,,,,,,,,,,,,,,,,,,1,1.247695300000487,449.96477569999115,None,ScrollDown,정답입니다,449.96477569999115,None,449.96477569999115,None,449.96477569999115,None,449.96477569999115,None,451.09354899999744,None,451.09354899999744,451.60604509999393,,,,,,,,,,,,,,,,103,2022-04-28_15h21.14.841,FishGame,2022.1.1,60.001392028924535,
,30,넌 무지해,4,Green,B,2.541666666666667,3.066666666666667,ScrollUp,ScrollDown,Green.png,3,Negative,Congruent,0,0,0,0,,,,,,,,,,,,,,,,,,,,,0,29,29,29,,,,,,,,,,,,,,,,,,,,,,,,,,,,,,,,,,,,,,,,,,,,,,,,,,,,,,,,,,,,,,,,,,,,,,,,,,,,,2,1.222249099999317,452.2571923999931,None,ScrollUp,정답입니다,452.2571923999931,None,452.2571923999931,None,452.2571923999931,None,452.2571923999931,None,453.3556122000009,None,453.3556122000009,453.85597309999866,,,,,,,,,,,,,,,,103,2022-04-28_15h21.14.841,FishGame,2022.1.1,60.001392028924535,
,31,넌 음울해,5,Green,B,2.25,2.233333333333333,ScrollUp,ScrollDown,Green.png,3,Negative,Congruent,0,0,0,0,,,,,,,,,,,,,,,,,,,,,0,30,30,30,,,,,,,,,,,,,,,,,,,,,,,,,,,,,,,,,,,,,,,,,,,,,,,,,,,,,,,,,,,,,,,,,,,,,,,,,,,,,2,2.1322558999963803,454.49617769999895,None,ScrollUp,정답입니다,454.49617769999895,None,454.49617769999895,None,454.49617769999895,None,454.49617769999895,None,456.5100956999959,None,456.5100956999959,457.0222420999926,,,,,,,,,,,,,,,,103,2022-04-28_15h21.14.841,FishGame,2022.1.1,60.001392028924535,
,32,넌 냉소적이야,5,Orange,A,2.916666666666667,2.4,ScrollDown,ScrollUp,Orange.png,3,Negative,Incongruent,0,0,0,0,,,,,,,,,,,,,,,,,,,,,0,31,31,31,,,,,,,,,,,,,,,,,,,,,,,,,,,,,,,,,,,,,,,,,,,,,,,,,,,,,,,,,,,,,,,,,,,,,,,,,,,,,1,1.108738099996117,457.65389879999566,None,ScrollDown,정답입니다,457.65389879999566,None,457.65389879999566,None,457.65389879999566,None,457.65389879999566,None,458.6558634999965,None,458.6558634999965,459.1558001999947,,,,,,,,,,,,,,,,103,2022-04-28_15h21.14.841,FishGame,2022.1.1,60.001392028924535,
,33,나를 데려가줘,6,Green,B,0,0,ScrollDown,ScrollUp,Green.png,3,NonTarget,NonTarget,0,0,0,0,,,,,,,,,,,,,,,,,,,,,0,32,32,32,,,,,,,,,,,,,,,,,,,,,,,,,,,,,,,,,,,,,,,,,,,,,,,,,,,,,,,,,,,,,,,,,,,,,,,,,,,,,1,1.1315964000095846,459.78765129999374,None,ScrollDown,정답입니다,459.78765129999374,None,459.78765129999374,None,459.78765129999374,None,459.78765129999374,None,460.8101416999998,None,460.8101416999998,461.322786299992,,,,,,,,,,,,,,,,103,2022-04-28_15h21.14.841,FishGame,2022.1.1,60.001392028924535,
,34,넌 쾌활해,1,Orange,A,5.541666666666666,5.733333333333333,ScrollDown,ScrollUp,Orange.png,3,Positive,Congruent,0,0,0,0,,,,,,,,,,,,,,,,,,,,,0,33,33,33,,,,,,,,,,,,,,,,,,,,,,,,,,,,,,,,,,,,,,,,,,,,,,,,,,,,,,,,,,,,,,,,,,,,,,,,,,,,,1,1.0906061999994563,461.97563249999075,None,ScrollDown,정답입니다,461.97563249999075,None,461.97563249999075,None,461.97563249999075,None,461.97563249999075,None,462.938607899996,None,462.938607899996,463.4393177999882,,,,,,,,,,,,,,,,103,2022-04-28_15h21.14.841,FishGame,2022.1.1,60.001392028924535,
,35,나를 보내줘,6,Orange,A,0,0,ScrollUp,ScrollDown,Orange.png,3,NonTarget,NonTarget,0,0,0,0,,,,,,,,,,,,,,,,,,,,,0,34,34,34,,,,,,,,,,,,,,,,,,,,,,,,,,,,,,,,,,,,,,,,,,,,,,,,,,,,,,,,,,,,,,,,,,,,,,,,,,,,,2,1.2891726000088966,464.07566039999074,None,ScrollUp,정답입니다,464.07566039999074,None,464.07566039999074,None,464.07566039999074,None,464.07566039999074,None,465.25556449999567,None,465.25556449999567,465.75578099999984,,,,,,,,,,,,,,,,103,2022-04-28_15h21.14.841,FishGame,2022.1.1,60.001392028924535,
,36,넌 명랑해,1,Green,B,5.739130434782609,5.666666666666667,ScrollUp,ScrollDown,Green.png,3,Positive,Incongruent,0,0,0,0,,,,,,,,,,,,,,,,,,,,,0,35,35,35,,,,,,,,,,,,,,,,,,,,,,,,,,,,,,,,,,,,,,,,,,,,,,,,,,,,,,,,,,,,,,,,,,,,,,,,,,,,,2,1.3168185999966227,466.38965579999785,None,ScrollUp,정답입니다,466.38965579999785,None,466.38965579999785,None,466.38965579999785,None,466.38965579999785,None,467.59372879999864,None,467.59372879999864,468.10594019999553,,,,,,,,,,,,,,,,103,2022-04-28_15h21.14.841,FishGame,2022.1.1,60.001392028924535,
,37,넌 멍해,4,Orange,A,2.833333333333333,3.4,ScrollDown,ScrollUp,Orange.png,3,Negative,Incongruent,0,0,0,0,,,,,,,,,,,,,,,,,,,,,0,36,36,36,,,,,,,,,,,,,,,,,,,,,,,,,,,,,,,,,,,,,,,,,,,,,,,,,,,,,,,,,,,,,,,,,,,,,,,,,,,,,1,1.3403170999954455,468.74223969999,None,ScrollDown,정답입니다,468.74223969999,None,468.74223969999,None,468.74223969999,None,468.74223969999,None,469.97276959999,None,469.97276959999,470.4726665999915,,,,,,,,,,,,,,,,103,2022-04-28_15h21.14.841,FishGame,2022.1.1,60.001392028924535,
,38,나를 데려가줘,6,Green,B,0,0,ScrollDown,ScrollUp,Green.png,3,NonTarget,NonTarget,0,0,0,0,,,,,,,,,,,,,,,,,,,,,0,37,37,37,,,,,,,,,,,,,,,,,,,,,,,,,,,,,,,,,,,,,,,,,,,,,,,,,,,,,,,,,,,,,,,,,,,,,,,,,,,,,1,1.2404076999955578,471.1010696000012,None,ScrollDown,정답입니다,471.1010696000012,None,471.1010696000012,None,471.1010696000012,None,471.1010696000012,None,472.2391545999999,None,472.2391545999999,472.7393318999966,,,,,,,,,,,,,,,,103,2022-04-28_15h21.14.841,FishGame,2022.1.1,60.001392028924535,
,39,넌 현명해,2,Orange,A,6.541666666666666,4.533333333333333,ScrollDown,ScrollUp,Orange.png,3,Positive,Congruent,0,0,0,0,,,,,,,,,,,,,,,,,,,,,0,38,38,38,,,,,,,,,,,,,,,,,,,,,,,,,,,,,,,,,,,,,,,,,,,,,,,,,,,,,,,,,,,,,,,,,,,,,,,,,,,,,1,1.0245563999924343,473.37201079999795,None,ScrollDown,정답입니다,473.37201079999795,None,473.37201079999795,None,473.37201079999795,None,473.37201079999795,None,474.2890999999945,None,474.2890999999945,474.78920189999917,,,,,,,,,,,,,,,,103,2022-04-28_15h21.14.841,FishGame,2022.1.1,60.001392028924535,
,40,넌 수줍어,3,Green,B,3.541666666666666,4.366666666666666,ScrollUp,ScrollDown,Green.png,3,Neutral,Neutral,0,0,0,0,,,,,,,,,,,,,,,,,,,,,0,39,39,39,,,,,,,,,,,,,,,,,,,,,,,,,,,,,,,,,,,,,,,,,,,,,,,,,,,,,,,,,,,,,,,,,,,,,,,,,,,,,2,1.184486800004379,475.42659869999625,None,ScrollUp,정답입니다,475.42659869999625,None,475.42659869999625,None,475.42659869999625,None,475.42659869999625,None,476.5025607999996,None,476.5025607999996,477.0067629999976,,,,,,,,,,,,,,,,103,2022-04-28_15h21.14.841,FishGame,2022.1.1,60.001392028924535,
,41,나를 데려가줘,6,Green,B,0,0,ScrollDown,ScrollUp,Green.png,3,NonTarget,NonTarget,0,0,0,0,,,,,,,,,,,,,,,,,,,,,0,40,40,40,,,,,,,,,,,,,,,,,,,,,,,,,,,,,,,,,,,,,,,,,,,,,,,,,,,,,,,,,,,,,,,,,,,,,,,,,,,,,1,1.1083749999961583,477.63921519998985,None,ScrollDown,정답입니다,477.63921519998985,None,477.63921519998985,None,477.63921519998985,None,477.63921519998985,None,478.6396767999977,None,478.6396767999977,479.1393137999985,,,,,,,,,,,,,,,,103,2022-04-28_15h21.14.841,FishGame,2022.1.1,60.001392028924535,
,42,넌 성숙해,2,Green,B,5.833333333333333,4.533333333333333,ScrollUp,ScrollDown,Green.png,3,Positive,Incongruent,0,0,0,0,,,,,,,,,,,,,,,,,,,,,0,41,41,41,,,,,,,,,,,,,,,,,,,,,,,,,,,,,,,,,,,,,,,,,,,,,,,,,,,,,,,,,,,,,,,,,,,,,,,,,,,,,2,1.157823899993673,479.7706242999993,None,ScrollUp,정답입니다,479.7706242999993,None,479.7706242999993,None,479.7706242999993,None,479.7706242999993,None,480.8225388999999,None,480.8225388999999,481.32326769999054,,,,,,,,,,,,,,,,103,2022-04-28_15h21.14.841,FishGame,2022.1.1,60.001392028924535,
,1,넌 매력적이야,2,Green,B,6.125,4.666666666666667,ScrollUp,ScrollDown,Green.png,4,Positive,Incongruent,0,0,0,0,,,,,,,,,,,,,,,,,,,,,,,,,0,0,0,0,,,,,,,,,,,,,,,,,,,,,,,,,,,,,,,,514.5067191999988,516.0068890999974,516.0402506999962,516.9904868000012,517.0403934999922,517.9907066000014,517.9907066000014,None,,,,,,,,,,,,,,,,,,,,,,,,,,,,,,,,,,2,1.4730381999979727,519.1392423999932,None,ScrollUp,정답입니다,519.1392423999932,None,519.1392423999932,None,519.1392423999932,None,519.1392423999932,None,520.4567079999979,None,520.4567079999979,520.9572969000001,481.82321389998833,None,481.82321389998833,None,0.18240741,-0.12962963,0,0,0,0.01632272999268025,None,511.8233873999998,None,,,103,2022-04-28_15h21.14.841,FishGame,2022.1.1,60.001392028924535,
,2,나를 보내줘,6,Orange,A,0,0,ScrollUp,ScrollDown,Orange.png,4,NonTarget,NonTarget,0,0,0,0,,,,,,,,,,,,,,,,,,,,,,,,,0,1,1,1,,,,,,,,,,,,,,,,,,,,,,,,,,,,,,,,,,,,,,,,,,,,,,,,,,,,,,,,,,,,,,,,,,,,,,,,,2,1.3854509999946458,521.5891096999985,None,ScrollUp,정답입니다,521.5891096999985,None,521.5891096999985,None,521.5891096999985,None,521.5891096999985,None,522.8702313999966,None,522.8702313999966,523.3738156999898,,,,,,,,,,,,,,,,103,2022-04-28_15h21.14.841,FishGame,2022.1.1,60.001392028924535,
,3,넌 조심스러워,3,Orange,A,4.791666666666666,4.666666666666667,ScrollDown,ScrollUp,Orange.png,4,Neutral,Neutral,0,0,0,0,,,,,,,,,,,,,,,,,,,,,,,,,0,2,2,2,,,,,,,,,,,,,,,,,,,,,,,,,,,,,,,,,,,,,,,,,,,,,,,,,,,,,,,,,,,,,,,,,,,,,,,,,1,1.139075999992201,524.0065022999916,None,ScrollDown,정답입니다,524.0065022999916,None,524.0065022999916,None,524.0065022999916,None,524.0065022999916,None,525.0402622999973,None,525.0402622999973,525.5405306999892,,,,,,,,,,,,,,,,103,2022-04-28_15h21.14.841,FishGame,2022.1.1,60.001392028924535,
,4,넌 철학적이야,3,Green,B,4.5,4.266666666666667,ScrollUp,ScrollDown,Green.png,4,Neutral,Neutral,0,0,0,0,,,,,,,,,,,,,,,,,,,,,,,,,0,3,3,3,,,,,,,,,,,,,,,,,,,,,,,,,,,,,,,,,,,,,,,,,,,,,,,,,,,,,,,,,,,,,,,,,,,,,,,,,2,1.1679054999985965,526.1772845999949,None,ScrollUp,정답입니다,526.1772845999949,None,526.1772845999949,None,526.1772845999949,None,526.1772845999949,None,527.2370675999991,None,527.2370675999991,527.7403531000018,,,,,,,,,,,,,,,,103,2022-04-28_15h21.14.841,FishGame,2022.1.1,60.001392028924535,
,5,넌 쩨쩨해,5,Orange,A,2.375,2.133333333333333,ScrollDown,ScrollUp,Orange.png,4,Negative,Incongruent,0,0,0,0,,,,,,,,,,,,,,,,,,,,,,,,,0,4,4,4,,,,,,,,,,,,,,,,,,,,,,,,,,,,,,,,,,,,,,,,,,,,,,,,,,,,,,,,,,,,,,,,,,,,,,,,,1.0061728358268738,1.424585400003707,528.3738447999931,None,ScrollDown,정답입니다,528.3738447999931,None,528.3738447999931,None,528.3738447999931,None,528.3738447999931,None,529.6904218999989,None,529.6904218999989,530.1903652999899,,,,,,,,,,,,,,,,103,2022-04-28_15h21.14.841,FishGame,2022.1.1,60.001392028924535,
,6,나를 데려가줘,6,Green,B,0,0,ScrollDown,ScrollUp,Green.png,4,NonTarget,NonTarget,0,0,0,0,,,,,,,,,,,,,,,,,,,,,,,,,0,5,5,5,,,,,,,,,,,,,,,,,,,,,,,,,,,,,,,,,,,,,,,,,,,,,,,,,,,,,,,,,,,,,,,,,,,,,,,,,1,1.2617967999976827,530.8189638999902,None,ScrollDown,정답입니다,530.8189638999902,None,530.8189638999902,None,530.8189638999902,None,530.8189638999902,None,531.9776857999968,None,531.9776857999968,532.4906119999941,,,,,,,,,,,,,,,,103,2022-04-28_15h21.14.841,FishGame,2022.1.1,60.001392028924535,
,7,넌 고집불통이야,5,Green,B,2.875,2,ScrollUp,ScrollDown,Green.png,4,Negative,Congruent,0,0,0,0,,,,,,,,,,,,,,,,,,,,,,,,,0,6,6,6,,,,,,,,,,,,,,,,,,,,,,,,,,,,,,,,,,,,,,,,,,,,,,,,,,,,,,,,,,,,,,,,,,,,,,,,,2,1.2392050999915227,533.1347913999925,None,ScrollUp,정답입니다,533.1347913999925,None,533.1347913999925,None,533.1347913999925,None,533.1347913999925,None,534.2573403999995,None,534.2573403999995,534.7573279999924,,,,,,,,,,,,,,,,103,2022-04-28_15h21.14.841,FishGame,2022.1.1,60.001392028924535,
,8,넌 무심해,4,Orange,A,2.875,3.2,ScrollDown,ScrollUp,Orange.png,4,Negative,Incongruent,0,0,0,0,,,,,,,,,,,,,,,,,,,,,,,,,0,7,7,7,,,,,,,,,,,,,,,,,,,,,,,,,,,,,,,,,,,,,,,,,,,,,,,,,,,,,,,,,,,,,,,,,,,,,,,,,1,1.2284559000108857,535.3898138999939,None,ScrollDown,정답입니다,535.3898138999939,None,535.3898138999939,None,535.3898138999939,None,535.3898138999939,None,536.5113008999906,None,536.5113008999906,537.023687199995,,,,,,,,,,,,,,,,103,2022-04-28_15h21.14.841,FishGame,2022.1.1,60.001392028924535,
,9,넌 정겨워,1,Orange,A,5.791666666666667,5.666666666666667,ScrollDown,ScrollUp,Orange.png,4,Positive,Congruent,0,0,0,0,,,,,,,,,,,,,,,,,,,,,,,,,0,8,8,8,,,,,,,,,,,,,,,,,,,,,,,,,,,,,,,,,,,,,,,,,,,,,,,,,,,,,,,,,,,,,,,,,,,,,,,,,1,1.1063013999955729,537.6632652999979,None,ScrollDown,정답입니다,537.6632652999979,None,537.6632652999979,None,537.6632652999979,None,537.6632652999979,None,538.6572058999882,None,538.6572058999882,539.1572509999969,,,,,,,,,,,,,,,,103,2022-04-28_15h21.14.841,FishGame,2022.1.1,60.001392028924535,
,10,나를 데려가줘,6,Green,B,0,0,ScrollDown,ScrollUp,Green.png,4,NonTarget,NonTarget,0,0,0,0,,,,,,,,,,,,,,,,,,,,,,,,,0,9,9,9,,,,,,,,,,,,,,,,,,,,,,,,,,,,,,,,,,,,,,,,,,,,,,,,,,,,,,,,,,,,,,,,,,,,,,,,,1,1.2425889000005554,539.7850163999974,None,ScrollDown,정답입니다,539.7850163999974,None,539.7850163999974,None,539.7850163999974,None,539.7850163999974,None,540.9241247999889,None,540.9241247999889,541.4239225999918,,,,,,,,,,,,,,,,103,2022-04-28_15h21.14.841,FishGame,2022.1.1,60.001392028924535,
,11,넌 체제순응적이야,4,Green,B,3,3.6,ScrollUp,ScrollDown,Green.png,4,Negative,Congruent,0,0,0,0,,,,,,,,,,,,,,,,,,,,,,,,,0,10,10,10,,,,,,,,,,,,,,,,,,,,,,,,,,,,,,,,,,,,,,,,,,,,,,,,,,,,,,,,,,,,,,,,,,,,,,,,,2,1.3238726999989012,542.069513999988,None,ScrollUp,정답입니다,542.069513999988,None,542.069513999988,None,542.069513999988,None,542.069513999988,None,543.2739796999958,None,543.2739796999958,543.7745818999974,,,,,,,,,,,,,,,,103,2022-04-28_15h21.14.841,FishGame,2022.1.1,60.001392028924535,
,12,나를 보내줘,6,Orange,A,0,0,ScrollUp,ScrollDown,Orange.png,4,NonTarget,NonTarget,0,0,0,0,,,,,,,,,,,,,,,,,,,,,,,,,0,11,11,11,,,,,,,,,,,,,,,,,,,,,,,,,,,,,,,,,,,,,,,,,,,,,,,,,,,,,,,,,,,,,,,,,,,,,,,,,2,1.3918647000100464,544.4071913999942,None,ScrollUp,정답입니다,544.4071913999942,None,544.4071913999942,None,544.4071913999942,None,544.4071913999942,None,545.6900938999897,None,545.6900938999897,546.1909158999915,,,,,,,,,,,,,,,,103,2022-04-28_15h21.14.841,FishGame,2022.1.1,60.001392028924535,
,13,넌 박식해,2,Orange,A,5.625,3.933333333333333,ScrollDown,ScrollUp,Orange.png,4,Positive,Congruent,0,0,0,0,,,,,,,,,,,,,,,,,,,,,,,,,0,12,12,12,,,,,,,,,,,,,,,,,,,,,,,,,,,,,,,,,,,,,,,,,,,,,,,,,,,,,,,,,,,,,,,,,,,,,,,,,1,1.5744275000033667,546.8304353999993,None,ScrollDown,정답입니다,546.8304353999993,None,546.8304353999993,None,546.8304353999993,None,546.8304353999993,None,548.290861299989,None,548.290861299989,548.7912016999908,,,,,,,,,,,,,,,,103,2022-04-28_15h21.14.841,FishGame,2022.1.1,60.001392028924535,
,14,나를 보내줘,6,Orange,A,0,0,ScrollUp,ScrollDown,Orange.png,4,NonTarget,NonTarget,0,0,0,0,,,,,,,,,,,,,,,,,,,,,,,,,0,13,13,13,,,,,,,,,,,,,,,,,,,,,,,,,,,,,,,,,,,,,,,,,,,,,,,,,,,,,,,,,,,,,,,,,,,,,,,,,2,1.3548901999893133,549.4212070999929,None,ScrollUp,정답입니다,549.4212070999929,None,549.4212070999929,None,549.4212070999929,None,549.4212070999929,None,550.6702728999953,None,550.6702728999953,551.1739994999953,,,,,,,,,,,,,,,,103,2022-04-28_15h21.14.841,FishGame,2022.1.1,60.001392028924535,
,15,넌 침착해,1,Green,B,5.458333333333333,5.566666666666666,ScrollUp,ScrollDown,Green.png,4,Positive,Incongruent,0,0,0,0,,,,,,,,,,,,,,,,,,,,,,,,,0,14,14,14,,,,,,,,,,,,,,,,,,,,,,,,,,,,,,,,,,,,,,,,,,,,,,,,,,,,,,,,,,,,,,,,,,,,,,,,,2,1.7413059000100475,551.8114885999967,None,ScrollUp,정답입니다,551.8114885999967,None,551.8114885999967,None,551.8114885999967,None,551.8114885999967,None,553.4409943999926,None,553.4409943999926,553.9411027999886,,,,,,,,,,,,,,,,103,2022-04-28_15h21.14.841,FishGame,2022.1.1,60.001392028924535,
,16,나를 데려가줘,6,Green,B,0,0,ScrollDown,ScrollUp,Green.png,4,NonTarget,NonTarget,0,0,0,0,,,,,,,,,,,,,,,,,,,,,,,,,0,15,15,15,,,,,,,,,,,,,,,,,,,,,,,,,,,,,,,,,,,,,,,,,,,,,,,,,,,,,,,,,,,,,,,,,,,,,,,,,1,1.5564291000046069,554.5694711999968,None,ScrollDown,정답입니다,554.5694711999968,None,554.5694711999968,None,554.5694711999968,None,554.5694711999968,None,556.024345599988,None,556.024345599988,556.5243338,,,,,,,,,,,,,,,,103,2022-04-28_15h21.14.841,FishGame,2022.1.1,60.001392028924535,
,17,넌 행복해,1,Orange,A,6.416666666666666,6.166666666666667,ScrollDown,ScrollUp,Orange.png,4,Positive,Congruent,0,0,0,0,,,,,,,,,,,,,,,,,,,,,,,,,0,16,16,16,,,,,,,,,,,,,,,,,,,,,,,,,,,,,,,,,,,,,,,,,,,,,,,,,,,,,,,,,,,,,,,,,,,,,,,,,1,1.2264871999941533,557.1649768999923,None,ScrollDown,정답입니다,557.1649768999923,None,557.1649768999923,None,557.1649768999923,None,557.1649768999923,None,558.2766601999901,None,558.2766601999901,558.7912901999953,,,,,,,,,,,,,,,,103,2022-04-28_15h21.14.841,FishGame,2022.1.1,60.001392028924535,
,18,넌 겸손해,2,Green,B,5.791666666666667,4.766666666666667,ScrollUp,ScrollDown,Green.png,4,Positive,Incongruent,0,0,0,0,,,,,,,,,,,,,,,,,,,,,,,,,0,17,17,17,,,,,,,,,,,,,,,,,,,,,,,,,,,,,,,,,,,,,,,,,,,,,,,,,,,,,,,,,,,,,,,,,,,,,,,,,2,1.3405152000050293,559.433338399991,None,ScrollUp,정답입니다,559.433338399991,None,559.433338399991,None,559.433338399991,None,559.433338399991,None,560.6574814999913,None,560.6574814999913,561.1576936999918,,,,,,,,,,,,,,,,103,2022-04-28_15h21.14.841,FishGame,2022.1.1,60.001392028924535,
,19,나를 보내줘,6,Orange,A,0,0,ScrollUp,ScrollDown,Orange.png,4,NonTarget,NonTarget,0,0,0,0,,,,,,,,,,,,,,,,,,,,,,,,,0,18,18,18,,,,,,,,,,,,,,,,,,,,,,,,,,,,,,,,,,,,,,,,,,,,,,,,,,,,,,,,,,,,,,,,,,,,,,,,,2,1.198306499994942,561.7890880999912,None,ScrollUp,정답입니다,561.7890880999912,None,561.7890880999912,None,561.7890880999912,None,561.7890880999912,None,562.8787649000005,None,562.8787649000005,563.3912854999944,,,,,,,,,,,,,,,,103,2022-04-28_15h21.14.841,FishGame,2022.1.1,60.001392028924535,
,20,넌 의심없어,3,Orange,A,4.166666666666667,4.6,ScrollDown,ScrollUp,Orange.png,4,Neutral,Neutral,0,0,0,0,,,,,,,,,,,,,,,,,,,,,,,,,0,19,19,19,,,,,,,,,,,,,,,,,,,,,,,,,,,,,,,,,,,,,,,,,,,,,,,,,,,,,,,,,,,,,,,,,,,,,,,,,1,1.206704299998819,564.0283709999931,None,ScrollDown,정답입니다,564.0283709999931,None,564.0283709999931,None,564.0283709999931,None,564.0283709999931,None,565.124004199999,None,565.124004199999,565.624115899991,,,,,,,,,,,,,,,,103,2022-04-28_15h21.14.841,FishGame,2022.1.1,60.001392028924535,
,21,넌 시시해,4,Orange,A,2.666666666666667,2.966666666666667,ScrollDown,ScrollUp,Orange.png,4,Negative,Incongruent,0,0,0,0,,,,,,,,,,,,,,,,,,,,,,,,,0,20,20,20,,,,,,,,,,,,,,,,,,,,,,,,,,,,,,,,,,,,,,,,,,,,,,,,,,,,,,,,,,,,,,,,,,,,,,,,,1,1.7724254000058863,566.2632390999934,None,ScrollDown,정답입니다,566.2632390999934,None,566.2632390999934,None,566.2632390999934,None,566.2632390999934,None,567.9246599999897,None,567.9246599999897,568.4248708999949,,,,,,,,,,,,,,,,103,2022-04-28_15h21.14.841,FishGame,2022.1.1,60.001392028924535,
,22,나를 데려가줘,6,Green,B,0,0,ScrollDown,ScrollUp,Green.png,4,NonTarget,NonTarget,0,0,0,0,,,,,,,,,,,,,,,,,,,,,,,,,0,21,21,21,,,,,,,,,,,,,,,,,,,,,,,,,,,,,,,,,,,,,,,,,,,,,,,,,,,,,,,,,,,,,,,,,,,,,,,,,1,1.199086399996304,569.0535161000007,None,ScrollDown,정답입니다,569.0535161000007,None,569.0535161000007,None,569.0535161000007,None,569.0535161000007,None,570.1457889000012,None,570.1457889000012,570.6580613999977,,,,,,,,,,,,,,,,103,2022-04-28_15h21.14.841,FishGame,2022.1.1,60.001392028924535,
,23,넌 무정해,5,Orange,A,2.5,2.2,ScrollDown,ScrollUp,Orange.png,4,Negative,Incongruent,0,0,0,0,,,,,,,,,,,,,,,,,,,,,,,,,0,22,22,22,,,,,,,,,,,,,,,,,,,,,,,,,,,,,,,,,,,,,,,,,,,,,,,,,,,,,,,,,,,,,,,,,,,,,,,,,1,1.2580509000108577,571.2930336999998,None,ScrollDown,정답입니다,571.2930336999998,None,571.2930336999998,None,571.2930336999998,None,571.2930336999998,None,572.4413063999964,None,572.4413063999964,572.9410804999934,,,,,,,,,,,,,,,,103,2022-04-28_15h21.14.841,FishGame,2022.1.1,60.001392028924535,
,24,넌 긍정적이야,1,Green,B,6.041666666666667,6.066666666666666,ScrollUp,ScrollDown,Green.png,4,Positive,Incongruent,0,0,0,0,,,,,,,,,,,,,,,,,,,,,,,,,0,23,23,23,,,,,,,,,,,,,,,,,,,,,,,,,,,,,,,,,,,,,,,,,,,,,,,,,,,,,,,,,,,,,,,,,,,,,,,,,2,2.0948782000050414,573.5811154999974,None,ScrollUp,정답입니다,573.5811154999974,None,573.5811154999974,None,573.5811154999974,None,573.5811154999974,None,575.5603666999959,None,575.5603666999959,576.0749722999899,,,,,,,,,,,,,,,,103,2022-04-28_15h21.14.841,FishGame,2022.1.1,60.001392028924535,
,25,나를 보내줘,6,Orange,A,0,0,ScrollUp,ScrollDown,Orange.png,4,NonTarget,NonTarget,0,0,0,0,,,,,,,,,,,,,,,,,,,,,,,,,0,24,24,24,,,,,,,,,,,,,,,,,,,,,,,,,,,,,,,,,,,,,,,,,,,,,,,,,,,,,,,,,,,,,,,,,,,,,,,,,2,1.399912900000345,576.7093358999991,None,ScrollUp,정답입니다,576.7093358999991,None,576.7093358999991,None,576.7093358999991,None,576.7093358999991,None,577.9958680999989,None,577.9958680999989,578.508144899999,,,,,,,,,,,,,,,,103,2022-04-28_15h21.14.841,FishGame,2022.1.1,60.001392028924535,
,26,넌 시기심이 많아,5,Green,B,2.458333333333333,2.233333333333333,ScrollUp,ScrollDown,Green.png,4,Negative,Congruent,0,0,0,0,,,,,,,,,,,,,,,,,,,,,,,,,0,25,25,25,,,,,,,,,,,,,,,,,,,,,,,,,,,,,,,,,,,,,,,,,,,,,,,,,,,,,,,,,,,,,,,,,,,,,,,,,2,2.6165155000053346,579.1503474999918,None,ScrollUp,정답입니다,579.1503474999918,None,579.1503474999918,None,579.1503474999918,None,579.1503474999918,None,581.6459050999983,None,581.6459050999983,582.1584409999923,,,,,,,,,,,,,,,,103,2022-04-28_15h21.14.841,FishGame,2022.1.1,60.001392028924535,
,27,넌 탁월해,2,Orange,A,5.708333333333334,4.5,ScrollDown,ScrollUp,Orange.png,4,Positive,Congruent,0,0,0,0,,,,,,,,,,,,,,,,,,,,,,,,,0,26,26,26,,,,,,,,,,,,,,,,,,,,,,,,,,,,,,,,,,,,,,,,,,,,,,,,,,,,,,,,,,,,,,,,,,,,,,,,,1,1.282672500004992,582.797748699988,None,ScrollDown,정답입니다,582.797748699988,None,582.797748699988,None,582.797748699988,None,582.797748699988,None,583.9626455999969,None,583.9626455999969,584.475031199996,,,,,,,,,,,,,,,,103,2022-04-28_15h21.14.841,FishGame,2022.1.1,60.001392028924535,
,28,나를 데려가줘,6,Green,B,0,0,ScrollDown,ScrollUp,Green.png,4,NonTarget,NonTarget,0,0,0,0,,,,,,,,,,,,,,,,,,,,,,,,,0,27,27,27,,,,,,,,,,,,,,,,,,,,,,,,,,,,,,,,,,,,,,,,,,,,,,,,,,,,,,,,,,,,,,,,,,,,,,,,,1,1.1592869000014616,585.1012234999944,None,ScrollDown,정답입니다,585.1012234999944,None,585.1012234999944,None,585.1012234999944,None,585.1012234999944,None,586.1583557999984,None,586.1583557999984,586.6584827999905,,,,,,,,,,,,,,,,103,2022-04-28_15h21.14.841,FishGame,2022.1.1,60.001392028924535,
,29,넌 조용해,3,Green,B,4.333333333333333,4.166666666666667,ScrollUp,ScrollDown,Green.png,4,Neutral,Neutral,0,0,0,0,,,,,,,,,,,,,,,,,,,,,,,,,0,28,28,28,,,,,,,,,,,,,,,,,,,,,,,,,,,,,,,,,,,,,,,,,,,,,,,,,,,,,,,,,,,,,,,,,,,,,,,,,2,1.2047405999910552,587.291619399999,None,ScrollUp,정답입니다,587.291619399999,None,587.291619399999,None,587.291619399999,None,587.291619399999,None,588.3880296999996,None,588.3880296999996,588.8919406999921,,,,,,,,,,,,,,,,103,2022-04-28_15h21.14.841,FishGame,2022.1.1,60.001392028924535,
,30,넌 다정해,1,Orange,A,5.833333333333334,5.7,ScrollDown,ScrollUp,Orange.png,4,Positive,Congruent,0,0,0,0,,,,,,,,,,,,,,,,,,,,,,,,,0,29,29,29,,,,,,,,,,,,,,,,,,,,,,,,,,,,,,,,,,,,,,,,,,,,,,,,,,,,,,,,,,,,,,,,,,,,,,,,,1,1.1470666999957757,589.5267467999947,None,ScrollDown,정답입니다,589.5267467999947,None,589.5267467999947,None,589.5267467999947,None,589.5267467999947,None,590.5630849000008,None,590.5630849000008,591.0746442999953,,,,,,,,,,,,,,,,103,2022-04-28_15h21.14.841,FishGame,2022.1.1,60.001392028924535,
,31,넌 능력있어,2,Green,B,6.166666666666666,4.6,ScrollUp,ScrollDown,Green.png,4,Positive,Incongruent,0,0,0,0,,,,,,,,,,,,,,,,,,,,,,,,,0,30,30,30,,,,,,,,,,,,,,,,,,,,,,,,,,,,,,,,,,,,,,,,,,,,,,,,,,,,,,,,,,,,,,,,,,,,,,,,,2,1.6009366999933263,591.7095057999977,None,ScrollUp,정답입니다,591.7095057999977,None,591.7095057999977,None,591.7095057999977,None,591.7095057999977,None,593.2047181999951,None,593.2047181999951,593.7088713999983,,,,,,,,,,,,,,,,103,2022-04-28_15h21.14.841,FishGame,2022.1.1,60.001392028924535,
,32,넌 불쾌해,5,Orange,A,2.125,1.933333333333333,ScrollDown,ScrollUp,Orange.png,4,Negative,Incongruent,0,0,0,0,,,,,,,,,,,,,,,,,,,,,,,,,0,31,31,31,,,,,,,,,,,,,,,,,,,,,,,,,,,,,,,,,,,,,,,,,,,,,,,,,,,,,,,,,,,,,,,,,,,,,,,,,1,1.1599174000002677,594.3377215999935,None,ScrollDown,정답입니다,594.3377215999935,None,594.3377215999935,None,594.3377215999935,None,594.3377215999935,None,595.3913982999948,None,595.3913982999948,595.8915834999934,,,,,,,,,,,,,,,,103,2022-04-28_15h21.14.841,FishGame,2022.1.1,60.001392028924535,
,33,나를 데려가줘,6,Green,B,0,0,ScrollDown,ScrollUp,Green.png,4,NonTarget,NonTarget,0,0,0,0,,,,,,,,,,,,,,,,,,,,,,,,,0,32,32,32,,,,,,,,,,,,,,,,,,,,,,,,,,,,,,,,,,,,,,,,,,,,,,,,,,,,,,,,,,,,,,,,,,,,,,,,,1,1.2316724999982398,596.5206819000014,None,ScrollDown,정답입니다,596.5206819000014,None,596.5206819000014,None,596.5206819000014,None,596.5206819000014,None,597.6463508000015,None,597.6463508000015,598.158692099998,,,,,,,,,,,,,,,,103,2022-04-28_15h21.14.841,FishGame,2022.1.1,60.001392028924535,
,34,넌 유순해,3,Orange,A,4.458333333333333,5,ScrollDown,ScrollUp,Orange.png,4,Neutral,Neutral,0,0,0,0,,,,,,,,,,,,,,,,,,,,,,,,,0,33,33,33,,,,,,,,,,,,,,,,,,,,,,,,,,,,,,,,,,,,,,,,,,,,,,,,,,,,,,,,,,,,,,,,,,,,,,,,,1,1.1045288999885088,598.7888080999983,None,ScrollDown,정답입니다,598.7888080999983,None,598.7888080999983,None,598.7888080999983,None,598.7888080999983,None,599.7917927999952,None,599.7917927999952,600.2919869999896,,,,,,,,,,,,,,,,103,2022-04-28_15h21.14.841,FishGame,2022.1.1,60.001392028924535,
,35,넌 근심스러워,4,Green,B,2.708333333333333,3.133333333333333,ScrollUp,ScrollDown,Green.png,4,Negative,Congruent,0,0,0,0,,,,,,,,,,,,,,,,,,,,,,,,,0,34,34,34,,,,,,,,,,,,,,,,,,,,,,,,,,,,,,,,,,,,,,,,,,,,,,,,,,,,,,,,,,,,,,,,,,,,,,,,,2,1.356561699998565,600.9337057999946,None,ScrollUp,정답입니다,600.9337057999946,None,600.9337057999946,None,600.9337057999946,None,600.9337057999946,None,602.175270199994,None,602.175270199994,602.6754188999912,,,,,,,,,,,,,,,,103,2022-04-28_15h21.14.841,FishGame,2022.1.1,60.001392028924535,
,36,넌 세련되었어,2,Orange,A,5.5,4.6,ScrollDown,ScrollUp,Orange.png,4,Positive,Congruent,0,0,0,0,,,,,,,,,,,,,,,,,,,,,,,,,0,35,35,35,,,,,,,,,,,,,,,,,,,,,,,,,,,,,,,,,,,,,,,,,,,,,,,,,,,,,,,,,,,,,,,,,,,,,,,,,1,1.4273897999955807,603.3249372999999,None,ScrollDown,정답입니다,603.3249372999999,None,603.3249372999999,None,603.3249372999999,None,603.3249372999999,None,604.6275389999937,None,604.6275389999937,605.1422577999911,,,,,,,,,,,,,,,,103,2022-04-28_15h21.14.841,FishGame,2022.1.1,60.001392028924535,
,37,나를 보내줘,6,Orange,A,0,0,ScrollUp,ScrollDown,Orange.png,4,NonTarget,NonTarget,0,0,0,0,,,,,,,,,,,,,,,,,,,,,,,,,0,36,36,36,,,,,,,,,,,,,,,,,,,,,,,,,,,,,,,,,,,,,,,,,,,,,,,,,,,,,,,,,,,,,,,,,,,,,,,,,2,1.3518739999999525,605.7732566999912,None,ScrollUp,정답입니다,605.7732566999912,None,605.7732566999912,None,605.7732566999912,None,605.7732566999912,None,607.0218981999933,None,607.0218981999933,607.5255733999948,,,,,,,,,,,,,,,,103,2022-04-28_15h21.14.841,FishGame,2022.1.1,60.001392028924535,
,38,넌 확고해,3,Green,B,4.708333333333334,4.566666666666666,ScrollUp,ScrollDown,Green.png,4,Neutral,Neutral,0,0,0,0,,,,,,,,,,,,,,,,,,,,,,,,,0,37,37,37,,,,,,,,,,,,,,,,,,,,,,,,,,,,,,,,,,,,,,,,,,,,,,,,,,,,,,,,,,,,,,,,,,,,,,,,,2,1.5239820999995572,608.1565743999963,None,ScrollUp,정답입니다,608.1565743999963,None,608.1565743999963,None,608.1565743999963,None,608.1565743999963,None,609.5751511999988,None,609.5751511999988,610.0759891999915,,,,,,,,,,,,,,,,103,2022-04-28_15h21.14.841,FishGame,2022.1.1,60.001392028924535,
,39,넌 이해심이 많아,1,Green,B,6.041666666666668,5.533333333333333,ScrollUp,ScrollDown,Green.png,4,Positive,Incongruent,0,0,0,0,,,,,,,,,,,,,,,,,,,,,,,,,0,38,38,38,,,,,,,,,,,,,,,,,,,,,,,,,,,,,,,,,,,,,,,,,,,,,,,,,,,,,,,,,,,,,,,,,,,,,,,,,2,1.4108609999966575,610.7017690999928,None,ScrollUp,정답입니다,610.7017690999928,None,610.7017690999928,None,610.7017690999928,None,610.7017690999928,None,612.0108194999921,None,612.0108194999921,612.5258979999926,,,,,,,,,,,,,,,,103,2022-04-28_15h21.14.841,FishGame,2022.1.1,60.001392028924535,
,40,나를 보내줘,6,Orange,A,0,0,ScrollUp,ScrollDown,Orange.png,4,NonTarget,NonTarget,0,0,0,0,,,,,,,,,,,,,,,,,,,,,,,,,0,39,39,39,,,,,,,,,,,,,,,,,,,,,,,,,,,,,,,,,,,,,,,,,,,,,,,,,,,,,,,,,,,,,,,,,,,,,,,,,2,1.4067015999899013,613.1587516,None,ScrollUp,정답입니다,613.1587516,None,613.1587516,None,613.1587516,None,613.1587516,None,614.4588462999964,None,614.4588462999964,614.959031499995,,,,,,,,,,,,,,,,103,2022-04-28_15h21.14.841,FishGame,2022.1.1,60.001392028924535,
,41,넌 거칠어,4,Orange,A,2.625,3.033333333333333,ScrollDown,ScrollUp,Orange.png,4,Negative,Incongruent,0,0,0,0,,,,,,,,,,,,,,,,,,,,,,,,,0,40,40,40,,,,,,,,,,,,,,,,,,,,,,,,,,,,,,,,,,,,,,,,,,,,,,,,,,,,,,,,,,,,,,,,,,,,,,,,,1,1.3002316000056453,615.5936490999884,None,ScrollDown,정답입니다,615.5936490999884,None,615.5936490999884,None,615.5936490999884,None,615.5936490999884,None,616.7801144999976,None,616.7801144999976,617.2924043999956,,,,,,,,,,,,,,,,103,2022-04-28_15h21.14.841,FishGame,2022.1.1,60.001392028924535,
,42,넌 변덕맞아,5,Green,B,2.75,2.166666666666667,ScrollUp,ScrollDown,Green.png,4,Negative,Congruent,0,0,0,0,,,,,,,,,,,,,,,,,,,,,,,,,0,41,41,41,,,,,,,,,,,,,,,,,,,,,,,,,,,,,,,,,,,,,,,,,,,,,,,,,,,,,,,,,,,,,,,,,,,,,,,,,2,1.207275299995672,617.9345464999933,None,ScrollUp,정답입니다,617.9345464999933,None,617.9345464999933,None,617.9345464999933,None,617.9345464999933,None,619.0253702999908,None,619.0253702999908,619.5253260999889,,,,,,,,,,,,,,,,103,2022-04-28_15h21.14.841,FishGame,2022.1.1,60.001392028924535,
,43,나를 데려가줘,6,Green,B,0,0,ScrollDown,ScrollUp,Green.png,4,NonTarget,NonTarget,0,0,0,0,,,,,,,,,,,,,,,,,,,,,,,,,0,42,42,42,,,,,,,,,,,,,,,,,,,,,,,,,,,,,,,,,,,,,,,,,,,,,,,,,,,,,,,,,,,,,,,,,,,,,,,,,1,1.2736036999995122,620.1491277999885,None,ScrollDown,정답입니다,620.1491277999885,None,620.1491277999885,None,620.1491277999885,None,620.1491277999885,None,621.3254985999956,None,621.3254985999956,621.8259823999979,,,,,,,,,,,,,,,,103,2022-04-28_15h21.14.841,FishGame,2022.1.1,60.001392028924535,
,44,넌 외로워,4,Green,B,2.833333333333333,3.3,ScrollUp,ScrollDown,Green.png,4,Negative,Congruent,0,0,0,0,,,,,,,,,,,,,,,,,,,,,,,,,0,43,43,43,,,,,,,,,,,,,,,,,,,,,,,,,,,,,,,,,,,,,,,,,,,,,,,,,,,,,,,,,,,,,,,,,,,,,,,,,2,1.2925395999918692,622.4592293999885,None,ScrollUp,정답입니다,622.4592293999885,None,622.4592293999885,None,622.4592293999885,None,622.4592293999885,None,623.6423347999953,None,623.6423347999953,624.1423785999941,,,,,,,,,,,,,,,,103,2022-04-28_15h21.14.841,FishGame,2022.1.1,60.001392028924535,
,1,넌 불평스러워,5,Orange,A,2.25,2.066666666666667,ScrollDown,ScrollUp,Orange.png,5,Negative,Incongruent,0,0,0,0,,,,,,,,,,,,,,,,,,,,,,,,,,,,,0,0,0,0,,,,,,,,,,,,,,,,,,,,,,,,,,,,656.70978379999,658.2094940999959,658.2433200999949,659.1934905999951,659.2429735999904,660.1929747999966,660.1929747999966,None,,,,,,,,,,,,,,,,,,,,,,,,,,,,,,,,,,1,1.3377960999932839,661.3448317000002,None,ScrollDown,정답입니다,661.3448317000002,None,661.3448317000002,None,661.3448317000002,None,661.3448317000002,None,662.5262096999941,None,662.5262096999941,663.0262246999919,624.6423335,None,624.6423335,None,0.21481481,-0.08055556,1,0,0,0.01632512999640312,None,654.6428190000006,None,,,103,2022-04-28_15h21.14.841,FishGame,2022.1.1,60.001392028924535,
,2,나를 보내줘,6,Orange,A,0,0,ScrollUp,ScrollDown,Orange.png,5,NonTarget,NonTarget,0,0,0,0,,,,,,,,,,,,,,,,,,,,,,,,,,,,,0,1,1,1,,,,,,,,,,,,,,,,,,,,,,,,,,,,,,,,,,,,,,,,,,,,,,,,,,,,,,,,,,,,,,,,,,,,,2,1.269195300003048,663.6648952999967,None,ScrollUp,정답입니다,663.6648952999967,None,663.6648952999967,None,663.6648952999967,None,663.6648952999967,None,664.8233312999946,None,664.8233312999946,665.3265781999944,,,,,,,,,,,,,,,,103,2022-04-28_15h21.14.841,FishGame,2022.1.1,60.001392028924535,
,3,넌 다재다능해,2,Green,B,6.208333333333333,4.5,ScrollUp,ScrollDown,Green.png,5,Positive,Incongruent,0,0,0,0,,,,,,,,,,,,,,,,,,,,,,,,,,,,,0,2,2,2,,,,,,,,,,,,,,,,,,,,,,,,,,,,,,,,,,,,,,,,,,,,,,,,,,,,,,,,,,,,,,,,,,,,,2,1.2560654999979306,665.9567114999954,None,ScrollUp,정답입니다,665.9567114999954,None,665.9567114999954,None,665.9567114999954,None,665.9567114999954,None,667.1099378999934,None,667.1099378999934,667.6098275999975,,,,,,,,,,,,,,,,103,2022-04-28_15h21.14.841,FishGame,2022.1.1,60.001392028924535,
,4,넌 과감해,3,Orange,A,4.833333333333334,4.6,ScrollDown,ScrollUp,Orange.png,5,Neutral,Neutral,0,0,0,0,,,,,,,,,,,,,,,,,,,,,,,,,,,,,0,3,3,3,,,,,,,,,,,,,,,,,,,,,,,,,,,,,,,,,,,,,,,,,,,,,,,,,,,,,,,,,,,,,,,,,,,,,1,1.1354603999934625,668.2405261999957,None,ScrollDown,정답입니다,668.2405261999957,None,668.2405261999957,None,668.2405261999957,None,668.2405261999957,None,669.2732221999904,None,669.2732221999904,669.7771122999984,,,,,,,,,,,,,,,,103,2022-04-28_15h21.14.841,FishGame,2022.1.1,60.001392028924535,
,5,넌 고분고분해,3,Green,B,3.75,4.033333333333333,ScrollUp,ScrollDown,Green.png,5,Neutral,Neutral,0,0,0,0,,,,,,,,,,,,,,,,,,,,,,,,,,,,,0,4,4,4,,,,,,,,,,,,,,,,,,,,,,,,,,,,,,,,,,,,,,,,,,,,,,,,,,,,,,,,,,,,,,,,,,,,,2,1.2407840999949258,670.4067361999914,None,ScrollUp,정답입니다,670.4067361999914,None,670.4067361999914,None,670.4067361999914,None,670.4067361999914,None,671.5432100999897,None,671.5432100999897,672.0434523000004,,,,,,,,,,,,,,,,103,2022-04-28_15h21.14.841,FishGame,2022.1.1,60.001392028924535,
,6,나를 보내줘,6,Orange,A,0,0,ScrollUp,ScrollDown,Orange.png,5,NonTarget,NonTarget,0,0,0,0,,,,,,,,,,,,,,,,,,,,,,,,,,,,,0,5,5,5,,,,,,,,,,,,,,,,,,,,,,,,,,,,,,,,,,,,,,,,,,,,,,,,,,,,,,,,,,,,,,,,,,,,,2,1.1778611000045203,672.6736826999986,None,ScrollUp,정답입니다,672.6736826999986,None,672.6736826999986,None,672.6736826999986,None,672.6736826999986,None,673.7453940999985,None,673.7453940999985,674.260136500001,,,,,,,,,,,,,,,,103,2022-04-28_15h21.14.841,FishGame,2022.1.1,60.001392028924535,
,7,넌 잘 잊어,4,Orange,A,3,3.7,ScrollDown,ScrollUp,Orange.png,5,Negative,Incongruent,0,0,0,0,,,,,,,,,,,,,,,,,,,,,,,,,,,,,0,6,6,6,,,,,,,,,,,,,,,,,,,,,,,,,,,,,,,,,,,,,,,,,,,,,,,,,,,,,,,,,,,,,,,,,,,,,1,1.241636999999173,674.9013657999894,None,ScrollDown,정답입니다,674.9013657999894,None,674.9013657999894,None,674.9013657999894,None,674.9013657999894,None,676.0261992000014,None,676.0261992000014,676.5272905999882,,,,,,,,,,,,,,,,103,2022-04-28_15h21.14.841,FishGame,2022.1.1,60.001392028924535,
,8,넌 탐구심이없어,4,Green,B,2.833333333333333,3.066666666666667,ScrollUp,ScrollDown,Green.png,5,Negative,Congruent,0,0,0,0,,,,,,,,,,,,,,,,,,,,,,,,,,,,,0,7,7,7,,,,,,,,,,,,,,,,,,,,,,,,,,,,,,,,,,,,,,,,,,,,,,,,,,,,,,,,,,,,,,,,,,,,,2,1.3807824999967124,677.1637916999898,None,ScrollUp,정답입니다,677.1637916999898,None,677.1637916999898,None,677.1637916999898,None,677.1637916999898,None,678.4313927999901,None,678.4313927999901,678.9434360999876,,,,,,,,,,,,,,,,103,2022-04-28_15h21.14.841,FishGame,2022.1.1,60.001392028924535,
,9,나를 데려가줘,6,Green,B,0,0,ScrollDown,ScrollUp,Green.png,5,NonTarget,NonTarget,0,0,0,0,,,,,,,,,,,,,,,,,,,,,,,,,,,,,0,8,8,8,,,,,,,,,,,,,,,,,,,,,,,,,,,,,,,,,,,,,,,,,,,,,,,,,,,,,,,,,,,,,,,,,,,,,1,1.2773034000128973,679.5748578999919,None,ScrollDown,정답입니다,679.5748578999919,None,679.5748578999919,None,679.5748578999919,None,679.5748578999919,None,680.7432361999963,None,680.7432361999963,681.2429884000012,,,,,,,,,,,,,,,,103,2022-04-28_15h21.14.841,FishGame,2022.1.1,60.001392028924535,
,10,넌 참되어,2,Orange,A,6.041666666666664,4.733333333333333,ScrollDown,ScrollUp,Orange.png,5,Positive,Congruent,0,0,0,0,,,,,,,,,,,,,,,,,,,,,,,,,,,,,0,9,9,9,,,,,,,,,,,,,,,,,,,,,,,,,,,,,,,,,,,,,,,,,,,,,,,,,,,,,,,,,,,,,,,,,,,,,1,1.2326214999920921,681.8871454999899,None,ScrollDown,정답입니다,681.8871454999899,None,681.8871454999899,None,681.8871454999899,None,681.8871454999899,None,682.9980109999888,None,682.9980109999888,683.5103541999997,,,,,,,,,,,,,,,,103,2022-04-28_15h21.14.841,FishGame,2022.1.1,60.001392028924535,
,11,넌 생기있어,1,Green,B,5.875,5.633333333333334,ScrollUp,ScrollDown,Green.png,5,Positive,Incongruent,0,0,0,0,,,,,,,,,,,,,,,,,,,,,,,,,,,,,0,10,10,10,,,,,,,,,,,,,,,,,,,,,,,,,,,,,,,,,,,,,,,,,,,,,,,,,,,,,,,,,,,,,,,,,,,,,2,1.3944338000001153,684.1401705999888,None,ScrollUp,정답입니다,684.1401705999888,None,684.1401705999888,None,684.1401705999888,None,684.1401705999888,None,685.4285042999982,None,685.4285042999982,685.9432929999894,,,,,,,,,,,,,,,,103,2022-04-28_15h21.14.841,FishGame,2022.1.1,60.001392028924535,
,12,넌 비사교적이야,4,Green,B,2.875,2.9,ScrollUp,ScrollDown,Green.png,5,Negative,Congruent,0,0,0,0,,,,,,,,,,,,,,,,,,,,,,,,,,,,,0,11,11,11,,,,,,,,,,,,,,,,,,,,,,,,,,,,,,,,,,,,,,,,,,,,,,,,,,,,,,,,,,,,,,,,,,,,,2,1.4230326999968383,686.5661851999903,None,ScrollUp,정답입니다,686.5661851999903,None,686.5661851999903,None,686.5661851999903,None,686.5661851999903,None,687.8932577999949,None,687.8932577999949,688.3935291999951,,,,,,,,,,,,,,,,103,2022-04-28_15h21.14.841,FishGame,2022.1.1,60.001392028924535,
,13,나를 데려가줘,6,Green,B,0,0,ScrollDown,ScrollUp,Green.png,5,NonTarget,NonTarget,0,0,0,0,,,,,,,,,,,,,,,,,,,,,,,,,,,,,0,12,12,12,,,,,,,,,,,,,,,,,,,,,,,,,,,,,,,,,,,,,,,,,,,,,,,,,,,,,,,,,,,,,,,,,,,,,1,1.1612216999928933,689.0206451999984,None,ScrollDown,정답입니다,689.0206451999984,None,689.0206451999984,None,689.0206451999984,None,689.0206451999984,None,690.0800193999894,None,690.0800193999894,690.5936177999974,,,,,,,,,,,,,,,,103,2022-04-28_15h21.14.841,FishGame,2022.1.1,60.001392028924535,
,14,넌 고독해,4,Orange,A,2.916666666666667,3.233333333333333,ScrollDown,ScrollUp,Orange.png,5,Negative,Incongruent,0,0,0,0,,,,,,,,,,,,,,,,,,,,,,,,,,,,,0,13,13,13,,,,,,,,,,,,,,,,,,,,,,,,,,,,,,,,,,,,,,,,,,,,,,,,,,,,,,,,,,,,,,,,,,,,,1,1.2747067000018433,691.2274662999989,None,ScrollDown,정답입니다,691.2274662999989,None,691.2274662999989,None,691.2274662999989,None,691.2274662999989,None,692.3932530999882,None,692.3932530999882,692.8939375999907,,,,,,,,,,,,,,,,103,2022-04-28_15h21.14.841,FishGame,2022.1.1,60.001392028924535,
,15,넌 신경질적이야,5,Green,B,2.375,2.233333333333333,ScrollUp,ScrollDown,Green.png,5,Negative,Congruent,0,0,0,0,,,,,,,,,,,,,,,,,,,,,,,,,,,,,0,14,14,14,,,,,,,,,,,,,,,,,,,,,,,,,,,,,,,,,,,,,,,,,,,,,,,,,,,,,,,,,,,,,,,,,,,,,2,1.2408354000071995,693.5299094999937,None,ScrollUp,정답입니다,693.5299094999937,None,693.5299094999937,None,693.5299094999937,None,693.5299094999937,None,694.660378399989,None,694.660378399989,695.1604754,,,,,,,,,,,,,,,,103,2022-04-28_15h21.14.841,FishGame,2022.1.1,60.001392028924535,
,16,넌 똑똑해,2,Green,B,5.666666666666667,3.966666666666667,ScrollUp,ScrollDown,Green.png,5,Positive,Incongruent,0,0,0,0,,,,,,,,,,,,,,,,,,,,,,,,,,,,,0,15,15,15,,,,,,,,,,,,,,,,,,,,,,,,,,,,,,,,,,,,,,,,,,,,,,,,,,,,,,,,,,,,,,,,,,,,,2,1.3127598999999464,695.7867206999945,None,ScrollUp,정답입니다,695.7867206999945,None,695.7867206999945,None,695.7867206999945,None,695.7867206999945,None,696.9976576999907,None,696.9976576999907,697.5103941999987,,,,,,,,,,,,,,,,103,2022-04-28_15h21.14.841,FishGame,2022.1.1,60.001392028924535,
,17,나를 보내줘,6,Orange,A,0,0,ScrollUp,ScrollDown,Orange.png,5,NonTarget,NonTarget,0,0,0,0,,,,,,,,,,,,,,,,,,,,,,,,,,,,,0,16,16,16,,,,,,,,,,,,,,,,,,,,,,,,,,,,,,,,,,,,,,,,,,,,,,,,,,,,,,,,,,,,,,,,,,,,,2,1.3147352000087267,698.1415987999935,None,ScrollUp,정답입니다,698.1415987999935,None,698.1415987999935,None,698.1415987999935,None,698.1415987999935,None,699.3484553000017,None,699.3484553000017,699.8607888999977,,,,,,,,,,,,,,,,103,2022-04-28_15h21.14.841,FishGame,2022.1.1,60.001392028924535,
,18,넌 협조적이야,1,Orange,A,5.625,5.666666666666667,ScrollDown,ScrollUp,Orange.png,5,Positive,Congruent,0,0,0,0,,,,,,,,,,,,,,,,,,,,,,,,,,,,,0,17,17,17,,,,,,,,,,,,,,,,,,,,,,,,,,,,,,,,,,,,,,,,,,,,,,,,,,,,,,,,,,,,,,,,,,,,,1,1.2018098999978974,700.4924672999914,None,ScrollDown,정답입니다,700.4924672999914,None,700.4924672999914,None,700.4924672999914,None,700.4924672999914,None,701.5903967999911,None,701.5903967999911,702.0940195000003,,,,,,,,,,,,,,,,103,2022-04-28_15h21.14.841,FishGame,2022.1.1,60.001392028924535,
,19,나를 데려가줘,6,Green,B,0,0,ScrollDown,ScrollUp,Green.png,5,NonTarget,NonTarget,0,0,0,0,,,,,,,,,,,,,,,,,,,,,,,,,,,,,0,18,18,18,,,,,,,,,,,,,,,,,,,,,,,,,,,,,,,,,,,,,,,,,,,,,,,,,,,,,,,,,,,,,,,,,,,,,1,1.3023951999930432,702.720118199999,None,ScrollDown,정답입니다,702.720118199999,None,702.720118199999,None,702.720118199999,None,702.720118199999,None,703.9236316999886,None,703.9236316999886,704.4272916999907,,,,,,,,,,,,,,,,103,2022-04-28_15h21.14.841,FishGame,2022.1.1,60.001392028924535,
,20,넌 몰인정해,5,Green,B,2.541666666666667,2.066666666666667,ScrollUp,ScrollDown,Green.png,5,Negative,Congruent,0,0,0,0,,,,,,,,,,,,,,,,,,,,,,,,,,,,,0,19,19,19,,,,,,,,,,,,,,,,,,,,,,,,,,,,,,,,,,,,,,,,,,,,,,,,,,,,,,,,,,,,,,,,,,,,,2,1.3411074000032386,705.0535353999876,None,ScrollUp,정답입니다,705.0535353999876,None,705.0535353999876,None,705.0535353999876,None,705.0535353999876,None,706.293662600001,None,706.293662600001,706.7944795999938,,,,,,,,,,,,,,,,103,2022-04-28_15h21.14.841,FishGame,2022.1.1,60.001392028924535,
,21,나를 데려가줘,6,Green,B,0,0,ScrollDown,ScrollUp,Green.png,5,NonTarget,NonTarget,0,0,0,0,,,,,,,,,,,,,,,,,,,,,,,,,,,,,0,20,20,20,,,,,,,,,,,,,,,,,,,,,,,,,,,,,,,,,,,,,,,,,,,,,,,,,,,,,,,,,,,,,,,,,,,,,1,1.4058498999947915,707.4234060999879,None,ScrollDown,정답입니다,707.4234060999879,None,707.4234060999879,None,707.4234060999879,None,707.4234060999879,None,708.7272838999925,None,708.7272838999925,709.2272276000003,,,,,,,,,,,,,,,,103,2022-04-28_15h21.14.841,FishGame,2022.1.1,60.001392028924535,
,22,넌 순진해,3,Green,B,4.125,4.166666666666667,ScrollUp,ScrollDown,Green.png,5,Neutral,Neutral,0,0,0,0,,,,,,,,,,,,,,,,,,,,,,,,,,,,,0,21,21,21,,,,,,,,,,,,,,,,,,,,,,,,,,,,,,,,,,,,,,,,,,,,,,,,,,,,,,,,,,,,,,,,,,,,,2,1.3067850000079488,709.861914699999,None,ScrollUp,정답입니다,709.861914699999,None,709.861914699999,None,709.861914699999,None,709.861914699999,None,711.0551215999876,None,711.0551215999876,711.5612164999911,,,,,,,,,,,,,,,,103,2022-04-28_15h21.14.841,FishGame,2022.1.1,60.001392028924535,
,23,넌 신뢰할만해,1,Orange,A,6.625,5.533333333333333,ScrollDown,ScrollUp,Orange.png,5,Positive,Congruent,0,0,0,0,,,,,,,,,,,,,,,,,,,,,,,,,,,,,0,22,22,22,,,,,,,,,,,,,,,,,,,,,,,,,,,,,,,,,,,,,,,,,,,,,,,,,,,,,,,,,,,,,,,,,,,,,1,1.4043716000014683,712.2097815999878,None,ScrollDown,정답입니다,712.2097815999878,None,712.2097815999878,None,712.2097815999878,None,712.2097815999878,None,713.4907925000007,None,713.4907925000007,713.9940281000017,,,,,,,,,,,,,,,,103,2022-04-28_15h21.14.841,FishGame,2022.1.1,60.001392028924535,
,24,나를 보내줘,6,Orange,A,0,0,ScrollUp,ScrollDown,Orange.png,5,NonTarget,NonTarget,0,0,0,0,,,,,,,,,,,,,,,,,,,,,,,,,,,,,0,23,23,23,,,,,,,,,,,,,,,,,,,,,,,,,,,,,,,,,,,,,,,,,,,,,,,,,,,,,,,,,,,,,,,,,,,,,2,1.4140163000120083,714.621970799999,None,ScrollUp,정답입니다,714.621970799999,None,714.621970799999,None,714.621970799999,None,714.621970799999,None,715.9316923000006,None,715.9316923000006,716.4444641000009,,,,,,,,,,,,,,,,103,2022-04-28_15h21.14.841,FishGame,2022.1.1,60.001392028924535,
,25,넌 인색해,5,Orange,A,2.625,2.233333333333333,ScrollDown,ScrollUp,Orange.png,5,Negative,Incongruent,0,0,0,0,,,,,,,,,,,,,,,,,,,,,,,,,,,,,0,24,24,24,,,,,,,,,,,,,,,,,,,,,,,,,,,,,,,,,,,,,,,,,,,,,,,,,,,,,,,,,,,,,,,,,,,,,1,1.3039793999923859,717.0822805999924,None,ScrollDown,정답입니다,717.0822805999924,None,717.0822805999924,None,717.0822805999924,None,717.0822805999924,None,718.2739805000019,None,718.2739805000019,718.7781074999948,,,,,,,,,,,,,,,,103,2022-04-28_15h21.14.841,FishGame,2022.1.1,60.001392028924535,
,26,넌 유쾌해,1,Green,B,5.833333333333333,5.766666666666667,ScrollUp,ScrollDown,Green.png,5,Positive,Incongruent,0,0,0,0,,,,,,,,,,,,,,,,,,,,,,,,,,,,,0,25,25,25,,,,,,,,,,,,,,,,,,,,,,,,,,,,,,,,,,,,,,,,,,,,,,,,,,,,,,,,,,,,,,,,,,,,,2,1.8600699999951757,719.408156599995,None,ScrollUp,정답입니다,719.408156599995,None,719.408156599995,None,719.408156599995,None,719.408156599995,None,721.1609218999947,None,721.1609218999947,721.6611217999889,,,,,,,,,,,,,,,,103,2022-04-28_15h21.14.841,FishGame,2022.1.1,60.001392028924535,
