name,TrialNum,Word,WordCategory,FishType,WordList,WordValence,WordReputation,CorrectResp,IncorrectResp,FishTypeFile,Round,WordType,Condition,LoopforOrange.thisRepN,LoopforOrange.thisTrialN,LoopforOrange.thisN,LoopforOrange.thisIndex,LoopForGreen.thisRepN,LoopForGreen.thisTrialN,LoopForGreen.thisN,LoopForGreen.thisIndex,GreenInstLoop.thisRepN,GreenInstLoop.thisTrialN,GreenInstLoop.thisN,GreenInstLoop.thisIndex,GreenPrac.thisRepN,GreenPrac.thisTrialN,GreenPrac.thisN,GreenPrac.thisIndex,trials_2.thisRepN,trials_2.thisTrialN,trials_2.thisN,trials_2.thisIndex,GreenRound1.thisRepN,GreenRound1.thisTrialN,GreenRound1.thisN,GreenRound1.thisIndex,GreenRound2.thisRepN,GreenRound2.thisTrialN,GreenRound2.thisN,GreenRound2.thisIndex,GreenRound3.thisRepN,GreenRound3.thisTrialN,GreenRound3.thisN,GreenRound3.thisIndex,GreenRound4.thisRepN,GreenRound4.thisTrialN,GreenRound4.thisN,GreenRound4.thisIndex,GreenRound5.thisRepN,GreenRound5.thisTrialN,GreenRound5.thisN,GreenRound5.thisIndex,text_2.started,text_2.stopped,text_3.started,text_3.stopped,key_resp.keys,key_resp.rt,key_resp.started,key_resp.stopped,PassI.started,PassI.stopped,PassInst.keys,PassInst.rt,PassInst.started,PassInst.stopped,mouse_2.x,mouse_2.y,mouse_2.leftButton,mouse_2.midButton,mouse_2.rightButton,mouse_2.started,mouse_2.stopped,image.started,image.stopped,text_5.started,text_5.stopped,text_6.started,text_6.stopped,text_7.started,text_7.stopped,text_8.started,text_8.stopped,slider_3.response,slider_3.rt,slider_3.started,slider_3.stopped,Response_3,Feedback_3,BackGround_3.started,BackGround_3.stopped,Fish_3.started,Fish_3.stopped,WordBox_3.started,WordBox_3.stopped,Words_3.started,Words_3.stopped,BackGround_Feedback_3.started,BackGround_Feedback_3.stopped,Feedbacks_3.started,Feedbacks_3.stopped,Continue_or_not_2.keys,Continue_or_not_2.rt,Continue_or_not_2.started,Continue_or_not_2.stopped,image_4.started,image_4.stopped,mouse_3.x,mouse_3.y,mouse_3.leftButton,mouse_3.midButton,mouse_3.rightButton,mouse_3.started,mouse_3.stopped,startmain.started,startmain.stopped,slider_4.response,slider_4.rt,slider_4.started,slider_4.stopped,Response_4,Feedback_4,BackGround_4.started,BackGround_4.stopped,Fish_4.started,Fish_4.stopped,WordBox_4.started,WordBox_4.stopped,Words_4.started,Words_4.stopped,BackGround_Feedback_4.started,BackGround_Feedback_4.stopped,Feedbacks_4.started,Feedbacks_4.stopped,text.started,text.stopped,break_interval.started,break_interval.stopped,mouse.x,mouse.y,mouse.leftButton,mouse.midButton,mouse.rightButton,mouse.started,mouse.stopped,stratnextround.started,stratnextround.stopped,endgame.started,endgame.stopped,participant,date,expName,psychopyVersion,frameRate,
,,,,,,,,,,,,,,,,,,,,,,,,,,,,,,,,,,,,,,,,,,,,,,,,,,,,,,22.263068000000203,None,22.263068000000203,None,space,0.8368927999981679,22.73099959999672,None,,,,,,,,,,,,,,,,,,,,,,,,,,,,,,,,,,,,,,,,,,,,,,,,,,,,,,,,,,,,,,,,,,,,,,,,,,,,,,,,,,,,,,,,,,104,2022-04-29_13h51.15.056,FishGame,2022.1.1,60.04004670854844,
물고기과제_instruction(참가자용)GreenVersion.mp4,,,,,,,,,,,,,,,,,,0,0,0,0,0,0,0,0,,,,,,,,,,,,,,,,,,,,,,,,,,,,,,,,,,,,,90.39481210001395,None,n,7.160402600013185,90.39481210001395,None,,,,,,,,,,,,,,,,,,,,,,,,,,,,,,,,,,,,,,,,,,,,,,,,,,,,,,,,,,,,,,,,,,,,,,,,,,,,,,,,,,,,104,2022-04-29_13h51.15.056,FishGame,2022.1.1,60.04004670854844,
,1,넌 교활해,5,Orange,B,2.333333333333333,2.133333333333333,ScrollUp,ScrollDown,Orange.png,practice,,,,,,,0,0,0,0,,,,,0,0,0,0,0,0,0,0,,,,,,,,,,,,,,,,,,,,,,,,,,,,,,,,,,,0.30925927,-0.16944444,1,0,0,0.5142492799786851,None,97.58249480000813,None,104.7826699000143,106.28305690002162,106.31624939999892,107.26627220000955,107.31600250001065,108.2657924000232,108.2657924000232,None,2,1.6771480000170413,109.4341495000117,None,ScrollUp,정답입니다,109.4341495000117,None,109.4341495000117,None,109.4341495000117,None,109.4341495000117,None,110.9387825000158,None,110.9387825000158,111.44930760000716,,,,,,,,,,,,,,,,,,,,,,,,,,,,,,,,,,,,,,,,,,,,,,,,,104,2022-04-29_13h51.15.056,FishGame,2022.1.1,60.04004670854844,
,2,넌 슬기로워,2,Green,A,6.166666666666667,4.1,ScrollDown,ScrollUp,Green.png,practice,,,,,,,0,0,0,0,,,,,0,0,0,0,0,1,1,1,,,,,,,,,,,,,,,,,,,,,,,,,,,,,,,,,,,,,,,,,,,,,,,,,,,,1,1.2887358000152744,112.08980710001197,None,ScrollDown,정답입니다,112.08980710001197,None,112.08980710001197,None,112.08980710001197,None,112.08980710001197,None,113.26637100000517,None,113.26637100000517,113.76670070001273,,,,,,,,,,,,,,,,,,,,,,,,,,,,,,,,,,,,,,,,,,,,,,,,,104,2022-04-29_13h51.15.056,FishGame,2022.1.1,60.04004670854844,
,3,나를 보내줘,6,Green,A,0,0,ScrollUp,ScrollDown,Green.png,practice,,,,,,,0,0,0,0,,,,,0,0,0,0,0,2,2,2,,,,,,,,,,,,,,,,,,,,,,,,,,,,,,,,,,,,,,,,,,,,,,,,,,,,2,1.305129099986516,114.39187710001715,None,ScrollUp,정답입니다,114.39187710001715,None,114.39187710001715,None,114.39187710001715,None,114.39187710001715,None,115.59598579999874,None,115.59598579999874,116.10005480001564,,,,,,,,,,,,,,,,,,,,,,,,,,,,,,,,,,,,,,,,,,,,,,,,,104,2022-04-29_13h51.15.056,FishGame,2022.1.1,60.04004670854844,
,4,나를 데려가줘,6,Orange,B,0,0,ScrollDown,ScrollUp,Orange.png,practice,,,,,,,0,0,0,0,,,,,0,0,0,0,0,3,3,3,,,,,,,,,,,,,,,,,,,,,,,,,,,,,,,,,,,,,,,,,,,,,,,,,,,,1,1.270401000016136,116.73594350001076,None,ScrollDown,정답입니다,116.73594350001076,None,116.73594350001076,None,116.73594350001076,None,116.73594350001076,None,117.895938200003,None,117.895938200003,118.3993296000117,,,,,,,,,,,,,,,,,,,,,,,,,,,,,,,,,,,,,,,,,,,,,,,,,104,2022-04-29_13h51.15.056,FishGame,2022.1.1,60.04004670854844,
,1,넌 교활해,5,Orange,B,2.333333333333333,2.133333333333333,ScrollUp,ScrollDown,Orange.png,practice,,,,,,,0,0,0,0,,,,,0,0,0,0,,,,,,,,,,,,,,,,,,,,,,,,,,,,,,,,,,,,,,,,,,,,,,,,,,,,,,,,,,,,,,,,,,,,,,,,,,n,14.023148100008257,118.8991520999989,None,118.8991520999989,None,,,,,,,,,,,,,,,,,,,,,,,,,,,,,,,,,,,,,,,,,,,104,2022-04-29_13h51.15.056,FishGame,2022.1.1,60.04004670854844,
,1,넌 따뜻해,1,Orange,B,6.083333333333333,5.6,ScrollUp,ScrollDown,Orange.png,1,Positive,Incongruent,,,,,0,0,0,0,,,,,,,,,,,,,0,0,0,0,,,,,,,,,,,,,,,,,,,,,,,,,,,,,,,,,,,,,,,,145.31658620000235,146.8163568000018,146.85007980000228,147.79971620001015,147.84982299999683,148.7996540000022,148.7996540000022,None,,,,,,,,,,,,,,,,,,,,,,,,,0.5740741,-0.023148147,1,0,0,0.3146120799938217,None,132.9500159000163,None,2,1.4581760999863036,149.96678790001897,None,ScrollUp,정답입니다,149.96678790001897,None,149.96678790001897,None,149.96678790001897,None,149.96678790001897,None,151.25778780001565,None,151.25778780001565,151.76656220000586,,,,,,,,,,,,,,,,104,2022-04-29_13h51.15.056,FishGame,2022.1.1,60.04004670854844,
,2,넌 기품있어,2,Orange,B,5.791666666666668,4.5,ScrollUp,ScrollDown,Orange.png,1,Positive,Incongruent,,,,,0,0,0,0,,,,,,,,,,,,,0,1,1,1,,,,,,,,,,,,,,,,,,,,,,,,,,,,,,,,,,,,,,,,,,,,,,,,,,,,,,,,,,,,,,,,,,,,,,,,,,,,,,,,,2,1.195221899979515,152.419832900021,None,ScrollUp,정답입니다,152.419832900021,None,152.419832900021,None,152.419832900021,None,152.419832900021,None,153.48691100001452,None,153.48691100001452,154.0005172000092,,,,,,,,,,,,,,,,104,2022-04-29_13h51.15.056,FishGame,2022.1.1,60.04004670854844,
,3,나를 보내줘,6,Green,A,0,0,ScrollUp,ScrollDown,Green.png,1,NonTarget,NonTarget,,,,,0,0,0,0,,,,,,,,,,,,,0,2,2,2,,,,,,,,,,,,,,,,,,,,,,,,,,,,,,,,,,,,,,,,,,,,,,,,,,,,,,,,,,,,,,,,,,,,,,,,,,,,,,,,,2,1.2997373999969568,154.64351090000127,None,ScrollUp,정답입니다,154.64351090000127,None,154.64351090000127,None,154.64351090000127,None,154.64351090000127,None,155.82133120001527,None,155.82133120001527,156.33400570001686,,,,,,,,,,,,,,,,104,2022-04-29_13h51.15.056,FishGame,2022.1.1,60.04004670854844,
,4,넌 수동적이야,4,Green,A,2.833333333333333,2.933333333333333,ScrollDown,ScrollUp,Green.png,1,Negative,Incongruent,,,,,0,0,0,0,,,,,,,,,,,,,0,3,3,3,,,,,,,,,,,,,,,,,,,,,,,,,,,,,,,,,,,,,,,,,,,,,,,,,,,,,,,,,,,,,,,,,,,,,,,,,,,,,,,,,2,1.1111227000073995,156.9754663000058,None,ScrollUp,오답입니다,156.9754663000058,None,156.9754663000058,None,156.9754663000058,None,156.9754663000058,None,157.97138420000556,None,157.97138420000556,158.48419430002104,,,,,,,,,,,,,,,,104,2022-04-29_13h51.15.056,FishGame,2022.1.1,60.04004670854844,
,5,넌 사심이 없어,3,Orange,B,4.916666666666666,4.333333333333333,ScrollUp,ScrollDown,Orange.png,1,Neutral,Neutral,,,,,0,0,0,0,,,,,,,,,,,,,0,4,4,4,,,,,,,,,,,,,,,,,,,,,,,,,,,,,,,,,,,,,,,,,,,,,,,,,,,,,,,,,,,,,,,,,,,,,,,,,,,,,,,,,1.9336419701576233,1.1912248999869917,159.13158080002177,None,ScrollUp,정답입니다,159.13158080002177,None,159.13158080002177,None,159.13158080002177,None,159.13158080002177,None,160.2001176000049,None,160.2001176000049,160.7000257000036,,,,,,,,,,,,,,,,104,2022-04-29_13h51.15.056,FishGame,2022.1.1,60.04004670854844,
,6,넌 헤퍼,5,Green,A,2.458333333333334,2.233333333333333,ScrollDown,ScrollUp,Green.png,1,Negative,Incongruent,,,,,0,0,0,0,,,,,,,,,,,,,0,5,5,5,,,,,,,,,,,,,,,,,,,,,,,,,,,,,,,,,,,,,,,,,,,,,,,,,,,,,,,,,,,,,,,,,,,,,,,,,,,,,,,,,1.0231481393178303,1.2417740999953821,161.33526190000703,None,ScrollDown,정답입니다,161.33526190000703,None,161.33526190000703,None,161.33526190000703,None,161.33526190000703,None,162.46686740001314,None,162.46686740001314,162.96689840001636,,,,,,,,,,,,,,,,104,2022-04-29_13h51.15.056,FishGame,2022.1.1,60.04004670854844,
,7,넌 말쑥해,3,Green,A,4.833333333333334,4.333333333333333,ScrollDown,ScrollUp,Green.png,1,Neutral,Neutral,,,,,0,0,0,0,,,,,,,,,,,,,0,6,6,6,,,,,,,,,,,,,,,,,,,,,,,,,,,,,,,,,,,,,,,,,,,,,,,,,,,,,,,,,,,,,,,,,,,,,,,,,,,,,,,,,1,1.0633742000209168,163.60576669999864,None,ScrollDown,정답입니다,163.60576669999864,None,163.60576669999864,None,163.60576669999864,None,163.60576669999864,None,164.55504669999937,None,164.55504669999937,165.06688040000154,,,,,,,,,,,,,,,,104,2022-04-29_13h51.15.056,FishGame,2022.1.1,60.04004670854844,
,8,넌 투덜거려,5,Orange,B,2.541666666666667,2.266666666666667,ScrollUp,ScrollDown,Orange.png,1,Negative,Congruent,,,,,0,0,0,0,,,,,,,,,,,,,0,7,7,7,,,,,,,,,,,,,,,,,,,,,,,,,,,,,,,,,,,,,,,,,,,,,,,,,,,,,,,,,,,,,,,,,,,,,,,,,,,,,,,,,1.858024686574936,1.0760843000025488,165.72045180000714,None,ScrollUp,정답입니다,165.72045180000714,None,165.72045180000714,None,165.72045180000714,None,165.72045180000714,None,166.6666604000202,None,166.6666604000202,167.16691560001345,,,,,,,,,,,,,,,,104,2022-04-29_13h51.15.056,FishGame,2022.1.1,60.04004670854844,
,9,넌 적극적이야,1,Green,A,5.708333333333333,5.533333333333333,ScrollDown,ScrollUp,Green.png,1,Positive,Congruent,,,,,0,0,0,0,,,,,,,,,,,,,0,8,8,8,,,,,,,,,,,,,,,,,,,,,,,,,,,,,,,,,,,,,,,,,,,,,,,,,,,,,,,,,,,,,,,,,,,,,,,,,,,,,,,,,1,1.0812410000071395,167.7980327999976,None,ScrollDown,정답입니다,167.7980327999976,None,167.7980327999976,None,167.7980327999976,None,167.7980327999976,None,168.7715630000166,None,168.7715630000166,169.28414380000322,,,,,,,,,,,,,,,,104,2022-04-29_13h51.15.056,FishGame,2022.1.1,60.04004670854844,
,10,넌 재미없어,4,Orange,B,2.625,2.966666666666667,ScrollUp,ScrollDown,Orange.png,1,Negative,Congruent,,,,,0,0,0,0,,,,,,,,,,,,,0,9,9,9,,,,,,,,,,,,,,,,,,,,,,,,,,,,,,,,,,,,,,,,,,,,,,,,,,,,,,,,,,,,,,,,,,,,,,,,,,,,,,,,,1.8888888905445735,1.0939314999850467,169.9285768000118,None,ScrollUp,정답입니다,169.9285768000118,None,169.9285768000118,None,169.9285768000118,None,169.9285768000118,None,170.90361510001821,None,170.90361510001821,171.4173641000234,,,,,,,,,,,,,,,,104,2022-04-29_13h51.15.056,FishGame,2022.1.1,60.04004670854844,
,11,넌 명석해,2,Green,A,5.875,4.033333333333333,ScrollDown,ScrollUp,Green.png,1,Positive,Congruent,,,,,0,0,0,0,,,,,,,,,,,,,0,10,10,10,,,,,,,,,,,,,,,,,,,,,,,,,,,,,,,,,,,,,,,,,,,,,,,,,,,,,,,,,,,,,,,,,,,,,,,,,,,,,,,,,1.0632716019948323,1.1237645999935921,172.05268980000983,None,ScrollDown,정답입니다,172.05268980000983,None,172.05268980000983,None,172.05268980000983,None,172.05268980000983,None,173.0668934000132,None,173.0668934000132,173.56727980001597,,,,,,,,,,,,,,,,104,2022-04-29_13h51.15.056,FishGame,2022.1.1,60.04004670854844,
,12,나를 데려가줘,6,Orange,B,0,0,ScrollDown,ScrollUp,Orange.png,1,NonTarget,NonTarget,,,,,0,0,0,0,,,,,,,,,,,,,0,11,11,11,,,,,,,,,,,,,,,,,,,,,,,,,,,,,,,,,,,,,,,,,,,,,,,,,,,,,,,,,,,,,,,,,,,,,,,,,,,,,,,,,1.1651234477758408,1.238773899996886,174.20920900002238,None,ScrollDown,정답입니다,174.20920900002238,None,174.20920900002238,None,174.20920900002238,None,174.20920900002238,None,175.33376830001362,None,175.33376830001362,175.83452060000855,,,,,,,,,,,,,,,,104,2022-04-29_13h51.15.056,FishGame,2022.1.1,60.04004670854844,
,13,넌 소심해,4,Green,A,3,3.1,ScrollDown,ScrollUp,Green.png,1,Negative,Incongruent,,,,,0,0,0,0,,,,,,,,,,,,,0,12,12,12,,,,,,,,,,,,,,,,,,,,,,,,,,,,,,,,,,,,,,,,,,,,,,,,,,,,,,,,,,,,,,,,,,,,,,,,,,,,,,,,,1.0787036915620167,1.1977610999892931,176.46298720000777,None,ScrollDown,정답입니다,176.46298720000777,None,176.46298720000777,None,176.46298720000777,None,176.46298720000777,None,177.55546440000762,None,177.55546440000762,178.06739450001623,,,,,,,,,,,,,,,,104,2022-04-29_13h51.15.056,FishGame,2022.1.1,60.04004670854844,
,14,넌 합리적이야,2,Green,A,5.583333333333333,4.733333333333333,ScrollDown,ScrollUp,Green.png,1,Positive,Congruent,,,,,0,0,0,0,,,,,,,,,,,,,0,13,13,13,,,,,,,,,,,,,,,,,,,,,,,,,,,,,,,,,,,,,,,,,,,,,,,,,,,,,,,,,,,,,,,,,,,,,,,,,,,,,,,,,1.253086417913437,1.1557057999889366,178.6986567999993,None,ScrollDown,정답입니다,178.6986567999993,None,178.6986567999993,None,178.6986567999993,None,178.6986567999993,None,179.75036100001307,None,179.75036100001307,180.2509824000008,,,,,,,,,,,,,,,,104,2022-04-29_13h51.15.056,FishGame,2022.1.1,60.04004670854844,
,15,넌 무자비해,5,Orange,B,2.333333333333333,2.1,ScrollUp,ScrollDown,Orange.png,1,Negative,Congruent,,,,,0,0,0,0,,,,,,,,,,,,,0,14,14,14,,,,,,,,,,,,,,,,,,,,,,,,,,,,,,,,,,,,,,,,,,,,,,,,,,,,,,,,,,,,,,,,,,,,,,,,,,,,,,,,,1.9737654328346252,1.2081310999928974,180.8913388000219,None,ScrollUp,정답입니다,180.8913388000219,None,180.8913388000219,None,180.8913388000219,None,180.8913388000219,None,181.98414250000496,None,181.98414250000496,182.48417780001182,,,,,,,,,,,,,,,,104,2022-04-29_13h51.15.056,FishGame,2022.1.1,60.04004670854844,
,16,나를 보내줘,6,Green,A,0,0,ScrollUp,ScrollDown,Green.png,1,NonTarget,NonTarget,,,,,0,0,0,0,,,,,,,,,,,,,0,15,15,15,,,,,,,,,,,,,,,,,,,,,,,,,,,,,,,,,,,,,,,,,,,,,,,,,,,,,,,,,,,,,,,,,,,,,,,,,,,,,,,,,1.9845678806304932,1.1884549999958836,183.10834160001832,None,ScrollUp,정답입니다,183.10834160001832,None,183.10834160001832,None,183.10834160001832,None,183.10834160001832,None,184.197218300018,None,184.197218300018,184.7008156000229,,,,,,,,,,,,,,,,104,2022-04-29_13h51.15.056,FishGame,2022.1.1,60.04004670854844,
,17,넌 현실적이야,3,Orange,B,4.608695652173913,4.766666666666667,ScrollUp,ScrollDown,Orange.png,1,Neutral,Neutral,,,,,0,0,0,0,,,,,,,,,,,,,0,16,16,16,,,,,,,,,,,,,,,,,,,,,,,,,,,,,,,,,,,,,,,,,,,,,,,,,,,,,,,,,,,,,,,,,,,,,,,,,,,,,,,,,1.7746913582086563,1.2034911999944597,185.3413221000228,None,ScrollUp,정답입니다,185.3413221000228,None,185.3413221000228,None,185.3413221000228,None,185.3413221000228,None,186.4309242000163,None,186.4309242000163,186.93466940001235,,,,,,,,,,,,,,,,104,2022-04-29_13h51.15.056,FishGame,2022.1.1,60.04004670854844,
,18,넌 의리있어,1,Orange,B,5.833333333333334,5.633333333333334,ScrollUp,ScrollDown,Orange.png,1,Positive,Incongruent,,,,,0,0,0,0,,,,,,,,,,,,,0,17,17,17,,,,,,,,,,,,,,,,,,,,,,,,,,,,,,,,,,,,,,,,,,,,,,,,,,,,,,,,,,,,,,,,,,,,,,,,,,,,,,,,,1.7808641890684764,1.0416524000174832,187.56929189999937,None,ScrollUp,정답입니다,187.56929189999937,None,187.56929189999937,None,187.56929189999937,None,187.56929189999937,None,188.50048570000217,None,188.50048570000217,189.0010962000233,,,,,,,,,,,,,,,,104,2022-04-29_13h51.15.056,FishGame,2022.1.1,60.04004670854844,
,19,넌 신경과민이야,5,Green,A,2.541666666666667,2.166666666666667,ScrollDown,ScrollUp,Green.png,1,Negative,Incongruent,,,,,0,0,0,0,,,,,,,,,,,,,0,18,18,18,,,,,,,,,,,,,,,,,,,,,,,,,,,,,,,,,,,,,,,,,,,,,,,,,,,,,,,,,,,,,,,,,,,,,,,,,,,,,,,,,1.0308642089366913,1.1108144000172615,189.64868710000883,None,ScrollDown,정답입니다,189.64868710000883,None,189.64868710000883,None,189.64868710000883,None,189.64868710000883,None,190.63718530000187,None,190.63718530000187,191.15129570002318,,,,,,,,,,,,,,,,104,2022-04-29_13h51.15.056,FishGame,2022.1.1,60.04004670854844,
,20,넌 편안해,1,Green,A,5.916666666666666,5.866666666666666,ScrollDown,ScrollUp,Green.png,1,Positive,Congruent,,,,,0,0,0,0,,,,,,,,,,,,,0,19,19,19,,,,,,,,,,,,,,,,,,,,,,,,,,,,,,,,,,,,,,,,,,,,,,,,,,,,,,,,,,,,,,,,,,,,,,,,,,,,,,,,,1.1296296268701553,0.9747726999921724,191.78138950001448,None,ScrollDown,정답입니다,191.78138950001448,None,191.78138950001448,None,191.78138950001448,None,191.78138950001448,None,192.65088590001687,None,192.65088590001687,193.15133530000458,,,,,,,,,,,,,,,,104,2022-04-29_13h51.15.056,FishGame,2022.1.1,60.04004670854844,
,21,넌 품위있어,2,Orange,B,5.291666666666666,4.466666666666667,ScrollUp,ScrollDown,Orange.png,1,Positive,Incongruent,,,,,0,0,0,0,,,,,,,,,,,,,0,20,20,20,,,,,,,,,,,,,,,,,,,,,,,,,,,,,,,,,,,,,,,,,,,,,,,,,,,,,,,,,,,,,,,,,,,,,,,,,,,,,,,,,1.805555562178294,1.6475777000014205,193.7894581000146,None,ScrollUp,정답입니다,193.7894581000146,None,193.7894581000146,None,193.7894581000146,None,193.7894581000146,None,195.32197400002042,None,195.32197400002042,195.83503880002536,,,,,,,,,,,,,,,,104,2022-04-29_13h51.15.056,FishGame,2022.1.1,60.04004670854844,
,22,넌 빈틈없어,3,Green,A,4.833333333333333,3.966666666666667,ScrollDown,ScrollUp,Green.png,1,Neutral,Neutral,,,,,0,0,0,0,,,,,,,,,,,,,0,21,21,21,,,,,,,,,,,,,,,,,,,,,,,,,,,,,,,,,,,,,,,,,,,,,,,,,,,,,,,,,,,,,,,,,,,,,,,,,,,,,,,,,1,1.2009516999823973,196.470123600011,None,ScrollDown,정답입니다,196.470123600011,None,196.470123600011,None,196.470123600011,None,196.470123600011,None,197.56462170000304,None,197.56462170000304,198.06738780002343,,,,,,,,,,,,,,,,104,2022-04-29_13h51.15.056,FishGame,2022.1.1,60.04004670854844,
,23,넌 상상력없어,4,Orange,B,2.833333333333333,3.133333333333333,ScrollUp,ScrollDown,Orange.png,1,Negative,Congruent,,,,,0,0,0,0,,,,,,,,,,,,,0,22,22,22,,,,,,,,,,,,,,,,,,,,,,,,,,,,,,,,,,,,,,,,,,,,,,,,,,,,,,,,,,,,,,,,,,,,,,,,,,,,,,,,,1.9876543084780376,1.076983900013147,198.70675850001862,None,ScrollUp,정답입니다,198.70675850001862,None,198.70675850001862,None,198.70675850001862,None,198.70675850001862,None,199.66754230001243,None,199.66754230001243,200.16762550000567,,,,,,,,,,,,,,,,104,2022-04-29_13h51.15.056,FishGame,2022.1.1,60.04004670854844,
,24,넌 지혜로워,2,Orange,B,6.333333333333334,4.633333333333334,ScrollUp,ScrollDown,Orange.png,1,Positive,Incongruent,,,,,0,0,0,0,,,,,,,,,,,,,0,23,23,23,,,,,,,,,,,,,,,,,,,,,,,,,,,,,,,,,,,,,,,,,,,,,,,,,,,,,,,,,,,,,,,,,,,,,,,,,,,,,,,,,1.9953703780968983,1.0062360999872908,200.81249780001235,None,ScrollUp,정답입니다,200.81249780001235,None,200.81249780001235,None,200.81249780001235,None,200.81249780001235,None,201.69762520000222,None,201.69762520000222,202.20085140000447,,,,,,,,,,,,,,,,104,2022-04-29_13h51.15.056,FishGame,2022.1.1,60.04004670854844,
,25,넌 시끄러워,4,Green,A,2.833333333333333,3.033333333333333,ScrollDown,ScrollUp,Green.png,1,Negative,Incongruent,,,,,0,0,0,0,,,,,,,,,,,,,0,24,24,24,,,,,,,,,,,,,,,,,,,,,,,,,,,,,,,,,,,,,,,,,,,,,,,,,,,,,,,,,,,,,,,,,,,,,,,,,,,,,,,,,1.040123442808787,1.0561524000077043,202.83642249999684,None,ScrollDown,정답입니다,202.83642249999684,None,202.83642249999684,None,202.83642249999684,None,202.83642249999684,None,203.78449000002,None,203.78449000002,204.28472480000346,,,,,,,,,,,,,,,,104,2022-04-29_13h51.15.056,FishGame,2022.1.1,60.04004670854844,
,26,넌 만사태평이야,3,Orange,B,4,4.333333333333333,ScrollUp,ScrollDown,Orange.png,1,Neutral,Neutral,,,,,0,0,0,0,,,,,,,,,,,,,0,25,25,25,,,,,,,,,,,,,,,,,,,,,,,,,,,,,,,,,,,,,,,,,,,,,,,,,,,,,,,,,,,,,,,,,,,,,,,,,,,,,,,,,1.6851851865649223,0.9395670000230893,204.92740750001394,None,ScrollUp,정답입니다,204.92740750001394,None,204.92740750001394,None,204.92740750001394,None,204.92740750001394,None,205.75116149999667,None,205.75116149999667,206.2513397000148,,,,,,,,,,,,,,,,104,2022-04-29_13h51.15.056,FishGame,2022.1.1,60.04004670854844,
,27,넌 붙임성있어,1,Green,A,5.708333333333333,5.633333333333334,ScrollDown,ScrollUp,Green.png,1,Positive,Congruent,,,,,0,0,0,0,,,,,,,,,,,,,0,26,26,26,,,,,,,,,,,,,,,,,,,,,,,,,,,,,,,,,,,,,,,,,,,,,,,,,,,,,,,,,,,,,,,,,,,,,,,,,,,,,,,,,1,1.2733611000003293,206.88982110001962,None,ScrollDown,정답입니다,206.88982110001962,None,206.88982110001962,None,206.88982110001962,None,206.88982110001962,None,208.05075260001468,None,208.05075260001468,208.5513155000226,,,,,,,,,,,,,,,,104,2022-04-29_13h51.15.056,FishGame,2022.1.1,60.04004670854844,
,28,넌 영리해,2,Green,A,6,4.033333333333333,ScrollDown,ScrollUp,Green.png,1,Positive,Congruent,,,,,0,0,0,0,,,,,,,,,,,,,0,27,27,27,,,,,,,,,,,,,,,,,,,,,,,,,,,,,,,,,,,,,,,,,,,,,,,,,,,,,,,,,,,,,,,,,,,,,,,,,,,,,,,,,1,1.0285478000005241,209.18166150001343,None,ScrollDown,정답입니다,209.18166150001343,None,209.18166150001343,None,209.18166150001343,None,209.18166150001343,None,210.1008849000209,None,210.1008849000209,210.60179090002202,,,,,,,,,,,,,,,,104,2022-04-29_13h51.15.056,FishGame,2022.1.1,60.04004670854844,
,29,넌 열심이야,1,Orange,B,6.041666666666667,5.833333333333333,ScrollUp,ScrollDown,Orange.png,1,Positive,Incongruent,,,,,0,0,0,0,,,,,,,,,,,,,0,28,28,28,,,,,,,,,,,,,,,,,,,,,,,,,,,,,,,,,,,,,,,,,,,,,,,,,,,,,,,,,,,,,,,,,,,,,,,,,,,,,,,,,1.8271604826052983,1.0594717000203673,211.23840580001706,None,ScrollUp,정답입니다,211.23840580001706,None,211.23840580001706,None,211.23840580001706,None,211.23840580001706,None,212.18556610000087,None,212.18556610000087,212.68515679999837,,,,,,,,,,,,,,,,104,2022-04-29_13h51.15.056,FishGame,2022.1.1,60.04004670854844,
,30,넌 인기없어,4,Orange,B,3,3.3,ScrollUp,ScrollDown,Orange.png,1,Negative,Congruent,,,,,0,0,0,0,,,,,,,,,,,,,0,29,29,29,,,,,,,,,,,,,,,,,,,,,,,,,,,,,,,,,,,,,,,,,,,,,,,,,,,,,,,,,,,,,,,,,,,,,,,,,,,,,,,,,1.7577160547176998,1.4508954999910202,213.3230223999999,None,ScrollUp,정답입니다,213.3230223999999,None,213.3230223999999,None,213.3230223999999,None,213.3230223999999,None,214.66476020001573,None,214.66476020001573,215.1684668000089,,,,,,,,,,,,,,,,104,2022-04-29_13h51.15.056,FishGame,2022.1.1,60.04004670854844,
,31,넌 익살스러워,3,Green,A,4.708333333333334,4.833333333333333,ScrollDown,ScrollUp,Green.png,1,Neutral,Neutral,,,,,0,0,0,0,,,,,,,,,,,,,0,30,30,30,,,,,,,,,,,,,,,,,,,,,,,,,,,,,,,,,,,,,,,,,,,,,,,,,,,,,,,,,,,,,,,,,,,,,,,,,,,,,,,,,1.0231481393178303,1.0907977000169922,215.8112951000221,None,ScrollDown,정답입니다,215.8112951000221,None,215.8112951000221,None,215.8112951000221,None,215.8112951000221,None,216.7846854000236,None,216.7846854000236,217.28527350001968,,,,,,,,,,,,,,,,104,2022-04-29_13h51.15.056,FishGame,2022.1.1,60.04004670854844,
,32,넌 이기적이야,5,Orange,B,2.291666666666667,2.333333333333333,ScrollUp,ScrollDown,Orange.png,1,Negative,Congruent,,,,,0,0,0,0,,,,,,,,,,,,,0,31,31,31,,,,,,,,,,,,,,,,,,,,,,,,,,,,,,,,,,,,,,,,,,,,,,,,,,,,,,,,,,,,,,,,,,,,,,,,,,,,,,,,,2,1.017542300018249,217.916059900017,None,ScrollUp,정답입니다,217.916059900017,None,217.916059900017,None,217.916059900017,None,217.916059900017,None,218.83160610002233,None,218.83160610002233,219.33480890002102,,,,,,,,,,,,,,,,104,2022-04-29_13h51.15.056,FishGame,2022.1.1,60.04004670854844,
,33,나를 데려가줘,6,Orange,B,0,0,ScrollDown,ScrollUp,Orange.png,1,NonTarget,NonTarget,,,,,0,0,0,0,,,,,,,,,,,,,0,32,32,32,,,,,,,,,,,,,,,,,,,,,,,,,,,,,,,,,,,,,,,,,,,,,,,,,,,,,,,,,,,,,,,,,,,,,,,,,,,,,,,,,1.0925925920406978,1.1390122000011615,219.9657514000137,None,ScrollDown,정답입니다,219.9657514000137,None,219.9657514000137,None,219.9657514000137,None,219.9657514000137,None,221.00119750000886,None,221.00119750000886,221.5017313999997,,,,,,,,,,,,,,,,104,2022-04-29_13h51.15.056,FishGame,2022.1.1,60.04004670854844,
,34,넌 기회주의자야,5,Green,A,2.875,2.133333333333333,ScrollDown,ScrollUp,Green.png,1,Negative,Incongruent,,,,,0,0,0,0,,,,,,,,,,,,,0,33,33,33,,,,,,,,,,,,,,,,,,,,,,,,,,,,,,,,,,,,,,,,,,,,,,,,,,,,,,,,,,,,,,,,,,,,,,,,,,,,,,,,,1.0817901194095612,1.0138166999968234,222.1378728999989,None,ScrollDown,정답입니다,222.1378728999989,None,222.1378728999989,None,222.1378728999989,None,222.1378728999989,None,223.03918839999824,None,223.03918839999824,223.55207910001627,,,,,,,,,,,,,,,,104,2022-04-29_13h51.15.056,FishGame,2022.1.1,60.04004670854844,
,1,넌 미성숙해,4,Green,A,3,3.2,ScrollDown,ScrollUp,Green.png,2,Negative,Incongruent,,,,,0,0,0,0,,,,,,,,,,,,,,,,,0,0,0,0,,,,,,,,,,,,,,,,,,,,,,,,,,,,,,,,,,,,257.26939550001407,258.768841800018,258.80262640002184,259.75280730001396,259.8027760999976,260.75286920001963,260.75286920001963,None,,,,,,,,,,,,,,,,,,,,,,,,,,,,,,,,,,1.0447530845801036,1.28038040001411,261.9080116999976,None,ScrollDown,정답입니다,261.9080116999976,None,261.9080116999976,None,261.9080116999976,None,261.9080116999976,None,263.0231657999975,None,263.0231657999975,263.535815500014,224.05179250001675,None,224.05179250001675,None,0.62314814,0.11388889,1,0,0,0.016119679989060387,None,254.05223719999776,None,,,104,2022-04-29_13h51.15.056,FishGame,2022.1.1,60.04004670854844,
,2,넌 반사회적이야,5,Orange,B,2.416666666666667,2.033333333333333,ScrollUp,ScrollDown,Orange.png,2,Negative,Congruent,,,,,0,0,0,0,,,,,,,,,,,,,,,,,0,1,1,1,,,,,,,,,,,,,,,,,,,,,,,,,,,,,,,,,,,,,,,,,,,,,,,,,,,,,,,,,,,,,,,,,,,,,,,,,,,,,1.8317901243766148,0.9657221000234131,264.1721611000248,None,ScrollUp,정답입니다,264.1721611000248,None,264.1721611000248,None,264.1721611000248,None,264.1721611000248,None,265.0233387000044,None,265.0233387000044,265.53619410001556,,,,,,,,,,,,,,,,104,2022-04-29_13h51.15.056,FishGame,2022.1.1,60.04004670854844,
,3,넌 유능해,2,Green,A,6.208333333333333,4.433333333333334,ScrollDown,ScrollUp,Green.png,2,Positive,Congruent,,,,,0,0,0,0,,,,,,,,,,,,,,,,,0,2,2,2,,,,,,,,,,,,,,,,,,,,,,,,,,,,,,,,,,,,,,,,,,,,,,,,,,,,,,,,,,,,,,,,,,,,,,,,,,,,,1,0.9352601999999024,266.16881850000937,None,ScrollDown,정답입니다,266.16881850000937,None,266.16881850000937,None,266.16881850000937,None,266.16881850000937,None,266.99927540001227,None,266.99927540001227,267.5028317000251,,,,,,,,,,,,,,,,104,2022-04-29_13h51.15.056,FishGame,2022.1.1,60.04004670854844,
,4,넌 능숙해,2,Orange,B,5.666666666666667,4.733333333333333,ScrollUp,ScrollDown,Orange.png,2,Positive,Incongruent,,,,,0,0,0,0,,,,,,,,,,,,,,,,,0,3,3,3,,,,,,,,,,,,,,,,,,,,,,,,,,,,,,,,,,,,,,,,,,,,,,,,,,,,,,,,,,,,,,,,,,,,,,,,,,,,,1.919753094514211,0.895428100018762,268.12985690002097,None,ScrollUp,정답입니다,268.12985690002097,None,268.12985690002097,None,268.12985690002097,None,268.12985690002097,None,268.9213871000102,None,268.9213871000102,269.4356607000227,,,,,,,,,,,,,,,,104,2022-04-29_13h51.15.056,FishGame,2022.1.1,60.04004670854844,
,5,넌 진부해,4,Orange,B,2.458333333333333,3.166666666666667,ScrollUp,ScrollDown,Orange.png,2,Negative,Congruent,,,,,0,0,0,0,,,,,,,,,,,,,,,,,0,4,4,4,,,,,,,,,,,,,,,,,,,,,,,,,,,,,,,,,,,,,,,,,,,,,,,,,,,,,,,,,,,,,,,,,,,,,,,,,,,,,1.8333333383003871,0.9392271999968216,270.10089950001566,None,ScrollUp,정답입니다,270.10089950001566,None,270.10089950001566,None,270.10089950001566,None,270.10089950001566,None,270.9022361000243,None,270.9022361000243,271.40303810001933,,,,,,,,,,,,,,,,104,2022-04-29_13h51.15.056,FishGame,2022.1.1,60.04004670854844,
,6,나를 보내줘,6,Green,A,0,0,ScrollUp,ScrollDown,Green.png,2,NonTarget,NonTarget,,,,,0,0,0,0,,,,,,,,,,,,,,,,,0,5,5,5,,,,,,,,,,,,,,,,,,,,,,,,,,,,,,,,,,,,,,,,,,,,,,,,,,,,,,,,,,,,,,,,,,,,,,,,,,,,,1.8518518557151158,1.1211967999988701,272.030050100002,None,ScrollUp,정답입니다,272.030050100002,None,272.030050100002,None,272.030050100002,None,272.030050100002,None,273.049096200004,None,273.049096200004,273.55252420000033,,,,,,,,,,,,,,,,104,2022-04-29_13h51.15.056,FishGame,2022.1.1,60.04004670854844,
,7,넌 엄격해,3,Green,A,4.166666666666666,4.1,ScrollDown,ScrollUp,Green.png,2,Neutral,Neutral,,,,,0,0,0,0,,,,,,,,,,,,,,,,,0,6,6,6,,,,,,,,,,,,,,,,,,,,,,,,,,,,,,,,,,,,,,,,,,,,,,,,,,,,,,,,,,,,,,,,,,,,,,,,,,,,,1,0.9693937000120059,274.1931446000235,None,ScrollDown,정답입니다,274.1931446000235,None,274.1931446000235,None,274.1931446000235,None,274.1931446000235,None,275.04207160000806,None,275.04207160000806,275.55258519999916,,,,,,,,,,,,,,,,104,2022-04-29_13h51.15.056,FishGame,2022.1.1,60.04004670854844,
,8,나를 보내줘,6,Green,A,0,0,ScrollUp,ScrollDown,Green.png,2,NonTarget,NonTarget,,,,,0,0,0,0,,,,,,,,,,,,,,,,,0,7,7,7,,,,,,,,,,,,,,,,,,,,,,,,,,,,,,,,,,,,,,,,,,,,,,,,,,,,,,,,,,,,,,,,,,,,,,,,,,,,,1.8148148208856583,0.9345477000169922,276.1772206000169,None,ScrollUp,정답입니다,276.1772206000169,None,276.1772206000169,None,276.1772206000169,None,276.1772206000169,None,277.0158343000221,None,277.0158343000221,277.5190341999987,,,,,,,,,,,,,,,,104,2022-04-29_13h51.15.056,FishGame,2022.1.1,60.04004670854844,
,9,넌 대담해,3,Orange,B,4.875,4.866666666666666,ScrollUp,ScrollDown,Orange.png,2,Neutral,Neutral,,,,,0,0,0,0,,,,,,,,,,,,,,,,,0,8,8,8,,,,,,,,,,,,,,,,,,,,,,,,,,,,,,,,,,,,,,,,,,,,,,,,,,,,,,,,,,,,,,,,,,,,,,,,,,,,,1.858024686574936,1.0556280000018887,278.1674619000114,None,ScrollUp,정답입니다,278.1674619000114,None,278.1674619000114,None,278.1674619000114,None,278.1674619000114,None,279.1018914000015,None,279.1018914000015,279.6033204999985,,,,,,,,,,,,,,,,104,2022-04-29_13h51.15.056,FishGame,2022.1.1,60.04004670854844,
,10,넌 꾸준해,1,Green,A,5.916666666666668,5.8,ScrollDown,ScrollUp,Green.png,2,Positive,Congruent,,,,,0,0,0,0,,,,,,,,,,,,,,,,,0,9,9,9,,,,,,,,,,,,,,,,,,,,,,,,,,,,,,,,,,,,,,,,,,,,,,,,,,,,,,,,,,,,,,,,,,,,,,,,,,,,,1.0833333333333333,1.0558547000109684,280.2354183999996,None,ScrollDown,정답입니다,280.2354183999996,None,280.2354183999996,None,280.2354183999996,None,280.2354183999996,None,281.1859143000038,None,281.1859143000038,281.6861162999994,,,,,,,,,,,,,,,,104,2022-04-29_13h51.15.056,FishGame,2022.1.1,60.04004670854844,
,11,나를 데려가줘,6,Orange,B,0,0,ScrollDown,ScrollUp,Orange.png,2,NonTarget,NonTarget,,,,,0,0,0,0,,,,,,,,,,,,,,,,,0,10,10,10,,,,,,,,,,,,,,,,,,,,,,,,,,,,,,,,,,,,,,,,,,,,,,,,,,,,,,,,,,,,,,,,,,,,,,,,,,,,,1.1049382785956066,1.1820166000106838,282.31689539999934,None,ScrollDown,정답입니다,282.31689539999934,None,282.31689539999934,None,282.31689539999934,None,282.31689539999934,None,283.3901964999968,None,283.3901964999968,283.90264240000397,,,,,,,,,,,,,,,,104,2022-04-29_13h51.15.056,FishGame,2022.1.1,60.04004670854844,
,12,넌 독선적이야,5,Green,A,2.458333333333333,1.933333333333333,ScrollDown,ScrollUp,Green.png,2,Negative,Incongruent,,,,,0,0,0,0,,,,,,,,,,,,,,,,,0,11,11,11,,,,,,,,,,,,,,,,,,,,,,,,,,,,,,,,,,,,,,,,,,,,,,,,,,,,,,,,,,,,,,,,,,,,,,,,,,,,,1.0277777810891469,1.2719205000030342,284.5394887000148,None,ScrollDown,정답입니다,284.5394887000148,None,284.5394887000148,None,284.5394887000148,None,284.5394887000148,None,285.7027605000185,None,285.7027605000185,286.20271559999674,,,,,,,,,,,,,,,,104,2022-04-29_13h51.15.056,FishGame,2022.1.1,60.04004670854844,
,13,나를 보내줘,6,Green,A,0,0,ScrollUp,ScrollDown,Green.png,2,NonTarget,NonTarget,,,,,0,0,0,0,,,,,,,,,,,,,,,,,0,12,12,12,,,,,,,,,,,,,,,,,,,,,,,,,,,,,,,,,,,,,,,,,,,,,,,,,,,,,,,,,,,,,,,,,,,,,,,,,,,,,1.799382706483205,1.0393508000124712,286.83416610001586,None,ScrollUp,정답입니다,286.83416610001586,None,286.83416610001586,None,286.83416610001586,None,286.83416610001586,None,287.76572140000644,None,287.76572140000644,288.2696697000065,,,,,,,,,,,,,,,,104,2022-04-29_13h51.15.056,FishGame,2022.1.1,60.04004670854844,
,14,넌 책임감있어,1,Orange,B,6.347826086956522,6,ScrollUp,ScrollDown,Orange.png,2,Positive,Incongruent,,,,,0,0,0,0,,,,,,,,,,,,,,,,,0,13,13,13,,,,,,,,,,,,,,,,,,,,,,,,,,,,,,,,,,,,,,,,,,,,,,,,,,,,,,,,,,,,,,,,,,,,,,,,,,,,,1.9259259502092998,1.3016937999927904,288.910177200014,None,ScrollUp,정답입니다,288.910177200014,None,288.910177200014,None,288.910177200014,None,288.910177200014,None,290.0992088000057,None,290.0992088000057,290.6031596000248,,,,,,,,,,,,,,,,104,2022-04-29_13h51.15.056,FishGame,2022.1.1,60.04004670854844,
,15,넌 문학적이야,3,Green,A,4.708333333333334,4.333333333333333,ScrollDown,ScrollUp,Green.png,2,Neutral,Neutral,,,,,0,0,0,0,,,,,,,,,,,,,,,,,0,14,14,14,,,,,,,,,,,,,,,,,,,,,,,,,,,,,,,,,,,,,,,,,,,,,,,,,,,,,,,,,,,,,,,,,,,,,,,,,,,,,1.1589506169160206,0.9437326000188477,291.23958540000604,None,ScrollDown,정답입니다,291.23958540000604,None,291.23958540000604,None,291.23958540000604,None,291.23958540000604,None,292.0690522000077,None,292.0690522000077,292.5698388000019,,,,,,,,,,,,,,,,104,2022-04-29_13h51.15.056,FishGame,2022.1.1,60.04004670854844,
,16,넌 재미있어,1,Orange,B,5.875,5.7,ScrollUp,ScrollDown,Orange.png,2,Positive,Incongruent,,,,,0,0,0,0,,,,,,,,,,,,,,,,,0,15,15,15,,,,,,,,,,,,,,,,,,,,,,,,,,,,,,,,,,,,,,,,,,,,,,,,,,,,,,,,,,,,,,,,,,,,,,,,,,,,,1.7145061641931534,0.8621963000041433,293.2001246,None,ScrollUp,정답입니다,293.2001246,None,293.2001246,None,293.2001246,None,293.2001246,None,293.9571361000126,None,293.9571361000126,294.46961070000543,,,,,,,,,,,,,,,,104,2022-04-29_13h51.15.056,FishGame,2022.1.1,60.04004670854844,
,17,나를 데려가줘,6,Orange,B,0,0,ScrollDown,ScrollUp,Orange.png,2,NonTarget,NonTarget,,,,,0,0,0,0,,,,,,,,,,,,,,,,,0,16,16,16,,,,,,,,,,,,,,,,,,,,,,,,,,,,,,,,,,,,,,,,,,,,,,,,,,,,,,,,,,,,,,,,,,,,,,,,,,,,,1.2391975422700245,1.5932082000072114,295.1008213000023,None,ScrollDown,정답입니다,295.1008213000023,None,295.1008213000023,None,295.1008213000023,None,295.1008213000023,None,296.58594070002437,None,296.58594070002437,297.08614769999986,,,,,,,,,,,,,,,,104,2022-04-29_13h51.15.056,FishGame,2022.1.1,60.04004670854844,
,18,넌 협력적이야,1,Green,A,5.625,5.633333333333334,ScrollDown,ScrollUp,Green.png,2,Positive,Congruent,,,,,0,0,0,0,,,,,,,,,,,,,,,,,0,17,17,17,,,,,,,,,,,,,,,,,,,,,,,,,,,,,,,,,,,,,,,,,,,,,,,,,,,,,,,,,,,,,,,,,,,,,,,,,,,,,1,1.0054472999763675,297.7187495000253,None,ScrollDown,정답입니다,297.7187495000253,None,297.7187495000253,None,297.7187495000253,None,297.7187495000253,None,298.61988330000895,None,298.61988330000895,299.11972730001435,,,,,,,,,,,,,,,,104,2022-04-29_13h51.15.056,FishGame,2022.1.1,60.04004670854844,
,19,넌 평범해,3,Orange,B,4.333333333333332,4.233333333333333,ScrollUp,ScrollDown,Orange.png,2,Neutral,Neutral,,,,,0,0,0,0,,,,,,,,,,,,,,,,,0,18,18,18,,,,,,,,,,,,,,,,,,,,,,,,,,,,,,,,,,,,,,,,,,,,,,,,,,,,,,,,,,,,,,,,,,,,,,,,,,,,,2,0.9726124000153504,299.77614260002156,None,ScrollUp,정답입니다,299.77614260002156,None,299.77614260002156,None,299.77614260002156,None,299.77614260002156,None,300.61970350000774,None,300.61970350000774,301.12013530000695,,,,,,,,,,,,,,,,104,2022-04-29_13h51.15.056,FishGame,2022.1.1,60.04004670854844,
,20,넌 오만해,5,Green,A,2.333333333333333,2,ScrollDown,ScrollUp,Green.png,2,Negative,Incongruent,,,,,0,0,0,0,,,,,,,,,,,,,,,,,0,19,19,19,,,,,,,,,,,,,,,,,,,,,,,,,,,,,,,,,,,,,,,,,,,,,,,,,,,,,,,,,,,,,,,,,,,,,,,,,,,,,1.2052469104528427,0.9516401000146288,301.7496098999982,None,ScrollDown,정답입니다,301.7496098999982,None,301.7496098999982,None,301.7496098999982,None,301.7496098999982,None,302.6000159000105,None,302.6000159000105,303.1036851000099,,,,,,,,,,,,,,,,104,2022-04-29_13h51.15.056,FishGame,2022.1.1,60.04004670854844,
,21,넌 운이없어,4,Orange,B,3,3.466666666666667,ScrollUp,ScrollDown,Orange.png,2,Negative,Congruent,,,,,0,0,0,0,,,,,,,,,,,,,,,,,0,20,20,20,,,,,,,,,,,,,,,,,,,,,,,,,,,,,,,,,,,,,,,,,,,,,,,,,,,,,,,,,,,,,,,,,,,,,,,,,,,,,1.8117283930381138,0.9916822999948636,303.740835900011,None,ScrollUp,정답입니다,303.740835900011,None,303.740835900011,None,303.740835900011,None,303.740835900011,None,304.6194736000034,None,304.6194736000034,305.119715000008,,,,,,,,,,,,,,,,104,2022-04-29_13h51.15.056,FishGame,2022.1.1,60.04004670854844,
,22,넌 창조적이야,2,Orange,B,6.125,4.633333333333334,ScrollUp,ScrollDown,Orange.png,2,Positive,Incongruent,,,,,0,0,0,0,,,,,,,,,,,,,,,,,0,21,21,21,,,,,,,,,,,,,,,,,,,,,,,,,,,,,,,,,,,,,,,,,,,,,,,,,,,,,,,,,,,,,,,,,,,,,,,,,,,,,1.8765432039896648,0.9060556999756955,305.75864290000754,None,ScrollUp,정답입니다,305.75864290000754,None,305.75864290000754,None,305.75864290000754,None,305.75864290000754,None,306.5530123000208,None,306.5530123000208,307.0532048000023,,,,,,,,,,,,,,,,104,2022-04-29_13h51.15.056,FishGame,2022.1.1,60.04004670854844,
,23,나를 보내줘,6,Green,A,0,0,ScrollUp,ScrollDown,Green.png,2,NonTarget,NonTarget,,,,,0,0,0,0,,,,,,,,,,,,,,,,,0,22,22,22,,,,,,,,,,,,,,,,,,,,,,,,,,,,,,,,,,,,,,,,,,,,,,,,,,,,,,,,,,,,,,,,,,,,,,,,,,,,,1.6712962985038757,1.048547199985478,307.6774704999989,None,ScrollUp,정답입니다,307.6774704999989,None,307.6774704999989,None,307.6774704999989,None,307.6774704999989,None,308.6241666999995,None,308.6241666999995,309.1368551000196,,,,,,,,,,,,,,,,104,2022-04-29_13h51.15.056,FishGame,2022.1.1,60.04004670854844,
,24,넌 통찰력있어,2,Green,A,6.5,4.8,ScrollDown,ScrollUp,Green.png,2,Positive,Congruent,,,,,0,0,0,0,,,,,,,,,,,,,,,,,0,23,23,23,,,,,,,,,,,,,,,,,,,,,,,,,,,,,,,,,,,,,,,,,,,,,,,,,,,,,,,,,,,,,,,,,,,,,,,,,,,,,1.0432098706563313,1.6098077000060584,309.77080220001517,None,ScrollDown,정답입니다,309.77080220001517,None,309.77080220001517,None,309.77080220001517,None,309.77080220001517,None,311.2715423000045,None,311.2715423000045,311.7868217000214,,,,,,,,,,,,,,,,104,2022-04-29_13h51.15.056,FishGame,2022.1.1,60.04004670854844,
,25,넌 경솔해,5,Orange,B,2.458333333333333,2.266666666666667,ScrollUp,ScrollDown,Orange.png,2,Negative,Congruent,,,,,0,0,0,0,,,,,,,,,,,,,,,,,0,24,24,24,,,,,,,,,,,,,,,,,,,,,,,,,,,,,,,,,,,,,,,,,,,,,,,,,,,,,,,,,,,,,,,,,,,,,,,,,,,,,1.9922839502493541,1.1439992999949027,312.42375060002087,None,ScrollUp,정답입니다,312.42375060002087,None,312.42375060002087,None,312.42375060002087,None,312.42375060002087,None,313.45465290002176,None,313.45465290002176,313.9702688000107,,,,,,,,,,,,,,,,104,2022-04-29_13h51.15.056,FishGame,2022.1.1,60.04004670854844,
,26,넌 초조해,4,Green,A,2.916666666666667,3.133333333333333,ScrollDown,ScrollUp,Green.png,2,Negative,Incongruent,,,,,0,0,0,0,,,,,,,,,,,,,,,,,0,25,25,25,,,,,,,,,,,,,,,,,,,,,,,,,,,,,,,,,,,,,,,,,,,,,,,,,,,,,,,,,,,,,,,,,,,,,,,,,,,,,1.212962955236435,1.2895179000042845,314.60244930000044,None,ScrollDown,정답입니다,314.60244930000044,None,314.60244930000044,None,314.60244930000044,None,314.60244930000044,None,315.78637270000763,None,315.78637270000763,316.2868134000164,,,,,,,,,,,,,,,,104,2022-04-29_13h51.15.056,FishGame,2022.1.1,60.04004670854844,
,27,넌 무관심해,4,Orange,B,2.833333333333333,2.9,ScrollUp,ScrollDown,Orange.png,2,Negative,Congruent,,,,,0,0,0,0,,,,,,,,,,,,,,,,,0,26,26,26,,,,,,,,,,,,,,,,,,,,,,,,,,,,,,,,,,,,,,,,,,,,,,,,,,,,,,,,,,,,,,,,,,,,,,,,,,,,,1.839506169160207,0.9350517000129912,316.9230787999986,None,ScrollUp,정답입니다,316.9230787999986,None,316.9230787999986,None,316.9230787999986,None,316.9230787999986,None,317.75006740001845,None,317.75006740001845,318.253266100015,,,,,,,,,,,,,,,,104,2022-04-29_13h51.15.056,FishGame,2022.1.1,60.04004670854844,
,28,넌 감성적이야,3,Orange,B,4.125,4.166666666666667,ScrollUp,ScrollDown,Orange.png,2,Neutral,Neutral,,,,,0,0,0,0,,,,,,,,,,,,,,,,,0,27,27,27,,,,,,,,,,,,,,,,,,,,,,,,,,,,,,,,,,,,,,,,,,,,,,,,,,,,,,,,,,,,,,,,,,,,,,,,,,,,,1.8240740795930226,0.9057727000035811,318.88881640002364,None,ScrollUp,정답입니다,318.88881640002364,None,318.88881640002364,None,318.88881640002364,None,318.88881640002364,None,319.6864892000158,None,319.6864892000158,320.18703370000003,,,,,,,,,,,,,,,,104,2022-04-29_13h51.15.056,FishGame,2022.1.1,60.04004670854844,
,29,넌 배려심있어,1,Green,A,6.083333333333333,5.5,ScrollDown,ScrollUp,Green.png,2,Positive,Congruent,,,,,0,0,0,0,,,,,,,,,,,,,,,,,0,28,28,28,,,,,,,,,,,,,,,,,,,,,,,,,,,,,,,,,,,,,,,,,,,,,,,,,,,,,,,,,,,,,,,,,,,,,,,,,,,,,1.0925925920406978,1.1550145999935921,320.8201247000252,None,ScrollDown,정답입니다,320.8201247000252,None,320.8201247000252,None,320.8201247000252,None,320.8201247000252,None,321.87027480002143,None,321.87027480002143,322.37048850001884,,,,,,,,,,,,,,,,104,2022-04-29_13h51.15.056,FishGame,2022.1.1,60.04004670854844,
,30,넌 숨김없어,3,Green,A,4.5,4.933333333333334,ScrollDown,ScrollUp,Green.png,2,Neutral,Neutral,,,,,0,0,0,0,,,,,,,,,,,,,,,,,0,29,29,29,,,,,,,,,,,,,,,,,,,,,,,,,,,,,,,,,,,,,,,,,,,,,,,,,,,,,,,,,,,,,,,,,,,,,,,,,,,,,1.214506169160207,0.8983984999940731,323.00306450002245,None,ScrollDown,정답입니다,323.00306450002245,None,323.00306450002245,None,323.00306450002245,None,323.00306450002245,None,323.7911600000225,None,323.7911600000225,324.3040559000219,,,,,,,,,,,,,,,,104,2022-04-29_13h51.15.056,FishGame,2022.1.1,60.04004670854844,
,31,넌 훌륭해,2,Orange,B,5.916666666666667,4.033333333333333,ScrollUp,ScrollDown,Orange.png,2,Positive,Incongruent,,,,,0,0,0,0,,,,,,,,,,,,,,,,,0,30,30,30,,,,,,,,,,,,,,,,,,,,,,,,,,,,,,,,,,,,,,,,,,,,,,,,,,,,,,,,,,,,,,,,,,,,,,,,,,,,,1.765432099501292,0.8983326000161469,324.94316880000406,None,ScrollUp,정답입니다,324.94316880000406,None,324.94316880000406,None,324.94316880000406,None,324.94316880000406,None,325.7247731000243,None,325.7247731000243,326.2370540999982,,,,,,,,,,,,,,,,104,2022-04-29_13h51.15.056,FishGame,2022.1.1,60.04004670854844,
,32,넌 슬기로워,2,Green,A,6.166666666666667,4.1,ScrollDown,ScrollUp,Green.png,2,Positive,Congruent,,,,,0,0,0,0,,,,,,,,,,,,,,,,,0,31,31,31,,,,,,,,,,,,,,,,,,,,,,,,,,,,,,,,,,,,,,,,,,,,,,,,,,,,,,,,,,,,,,,,,,,,,,,,,,,,,1.0910493781169255,0.9025509000057355,326.8659144999983,None,ScrollDown,정답입니다,326.8659144999983,None,326.8659144999983,None,326.8659144999983,None,326.8659144999983,None,327.6670342000143,None,327.6670342000143,328.1700727000134,,,,,,,,,,,,,,,,104,2022-04-29_13h51.15.056,FishGame,2022.1.1,60.04004670854844,
,33,넌 냉혹해,5,Green,A,2.583333333333333,2.1,ScrollDown,ScrollUp,Green.png,2,Negative,Incongruent,,,,,0,0,0,0,,,,,,,,,,,,,,,,,0,32,32,32,,,,,,,,,,,,,,,,,,,,,,,,,,,,,,,,,,,,,,,,,,,,,,,,,,,,,,,,,,,,,,,,,,,,,,,,,,,,,1.1342592686414719,0.9326868999924045,328.80470290000085,None,ScrollDown,정답입니다,328.80470290000085,None,328.80470290000085,None,328.80470290000085,None,328.80470290000085,None,329.62444569999934,None,329.62444569999934,330.13719550002133,,,,,,,,,,,,,,,,104,2022-04-29_13h51.15.056,FishGame,2022.1.1,60.04004670854844,
,34,나를 데려가줘,6,Orange,B,0,0,ScrollDown,ScrollUp,Orange.png,2,NonTarget,NonTarget,,,,,0,0,0,0,,,,,,,,,,,,,,,,,0,33,33,33,,,,,,,,,,,,,,,,,,,,,,,,,,,,,,,,,,,,,,,,,,,,,,,,,,,,,,,,,,,,,,,,,,,,,,,,,,,,,1.1049382785956066,1.531386599992402,330.7779096000013,None,ScrollDown,정답입니다,330.7779096000013,None,330.7779096000013,None,330.7779096000013,None,330.7779096000013,None,332.19133339999826,None,332.19133339999826,332.7037672000006,,,,,,,,,,,,,,,,104,2022-04-29_13h51.15.056,FishGame,2022.1.1,60.04004670854844,
,35,넌 편파적이야,5,Orange,B,2.125,2,ScrollUp,ScrollDown,Orange.png,2,Negative,Congruent,,,,,0,0,0,0,,,,,,,,,,,,,,,,,0,34,34,34,,,,,,,,,,,,,,,,,,,,,,,,,,,,,,,,,,,,,,,,,,,,,,,,,,,,,,,,,,,,,,,,,,,,,,,,,,,,,1.4845679011195898,0.9908273000037298,333.3467920999974,None,NoResponse,무응답입니다,333.3467920999974,None,333.3467920999974,None,333.3467920999974,None,333.3467920999974,None,334.2194005000056,None,334.2194005000056,334.7204638000112,,,,,,,,,,,,,,,,104,2022-04-29_13h51.15.056,FishGame,2022.1.1,60.04004670854844,
,36,넌 슬퍼,4,Green,A,2.583333333333333,3.066666666666667,ScrollDown,ScrollUp,Green.png,2,Negative,Incongruent,,,,,0,0,0,0,,,,,,,,,,,,,,,,,0,35,35,35,,,,,,,,,,,,,,,,,,,,,,,,,,,,,,,,,,,,,,,,,,,,,,,,,,,,,,,,,,,,,,,,,,,,,,,,,,,,,1.0679012437661488,1.53796479999437,335.35023540002294,None,ScrollDown,정답입니다,335.35023540002294,None,335.35023540002294,None,335.35023540002294,None,335.35023540002294,None,336.77920410002116,None,336.77920410002116,337.2874168000126,,,,,,,,,,,,,,,,104,2022-04-29_13h51.15.056,FishGame,2022.1.1,60.04004670854844,
,37,나를 데려가줘,6,Orange,B,0,0,ScrollDown,ScrollUp,Orange.png,2,NonTarget,NonTarget,,,,,0,0,0,0,,,,,,,,,,,,,,,,,0,36,36,36,,,,,,,,,,,,,,,,,,,,,,,,,,,,,,,,,,,,,,,,,,,,,,,,,,,,,,,,,,,,,,,,,,,,,,,,,,,,,1,1.1423695999837946,337.9177077000204,None,ScrollDown,정답입니다,337.9177077000204,None,337.9177077000204,None,337.9177077000204,None,337.9177077000204,None,338.9536556000239,None,338.9536556000239,339.45441279999795,,,,,,,,,,,,,,,,104,2022-04-29_13h51.15.056,FishGame,2022.1.1,60.04004670854844,
,38,넌 친절해,1,Orange,B,6.041666666666667,5.533333333333333,ScrollUp,ScrollDown,Orange.png,2,Positive,Incongruent,,,,,0,0,0,0,,,,,,,,,,,,,,,,,0,37,37,37,,,,,,,,,,,,,,,,,,,,,,,,,,,,,,,,,,,,,,,,,,,,,,,,,,,,,,,,,,,,,,,,,,,,,,,,,,,,,1.7145061641931534,0.9843470999912824,340.09568930001114,None,ScrollUp,정답입니다,340.09568930001114,None,340.09568930001114,None,340.09568930001114,None,340.09568930001114,None,340.96698769999784,None,340.96698769999784,341.4707782000187,,,,,,,,,,,,,,,,104,2022-04-29_13h51.15.056,FishGame,2022.1.1,60.04004670854844,
,1,넌 엉성해,4,Green,A,3,3.3,ScrollDown,ScrollUp,Green.png,3,Negative,Incongruent,,,,,0,0,0,0,,,,,,,,,,,,,,,,,,,,,0,0,0,0,,,,,,,,,,,,,,,,,,,,,,,,,,,,,,,,373.57131670002127,375.0717515000142,375.1048714000208,376.0546560000221,376.10462700002245,377.0546803000034,377.0546803000034,None,,,,,,,,,,,,,,,,,,,,,,,,,,,,,,,,,,1.0262345671653748,1.0968669999856502,378.20949160002056,None,ScrollDown,정답입니다,378.20949160002056,None,378.20949160002056,None,378.20949160002056,None,378.20949160002056,None,379.1424001000123,None,379.1424001000123,379.65476689999923,341.9710851999989,None,341.9710851999989,None,0.6805556,0.05185185,0,0,0,0.01632238001911901,None,371.97146910001175,None,,,104,2022-04-29_13h51.15.056,FishGame,2022.1.1,60.04004670854844,
,2,나를 보내줘,6,Green,A,0,0,ScrollUp,ScrollDown,Green.png,3,NonTarget,NonTarget,,,,,0,0,0,0,,,,,,,,,,,,,,,,,,,,,0,1,1,1,,,,,,,,,,,,,,,,,,,,,,,,,,,,,,,,,,,,,,,,,,,,,,,,,,,,,,,,,,,,,,,,,,,,,,,,,1.9552469154198964,1.0171897999825887,380.28595350001706,None,ScrollUp,정답입니다,380.28595350001706,None,380.28595350001706,None,380.28595350001706,None,380.28595350001706,None,381.20103820000077,None,381.20103820000077,381.7046098000137,,,,,,,,,,,,,,,,104,2022-04-29_13h51.15.056,FishGame,2022.1.1,60.04004670854844,
,3,넌 활발해,1,Orange,B,5.666666666666667,5.6,ScrollUp,ScrollDown,Orange.png,3,Positive,Incongruent,,,,,0,0,0,0,,,,,,,,,,,,,,,,,,,,,0,2,2,2,,,,,,,,,,,,,,,,,,,,,,,,,,,,,,,,,,,,,,,,,,,,,,,,,,,,,,,,,,,,,,,,,,,,,,,,,1.9814815024534862,0.9885972999909427,382.3474275000044,None,ScrollUp,정답입니다,382.3474275000044,None,382.3474275000044,None,382.3474275000044,None,382.3474275000044,None,383.2213751000236,None,383.2213751000236,383.721451600024,,,,,,,,,,,,,,,,104,2022-04-29_13h51.15.056,FishGame,2022.1.1,60.04004670854844,
,4,넌 논리적이야,2,Green,A,5.666666666666666,4.633333333333334,ScrollDown,ScrollUp,Green.png,3,Positive,Congruent,,,,,0,0,0,0,,,,,,,,,,,,,,,,,,,,,0,3,3,3,,,,,,,,,,,,,,,,,,,,,,,,,,,,,,,,,,,,,,,,,,,,,,,,,,,,,,,,,,,,,,,,,,,,,,,,,1.1049382785956066,0.9904907000018284,384.3514461000159,None,ScrollDown,정답입니다,384.3514461000159,None,384.3514461000159,None,384.3514461000159,None,384.3514461000159,None,385.2378510000126,None,385.2378510000126,385.7380355000205,,,,,,,,,,,,,,,,104,2022-04-29_13h51.15.056,FishGame,2022.1.1,60.04004670854844,
,5,넌 과묵해,3,Green,A,3.875,4.4,ScrollDown,ScrollUp,Green.png,3,Neutral,Neutral,,,,,0,0,0,0,,,,,,,,,,,,,,,,,,,,,0,4,4,4,,,,,,,,,,,,,,,,,,,,,,,,,,,,,,,,,,,,,,,,,,,,,,,,,,,,,,,,,,,,,,,,,,,,,,,,,1,0.861777100013569,386.36869160001515,None,ScrollDown,정답입니다,386.36869160001515,None,386.36869160001515,None,386.36869160001515,None,386.36869160001515,None,387.124283800018,None,387.124283800018,387.6382933999994,,,,,,,,,,,,,,,,104,2022-04-29_13h51.15.056,FishGame,2022.1.1,60.04004670854844,
,6,나를 데려가줘,6,Orange,B,0,0,ScrollDown,ScrollUp,Orange.png,3,NonTarget,NonTarget,,,,,0,0,0,0,,,,,,,,,,,,,,,,,,,,,0,5,5,5,,,,,,,,,,,,,,,,,,,,,,,,,,,,,,,,,,,,,,,,,,,,,,,,,,,,,,,,,,,,,,,,,,,,,,,,,1.1527777860562007,1.4114371000032406,388.2678797999979,None,ScrollDown,정답입니다,388.2678797999979,None,388.2678797999979,None,388.2678797999979,None,388.2678797999979,None,389.5745921000198,None,389.5745921000198,390.0881049000018,,,,,,,,,,,,,,,,104,2022-04-29_13h51.15.056,FishGame,2022.1.1,60.04004670854844,
,7,넌 미숙해,4,Orange,B,3,3,ScrollUp,ScrollDown,Orange.png,3,Negative,Congruent,,,,,0,0,0,0,,,,,,,,,,,,,,,,,,,,,0,6,6,6,,,,,,,,,,,,,,,,,,,,,,,,,,,,,,,,,,,,,,,,,,,,,,,,,,,,,,,,,,,,,,,,,,,,,,,,,1.825617293516795,0.9587598000071011,390.71804800000973,None,ScrollUp,정답입니다,390.71804800000973,None,390.71804800000973,None,390.71804800000973,None,390.71804800000973,None,391.57094260002486,None,391.57094260002486,392.07169470001827,,,,,,,,,,,,,,,,104,2022-04-29_13h51.15.056,FishGame,2022.1.1,60.04004670854844,
,8,나를 보내줘,6,Green,A,0,0,ScrollUp,ScrollDown,Green.png,3,NonTarget,NonTarget,,,,,0,0,0,0,,,,,,,,,,,,,,,,,,,,,0,7,7,7,,,,,,,,,,,,,,,,,,,,,,,,,,,,,,,,,,,,,,,,,,,,,,,,,,,,,,,,,,,,,,,,,,,,,,,,,1.6759259278575578,1.1487496999907307,392.7061404999986,None,ScrollUp,정답입니다,392.7061404999986,None,392.7061404999986,None,392.7061404999986,None,392.7061404999986,None,393.7428392000147,None,393.7428392000147,394.2550808000087,,,,,,,,,,,,,,,,104,2022-04-29_13h51.15.056,FishGame,2022.1.1,60.04004670854844,
,9,넌 자신만만해,3,Orange,B,4.833333333333334,4.333333333333333,ScrollUp,ScrollDown,Orange.png,3,Neutral,Neutral,,,,,0,0,0,0,,,,,,,,,,,,,,,,,,,,,0,8,8,8,,,,,,,,,,,,,,,,,,,,,,,,,,,,,,,,,,,,,,,,,,,,,,,,,,,,,,,,,,,,,,,,,,,,,,,,,1.6157407462596893,1.3747315999935381,394.88818840001477,None,ScrollUp,정답입니다,394.88818840001477,None,394.88818840001477,None,394.88818840001477,None,394.88818840001477,None,396.15489750000415,None,396.15489750000415,396.65499840001576,,,,,,,,,,,,,,,,104,2022-04-29_13h51.15.056,FishGame,2022.1.1,60.04004670854844,
,10,넌 탐욕스러워,5,Green,A,2.25,2.1,ScrollDown,ScrollUp,Green.png,3,Negative,Incongruent,,,,,0,0,0,0,,,,,,,,,,,,,,,,,,,,,0,9,9,9,,,,,,,,,,,,,,,,,,,,,,,,,,,,,,,,,,,,,,,,,,,,,,,,,,,,,,,,,,,,,,,,,,,,,,,,,1.2175925970077515,0.8942391999880783,397.29289130002144,None,ScrollDown,정답입니다,397.29289130002144,None,397.29289130002144,None,397.29289130002144,None,397.29289130002144,None,398.0708869000082,None,398.0708869000082,398.57115040000645,,,,,,,,,,,,,,,,104,2022-04-29_13h51.15.056,FishGame,2022.1.1,60.04004670854844,
,11,넌 인기있어,2,Green,A,5.458333333333333,4.5,ScrollDown,ScrollUp,Green.png,3,Positive,Congruent,,,,,0,0,0,0,,,,,,,,,,,,,,,,,,,,,0,10,10,10,,,,,,,,,,,,,,,,,,,,,,,,,,,,,,,,,,,,,,,,,,,,,,,,,,,,,,,,,,,,,,,,,,,,,,,,,1.1435185273488362,0.9341179000039119,399.20297150002443,None,ScrollDown,정답입니다,399.20297150002443,None,399.20297150002443,None,399.20297150002443,None,399.20297150002443,None,400.03460820001783,None,400.03460820001783,400.5388739000191,,,,,,,,,,,,,,,,104,2022-04-29_13h51.15.056,FishGame,2022.1.1,60.04004670854844,
,12,나를 데려가줘,6,Orange,B,0,0,ScrollDown,ScrollUp,Orange.png,3,NonTarget,NonTarget,,,,,0,0,0,0,,,,,,,,,,,,,,,,,,,,,0,11,11,11,,,,,,,,,,,,,,,,,,,,,,,,,,,,,,,,,,,,,,,,,,,,,,,,,,,,,,,,,,,,,,,,,,,,,,,,,1.253086417913437,1.1060399999842048,401.16800020000665,None,ScrollDown,정답입니다,401.16800020000665,None,401.16800020000665,None,401.16800020000665,None,401.16800020000665,None,402.17129890000797,None,402.17129890000797,402.67192870000144,,,,,,,,,,,,,,,,104,2022-04-29_13h51.15.056,FishGame,2022.1.1,60.04004670854844,
,13,넌 뛰어나,2,Orange,B,6.166666666666667,4,ScrollUp,ScrollDown,Orange.png,3,Positive,Incongruent,,,,,0,0,0,0,,,,,,,,,,,,,,,,,,,,,0,12,12,12,,,,,,,,,,,,,,,,,,,,,,,,,,,,,,,,,,,,,,,,,,,,,,,,,,,,,,,,,,,,,,,,,,,,,,,,,1.8456790000200272,1.1168614999915008,403.3084136999969,None,ScrollUp,정답입니다,403.3084136999969,None,403.3084136999969,None,403.3084136999969,None,403.3084136999969,None,404.30955140001606,None,404.30955140001606,404.8217546000087,,,,,,,,,,,,,,,,104,2022-04-29_13h51.15.056,FishGame,2022.1.1,60.04004670854844,
,14,넌 낙관적이야,1,Green,A,5.75,5.8,ScrollDown,ScrollUp,Green.png,3,Positive,Congruent,,,,,0,0,0,0,,,,,,,,,,,,,,,,,,,,,0,13,13,13,,,,,,,,,,,,,,,,,,,,,,,,,,,,,,,,,,,,,,,,,,,,,,,,,,,,,,,,,,,,,,,,,,,,,,,,,1.2700617214043937,0.892224899987923,405.4521437000076,None,ScrollDown,정답입니다,405.4521437000076,None,405.4521437000076,None,405.4521437000076,None,405.4521437000076,None,406.23831840002094,None,406.23831840002094,406.7388549000025,,,,,,,,,,,,,,,,104,2022-04-29_13h51.15.056,FishGame,2022.1.1,60.04004670854844,
,15,넌 산만해,4,Orange,B,2.695652173913043,3.033333333333333,ScrollUp,ScrollDown,Orange.png,3,Negative,Congruent,,,,,0,0,0,0,,,,,,,,,,,,,,,,,,,,,0,14,14,14,,,,,,,,,,,,,,,,,,,,,,,,,,,,,,,,,,,,,,,,,,,,,,,,,,,,,,,,,,,,,,,,,,,,,,,,,1.7376543233791986,0.9055797000182793,407.3751912000007,None,ScrollUp,정답입니다,407.3751912000007,None,407.3751912000007,None,407.3751912000007,None,407.3751912000007,None,408.1716623000102,None,408.1716623000102,408.67205520000425,,,,,,,,,,,,,,,,104,2022-04-29_13h51.15.056,FishGame,2022.1.1,60.04004670854844,
,16,나를 보내줘,6,Green,A,0,0,ScrollUp,ScrollDown,Green.png,3,NonTarget,NonTarget,,,,,0,0,0,0,,,,,,,,,,,,,,,,,,,,,0,15,15,15,,,,,,,,,,,,,,,,,,,,,,,,,,,,,,,,,,,,,,,,,,,,,,,,,,,,,,,,,,,,,,,,,,,,,,,,,1.6805555572112403,1.0192815999907907,409.29627720001736,None,ScrollUp,정답입니다,409.29627720001736,None,409.29627720001736,None,409.29627720001736,None,409.29627720001736,None,410.2186289000092,None,410.2186289000092,410.7221477999992,,,,,,,,,,,,,,,,104,2022-04-29_13h51.15.056,FishGame,2022.1.1,60.04004670854844,
,17,넌 교활해,5,Orange,B,2.333333333333333,2.133333333333333,ScrollUp,ScrollDown,Orange.png,3,Negative,Congruent,,,,,0,0,0,0,,,,,,,,,,,,,,,,,,,,,0,16,16,16,,,,,,,,,,,,,,,,,,,,,,,,,,,,,,,,,,,,,,,,,,,,,,,,,,,,,,,,,,,,,,,,,,,,,,,,,1.67746914178133,1.127108099986799,411.35931150001124,None,ScrollUp,정답입니다,411.35931150001124,None,411.35931150001124,None,411.35931150001124,None,411.35931150001124,None,412.37134480001987,None,412.37134480001987,412.872124800022,,,,,,,,,,,,,,,,104,2022-04-29_13h51.15.056,FishGame,2022.1.1,60.04004670854844,
,18,나를 보내줘,6,Green,A,0,0,ScrollUp,ScrollDown,Green.png,3,NonTarget,NonTarget,,,,,0,0,0,0,,,,,,,,,,,,,,,,,,,,,0,17,17,17,,,,,,,,,,,,,,,,,,,,,,,,,,,,,,,,,,,,,,,,,,,,,,,,,,,,,,,,,,,,,,,,,,,,,,,,,1.6311728358268738,1.3481518999906257,413.49895639999886,None,ScrollUp,정답입니다,413.49895639999886,None,413.49895639999886,None,413.49895639999886,None,413.49895639999886,None,414.7428212000232,None,414.7428212000232,415.25559919999796,,,,,,,,,,,,,,,,104,2022-04-29_13h51.15.056,FishGame,2022.1.1,60.04004670854844,
,19,넌 불친절해,5,Orange,B,2.208333333333333,2.033333333333333,ScrollUp,ScrollDown,Orange.png,3,Negative,Congruent,,,,,0,0,0,0,,,,,,,,,,,,,,,,,,,,,0,18,18,18,,,,,,,,,,,,,,,,,,,,,,,,,,,,,,,,,,,,,,,,,,,,,,,,,,,,,,,,,,,,,,,,,,,,,,,,,1.5787037052214146,1.0152811000007205,415.89211490002344,None,ScrollUp,정답입니다,415.89211490002344,None,415.89211490002344,None,415.89211490002344,None,415.89211490002344,None,416.79308430000674,None,416.79308430000674,417.3057967000059,,,,,,,,,,,,,,,,104,2022-04-29_13h51.15.056,FishGame,2022.1.1,60.04004670854844,
,20,넌 지적이야,2,Orange,B,5.75,4.366666666666666,ScrollUp,ScrollDown,Orange.png,3,Positive,Incongruent,,,,,0,0,0,0,,,,,,,,,,,,,,,,,,,,,0,19,19,19,,,,,,,,,,,,,,,,,,,,,,,,,,,,,,,,,,,,,,,,,,,,,,,,,,,,,,,,,,,,,,,,,,,,,,,,,1.702160490055879,0.9836382999783382,417.9360406000051,None,ScrollUp,정답입니다,417.9360406000051,None,417.9360406000051,None,417.9360406000051,None,417.9360406000051,None,418.8094944000186,None,418.8094944000186,419.32241600001,,,,,,,,,,,,,,,,104,2022-04-29_13h51.15.056,FishGame,2022.1.1,60.04004670854844,
,21,넌 우유부단해,4,Green,A,2.666666666666667,3.166666666666667,ScrollDown,ScrollUp,Green.png,3,Negative,Incongruent,,,,,0,0,0,0,,,,,,,,,,,,,,,,,,,,,0,20,20,20,,,,,,,,,,,,,,,,,,,,,,,,,,,,,,,,,,,,,,,,,,,,,,,,,,,,,,,,,,,,,,,,,,,,,,,,,1.0740740497907002,1.4747700000007171,419.9573202000174,None,ScrollDown,정답입니다,419.9573202000174,None,419.9573202000174,None,419.9573202000174,None,419.9573202000174,None,421.3217352000065,None,421.3217352000065,421.8220207999984,,,,,,,,,,,,,,,,104,2022-04-29_13h51.15.056,FishGame,2022.1.1,60.04004670854844,
,22,나를 데려가줘,6,Orange,B,0,0,ScrollDown,ScrollUp,Orange.png,3,NonTarget,NonTarget,,,,,0,0,0,0,,,,,,,,,,,,,,,,,,,,,0,21,21,21,,,,,,,,,,,,,,,,,,,,,,,,,,,,,,,,,,,,,,,,,,,,,,,,,,,,,,,,,,,,,,,,,,,,,,,,,1,1.1295919000112917,422.45605540002,None,ScrollDown,정답입니다,422.45605540002,None,422.45605540002,None,422.45605540002,None,422.45605540002,None,423.4759305000189,None,423.4759305000189,423.98878670000704,,,,,,,,,,,,,,,,104,2022-04-29_13h51.15.056,FishGame,2022.1.1,60.04004670854844,
,23,넌 성실해,1,Orange,B,6.041666666666666,5.7,ScrollUp,ScrollDown,Orange.png,3,Positive,Incongruent,,,,,0,0,0,0,,,,,,,,,,,,,,,,,,,,,0,22,22,22,,,,,,,,,,,,,,,,,,,,,,,,,,,,,,,,,,,,,,,,,,,,,,,,,,,,,,,,,,,,,,,,,,,,,,,,,1.7731481442848842,1.2328295999905095,424.6191409000021,None,ScrollUp,정답입니다,424.6191409000021,None,424.6191409000021,None,424.6191409000021,None,424.6191409000021,None,425.7431536000222,None,425.7431536000222,426.2555202000076,,,,,,,,,,,,,,,,104,2022-04-29_13h51.15.056,FishGame,2022.1.1,60.04004670854844,
,24,넌 현실주의적이야,3,Green,A,4.625,4.4,ScrollDown,ScrollUp,Green.png,3,Neutral,Neutral,,,,,0,0,0,0,,,,,,,,,,,,,,,,,,,,,0,23,23,23,,,,,,,,,,,,,,,,,,,,,,,,,,,,,,,,,,,,,,,,,,,,,,,,,,,,,,,,,,,,,,,,,,,,,,,,,1.0462962985038757,1.0936589000048116,426.886359600001,None,ScrollDown,정답입니다,426.886359600001,None,426.886359600001,None,426.886359600001,None,426.886359600001,None,427.8719489000214,None,427.8719489000214,428.37305320001906,,,,,,,,,,,,,,,,104,2022-04-29_13h51.15.056,FishGame,2022.1.1,60.04004670854844,
,25,넌 진실돼,1,Green,A,6.625,5.566666666666666,ScrollDown,ScrollUp,Green.png,3,Positive,Congruent,,,,,0,0,0,0,,,,,,,,,,,,,,,,,,,,,0,24,24,24,,,,,,,,,,,,,,,,,,,,,,,,,,,,,,,,,,,,,,,,,,,,,,,,,,,,,,,,,,,,,,,,,,,,,,,,,1,1.0607821000157855,429.00411080001504,None,ScrollDown,정답입니다,429.00411080001504,None,429.00411080001504,None,429.00411080001504,None,429.00411080001504,None,429.9579328999971,None,429.9579328999971,430.47252750000916,,,,,,,,,,,,,,,,104,2022-04-29_13h51.15.056,FishGame,2022.1.1,60.04004670854844,
,26,넌 천진난만해,3,Orange,B,4.958333333333334,4.833333333333333,ScrollUp,ScrollDown,Orange.png,3,Neutral,Neutral,,,,,0,0,0,0,,,,,,,,,,,,,,,,,,,,,0,25,25,25,,,,,,,,,,,,,,,,,,,,,,,,,,,,,,,,,,,,,,,,,,,,,,,,,,,,,,,,,,,,,,,,,,,,,,,,,1.787037044763565,1.1511693999927957,431.1101902000082,None,ScrollUp,정답입니다,431.1101902000082,None,431.1101902000082,None,431.1101902000082,None,431.1101902000082,None,432.1519471000065,None,432.1519471000065,432.65518630002043,,,,,,,,,,,,,,,,104,2022-04-29_13h51.15.056,FishGame,2022.1.1,60.04004670854844,
,27,넌 교양없어,5,Green,A,2.416666666666667,2.2,ScrollDown,ScrollUp,Green.png,3,Negative,Incongruent,,,,,0,0,0,0,,,,,,,,,,,,,,,,,,,,,0,26,26,26,,,,,,,,,,,,,,,,,,,,,,,,,,,,,,,,,,,,,,,,,,,,,,,,,,,,,,,,,,,,,,,,,,,,,,,,,1.1574074029922485,0.9573977999971248,433.2881634000223,None,ScrollDown,정답입니다,433.2881634000223,None,433.2881634000223,None,433.2881634000223,None,433.2881634000223,None,434.1386621000129,None,434.1386621000129,434.6392002000066,,,,,,,,,,,,,,,,104,2022-04-29_13h51.15.056,FishGame,2022.1.1,60.04004670854844,
,28,나를 보내줘,6,Green,A,0,0,ScrollUp,ScrollDown,Green.png,3,NonTarget,NonTarget,,,,,0,0,0,0,,,,,,,,,,,,,,,,,,,,,0,27,27,27,,,,,,,,,,,,,,,,,,,,,,,,,,,,,,,,,,,,,,,,,,,,,,,,,,,,,,,,,,,,,,,,,,,,,,,,,1.743827154239019,1.0151059000054374,435.2659295000194,None,ScrollUp,정답입니다,435.2659295000194,None,435.2659295000194,None,435.2659295000194,None,435.2659295000194,None,436.17715160001535,None,436.17715160001535,436.6895294999995,,,,,,,,,,,,,,,,104,2022-04-29_13h51.15.056,FishGame,2022.1.1,60.04004670854844,
,29,넌 엉뚱스러워,3,Green,A,4.166666666666667,4.133333333333334,ScrollDown,ScrollUp,Green.png,3,Neutral,Neutral,,,,,0,0,0,0,,,,,,,,,,,,,,,,,,,,,0,28,28,28,,,,,,,,,,,,,,,,,,,,,,,,,,,,,,,,,,,,,,,,,,,,,,,,,,,,,,,,,,,,,,,,,,,,,,,,,1.0154321193695068,1.272226499975659,437.32156640000176,None,ScrollDown,정답입니다,437.32156640000176,None,437.32156640000176,None,437.32156640000176,None,437.32156640000176,None,438.48912540002493,None,438.48912540002493,438.9893602000084,,,,,,,,,,,,,,,,104,2022-04-29_13h51.15.056,FishGame,2022.1.1,60.04004670854844,
,30,넌 무지해,4,Orange,B,2.541666666666667,3.066666666666667,ScrollUp,ScrollDown,Orange.png,3,Negative,Congruent,,,,,0,0,0,0,,,,,,,,,,,,,,,,,,,,,0,29,29,29,,,,,,,,,,,,,,,,,,,,,,,,,,,,,,,,,,,,,,,,,,,,,,,,,,,,,,,,,,,,,,,,,,,,,,,,,1.6419753084580102,0.9579594999959227,439.6174450000108,None,ScrollUp,정답입니다,439.6174450000108,None,439.6174450000108,None,439.6174450000108,None,439.6174450000108,None,440.4721874000097,None,440.4721874000097,440.97297020000406,,,,,,,,,,,,,,,,104,2022-04-29_13h51.15.056,FishGame,2022.1.1,60.04004670854844,
,31,넌 음울해,5,Orange,B,2.25,2.233333333333333,ScrollUp,ScrollDown,Orange.png,3,Negative,Congruent,,,,,0,0,0,0,,,,,,,,,,,,,,,,,,,,,0,30,30,30,,,,,,,,,,,,,,,,,,,,,,,,,,,,,,,,,,,,,,,,,,,,,,,,,,,,,,,,,,,,,,,,,,,,,,,,,1.6466049378116927,1.472394999989774,441.61036240000976,None,ScrollUp,정답입니다,441.61036240000976,None,441.61036240000976,None,441.61036240000976,None,441.61036240000976,None,442.9723202000023,None,442.9723202000023,443.4723339000193,,,,,,,,,,,,,,,,104,2022-04-29_13h51.15.056,FishGame,2022.1.1,60.04004670854844,
,32,넌 냉소적이야,5,Green,A,2.916666666666667,2.4,ScrollDown,ScrollUp,Green.png,3,Negative,Incongruent,,,,,0,0,0,0,,,,,,,,,,,,,,,,,,,,,0,31,31,31,,,,,,,,,,,,,,,,,,,,,,,,,,,,,,,,,,,,,,,,,,,,,,,,,,,,,,,,,,,,,,,,,,,,,,,,,1.320987656712532,1.0640696000191383,444.10115460000816,None,ScrollDown,정답입니다,444.10115460000816,None,444.10115460000816,None,444.10115460000816,None,444.10115460000816,None,445.06035580000025,None,445.06035580000025,445.5725381000084,,,,,,,,,,,,,,,,104,2022-04-29_13h51.15.056,FishGame,2022.1.1,60.04004670854844,
,33,나를 데려가줘,6,Orange,B,0,0,ScrollDown,ScrollUp,Orange.png,3,NonTarget,NonTarget,,,,,0,0,0,0,,,,,,,,,,,,,,,,,,,,,0,32,32,32,,,,,,,,,,,,,,,,,,,,,,,,,,,,,,,,,,,,,,,,,,,,,,,,,,,,,,,,,,,,,,,,,,,,,,,,,1.248456800977389,1.0921465000137687,446.2043917000119,None,ScrollDown,정답입니다,446.2043917000119,None,446.2043917000119,None,446.2043917000119,None,446.2043917000119,None,447.18891120000626,None,447.18891120000626,447.689420300012,,,,,,,,,,,,,,,,104,2022-04-29_13h51.15.056,FishGame,2022.1.1,60.04004670854844,
,34,넌 쾌활해,1,Green,A,5.541666666666666,5.733333333333333,ScrollDown,ScrollUp,Green.png,3,Positive,Congruent,,,,,0,0,0,0,,,,,,,,,,,,,,,,,,,,,0,33,33,33,,,,,,,,,,,,,,,,,,,,,,,,,,,,,,,,,,,,,,,,,,,,,,,,,,,,,,,,,,,,,,,,,,,,,,,,,1.2746913631757102,1.2463017999834847,448.3259559000144,None,ScrollDown,정답입니다,448.3259559000144,None,448.3259559000144,None,448.3259559000144,None,448.3259559000144,None,449.4601112000237,None,449.4601112000237,449.972797000024,,,,,,,,,,,,,,,,104,2022-04-29_13h51.15.056,FishGame,2022.1.1,60.04004670854844,
,35,나를 보내줘,6,Green,A,0,0,ScrollUp,ScrollDown,Green.png,3,NonTarget,NonTarget,,,,,0,0,0,0,,,,,,,,,,,,,,,,,,,,,0,34,34,34,,,,,,,,,,,,,,,,,,,,,,,,,,,,,,,,,,,,,,,,,,,,,,,,,,,,,,,,,,,,,,,,,,,,,,,,,1.6404320945342383,0.9815278000023682,450.5980624000076,None,ScrollUp,정답입니다,450.5980624000076,None,450.5980624000076,None,450.5980624000076,None,450.5980624000076,None,451.477025900007,None,451.477025900007,451.9895110000216,,,,,,,,,,,,,,,,104,2022-04-29_13h51.15.056,FishGame,2022.1.1,60.04004670854844,
,36,넌 명랑해,1,Orange,B,5.739130434782609,5.666666666666667,ScrollUp,ScrollDown,Orange.png,3,Positive,Incongruent,,,,,0,0,0,0,,,,,,,,,,,,,,,,,,,,,0,35,35,35,,,,,,,,,,,,,,,,,,,,,,,,,,,,,,,,,,,,,,,,,,,,,,,,,,,,,,,,,,,,,,,,,,,,,,,,,1.7175925920406976,0.8988154999969993,452.6236572000198,None,ScrollUp,정답입니다,452.6236572000198,None,452.6236572000198,None,452.6236572000198,None,452.6236572000198,None,453.4100747000193,None,453.4100747000193,453.9232638000103,,,,,,,,,,,,,,,,104,2022-04-29_13h51.15.056,FishGame,2022.1.1,60.04004670854844,
,37,넌 멍해,4,Green,A,2.833333333333333,3.4,ScrollDown,ScrollUp,Green.png,3,Negative,Incongruent,,,,,0,0,0,0,,,,,,,,,,,,,,,,,,,,,0,36,36,36,,,,,,,,,,,,,,,,,,,,,,,,,,,,,,,,,,,,,,,,,,,,,,,,,,,,,,,,,,,,,,,,,,,,,,,,,1.3811728383104007,0.8974734999937937,454.5613725000003,None,ScrollDown,정답입니다,454.5613725000003,None,454.5613725000003,None,454.5613725000003,None,454.5613725000003,None,455.34380760000204,None,455.34380760000204,455.8558729000215,,,,,,,,,,,,,,,,104,2022-04-29_13h51.15.056,FishGame,2022.1.1,60.04004670854844,
,38,나를 데려가줘,6,Orange,B,0,0,ScrollDown,ScrollUp,Orange.png,3,NonTarget,NonTarget,,,,,0,0,0,0,,,,,,,,,,,,,,,,,,,,,0,37,37,37,,,,,,,,,,,,,,,,,,,,,,,,,,,,,,,,,,,,,,,,,,,,,,,,,,,,,,,,,,,,,,,,,,,,,,,,,1.2746913631757102,0.9808844999934081,456.4884828000213,None,ScrollDown,정답입니다,456.4884828000213,None,456.4884828000213,None,456.4884828000213,None,456.4884828000213,None,457.3602418000228,None,457.3602418000228,457.87292670001625,,,,,,,,,,,,,,,,104,2022-04-29_13h51.15.056,FishGame,2022.1.1,60.04004670854844,
,39,넌 현명해,2,Green,A,6.541666666666666,4.533333333333333,ScrollDown,ScrollUp,Green.png,3,Positive,Congruent,,,,,0,0,0,0,,,,,,,,,,,,,,,,,,,,,0,38,38,38,,,,,,,,,,,,,,,,,,,,,,,,,,,,,,,,,,,,,,,,,,,,,,,,,,,,,,,,,,,,,,,,,,,,,,,,,1.2438271592060726,0.8414273000089452,458.5006944000197,None,ScrollDown,정답입니다,458.5006944000197,None,458.5006944000197,None,458.5006944000197,None,458.5006944000197,None,459.23914469999727,None,459.23914469999727,459.7393814000243,,,,,,,,,,,,,,,,104,2022-04-29_13h51.15.056,FishGame,2022.1.1,60.04004670854844,
,40,넌 수줍어,3,Orange,B,3.541666666666666,4.366666666666666,ScrollUp,ScrollDown,Orange.png,3,Neutral,Neutral,,,,,0,0,0,0,,,,,,,,,,,,,,,,,,,,,0,39,39,39,,,,,,,,,,,,,,,,,,,,,,,,,,,,,,,,,,,,,,,,,,,,,,,,,,,,,,,,,,,,,,,,,,,,,,,,,1.6805555572112403,0.8533657999942079,460.3832515000249,None,ScrollUp,정답입니다,460.3832515000249,None,460.3832515000249,None,460.3832515000249,None,460.3832515000249,None,461.1193900000071,None,461.1193900000071,461.62291190002,,,,,,,,,,,,,,,,104,2022-04-29_13h51.15.056,FishGame,2022.1.1,60.04004670854844,
,41,나를 데려가줘,6,Orange,B,0,0,ScrollDown,ScrollUp,Orange.png,3,NonTarget,NonTarget,,,,,0,0,0,0,,,,,,,,,,,,,,,,,,,,,0,40,40,40,,,,,,,,,,,,,,,,,,,,,,,,,,,,,,,,,,,,,,,,,,,,,,,,,,,,,,,,,,,,,,,,,,,,,,,,,1.2021604826052983,0.9484186999907251,462.25436020002235,None,ScrollDown,정답입니다,462.25436020002235,None,462.25436020002235,None,462.25436020002235,None,462.25436020002235,None,463.09376380001777,None,463.09376380001777,463.6064660999982,,,,,,,,,,,,,,,,104,2022-04-29_13h51.15.056,FishGame,2022.1.1,60.04004670854844,
,42,넌 성숙해,2,Orange,B,5.833333333333333,4.533333333333333,ScrollUp,ScrollDown,Orange.png,3,Positive,Incongruent,,,,,0,0,0,0,,,,,,,,,,,,,,,,,,,,,0,41,41,41,,,,,,,,,,,,,,,,,,,,,,,,,,,,,,,,,,,,,,,,,,,,,,,,,,,,,,,,,,,,,,,,,,,,,,,,,1.5586419738829136,0.9037608999933582,464.2357796000142,None,ScrollUp,정답입니다,464.2357796000142,None,464.2357796000142,None,464.2357796000142,None,464.2357796000142,None,465.0360784000077,None,465.0360784000077,465.53962950001005,,,,,,,,,,,,,,,,104,2022-04-29_13h51.15.056,FishGame,2022.1.1,60.04004670854844,
,1,넌 매력적이야,2,Orange,B,6.125,4.666666666666667,ScrollUp,ScrollDown,Orange.png,4,Positive,Incongruent,,,,,0,0,0,0,,,,,,,,,,,,,,,,,,,,,,,,,0,0,0,0,,,,,,,,,,,,,,,,,,,,,,,,,,,,500.0905760000169,501.590425900009,501.6236437000043,502.5740236999991,502.6237529000209,503.57405490000383,503.57405490000383,None,,,,,,,,,,,,,,,,,,,,,,,,,,,,,,,,,,1.6080246890584626,1.078786099998979,504.7273964000051,None,ScrollUp,정답입니다,504.7273964000051,None,504.7273964000051,None,504.7273964000051,None,504.7273964000051,None,505.6449965000211,None,505.6449965000211,506.1571165000205,466.03990220002015,None,466.03990220002015,None,0.47777778,0.08981481,1,0,0,0.01628527996945195,None,496.03978859999916,None,,,104,2022-04-29_13h51.15.056,FishGame,2022.1.1,60.04004670854844,
,2,나를 보내줘,6,Green,A,0,0,ScrollUp,ScrollDown,Green.png,4,NonTarget,NonTarget,,,,,0,0,0,0,,,,,,,,,,,,,,,,,,,,,,,,,0,1,1,1,,,,,,,,,,,,,,,,,,,,,,,,,,,,,,,,,,,,,,,,,,,,,,,,,,,,,,,,,,,,,,,,,,,,,1.6003086442748704,1.4585310999827925,506.7825340999989,None,ScrollUp,정답입니다,506.7825340999989,None,506.7825340999989,None,506.7825340999989,None,506.7825340999989,None,508.1405067000014,None,508.1405067000014,508.6404416000005,,,,,,,,,,,,,,,,104,2022-04-29_13h51.15.056,FishGame,2022.1.1,60.04004670854844,
,3,넌 조심스러워,3,Green,A,4.791666666666666,4.666666666666667,ScrollDown,ScrollUp,Green.png,4,Neutral,Neutral,,,,,0,0,0,0,,,,,,,,,,,,,,,,,,,,,,,,,0,2,2,2,,,,,,,,,,,,,,,,,,,,,,,,,,,,,,,,,,,,,,,,,,,,,,,,,,,,,,,,,,,,,,,,,,,,,1.2546296318372092,0.8555587999871932,509.26764790000743,None,ScrollDown,정답입니다,509.26764790000743,None,509.26764790000743,None,509.26764790000743,None,509.26764790000743,None,510.02341770002386,None,510.02341770002386,510.5242965000216,,,,,,,,,,,,,,,,104,2022-04-29_13h51.15.056,FishGame,2022.1.1,60.04004670854844,
,4,넌 철학적이야,3,Orange,B,4.5,4.266666666666667,ScrollUp,ScrollDown,Orange.png,4,Neutral,Neutral,,,,,0,0,0,0,,,,,,,,,,,,,,,,,,,,,,,,,0,3,3,3,,,,,,,,,,,,,,,,,,,,,,,,,,,,,,,,,,,,,,,,,,,,,,,,,,,,,,,,,,,,,,,,,,,,,2,2.067553999979282,511.1630214000179,None,ScrollUp,정답입니다,511.1630214000179,None,511.1630214000179,None,511.1630214000179,None,511.1630214000179,None,513.1207043000031,None,513.1207043000031,513.6242160999973,,,,,,,,,,,,,,,,104,2022-04-29_13h51.15.056,FishGame,2022.1.1,60.04004670854844,
,5,넌 쩨쩨해,5,Green,A,2.375,2.133333333333333,ScrollDown,ScrollUp,Green.png,4,Negative,Incongruent,,,,,0,0,0,0,,,,,,,,,,,,,,,,,,,,,,,,,0,4,4,4,,,,,,,,,,,,,,,,,,,,,,,,,,,,,,,,,,,,,,,,,,,,,,,,,,,,,,,,,,,,,,,,,,,,,1.0540123681227367,1.0300760999962222,514.2543267000001,None,ScrollDown,정답입니다,514.2543267000001,None,514.2543267000001,None,514.2543267000001,None,514.2543267000001,None,515.1782717000169,None,515.1782717000169,515.6900945000234,,,,,,,,,,,,,,,,104,2022-04-29_13h51.15.056,FishGame,2022.1.1,60.04004670854844,
,6,나를 데려가줘,6,Orange,B,0,0,ScrollDown,ScrollUp,Orange.png,4,NonTarget,NonTarget,,,,,0,0,0,0,,,,,,,,,,,,,,,,,,,,,,,,,0,5,5,5,,,,,,,,,,,,,,,,,,,,,,,,,,,,,,,,,,,,,,,,,,,,,,,,,,,,,,,,,,,,,,,,,,,,,1.1188271542390187,0.9909040999773424,516.3226453000098,None,ScrollDown,정답입니다,516.3226453000098,None,516.3226453000098,None,516.3226453000098,None,516.3226453000098,None,517.2066976000206,None,517.2066976000206,517.7078206000151,,,,,,,,,,,,,,,,104,2022-04-29_13h51.15.056,FishGame,2022.1.1,60.04004670854844,
,7,넌 고집불통이야,5,Orange,B,2.875,2,ScrollUp,ScrollDown,Orange.png,4,Negative,Congruent,,,,,0,0,0,0,,,,,,,,,,,,,,,,,,,,,,,,,0,6,6,6,,,,,,,,,,,,,,,,,,,,,,,,,,,,,,,,,,,,,,,,,,,,,,,,,,,,,,,,,,,,,,,,,,,,,2,0.9680363000079524,518.3516775000026,None,ScrollUp,정답입니다,518.3516775000026,None,518.3516775000026,None,518.3516775000026,None,518.3516775000026,None,519.2041479000181,None,519.2041479000181,519.7079471000179,,,,,,,,,,,,,,,,104,2022-04-29_13h51.15.056,FishGame,2022.1.1,60.04004670854844,
,8,넌 무심해,4,Green,A,2.875,3.2,ScrollDown,ScrollUp,Green.png,4,Negative,Incongruent,,,,,0,0,0,0,,,,,,,,,,,,,,,,,,,,,,,,,0,7,7,7,,,,,,,,,,,,,,,,,,,,,,,,,,,,,,,,,,,,,,,,,,,,,,,,,,,,,,,,,,,,,,,,,,,,,1.0709876716136932,0.8385357000224758,520.3330570000107,None,ScrollDown,정답입니다,520.3330570000107,None,520.3330570000107,None,520.3330570000107,None,520.3330570000107,None,521.0738921000157,None,521.0738921000157,521.5744322000246,,,,,,,,,,,,,,,,104,2022-04-29_13h51.15.056,FishGame,2022.1.1,60.04004670854844,
,9,넌 정겨워,1,Green,A,5.791666666666667,5.666666666666667,ScrollDown,ScrollUp,Green.png,4,Positive,Congruent,,,,,0,0,0,0,,,,,,,,,,,,,,,,,,,,,,,,,0,8,8,8,,,,,,,,,,,,,,,,,,,,,,,,,,,,,,,,,,,,,,,,,,,,,,,,,,,,,,,,,,,,,,,,,,,,,1.0709876716136932,0.89978490001522,522.207825999998,None,ScrollDown,정답입니다,522.207825999998,None,522.207825999998,None,522.207825999998,None,522.207825999998,None,522.9951128000102,None,522.9951128000102,523.5079792000179,,,,,,,,,,,,,,,,104,2022-04-29_13h51.15.056,FishGame,2022.1.1,60.04004670854844,
,10,나를 데려가줘,6,Orange,B,0,0,ScrollDown,ScrollUp,Orange.png,4,NonTarget,NonTarget,,,,,0,0,0,0,,,,,,,,,,,,,,,,,,,,,,,,,0,9,9,9,,,,,,,,,,,,,,,,,,,,,,,,,,,,,,,,,,,,,,,,,,,,,,,,,,,,,,,,,,,,,,,,,,,,,1,1.956484599999385,524.1373128000123,None,ScrollDown,정답입니다,524.1373128000123,None,524.1373128000123,None,524.1373128000123,None,524.1373128000123,None,525.9907445000135,None,525.9907445000135,526.4912988000142,,,,,,,,,,,,,,,,104,2022-04-29_13h51.15.056,FishGame,2022.1.1,60.04004670854844,
,11,넌 체제순응적이야,4,Orange,B,3,3.6,ScrollUp,ScrollDown,Orange.png,4,Negative,Congruent,,,,,0,0,0,0,,,,,,,,,,,,,,,,,,,,,,,,,0,10,10,10,,,,,,,,,,,,,,,,,,,,,,,,,,,,,,,,,,,,,,,,,,,,,,,,,,,,,,,,,,,,,,,,,,,,,1.8163580348094304,0.9446964999951888,527.1370633000042,None,ScrollUp,정답입니다,527.1370633000042,None,527.1370633000042,None,527.1370633000042,None,527.1370633000042,None,527.9617498000152,None,527.9617498000152,528.474252200016,,,,,,,,,,,,,,,,104,2022-04-29_13h51.15.056,FishGame,2022.1.1,60.04004670854844,
,12,나를 보내줘,6,Green,A,0,0,ScrollUp,ScrollDown,Green.png,4,NonTarget,NonTarget,,,,,0,0,0,0,,,,,,,,,,,,,,,,,,,,,,,,,0,11,11,11,,,,,,,,,,,,,,,,,,,,,,,,,,,,,,,,,,,,,,,,,,,,,,,,,,,,,,,,,,,,,,,,,,,,,1.5632716032365956,1.64851109997835,529.1040164000005,None,ScrollUp,정답입니다,529.1040164000005,None,529.1040164000005,None,529.1040164000005,None,529.1040164000005,None,530.6452656000038,None,530.6452656000038,531.1576209000195,,,,,,,,,,,,,,,,104,2022-04-29_13h51.15.056,FishGame,2022.1.1,60.04004670854844,
,13,넌 박식해,2,Green,A,5.625,3.933333333333333,ScrollDown,ScrollUp,Green.png,4,Positive,Congruent,,,,,0,0,0,0,,,,,,,,,,,,,,,,,,,,,,,,,0,12,12,12,,,,,,,,,,,,,,,,,,,,,,,,,,,,,,,,,,,,,,,,,,,,,,,,,,,,,,,,,,,,,,,,,,,,,1.0540123681227367,0.8726002000039443,531.7983379000216,None,ScrollDown,정답입니다,531.7983379000216,None,531.7983379000216,None,531.7983379000216,None,531.7983379000216,None,532.5574824000068,None,532.5574824000068,533.0578722000064,,,,,,,,,,,,,,,,104,2022-04-29_13h51.15.056,FishGame,2022.1.1,60.04004670854844,
,14,나를 보내줘,6,Green,A,0,0,ScrollUp,ScrollDown,Green.png,4,NonTarget,NonTarget,,,,,0,0,0,0,,,,,,,,,,,,,,,,,,,,,,,,,0,13,13,13,,,,,,,,,,,,,,,,,,,,,,,,,,,,,,,,,,,,,,,,,,,,,,,,,,,,,,,,,,,,,,,,,,,,,1.8503086417913437,0.9478518999821972,533.6842984000104,None,ScrollUp,정답입니다,533.6842984000104,None,533.6842984000104,None,533.6842984000104,None,533.6842984000104,None,534.5285409000062,None,534.5285409000062,535.0407170000253,,,,,,,,,,,,,,,,104,2022-04-29_13h51.15.056,FishGame,2022.1.1,60.04004670854844,
,15,넌 침착해,1,Orange,B,5.458333333333333,5.566666666666666,ScrollUp,ScrollDown,Orange.png,4,Positive,Incongruent,,,,,0,0,0,0,,,,,,,,,,,,,,,,,,,,,,,,,0,14,14,14,,,,,,,,,,,,,,,,,,,,,,,,,,,,,,,,,,,,,,,,,,,,,,,,,,,,,,,,,,,,,,,,,,,,,1.652777781089147,0.9891477000201121,535.6808252000192,None,ScrollUp,정답입니다,535.6808252000192,None,535.6808252000192,None,535.6808252000192,None,535.6808252000192,None,536.5576007000054,None,536.5576007000054,537.0582589000114,,,,,,,,,,,,,,,,104,2022-04-29_13h51.15.056,FishGame,2022.1.1,60.04004670854844,
,16,나를 데려가줘,6,Orange,B,0,0,ScrollDown,ScrollUp,Orange.png,4,NonTarget,NonTarget,,,,,0,0,0,0,,,,,,,,,,,,,,,,,,,,,,,,,0,15,15,15,,,,,,,,,,,,,,,,,,,,,,,,,,,,,,,,,,,,,,,,,,,,,,,,,,,,,,,,,,,,,,,,,,,,,1.141975313425064,1.0155992000072729,537.6856497999979,None,ScrollDown,정답입니다,537.6856497999979,None,537.6856497999979,None,537.6856497999979,None,537.6856497999979,None,538.6048040000023,None,538.6048040000023,539.1079880000034,,,,,,,,,,,,,,,,104,2022-04-29_13h51.15.056,FishGame,2022.1.1,60.04004670854844,
,17,넌 행복해,1,Green,A,6.416666666666666,6.166666666666667,ScrollDown,ScrollUp,Green.png,4,Positive,Congruent,,,,,0,0,0,0,,,,,,,,,,,,,,,,,,,,,,,,,0,16,16,16,,,,,,,,,,,,,,,,,,,,,,,,,,,,,,,,,,,,,,,,,,,,,,,,,,,,,,,,,,,,,,,,,,,,,1.1651234477758408,0.8639186999935191,539.740801900014,None,ScrollDown,정답입니다,539.740801900014,None,539.740801900014,None,539.740801900014,None,539.740801900014,None,540.495711399999,None,540.495711399999,541.0082606000069,,,,,,,,,,,,,,,,104,2022-04-29_13h51.15.056,FishGame,2022.1.1,60.04004670854844,
,18,넌 겸손해,2,Orange,B,5.791666666666667,4.766666666666667,ScrollUp,ScrollDown,Orange.png,4,Positive,Incongruent,,,,,0,0,0,0,,,,,,,,,,,,,,,,,,,,,,,,,0,17,17,17,,,,,,,,,,,,,,,,,,,,,,,,,,,,,,,,,,,,,,,,,,,,,,,,,,,,,,,,,,,,,,,,,,,,,1.8086419651905696,0.9277532999985851,541.6463636000117,None,ScrollUp,정답입니다,541.6463636000117,None,541.6463636000117,None,541.6463636000117,None,541.6463636000117,None,542.4616070000047,None,542.4616070000047,542.9747314999986,,,,,,,,,,,,,,,,104,2022-04-29_13h51.15.056,FishGame,2022.1.1,60.04004670854844,
,19,나를 보내줘,6,Green,A,0,0,ScrollUp,ScrollDown,Green.png,4,NonTarget,NonTarget,,,,,0,0,0,0,,,,,,,,,,,,,,,,,,,,,,,,,0,18,18,18,,,,,,,,,,,,,,,,,,,,,,,,,,,,,,,,,,,,,,,,,,,,,,,,,,,,,,,,,,,,,,,,,,,,,1.6265432064731917,0.9252653000003193,543.5994088000152,None,ScrollUp,정답입니다,543.5994088000152,None,543.5994088000152,None,543.5994088000152,None,543.5994088000152,None,544.4245758000179,None,544.4245758000179,544.9248552000208,,,,,,,,,,,,,,,,104,2022-04-29_13h51.15.056,FishGame,2022.1.1,60.04004670854844,
,20,넌 의심없어,3,Green,A,4.166666666666667,4.6,ScrollDown,ScrollUp,Green.png,4,Neutral,Neutral,,,,,0,0,0,0,,,,,,,,,,,,,,,,,,,,,,,,,0,19,19,19,,,,,,,,,,,,,,,,,,,,,,,,,,,,,,,,,,,,,,,,,,,,,,,,,,,,,,,,,,,,,,,,,,,,,1.1651234477758408,1.0532364999817219,545.5497134000179,None,ScrollDown,정답입니다,545.5497134000179,None,545.5497134000179,None,545.5497134000179,None,545.5497134000179,None,546.5041694000247,None,546.5041694000247,547.0083351000212,,,,,,,,,,,,,,,,104,2022-04-29_13h51.15.056,FishGame,2022.1.1,60.04004670854844,
,21,넌 시시해,4,Green,A,2.666666666666667,2.966666666666667,ScrollDown,ScrollUp,Green.png,4,Negative,Incongruent,,,,,0,0,0,0,,,,,,,,,,,,,,,,,,,,,,,,,0,20,20,20,,,,,,,,,,,,,,,,,,,,,,,,,,,,,,,,,,,,,,,,,,,,,,,,,,,,,,,,,,,,,,,,,,,,,1.1496913582086563,0.922425500000827,547.6355316000117,None,ScrollDown,정답입니다,547.6355316000117,None,547.6355316000117,None,547.6355316000117,None,547.6355316000117,None,548.4577031000226,None,548.4577031000226,548.9582777000032,,,,,,,,,,,,,,,,104,2022-04-29_13h51.15.056,FishGame,2022.1.1,60.04004670854844,
,22,나를 데려가줘,6,Orange,B,0,0,ScrollDown,ScrollUp,Orange.png,4,NonTarget,NonTarget,,,,,0,0,0,0,,,,,,,,,,,,,,,,,,,,,,,,,0,21,21,21,,,,,,,,,,,,,,,,,,,,,,,,,,,,,,,,,,,,,,,,,,,,,,,,,,,,,,,,,,,,,,,,,,,,,1.2206790000200272,1.1332629999960773,549.5913682000246,None,ScrollDown,정답입니다,549.5913682000246,None,549.5913682000246,None,549.5913682000246,None,549.5913682000246,None,550.6122797999997,None,550.6122797999997,551.1242010999995,,,,,,,,,,,,,,,,104,2022-04-29_13h51.15.056,FishGame,2022.1.1,60.04004670854844,
,23,넌 무정해,5,Green,A,2.5,2.2,ScrollDown,ScrollUp,Green.png,4,Negative,Incongruent,,,,,0,0,0,0,,,,,,,,,,,,,,,,,,,,,,,,,0,22,22,22,,,,,,,,,,,,,,,,,,,,,,,,,,,,,,,,,,,,,,,,,,,,,,,,,,,,,,,,,,,,,,,,,,,,,1.0725308855374653,0.8740557999990415,551.7507278000121,None,ScrollDown,정답입니다,551.7507278000121,None,551.7507278000121,None,551.7507278000121,None,551.7507278000121,None,552.5243012999999,None,552.5243012999999,553.0248594000004,,,,,,,,,,,,,,,,104,2022-04-29_13h51.15.056,FishGame,2022.1.1,60.04004670854844,
,24,넌 긍정적이야,1,Orange,B,6.041666666666667,6.066666666666666,ScrollUp,ScrollDown,Orange.png,4,Positive,Incongruent,,,,,0,0,0,0,,,,,,,,,,,,,,,,,,,,,,,,,0,23,23,23,,,,,,,,,,,,,,,,,,,,,,,,,,,,,,,,,,,,,,,,,,,,,,,,,,,,,,,,,,,,,,,,,,,,,1.652777781089147,1.0158775000018068,553.6715201000043,None,ScrollUp,정답입니다,553.6715201000043,None,553.6715201000043,None,553.6715201000043,None,553.6715201000043,None,554.5622377000109,None,554.5622377000109,555.0748915000004,,,,,,,,,,,,,,,,104,2022-04-29_13h51.15.056,FishGame,2022.1.1,60.04004670854844,
,25,나를 보내줘,6,Green,A,0,0,ScrollUp,ScrollDown,Green.png,4,NonTarget,NonTarget,,,,,0,0,0,0,,,,,,,,,,,,,,,,,,,,,,,,,0,24,24,24,,,,,,,,,,,,,,,,,,,,,,,,,,,,,,,,,,,,,,,,,,,,,,,,,,,,,,,,,,,,,,,,,,,,,1.6419753084580102,1.0491624999849591,555.7028496999992,None,ScrollUp,정답입니다,555.7028496999992,None,555.7028496999992,None,555.7028496999992,None,555.7028496999992,None,556.6457667000068,None,556.6457667000068,557.1586880999967,,,,,,,,,,,,,,,,104,2022-04-29_13h51.15.056,FishGame,2022.1.1,60.04004670854844,
,26,넌 시기심이 많아,5,Orange,B,2.458333333333333,2.233333333333333,ScrollUp,ScrollDown,Orange.png,4,Negative,Congruent,,,,,0,0,0,0,,,,,,,,,,,,,,,,,,,,,,,,,0,25,25,25,,,,,,,,,,,,,,,,,,,,,,,,,,,,,,,,,,,,,,,,,,,,,,,,,,,,,,,,,,,,,,,,,,,,,1.6867284004886947,0.989035500009777,557.7981140000047,None,ScrollUp,정답입니다,557.7981140000047,None,557.7981140000047,None,557.7981140000047,None,557.7981140000047,None,558.674641700025,None,558.674641700025,559.1757000000216,,,,,,,,,,,,,,,,104,2022-04-29_13h51.15.056,FishGame,2022.1.1,60.04004670854844,
,27,넌 탁월해,2,Green,A,5.708333333333334,4.5,ScrollDown,ScrollUp,Green.png,4,Positive,Congruent,,,,,0,0,0,0,,,,,,,,,,,,,,,,,,,,,,,,,0,26,26,26,,,,,,,,,,,,,,,,,,,,,,,,,,,,,,,,,,,,,,,,,,,,,,,,,,,,,,,,,,,,,,,,,,,,,1.2253086417913437,0.9221123000024818,559.8091933999967,None,ScrollDown,정답입니다,559.8091933999967,None,559.8091933999967,None,559.8091933999967,None,559.8091933999967,None,560.6243494000228,None,560.6243494000228,561.1243968000053,,,,,,,,,,,,,,,,104,2022-04-29_13h51.15.056,FishGame,2022.1.1,60.04004670854844,
,28,나를 데려가줘,6,Orange,B,0,0,ScrollDown,ScrollUp,Orange.png,4,NonTarget,NonTarget,,,,,0,0,0,0,,,,,,,,,,,,,,,,,,,,,,,,,0,27,27,27,,,,,,,,,,,,,,,,,,,,,,,,,,,,,,,,,,,,,,,,,,,,,,,,,,,,,,,,,,,,,,,,,,,,,1.2700617214043937,1.0429992999997921,561.7557751999993,None,ScrollDown,정답입니다,561.7557751999993,None,561.7557751999993,None,561.7557751999993,None,561.7557751999993,None,562.6921063000045,None,562.6921063000045,563.1918379999988,,,,,,,,,,,,,,,,104,2022-04-29_13h51.15.056,FishGame,2022.1.1,60.04004670854844,
,29,넌 조용해,3,Orange,B,4.333333333333333,4.166666666666667,ScrollUp,ScrollDown,Orange.png,4,Neutral,Neutral,,,,,0,0,0,0,,,,,,,,,,,,,,,,,,,,,,,,,0,28,28,28,,,,,,,,,,,,,,,,,,,,,,,,,,,,,,,,,,,,,,,,,,,,,,,,,,,,,,,,,,,,,,,,,,,,,1.5787037052214146,0.9242702000192367,563.8306693000195,None,ScrollUp,정답입니다,563.8306693000195,None,563.8306693000195,None,563.8306693000195,None,563.8306693000195,None,564.6411991000059,None,564.6411991000059,565.1416768000054,,,,,,,,,,,,,,,,104,2022-04-29_13h51.15.056,FishGame,2022.1.1,60.04004670854844,
,30,넌 다정해,1,Green,A,5.833333333333334,5.7,ScrollDown,ScrollUp,Green.png,4,Positive,Congruent,,,,,0,0,0,0,,,,,,,,,,,,,,,,,,,,,,,,,0,29,29,29,,,,,,,,,,,,,,,,,,,,,,,,,,,,,,,,,,,,,,,,,,,,,,,,,,,,,,,,,,,,,,,,,,,,,1.126543199022611,0.9749865000194404,565.7701543000003,None,ScrollDown,정답입니다,565.7701543000003,None,565.7701543000003,None,565.7701543000003,None,565.7701543000003,None,566.6412689000135,None,566.6412689000135,567.1420178000117,,,,,,,,,,,,,,,,104,2022-04-29_13h51.15.056,FishGame,2022.1.1,60.04004670854844,
,31,넌 능력있어,2,Orange,B,6.166666666666666,4.6,ScrollUp,ScrollDown,Orange.png,4,Positive,Incongruent,,,,,0,0,0,0,,,,,,,,,,,,,,,,,,,,,,,,,0,30,30,30,,,,,,,,,,,,,,,,,,,,,,,,,,,,,,,,,,,,,,,,,,,,,,,,,,,,,,,,,,,,,,,,,,,,,1.609567902982235,1.0582967000082135,567.7735253999999,None,ScrollUp,정답입니다,567.7735253999999,None,567.7735253999999,None,567.7735253999999,None,567.7735253999999,None,568.7243992000003,None,568.7243992000003,569.2252584000234,,,,,,,,,,,,,,,,104,2022-04-29_13h51.15.056,FishGame,2022.1.1,60.04004670854844,
,32,넌 불쾌해,5,Green,A,2.125,1.933333333333333,ScrollDown,ScrollUp,Green.png,4,Negative,Incongruent,,,,,0,0,0,0,,,,,,,,,,,,,,,,,,,,,,,,,0,31,31,31,,,,,,,,,,,,,,,,,,,,,,,,,,,,,,,,,,,,,,,,,,,,,,,,,,,,,,,,,,,,,,,,,,,,,1.3533950621883073,0.8653866999957245,569.8572237000044,None,ScrollDown,정답입니다,569.8572237000044,None,569.8572237000044,None,569.8572237000044,None,569.8572237000044,None,570.6124676000036,None,570.6124676000036,571.1248854000005,,,,,,,,,,,,,,,,104,2022-04-29_13h51.15.056,FishGame,2022.1.1,60.04004670854844,
,33,나를 데려가줘,6,Orange,B,0,0,ScrollDown,ScrollUp,Orange.png,4,NonTarget,NonTarget,,,,,0,0,0,0,,,,,,,,,,,,,,,,,,,,,,,,,0,32,32,32,,,,,,,,,,,,,,,,,,,,,,,,,,,,,,,,,,,,,,,,,,,,,,,,,,,,,,,,,,,,,,,,,,,,,1.4382716044783592,1.4906866000092123,571.7576319000218,None,ScrollDown,정답입니다,571.7576319000218,None,571.7576319000218,None,571.7576319000218,None,571.7576319000218,None,573.1417696000135,None,573.1417696000135,573.6418604000064,,,,,,,,,,,,,,,,104,2022-04-29_13h51.15.056,FishGame,2022.1.1,60.04004670854844,
,34,넌 유순해,3,Green,A,4.458333333333333,5,ScrollDown,ScrollUp,Green.png,4,Neutral,Neutral,,,,,0,0,0,0,,,,,,,,,,,,,,,,,,,,,,,,,0,33,33,33,,,,,,,,,,,,,,,,,,,,,,,,,,,,,,,,,,,,,,,,,,,,,,,,,,,,,,,,,,,,,,,,,,,,,1.3441358034809432,0.857402199995704,574.2672984000237,None,ScrollDown,정답입니다,574.2672984000237,None,574.2672984000237,None,574.2672984000237,None,574.2672984000237,None,575.024419399997,None,575.024419399997,575.5250384000246,,,,,,,,,,,,,,,,104,2022-04-29_13h51.15.056,FishGame,2022.1.1,60.04004670854844,
,35,넌 근심스러워,4,Orange,B,2.708333333333333,3.133333333333333,ScrollUp,ScrollDown,Orange.png,4,Negative,Congruent,,,,,0,0,0,0,,,,,,,,,,,,,,,,,,,,,,,,,0,34,34,34,,,,,,,,,,,,,,,,,,,,,,,,,,,,,,,,,,,,,,,,,,,,,,,,,,,,,,,,,,,,,,,,,,,,,1.5771604912976422,0.9441835000179708,576.1683059000061,None,ScrollUp,정답입니다,576.1683059000061,None,576.1683059000061,None,576.1683059000061,None,576.1683059000061,None,576.9955213000067,None,576.9955213000067,577.5088717000035,,,,,,,,,,,,,,,,104,2022-04-29_13h51.15.056,FishGame,2022.1.1,60.04004670854844,
,36,넌 세련되었어,2,Green,A,5.5,4.6,ScrollDown,ScrollUp,Green.png,4,Positive,Congruent,,,,,0,0,0,0,,,,,,,,,,,,,,,,,,,,,,,,,0,35,35,35,,,,,,,,,,,,,,,,,,,,,,,,,,,,,,,,,,,,,,,,,,,,,,,,,,,,,,,,,,,,,,,,,,,,,1.3780864228804905,0.9710353999980725,578.1567158999969,None,ScrollDown,정답입니다,578.1567158999969,None,578.1567158999969,None,578.1567158999969,None,578.1567158999969,None,579.0050180000253,None,579.0050180000253,579.5087599000253,,,,,,,,,,,,,,,,104,2022-04-29_13h51.15.056,FishGame,2022.1.1,60.04004670854844,
,37,나를 보내줘,6,Green,A,0,0,ScrollUp,ScrollDown,Green.png,4,NonTarget,NonTarget,,,,,0,0,0,0,,,,,,,,,,,,,,,,,,,,,,,,,0,36,36,36,,,,,,,,,,,,,,,,,,,,,,,,,,,,,,,,,,,,,,,,,,,,,,,,,,,,,,,,,,,,,,,,,,,,,1.6604938258727393,0.9156783999933396,580.1315020000038,None,ScrollUp,정답입니다,580.1315020000038,None,580.1315020000038,None,580.1315020000038,None,580.1315020000038,None,580.9462604,None,580.9462604,581.4587139000068,,,,,,,,,,,,,,,,104,2022-04-29_13h51.15.056,FishGame,2022.1.1,60.04004670854844,
,38,넌 확고해,3,Orange,B,4.708333333333334,4.566666666666666,ScrollUp,ScrollDown,Orange.png,4,Neutral,Neutral,,,,,0,0,0,0,,,,,,,,,,,,,,,,,,,,,,,,,0,37,37,37,,,,,,,,,,,,,,,,,,,,,,,,,,,,,,,,,,,,,,,,,,,,,,,,,,,,,,,,,,,,,,,,,,,,,1.5771604912976422,0.8075168000068516,582.0928837000101,None,ScrollUp,정답입니다,582.0928837000101,None,582.0928837000101,None,582.0928837000101,None,582.0928837000101,None,582.7917621000088,None,582.7917621000088,583.2919886000163,,,,,,,,,,,,,,,,104,2022-04-29_13h51.15.056,FishGame,2022.1.1,60.04004670854844,
,39,넌 이해심이 많아,1,Orange,B,6.041666666666668,5.533333333333333,ScrollUp,ScrollDown,Orange.png,4,Positive,Incongruent,,,,,0,0,0,0,,,,,,,,,,,,,,,,,,,,,,,,,0,38,38,38,,,,,,,,,,,,,,,,,,,,,,,,,,,,,,,,,,,,,,,,,,,,,,,,,,,,,,,,,,,,,,,,,,,,,1.564814817160368,0.835214899998391,583.9256819000002,None,ScrollUp,정답입니다,583.9256819000002,None,583.9256819000002,None,583.9256819000002,None,583.9256819000002,None,584.6553211999999,None,584.6553211999999,585.159204399999,,,,,,,,,,,,,,,,104,2022-04-29_13h51.15.056,FishGame,2022.1.1,60.04004670854844,
,40,나를 보내줘,6,Green,A,0,0,ScrollUp,ScrollDown,Green.png,4,NonTarget,NonTarget,,,,,0,0,0,0,,,,,,,,,,,,,,,,,,,,,,,,,0,39,39,39,,,,,,,,,,,,,,,,,,,,,,,,,,,,,,,,,,,,,,,,,,,,,,,,,,,,,,,,,,,,,,,,,,,,,1.7253086368242898,0.9408991000091191,585.7838311000087,None,ScrollUp,정답입니다,585.7838311000087,None,585.7838311000087,None,585.7838311000087,None,585.7838311000087,None,586.6248444000084,None,586.6248444000084,587.1250276000064,,,,,,,,,,,,,,,,104,2022-04-29_13h51.15.056,FishGame,2022.1.1,60.04004670854844,
,41,넌 거칠어,4,Green,A,2.625,3.033333333333333,ScrollDown,ScrollUp,Green.png,4,Negative,Incongruent,,,,,0,0,0,0,,,,,,,,,,,,,,,,,,,,,,,,,0,40,40,40,,,,,,,,,,,,,,,,,,,,,,,,,,,,,,,,,,,,,,,,,,,,,,,,,,,,,,,,,,,,,,,,,,,,,1.3595679054657617,0.8159218000073452,587.7606491000042,None,ScrollDown,정답입니다,587.7606491000042,None,587.7606491000042,None,587.7606491000042,None,587.7606491000042,None,588.4630180000095,None,588.4630180000095,588.9752932999982,,,,,,,,,,,,,,,,104,2022-04-29_13h51.15.056,FishGame,2022.1.1,60.04004670854844,
,42,넌 변덕맞아,5,Orange,B,2.75,2.166666666666667,ScrollUp,ScrollDown,Orange.png,4,Negative,Congruent,,,,,0,0,0,0,,,,,,,,,,,,,,,,,,,,,,,,,0,41,41,41,,,,,,,,,,,,,,,,,,,,,,,,,,,,,,,,,,,,,,,,,,,,,,,,,,,,,,,,,,,,,,,,,,,,,1.652777781089147,0.9130158000043593,589.6177152000018,None,ScrollUp,정답입니다,589.6177152000018,None,589.6177152000018,None,589.6177152000018,None,589.6177152000018,None,590.4133837000118,None,590.4133837000118,590.9252987000218,,,,,,,,,,,,,,,,104,2022-04-29_13h51.15.056,FishGame,2022.1.1,60.04004670854844,
,43,나를 데려가줘,6,Orange,B,0,0,ScrollDown,ScrollUp,Orange.png,4,NonTarget,NonTarget,,,,,0,0,0,0,,,,,,,,,,,,,,,,,,,,,,,,,0,42,42,42,,,,,,,,,,,,,,,,,,,,,,,,,,,,,,,,,,,,,,,,,,,,,,,,,,,,,,,,,,,,,,,,,,,,,1.2654321044683456,0.9364428000117186,591.5602625000174,None,ScrollDown,정답입니다,591.5602625000174,None,591.5602625000174,None,591.5602625000174,None,591.5602625000174,None,592.3820280000218,None,592.3820280000218,592.8921747000131,,,,,,,,,,,,,,,,104,2022-04-29_13h51.15.056,FishGame,2022.1.1,60.04004670854844,
,44,넌 외로워,4,Orange,B,2.833333333333333,3.3,ScrollUp,ScrollDown,Orange.png,4,Negative,Congruent,,,,,0,0,0,0,,,,,,,,,,,,,,,,,,,,,,,,,0,43,43,43,,,,,,,,,,,,,,,,,,,,,,,,,,,,,,,,,,,,,,,,,,,,,,,,,,,,,,,,,,,,,,,,,,,,,1.6358024651805558,0.838379900000291,593.5293653999979,None,ScrollUp,정답입니다,593.5293653999979,None,593.5293653999979,None,593.5293653999979,None,593.5293653999979,None,594.2553776999994,None,594.2553776999994,594.7591491000203,,,,,,,,,,,,,,,,104,2022-04-29_13h51.15.056,FishGame,2022.1.1,60.04004670854844,
,1,넌 불평스러워,5,Green,A,2.25,2.066666666666667,ScrollDown,ScrollUp,Green.png,5,Negative,Incongruent,,,,,0,0,0,0,,,,,,,,,,,,,,,,,,,,,,,,,,,,,0,0,0,0,,,,,,,,,,,,,,,,,,,,,,,,628.6262700000079,630.1270962000126,630.1598517000093,631.110059300001,631.1595656000136,632.1095683000167,632.1095683000167,None,,,,,,,,,,,,,,,,,,,,,,,,,,,,,,,,,,1.276234577099482,1.020676199987065,633.2593137000222,None,ScrollDown,정답입니다,633.2593137000222,None,633.2593137000222,None,633.2593137000222,None,633.2593137000222,None,634.1262593000138,None,634.1262593000138,634.6268415000231,595.2594183000037,None,595.2594183000037,None,0.45462963,0.024074074,1,0,0,0.01632818000507541,None,625.2593439000193,None,,,104,2022-04-29_13h51.15.056,FishGame,2022.1.1,60.04004670854844,
,2,나를 보내줘,6,Green,A,0,0,ScrollUp,ScrollDown,Green.png,5,NonTarget,NonTarget,,,,,0,0,0,0,,,,,,,,,,,,,,,,,,,,,,,,,,,,,0,1,1,1,,,,,,,,,,,,,,,,,,,,,,,,,,,,,,,,,,,,,,,,,,,,,,,,,,,,,,,,,,,,,,,,,1.6558641965190568,0.922813600016525,635.2510232000204,None,ScrollUp,정답입니다,635.2510232000204,None,635.2510232000204,None,635.2510232000204,None,635.2510232000204,None,636.0759765999974,None,636.0759765999974,636.5767464000091,,,,,,,,,,,,,,,,104,2022-04-29_13h51.15.056,FishGame,2022.1.1,60.04004670854844,
,3,넌 다재다능해,2,Orange,B,6.208333333333333,4.5,ScrollUp,ScrollDown,Orange.png,5,Positive,Incongruent,,,,,0,0,0,0,,,,,,,,,,,,,,,,,,,,,,,,,,,,,0,2,2,2,,,,,,,,,,,,,,,,,,,,,,,,,,,,,,,,,,,,,,,,,,,,,,,,,,,,,,,,,,,,,,,,,1.5555555584530034,0.8990119000081904,637.2089272000012,None,ScrollUp,정답입니다,637.2089272000012,None,637.2089272000012,None,637.2089272000012,None,637.2089272000012,None,637.9972049000207,None,637.9972049000207,638.5094163000176,,,,,,,,,,,,,,,,104,2022-04-29_13h51.15.056,FishGame,2022.1.1,60.04004670854844,
,4,넌 과감해,3,Green,A,4.833333333333334,4.6,ScrollDown,ScrollUp,Green.png,5,Neutral,Neutral,,,,,0,0,0,0,,,,,,,,,,,,,,,,,,,,,,,,,,,,,0,3,3,3,,,,,,,,,,,,,,,,,,,,,,,,,,,,,,,,,,,,,,,,,,,,,,,,,,,,,,,,,,,,,,,,,1.297839509944121,1.3591300999978557,639.1391433000099,None,ScrollDown,정답입니다,639.1391433000099,None,639.1391433000099,None,639.1391433000099,None,639.1391433000099,None,640.3930863999994,None,640.3930863999994,640.8930524000025,,,,,,,,,,,,,,,,104,2022-04-29_13h51.15.056,FishGame,2022.1.1,60.04004670854844,
,5,넌 고분고분해,3,Orange,B,3.75,4.033333333333333,ScrollUp,ScrollDown,Orange.png,5,Neutral,Neutral,,,,,0,0,0,0,,,,,,,,,,,,,,,,,,,,,,,,,,,,,0,4,4,4,,,,,,,,,,,,,,,,,,,,,,,,,,,,,,,,,,,,,,,,,,,,,,,,,,,,,,,,,,,,,,,,,1.6851851865649223,0.8662160999956541,641.5362887000083,None,ScrollUp,정답입니다,641.5362887000083,None,641.5362887000083,None,641.5362887000083,None,641.5362887000083,None,642.2807516000175,None,642.2807516000175,642.7936063000234,,,,,,,,,,,,,,,,104,2022-04-29_13h51.15.056,FishGame,2022.1.1,60.04004670854844,
,6,나를 보내줘,6,Green,A,0,0,ScrollUp,ScrollDown,Green.png,5,NonTarget,NonTarget,,,,,0,0,0,0,,,,,,,,,,,,,,,,,,,,,,,,,,,,,0,5,5,5,,,,,,,,,,,,,,,,,,,,,,,,,,,,,,,,,,,,,,,,,,,,,,,,,,,,,,,,,,,,,,,,,1.5725308619439602,0.9484914999920875,643.4208167000033,None,ScrollUp,정답입니다,643.4208167000033,None,643.4208167000033,None,643.4208167000033,None,643.4208167000033,None,644.2640300000203,None,644.2640300000203,644.7769463000004,,,,,,,,,,,,,,,,104,2022-04-29_13h51.15.056,FishGame,2022.1.1,60.04004670854844,
,7,넌 잘 잊어,4,Green,A,3,3.7,ScrollDown,ScrollUp,Green.png,5,Negative,Incongruent,,,,,0,0,0,0,,,,,,,,,,,,,,,,,,,,,,,,,,,,,0,6,6,6,,,,,,,,,,,,,,,,,,,,,,,,,,,,,,,,,,,,,,,,,,,,,,,,,,,,,,,,,,,,,,,,,1.1172839403152466,1.3488144000002649,645.4087739000097,None,ScrollDown,정답입니다,645.4087739000097,None,645.4087739000097,None,645.4087739000097,None,645.4087739000097,None,646.647624300007,None,646.647624300007,647.1603309000202,,,,,,,,,,,,,,,,104,2022-04-29_13h51.15.056,FishGame,2022.1.1,60.04004670854844,
,8,넌 탐구심이없어,4,Orange,B,2.833333333333333,3.066666666666667,ScrollUp,ScrollDown,Orange.png,5,Negative,Congruent,,,,,0,0,0,0,,,,,,,,,,,,,,,,,,,,,,,,,,,,,0,7,7,7,,,,,,,,,,,,,,,,,,,,,,,,,,,,,,,,,,,,,,,,,,,,,,,,,,,,,,,,,,,,,,,,,1.6666666691501937,0.864005499985069,647.8009956000024,None,ScrollUp,정답입니다,647.8009956000024,None,647.8009956000024,None,647.8009956000024,None,647.8009956000024,None,648.5476330000092,None,648.5476330000092,649.0600523000176,,,,,,,,,,,,,,,,104,2022-04-29_13h51.15.056,FishGame,2022.1.1,60.04004670854844,
,9,나를 데려가줘,6,Orange,B,0,0,ScrollDown,ScrollUp,Orange.png,5,NonTarget,NonTarget,,,,,0,0,0,0,,,,,,,,,,,,,,,,,,,,,,,,,,,,,0,8,8,8,,,,,,,,,,,,,,,,,,,,,,,,,,,,,,,,,,,,,,,,,,,,,,,,,,,,,,,,,,,,,,,,,1.341049388051033,0.9816410000203177,649.6897032000124,None,ScrollDown,정답입니다,649.6897032000124,None,649.6897032000124,None,649.6897032000124,None,649.6897032000124,None,650.5643647000252,None,650.5643647000252,651.0770600000105,,,,,,,,,,,,,,,,104,2022-04-29_13h51.15.056,FishGame,2022.1.1,60.04004670854844,
,10,넌 참되어,2,Green,A,6.041666666666664,4.733333333333333,ScrollDown,ScrollUp,Green.png,5,Positive,Congruent,,,,,0,0,0,0,,,,,,,,,,,,,,,,,,,,,,,,,,,,,0,9,9,9,,,,,,,,,,,,,,,,,,,,,,,,,,,,,,,,,,,,,,,,,,,,,,,,,,,,,,,,,,,,,,,,,1.3518518482645354,1.1565110000083223,651.7094806000241,None,ScrollDown,정답입니다,651.7094806000241,None,651.7094806000241,None,651.7094806000241,None,651.7094806000241,None,652.7594939999981,None,652.7594939999981,653.259736100008,,,,,,,,,,,,,,,,104,2022-04-29_13h51.15.056,FishGame,2022.1.1,60.04004670854844,
,11,넌 생기있어,1,Orange,B,5.875,5.633333333333334,ScrollUp,ScrollDown,Orange.png,5,Positive,Incongruent,,,,,0,0,0,0,,,,,,,,,,,,,,,,,,,,,,,,,,,,,0,10,10,10,,,,,,,,,,,,,,,,,,,,,,,,,,,,,,,,,,,,,,,,,,,,,,,,,,,,,,,,,,,,,,,,,1.6018518519898257,0.9583072999957949,653.8942149000068,None,ScrollUp,정답입니다,653.8942149000068,None,653.8942149000068,None,653.8942149000068,None,653.8942149000068,None,654.7427440000174,None,654.7427440000174,655.2438306999975,,,,,,,,,,,,,,,,104,2022-04-29_13h51.15.056,FishGame,2022.1.1,60.04004670854844,
,12,넌 비사교적이야,4,Orange,B,2.875,2.9,ScrollUp,ScrollDown,Orange.png,5,Negative,Congruent,,,,,0,0,0,0,,,,,,,,,,,,,,,,,,,,,,,,,,,,,0,11,11,11,,,,,,,,,,,,,,,,,,,,,,,,,,,,,,,,,,,,,,,,,,,,,,,,,,,,,,,,,,,,,,,,,1.6234567910432816,1.3077131000172812,655.8775808000064,None,ScrollUp,정답입니다,655.8775808000064,None,655.8775808000064,None,655.8775808000064,None,655.8775808000064,None,657.0767533000035,None,657.0767533000035,657.5767615000077,,,,,,,,,,,,,,,,104,2022-04-29_13h51.15.056,FishGame,2022.1.1,60.04004670854844,
,13,나를 데려가줘,6,Orange,B,0,0,ScrollDown,ScrollUp,Orange.png,5,NonTarget,NonTarget,,,,,0,0,0,0,,,,,,,,,,,,,,,,,,,,,,,,,,,,,0,12,12,12,,,,,,,,,,,,,,,,,,,,,,,,,,,,,,,,,,,,,,,,,,,,,,,,,,,,,,,,,,,,,,,,,1.300925925374031,1.0096786999783944,658.2118337000138,None,ScrollDown,정답입니다,658.2118337000138,None,658.2118337000138,None,658.2118337000138,None,658.2118337000138,None,659.1094984000083,None,659.1094984000083,659.6107999000233,,,,,,,,,,,,,,,,104,2022-04-29_13h51.15.056,FishGame,2022.1.1,60.04004670854844,
,14,넌 고독해,4,Green,A,2.916666666666667,3.233333333333333,ScrollDown,ScrollUp,Green.png,5,Negative,Incongruent,,,,,0,0,0,0,,,,,,,,,,,,,,,,,,,,,,,,,,,,,0,13,13,13,,,,,,,,,,,,,,,,,,,,,,,,,,,,,,,,,,,,,,,,,,,,,,,,,,,,,,,,,,,,,,,,,1.276234577099482,0.8425876999972388,660.2350592000003,None,ScrollDown,정답입니다,660.2350592000003,None,660.2350592000003,None,660.2350592000003,None,660.2350592000003,None,660.9765792000107,None,660.9765792000107,661.4764466000197,,,,,,,,,,,,,,,,104,2022-04-29_13h51.15.056,FishGame,2022.1.1,60.04004670854844,
,15,넌 신경질적이야,5,Orange,B,2.375,2.233333333333333,ScrollUp,ScrollDown,Orange.png,5,Negative,Congruent,,,,,0,0,0,0,,,,,,,,,,,,,,,,,,,,,,,,,,,,,0,14,14,14,,,,,,,,,,,,,,,,,,,,,,,,,,,,,,,,,,,,,,,,,,,,,,,,,,,,,,,,,,,,,,,,,1.7731481442848842,0.8237495999783278,662.1192840000149,None,ScrollUp,정답입니다,662.1192840000149,None,662.1192840000149,None,662.1192840000149,None,662.1192840000149,None,662.8269232000166,None,662.8269232000166,663.3272502000036,,,,,,,,,,,,,,,,104,2022-04-29_13h51.15.056,FishGame,2022.1.1,60.04004670854844,
,16,넌 똑똑해,2,Orange,B,5.666666666666667,3.966666666666667,ScrollUp,ScrollDown,Orange.png,5,Positive,Incongruent,,,,,0,0,0,0,,,,,,,,,,,,,,,,,,,,,,,,,,,,,0,15,15,15,,,,,,,,,,,,,,,,,,,,,,,,,,,,,,,,,,,,,,,,,,,,,,,,,,,,,,,,,,,,,,,,,1.537037037933866,1.385159500001464,663.9648738999967,None,NoResponse,무응답입니다,663.9648738999967,None,663.9648738999967,None,663.9648738999967,None,663.9648738999967,None,665.2336982999987,None,665.2336982999987,665.7442872000101,,,,,,,,,,,,,,,,104,2022-04-29_13h51.15.056,FishGame,2022.1.1,60.04004670854844,
,17,나를 보내줘,6,Green,A,0,0,ScrollUp,ScrollDown,Green.png,5,NonTarget,NonTarget,,,,,0,0,0,0,,,,,,,,,,,,,,,,,,,,,,,,,,,,,0,16,16,16,,,,,,,,,,,,,,,,,,,,,,,,,,,,,,,,,,,,,,,,,,,,,,,,,,,,,,,,,,,,,,,,,1.5185185189669332,1.0242609000124503,666.3680358999991,None,NoResponse,무응답입니다,666.3680358999991,None,666.3680358999991,None,666.3680358999991,None,666.3680358999991,None,667.2936244000157,None,667.2936244000157,667.7943139999988,,,,,,,,,,,,,,,,104,2022-04-29_13h51.15.056,FishGame,2022.1.1,60.04004670854844,
,18,넌 협조적이야,1,Green,A,5.625,5.666666666666667,ScrollDown,ScrollUp,Green.png,5,Positive,Congruent,,,,,0,0,0,0,,,,,,,,,,,,,,,,,,,,,,,,,,,,,0,17,17,17,,,,,,,,,,,,,,,,,,,,,,,,,,,,,,,,,,,,,,,,,,,,,,,,,,,,,,,,,,,,,,,,,1.1358024577299755,0.9398464999976568,668.4209552000102,None,ScrollDown,정답입니다,668.4209552000102,None,668.4209552000102,None,668.4209552000102,None,668.4209552000102,None,669.2602314999967,None,669.2602314999967,669.7602003000211,,,,,,,,,,,,,,,,104,2022-04-29_13h51.15.056,FishGame,2022.1.1,60.04004670854844,
,19,나를 데려가줘,6,Orange,B,0,0,ScrollDown,ScrollUp,Orange.png,5,NonTarget,NonTarget,,,,,0,0,0,0,,,,,,,,,,,,,,,,,,,,,,,,,,,,,0,18,18,18,,,,,,,,,,,,,,,,,,,,,,,,,,,,,,,,,,,,,,,,,,,,,,,,,,,,,,,,,,,,,,,,,1.141975313425064,1.2941283999825828,670.3913388000219,None,ScrollDown,정답입니다,670.3913388000219,None,670.3913388000219,None,670.3913388000219,None,670.3913388000219,None,671.5771671000111,None,671.5771671000111,672.0771886000002,,,,,,,,,,,,,,,,104,2022-04-29_13h51.15.056,FishGame,2022.1.1,60.04004670854844,
,20,넌 몰인정해,5,Orange,B,2.541666666666667,2.066666666666667,ScrollUp,ScrollDown,Orange.png,5,Negative,Congruent,,,,,0,0,0,0,,,,,,,,,,,,,,,,,,,,,,,,,,,,,0,19,19,19,,,,,,,,,,,,,,,,,,,,,,,,,,,,,,,,,,,,,,,,,,,,,,,,,,,,,,,,,,,,,,,,,2,1.1497577000118326,672.7164523000247,None,ScrollUp,정답입니다,672.7164523000247,None,672.7164523000247,None,672.7164523000247,None,672.7164523000247,None,673.748219400004,None,673.748219400004,674.2609184000175,,,,,,,,,,,,,,,,104,2022-04-29_13h51.15.056,FishGame,2022.1.1,60.04004670854844,
,21,나를 데려가줘,6,Orange,B,0,0,ScrollDown,ScrollUp,Orange.png,5,NonTarget,NonTarget,,,,,0,0,0,0,,,,,,,,,,,,,,,,,,,,,,,,,,,,,0,20,20,20,,,,,,,,,,,,,,,,,,,,,,,,,,,,,,,,,,,,,,,,,,,,,,,,,,,,,,,,,,,,,,,,,1.1651234477758408,1.364582899986999,674.8926216000109,None,ScrollDown,정답입니다,674.8926216000109,None,674.8926216000109,None,674.8926216000109,None,674.8926216000109,None,676.1481833000144,None,676.1481833000144,676.660758700018,,,,,,,,,,,,,,,,104,2022-04-29_13h51.15.056,FishGame,2022.1.1,60.04004670854844,
,22,넌 순진해,3,Orange,B,4.125,4.166666666666667,ScrollUp,ScrollDown,Orange.png,5,Neutral,Neutral,,,,,0,0,0,0,,,,,,,,,,,,,,,,,,,,,,,,,,,,,0,21,21,21,,,,,,,,,,,,,,,,,,,,,,,,,,,,,,,,,,,,,,,,,,,,,,,,,,,,,,,,,,,,,,,,,1.9521604875723522,1.0350839000020642,677.2882472000201,None,ScrollUp,정답입니다,677.2882472000201,None,677.2882472000201,None,677.2882472000201,None,677.2882472000201,None,678.2233764000121,None,678.2233764000121,678.7272778000042,,,,,,,,,,,,,,,,104,2022-04-29_13h51.15.056,FishGame,2022.1.1,60.04004670854844,
