name,TrialNum,Word,WordCategory,FishType,WordList,WordValence,WordReputation,CorrectResp,IncorrectResp,FishTypeFile,Round,WordType,Condition,LoopforOrange.thisRepN,LoopforOrange.thisTrialN,LoopforOrange.thisN,LoopforOrange.thisIndex,OrangeInstLoop.thisRepN,OrangeInstLoop.thisTrialN,OrangeInstLoop.thisN,OrangeInstLoop.thisIndex,OrangePrac.thisRepN,OrangePrac.thisTrialN,OrangePrac.thisN,OrangePrac.thisIndex,temp1.thisRepN,temp1.thisTrialN,temp1.thisN,temp1.thisIndex,OrangeRound1.thisRepN,OrangeRound1.thisTrialN,OrangeRound1.thisN,OrangeRound1.thisIndex,OrangeRound2.thisRepN,OrangeRound2.thisTrialN,OrangeRound2.thisN,OrangeRound2.thisIndex,OrangeRound3.thisRepN,OrangeRound3.thisTrialN,OrangeRound3.thisN,OrangeRound3.thisIndex,OrangeRound4.thisRepN,OrangeRound4.thisTrialN,OrangeRound4.thisN,OrangeRound4.thisIndex,OrangeRound5.thisRepN,OrangeRound5.thisTrialN,OrangeRound5.thisN,OrangeRound5.thisIndex,LoopForGreen.thisRepN,LoopForGreen.thisTrialN,LoopForGreen.thisN,LoopForGreen.thisIndex,text_2.started,text_2.stopped,text_3.started,text_3.stopped,key_resp.keys,key_resp.rt,key_resp.started,key_resp.stopped,PassI_2.started,PassI_2.stopped,PassInst_2.keys,PassInst_2.rt,PassInst_2.started,PassInst_2.stopped,mouse_2.x,mouse_2.y,mouse_2.leftButton,mouse_2.midButton,mouse_2.rightButton,mouse_2.started,mouse_2.stopped,image.started,image.stopped,text_5.started,text_5.stopped,text_6.started,text_6.stopped,text_7.started,text_7.stopped,text_8.started,text_8.stopped,slider_2.response,slider_2.rt,slider_2.started,slider_2.stopped,Response_2,Feedback_2,BackGround_2.started,BackGround_2.stopped,Fish_2.started,Fish_2.stopped,WordBox_2.started,WordBox_2.stopped,Words_2.started,Words_2.stopped,BackGround_Feedback_2.started,BackGround_Feedback_2.stopped,Feedbacks_2.started,Feedbacks_2.stopped,Continue_or_not.keys,Continue_or_not.rt,Continue_or_not.started,Continue_or_not.stopped,image_3.started,image_3.stopped,mouse_3.x,mouse_3.y,mouse_3.leftButton,mouse_3.midButton,mouse_3.rightButton,mouse_3.started,mouse_3.stopped,startmain.started,startmain.stopped,slider.response,slider.rt,slider.started,slider.stopped,Response,Feedback,BackGround.started,BackGround.stopped,Fish.started,Fish.stopped,WordBox.started,WordBox.stopped,Words.started,Words.stopped,BackGround_Feedback.started,BackGround_Feedback.stopped,Feedbacks.started,Feedbacks.stopped,text.started,text.stopped,break_interval.started,break_interval.stopped,mouse.x,mouse.y,mouse.leftButton,mouse.midButton,mouse.rightButton,mouse.started,mouse.stopped,stratnextround.started,stratnextround.stopped,endgame.started,endgame.stopped,participant,date,expName,psychopyVersion,frameRate,
,,,,,,,,,,,,,,,,,,,,,,,,,,,,,,,,,,,,,,,,,,,,,,,,,,,,,,22.684805299999425,None,22.684805299999425,None,space,1.1670677999791224,23.152295000007143,None,,,,,,,,,,,,,,,,,,,,,,,,,,,,,,,,,,,,,,,,,,,,,,,,,,,,,,,,,,,,,,,,,,,,,,,,,,,,,,,,,,,,,,,,,,105,2022-04-29_16h52.03.675,FishGame,2022.1.1,60.03669442048244,
물고기과제_instruction(참가자용)OrangeVersion.mp4,,,,,,,,,,,,,,0,0,0,0,0,0,0,0,,,,,,,,,,,,,,,,,,,,,,,,,,,,,,,,,,,,,,,,,90.58474260001094,None,n,7.352420199982589,90.58474260001094,None,,,,,,,,,,,,,,,,,,,,,,,,,,,,,,,,,,,,,,,,,,,,,,,,,,,,,,,,,,,,,,,,,,,,,,,,,,,,,,,,,,,,105,2022-04-29_16h52.03.675,FishGame,2022.1.1,60.03669442048244,
,1,넌 교활해,5,Green,B,2.333333333333333,2.133333333333333,ScrollUp,ScrollDown,Green.png,practice,,,0,0,0,0,,,,,0,0,0,0,0,0,0,0,,,,,,,,,,,,,,,,,,,,,,,,,,,,,,,,,,,,,,,0.083333336,-0.22592592,1,0,0,0.5117454999999609,None,97.95400530000916,None,104.5532979000127,106.05419220001204,106.08714069999405,107.0371570000134,107.08764660000452,108.03661290000309,108.03661290000309,None,2,1.5673399999795947,109.19989129999885,None,ScrollUp,정답입니다,109.19989129999885,None,109.19989129999885,None,109.19989129999885,None,109.19989129999885,None,110.60426640001242,None,110.60426640001242,111.10401589999674,,,,,,,,,,,,,,,,,,,,,,,,,,,,,,,,,,,,,,,,,,,,,,,,,105,2022-04-29_16h52.03.675,FishGame,2022.1.1,60.03669442048244,
,2,넌 슬기로워,2,Orange,A,6.166666666666667,4.1,ScrollDown,ScrollUp,Orange.png,practice,,,0,0,0,0,,,,,0,0,0,0,0,1,1,1,,,,,,,,,,,,,,,,,,,,,,,,,,,,,,,,,,,,,,,,,,,,,,,,,,,,,,,,1,1.1109165000088979,111.74623859999701,None,ScrollDown,정답입니다,111.74623859999701,None,111.74623859999701,None,111.74623859999701,None,111.74623859999701,None,112.7401966000034,None,112.7401966000034,113.25451299999258,,,,,,,,,,,,,,,,,,,,,,,,,,,,,,,,,,,,,,,,,,,,,,,,,105,2022-04-29_16h52.03.675,FishGame,2022.1.1,60.03669442048244,
,3,나를 보내줘,6,Orange,A,0,0,ScrollUp,ScrollDown,Orange.png,practice,,,0,0,0,0,,,,,0,0,0,0,0,2,2,2,,,,,,,,,,,,,,,,,,,,,,,,,,,,,,,,,,,,,,,,,,,,,,,,,,,,,,,,2,1.4845936999772675,113.9052226000058,None,ScrollUp,정답입니다,113.9052226000058,None,113.9052226000058,None,113.9052226000058,None,113.9052226000058,None,115.26691000000574,None,115.26691000000574,115.77079670000239,,,,,,,,,,,,,,,,,,,,,,,,,,,,,,,,,,,,,,,,,,,,,,,,,105,2022-04-29_16h52.03.675,FishGame,2022.1.1,60.03669442048244,
,4,나를 데려가줘,6,Green,B,0,0,ScrollDown,ScrollUp,Green.png,practice,,,0,0,0,0,,,,,0,0,0,0,0,3,3,3,,,,,,,,,,,,,,,,,,,,,,,,,,,,,,,,,,,,,,,,,,,,,,,,,,,,,,,,1,1.0967612999957055,116.40320550001343,None,ScrollDown,정답입니다,116.40320550001343,None,116.40320550001343,None,116.40320550001343,None,116.40320550001343,None,117.39190859999508,None,117.39190859999508,117.90423810001812,,,,,,,,,,,,,,,,,,,,,,,,,,,,,,,,,,,,,,,,,,,,,,,,,105,2022-04-29_16h52.03.675,FishGame,2022.1.1,60.03669442048244,
,1,넌 교활해,5,Green,B,2.333333333333333,2.133333333333333,ScrollUp,ScrollDown,Green.png,practice,,,0,0,0,0,,,,,0,0,0,0,,,,,,,,,,,,,,,,,,,,,,,,,,,,,,,,,,,,,,,,,,,,,,,,,,,,,,,,,,,,,,,,,,,,,,,,,,,,,,n,19.91297880001366,118.4040401999955,None,118.4040401999955,None,,,,,,,,,,,,,,,,,,,,,,,,,,,,,,,,,,,,,,,,,,,105,2022-04-29_16h52.03.675,FishGame,2022.1.1,60.03669442048244,
,1,넌 따뜻해,1,Green,B,6.083333333333333,5.6,ScrollUp,ScrollDown,Green.png,1,Positive,Incongruent,0,0,0,0,,,,,,,,,,,,,0,0,0,0,,,,,,,,,,,,,,,,,,,,,,,,,,,,,,,,,,,,,,,,,,,,149.10462570001255,150.6047472000064,150.63836460001767,151.58800770001835,151.6384418999951,152.58826260000933,152.58826260000933,None,,,,,,,,,,,,,,,,,,,,,,,,,0.017592592,-0.11481482,1,0,0,0.31397600000491366,None,138.3377243000141,None,2,1.7096999999776017,153.7695592000091,None,ScrollUp,정답입니다,153.7695592000091,None,153.7695592000091,None,153.7695592000091,None,153.7695592000091,None,155.30012759999954,None,155.30012759999954,155.80507760000182,,,,,,,,,,,,,,,,105,2022-04-29_16h52.03.675,FishGame,2022.1.1,60.03669442048244,
,2,넌 기품있어,2,Green,B,5.791666666666668,4.5,ScrollUp,ScrollDown,Green.png,1,Positive,Incongruent,0,0,0,0,,,,,,,,,,,,,0,1,1,1,,,,,,,,,,,,,,,,,,,,,,,,,,,,,,,,,,,,,,,,,,,,,,,,,,,,,,,,,,,,,,,,,,,,,,,,,,,,,,,,,,,,,2,0.9544450000103097,156.45078270000522,None,ScrollUp,정답입니다,156.45078270000522,None,156.45078270000522,None,156.45078270000522,None,156.45078270000522,None,157.28488389999256,None,157.28488389999256,157.7877329000039,,,,,,,,,,,,,,,,105,2022-04-29_16h52.03.675,FishGame,2022.1.1,60.03669442048244,
,3,나를 보내줘,6,Orange,A,0,0,ScrollUp,ScrollDown,Orange.png,1,NonTarget,NonTarget,0,0,0,0,,,,,,,,,,,,,0,2,2,2,,,,,,,,,,,,,,,,,,,,,,,,,,,,,,,,,,,,,,,,,,,,,,,,,,,,,,,,,,,,,,,,,,,,,,,,,,,,,,,,,,,,,2,1.121628699998837,158.43799800000852,None,ScrollUp,정답입니다,158.43799800000852,None,158.43799800000852,None,158.43799800000852,None,158.43799800000852,None,159.43825890001608,None,159.43825890001608,159.93799400000717,,,,,,,,,,,,,,,,105,2022-04-29_16h52.03.675,FishGame,2022.1.1,60.03669442048244,
,4,넌 수동적이야,4,Orange,A,2.833333333333333,2.933333333333333,ScrollDown,ScrollUp,Orange.png,1,Negative,Incongruent,0,0,0,0,,,,,,,,,,,,,0,3,3,3,,,,,,,,,,,,,,,,,,,,,,,,,,,,,,,,,,,,,,,,,,,,,,,,,,,,,,,,,,,,,,,,,,,,,,,,,,,,,,,,,,,,,1.0061728358268738,1.006401199992979,160.58769670000765,None,ScrollDown,정답입니다,160.58769670000765,None,160.58769670000765,None,160.58769670000765,None,160.58769670000765,None,161.47098889999324,None,161.47098889999324,161.97145380001166,,,,,,,,,,,,,,,,105,2022-04-29_16h52.03.675,FishGame,2022.1.1,60.03669442048244,
,5,넌 사심이 없어,3,Green,B,4.916666666666666,4.333333333333333,ScrollUp,ScrollDown,Green.png,1,Neutral,Neutral,0,0,0,0,,,,,,,,,,,,,0,4,4,4,,,,,,,,,,,,,,,,,,,,,,,,,,,,,,,,,,,,,,,,,,,,,,,,,,,,,,,,,,,,,,,,,,,,,,,,,,,,,,,,,,,,,2,1.1239233000087552,162.612380400009,None,ScrollUp,정답입니다,162.612380400009,None,162.612380400009,None,162.612380400009,None,162.612380400009,None,163.6214375999989,None,163.6214375999989,164.12228380001034,,,,,,,,,,,,,,,,105,2022-04-29_16h52.03.675,FishGame,2022.1.1,60.03669442048244,
,6,넌 헤퍼,5,Orange,A,2.458333333333334,2.233333333333333,ScrollDown,ScrollUp,Orange.png,1,Negative,Incongruent,0,0,0,0,,,,,,,,,,,,,0,5,5,5,,,,,,,,,,,,,,,,,,,,,,,,,,,,,,,,,,,,,,,,,,,,,,,,,,,,,,,,,,,,,,,,,,,,,,,,,,,,,,,,,,,,,1,1.5170331000117585,164.76485470001353,None,ScrollDown,정답입니다,164.76485470001353,None,164.76485470001353,None,164.76485470001353,None,164.76485470001353,None,166.1593904000183,None,166.1593904000183,166.6716191000014,,,,,,,,,,,,,,,,105,2022-04-29_16h52.03.675,FishGame,2022.1.1,60.03669442048244,
,7,넌 말쑥해,3,Orange,A,4.833333333333334,4.333333333333333,ScrollDown,ScrollUp,Orange.png,1,Neutral,Neutral,0,0,0,0,,,,,,,,,,,,,0,6,6,6,,,,,,,,,,,,,,,,,,,,,,,,,,,,,,,,,,,,,,,,,,,,,,,,,,,,,,,,,,,,,,,,,,,,,,,,,,,,,,,,,,,,,1,1.0742400999879465,167.31528119998984,None,ScrollDown,정답입니다,167.31528119998984,None,167.31528119998984,None,167.31528119998984,None,167.31528119998984,None,168.2715801000013,None,168.2715801000013,168.77143220001017,,,,,,,,,,,,,,,,105,2022-04-29_16h52.03.675,FishGame,2022.1.1,60.03669442048244,
,8,넌 투덜거려,5,Green,B,2.541666666666667,2.266666666666667,ScrollUp,ScrollDown,Green.png,1,Negative,Congruent,0,0,0,0,,,,,,,,,,,,,0,7,7,7,,,,,,,,,,,,,,,,,,,,,,,,,,,,,,,,,,,,,,,,,,,,,,,,,,,,,,,,,,,,,,,,,,,,,,,,,,,,,,,,,,,,,1.9645061492919922,1.1686168999876827,169.4163555999985,None,ScrollUp,정답입니다,169.4163555999985,None,169.4163555999985,None,169.4163555999985,None,169.4163555999985,None,170.46847270001308,None,170.46847270001308,170.9716955999902,,,,,,,,,,,,,,,,105,2022-04-29_16h52.03.675,FishGame,2022.1.1,60.03669442048244,
,9,넌 적극적이야,1,Orange,A,5.708333333333333,5.533333333333333,ScrollDown,ScrollUp,Orange.png,1,Positive,Congruent,0,0,0,0,,,,,,,,,,,,,0,8,8,8,,,,,,,,,,,,,,,,,,,,,,,,,,,,,,,,,,,,,,,,,,,,,,,,,,,,,,,,,,,,,,,,,,,,,,,,,,,,,,,,,,,,,1,1.0573255000053905,171.61299210001016,None,ScrollDown,정답입니다,171.61299210001016,None,171.61299210001016,None,171.61299210001016,None,171.61299210001016,None,172.55445860000327,None,172.55445860000327,173.0558784000168,,,,,,,,,,,,,,,,105,2022-04-29_16h52.03.675,FishGame,2022.1.1,60.03669442048244,
,10,넌 재미없어,4,Green,B,2.625,2.966666666666667,ScrollUp,ScrollDown,Green.png,1,Negative,Congruent,0,0,0,0,,,,,,,,,,,,,0,9,9,9,,,,,,,,,,,,,,,,,,,,,,,,,,,,,,,,,,,,,,,,,,,,,,,,,,,,,,,,,,,,,,,,,,,,,,,,,,,,,,,,,,,,,2,1.027729499997804,173.69312119999086,None,ScrollUp,정답입니다,173.69312119999086,None,173.69312119999086,None,173.69312119999086,None,173.69312119999086,None,174.60500169999432,None,174.60500169999432,175.10558219999075,,,,,,,,,,,,,,,,105,2022-04-29_16h52.03.675,FishGame,2022.1.1,60.03669442048244,
,11,넌 명석해,2,Orange,A,5.875,4.033333333333333,ScrollDown,ScrollUp,Orange.png,1,Positive,Congruent,0,0,0,0,,,,,,,,,,,,,0,10,10,10,,,,,,,,,,,,,,,,,,,,,,,,,,,,,,,,,,,,,,,,,,,,,,,,,,,,,,,,,,,,,,,,,,,,,,,,,,,,,,,,,,,,,1,0.9716157999937423,175.74834150000243,None,ScrollDown,정답입니다,175.74834150000243,None,175.74834150000243,None,175.74834150000243,None,175.74834150000243,None,176.60180969999055,None,176.60180969999055,177.10544499999378,,,,,,,,,,,,,,,,105,2022-04-29_16h52.03.675,FishGame,2022.1.1,60.03669442048244,
,12,나를 데려가줘,6,Green,B,0,0,ScrollDown,ScrollUp,Green.png,1,NonTarget,NonTarget,0,0,0,0,,,,,,,,,,,,,0,11,11,11,,,,,,,,,,,,,,,,,,,,,,,,,,,,,,,,,,,,,,,,,,,,,,,,,,,,,,,,,,,,,,,,,,,,,,,,,,,,,,,,,,,,,1,1.5238835000200197,177.74321340001188,None,ScrollDown,정답입니다,177.74321340001188,None,177.74321340001188,None,177.74321340001188,None,177.74321340001188,None,179.1551172999898,None,179.1551172999898,179.65517099999124,,,,,,,,,,,,,,,,105,2022-04-29_16h52.03.675,FishGame,2022.1.1,60.03669442048244,
,13,넌 소심해,4,Orange,A,3,3.1,ScrollDown,ScrollUp,Orange.png,1,Negative,Incongruent,0,0,0,0,,,,,,,,,,,,,0,12,12,12,,,,,,,,,,,,,,,,,,,,,,,,,,,,,,,,,,,,,,,,,,,,,,,,,,,,,,,,,,,,,,,,,,,,,,,,,,,,,,,,,,,,,1,1.1137059000029694,180.29266169999028,None,ScrollDown,정답입니다,180.29266169999028,None,180.29266169999028,None,180.29266169999028,None,180.29266169999028,None,181.2935928000079,None,181.2935928000079,181.8054439999978,,,,,,,,,,,,,,,,105,2022-04-29_16h52.03.675,FishGame,2022.1.1,60.03669442048244,
,14,넌 합리적이야,2,Orange,A,5.583333333333333,4.733333333333333,ScrollDown,ScrollUp,Orange.png,1,Positive,Congruent,0,0,0,0,,,,,,,,,,,,,0,13,13,13,,,,,,,,,,,,,,,,,,,,,,,,,,,,,,,,,,,,,,,,,,,,,,,,,,,,,,,,,,,,,,,,,,,,,,,,,,,,,,,,,,,,,1,0.9626616000023205,182.45299240000895,None,ScrollDown,정답입니다,182.45299240000895,None,182.45299240000895,None,182.45299240000895,None,182.45299240000895,None,183.2928205000062,None,183.2928205000062,183.80526520000421,,,,,,,,,,,,,,,,105,2022-04-29_16h52.03.675,FishGame,2022.1.1,60.03669442048244,
,15,넌 무자비해,5,Green,B,2.333333333333333,2.1,ScrollUp,ScrollDown,Green.png,1,Negative,Congruent,0,0,0,0,,,,,,,,,,,,,0,14,14,14,,,,,,,,,,,,,,,,,,,,,,,,,,,,,,,,,,,,,,,,,,,,,,,,,,,,,,,,,,,,,,,,,,,,,,,,,,,,,,,,,,,,,2,0.993829100014409,184.44620400000713,None,ScrollUp,정답입니다,184.44620400000713,None,184.44620400000713,None,184.44620400000713,None,184.44620400000713,None,185.32167890001438,None,185.32167890001438,185.82244660001015,,,,,,,,,,,,,,,,105,2022-04-29_16h52.03.675,FishGame,2022.1.1,60.03669442048244,
,16,나를 보내줘,6,Orange,A,0,0,ScrollUp,ScrollDown,Orange.png,1,NonTarget,NonTarget,0,0,0,0,,,,,,,,,,,,,0,15,15,15,,,,,,,,,,,,,,,,,,,,,,,,,,,,,,,,,,,,,,,,,,,,,,,,,,,,,,,,,,,,,,,,,,,,,,,,,,,,,,,,,,,,,1,1.005052299995441,186.45841069999733,None,ScrollDown,오답입니다,186.45841069999733,None,186.45841069999733,None,186.45841069999733,None,186.45841069999733,None,187.34875340000144,None,187.34875340000144,187.8554429000069,,,,,,,,,,,,,,,,105,2022-04-29_16h52.03.675,FishGame,2022.1.1,60.03669442048244,
,17,넌 현실적이야,3,Green,B,4.608695652173913,4.766666666666667,ScrollUp,ScrollDown,Green.png,1,Neutral,Neutral,0,0,0,0,,,,,,,,,,,,,0,16,16,16,,,,,,,,,,,,,,,,,,,,,,,,,,,,,,,,,,,,,,,,,,,,,,,,,,,,,,,,,,,,,,,,,,,,,,,,,,,,,,,,,,,,,1.9861110945542653,1.3452145000046585,188.4950850000023,None,ScrollUp,정답입니다,188.4950850000023,None,188.4950850000023,None,188.4950850000023,None,188.4950850000023,None,189.7261836999969,None,189.7261836999969,190.2390885000059,,,,,,,,,,,,,,,,105,2022-04-29_16h52.03.675,FishGame,2022.1.1,60.03669442048244,
,18,넌 의리있어,1,Green,B,5.833333333333334,5.633333333333334,ScrollUp,ScrollDown,Green.png,1,Positive,Incongruent,0,0,0,0,,,,,,,,,,,,,0,17,17,17,,,,,,,,,,,,,,,,,,,,,,,,,,,,,,,,,,,,,,,,,,,,,,,,,,,,,,,,,,,,,,,,,,,,,,,,,,,,,,,,,,,,,1.8441358109315236,1.2553315999975894,190.88021450000815,None,ScrollUp,정답입니다,190.88021450000815,None,190.88021450000815,None,190.88021450000815,None,190.88021450000815,None,192.02198489999864,None,192.02198489999864,192.52270100000896,,,,,,,,,,,,,,,,105,2022-04-29_16h52.03.675,FishGame,2022.1.1,60.03669442048244,
,19,넌 신경과민이야,5,Orange,A,2.541666666666667,2.166666666666667,ScrollDown,ScrollUp,Orange.png,1,Negative,Incongruent,0,0,0,0,,,,,,,,,,,,,0,18,18,18,,,,,,,,,,,,,,,,,,,,,,,,,,,,,,,,,,,,,,,,,,,,,,,,,,,,,,,,,,,,,,,,,,,,,,,,,,,,,,,,,,,,,1,1.1228350999881513,193.17121430000407,None,ScrollDown,정답입니다,193.17121430000407,None,193.17121430000407,None,193.17121430000407,None,193.17121430000407,None,194.17210299998987,None,194.17210299998987,194.67245879999246,,,,,,,,,,,,,,,,105,2022-04-29_16h52.03.675,FishGame,2022.1.1,60.03669442048244,
,20,넌 편안해,1,Orange,A,5.916666666666666,5.866666666666666,ScrollDown,ScrollUp,Orange.png,1,Positive,Congruent,0,0,0,0,,,,,,,,,,,,,0,19,19,19,,,,,,,,,,,,,,,,,,,,,,,,,,,,,,,,,,,,,,,,,,,,,,,,,,,,,,,,,,,,,,,,,,,,,,,,,,,,,,,,,,,,,1,1.1068411000014748,195.3175690000062,None,ScrollDown,정답입니다,195.3175690000062,None,195.3175690000062,None,195.3175690000062,None,195.3175690000062,None,196.30552090000128,None,196.30552090000128,196.80596990001504,,,,,,,,,,,,,,,,105,2022-04-29_16h52.03.675,FishGame,2022.1.1,60.03669442048244,
,21,넌 품위있어,2,Green,B,5.291666666666666,4.466666666666667,ScrollUp,ScrollDown,Green.png,1,Positive,Incongruent,0,0,0,0,,,,,,,,,,,,,0,20,20,20,,,,,,,,,,,,,,,,,,,,,,,,,,,,,,,,,,,,,,,,,,,,,,,,,,,,,,,,,,,,,,,,,,,,,,,,,,,,,,,,,,,,,1.89969136317571,0.9263803999929223,197.43948709999677,None,ScrollUp,정답입니다,197.43948709999677,None,197.43948709999677,None,197.43948709999677,None,197.43948709999677,None,198.25544609999633,None,198.25544609999633,198.7557181000011,,,,,,,,,,,,,,,,105,2022-04-29_16h52.03.675,FishGame,2022.1.1,60.03669442048244,
,22,넌 빈틈없어,3,Orange,A,4.833333333333333,3.966666666666667,ScrollDown,ScrollUp,Orange.png,1,Neutral,Neutral,0,0,0,0,,,,,,,,,,,,,0,21,21,21,,,,,,,,,,,,,,,,,,,,,,,,,,,,,,,,,,,,,,,,,,,,,,,,,,,,,,,,,,,,,,,,,,,,,,,,,,,,,,,,,,,,,1,0.9474196000082884,199.39799369999673,None,ScrollDown,정답입니다,199.39799369999673,None,199.39799369999673,None,199.39799369999673,None,199.39799369999673,None,200.22671190000256,None,200.22671190000256,200.73872260001372,,,,,,,,,,,,,,,,105,2022-04-29_16h52.03.675,FishGame,2022.1.1,60.03669442048244,
,23,넌 상상력없어,4,Green,B,2.833333333333333,3.133333333333333,ScrollUp,ScrollDown,Green.png,1,Negative,Congruent,0,0,0,0,,,,,,,,,,,,,0,22,22,22,,,,,,,,,,,,,,,,,,,,,,,,,,,,,,,,,,,,,,,,,,,,,,,,,,,,,,,,,,,,,,,,,,,,,,,,,,,,,,,,,,,,,2,0.9803039000253193,201.37540469999658,None,ScrollUp,정답입니다,201.37540469999658,None,201.37540469999658,None,201.37540469999658,None,201.37540469999658,None,202.24372040000162,None,202.24372040000162,202.7557968000183,,,,,,,,,,,,,,,,105,2022-04-29_16h52.03.675,FishGame,2022.1.1,60.03669442048244,
,24,넌 지혜로워,2,Green,B,6.333333333333334,4.633333333333334,ScrollUp,ScrollDown,Green.png,1,Positive,Incongruent,0,0,0,0,,,,,,,,,,,,,0,23,23,23,,,,,,,,,,,,,,,,,,,,,,,,,,,,,,,,,,,,,,,,,,,,,,,,,,,,,,,,,,,,,,,,,,,,,,,,,,,,,,,,,,,,,2,0.8649977000022773,203.40732160001062,None,ScrollUp,정답입니다,203.40732160001062,None,203.40732160001062,None,203.40732160001062,None,203.40732160001062,None,204.14321219999692,None,204.14321219999692,204.65566380001837,,,,,,,,,,,,,,,,105,2022-04-29_16h52.03.675,FishGame,2022.1.1,60.03669442048244,
,25,넌 시끄러워,4,Orange,A,2.833333333333333,3.033333333333333,ScrollDown,ScrollUp,Orange.png,1,Negative,Incongruent,0,0,0,0,,,,,,,,,,,,,0,24,24,24,,,,,,,,,,,,,,,,,,,,,,,,,,,,,,,,,,,,,,,,,,,,,,,,,,,,,,,,,,,,,,,,,,,,,,,,,,,,,,,,,,,,,1.192901223897934,0.8358752999920398,205.30167710001115,None,ScrollDown,정답입니다,205.30167710001115,None,205.30167710001115,None,205.30167710001115,None,205.30167710001115,None,206.0187092999986,None,206.0187092999986,206.52241750000394,,,,,,,,,,,,,,,,105,2022-04-29_16h52.03.675,FishGame,2022.1.1,60.03669442048244,
,26,넌 만사태평이야,3,Green,B,4,4.333333333333333,ScrollUp,ScrollDown,Green.png,1,Neutral,Neutral,0,0,0,0,,,,,,,,,,,,,0,25,25,25,,,,,,,,,,,,,,,,,,,,,,,,,,,,,,,,,,,,,,,,,,,,,,,,,,,,,,,,,,,,,,,,,,,,,,,,,,,,,,,,,,,,,1.9212963084379833,0.8723960000206716,207.1752187999955,None,ScrollUp,정답입니다,207.1752187999955,None,207.1752187999955,None,207.1752187999955,None,207.1752187999955,None,207.92230050000944,None,207.92230050000944,208.42220920001273,,,,,,,,,,,,,,,,105,2022-04-29_16h52.03.675,FishGame,2022.1.1,60.03669442048244,
,27,넌 붙임성있어,1,Orange,A,5.708333333333333,5.633333333333334,ScrollDown,ScrollUp,Orange.png,1,Positive,Congruent,0,0,0,0,,,,,,,,,,,,,0,26,26,26,,,,,,,,,,,,,,,,,,,,,,,,,,,,,,,,,,,,,,,,,,,,,,,,,,,,,,,,,,,,,,,,,,,,,,,,,,,,,,,,,,,,,1,0.9551338999881409,209.06599010000355,None,ScrollDown,정답입니다,209.06599010000355,None,209.06599010000355,None,209.06599010000355,None,209.06599010000355,None,209.90227190000587,None,209.90227190000587,210.40580900001805,,,,,,,,,,,,,,,,105,2022-04-29_16h52.03.675,FishGame,2022.1.1,60.03669442048244,
,28,넌 영리해,2,Orange,A,6,4.033333333333333,ScrollDown,ScrollUp,Orange.png,1,Positive,Congruent,0,0,0,0,,,,,,,,,,,,,0,27,27,27,,,,,,,,,,,,,,,,,,,,,,,,,,,,,,,,,,,,,,,,,,,,,,,,,,,,,,,,,,,,,,,,,,,,,,,,,,,,,,,,,,,,,1,0.8171652999881189,211.0462753000029,None,ScrollDown,정답입니다,211.0462753000029,None,211.0462753000029,None,211.0462753000029,None,211.0462753000029,None,211.74382020000485,None,211.74382020000485,212.25598940000054,,,,,,,,,,,,,,,,105,2022-04-29_16h52.03.675,FishGame,2022.1.1,60.03669442048244,
,29,넌 열심이야,1,Green,B,6.041666666666667,5.833333333333333,ScrollUp,ScrollDown,Green.png,1,Positive,Incongruent,0,0,0,0,,,,,,,,,,,,,0,28,28,28,,,,,,,,,,,,,,,,,,,,,,,,,,,,,,,,,,,,,,,,,,,,,,,,,,,,,,,,,,,,,,,,,,,,,,,,,,,,,,,,,,,,,1.9521604875723522,0.9244390999956522,212.89138079999248,None,ScrollUp,정답입니다,212.89138079999248,None,212.89138079999248,None,212.89138079999248,None,212.89138079999248,None,213.7052767999994,None,213.7052767999994,214.20607839999138,,,,,,,,,,,,,,,,105,2022-04-29_16h52.03.675,FishGame,2022.1.1,60.03669442048244,
,30,넌 인기없어,4,Green,B,3,3.3,ScrollUp,ScrollDown,Green.png,1,Negative,Congruent,0,0,0,0,,,,,,,,,,,,,0,29,29,29,,,,,,,,,,,,,,,,,,,,,,,,,,,,,,,,,,,,,,,,,,,,,,,,,,,,,,,,,,,,,,,,,,,,,,,,,,,,,,,,,,,,,1.9645061492919922,0.8067116000165697,214.84192060001078,None,ScrollUp,정답입니다,214.84192060001078,None,214.84192060001078,None,214.84192060001078,None,214.84192060001078,None,215.53911149999476,None,215.53911149999476,216.03924840001855,,,,,,,,,,,,,,,,105,2022-04-29_16h52.03.675,FishGame,2022.1.1,60.03669442048244,
,31,넌 익살스러워,3,Orange,A,4.708333333333334,4.833333333333333,ScrollDown,ScrollUp,Orange.png,1,Neutral,Neutral,0,0,0,0,,,,,,,,,,,,,0,30,30,30,,,,,,,,,,,,,,,,,,,,,,,,,,,,,,,,,,,,,,,,,,,,,,,,,,,,,,,,,,,,,,,,,,,,,,,,,,,,,,,,,,,,,1,0.8580998000106774,216.68514419998974,None,ScrollDown,정답입니다,216.68514419998974,None,216.68514419998974,None,216.68514419998974,None,216.68514419998974,None,217.4223944999976,None,217.4223944999976,217.92263549999916,,,,,,,,,,,,,,,,105,2022-04-29_16h52.03.675,FishGame,2022.1.1,60.03669442048244,
,32,넌 이기적이야,5,Green,B,2.291666666666667,2.333333333333333,ScrollUp,ScrollDown,Green.png,1,Negative,Congruent,0,0,0,0,,,,,,,,,,,,,0,31,31,31,,,,,,,,,,,,,,,,,,,,,,,,,,,,,,,,,,,,,,,,,,,,,,,,,,,,,,,,,,,,,,,,,,,,,,,,,,,,,,,,,,,,,1.9212963084379833,0.8751421000051778,218.5587472000043,None,ScrollUp,정답입니다,218.5587472000043,None,218.5587472000043,None,218.5587472000043,None,218.5587472000043,None,219.3221610999899,None,219.3221610999899,219.82291360001545,,,,,,,,,,,,,,,,105,2022-04-29_16h52.03.675,FishGame,2022.1.1,60.03669442048244,
,33,나를 데려가줘,6,Green,B,0,0,ScrollDown,ScrollUp,Green.png,1,NonTarget,NonTarget,0,0,0,0,,,,,,,,,,,,,0,32,32,32,,,,,,,,,,,,,,,,,,,,,,,,,,,,,,,,,,,,,,,,,,,,,,,,,,,,,,,,,,,,,,,,,,,,,,,,,,,,,,,,,,,,,1,1.1317820000112988,220.45313100001658,None,ScrollDown,정답입니다,220.45313100001658,None,220.45313100001658,None,220.45313100001658,None,220.45313100001658,None,221.48454540001694,None,221.48454540001694,221.98910720000276,,,,,,,,,,,,,,,,105,2022-04-29_16h52.03.675,FishGame,2022.1.1,60.03669442048244,
,34,넌 기회주의자야,5,Orange,A,2.875,2.133333333333333,ScrollDown,ScrollUp,Orange.png,1,Negative,Incongruent,0,0,0,0,,,,,,,,,,,,,0,33,33,33,,,,,,,,,,,,,,,,,,,,,,,,,,,,,,,,,,,,,,,,,,,,,,,,,,,,,,,,,,,,,,,,,,,,,,,,,,,,,,,,,,,,,1.0848765472571056,0.866500999982236,222.6371682000172,None,ScrollDown,정답입니다,222.6371682000172,None,222.6371682000172,None,222.6371682000172,None,222.6371682000172,None,223.37678739998955,None,223.37678739998955,223.8896345999965,,,,,,,,,,,,,,,,105,2022-04-29_16h52.03.675,FishGame,2022.1.1,60.03669442048244,
,1,넌 미성숙해,4,Orange,A,3,3.2,ScrollDown,ScrollUp,Orange.png,2,Negative,Incongruent,0,0,0,0,,,,,,,,,,,,,,,,,0,0,0,0,,,,,,,,,,,,,,,,,,,,,,,,,,,,,,,,,,,,,,,,256.1568358000077,257.65688120000414,257.69048509999993,258.6405797000043,258.690731700015,259.64055189999635,259.64055189999635,None,,,,,,,,,,,,,,,,,,,,,,,,,,,,,,,,,,1,1.2099878000153694,260.80308790001436,None,ScrollDown,정답입니다,260.80308790001436,None,260.80308790001436,None,260.80308790001436,None,260.80308790001436,None,261.84477679998963,None,261.84477679998963,262.35690040001646,224.3893927000172,None,224.3893927000172,None,0.108333334,-0.09907407,1,0,0,0.01619120000395924,None,254.39065250000567,None,,,105,2022-04-29_16h52.03.675,FishGame,2022.1.1,60.03669442048244,
,2,넌 반사회적이야,5,Green,B,2.416666666666667,2.033333333333333,ScrollUp,ScrollDown,Green.png,2,Negative,Congruent,0,0,0,0,,,,,,,,,,,,,,,,,0,1,1,1,,,,,,,,,,,,,,,,,,,,,,,,,,,,,,,,,,,,,,,,,,,,,,,,,,,,,,,,,,,,,,,,,,,,,,,,,,,,,,,,,2,1.0323879000206944,262.99204350000946,None,ScrollUp,정답입니다,262.99204350000946,None,262.99204350000946,None,262.99204350000946,None,262.99204350000946,None,263.9114802000113,None,263.9114802000113,264.42368910001824,,,,,,,,,,,,,,,,105,2022-04-29_16h52.03.675,FishGame,2022.1.1,60.03669442048244,
,3,넌 유능해,2,Orange,A,6.208333333333333,4.433333333333334,ScrollDown,ScrollUp,Orange.png,2,Positive,Congruent,0,0,0,0,,,,,,,,,,,,,,,,,0,2,2,2,,,,,,,,,,,,,,,,,,,,,,,,,,,,,,,,,,,,,,,,,,,,,,,,,,,,,,,,,,,,,,,,,,,,,,,,,,,,,,,,,1.0370370149612427,0.9241776000126265,265.0760625000112,None,ScrollDown,정답입니다,265.0760625000112,None,265.0760625000112,None,265.0760625000112,None,265.0760625000112,None,265.87385500001255,None,265.87385500001255,266.37344670001767,,,,,,,,,,,,,,,,105,2022-04-29_16h52.03.675,FishGame,2022.1.1,60.03669442048244,
,4,넌 능숙해,2,Green,B,5.666666666666667,4.733333333333333,ScrollUp,ScrollDown,Green.png,2,Positive,Incongruent,0,0,0,0,,,,,,,,,,,,,,,,,0,3,3,3,,,,,,,,,,,,,,,,,,,,,,,,,,,,,,,,,,,,,,,,,,,,,,,,,,,,,,,,,,,,,,,,,,,,,,,,,,,,,,,,,1.9876543084780376,0.9537980000022799,267.0028978000046,None,ScrollUp,정답입니다,267.0028978000046,None,267.0028978000046,None,267.0028978000046,None,267.0028978000046,None,267.85373639999307,None,267.85373639999307,268.3568726000085,,,,,,,,,,,,,,,,105,2022-04-29_16h52.03.675,FishGame,2022.1.1,60.03669442048244,
,5,넌 진부해,4,Green,B,2.458333333333333,3.166666666666667,ScrollUp,ScrollDown,Green.png,2,Negative,Congruent,0,0,0,0,,,,,,,,,,,,,,,,,0,4,4,4,,,,,,,,,,,,,,,,,,,,,,,,,,,,,,,,,,,,,,,,,,,,,,,,,,,,,,,,,,,,,,,,,,,,,,,,,,,,,,,,,2,0.8668285000021569,268.99438190000365,None,ScrollUp,정답입니다,268.99438190000365,None,268.99438190000365,None,268.99438190000365,None,268.99438190000365,None,269.75378349999664,None,269.75378349999664,270.25731220000307,,,,,,,,,,,,,,,,105,2022-04-29_16h52.03.675,FishGame,2022.1.1,60.03669442048244,
,6,나를 보내줘,6,Orange,A,0,0,ScrollUp,ScrollDown,Orange.png,2,NonTarget,NonTarget,0,0,0,0,,,,,,,,,,,,,,,,,0,5,5,5,,,,,,,,,,,,,,,,,,,,,,,,,,,,,,,,,,,,,,,,,,,,,,,,,,,,,,,,,,,,,,,,,,,,,,,,,,,,,,,,,1,0.810723800008418,270.888531900011,None,ScrollDown,오답입니다,270.888531900011,None,270.888531900011,None,270.888531900011,None,270.888531900011,None,271.5900393000047,None,271.5900393000047,272.09060530000716,,,,,,,,,,,,,,,,105,2022-04-29_16h52.03.675,FishGame,2022.1.1,60.03669442048244,
,7,넌 엄격해,3,Orange,A,4.166666666666666,4.1,ScrollDown,ScrollUp,Orange.png,2,Neutral,Neutral,0,0,0,0,,,,,,,,,,,,,,,,,0,6,6,6,,,,,,,,,,,,,,,,,,,,,,,,,,,,,,,,,,,,,,,,,,,,,,,,,,,,,,,,,,,,,,,,,,,,,,,,,,,,,,,,,1,0.9376900999923237,272.7327903000114,None,ScrollDown,정답입니다,272.7327903000114,None,272.7327903000114,None,272.7327903000114,None,272.7327903000114,None,273.54919459999655,None,273.54919459999655,274.05766120000044,,,,,,,,,,,,,,,,105,2022-04-29_16h52.03.675,FishGame,2022.1.1,60.03669442048244,
,8,나를 보내줘,6,Orange,A,0,0,ScrollUp,ScrollDown,Orange.png,2,NonTarget,NonTarget,0,0,0,0,,,,,,,,,,,,,,,,,0,7,7,7,,,,,,,,,,,,,,,,,,,,,,,,,,,,,,,,,,,,,,,,,,,,,,,,,,,,,,,,,,,,,,,,,,,,,,,,,,,,,,,,,1.9722222189108531,1.0221943999931682,274.6943758999987,None,ScrollUp,정답입니다,274.6943758999987,None,274.6943758999987,None,274.6943758999987,None,274.6943758999987,None,275.6067761000013,None,275.6067761000013,276.1074244999909,,,,,,,,,,,,,,,,105,2022-04-29_16h52.03.675,FishGame,2022.1.1,60.03669442048244,
,9,넌 대담해,3,Green,B,4.875,4.866666666666666,ScrollUp,ScrollDown,Green.png,2,Neutral,Neutral,0,0,0,0,,,,,,,,,,,,,,,,,0,8,8,8,,,,,,,,,,,,,,,,,,,,,,,,,,,,,,,,,,,,,,,,,,,,,,,,,,,,,,,,,,,,,,,,,,,,,,,,,,,,,,,,,1.6913580298423767,1.2653319999808446,276.7432173000125,None,ScrollUp,정답입니다,276.7432173000125,None,276.7432173000125,None,276.7432173000125,None,276.7432173000125,None,277.8951165000035,None,277.8951165000035,278.40760279999813,,,,,,,,,,,,,,,,105,2022-04-29_16h52.03.675,FishGame,2022.1.1,60.03669442048244,
,10,넌 꾸준해,1,Orange,A,5.916666666666668,5.8,ScrollDown,ScrollUp,Orange.png,2,Positive,Congruent,0,0,0,0,,,,,,,,,,,,,,,,,0,9,9,9,,,,,,,,,,,,,,,,,,,,,,,,,,,,,,,,,,,,,,,,,,,,,,,,,,,,,,,,,,,,,,,,,,,,,,,,,,,,,,,,,1.1342592686414719,0.8167256999877281,279.0568886999972,None,ScrollDown,정답입니다,279.0568886999972,None,279.0568886999972,None,279.0568886999972,None,279.0568886999972,None,279.74494639999466,None,279.74494639999466,280.2571445000067,,,,,,,,,,,,,,,,105,2022-04-29_16h52.03.675,FishGame,2022.1.1,60.03669442048244,
,11,나를 데려가줘,6,Green,B,0,0,ScrollDown,ScrollUp,Green.png,2,NonTarget,NonTarget,0,0,0,0,,,,,,,,,,,,,,,,,0,10,10,10,,,,,,,,,,,,,,,,,,,,,,,,,,,,,,,,,,,,,,,,,,,,,,,,,,,,,,,,,,,,,,,,,,,,,,,,,,,,,,,,,1.1435185273488362,0.9655614999937825,280.8868400999927,None,ScrollDown,정답입니다,280.8868400999927,None,280.8868400999927,None,280.8868400999927,None,280.8868400999927,None,281.7447377000062,None,281.7447377000062,282.25729490001686,,,,,,,,,,,,,,,,105,2022-04-29_16h52.03.675,FishGame,2022.1.1,60.03669442048244,
,12,넌 독선적이야,5,Orange,A,2.458333333333333,1.933333333333333,ScrollDown,ScrollUp,Orange.png,2,Negative,Incongruent,0,0,0,0,,,,,,,,,,,,,,,,,0,11,11,11,,,,,,,,,,,,,,,,,,,,,,,,,,,,,,,,,,,,,,,,,,,,,,,,,,,,,,,,,,,,,,,,,,,,,,,,,,,,,,,,,1,0.8702196999802254,282.90196670001023,None,ScrollDown,정답입니다,282.90196670001023,None,282.90196670001023,None,282.90196670001023,None,282.90196670001023,None,283.6569002000033,None,283.6569002000033,284.1574313000019,,,,,,,,,,,,,,,,105,2022-04-29_16h52.03.675,FishGame,2022.1.1,60.03669442048244,
,13,나를 보내줘,6,Orange,A,0,0,ScrollUp,ScrollDown,Orange.png,2,NonTarget,NonTarget,0,0,0,0,,,,,,,,,,,,,,,,,0,12,12,12,,,,,,,,,,,,,,,,,,,,,,,,,,,,,,,,,,,,,,,,,,,,,,,,,,,,,,,,,,,,,,,,,,,,,,,,,,,,,,,,,1.9675925771395366,0.891442400024971,284.79316090000793,None,ScrollUp,정답입니다,284.79316090000793,None,284.79316090000793,None,284.79316090000793,None,284.79316090000793,None,285.57381339999847,None,285.57381339999847,286.07450250000693,,,,,,,,,,,,,,,,105,2022-04-29_16h52.03.675,FishGame,2022.1.1,60.03669442048244,
,14,넌 책임감있어,1,Green,B,6.347826086956522,6,ScrollUp,ScrollDown,Green.png,2,Positive,Incongruent,0,0,0,0,,,,,,,,,,,,,,,,,0,13,13,13,,,,,,,,,,,,,,,,,,,,,,,,,,,,,,,,,,,,,,,,,,,,,,,,,,,,,,,,,,,,,,,,,,,,,,,,,,,,,,,,,1.679012343287468,0.9911064000043552,286.71256499999436,None,ScrollUp,정답입니다,286.71256499999436,None,286.71256499999436,None,286.71256499999436,None,286.71256499999436,None,287.59065990001545,None,287.59065990001545,288.09092980000423,,,,,,,,,,,,,,,,105,2022-04-29_16h52.03.675,FishGame,2022.1.1,60.03669442048244,
,15,넌 문학적이야,3,Orange,A,4.708333333333334,4.333333333333333,ScrollDown,ScrollUp,Orange.png,2,Neutral,Neutral,0,0,0,0,,,,,,,,,,,,,,,,,0,14,14,14,,,,,,,,,,,,,,,,,,,,,,,,,,,,,,,,,,,,,,,,,,,,,,,,,,,,,,,,,,,,,,,,,,,,,,,,,,,,,,,,,1.2515432039896646,0.9707886999822222,288.7363644000143,None,ScrollDown,정답입니다,288.7363644000143,None,288.7363644000143,None,288.7363644000143,None,288.7363644000143,None,289.5874875000154,None,289.5874875000154,290.090697800013,,,,,,,,,,,,,,,,105,2022-04-29_16h52.03.675,FishGame,2022.1.1,60.03669442048244,
,16,넌 재미있어,1,Green,B,5.875,5.7,ScrollUp,ScrollDown,Green.png,2,Positive,Incongruent,0,0,0,0,,,,,,,,,,,,,,,,,0,15,15,15,,,,,,,,,,,,,,,,,,,,,,,,,,,,,,,,,,,,,,,,,,,,,,,,,,,,,,,,,,,,,,,,,,,,,,,,,,,,,,,,,1.7638888855775197,0.8167255999869667,290.72067640000023,None,ScrollUp,정답입니다,290.72067640000023,None,290.72067640000023,None,290.72067640000023,None,290.72067640000023,None,291.42841049999697,None,291.42841049999697,291.9413829999976,,,,,,,,,,,,,,,,105,2022-04-29_16h52.03.675,FishGame,2022.1.1,60.03669442048244,
,17,나를 데려가줘,6,Green,B,0,0,ScrollDown,ScrollUp,Green.png,2,NonTarget,NonTarget,0,0,0,0,,,,,,,,,,,,,,,,,0,16,16,16,,,,,,,,,,,,,,,,,,,,,,,,,,,,,,,,,,,,,,,,,,,,,,,,,,,,,,,,,,,,,,,,,,,,,,,,,,,,,,,,,1.7253086368242898,0.9325587000057567,292.57442280001123,None,ScrollUp,오답입니다,292.57442280001123,None,292.57442280001123,None,292.57442280001123,None,292.57442280001123,None,293.39877500000875,None,293.39877500000875,293.9068663000071,,,,,,,,,,,,,,,,105,2022-04-29_16h52.03.675,FishGame,2022.1.1,60.03669442048244,
,18,넌 협력적이야,1,Orange,A,5.625,5.633333333333334,ScrollDown,ScrollUp,Orange.png,2,Positive,Congruent,0,0,0,0,,,,,,,,,,,,,,,,,0,17,17,17,,,,,,,,,,,,,,,,,,,,,,,,,,,,,,,,,,,,,,,,,,,,,,,,,,,,,,,,,,,,,,,,,,,,,,,,,,,,,,,,,1.0910493781169255,0.873890000017127,294.5503560999932,None,ScrollDown,정답입니다,294.5503560999932,None,294.5503560999932,None,294.5503560999932,None,294.5503560999932,None,295.3015985999955,None,295.3015985999955,295.8074892000004,,,,,,,,,,,,,,,,105,2022-04-29_16h52.03.675,FishGame,2022.1.1,60.03669442048244,
,19,넌 평범해,3,Green,B,4.333333333333332,4.233333333333333,ScrollUp,ScrollDown,Green.png,2,Neutral,Neutral,0,0,0,0,,,,,,,,,,,,,,,,,0,18,18,18,,,,,,,,,,,,,,,,,,,,,,,,,,,,,,,,,,,,,,,,,,,,,,,,,,,,,,,,,,,,,,,,,,,,,,,,,,,,,,,,,1.7824074029922485,1.0714225999836344,296.44879789999686,None,ScrollUp,정답입니다,296.44879789999686,None,296.44879789999686,None,296.44879789999686,None,296.44879789999686,None,297.4038319000101,None,297.4038319000101,297.9073481000087,,,,,,,,,,,,,,,,105,2022-04-29_16h52.03.675,FishGame,2022.1.1,60.03669442048244,
,20,넌 오만해,5,Orange,A,2.333333333333333,2,ScrollDown,ScrollUp,Orange.png,2,Negative,Incongruent,0,0,0,0,,,,,,,,,,,,,,,,,0,19,19,19,,,,,,,,,,,,,,,,,,,,,,,,,,,,,,,,,,,,,,,,,,,,,,,,,,,,,,,,,,,,,,,,,,,,,,,,,,,,,,,,,1.248456800977389,1.0571868999977596,298.5443490000034,None,ScrollDown,정답입니다,298.5443490000034,None,298.5443490000034,None,298.5443490000034,None,298.5443490000034,None,299.49052950000623,None,299.49052950000623,299.9909624000138,,,,,,,,,,,,,,,,105,2022-04-29_16h52.03.675,FishGame,2022.1.1,60.03669442048244,
,21,넌 운이없어,4,Green,B,3,3.466666666666667,ScrollUp,ScrollDown,Green.png,2,Negative,Congruent,0,0,0,0,,,,,,,,,,,,,,,,,0,20,20,20,,,,,,,,,,,,,,,,,,,,,,,,,,,,,,,,,,,,,,,,,,,,,,,,,,,,,,,,,,,,,,,,,,,,,,,,,,,,,,,,,1.8765432039896648,0.9897314999834634,300.6269999000069,None,ScrollUp,정답입니다,300.6269999000069,None,300.6269999000069,None,300.6269999000069,None,300.6269999000069,None,301.50749029999133,None,301.50749029999133,302.0079492999939,,,,,,,,,,,,,,,,105,2022-04-29_16h52.03.675,FishGame,2022.1.1,60.03669442048244,
,22,넌 창조적이야,2,Green,B,6.125,4.633333333333334,ScrollUp,ScrollDown,Green.png,2,Positive,Incongruent,0,0,0,0,,,,,,,,,,,,,,,,,0,21,21,21,,,,,,,,,,,,,,,,,,,,,,,,,,,,,,,,,,,,,,,,,,,,,,,,,,,,,,,,,,,,,,,,,,,,,,,,,,,,,,,,,1.7608024577299755,1.0148503999807872,302.6513433000073,None,ScrollUp,정답입니다,302.6513433000073,None,302.6513433000073,None,302.6513433000073,None,302.6513433000073,None,303.5454515000165,None,303.5454515000165,304.0577915000031,,,,,,,,,,,,,,,,105,2022-04-29_16h52.03.675,FishGame,2022.1.1,60.03669442048244,
,23,나를 보내줘,6,Orange,A,0,0,ScrollUp,ScrollDown,Orange.png,2,NonTarget,NonTarget,0,0,0,0,,,,,,,,,,,,,,,,,0,22,22,22,,,,,,,,,,,,,,,,,,,,,,,,,,,,,,,,,,,,,,,,,,,,,,,,,,,,,,,,,,,,,,,,,,,,,,,,,,,,,,,,,1.0231481393178303,1.0067563999909908,304.69627590000164,None,ScrollDown,오답입니다,304.69627590000164,None,304.69627590000164,None,304.69627590000164,None,304.69627590000164,None,305.59060170000885,None,305.59060170000885,306.0913770000043,,,,,,,,,,,,,,,,105,2022-04-29_16h52.03.675,FishGame,2022.1.1,60.03669442048244,
,24,넌 통찰력있어,2,Orange,A,6.5,4.8,ScrollDown,ScrollUp,Orange.png,2,Positive,Congruent,0,0,0,0,,,,,,,,,,,,,,,,,0,23,23,23,,,,,,,,,,,,,,,,,,,,,,,,,,,,,,,,,,,,,,,,,,,,,,,,,,,,,,,,,,,,,,,,,,,,,,,,,,,,,,,,,1,3.7507851000118535,306.73651059999247,None,ScrollDown,정답입니다,306.73651059999247,None,306.73651059999247,None,306.73651059999247,None,306.73651059999247,None,310.36294869999983,None,310.36294869999983,310.8745254999958,,,,,,,,,,,,,,,,105,2022-04-29_16h52.03.675,FishGame,2022.1.1,60.03669442048244,
,25,넌 경솔해,5,Green,B,2.458333333333333,2.266666666666667,ScrollUp,ScrollDown,Green.png,2,Negative,Congruent,0,0,0,0,,,,,,,,,,,,,,,,,0,24,24,24,,,,,,,,,,,,,,,,,,,,,,,,,,,,,,,,,,,,,,,,,,,,,,,,,,,,,,,,,,,,,,,,,,,,,,,,,,,,,,,,,1.9228395223617554,1.0280745000054594,311.51180999999633,None,ScrollUp,정답입니다,311.51180999999633,None,311.51180999999633,None,311.51180999999633,None,311.51180999999633,None,312.428367000015,None,312.428367000015,312.9416756000137,,,,,,,,,,,,,,,,105,2022-04-29_16h52.03.675,FishGame,2022.1.1,60.03669442048244,
,26,넌 초조해,4,Orange,A,2.916666666666667,3.133333333333333,ScrollDown,ScrollUp,Orange.png,2,Negative,Incongruent,0,0,0,0,,,,,,,,,,,,,,,,,0,25,25,25,,,,,,,,,,,,,,,,,,,,,,,,,,,,,,,,,,,,,,,,,,,,,,,,,,,,,,,,,,,,,,,,,,,,,,,,,,,,,,,,,1.162037044763565,0.9106094999879133,313.5754976000171,None,ScrollDown,정답입니다,313.5754976000171,None,313.5754976000171,None,313.5754976000171,None,313.5754976000171,None,314.3764227000065,None,314.3764227000065,314.8912214000011,,,,,,,,,,,,,,,,105,2022-04-29_16h52.03.675,FishGame,2022.1.1,60.03669442048244,
,27,넌 무관심해,4,Green,B,2.833333333333333,2.9,ScrollUp,ScrollDown,Green.png,2,Negative,Congruent,0,0,0,0,,,,,,,,,,,,,,,,,0,26,26,26,,,,,,,,,,,,,,,,,,,,,,,,,,,,,,,,,,,,,,,,,,,,,,,,,,,,,,,,,,,,,,,,,,,,,,,,,,,,,,,,,1.939814825852712,0.9212922000151593,315.5278949000058,None,ScrollUp,정답입니다,315.5278949000058,None,315.5278949000058,None,315.5278949000058,None,315.5278949000058,None,316.33800540000084,None,316.33800540000084,316.84154839999974,,,,,,,,,,,,,,,,105,2022-04-29_16h52.03.675,FishGame,2022.1.1,60.03669442048244,
,28,넌 감성적이야,3,Green,B,4.125,4.166666666666667,ScrollUp,ScrollDown,Green.png,2,Neutral,Neutral,0,0,0,0,,,,,,,,,,,,,,,,,0,27,27,27,,,,,,,,,,,,,,,,,,,,,,,,,,,,,,,,,,,,,,,,,,,,,,,,,,,,,,,,,,,,,,,,,,,,,,,,,,,,,,,,,1.7561728407939274,0.933116300002439,317.471833299991,None,ScrollUp,정답입니다,317.471833299991,None,317.471833299991,None,317.471833299991,None,317.471833299991,None,318.2959935000108,None,318.2959935000108,318.8081524000154,,,,,,,,,,,,,,,,105,2022-04-29_16h52.03.675,FishGame,2022.1.1,60.03669442048244,
,29,넌 배려심있어,1,Orange,A,6.083333333333333,5.5,ScrollDown,ScrollUp,Orange.png,2,Positive,Congruent,0,0,0,0,,,,,,,,,,,,,,,,,0,28,28,28,,,,,,,,,,,,,,,,,,,,,,,,,,,,,,,,,,,,,,,,,,,,,,,,,,,,,,,,,,,,,,,,,,,,,,,,,,,,,,,,,1.1851851791143417,0.9663323000131641,319.4476731000177,None,ScrollDown,정답입니다,319.4476731000177,None,319.4476731000177,None,319.4476731000177,None,319.4476731000177,None,320.2956666999962,None,320.2956666999962,320.80819489998976,,,,,,,,,,,,,,,,105,2022-04-29_16h52.03.675,FishGame,2022.1.1,60.03669442048244,
,30,넌 숨김없어,3,Orange,A,4.5,4.933333333333334,ScrollDown,ScrollUp,Orange.png,2,Neutral,Neutral,0,0,0,0,,,,,,,,,,,,,,,,,0,29,29,29,,,,,,,,,,,,,,,,,,,,,,,,,,,,,,,,,,,,,,,,,,,,,,,,,,,,,,,,,,,,,,,,,,,,,,,,,,,,,,,,,1.2422839452823002,0.8229088000080083,321.45543239999097,None,ScrollDown,정답입니다,321.45543239999097,None,321.45543239999097,None,321.45543239999097,None,321.45543239999097,None,322.15716780000366,None,322.15716780000366,322.65806539999903,,,,,,,,,,,,,,,,105,2022-04-29_16h52.03.675,FishGame,2022.1.1,60.03669442048244,
,31,넌 훌륭해,2,Green,B,5.916666666666667,4.033333333333333,ScrollUp,ScrollDown,Green.png,2,Positive,Incongruent,0,0,0,0,,,,,,,,,,,,,,,,,0,30,30,30,,,,,,,,,,,,,,,,,,,,,,,,,,,,,,,,,,,,,,,,,,,,,,,,,,,,,,,,,,,,,,,,,,,,,,,,,,,,,,,,,1.9351851840813954,0.9316692000138573,323.29580580000766,None,ScrollUp,정답입니다,323.29580580000766,None,323.29580580000766,None,323.29580580000766,None,323.29580580000766,None,324.1126382999937,None,324.1126382999937,324.6245429000119,,,,,,,,,,,,,,,,105,2022-04-29_16h52.03.675,FishGame,2022.1.1,60.03669442048244,
,32,넌 슬기로워,2,Orange,A,6.166666666666667,4.1,ScrollDown,ScrollUp,Orange.png,2,Positive,Congruent,0,0,0,0,,,,,,,,,,,,,,,,,0,31,31,31,,,,,,,,,,,,,,,,,,,,,,,,,,,,,,,,,,,,,,,,,,,,,,,,,,,,,,,,,,,,,,,,,,,,,,,,,,,,,,,,,1.1095678955316544,1.016468799993163,325.2659505000047,None,ScrollDown,정답입니다,325.2659505000047,None,325.2659505000047,None,325.2659505000047,None,325.2659505000047,None,326.16244770001504,None,326.16244770001504,326.67438529999345,,,,,,,,,,,,,,,,105,2022-04-29_16h52.03.675,FishGame,2022.1.1,60.03669442048244,
,33,넌 냉혹해,5,Orange,A,2.583333333333333,2.1,ScrollDown,ScrollUp,Orange.png,2,Negative,Incongruent,0,0,0,0,,,,,,,,,,,,,,,,,0,32,32,32,,,,,,,,,,,,,,,,,,,,,,,,,,,,,,,,,,,,,,,,,,,,,,,,,,,,,,,,,,,,,,,,,,,,,,,,,,,,,,,,,1.0293209950129192,0.9180186000012327,327.3191353000002,None,ScrollDown,정답입니다,327.3191353000002,None,327.3191353000002,None,327.3191353000002,None,327.3191353000002,None,328.1211297000118,None,328.1211297000118,328.62494549999246,,,,,,,,,,,,,,,,105,2022-04-29_16h52.03.675,FishGame,2022.1.1,60.03669442048244,
,34,나를 데려가줘,6,Green,B,0,0,ScrollDown,ScrollUp,Green.png,2,NonTarget,NonTarget,0,0,0,0,,,,,,,,,,,,,,,,,0,33,33,33,,,,,,,,,,,,,,,,,,,,,,,,,,,,,,,,,,,,,,,,,,,,,,,,,,,,,,,,,,,,,,,,,,,,,,,,,,,,,,,,,1,1.1395537000207696,329.2577299000113,None,ScrollDown,정답입니다,329.2577299000113,None,329.2577299000113,None,329.2577299000113,None,329.2577299000113,None,330.29155650001485,None,330.29155650001485,330.7916957999987,,,,,,,,,,,,,,,,105,2022-04-29_16h52.03.675,FishGame,2022.1.1,60.03669442048244,
,35,넌 편파적이야,5,Green,B,2.125,2,ScrollUp,ScrollDown,Green.png,2,Negative,Congruent,0,0,0,0,,,,,,,,,,,,,,,,,0,34,34,34,,,,,,,,,,,,,,,,,,,,,,,,,,,,,,,,,,,,,,,,,,,,,,,,,,,,,,,,,,,,,,,,,,,,,,,,,,,,,,,,,1.9027777661879857,0.9518113999802154,331.42902320000576,None,ScrollUp,정답입니다,331.42902320000576,None,331.42902320000576,None,331.42902320000576,None,331.42902320000576,None,332.2718576999905,None,332.2718576999905,332.7750243000046,,,,,,,,,,,,,,,,105,2022-04-29_16h52.03.675,FishGame,2022.1.1,60.03669442048244,
,36,넌 슬퍼,4,Orange,A,2.583333333333333,3.066666666666667,ScrollDown,ScrollUp,Orange.png,2,Negative,Incongruent,0,0,0,0,,,,,,,,,,,,,,,,,0,35,35,35,,,,,,,,,,,,,,,,,,,,,,,,,,,,,,,,,,,,,,,,,,,,,,,,,,,,,,,,,,,,,,,,,,,,,,,,,,,,,,,,,1.1990740795930226,0.8304827999963891,333.4118950999982,None,ScrollDown,정답입니다,333.4118950999982,None,333.4118950999982,None,333.4118950999982,None,333.4118950999982,None,334.12887069999124,None,334.12887069999124,334.64215759999934,,,,,,,,,,,,,,,,105,2022-04-29_16h52.03.675,FishGame,2022.1.1,60.03669442048244,
,37,나를 데려가줘,6,Green,B,0,0,ScrollDown,ScrollUp,Green.png,2,NonTarget,NonTarget,0,0,0,0,,,,,,,,,,,,,,,,,0,36,36,36,,,,,,,,,,,,,,,,,,,,,,,,,,,,,,,,,,,,,,,,,,,,,,,,,,,,,,,,,,,,,,,,,,,,,,,,,,,,,,,,,1,0.8354223000060301,335.279125800007,None,ScrollDown,정답입니다,335.279125800007,None,335.279125800007,None,335.279125800007,None,335.279125800007,None,336.0050889000122,None,336.0050889000122,336.5084440000064,,,,,,,,,,,,,,,,105,2022-04-29_16h52.03.675,FishGame,2022.1.1,60.03669442048244,
,38,넌 친절해,1,Green,B,6.041666666666667,5.533333333333333,ScrollUp,ScrollDown,Green.png,2,Positive,Incongruent,0,0,0,0,,,,,,,,,,,,,,,,,0,37,37,37,,,,,,,,,,,,,,,,,,,,,,,,,,,,,,,,,,,,,,,,,,,,,,,,,,,,,,,,,,,,,,,,,,,,,,,,,,,,,,,,,1.9367283980051677,1.2764753999945242,337.147810800001,None,ScrollUp,정답입니다,337.147810800001,None,337.147810800001,None,337.147810800001,None,337.147810800001,None,338.3087993999943,None,338.3087993999943,338.8084385000111,,,,,,,,,,,,,,,,105,2022-04-29_16h52.03.675,FishGame,2022.1.1,60.03669442048244,
,1,넌 엉성해,4,Orange,A,3,3.3,ScrollDown,ScrollUp,Orange.png,3,Negative,Incongruent,0,0,0,0,,,,,,,,,,,,,,,,,,,,,0,0,0,0,,,,,,,,,,,,,,,,,,,,,,,,,,,,,,,,,,,,370.70972909999546,372.2092185000074,372.24294160000863,373.19276830001036,373.24244659999385,374.1924588000111,374.1924588000111,None,,,,,,,,,,,,,,,,,,,,,,,,,,,,,,,,,,1,1.118853299994953,375.3538928999915,None,ScrollDown,정답입니다,375.3538928999915,None,375.3538928999915,None,375.3538928999915,None,375.3538928999915,None,376.3092739999993,None,376.3092739999993,376.8091190000123,339.30831700001727,None,339.30831700001727,None,0.033333335,-0.094444446,1,0,0,0.015716599998995662,None,369.30847000001813,None,,,105,2022-04-29_16h52.03.675,FishGame,2022.1.1,60.03669442048244,
,2,나를 보내줘,6,Orange,A,0,0,ScrollUp,ScrollDown,Orange.png,3,NonTarget,NonTarget,0,0,0,0,,,,,,,,,,,,,,,,,,,,,0,1,1,1,,,,,,,,,,,,,,,,,,,,,,,,,,,,,,,,,,,,,,,,,,,,,,,,,,,,,,,,,,,,,,,,,,,,,,,,,,,,,1.9953703780968983,0.9477607999870088,377.44285890000174,None,ScrollUp,정답입니다,377.44285890000174,None,377.44285890000174,None,377.44285890000174,None,377.44285890000174,None,378.28034850000404,None,378.28034850000404,378.79317900000024,,,,,,,,,,,,,,,,105,2022-04-29_16h52.03.675,FishGame,2022.1.1,60.03669442048244,
,3,넌 활발해,1,Green,B,5.666666666666667,5.6,ScrollUp,ScrollDown,Green.png,3,Positive,Incongruent,0,0,0,0,,,,,,,,,,,,,,,,,,,,,0,2,2,2,,,,,,,,,,,,,,,,,,,,,,,,,,,,,,,,,,,,,,,,,,,,,,,,,,,,,,,,,,,,,,,,,,,,,,,,,,,,,1.7422839403152466,1.0747707999835256,379.4359340000083,None,ScrollUp,정답입니다,379.4359340000083,None,379.4359340000083,None,379.4359340000083,None,379.4359340000083,None,380.39217780000763,None,380.39217780000763,380.8922229000018,,,,,,,,,,,,,,,,105,2022-04-29_16h52.03.675,FishGame,2022.1.1,60.03669442048244,
,4,넌 논리적이야,2,Orange,A,5.666666666666666,4.633333333333334,ScrollDown,ScrollUp,Orange.png,3,Positive,Congruent,0,0,0,0,,,,,,,,,,,,,,,,,,,,,0,3,3,3,,,,,,,,,,,,,,,,,,,,,,,,,,,,,,,,,,,,,,,,,,,,,,,,,,,,,,,,,,,,,,,,,,,,,,,,,,,,,1.3611111069718995,0.7431720999884419,381.5339452000044,None,ScrollDown,정답입니다,381.5339452000044,None,381.5339452000044,None,381.5339452000044,None,381.5339452000044,None,382.1618385000038,None,382.1618385000038,382.6764164000051,,,,,,,,,,,,,,,,105,2022-04-29_16h52.03.675,FishGame,2022.1.1,60.03669442048244,
,5,넌 과묵해,3,Orange,A,3.875,4.4,ScrollDown,ScrollUp,Orange.png,3,Neutral,Neutral,0,0,0,0,,,,,,,,,,,,,,,,,,,,,0,4,4,4,,,,,,,,,,,,,,,,,,,,,,,,,,,,,,,,,,,,,,,,,,,,,,,,,,,,,,,,,,,,,,,,,,,,,,,,,,,,,1.0586419602235158,0.7569954999780748,383.31420379999327,None,ScrollDown,정답입니다,383.31420379999327,None,383.31420379999327,None,383.31420379999327,None,383.31420379999327,None,383.95864610001445,None,383.95864610001445,384.459265100013,,,,,,,,,,,,,,,,105,2022-04-29_16h52.03.675,FishGame,2022.1.1,60.03669442048244,
,6,나를 데려가줘,6,Green,B,0,0,ScrollDown,ScrollUp,Green.png,3,NonTarget,NonTarget,0,0,0,0,,,,,,,,,,,,,,,,,,,,,0,5,5,5,,,,,,,,,,,,,,,,,,,,,,,,,,,,,,,,,,,,,,,,,,,,,,,,,,,,,,,,,,,,,,,,,,,,,,,,,,,,,1,0.8865263000188861,385.0972735999967,None,ScrollDown,정답입니다,385.0972735999967,None,385.0972735999967,None,385.0972735999967,None,385.0972735999967,None,385.8725529999938,None,385.8725529999938,386.3759907000058,,,,,,,,,,,,,,,,105,2022-04-29_16h52.03.675,FishGame,2022.1.1,60.03669442048244,
,7,넌 미숙해,4,Green,B,3,3,ScrollUp,ScrollDown,Green.png,3,Negative,Congruent,0,0,0,0,,,,,,,,,,,,,,,,,,,,,0,6,6,6,,,,,,,,,,,,,,,,,,,,,,,,,,,,,,,,,,,,,,,,,,,,,,,,,,,,,,,,,,,,,,,,,,,,,,,,,,,,,1.8765432039896648,0.7823862999794073,387.0071012999979,None,ScrollUp,정답입니다,387.0071012999979,None,387.0071012999979,None,387.0071012999979,None,387.0071012999979,None,387.6805491000123,None,387.6805491000123,388.193048599991,,,,,,,,,,,,,,,,105,2022-04-29_16h52.03.675,FishGame,2022.1.1,60.03669442048244,
,8,나를 보내줘,6,Orange,A,0,0,ScrollUp,ScrollDown,Orange.png,3,NonTarget,NonTarget,0,0,0,0,,,,,,,,,,,,,,,,,,,,,0,7,7,7,,,,,,,,,,,,,,,,,,,,,,,,,,,,,,,,,,,,,,,,,,,,,,,,,,,,,,,,,,,,,,,,,,,,,,,,,,,,,1.7700617164373398,0.9575526000116952,388.82808500001556,None,ScrollUp,정답입니다,388.82808500001556,None,388.82808500001556,None,388.82808500001556,None,388.82808500001556,None,389.6757499999949,None,389.6757499999949,390.1764952999947,,,,,,,,,,,,,,,,105,2022-04-29_16h52.03.675,FishGame,2022.1.1,60.03669442048244,
,9,넌 자신만만해,3,Green,B,4.833333333333334,4.333333333333333,ScrollUp,ScrollDown,Green.png,3,Neutral,Neutral,0,0,0,0,,,,,,,,,,,,,,,,,,,,,0,8,8,8,,,,,,,,,,,,,,,,,,,,,,,,,,,,,,,,,,,,,,,,,,,,,,,,,,,,,,,,,,,,,,,,,,,,,,,,,,,,,1.115740751226743,0.7416847000131384,390.8032409000152,None,ScrollDown,오답입니다,390.8032409000152,None,390.8032409000152,None,390.8032409000152,None,390.8032409000152,None,391.4426406999992,None,391.4426406999992,391.9435882999969,,,,,,,,,,,,,,,,105,2022-04-29_16h52.03.675,FishGame,2022.1.1,60.03669442048244,
,10,넌 탐욕스러워,5,Orange,A,2.25,2.1,ScrollDown,ScrollUp,Orange.png,3,Negative,Incongruent,0,0,0,0,,,,,,,,,,,,,,,,,,,,,0,9,9,9,,,,,,,,,,,,,,,,,,,,,,,,,,,,,,,,,,,,,,,,,,,,,,,,,,,,,,,,,,,,,,,,,,,,,,,,,,,,,1.1759259204069774,0.905328599998029,392.5910809999914,None,ScrollDown,정답입니다,392.5910809999914,None,392.5910809999914,None,392.5910809999914,None,392.5910809999914,None,393.3681482000102,None,393.3681482000102,393.8759071000095,,,,,,,,,,,,,,,,105,2022-04-29_16h52.03.675,FishGame,2022.1.1,60.03669442048244,
,11,넌 인기있어,2,Orange,A,5.458333333333333,4.5,ScrollDown,ScrollUp,Orange.png,3,Positive,Congruent,0,0,0,0,,,,,,,,,,,,,,,,,,,,,0,10,10,10,,,,,,,,,,,,,,,,,,,,,,,,,,,,,,,,,,,,,,,,,,,,,,,,,,,,,,,,,,,,,,,,,,,,,,,,,,,,,1.1496913582086563,1.3835188000230119,394.51284169999417,None,ScrollDown,정답입니다,394.51284169999417,None,394.51284169999417,None,394.51284169999417,None,394.51284169999417,None,395.7804630000028,None,395.7804630000028,396.29331090001506,,,,,,,,,,,,,,,,105,2022-04-29_16h52.03.675,FishGame,2022.1.1,60.03669442048244,
,12,나를 데려가줘,6,Green,B,0,0,ScrollDown,ScrollUp,Green.png,3,NonTarget,NonTarget,0,0,0,0,,,,,,,,,,,,,,,,,,,,,0,11,11,11,,,,,,,,,,,,,,,,,,,,,,,,,,,,,,,,,,,,,,,,,,,,,,,,,,,,,,,,,,,,,,,,,,,,,,,,,,,,,1.0540123681227367,0.9982195000047795,396.9258728999994,None,ScrollDown,정답입니다,396.9258728999994,None,396.9258728999994,None,396.9258728999994,None,396.9258728999994,None,397.81377800001064,None,397.81377800001064,398.3262875000073,,,,,,,,,,,,,,,,105,2022-04-29_16h52.03.675,FishGame,2022.1.1,60.03669442048244,
,13,넌 뛰어나,2,Green,B,6.166666666666667,4,ScrollUp,ScrollDown,Green.png,3,Positive,Incongruent,0,0,0,0,,,,,,,,,,,,,,,,,,,,,0,12,12,12,,,,,,,,,,,,,,,,,,,,,,,,,,,,,,,,,,,,,,,,,,,,,,,,,,,,,,,,,,,,,,,,,,,,,,,,,,,,,1.9845678806304932,1.2449160999967717,398.962227800017,None,ScrollUp,정답입니다,398.962227800017,None,398.962227800017,None,398.962227800017,None,398.962227800017,None,400.0952663999924,None,400.0952663999924,400.61003770001116,,,,,,,,,,,,,,,,105,2022-04-29_16h52.03.675,FishGame,2022.1.1,60.03669442048244,
,14,넌 낙관적이야,1,Orange,A,5.75,5.8,ScrollDown,ScrollUp,Orange.png,3,Positive,Congruent,0,0,0,0,,,,,,,,,,,,,,,,,,,,,0,13,13,13,,,,,,,,,,,,,,,,,,,,,,,,,,,,,,,,,,,,,,,,,,,,,,,,,,,,,,,,,,,,,,,,,,,,,,,,,,,,,1.3425925895571709,0.6900812000094447,401.2513825999922,None,ScrollDown,정답입니다,401.2513825999922,None,401.2513825999922,None,401.2513825999922,None,401.2513825999922,None,401.8259784000111,None,401.8259784000111,402.3261625000159,,,,,,,,,,,,,,,,105,2022-04-29_16h52.03.675,FishGame,2022.1.1,60.03669442048244,
,15,넌 산만해,4,Green,B,2.695652173913043,3.033333333333333,ScrollUp,ScrollDown,Green.png,3,Negative,Congruent,0,0,0,0,,,,,,,,,,,,,,,,,,,,,0,14,14,14,,,,,,,,,,,,,,,,,,,,,,,,,,,,,,,,,,,,,,,,,,,,,,,,,,,,,,,,,,,,,,,,,,,,,,,,,,,,,1.805555562178294,1.216546500014374,402.962967200001,None,ScrollUp,정답입니다,402.962967200001,None,402.962967200001,None,402.962967200001,None,402.962967200001,None,404.0640764000127,None,404.0640764000127,404.5762875000073,,,,,,,,,,,,,,,,105,2022-04-29_16h52.03.675,FishGame,2022.1.1,60.03669442048244,
,16,나를 보내줘,6,Orange,A,0,0,ScrollUp,ScrollDown,Orange.png,3,NonTarget,NonTarget,0,0,0,0,,,,,,,,,,,,,,,,,,,,,0,15,15,15,,,,,,,,,,,,,,,,,,,,,,,,,,,,,,,,,,,,,,,,,,,,,,,,,,,,,,,,,,,,,,,,,,,,,,,,,,,,,1.9120370248953502,1.7386708999983966,405.21195729999454,None,ScrollUp,정답입니다,405.21195729999454,None,405.21195729999454,None,405.21195729999454,None,405.21195729999454,None,406.837606999994,None,406.837606999994,407.3434941000014,,,,,,,,,,,,,,,,105,2022-04-29_16h52.03.675,FishGame,2022.1.1,60.03669442048244,
,17,넌 교활해,5,Green,B,2.333333333333333,2.133333333333333,ScrollUp,ScrollDown,Green.png,3,Negative,Congruent,0,0,0,0,,,,,,,,,,,,,,,,,,,,,0,16,16,16,,,,,,,,,,,,,,,,,,,,,,,,,,,,,,,,,,,,,,,,,,,,,,,,,,,,,,,,,,,,,,,,,,,,,,,,,,,,,1.7484567960103354,1.789312400011113,407.97817240000586,None,ScrollUp,정답입니다,407.97817240000586,None,407.97817240000586,None,407.97817240000586,None,407.97817240000586,None,409.65949789999286,None,409.65949789999286,410.1596976000001,,,,,,,,,,,,,,,,105,2022-04-29_16h52.03.675,FishGame,2022.1.1,60.03669442048244,
,18,나를 보내줘,6,Orange,A,0,0,ScrollUp,ScrollDown,Orange.png,3,NonTarget,NonTarget,0,0,0,0,,,,,,,,,,,,,,,,,,,,,0,17,17,17,,,,,,,,,,,,,,,,,,,,,,,,,,,,,,,,,,,,,,,,,,,,,,,,,,,,,,,,,,,,,,,,,,,,,,,,,,,,,1.6882716019948325,1.3469329999934416,410.79582910001045,None,ScrollUp,정답입니다,410.79582910001045,None,410.79582910001045,None,410.79582910001045,None,410.79582910001045,None,412.0308850000147,None,412.0308850000147,412.5436977999925,,,,,,,,,,,,,,,,105,2022-04-29_16h52.03.675,FishGame,2022.1.1,60.03669442048244,
,19,넌 불친절해,5,Green,B,2.208333333333333,2.033333333333333,ScrollUp,ScrollDown,Green.png,3,Negative,Congruent,0,0,0,0,,,,,,,,,,,,,,,,,,,,,0,18,18,18,,,,,,,,,,,,,,,,,,,,,,,,,,,,,,,,,,,,,,,,,,,,,,,,,,,,,,,,,,,,,,,,,,,,,,,,,,,,,1.6666666691501937,0.8091246999974828,413.1797279000166,None,ScrollUp,정답입니다,413.1797279000166,None,413.1797279000166,None,413.1797279000166,None,413.1797279000166,None,413.876655,None,413.876655,414.3772986000113,,,,,,,,,,,,,,,,105,2022-04-29_16h52.03.675,FishGame,2022.1.1,60.03669442048244,
,20,넌 지적이야,2,Green,B,5.75,4.366666666666666,ScrollUp,ScrollDown,Green.png,3,Positive,Incongruent,0,0,0,0,,,,,,,,,,,,,,,,,,,,,0,19,19,19,,,,,,,,,,,,,,,,,,,,,,,,,,,,,,,,,,,,,,,,,,,,,,,,,,,,,,,,,,,,,,,,,,,,,,,,,,,,,1.6697530845801034,0.7567257000191603,415.0044104999979,None,ScrollUp,정답입니다,415.0044104999979,None,415.0044104999979,None,415.0044104999979,None,415.0044104999979,None,415.65934909999487,None,415.65934909999487,416.16002159999334,,,,,,,,,,,,,,,,105,2022-04-29_16h52.03.675,FishGame,2022.1.1,60.03669442048244,
,21,넌 우유부단해,4,Orange,A,2.666666666666667,3.166666666666667,ScrollDown,ScrollUp,Orange.png,3,Negative,Incongruent,0,0,0,0,,,,,,,,,,,,,,,,,,,,,0,20,20,20,,,,,,,,,,,,,,,,,,,,,,,,,,,,,,,,,,,,,,,,,,,,,,,,,,,,,,,,,,,,,,,,,,,,,,,,,,,,,1.2037036965290706,0.8222671000112314,416.8026996999979,None,ScrollDown,정답입니다,416.8026996999979,None,416.8026996999979,None,416.8026996999979,None,416.8026996999979,None,417.5098341999983,None,417.5098341999983,418.0102520000073,,,,,,,,,,,,,,,,105,2022-04-29_16h52.03.675,FishGame,2022.1.1,60.03669442048244,
,22,나를 데려가줘,6,Green,B,0,0,ScrollDown,ScrollUp,Green.png,3,NonTarget,NonTarget,0,0,0,0,,,,,,,,,,,,,,,,,,,,,0,21,21,21,,,,,,,,,,,,,,,,,,,,,,,,,,,,,,,,,,,,,,,,,,,,,,,,,,,,,,,,,,,,,,,,,,,,,,,,,,,,,1.180555562178294,0.8579221999971196,418.6403183999937,None,ScrollDown,정답입니다,418.6403183999937,None,418.6403183999937,None,418.6403183999937,None,418.6403183999937,None,419.39332309999736,None,419.39332309999736,419.89346469999873,,,,,,,,,,,,,,,,105,2022-04-29_16h52.03.675,FishGame,2022.1.1,60.03669442048244,
,23,넌 성실해,1,Green,B,6.041666666666666,5.7,ScrollUp,ScrollDown,Green.png,3,Positive,Incongruent,0,0,0,0,,,,,,,,,,,,,,,,,,,,,0,22,22,22,,,,,,,,,,,,,,,,,,,,,,,,,,,,,,,,,,,,,,,,,,,,,,,,,,,,,,,,,,,,,,,,,,,,,,,,,,,,,1.7500000099341075,0.9132341000076849,420.52044490000117,None,ScrollUp,정답입니다,420.52044490000117,None,420.52044490000117,None,420.52044490000117,None,420.52044490000117,None,421.3310940999945,None,421.3310940999945,421.84370180001133,,,,,,,,,,,,,,,,105,2022-04-29_16h52.03.675,FishGame,2022.1.1,60.03669442048244,
,24,넌 현실주의적이야,3,Orange,A,4.625,4.4,ScrollDown,ScrollUp,Orange.png,3,Neutral,Neutral,0,0,0,0,,,,,,,,,,,,,,,,,,,,,0,23,23,23,,,,,,,,,,,,,,,,,,,,,,,,,,,,,,,,,,,,,,,,,,,,,,,,,,,,,,,,,,,,,,,,,,,,,,,,,,,,,1.7299382785956063,0.9695880999788642,422.48456040001474,None,ScrollUp,오답입니다,422.48456040001474,None,422.48456040001474,None,422.48456040001474,None,422.48456040001474,None,423.3337942000071,None,423.3337942000071,423.8434656000172,,,,,,,,,,,,,,,,105,2022-04-29_16h52.03.675,FishGame,2022.1.1,60.03669442048244,
,25,넌 진실돼,1,Orange,A,6.625,5.566666666666666,ScrollDown,ScrollUp,Orange.png,3,Positive,Congruent,0,0,0,0,,,,,,,,,,,,,,,,,,,,,0,24,24,24,,,,,,,,,,,,,,,,,,,,,,,,,,,,,,,,,,,,,,,,,,,,,,,,,,,,,,,,,,,,,,,,,,,,,,,,,,,,,1.8163580348094304,0.8480842000280973,424.4850845000183,None,ScrollUp,오답입니다,424.4850845000183,None,424.4850845000183,None,424.4850845000183,None,424.4850845000183,None,425.21423899999354,None,425.21423899999354,425.7270203999942,,,,,,,,,,,,,,,,105,2022-04-29_16h52.03.675,FishGame,2022.1.1,60.03669442048244,
,26,넌 천진난만해,3,Green,B,4.958333333333334,4.833333333333333,ScrollUp,ScrollDown,Green.png,3,Neutral,Neutral,0,0,0,0,,,,,,,,,,,,,,,,,,,,,0,25,25,25,,,,,,,,,,,,,,,,,,,,,,,,,,,,,,,,,,,,,,,,,,,,,,,,,,,,,,,,,,,,,,,,,,,,,,,,,,,,,1.8549382835626602,0.907228900003247,426.3645574999973,None,ScrollUp,정답입니다,426.3645574999973,None,426.3645574999973,None,426.3645574999973,None,426.3645574999973,None,427.1547871000075,None,427.1547871000075,427.66027150000446,,,,,,,,,,,,,,,,105,2022-04-29_16h52.03.675,FishGame,2022.1.1,60.03669442048244,
,27,넌 교양없어,5,Orange,A,2.416666666666667,2.2,ScrollDown,ScrollUp,Orange.png,3,Negative,Incongruent,0,0,0,0,,,,,,,,,,,,,,,,,,,,,0,26,26,26,,,,,,,,,,,,,,,,,,,,,,,,,,,,,,,,,,,,,,,,,,,,,,,,,,,,,,,,,,,,,,,,,,,,,,,,,,,,,1.3395061741272607,0.6760651000076905,428.31105200000457,None,ScrollDown,정답입니다,428.31105200000457,None,428.31105200000457,None,428.31105200000457,None,428.31105200000457,None,428.86172330001136,None,428.86172330001136,429.3769927000103,,,,,,,,,,,,,,,,105,2022-04-29_16h52.03.675,FishGame,2022.1.1,60.03669442048244,
,28,나를 보내줘,6,Orange,A,0,0,ScrollUp,ScrollDown,Orange.png,3,NonTarget,NonTarget,0,0,0,0,,,,,,,,,,,,,,,,,,,,,0,27,27,27,,,,,,,,,,,,,,,,,,,,,,,,,,,,,,,,,,,,,,,,,,,,,,,,,,,,,,,,,,,,,,,,,,,,,,,,,,,,,1.7716049303611119,0.9622086999879684,430.0103875999921,None,ScrollUp,정답입니다,430.0103875999921,None,430.0103875999921,None,430.0103875999921,None,430.0103875999921,None,430.86407000001054,None,430.86407000001054,431.3764611000079,,,,,,,,,,,,,,,,105,2022-04-29_16h52.03.675,FishGame,2022.1.1,60.03669442048244,
,29,넌 엉뚱스러워,3,Orange,A,4.166666666666667,4.133333333333334,ScrollDown,ScrollUp,Orange.png,3,Neutral,Neutral,0,0,0,0,,,,,,,,,,,,,,,,,,,,,0,28,28,28,,,,,,,,,,,,,,,,,,,,,,,,,,,,,,,,,,,,,,,,,,,,,,,,,,,,,,,,,,,,,,,,,,,,,,,,,,,,,1.3317901293436685,1.2062510999967344,432.02023670001654,None,ScrollDown,정답입니다,432.02023670001654,None,432.02023670001654,None,432.02023670001654,None,432.02023670001654,None,433.11005089999526,None,433.11005089999526,433.61032279999927,,,,,,,,,,,,,,,,105,2022-04-29_16h52.03.675,FishGame,2022.1.1,60.03669442048244,
,30,넌 무지해,4,Green,B,2.541666666666667,3.066666666666667,ScrollUp,ScrollDown,Green.png,3,Negative,Congruent,0,0,0,0,,,,,,,,,,,,,,,,,,,,,0,29,29,29,,,,,,,,,,,,,,,,,,,,,,,,,,,,,,,,,,,,,,,,,,,,,,,,,,,,,,,,,,,,,,,,,,,,,,,,,,,,,1.5972222226361432,1.0767875000019558,434.2389147999929,None,ScrollUp,정답입니다,434.2389147999929,None,434.2389147999929,None,434.2389147999929,None,434.2389147999929,None,435.20995760001824,None,435.20995760001824,435.71030140001676,,,,,,,,,,,,,,,,105,2022-04-29_16h52.03.675,FishGame,2022.1.1,60.03669442048244,
,31,넌 음울해,5,Green,B,2.25,2.233333333333333,ScrollUp,ScrollDown,Green.png,3,Negative,Congruent,0,0,0,0,,,,,,,,,,,,,,,,,,,,,0,30,30,30,,,,,,,,,,,,,,,,,,,,,,,,,,,,,,,,,,,,,,,,,,,,,,,,,,,,,,,,,,,,,,,,,,,,,,,,,,,,,1.6435185223817825,1.2204694999963976,436.34835000001476,None,ScrollUp,정답입니다,436.34835000001476,None,436.34835000001476,None,436.34835000001476,None,436.34835000001476,None,437.4570484000142,None,437.4570484000142,437.9606363000057,,,,,,,,,,,,,,,,105,2022-04-29_16h52.03.675,FishGame,2022.1.1,60.03669442048244,
,32,넌 냉소적이야,5,Orange,A,2.916666666666667,2.4,ScrollDown,ScrollUp,Orange.png,3,Negative,Incongruent,0,0,0,0,,,,,,,,,,,,,,,,,,,,,0,31,31,31,,,,,,,,,,,,,,,,,,,,,,,,,,,,,,,,,,,,,,,,,,,,,,,,,,,,,,,,,,,,,,,,,,,,,,,,,,,,,1.3827160522341728,0.9506092999945395,438.5950829999929,None,ScrollDown,정답입니다,438.5950829999929,None,438.5950829999929,None,438.5950829999929,None,438.5950829999929,None,439.4312865000102,None,439.4312865000102,439.94391910001286,,,,,,,,,,,,,,,,105,2022-04-29_16h52.03.675,FishGame,2022.1.1,60.03669442048244,
,33,나를 데려가줘,6,Green,B,0,0,ScrollDown,ScrollUp,Green.png,3,NonTarget,NonTarget,0,0,0,0,,,,,,,,,,,,,,,,,,,,,0,32,32,32,,,,,,,,,,,,,,,,,,,,,,,,,,,,,,,,,,,,,,,,,,,,,,,,,,,,,,,,,,,,,,,,,,,,,,,,,,,,,1.336419758697351,1.2740661000134423,440.5763331000053,None,ScrollDown,정답입니다,440.5763331000053,None,440.5763331000053,None,440.5763331000053,None,440.5763331000053,None,441.7435960000148,None,441.7435960000148,442.24354620001395,,,,,,,,,,,,,,,,105,2022-04-29_16h52.03.675,FishGame,2022.1.1,60.03669442048244,
,34,넌 쾌활해,1,Orange,A,5.541666666666666,5.733333333333333,ScrollDown,ScrollUp,Orange.png,3,Positive,Congruent,0,0,0,0,,,,,,,,,,,,,,,,,,,,,0,33,33,33,,,,,,,,,,,,,,,,,,,,,,,,,,,,,,,,,,,,,,,,,,,,,,,,,,,,,,,,,,,,,,,,,,,,,,,,,,,,,1.5756172835826874,0.9681300999945961,442.8801000000094,None,ScrollUp,오답입니다,442.8801000000094,None,442.8801000000094,None,442.8801000000094,None,442.8801000000094,None,443.73280570001225,None,443.73280570001225,444.24394439999014,,,,,,,,,,,,,,,,105,2022-04-29_16h52.03.675,FishGame,2022.1.1,60.03669442048244,
,35,나를 보내줘,6,Orange,A,0,0,ScrollUp,ScrollDown,Orange.png,3,NonTarget,NonTarget,0,0,0,0,,,,,,,,,,,,,,,,,,,,,0,34,34,34,,,,,,,,,,,,,,,,,,,,,,,,,,,,,,,,,,,,,,,,,,,,,,,,,,,,,,,,,,,,,,,,,,,,,,,,,,,,,1.5817901206513247,0.9686033999896608,444.8827478000021,None,ScrollUp,정답입니다,444.8827478000021,None,444.8827478000021,None,444.8827478000021,None,444.8827478000021,None,445.73336579999886,None,445.73336579999886,446.24355730001116,,,,,,,,,,,,,,,,105,2022-04-29_16h52.03.675,FishGame,2022.1.1,60.03669442048244,
,36,넌 명랑해,1,Green,B,5.739130434782609,5.666666666666667,ScrollUp,ScrollDown,Green.png,3,Positive,Incongruent,0,0,0,0,,,,,,,,,,,,,,,,,,,,,0,35,35,35,,,,,,,,,,,,,,,,,,,,,,,,,,,,,,,,,,,,,,,,,,,,,,,,,,,,,,,,,,,,,,,,,,,,,,,,,,,,,1.68364197264115,0.8674407000071369,446.8792795999907,None,ScrollUp,정답입니다,446.8792795999907,None,446.8792795999907,None,446.8792795999907,None,446.8792795999907,None,447.64036459999625,None,447.64036459999625,448.14368840001407,,,,,,,,,,,,,,,,105,2022-04-29_16h52.03.675,FishGame,2022.1.1,60.03669442048244,
,37,넌 멍해,4,Orange,A,2.833333333333333,3.4,ScrollDown,ScrollUp,Orange.png,3,Negative,Incongruent,0,0,0,0,,,,,,,,,,,,,,,,,,,,,0,36,36,36,,,,,,,,,,,,,,,,,,,,,,,,,,,,,,,,,,,,,,,,,,,,,,,,,,,,,,,,,,,,,,,,,,,,,,,,,,,,,1.2283950696388881,0.8584450999915134,448.7839907000016,None,ScrollDown,정답입니다,448.7839907000016,None,448.7839907000016,None,448.7839907000016,None,448.7839907000016,None,449.52657730001374,None,449.52657730001374,450.0272067000042,,,,,,,,,,,,,,,,105,2022-04-29_16h52.03.675,FishGame,2022.1.1,60.03669442048244,
,38,나를 데려가줘,6,Green,B,0,0,ScrollDown,ScrollUp,Green.png,3,NonTarget,NonTarget,0,0,0,0,,,,,,,,,,,,,,,,,,,,,0,37,37,37,,,,,,,,,,,,,,,,,,,,,,,,,,,,,,,,,,,,,,,,,,,,,,,,,,,,,,,,,,,,,,,,,,,,,,,,,,,,,1,1.665297500003362,450.6545197000087,None,ScrollDown,정답입니다,450.6545197000087,None,450.6545197000087,None,450.6545197000087,None,450.6545197000087,None,452.2146958000085,None,452.2146958000085,452.7276389999897,,,,,,,,,,,,,,,,105,2022-04-29_16h52.03.675,FishGame,2022.1.1,60.03669442048244,
,39,넌 현명해,2,Orange,A,6.541666666666666,4.533333333333333,ScrollDown,ScrollUp,Orange.png,3,Positive,Congruent,0,0,0,0,,,,,,,,,,,,,,,,,,,,,0,38,38,38,,,,,,,,,,,,,,,,,,,,,,,,,,,,,,,,,,,,,,,,,,,,,,,,,,,,,,,,,,,,,,,,,,,,,,,,,,,,,1.2577160596847534,1.306594599998789,453.3602091000066,None,ScrollDown,정답입니다,453.3602091000066,None,453.3602091000066,None,453.3602091000066,None,453.3602091000066,None,454.56051909999223,None,454.56051909999223,455.0614227000042,,,,,,,,,,,,,,,,105,2022-04-29_16h52.03.675,FishGame,2022.1.1,60.03669442048244,
,40,넌 수줍어,3,Green,B,3.541666666666666,4.366666666666666,ScrollUp,ScrollDown,Green.png,3,Neutral,Neutral,0,0,0,0,,,,,,,,,,,,,,,,,,,,,0,39,39,39,,,,,,,,,,,,,,,,,,,,,,,,,,,,,,,,,,,,,,,,,,,,,,,,,,,,,,,,,,,,,,,,,,,,,,,,,,,,,1.7916666616996129,0.8940095999860205,455.69488940000883,None,ScrollUp,정답입니다,455.69488940000883,None,455.69488940000883,None,455.69488940000883,None,455.69488940000883,None,456.48115450001205,None,456.48115450001205,456.9935631999979,,,,,,,,,,,,,,,,105,2022-04-29_16h52.03.675,FishGame,2022.1.1,60.03669442048244,
,41,나를 데려가줘,6,Green,B,0,0,ScrollDown,ScrollUp,Green.png,3,NonTarget,NonTarget,0,0,0,0,,,,,,,,,,,,,,,,,,,,,0,40,40,40,,,,,,,,,,,,,,,,,,,,,,,,,,,,,,,,,,,,,,,,,,,,,,,,,,,,,,,,,,,,,,,,,,,,,,,,,,,,,1.3379629602034888,1.2145625000121072,457.6256471000088,None,ScrollDown,정답입니다,457.6256471000088,None,457.6256471000088,None,457.6256471000088,None,457.6256471000088,None,458.7319367000018,None,458.7319367000018,459.24349059999804,,,,,,,,,,,,,,,,105,2022-04-29_16h52.03.675,FishGame,2022.1.1,60.03669442048244,
,42,넌 성숙해,2,Green,B,5.833333333333333,4.533333333333333,ScrollUp,ScrollDown,Green.png,3,Positive,Incongruent,0,0,0,0,,,,,,,,,,,,,,,,,,,,,0,41,41,41,,,,,,,,,,,,,,,,,,,,,,,,,,,,,,,,,,,,,,,,,,,,,,,,,,,,,,,,,,,,,,,,,,,,,,,,,,,,,1.7716049303611119,0.9399968000070658,459.87975419999566,None,ScrollUp,정답입니다,459.87975419999566,None,459.87975419999566,None,459.87975419999566,None,459.87975419999566,None,460.71069030000945,None,460.71069030000945,461.21095989999594,,,,,,,,,,,,,,,,105,2022-04-29_16h52.03.675,FishGame,2022.1.1,60.03669442048244,
,1,넌 매력적이야,2,Green,B,6.125,4.666666666666667,ScrollUp,ScrollDown,Green.png,4,Positive,Incongruent,0,0,0,0,,,,,,,,,,,,,,,,,,,,,,,,,0,0,0,0,,,,,,,,,,,,,,,,,,,,,,,,,,,,,,,,493.6449510999955,495.14520719999564,495.1780787000025,496.12838690000353,496.1783856000111,497.12830740000936,497.12830740000936,None,,,,,,,,,,,,,,,,,,,,,,,,,,,,,,,,,,1.8472222139437993,1.1773310999851674,498.2925479999976,None,ScrollUp,정답입니다,498.2925479999976,None,498.2925479999976,None,498.2925479999976,None,498.2925479999976,None,499.2995280000032,None,499.2995280000032,499.8119740000111,461.7114743000129,None,461.7114743000129,None,0.031481482,-0.11203704,1,0,0,0.01630230000591837,None,491.71157509999466,None,,,105,2022-04-29_16h52.03.675,FishGame,2022.1.1,60.03669442048244,
,2,나를 보내줘,6,Orange,A,0,0,ScrollUp,ScrollDown,Orange.png,4,NonTarget,NonTarget,0,0,0,0,,,,,,,,,,,,,,,,,,,,,,,,,0,1,1,1,,,,,,,,,,,,,,,,,,,,,,,,,,,,,,,,,,,,,,,,,,,,,,,,,,,,,,,,,,,,,,,,,,,,,,,,,1.6512345671653748,1.016099900007248,500.44557730000815,None,ScrollUp,정답입니다,500.44557730000815,None,500.44557730000815,None,500.44557730000815,None,500.44557730000815,None,501.3495174999989,None,501.3495174999989,501.8617542000138,,,,,,,,,,,,,,,,105,2022-04-29_16h52.03.675,FishGame,2022.1.1,60.03669442048244,
,3,넌 조심스러워,3,Orange,A,4.791666666666666,4.666666666666667,ScrollDown,ScrollUp,Orange.png,4,Neutral,Neutral,0,0,0,0,,,,,,,,,,,,,,,,,,,,,,,,,0,2,2,2,,,,,,,,,,,,,,,,,,,,,,,,,,,,,,,,,,,,,,,,,,,,,,,,,,,,,,,,,,,,,,,,,,,,,,,,,1.336419758697351,0.9068717999907676,502.51044230000116,None,ScrollDown,정답입니다,502.51044230000116,None,502.51044230000116,None,502.51044230000116,None,502.51044230000116,None,503.29465600001276,None,503.29465600001276,503.7951671000046,,,,,,,,,,,,,,,,105,2022-04-29_16h52.03.675,FishGame,2022.1.1,60.03669442048244,
,4,넌 철학적이야,3,Green,B,4.5,4.266666666666667,ScrollUp,ScrollDown,Green.png,4,Neutral,Neutral,0,0,0,0,,,,,,,,,,,,,,,,,,,,,,,,,0,3,3,3,,,,,,,,,,,,,,,,,,,,,,,,,,,,,,,,,,,,,,,,,,,,,,,,,,,,,,,,,,,,,,,,,,,,,,,,,1.7222222338120141,0.889913399994839,504.4340077000088,None,ScrollUp,정답입니다,504.4340077000088,None,504.4340077000088,None,504.4340077000088,None,504.4340077000088,None,505.21124340000097,None,505.21124340000097,505.71197199999006,,,,,,,,,,,,,,,,105,2022-04-29_16h52.03.675,FishGame,2022.1.1,60.03669442048244,
,5,넌 쩨쩨해,5,Orange,A,2.375,2.133333333333333,ScrollDown,ScrollUp,Orange.png,4,Negative,Incongruent,0,0,0,0,,,,,,,,,,,,,,,,,,,,,,,,,0,4,4,4,,,,,,,,,,,,,,,,,,,,,,,,,,,,,,,,,,,,,,,,,,,,,,,,,,,,,,,,,,,,,,,,,,,,,,,,,1.805555562178294,0.8490406000055373,506.36081859999103,None,ScrollUp,오답입니다,506.36081859999103,None,506.36081859999103,None,506.36081859999103,None,506.36081859999103,None,507.0846881000034,None,507.0846881000034,507.59498709999025,,,,,,,,,,,,,,,,105,2022-04-29_16h52.03.675,FishGame,2022.1.1,60.03669442048244,
,6,나를 데려가줘,6,Green,B,0,0,ScrollDown,ScrollUp,Green.png,4,NonTarget,NonTarget,0,0,0,0,,,,,,,,,,,,,,,,,,,,,,,,,0,5,5,5,,,,,,,,,,,,,,,,,,,,,,,,,,,,,,,,,,,,,,,,,,,,,,,,,,,,,,,,,,,,,,,,,,,,,,,,,1.276234577099482,1.055656300013652,508.22569799999474,None,ScrollDown,정답입니다,508.22569799999474,None,508.22569799999474,None,508.22569799999474,None,508.22569799999474,None,509.17077530000824,None,509.17077530000824,509.6786997000163,,,,,,,,,,,,,,,,105,2022-04-29_16h52.03.675,FishGame,2022.1.1,60.03669442048244,
,7,넌 고집불통이야,5,Green,B,2.875,2,ScrollUp,ScrollDown,Green.png,4,Negative,Congruent,0,0,0,0,,,,,,,,,,,,,,,,,,,,,,,,,0,6,6,6,,,,,,,,,,,,,,,,,,,,,,,,,,,,,,,,,,,,,,,,,,,,,,,,,,,,,,,,,,,,,,,,,,,,,,,,,1.5061728393969438,0.8561375999997836,510.3213759000064,None,NoResponse,무응답입니다,510.3213759000064,None,510.3213759000064,None,510.3213759000064,None,510.3213759000064,None,511.06139720001374,None,511.06139720001374,511.56196530000307,,,,,,,,,,,,,,,,105,2022-04-29_16h52.03.675,FishGame,2022.1.1,60.03669442048244,
,8,넌 무심해,4,Orange,A,2.875,3.2,ScrollDown,ScrollUp,Orange.png,4,Negative,Incongruent,0,0,0,0,,,,,,,,,,,,,,,,,,,,,,,,,0,7,7,7,,,,,,,,,,,,,,,,,,,,,,,,,,,,,,,,,,,,,,,,,,,,,,,,,,,,,,,,,,,,,,,,,,,,,,,,,1,1.6178444999968633,512.1960426000005,None,ScrollDown,정답입니다,512.1960426000005,None,512.1960426000005,None,512.1960426000005,None,512.1960426000005,None,513.7016521999903,None,513.7016521999903,514.2118698999984,,,,,,,,,,,,,,,,105,2022-04-29_16h52.03.675,FishGame,2022.1.1,60.03669442048244,
,9,넌 정겨워,1,Orange,A,5.791666666666667,5.666666666666667,ScrollDown,ScrollUp,Orange.png,4,Positive,Congruent,0,0,0,0,,,,,,,,,,,,,,,,,,,,,,,,,0,8,8,8,,,,,,,,,,,,,,,,,,,,,,,,,,,,,,,,,,,,,,,,,,,,,,,,,,,,,,,,,,,,,,,,,,,,,,,,,1.0632716019948323,0.9536357999895699,514.8568703999917,None,ScrollDown,정답입니다,514.8568703999917,None,514.8568703999917,None,514.8568703999917,None,514.8568703999917,None,515.6919177999953,None,515.6919177999953,516.1952161999943,,,,,,,,,,,,,,,,105,2022-04-29_16h52.03.675,FishGame,2022.1.1,60.03669442048244,
,10,나를 데려가줘,6,Green,B,0,0,ScrollDown,ScrollUp,Green.png,4,NonTarget,NonTarget,0,0,0,0,,,,,,,,,,,,,,,,,,,,,,,,,0,9,9,9,,,,,,,,,,,,,,,,,,,,,,,,,,,,,,,,,,,,,,,,,,,,,,,,,,,,,,,,,,,,,,,,,,,,,,,,,1,1.0415323999768589,516.8230942999944,None,ScrollDown,정답입니다,516.8230942999944,None,516.8230942999944,None,516.8230942999944,None,516.8230942999944,None,517.7618223000027,None,517.7618223000027,518.2623190000013,,,,,,,,,,,,,,,,105,2022-04-29_16h52.03.675,FishGame,2022.1.1,60.03669442048244,
,11,넌 체제순응적이야,4,Green,B,3,3.6,ScrollUp,ScrollDown,Green.png,4,Negative,Congruent,0,0,0,0,,,,,,,,,,,,,,,,,,,,,,,,,0,10,10,10,,,,,,,,,,,,,,,,,,,,,,,,,,,,,,,,,,,,,,,,,,,,,,,,,,,,,,,,,,,,,,,,,,,,,,,,,2,1.0448599999945145,518.907692400011,None,ScrollUp,정답입니다,518.907692400011,None,518.907692400011,None,518.907692400011,None,518.907692400011,None,519.8325763000175,None,519.8325763000175,520.3453358999977,,,,,,,,,,,,,,,,105,2022-04-29_16h52.03.675,FishGame,2022.1.1,60.03669442048244,
,12,나를 보내줘,6,Orange,A,0,0,ScrollUp,ScrollDown,Orange.png,4,NonTarget,NonTarget,0,0,0,0,,,,,,,,,,,,,,,,,,,,,,,,,0,11,11,11,,,,,,,,,,,,,,,,,,,,,,,,,,,,,,,,,,,,,,,,,,,,,,,,,,,,,,,,,,,,,,,,,,,,,,,,,2,1.2646897000086028,520.9811661000131,None,ScrollUp,정답입니다,520.9811661000131,None,520.9811661000131,None,520.9811661000131,None,520.9811661000131,None,522.1332313000166,None,522.1332313000166,522.6453667000169,,,,,,,,,,,,,,,,105,2022-04-29_16h52.03.675,FishGame,2022.1.1,60.03669442048244,
,13,넌 박식해,2,Orange,A,5.625,3.933333333333333,ScrollDown,ScrollUp,Orange.png,4,Positive,Congruent,0,0,0,0,,,,,,,,,,,,,,,,,,,,,,,,,0,12,12,12,,,,,,,,,,,,,,,,,,,,,,,,,,,,,,,,,,,,,,,,,,,,,,,,,,,,,,,,,,,,,,,,,,,,,,,,,1.0138889054457347,1.0492303999781143,523.2903365000093,None,ScrollDown,정답입니다,523.2903365000093,None,523.2903365000093,None,523.2903365000093,None,523.2903365000093,None,524.2165573000093,None,524.2165573000093,524.7287358000176,,,,,,,,,,,,,,,,105,2022-04-29_16h52.03.675,FishGame,2022.1.1,60.03669442048244,
,14,나를 보내줘,6,Orange,A,0,0,ScrollUp,ScrollDown,Orange.png,4,NonTarget,NonTarget,0,0,0,0,,,,,,,,,,,,,,,,,,,,,,,,,0,13,13,13,,,,,,,,,,,,,,,,,,,,,,,,,,,,,,,,,,,,,,,,,,,,,,,,,,,,,,,,,,,,,,,,,,,,,,,,,2,0.9749325000157114,525.3670970000094,None,ScrollUp,정답입니다,525.3670970000094,None,525.3670970000094,None,525.3670970000094,None,525.3670970000094,None,526.228254799993,None,526.228254799993,526.7290640000138,,,,,,,,,,,,,,,,105,2022-04-29_16h52.03.675,FishGame,2022.1.1,60.03669442048244,
,15,넌 침착해,1,Green,B,5.458333333333333,5.566666666666666,ScrollUp,ScrollDown,Green.png,4,Positive,Incongruent,0,0,0,0,,,,,,,,,,,,,,,,,,,,,,,,,0,14,14,14,,,,,,,,,,,,,,,,,,,,,,,,,,,,,,,,,,,,,,,,,,,,,,,,,,,,,,,,,,,,,,,,,,,,,,,,,1.9645061492919922,0.9068613999988884,527.3712350999995,None,ScrollUp,정답입니다,527.3712350999995,None,527.3712350999995,None,527.3712350999995,None,527.3712350999995,None,528.1621851999953,None,528.1621851999953,528.6621742999996,,,,,,,,,,,,,,,,105,2022-04-29_16h52.03.675,FishGame,2022.1.1,60.03669442048244,
,16,나를 데려가줘,6,Green,B,0,0,ScrollDown,ScrollUp,Green.png,4,NonTarget,NonTarget,0,0,0,0,,,,,,,,,,,,,,,,,,,,,,,,,0,15,15,15,,,,,,,,,,,,,,,,,,,,,,,,,,,,,,,,,,,,,,,,,,,,,,,,,,,,,,,,,,,,,,,,,,,,,,,,,1.160493830839793,0.9361207999754697,529.2917523999931,None,ScrollDown,정답입니다,529.2917523999931,None,529.2917523999931,None,529.2917523999931,None,529.2917523999931,None,530.1251153000048,None,530.1251153000048,530.6296294000058,,,,,,,,,,,,,,,,105,2022-04-29_16h52.03.675,FishGame,2022.1.1,60.03669442048244,
,17,넌 행복해,1,Orange,A,6.416666666666666,6.166666666666667,ScrollDown,ScrollUp,Orange.png,4,Positive,Congruent,0,0,0,0,,,,,,,,,,,,,,,,,,,,,,,,,0,16,16,16,,,,,,,,,,,,,,,,,,,,,,,,,,,,,,,,,,,,,,,,,,,,,,,,,,,,,,,,,,,,,,,,,,,,,,,,,1.0632716019948323,1.0082583000184968,531.2720409000176,None,ScrollDown,정답입니다,531.2720409000176,None,531.2720409000176,None,531.2720409000176,None,531.2720409000176,None,532.162190300005,None,532.162190300005,532.6631842000061,,,,,,,,,,,,,,,,105,2022-04-29_16h52.03.675,FishGame,2022.1.1,60.03669442048244,
,18,넌 겸손해,2,Green,B,5.791666666666667,4.766666666666667,ScrollUp,ScrollDown,Green.png,4,Positive,Incongruent,0,0,0,0,,,,,,,,,,,,,,,,,,,,,,,,,0,17,17,17,,,,,,,,,,,,,,,,,,,,,,,,,,,,,,,,,,,,,,,,,,,,,,,,,,,,,,,,,,,,,,,,,,,,,,,,,1.9413580397764842,1.0479237000108697,533.3035261000041,None,ScrollUp,정답입니다,533.3035261000041,None,533.3035261000041,None,533.3035261000041,None,533.3035261000041,None,534.2333189999918,None,534.2333189999918,534.7459473999916,,,,,,,,,,,,,,,,105,2022-04-29_16h52.03.675,FishGame,2022.1.1,60.03669442048244,
,19,나를 보내줘,6,Orange,A,0,0,ScrollUp,ScrollDown,Orange.png,4,NonTarget,NonTarget,0,0,0,0,,,,,,,,,,,,,,,,,,,,,,,,,0,18,18,18,,,,,,,,,,,,,,,,,,,,,,,,,,,,,,,,,,,,,,,,,,,,,,,,,,,,,,,,,,,,,,,,,,,,,,,,,1.9629629850387573,1.018740200001048,535.3805778000096,None,ScrollUp,정답입니다,535.3805778000096,None,535.3805778000096,None,535.3805778000096,None,535.3805778000096,None,536.2921848999977,None,536.2921848999977,536.7961386000097,,,,,,,,,,,,,,,,105,2022-04-29_16h52.03.675,FishGame,2022.1.1,60.03669442048244,
,20,넌 의심없어,3,Orange,A,4.166666666666667,4.6,ScrollDown,ScrollUp,Orange.png,4,Neutral,Neutral,0,0,0,0,,,,,,,,,,,,,,,,,,,,,,,,,0,19,19,19,,,,,,,,,,,,,,,,,,,,,,,,,,,,,,,,,,,,,,,,,,,,,,,,,,,,,,,,,,,,,,,,,,,,,,,,,1.0833333333333333,0.9859707000141498,537.4319595000125,None,ScrollDown,정답입니다,537.4319595000125,None,537.4319595000125,None,537.4319595000125,None,537.4319595000125,None,538.3088433000084,None,538.3088433000084,538.8119631000154,,,,,,,,,,,,,,,,105,2022-04-29_16h52.03.675,FishGame,2022.1.1,60.03669442048244,
,21,넌 시시해,4,Orange,A,2.666666666666667,2.966666666666667,ScrollDown,ScrollUp,Orange.png,4,Negative,Incongruent,0,0,0,0,,,,,,,,,,,,,,,,,,,,,,,,,0,20,20,20,,,,,,,,,,,,,,,,,,,,,,,,,,,,,,,,,,,,,,,,,,,,,,,,,,,,,,,,,,,,,,,,,,,,,,,,,1,0.9475737000175286,539.4493841000076,None,ScrollDown,정답입니다,539.4493841000076,None,539.4493841000076,None,539.4493841000076,None,539.4493841000076,None,540.2834198999917,None,540.2834198999917,540.7962094999966,,,,,,,,,,,,,,,,105,2022-04-29_16h52.03.675,FishGame,2022.1.1,60.03669442048244,
,22,나를 데려가줘,6,Green,B,0,0,ScrollDown,ScrollUp,Green.png,4,NonTarget,NonTarget,0,0,0,0,,,,,,,,,,,,,,,,,,,,,,,,,0,21,21,21,,,,,,,,,,,,,,,,,,,,,,,,,,,,,,,,,,,,,,,,,,,,,,,,,,,,,,,,,,,,,,,,,,,,,,,,,1,1.1243997999990825,541.4257618999982,None,ScrollDown,정답입니다,541.4257618999982,None,541.4257618999982,None,541.4257618999982,None,541.4257618999982,None,542.4457856999943,None,542.4457856999943,542.9455032999977,,,,,,,,,,,,,,,,105,2022-04-29_16h52.03.675,FishGame,2022.1.1,60.03669442048244,
,23,넌 무정해,5,Orange,A,2.5,2.2,ScrollDown,ScrollUp,Orange.png,4,Negative,Incongruent,0,0,0,0,,,,,,,,,,,,,,,,,,,,,,,,,0,22,22,22,,,,,,,,,,,,,,,,,,,,,,,,,,,,,,,,,,,,,,,,,,,,,,,,,,,,,,,,,,,,,,,,,,,,,,,,,1,1.1988868000044022,543.5788846999931,None,ScrollDown,정답입니다,543.5788846999931,None,543.5788846999931,None,543.5788846999931,None,543.5788846999931,None,544.6672765999974,None,544.6672765999974,545.1797752999992,,,,,,,,,,,,,,,,105,2022-04-29_16h52.03.675,FishGame,2022.1.1,60.03669442048244,
,24,넌 긍정적이야,1,Green,B,6.041666666666667,6.066666666666666,ScrollUp,ScrollDown,Green.png,4,Positive,Incongruent,0,0,0,0,,,,,,,,,,,,,,,,,,,,,,,,,0,23,23,23,,,,,,,,,,,,,,,,,,,,,,,,,,,,,,,,,,,,,,,,,,,,,,,,,,,,,,,,,,,,,,,,,,,,,,,,,1.8209876517454784,1.4470206999976654,545.8200671999948,None,ScrollUp,정답입니다,545.8200671999948,None,545.8200671999948,None,545.8200671999948,None,545.8200671999948,None,547.1504021000001,None,547.1504021000001,547.6629367000132,,,,,,,,,,,,,,,,105,2022-04-29_16h52.03.675,FishGame,2022.1.1,60.03669442048244,
,25,나를 보내줘,6,Orange,A,0,0,ScrollUp,ScrollDown,Orange.png,4,NonTarget,NonTarget,0,0,0,0,,,,,,,,,,,,,,,,,,,,,,,,,0,24,24,24,,,,,,,,,,,,,,,,,,,,,,,,,,,,,,,,,,,,,,,,,,,,,,,,,,,,,,,,,,,,,,,,,,,,,,,,,1.8688271592060726,1.0697444999823347,548.2977567999915,None,ScrollUp,정답입니다,548.2977567999915,None,548.2977567999915,None,548.2977567999915,None,548.2977567999915,None,549.258891400008,None,549.258891400008,549.7630648000049,,,,,,,,,,,,,,,,105,2022-04-29_16h52.03.675,FishGame,2022.1.1,60.03669442048244,
,26,넌 시기심이 많아,5,Green,B,2.458333333333333,2.233333333333333,ScrollUp,ScrollDown,Green.png,4,Negative,Congruent,0,0,0,0,,,,,,,,,,,,,,,,,,,,,,,,,0,25,25,25,,,,,,,,,,,,,,,,,,,,,,,,,,,,,,,,,,,,,,,,,,,,,,,,,,,,,,,,,,,,,,,,,,,,,,,,,1.873456800977389,1.6912285999860615,550.4077225000074,None,ScrollUp,정답입니다,550.4077225000074,None,550.4077225000074,None,550.4077225000074,None,550.4077225000074,None,551.9786739000119,None,551.9786739000119,552.4790337000159,,,,,,,,,,,,,,,,105,2022-04-29_16h52.03.675,FishGame,2022.1.1,60.03669442048244,
,27,넌 탁월해,2,Orange,A,5.708333333333334,4.5,ScrollDown,ScrollUp,Orange.png,4,Positive,Congruent,0,0,0,0,,,,,,,,,,,,,,,,,,,,,,,,,0,26,26,26,,,,,,,,,,,,,,,,,,,,,,,,,,,,,,,,,,,,,,,,,,,,,,,,,,,,,,,,,,,,,,,,,,,,,,,,,1.0370370149612427,0.9515508000040427,553.1246701999917,None,ScrollDown,정답입니다,553.1246701999917,None,553.1246701999917,None,553.1246701999917,None,553.1246701999917,None,553.9594768999959,None,553.9594768999959,554.4627806000062,,,,,,,,,,,,,,,,105,2022-04-29_16h52.03.675,FishGame,2022.1.1,60.03669442048244,
,28,나를 데려가줘,6,Green,B,0,0,ScrollDown,ScrollUp,Green.png,4,NonTarget,NonTarget,0,0,0,0,,,,,,,,,,,,,,,,,,,,,,,,,0,27,27,27,,,,,,,,,,,,,,,,,,,,,,,,,,,,,,,,,,,,,,,,,,,,,,,,,,,,,,,,,,,,,,,,,,,,,,,,,1,1.044322599977022,555.0993504000071,None,ScrollDown,정답입니다,555.0993504000071,None,555.0993504000071,None,555.0993504000071,None,555.0993504000071,None,556.0289186000009,None,556.0289186000009,556.5297346000152,,,,,,,,,,,,,,,,105,2022-04-29_16h52.03.675,FishGame,2022.1.1,60.03669442048244,
,29,넌 조용해,3,Green,B,4.333333333333333,4.166666666666667,ScrollUp,ScrollDown,Green.png,4,Neutral,Neutral,0,0,0,0,,,,,,,,,,,,,,,,,,,,,,,,,0,28,28,28,,,,,,,,,,,,,,,,,,,,,,,,,,,,,,,,,,,,,,,,,,,,,,,,,,,,,,,,,,,,,,,,,,,,,,,,,1.9413580397764842,1.0793718999775592,557.1672386999999,None,ScrollUp,정답입니다,557.1672386999999,None,557.1672386999999,None,557.1672386999999,None,557.1672386999999,None,558.1337117000076,None,558.1337117000076,558.6464953999966,,,,,,,,,,,,,,,,105,2022-04-29_16h52.03.675,FishGame,2022.1.1,60.03669442048244,
,30,넌 다정해,1,Orange,A,5.833333333333334,5.7,ScrollDown,ScrollUp,Orange.png,4,Positive,Congruent,0,0,0,0,,,,,,,,,,,,,,,,,,,,,,,,,0,29,29,29,,,,,,,,,,,,,,,,,,,,,,,,,,,,,,,,,,,,,,,,,,,,,,,,,,,,,,,,,,,,,,,,,,,,,,,,,1.1188271542390187,1.0403134000080172,559.284343700012,None,ScrollDown,정답입니다,559.284343700012,None,559.284343700012,None,559.284343700012,None,559.284343700012,None,560.212463600008,None,560.212463600008,560.7131864000112,,,,,,,,,,,,,,,,105,2022-04-29_16h52.03.675,FishGame,2022.1.1,60.03669442048244,
,31,넌 능력있어,2,Green,B,6.166666666666666,4.6,ScrollUp,ScrollDown,Green.png,4,Positive,Incongruent,0,0,0,0,,,,,,,,,,,,,,,,,,,,,,,,,0,30,30,30,,,,,,,,,,,,,,,,,,,,,,,,,,,,,,,,,,,,,,,,,,,,,,,,,,,,,,,,,,,,,,,,,,,,,,,,,1.544753085821867,1.300871699990239,561.3394902000146,None,NoResponse,무응답입니다,561.3394902000146,None,561.3394902000146,None,561.3394902000146,None,561.3394902000146,None,562.5358582999907,None,562.5358582999907,563.0461781999911,,,,,,,,,,,,,,,,105,2022-04-29_16h52.03.675,FishGame,2022.1.1,60.03669442048244,
,32,넌 불쾌해,5,Orange,A,2.125,1.933333333333333,ScrollDown,ScrollUp,Orange.png,4,Negative,Incongruent,0,0,0,0,,,,,,,,,,,,,,,,,,,,,,,,,0,31,31,31,,,,,,,,,,,,,,,,,,,,,,,,,,,,,,,,,,,,,,,,,,,,,,,,,,,,,,,,,,,,,,,,,,,,,,,,,1.0154321193695068,1.2714968000072986,563.6775139000092,None,ScrollDown,정답입니다,563.6775139000092,None,563.6775139000092,None,563.6775139000092,None,563.6775139000092,None,564.8375177000125,None,564.8375177000125,565.3466996999923,,,,,,,,,,,,,,,,105,2022-04-29_16h52.03.675,FishGame,2022.1.1,60.03669442048244,
,33,나를 데려가줘,6,Green,B,0,0,ScrollDown,ScrollUp,Green.png,4,NonTarget,NonTarget,0,0,0,0,,,,,,,,,,,,,,,,,,,,,,,,,0,32,32,32,,,,,,,,,,,,,,,,,,,,,,,,,,,,,,,,,,,,,,,,,,,,,,,,,,,,,,,,,,,,,,,,,,,,,,,,,1.0046296219031017,1.1311439000128303,565.9818052999908,None,ScrollDown,정답입니다,565.9818052999908,None,565.9818052999908,None,565.9818052999908,None,565.9818052999908,None,567.0008121000137,None,567.0008121000137,567.513231399993,,,,,,,,,,,,,,,,105,2022-04-29_16h52.03.675,FishGame,2022.1.1,60.03669442048244,
,34,넌 유순해,3,Orange,A,4.458333333333333,5,ScrollDown,ScrollUp,Orange.png,4,Neutral,Neutral,0,0,0,0,,,,,,,,,,,,,,,,,,,,,,,,,0,33,33,33,,,,,,,,,,,,,,,,,,,,,,,,,,,,,,,,,,,,,,,,,,,,,,,,,,,,,,,,,,,,,,,,,,,,,,,,,1.1049382785956066,0.8236167000140995,568.1474507999956,None,ScrollDown,정답입니다,568.1474507999956,None,568.1474507999956,None,568.1474507999956,None,568.1474507999956,None,568.8629607000039,None,568.8629607000039,569.3630587999942,,,,,,,,,,,,,,,,105,2022-04-29_16h52.03.675,FishGame,2022.1.1,60.03669442048244,
,35,넌 근심스러워,4,Green,B,2.708333333333333,3.133333333333333,ScrollUp,ScrollDown,Green.png,4,Negative,Congruent,0,0,0,0,,,,,,,,,,,,,,,,,,,,,,,,,0,34,34,34,,,,,,,,,,,,,,,,,,,,,,,,,,,,,,,,,,,,,,,,,,,,,,,,,,,,,,,,,,,,,,,,,,,,,,,,,2,0.8942570999788586,570.0056874000002,None,ScrollUp,정답입니다,570.0056874000002,None,570.0056874000002,None,570.0056874000002,None,570.0056874000002,None,570.7828174000024,None,570.7828174000024,571.2969127999968,,,,,,,,,,,,,,,,105,2022-04-29_16h52.03.675,FishGame,2022.1.1,60.03669442048244,
,36,넌 세련되었어,2,Orange,A,5.5,4.6,ScrollDown,ScrollUp,Orange.png,4,Positive,Congruent,0,0,0,0,,,,,,,,,,,,,,,,,,,,,,,,,0,35,35,35,,,,,,,,,,,,,,,,,,,,,,,,,,,,,,,,,,,,,,,,,,,,,,,,,,,,,,,,,,,,,,,,,,,,,,,,,1.0617283880710602,0.9083469000179321,571.9492533000011,None,ScrollDown,정답입니다,571.9492533000011,None,571.9492533000011,None,571.9492533000011,None,571.9492533000011,None,572.7291716999898,None,572.7291716999898,573.2298413999961,,,,,,,,,,,,,,,,105,2022-04-29_16h52.03.675,FishGame,2022.1.1,60.03669442048244,
,37,나를 보내줘,6,Orange,A,0,0,ScrollUp,ScrollDown,Orange.png,4,NonTarget,NonTarget,0,0,0,0,,,,,,,,,,,,,,,,,,,,,,,,,0,36,36,36,,,,,,,,,,,,,,,,,,,,,,,,,,,,,,,,,,,,,,,,,,,,,,,,,,,,,,,,,,,,,,,,,,,,,,,,,2,1.441539899999043,573.8671481999918,None,ScrollUp,정답입니다,573.8671481999918,None,573.8671481999918,None,573.8671481999918,None,573.8671481999918,None,575.1963257000025,None,575.1963257000025,575.6965529000154,,,,,,,,,,,,,,,,105,2022-04-29_16h52.03.675,FishGame,2022.1.1,60.03669442048244,
,38,넌 확고해,3,Green,B,4.708333333333334,4.566666666666666,ScrollUp,ScrollDown,Green.png,4,Neutral,Neutral,0,0,0,0,,,,,,,,,,,,,,,,,,,,,,,,,0,37,37,37,,,,,,,,,,,,,,,,,,,,,,,,,,,,,,,,,,,,,,,,,,,,,,,,,,,,,,,,,,,,,,,,,,,,,,,,,1.4876543212061126,1.4326666000124533,576.3312929999956,None,NoResponse,무응답입니다,576.3312929999956,None,576.3312929999956,None,576.3312929999956,None,576.3312929999956,None,577.6534664999926,None,577.6534664999926,578.1627794000087,,,,,,,,,,,,,,,,105,2022-04-29_16h52.03.675,FishGame,2022.1.1,60.03669442048244,
,39,넌 이해심이 많아,1,Green,B,6.041666666666668,5.533333333333333,ScrollUp,ScrollDown,Green.png,4,Positive,Incongruent,0,0,0,0,,,,,,,,,,,,,,,,,,,,,,,,,0,38,38,38,,,,,,,,,,,,,,,,,,,,,,,,,,,,,,,,,,,,,,,,,,,,,,,,,,,,,,,,,,,,,,,,,,,,,,,,,2,1.1510039999848232,578.7916879999975,None,ScrollUp,정답입니다,578.7916879999975,None,578.7916879999975,None,578.7916879999975,None,578.7916879999975,None,579.8344272999966,None,579.8344272999966,580.3464689000102,,,,,,,,,,,,,,,,105,2022-04-29_16h52.03.675,FishGame,2022.1.1,60.03669442048244,
,40,나를 보내줘,6,Orange,A,0,0,ScrollUp,ScrollDown,Orange.png,4,NonTarget,NonTarget,0,0,0,0,,,,,,,,,,,,,,,,,,,,,,,,,0,39,39,39,,,,,,,,,,,,,,,,,,,,,,,,,,,,,,,,,,,,,,,,,,,,,,,,,,,,,,,,,,,,,,,,,,,,,,,,,2,1.5303731999883894,580.9857773999975,None,ScrollUp,정답입니다,580.9857773999975,None,580.9857773999975,None,580.9857773999975,None,580.9857773999975,None,582.4012673000107,None,582.4012673000107,582.9128225000168,,,,,,,,,,,,,,,,105,2022-04-29_16h52.03.675,FishGame,2022.1.1,60.03669442048244,
,41,넌 거칠어,4,Orange,A,2.625,3.033333333333333,ScrollDown,ScrollUp,Orange.png,4,Negative,Incongruent,0,0,0,0,,,,,,,,,,,,,,,,,,,,,,,,,0,40,40,40,,,,,,,,,,,,,,,,,,,,,,,,,,,,,,,,,,,,,,,,,,,,,,,,,,,,,,,,,,,,,,,,,,,,,,,,,1,0.9606278999999631,583.5550487000146,None,ScrollDown,정답입니다,583.5550487000146,None,583.5550487000146,None,583.5550487000146,None,583.5550487000146,None,584.3961516999989,None,584.3961516999989,584.8967461000138,,,,,,,,,,,,,,,,105,2022-04-29_16h52.03.675,FishGame,2022.1.1,60.03669442048244,
,42,넌 변덕맞아,5,Green,B,2.75,2.166666666666667,ScrollUp,ScrollDown,Green.png,4,Negative,Congruent,0,0,0,0,,,,,,,,,,,,,,,,,,,,,,,,,0,41,41,41,,,,,,,,,,,,,,,,,,,,,,,,,,,,,,,,,,,,,,,,,,,,,,,,,,,,,,,,,,,,,,,,,,,,,,,,,2,1.6234754000033718,585.5421244000026,None,ScrollUp,정답입니다,585.5421244000026,None,585.5421244000026,None,585.5421244000026,None,585.5421244000026,None,587.0465094000101,None,587.0465094000101,587.546766000014,,,,,,,,,,,,,,,,105,2022-04-29_16h52.03.675,FishGame,2022.1.1,60.03669442048244,
,43,나를 데려가줘,6,Green,B,0,0,ScrollDown,ScrollUp,Green.png,4,NonTarget,NonTarget,0,0,0,0,,,,,,,,,,,,,,,,,,,,,,,,,0,42,42,42,,,,,,,,,,,,,,,,,,,,,,,,,,,,,,,,,,,,,,,,,,,,,,,,,,,,,,,,,,,,,,,,,,,,,,,,,1,1.4724207999825012,588.1797277000151,None,ScrollDown,정답입니다,588.1797277000151,None,588.1797277000151,None,588.1797277000151,None,588.1797277000151,None,589.5466372999945,None,589.5466372999945,590.0463614999899,,,,,,,,,,,,,,,,105,2022-04-29_16h52.03.675,FishGame,2022.1.1,60.03669442048244,
,44,넌 외로워,4,Green,B,2.833333333333333,3.3,ScrollUp,ScrollDown,Green.png,4,Negative,Congruent,0,0,0,0,,,,,,,,,,,,,,,,,,,,,,,,,0,43,43,43,,,,,,,,,,,,,,,,,,,,,,,,,,,,,,,,,,,,,,,,,,,,,,,,,,,,,,,,,,,,,,,,,,,,,,,,,2,1.068253100005677,590.679503899999,None,ScrollUp,정답입니다,590.679503899999,None,590.679503899999,None,590.679503899999,None,590.679503899999,None,591.6433003999991,None,591.6433003999991,592.1468779999996,,,,,,,,,,,,,,,,105,2022-04-29_16h52.03.675,FishGame,2022.1.1,60.03669442048244,
,1,넌 불평스러워,5,Orange,A,2.25,2.066666666666667,ScrollDown,ScrollUp,Orange.png,5,Negative,Incongruent,0,0,0,0,,,,,,,,,,,,,,,,,,,,,,,,,,,,,0,0,0,0,,,,,,,,,,,,,,,,,,,,,,,,,,,,623.6306559999939,625.131043100002,625.1642644999956,626.1142264000082,626.1641662000038,627.1136365999992,627.1136365999992,None,,,,,,,,,,,,,,,,,,,,,,,,,,,,,,,,,,1,1.3004364999942482,628.2850948999985,None,ScrollDown,정답입니다,628.2850948999985,None,628.2850948999985,None,628.2850948999985,None,628.2850948999985,None,629.4138371000008,None,629.4138371000008,629.9143595999922,592.6466749999963,None,592.6466749999963,None,0.07777778,-0.097222224,1,0,0,0.016315999993821606,None,622.6474828000064,None,,,105,2022-04-29_16h52.03.675,FishGame,2022.1.1,60.03669442048244,
,2,나를 보내줘,6,Orange,A,0,0,ScrollUp,ScrollDown,Orange.png,5,NonTarget,NonTarget,0,0,0,0,,,,,,,,,,,,,,,,,,,,,,,,,,,,,0,1,1,1,,,,,,,,,,,,,,,,,,,,,,,,,,,,,,,,,,,,,,,,,,,,,,,,,,,,,,,,,,,,,,,,,,,,,2,1.4834198000025935,630.5540996000054,None,ScrollUp,정답입니다,630.5540996000054,None,630.5540996000054,None,630.5540996000054,None,630.5540996000054,None,631.9187191000092,None,631.9187191000092,632.4312036999909,,,,,,,,,,,,,,,,105,2022-04-29_16h52.03.675,FishGame,2022.1.1,60.03669442048244,
,3,넌 다재다능해,2,Green,B,6.208333333333333,4.5,ScrollUp,ScrollDown,Green.png,5,Positive,Incongruent,0,0,0,0,,,,,,,,,,,,,,,,,,,,,,,,,,,,,0,2,2,2,,,,,,,,,,,,,,,,,,,,,,,,,,,,,,,,,,,,,,,,,,,,,,,,,,,,,,,,,,,,,,,,,,,,,1.8549382835626602,1.0906780999794137,633.0639036000066,None,ScrollUp,정답입니다,633.0639036000066,None,633.0639036000066,None,633.0639036000066,None,633.0639036000066,None,634.0473846000095,None,634.0473846000095,634.5474612000107,,,,,,,,,,,,,,,,105,2022-04-29_16h52.03.675,FishGame,2022.1.1,60.03669442048244,
,4,넌 과감해,3,Orange,A,4.833333333333334,4.6,ScrollDown,ScrollUp,Orange.png,5,Neutral,Neutral,0,0,0,0,,,,,,,,,,,,,,,,,,,,,,,,,,,,,0,3,3,3,,,,,,,,,,,,,,,,,,,,,,,,,,,,,,,,,,,,,,,,,,,,,,,,,,,,,,,,,,,,,,,,,,,,,1,1.1158470000082161,635.1898847999983,None,ScrollDown,정답입니다,635.1898847999983,None,635.1898847999983,None,635.1898847999983,None,635.1898847999983,None,636.1852551999909,None,636.1852551999909,636.6973186999967,,,,,,,,,,,,,,,,105,2022-04-29_16h52.03.675,FishGame,2022.1.1,60.03669442048244,
,5,넌 고분고분해,3,Green,B,3.75,4.033333333333333,ScrollUp,ScrollDown,Green.png,5,Neutral,Neutral,0,0,0,0,,,,,,,,,,,,,,,,,,,,,,,,,,,,,0,4,4,4,,,,,,,,,,,,,,,,,,,,,,,,,,,,,,,,,,,,,,,,,,,,,,,,,,,,,,,,,,,,,,,,,,,,,2,0.9177511000016239,637.3372878000082,None,ScrollUp,정답입니다,637.3372878000082,None,637.3372878000082,None,637.3372878000082,None,637.3372878000082,None,638.1441297999991,None,638.1441297999991,638.6475785000075,,,,,,,,,,,,,,,,105,2022-04-29_16h52.03.675,FishGame,2022.1.1,60.03669442048244,
,6,나를 보내줘,6,Orange,A,0,0,ScrollUp,ScrollDown,Orange.png,5,NonTarget,NonTarget,0,0,0,0,,,,,,,,,,,,,,,,,,,,,,,,,,,,,0,5,5,5,,,,,,,,,,,,,,,,,,,,,,,,,,,,,,,,,,,,,,,,,,,,,,,,,,,,,,,,,,,,,,,,,,,,,2,1.3515813999983948,639.2841373000119,None,ScrollUp,정답입니다,639.2841373000119,None,639.2841373000119,None,639.2841373000119,None,639.2841373000119,None,640.5272524000029,None,640.5272524000029,641.031627599994,,,,,,,,,,,,,,,,105,2022-04-29_16h52.03.675,FishGame,2022.1.1,60.03669442048244,
,7,넌 잘 잊어,4,Orange,A,3,3.7,ScrollDown,ScrollUp,Orange.png,5,Negative,Incongruent,0,0,0,0,,,,,,,,,,,,,,,,,,,,,,,,,,,,,0,6,6,6,,,,,,,,,,,,,,,,,,,,,,,,,,,,,,,,,,,,,,,,,,,,,,,,,,,,,,,,,,,,,,,,,,,,,1,1.0262945999857038,641.6762125999958,None,ScrollDown,정답입니다,641.6762125999958,None,641.6762125999958,None,641.6762125999958,None,641.6762125999958,None,642.5808011000045,None,642.5808011000045,643.0812239999941,,,,,,,,,,,,,,,,105,2022-04-29_16h52.03.675,FishGame,2022.1.1,60.03669442048244,
,8,넌 탐구심이없어,4,Green,B,2.833333333333333,3.066666666666667,ScrollUp,ScrollDown,Green.png,5,Negative,Congruent,0,0,0,0,,,,,,,,,,,,,,,,,,,,,,,,,,,,,0,7,7,7,,,,,,,,,,,,,,,,,,,,,,,,,,,,,,,,,,,,,,,,,,,,,,,,,,,,,,,,,,,,,,,,,,,,,2,0.9443079000047874,643.7255554000149,None,ScrollUp,정답입니다,643.7255554000149,None,643.7255554000149,None,643.7255554000149,None,643.7255554000149,None,644.5514731000003,None,644.5514731000003,645.0642598000122,,,,,,,,,,,,,,,,105,2022-04-29_16h52.03.675,FishGame,2022.1.1,60.03669442048244,
,9,나를 데려가줘,6,Green,B,0,0,ScrollDown,ScrollUp,Green.png,5,NonTarget,NonTarget,0,0,0,0,,,,,,,,,,,,,,,,,,,,,,,,,,,,,0,8,8,8,,,,,,,,,,,,,,,,,,,,,,,,,,,,,,,,,,,,,,,,,,,,,,,,,,,,,,,,,,,,,,,,,,,,,1,1.195534400001634,645.6987435999908,None,ScrollDown,정답입니다,645.6987435999908,None,645.6987435999908,None,645.6987435999908,None,645.6987435999908,None,646.78378540001,None,646.78378540001,647.2979733000102,,,,,,,,,,,,,,,,105,2022-04-29_16h52.03.675,FishGame,2022.1.1,60.03669442048244,
,10,넌 참되어,2,Orange,A,6.041666666666664,4.733333333333333,ScrollDown,ScrollUp,Orange.png,5,Positive,Congruent,0,0,0,0,,,,,,,,,,,,,,,,,,,,,,,,,,,,,0,9,9,9,,,,,,,,,,,,,,,,,,,,,,,,,,,,,,,,,,,,,,,,,,,,,,,,,,,,,,,,,,,,,,,,,,,,,1,0.9172114999964833,647.9379436000017,None,ScrollDown,정답입니다,647.9379436000017,None,647.9379436000017,None,647.9379436000017,None,647.9379436000017,None,648.7356236999913,None,648.7356236999913,649.2479231999896,,,,,,,,,,,,,,,,105,2022-04-29_16h52.03.675,FishGame,2022.1.1,60.03669442048244,
,11,넌 생기있어,1,Green,B,5.875,5.633333333333334,ScrollUp,ScrollDown,Green.png,5,Positive,Incongruent,0,0,0,0,,,,,,,,,,,,,,,,,,,,,,,,,,,,,0,10,10,10,,,,,,,,,,,,,,,,,,,,,,,,,,,,,,,,,,,,,,,,,,,,,,,,,,,,,,,,,,,,,,,,,,,,,2,0.9397592999739572,649.8822705000057,None,ScrollUp,정답입니다,649.8822705000057,None,649.8822705000057,None,649.8822705000057,None,649.8822705000057,None,650.7145713999926,None,650.7145713999926,651.2146307000075,,,,,,,,,,,,,,,,105,2022-04-29_16h52.03.675,FishGame,2022.1.1,60.03669442048244,
,12,넌 비사교적이야,4,Green,B,2.875,2.9,ScrollUp,ScrollDown,Green.png,5,Negative,Congruent,0,0,0,0,,,,,,,,,,,,,,,,,,,,,,,,,,,,,0,11,11,11,,,,,,,,,,,,,,,,,,,,,,,,,,,,,,,,,,,,,,,,,,,,,,,,,,,,,,,,,,,,,,,,,,,,,2,0.9267258000036236,651.8433593999944,None,ScrollUp,정답입니다,651.8433593999944,None,651.8433593999944,None,651.8433593999944,None,651.8433593999944,None,652.6645190000127,None,652.6645190000127,653.1650080000109,,,,,,,,,,,,,,,,105,2022-04-29_16h52.03.675,FishGame,2022.1.1,60.03669442048244,
,13,나를 데려가줘,6,Green,B,0,0,ScrollDown,ScrollUp,Green.png,5,NonTarget,NonTarget,0,0,0,0,,,,,,,,,,,,,,,,,,,,,,,,,,,,,0,12,12,12,,,,,,,,,,,,,,,,,,,,,,,,,,,,,,,,,,,,,,,,,,,,,,,,,,,,,,,,,,,,,,,,,,,,,1,1.105042399984086,653.796262799995,None,ScrollDown,정답입니다,653.796262799995,None,653.796262799995,None,653.796262799995,None,653.796262799995,None,654.7981275999919,None,654.7981275999919,655.2975667999999,,,,,,,,,,,,,,,,105,2022-04-29_16h52.03.675,FishGame,2022.1.1,60.03669442048244,
,14,넌 고독해,4,Orange,A,2.916666666666667,3.233333333333333,ScrollDown,ScrollUp,Orange.png,5,Negative,Incongruent,0,0,0,0,,,,,,,,,,,,,,,,,,,,,,,,,,,,,0,13,13,13,,,,,,,,,,,,,,,,,,,,,,,,,,,,,,,,,,,,,,,,,,,,,,,,,,,,,,,,,,,,,,,,,,,,,1,0.9356144999910612,655.9321250999928,None,ScrollDown,정답입니다,655.9321250999928,None,655.9321250999928,None,655.9321250999928,None,655.9321250999928,None,656.7614727000182,None,656.7614727000182,657.2643431000179,,,,,,,,,,,,,,,,105,2022-04-29_16h52.03.675,FishGame,2022.1.1,60.03669442048244,
,15,넌 신경질적이야,5,Green,B,2.375,2.233333333333333,ScrollUp,ScrollDown,Green.png,5,Negative,Congruent,0,0,0,0,,,,,,,,,,,,,,,,,,,,,,,,,,,,,0,14,14,14,,,,,,,,,,,,,,,,,,,,,,,,,,,,,,,,,,,,,,,,,,,,,,,,,,,,,,,,,,,,,,,,,,,,,2,1.0227318999823183,657.9006841999944,None,ScrollUp,정답입니다,657.9006841999944,None,657.9006841999944,None,657.9006841999944,None,657.9006841999944,None,658.8147077000176,None,658.8147077000176,659.3149018000113,,,,,,,,,,,,,,,,105,2022-04-29_16h52.03.675,FishGame,2022.1.1,60.03669442048244,
,16,넌 똑똑해,2,Green,B,5.666666666666667,3.966666666666667,ScrollUp,ScrollDown,Green.png,5,Positive,Incongruent,0,0,0,0,,,,,,,,,,,,,,,,,,,,,,,,,,,,,0,15,15,15,,,,,,,,,,,,,,,,,,,,,,,,,,,,,,,,,,,,,,,,,,,,,,,,,,,,,,,,,,,,,,,,,,,,,2,1.1169493999914266,659.9509848000016,None,ScrollUp,정답입니다,659.9509848000016,None,659.9509848000016,None,659.9509848000016,None,659.9509848000016,None,660.9614898000145,None,660.9614898000145,661.4645201000094,,,,,,,,,,,,,,,,105,2022-04-29_16h52.03.675,FishGame,2022.1.1,60.03669442048244,
,17,나를 보내줘,6,Orange,A,0,0,ScrollUp,ScrollDown,Orange.png,5,NonTarget,NonTarget,0,0,0,0,,,,,,,,,,,,,,,,,,,,,,,,,,,,,0,16,16,16,,,,,,,,,,,,,,,,,,,,,,,,,,,,,,,,,,,,,,,,,,,,,,,,,,,,,,,,,,,,,,,,,,,,,2,1.123638299992308,662.0975477000175,None,ScrollUp,정답입니다,662.0975477000175,None,662.0975477000175,None,662.0975477000175,None,662.0975477000175,None,663.1141826999956,None,663.1141826999956,663.6146958000027,,,,,,,,,,,,,,,,105,2022-04-29_16h52.03.675,FishGame,2022.1.1,60.03669442048244,
,18,넌 협조적이야,1,Orange,A,5.625,5.666666666666667,ScrollDown,ScrollUp,Orange.png,5,Positive,Congruent,0,0,0,0,,,,,,,,,,,,,,,,,,,,,,,,,,,,,0,17,17,17,,,,,,,,,,,,,,,,,,,,,,,,,,,,,,,,,,,,,,,,,,,,,,,,,,,,,,,,,,,,,,,,,,,,,1.1049382785956066,0.9755584000085946,664.2478662999929,None,ScrollDown,정답입니다,664.2478662999929,None,664.2478662999929,None,664.2478662999929,None,664.2478662999929,None,665.1144723999896,None,665.1144723999896,665.6145290000131,,,,,,,,,,,,,,,,105,2022-04-29_16h52.03.675,FishGame,2022.1.1,60.03669442048244,
,19,나를 데려가줘,6,Green,B,0,0,ScrollDown,ScrollUp,Green.png,5,NonTarget,NonTarget,0,0,0,0,,,,,,,,,,,,,,,,,,,,,,,,,,,,,0,18,18,18,,,,,,,,,,,,,,,,,,,,,,,,,,,,,,,,,,,,,,,,,,,,,,,,,,,,,,,,,,,,,,,,,,,,,1,1.2929310000035912,666.2466907000053,None,ScrollDown,정답입니다,666.2466907000053,None,666.2466907000053,None,666.2466907000053,None,666.2466907000053,None,667.4321902999945,None,667.4321902999945,667.9317635000043,,,,,,,,,,,,,,,,105,2022-04-29_16h52.03.675,FishGame,2022.1.1,60.03669442048244,
,20,넌 몰인정해,5,Green,B,2.541666666666667,2.066666666666667,ScrollUp,ScrollDown,Green.png,5,Negative,Congruent,0,0,0,0,,,,,,,,,,,,,,,,,,,,,,,,,,,,,0,19,19,19,,,,,,,,,,,,,,,,,,,,,,,,,,,,,,,,,,,,,,,,,,,,,,,,,,,,,,,,,,,,,,,,,,,,,2,1.0231504999974277,668.5680968000088,None,ScrollUp,정답입니다,668.5680968000088,None,668.5680968000088,None,668.5680968000088,None,668.5680968000088,None,669.4816451999941,None,669.4816451999941,669.981531700003,,,,,,,,,,,,,,,,105,2022-04-29_16h52.03.675,FishGame,2022.1.1,60.03669442048244,
,21,나를 데려가줘,6,Green,B,0,0,ScrollDown,ScrollUp,Green.png,5,NonTarget,NonTarget,0,0,0,0,,,,,,,,,,,,,,,,,,,,,,,,,,,,,0,20,20,20,,,,,,,,,,,,,,,,,,,,,,,,,,,,,,,,,,,,,,,,,,,,,,,,,,,,,,,,,,,,,,,,,,,,,1,1.1409694000030868,670.6124615000153,None,ScrollDown,정답입니다,670.6124615000153,None,670.6124615000153,None,670.6124615000153,None,670.6124615000153,None,671.6484162000124,None,671.6484162000124,672.1487846999953,,,,,,,,,,,,,,,,105,2022-04-29_16h52.03.675,FishGame,2022.1.1,60.03669442048244,
,22,넌 순진해,3,Green,B,4.125,4.166666666666667,ScrollUp,ScrollDown,Green.png,5,Neutral,Neutral,0,0,0,0,,,,,,,,,,,,,,,,,,,,,,,,,,,,,0,21,21,21,,,,,,,,,,,,,,,,,,,,,,,,,,,,,,,,,,,,,,,,,,,,,,,,,,,,,,,,,,,,,,,,,,,,,2,1.073136799997883,672.779186300002,None,ScrollUp,정답입니다,672.779186300002,None,672.779186300002,None,672.779186300002,None,672.779186300002,None,673.7479708000028,None,673.7479708000028,674.2490051999921,,,,,,,,,,,,,,,,105,2022-04-29_16h52.03.675,FishGame,2022.1.1,60.03669442048244,
,23,넌 신뢰할만해,1,Orange,A,6.625,5.533333333333333,ScrollDown,ScrollUp,Orange.png,5,Positive,Congruent,0,0,0,0,,,,,,,,,,,,,,,,,,,,,,,,,,,,,0,22,22,22,,,,,,,,,,,,,,,,,,,,,,,,,,,,,,,,,,,,,,,,,,,,,,,,,,,,,,,,,,,,,,,,,,,,,1,1.3782344999781344,674.8927700000058,None,ScrollDown,정답입니다,674.8927700000058,None,674.8927700000058,None,674.8927700000058,None,674.8927700000058,None,676.1526986999961,None,676.1526986999961,676.6652532000153,,,,,,,,,,,,,,,,105,2022-04-29_16h52.03.675,FishGame,2022.1.1,60.03669442048244,
