name,TrialNum,Word,WordCategory,FishType,WordList,WordValence,WordReputation,CorrectResp,IncorrectResp,FishTypeFile,Round,WordType,Condition,LoopforOrange.thisRepN,LoopforOrange.thisTrialN,LoopforOrange.thisN,LoopforOrange.thisIndex,LoopForGreen.thisRepN,LoopForGreen.thisTrialN,LoopForGreen.thisN,LoopForGreen.thisIndex,GreenInstLoop.thisRepN,GreenInstLoop.thisTrialN,GreenInstLoop.thisN,GreenInstLoop.thisIndex,GreenPrac.thisRepN,GreenPrac.thisTrialN,GreenPrac.thisN,GreenPrac.thisIndex,trials_2.thisRepN,trials_2.thisTrialN,trials_2.thisN,trials_2.thisIndex,GreenRound1.thisRepN,GreenRound1.thisTrialN,GreenRound1.thisN,GreenRound1.thisIndex,GreenRound2.thisRepN,GreenRound2.thisTrialN,GreenRound2.thisN,GreenRound2.thisIndex,GreenRound3.thisRepN,GreenRound3.thisTrialN,GreenRound3.thisN,GreenRound3.thisIndex,GreenRound4.thisRepN,GreenRound4.thisTrialN,GreenRound4.thisN,GreenRound4.thisIndex,GreenRound5.thisRepN,GreenRound5.thisTrialN,GreenRound5.thisN,GreenRound5.thisIndex,text_2.started,text_2.stopped,text_3.started,text_3.stopped,key_resp.keys,key_resp.rt,key_resp.started,key_resp.stopped,PassI.started,PassI.stopped,PassInst.keys,PassInst.rt,PassInst.started,PassInst.stopped,mouse_2.x,mouse_2.y,mouse_2.leftButton,mouse_2.midButton,mouse_2.rightButton,mouse_2.started,mouse_2.stopped,image.started,image.stopped,text_5.started,text_5.stopped,text_6.started,text_6.stopped,text_7.started,text_7.stopped,text_8.started,text_8.stopped,slider_3.response,slider_3.rt,slider_3.started,slider_3.stopped,Response_3,Feedback_3,BackGround_3.started,BackGround_3.stopped,Fish_3.started,Fish_3.stopped,WordBox_3.started,WordBox_3.stopped,Words_3.started,Words_3.stopped,BackGround_Feedback_3.started,BackGround_Feedback_3.stopped,Feedbacks_3.started,Feedbacks_3.stopped,Continue_or_not_2.keys,Continue_or_not_2.rt,Continue_or_not_2.started,Continue_or_not_2.stopped,image_4.started,image_4.stopped,mouse_3.x,mouse_3.y,mouse_3.leftButton,mouse_3.midButton,mouse_3.rightButton,mouse_3.started,mouse_3.stopped,startmain.started,startmain.stopped,slider_4.response,slider_4.rt,slider_4.started,slider_4.stopped,Response_4,Feedback_4,BackGround_4.started,BackGround_4.stopped,Fish_4.started,Fish_4.stopped,WordBox_4.started,WordBox_4.stopped,Words_4.started,Words_4.stopped,BackGround_Feedback_4.started,BackGround_Feedback_4.stopped,Feedbacks_4.started,Feedbacks_4.stopped,text.started,text.stopped,break_interval.started,break_interval.stopped,mouse.x,mouse.y,mouse.leftButton,mouse.midButton,mouse.rightButton,mouse.started,mouse.stopped,stratnextround.started,stratnextround.stopped,endgame.started,endgame.stopped,participant,date,expName,psychopyVersion,frameRate,
,,,,,,,,,,,,,,,,,,,,,,,,,,,,,,,,,,,,,,,,,,,,,,,,,,,,,,23.760807100014063,None,23.760807100014063,None,space,0.7299178000248503,24.228989800001727,None,,,,,,,,,,,,,,,,,,,,,,,,,,,,,,,,,,,,,,,,,,,,,,,,,,,,,,,,,,,,,,,,,,,,,,,,,,,,,,,,,,,,,,,,,,106,2022-04-29_18h37.10.556,FishGame,2022.1.1,59.83158605081493,
물고기과제_instruction(참가자용)GreenVersion.mp4,,,,,,,,,,,,,,,,,,0,0,0,0,0,0,0,0,,,,,,,,,,,,,,,,,,,,,,,,,,,,,,,,,,,,,91.64255240000784,None,n,7.282961599994451,91.64255240000784,None,,,,,,,,,,,,,,,,,,,,,,,,,,,,,,,,,,,,,,,,,,,,,,,,,,,,,,,,,,,,,,,,,,,,,,,,,,,,,,,,,,,,106,2022-04-29_18h37.10.556,FishGame,2022.1.1,59.83158605081493,
,1,넌 교활해,5,Orange,B,2.333333333333333,2.133333333333333,ScrollUp,ScrollDown,Orange.png,practice,,,,,,,0,0,0,0,,,,,0,0,0,0,0,0,0,0,,,,,,,,,,,,,,,,,,,,,,,,,,,,,,,,,,,0.053703703,-0.22870371,1,0,0,0.5132575400057249,None,98.9467174000165,None,113.93086370002129,115.43057860000408,115.46423979999963,116.41400160000194,116.46440820000134,117.41413360001752,117.41413360001752,None,1.182098776102066,2.14549180000904,118.5758507999999,None,ScrollDown,오답입니다,118.5758507999999,None,118.5758507999999,None,118.5758507999999,None,118.5758507999999,None,120.5545954000263,None,120.5545954000263,121.06357880000724,,,,,,,,,,,,,,,,,,,,,,,,,,,,,,,,,,,,,,,,,,,,,,,,,106,2022-04-29_18h37.10.556,FishGame,2022.1.1,59.83158605081493,
,2,넌 슬기로워,2,Green,A,6.166666666666667,4.1,ScrollDown,ScrollUp,Green.png,practice,,,,,,,0,0,0,0,,,,,0,0,0,0,0,1,1,1,,,,,,,,,,,,,,,,,,,,,,,,,,,,,,,,,,,,,,,,,,,,,,,,,,,,1,1.4136720000242349,121.6948957000277,None,ScrollDown,정답입니다,121.6948957000277,None,121.6948957000277,None,121.6948957000277,None,121.6948957000277,None,123.00242070000968,None,123.00242070000968,123.51382130000275,,,,,,,,,,,,,,,,,,,,,,,,,,,,,,,,,,,,,,,,,,,,,,,,,106,2022-04-29_18h37.10.556,FishGame,2022.1.1,59.83158605081493,
,3,나를 보내줘,6,Green,A,0,0,ScrollUp,ScrollDown,Green.png,practice,,,,,,,0,0,0,0,,,,,0,0,0,0,0,2,2,2,,,,,,,,,,,,,,,,,,,,,,,,,,,,,,,,,,,,,,,,,,,,,,,,,,,,1.7299382785956063,1.8658640999929048,124.14970770000946,None,ScrollUp,정답입니다,124.14970770000946,None,124.14970770000946,None,124.14970770000946,None,124.14970770000946,None,125.90174620001926,None,125.90174620001926,126.4140405000071,,,,,,,,,,,,,,,,,,,,,,,,,,,,,,,,,,,,,,,,,,,,,,,,,106,2022-04-29_18h37.10.556,FishGame,2022.1.1,59.83158605081493,
,4,나를 데려가줘,6,Orange,B,0,0,ScrollDown,ScrollUp,Orange.png,practice,,,,,,,0,0,0,0,,,,,0,0,0,0,0,3,3,3,,,,,,,,,,,,,,,,,,,,,,,,,,,,,,,,,,,,,,,,,,,,,,,,,,,,1.0262345671653748,1.2699953000119422,127.05034440002055,None,ScrollDown,정답입니다,127.05034440002055,None,127.05034440002055,None,127.05034440002055,None,127.05034440002055,None,128.21077750000404,None,128.21077750000404,128.71464590000687,,,,,,,,,,,,,,,,,,,,,,,,,,,,,,,,,,,,,,,,,,,,,,,,,106,2022-04-29_18h37.10.556,FishGame,2022.1.1,59.83158605081493,
,1,넌 교활해,5,Orange,B,2.333333333333333,2.133333333333333,ScrollUp,ScrollDown,Orange.png,practice,,,,,,,0,0,0,0,,,,,0,0,0,0,,,,,,,,,,,,,,,,,,,,,,,,,,,,,,,,,,,,,,,,,,,,,,,,,,,,,,,,,,,,,,,,,,,,,,,,,,n,9.974420799990185,129.21337000001222,None,129.21337000001222,None,,,,,,,,,,,,,,,,,,,,,,,,,,,,,,,,,,,,,,,,,,,106,2022-04-29_18h37.10.556,FishGame,2022.1.1,59.83158605081493,
,1,넌 따뜻해,1,Orange,B,6.083333333333333,5.6,ScrollUp,ScrollDown,Orange.png,1,Positive,Incongruent,,,,,0,0,0,0,,,,,,,,,,,,,0,0,0,0,,,,,,,,,,,,,,,,,,,,,,,,,,,,,,,,,,,,,,,,146.21456440002657,147.71436060001724,147.74815180001315,148.69788730001892,148.74768120000954,149.6979401000135,149.6979401000135,None,,,,,,,,,,,,,,,,,,,,,,,,,-0.024074074,-0.12314815,1,0,0,0.31366293999599293,None,139.2142350000213,None,1.2037036965290706,1.6532539000036195,150.88502290000906,None,ScrollDown,오답입니다,150.88502290000906,None,150.88502290000906,None,150.88502290000906,None,150.88502290000906,None,152.34906560002128,None,152.34906560002128,152.8650300000154,,,,,,,,,,,,,,,,106,2022-04-29_18h37.10.556,FishGame,2022.1.1,59.83158605081493,
,2,넌 기품있어,2,Orange,B,5.791666666666668,4.5,ScrollUp,ScrollDown,Orange.png,1,Positive,Incongruent,,,,,0,0,0,0,,,,,,,,,,,,,0,1,1,1,,,,,,,,,,,,,,,,,,,,,,,,,,,,,,,,,,,,,,,,,,,,,,,,,,,,,,,,,,,,,,,,,,,,,,,,,,,,,,,,,1.5771604912976422,1.08797950000735,153.4974989000184,None,ScrollUp,정답입니다,153.4974989000184,None,153.4974989000184,None,153.4974989000184,None,153.4974989000184,None,154.45886660000542,None,154.45886660000542,154.96490260001156,,,,,,,,,,,,,,,,106,2022-04-29_18h37.10.556,FishGame,2022.1.1,59.83158605081493,
,3,나를 보내줘,6,Green,A,0,0,ScrollUp,ScrollDown,Green.png,1,NonTarget,NonTarget,,,,,0,0,0,0,,,,,,,,,,,,,0,2,2,2,,,,,,,,,,,,,,,,,,,,,,,,,,,,,,,,,,,,,,,,,,,,,,,,,,,,,,,,,,,,,,,,,,,,,,,,,,,,,,,,,1.5972222226361432,1.2450946999888401,155.60600390000036,None,ScrollUp,정답입니다,155.60600390000036,None,155.60600390000036,None,155.60600390000036,None,155.60600390000036,None,156.73057930002687,None,156.73057930002687,157.2311691000068,,,,,,,,,,,,,,,,106,2022-04-29_18h37.10.556,FishGame,2022.1.1,59.83158605081493,
,4,넌 수동적이야,4,Green,A,2.833333333333333,2.933333333333333,ScrollDown,ScrollUp,Green.png,1,Negative,Incongruent,,,,,0,0,0,0,,,,,,,,,,,,,0,3,3,3,,,,,,,,,,,,,,,,,,,,,,,,,,,,,,,,,,,,,,,,,,,,,,,,,,,,,,,,,,,,,,,,,,,,,,,,,,,,,,,,,1.5555555584530034,1.2525312000070699,157.8754924000241,None,ScrollUp,오답입니다,157.8754924000241,None,157.8754924000241,None,157.8754924000241,None,157.8754924000241,None,159.00510790001135,None,159.00510790001135,159.51454310002737,,,,,,,,,,,,,,,,106,2022-04-29_18h37.10.556,FishGame,2022.1.1,59.83158605081493,
,5,넌 사심이 없어,3,Orange,B,4.916666666666666,4.333333333333333,ScrollUp,ScrollDown,Orange.png,1,Neutral,Neutral,,,,,0,0,0,0,,,,,,,,,,,,,0,4,4,4,,,,,,,,,,,,,,,,,,,,,,,,,,,,,,,,,,,,,,,,,,,,,,,,,,,,,,,,,,,,,,,,,,,,,,,,,,,,,,,,,1.4753086424122255,1.4531212000001688,160.1606271000055,None,NoResponse,무응답입니다,160.1606271000055,None,160.1606271000055,None,160.1606271000055,None,160.1606271000055,None,161.49165330000687,None,161.49165330000687,161.99738960000104,,,,,,,,,,,,,,,,106,2022-04-29_18h37.10.556,FishGame,2022.1.1,59.83158605081493,
,6,넌 헤퍼,5,Green,A,2.458333333333334,2.233333333333333,ScrollDown,ScrollUp,Green.png,1,Negative,Incongruent,,,,,0,0,0,0,,,,,,,,,,,,,0,5,5,5,,,,,,,,,,,,,,,,,,,,,,,,,,,,,,,,,,,,,,,,,,,,,,,,,,,,,,,,,,,,,,,,,,,,,,,,,,,,,,,,,1.2268518557151158,1.0352172999992035,162.63980530001572,None,ScrollDown,정답입니다,162.63980530001572,None,162.63980530001572,None,162.63980530001572,None,162.63980530001572,None,163.5550236000272,None,163.5550236000272,164.06488760001957,,,,,,,,,,,,,,,,106,2022-04-29_18h37.10.556,FishGame,2022.1.1,59.83158605081493,
,7,넌 말쑥해,3,Green,A,4.833333333333334,4.333333333333333,ScrollDown,ScrollUp,Green.png,1,Neutral,Neutral,,,,,0,0,0,0,,,,,,,,,,,,,0,6,6,6,,,,,,,,,,,,,,,,,,,,,,,,,,,,,,,,,,,,,,,,,,,,,,,,,,,,,,,,,,,,,,,,,,,,,,,,,,,,,,,,,1.1327160547176998,1.0499849999905564,164.70609220000915,None,ScrollDown,정답입니다,164.70609220000915,None,164.70609220000915,None,164.70609220000915,None,164.70609220000915,None,165.63579040000332,None,165.63579040000332,166.14850900002057,,,,,,,,,,,,,,,,106,2022-04-29_18h37.10.556,FishGame,2022.1.1,59.83158605081493,
,8,넌 투덜거려,5,Orange,B,2.541666666666667,2.266666666666667,ScrollUp,ScrollDown,Orange.png,1,Negative,Congruent,,,,,0,0,0,0,,,,,,,,,,,,,0,7,7,7,,,,,,,,,,,,,,,,,,,,,,,,,,,,,,,,,,,,,,,,,,,,,,,,,,,,,,,,,,,,,,,,,,,,,,,,,,,,,,,,,1.5154320988804102,1.1878578999894671,166.79418590001296,None,NoResponse,무응답입니다,166.79418590001296,None,166.79418590001296,None,166.79418590001296,None,166.79418590001296,None,167.8577264000196,None,167.8577264000196,168.3647671000217,,,,,,,,,,,,,,,,106,2022-04-29_18h37.10.556,FishGame,2022.1.1,59.83158605081493,
,9,넌 적극적이야,1,Green,A,5.708333333333333,5.533333333333333,ScrollDown,ScrollUp,Green.png,1,Positive,Congruent,,,,,0,0,0,0,,,,,,,,,,,,,0,8,8,8,,,,,,,,,,,,,,,,,,,,,,,,,,,,,,,,,,,,,,,,,,,,,,,,,,,,,,,,,,,,,,,,,,,,,,,,,,,,,,,,,1.0709876716136932,1.0487479000003077,169.00017870002193,None,ScrollDown,정답입니다,169.00017870002193,None,169.00017870002193,None,169.00017870002193,None,169.00017870002193,None,169.93652700001257,None,169.93652700001257,170.44803710002452,,,,,,,,,,,,,,,,106,2022-04-29_18h37.10.556,FishGame,2022.1.1,59.83158605081493,
,10,넌 재미없어,4,Orange,B,2.625,2.966666666666667,ScrollUp,ScrollDown,Orange.png,1,Negative,Congruent,,,,,0,0,0,0,,,,,,,,,,,,,0,9,9,9,,,,,,,,,,,,,,,,,,,,,,,,,,,,,,,,,,,,,,,,,,,,,,,,,,,,,,,,,,,,,,,,,,,,,,,,,,,,,,,,,1.5663580248753228,0.875488999998197,171.090620700008,None,ScrollUp,정답입니다,171.090620700008,None,171.090620700008,None,171.090620700008,None,171.090620700008,None,171.84782620001351,None,171.84782620001351,172.34819680001237,,,,,,,,,,,,,,,,106,2022-04-29_18h37.10.556,FishGame,2022.1.1,59.83158605081493,
,11,넌 명석해,2,Green,A,5.875,4.033333333333333,ScrollDown,ScrollUp,Green.png,1,Positive,Congruent,,,,,0,0,0,0,,,,,,,,,,,,,0,10,10,10,,,,,,,,,,,,,,,,,,,,,,,,,,,,,,,,,,,,,,,,,,,,,,,,,,,,,,,,,,,,,,,,,,,,,,,,,,,,,,,,,1.2839506218830743,0.9330370999814477,172.98993300000438,None,ScrollDown,정답입니다,172.98993300000438,None,172.98993300000438,None,172.98993300000438,None,172.98993300000438,None,173.80218220001552,None,173.80218220001552,174.31454200000735,,,,,,,,,,,,,,,,106,2022-04-29_18h37.10.556,FishGame,2022.1.1,59.83158605081493,
,12,나를 데려가줘,6,Orange,B,0,0,ScrollDown,ScrollUp,Orange.png,1,NonTarget,NonTarget,,,,,0,0,0,0,,,,,,,,,,,,,0,11,11,11,,,,,,,,,,,,,,,,,,,,,,,,,,,,,,,,,,,,,,,,,,,,,,,,,,,,,,,,,,,,,,,,,,,,,,,,,,,,,,,,,1.2499999900658925,1.426501499983715,174.95697890000883,None,ScrollDown,정답입니다,174.95697890000883,None,174.95697890000883,None,174.95697890000883,None,174.95697890000883,None,176.26423450000584,None,176.26423450000584,176.76563480001641,,,,,,,,,,,,,,,,106,2022-04-29_18h37.10.556,FishGame,2022.1.1,59.83158605081493,
,13,넌 소심해,4,Green,A,3,3.1,ScrollDown,ScrollUp,Green.png,1,Negative,Incongruent,,,,,0,0,0,0,,,,,,,,,,,,,0,12,12,12,,,,,,,,,,,,,,,,,,,,,,,,,,,,,,,,,,,,,,,,,,,,,,,,,,,,,,,,,,,,,,,,,,,,,,,,,,,,,,,,,1.2299382835626602,1.3806891000131145,177.3982556000119,None,ScrollDown,정답입니다,177.3982556000119,None,177.3982556000119,None,177.3982556000119,None,177.3982556000119,None,178.66932830002042,None,178.66932830002042,179.18172540000523,,,,,,,,,,,,,,,,106,2022-04-29_18h37.10.556,FishGame,2022.1.1,59.83158605081493,
,14,넌 합리적이야,2,Green,A,5.583333333333333,4.733333333333333,ScrollDown,ScrollUp,Green.png,1,Positive,Congruent,,,,,0,0,0,0,,,,,,,,,,,,,0,13,13,13,,,,,,,,,,,,,,,,,,,,,,,,,,,,,,,,,,,,,,,,,,,,,,,,,,,,,,,,,,,,,,,,,,,,,,,,,,,,,,,,,1.194444437821706,0.8814524000044912,179.82167660002597,None,ScrollDown,정답입니다,179.82167660002597,None,179.82167660002597,None,179.82167660002597,None,179.82167660002597,None,180.585994699999,None,180.585994699999,181.09859630002757,,,,,,,,,,,,,,,,106,2022-04-29_18h37.10.556,FishGame,2022.1.1,59.83158605081493,
,15,넌 무자비해,5,Orange,B,2.333333333333333,2.1,ScrollUp,ScrollDown,Orange.png,1,Negative,Congruent,,,,,0,0,0,0,,,,,,,,,,,,,0,14,14,14,,,,,,,,,,,,,,,,,,,,,,,,,,,,,,,,,,,,,,,,,,,,,,,,,,,,,,,,,,,,,,,,,,,,,,,,,,,,,,,,,1.632716049750646,1.18931829999201,181.74061410001013,None,ScrollUp,정답입니다,181.74061410001013,None,181.74061410001013,None,181.74061410001013,None,181.74061410001013,None,182.81429460001527,None,182.81429460001527,183.31489370000781,,,,,,,,,,,,,,,,106,2022-04-29_18h37.10.556,FishGame,2022.1.1,59.83158605081493,
,16,나를 보내줘,6,Green,A,0,0,ScrollUp,ScrollDown,Green.png,1,NonTarget,NonTarget,,,,,0,0,0,0,,,,,,,,,,,,,0,15,15,15,,,,,,,,,,,,,,,,,,,,,,,,,,,,,,,,,,,,,,,,,,,,,,,,,,,,,,,,,,,,,,,,,,,,,,,,,,,,,,,,,1.652777781089147,1.4666203000233509,183.9449997000047,None,ScrollUp,정답입니다,183.9449997000047,None,183.9449997000047,None,183.9449997000047,None,183.9449997000047,None,185.30271899999934,None,185.30271899999934,185.81532520000474,,,,,,,,,,,,,,,,106,2022-04-29_18h37.10.556,FishGame,2022.1.1,59.83158605081493,
,17,넌 현실적이야,3,Orange,B,4.608695652173913,4.766666666666667,ScrollUp,ScrollDown,Orange.png,1,Neutral,Neutral,,,,,0,0,0,0,,,,,,,,,,,,,0,16,16,16,,,,,,,,,,,,,,,,,,,,,,,,,,,,,,,,,,,,,,,,,,,,,,,,,,,,,,,,,,,,,,,,,,,,,,,,,,,,,,,,,1.6682098706563315,1.9925298999878578,186.46285770001123,None,ScrollUp,정답입니다,186.46285770001123,None,186.46285770001123,None,186.46285770001123,None,186.46285770001123,None,188.3311412000039,None,188.3311412000039,188.83134310002788,,,,,,,,,,,,,,,,106,2022-04-29_18h37.10.556,FishGame,2022.1.1,59.83158605081493,
,18,넌 의리있어,1,Orange,B,5.833333333333334,5.633333333333334,ScrollUp,ScrollDown,Orange.png,1,Positive,Incongruent,,,,,0,0,0,0,,,,,,,,,,,,,0,17,17,17,,,,,,,,,,,,,,,,,,,,,,,,,,,,,,,,,,,,,,,,,,,,,,,,,,,,,,,,,,,,,,,,,,,,,,,,,,,,,,,,,1.4891975312493742,0.9490846000262536,189.4765423000208,None,NoResponse,무응답입니다,189.4765423000208,None,189.4765423000208,None,189.4765423000208,None,189.4765423000208,None,190.3053972000198,None,190.3053972000198,190.81509950000327,,,,,,,,,,,,,,,,106,2022-04-29_18h37.10.556,FishGame,2022.1.1,59.83158605081493,
,19,넌 신경과민이야,5,Green,A,2.541666666666667,2.166666666666667,ScrollDown,ScrollUp,Green.png,1,Negative,Incongruent,,,,,0,0,0,0,,,,,,,,,,,,,0,18,18,18,,,,,,,,,,,,,,,,,,,,,,,,,,,,,,,,,,,,,,,,,,,,,,,,,,,,,,,,,,,,,,,,,,,,,,,,,,,,,,,,,1.367283950249354,2.3506494000030216,191.465188400005,None,ScrollDown,정답입니다,191.465188400005,None,191.465188400005,None,191.465188400005,None,191.465188400005,None,193.68808390002232,None,193.68808390002232,194.1988937999995,,,,,,,,,,,,,,,,106,2022-04-29_18h37.10.556,FishGame,2022.1.1,59.83158605081493,
,20,넌 편안해,1,Green,A,5.916666666666666,5.866666666666666,ScrollDown,ScrollUp,Green.png,1,Positive,Congruent,,,,,0,0,0,0,,,,,,,,,,,,,0,19,19,19,,,,,,,,,,,,,,,,,,,,,,,,,,,,,,,,,,,,,,,,,,,,,,,,,,,,,,,,,,,,,,,,,,,,,,,,,,,,,,,,,1.1867283930381138,1.3542495000001509,194.834805600025,None,ScrollDown,정답입니다,194.834805600025,None,194.834805600025,None,194.834805600025,None,194.834805600025,None,196.0783229000226,None,196.0783229000226,196.58233800000744,,,,,,,,,,,,,,,,106,2022-04-29_18h37.10.556,FishGame,2022.1.1,59.83158605081493,
,21,넌 품위있어,2,Orange,B,5.291666666666666,4.466666666666667,ScrollUp,ScrollDown,Orange.png,1,Positive,Incongruent,,,,,0,0,0,0,,,,,,,,,,,,,0,20,20,20,,,,,,,,,,,,,,,,,,,,,,,,,,,,,,,,,,,,,,,,,,,,,,,,,,,,,,,,,,,,,,,,,,,,,,,,,,,,,,,,,1.5308641977608204,1.1580538999987766,197.22144079999998,None,NoResponse,무응답입니다,197.22144079999998,None,197.22144079999998,None,197.22144079999998,None,197.22144079999998,None,198.26503160002176,None,198.26503160002176,198.7657184000127,,,,,,,,,,,,,,,,106,2022-04-29_18h37.10.556,FishGame,2022.1.1,59.83158605081493,
,22,넌 빈틈없어,3,Green,A,4.833333333333333,3.966666666666667,ScrollDown,ScrollUp,Green.png,1,Neutral,Neutral,,,,,0,0,0,0,,,,,,,,,,,,,0,21,21,21,,,,,,,,,,,,,,,,,,,,,,,,,,,,,,,,,,,,,,,,,,,,,,,,,,,,,,,,,,,,,,,,,,,,,,,,,,,,,,,,,1.2654321044683456,0.8863317999930587,199.40257720000227,None,ScrollDown,정답입니다,199.40257720000227,None,199.40257720000227,None,199.40257720000227,None,199.40257720000227,None,200.17365000001155,None,200.17365000001155,200.68269250000594,,,,,,,,,,,,,,,,106,2022-04-29_18h37.10.556,FishGame,2022.1.1,59.83158605081493,
,23,넌 상상력없어,4,Orange,B,2.833333333333333,3.133333333333333,ScrollUp,ScrollDown,Orange.png,1,Negative,Congruent,,,,,0,0,0,0,,,,,,,,,,,,,0,22,22,22,,,,,,,,,,,,,,,,,,,,,,,,,,,,,,,,,,,,,,,,,,,,,,,,,,,,,,,,,,,,,,,,,,,,,,,,,,,,,,,,,1.8302469104528427,1.077817099983804,201.32444130000658,None,ScrollUp,정답입니다,201.32444130000658,None,201.32444130000658,None,201.32444130000658,None,201.32444130000658,None,202.28599570001825,None,202.28599570001825,202.7985707000189,,,,,,,,,,,,,,,,106,2022-04-29_18h37.10.556,FishGame,2022.1.1,59.83158605081493,
,24,넌 지혜로워,2,Orange,B,6.333333333333334,4.633333333333334,ScrollUp,ScrollDown,Orange.png,1,Positive,Incongruent,,,,,0,0,0,0,,,,,,,,,,,,,0,23,23,23,,,,,,,,,,,,,,,,,,,,,,,,,,,,,,,,,,,,,,,,,,,,,,,,,,,,,,,,,,,,,,,,,,,,,,,,,,,,,,,,,1.604938273628553,0.957530499988934,203.44565460001468,None,ScrollUp,정답입니다,203.44565460001468,None,203.44565460001468,None,203.44565460001468,None,203.44565460001468,None,204.28179190002265,None,204.28179190002265,204.7826355000143,,,,,,,,,,,,,,,,106,2022-04-29_18h37.10.556,FishGame,2022.1.1,59.83158605081493,
,25,넌 시끄러워,4,Green,A,2.833333333333333,3.033333333333333,ScrollDown,ScrollUp,Green.png,1,Negative,Incongruent,,,,,0,0,0,0,,,,,,,,,,,,,0,24,24,24,,,,,,,,,,,,,,,,,,,,,,,,,,,,,,,,,,,,,,,,,,,,,,,,,,,,,,,,,,,,,,,,,,,,,,,,,,,,,,,,,1.2083333383003871,1.1721440000110306,205.42372190000606,None,ScrollDown,정답입니다,205.42372190000606,None,205.42372190000606,None,205.42372190000606,None,205.42372190000606,None,206.48175510001602,None,206.48175510001602,206.98252930000308,,,,,,,,,,,,,,,,106,2022-04-29_18h37.10.556,FishGame,2022.1.1,59.83158605081493,
,26,넌 만사태평이야,3,Orange,B,4,4.333333333333333,ScrollUp,ScrollDown,Orange.png,1,Neutral,Neutral,,,,,0,0,0,0,,,,,,,,,,,,,0,25,25,25,,,,,,,,,,,,,,,,,,,,,,,,,,,,,,,,,,,,,,,,,,,,,,,,,,,,,,,,,,,,,,,,,,,,,,,,,,,,,,,,,1.5169753081475696,1.1260894000006374,207.6232263999991,None,NoResponse,무응답입니다,207.6232263999991,None,207.6232263999991,None,207.6232263999991,None,207.6232263999991,None,208.6361348000064,None,208.6361348000064,209.14907600000151,,,,,,,,,,,,,,,,106,2022-04-29_18h37.10.556,FishGame,2022.1.1,59.83158605081493,
,27,넌 붙임성있어,1,Green,A,5.708333333333333,5.633333333333334,ScrollDown,ScrollUp,Green.png,1,Positive,Congruent,,,,,0,0,0,0,,,,,,,,,,,,,0,26,26,26,,,,,,,,,,,,,,,,,,,,,,,,,,,,,,,,,,,,,,,,,,,,,,,,,,,,,,,,,,,,,,,,,,,,,,,,,,,,,,,,,1.174382706483205,2.2318033000046853,209.7889725000132,None,ScrollDown,정답입니다,209.7889725000132,None,209.7889725000132,None,209.7889725000132,None,209.7889725000132,None,211.9053804000141,None,211.9053804000141,212.41534330000286,,,,,,,,,,,,,,,,106,2022-04-29_18h37.10.556,FishGame,2022.1.1,59.83158605081493,
,28,넌 영리해,2,Green,A,6,4.033333333333333,ScrollDown,ScrollUp,Green.png,1,Positive,Congruent,,,,,0,0,0,0,,,,,,,,,,,,,0,27,27,27,,,,,,,,,,,,,,,,,,,,,,,,,,,,,,,,,,,,,,,,,,,,,,,,,,,,,,,,,,,,,,,,,,,,,,,,,,,,,,,,,1,1.7734313000109978,213.05011430001468,None,ScrollDown,정답입니다,213.05011430001468,None,213.05011430001468,None,213.05011430001468,None,213.05011430001468,None,214.71527900002548,None,214.71527900002548,215.21595570002683,,,,,,,,,,,,,,,,106,2022-04-29_18h37.10.556,FishGame,2022.1.1,59.83158605081493,
,29,넌 열심이야,1,Orange,B,6.041666666666667,5.833333333333333,ScrollUp,ScrollDown,Orange.png,1,Positive,Incongruent,,,,,0,0,0,0,,,,,,,,,,,,,0,28,28,28,,,,,,,,,,,,,,,,,,,,,,,,,,,,,,,,,,,,,,,,,,,,,,,,,,,,,,,,,,,,,,,,,,,,,,,,,,,,,,,,,1.9753086467583973,0.887707899993984,215.85399060000782,None,ScrollUp,정답입니다,215.85399060000782,None,215.85399060000782,None,215.85399060000782,None,215.85399060000782,None,216.62897060002433,None,216.62897060002433,217.13229200002388,,,,,,,,,,,,,,,,106,2022-04-29_18h37.10.556,FishGame,2022.1.1,59.83158605081493,
,30,넌 인기없어,4,Orange,B,3,3.3,ScrollUp,ScrollDown,Orange.png,1,Negative,Congruent,,,,,0,0,0,0,,,,,,,,,,,,,0,29,29,29,,,,,,,,,,,,,,,,,,,,,,,,,,,,,,,,,,,,,,,,,,,,,,,,,,,,,,,,,,,,,,,,,,,,,,,,,,,,,,,,,1.939814825852712,0.8235870999924373,217.77069880001363,None,ScrollUp,정답입니다,217.77069880001363,None,217.77069880001363,None,217.77069880001363,None,217.77069880001363,None,218.4822167000093,None,218.4822167000093,218.98251860000892,,,,,,,,,,,,,,,,106,2022-04-29_18h37.10.556,FishGame,2022.1.1,59.83158605081493,
,31,넌 익살스러워,3,Green,A,4.708333333333334,4.833333333333333,ScrollDown,ScrollUp,Green.png,1,Neutral,Neutral,,,,,0,0,0,0,,,,,,,,,,,,,0,30,30,30,,,,,,,,,,,,,,,,,,,,,,,,,,,,,,,,,,,,,,,,,,,,,,,,,,,,,,,,,,,,,,,,,,,,,,,,,,,,,,,,,1.1141975373029709,0.9818151999788824,219.62039690001984,None,ScrollDown,정답입니다,219.62039690001984,None,219.62039690001984,None,219.62039690001984,None,219.62039690001984,None,220.4866091000149,None,220.4866091000149,220.9986659999995,,,,,,,,,,,,,,,,106,2022-04-29_18h37.10.556,FishGame,2022.1.1,59.83158605081493,
,32,넌 이기적이야,5,Orange,B,2.291666666666667,2.333333333333333,ScrollUp,ScrollDown,Orange.png,1,Negative,Congruent,,,,,0,0,0,0,,,,,,,,,,,,,0,31,31,31,,,,,,,,,,,,,,,,,,,,,,,,,,,,,,,,,,,,,,,,,,,,,,,,,,,,,,,,,,,,,,,,,,,,,,,,,,,,,,,,,2,0.8441061999765225,221.63927770001465,None,ScrollUp,정답입니다,221.63927770001465,None,221.63927770001465,None,221.63927770001465,None,221.63927770001465,None,222.36597930002608,None,222.36597930002608,222.86630880000303,,,,,,,,,,,,,,,,106,2022-04-29_18h37.10.556,FishGame,2022.1.1,59.83158605081493,
,33,나를 데려가줘,6,Orange,B,0,0,ScrollDown,ScrollUp,Orange.png,1,NonTarget,NonTarget,,,,,0,0,0,0,,,,,,,,,,,,,0,32,32,32,,,,,,,,,,,,,,,,,,,,,,,,,,,,,,,,,,,,,,,,,,,,,,,,,,,,,,,,,,,,,,,,,,,,,,,,,,,,,,,,,2,0.8654390999872703,223.50188360002358,None,ScrollUp,오답입니다,223.50188360002358,None,223.50188360002358,None,223.50188360002358,None,223.50188360002358,None,224.25432860001456,None,224.25432860001456,224.7656408000039,,,,,,,,,,,,,,,,106,2022-04-29_18h37.10.556,FishGame,2022.1.1,59.83158605081493,
,34,넌 기회주의자야,5,Green,A,2.875,2.133333333333333,ScrollDown,ScrollUp,Green.png,1,Negative,Incongruent,,,,,0,0,0,0,,,,,,,,,,,,,0,33,33,33,,,,,,,,,,,,,,,,,,,,,,,,,,,,,,,,,,,,,,,,,,,,,,,,,,,,,,,,,,,,,,,,,,,,,,,,,,,,,,,,,1.1728395173947017,0.9131963000108954,225.4068016000092,None,ScrollDown,정답입니다,225.4068016000092,None,225.4068016000092,None,225.4068016000092,None,225.4068016000092,None,226.20348690001993,None,226.20348690001993,226.7155899000063,,,,,,,,,,,,,,,,106,2022-04-29_18h37.10.556,FishGame,2022.1.1,59.83158605081493,
,1,넌 미성숙해,4,Green,A,3,3.2,ScrollDown,ScrollUp,Green.png,2,Negative,Incongruent,,,,,0,0,0,0,,,,,,,,,,,,,,,,,0,0,0,0,,,,,,,,,,,,,,,,,,,,,,,,,,,,,,,,,,,,260.7835646000167,262.28410860002623,262.3170243000204,263.2668764000118,263.31696440000087,264.2670022000093,264.2670022000093,None,,,,,,,,,,,,,,,,,,,,,,,,,,,,,,,,,,1,2.672179099987261,265.42369140000665,None,ScrollDown,정답입니다,265.42369140000665,None,265.42369140000665,None,265.42369140000665,None,265.42369140000665,None,267.9332411000214,None,267.9332411000214,268.4335498000146,227.2157480000169,None,227.2157480000169,None,0.031481482,-0.06666667,1,0,0,0.01589444003184326,None,257.2167690000206,None,,,106,2022-04-29_18h37.10.556,FishGame,2022.1.1,59.83158605081493,
,2,넌 반사회적이야,5,Orange,B,2.416666666666667,2.033333333333333,ScrollUp,ScrollDown,Orange.png,2,Negative,Congruent,,,,,0,0,0,0,,,,,,,,,,,,,,,,,0,1,1,1,,,,,,,,,,,,,,,,,,,,,,,,,,,,,,,,,,,,,,,,,,,,,,,,,,,,,,,,,,,,,,,,,,,,,,,,,,,,,1.8302469104528427,1.0559977999946568,269.07597510001506,None,ScrollUp,정답입니다,269.07597510001506,None,269.07597510001506,None,269.07597510001506,None,269.07597510001506,None,270.01658950001,None,270.01658950001,270.51689940001233,,,,,,,,,,,,,,,,106,2022-04-29_18h37.10.556,FishGame,2022.1.1,59.83158605081493,
,3,넌 유능해,2,Green,A,6.208333333333333,4.433333333333334,ScrollDown,ScrollUp,Green.png,2,Positive,Congruent,,,,,0,0,0,0,,,,,,,,,,,,,,,,,0,2,2,2,,,,,,,,,,,,,,,,,,,,,,,,,,,,,,,,,,,,,,,,,,,,,,,,,,,,,,,,,,,,,,,,,,,,,,,,,,,,,1.0848765472571056,0.910243399994215,271.15992430000915,None,ScrollDown,정답입니다,271.15992430000915,None,271.15992430000915,None,271.15992430000915,None,271.15992430000915,None,271.9501675000065,None,271.9501675000065,272.44974000001093,,,,,,,,,,,,,,,,106,2022-04-29_18h37.10.556,FishGame,2022.1.1,59.83158605081493,
,4,넌 능숙해,2,Orange,B,5.666666666666667,4.733333333333333,ScrollUp,ScrollDown,Orange.png,2,Positive,Incongruent,,,,,0,0,0,0,,,,,,,,,,,,,,,,,0,3,3,3,,,,,,,,,,,,,,,,,,,,,,,,,,,,,,,,,,,,,,,,,,,,,,,,,,,,,,,,,,,,,,,,,,,,,,,,,,,,,1.9814815024534862,1.0482566999853589,273.0934357000224,None,ScrollUp,정답입니다,273.0934357000224,None,273.0934357000224,None,273.0934357000224,None,273.0934357000224,None,274.02163100001053,None,274.02163100001053,274.5331816000107,,,,,,,,,,,,,,,,106,2022-04-29_18h37.10.556,FishGame,2022.1.1,59.83158605081493,
,5,넌 진부해,4,Orange,B,2.458333333333333,3.166666666666667,ScrollUp,ScrollDown,Orange.png,2,Negative,Congruent,,,,,0,0,0,0,,,,,,,,,,,,,,,,,0,4,4,4,,,,,,,,,,,,,,,,,,,,,,,,,,,,,,,,,,,,,,,,,,,,,,,,,,,,,,,,,,,,,,,,,,,,,,,,,,,,,2,1.1699602999724448,275.1798740000231,None,ScrollUp,정답입니다,275.1798740000231,None,275.1798740000231,None,275.1798740000231,None,275.1798740000231,None,276.2300382000103,None,276.2300382000103,276.73319400000037,,,,,,,,,,,,,,,,106,2022-04-29_18h37.10.556,FishGame,2022.1.1,59.83158605081493,
,6,나를 보내줘,6,Green,A,0,0,ScrollUp,ScrollDown,Green.png,2,NonTarget,NonTarget,,,,,0,0,0,0,,,,,,,,,,,,,,,,,0,5,5,5,,,,,,,,,,,,,,,,,,,,,,,,,,,,,,,,,,,,,,,,,,,,,,,,,,,,,,,,,,,,,,,,,,,,,,,,,,,,,1.1080246816078823,1.0271610000054352,277.39264140001615,None,ScrollDown,오답입니다,277.39264140001615,None,277.39264140001615,None,277.39264140001615,None,277.39264140001615,None,278.2879210000101,None,278.2879210000101,278.80017470000894,,,,,,,,,,,,,,,,106,2022-04-29_18h37.10.556,FishGame,2022.1.1,59.83158605081493,
,7,넌 엄격해,3,Green,A,4.166666666666666,4.1,ScrollDown,ScrollUp,Green.png,2,Neutral,Neutral,,,,,0,0,0,0,,,,,,,,,,,,,,,,,0,6,6,6,,,,,,,,,,,,,,,,,,,,,,,,,,,,,,,,,,,,,,,,,,,,,,,,,,,,,,,,,,,,,,,,,,,,,,,,,,,,,1.233024686574936,1.1924804000009317,279.43510740000056,None,ScrollDown,정답입니다,279.43510740000056,None,279.43510740000056,None,279.43510740000056,None,279.43510740000056,None,280.52190880000126,None,280.52190880000126,281.0336143000168,,,,,,,,,,,,,,,,106,2022-04-29_18h37.10.556,FishGame,2022.1.1,59.83158605081493,
,8,나를 보내줘,6,Green,A,0,0,ScrollUp,ScrollDown,Green.png,2,NonTarget,NonTarget,,,,,0,0,0,0,,,,,,,,,,,,,,,,,0,7,7,7,,,,,,,,,,,,,,,,,,,,,,,,,,,,,,,,,,,,,,,,,,,,,,,,,,,,,,,,,,,,,,,,,,,,,,,,,,,,,1.6481481517354646,0.9994204999820795,281.6730030000035,None,ScrollUp,정답입니다,281.6730030000035,None,281.6730030000035,None,281.6730030000035,None,281.6730030000035,None,282.5546466000087,None,282.5546466000087,283.06707490002736,,,,,,,,,,,,,,,,106,2022-04-29_18h37.10.556,FishGame,2022.1.1,59.83158605081493,
,9,넌 대담해,3,Orange,B,4.875,4.866666666666666,ScrollUp,ScrollDown,Orange.png,2,Neutral,Neutral,,,,,0,0,0,0,,,,,,,,,,,,,,,,,0,8,8,8,,,,,,,,,,,,,,,,,,,,,,,,,,,,,,,,,,,,,,,,,,,,,,,,,,,,,,,,,,,,,,,,,,,,,,,,,,,,,1.5972222226361432,1.4084861000010278,283.7291409000172,None,ScrollUp,정답입니다,283.7291409000172,None,283.7291409000172,None,283.7291409000172,None,283.7291409000172,None,284.99990490000346,None,284.99990490000346,285.50054630002705,,,,,,,,,,,,,,,,106,2022-04-29_18h37.10.556,FishGame,2022.1.1,59.83158605081493,
,10,넌 꾸준해,1,Green,A,5.916666666666668,5.8,ScrollDown,ScrollUp,Green.png,2,Positive,Congruent,,,,,0,0,0,0,,,,,,,,,,,,,,,,,0,9,9,9,,,,,,,,,,,,,,,,,,,,,,,,,,,,,,,,,,,,,,,,,,,,,,,,,,,,,,,,,,,,,,,,,,,,,,,,,,,,,1.1959876517454784,1.0331955000001471,286.13738300002296,None,ScrollDown,정답입니다,286.13738300002296,None,286.13738300002296,None,286.13738300002296,None,286.13738300002296,None,287.0547512000194,None,287.0547512000194,287.56711010000436,,,,,,,,,,,,,,,,106,2022-04-29_18h37.10.556,FishGame,2022.1.1,59.83158605081493,
,11,나를 데려가줘,6,Orange,B,0,0,ScrollDown,ScrollUp,Orange.png,2,NonTarget,NonTarget,,,,,0,0,0,0,,,,,,,,,,,,,,,,,0,10,10,10,,,,,,,,,,,,,,,,,,,,,,,,,,,,,,,,,,,,,,,,,,,,,,,,,,,,,,,,,,,,,,,,,,,,,,,,,,,,,1.297839509944121,1.1754872000019532,288.20350360000157,None,ScrollDown,정답입니다,288.20350360000157,None,288.20350360000157,None,288.20350360000157,None,288.20350360000157,None,289.26642330002505,None,289.26642330002505,289.76674130000174,,,,,,,,,,,,,,,,106,2022-04-29_18h37.10.556,FishGame,2022.1.1,59.83158605081493,
,12,넌 독선적이야,5,Green,A,2.458333333333333,1.933333333333333,ScrollDown,ScrollUp,Green.png,2,Negative,Incongruent,,,,,0,0,0,0,,,,,,,,,,,,,,,,,0,11,11,11,,,,,,,,,,,,,,,,,,,,,,,,,,,,,,,,,,,,,,,,,,,,,,,,,,,,,,,,,,,,,,,,,,,,,,,,,,,,,1.2623456766208014,1.2402693000040017,290.4173030000238,None,ScrollDown,정답입니다,290.4173030000238,None,290.4173030000238,None,290.4173030000238,None,290.4173030000238,None,291.5334746000008,None,291.5334746000008,292.033746000001,,,,,,,,,,,,,,,,106,2022-04-29_18h37.10.556,FishGame,2022.1.1,59.83158605081493,
,13,나를 보내줘,6,Green,A,0,0,ScrollUp,ScrollDown,Green.png,2,NonTarget,NonTarget,,,,,0,0,0,0,,,,,,,,,,,,,,,,,0,12,12,12,,,,,,,,,,,,,,,,,,,,,,,,,,,,,,,,,,,,,,,,,,,,,,,,,,,,,,,,,,,,,,,,,,,,,,,,,,,,,1.632716049750646,1.115564900013851,292.66472190001514,None,ScrollUp,정답입니다,292.66472190001514,None,292.66472190001514,None,292.66472190001514,None,292.66472190001514,None,293.6715619000024,None,293.6715619000024,294.1841050000221,,,,,,,,,,,,,,,,106,2022-04-29_18h37.10.556,FishGame,2022.1.1,59.83158605081493,
,14,넌 책임감있어,1,Orange,B,6.347826086956522,6,ScrollUp,ScrollDown,Orange.png,2,Positive,Incongruent,,,,,0,0,0,0,,,,,,,,,,,,,,,,,0,13,13,13,,,,,,,,,,,,,,,,,,,,,,,,,,,,,,,,,,,,,,,,,,,,,,,,,,,,,,,,,,,,,,,,,,,,,,,,,,,,,1.540123456468185,1.3457269000064116,294.8352945000224,None,NoResponse,무응답입니다,294.8352945000224,None,294.8352945000224,None,294.8352945000224,None,294.8352945000224,None,296.0551128000079,None,296.0551128000079,296.56772460002685,,,,,,,,,,,,,,,,106,2022-04-29_18h37.10.556,FishGame,2022.1.1,59.83158605081493,
,15,넌 문학적이야,3,Green,A,4.708333333333334,4.333333333333333,ScrollDown,ScrollUp,Green.png,2,Neutral,Neutral,,,,,0,0,0,0,,,,,,,,,,,,,,,,,0,14,14,14,,,,,,,,,,,,,,,,,,,,,,,,,,,,,,,,,,,,,,,,,,,,,,,,,,,,,,,,,,,,,,,,,,,,,,,,,,,,,1.2916666666666665,0.7994159999943804,297.2105768000183,None,ScrollDown,정답입니다,297.2105768000183,None,297.2105768000183,None,297.2105768000183,None,297.2105768000183,None,297.8905644000042,None,297.8905644000042,298.400623500027,,,,,,,,,,,,,,,,106,2022-04-29_18h37.10.556,FishGame,2022.1.1,59.83158605081493,
,16,넌 재미있어,1,Orange,B,5.875,5.7,ScrollUp,ScrollDown,Orange.png,2,Positive,Incongruent,,,,,0,0,0,0,,,,,,,,,,,,,,,,,0,15,15,15,,,,,,,,,,,,,,,,,,,,,,,,,,,,,,,,,,,,,,,,,,,,,,,,,,,,,,,,,,,,,,,,,,,,,,,,,,,,,1.6126543184121451,1.168856300006155,299.0465056000103,None,ScrollUp,정답입니다,299.0465056000103,None,299.0465056000103,None,299.0465056000103,None,299.0465056000103,None,300.0904639000073,None,300.0904639000073,300.600471200014,,,,,,,,,,,,,,,,106,2022-04-29_18h37.10.556,FishGame,2022.1.1,59.83158605081493,
,17,나를 데려가줘,6,Orange,B,0,0,ScrollDown,ScrollUp,Orange.png,2,NonTarget,NonTarget,,,,,0,0,0,0,,,,,,,,,,,,,,,,,0,16,16,16,,,,,,,,,,,,,,,,,,,,,,,,,,,,,,,,,,,,,,,,,,,,,,,,,,,,,,,,,,,,,,,,,,,,,,,,,,,,,1.3333333308498063,1.8389714999939315,301.23584600002505,None,ScrollDown,정답입니다,301.23584600002505,None,301.23584600002505,None,301.23584600002505,None,301.23584600002505,None,302.9675510000088,None,302.9675510000088,303.46752020000713,,,,,,,,,,,,,,,,106,2022-04-29_18h37.10.556,FishGame,2022.1.1,59.83158605081493,
,18,넌 협력적이야,1,Green,A,5.625,5.633333333333334,ScrollDown,ScrollUp,Green.png,2,Positive,Congruent,,,,,0,0,0,0,,,,,,,,,,,,,,,,,0,17,17,17,,,,,,,,,,,,,,,,,,,,,,,,,,,,,,,,,,,,,,,,,,,,,,,,,,,,,,,,,,,,,,,,,,,,,,,,,,,,,1.1774691343307495,1.1072871999931522,304.10685020001256,None,ScrollDown,정답입니다,304.10685020001256,None,304.10685020001256,None,304.10685020001256,None,304.10685020001256,None,305.1002984000079,None,305.1002984000079,305.60087050002767,,,,,,,,,,,,,,,,106,2022-04-29_18h37.10.556,FishGame,2022.1.1,59.83158605081493,
,19,넌 평범해,3,Orange,B,4.333333333333332,4.233333333333333,ScrollUp,ScrollDown,Orange.png,2,Neutral,Neutral,,,,,0,0,0,0,,,,,,,,,,,,,,,,,0,18,18,18,,,,,,,,,,,,,,,,,,,,,,,,,,,,,,,,,,,,,,,,,,,,,,,,,,,,,,,,,,,,,,,,,,,,,,,,,,,,,1.6697530845801034,1.1994272000156343,306.2410864000267,None,ScrollUp,정답입니다,306.2410864000267,None,306.2410864000267,None,306.2410864000267,None,306.2410864000267,None,307.3216136000119,None,307.3216136000119,307.834716900019,,,,,,,,,,,,,,,,106,2022-04-29_18h37.10.556,FishGame,2022.1.1,59.83158605081493,
,20,넌 오만해,5,Green,A,2.333333333333333,2,ScrollDown,ScrollUp,Green.png,2,Negative,Incongruent,,,,,0,0,0,0,,,,,,,,,,,,,,,,,0,19,19,19,,,,,,,,,,,,,,,,,,,,,,,,,,,,,,,,,,,,,,,,,,,,,,,,,,,,,,,,,,,,,,,,,,,,,,,,,,,,,1.2052469104528427,1.0165303999965545,308.4661863000074,None,ScrollDown,정답입니다,308.4661863000074,None,308.4661863000074,None,308.4661863000074,None,308.4661863000074,None,309.3718193000241,None,309.3718193000241,309.8846067000122,,,,,,,,,,,,,,,,106,2022-04-29_18h37.10.556,FishGame,2022.1.1,59.83158605081493,
,21,넌 운이없어,4,Orange,B,3,3.466666666666667,ScrollUp,ScrollDown,Orange.png,2,Negative,Congruent,,,,,0,0,0,0,,,,,,,,,,,,,,,,,0,20,20,20,,,,,,,,,,,,,,,,,,,,,,,,,,,,,,,,,,,,,,,,,,,,,,,,,,,,,,,,,,,,,,,,,,,,,,,,,,,,,1.663580241302649,1.1336200000077952,310.5288019000145,None,ScrollUp,정답입니다,310.5288019000145,None,310.5288019000145,None,310.5288019000145,None,310.5288019000145,None,311.5383858999994,None,311.5383858999994,312.0514017000096,,,,,,,,,,,,,,,,106,2022-04-29_18h37.10.556,FishGame,2022.1.1,59.83158605081493,
,22,넌 창조적이야,2,Orange,B,6.125,4.633333333333334,ScrollUp,ScrollDown,Orange.png,2,Positive,Incongruent,,,,,0,0,0,0,,,,,,,,,,,,,,,,,0,21,21,21,,,,,,,,,,,,,,,,,,,,,,,,,,,,,,,,,,,,,,,,,,,,,,,,,,,,,,,,,,,,,,,,,,,,,,,,,,,,,1.6728395000100136,0.9499635999964084,312.69500030000927,None,ScrollUp,정답입니다,312.69500030000927,None,312.69500030000927,None,312.69500030000927,None,312.69500030000927,None,313.52197970001725,None,313.52197970001725,314.03432460001204,,,,,,,,,,,,,,,,106,2022-04-29_18h37.10.556,FishGame,2022.1.1,59.83158605081493,
,23,나를 보내줘,6,Green,A,0,0,ScrollUp,ScrollDown,Green.png,2,NonTarget,NonTarget,,,,,0,0,0,0,,,,,,,,,,,,,,,,,0,22,22,22,,,,,,,,,,,,,,,,,,,,,,,,,,,,,,,,,,,,,,,,,,,,,,,,,,,,,,,,,,,,,,,,,,,,,,,,,,,,,1.5740740758677325,1.0792686000058893,314.6634483000089,None,ScrollUp,정답입니다,314.6634483000089,None,314.6634483000089,None,314.6634483000089,None,314.6634483000089,None,315.63877400002093,None,315.63877400002093,316.1511135000037,,,,,,,,,,,,,,,,106,2022-04-29_18h37.10.556,FishGame,2022.1.1,59.83158605081493,
,24,넌 통찰력있어,2,Green,A,6.5,4.8,ScrollDown,ScrollUp,Green.png,2,Positive,Congruent,,,,,0,0,0,0,,,,,,,,,,,,,,,,,0,23,23,23,,,,,,,,,,,,,,,,,,,,,,,,,,,,,,,,,,,,,,,,,,,,,,,,,,,,,,,,,,,,,,,,,,,,,,,,,,,,,1.3086419701576233,1.1980404000205453,316.7879353000026,None,ScrollDown,정답입니다,316.7879353000026,None,316.7879353000026,None,316.7879353000026,None,316.7879353000026,None,317.87187010000343,None,317.87187010000343,318.38489770001615,,,,,,,,,,,,,,,,106,2022-04-29_18h37.10.556,FishGame,2022.1.1,59.83158605081493,
,25,넌 경솔해,5,Orange,B,2.458333333333333,2.266666666666667,ScrollUp,ScrollDown,Orange.png,2,Negative,Congruent,,,,,0,0,0,0,,,,,,,,,,,,,,,,,0,24,24,24,,,,,,,,,,,,,,,,,,,,,,,,,,,,,,,,,,,,,,,,,,,,,,,,,,,,,,,,,,,,,,,,,,,,,,,,,,,,,1.6234567910432816,0.9179818000120576,319.0257497000275,None,ScrollUp,정답입니다,319.0257497000275,None,319.0257497000275,None,319.0257497000275,None,319.0257497000275,None,319.8309252000181,None,319.8309252000181,320.33439640002325,,,,,,,,,,,,,,,,106,2022-04-29_18h37.10.556,FishGame,2022.1.1,59.83158605081493,
,26,넌 초조해,4,Green,A,2.916666666666667,3.133333333333333,ScrollDown,ScrollUp,Green.png,2,Negative,Incongruent,,,,,0,0,0,0,,,,,,,,,,,,,,,,,0,25,25,25,,,,,,,,,,,,,,,,,,,,,,,,,,,,,,,,,,,,,,,,,,,,,,,,,,,,,,,,,,,,,,,,,,,,,,,,,,,,,1.3518518482645354,1.5098789000185207,320.96655770001234,None,ScrollDown,정답입니다,320.96655770001234,None,320.96655770001234,None,320.96655770001234,None,320.96655770001234,None,322.3677119000058,None,322.3677119000058,322.86797210000805,,,,,,,,,,,,,,,,106,2022-04-29_18h37.10.556,FishGame,2022.1.1,59.83158605081493,
,27,넌 무관심해,4,Orange,B,2.833333333333333,2.9,ScrollUp,ScrollDown,Orange.png,2,Negative,Congruent,,,,,0,0,0,0,,,,,,,,,,,,,,,,,0,26,26,26,,,,,,,,,,,,,,,,,,,,,,,,,,,,,,,,,,,,,,,,,,,,,,,,,,,,,,,,,,,,,,,,,,,,,,,,,,,,,1.663580241302649,1.1789216000179294,323.51662300000316,None,ScrollUp,정답입니다,323.51662300000316,None,323.51662300000316,None,323.51662300000316,None,323.51662300000316,None,324.572411000001,None,324.572411000001,325.08440830002655,,,,,,,,,,,,,,,,106,2022-04-29_18h37.10.556,FishGame,2022.1.1,59.83158605081493,
,28,넌 감성적이야,3,Orange,B,4.125,4.166666666666667,ScrollUp,ScrollDown,Orange.png,2,Neutral,Neutral,,,,,0,0,0,0,,,,,,,,,,,,,,,,,0,27,27,27,,,,,,,,,,,,,,,,,,,,,,,,,,,,,,,,,,,,,,,,,,,,,,,,,,,,,,,,,,,,,,,,,,,,,,,,,,,,,1.6620370397965112,0.9424855000106618,325.7318460000097,None,ScrollUp,정답입니다,325.7318460000097,None,325.7318460000097,None,325.7318460000097,None,325.7318460000097,None,326.5508827000158,None,326.5508827000158,327.05116280002403,,,,,,,,,,,,,,,,106,2022-04-29_18h37.10.556,FishGame,2022.1.1,59.83158605081493,
,29,넌 배려심있어,1,Green,A,6.083333333333333,5.5,ScrollDown,ScrollUp,Green.png,2,Positive,Congruent,,,,,0,0,0,0,,,,,,,,,,,,,,,,,0,28,28,28,,,,,,,,,,,,,,,,,,,,,,,,,,,,,,,,,,,,,,,,,,,,,,,,,,,,,,,,,,,,,,,,,,,,,,,,,,,,,1.3024691392978034,1.7520321999909356,327.6894705000159,None,ScrollDown,정답입니다,327.6894705000159,None,327.6894705000159,None,327.6894705000159,None,327.6894705000159,None,329.33128130002297,None,329.33128130002297,329.8351655000006,,,,,,,,,,,,,,,,106,2022-04-29_18h37.10.556,FishGame,2022.1.1,59.83158605081493,
,30,넌 숨김없어,3,Green,A,4.5,4.933333333333334,ScrollDown,ScrollUp,Green.png,2,Neutral,Neutral,,,,,0,0,0,0,,,,,,,,,,,,,,,,,0,29,29,29,,,,,,,,,,,,,,,,,,,,,,,,,,,,,,,,,,,,,,,,,,,,,,,,,,,,,,,,,,,,,,,,,,,,,,,,,,,,,1.3950617263714473,2.315501899982337,330.471850300004,None,ScrollDown,정답입니다,330.471850300004,None,330.471850300004,None,330.471850300004,None,330.471850300004,None,332.6720991000184,None,332.6720991000184,333.18461870000465,,,,,,,,,,,,,,,,106,2022-04-29_18h37.10.556,FishGame,2022.1.1,59.83158605081493,
,31,넌 훌륭해,2,Orange,B,5.916666666666667,4.033333333333333,ScrollUp,ScrollDown,Orange.png,2,Positive,Incongruent,,,,,0,0,0,0,,,,,,,,,,,,,,,,,0,30,30,30,,,,,,,,,,,,,,,,,,,,,,,,,,,,,,,,,,,,,,,,,,,,,,,,,,,,,,,,,,,,,,,,,,,,,,,,,,,,,1.5308641977608204,1.406047900003614,333.8233269000193,None,NoResponse,무응답입니다,333.8233269000193,None,333.8233269000193,None,333.8233269000193,None,333.8233269000193,None,335.1111789000279,None,335.1111789000279,335.6178076000069,,,,,,,,,,,,,,,,106,2022-04-29_18h37.10.556,FishGame,2022.1.1,59.83158605081493,
,32,넌 슬기로워,2,Green,A,6.166666666666667,4.1,ScrollDown,ScrollUp,Green.png,2,Positive,Congruent,,,,,0,0,0,0,,,,,,,,,,,,,,,,,0,31,31,31,,,,,,,,,,,,,,,,,,,,,,,,,,,,,,,,,,,,,,,,,,,,,,,,,,,,,,,,,,,,,,,,,,,,,,,,,,,,,1.2499999900658925,0.9207308999903034,336.2522680000111,None,ScrollDown,정답입니다,336.2522680000111,None,336.2522680000111,None,336.2522680000111,None,336.2522680000111,None,337.05998710001586,None,337.05998710001586,337.568231000012,,,,,,,,,,,,,,,,106,2022-04-29_18h37.10.556,FishGame,2022.1.1,59.83158605081493,
,33,넌 냉혹해,5,Green,A,2.583333333333333,2.1,ScrollDown,ScrollUp,Green.png,2,Negative,Incongruent,,,,,0,0,0,0,,,,,,,,,,,,,,,,,0,32,32,32,,,,,,,,,,,,,,,,,,,,,,,,,,,,,,,,,,,,,,,,,,,,,,,,,,,,,,,,,,,,,,,,,,,,,,,,,,,,,1.2839506218830743,0.892224500013981,338.2060196000093,None,ScrollDown,정답입니다,338.2060196000093,None,338.2060196000093,None,338.2060196000093,None,338.2060196000093,None,338.98450920000323,None,338.98450920000323,339.48478110000724,,,,,,,,,,,,,,,,106,2022-04-29_18h37.10.556,FishGame,2022.1.1,59.83158605081493,
,34,나를 데려가줘,6,Orange,B,0,0,ScrollDown,ScrollUp,Orange.png,2,NonTarget,NonTarget,,,,,0,0,0,0,,,,,,,,,,,,,,,,,0,33,33,33,,,,,,,,,,,,,,,,,,,,,,,,,,,,,,,,,,,,,,,,,,,,,,,,,,,,,,,,,,,,,,,,,,,,,,,,,,,,,1.2577160596847534,1.130775999976322,340.12332230000175,None,ScrollDown,정답입니다,340.12332230000175,None,340.12332230000175,None,340.12332230000175,None,340.12332230000175,None,341.13935530002345,None,341.13935530002345,341.6520208000147,,,,,,,,,,,,,,,,106,2022-04-29_18h37.10.556,FishGame,2022.1.1,59.83158605081493,
,35,넌 편파적이야,5,Orange,B,2.125,2,ScrollUp,ScrollDown,Orange.png,2,Negative,Congruent,,,,,0,0,0,0,,,,,,,,,,,,,,,,,0,34,34,34,,,,,,,,,,,,,,,,,,,,,,,,,,,,,,,,,,,,,,,,,,,,,,,,,,,,,,,,,,,,,,,,,,,,,,,,,,,,,1.6419753084580102,1.3920054000045639,342.2952994000225,None,ScrollUp,정답입니다,342.2952994000225,None,342.2952994000225,None,342.2952994000225,None,342.2952994000225,None,343.5676463000127,None,343.5676463000127,344.06811630001175,,,,,,,,,,,,,,,,106,2022-04-29_18h37.10.556,FishGame,2022.1.1,59.83158605081493,
,36,넌 슬퍼,4,Green,A,2.583333333333333,3.066666666666667,ScrollDown,ScrollUp,Green.png,2,Negative,Incongruent,,,,,0,0,0,0,,,,,,,,,,,,,,,,,0,35,35,35,,,,,,,,,,,,,,,,,,,,,,,,,,,,,,,,,,,,,,,,,,,,,,,,,,,,,,,,,,,,,,,,,,,,,,,,,,,,,1.1836419651905696,1.5798282000178006,344.70120690000476,None,ScrollDown,정답입니다,344.70120690000476,None,344.70120690000476,None,344.70120690000476,None,344.70120690000476,None,346.1728440000152,None,346.1728440000152,346.6854146000114,,,,,,,,,,,,,,,,106,2022-04-29_18h37.10.556,FishGame,2022.1.1,59.83158605081493,
,37,나를 데려가줘,6,Orange,B,0,0,ScrollDown,ScrollUp,Orange.png,2,NonTarget,NonTarget,,,,,0,0,0,0,,,,,,,,,,,,,,,,,0,36,36,36,,,,,,,,,,,,,,,,,,,,,,,,,,,,,,,,,,,,,,,,,,,,,,,,,,,,,,,,,,,,,,,,,,,,,,,,,,,,,1.2469135870536168,1.098395500011975,347.32193410000764,None,ScrollDown,정답입니다,347.32193410000764,None,347.32193410000764,None,347.32193410000764,None,347.32193410000764,None,348.30680120000034,None,348.30680120000034,348.8185930000036,,,,,,,,,,,,,,,,106,2022-04-29_18h37.10.556,FishGame,2022.1.1,59.83158605081493,
,38,넌 친절해,1,Orange,B,6.041666666666667,5.533333333333333,ScrollUp,ScrollDown,Orange.png,2,Positive,Incongruent,,,,,0,0,0,0,,,,,,,,,,,,,,,,,0,37,37,37,,,,,,,,,,,,,,,,,,,,,,,,,,,,,,,,,,,,,,,,,,,,,,,,,,,,,,,,,,,,,,,,,,,,,,,,,,,,,1.7453703681627908,1.3619327000051271,349.4678140000033,None,ScrollUp,정답입니다,349.4678140000033,None,349.4678140000033,None,349.4678140000033,None,349.4678140000033,None,350.7065373000223,None,350.7065373000223,351.21822670000256,,,,,,,,,,,,,,,,106,2022-04-29_18h37.10.556,FishGame,2022.1.1,59.83158605081493,
,1,넌 엉성해,4,Green,A,3,3.3,ScrollDown,ScrollUp,Green.png,3,Negative,Incongruent,,,,,0,0,0,0,,,,,,,,,,,,,,,,,,,,,0,0,0,0,,,,,,,,,,,,,,,,,,,,,,,,,,,,,,,,383.36903620001976,384.8692824000027,384.90242050000234,385.85199010002543,385.9031574000255,386.852813400008,386.852813400008,None,,,,,,,,,,,,,,,,,,,,,,,,,,,,,,,,,,1.1049382785956066,2.5090039999922737,388.007619800017,None,ScrollDown,정답입니다,388.007619800017,None,388.007619800017,None,388.007619800017,None,388.007619800017,None,390.3574178000272,None,390.3574178000272,390.86861990002217,351.7186044000264,None,351.7186044000264,None,-0.022222223,-0.09907407,1,0,0,0.01623524000751786,None,381.7190830000036,None,,,106,2022-04-29_18h37.10.556,FishGame,2022.1.1,59.83158605081493,
,2,나를 보내줘,6,Green,A,0,0,ScrollUp,ScrollDown,Green.png,3,NonTarget,NonTarget,,,,,0,0,0,0,,,,,,,,,,,,,,,,,,,,,0,1,1,1,,,,,,,,,,,,,,,,,,,,,,,,,,,,,,,,,,,,,,,,,,,,,,,,,,,,,,,,,,,,,,,,,,,,,,,,,1.7746913582086563,1.1942487000196707,391.49840690000565,None,ScrollUp,정답입니다,391.49840690000565,None,391.49840690000565,None,391.49840690000565,None,391.49840690000565,None,392.5892730000196,None,392.5892730000196,393.10273620000225,,,,,,,,,,,,,,,,106,2022-04-29_18h37.10.556,FishGame,2022.1.1,59.83158605081493,
,3,넌 활발해,1,Orange,B,5.666666666666667,5.6,ScrollUp,ScrollDown,Orange.png,3,Positive,Incongruent,,,,,0,0,0,0,,,,,,,,,,,,,,,,,,,,,0,2,2,2,,,,,,,,,,,,,,,,,,,,,,,,,,,,,,,,,,,,,,,,,,,,,,,,,,,,,,,,,,,,,,,,,,,,,,,,,1.5910493855675063,1.053372099995613,393.7479175000044,None,ScrollUp,정답입니다,393.7479175000044,None,393.7479175000044,None,393.7479175000044,None,393.7479175000044,None,394.68204930002685,None,394.68204930002685,395.1858708000218,,,,,,,,,,,,,,,,106,2022-04-29_18h37.10.556,FishGame,2022.1.1,59.83158605081493,
,4,넌 논리적이야,2,Green,A,5.666666666666666,4.633333333333334,ScrollDown,ScrollUp,Green.png,3,Positive,Congruent,,,,,0,0,0,0,,,,,,,,,,,,,,,,,,,,,0,3,3,3,,,,,,,,,,,,,,,,,,,,,,,,,,,,,,,,,,,,,,,,,,,,,,,,,,,,,,,,,,,,,,,,,,,,,,,,,1.2160493830839794,0.9830979999969713,395.8236190000025,None,ScrollDown,정답입니다,395.8236190000025,None,395.8236190000025,None,395.8236190000025,None,395.8236190000025,None,396.6904162999999,None,396.6904162999999,397.20300690000295,,,,,,,,,,,,,,,,106,2022-04-29_18h37.10.556,FishGame,2022.1.1,59.83158605081493,
,5,넌 과묵해,3,Green,A,3.875,4.4,ScrollDown,ScrollUp,Green.png,3,Neutral,Neutral,,,,,0,0,0,0,,,,,,,,,,,,,,,,,,,,,0,4,4,4,,,,,,,,,,,,,,,,,,,,,,,,,,,,,,,,,,,,,,,,,,,,,,,,,,,,,,,,,,,,,,,,,,,,,,,,,1.2577160596847534,1.0078743000049144,397.83705790000386,None,ScrollDown,정답입니다,397.83705790000386,None,397.83705790000386,None,397.83705790000386,None,397.83705790000386,None,398.7358549000055,None,398.7358549000055,399.23606510000536,,,,,,,,,,,,,,,,106,2022-04-29_18h37.10.556,FishGame,2022.1.1,59.83158605081493,
,6,나를 데려가줘,6,Orange,B,0,0,ScrollDown,ScrollUp,Orange.png,3,NonTarget,NonTarget,,,,,0,0,0,0,,,,,,,,,,,,,,,,,,,,,0,5,5,5,,,,,,,,,,,,,,,,,,,,,,,,,,,,,,,,,,,,,,,,,,,,,,,,,,,,,,,,,,,,,,,,,,,,,,,,,1.1111111094554265,1.2748099000018556,399.8760111000156,None,ScrollDown,정답입니다,399.8760111000156,None,399.8760111000156,None,399.8760111000156,None,399.8760111000156,None,401.03590830002213,None,401.03590830002213,401.53609370000777,,,,,,,,,,,,,,,,106,2022-04-29_18h37.10.556,FishGame,2022.1.1,59.83158605081493,
,7,넌 미숙해,4,Orange,B,3,3,ScrollUp,ScrollDown,Orange.png,3,Negative,Congruent,,,,,0,0,0,0,,,,,,,,,,,,,,,,,,,,,0,6,6,6,,,,,,,,,,,,,,,,,,,,,,,,,,,,,,,,,,,,,,,,,,,,,,,,,,,,,,,,,,,,,,,,,,,,,,,,,1.6604938258727393,1.2489676999975927,402.16828870002064,None,ScrollUp,정답입니다,402.16828870002064,None,402.16828870002064,None,402.16828870002064,None,402.16828870002064,None,403.30782050002017,None,403.30782050002017,403.8193358000135,,,,,,,,,,,,,,,,106,2022-04-29_18h37.10.556,FishGame,2022.1.1,59.83158605081493,
,8,나를 보내줘,6,Green,A,0,0,ScrollUp,ScrollDown,Green.png,3,NonTarget,NonTarget,,,,,0,0,0,0,,,,,,,,,,,,,,,,,,,,,0,7,7,7,,,,,,,,,,,,,,,,,,,,,,,,,,,,,,,,,,,,,,,,,,,,,,,,,,,,,,,,,,,,,,,,,,,,,,,,,1.5663580248753228,1.1517490999831352,404.44739590000245,None,ScrollUp,정답입니다,404.44739590000245,None,404.44739590000245,None,404.44739590000245,None,404.44739590000245,None,405.49889330001315,None,405.49889330001315,406.00207330001285,,,,,,,,,,,,,,,,106,2022-04-29_18h37.10.556,FishGame,2022.1.1,59.83158605081493,
,9,넌 자신만만해,3,Orange,B,4.833333333333334,4.333333333333333,ScrollUp,ScrollDown,Orange.png,3,Neutral,Neutral,,,,,0,0,0,0,,,,,,,,,,,,,,,,,,,,,0,8,8,8,,,,,,,,,,,,,,,,,,,,,,,,,,,,,,,,,,,,,,,,,,,,,,,,,,,,,,,,,,,,,,,,,,,,,,,,,1.5061728393969438,1.0208809000032488,406.63806240001577,None,NoResponse,무응답입니다,406.63806240001577,None,406.63806240001577,None,406.63806240001577,None,406.63806240001577,None,407.54488680002396,None,407.54488680002396,408.0533501000027,,,,,,,,,,,,,,,,106,2022-04-29_18h37.10.556,FishGame,2022.1.1,59.83158605081493,
,10,넌 탐욕스러워,5,Green,A,2.25,2.1,ScrollDown,ScrollUp,Green.png,3,Negative,Incongruent,,,,,0,0,0,0,,,,,,,,,,,,,,,,,,,,,0,9,9,9,,,,,,,,,,,,,,,,,,,,,,,,,,,,,,,,,,,,,,,,,,,,,,,,,,,,,,,,,,,,,,,,,,,,,,,,,1.2777777661879859,1.675437800004147,408.71580220002215,None,ScrollDown,정답입니다,408.71580220002215,None,408.71580220002215,None,408.71580220002215,None,408.71580220002215,None,410.2517242000031,None,410.2517242000031,410.75334830000065,,,,,,,,,,,,,,,,106,2022-04-29_18h37.10.556,FishGame,2022.1.1,59.83158605081493,
,11,넌 인기있어,2,Green,A,5.458333333333333,4.5,ScrollDown,ScrollUp,Green.png,3,Positive,Congruent,,,,,0,0,0,0,,,,,,,,,,,,,,,,,,,,,0,10,10,10,,,,,,,,,,,,,,,,,,,,,,,,,,,,,,,,,,,,,,,,,,,,,,,,,,,,,,,,,,,,,,,,,,,,,,,,,1.3055555547277131,1.011392899992643,411.38279610002064,None,ScrollDown,정답입니다,411.38279610002064,None,411.38279610002064,None,411.38279610002064,None,411.38279610002064,None,412.2891965000017,None,412.2891965000017,412.803124500002,,,,,,,,,,,,,,,,106,2022-04-29_18h37.10.556,FishGame,2022.1.1,59.83158605081493,
,12,나를 데려가줘,6,Orange,B,0,0,ScrollDown,ScrollUp,Orange.png,3,NonTarget,NonTarget,,,,,0,0,0,0,,,,,,,,,,,,,,,,,,,,,0,11,11,11,,,,,,,,,,,,,,,,,,,,,,,,,,,,,,,,,,,,,,,,,,,,,,,,,,,,,,,,,,,,,,,,,,,,,,,,,1.2839506218830743,1.1747289999912027,413.44112150001456,None,ScrollDown,정답입니다,413.44112150001456,None,413.44112150001456,None,413.44112150001456,None,413.44112150001456,None,414.5026493000041,None,414.5026493000041,415.00304790001246,,,,,,,,,,,,,,,,106,2022-04-29_18h37.10.556,FishGame,2022.1.1,59.83158605081493,
,13,넌 뛰어나,2,Orange,B,6.166666666666667,4,ScrollUp,ScrollDown,Orange.png,3,Positive,Incongruent,,,,,0,0,0,0,,,,,,,,,,,,,,,,,,,,,0,12,12,12,,,,,,,,,,,,,,,,,,,,,,,,,,,,,,,,,,,,,,,,,,,,,,,,,,,,,,,,,,,,,,,,,,,,,,,,,1.256172845760981,1.0589744000171777,415.6449064000044,None,ScrollDown,오답입니다,415.6449064000044,None,415.6449064000044,None,415.6449064000044,None,415.6449064000044,None,416.58996440001647,None,416.58996440001647,417.1033420000167,,,,,,,,,,,,,,,,106,2022-04-29_18h37.10.556,FishGame,2022.1.1,59.83158605081493,
,14,넌 낙관적이야,1,Green,A,5.75,5.8,ScrollDown,ScrollUp,Green.png,3,Positive,Congruent,,,,,0,0,0,0,,,,,,,,,,,,,,,,,,,,,0,13,13,13,,,,,,,,,,,,,,,,,,,,,,,,,,,,,,,,,,,,,,,,,,,,,,,,,,,,,,,,,,,,,,,,,,,,,,,,,1.248456800977389,1.0402321000001393,417.73942470000475,None,ScrollDown,정답입니다,417.73942470000475,None,417.73942470000475,None,417.73942470000475,None,417.73942470000475,None,418.6692991000018,None,418.6692991000018,419.16949360002764,,,,,,,,,,,,,,,,106,2022-04-29_18h37.10.556,FishGame,2022.1.1,59.83158605081493,
,15,넌 산만해,4,Orange,B,2.695652173913043,3.033333333333333,ScrollUp,ScrollDown,Orange.png,3,Negative,Congruent,,,,,0,0,0,0,,,,,,,,,,,,,,,,,,,,,0,14,14,14,,,,,,,,,,,,,,,,,,,,,,,,,,,,,,,,,,,,,,,,,,,,,,,,,,,,,,,,,,,,,,,,,,,,,,,,,1.6759259278575578,1.1818545999994967,419.81421960002626,None,ScrollUp,정답입니다,419.81421960002626,None,419.81421960002626,None,419.81421960002626,None,419.81421960002626,None,420.8737105000182,None,420.8737105000182,421.3864303000155,,,,,,,,,,,,,,,,106,2022-04-29_18h37.10.556,FishGame,2022.1.1,59.83158605081493,
,16,나를 보내줘,6,Green,A,0,0,ScrollUp,ScrollDown,Green.png,3,NonTarget,NonTarget,,,,,0,0,0,0,,,,,,,,,,,,,,,,,,,,,0,15,15,15,,,,,,,,,,,,,,,,,,,,,,,,,,,,,,,,,,,,,,,,,,,,,,,,,,,,,,,,,,,,,,,,,,,,,,,,,1.527777779226502,1.1082562999799848,422.0164617000264,None,NoResponse,무응답입니다,422.0164617000264,None,422.0164617000264,None,422.0164617000264,None,422.0164617000264,None,423.01365570002235,None,423.01365570002235,423.52033010000014,,,,,,,,,,,,,,,,106,2022-04-29_18h37.10.556,FishGame,2022.1.1,59.83158605081493,
,17,넌 교활해,5,Orange,B,2.333333333333333,2.133333333333333,ScrollUp,ScrollDown,Orange.png,3,Negative,Congruent,,,,,0,0,0,0,,,,,,,,,,,,,,,,,,,,,0,16,16,16,,,,,,,,,,,,,,,,,,,,,,,,,,,,,,,,,,,,,,,,,,,,,,,,,,,,,,,,,,,,,,,,,,,,,,,,,1.7006172885497413,1.1767313000163995,424.1625846000097,None,ScrollUp,정답입니다,424.1625846000097,None,424.1625846000097,None,424.1625846000097,None,424.1625846000097,None,425.22444130000076,None,425.22444130000076,425.736595400027,,,,,,,,,,,,,,,,106,2022-04-29_18h37.10.556,FishGame,2022.1.1,59.83158605081493,
,18,나를 보내줘,6,Green,A,0,0,ScrollUp,ScrollDown,Green.png,3,NonTarget,NonTarget,,,,,0,0,0,0,,,,,,,,,,,,,,,,,,,,,0,17,17,17,,,,,,,,,,,,,,,,,,,,,,,,,,,,,,,,,,,,,,,,,,,,,,,,,,,,,,,,,,,,,,,,,,,,,,,,,1.6280864203969636,1.2421038000029512,426.36559700002545,None,ScrollUp,정답입니다,426.36559700002545,None,426.36559700002545,None,426.36559700002545,None,426.36559700002545,None,427.5029699000006,None,427.5029699000006,428.00340060002054,,,,,,,,,,,,,,,,106,2022-04-29_18h37.10.556,FishGame,2022.1.1,59.83158605081493,
,19,넌 불친절해,5,Orange,B,2.208333333333333,2.033333333333333,ScrollUp,ScrollDown,Orange.png,3,Negative,Congruent,,,,,0,0,0,0,,,,,,,,,,,,,,,,,,,,,0,18,18,18,,,,,,,,,,,,,,,,,,,,,,,,,,,,,,,,,,,,,,,,,,,,,,,,,,,,,,,,,,,,,,,,,,,,,,,,,1.560185187806686,1.2152039000065997,428.6428899000166,None,ScrollUp,정답입니다,428.6428899000166,None,428.6428899000166,None,428.6428899000166,None,428.6428899000166,None,429.74113950002356,None,429.74113950002356,430.2536005000002,,,,,,,,,,,,,,,,106,2022-04-29_18h37.10.556,FishGame,2022.1.1,59.83158605081493,
,20,넌 지적이야,2,Orange,B,5.75,4.366666666666666,ScrollUp,ScrollDown,Orange.png,3,Positive,Incongruent,,,,,0,0,0,0,,,,,,,,,,,,,,,,,,,,,0,19,19,19,,,,,,,,,,,,,,,,,,,,,,,,,,,,,,,,,,,,,,,,,,,,,,,,,,,,,,,,,,,,,,,,,,,,,,,,,1.6404320945342383,1.1089245000039227,430.88858820000314,None,ScrollUp,정답입니다,430.88858820000314,None,430.88858820000314,None,430.88858820000314,None,430.88858820000314,None,431.8863739000226,None,431.8863739000226,432.38686250001774,,,,,,,,,,,,,,,,106,2022-04-29_18h37.10.556,FishGame,2022.1.1,59.83158605081493,
,21,넌 우유부단해,4,Green,A,2.666666666666667,3.166666666666667,ScrollDown,ScrollUp,Green.png,3,Negative,Incongruent,,,,,0,0,0,0,,,,,,,,,,,,,,,,,,,,,0,20,20,20,,,,,,,,,,,,,,,,,,,,,,,,,,,,,,,,,,,,,,,,,,,,,,,,,,,,,,,,,,,,,,,,,,,,,,,,,1.2623456766208014,1.883388999995077,433.02878650001367,None,ScrollDown,정답입니다,433.02878650001367,None,433.02878650001367,None,433.02878650001367,None,433.02878650001367,None,434.7913921000145,None,434.7913921000145,435.3038831000158,,,,,,,,,,,,,,,,106,2022-04-29_18h37.10.556,FishGame,2022.1.1,59.83158605081493,
,22,나를 데려가줘,6,Orange,B,0,0,ScrollDown,ScrollUp,Orange.png,3,NonTarget,NonTarget,,,,,0,0,0,0,,,,,,,,,,,,,,,,,,,,,0,21,21,21,,,,,,,,,,,,,,,,,,,,,,,,,,,,,,,,,,,,,,,,,,,,,,,,,,,,,,,,,,,,,,,,,,,,,,,,,1.1682098756233852,1.474980900005903,435.9395680000016,None,ScrollDown,정답입니다,435.9395680000016,None,435.9395680000016,None,435.9395680000016,None,435.9395680000016,None,437.3032669000095,None,437.3032669000095,437.8033978000167,,,,,,,,,,,,,,,,106,2022-04-29_18h37.10.556,FishGame,2022.1.1,59.83158605081493,
,23,넌 성실해,1,Orange,B,6.041666666666666,5.7,ScrollUp,ScrollDown,Orange.png,3,Positive,Incongruent,,,,,0,0,0,0,,,,,,,,,,,,,,,,,,,,,0,22,22,22,,,,,,,,,,,,,,,,,,,,,,,,,,,,,,,,,,,,,,,,,,,,,,,,,,,,,,,,,,,,,,,,,,,,,,,,,1.2299382835626602,1.002718100004131,438.43813610001234,None,ScrollDown,오답입니다,438.43813610001234,None,438.43813610001234,None,438.43813610001234,None,438.43813610001234,None,439.32714790001046,None,439.32714790001046,439.8367137000023,,,,,,,,,,,,,,,,106,2022-04-29_18h37.10.556,FishGame,2022.1.1,59.83158605081493,
,24,넌 현실주의적이야,3,Green,A,4.625,4.4,ScrollDown,ScrollUp,Green.png,3,Neutral,Neutral,,,,,0,0,0,0,,,,,,,,,,,,,,,,,,,,,0,23,23,23,,,,,,,,,,,,,,,,,,,,,,,,,,,,,,,,,,,,,,,,,,,,,,,,,,,,,,,,,,,,,,,,,,,,,,,,,1.320987656712532,1.165953099989565,440.4716449000116,None,ScrollDown,정답입니다,440.4716449000116,None,440.4716449000116,None,440.4716449000116,None,440.4716449000116,None,441.5263852000062,None,441.5263852000062,442.03636310002184,,,,,,,,,,,,,,,,106,2022-04-29_18h37.10.556,FishGame,2022.1.1,59.83158605081493,
,25,넌 진실돼,1,Green,A,6.625,5.566666666666666,ScrollDown,ScrollUp,Green.png,3,Positive,Congruent,,,,,0,0,0,0,,,,,,,,,,,,,,,,,,,,,0,24,24,24,,,,,,,,,,,,,,,,,,,,,,,,,,,,,,,,,,,,,,,,,,,,,,,,,,,,,,,,,,,,,,,,,,,,,,,,,1.2499999900658925,0.8789385000127368,442.6775096000056,None,ScrollDown,정답입니다,442.6775096000056,None,442.6775096000056,None,442.6775096000056,None,442.6775096000056,None,443.44136890000664,None,443.44136890000664,443.9541602000245,,,,,,,,,,,,,,,,106,2022-04-29_18h37.10.556,FishGame,2022.1.1,59.83158605081493,
,26,넌 천진난만해,3,Orange,B,4.958333333333334,4.833333333333333,ScrollUp,ScrollDown,Orange.png,3,Neutral,Neutral,,,,,0,0,0,0,,,,,,,,,,,,,,,,,,,,,0,25,25,25,,,,,,,,,,,,,,,,,,,,,,,,,,,,,,,,,,,,,,,,,,,,,,,,,,,,,,,,,,,,,,,,,,,,,,,,,1.6373456791043282,1.2890376999857835,444.59558660001494,None,ScrollUp,정답입니다,444.59558660001494,None,444.59558660001494,None,444.59558660001494,None,444.59558660001494,None,445.76984730002005,None,445.76984730002005,446.2702414000232,,,,,,,,,,,,,,,,106,2022-04-29_18h37.10.556,FishGame,2022.1.1,59.83158605081493,
,27,넌 교양없어,5,Green,A,2.416666666666667,2.2,ScrollDown,ScrollUp,Green.png,3,Negative,Incongruent,,,,,0,0,0,0,,,,,,,,,,,,,,,,,,,,,0,26,26,26,,,,,,,,,,,,,,,,,,,,,,,,,,,,,,,,,,,,,,,,,,,,,,,,,,,,,,,,,,,,,,,,,,,,,,,,,1.2499999900658925,0.9175287000252865,446.9072054999997,None,ScrollDown,정답입니다,446.9072054999997,None,446.9072054999997,None,446.9072054999997,None,446.9072054999997,None,447.708320500009,None,447.708320500009,448.22057650002535,,,,,,,,,,,,,,,,106,2022-04-29_18h37.10.556,FishGame,2022.1.1,59.83158605081493,
,28,나를 보내줘,6,Green,A,0,0,ScrollUp,ScrollDown,Green.png,3,NonTarget,NonTarget,,,,,0,0,0,0,,,,,,,,,,,,,,,,,,,,,0,27,27,27,,,,,,,,,,,,,,,,,,,,,,,,,,,,,,,,,,,,,,,,,,,,,,,,,,,,,,,,,,,,,,,,,,,,,,,,,1.6188271616895995,1.1938603000016883,448.8482338000031,None,ScrollUp,정답입니다,448.8482338000031,None,448.8482338000031,None,448.8482338000031,None,448.8482338000031,None,449.9364403000218,None,449.9364403000218,450.43728930002544,,,,,,,,,,,,,,,,106,2022-04-29_18h37.10.556,FishGame,2022.1.1,59.83158605081493,
,29,넌 엉뚱스러워,3,Green,A,4.166666666666667,4.133333333333334,ScrollDown,ScrollUp,Green.png,3,Neutral,Neutral,,,,,0,0,0,0,,,,,,,,,,,,,,,,,,,,,0,28,28,28,,,,,,,,,,,,,,,,,,,,,,,,,,,,,,,,,,,,,,,,,,,,,,,,,,,,,,,,,,,,,,,,,,,,,,,,,1.2638888905445733,1.1785727000096813,451.0763651000161,None,ScrollDown,정답입니다,451.0763651000161,None,451.0763651000161,None,451.0763651000161,None,451.0763651000161,None,452.1412954000116,None,452.1412954000116,452.6538526000222,,,,,,,,,,,,,,,,106,2022-04-29_18h37.10.556,FishGame,2022.1.1,59.83158605081493,
,30,넌 무지해,4,Orange,B,2.541666666666667,3.066666666666667,ScrollUp,ScrollDown,Orange.png,3,Negative,Congruent,,,,,0,0,0,0,,,,,,,,,,,,,,,,,,,,,0,29,29,29,,,,,,,,,,,,,,,,,,,,,,,,,,,,,,,,,,,,,,,,,,,,,,,,,,,,,,,,,,,,,,,,,,,,,,,,,1.6157407462596893,1.7732899000111502,453.2883565000084,None,ScrollUp,정답입니다,453.2883565000084,None,453.2883565000084,None,453.2883565000084,None,453.2883565000084,None,454.9534596000158,None,454.9534596000158,455.4537793000054,,,,,,,,,,,,,,,,106,2022-04-29_18h37.10.556,FishGame,2022.1.1,59.83158605081493,
,31,넌 음울해,5,Orange,B,2.25,2.233333333333333,ScrollUp,ScrollDown,Orange.png,3,Negative,Congruent,,,,,0,0,0,0,,,,,,,,,,,,,,,,,,,,,0,30,30,30,,,,,,,,,,,,,,,,,,,,,,,,,,,,,,,,,,,,,,,,,,,,,,,,,,,,,,,,,,,,,,,,,,,,,,,,,1.6620370397965112,1.0478619000059552,456.09633020000183,None,ScrollUp,정답입니다,456.09633020000183,None,456.09633020000183,None,456.09633020000183,None,456.09633020000183,None,457.0247325000237,None,457.0247325000237,457.5369414000015,,,,,,,,,,,,,,,,106,2022-04-29_18h37.10.556,FishGame,2022.1.1,59.83158605081493,
,32,넌 냉소적이야,5,Green,A,2.916666666666667,2.4,ScrollDown,ScrollUp,Green.png,3,Negative,Incongruent,,,,,0,0,0,0,,,,,,,,,,,,,,,,,,,,,0,31,31,31,,,,,,,,,,,,,,,,,,,,,,,,,,,,,,,,,,,,,,,,,,,,,,,,,,,,,,,,,,,,,,,,,,,,,,,,,1.2716049353281655,1.0538117999967653,458.17114630001015,None,ScrollDown,정답입니다,458.17114630001015,None,458.17114630001015,None,458.17114630001015,None,458.17114630001015,None,459.11703160000616,None,459.11703160000616,459.6205494000169,,,,,,,,,,,,,,,,106,2022-04-29_18h37.10.556,FishGame,2022.1.1,59.83158605081493,
,33,나를 데려가줘,6,Orange,B,0,0,ScrollDown,ScrollUp,Orange.png,3,NonTarget,NonTarget,,,,,0,0,0,0,,,,,,,,,,,,,,,,,,,,,0,32,32,32,,,,,,,,,,,,,,,,,,,,,,,,,,,,,,,,,,,,,,,,,,,,,,,,,,,,,,,,,,,,,,,,,,,,,,,,,1.256172845760981,1.3132875000010245,460.26166870002635,None,ScrollDown,정답입니다,460.26166870002635,None,460.26166870002635,None,460.26166870002635,None,460.26166870002635,None,461.45817060000263,None,461.45817060000263,461.9706268000009,,,,,,,,,,,,,,,,106,2022-04-29_18h37.10.556,FishGame,2022.1.1,59.83158605081493,
,34,넌 쾌활해,1,Green,A,5.541666666666666,5.733333333333333,ScrollDown,ScrollUp,Green.png,3,Positive,Congruent,,,,,0,0,0,0,,,,,,,,,,,,,,,,,,,,,0,33,33,33,,,,,,,,,,,,,,,,,,,,,,,,,,,,,,,,,,,,,,,,,,,,,,,,,,,,,,,,,,,,,,,,,,,,,,,,,1.2716049353281655,0.987052800017409,462.60609060002025,None,ScrollDown,정답입니다,462.60609060002025,None,462.60609060002025,None,462.60609060002025,None,462.60609060002025,None,463.4842050000152,None,463.4842050000152,463.98722270000144,,,,,,,,,,,,,,,,106,2022-04-29_18h37.10.556,FishGame,2022.1.1,59.83158605081493,
,35,나를 보내줘,6,Green,A,0,0,ScrollUp,ScrollDown,Green.png,3,NonTarget,NonTarget,,,,,0,0,0,0,,,,,,,,,,,,,,,,,,,,,0,34,34,34,,,,,,,,,,,,,,,,,,,,,,,,,,,,,,,,,,,,,,,,,,,,,,,,,,,,,,,,,,,,,,,,,,,,,,,,,1.7608024577299755,1.1717980000248645,464.6294912000012,None,ScrollUp,정답입니다,464.6294912000012,None,464.6294912000012,None,464.6294912000012,None,464.6294912000012,None,465.68378250001115,None,465.68378250001115,466.18753040002775,,,,,,,,,,,,,,,,106,2022-04-29_18h37.10.556,FishGame,2022.1.1,59.83158605081493,
,36,넌 명랑해,1,Orange,B,5.739130434782609,5.666666666666667,ScrollUp,ScrollDown,Orange.png,3,Positive,Incongruent,,,,,0,0,0,0,,,,,,,,,,,,,,,,,,,,,0,35,35,35,,,,,,,,,,,,,,,,,,,,,,,,,,,,,,,,,,,,,,,,,,,,,,,,,,,,,,,,,,,,,,,,,,,,,,,,,1.2731481492519379,1.0295307000051253,466.83017370000016,None,ScrollDown,오답입니다,466.83017370000016,None,466.83017370000016,None,466.83017370000016,None,466.83017370000016,None,467.7415709000197,None,467.7415709000197,468.2546599000052,,,,,,,,,,,,,,,,106,2022-04-29_18h37.10.556,FishGame,2022.1.1,59.83158605081493,
,37,넌 멍해,4,Green,A,2.833333333333333,3.4,ScrollDown,ScrollUp,Green.png,3,Negative,Incongruent,,,,,0,0,0,0,,,,,,,,,,,,,,,,,,,,,0,36,36,36,,,,,,,,,,,,,,,,,,,,,,,,,,,,,,,,,,,,,,,,,,,,,,,,,,,,,,,,,,,,,,,,,,,,,,,,,1.3379629602034888,1.6082139000063762,468.88710210000863,None,ScrollDown,정답입니다,468.88710210000863,None,468.88710210000863,None,468.88710210000863,None,468.88710210000863,None,470.38239140002406,None,470.38239140002406,470.88740120001603,,,,,,,,,,,,,,,,106,2022-04-29_18h37.10.556,FishGame,2022.1.1,59.83158605081493,
,38,나를 데려가줘,6,Orange,B,0,0,ScrollDown,ScrollUp,Orange.png,3,NonTarget,NonTarget,,,,,0,0,0,0,,,,,,,,,,,,,,,,,,,,,0,37,37,37,,,,,,,,,,,,,,,,,,,,,,,,,,,,,,,,,,,,,,,,,,,,,,,,,,,,,,,,,,,,,,,,,,,,,,,,,1.3379629602034888,1.199586000002455,471.5387875000015,None,ScrollDown,정답입니다,471.5387875000015,None,471.5387875000015,None,471.5387875000015,None,471.5387875000015,None,472.60797440001625,None,472.60797440001625,473.1206915000221,,,,,,,,,,,,,,,,106,2022-04-29_18h37.10.556,FishGame,2022.1.1,59.83158605081493,
,39,넌 현명해,2,Green,A,6.541666666666666,4.533333333333333,ScrollDown,ScrollUp,Green.png,3,Positive,Congruent,,,,,0,0,0,0,,,,,,,,,,,,,,,,,,,,,0,38,38,38,,,,,,,,,,,,,,,,,,,,,,,,,,,,,,,,,,,,,,,,,,,,,,,,,,,,,,,,,,,,,,,,,,,,,,,,,1.3333333308498063,0.8317760000063572,473.7527630000259,None,ScrollDown,정답입니다,473.7527630000259,None,473.7527630000259,None,473.7527630000259,None,473.7527630000259,None,474.47506590001285,None,474.47506590001285,474.9877912000229,,,,,,,,,,,,,,,,106,2022-04-29_18h37.10.556,FishGame,2022.1.1,59.83158605081493,
,40,넌 수줍어,3,Orange,B,3.541666666666666,4.366666666666666,ScrollUp,ScrollDown,Orange.png,3,Neutral,Neutral,,,,,0,0,0,0,,,,,,,,,,,,,,,,,,,,,0,39,39,39,,,,,,,,,,,,,,,,,,,,,,,,,,,,,,,,,,,,,,,,,,,,,,,,,,,,,,,,,,,,,,,,,,,,,,,,,1.3086419701576233,1.7584039000212215,475.63817470002687,None,ScrollDown,오답입니다,475.63817470002687,None,475.63817470002687,None,475.63817470002687,None,475.63817470002687,None,477.26474730001064,None,477.26474730001064,477.7708761000249,,,,,,,,,,,,,,,,106,2022-04-29_18h37.10.556,FishGame,2022.1.1,59.83158605081493,
,41,나를 데려가줘,6,Orange,B,0,0,ScrollDown,ScrollUp,Orange.png,3,NonTarget,NonTarget,,,,,0,0,0,0,,,,,,,,,,,,,,,,,,,,,0,40,40,40,,,,,,,,,,,,,,,,,,,,,,,,,,,,,,,,,,,,,,,,,,,,,,,,,,,,,,,,,,,,,,,,,,,,,,,,,1.320987656712532,1.1220058999897446,478.40933880000375,None,ScrollDown,정답입니다,478.40933880000375,None,478.40933880000375,None,478.40933880000375,None,478.40933880000375,None,479.41331150001497,None,479.41331150001497,479.92092530001537,,,,,,,,,,,,,,,,106,2022-04-29_18h37.10.556,FishGame,2022.1.1,59.83158605081493,
,42,넌 성숙해,2,Orange,B,5.833333333333333,4.533333333333333,ScrollUp,ScrollDown,Orange.png,3,Positive,Incongruent,,,,,0,0,0,0,,,,,,,,,,,,,,,,,,,,,0,41,41,41,,,,,,,,,,,,,,,,,,,,,,,,,,,,,,,,,,,,,,,,,,,,,,,,,,,,,,,,,,,,,,,,,,,,,,,,,1.56944444651405,1.3508760999829974,480.55672040002537,None,ScrollUp,정답입니다,480.55672040002537,None,480.55672040002537,None,480.55672040002537,None,480.55672040002537,None,481.7919783000252,None,481.7919783000252,482.3043729000201,,,,,,,,,,,,,,,,106,2022-04-29_18h37.10.556,FishGame,2022.1.1,59.83158605081493,
,1,넌 매력적이야,2,Orange,B,6.125,4.666666666666667,ScrollUp,ScrollDown,Orange.png,4,Positive,Incongruent,,,,,0,0,0,0,,,,,,,,,,,,,,,,,,,,,,,,,0,0,0,0,,,,,,,,,,,,,,,,,,,,,,,,,,,,514.4219817000267,515.9218654000142,515.9549122000171,516.9048551000014,516.9547912000271,517.9049889000016,517.9049889000016,None,,,,,,,,,,,,,,,,,,,,,,,,,,,,,,,,,,1.5679012325902781,1.432603699999163,519.0794347000192,None,ScrollUp,정답입니다,519.0794347000192,None,519.0794347000192,None,519.0794347000192,None,519.0794347000192,None,520.3382946000202,None,520.3382946000202,520.8385369000025,482.8042562000046,None,482.8042562000046,None,-0.016666668,-0.12222222,1,0,0,0.016237339994404465,None,512.8047320000187,None,,,106,2022-04-29_18h37.10.556,FishGame,2022.1.1,59.83158605081493,
,2,나를 보내줘,6,Green,A,0,0,ScrollUp,ScrollDown,Green.png,4,NonTarget,NonTarget,,,,,0,0,0,0,,,,,,,,,,,,,,,,,,,,,,,,,0,1,1,1,,,,,,,,,,,,,,,,,,,,,,,,,,,,,,,,,,,,,,,,,,,,,,,,,,,,,,,,,,,,,,,,,,,,,1.6388888930281005,1.1832738000084646,521.4696687000105,None,ScrollUp,정답입니다,521.4696687000105,None,521.4696687000105,None,521.4696687000105,None,521.4696687000105,None,522.5428330000141,None,522.5428330000141,523.0546106000256,,,,,,,,,,,,,,,,106,2022-04-29_18h37.10.556,FishGame,2022.1.1,59.83158605081493,
,3,넌 조심스러워,3,Green,A,4.791666666666666,4.666666666666667,ScrollDown,ScrollUp,Green.png,4,Neutral,Neutral,,,,,0,0,0,0,,,,,,,,,,,,,,,,,,,,,,,,,0,2,2,2,,,,,,,,,,,,,,,,,,,,,,,,,,,,,,,,,,,,,,,,,,,,,,,,,,,,,,,,,,,,,,,,,,,,,1.3086419701576233,0.9737636999925599,523.6863493000274,None,ScrollDown,정답입니다,523.6863493000274,None,523.6863493000274,None,523.6863493000274,None,523.6863493000274,None,524.5545400000119,None,524.5545400000119,525.0549693000212,,,,,,,,,,,,,,,,106,2022-04-29_18h37.10.556,FishGame,2022.1.1,59.83158605081493,
,4,넌 철학적이야,3,Orange,B,4.5,4.266666666666667,ScrollUp,ScrollDown,Orange.png,4,Neutral,Neutral,,,,,0,0,0,0,,,,,,,,,,,,,,,,,,,,,,,,,0,3,3,3,,,,,,,,,,,,,,,,,,,,,,,,,,,,,,,,,,,,,,,,,,,,,,,,,,,,,,,,,,,,,,,,,,,,,1.6111111169060073,1.1662912000028882,525.6979083000042,None,ScrollUp,정답입니다,525.6979083000042,None,525.6979083000042,None,525.6979083000042,None,525.6979083000042,None,526.7425882000243,None,526.7425882000243,527.2549823000154,,,,,,,,,,,,,,,,106,2022-04-29_18h37.10.556,FishGame,2022.1.1,59.83158605081493,
,5,넌 쩨쩨해,5,Green,A,2.375,2.133333333333333,ScrollDown,ScrollUp,Green.png,4,Negative,Incongruent,,,,,0,0,0,0,,,,,,,,,,,,,,,,,,,,,,,,,0,4,4,4,,,,,,,,,,,,,,,,,,,,,,,,,,,,,,,,,,,,,,,,,,,,,,,,,,,,,,,,,,,,,,,,,,,,,1.2592592487732568,0.9079343999910634,527.8924961000157,None,ScrollDown,정답입니다,527.8924961000157,None,527.8924961000157,None,527.8924961000157,None,527.8924961000157,None,528.6880042000266,None,528.6880042000266,529.1884072000103,,,,,,,,,,,,,,,,106,2022-04-29_18h37.10.556,FishGame,2022.1.1,59.83158605081493,
,6,나를 데려가줘,6,Orange,B,0,0,ScrollDown,ScrollUp,Orange.png,4,NonTarget,NonTarget,,,,,0,0,0,0,,,,,,,,,,,,,,,,,,,,,,,,,0,5,5,5,,,,,,,,,,,,,,,,,,,,,,,,,,,,,,,,,,,,,,,,,,,,,,,,,,,,,,,,,,,,,,,,,,,,,1.3070987686514854,1.2363775999983773,529.822622800013,None,ScrollDown,정답입니다,529.822622800013,None,529.822622800013,None,529.822622800013,None,529.822622800013,None,530.9514353000268,None,530.9514353000268,531.4550164000248,,,,,,,,,,,,,,,,106,2022-04-29_18h37.10.556,FishGame,2022.1.1,59.83158605081493,
,7,넌 고집불통이야,5,Orange,B,2.875,2,ScrollUp,ScrollDown,Orange.png,4,Negative,Congruent,,,,,0,0,0,0,,,,,,,,,,,,,,,,,,,,,,,,,0,6,6,6,,,,,,,,,,,,,,,,,,,,,,,,,,,,,,,,,,,,,,,,,,,,,,,,,,,,,,,,,,,,,,,,,,,,,1.549382715175549,1.2257894000213128,532.1058261000144,None,NoResponse,무응답입니다,532.1058261000144,None,532.1058261000144,None,532.1058261000144,None,532.1058261000144,None,533.2047820000153,None,533.2047820000153,533.7050433000259,,,,,,,,,,,,,,,,106,2022-04-29_18h37.10.556,FishGame,2022.1.1,59.83158605081493,
,8,넌 무심해,4,Green,A,2.875,3.2,ScrollDown,ScrollUp,Green.png,4,Negative,Incongruent,,,,,0,0,0,0,,,,,,,,,,,,,,,,,,,,,,,,,0,7,7,7,,,,,,,,,,,,,,,,,,,,,,,,,,,,,,,,,,,,,,,,,,,,,,,,,,,,,,,,,,,,,,,,,,,,,1.341049388051033,0.8206320999888703,534.3339178000169,None,ScrollDown,정답입니다,534.3339178000169,None,534.3339178000169,None,534.3339178000169,None,534.3339178000169,None,535.045798600011,None,535.045798600011,535.5551919999998,,,,,,,,,,,,,,,,106,2022-04-29_18h37.10.556,FishGame,2022.1.1,59.83158605081493,
,9,넌 정겨워,1,Green,A,5.791666666666667,5.666666666666667,ScrollDown,ScrollUp,Green.png,4,Positive,Congruent,,,,,0,0,0,0,,,,,,,,,,,,,,,,,,,,,,,,,0,8,8,8,,,,,,,,,,,,,,,,,,,,,,,,,,,,,,,,,,,,,,,,,,,,,,,,,,,,,,,,,,,,,,,,,,,,,1.3487654328346252,0.8881168000225443,536.1928164000274,None,ScrollDown,정답입니다,536.1928164000274,None,536.1928164000274,None,536.1928164000274,None,536.1928164000274,None,536.9716478000046,None,536.9716478000046,537.4723401000083,,,,,,,,,,,,,,,,106,2022-04-29_18h37.10.556,FishGame,2022.1.1,59.83158605081493,
,10,나를 데려가줘,6,Orange,B,0,0,ScrollDown,ScrollUp,Orange.png,4,NonTarget,NonTarget,,,,,0,0,0,0,,,,,,,,,,,,,,,,,,,,,,,,,0,9,9,9,,,,,,,,,,,,,,,,,,,,,,,,,,,,,,,,,,,,,,,,,,,,,,,,,,,,,,,,,,,,,,,,,,,,,1.3595679054657617,1.8484972000005655,538.107702600013,None,ScrollDown,정답입니다,538.107702600013,None,538.107702600013,None,538.107702600013,None,538.107702600013,None,539.8432200000098,None,539.8432200000098,540.3550218000019,,,,,,,,,,,,,,,,106,2022-04-29_18h37.10.556,FishGame,2022.1.1,59.83158605081493,
,11,넌 체제순응적이야,4,Orange,B,3,3.6,ScrollUp,ScrollDown,Orange.png,4,Negative,Congruent,,,,,0,0,0,0,,,,,,,,,,,,,,,,,,,,,,,,,0,10,10,10,,,,,,,,,,,,,,,,,,,,,,,,,,,,,,,,,,,,,,,,,,,,,,,,,,,,,,,,,,,,,,,,,,,,,1.3595679054657617,1.0155079999822192,541.0096975000051,None,ScrollDown,오답입니다,541.0096975000051,None,541.0096975000051,None,541.0096975000051,None,541.0096975000051,None,541.8955936999992,None,541.8955936999992,542.4053229000128,,,,,,,,,,,,,,,,106,2022-04-29_18h37.10.556,FishGame,2022.1.1,59.83158605081493,
,12,나를 보내줘,6,Green,A,0,0,ScrollUp,ScrollDown,Green.png,4,NonTarget,NonTarget,,,,,0,0,0,0,,,,,,,,,,,,,,,,,,,,,,,,,0,11,11,11,,,,,,,,,,,,,,,,,,,,,,,,,,,,,,,,,,,,,,,,,,,,,,,,,,,,,,,,,,,,,,,,,,,,,1.614197532335917,1.116010500001721,543.0414109000121,None,ScrollUp,정답입니다,543.0414109000121,None,543.0414109000121,None,543.0414109000121,None,543.0414109000121,None,544.0449386000109,None,544.0449386000109,544.5552208000154,,,,,,,,,,,,,,,,106,2022-04-29_18h37.10.556,FishGame,2022.1.1,59.83158605081493,
,13,넌 박식해,2,Green,A,5.625,3.933333333333333,ScrollDown,ScrollUp,Green.png,4,Positive,Congruent,,,,,0,0,0,0,,,,,,,,,,,,,,,,,,,,,,,,,0,12,12,12,,,,,,,,,,,,,,,,,,,,,,,,,,,,,,,,,,,,,,,,,,,,,,,,,,,,,,,,,,,,,,,,,,,,,1.3626543208956718,0.9724707000132184,545.1956461000082,None,ScrollDown,정답입니다,545.1956461000082,None,545.1956461000082,None,545.1956461000082,None,545.1956461000082,None,546.0546285000164,None,546.0546285000164,546.555698000011,,,,,,,,,,,,,,,,106,2022-04-29_18h37.10.556,FishGame,2022.1.1,59.83158605081493,
,14,나를 보내줘,6,Green,A,0,0,ScrollUp,ScrollDown,Green.png,4,NonTarget,NonTarget,,,,,0,0,0,0,,,,,,,,,,,,,,,,,,,,,,,,,0,13,13,13,,,,,,,,,,,,,,,,,,,,,,,,,,,,,,,,,,,,,,,,,,,,,,,,,,,,,,,,,,,,,,,,,,,,,1.5709876542290053,1.6927125999936834,547.1907932000177,None,ScrollUp,정답입니다,547.1907932000177,None,547.1907932000177,None,547.1907932000177,None,547.1907932000177,None,548.7720036000246,None,548.7720036000246,549.2721681000257,,,,,,,,,,,,,,,,106,2022-04-29_18h37.10.556,FishGame,2022.1.1,59.83158605081493,
,15,넌 침착해,1,Orange,B,5.458333333333333,5.566666666666666,ScrollUp,ScrollDown,Orange.png,4,Positive,Incongruent,,,,,0,0,0,0,,,,,,,,,,,,,,,,,,,,,,,,,0,14,14,14,,,,,,,,,,,,,,,,,,,,,,,,,,,,,,,,,,,,,,,,,,,,,,,,,,,,,,,,,,,,,,,,,,,,,1.5200617282340922,1.4866090000141412,549.9189821000036,None,NoResponse,무응답입니다,549.9189821000036,None,549.9189821000036,None,549.9189821000036,None,549.9189821000036,None,551.2801913000003,None,551.2801913000003,551.7892006000038,,,,,,,,,,,,,,,,106,2022-04-29_18h37.10.556,FishGame,2022.1.1,59.83158605081493,
,16,나를 데려가줘,6,Orange,B,0,0,ScrollDown,ScrollUp,Orange.png,4,NonTarget,NonTarget,,,,,0,0,0,0,,,,,,,,,,,,,,,,,,,,,,,,,0,15,15,15,,,,,,,,,,,,,,,,,,,,,,,,,,,,,,,,,,,,,,,,,,,,,,,,,,,,,,,,,,,,,,,,,,,,,1.3919753109415371,1.7413494999927934,552.4394864000205,None,ScrollDown,정답입니다,552.4394864000205,None,552.4394864000205,None,552.4394864000205,None,552.4394864000205,None,554.050514100003,None,554.050514100003,554.5559942000255,,,,,,,,,,,,,,,,106,2022-04-29_18h37.10.556,FishGame,2022.1.1,59.83158605081493,
,17,넌 행복해,1,Green,A,6.416666666666666,6.166666666666667,ScrollDown,ScrollUp,Green.png,4,Positive,Congruent,,,,,0,0,0,0,,,,,,,,,,,,,,,,,,,,,,,,,0,16,16,16,,,,,,,,,,,,,,,,,,,,,,,,,,,,,,,,,,,,,,,,,,,,,,,,,,,,,,,,,,,,,,,,,,,,,1.3040123408039412,0.9837907999753952,555.1968118000077,None,ScrollDown,정답입니다,555.1968118000077,None,555.1968118000077,None,555.1968118000077,None,555.1968118000077,None,556.0600188000244,None,556.0600188000244,556.5723935000133,,,,,,,,,,,,,,,,106,2022-04-29_18h37.10.556,FishGame,2022.1.1,59.83158605081493,
,18,넌 겸손해,2,Orange,B,5.791666666666667,4.766666666666667,ScrollUp,ScrollDown,Orange.png,4,Positive,Incongruent,,,,,0,0,0,0,,,,,,,,,,,,,,,,,,,,,,,,,0,17,17,17,,,,,,,,,,,,,,,,,,,,,,,,,,,,,,,,,,,,,,,,,,,,,,,,,,,,,,,,,,,,,,,,,,,,,1.699074074625969,1.5317949000163935,557.2184030000062,None,ScrollUp,정답입니다,557.2184030000062,None,557.2184030000062,None,557.2184030000062,None,557.2184030000062,None,558.62686020002,None,558.62686020002,559.1394918000151,,,,,,,,,,,,,,,,106,2022-04-29_18h37.10.556,FishGame,2022.1.1,59.83158605081493,
,19,나를 보내줘,6,Green,A,0,0,ScrollUp,ScrollDown,Green.png,4,NonTarget,NonTarget,,,,,0,0,0,0,,,,,,,,,,,,,,,,,,,,,,,,,0,18,18,18,,,,,,,,,,,,,,,,,,,,,,,,,,,,,,,,,,,,,,,,,,,,,,,,,,,,,,,,,,,,,,,,,,,,,1.5925925932824612,1.1245587000157684,559.7688361000037,None,ScrollUp,정답입니다,559.7688361000037,None,559.7688361000037,None,559.7688361000037,None,559.7688361000037,None,560.788753700006,None,560.788753700006,561.2890648000175,,,,,,,,,,,,,,,,106,2022-04-29_18h37.10.556,FishGame,2022.1.1,59.83158605081493,
,20,넌 의심없어,3,Green,A,4.166666666666667,4.6,ScrollDown,ScrollUp,Green.png,4,Neutral,Neutral,,,,,0,0,0,0,,,,,,,,,,,,,,,,,,,,,,,,,0,19,19,19,,,,,,,,,,,,,,,,,,,,,,,,,,,,,,,,,,,,,,,,,,,,,,,,,,,,,,,,,,,,,,,,,,,,,1.388888883093993,2.549698200018611,561.9210819000145,None,ScrollDown,정답입니다,561.9210819000145,None,561.9210819000145,None,561.9210819000145,None,561.9210819000145,None,564.3602308000263,None,564.3602308000263,564.8730415000173,,,,,,,,,,,,,,,,106,2022-04-29_18h37.10.556,FishGame,2022.1.1,59.83158605081493,
,21,넌 시시해,4,Green,A,2.666666666666667,2.966666666666667,ScrollDown,ScrollUp,Green.png,4,Negative,Incongruent,,,,,0,0,0,0,,,,,,,,,,,,,,,,,,,,,,,,,0,20,20,20,,,,,,,,,,,,,,,,,,,,,,,,,,,,,,,,,,,,,,,,,,,,,,,,,,,,,,,,,,,,,,,,,,,,,1.3086419701576233,1.017628200002946,565.5088689000113,None,ScrollDown,정답입니다,565.5088689000113,None,565.5088689000113,None,565.5088689000113,None,565.5088689000113,None,566.4193306000088,None,566.4193306000088,566.9230889000173,,,,,,,,,,,,,,,,106,2022-04-29_18h37.10.556,FishGame,2022.1.1,59.83158605081493,
,22,나를 데려가줘,6,Orange,B,0,0,ScrollDown,ScrollUp,Orange.png,4,NonTarget,NonTarget,,,,,0,0,0,0,,,,,,,,,,,,,,,,,,,,,,,,,0,21,21,21,,,,,,,,,,,,,,,,,,,,,,,,,,,,,,,,,,,,,,,,,,,,,,,,,,,,,,,,,,,,,,,,,,,,,1.3379629602034888,1.2116609999793582,567.5579762000125,None,ScrollDown,정답입니다,567.5579762000125,None,567.5579762000125,None,567.5579762000125,None,567.5579762000125,None,568.6588230000052,None,568.6588230000052,569.1729293000244,,,,,,,,,,,,,,,,106,2022-04-29_18h37.10.556,FishGame,2022.1.1,59.83158605081493,
,23,넌 무정해,5,Green,A,2.5,2.2,ScrollDown,ScrollUp,Green.png,4,Negative,Incongruent,,,,,0,0,0,0,,,,,,,,,,,,,,,,,,,,,,,,,0,22,22,22,,,,,,,,,,,,,,,,,,,,,,,,,,,,,,,,,,,,,,,,,,,,,,,,,,,,,,,,,,,,,,,,,,,,,1.3117283980051675,1.08397090001381,569.8069453000207,None,ScrollDown,정답입니다,569.8069453000207,None,569.8069453000207,None,569.8069453000207,None,569.8069453000207,None,570.7768008000276,None,570.7768008000276,571.2894761000061,,,,,,,,,,,,,,,,106,2022-04-29_18h37.10.556,FishGame,2022.1.1,59.83158605081493,
,24,넌 긍정적이야,1,Orange,B,6.041666666666667,6.066666666666666,ScrollUp,ScrollDown,Orange.png,4,Positive,Incongruent,,,,,0,0,0,0,,,,,,,,,,,,,,,,,,,,,,,,,0,23,23,23,,,,,,,,,,,,,,,,,,,,,,,,,,,,,,,,,,,,,,,,,,,,,,,,,,,,,,,,,,,,,,,,,,,,,1.878086417913437,1.429475300014019,571.9383481000259,None,ScrollUp,정답입니다,571.9383481000259,None,571.9383481000259,None,571.9383481000259,None,571.9383481000259,None,573.2448677000066,None,573.2448677000066,573.7562445000221,,,,,,,,,,,,,,,,106,2022-04-29_18h37.10.556,FishGame,2022.1.1,59.83158605081493,
,25,나를 보내줘,6,Green,A,0,0,ScrollUp,ScrollDown,Green.png,4,NonTarget,NonTarget,,,,,0,0,0,0,,,,,,,,,,,,,,,,,,,,,,,,,0,24,24,24,,,,,,,,,,,,,,,,,,,,,,,,,,,,,,,,,,,,,,,,,,,,,,,,,,,,,,,,,,,,,,,,,,,,,1.6759259278575578,1.1237448000174481,574.3842960000038,None,ScrollUp,정답입니다,574.3842960000038,None,574.3842960000038,None,574.3842960000038,None,574.3842960000038,None,575.4057868000236,None,575.4057868000236,575.9061361000058,,,,,,,,,,,,,,,,106,2022-04-29_18h37.10.556,FishGame,2022.1.1,59.83158605081493,
,26,넌 시기심이 많아,5,Orange,B,2.458333333333333,2.233333333333333,ScrollUp,ScrollDown,Orange.png,4,Negative,Congruent,,,,,0,0,0,0,,,,,,,,,,,,,,,,,,,,,,,,,0,25,25,25,,,,,,,,,,,,,,,,,,,,,,,,,,,,,,,,,,,,,,,,,,,,,,,,,,,,,,,,,,,,,,,,,,,,,1.674382713933786,1.1021465999947395,576.5628099000023,None,ScrollUp,정답입니다,576.5628099000023,None,576.5628099000023,None,576.5628099000023,None,576.5628099000023,None,577.5289854000148,None,577.5289854000148,578.0397906000144,,,,,,,,,,,,,,,,106,2022-04-29_18h37.10.556,FishGame,2022.1.1,59.83158605081493,
,27,넌 탁월해,2,Green,A,5.708333333333334,4.5,ScrollDown,ScrollUp,Green.png,4,Positive,Congruent,,,,,0,0,0,0,,,,,,,,,,,,,,,,,,,,,,,,,0,26,26,26,,,,,,,,,,,,,,,,,,,,,,,,,,,,,,,,,,,,,,,,,,,,,,,,,,,,,,,,,,,,,,,,,,,,,1.3564814776182175,2.105932500009658,578.6769695000257,None,ScrollDown,정답입니다,578.6769695000257,None,578.6769695000257,None,578.6769695000257,None,578.6769695000257,None,580.6722529000253,None,580.6722529000253,581.1732790000096,,,,,,,,,,,,,,,,106,2022-04-29_18h37.10.556,FishGame,2022.1.1,59.83158605081493,
,28,나를 데려가줘,6,Orange,B,0,0,ScrollDown,ScrollUp,Orange.png,4,NonTarget,NonTarget,,,,,0,0,0,0,,,,,,,,,,,,,,,,,,,,,,,,,0,27,27,27,,,,,,,,,,,,,,,,,,,,,,,,,,,,,,,,,,,,,,,,,,,,,,,,,,,,,,,,,,,,,,,,,,,,,1.3117283980051675,1.5543446999799926,581.8113379000279,None,ScrollDown,정답입니다,581.8113379000279,None,581.8113379000279,None,581.8113379000279,None,581.8113379000279,None,583.2522601000092,None,583.2522601000092,583.7563330000266,,,,,,,,,,,,,,,,106,2022-04-29_18h37.10.556,FishGame,2022.1.1,59.83158605081493,
,29,넌 조용해,3,Orange,B,4.333333333333333,4.166666666666667,ScrollUp,ScrollDown,Orange.png,4,Neutral,Neutral,,,,,0,0,0,0,,,,,,,,,,,,,,,,,,,,,,,,,0,28,28,28,,,,,,,,,,,,,,,,,,,,,,,,,,,,,,,,,,,,,,,,,,,,,,,,,,,,,,,,,,,,,,,,,,,,,1.2716049353281655,0.9401638999988791,584.3972939000232,None,ScrollDown,오답입니다,584.3972939000232,None,584.3972939000232,None,584.3972939000232,None,584.3972939000232,None,585.2170015000156,None,585.2170015000156,585.7232030000014,,,,,,,,,,,,,,,,106,2022-04-29_18h37.10.556,FishGame,2022.1.1,59.83158605081493,
,30,넌 다정해,1,Green,A,5.833333333333334,5.7,ScrollDown,ScrollUp,Green.png,4,Positive,Congruent,,,,,0,0,0,0,,,,,,,,,,,,,,,,,,,,,,,,,0,29,29,29,,,,,,,,,,,,,,,,,,,,,,,,,,,,,,,,,,,,,,,,,,,,,,,,,,,,,,,,,,,,,,,,,,,,,1.320987656712532,1.6421000999980606,586.3564122000244,None,ScrollDown,정답입니다,586.3564122000244,None,586.3564122000244,None,586.3564122000244,None,586.3564122000244,None,587.8842507000081,None,587.8842507000081,588.3894174000015,,,,,,,,,,,,,,,,106,2022-04-29_18h37.10.556,FishGame,2022.1.1,59.83158605081493,
,31,넌 능력있어,2,Orange,B,6.166666666666666,4.6,ScrollUp,ScrollDown,Orange.png,4,Positive,Incongruent,,,,,0,0,0,0,,,,,,,,,,,,,,,,,,,,,,,,,0,30,30,30,,,,,,,,,,,,,,,,,,,,,,,,,,,,,,,,,,,,,,,,,,,,,,,,,,,,,,,,,,,,,,,,,,,,,1.723765422900518,1.1196876999747474,589.0258070000273,None,ScrollUp,정답입니다,589.0258070000273,None,589.0258070000273,None,589.0258070000273,None,589.0258070000273,None,590.0361038000265,None,590.0361038000265,590.5398316000064,,,,,,,,,,,,,,,,106,2022-04-29_18h37.10.556,FishGame,2022.1.1,59.83158605081493,
,32,넌 불쾌해,5,Green,A,2.125,1.933333333333333,ScrollDown,ScrollUp,Green.png,4,Negative,Incongruent,,,,,0,0,0,0,,,,,,,,,,,,,,,,,,,,,,,,,0,31,31,31,,,,,,,,,,,,,,,,,,,,,,,,,,,,,,,,,,,,,,,,,,,,,,,,,,,,,,,,,,,,,,,,,,,,,1.296296296020349,1.7001675000065006,591.1709858000104,None,ScrollDown,정답입니다,591.1709858000104,None,591.1709858000104,None,591.1709858000104,None,591.1709858000104,None,592.7610800000257,None,592.7610800000257,593.2734016000177,,,,,,,,,,,,,,,,106,2022-04-29_18h37.10.556,FishGame,2022.1.1,59.83158605081493,
,33,나를 데려가줘,6,Orange,B,0,0,ScrollDown,ScrollUp,Orange.png,4,NonTarget,NonTarget,,,,,0,0,0,0,,,,,,,,,,,,,,,,,,,,,,,,,0,32,32,32,,,,,,,,,,,,,,,,,,,,,,,,,,,,,,,,,,,,,,,,,,,,,,,,,,,,,,,,,,,,,,,,,,,,,1.2885802388191223,1.180510999984108,593.9061867000128,None,ScrollDown,정답입니다,593.9061867000128,None,593.9061867000128,None,593.9061867000128,None,593.9061867000128,None,594.9773877000262,None,594.9773877000262,595.489541900024,,,,,,,,,,,,,,,,106,2022-04-29_18h37.10.556,FishGame,2022.1.1,59.83158605081493,
,34,넌 유순해,3,Green,A,4.458333333333333,5,ScrollDown,ScrollUp,Green.png,4,Neutral,Neutral,,,,,0,0,0,0,,,,,,,,,,,,,,,,,,,,,,,,,0,33,33,33,,,,,,,,,,,,,,,,,,,,,,,,,,,,,,,,,,,,,,,,,,,,,,,,,,,,,,,,,,,,,,,,,,,,,1.28703702489535,1.2997995000041556,596.1211140000087,None,ScrollDown,정답입니다,596.1211140000087,None,596.1211140000087,None,596.1211140000087,None,596.1211140000087,None,597.3109203000204,None,597.3109203000204,597.8231626000197,,,,,,,,,,,,,,,,106,2022-04-29_18h37.10.556,FishGame,2022.1.1,59.83158605081493,
,35,넌 근심스러워,4,Orange,B,2.708333333333333,3.133333333333333,ScrollUp,ScrollDown,Orange.png,4,Negative,Congruent,,,,,0,0,0,0,,,,,,,,,,,,,,,,,,,,,,,,,0,34,34,34,,,,,,,,,,,,,,,,,,,,,,,,,,,,,,,,,,,,,,,,,,,,,,,,,,,,,,,,,,,,,,,,,,,,,1.6728395000100136,1.0078371000126936,598.4708147000056,None,ScrollUp,정답입니다,598.4708147000056,None,598.4708147000056,None,598.4708147000056,None,598.4708147000056,None,599.3563549000246,None,599.3563549000246,599.8561677000253,,,,,,,,,,,,,,,,106,2022-04-29_18h37.10.556,FishGame,2022.1.1,59.83158605081493,
,36,넌 세련되었어,2,Green,A,5.5,4.6,ScrollDown,ScrollUp,Green.png,4,Positive,Congruent,,,,,0,0,0,0,,,,,,,,,,,,,,,,,,,,,,,,,0,35,35,35,,,,,,,,,,,,,,,,,,,,,,,,,,,,,,,,,,,,,,,,,,,,,,,,,,,,,,,,,,,,,,,,,,,,,1.341049388051033,1.7967595999944024,600.5069923000119,None,ScrollDown,정답입니다,600.5069923000119,None,600.5069923000119,None,600.5069923000119,None,600.5069923000119,None,602.1780125000223,None,602.1780125000223,602.6905807000003,,,,,,,,,,,,,,,,106,2022-04-29_18h37.10.556,FishGame,2022.1.1,59.83158605081493,
,37,나를 보내줘,6,Green,A,0,0,ScrollUp,ScrollDown,Green.png,4,NonTarget,NonTarget,,,,,0,0,0,0,,,,,,,,,,,,,,,,,,,,,,,,,0,36,36,36,,,,,,,,,,,,,,,,,,,,,,,,,,,,,,,,,,,,,,,,,,,,,,,,,,,,,,,,,,,,,,,,,,,,,1.6311728358268738,1.1372584000055213,603.3208264000132,None,ScrollUp,정답입니다,603.3208264000132,None,603.3208264000132,None,603.3208264000132,None,603.3208264000132,None,604.3529786000145,None,604.3529786000145,604.8566786000156,,,,,,,,,,,,,,,,106,2022-04-29_18h37.10.556,FishGame,2022.1.1,59.83158605081493,
,38,넌 확고해,3,Orange,B,4.708333333333334,4.566666666666666,ScrollUp,ScrollDown,Orange.png,4,Neutral,Neutral,,,,,0,0,0,0,,,,,,,,,,,,,,,,,,,,,,,,,0,37,37,37,,,,,,,,,,,,,,,,,,,,,,,,,,,,,,,,,,,,,,,,,,,,,,,,,,,,,,,,,,,,,,,,,,,,,1.6604938258727393,0.9960954999842215,605.4945765000011,None,ScrollUp,정답입니다,605.4945765000011,None,605.4945765000011,None,605.4945765000011,None,605.4945765000011,None,606.3778492000129,None,606.3778492000129,606.8898582000111,,,,,,,,,,,,,,,,106,2022-04-29_18h37.10.556,FishGame,2022.1.1,59.83158605081493,
,39,넌 이해심이 많아,1,Orange,B,6.041666666666668,5.533333333333333,ScrollUp,ScrollDown,Orange.png,4,Positive,Incongruent,,,,,0,0,0,0,,,,,,,,,,,,,,,,,,,,,,,,,0,38,38,38,,,,,,,,,,,,,,,,,,,,,,,,,,,,,,,,,,,,,,,,,,,,,,,,,,,,,,,,,,,,,,,,,,,,,1.674382713933786,0.9575439000036567,607.5291547000234,None,ScrollUp,정답입니다,607.5291547000234,None,607.5291547000234,None,607.5291547000234,None,607.5291547000234,None,608.3734045000165,None,608.3734045000165,608.8735049000243,,,,,,,,,,,,,,,,106,2022-04-29_18h37.10.556,FishGame,2022.1.1,59.83158605081493,
,40,나를 보내줘,6,Green,A,0,0,ScrollUp,ScrollDown,Green.png,4,NonTarget,NonTarget,,,,,0,0,0,0,,,,,,,,,,,,,,,,,,,,,,,,,0,39,39,39,,,,,,,,,,,,,,,,,,,,,,,,,,,,,,,,,,,,,,,,,,,,,,,,,,,,,,,,,,,,,,,,,,,,,1.6450617238879204,1.2666803000029176,609.5061734000046,None,ScrollUp,정답입니다,609.5061734000046,None,609.5061734000046,None,609.5061734000046,None,609.5061734000046,None,610.6612549000129,None,610.6612549000129,611.1734854000097,,,,,,,,,,,,,,,,106,2022-04-29_18h37.10.556,FishGame,2022.1.1,59.83158605081493,
,41,넌 거칠어,4,Green,A,2.625,3.033333333333333,ScrollDown,ScrollUp,Green.png,4,Negative,Incongruent,,,,,0,0,0,0,,,,,,,,,,,,,,,,,,,,,,,,,0,40,40,40,,,,,,,,,,,,,,,,,,,,,,,,,,,,,,,,,,,,,,,,,,,,,,,,,,,,,,,,,,,,,,,,,,,,,1.2638888905445733,1.1762151999864727,611.8103921000147,None,ScrollDown,정답입니다,611.8103921000147,None,611.8103921000147,None,611.8103921000147,None,611.8103921000147,None,612.8728245000239,None,612.8728245000239,613.3733979000244,,,,,,,,,,,,,,,,106,2022-04-29_18h37.10.556,FishGame,2022.1.1,59.83158605081493,
,42,넌 변덕맞아,5,Orange,B,2.75,2.166666666666667,ScrollUp,ScrollDown,Orange.png,4,Negative,Congruent,,,,,0,0,0,0,,,,,,,,,,,,,,,,,,,,,,,,,0,41,41,41,,,,,,,,,,,,,,,,,,,,,,,,,,,,,,,,,,,,,,,,,,,,,,,,,,,,,,,,,,,,,,,,,,,,,1.6111111169060073,1.0137562000018079,614.0202307,None,ScrollUp,정답입니다,614.0202307,None,614.0202307,None,614.0202307,None,614.0202307,None,614.9115518000035,None,614.9115518000035,615.4239105000161,,,,,,,,,,,,,,,,106,2022-04-29_18h37.10.556,FishGame,2022.1.1,59.83158605081493,
,43,나를 데려가줘,6,Orange,B,0,0,ScrollDown,ScrollUp,Orange.png,4,NonTarget,NonTarget,,,,,0,0,0,0,,,,,,,,,,,,,,,,,,,,,,,,,0,42,42,42,,,,,,,,,,,,,,,,,,,,,,,,,,,,,,,,,,,,,,,,,,,,,,,,,,,,,,,,,,,,,,,,,,,,,1.180555562178294,1.2652524999866728,616.0642892000033,None,ScrollDown,정답입니다,616.0642892000033,None,616.0642892000033,None,616.0642892000033,None,616.0642892000033,None,617.2112163000274,None,617.2112163000274,617.7236754000187,,,,,,,,,,,,,,,,106,2022-04-29_18h37.10.556,FishGame,2022.1.1,59.83158605081493,
,44,넌 외로워,4,Orange,B,2.833333333333333,3.3,ScrollUp,ScrollDown,Orange.png,4,Negative,Congruent,,,,,0,0,0,0,,,,,,,,,,,,,,,,,,,,,,,,,0,43,43,43,,,,,,,,,,,,,,,,,,,,,,,,,,,,,,,,,,,,,,,,,,,,,,,,,,,,,,,,,,,,,,,,,,,,,1.2114197413126628,1.0894450999912806,618.3628141000227,None,ScrollDown,오답입니다,618.3628141000227,None,618.3628141000227,None,618.3628141000227,None,618.3628141000227,None,619.3347589000186,None,619.3347589000186,619.8403715000022,,,,,,,,,,,,,,,,106,2022-04-29_18h37.10.556,FishGame,2022.1.1,59.83158605081493,
,1,넌 불평스러워,5,Green,A,2.25,2.066666666666667,ScrollDown,ScrollUp,Green.png,5,Negative,Incongruent,,,,,0,0,0,0,,,,,,,,,,,,,,,,,,,,,,,,,,,,,0,0,0,0,,,,,,,,,,,,,,,,,,,,,,,,651.49118490002,652.9908142000204,653.0243377000152,653.9748535000253,654.0248430000211,654.9746062000049,654.9746062000049,None,,,,,,,,,,,,,,,,,,,,,,,,,,,,,,,,,,1.141975313425064,1.3863380999828223,656.1252057000238,None,ScrollDown,정답입니다,656.1252057000238,None,656.1252057000238,None,656.1252057000238,None,656.1252057000238,None,657.3522462000255,None,657.3522462000255,657.8576258000103,620.3406592000101,None,620.3406592000101,None,-0.085185185,-0.11481482,1,0,0,0.015821040025912225,None,650.3406680000189,None,,,106,2022-04-29_18h37.10.556,FishGame,2022.1.1,59.83158605081493,
,2,나를 보내줘,6,Green,A,0,0,ScrollUp,ScrollDown,Green.png,5,NonTarget,NonTarget,,,,,0,0,0,0,,,,,,,,,,,,,,,,,,,,,,,,,,,,,0,1,1,1,,,,,,,,,,,,,,,,,,,,,,,,,,,,,,,,,,,,,,,,,,,,,,,,,,,,,,,,,,,,,,,,,1.7160493781169257,1.1156406000081915,658.4963628000114,None,ScrollUp,정답입니다,658.4963628000114,None,658.4963628000114,None,658.4963628000114,None,658.4963628000114,None,659.4953275000153,None,659.4953275000153,660.0079664000077,,,,,,,,,,,,,,,,106,2022-04-29_18h37.10.556,FishGame,2022.1.1,59.83158605081493,
,3,넌 다재다능해,2,Orange,B,6.208333333333333,4.5,ScrollUp,ScrollDown,Orange.png,5,Positive,Incongruent,,,,,0,0,0,0,,,,,,,,,,,,,,,,,,,,,,,,,,,,,0,2,2,2,,,,,,,,,,,,,,,,,,,,,,,,,,,,,,,,,,,,,,,,,,,,,,,,,,,,,,,,,,,,,,,,,1.5432098750025034,1.1473180999746546,660.6443711000029,None,NoResponse,무응답입니다,660.6443711000029,None,660.6443711000029,None,660.6443711000029,None,660.6443711000029,None,661.6805647000147,None,661.6805647000147,662.1909575000172,,,,,,,,,,,,,,,,106,2022-04-29_18h37.10.556,FishGame,2022.1.1,59.83158605081493,
,4,넌 과감해,3,Green,A,4.833333333333334,4.6,ScrollDown,ScrollUp,Green.png,5,Neutral,Neutral,,,,,0,0,0,0,,,,,,,,,,,,,,,,,,,,,,,,,,,,,0,3,3,3,,,,,,,,,,,,,,,,,,,,,,,,,,,,,,,,,,,,,,,,,,,,,,,,,,,,,,,,,,,,,,,,,1.3024691392978034,0.8652015999832656,662.8282184000127,None,ScrollDown,정답입니다,662.8282184000127,None,662.8282184000127,None,662.8282184000127,None,662.8282184000127,None,663.5806655000197,None,663.5806655000197,664.0915705000225,,,,,,,,,,,,,,,,106,2022-04-29_18h37.10.556,FishGame,2022.1.1,59.83158605081493,
,5,넌 고분고분해,3,Orange,B,3.75,4.033333333333333,ScrollUp,ScrollDown,Orange.png,5,Neutral,Neutral,,,,,0,0,0,0,,,,,,,,,,,,,,,,,,,,,,,,,,,,,0,4,4,4,,,,,,,,,,,,,,,,,,,,,,,,,,,,,,,,,,,,,,,,,,,,,,,,,,,,,,,,,,,,,,,,,1.5725308619439602,1.1034125000005588,664.7352967000043,None,ScrollUp,정답입니다,664.7352967000043,None,664.7352967000043,None,664.7352967000043,None,664.7352967000043,None,665.7208054000221,None,665.7208054000221,666.2243775000097,,,,,,,,,,,,,,,,106,2022-04-29_18h37.10.556,FishGame,2022.1.1,59.83158605081493,
,6,나를 보내줘,6,Green,A,0,0,ScrollUp,ScrollDown,Green.png,5,NonTarget,NonTarget,,,,,0,0,0,0,,,,,,,,,,,,,,,,,,,,,,,,,,,,,0,5,5,5,,,,,,,,,,,,,,,,,,,,,,,,,,,,,,,,,,,,,,,,,,,,,,,,,,,,,,,,,,,,,,,,,1.589506171643734,1.4231220000074245,666.8574310000113,None,ScrollUp,정답입니다,666.8574310000113,None,666.8574310000113,None,666.8574310000113,None,666.8574310000113,None,668.1689182000118,None,668.1689182000118,668.6745266000216,,,,,,,,,,,,,,,,106,2022-04-29_18h37.10.556,FishGame,2022.1.1,59.83158605081493,
,7,넌 잘 잊어,4,Green,A,3,3.7,ScrollDown,ScrollUp,Green.png,5,Negative,Incongruent,,,,,0,0,0,0,,,,,,,,,,,,,,,,,,,,,,,,,,,,,0,6,6,6,,,,,,,,,,,,,,,,,,,,,,,,,,,,,,,,,,,,,,,,,,,,,,,,,,,,,,,,,,,,,,,,,1.192901223897934,1.0899417999899015,669.3141109000135,None,ScrollDown,정답입니다,669.3141109000135,None,669.3141109000135,None,669.3141109000135,None,669.3141109000135,None,670.2912077000074,None,670.2912077000074,670.7911530000274,,,,,,,,,,,,,,,,106,2022-04-29_18h37.10.556,FishGame,2022.1.1,59.83158605081493,
,8,넌 탐구심이없어,4,Orange,B,2.833333333333333,3.066666666666667,ScrollUp,ScrollDown,Orange.png,5,Negative,Congruent,,,,,0,0,0,0,,,,,,,,,,,,,,,,,,,,,,,,,,,,,0,7,7,7,,,,,,,,,,,,,,,,,,,,,,,,,,,,,,,,,,,,,,,,,,,,,,,,,,,,,,,,,,,,,,,,,1.632716049750646,1.0663454000023194,671.4379384000204,None,ScrollUp,정답입니다,671.4379384000204,None,671.4379384000204,None,671.4379384000204,None,671.4379384000204,None,672.3792183000187,None,672.3792183000187,672.891599500028,,,,,,,,,,,,,,,,106,2022-04-29_18h37.10.556,FishGame,2022.1.1,59.83158605081493,
,9,나를 데려가줘,6,Orange,B,0,0,ScrollDown,ScrollUp,Orange.png,5,NonTarget,NonTarget,,,,,0,0,0,0,,,,,,,,,,,,,,,,,,,,,,,,,,,,,0,8,8,8,,,,,,,,,,,,,,,,,,,,,,,,,,,,,,,,,,,,,,,,,,,,,,,,,,,,,,,,,,,,,,,,,1.1064814925193787,1.484872400003951,673.5285799000121,None,ScrollDown,정답입니다,673.5285799000121,None,673.5285799000121,None,673.5285799000121,None,673.5285799000121,None,674.9048521000077,None,674.9048521000077,675.4087281000102,,,,,,,,,,,,,,,,106,2022-04-29_18h37.10.556,FishGame,2022.1.1,59.83158605081493,
,10,넌 참되어,2,Green,A,6.041666666666664,4.733333333333333,ScrollDown,ScrollUp,Green.png,5,Positive,Congruent,,,,,0,0,0,0,,,,,,,,,,,,,,,,,,,,,,,,,,,,,0,9,9,9,,,,,,,,,,,,,,,,,,,,,,,,,,,,,,,,,,,,,,,,,,,,,,,,,,,,,,,,,,,,,,,,,1.2407407313585281,1.091534600011073,676.0460797000269,None,ScrollDown,정답입니다,676.0460797000269,None,676.0460797000269,None,676.0460797000269,None,676.0460797000269,None,677.0245578000031,None,677.0245578000031,677.5247563000012,,,,,,,,,,,,,,,,106,2022-04-29_18h37.10.556,FishGame,2022.1.1,59.83158605081493,
,11,넌 생기있어,1,Orange,B,5.875,5.633333333333334,ScrollUp,ScrollDown,Orange.png,5,Positive,Incongruent,,,,,0,0,0,0,,,,,,,,,,,,,,,,,,,,,,,,,,,,,0,10,10,10,,,,,,,,,,,,,,,,,,,,,,,,,,,,,,,,,,,,,,,,,,,,,,,,,,,,,,,,,,,,,,,,,1.8888888905445735,1.8745666999893729,678.166051200009,None,ScrollUp,정답입니다,678.166051200009,None,678.166051200009,None,678.166051200009,None,678.166051200009,None,679.9243958000152,None,679.9243958000152,680.4248478000227,,,,,,,,,,,,,,,,106,2022-04-29_18h37.10.556,FishGame,2022.1.1,59.83158605081493,
,12,넌 비사교적이야,4,Orange,B,2.875,2.9,ScrollUp,ScrollDown,Orange.png,5,Negative,Congruent,,,,,0,0,0,0,,,,,,,,,,,,,,,,,,,,,,,,,,,,,0,11,11,11,,,,,,,,,,,,,,,,,,,,,,,,,,,,,,,,,,,,,,,,,,,,,,,,,,,,,,,,,,,,,,,,,1.5416666672875485,0.9842004999809433,681.0652971000236,None,NoResponse,무응답입니다,681.0652971000236,None,681.0652971000236,None,681.0652971000236,None,681.0652971000236,None,681.930612600001,None,681.930612600001,682.441239000007,,,,,,,,,,,,,,,,106,2022-04-29_18h37.10.556,FishGame,2022.1.1,59.83158605081493,
,13,나를 데려가줘,6,Orange,B,0,0,ScrollDown,ScrollUp,Orange.png,5,NonTarget,NonTarget,,,,,0,0,0,0,,,,,,,,,,,,,,,,,,,,,,,,,,,,,0,12,12,12,,,,,,,,,,,,,,,,,,,,,,,,,,,,,,,,,,,,,,,,,,,,,,,,,,,,,,,,,,,,,,,,,1.3441358034809432,1.1528824999986682,683.0759959000279,None,ScrollDown,정답입니다,683.0759959000279,None,683.0759959000279,None,683.0759959000279,None,683.0759959000279,None,684.1146765000012,None,684.1146765000012,684.6244945000217,,,,,,,,,,,,,,,,106,2022-04-29_18h37.10.556,FishGame,2022.1.1,59.83158605081493,
,14,넌 고독해,4,Green,A,2.916666666666667,3.233333333333333,ScrollDown,ScrollUp,Green.png,5,Negative,Incongruent,,,,,0,0,0,0,,,,,,,,,,,,,,,,,,,,,,,,,,,,,0,13,13,13,,,,,,,,,,,,,,,,,,,,,,,,,,,,,,,,,,,,,,,,,,,,,,,,,,,,,,,,,,,,,,,,,1.2608024626970291,0.9982545000093523,685.2539325000253,None,ScrollDown,정답입니다,685.2539325000253,None,685.2539325000253,None,685.2539325000253,None,685.2539325000253,None,686.1462600000086,None,686.1462600000086,686.6582654000085,,,,,,,,,,,,,,,,106,2022-04-29_18h37.10.556,FishGame,2022.1.1,59.83158605081493,
,15,넌 신경질적이야,5,Orange,B,2.375,2.233333333333333,ScrollUp,ScrollDown,Orange.png,5,Negative,Congruent,,,,,0,0,0,0,,,,,,,,,,,,,,,,,,,,,,,,,,,,,0,14,14,14,,,,,,,,,,,,,,,,,,,,,,,,,,,,,,,,,,,,,,,,,,,,,,,,,,,,,,,,,,,,,,,,,1.6450617238879204,1.2077770000032615,687.2984888000065,None,ScrollUp,정답입니다,687.2984888000065,None,687.2984888000065,None,687.2984888000065,None,687.2984888000065,None,688.3913449000102,None,688.3913449000102,688.8917550000187,,,,,,,,,,,,,,,,106,2022-04-29_18h37.10.556,FishGame,2022.1.1,59.83158605081493,
,16,넌 똑똑해,2,Orange,B,5.666666666666667,3.966666666666667,ScrollUp,ScrollDown,Orange.png,5,Positive,Incongruent,,,,,0,0,0,0,,,,,,,,,,,,,,,,,,,,,,,,,,,,,0,15,15,15,,,,,,,,,,,,,,,,,,,,,,,,,,,,,,,,,,,,,,,,,,,,,,,,,,,,,,,,,,,,,,,,,1.5570987661679587,1.041423599992413,689.5312561000173,None,ScrollUp,정답입니다,689.5312561000173,None,689.5312561000173,None,689.5312561000173,None,689.5312561000173,None,690.4582834000175,None,690.4582834000175,690.9580717000063,,,,,,,,,,,,,,,,106,2022-04-29_18h37.10.556,FishGame,2022.1.1,59.83158605081493,
,17,나를 보내줘,6,Green,A,0,0,ScrollUp,ScrollDown,Green.png,5,NonTarget,NonTarget,,,,,0,0,0,0,,,,,,,,,,,,,,,,,,,,,,,,,,,,,0,16,16,16,,,,,,,,,,,,,,,,,,,,,,,,,,,,,,,,,,,,,,,,,,,,,,,,,,,,,,,,,,,,,,,,,1.5092592594834664,1.1544151999987662,691.5894640000188,None,NoResponse,무응답입니다,691.5894640000188,None,691.5894640000188,None,691.5894640000188,None,691.5894640000188,None,692.6337421000062,None,692.6337421000062,693.142367100023,,,,,,,,,,,,,,,,106,2022-04-29_18h37.10.556,FishGame,2022.1.1,59.83158605081493,
,18,넌 협조적이야,1,Green,A,5.625,5.666666666666667,ScrollDown,ScrollUp,Green.png,5,Positive,Congruent,,,,,0,0,0,0,,,,,,,,,,,,,,,,,,,,,,,,,,,,,0,17,17,17,,,,,,,,,,,,,,,,,,,,,,,,,,,,,,,,,,,,,,,,,,,,,,,,,,,,,,,,,,,,,,,,,1.3179012288649878,0.9812878999800887,693.774670200015,None,ScrollDown,정답입니다,693.774670200015,None,693.774670200015,None,693.774670200015,None,693.774670200015,None,694.6464822000125,None,694.6464822000125,695.1580974000099,,,,,,,,,,,,,,,,106,2022-04-29_18h37.10.556,FishGame,2022.1.1,59.83158605081493,
,19,나를 데려가줘,6,Orange,B,0,0,ScrollDown,ScrollUp,Orange.png,5,NonTarget,NonTarget,,,,,0,0,0,0,,,,,,,,,,,,,,,,,,,,,,,,,,,,,0,18,18,18,,,,,,,,,,,,,,,,,,,,,,,,,,,,,,,,,,,,,,,,,,,,,,,,,,,,,,,,,,,,,,,,,1.3101851840813956,1.4958244000154082,695.7953233000007,None,ScrollDown,정답입니다,695.7953233000007,None,695.7953233000007,None,695.7953233000007,None,695.7953233000007,None,697.1799662000267,None,697.1799662000267,697.6918485000206,,,,,,,,,,,,,,,,106,2022-04-29_18h37.10.556,FishGame,2022.1.1,59.83158605081493,
,20,넌 몰인정해,5,Orange,B,2.541666666666667,2.066666666666667,ScrollUp,ScrollDown,Orange.png,5,Negative,Congruent,,,,,0,0,0,0,,,,,,,,,,,,,,,,,,,,,,,,,,,,,0,19,19,19,,,,,,,,,,,,,,,,,,,,,,,,,,,,,,,,,,,,,,,,,,,,,,,,,,,,,,,,,,,,,,,,,1.2206790000200272,0.9394690000044648,698.3330385000154,None,ScrollDown,오답입니다,698.3330385000154,None,698.3330385000154,None,698.3330385000154,None,698.3330385000154,None,699.1511251000047,None,699.1511251000047,699.6588196000084,,,,,,,,,,,,,,,,106,2022-04-29_18h37.10.556,FishGame,2022.1.1,59.83158605081493,
,21,나를 데려가줘,6,Orange,B,0,0,ScrollDown,ScrollUp,Orange.png,5,NonTarget,NonTarget,,,,,0,0,0,0,,,,,,,,,,,,,,,,,,,,,,,,,,,,,0,20,20,20,,,,,,,,,,,,,,,,,,,,,,,,,,,,,,,,,,,,,,,,,,,,,,,,,,,,,,,,,,,,,,,,,1.3179012288649878,1.2662615999870468,700.2934538000263,None,ScrollDown,정답입니다,700.2934538000263,None,700.2934538000263,None,700.2934538000263,None,700.2934538000263,None,701.4475796000042,None,701.4475796000042,701.9585003000102,,,,,,,,,,,,,,,,106,2022-04-29_18h37.10.556,FishGame,2022.1.1,59.83158605081493,
