name,TrialNum,Word,WordCategory,FishType,WordList,WordValence,WordReputation,CorrectResp,IncorrectResp,FishTypeFile,Round,WordType,Condition,LoopforOrange.thisRepN,LoopforOrange.thisTrialN,LoopforOrange.thisN,LoopforOrange.thisIndex,OrangeInstLoop.thisRepN,OrangeInstLoop.thisTrialN,OrangeInstLoop.thisN,OrangeInstLoop.thisIndex,OrangePrac.thisRepN,OrangePrac.thisTrialN,OrangePrac.thisN,OrangePrac.thisIndex,temp1.thisRepN,temp1.thisTrialN,temp1.thisN,temp1.thisIndex,OrangeRound1.thisRepN,OrangeRound1.thisTrialN,OrangeRound1.thisN,OrangeRound1.thisIndex,OrangeRound2.thisRepN,OrangeRound2.thisTrialN,OrangeRound2.thisN,OrangeRound2.thisIndex,OrangeRound3.thisRepN,OrangeRound3.thisTrialN,OrangeRound3.thisN,OrangeRound3.thisIndex,OrangeRound4.thisRepN,OrangeRound4.thisTrialN,OrangeRound4.thisN,OrangeRound4.thisIndex,OrangeRound5.thisRepN,OrangeRound5.thisTrialN,OrangeRound5.thisN,OrangeRound5.thisIndex,LoopForGreen.thisRepN,LoopForGreen.thisTrialN,LoopForGreen.thisN,LoopForGreen.thisIndex,text_2.started,text_2.stopped,text_3.started,text_3.stopped,key_resp.keys,key_resp.rt,key_resp.started,key_resp.stopped,PassI_2.started,PassI_2.stopped,PassInst_2.keys,PassInst_2.rt,PassInst_2.started,PassInst_2.stopped,mouse_2.x,mouse_2.y,mouse_2.leftButton,mouse_2.midButton,mouse_2.rightButton,mouse_2.started,mouse_2.stopped,image.started,image.stopped,text_5.started,text_5.stopped,text_6.started,text_6.stopped,text_7.started,text_7.stopped,text_8.started,text_8.stopped,slider_2.response,slider_2.rt,slider_2.started,slider_2.stopped,Response_2,Feedback_2,BackGround_2.started,BackGround_2.stopped,Fish_2.started,Fish_2.stopped,WordBox_2.started,WordBox_2.stopped,Words_2.started,Words_2.stopped,BackGround_Feedback_2.started,BackGround_Feedback_2.stopped,Feedbacks_2.started,Feedbacks_2.stopped,Continue_or_not.keys,Continue_or_not.rt,Continue_or_not.started,Continue_or_not.stopped,image_3.started,image_3.stopped,mouse_3.x,mouse_3.y,mouse_3.leftButton,mouse_3.midButton,mouse_3.rightButton,mouse_3.started,mouse_3.stopped,startmain.started,startmain.stopped,slider.response,slider.rt,slider.started,slider.stopped,Response,Feedback,BackGround.started,BackGround.stopped,Fish.started,Fish.stopped,WordBox.started,WordBox.stopped,Words.started,Words.stopped,BackGround_Feedback.started,BackGround_Feedback.stopped,Feedbacks.started,Feedbacks.stopped,text.started,text.stopped,break_interval.started,break_interval.stopped,mouse.x,mouse.y,mouse.leftButton,mouse.midButton,mouse.rightButton,mouse.started,mouse.stopped,stratnextround.started,stratnextround.stopped,endgame.started,endgame.stopped,participant,date,expName,psychopyVersion,frameRate,
,,,,,,,,,,,,,,,,,,,,,,,,,,,,,,,,,,,,,,,,,,,,,,,,,,,,,,27.785720699990634,None,27.785720699990634,None,space,6.028963899996597,28.246839099971112,None,,,,,,,,,,,,,,,,,,,,,,,,,,,,,,,,,,,,,,,,,,,,,,,,,,,,,,,,,,,,,,,,,,,,,,,,,,,,,,,,,,,,,,,,,,107,2022-05-02_09h24.06.179,FishGame,2022.1.1,60.01983056327316,
물고기과제_instruction(참가자용)OrangeVersion.mp4,,,,,,,,,,,,,,0,0,0,0,0,0,0,0,,,,,,,,,,,,,,,,,,,,,,,,,,,,,,,,,,,,,,,,,100.54344099998707,None,n,12.033054600004107,100.54344099998707,None,,,,,,,,,,,,,,,,,,,,,,,,,,,,,,,,,,,,,,,,,,,,,,,,,,,,,,,,,,,,,,,,,,,,,,,,,,,,,,,,,,,,107,2022-05-02_09h24.06.179,FishGame,2022.1.1,60.01983056327316,
,1,넌 교활해,5,Green,B,2.333333333333333,2.133333333333333,ScrollUp,ScrollDown,Green.png,practice,,,0,0,0,0,,,,,0,0,0,0,0,0,0,0,,,,,,,,,,,,,,,,,,,,,,,,,,,,,,,,,,,,,,,0.05925926,-0.23796296,1,0,0,0.5138322299462743,None,112.59826110000722,None,118.58137369999895,120.08131889998913,120.11479989998043,121.06492939998861,121.11474809999345,122.0642388999695,122.0642388999695,None,1.9537037014961243,1.518659099994693,123.23264569998719,None,ScrollUp,정답입니다,123.23264569998719,None,123.23264569998719,None,123.23264569998719,None,123.23264569998719,None,124.57862310000928,None,124.57862310000928,125.08166789996903,,,,,,,,,,,,,,,,,,,,,,,,,,,,,,,,,,,,,,,,,,,,,,,,,107,2022-05-02_09h24.06.179,FishGame,2022.1.1,60.01983056327316,
,2,넌 슬기로워,2,Orange,A,6.166666666666667,4.1,ScrollDown,ScrollUp,Orange.png,practice,,,0,0,0,0,,,,,0,0,0,0,0,1,1,1,,,,,,,,,,,,,,,,,,,,,,,,,,,,,,,,,,,,,,,,,,,,,,,,,,,,,,,,1,1.0061940000159666,125.71658080001362,None,ScrollDown,정답입니다,125.71658080001362,None,125.71658080001362,None,125.71658080001362,None,125.71658080001362,None,126.61405889998423,None,126.61405889998423,127.11434129998088,,,,,,,,,,,,,,,,,,,,,,,,,,,,,,,,,,,,,,,,,,,,,,,,,107,2022-05-02_09h24.06.179,FishGame,2022.1.1,60.01983056327316,
,3,나를 보내줘,6,Orange,A,0,0,ScrollUp,ScrollDown,Orange.png,practice,,,0,0,0,0,,,,,0,0,0,0,0,2,2,2,,,,,,,,,,,,,,,,,,,,,,,,,,,,,,,,,,,,,,,,,,,,,,,,,,,,,,,,1.6913580298423767,1.3676268000272103,127.74754489999032,None,ScrollUp,정답입니다,127.74754489999032,None,127.74754489999032,None,127.74754489999032,None,127.74754489999032,None,129.0114836000139,None,129.0114836000139,129.51467369997408,,,,,,,,,,,,,,,,,,,,,,,,,,,,,,,,,,,,,,,,,,,,,,,,,107,2022-05-02_09h24.06.179,FishGame,2022.1.1,60.01983056327316,
,4,나를 데려가줘,6,Green,B,0,0,ScrollDown,ScrollUp,Green.png,practice,,,0,0,0,0,,,,,0,0,0,0,0,3,3,3,,,,,,,,,,,,,,,,,,,,,,,,,,,,,,,,,,,,,,,,,,,,,,,,,,,,,,,,1,1.5566466000163928,130.1443687999854,None,ScrollDown,정답입니다,130.1443687999854,None,130.1443687999854,None,130.1443687999854,None,130.1443687999854,None,131.59798879997106,None,131.59798879997106,132.09828039997956,,,,,,,,,,,,,,,,,,,,,,,,,,,,,,,,,,,,,,,,,,,,,,,,,107,2022-05-02_09h24.06.179,FishGame,2022.1.1,60.01983056327316,
,1,넌 교활해,5,Green,B,2.333333333333333,2.133333333333333,ScrollUp,ScrollDown,Green.png,practice,,,0,0,0,0,,,,,0,0,0,0,,,,,,,,,,,,,,,,,,,,,,,,,,,,,,,,,,,,,,,,,,,,,,,,,,,,,,,,,,,,,,,,,,,,,,,,,,,,,,n,19.267268499999773,132.59783440001775,None,132.59783440001775,None,,,,,,,,,,,,,,,,,,,,,,,,,,,,,,,,,,,,,,,,,,,107,2022-05-02_09h24.06.179,FishGame,2022.1.1,60.01983056327316,
,1,넌 따뜻해,1,Green,B,6.083333333333333,5.6,ScrollUp,ScrollDown,Green.png,1,Positive,Incongruent,0,0,0,0,,,,,,,,,,,,,0,0,0,0,,,,,,,,,,,,,,,,,,,,,,,,,,,,,,,,,,,,,,,,,,,,154.666155599989,156.16503849998116,156.2152810000116,157.16540739999618,157.21535770001356,158.16542530001607,158.16542530001607,None,,,,,,,,,,,,,,,,,,,,,,,,,0.024074074,-0.13703704,1,0,0,0.3123945299885236,None,151.882231399999,None,1.6697530845801034,1.561459599994123,159.3243917999789,None,ScrollUp,정답입니다,159.3243917999789,None,159.3243917999789,None,159.3243917999789,None,159.3243917999789,None,160.72661349998089,None,160.72661349998089,161.23199170001317,,,,,,,,,,,,,,,,107,2022-05-02_09h24.06.179,FishGame,2022.1.1,60.01983056327316,
,2,넌 기품있어,2,Green,B,5.791666666666668,4.5,ScrollUp,ScrollDown,Green.png,1,Positive,Incongruent,0,0,0,0,,,,,,,,,,,,,0,1,1,1,,,,,,,,,,,,,,,,,,,,,,,,,,,,,,,,,,,,,,,,,,,,,,,,,,,,,,,,,,,,,,,,,,,,,,,,,,,,,,,,,,,,,1.7638888855775197,1.2405529000097886,161.88155029999325,None,ScrollUp,정답입니다,161.88155029999325,None,161.88155029999325,None,161.88155029999325,None,161.88155029999325,None,162.9988664999837,None,162.9988664999837,163.49882300000172,,,,,,,,,,,,,,,,107,2022-05-02_09h24.06.179,FishGame,2022.1.1,60.01983056327316,
,3,나를 보내줘,6,Orange,A,0,0,ScrollUp,ScrollDown,Orange.png,1,NonTarget,NonTarget,0,0,0,0,,,,,,,,,,,,,0,2,2,2,,,,,,,,,,,,,,,,,,,,,,,,,,,,,,,,,,,,,,,,,,,,,,,,,,,,,,,,,,,,,,,,,,,,,,,,,,,,,,,,,,,,,1.7592592686414719,1.3326967000029981,164.1486876999843,None,ScrollUp,정답입니다,164.1486876999843,None,164.1486876999843,None,164.1486876999843,None,164.1486876999843,None,165.35370440001134,None,165.35370440001134,165.86573209997732,,,,,,,,,,,,,,,,107,2022-05-02_09h24.06.179,FishGame,2022.1.1,60.01983056327316,
,4,넌 수동적이야,4,Orange,A,2.833333333333333,2.933333333333333,ScrollDown,ScrollUp,Orange.png,1,Negative,Incongruent,0,0,0,0,,,,,,,,,,,,,0,3,3,3,,,,,,,,,,,,,,,,,,,,,,,,,,,,,,,,,,,,,,,,,,,,,,,,,,,,,,,,,,,,,,,,,,,,,,,,,,,,,,,,,,,,,1.0123456915219624,1.1252290999982506,166.5147174000158,None,ScrollDown,정답입니다,166.5147174000158,None,166.5147174000158,None,166.5147174000158,None,166.5147174000158,None,167.51613150001504,None,167.51613150001504,168.01590639998903,,,,,,,,,,,,,,,,107,2022-05-02_09h24.06.179,FishGame,2022.1.1,60.01983056327316,
,5,넌 사심이 없어,3,Green,B,4.916666666666666,4.333333333333333,ScrollUp,ScrollDown,Green.png,1,Neutral,Neutral,0,0,0,0,,,,,,,,,,,,,0,4,4,4,,,,,,,,,,,,,,,,,,,,,,,,,,,,,,,,,,,,,,,,,,,,,,,,,,,,,,,,,,,,,,,,,,,,,,,,,,,,,,,,,,,,,1.6280864203969636,1.109939799993299,168.65947020001477,None,ScrollUp,정답입니다,168.65947020001477,None,168.65947020001477,None,168.65947020001477,None,168.65947020001477,None,169.64876329997787,None,169.64876329997787,170.14904409996234,,,,,,,,,,,,,,,,107,2022-05-02_09h24.06.179,FishGame,2022.1.1,60.01983056327316,
,6,넌 헤퍼,5,Orange,A,2.458333333333334,2.233333333333333,ScrollDown,ScrollUp,Orange.png,1,Negative,Incongruent,0,0,0,0,,,,,,,,,,,,,0,5,5,5,,,,,,,,,,,,,,,,,,,,,,,,,,,,,,,,,,,,,,,,,,,,,,,,,,,,,,,,,,,,,,,,,,,,,,,,,,,,,,,,,,,,,1.2191358109315236,1.3533420999883674,170.78886600001715,None,ScrollDown,정답입니다,170.78886600001715,None,170.78886600001715,None,170.78886600001715,None,170.78886600001715,None,172.02136810001684,None,172.02136810001684,172.53231370000867,,,,,,,,,,,,,,,,107,2022-05-02_09h24.06.179,FishGame,2022.1.1,60.01983056327316,
,7,넌 말쑥해,3,Orange,A,4.833333333333334,4.333333333333333,ScrollDown,ScrollUp,Orange.png,1,Neutral,Neutral,0,0,0,0,,,,,,,,,,,,,0,6,6,6,,,,,,,,,,,,,,,,,,,,,,,,,,,,,,,,,,,,,,,,,,,,,,,,,,,,,,,,,,,,,,,,,,,,,,,,,,,,,,,,,,,,,1.0679012437661488,1.2076081999693997,173.16907050000736,None,ScrollDown,정답입니다,173.16907050000736,None,173.16907050000736,None,173.16907050000736,None,173.16907050000736,None,174.2655778999906,None,174.2655778999906,174.76586990000214,,,,,,,,,,,,,,,,107,2022-05-02_09h24.06.179,FishGame,2022.1.1,60.01983056327316,
,8,넌 투덜거려,5,Green,B,2.541666666666667,2.266666666666667,ScrollUp,ScrollDown,Green.png,1,Negative,Congruent,0,0,0,0,,,,,,,,,,,,,0,7,7,7,,,,,,,,,,,,,,,,,,,,,,,,,,,,,,,,,,,,,,,,,,,,,,,,,,,,,,,,,,,,,,,,,,,,,,,,,,,,,,,,,,,,,1.537037037933866,1.0774699000176042,175.41075669997372,None,NoResponse,무응답입니다,175.41075669997372,None,175.41075669997372,None,175.41075669997372,None,175.41075669997372,None,176.3677835999988,None,176.3677835999988,176.88200440001674,,,,,,,,,,,,,,,,107,2022-05-02_09h24.06.179,FishGame,2022.1.1,60.01983056327316,
,9,넌 적극적이야,1,Orange,A,5.708333333333333,5.533333333333333,ScrollDown,ScrollUp,Orange.png,1,Positive,Congruent,0,0,0,0,,,,,,,,,,,,,0,8,8,8,,,,,,,,,,,,,,,,,,,,,,,,,,,,,,,,,,,,,,,,,,,,,,,,,,,,,,,,,,,,,,,,,,,,,,,,,,,,,,,,,,,,,1.1358024577299755,1.127888199989684,177.5222584999865,None,ScrollDown,정답입니다,177.5222584999865,None,177.5222584999865,None,177.5222584999865,None,177.5222584999865,None,178.5274174999795,None,178.5274174999795,179.03214969998226,,,,,,,,,,,,,,,,107,2022-05-02_09h24.06.179,FishGame,2022.1.1,60.01983056327316,
,10,넌 재미없어,4,Green,B,2.625,2.966666666666667,ScrollUp,ScrollDown,Green.png,1,Negative,Congruent,0,0,0,0,,,,,,,,,,,,,0,9,9,9,,,,,,,,,,,,,,,,,,,,,,,,,,,,,,,,,,,,,,,,,,,,,,,,,,,,,,,,,,,,,,,,,,,,,,,,,,,,,,,,,,,,,1.6404320945342383,0.9571910999948159,179.66684209997766,None,ScrollUp,정답입니다,179.66684209997766,None,179.66684209997766,None,179.66684209997766,None,179.66684209997766,None,180.51586109999334,None,180.51586109999334,181.01574589998927,,,,,,,,,,,,,,,,107,2022-05-02_09h24.06.179,FishGame,2022.1.1,60.01983056327316,
,11,넌 명석해,2,Orange,A,5.875,4.033333333333333,ScrollDown,ScrollUp,Orange.png,1,Positive,Congruent,0,0,0,0,,,,,,,,,,,,,0,10,10,10,,,,,,,,,,,,,,,,,,,,,,,,,,,,,,,,,,,,,,,,,,,,,,,,,,,,,,,,,,,,,,,,,,,,,,,,,,,,,,,,,,,,,1.174382706483205,1.1100654000183567,181.65924349997658,None,ScrollDown,정답입니다,181.65924349997658,None,181.65924349997658,None,181.65924349997658,None,181.65924349997658,None,182.6493010999984,None,182.6493010999984,183.1494508999749,,,,,,,,,,,,,,,,107,2022-05-02_09h24.06.179,FishGame,2022.1.1,60.01983056327316,
,12,나를 데려가줘,6,Green,B,0,0,ScrollDown,ScrollUp,Green.png,1,NonTarget,NonTarget,0,0,0,0,,,,,,,,,,,,,0,11,11,11,,,,,,,,,,,,,,,,,,,,,,,,,,,,,,,,,,,,,,,,,,,,,,,,,,,,,,,,,,,,,,,,,,,,,,,,,,,,,,,,,,,,,1.212962955236435,1.4061893000034615,183.78444049996324,None,ScrollDown,정답입니다,183.78444049996324,None,183.78444049996324,None,183.78444049996324,None,183.78444049996324,None,185.08278019999852,None,185.08278019999852,185.58220599999186,,,,,,,,,,,,,,,,107,2022-05-02_09h24.06.179,FishGame,2022.1.1,60.01983056327316,
,13,넌 소심해,4,Orange,A,3,3.1,ScrollDown,ScrollUp,Orange.png,1,Negative,Incongruent,0,0,0,0,,,,,,,,,,,,,0,12,12,12,,,,,,,,,,,,,,,,,,,,,,,,,,,,,,,,,,,,,,,,,,,,,,,,,,,,,,,,,,,,,,,,,,,,,,,,,,,,,,,,,,,,,1.160493830839793,1.2740266000037082,186.2192386999959,None,ScrollDown,정답입니다,186.2192386999959,None,186.2192386999959,None,186.2192386999959,None,186.2192386999959,None,187.3822062999825,None,187.3822062999825,187.88221670000348,,,,,,,,,,,,,,,,107,2022-05-02_09h24.06.179,FishGame,2022.1.1,60.01983056327316,
,14,넌 합리적이야,2,Orange,A,5.583333333333333,4.733333333333333,ScrollDown,ScrollUp,Orange.png,1,Positive,Congruent,0,0,0,0,,,,,,,,,,,,,0,13,13,13,,,,,,,,,,,,,,,,,,,,,,,,,,,,,,,,,,,,,,,,,,,,,,,,,,,,,,,,,,,,,,,,,,,,,,,,,,,,,,,,,,,,,1.120370368162791,1.0490097000147216,188.52082869998412,None,ScrollDown,정답입니다,188.52082869998412,None,188.52082869998412,None,188.52082869998412,None,188.52082869998412,None,189.45410420000553,None,189.45410420000553,189.96570669999346,,,,,,,,,,,,,,,,107,2022-05-02_09h24.06.179,FishGame,2022.1.1,60.01983056327316,
,15,넌 무자비해,5,Green,B,2.333333333333333,2.1,ScrollUp,ScrollDown,Green.png,1,Negative,Congruent,0,0,0,0,,,,,,,,,,,,,0,14,14,14,,,,,,,,,,,,,,,,,,,,,,,,,,,,,,,,,,,,,,,,,,,,,,,,,,,,,,,,,,,,,,,,,,,,,,,,,,,,,,,,,,,,,1.6033950597047806,1.134354899986647,190.60453569999663,None,ScrollUp,정답입니다,190.60453569999663,None,190.60453569999663,None,190.60453569999663,None,190.60453569999663,None,191.62054129998432,None,191.62054129998432,192.13248639996164,,,,,,,,,,,,,,,,107,2022-05-02_09h24.06.179,FishGame,2022.1.1,60.01983056327316,
,16,나를 보내줘,6,Orange,A,0,0,ScrollUp,ScrollDown,Orange.png,1,NonTarget,NonTarget,0,0,0,0,,,,,,,,,,,,,0,15,15,15,,,,,,,,,,,,,,,,,,,,,,,,,,,,,,,,,,,,,,,,,,,,,,,,,,,,,,,,,,,,,,,,,,,,,,,,,,,,,,,,,,,,,1.7222222338120141,1.201231800019741,192.76341429998865,None,ScrollUp,정답입니다,192.76341429998865,None,192.76341429998865,None,192.76341429998865,None,192.76341429998865,None,193.85431029996835,None,193.85431029996835,194.36604609998176,,,,,,,,,,,,,,,,107,2022-05-02_09h24.06.179,FishGame,2022.1.1,60.01983056327316,
,17,넌 현실적이야,3,Green,B,4.608695652173913,4.766666666666667,ScrollUp,ScrollDown,Green.png,1,Neutral,Neutral,0,0,0,0,,,,,,,,,,,,,0,16,16,16,,,,,,,,,,,,,,,,,,,,,,,,,,,,,,,,,,,,,,,,,,,,,,,,,,,,,,,,,,,,,,,,,,,,,,,,,,,,,,,,,,,,,1.6388888930281005,1.3106785000418313,195.0018609999679,None,ScrollUp,정답입니다,195.0018609999679,None,195.0018609999679,None,195.0018609999679,None,195.0018609999679,None,196.20177980000153,None,196.20177980000153,196.71653019997757,,,,,,,,,,,,,,,,107,2022-05-02_09h24.06.179,FishGame,2022.1.1,60.01983056327316,
,18,넌 의리있어,1,Green,B,5.833333333333334,5.633333333333334,ScrollUp,ScrollDown,Green.png,1,Positive,Incongruent,0,0,0,0,,,,,,,,,,,,,0,17,17,17,,,,,,,,,,,,,,,,,,,,,,,,,,,,,,,,,,,,,,,,,,,,,,,,,,,,,,,,,,,,,,,,,,,,,,,,,,,,,,,,,,,,,1.5617283955216408,0.9585043999832124,197.3451197000104,None,ScrollUp,정답입니다,197.3451197000104,None,197.3451197000104,None,197.3451197000104,None,197.3451197000104,None,198.19969929999206,None,198.19969929999206,198.7001803999883,,,,,,,,,,,,,,,,107,2022-05-02_09h24.06.179,FishGame,2022.1.1,60.01983056327316,
,19,넌 신경과민이야,5,Orange,A,2.541666666666667,2.166666666666667,ScrollDown,ScrollUp,Orange.png,1,Negative,Incongruent,0,0,0,0,,,,,,,,,,,,,0,18,18,18,,,,,,,,,,,,,,,,,,,,,,,,,,,,,,,,,,,,,,,,,,,,,,,,,,,,,,,,,,,,,,,,,,,,,,,,,,,,,,,,,,,,,1.1882716069618862,0.9445610999828205,199.35008299996844,None,ScrollDown,정답입니다,199.35008299996844,None,199.35008299996844,None,199.35008299996844,None,199.35008299996844,None,200.16637150000315,None,200.16637150000315,200.66682819998823,,,,,,,,,,,,,,,,107,2022-05-02_09h24.06.179,FishGame,2022.1.1,60.01983056327316,
,20,넌 편안해,1,Orange,A,5.916666666666666,5.866666666666666,ScrollDown,ScrollUp,Orange.png,1,Positive,Congruent,0,0,0,0,,,,,,,,,,,,,0,19,19,19,,,,,,,,,,,,,,,,,,,,,,,,,,,,,,,,,,,,,,,,,,,,,,,,,,,,,,,,,,,,,,,,,,,,,,,,,,,,,,,,,,,,,1.253086417913437,0.9920964000048116,201.31006109999726,None,ScrollDown,정답입니다,201.31006109999726,None,201.31006109999726,None,201.31006109999726,None,201.31006109999726,None,202.18309579999186,None,202.18309579999186,202.6824872000143,,,,,,,,,,,,,,,,107,2022-05-02_09h24.06.179,FishGame,2022.1.1,60.01983056327316,
,21,넌 품위있어,2,Green,B,5.291666666666666,4.466666666666667,ScrollUp,ScrollDown,Green.png,1,Positive,Incongruent,0,0,0,0,,,,,,,,,,,,,0,20,20,20,,,,,,,,,,,,,,,,,,,,,,,,,,,,,,,,,,,,,,,,,,,,,,,,,,,,,,,,,,,,,,,,,,,,,,,,,,,,,,,,,,,,,1.5555555584530034,0.9526667000027373,203.3139771000133,None,ScrollUp,정답입니다,203.3139771000133,None,203.3139771000133,None,203.3139771000133,None,203.3139771000133,None,204.16279779997421,None,204.16279779997421,204.66633599996567,,,,,,,,,,,,,,,,107,2022-05-02_09h24.06.179,FishGame,2022.1.1,60.01983056327316,
,22,넌 빈틈없어,3,Orange,A,4.833333333333333,3.966666666666667,ScrollDown,ScrollUp,Orange.png,1,Neutral,Neutral,0,0,0,0,,,,,,,,,,,,,0,21,21,21,,,,,,,,,,,,,,,,,,,,,,,,,,,,,,,,,,,,,,,,,,,,,,,,,,,,,,,,,,,,,,,,,,,,,,,,,,,,,,,,,,,,,1.1728395173947017,1.168320000055246,205.307332700002,None,ScrollDown,정답입니다,205.307332700002,None,205.307332700002,None,205.307332700002,None,205.307332700002,None,206.35462539998116,None,206.35462539998116,206.86649400001625,,,,,,,,,,,,,,,,107,2022-05-02_09h24.06.179,FishGame,2022.1.1,60.01983056327316,
,23,넌 상상력없어,4,Green,B,2.833333333333333,3.133333333333333,ScrollUp,ScrollDown,Green.png,1,Negative,Congruent,0,0,0,0,,,,,,,,,,,,,0,22,22,22,,,,,,,,,,,,,,,,,,,,,,,,,,,,,,,,,,,,,,,,,,,,,,,,,,,,,,,,,,,,,,,,,,,,,,,,,,,,,,,,,,,,,1.4907407405165334,0.9331385000259615,207.49953009997262,None,NoResponse,무응답입니다,207.49953009997262,None,207.49953009997262,None,207.49953009997262,None,207.49953009997262,None,208.3229403999867,None,208.3229403999867,208.83279439999023,,,,,,,,,,,,,,,,107,2022-05-02_09h24.06.179,FishGame,2022.1.1,60.01983056327316,
,24,넌 지혜로워,2,Green,B,6.333333333333334,4.633333333333334,ScrollUp,ScrollDown,Green.png,1,Positive,Incongruent,0,0,0,0,,,,,,,,,,,,,0,23,23,23,,,,,,,,,,,,,,,,,,,,,,,,,,,,,,,,,,,,,,,,,,,,,,,,,,,,,,,,,,,,,,,,,,,,,,,,,,,,,,,,,,,,,1.5308641977608204,0.9249527999782003,209.47145000001183,None,NoResponse,무응답입니다,209.47145000001183,None,209.47145000001183,None,209.47145000001183,None,209.47145000001183,None,210.28307679999853,None,210.28307679999853,210.7826502000098,,,,,,,,,,,,,,,,107,2022-05-02_09h24.06.179,FishGame,2022.1.1,60.01983056327316,
,25,넌 시끄러워,4,Orange,A,2.833333333333333,3.033333333333333,ScrollDown,ScrollUp,Orange.png,1,Negative,Incongruent,0,0,0,0,,,,,,,,,,,,,0,24,24,24,,,,,,,,,,,,,,,,,,,,,,,,,,,,,,,,,,,,,,,,,,,,,,,,,,,,,,,,,,,,,,,,,,,,,,,,,,,,,,,,,,,,,1.2901234527428946,1.1387663999921642,211.42446339997696,None,ScrollDown,정답입니다,211.42446339997696,None,211.42446339997696,None,211.42446339997696,None,211.42446339997696,None,212.44160690001445,None,212.44160690001445,212.9498336999677,,,,,,,,,,,,,,,,107,2022-05-02_09h24.06.179,FishGame,2022.1.1,60.01983056327316,
,26,넌 만사태평이야,3,Green,B,4,4.333333333333333,ScrollUp,ScrollDown,Green.png,1,Neutral,Neutral,0,0,0,0,,,,,,,,,,,,,0,25,25,25,,,,,,,,,,,,,,,,,,,,,,,,,,,,,,,,,,,,,,,,,,,,,,,,,,,,,,,,,,,,,,,,,,,,,,,,,,,,,,,,,,,,,1.5864197500050068,1.0066162000293843,213.5964313999866,None,ScrollUp,정답입니다,213.5964313999866,None,213.5964313999866,None,213.5964313999866,None,213.5964313999866,None,214.48282249999465,None,214.48282249999465,214.98291079996852,,,,,,,,,,,,,,,,107,2022-05-02_09h24.06.179,FishGame,2022.1.1,60.01983056327316,
,27,넌 붙임성있어,1,Orange,A,5.708333333333333,5.633333333333334,ScrollDown,ScrollUp,Orange.png,1,Positive,Congruent,0,0,0,0,,,,,,,,,,,,,0,26,26,26,,,,,,,,,,,,,,,,,,,,,,,,,,,,,,,,,,,,,,,,,,,,,,,,,,,,,,,,,,,,,,,,,,,,,,,,,,,,,,,,,,,,,1.2376543283462524,1.0045888999593444,215.62306359998183,None,ScrollDown,정답입니다,215.62306359998183,None,215.62306359998183,None,215.62306359998183,None,215.62306359998183,None,216.51666899997508,None,216.51666899997508,217.01638220000314,,,,,,,,,,,,,,,,107,2022-05-02_09h24.06.179,FishGame,2022.1.1,60.01983056327316,
,28,넌 영리해,2,Orange,A,6,4.033333333333333,ScrollDown,ScrollUp,Orange.png,1,Positive,Congruent,0,0,0,0,,,,,,,,,,,,,0,27,27,27,,,,,,,,,,,,,,,,,,,,,,,,,,,,,,,,,,,,,,,,,,,,,,,,,,,,,,,,,,,,,,,,,,,,,,,,,,,,,,,,,,,,,1.1558641890684764,0.9900117000215687,217.66180760000134,None,ScrollDown,정답입니다,217.66180760000134,None,217.66180760000134,None,217.66180760000134,None,217.66180760000134,None,218.53316160000395,None,218.53316160000395,219.03329609998036,,,,,,,,,,,,,,,,107,2022-05-02_09h24.06.179,FishGame,2022.1.1,60.01983056327316,
,29,넌 열심이야,1,Green,B,6.041666666666667,5.833333333333333,ScrollUp,ScrollDown,Green.png,1,Positive,Incongruent,0,0,0,0,,,,,,,,,,,,,0,28,28,28,,,,,,,,,,,,,,,,,,,,,,,,,,,,,,,,,,,,,,,,,,,,,,,,,,,,,,,,,,,,,,,,,,,,,,,,,,,,,,,,,,,,,1.9459876318772633,1.2362997999880463,219.66532049997477,None,ScrollUp,정답입니다,219.66532049997477,None,219.66532049997477,None,219.66532049997477,None,219.66532049997477,None,220.79653419996612,None,220.79653419996612,221.29985229996964,,,,,,,,,,,,,,,,107,2022-05-02_09h24.06.179,FishGame,2022.1.1,60.01983056327316,
,30,넌 인기없어,4,Green,B,3,3.3,ScrollUp,ScrollDown,Green.png,1,Negative,Congruent,0,0,0,0,,,,,,,,,,,,,0,29,29,29,,,,,,,,,,,,,,,,,,,,,,,,,,,,,,,,,,,,,,,,,,,,,,,,,,,,,,,,,,,,,,,,,,,,,,,,,,,,,,,,,,,,,1.7314814925193787,0.9933036000002176,221.9311153999879,None,ScrollUp,정답입니다,221.9311153999879,None,221.9311153999879,None,221.9311153999879,None,221.9311153999879,None,222.81670490000397,None,222.81670490000397,223.31666219996987,,,,,,,,,,,,,,,,107,2022-05-02_09h24.06.179,FishGame,2022.1.1,60.01983056327316,
,31,넌 익살스러워,3,Orange,A,4.708333333333334,4.833333333333333,ScrollDown,ScrollUp,Orange.png,1,Neutral,Neutral,0,0,0,0,,,,,,,,,,,,,0,30,30,30,,,,,,,,,,,,,,,,,,,,,,,,,,,,,,,,,,,,,,,,,,,,,,,,,,,,,,,,,,,,,,,,,,,,,,,,,,,,,,,,,,,,,1.1728395173947017,1.2078335999976844,223.9608274999773,None,ScrollDown,정답입니다,223.9608274999773,None,223.9608274999773,None,223.9608274999773,None,223.9608274999773,None,225.04999699996551,None,225.04999699996551,225.54984009999316,,,,,,,,,,,,,,,,107,2022-05-02_09h24.06.179,FishGame,2022.1.1,60.01983056327316,
,32,넌 이기적이야,5,Green,B,2.291666666666667,2.333333333333333,ScrollUp,ScrollDown,Green.png,1,Negative,Congruent,0,0,0,0,,,,,,,,,,,,,0,31,31,31,,,,,,,,,,,,,,,,,,,,,,,,,,,,,,,,,,,,,,,,,,,,,,,,,,,,,,,,,,,,,,,,,,,,,,,,,,,,,,,,,,,,,1.7777777860562007,1.1147686999756843,226.17762819997733,None,ScrollUp,정답입니다,226.17762819997733,None,226.17762819997733,None,226.17762819997733,None,226.17762819997733,None,227.1885071999859,None,227.1885071999859,227.6997053999803,,,,,,,,,,,,,,,,107,2022-05-02_09h24.06.179,FishGame,2022.1.1,60.01983056327316,
,33,나를 데려가줘,6,Green,B,0,0,ScrollDown,ScrollUp,Green.png,1,NonTarget,NonTarget,0,0,0,0,,,,,,,,,,,,,0,32,32,32,,,,,,,,,,,,,,,,,,,,,,,,,,,,,,,,,,,,,,,,,,,,,,,,,,,,,,,,,,,,,,,,,,,,,,,,,,,,,,,,,,,,,1.7145061641931534,0.9858249999815598,228.33389810001245,None,ScrollUp,오답입니다,228.33389810001245,None,228.33389810001245,None,228.33389810001245,None,228.33389810001245,None,229.20826939999824,None,229.20826939999824,229.71661050000694,,,,,,,,,,,,,,,,107,2022-05-02_09h24.06.179,FishGame,2022.1.1,60.01983056327316,
,34,넌 기회주의자야,5,Orange,A,2.875,2.133333333333333,ScrollDown,ScrollUp,Orange.png,1,Negative,Incongruent,0,0,0,0,,,,,,,,,,,,,0,33,33,33,,,,,,,,,,,,,,,,,,,,,,,,,,,,,,,,,,,,,,,,,,,,,,,,,,,,,,,,,,,,,,,,,,,,,,,,,,,,,,,,,,,,,1.1959876517454784,3.1032340999809094,230.35696529998677,None,ScrollDown,정답입니다,230.35696529998677,None,230.35696529998677,None,230.35696529998677,None,230.35696529998677,None,233.34043969999766,None,233.34043969999766,233.85000460001174,,,,,,,,,,,,,,,,107,2022-05-02_09h24.06.179,FishGame,2022.1.1,60.01983056327316,
,1,넌 미성숙해,4,Orange,A,3,3.2,ScrollDown,ScrollUp,Orange.png,2,Negative,Incongruent,0,0,0,0,,,,,,,,,,,,,,,,,0,0,0,0,,,,,,,,,,,,,,,,,,,,,,,,,,,,,,,,,,,,,,,,270.4519547999953,271.9509968999773,271.984743500012,272.9348210999742,272.9847126000095,273.9346598999691,273.9346598999691,None,,,,,,,,,,,,,,,,,,,,,,,,,,,,,,,,,,1.0910493781169255,1.2988871000125073,275.08956449996913,None,ScrollDown,정답입니다,275.08956449996913,None,275.08956449996913,None,275.08956449996913,None,275.08956449996913,None,276.22226100001717,None,276.22226100001717,276.7345059000072,234.3500610999763,None,234.3500610999763,None,0.049074072,-0.11296296,1,0,0,0.015990629966836423,None,264.35055410000496,None,,,107,2022-05-02_09h24.06.179,FishGame,2022.1.1,60.01983056327316,
,2,넌 반사회적이야,5,Green,B,2.416666666666667,2.033333333333333,ScrollUp,ScrollDown,Green.png,2,Negative,Congruent,0,0,0,0,,,,,,,,,,,,,,,,,0,1,1,1,,,,,,,,,,,,,,,,,,,,,,,,,,,,,,,,,,,,,,,,,,,,,,,,,,,,,,,,,,,,,,,,,,,,,,,,,,,,,,,,,1.7422839403152466,0.9897766999783926,277.3648482999997,None,ScrollUp,정답입니다,277.3648482999997,None,277.3648482999997,None,277.3648482999997,None,277.3648482999997,None,278.25124999997206,None,278.25124999997206,278.7511769999983,,,,,,,,,,,,,,,,107,2022-05-02_09h24.06.179,FishGame,2022.1.1,60.01983056327316,
,3,넌 유능해,2,Orange,A,6.208333333333333,4.433333333333334,ScrollDown,ScrollUp,Orange.png,2,Positive,Congruent,0,0,0,0,,,,,,,,,,,,,,,,,0,2,2,2,,,,,,,,,,,,,,,,,,,,,,,,,,,,,,,,,,,,,,,,,,,,,,,,,,,,,,,,,,,,,,,,,,,,,,,,,,,,,,,,,1,1.1235723000136204,279.3913124999963,None,ScrollDown,정답입니다,279.3913124999963,None,279.3913124999963,None,279.3913124999963,None,279.3913124999963,None,280.4009727999801,None,280.4009727999801,280.9007827999885,,,,,,,,,,,,,,,,107,2022-05-02_09h24.06.179,FishGame,2022.1.1,60.01983056327316,
,4,넌 능숙해,2,Green,B,5.666666666666667,4.733333333333333,ScrollUp,ScrollDown,Green.png,2,Positive,Incongruent,0,0,0,0,,,,,,,,,,,,,,,,,0,3,3,3,,,,,,,,,,,,,,,,,,,,,,,,,,,,,,,,,,,,,,,,,,,,,,,,,,,,,,,,,,,,,,,,,,,,,,,,,,,,,,,,,1.8317901243766148,1.1322507000295445,281.52930009999545,None,ScrollUp,정답입니다,281.52930009999545,None,281.52930009999545,None,281.52930009999545,None,281.52930009999545,None,282.5562188999611,None,282.5562188999611,283.06794039998204,,,,,,,,,,,,,,,,107,2022-05-02_09h24.06.179,FishGame,2022.1.1,60.01983056327316,
,5,넌 진부해,4,Green,B,2.458333333333333,3.166666666666667,ScrollUp,ScrollDown,Green.png,2,Negative,Congruent,0,0,0,0,,,,,,,,,,,,,,,,,0,4,4,4,,,,,,,,,,,,,,,,,,,,,,,,,,,,,,,,,,,,,,,,,,,,,,,,,,,,,,,,,,,,,,,,,,,,,,,,,,,,,,,,,1.8348765522241592,1.041329300031066,283.70370929996716,None,ScrollUp,정답입니다,283.70370929996716,None,283.70370929996716,None,283.70370929996716,None,283.70370929996716,None,284.6345622999943,None,284.6345622999943,285.13424489996396,,,,,,,,,,,,,,,,107,2022-05-02_09h24.06.179,FishGame,2022.1.1,60.01983056327316,
,6,나를 보내줘,6,Orange,A,0,0,ScrollUp,ScrollDown,Orange.png,2,NonTarget,NonTarget,0,0,0,0,,,,,,,,,,,,,,,,,0,5,5,5,,,,,,,,,,,,,,,,,,,,,,,,,,,,,,,,,,,,,,,,,,,,,,,,,,,,,,,,,,,,,,,,,,,,,,,,,,,,,,,,,1.8040123482545216,1.4259052999550477,285.76565249997657,None,ScrollUp,정답입니다,285.76565249997657,None,285.76565249997657,None,285.76565249997657,None,285.76565249997657,None,287.08454850001726,None,287.08454850001726,287.58457800000906,,,,,,,,,,,,,,,,107,2022-05-02_09h24.06.179,FishGame,2022.1.1,60.01983056327316,
,7,넌 엄격해,3,Orange,A,4.166666666666666,4.1,ScrollDown,ScrollUp,Orange.png,2,Neutral,Neutral,0,0,0,0,,,,,,,,,,,,,,,,,0,6,6,6,,,,,,,,,,,,,,,,,,,,,,,,,,,,,,,,,,,,,,,,,,,,,,,,,,,,,,,,,,,,,,,,,,,,,,,,,,,,,,,,,1.1327160547176998,1.0426331000053324,288.2270170999691,None,ScrollDown,정답입니다,288.2270170999691,None,288.2270170999691,None,288.2270170999691,None,288.2270170999691,None,289.15143679996254,None,289.15143679996254,289.6513258999912,,,,,,,,,,,,,,,,107,2022-05-02_09h24.06.179,FishGame,2022.1.1,60.01983056327316,
,8,나를 보내줘,6,Orange,A,0,0,ScrollUp,ScrollDown,Orange.png,2,NonTarget,NonTarget,0,0,0,0,,,,,,,,,,,,,,,,,0,7,7,7,,,,,,,,,,,,,,,,,,,,,,,,,,,,,,,,,,,,,,,,,,,,,,,,,,,,,,,,,,,,,,,,,,,,,,,,,,,,,,,,,1.8950617214043934,1.1324886999791488,290.28990709997015,None,ScrollUp,정답입니다,290.28990709997015,None,290.28990709997015,None,290.28990709997015,None,290.28990709997015,None,291.30621119996067,None,291.30621119996067,291.818315099983,,,,,,,,,,,,,,,,107,2022-05-02_09h24.06.179,FishGame,2022.1.1,60.01983056327316,
,9,넌 대담해,3,Green,B,4.875,4.866666666666666,ScrollUp,ScrollDown,Green.png,2,Neutral,Neutral,0,0,0,0,,,,,,,,,,,,,,,,,0,8,8,8,,,,,,,,,,,,,,,,,,,,,,,,,,,,,,,,,,,,,,,,,,,,,,,,,,,,,,,,,,,,,,,,,,,,,,,,,,,,,,,,,1.858024686574936,1.1399330999702215,292.451567000011,None,ScrollUp,정답입니다,292.451567000011,None,292.451567000011,None,292.451567000011,None,292.451567000011,None,293.48532520001754,None,293.48532520001754,293.984452100005,,,,,,,,,,,,,,,,107,2022-05-02_09h24.06.179,FishGame,2022.1.1,60.01983056327316,
,10,넌 꾸준해,1,Orange,A,5.916666666666668,5.8,ScrollDown,ScrollUp,Orange.png,2,Positive,Congruent,0,0,0,0,,,,,,,,,,,,,,,,,0,9,9,9,,,,,,,,,,,,,,,,,,,,,,,,,,,,,,,,,,,,,,,,,,,,,,,,,,,,,,,,,,,,,,,,,,,,,,,,,,,,,,,,,1.192901223897934,1.0655659000040032,294.6262596999877,None,ScrollDown,정답입니다,294.6262596999877,None,294.6262596999877,None,294.6262596999877,None,294.6262596999877,None,295.572976299969,None,295.572976299969,296.08499969996046,,,,,,,,,,,,,,,,107,2022-05-02_09h24.06.179,FishGame,2022.1.1,60.01983056327316,
,11,나를 데려가줘,6,Green,B,0,0,ScrollDown,ScrollUp,Green.png,2,NonTarget,NonTarget,0,0,0,0,,,,,,,,,,,,,,,,,0,10,10,10,,,,,,,,,,,,,,,,,,,,,,,,,,,,,,,,,,,,,,,,,,,,,,,,,,,,,,,,,,,,,,,,,,,,,,,,,,,,,,,,,1.162037044763565,1.403573299990967,296.71850169997197,None,ScrollDown,정답입니다,296.71850169997197,None,296.71850169997197,None,296.71850169997197,None,296.71850169997197,None,298.01519800000824,None,298.01519800000824,298.5178541999776,,,,,,,,,,,,,,,,107,2022-05-02_09h24.06.179,FishGame,2022.1.1,60.01983056327316,
,12,넌 독선적이야,5,Orange,A,2.458333333333333,1.933333333333333,ScrollDown,ScrollUp,Orange.png,2,Negative,Incongruent,0,0,0,0,,,,,,,,,,,,,,,,,0,11,11,11,,,,,,,,,,,,,,,,,,,,,,,,,,,,,,,,,,,,,,,,,,,,,,,,,,,,,,,,,,,,,,,,,,,,,,,,,,,,,,,,,1.1373456716537476,1.2690220999647863,299.1632309000124,None,ScrollDown,정답입니다,299.1632309000124,None,299.1632309000124,None,299.1632309000124,None,299.1632309000124,None,300.30671139998594,None,300.30671139998594,300.81834009999875,,,,,,,,,,,,,,,,107,2022-05-02_09h24.06.179,FishGame,2022.1.1,60.01983056327316,
,13,나를 보내줘,6,Orange,A,0,0,ScrollUp,ScrollDown,Orange.png,2,NonTarget,NonTarget,0,0,0,0,,,,,,,,,,,,,,,,,0,12,12,12,,,,,,,,,,,,,,,,,,,,,,,,,,,,,,,,,,,,,,,,,,,,,,,,,,,,,,,,,,,,,,,,,,,,,,,,,,,,,,,,,1.5555555584530034,1.0320113999769092,301.4511704000179,None,ScrollUp,정답입니다,301.4511704000179,None,301.4511704000179,None,301.4511704000179,None,301.4511704000179,None,302.3733728000079,None,302.3733728000079,302.88455489999615,,,,,,,,,,,,,,,,107,2022-05-02_09h24.06.179,FishGame,2022.1.1,60.01983056327316,
,14,넌 책임감있어,1,Green,B,6.347826086956522,6,ScrollUp,ScrollDown,Green.png,2,Positive,Incongruent,0,0,0,0,,,,,,,,,,,,,,,,,0,13,13,13,,,,,,,,,,,,,,,,,,,,,,,,,,,,,,,,,,,,,,,,,,,,,,,,,,,,,,,,,,,,,,,,,,,,,,,,,,,,,,,,,1.7700617164373398,0.9918646999867633,303.52156909997575,None,ScrollUp,정답입니다,303.52156909997575,None,303.52156909997575,None,303.52156909997575,None,303.52156909997575,None,304.40163390000816,None,304.40163390000816,304.90164609998465,,,,,,,,,,,,,,,,107,2022-05-02_09h24.06.179,FishGame,2022.1.1,60.01983056327316,
,15,넌 문학적이야,3,Orange,A,4.708333333333334,4.333333333333333,ScrollDown,ScrollUp,Orange.png,2,Neutral,Neutral,0,0,0,0,,,,,,,,,,,,,,,,,0,14,14,14,,,,,,,,,,,,,,,,,,,,,,,,,,,,,,,,,,,,,,,,,,,,,,,,,,,,,,,,,,,,,,,,,,,,,,,,,,,,,,,,,1.0370370149612427,0.9156711000250652,305.5418922000099,None,ScrollDown,정답입니다,305.5418922000099,None,305.5418922000099,None,305.5418922000099,None,305.5418922000099,None,306.34011059999466,None,306.34011059999466,306.8512286999612,,,,,,,,,,,,,,,,107,2022-05-02_09h24.06.179,FishGame,2022.1.1,60.01983056327316,
,16,넌 재미있어,1,Green,B,5.875,5.7,ScrollUp,ScrollDown,Green.png,2,Positive,Incongruent,0,0,0,0,,,,,,,,,,,,,,,,,0,15,15,15,,,,,,,,,,,,,,,,,,,,,,,,,,,,,,,,,,,,,,,,,,,,,,,,,,,,,,,,,,,,,,,,,,,,,,,,,,,,,,,,,1.6172839477658272,1.1264269000384957,307.47855170001276,None,ScrollUp,정답입니다,307.47855170001276,None,307.47855170001276,None,307.47855170001276,None,307.47855170001276,None,308.50132400001166,None,308.50132400001166,309.00135609996505,,,,,,,,,,,,,,,,107,2022-05-02_09h24.06.179,FishGame,2022.1.1,60.01983056327316,
,17,나를 데려가줘,6,Green,B,0,0,ScrollDown,ScrollUp,Green.png,2,NonTarget,NonTarget,0,0,0,0,,,,,,,,,,,,,,,,,0,16,16,16,,,,,,,,,,,,,,,,,,,,,,,,,,,,,,,,,,,,,,,,,,,,,,,,,,,,,,,,,,,,,,,,,,,,,,,,,,,,,,,,,1.0555555323759716,1.2005530999740586,309.62357170000905,None,ScrollDown,정답입니다,309.62357170000905,None,309.62357170000905,None,309.62357170000905,None,309.62357170000905,None,310.72359010000946,None,310.72359010000946,311.23492000001715,,,,,,,,,,,,,,,,107,2022-05-02_09h24.06.179,FishGame,2022.1.1,60.01983056327316,
,18,넌 협력적이야,1,Orange,A,5.625,5.633333333333334,ScrollDown,ScrollUp,Orange.png,2,Positive,Congruent,0,0,0,0,,,,,,,,,,,,,,,,,0,17,17,17,,,,,,,,,,,,,,,,,,,,,,,,,,,,,,,,,,,,,,,,,,,,,,,,,,,,,,,,,,,,,,,,,,,,,,,,,,,,,,,,,1.1712963034709294,1.333337299991399,311.8719860999845,None,ScrollDown,정답입니다,311.8719860999845,None,311.8719860999845,None,311.8719860999845,None,311.8719860999845,None,313.0896877999767,None,313.0896877999767,313.6015743999742,,,,,,,,,,,,,,,,107,2022-05-02_09h24.06.179,FishGame,2022.1.1,60.01983056327316,
,19,넌 평범해,3,Green,B,4.333333333333332,4.233333333333333,ScrollUp,ScrollDown,Green.png,2,Neutral,Neutral,0,0,0,0,,,,,,,,,,,,,,,,,0,18,18,18,,,,,,,,,,,,,,,,,,,,,,,,,,,,,,,,,,,,,,,,,,,,,,,,,,,,,,,,,,,,,,,,,,,,,,,,,,,,,,,,,1.7530864129463832,1.2331179000320844,314.2264592999709,None,ScrollUp,정답입니다,314.2264592999709,None,314.2264592999709,None,314.2264592999709,None,314.2264592999709,None,315.35614930000156,None,315.35614930000156,315.8686148999841,,,,,,,,,,,,,,,,107,2022-05-02_09h24.06.179,FishGame,2022.1.1,60.01983056327316,
,20,넌 오만해,5,Orange,A,2.333333333333333,2,ScrollDown,ScrollUp,Orange.png,2,Negative,Incongruent,0,0,0,0,,,,,,,,,,,,,,,,,0,19,19,19,,,,,,,,,,,,,,,,,,,,,,,,,,,,,,,,,,,,,,,,,,,,,,,,,,,,,,,,,,,,,,,,,,,,,,,,,,,,,,,,,1.1080246816078823,1.1367925999802537,316.502009799995,None,ScrollDown,정답입니다,316.502009799995,None,316.502009799995,None,316.502009799995,None,316.502009799995,None,317.52424120000796,None,317.52424120000796,318.03541740000946,,,,,,,,,,,,,,,,107,2022-05-02_09h24.06.179,FishGame,2022.1.1,60.01983056327316,
,21,넌 운이없어,4,Green,B,3,3.466666666666667,ScrollUp,ScrollDown,Green.png,2,Negative,Congruent,0,0,0,0,,,,,,,,,,,,,,,,,0,20,20,20,,,,,,,,,,,,,,,,,,,,,,,,,,,,,,,,,,,,,,,,,,,,,,,,,,,,,,,,,,,,,,,,,,,,,,,,,,,,,,,,,1.652777781089147,1.087652399961371,318.66423699998995,None,ScrollUp,정답입니다,318.66423699998995,None,318.66423699998995,None,318.66423699998995,None,318.66423699998995,None,319.6484967999859,None,319.6484967999859,320.15197569999145,,,,,,,,,,,,,,,,107,2022-05-02_09h24.06.179,FishGame,2022.1.1,60.01983056327316,
,22,넌 창조적이야,2,Green,B,6.125,4.633333333333334,ScrollUp,ScrollDown,Green.png,2,Positive,Incongruent,0,0,0,0,,,,,,,,,,,,,,,,,0,21,21,21,,,,,,,,,,,,,,,,,,,,,,,,,,,,,,,,,,,,,,,,,,,,,,,,,,,,,,,,,,,,,,,,,,,,,,,,,,,,,,,,,1.8456790000200272,1.0816942999954335,320.78167880000547,None,ScrollUp,정답입니다,320.78167880000547,None,320.78167880000547,None,320.78167880000547,None,320.78167880000547,None,321.7575088000158,None,321.7575088000158,322.2688158999663,,,,,,,,,,,,,,,,107,2022-05-02_09h24.06.179,FishGame,2022.1.1,60.01983056327316,
,23,나를 보내줘,6,Orange,A,0,0,ScrollUp,ScrollDown,Orange.png,2,NonTarget,NonTarget,0,0,0,0,,,,,,,,,,,,,,,,,0,22,22,22,,,,,,,,,,,,,,,,,,,,,,,,,,,,,,,,,,,,,,,,,,,,,,,,,,,,,,,,,,,,,,,,,,,,,,,,,,,,,,,,,2,1.297746600001119,322.89729819999775,None,ScrollUp,정답입니다,322.89729819999775,None,322.89729819999775,None,322.89729819999775,None,322.89729819999775,None,324.09023299999535,None,324.09023299999535,324.60187929996755,,,,,,,,,,,,,,,,107,2022-05-02_09h24.06.179,FishGame,2022.1.1,60.01983056327316,
,24,넌 통찰력있어,2,Orange,A,6.5,4.8,ScrollDown,ScrollUp,Orange.png,2,Positive,Congruent,0,0,0,0,,,,,,,,,,,,,,,,,0,23,23,23,,,,,,,,,,,,,,,,,,,,,,,,,,,,,,,,,,,,,,,,,,,,,,,,,,,,,,,,,,,,,,,,,,,,,,,,,,,,,,,,,1.0262345671653748,1.8837829999974929,325.2329243000131,None,ScrollDown,정답입니다,325.2329243000131,None,325.2329243000131,None,325.2329243000131,None,325.2329243000131,None,327.0078564999858,None,327.0078564999858,327.5189708999824,,,,,,,,,,,,,,,,107,2022-05-02_09h24.06.179,FishGame,2022.1.1,60.01983056327316,
,25,넌 경솔해,5,Green,B,2.458333333333333,2.266666666666667,ScrollUp,ScrollDown,Green.png,2,Negative,Congruent,0,0,0,0,,,,,,,,,,,,,,,,,0,24,24,24,,,,,,,,,,,,,,,,,,,,,,,,,,,,,,,,,,,,,,,,,,,,,,,,,,,,,,,,,,,,,,,,,,,,,,,,,,,,,,,,,1.7391975373029709,1.0342284999787807,328.14260959997773,None,ScrollUp,정답입니다,328.14260959997773,None,328.14260959997773,None,328.14260959997773,None,328.14260959997773,None,329.0737876999774,None,329.0737876999774,329.58533689996693,,,,,,,,,,,,,,,,107,2022-05-02_09h24.06.179,FishGame,2022.1.1,60.01983056327316,
,26,넌 초조해,4,Orange,A,2.916666666666667,3.133333333333333,ScrollDown,ScrollUp,Orange.png,2,Negative,Incongruent,0,0,0,0,,,,,,,,,,,,,,,,,0,25,25,25,,,,,,,,,,,,,,,,,,,,,,,,,,,,,,,,,,,,,,,,,,,,,,,,,,,,,,,,,,,,,,,,,,,,,,,,,,,,,,,,,1,1.352880600024946,330.2196757000056,None,ScrollDown,정답입니다,330.2196757000056,None,330.2196757000056,None,330.2196757000056,None,330.2196757000056,None,331.46557499998016,None,331.46557499998016,331.96905750001315,,,,,,,,,,,,,,,,107,2022-05-02_09h24.06.179,FishGame,2022.1.1,60.01983056327316,
,27,넌 무관심해,4,Green,B,2.833333333333333,2.9,ScrollUp,ScrollDown,Green.png,2,Negative,Congruent,0,0,0,0,,,,,,,,,,,,,,,,,0,26,26,26,,,,,,,,,,,,,,,,,,,,,,,,,,,,,,,,,,,,,,,,,,,,,,,,,,,,,,,,,,,,,,,,,,,,,,,,,,,,,,,,,1.9351851840813954,1.1841958000441082,332.5929763999884,None,ScrollUp,정답입니다,332.5929763999884,None,332.5929763999884,None,332.5929763999884,None,332.5929763999884,None,333.6823579999618,None,333.6823579999618,334.1856996999704,,,,,,,,,,,,,,,,107,2022-05-02_09h24.06.179,FishGame,2022.1.1,60.01983056327316,
,28,넌 감성적이야,3,Green,B,4.125,4.166666666666667,ScrollUp,ScrollDown,Green.png,2,Neutral,Neutral,0,0,0,0,,,,,,,,,,,,,,,,,0,27,27,27,,,,,,,,,,,,,,,,,,,,,,,,,,,,,,,,,,,,,,,,,,,,,,,,,,,,,,,,,,,,,,,,,,,,,,,,,,,,,,,,,1.9706790049870808,1.1656805999809876,334.8112803999684,None,ScrollUp,정답입니다,334.8112803999684,None,334.8112803999684,None,334.8112803999684,None,334.8112803999684,None,335.8739304000046,None,335.8739304000046,336.3855107999989,,,,,,,,,,,,,,,,107,2022-05-02_09h24.06.179,FishGame,2022.1.1,60.01983056327316,
,29,넌 배려심있어,1,Orange,A,6.083333333333333,5.5,ScrollDown,ScrollUp,Orange.png,2,Positive,Congruent,0,0,0,0,,,,,,,,,,,,,,,,,0,28,28,28,,,,,,,,,,,,,,,,,,,,,,,,,,,,,,,,,,,,,,,,,,,,,,,,,,,,,,,,,,,,,,,,,,,,,,,,,,,,,,,,,1.0617283880710602,1.1095518000074662,337.0238009999739,None,ScrollDown,정답입니다,337.0238009999739,None,337.0238009999739,None,337.0238009999739,None,337.0238009999739,None,338.018982700014,None,338.018982700014,338.51923380000517,,,,,,,,,,,,,,,,107,2022-05-02_09h24.06.179,FishGame,2022.1.1,60.01983056327316,
,30,넌 숨김없어,3,Orange,A,4.5,4.933333333333334,ScrollDown,ScrollUp,Orange.png,2,Neutral,Neutral,0,0,0,0,,,,,,,,,,,,,,,,,0,29,29,29,,,,,,,,,,,,,,,,,,,,,,,,,,,,,,,,,,,,,,,,,,,,,,,,,,,,,,,,,,,,,,,,,,,,,,,,,,,,,,,,,1,1.2729544000467286,339.15180110000074,None,ScrollDown,정답입니다,339.15180110000074,None,339.15180110000074,None,339.15180110000074,None,339.15180110000074,None,340.31922309997026,None,340.31922309997026,340.8188245999627,,,,,,,,,,,,,,,,107,2022-05-02_09h24.06.179,FishGame,2022.1.1,60.01983056327316,
,31,넌 훌륭해,2,Green,B,5.916666666666667,4.033333333333333,ScrollUp,ScrollDown,Green.png,2,Positive,Incongruent,0,0,0,0,,,,,,,,,,,,,,,,,0,30,30,30,,,,,,,,,,,,,,,,,,,,,,,,,,,,,,,,,,,,,,,,,,,,,,,,,,,,,,,,,,,,,,,,,,,,,,,,,,,,,,,,,1.825617293516795,1.3571033999905922,341.45755449996796,None,ScrollUp,정답입니다,341.45755449996796,None,341.45755449996796,None,341.45755449996796,None,341.45755449996796,None,342.70194220001576,None,342.70194220001576,343.2025891999947,,,,,,,,,,,,,,,,107,2022-05-02_09h24.06.179,FishGame,2022.1.1,60.01983056327316,
,32,넌 슬기로워,2,Orange,A,6.166666666666667,4.1,ScrollDown,ScrollUp,Orange.png,2,Positive,Congruent,0,0,0,0,,,,,,,,,,,,,,,,,0,31,31,31,,,,,,,,,,,,,,,,,,,,,,,,,,,,,,,,,,,,,,,,,,,,,,,,,,,,,,,,,,,,,,,,,,,,,,,,,,,,,,,,,1.0108024775981903,1.1406825999729335,343.839644599997,None,ScrollDown,정답입니다,343.839644599997,None,343.839644599997,None,343.839644599997,None,343.839644599997,None,344.8690371999983,None,344.8690371999983,345.36908769997535,,,,,,,,,,,,,,,,107,2022-05-02_09h24.06.179,FishGame,2022.1.1,60.01983056327316,
,33,넌 냉혹해,5,Orange,A,2.583333333333333,2.1,ScrollDown,ScrollUp,Orange.png,2,Negative,Incongruent,0,0,0,0,,,,,,,,,,,,,,,,,0,32,32,32,,,,,,,,,,,,,,,,,,,,,,,,,,,,,,,,,,,,,,,,,,,,,,,,,,,,,,,,,,,,,,,,,,,,,,,,,,,,,,,,,1.0540123681227367,1.0399758000276051,346.0046352999634,None,ScrollDown,정답입니다,346.0046352999634,None,346.0046352999634,None,346.0046352999634,None,346.0046352999634,None,346.9361926999991,None,346.9361926999991,347.4357708999887,,,,,,,,,,,,,,,,107,2022-05-02_09h24.06.179,FishGame,2022.1.1,60.01983056327316,
,34,나를 데려가줘,6,Green,B,0,0,ScrollDown,ScrollUp,Green.png,2,NonTarget,NonTarget,0,0,0,0,,,,,,,,,,,,,,,,,0,33,33,33,,,,,,,,,,,,,,,,,,,,,,,,,,,,,,,,,,,,,,,,,,,,,,,,,,,,,,,,,,,,,,,,,,,,,,,,,,,,,,,,,1.0277777810891469,1.36974980001105,348.0606040999992,None,ScrollDown,정답입니다,348.0606040999992,None,348.0606040999992,None,348.0606040999992,None,348.0606040999992,None,349.3323727999814,None,349.3323727999814,349.8362647999893,,,,,,,,,,,,,,,,107,2022-05-02_09h24.06.179,FishGame,2022.1.1,60.01983056327316,
,35,넌 편파적이야,5,Green,B,2.125,2,ScrollUp,ScrollDown,Green.png,2,Negative,Congruent,0,0,0,0,,,,,,,,,,,,,,,,,0,34,34,34,,,,,,,,,,,,,,,,,,,,,,,,,,,,,,,,,,,,,,,,,,,,,,,,,,,,,,,,,,,,,,,,,,,,,,,,,,,,,,,,,1.4830246918524306,1.002036300022155,350.46418409998296,None,NoResponse,무응답입니다,350.46418409998296,None,350.46418409998296,None,350.46418409998296,None,350.46418409998296,None,351.3595239999704,None,351.3595239999704,351.86886829999276,,,,,,,,,,,,,,,,107,2022-05-02_09h24.06.179,FishGame,2022.1.1,60.01983056327316,
,36,넌 슬퍼,4,Orange,A,2.583333333333333,3.066666666666667,ScrollDown,ScrollUp,Orange.png,2,Negative,Incongruent,0,0,0,0,,,,,,,,,,,,,,,,,0,35,35,35,,,,,,,,,,,,,,,,,,,,,,,,,,,,,,,,,,,,,,,,,,,,,,,,,,,,,,,,,,,,,,,,,,,,,,,,,,,,,,,,,1.1558641890684764,1.0238861999823712,352.49544969998533,None,ScrollDown,정답입니다,352.49544969998533,None,352.49544969998533,None,352.49544969998533,None,352.49544969998533,None,353.419454399962,None,353.419454399962,353.91976799996337,,,,,,,,,,,,,,,,107,2022-05-02_09h24.06.179,FishGame,2022.1.1,60.01983056327316,
,37,나를 데려가줘,6,Green,B,0,0,ScrollDown,ScrollUp,Green.png,2,NonTarget,NonTarget,0,0,0,0,,,,,,,,,,,,,,,,,0,36,36,36,,,,,,,,,,,,,,,,,,,,,,,,,,,,,,,,,,,,,,,,,,,,,,,,,,,,,,,,,,,,,,,,,,,,,,,,,,,,,,,,,1,1.9021476000198163,354.54523920000065,None,ScrollDown,정답입니다,354.54523920000065,None,354.54523920000065,None,354.54523920000065,None,354.54523920000065,None,356.34917349996977,None,356.34917349996977,356.85220869997283,,,,,,,,,,,,,,,,107,2022-05-02_09h24.06.179,FishGame,2022.1.1,60.01983056327316,
,38,넌 친절해,1,Green,B,6.041666666666667,5.533333333333333,ScrollUp,ScrollDown,Green.png,2,Positive,Incongruent,0,0,0,0,,,,,,,,,,,,,,,,,0,37,37,37,,,,,,,,,,,,,,,,,,,,,,,,,,,,,,,,,,,,,,,,,,,,,,,,,,,,,,,,,,,,,,,,,,,,,,,,,,,,,,,,,2,1.174747999990359,357.48056739999447,None,ScrollUp,정답입니다,357.48056739999447,None,357.48056739999447,None,357.48056739999447,None,357.48056739999447,None,358.55224160000216,None,358.55224160000216,359.05265899997903,,,,,,,,,,,,,,,,107,2022-05-02_09h24.06.179,FishGame,2022.1.1,60.01983056327316,
,1,넌 엉성해,4,Orange,A,3,3.3,ScrollDown,ScrollUp,Orange.png,3,Negative,Incongruent,0,0,0,0,,,,,,,,,,,,,,,,,,,,,0,0,0,0,,,,,,,,,,,,,,,,,,,,,,,,,,,,,,,,,,,,392.83712589996867,394.33676500001457,394.36994820000837,395.3199680999969,395.3698413000093,396.32025669998256,396.32025669998256,None,,,,,,,,,,,,,,,,,,,,,,,,,,,,,,,,,,1,1.537496300006751,397.4655472000013,None,ScrollDown,정답입니다,397.4655472000013,None,397.4655472000013,None,397.4655472000013,None,397.4655472000013,None,398.8533306000172,None,398.8533306000172,399.353643200011,359.55264389998047,None,359.55264389998047,None,0.0009259259,-0.11296296,1,0,0,0.016322129929903895,None,389.55344619997777,None,,,107,2022-05-02_09h24.06.179,FishGame,2022.1.1,60.01983056327316,
,2,나를 보내줘,6,Orange,A,0,0,ScrollUp,ScrollDown,Orange.png,3,NonTarget,NonTarget,0,0,0,0,,,,,,,,,,,,,,,,,,,,,0,1,1,1,,,,,,,,,,,,,,,,,,,,,,,,,,,,,,,,,,,,,,,,,,,,,,,,,,,,,,,,,,,,,,,,,,,,,,,,,,,,,1.873456800977389,1.2390268000308424,399.98656759998994,None,ScrollUp,정답입니다,399.98656759998994,None,399.98656759998994,None,399.98656759998994,None,399.98656759998994,None,401.1203361999942,None,401.1203361999942,401.62018029997125,,,,,,,,,,,,,,,,107,2022-05-02_09h24.06.179,FishGame,2022.1.1,60.01983056327316,
,3,넌 활발해,1,Green,B,5.666666666666667,5.6,ScrollUp,ScrollDown,Green.png,3,Positive,Incongruent,0,0,0,0,,,,,,,,,,,,,,,,,,,,,0,2,2,2,,,,,,,,,,,,,,,,,,,,,,,,,,,,,,,,,,,,,,,,,,,,,,,,,,,,,,,,,,,,,,,,,,,,,,,,,,,,,1.9027777661879857,0.9569063999806531,402.2575115999789,None,ScrollUp,정답입니다,402.2575115999789,None,402.2575115999789,None,402.2575115999789,None,402.2575115999789,None,403.09988250001334,None,403.09988250001334,403.6037253999966,,,,,,,,,,,,,,,,107,2022-05-02_09h24.06.179,FishGame,2022.1.1,60.01983056327316,
,4,넌 논리적이야,2,Orange,A,5.666666666666666,4.633333333333334,ScrollDown,ScrollUp,Orange.png,3,Positive,Congruent,0,0,0,0,,,,,,,,,,,,,,,,,,,,,0,3,3,3,,,,,,,,,,,,,,,,,,,,,,,,,,,,,,,,,,,,,,,,,,,,,,,,,,,,,,,,,,,,,,,,,,,,,,,,,,,,,1.115740751226743,1.0245207999832928,404.23594149999553,None,ScrollDown,정답입니다,404.23594149999553,None,404.23594149999553,None,404.23594149999553,None,404.23594149999553,None,405.15362789999926,None,405.15362789999926,405.65330170001835,,,,,,,,,,,,,,,,107,2022-05-02_09h24.06.179,FishGame,2022.1.1,60.01983056327316,
,5,넌 과묵해,3,Orange,A,3.875,4.4,ScrollDown,ScrollUp,Orange.png,3,Neutral,Neutral,0,0,0,0,,,,,,,,,,,,,,,,,,,,,0,4,4,4,,,,,,,,,,,,,,,,,,,,,,,,,,,,,,,,,,,,,,,,,,,,,,,,,,,,,,,,,,,,,,,,,,,,,,,,,,,,,1.160493830839793,1.0352503000176512,406.2896852999693,None,ScrollDown,정답입니다,406.2896852999693,None,406.2896852999693,None,406.2896852999693,None,406.2896852999693,None,407.2168521999847,None,407.2168521999847,407.72044870001264,,,,,,,,,,,,,,,,107,2022-05-02_09h24.06.179,FishGame,2022.1.1,60.01983056327316,
,6,나를 데려가줘,6,Green,B,0,0,ScrollDown,ScrollUp,Green.png,3,NonTarget,NonTarget,0,0,0,0,,,,,,,,,,,,,,,,,,,,,0,5,5,5,,,,,,,,,,,,,,,,,,,,,,,,,,,,,,,,,,,,,,,,,,,,,,,,,,,,,,,,,,,,,,,,,,,,,,,,,,,,,1.3348765447735786,1.3822132000350393,408.342746099981,None,ScrollDown,정답입니다,408.342746099981,None,408.342746099981,None,408.342746099981,None,408.342746099981,None,409.62521739996737,None,409.62521739996737,410.1367656000075,,,,,,,,,,,,,,,,107,2022-05-02_09h24.06.179,FishGame,2022.1.1,60.01983056327316,
,7,넌 미숙해,4,Green,B,3,3,ScrollUp,ScrollDown,Green.png,3,Negative,Congruent,0,0,0,0,,,,,,,,,,,,,,,,,,,,,0,6,6,6,,,,,,,,,,,,,,,,,,,,,,,,,,,,,,,,,,,,,,,,,,,,,,,,,,,,,,,,,,,,,,,,,,,,,,,,,,,,,1.4645061728854973,0.9353206000523642,410.7589417999843,None,NoResponse,무응답입니다,410.7589417999843,None,410.7589417999843,None,410.7589417999843,None,410.7589417999843,None,411.5936498999945,None,411.5936498999945,412.1033776999684,,,,,,,,,,,,,,,,107,2022-05-02_09h24.06.179,FishGame,2022.1.1,60.01983056327316,
,8,나를 보내줘,6,Orange,A,0,0,ScrollUp,ScrollDown,Orange.png,3,NonTarget,NonTarget,0,0,0,0,,,,,,,,,,,,,,,,,,,,,0,7,7,7,,,,,,,,,,,,,,,,,,,,,,,,,,,,,,,,,,,,,,,,,,,,,,,,,,,,,,,,,,,,,,,,,,,,,,,,,,,,,1.214506169160207,0.9227550000068732,412.7339739999734,None,ScrollDown,오답입니다,412.7339739999734,None,412.7339739999734,None,412.7339739999734,None,412.7339739999734,None,413.5478154000011,None,413.5478154000011,414.05390990001615,,,,,,,,,,,,,,,,107,2022-05-02_09h24.06.179,FishGame,2022.1.1,60.01983056327316,
,9,넌 자신만만해,3,Green,B,4.833333333333334,4.333333333333333,ScrollUp,ScrollDown,Green.png,3,Neutral,Neutral,0,0,0,0,,,,,,,,,,,,,,,,,,,,,0,8,8,8,,,,,,,,,,,,,,,,,,,,,,,,,,,,,,,,,,,,,,,,,,,,,,,,,,,,,,,,,,,,,,,,,,,,,,,,,,,,,2,2.307458899973426,414.6740639999625,None,ScrollUp,정답입니다,414.6740639999625,None,414.6740639999625,None,414.6740639999625,None,414.6740639999625,None,416.8874260999728,None,416.8874260999728,417.3871277999715,,,,,,,,,,,,,,,,107,2022-05-02_09h24.06.179,FishGame,2022.1.1,60.01983056327316,
,10,넌 탐욕스러워,5,Orange,A,2.25,2.1,ScrollDown,ScrollUp,Orange.png,3,Negative,Incongruent,0,0,0,0,,,,,,,,,,,,,,,,,,,,,0,9,9,9,,,,,,,,,,,,,,,,,,,,,,,,,,,,,,,,,,,,,,,,,,,,,,,,,,,,,,,,,,,,,,,,,,,,,,,,,,,,,1,1.4428004000219516,418.033374199993,None,ScrollDown,정답입니다,418.033374199993,None,418.033374199993,None,418.033374199993,None,418.033374199993,None,419.3535843999707,None,419.3535843999707,419.85376389999874,,,,,,,,,,,,,,,,107,2022-05-02_09h24.06.179,FishGame,2022.1.1,60.01983056327316,
,11,넌 인기있어,2,Orange,A,5.458333333333333,4.5,ScrollDown,ScrollUp,Orange.png,3,Positive,Congruent,0,0,0,0,,,,,,,,,,,,,,,,,,,,,0,10,10,10,,,,,,,,,,,,,,,,,,,,,,,,,,,,,,,,,,,,,,,,,,,,,,,,,,,,,,,,,,,,,,,,,,,,,,,,,,,,,1,1.3990723000024445,420.48617280001054,None,ScrollDown,정답입니다,420.48617280001054,None,420.48617280001054,None,420.48617280001054,None,420.48617280001054,None,421.776138599962,None,421.776138599962,422.28740209998796,,,,,,,,,,,,,,,,107,2022-05-02_09h24.06.179,FishGame,2022.1.1,60.01983056327316,
,12,나를 데려가줘,6,Green,B,0,0,ScrollDown,ScrollUp,Green.png,3,NonTarget,NonTarget,0,0,0,0,,,,,,,,,,,,,,,,,,,,,0,11,11,11,,,,,,,,,,,,,,,,,,,,,,,,,,,,,,,,,,,,,,,,,,,,,,,,,,,,,,,,,,,,,,,,,,,,,,,,,,,,,1,1.7843616000027396,422.9100815000129,None,ScrollDown,정답입니다,422.9100815000129,None,422.9100815000129,None,422.9100815000129,None,422.9100815000129,None,424.5923765999614,None,424.5923765999614,425.10399490001146,,,,,,,,,,,,,,,,107,2022-05-02_09h24.06.179,FishGame,2022.1.1,60.01983056327316,
,13,넌 뛰어나,2,Green,B,6.166666666666667,4,ScrollUp,ScrollDown,Green.png,3,Positive,Incongruent,0,0,0,0,,,,,,,,,,,,,,,,,,,,,0,12,12,12,,,,,,,,,,,,,,,,,,,,,,,,,,,,,,,,,,,,,,,,,,,,,,,,,,,,,,,,,,,,,,,,,,,,,,,,,,,,,2,1.4643291999818757,425.73368790000677,None,ScrollUp,정답입니다,425.73368790000677,None,425.73368790000677,None,425.73368790000677,None,425.73368790000677,None,427.0917347999639,None,427.0917347999639,427.60358409996843,,,,,,,,,,,,,,,,107,2022-05-02_09h24.06.179,FishGame,2022.1.1,60.01983056327316,
,14,넌 낙관적이야,1,Orange,A,5.75,5.8,ScrollDown,ScrollUp,Orange.png,3,Positive,Congruent,0,0,0,0,,,,,,,,,,,,,,,,,,,,,0,13,13,13,,,,,,,,,,,,,,,,,,,,,,,,,,,,,,,,,,,,,,,,,,,,,,,,,,,,,,,,,,,,,,,,,,,,,,,,,,,,,1,1.483686299994588,428.2342251999653,None,ScrollDown,정답입니다,428.2342251999653,None,428.2342251999653,None,428.2342251999653,None,428.2342251999653,None,429.6090688999975,None,429.6090688999975,430.12078860000474,,,,,,,,,,,,,,,,107,2022-05-02_09h24.06.179,FishGame,2022.1.1,60.01983056327316,
,15,넌 산만해,4,Green,B,2.695652173913043,3.033333333333333,ScrollUp,ScrollDown,Green.png,3,Negative,Congruent,0,0,0,0,,,,,,,,,,,,,,,,,,,,,0,14,14,14,,,,,,,,,,,,,,,,,,,,,,,,,,,,,,,,,,,,,,,,,,,,,,,,,,,,,,,,,,,,,,,,,,,,,,,,,,,,,2,1.635952399985399,430.74527810001746,None,ScrollUp,정답입니다,430.74527810001746,None,430.74527810001746,None,430.74527810001746,None,430.74527810001746,None,432.2845675999997,None,432.2845675999997,432.787575299968,,,,,,,,,,,,,,,,107,2022-05-02_09h24.06.179,FishGame,2022.1.1,60.01983056327316,
,16,나를 보내줘,6,Orange,A,0,0,ScrollUp,ScrollDown,Orange.png,3,NonTarget,NonTarget,0,0,0,0,,,,,,,,,,,,,,,,,,,,,0,15,15,15,,,,,,,,,,,,,,,,,,,,,,,,,,,,,,,,,,,,,,,,,,,,,,,,,,,,,,,,,,,,,,,,,,,,,,,,,,,,,2,1.5725452000042424,433.4178802999668,None,ScrollUp,정답입니다,433.4178802999668,None,433.4178802999668,None,433.4178802999668,None,433.4178802999668,None,434.8843879000051,None,434.8843879000051,435.38733639998827,,,,,,,,,,,,,,,,107,2022-05-02_09h24.06.179,FishGame,2022.1.1,60.01983056327316,
,17,넌 교활해,5,Green,B,2.333333333333333,2.133333333333333,ScrollUp,ScrollDown,Green.png,3,Negative,Congruent,0,0,0,0,,,,,,,,,,,,,,,,,,,,,0,16,16,16,,,,,,,,,,,,,,,,,,,,,,,,,,,,,,,,,,,,,,,,,,,,,,,,,,,,,,,,,,,,,,,,,,,,,,,,,,,,,2,1.4352241000160575,436.0117944999947,None,ScrollUp,정답입니다,436.0117944999947,None,436.0117944999947,None,436.0117944999947,None,436.0117944999947,None,437.35073130001547,None,437.35073130001547,437.85398399998667,,,,,,,,,,,,,,,,107,2022-05-02_09h24.06.179,FishGame,2022.1.1,60.01983056327316,
,18,나를 보내줘,6,Orange,A,0,0,ScrollUp,ScrollDown,Orange.png,3,NonTarget,NonTarget,0,0,0,0,,,,,,,,,,,,,,,,,,,,,0,17,17,17,,,,,,,,,,,,,,,,,,,,,,,,,,,,,,,,,,,,,,,,,,,,,,,,,,,,,,,,,,,,,,,,,,,,,,,,,,,,,2,1.3491609999909997,438.4797688999679,None,ScrollUp,정답입니다,438.4797688999679,None,438.4797688999679,None,438.4797688999679,None,438.4797688999679,None,439.7262004999793,None,439.7262004999793,440.2373743999633,,,,,,,,,,,,,,,,107,2022-05-02_09h24.06.179,FishGame,2022.1.1,60.01983056327316,
,19,넌 불친절해,5,Green,B,2.208333333333333,2.033333333333333,ScrollUp,ScrollDown,Green.png,3,Negative,Congruent,0,0,0,0,,,,,,,,,,,,,,,,,,,,,0,18,18,18,,,,,,,,,,,,,,,,,,,,,,,,,,,,,,,,,,,,,,,,,,,,,,,,,,,,,,,,,,,,,,,,,,,,,,,,,,,,,2,1.5664949999772944,440.86729839997133,None,ScrollUp,정답입니다,440.86729839997133,None,440.86729839997133,None,440.86729839997133,None,440.86729839997133,None,442.32588379998924,None,442.32588379998924,442.8375875999918,,,,,,,,,,,,,,,,107,2022-05-02_09h24.06.179,FishGame,2022.1.1,60.01983056327316,
,20,넌 지적이야,2,Green,B,5.75,4.366666666666666,ScrollUp,ScrollDown,Green.png,3,Positive,Incongruent,0,0,0,0,,,,,,,,,,,,,,,,,,,,,0,19,19,19,,,,,,,,,,,,,,,,,,,,,,,,,,,,,,,,,,,,,,,,,,,,,,,,,,,,,,,,,,,,,,,,,,,,,,,,,,,,,2,1.2643847999861464,443.45882120000897,None,ScrollUp,정답입니다,443.45882120000897,None,443.45882120000897,None,443.45882120000897,None,443.45882120000897,None,444.62534420000156,None,444.62534420000156,445.1372969999793,,,,,,,,,,,,,,,,107,2022-05-02_09h24.06.179,FishGame,2022.1.1,60.01983056327316,
,21,넌 우유부단해,4,Orange,A,2.666666666666667,3.166666666666667,ScrollDown,ScrollUp,Orange.png,3,Negative,Incongruent,0,0,0,0,,,,,,,,,,,,,,,,,,,,,0,20,20,20,,,,,,,,,,,,,,,,,,,,,,,,,,,,,,,,,,,,,,,,,,,,,,,,,,,,,,,,,,,,,,,,,,,,,,,,,,,,,1,1.441719499998726,445.7740795999998,None,ScrollDown,정답입니다,445.7740795999998,None,445.7740795999998,None,445.7740795999998,None,445.7740795999998,None,447.1043319000164,None,447.1043319000164,447.60487949999515,,,,,,,,,,,,,,,,107,2022-05-02_09h24.06.179,FishGame,2022.1.1,60.01983056327316,
,22,나를 데려가줘,6,Green,B,0,0,ScrollDown,ScrollUp,Green.png,3,NonTarget,NonTarget,0,0,0,0,,,,,,,,,,,,,,,,,,,,,0,21,21,21,,,,,,,,,,,,,,,,,,,,,,,,,,,,,,,,,,,,,,,,,,,,,,,,,,,,,,,,,,,,,,,,,,,,,,,,,,,,,1,1.4232784999767318,448.2292781000142,None,ScrollDown,정답입니다,448.2292781000142,None,448.2292781000142,None,448.2292781000142,None,448.2292781000142,None,449.5547482999973,None,449.5547482999973,450.05423589999555,,,,,,,,,,,,,,,,107,2022-05-02_09h24.06.179,FishGame,2022.1.1,60.01983056327316,
,23,넌 성실해,1,Green,B,6.041666666666666,5.7,ScrollUp,ScrollDown,Green.png,3,Positive,Incongruent,0,0,0,0,,,,,,,,,,,,,,,,,,,,,0,22,22,22,,,,,,,,,,,,,,,,,,,,,,,,,,,,,,,,,,,,,,,,,,,,,,,,,,,,,,,,,,,,,,,,,,,,,,,,,,,,,2,1.364932199998293,450.6771187999984,None,ScrollUp,정답입니다,450.6771187999984,None,450.6771187999984,None,450.6771187999984,None,450.6771187999984,None,451.942654799961,None,451.942654799961,452.45477939996636,,,,,,,,,,,,,,,,107,2022-05-02_09h24.06.179,FishGame,2022.1.1,60.01983056327316,
,24,넌 현실주의적이야,3,Orange,A,4.625,4.4,ScrollDown,ScrollUp,Orange.png,3,Neutral,Neutral,0,0,0,0,,,,,,,,,,,,,,,,,,,,,0,23,23,23,,,,,,,,,,,,,,,,,,,,,,,,,,,,,,,,,,,,,,,,,,,,,,,,,,,,,,,,,,,,,,,,,,,,,,,,,,,,,1,1.3336033999803476,453.0886917000171,None,ScrollDown,정답입니다,453.0886917000171,None,453.0886917000171,None,453.0886917000171,None,453.0886917000171,None,454.30936179996934,None,454.30936179996934,454.8212762000039,,,,,,,,,,,,,,,,107,2022-05-02_09h24.06.179,FishGame,2022.1.1,60.01983056327316,
,25,넌 진실돼,1,Orange,A,6.625,5.566666666666666,ScrollDown,ScrollUp,Orange.png,3,Positive,Congruent,0,0,0,0,,,,,,,,,,,,,,,,,,,,,0,24,24,24,,,,,,,,,,,,,,,,,,,,,,,,,,,,,,,,,,,,,,,,,,,,,,,,,,,,,,,,,,,,,,,,,,,,,,,,,,,,,1,1.407551699958276,455.45602029998554,None,ScrollDown,정답입니다,455.45602029998554,None,455.45602029998554,None,455.45602029998554,None,455.45602029998554,None,456.75487890001386,None,456.75487890001386,457.2546919999877,,,,,,,,,,,,,,,,107,2022-05-02_09h24.06.179,FishGame,2022.1.1,60.01983056327316,
,26,넌 천진난만해,3,Green,B,4.958333333333334,4.833333333333333,ScrollUp,ScrollDown,Green.png,3,Neutral,Neutral,0,0,0,0,,,,,,,,,,,,,,,,,,,,,0,25,25,25,,,,,,,,,,,,,,,,,,,,,,,,,,,,,,,,,,,,,,,,,,,,,,,,,,,,,,,,,,,,,,,,,,,,,,,,,,,,,2,1.5239019999862649,457.8817987999646,None,ScrollUp,정답입니다,457.8817987999646,None,457.8817987999646,None,457.8817987999646,None,457.8817987999646,None,459.3048420000123,None,459.3048420000123,459.8044130000053,,,,,,,,,,,,,,,,107,2022-05-02_09h24.06.179,FishGame,2022.1.1,60.01983056327316,
,27,넌 교양없어,5,Orange,A,2.416666666666667,2.2,ScrollDown,ScrollUp,Orange.png,3,Negative,Incongruent,0,0,0,0,,,,,,,,,,,,,,,,,,,,,0,26,26,26,,,,,,,,,,,,,,,,,,,,,,,,,,,,,,,,,,,,,,,,,,,,,,,,,,,,,,,,,,,,,,,,,,,,,,,,,,,,,1,1.4460832999902777,460.4479496999993,None,ScrollDown,정답입니다,460.4479496999993,None,460.4479496999993,None,460.4479496999993,None,460.4479496999993,None,461.7749791999813,None,461.7749791999813,462.2882824999979,,,,,,,,,,,,,,,,107,2022-05-02_09h24.06.179,FishGame,2022.1.1,60.01983056327316,
,28,나를 보내줘,6,Orange,A,0,0,ScrollUp,ScrollDown,Orange.png,3,NonTarget,NonTarget,0,0,0,0,,,,,,,,,,,,,,,,,,,,,0,27,27,27,,,,,,,,,,,,,,,,,,,,,,,,,,,,,,,,,,,,,,,,,,,,,,,,,,,,,,,,,,,,,,,,,,,,,,,,,,,,,2,1.5915325000532903,462.9116101000109,None,ScrollUp,정답입니다,462.9116101000109,None,462.9116101000109,None,462.9116101000109,None,462.9116101000109,None,464.4050936999847,None,464.4050936999847,464.90493289998267,,,,,,,,,,,,,,,,107,2022-05-02_09h24.06.179,FishGame,2022.1.1,60.01983056327316,
,29,넌 엉뚱스러워,3,Orange,A,4.166666666666667,4.133333333333334,ScrollDown,ScrollUp,Orange.png,3,Neutral,Neutral,0,0,0,0,,,,,,,,,,,,,,,,,,,,,0,28,28,28,,,,,,,,,,,,,,,,,,,,,,,,,,,,,,,,,,,,,,,,,,,,,,,,,,,,,,,,,,,,,,,,,,,,,,,,,,,,,1,1.422496500017587,465.5367255000165,None,ScrollDown,정답입니다,465.5367255000165,None,465.5367255000165,None,465.5367255000165,None,465.5367255000165,None,466.8544522000011,None,466.8544522000011,467.35476799996104,,,,,,,,,,,,,,,,107,2022-05-02_09h24.06.179,FishGame,2022.1.1,60.01983056327316,
,30,넌 무지해,4,Green,B,2.541666666666667,3.066666666666667,ScrollUp,ScrollDown,Green.png,3,Negative,Congruent,0,0,0,0,,,,,,,,,,,,,,,,,,,,,0,29,29,29,,,,,,,,,,,,,,,,,,,,,,,,,,,,,,,,,,,,,,,,,,,,,,,,,,,,,,,,,,,,,,,,,,,,,,,,,,,,,2,1.440097299986519,467.98180700000376,None,ScrollUp,정답입니다,467.98180700000376,None,467.98180700000376,None,467.98180700000376,None,467.98180700000376,None,469.3182717000018,None,469.3182717000018,469.8213911000057,,,,,,,,,,,,,,,,107,2022-05-02_09h24.06.179,FishGame,2022.1.1,60.01983056327316,
,31,넌 음울해,5,Green,B,2.25,2.233333333333333,ScrollUp,ScrollDown,Green.png,3,Negative,Congruent,0,0,0,0,,,,,,,,,,,,,,,,,,,,,0,30,30,30,,,,,,,,,,,,,,,,,,,,,,,,,,,,,,,,,,,,,,,,,,,,,,,,,,,,,,,,,,,,,,,,,,,,,,,,,,,,,2,1.4268034999840893,470.44888049998553,None,ScrollUp,정답입니다,470.44888049998553,None,470.44888049998553,None,470.44888049998553,None,470.44888049998553,None,471.7716292999685,None,471.7716292999685,472.27140089997556,,,,,,,,,,,,,,,,107,2022-05-02_09h24.06.179,FishGame,2022.1.1,60.01983056327316,
,32,넌 냉소적이야,5,Orange,A,2.916666666666667,2.4,ScrollDown,ScrollUp,Orange.png,3,Negative,Incongruent,0,0,0,0,,,,,,,,,,,,,,,,,,,,,0,31,31,31,,,,,,,,,,,,,,,,,,,,,,,,,,,,,,,,,,,,,,,,,,,,,,,,,,,,,,,,,,,,,,,,,,,,,,,,,,,,,1,1.527214500005357,472.89855639997404,None,ScrollDown,정답입니다,472.89855639997404,None,472.89855639997404,None,472.89855639997404,None,472.89855639997404,None,474.321716299979,None,474.321716299979,474.82153429999016,,,,,,,,,,,,,,,,107,2022-05-02_09h24.06.179,FishGame,2022.1.1,60.01983056327316,
,33,나를 데려가줘,6,Green,B,0,0,ScrollDown,ScrollUp,Green.png,3,NonTarget,NonTarget,0,0,0,0,,,,,,,,,,,,,,,,,,,,,0,32,32,32,,,,,,,,,,,,,,,,,,,,,,,,,,,,,,,,,,,,,,,,,,,,,,,,,,,,,,,,,,,,,,,,,,,,,,,,,,,,,1,2.065076200000476,475.4490376000176,None,ScrollDown,정답입니다,475.4490376000176,None,475.4490376000176,None,475.4490376000176,None,475.4490376000176,None,477.4097191999899,None,477.4097191999899,477.9213121999637,,,,,,,,,,,,,,,,107,2022-05-02_09h24.06.179,FishGame,2022.1.1,60.01983056327316,
,34,넌 쾌활해,1,Orange,A,5.541666666666666,5.733333333333333,ScrollDown,ScrollUp,Orange.png,3,Positive,Congruent,0,0,0,0,,,,,,,,,,,,,,,,,,,,,0,33,33,33,,,,,,,,,,,,,,,,,,,,,,,,,,,,,,,,,,,,,,,,,,,,,,,,,,,,,,,,,,,,,,,,,,,,,,,,,,,,,2,1.4225422000163235,478.5520203000051,None,ScrollUp,오답입니다,478.5520203000051,None,478.5520203000051,None,478.5520203000051,None,478.5520203000051,None,479.86415789998136,None,479.86415789998136,480.3713795999647,,,,,,,,,,,,,,,,107,2022-05-02_09h24.06.179,FishGame,2022.1.1,60.01983056327316,
,35,나를 보내줘,6,Orange,A,0,0,ScrollUp,ScrollDown,Orange.png,3,NonTarget,NonTarget,0,0,0,0,,,,,,,,,,,,,,,,,,,,,0,34,34,34,,,,,,,,,,,,,,,,,,,,,,,,,,,,,,,,,,,,,,,,,,,,,,,,,,,,,,,,,,,,,,,,,,,,,,,,,,,,,2,1.6365401000366546,480.9965792999719,None,ScrollUp,정답입니다,480.9965792999719,None,480.9965792999719,None,480.9965792999719,None,480.9965792999719,None,482.52724089997355,None,482.52724089997355,483.0390606999863,,,,,,,,,,,,,,,,107,2022-05-02_09h24.06.179,FishGame,2022.1.1,60.01983056327316,
,36,넌 명랑해,1,Green,B,5.739130434782609,5.666666666666667,ScrollUp,ScrollDown,Green.png,3,Positive,Incongruent,0,0,0,0,,,,,,,,,,,,,,,,,,,,,0,35,35,35,,,,,,,,,,,,,,,,,,,,,,,,,,,,,,,,,,,,,,,,,,,,,,,,,,,,,,,,,,,,,,,,,,,,,,,,,,,,,2,1.6894876000005752,483.6655236000079,None,ScrollUp,정답입니다,483.6655236000079,None,483.6655236000079,None,483.6655236000079,None,483.6655236000079,None,485.25515959999757,None,485.25515959999757,485.7549894999829,,,,,,,,,,,,,,,,107,2022-05-02_09h24.06.179,FishGame,2022.1.1,60.01983056327316,
,37,넌 멍해,4,Orange,A,2.833333333333333,3.4,ScrollDown,ScrollUp,Orange.png,3,Negative,Incongruent,0,0,0,0,,,,,,,,,,,,,,,,,,,,,0,36,36,36,,,,,,,,,,,,,,,,,,,,,,,,,,,,,,,,,,,,,,,,,,,,,,,,,,,,,,,,,,,,,,,,,,,,,,,,,,,,,1,1.3533144999528304,486.3841217000154,None,ScrollDown,정답입니다,486.3841217000154,None,486.3841217000154,None,486.3841217000154,None,486.3841217000154,None,487.62858580000466,None,487.62858580000466,488.13837760000024,,,,,,,,,,,,,,,,107,2022-05-02_09h24.06.179,FishGame,2022.1.1,60.01983056327316,
,38,나를 데려가줘,6,Green,B,0,0,ScrollDown,ScrollUp,Green.png,3,NonTarget,NonTarget,0,0,0,0,,,,,,,,,,,,,,,,,,,,,0,37,37,37,,,,,,,,,,,,,,,,,,,,,,,,,,,,,,,,,,,,,,,,,,,,,,,,,,,,,,,,,,,,,,,,,,,,,,,,,,,,,1,1.5498130000196397,488.76728430000367,None,ScrollDown,정답입니다,488.76728430000367,None,488.76728430000367,None,488.76728430000367,None,488.76728430000367,None,490.2105051999679,None,490.2105051999679,490.721588699962,,,,,,,,,,,,,,,,107,2022-05-02_09h24.06.179,FishGame,2022.1.1,60.01983056327316,
,39,넌 현명해,2,Orange,A,6.541666666666666,4.533333333333333,ScrollDown,ScrollUp,Orange.png,3,Positive,Congruent,0,0,0,0,,,,,,,,,,,,,,,,,,,,,0,38,38,38,,,,,,,,,,,,,,,,,,,,,,,,,,,,,,,,,,,,,,,,,,,,,,,,,,,,,,,,,,,,,,,,,,,,,,,,,,,,,1,1.4859532000264153,491.3527675999794,None,ScrollDown,정답입니다,491.3527675999794,None,491.3527675999794,None,491.3527675999794,None,491.3527675999794,None,492.73547419998795,None,492.73547419998795,493.2386162999901,,,,,,,,,,,,,,,,107,2022-05-02_09h24.06.179,FishGame,2022.1.1,60.01983056327316,
,40,넌 수줍어,3,Green,B,3.541666666666666,4.366666666666666,ScrollUp,ScrollDown,Green.png,3,Neutral,Neutral,0,0,0,0,,,,,,,,,,,,,,,,,,,,,0,39,39,39,,,,,,,,,,,,,,,,,,,,,,,,,,,,,,,,,,,,,,,,,,,,,,,,,,,,,,,,,,,,,,,,,,,,,,,,,,,,,2,1.829446599993389,493.86835060000885,None,ScrollUp,정답입니다,493.86835060000885,None,493.86835060000885,None,493.86835060000885,None,493.86835060000885,None,495.5900896000094,None,495.5900896000094,496.0893485000124,,,,,,,,,,,,,,,,107,2022-05-02_09h24.06.179,FishGame,2022.1.1,60.01983056327316,
,41,나를 데려가줘,6,Green,B,0,0,ScrollDown,ScrollUp,Green.png,3,NonTarget,NonTarget,0,0,0,0,,,,,,,,,,,,,,,,,,,,,0,40,40,40,,,,,,,,,,,,,,,,,,,,,,,,,,,,,,,,,,,,,,,,,,,,,,,,,,,,,,,,,,,,,,,,,,,,,,,,,,,,,1,1.4500074000097811,496.7298087999807,None,ScrollDown,정답입니다,496.7298087999807,None,496.7298087999807,None,496.7298087999807,None,496.7298087999807,None,498.07673500000965,None,498.07673500000965,498.5887458999641,,,,,,,,,,,,,,,,107,2022-05-02_09h24.06.179,FishGame,2022.1.1,60.01983056327316,
,42,넌 성숙해,2,Green,B,5.833333333333333,4.533333333333333,ScrollUp,ScrollDown,Green.png,3,Positive,Incongruent,0,0,0,0,,,,,,,,,,,,,,,,,,,,,0,41,41,41,,,,,,,,,,,,,,,,,,,,,,,,,,,,,,,,,,,,,,,,,,,,,,,,,,,,,,,,,,,,,,,,,,,,,,,,,,,,,2,1.360584900015965,499.2091333999997,None,ScrollUp,정답입니다,499.2091333999997,None,499.2091333999997,None,499.2091333999997,None,499.2091333999997,None,500.4725036000018,None,500.4725036000018,500.97210040001664,,,,,,,,,,,,,,,,107,2022-05-02_09h24.06.179,FishGame,2022.1.1,60.01983056327316,
,1,넌 매력적이야,2,Green,B,6.125,4.666666666666667,ScrollUp,ScrollDown,Green.png,4,Positive,Incongruent,0,0,0,0,,,,,,,,,,,,,,,,,,,,,,,,,0,0,0,0,,,,,,,,,,,,,,,,,,,,,,,,,,,,,,,,532.7228250000044,534.2224690999719,534.2559525999823,535.2067147999769,535.2559956999612,536.2064277000027,536.2064277000027,None,,,,,,,,,,,,,,,,,,,,,,,,,,,,,,,,,,2,1.7081710000056773,537.345992699964,None,ScrollUp,정답입니다,537.345992699964,None,537.345992699964,None,537.345992699964,None,537.345992699964,None,538.9079265000182,None,538.9079265000182,539.4232270999928,501.47207219997654,None,501.47207219997654,None,0.035185184,-0.1037037,1,0,0,0.015941330057103187,None,531.4730639999616,None,,,107,2022-05-02_09h24.06.179,FishGame,2022.1.1,60.01983056327316,
,2,나를 보내줘,6,Orange,A,0,0,ScrollUp,ScrollDown,Orange.png,4,NonTarget,NonTarget,0,0,0,0,,,,,,,,,,,,,,,,,,,,,,,,,0,1,1,1,,,,,,,,,,,,,,,,,,,,,,,,,,,,,,,,,,,,,,,,,,,,,,,,,,,,,,,,,,,,,,,,,,,,,,,,,2,1.6095784999779426,540.0509317999822,None,ScrollUp,정답입니다,540.0509317999822,None,540.0509317999822,None,540.0509317999822,None,540.0509317999822,None,541.556070599996,None,541.556070599996,542.0563640000182,,,,,,,,,,,,,,,,107,2022-05-02_09h24.06.179,FishGame,2022.1.1,60.01983056327316,
,3,넌 조심스러워,3,Orange,A,4.791666666666666,4.666666666666667,ScrollDown,ScrollUp,Orange.png,4,Neutral,Neutral,0,0,0,0,,,,,,,,,,,,,,,,,,,,,,,,,0,2,2,2,,,,,,,,,,,,,,,,,,,,,,,,,,,,,,,,,,,,,,,,,,,,,,,,,,,,,,,,,,,,,,,,,,,,,,,,,1,1.296757299976889,542.6899425999727,None,ScrollDown,정답입니다,542.6899425999727,None,542.6899425999727,None,542.6899425999727,None,542.6899425999727,None,543.8774838999962,None,543.8774838999962,544.3891447999631,,,,,,,,,,,,,,,,107,2022-05-02_09h24.06.179,FishGame,2022.1.1,60.01983056327316,
,4,넌 철학적이야,3,Green,B,4.5,4.266666666666667,ScrollUp,ScrollDown,Green.png,4,Neutral,Neutral,0,0,0,0,,,,,,,,,,,,,,,,,,,,,,,,,0,3,3,3,,,,,,,,,,,,,,,,,,,,,,,,,,,,,,,,,,,,,,,,,,,,,,,,,,,,,,,,,,,,,,,,,,,,,,,,,2,1.2249045000062324,545.0205069999793,None,ScrollUp,정답입니다,545.0205069999793,None,545.0205069999793,None,545.0205069999793,None,545.0205069999793,None,546.1401616999647,None,546.1401616999647,546.6396830999875,,,,,,,,,,,,,,,,107,2022-05-02_09h24.06.179,FishGame,2022.1.1,60.01983056327316,
,5,넌 쩨쩨해,5,Orange,A,2.375,2.133333333333333,ScrollDown,ScrollUp,Orange.png,4,Negative,Incongruent,0,0,0,0,,,,,,,,,,,,,,,,,,,,,,,,,0,4,4,4,,,,,,,,,,,,,,,,,,,,,,,,,,,,,,,,,,,,,,,,,,,,,,,,,,,,,,,,,,,,,,,,,,,,,,,,,1,1.2740838000318035,547.2705939000007,None,ScrollDown,정답입니다,547.2705939000007,None,547.2705939000007,None,547.2705939000007,None,547.2705939000007,None,548.4394439000171,None,548.4394439000171,548.9393197000027,,,,,,,,,,,,,,,,107,2022-05-02_09h24.06.179,FishGame,2022.1.1,60.01983056327316,
,6,나를 데려가줘,6,Green,B,0,0,ScrollDown,ScrollUp,Green.png,4,NonTarget,NonTarget,0,0,0,0,,,,,,,,,,,,,,,,,,,,,,,,,0,5,5,5,,,,,,,,,,,,,,,,,,,,,,,,,,,,,,,,,,,,,,,,,,,,,,,,,,,,,,,,,,,,,,,,,,,,,,,,,1,1.340570000000298,549.5608220999711,None,ScrollDown,정답입니다,549.5608220999711,None,549.5608220999711,None,549.5608220999711,None,549.5608220999711,None,550.8065425999812,None,550.8065425999812,551.3069380999659,,,,,,,,,,,,,,,,107,2022-05-02_09h24.06.179,FishGame,2022.1.1,60.01983056327316,
,7,넌 고집불통이야,5,Green,B,2.875,2,ScrollUp,ScrollDown,Green.png,4,Negative,Congruent,0,0,0,0,,,,,,,,,,,,,,,,,,,,,,,,,0,6,6,6,,,,,,,,,,,,,,,,,,,,,,,,,,,,,,,,,,,,,,,,,,,,,,,,,,,,,,,,,,,,,,,,,,,,,,,,,2,1.4170994000160135,551.9465449000127,None,ScrollUp,정답입니다,551.9465449000127,None,551.9465449000127,None,551.9465449000127,None,551.9465449000127,None,553.2452343999757,None,553.2452343999757,553.7564835000085,,,,,,,,,,,,,,,,107,2022-05-02_09h24.06.179,FishGame,2022.1.1,60.01983056327316,
,8,넌 무심해,4,Orange,A,2.875,3.2,ScrollDown,ScrollUp,Orange.png,4,Negative,Incongruent,0,0,0,0,,,,,,,,,,,,,,,,,,,,,,,,,0,7,7,7,,,,,,,,,,,,,,,,,,,,,,,,,,,,,,,,,,,,,,,,,,,,,,,,,,,,,,,,,,,,,,,,,,,,,,,,,1,1.9830600999994203,554.387723199965,None,ScrollDown,정답입니다,554.387723199965,None,554.387723199965,None,554.387723199965,None,554.387723199965,None,556.2615886999993,None,556.2615886999993,556.7730262000114,,,,,,,,,,,,,,,,107,2022-05-02_09h24.06.179,FishGame,2022.1.1,60.01983056327316,
,9,넌 정겨워,1,Orange,A,5.791666666666667,5.666666666666667,ScrollDown,ScrollUp,Orange.png,4,Positive,Congruent,0,0,0,0,,,,,,,,,,,,,,,,,,,,,,,,,0,8,8,8,,,,,,,,,,,,,,,,,,,,,,,,,,,,,,,,,,,,,,,,,,,,,,,,,,,,,,,,,,,,,,,,,,,,,,,,,1,1.1570775000145659,557.4053199999616,None,ScrollDown,정답입니다,557.4053199999616,None,557.4053199999616,None,557.4053199999616,None,557.4053199999616,None,558.45671150001,None,558.45671150001,558.9565315999789,,,,,,,,,,,,,,,,107,2022-05-02_09h24.06.179,FishGame,2022.1.1,60.01983056327316,
,10,나를 데려가줘,6,Green,B,0,0,ScrollDown,ScrollUp,Green.png,4,NonTarget,NonTarget,0,0,0,0,,,,,,,,,,,,,,,,,,,,,,,,,0,9,9,9,,,,,,,,,,,,,,,,,,,,,,,,,,,,,,,,,,,,,,,,,,,,,,,,,,,,,,,,,,,,,,,,,,,,,,,,,1,1.364375300006941,559.5782793000108,None,ScrollDown,정답입니다,559.5782793000108,None,559.5782793000108,None,559.5782793000108,None,559.5782793000108,None,560.8442057999782,None,560.8442057999782,561.3567072000005,,,,,,,,,,,,,,,,107,2022-05-02_09h24.06.179,FishGame,2022.1.1,60.01983056327316,
,11,넌 체제순응적이야,4,Green,B,3,3.6,ScrollUp,ScrollDown,Green.png,4,Negative,Congruent,0,0,0,0,,,,,,,,,,,,,,,,,,,,,,,,,0,10,10,10,,,,,,,,,,,,,,,,,,,,,,,,,,,,,,,,,,,,,,,,,,,,,,,,,,,,,,,,,,,,,,,,,,,,,,,,,2,1.3689145999960601,562.0005795999896,None,ScrollUp,정답입니다,562.0005795999896,None,562.0005795999896,None,562.0005795999896,None,562.0005795999896,None,563.25339909998,None,563.25339909998,563.7568824999616,,,,,,,,,,,,,,,,107,2022-05-02_09h24.06.179,FishGame,2022.1.1,60.01983056327316,
,12,나를 보내줘,6,Orange,A,0,0,ScrollUp,ScrollDown,Orange.png,4,NonTarget,NonTarget,0,0,0,0,,,,,,,,,,,,,,,,,,,,,,,,,0,11,11,11,,,,,,,,,,,,,,,,,,,,,,,,,,,,,,,,,,,,,,,,,,,,,,,,,,,,,,,,,,,,,,,,,,,,,,,,,2,1.3460117999929935,564.3824803999742,None,ScrollUp,정답입니다,564.3824803999742,None,564.3824803999742,None,564.3824803999742,None,564.3824803999742,None,565.6283315999899,None,565.6283315999899,566.1405682999757,,,,,,,,,,,,,,,,107,2022-05-02_09h24.06.179,FishGame,2022.1.1,60.01983056327316,
,13,넌 박식해,2,Orange,A,5.625,3.933333333333333,ScrollDown,ScrollUp,Orange.png,4,Positive,Congruent,0,0,0,0,,,,,,,,,,,,,,,,,,,,,,,,,0,12,12,12,,,,,,,,,,,,,,,,,,,,,,,,,,,,,,,,,,,,,,,,,,,,,,,,,,,,,,,,,,,,,,,,,,,,,,,,,1,1.1980154000339098,566.7792218999821,None,ScrollDown,정답입니다,566.7792218999821,None,566.7792218999821,None,566.7792218999821,None,566.7792218999821,None,567.861384799995,None,567.861384799995,568.3732527999673,,,,,,,,,,,,,,,,107,2022-05-02_09h24.06.179,FishGame,2022.1.1,60.01983056327316,
,14,나를 보내줘,6,Orange,A,0,0,ScrollUp,ScrollDown,Orange.png,4,NonTarget,NonTarget,0,0,0,0,,,,,,,,,,,,,,,,,,,,,,,,,0,13,13,13,,,,,,,,,,,,,,,,,,,,,,,,,,,,,,,,,,,,,,,,,,,,,,,,,,,,,,,,,,,,,,,,,,,,,,,,,2,1.4245537999668159,569.0043980999617,None,ScrollUp,정답입니다,569.0043980999617,None,569.0043980999617,None,569.0043980999617,None,569.0043980999617,None,570.3231938999961,None,570.3231938999961,570.8233359999722,,,,,,,,,,,,,,,,107,2022-05-02_09h24.06.179,FishGame,2022.1.1,60.01983056327316,
,15,넌 침착해,1,Green,B,5.458333333333333,5.566666666666666,ScrollUp,ScrollDown,Green.png,4,Positive,Incongruent,0,0,0,0,,,,,,,,,,,,,,,,,,,,,,,,,0,14,14,14,,,,,,,,,,,,,,,,,,,,,,,,,,,,,,,,,,,,,,,,,,,,,,,,,,,,,,,,,,,,,,,,,,,,,,,,,2,1.4917816999950446,571.451490300009,None,ScrollUp,정답입니다,571.451490300009,None,571.451490300009,None,571.451490300009,None,571.451490300009,None,572.8404156999895,None,572.8404156999895,573.3400784999831,,,,,,,,,,,,,,,,107,2022-05-02_09h24.06.179,FishGame,2022.1.1,60.01983056327316,
,16,나를 데려가줘,6,Green,B,0,0,ScrollDown,ScrollUp,Green.png,4,NonTarget,NonTarget,0,0,0,0,,,,,,,,,,,,,,,,,,,,,,,,,0,15,15,15,,,,,,,,,,,,,,,,,,,,,,,,,,,,,,,,,,,,,,,,,,,,,,,,,,,,,,,,,,,,,,,,,,,,,,,,,1,1.3397809999878518,573.9695242000162,None,ScrollDown,정답입니다,573.9695242000162,None,573.9695242000162,None,573.9695242000162,None,573.9695242000162,None,575.2073980999994,None,575.2073980999994,575.7067215999705,,,,,,,,,,,,,,,,107,2022-05-02_09h24.06.179,FishGame,2022.1.1,60.01983056327316,
,17,넌 행복해,1,Orange,A,6.416666666666666,6.166666666666667,ScrollDown,ScrollUp,Orange.png,4,Positive,Congruent,0,0,0,0,,,,,,,,,,,,,,,,,,,,,,,,,0,16,16,16,,,,,,,,,,,,,,,,,,,,,,,,,,,,,,,,,,,,,,,,,,,,,,,,,,,,,,,,,,,,,,,,,,,,,,,,,1,1.3559671000111848,576.3482292999979,None,ScrollDown,정답입니다,576.3482292999979,None,576.3482292999979,None,576.3482292999979,None,576.3482292999979,None,577.5870762999984,None,577.5870762999984,578.0903708999977,,,,,,,,,,,,,,,,107,2022-05-02_09h24.06.179,FishGame,2022.1.1,60.01983056327316,
,18,넌 겸손해,2,Green,B,5.791666666666667,4.766666666666667,ScrollUp,ScrollDown,Green.png,4,Positive,Incongruent,0,0,0,0,,,,,,,,,,,,,,,,,,,,,,,,,0,17,17,17,,,,,,,,,,,,,,,,,,,,,,,,,,,,,,,,,,,,,,,,,,,,,,,,,,,,,,,,,,,,,,,,,,,,,,,,,2,1.3157277000136673,578.7209469999652,None,ScrollUp,정답입니다,578.7209469999652,None,578.7209469999652,None,578.7209469999652,None,578.7209469999652,None,579.928734999965,None,579.928734999965,580.4402602000046,,,,,,,,,,,,,,,,107,2022-05-02_09h24.06.179,FishGame,2022.1.1,60.01983056327316,
,19,나를 보내줘,6,Orange,A,0,0,ScrollUp,ScrollDown,Orange.png,4,NonTarget,NonTarget,0,0,0,0,,,,,,,,,,,,,,,,,,,,,,,,,0,18,18,18,,,,,,,,,,,,,,,,,,,,,,,,,,,,,,,,,,,,,,,,,,,,,,,,,,,,,,,,,,,,,,,,,,,,,,,,,2,1.500177400012035,581.0710240000044,None,ScrollUp,정답입니다,581.0710240000044,None,581.0710240000044,None,581.0710240000044,None,581.0710240000044,None,582.4701465999824,None,582.4701465999824,582.9737531999708,,,,,,,,,,,,,,,,107,2022-05-02_09h24.06.179,FishGame,2022.1.1,60.01983056327316,
,20,넌 의심없어,3,Orange,A,4.166666666666667,4.6,ScrollDown,ScrollUp,Orange.png,4,Neutral,Neutral,0,0,0,0,,,,,,,,,,,,,,,,,,,,,,,,,0,19,19,19,,,,,,,,,,,,,,,,,,,,,,,,,,,,,,,,,,,,,,,,,,,,,,,,,,,,,,,,,,,,,,,,,,,,,,,,,1,1.768656500033103,583.6000645000022,None,ScrollDown,정답입니다,583.6000645000022,None,583.6000645000022,None,583.6000645000022,None,583.6000645000022,None,585.2701851999736,None,585.2701851999736,585.7744792000158,,,,,,,,,,,,,,,,107,2022-05-02_09h24.06.179,FishGame,2022.1.1,60.01983056327316,
,21,넌 시시해,4,Orange,A,2.666666666666667,2.966666666666667,ScrollDown,ScrollUp,Orange.png,4,Negative,Incongruent,0,0,0,0,,,,,,,,,,,,,,,,,,,,,,,,,0,20,20,20,,,,,,,,,,,,,,,,,,,,,,,,,,,,,,,,,,,,,,,,,,,,,,,,,,,,,,,,,,,,,,,,,,,,,,,,,1,1.1721162000321783,586.3980675999774,None,ScrollDown,정답입니다,586.3980675999774,None,586.3980675999774,None,586.3980675999774,None,586.3980675999774,None,587.4706039999728,None,587.4706039999728,587.9736080999719,,,,,,,,,,,,,,,,107,2022-05-02_09h24.06.179,FishGame,2022.1.1,60.01983056327316,
,22,나를 데려가줘,6,Green,B,0,0,ScrollDown,ScrollUp,Green.png,4,NonTarget,NonTarget,0,0,0,0,,,,,,,,,,,,,,,,,,,,,,,,,0,21,21,21,,,,,,,,,,,,,,,,,,,,,,,,,,,,,,,,,,,,,,,,,,,,,,,,,,,,,,,,,,,,,,,,,,,,,,,,,1,1.5496645999955945,588.6025024999981,None,ScrollDown,정답입니다,588.6025024999981,None,588.6025024999981,None,588.6025024999981,None,588.6025024999981,None,590.045730999962,None,590.045730999962,590.5576205999823,,,,,,,,,,,,,,,,107,2022-05-02_09h24.06.179,FishGame,2022.1.1,60.01983056327316,
,23,넌 무정해,5,Orange,A,2.5,2.2,ScrollDown,ScrollUp,Orange.png,4,Negative,Incongruent,0,0,0,0,,,,,,,,,,,,,,,,,,,,,,,,,0,22,22,22,,,,,,,,,,,,,,,,,,,,,,,,,,,,,,,,,,,,,,,,,,,,,,,,,,,,,,,,,,,,,,,,,,,,,,,,,1,1.3069661000045016,591.1836007999955,None,ScrollDown,정답입니다,591.1836007999955,None,591.1836007999955,None,591.1836007999955,None,591.1836007999955,None,592.3908859000076,None,592.3908859000076,592.8902960999985,,,,,,,,,,,,,,,,107,2022-05-02_09h24.06.179,FishGame,2022.1.1,60.01983056327316,
,24,넌 긍정적이야,1,Green,B,6.041666666666667,6.066666666666666,ScrollUp,ScrollDown,Green.png,4,Positive,Incongruent,0,0,0,0,,,,,,,,,,,,,,,,,,,,,,,,,0,23,23,23,,,,,,,,,,,,,,,,,,,,,,,,,,,,,,,,,,,,,,,,,,,,,,,,,,,,,,,,,,,,,,,,,,,,,,,,,2,1.2855470000067726,593.5216397999902,None,ScrollUp,정답입니다,593.5216397999902,None,593.5216397999902,None,593.5216397999902,None,593.5216397999902,None,594.7043222999782,None,594.7043222999782,595.2074240999646,,,,,,,,,,,,,,,,107,2022-05-02_09h24.06.179,FishGame,2022.1.1,60.01983056327316,
,25,나를 보내줘,6,Orange,A,0,0,ScrollUp,ScrollDown,Orange.png,4,NonTarget,NonTarget,0,0,0,0,,,,,,,,,,,,,,,,,,,,,,,,,0,24,24,24,,,,,,,,,,,,,,,,,,,,,,,,,,,,,,,,,,,,,,,,,,,,,,,,,,,,,,,,,,,,,,,,,,,,,,,,,2,1.3168044000049122,595.8906884000171,None,ScrollUp,정답입니다,595.8906884000171,None,595.8906884000171,None,595.8906884000171,None,595.8906884000171,None,597.0460119000054,None,597.0460119000054,597.5574835999869,,,,,,,,,,,,,,,,107,2022-05-02_09h24.06.179,FishGame,2022.1.1,60.01983056327316,
,26,넌 시기심이 많아,5,Green,B,2.458333333333333,2.233333333333333,ScrollUp,ScrollDown,Green.png,4,Negative,Congruent,0,0,0,0,,,,,,,,,,,,,,,,,,,,,,,,,0,25,25,25,,,,,,,,,,,,,,,,,,,,,,,,,,,,,,,,,,,,,,,,,,,,,,,,,,,,,,,,,,,,,,,,,,,,,,,,,2,1.5010183999547735,598.1891751000076,None,ScrollUp,정답입니다,598.1891751000076,None,598.1891751000076,None,598.1891751000076,None,598.1891751000076,None,599.5790716999909,None,599.5790716999909,600.0906996999984,,,,,,,,,,,,,,,,107,2022-05-02_09h24.06.179,FishGame,2022.1.1,60.01983056327316,
,27,넌 탁월해,2,Orange,A,5.708333333333334,4.5,ScrollDown,ScrollUp,Orange.png,4,Positive,Congruent,0,0,0,0,,,,,,,,,,,,,,,,,,,,,,,,,0,26,26,26,,,,,,,,,,,,,,,,,,,,,,,,,,,,,,,,,,,,,,,,,,,,,,,,,,,,,,,,,,,,,,,,,,,,,,,,,1,1.1824857000028715,600.7365681999945,None,ScrollDown,정답입니다,600.7365681999945,None,600.7365681999945,None,600.7365681999945,None,600.7365681999945,None,601.7957064000075,None,601.7957064000075,602.3076918000006,,,,,,,,,,,,,,,,107,2022-05-02_09h24.06.179,FishGame,2022.1.1,60.01983056327316,
,28,나를 데려가줘,6,Green,B,0,0,ScrollDown,ScrollUp,Green.png,4,NonTarget,NonTarget,0,0,0,0,,,,,,,,,,,,,,,,,,,,,,,,,0,27,27,27,,,,,,,,,,,,,,,,,,,,,,,,,,,,,,,,,,,,,,,,,,,,,,,,,,,,,,,,,,,,,,,,,,,,,,,,,1,1.359207500005141,602.9335360999685,None,ScrollDown,정답입니다,602.9335360999685,None,602.9335360999685,None,602.9335360999685,None,602.9335360999685,None,604.1906853999826,None,604.1906853999826,604.6907435000176,,,,,,,,,,,,,,,,107,2022-05-02_09h24.06.179,FishGame,2022.1.1,60.01983056327316,
,29,넌 조용해,3,Green,B,4.333333333333333,4.166666666666667,ScrollUp,ScrollDown,Green.png,4,Neutral,Neutral,0,0,0,0,,,,,,,,,,,,,,,,,,,,,,,,,0,28,28,28,,,,,,,,,,,,,,,,,,,,,,,,,,,,,,,,,,,,,,,,,,,,,,,,,,,,,,,,,,,,,,,,,,,,,,,,,2,1.410637900000438,605.3185693999985,None,ScrollUp,정답입니다,605.3185693999985,None,605.3185693999985,None,605.3185693999985,None,605.3185693999985,None,606.6246524999733,None,606.6246524999733,607.1243345999974,,,,,,,,,,,,,,,,107,2022-05-02_09h24.06.179,FishGame,2022.1.1,60.01983056327316,
,30,넌 다정해,1,Orange,A,5.833333333333334,5.7,ScrollDown,ScrollUp,Orange.png,4,Positive,Congruent,0,0,0,0,,,,,,,,,,,,,,,,,,,,,,,,,0,29,29,29,,,,,,,,,,,,,,,,,,,,,,,,,,,,,,,,,,,,,,,,,,,,,,,,,,,,,,,,,,,,,,,,,,,,,,,,,1,1.4530979999690317,607.7605821000179,None,ScrollDown,정답입니다,607.7605821000179,None,607.7605821000179,None,607.7605821000179,None,607.7605821000179,None,609.1046147000161,None,609.1046147000161,609.6079568999703,,,,,,,,,,,,,,,,107,2022-05-02_09h24.06.179,FishGame,2022.1.1,60.01983056327316,
,31,넌 능력있어,2,Green,B,6.166666666666666,4.6,ScrollUp,ScrollDown,Green.png,4,Positive,Incongruent,0,0,0,0,,,,,,,,,,,,,,,,,,,,,,,,,0,30,30,30,,,,,,,,,,,,,,,,,,,,,,,,,,,,,,,,,,,,,,,,,,,,,,,,,,,,,,,,,,,,,,,,,,,,,,,,,2,1.4948930999962613,610.2286794999964,None,ScrollUp,정답입니다,610.2286794999964,None,610.2286794999964,None,610.2286794999964,None,610.2286794999964,None,611.6240920000128,None,611.6240920000128,612.1242065000115,,,,,,,,,,,,,,,,107,2022-05-02_09h24.06.179,FishGame,2022.1.1,60.01983056327316,
,32,넌 불쾌해,5,Orange,A,2.125,1.933333333333333,ScrollDown,ScrollUp,Orange.png,4,Negative,Incongruent,0,0,0,0,,,,,,,,,,,,,,,,,,,,,,,,,0,31,31,31,,,,,,,,,,,,,,,,,,,,,,,,,,,,,,,,,,,,,,,,,,,,,,,,,,,,,,,,,,,,,,,,,,,,,,,,,1,1.3086390999960713,612.751890799962,None,ScrollDown,정답입니다,612.751890799962,None,612.751890799962,None,612.751890799962,None,612.751890799962,None,613.9579413000029,None,613.9579413000029,614.4574872999801,,,,,,,,,,,,,,,,107,2022-05-02_09h24.06.179,FishGame,2022.1.1,60.01983056327316,
,33,나를 데려가줘,6,Green,B,0,0,ScrollDown,ScrollUp,Green.png,4,NonTarget,NonTarget,0,0,0,0,,,,,,,,,,,,,,,,,,,,,,,,,0,32,32,32,,,,,,,,,,,,,,,,,,,,,,,,,,,,,,,,,,,,,,,,,,,,,,,,,,,,,,,,,,,,,,,,,,,,,,,,,1,1.6181450000149198,615.0855640000082,None,ScrollDown,정답입니다,615.0855640000082,None,615.0855640000082,None,615.0855640000082,None,615.0855640000082,None,616.6044048999902,None,616.6044048999902,617.1079843000043,,,,,,,,,,,,,,,,107,2022-05-02_09h24.06.179,FishGame,2022.1.1,60.01983056327316,
,34,넌 유순해,3,Orange,A,4.458333333333333,5,ScrollDown,ScrollUp,Orange.png,4,Neutral,Neutral,0,0,0,0,,,,,,,,,,,,,,,,,,,,,,,,,0,33,33,33,,,,,,,,,,,,,,,,,,,,,,,,,,,,,,,,,,,,,,,,,,,,,,,,,,,,,,,,,,,,,,,,,,,,,,,,,1,1.5900405999855138,617.7326036000159,None,ScrollDown,정답입니다,617.7326036000159,None,617.7326036000159,None,617.7326036000159,None,617.7326036000159,None,619.2244467000128,None,619.2244467000128,619.7246088999673,,,,,,,,,,,,,,,,107,2022-05-02_09h24.06.179,FishGame,2022.1.1,60.01983056327316,
,35,넌 근심스러워,4,Green,B,2.708333333333333,3.133333333333333,ScrollUp,ScrollDown,Green.png,4,Negative,Congruent,0,0,0,0,,,,,,,,,,,,,,,,,,,,,,,,,0,34,34,34,,,,,,,,,,,,,,,,,,,,,,,,,,,,,,,,,,,,,,,,,,,,,,,,,,,,,,,,,,,,,,,,,,,,,,,,,2,1.4687845000298694,620.356844199996,None,ScrollUp,정답입니다,620.356844199996,None,620.356844199996,None,620.356844199996,None,620.356844199996,None,621.7210796999861,None,621.7210796999861,622.2246985000093,,,,,,,,,,,,,,,,107,2022-05-02_09h24.06.179,FishGame,2022.1.1,60.01983056327316,
,36,넌 세련되었어,2,Orange,A,5.5,4.6,ScrollDown,ScrollUp,Orange.png,4,Positive,Congruent,0,0,0,0,,,,,,,,,,,,,,,,,,,,,,,,,0,35,35,35,,,,,,,,,,,,,,,,,,,,,,,,,,,,,,,,,,,,,,,,,,,,,,,,,,,,,,,,,,,,,,,,,,,,,,,,,1,1.3036953000118956,622.8730895000044,None,ScrollDown,정답입니다,622.8730895000044,None,622.8730895000044,None,622.8730895000044,None,622.8730895000044,None,624.0547149999766,None,624.0547149999766,624.5577458000043,,,,,,,,,,,,,,,,107,2022-05-02_09h24.06.179,FishGame,2022.1.1,60.01983056327316,
,37,나를 보내줘,6,Orange,A,0,0,ScrollUp,ScrollDown,Orange.png,4,NonTarget,NonTarget,0,0,0,0,,,,,,,,,,,,,,,,,,,,,,,,,0,36,36,36,,,,,,,,,,,,,,,,,,,,,,,,,,,,,,,,,,,,,,,,,,,,,,,,,,,,,,,,,,,,,,,,,,,,,,,,,2,1.452380099974107,625.1828476999654,None,ScrollUp,정답입니다,625.1828476999654,None,625.1828476999654,None,625.1828476999654,None,625.1828476999654,None,626.5379624000052,None,626.5379624000052,627.040960400016,,,,,,,,,,,,,,,,107,2022-05-02_09h24.06.179,FishGame,2022.1.1,60.01983056327316,
,38,넌 확고해,3,Green,B,4.708333333333334,4.566666666666666,ScrollUp,ScrollDown,Green.png,4,Neutral,Neutral,0,0,0,0,,,,,,,,,,,,,,,,,,,,,,,,,0,37,37,37,,,,,,,,,,,,,,,,,,,,,,,,,,,,,,,,,,,,,,,,,,,,,,,,,,,,,,,,,,,,,,,,,,,,,,,,,2,1.5322934000287205,627.6651374999783,None,ScrollUp,정답입니다,627.6651374999783,None,627.6651374999783,None,627.6651374999783,None,627.6651374999783,None,629.096278699988,None,629.096278699988,629.6078995999997,,,,,,,,,,,,,,,,107,2022-05-02_09h24.06.179,FishGame,2022.1.1,60.01983056327316,
,39,넌 이해심이 많아,1,Green,B,6.041666666666668,5.533333333333333,ScrollUp,ScrollDown,Green.png,4,Positive,Incongruent,0,0,0,0,,,,,,,,,,,,,,,,,,,,,,,,,0,38,38,38,,,,,,,,,,,,,,,,,,,,,,,,,,,,,,,,,,,,,,,,,,,,,,,,,,,,,,,,,,,,,,,,,,,,,,,,,2,1.521814500039909,630.2346991999657,None,ScrollUp,정답입니다,630.2346991999657,None,630.2346991999657,None,630.2346991999657,None,630.2346991999657,None,631.6549634999828,None,631.6549634999828,632.1587163999793,,,,,,,,,,,,,,,,107,2022-05-02_09h24.06.179,FishGame,2022.1.1,60.01983056327316,
,40,나를 보내줘,6,Orange,A,0,0,ScrollUp,ScrollDown,Orange.png,4,NonTarget,NonTarget,0,0,0,0,,,,,,,,,,,,,,,,,,,,,,,,,0,39,39,39,,,,,,,,,,,,,,,,,,,,,,,,,,,,,,,,,,,,,,,,,,,,,,,,,,,,,,,,,,,,,,,,,,,,,,,,,2,1.4201162999961525,632.7813703999855,None,ScrollUp,정답입니다,632.7813703999855,None,632.7813703999855,None,632.7813703999855,None,632.7813703999855,None,634.1048930999823,None,634.1048930999823,634.6084409999894,,,,,,,,,,,,,,,,107,2022-05-02_09h24.06.179,FishGame,2022.1.1,60.01983056327316,
,41,넌 거칠어,4,Orange,A,2.625,3.033333333333333,ScrollDown,ScrollUp,Orange.png,4,Negative,Incongruent,0,0,0,0,,,,,,,,,,,,,,,,,,,,,,,,,0,40,40,40,,,,,,,,,,,,,,,,,,,,,,,,,,,,,,,,,,,,,,,,,,,,,,,,,,,,,,,,,,,,,,,,,,,,,,,,,1,1.3298862999654375,635.2432546999771,None,ScrollDown,정답입니다,635.2432546999771,None,635.2432546999771,None,635.2432546999771,None,635.2432546999771,None,636.4618530999869,None,636.4618530999869,636.9748740000068,,,,,,,,,,,,,,,,107,2022-05-02_09h24.06.179,FishGame,2022.1.1,60.01983056327316,
,42,넌 변덕맞아,5,Green,B,2.75,2.166666666666667,ScrollUp,ScrollDown,Green.png,4,Negative,Congruent,0,0,0,0,,,,,,,,,,,,,,,,,,,,,,,,,0,41,41,41,,,,,,,,,,,,,,,,,,,,,,,,,,,,,,,,,,,,,,,,,,,,,,,,,,,,,,,,,,,,,,,,,,,,,,,,,2,1.4130210999865085,637.6101728999638,None,ScrollUp,정답입니다,637.6101728999638,None,637.6101728999638,None,637.6101728999638,None,637.6101728999638,None,638.90842469997,None,638.90842469997,639.4086063000141,,,,,,,,,,,,,,,,107,2022-05-02_09h24.06.179,FishGame,2022.1.1,60.01983056327316,
,43,나를 데려가줘,6,Green,B,0,0,ScrollDown,ScrollUp,Green.png,4,NonTarget,NonTarget,0,0,0,0,,,,,,,,,,,,,,,,,,,,,,,,,0,42,42,42,,,,,,,,,,,,,,,,,,,,,,,,,,,,,,,,,,,,,,,,,,,,,,,,,,,,,,,,,,,,,,,,,,,,,,,,,1,1.504911899974104,640.0316673999769,None,ScrollDown,정답입니다,640.0316673999769,None,640.0316673999769,None,640.0316673999769,None,640.0316673999769,None,641.4381987999659,None,641.4381987999659,641.9421888999641,,,,,,,,,,,,,,,,107,2022-05-02_09h24.06.179,FishGame,2022.1.1,60.01983056327316,
,44,넌 외로워,4,Green,B,2.833333333333333,3.3,ScrollUp,ScrollDown,Green.png,4,Negative,Congruent,0,0,0,0,,,,,,,,,,,,,,,,,,,,,,,,,0,43,43,43,,,,,,,,,,,,,,,,,,,,,,,,,,,,,,,,,,,,,,,,,,,,,,,,,,,,,,,,,,,,,,,,,,,,,,,,,2,1.4818828999996185,642.570587299997,None,ScrollUp,정답입니다,642.570587299997,None,642.570587299997,None,642.570587299997,None,642.570587299997,None,643.947068599984,None,643.947068599984,644.4591322999913,,,,,,,,,,,,,,,,107,2022-05-02_09h24.06.179,FishGame,2022.1.1,60.01983056327316,
,1,넌 불평스러워,5,Orange,A,2.25,2.066666666666667,ScrollDown,ScrollUp,Orange.png,5,Negative,Incongruent,0,0,0,0,,,,,,,,,,,,,,,,,,,,,,,,,,,,,0,0,0,0,,,,,,,,,,,,,,,,,,,,,,,,,,,,677.4263727999642,678.9259066999657,678.9588834000169,679.9090067999787,679.9590134000173,680.9096587999957,680.9096587999957,None,,,,,,,,,,,,,,,,,,,,,,,,,,,,,,,,,,1,1.6031968999886885,682.0427296999842,None,ScrollDown,정답입니다,682.0427296999842,None,682.0427296999842,None,682.0427296999842,None,682.0427296999842,None,683.5091284000082,None,683.5091284000082,684.0088563999743,644.9590894000139,None,644.9590894000139,None,0.047222223,-0.106481485,1,0,0,0.016258830029983073,None,674.9589180999901,None,,,107,2022-05-02_09h24.06.179,FishGame,2022.1.1,60.01983056327316,
,2,나를 보내줘,6,Orange,A,0,0,ScrollUp,ScrollDown,Orange.png,5,NonTarget,NonTarget,0,0,0,0,,,,,,,,,,,,,,,,,,,,,,,,,,,,,0,1,1,1,,,,,,,,,,,,,,,,,,,,,,,,,,,,,,,,,,,,,,,,,,,,,,,,,,,,,,,,,,,,,,,,,,,,,2,1.2495172999915667,684.6345275999629,None,ScrollUp,정답입니다,684.6345275999629,None,684.6345275999629,None,684.6345275999629,None,684.6345275999629,None,685.7803737999639,None,685.7803737999639,686.2922399999807,,,,,,,,,,,,,,,,107,2022-05-02_09h24.06.179,FishGame,2022.1.1,60.01983056327316,
,3,넌 다재다능해,2,Green,B,6.208333333333333,4.5,ScrollUp,ScrollDown,Green.png,5,Positive,Incongruent,0,0,0,0,,,,,,,,,,,,,,,,,,,,,,,,,,,,,0,2,2,2,,,,,,,,,,,,,,,,,,,,,,,,,,,,,,,,,,,,,,,,,,,,,,,,,,,,,,,,,,,,,,,,,,,,,2,1.1921125000226311,686.9175304999808,None,ScrollUp,정답입니다,686.9175304999808,None,686.9175304999808,None,686.9175304999808,None,686.9175304999808,None,688.009199299966,None,688.009199299966,688.5088387000142,,,,,,,,,,,,,,,,107,2022-05-02_09h24.06.179,FishGame,2022.1.1,60.01983056327316,
,4,넌 과감해,3,Orange,A,4.833333333333334,4.6,ScrollDown,ScrollUp,Orange.png,5,Neutral,Neutral,0,0,0,0,,,,,,,,,,,,,,,,,,,,,,,,,,,,,0,3,3,3,,,,,,,,,,,,,,,,,,,,,,,,,,,,,,,,,,,,,,,,,,,,,,,,,,,,,,,,,,,,,,,,,,,,,1,1.2560202999738976,689.1422493999708,None,ScrollDown,정답입니다,689.1422493999708,None,689.1422493999708,None,689.1422493999708,None,689.1422493999708,None,690.2922168999794,None,690.2922168999794,690.7925978999701,,,,,,,,,,,,,,,,107,2022-05-02_09h24.06.179,FishGame,2022.1.1,60.01983056327316,
,5,넌 고분고분해,3,Green,B,3.75,4.033333333333333,ScrollUp,ScrollDown,Green.png,5,Neutral,Neutral,0,0,0,0,,,,,,,,,,,,,,,,,,,,,,,,,,,,,0,4,4,4,,,,,,,,,,,,,,,,,,,,,,,,,,,,,,,,,,,,,,,,,,,,,,,,,,,,,,,,,,,,,,,,,,,,,1.9382716119289398,1.333895699994173,691.4292997000157,None,ScrollUp,정답입니다,691.4292997000157,None,691.4292997000157,None,691.4292997000157,None,691.4292997000157,None,692.647666600009,None,692.647666600009,693.158999199979,,,,,,,,,,,,,,,,107,2022-05-02_09h24.06.179,FishGame,2022.1.1,60.01983056327316,
,6,나를 보내줘,6,Orange,A,0,0,ScrollUp,ScrollDown,Orange.png,5,NonTarget,NonTarget,0,0,0,0,,,,,,,,,,,,,,,,,,,,,,,,,,,,,0,5,5,5,,,,,,,,,,,,,,,,,,,,,,,,,,,,,,,,,,,,,,,,,,,,,,,,,,,,,,,,,,,,,,,,,,,,,2,1.2565502999932505,693.7890423999634,None,ScrollUp,정답입니다,693.7890423999634,None,693.7890423999634,None,693.7890423999634,None,693.7890423999634,None,694.9395011999877,None,694.9395011999877,695.4427490999806,,,,,,,,,,,,,,,,107,2022-05-02_09h24.06.179,FishGame,2022.1.1,60.01983056327316,
,7,넌 잘 잊어,4,Orange,A,3,3.7,ScrollDown,ScrollUp,Orange.png,5,Negative,Incongruent,0,0,0,0,,,,,,,,,,,,,,,,,,,,,,,,,,,,,0,6,6,6,,,,,,,,,,,,,,,,,,,,,,,,,,,,,,,,,,,,,,,,,,,,,,,,,,,,,,,,,,,,,,,,,,,,,1,1.1732436000020243,696.0759699000046,None,ScrollDown,정답입니다,696.0759699000046,None,696.0759699000046,None,696.0759699000046,None,696.0759699000046,None,697.1394185000099,None,697.1394185000099,697.642809699988,,,,,,,,,,,,,,,,107,2022-05-02_09h24.06.179,FishGame,2022.1.1,60.01983056327316,
,8,넌 탐구심이없어,4,Green,B,2.833333333333333,3.066666666666667,ScrollUp,ScrollDown,Green.png,5,Negative,Congruent,0,0,0,0,,,,,,,,,,,,,,,,,,,,,,,,,,,,,0,7,7,7,,,,,,,,,,,,,,,,,,,,,,,,,,,,,,,,,,,,,,,,,,,,,,,,,,,,,,,,,,,,,,,,,,,,,2,1.1258596999687143,698.2727038000012,None,ScrollUp,정답입니다,698.2727038000012,None,698.2727038000012,None,698.2727038000012,None,698.2727038000012,None,699.2929889999796,None,699.2929889999796,699.7923740000115,,,,,,,,,,,,,,,,107,2022-05-02_09h24.06.179,FishGame,2022.1.1,60.01983056327316,
,9,나를 데려가줘,6,Green,B,0,0,ScrollDown,ScrollUp,Green.png,5,NonTarget,NonTarget,0,0,0,0,,,,,,,,,,,,,,,,,,,,,,,,,,,,,0,8,8,8,,,,,,,,,,,,,,,,,,,,,,,,,,,,,,,,,,,,,,,,,,,,,,,,,,,,,,,,,,,,,,,,,,,,,1,1.5825407999800518,700.4198857999872,None,ScrollDown,정답입니다,700.4198857999872,None,700.4198857999872,None,700.4198857999872,None,700.4198857999872,None,701.8979840999818,None,701.8979840999818,702.4092518999823,,,,,,,,,,,,,,,,107,2022-05-02_09h24.06.179,FishGame,2022.1.1,60.01983056327316,
,10,넌 참되어,2,Orange,A,6.041666666666664,4.733333333333333,ScrollDown,ScrollUp,Orange.png,5,Positive,Congruent,0,0,0,0,,,,,,,,,,,,,,,,,,,,,,,,,,,,,0,9,9,9,,,,,,,,,,,,,,,,,,,,,,,,,,,,,,,,,,,,,,,,,,,,,,,,,,,,,,,,,,,,,,,,,,,,,1,1.3700181999593042,703.0406218999997,None,ScrollDown,정답입니다,703.0406218999997,None,703.0406218999997,None,703.0406218999997,None,703.0406218999997,None,704.3062298999866,None,704.3062298999866,704.8098035000148,,,,,,,,,,,,,,,,107,2022-05-02_09h24.06.179,FishGame,2022.1.1,60.01983056327316,
,11,넌 생기있어,1,Green,B,5.875,5.633333333333334,ScrollUp,ScrollDown,Green.png,5,Positive,Incongruent,0,0,0,0,,,,,,,,,,,,,,,,,,,,,,,,,,,,,0,10,10,10,,,,,,,,,,,,,,,,,,,,,,,,,,,,,,,,,,,,,,,,,,,,,,,,,,,,,,,,,,,,,,,,,,,,,2,1.3619814999983646,705.4338212999864,None,ScrollUp,정답입니다,705.4338212999864,None,705.4338212999864,None,705.4338212999864,None,705.4338212999864,None,706.6951618000166,None,706.6951618000166,707.2098836000077,,,,,,,,,,,,,,,,107,2022-05-02_09h24.06.179,FishGame,2022.1.1,60.01983056327316,
,12,넌 비사교적이야,4,Green,B,2.875,2.9,ScrollUp,ScrollDown,Green.png,5,Negative,Congruent,0,0,0,0,,,,,,,,,,,,,,,,,,,,,,,,,,,,,0,11,11,11,,,,,,,,,,,,,,,,,,,,,,,,,,,,,,,,,,,,,,,,,,,,,,,,,,,,,,,,,,,,,,,,,,,,,2,1.5697246000054292,707.8345048999763,None,ScrollUp,정답입니다,707.8345048999763,None,707.8345048999763,None,707.8345048999763,None,707.8345048999763,None,709.3059369999683,None,709.3059369999683,709.8094536999706,,,,,,,,,,,,,,,,107,2022-05-02_09h24.06.179,FishGame,2022.1.1,60.01983056327316,
,13,나를 데려가줘,6,Green,B,0,0,ScrollDown,ScrollUp,Green.png,5,NonTarget,NonTarget,0,0,0,0,,,,,,,,,,,,,,,,,,,,,,,,,,,,,0,12,12,12,,,,,,,,,,,,,,,,,,,,,,,,,,,,,,,,,,,,,,,,,,,,,,,,,,,,,,,,,,,,,,,,,,,,,1,1.5952146999770775,710.4328881999827,None,ScrollDown,정답입니다,710.4328881999827,None,710.4328881999827,None,710.4328881999827,None,710.4328881999827,None,711.9263744999771,None,711.9263744999771,712.4263473000028,,,,,,,,,,,,,,,,107,2022-05-02_09h24.06.179,FishGame,2022.1.1,60.01983056327316,
,14,넌 고독해,4,Orange,A,2.916666666666667,3.233333333333333,ScrollDown,ScrollUp,Orange.png,5,Negative,Incongruent,0,0,0,0,,,,,,,,,,,,,,,,,,,,,,,,,,,,,0,13,13,13,,,,,,,,,,,,,,,,,,,,,,,,,,,,,,,,,,,,,,,,,,,,,,,,,,,,,,,,,,,,,,,,,,,,,1,1.3719091000384651,713.05962179997,None,ScrollDown,정답입니다,713.05962179997,None,713.05962179997,None,713.05962179997,None,713.05962179997,None,714.3262890999904,None,714.3262890999904,714.8268947000033,,,,,,,,,,,,,,,,107,2022-05-02_09h24.06.179,FishGame,2022.1.1,60.01983056327316,
,15,넌 신경질적이야,5,Green,B,2.375,2.233333333333333,ScrollUp,ScrollDown,Green.png,5,Negative,Congruent,0,0,0,0,,,,,,,,,,,,,,,,,,,,,,,,,,,,,0,14,14,14,,,,,,,,,,,,,,,,,,,,,,,,,,,,,,,,,,,,,,,,,,,,,,,,,,,,,,,,,,,,,,,,,,,,,2,1.4572944999672472,715.4558730999706,None,ScrollUp,정답입니다,715.4558730999706,None,715.4558730999706,None,715.4558730999706,None,715.4558730999706,None,716.8098489000113,None,716.8098489000113,717.3100365999853,,,,,,,,,,,,,,,,107,2022-05-02_09h24.06.179,FishGame,2022.1.1,60.01983056327316,
,16,넌 똑똑해,2,Green,B,5.666666666666667,3.966666666666667,ScrollUp,ScrollDown,Green.png,5,Positive,Incongruent,0,0,0,0,,,,,,,,,,,,,,,,,,,,,,,,,,,,,0,15,15,15,,,,,,,,,,,,,,,,,,,,,,,,,,,,,,,,,,,,,,,,,,,,,,,,,,,,,,,,,,,,,,,,,,,,,2,1.5697221999871545,717.9360428999644,None,ScrollUp,정답입니다,717.9360428999644,None,717.9360428999644,None,717.9360428999644,None,717.9360428999644,None,719.4063283000141,None,719.4063283000141,719.9095873999759,,,,,,,,,,,,,,,,107,2022-05-02_09h24.06.179,FishGame,2022.1.1,60.01983056327316,
,17,나를 보내줘,6,Orange,A,0,0,ScrollUp,ScrollDown,Orange.png,5,NonTarget,NonTarget,0,0,0,0,,,,,,,,,,,,,,,,,,,,,,,,,,,,,0,16,16,16,,,,,,,,,,,,,,,,,,,,,,,,,,,,,,,,,,,,,,,,,,,,,,,,,,,,,,,,,,,,,,,,,,,,,2,1.6990651999949478,720.5393617000082,None,ScrollUp,정답입니다,720.5393617000082,None,720.5393617000082,None,720.5393617000082,None,720.5393617000082,None,722.1322117999662,None,722.1322117999662,722.6431085999939,,,,,,,,,,,,,,,,107,2022-05-02_09h24.06.179,FishGame,2022.1.1,60.01983056327316,
,18,넌 협조적이야,1,Orange,A,5.625,5.666666666666667,ScrollDown,ScrollUp,Orange.png,5,Positive,Congruent,0,0,0,0,,,,,,,,,,,,,,,,,,,,,,,,,,,,,0,17,17,17,,,,,,,,,,,,,,,,,,,,,,,,,,,,,,,,,,,,,,,,,,,,,,,,,,,,,,,,,,,,,,,,,,,,,1,1.393644000054337,723.270538199984,None,ScrollDown,정답입니다,723.270538199984,None,723.270538199984,None,723.270538199984,None,723.270538199984,None,724.5599654999678,None,724.5599654999678,725.0604385999613,,,,,,,,,,,,,,,,107,2022-05-02_09h24.06.179,FishGame,2022.1.1,60.01983056327316,
,19,나를 데려가줘,6,Green,B,0,0,ScrollDown,ScrollUp,Green.png,5,NonTarget,NonTarget,0,0,0,0,,,,,,,,,,,,,,,,,,,,,,,,,,,,,0,18,18,18,,,,,,,,,,,,,,,,,,,,,,,,,,,,,,,,,,,,,,,,,,,,,,,,,,,,,,,,,,,,,,,,,,,,,1,2.5900441999547184,725.6801401000121,None,ScrollDown,정답입니다,725.6801401000121,None,725.6801401000121,None,725.6801401000121,None,725.6801401000121,None,728.1767409999738,None,728.1767409999738,728.6773907999741,,,,,,,,,,,,,,,,107,2022-05-02_09h24.06.179,FishGame,2022.1.1,60.01983056327316,
,20,넌 몰인정해,5,Green,B,2.541666666666667,2.066666666666667,ScrollUp,ScrollDown,Green.png,5,Negative,Congruent,0,0,0,0,,,,,,,,,,,,,,,,,,,,,,,,,,,,,0,19,19,19,,,,,,,,,,,,,,,,,,,,,,,,,,,,,,,,,,,,,,,,,,,,,,,,,,,,,,,,,,,,,,,,,,,,,2,1.3894096000003628,729.3119939999888,None,ScrollUp,정답입니다,729.3119939999888,None,729.3119939999888,None,729.3119939999888,None,729.3119939999888,None,730.5932101999642,None,730.5932101999642,731.0930764999939,,,,,,,,,,,,,,,,107,2022-05-02_09h24.06.179,FishGame,2022.1.1,60.01983056327316,
,21,나를 데려가줘,6,Green,B,0,0,ScrollDown,ScrollUp,Green.png,5,NonTarget,NonTarget,0,0,0,0,,,,,,,,,,,,,,,,,,,,,,,,,,,,,0,20,20,20,,,,,,,,,,,,,,,,,,,,,,,,,,,,,,,,,,,,,,,,,,,,,,,,,,,,,,,,,,,,,,,,,,,,,1,1.286526799958665,731.7138600999606,None,ScrollDown,정답입니다,731.7138600999606,None,731.7138600999606,None,731.7138600999606,None,731.7138600999606,None,732.9066363999736,None,732.9066363999736,733.410269999993,,,,,,,,,,,,,,,,107,2022-05-02_09h24.06.179,FishGame,2022.1.1,60.01983056327316,
,22,넌 순진해,3,Green,B,4.125,4.166666666666667,ScrollUp,ScrollDown,Green.png,5,Neutral,Neutral,0,0,0,0,,,,,,,,,,,,,,,,,,,,,,,,,,,,,0,21,21,21,,,,,,,,,,,,,,,,,,,,,,,,,,,,,,,,,,,,,,,,,,,,,,,,,,,,,,,,,,,,,,,,,,,,,2,1.1873880000202917,734.0322613000171,None,ScrollUp,정답입니다,734.0322613000171,None,734.0322613000171,None,734.0322613000171,None,734.0322613000171,None,735.1232237999793,None,735.1232237999793,735.627063699998,,,,,,,,,,,,,,,,107,2022-05-02_09h24.06.179,FishGame,2022.1.1,60.01983056327316,
,23,넌 신뢰할만해,1,Orange,A,6.625,5.533333333333333,ScrollDown,ScrollUp,Orange.png,5,Positive,Congruent,0,0,0,0,,,,,,,,,,,,,,,,,,,,,,,,,,,,,0,22,22,22,,,,,,,,,,,,,,,,,,,,,,,,,,,,,,,,,,,,,,,,,,,,,,,,,,,,,,,,,,,,,,,,,,,,,1,1.3773701000027359,736.2721978999907,None,ScrollDown,정답입니다,736.2721978999907,None,736.2721978999907,None,736.2721978999907,None,736.2721978999907,None,737.5269548000069,None,737.5269548000069,738.0270021999604,,,,,,,,,,,,,,,,107,2022-05-02_09h24.06.179,FishGame,2022.1.1,60.01983056327316,
,24,나를 보내줘,6,Orange,A,0,0,ScrollUp,ScrollDown,Orange.png,5,NonTarget,NonTarget,0,0,0,0,,,,,,,,,,,,,,,,,,,,,,,,,,,,,0,23,23,23,,,,,,,,,,,,,,,,,,,,,,,,,,,,,,,,,,,,,,,,,,,,,,,,,,,,,,,,,,,,,,,,,,,,,2,1.1956072999746539,738.6520081000053,None,ScrollUp,정답입니다,738.6520081000053,None,738.6520081000053,None,738.6520081000053,None,738.6520081000053,None,739.7435506000184,None,739.7435506000184,740.243306099961,,,,,,,,,,,,,,,,107,2022-05-02_09h24.06.179,FishGame,2022.1.1,60.01983056327316,
,25,넌 인색해,5,Orange,A,2.625,2.233333333333333,ScrollDown,ScrollUp,Orange.png,5,Negative,Incongruent,0,0,0,0,,,,,,,,,,,,,,,,,,,,,,,,,,,,,0,24,24,24,,,,,,,,,,,,,,,,,,,,,,,,,,,,,,,,,,,,,,,,,,,,,,,,,,,,,,,,,,,,,,,,,,,,,1,1.7369329999783076,740.8757680999697,None,ScrollDown,정답입니다,740.8757680999697,None,740.8757680999697,None,740.8757680999697,None,740.8757680999697,None,742.5069275000133,None,742.5069275000133,743.0106837999774,,,,,,,,,,,,,,,,107,2022-05-02_09h24.06.179,FishGame,2022.1.1,60.01983056327316,
